wordCTK,colorCTK,corrAnsCTK,congruentCTK,thisN,thisTrialN,thisRepN,keyResp_CTK.keys,keyResp_CTK.corr,keyResp_CTK.rt,keyResp_CTK.duration,wordPractice,colorPractice,corrAnsPractice,congruentPractice,respPractice.keys,respPractice.corr,respPractice.rt,respPractice.duration,word,color,corrAns,congruent,keyResp_test_run.keys,keyResp_test_run.corr,keyResp_test_run.rt,keyResp_test_run.duration,trials_CTK.thisRepN,trials_CTK.thisTrialN,trials_CTK.thisN,trials_CTK.thisIndex,trials_practice.thisRepN,trials_practice.thisTrialN,trials_practice.thisN,trials_practice.thisIndex,trials_test.thisRepN,trials_test.thisTrialN,trials_test.thisN,trials_test.thisIndex,thisRow.t,notes,instruction.started,instr_text.started,instr_image.started,instr_resp.started,instruction.stopped,instr_resp.keys,instr_resp.rt,instr_resp.duration,instr_color_to_key.started,instr_ctk.started,resp_ctk.started,instr_color_to_key.stopped,resp_ctk.keys,resp_ctk.rt,resp_ctk.duration,ITI.started,fixcross.started,fixcross.stopped,ITI.stopped,color_to_key_run.started,stimulus_CTK.started,keyResp_CTK.started,color_to_key_run.stopped,trials_CTK.keyResp_CTK.keys,trials_CTK.keyResp_CTK.corr,trials_CTK.keyResp_CTK.rt,trials_CTK.keyResp_CTK.duration,instr_practice.started,instr_practice_text.started,instr_practice_resp.started,instr_practice.stopped,instr_practice_resp.keys,instr_practice_resp.rt,instr_practice_resp.duration,practice_run.started,stimulus_practice.started,respPractice.started,practice_run.stopped,trials_practice.respPractice.keys,trials_practice.respPractice.corr,trials_practice.respPractice.rt,trials_practice.respPractice.duration,feedback.started,textFeedback.started,textFeedback.stopped,feedback.stopped,instr_test.started,instr_test_text.started,instr_test_resp.started,instr_test.stopped,instr_test_resp.keys,instr_test_resp.rt,instr_test_resp.duration,test_run.started,stimulus_test_run.started,keyResp_test_run.started,test_run.stopped,trials_test.keyResp_test_run.keys,trials_test.keyResp_test_run.corr,trials_test.keyResp_test_run.rt,trials_test.keyResp_test_run.duration,goodbye.started,textGoodbye.started,textGoodbye.stopped,goodbye.stopped,participant,session,expName,frameRate,Unnamed: 113
,,,,,,,,,,,,,,,,,,,,,,,,,,,,,,,,,,,,,,,,,0.0062084000091999,0.021519900066778,0.021519900066778,0.021519900066778,84.23720300011337,space,84.08603999996558,,,,,,,,,,,,,,,,,,,,,,,,,,,,,,,,,,,,,,,,,,,,,,,,,,,,,,,,,,,sub-040,1,stroop_test,59.77965222213362,
,,,,,,,,,,,,,,,,,,,,,,,,,,,,,,,,,,,,,,,,,,,,,,,,,84.23727360018529,84.24666370009072,84.24666370009072,89.42327860021032,space,5.172606799984351,,,,,,,,,,,,,,,,,,,,,,,,,,,,,,,,,,,,,,,,,,,,,,,,,,,,sub-040,1,stroop_test,59.77965222213362,
test,red,r,1.0,0.0,0.0,0.0,r,1.0,2.003516900120303,,,,,,,,,,,,,,,,,,0.0,0.0,0.0,0.0,,,,,,,,,89.48788330005482,,,,,,,,,,,,,,,,,89.48112610005774,89.53793020010926,90.34793710010126,90.3224825002253,90.34085080004296,90.34793710010126,90.34793710010126,92.35512010008097,r,1.0,2.003516900120303,,,,,,,,,,,,,,,,,,,,,,,,,,,,,,,,,,,,,,,,sub-040,1,stroop_test,59.77965222213362,
test,blue,b,1.0,1.0,1.0,0.0,b,1.0,1.6522109999787062,,,,,,,,,,,,,,,,,,0.0,1.0,1.0,2.0,,,,,,,,,92.3709906002041,,,,,,,,,,,,,,,,,92.35548660019413,93.5550456000492,94.3548248000443,94.33984350017272,94.3402878001798,94.3548248000443,94.3548248000443,96.02226670016536,b,1.0,1.6522109999787062,,,,,,,,,,,,,,,,,,,,,,,,,,,,,,,,,,,,,,,,sub-040,1,stroop_test,59.77965222213362,
test,yellow,g,1.0,2.0,2.0,0.0,g,1.0,1.4647361000534147,,,,,,,,,,,,,,,,,,0.0,2.0,2.0,1.0,,,,,,,,,96.03771190019324,,,,,,,,,,,,,,,,,96.02260120003484,97.2373183001764,98.03866600012408,98.0222223000601,98.0226976000704,98.03866600012408,98.03866600012408,99.50693940022028,g,1.0,1.4647361000534147,,,,,,,,,,,,,,,,,,,,,,,,,,,,,,,,,,,,,,,,sub-040,1,stroop_test,59.77965222213362,
test,yellow,g,1.0,3.0,0.0,1.0,g,1.0,0.7394046999979764,,,,,,,,,,,,,,,,,,1.0,0.0,3.0,1.0,,,,,,,,,99.52229220001028,,,,,,,,,,,,,,,,,99.50725960009731,99.62161820009352,100.4209240002092,100.4066185001284,100.4071090000216,100.4209240002092,100.4209240002092,101.1723138000816,g,1.0,0.7394046999979764,,,,,,,,,,,,,,,,,,,,,,,,,,,,,,,,,,,,,,,,sub-040,1,stroop_test,59.77965222213362,
test,red,r,1.0,4.0,1.0,1.0,r,1.0,0.6650912000332028,,,,,,,,,,,,,,,,,,1.0,1.0,4.0,0.0,,,,,,,,,101.18803940014914,,,,,,,,,,,,,,,,,101.1725938001182,101.5369457001798,102.3388995002024,102.32266150019132,102.3231803001836,102.3388995002024,102.3388995002024,103.00580310006626,r,1.0,0.6650912000332028,,,,,,,,,,,,,,,,,,,,,,,,,,,,,,,,,,,,,,,,sub-040,1,stroop_test,59.77965222213362,
test,blue,b,1.0,5.0,2.0,1.0,b,1.0,0.420551500050351,,,,,,,,,,,,,,,,,,1.0,2.0,5.0,2.0,,,,,,,,,103.0214764000848,,,,,,,,,,,,,,,,,103.00614980002864,104.20569450012408,105.0209287002217,105.00470510008743,105.0051430000458,105.0209287002217,105.0209287002217,105.4564246002119,b,1.0,0.420551500050351,,,,,,,,,,,,,,,,,,,,,,,,,,,,,,,,,,,,,,,,sub-040,1,stroop_test,59.77965222213362,
test,blue,b,1.0,6.0,0.0,2.0,b,1.0,1.6482185998465866,,,,,,,,,,,,,,,,,,2.0,0.0,6.0,2.0,,,,,,,,,105.47175030014478,,,,,,,,,,,,,,,,,105.45670200022867,106.67158300010487,107.47125260019676,107.45518210018054,107.45559570007026,107.47125260019676,107.47125260019676,109.12290100008248,b,1.0,1.6482185998465866,,,,,,,,,,,,,,,,,,,,,,,,,,,,,,,,,,,,,,,,sub-040,1,stroop_test,59.77965222213362,
test,yellow,g,1.0,7.0,1.0,2.0,g,1.0,1.443118100054562,,,,,,,,,,,,,,,,,,2.0,1.0,7.0,1.0,,,,,,,,,109.13807060010733,,,,,,,,,,,,,,,,,109.12322890013456,110.32156410021707,111.1212379001081,111.10467340005562,111.10510120005348,111.1212379001081,111.1212379001081,112.57280380022712,g,1.0,1.443118100054562,,,,,,,,,,,,,,,,,,,,,,,,,,,,,,,,,,,,,,,,sub-040,1,stroop_test,59.77965222213362,
test,red,r,1.0,8.0,2.0,2.0,r,1.0,0.608732599997893,,,,,,,,,,,,,,,,,,2.0,2.0,8.0,0.0,,,,,,,,,112.58758030016908,,,,,,,,,,,,,,,,,112.5731368002016,112.6886058000382,113.49122850014828,113.47260950016788,113.47303940006532,113.49122850014828,113.49122850014828,114.1052815001458,r,1.0,0.608732599997893,,,,,,,,,,,,,,,,,,,,,,,,,,,,,,,,,,,,,,,,sub-040,1,stroop_test,59.77965222213362,
test,blue,b,1.0,9.0,0.0,3.0,b,1.0,0.9802371999248862,,,,,,,,,,,,,,,,,,3.0,0.0,9.0,2.0,,,,,,,,,114.12110140011646,,,,,,,,,,,,,,,,,114.1055643002037,114.90406660013832,115.7036818000488,115.68741280003452,115.6879355001729,115.7036818000488,115.7036818000488,116.68953340011647,b,1.0,0.9802371999248862,,,,,,,,,,,,,,,,,,,,,,,,,,,,,,,,,,,,,,,,sub-040,1,stroop_test,59.77965222213362,
test,red,r,1.0,10.0,1.0,3.0,r,1.0,1.6724497000686824,,,,,,,,,,,,,,,,,,3.0,1.0,10.0,0.0,,,,,,,,,116.7044621000532,,,,,,,,,,,,,,,,,116.6898547001183,116.80530310003088,117.60498640011065,117.58938200003468,117.58984370017424,117.60498640011065,117.60498640011065,119.2881586002186,r,1.0,1.6724497000686824,,,,,,,,,,,,,,,,,,,,,,,,,,,,,,,,,,,,,,,,sub-040,1,stroop_test,59.77965222213362,
test,yellow,g,1.0,11.0,2.0,3.0,g,1.0,1.3686132000293585,,,,,,,,,,,,,,,,,,3.0,2.0,11.0,1.0,,,,,,,,,119.30423160013744,,,,,,,,,,,,,,,,,119.28843160020187,119.38821170013398,120.18766540009528,120.17183290002868,120.17229900020176,120.18766540009528,120.18766540009528,121.57231370010412,g,1.0,1.3686132000293585,,,,,,,,,,,,,,,,,,,,,,,,,,,,,,,,,,,,,,,,sub-040,1,stroop_test,59.77965222213362,
,,,,,,,,,,,,,,,,,,,,,,,,,,,,,,,,,,,,,,,,,,,,,,,,,,,,,,,,,,,,,,,,,,,,121.57244770019317,121.58811160014012,121.58811160014012,125.97339450009169,space,4.3835471998900175,,,,,,,,,,,,,,,,,,,,,,,,,,,,,,,,,sub-040,1,stroop_test,59.77965222213362,
,,,,0.0,0.0,0.0,,,,,rot,red,r,1.0,r,1.0,0.8664158000610769,,,,,,,,,,,,,,0.0,0.0,0.0,1.0,,,,,126.0171316000633,,,,,,,,,,,,,,,,,126.01025790022686,126.33002270013094,127.1291112001054,127.11312870006076,,,,,,,,,,,,,,,,127.1185536000412,127.1291112001054,127.1291112001054,127.99817280005664,r,1.0,0.8664158000610769,,128.00451630004682,128.01252880017273,129.01326870010234,128.99783920007758,,,,,,,,,,,,,,,,,,,,sub-040,1,stroop_test,59.77965222213362,
,,,,1.0,1.0,0.0,,,,,rot,blue,b,0.0,b,1.0,2.377331000054255,,,,,,,,,,,,,,0.0,1.0,1.0,2.0,,,,,129.01326870010234,,,,,,,,,,,,,,,,,128.99812050000764,129.8134441000875,130.61318640015088,130.59782880009152,,,,,,,,,,,,,,,,130.5982726002112,130.61318640015088,130.61318640015088,132.99783960008062,b,1.0,2.377331000054255,,132.9982849000953,133.01269950019196,134.01304900017567,133.99762400006875,,,,,,,,,,,,,,,,,,,,sub-040,1,stroop_test,59.77965222213362,
,,,,2.0,2.0,0.0,,,,,gelb,yellow,g,1.0,g,1.0,1.0635214000940325,,,,,,,,,,,,,,0.0,2.0,2.0,10.0,,,,,134.01304900017567,,,,,,,,,,,,,,,,,133.99791950010697,134.7963796001859,135.5961782000959,135.57947370014153,,,,,,,,,,,,,,,,135.58410300011747,135.5961782000959,135.5961782000959,136.6641013000626,g,1.0,1.0635214000940325,,136.6645513002295,136.6801975001581,137.67983380006626,137.6639909001533,,,,,,,,,,,,,,,,,,,,sub-040,1,stroop_test,59.77965222213362,
,,,,3.0,3.0,0.0,,,,,rot,yellow,g,0.0,g,1.0,1.7633934000041336,,,,,,,,,,,,,,0.0,3.0,3.0,3.0,,,,,137.67983380006626,,,,,,,,,,,,,,,,,137.66428100015037,138.01362470001914,138.82942970003933,138.8130765000824,,,,,,,,,,,,,,,,138.81542250001803,138.82942970003933,138.82942970003933,140.59649190003984,g,1.0,1.7633934000041336,,140.59699080022983,140.61243650014512,,141.59697090019472,,,,,,,,,,,,,,,,,,,,sub-040,1,stroop_test,59.77965222213362,
,,,,4.0,4.0,0.0,,,,,blau,blue,b,1.0,b,1.0,0.9346849001012744,,,,,,,,,,,,,,0.0,4.0,4.0,5.0,,,,,141.61356500000693,,,,,,,,,,,,,,,,,141.59727890021168,142.79678250011057,143.61258180020377,143.59623080003075,,,,,,,,,,,,,,,,143.6009489002172,143.61258180020377,143.61258180020377,144.56395730003717,b,1.0,0.9346849001012744,,144.56449130014516,144.5791990000289,145.57970160013065,145.56400160002522,,,,,,,,,,,,,,,,,,,,sub-040,1,stroop_test,59.77965222213362,
,,,,5.0,5.0,0.0,,,,,gelb,red,r,0.0,r,1.0,1.3918339000083506,,,,,,,,,,,,,,0.0,5.0,5.0,8.0,,,,,145.57970160013065,,,,,,,,,,,,,,,,,145.5643955001142,145.67908560018986,146.47877500019968,146.46333370008506,,,,,,,,,,,,,,,,146.4663147001993,146.47877500019968,146.47877500019968,147.8798121002037,r,1.0,1.3918339000083506,,147.88031570008025,147.8956612001639,,148.88043320016004,,,,,,,,,,,,,,,,,,,,sub-040,1,stroop_test,59.77965222213362,
,,,,6.0,6.0,0.0,,,,,blau,red,r,0.0,r,1.0,1.993686200119555,,,,,,,,,,,,,,0.0,6.0,6.0,4.0,,,,,148.8972275000997,,,,,,,,,,,,,,,,,148.88077630009502,148.97931810002774,149.7795324001927,149.7642062001396,,,,,,,,,,,,,,,,149.76642780005932,149.7795324001927,149.7795324001927,151.78028280008584,r,1.0,1.993686200119555,,151.7807580002118,151.7959677001927,152.7964916001074,152.7805851001758,,,,,,,,,,,,,,,,,,,,sub-040,1,stroop_test,59.77965222213362,
,,,,7.0,7.0,0.0,,,,,gelb,yellow,g,1.0,g,1.0,1.1895965998992324,,,,,,,,,,,,,,0.0,7.0,7.0,11.0,,,,,152.7964916001074,,,,,,,,,,,,,,,,,152.78086020005867,153.12976980023086,153.92934820009395,153.9138230001554,,,,,,,,,,,,,,,,153.91603650012985,153.92934820009395,153.92934820009395,155.13100010016933,g,1.0,1.1895965998992324,,155.13145480002277,155.14605910005048,156.1459830000531,156.13014980009757,,,,,,,,,,,,,,,,,,,,sub-040,1,stroop_test,59.77965222213362,
,,,,8.0,8.0,0.0,,,,,gelb,blue,b,0.0,b,1.0,1.824629799928516,,,,,,,,,,,,,,0.0,8.0,8.0,9.0,,,,,156.1459830000531,,,,,,,,,,,,,,,,,156.13048670021817,156.9300133001525,157.7303604001645,157.71381080010906,,,,,,,,,,,,,,,,157.71426070015875,157.7303604001645,157.7303604001645,159.56339280004613,b,1.0,1.824629799928516,,159.56381270010024,159.5792112001218,160.58004910009913,160.5636361001525,,,,,,,,,,,,,,,,,,,,sub-040,1,stroop_test,59.77965222213362,
,,,,9.0,9.0,0.0,,,,,blau,blue,b,1.0,b,1.0,0.9305336999241264,,,,,,,,,,,,,,0.0,9.0,9.0,6.0,,,,,160.58004910009913,,,,,,,,,,,,,,,,,160.5639039000962,160.66239160019904,161.4621026001405,161.44634570018388,,,,,,,,,,,,,,,,161.4493756000884,161.4621026001405,161.4621026001405,162.39700850006193,b,1.0,0.9305336999241264,,162.3975266001653,162.41286350018345,163.41239770012908,163.3964021001011,,,,,,,,,,,,,,,,,,,,sub-040,1,stroop_test,59.77965222213362,
,,,,10.0,10.0,0.0,,,,,rot,red,r,1.0,r,1.0,1.0011903999838978,,,,,,,,,,,,,,0.0,10.0,10.0,0.0,,,,,163.41239770012908,,,,,,,,,,,,,,,,,163.39676270005293,163.5120486000087,164.31265870016068,164.29659010004252,,,,,,,,,,,,,,,,164.29887120006606,164.31265870016068,164.31265870016068,165.33024360006675,r,1.0,1.0011903999838978,,165.33079870021902,165.34505770006217,166.34584980015643,166.33010890008882,,,,,,,,,,,,,,,,,,,,sub-040,1,stroop_test,59.77965222213362,
,,,,11.0,11.0,0.0,,,,,blau,yellow,g,0.0,g,1.0,1.2629017001017928,,,,,,,,,,,,,,0.0,11.0,11.0,7.0,,,,,166.34584980015643,,,,,,,,,,,,,,,,,166.33039610018022,167.53012010012753,168.32904720003717,168.31396030006,,,,,,,,,,,,,,,,168.31674400018528,168.32904720003717,168.32904720003717,169.597168300068,g,1.0,1.2629017001017928,,169.5976154000964,169.61289140000008,170.6127804000862,170.59698840021156,,,,,,,,,,,,,,,,,,,,sub-040,1,stroop_test,59.77965222213362,
,,,,12.0,0.0,1.0,,,,,rot,blue,b,0.0,b,1.0,1.092810499947518,,,,,,,,,,,,,,1.0,0.0,12.0,2.0,,,,,170.6127804000862,,,,,,,,,,,,,,,,,170.59732740023173,171.39675190020353,172.1965154001955,172.1812140000984,,,,,,,,,,,,,,,,172.18347150017507,172.1965154001955,172.1965154001955,173.2964274000842,b,1.0,1.092810499947518,,173.29685760010034,173.3124548001215,,174.29688250017352,,,,,,,,,,,,,,,,,,,,sub-040,1,stroop_test,59.77965222213362,
,,,,13.0,1.0,1.0,,,,,gelb,yellow,g,1.0,g,1.0,1.0483890001196414,,,,,,,,,,,,,,1.0,1.0,13.0,11.0,,,,,174.31387630011886,,,,,,,,,,,,,,,,,174.2972378002014,175.4951179001946,176.29585920018144,176.28084170003422,,,,,,,,,,,,,,,,176.28320220019668,176.29585920018144,176.29585920018144,177.3478449000977,g,1.0,1.0483890001196414,,177.34835170023143,177.3625675002113,178.36367030022666,178.34683890012093,,,,,,,,,,,,,,,,,,,,sub-040,1,stroop_test,59.77965222213362,
,,,,14.0,2.0,1.0,,,,,blau,red,r,0.0,r,1.0,1.1449483998585492,,,,,,,,,,,,,,1.0,2.0,14.0,4.0,,,,,178.36367030022666,,,,,,,,,,,,,,,,,178.34718380006962,178.7126195000019,179.51277640019543,179.49763260013424,,,,,,,,,,,,,,,,179.5003636002075,179.51277640019543,179.51277640019543,180.66509420005605,r,1.0,1.1449483998585492,,180.66554320021527,180.6795879001729,181.67924750014208,181.662923200056,,,,,,,,,,,,,,,,,,,,sub-040,1,stroop_test,59.77965222213362,
,,,,15.0,3.0,1.0,,,,,gelb,blue,b,0.0,b,1.0,1.0305395000614226,,,,,,,,,,,,,,1.0,3.0,15.0,9.0,,,,,181.67924750014208,,,,,,,,,,,,,,,,,181.6632566000335,181.77914540003985,182.5798818001058,182.56364550022408,,,,,,,,,,,,,,,,182.5660156002268,182.5798818001058,182.5798818001058,183.6139778001234,b,1.0,1.0305395000614226,,183.6144086001441,183.62968180002645,184.630249200156,184.6138440000359,,,,,,,,,,,,,,,,,,,,sub-040,1,stroop_test,59.77965222213362,
,,,,16.0,4.0,1.0,,,,,blau,blue,b,1.0,b,1.0,0.9205608000047504,,,,,,,,,,,,,,1.0,4.0,16.0,6.0,,,,,184.630249200156,,,,,,,,,,,,,,,,,184.6141216000542,185.82866230001676,186.6333727000747,186.6129286000505,,,,,,,,,,,,,,,,186.61614890000783,186.6333727000747,186.6333727000747,187.5632720000576,b,1.0,0.9205608000047504,,187.5639091001358,187.57908560009676,188.57977200020105,188.56383290002125,,,,,,,,,,,,,,,,,,,,sub-040,1,stroop_test,59.77965222213362,
,,,,17.0,5.0,1.0,,,,,gelb,yellow,g,1.0,g,1.0,1.4086441001854837,,,,,,,,,,,,,,1.0,5.0,17.0,10.0,,,,,188.57977200020105,,,,,,,,,,,,,,,,,188.5641510002315,189.3789346001577,190.18000310007483,190.16346310009249,,,,,,,,,,,,,,,,190.1658696001396,190.18000310007483,190.18000310007483,191.59710270003416,g,1.0,1.4086441001854837,,191.59763440000825,191.61213840008716,192.6135271000676,192.59749480010944,,,,,,,,,,,,,,,,,,,,sub-040,1,stroop_test,59.77965222213362,
,,,,18.0,6.0,1.0,,,,,rot,red,r,1.0,r,1.0,1.5220949000213295,,,,,,,,,,,,,,1.0,6.0,18.0,1.0,,,,,192.6135271000676,,,,,,,,,,,,,,,,,192.59777540015057,192.6969871001784,193.4963653001469,193.4806926001329,,,,,,,,,,,,,,,,193.48345330008303,193.4963653001469,193.4963653001469,195.03053760016337,r,1.0,1.5220949000213295,,195.03105960018,195.04614190012217,196.04625230003148,196.0308403000236,,,,,,,,,,,,,,,,,,,,sub-040,1,stroop_test,59.77965222213362,
,,,,19.0,7.0,1.0,,,,,blau,yellow,g,0.0,g,1.0,1.590756499907002,,,,,,,,,,,,,,1.0,7.0,19.0,7.0,,,,,196.04625230003148,,,,,,,,,,,,,,,,,196.03111170022748,196.84569740016013,197.64658720023,197.63023090013303,,,,,,,,,,,,,,,,197.63237620005384,197.64658720023,197.64658720023,199.2475545001216,g,1.0,1.590756499907002,,199.24798760004344,199.26258080010305,200.26289870007892,200.24635530007072,,,,,,,,,,,,,,,,,,,,sub-040,1,stroop_test,59.77965222213362,
,,,,20.0,8.0,1.0,,,,,rot,yellow,g,0.0,g,1.0,1.3859470000024885,,,,,,,,,,,,,,1.0,8.0,20.0,3.0,,,,,200.26289870007892,,,,,,,,,,,,,,,,,200.24662200012244,201.06295170006345,201.86306270002387,201.8471386001911,,,,,,,,,,,,,,,,201.84941780008376,201.86306270002387,201.86306270002387,203.26376980007623,g,1.0,1.3859470000024885,,203.2641974000726,203.27931870007887,204.2794803001452,204.26399880019017,,,,,,,,,,,,,,,,,,,,sub-040,1,stroop_test,59.77965222213362,
,,,,21.0,9.0,1.0,,,,,gelb,red,r,0.0,r,1.0,1.1622752000112089,,,,,,,,,,,,,,1.0,9.0,21.0,8.0,,,,,204.2794803001452,,,,,,,,,,,,,,,,,204.2643348001875,205.06320810015316,205.86226710001935,205.8462248002179,,,,,,,,,,,,,,,,205.8489443000872,205.86226710001935,205.86226710001935,207.03000100003555,r,1.0,1.1622752000112089,,207.0305377000477,207.04542070021853,208.04651430016384,208.03055690019391,,,,,,,,,,,,,,,,,,,,sub-040,1,stroop_test,59.77965222213362,
,,,,22.0,10.0,1.0,,,,,blau,blue,b,1.0,b,1.0,0.970016400096938,,,,,,,,,,,,,,1.0,10.0,22.0,5.0,,,,,208.04651430016384,,,,,,,,,,,,,,,,,208.03085380000996,208.8294495001901,209.62869460019283,209.613089900231,,,,,,,,,,,,,,,,209.6163543001749,209.62869460019283,209.62869460019283,210.61383850011043,b,1.0,0.970016400096938,,210.6142731001601,210.6295989002101,211.62898120004684,211.6127618001774,,,,,,,,,,,,,,,,,,,,sub-040,1,stroop_test,59.77965222213362,
,,,,23.0,11.0,1.0,,,,,rot,red,r,1.0,r,1.0,1.668301499914378,,,,,,,,,,,,,,1.0,11.0,23.0,0.0,,,,,211.62898120004684,,,,,,,,,,,,,,,,,211.61313310009427,212.4283161000349,213.229527000105,213.21359160006975,,,,,,,,,,,,,,,,213.2158002001233,213.229527000105,213.229527000105,214.91431320016272,r,1.0,1.668301499914378,,214.9149277000688,214.92925040004772,215.9294504001737,215.9138051001355,,,,,,,,,,,,,,,,,,,,sub-040,1,stroop_test,59.77965222213362,
,,,,,,,,,,,,,,,,,,,,,,,,,,,,,,,,,,,,,,,,,,,,,,,,,,,,,,,,,,,,,,,,,,,,,,,,,,,,,,,,,,,,,,,215.9139277001377,215.9294504001737,215.9294504001737,221.44637760007757,space,5.510906200157479,,,,,,,,,,,,,,sub-040,1,stroop_test,59.77965222213362,
,,,,0.0,0.0,0.0,,,,,,,,,,,,,blau,red,r,0.0,r,1.0,1.6346718999557197,,,,,,,,,,0.0,0.0,0.0,4.0,221.47906380007043,,,,,,,,,,,,,,,,,221.4728722001892,222.2495969000738,223.04981900006533,223.0336091001518,,,,,,,,,,,,,,,,,,,,,,,,,,,,,,,,,,,223.03593420004472,223.04981900006533,223.04981900006533,224.69941140012816,r,1.0,1.6346718999557197,,,,,,sub-040,1,stroop_test,59.77965222213362,
,,,,1.0,1.0,0.0,,,,,,,,,,,,,blau,blue,b,1.0,b,1.0,1.061604999937117,,,,,,,,,,0.0,1.0,1.0,6.0,224.71558780013584,,,,,,,,,,,,,,,,,224.6997825000435,225.05003860010763,225.85099420021288,225.8337039002217,,,,,,,,,,,,,,,,,,,,,,,,,,,,,,,,,,,225.83443190017715,225.85099420021288,225.85099420021288,226.91706230002453,b,1.0,1.061604999937117,,,,,,sub-040,1,stroop_test,59.77965222213362,
,,,,2.0,2.0,0.0,,,,,,,,,,,,,gelb,yellow,g,1.0,g,1.0,0.9258267998229712,,,,,,,,,,0.0,2.0,2.0,11.0,226.9323721001856,,,,,,,,,,,,,,,,,226.91737340018156,227.71702210023068,228.51623990014195,228.50003930018283,,,,,,,,,,,,,,,,,,,,,,,,,,,,,,,,,,,228.5023387002293,228.51623990014195,228.51623990014195,229.4500376000069,g,1.0,0.9258267998229712,,,,,,sub-040,1,stroop_test,59.77965222213362,
,,,,3.0,3.0,0.0,,,,,,,,,,,,,gelb,blue,b,0.0,b,1.0,1.2175797999370843,,,,,,,,,,0.0,3.0,3.0,9.0,229.46606750017963,,,,,,,,,,,,,,,,,229.4504071001429,229.8002993001137,230.59975860011764,230.58490930008705,,,,,,,,,,,,,,,,,,,,,,,,,,,,,,,,,,,230.58533540018837,230.59975860011764,230.59975860011764,231.83448820002377,b,1.0,1.2175797999370843,,,,,,sub-040,1,stroop_test,59.77965222213362,
,,,,4.0,4.0,0.0,,,,,,,,,,,,,rot,yellow,g,0.0,g,1.0,1.1860360000282526,,,,,,,,,,0.0,4.0,4.0,3.0,231.8502386000473,,,,,,,,,,,,,,,,,231.8347886002157,232.18304550019093,232.98346760007556,232.96736550005156,,,,,,,,,,,,,,,,,,,,,,,,,,,,,,,,,,,232.96956900018267,232.98346760007556,232.98346760007556,234.1835867001209,g,1.0,1.1860360000282526,,,,,,sub-040,1,stroop_test,59.77965222213362,
,,,,5.0,5.0,0.0,,,,,,,,,,,,,gelb,yellow,g,1.0,g,1.0,0.9902110998518764,,,,,,,,,,0.0,5.0,5.0,10.0,234.19928749999963,,,,,,,,,,,,,,,,,234.1838917999994,234.99959010002203,235.7992232001852,235.7829853000585,,,,,,,,,,,,,,,,,,,,,,,,,,,,,,,,,,,235.785452300217,235.7992232001852,235.7992232001852,236.80116130015813,g,1.0,0.9902110998518764,,,,,,sub-040,1,stroop_test,59.77965222213362,
,,,,6.0,6.0,0.0,,,,,,,,,,,,,blau,yellow,g,0.0,g,1.0,1.13810779992491,,,,,,,,,,0.0,6.0,6.0,7.0,236.8166635001544,,,,,,,,,,,,,,,,,236.80155160021968,237.16652640001848,237.96633240021765,237.9510778000113,,,,,,,,,,,,,,,,,,,,,,,,,,,,,,,,,,,237.95360690006052,237.96633240021765,237.96633240021765,239.11656460003,g,1.0,1.13810779992491,,,,,,sub-040,1,stroop_test,59.77965222213362,
,,,,7.0,7.0,0.0,,,,,,,,,,,,,rot,blue,b,0.0,b,1.0,0.9502805001102388,,,,,,,,,,0.0,7.0,7.0,2.0,239.13286520005204,,,,,,,,,,,,,,,,,239.1169506001752,239.91612480022013,240.7165838000365,240.69963420019485,,,,,,,,,,,,,,,,,,,,,,,,,,,,,,,,,,,240.70190860005096,240.7165838000365,240.7165838000365,241.6831027001608,b,1.0,0.9502805001102388,,,,,,sub-040,1,stroop_test,59.77965222213362,
,,,,8.0,8.0,0.0,,,,,,,,,,,,,blau,blue,b,1.0,b,1.0,0.7396887000650167,,,,,,,,,,0.0,8.0,8.0,5.0,241.6990100000985,,,,,,,,,,,,,,,,,241.68349180021323,242.89910850021988,243.69965120009147,243.6839330000803,,,,,,,,,,,,,,,,,,,,,,,,,,,,,,,,,,,243.68743630009703,243.69965120009147,243.69965120009147,244.45110200019556,b,1.0,0.7396887000650167,,,,,,sub-040,1,stroop_test,59.77965222213362,
,,,,9.0,9.0,0.0,,,,,,,,,,,,,rot,red,r,1.0,r,1.0,0.7869218999985605,,,,,,,,,,0.0,9.0,9.0,1.0,244.4660505000502,,,,,,,,,,,,,,,,,244.45148760010488,244.800485300133,245.59961210004985,245.5838087000884,,,,,,,,,,,,,,,,,,,,,,,,,,,,,,,,,,,245.58589370013212,245.59961210004985,245.59961210004985,246.40013250010088,r,1.0,0.7869218999985605,,,,,,sub-040,1,stroop_test,59.77965222213362,
,,,,10.0,10.0,0.0,,,,,,,,,,,,,rot,red,r,1.0,r,1.0,0.5207881999667734,,,,,,,,,,0.0,10.0,10.0,0.0,246.4154658000916,,,,,,,,,,,,,,,,,246.4005568001885,247.6155759000685,248.4165688001085,248.39986720005984,,,,,,,,,,,,,,,,,,,,,,,,,,,,,,,,,,,248.4003560000565,248.4165688001085,248.4165688001085,248.95020100008696,r,1.0,0.5207881999667734,,,,,,sub-040,1,stroop_test,59.77965222213362,
,,,,11.0,11.0,0.0,,,,,,,,,,,,,gelb,red,r,0.0,r,1.0,0.9867138999979944,,,,,,,,,,0.0,11.0,11.0,8.0,248.96691290009767,,,,,,,,,,,,,,,,,248.9505450001452,249.7503424000461,250.54998760018495,250.5335146000143,,,,,,,,,,,,,,,,,,,,,,,,,,,,,,,,,,,250.53630070015788,250.54998760018495,250.54998760018495,251.5504261001479,r,1.0,0.9867138999979944,,,,,,sub-040,1,stroop_test,59.77965222213362,
,,,,12.0,0.0,1.0,,,,,,,,,,,,,blau,blue,b,1.0,b,1.0,0.7334002999123186,,,,,,,,,,1.0,0.0,12.0,6.0,251.56562560005116,,,,,,,,,,,,,,,,,251.5507329001557,251.89971520006657,252.69950840016827,252.68370850011704,,,,,,,,,,,,,,,,,,,,,,,,,,,,,,,,,,,252.68590350006707,252.69950840016827,252.69950840016827,253.4498912000563,b,1.0,0.7334002999123186,,,,,,sub-040,1,stroop_test,59.77965222213362,
,,,,13.0,1.0,1.0,,,,,,,,,,,,,blau,yellow,g,0.0,g,1.0,1.4479048000648618,,,,,,,,,,1.0,1.0,13.0,7.0,253.4657589001581,,,,,,,,,,,,,,,,,253.45030100014992,253.54969160002656,254.3503342000768,254.3337335002143,,,,,,,,,,,,,,,,,,,,,,,,,,,,,,,,,,,254.3342695001047,254.3503342000768,254.3503342000768,255.80001250002533,g,1.0,1.4479048000648618,,,,,,sub-040,1,stroop_test,59.77965222213362,
,,,,14.0,2.0,1.0,,,,,,,,,,,,,gelb,yellow,g,1.0,g,1.0,0.7677428000606596,,,,,,,,,,1.0,2.0,14.0,10.0,255.815202700207,,,,,,,,,,,,,,,,,255.8003926000092,255.8990905000828,256.69968210021034,256.683760400163,,,,,,,,,,,,,,,,,,,,,,,,,,,,,,,,,,,256.6866282001138,256.69968210021034,256.69968210021034,257.48394410009496,g,1.0,0.7677428000606596,,,,,,sub-040,1,stroop_test,59.77965222213362,
,,,,15.0,3.0,1.0,,,,,,,,,,,,,blau,blue,b,1.0,b,1.0,1.1457197000272572,,,,,,,,,,1.0,3.0,15.0,5.0,257.4996050000191,,,,,,,,,,,,,,,,,257.4843515001703,257.85019840020686,258.7224713000469,258.63358910009265,,,,,,,,,,,,,,,,,,,,,,,,,,,,,,,,,,,258.71450210013427,258.7224713000469,258.7224713000469,259.8763777001295,b,1.0,1.1457197000272572,,,,,,sub-040,1,stroop_test,59.77965222213362,
,,,,16.0,4.0,1.0,,,,,,,,,,,,,rot,yellow,g,0.0,g,1.0,1.6213420999702066,,,,,,,,,,1.0,4.0,16.0,3.0,259.8916553000454,,,,,,,,,,,,,,,,,259.876764500048,261.0909553000238,261.8917746001389,261.8758089002222,,,,,,,,,,,,,,,,,,,,,,,,,,,,,,,,,,,261.8781708001625,261.8917746001389,261.8917746001389,263.525876800064,g,1.0,1.6213420999702066,,,,,,sub-040,1,stroop_test,59.77965222213362,
,,,,17.0,5.0,1.0,,,,,,,,,,,,,gelb,yellow,g,1.0,g,1.0,0.7100732999388129,,,,,,,,,,1.0,5.0,17.0,11.0,263.5414933001157,,,,,,,,,,,,,,,,,263.52618350018747,263.64101710007526,264.4407770000398,264.4254203001037,,,,,,,,,,,,,,,,,,,,,,,,,,,,,,,,,,,264.4279808001593,264.4407770000398,264.4407770000398,265.158808800159,g,1.0,0.7100732999388129,,,,,,sub-040,1,stroop_test,59.77965222213362,
,,,,18.0,6.0,1.0,,,,,,,,,,,,,rot,red,r,1.0,r,1.0,0.5495494001079351,,,,,,,,,,1.0,6.0,18.0,0.0,265.1740443001036,,,,,,,,,,,,,,,,,265.159208400175,265.9579571001232,266.7572143001016,266.74131650011986,,,,,,,,,,,,,,,,,,,,,,,,,,,,,,,,,,,266.7436493001878,266.7572143001016,266.7572143001016,267.3082675000187,r,1.0,0.5495494001079351,,,,,,sub-040,1,stroop_test,59.77965222213362,
,,,,19.0,7.0,1.0,,,,,,,,,,,,,rot,blue,b,0.0,b,1.0,1.185322499834001,,,,,,,,,,1.0,7.0,19.0,2.0,267.3234153001104,,,,,,,,,,,,,,,,,267.308692800114,268.5079300000798,269.3076802000869,269.29224400012754,,,,,,,,,,,,,,,,,,,,,,,,,,,,,,,,,,,269.2927466002293,269.3076802000869,269.3076802000869,270.51134680002,b,1.0,1.185322499834001,,,,,,sub-040,1,stroop_test,59.77965222213362,
,,,,20.0,8.0,1.0,,,,,,,,,,,,,rot,red,r,1.0,r,1.0,3.106245300034061,,,,,,,,,,1.0,8.0,20.0,1.0,270.524265000131,,,,,,,,,,,,,,,,,270.5116614000872,271.72540450003,272.5250176000409,272.50877410010435,,,,,,,,,,,,,,,,,,,,,,,,,,,,,,,,,,,272.5092563000508,272.5250176000409,272.5250176000409,275.6420283000916,r,1.0,3.106245300034061,,,,,,sub-040,1,stroop_test,59.77965222213362,
,,,,21.0,9.0,1.0,,,,,,,,,,,,,gelb,blue,b,0.0,b,1.0,1.0978833998087794,,,,,,,,,,1.0,9.0,21.0,9.0,275.65740490006283,,,,,,,,,,,,,,,,,275.642423100071,276.0065714002121,276.8076578001492,276.792036900064,,,,,,,,,,,,,,,,,,,,,,,,,,,,,,,,,,,276.79480920010246,276.8076578001492,276.8076578001492,277.908129400108,b,1.0,1.0978833998087794,,,,,,sub-040,1,stroop_test,59.77965222213362,
,,,,22.0,10.0,1.0,,,,,,,,,,,,,blau,red,r,0.0,r,1.0,1.070914699928835,,,,,,,,,,1.0,10.0,22.0,4.0,277.92397480015643,,,,,,,,,,,,,,,,,277.9085071000736,278.00713920011185,278.8080045001116,278.79221340012737,,,,,,,,,,,,,,,,,,,,,,,,,,,,,,,,,,,278.79445690009743,278.8080045001116,278.8080045001116,279.89252290013246,r,1.0,1.070914699928835,,,,,,sub-040,1,stroop_test,59.77965222213362,
,,,,23.0,11.0,1.0,,,,,,,,,,,,,gelb,red,r,0.0,r,1.0,1.3146243998780849,,,,,,,,,,1.0,11.0,23.0,8.0,279.9083669001702,,,,,,,,,,,,,,,,,279.892827300122,281.1076056000311,281.907814900158,281.89194260002114,,,,,,,,,,,,,,,,,,,,,,,,,,,,,,,,,,,281.89411560003646,281.907814900158,281.907814900158,283.225051100133,r,1.0,1.3146243998780849,,,,,,sub-040,1,stroop_test,59.77965222213362,
,,,,24.0,0.0,2.0,,,,,,,,,,,,,blau,yellow,g,0.0,g,1.0,1.3790033000987023,,,,,,,,,,2.0,0.0,24.0,7.0,283.2403781001922,,,,,,,,,,,,,,,,,283.22542820009403,283.5746242001187,284.37450520019047,284.3582325000316,,,,,,,,,,,,,,,,,,,,,,,,,,,,,,,,,,,284.3605156000704,284.37450520019047,284.37450520019047,285.7587840000633,g,1.0,1.3790033000987023,,,,,,sub-040,1,stroop_test,59.77965222213362,
,,,,25.0,1.0,2.0,,,,,,,,,,,,,rot,blue,b,0.0,b,1.0,0.8874629000201821,,,,,,,,,,2.0,1.0,25.0,2.0,285.7741231000982,,,,,,,,,,,,,,,,,285.7590920000803,285.873726000078,286.67494830000214,286.65850490005687,,,,,,,,,,,,,,,,,,,,,,,,,,,,,,,,,,,286.6606160001829,286.67494830000214,286.67494830000214,287.5754646002315,b,1.0,0.8874629000201821,,,,,,sub-040,1,stroop_test,59.77965222213362,
,,,,26.0,2.0,2.0,,,,,,,,,,,,,blau,red,r,0.0,r,1.0,0.7887749001383781,,,,,,,,,,2.0,2.0,26.0,4.0,287.5907613001764,,,,,,,,,,,,,,,,,287.5757606001571,288.7746790000237,289.5742660001852,289.5581032000482,,,,,,,,,,,,,,,,,,,,,,,,,,,,,,,,,,,289.56023710011505,289.5742660001852,289.5742660001852,290.3752958001569,r,1.0,0.7887749001383781,,,,,,sub-040,1,stroop_test,59.77965222213362,
,,,,27.0,3.0,2.0,,,,,,,,,,,,,rot,yellow,g,0.0,g,1.0,1.0167258000001311,,,,,,,,,,2.0,3.0,27.0,3.0,290.39133640006185,,,,,,,,,,,,,,,,,290.3756010001525,290.4748901000712,291.29029130004346,291.27465600008145,,,,,,,,,,,,,,,,,,,,,,,,,,,,,,,,,,,291.27823710022494,291.29029130004346,291.29029130004346,292.30925810011104,g,1.0,1.0167258000001311,,,,,,sub-040,1,stroop_test,59.77965222213362,
,,,,28.0,4.0,2.0,,,,,,,,,,,,,gelb,yellow,g,1.0,g,1.0,0.7056951001286507,,,,,,,,,,2.0,4.0,28.0,11.0,292.3233822002076,,,,,,,,,,,,,,,,,292.30963760009035,292.4232592000626,293.2238035001792,293.2073646001518,,,,,,,,,,,,,,,,,,,,,,,,,,,,,,,,,,,293.21070780023,293.2238035001792,293.2238035001792,293.9415814001113,g,1.0,0.7056951001286507,,,,,,sub-040,1,stroop_test,59.77965222213362,
,,,,29.0,5.0,2.0,,,,,,,,,,,,,blau,blue,b,1.0,b,1.0,0.7627073999028653,,,,,,,,,,2.0,5.0,29.0,6.0,293.9565161000937,,,,,,,,,,,,,,,,,293.9420201000757,294.29095160006545,295.0904728001915,295.0751225000713,,,,,,,,,,,,,,,,,,,,,,,,,,,,,,,,,,,295.0774335002061,295.0904728001915,295.0904728001915,295.8577502002008,b,1.0,0.7627073999028653,,,,,,sub-040,1,stroop_test,59.77965222213362,
,,,,30.0,6.0,2.0,,,,,,,,,,,,,gelb,yellow,g,1.0,g,1.0,0.7829251000657678,,,,,,,,,,2.0,6.0,30.0,10.0,295.87346310005523,,,,,,,,,,,,,,,,,295.85815340001136,296.20682830014266,297.0078772001434,296.99125910014845,,,,,,,,,,,,,,,,,,,,,,,,,,,,,,,,,,,296.99400370009243,297.0078772001434,297.0078772001434,297.792054500198,g,1.0,0.7829251000657678,,,,,,sub-040,1,stroop_test,59.77965222213362,
,,,,31.0,7.0,2.0,,,,,,,,,,,,,rot,red,r,1.0,r,1.0,0.4774370000232011,,,,,,,,,,2.0,7.0,31.0,1.0,297.80664290022105,,,,,,,,,,,,,,,,,297.79247320001014,298.6074411000591,299.408760700142,299.3925825001206,,,,,,,,,,,,,,,,,,,,,,,,,,,,,,,,,,,299.3948591002263,299.408760700142,299.408760700142,299.8919427001383,r,1.0,0.4774370000232011,,,,,,sub-040,1,stroop_test,59.77965222213362,
,,,,32.0,8.0,2.0,,,,,,,,,,,,,rot,red,r,1.0,r,1.0,0.6617070999927819,,,,,,,,,,2.0,8.0,32.0,0.0,299.9077072001528,,,,,,,,,,,,,,,,,299.89233180019073,301.108286900213,301.9239299001638,301.90716990013607,,,,,,,,,,,,,,,,,,,,,,,,,,,,,,,,,,,301.90767860016786,301.9239299001638,301.9239299001638,302.59277320001274,r,1.0,0.6617070999927819,,,,,,sub-040,1,stroop_test,59.77965222213362,
,,,,33.0,9.0,2.0,,,,,,,,,,,,,gelb,red,r,0.0,r,1.0,1.437431199941784,,,,,,,,,,2.0,9.0,33.0,8.0,302.6075229002163,,,,,,,,,,,,,,,,,302.59307620022446,303.8072251002304,304.60717990016565,304.5913398000412,,,,,,,,,,,,,,,,,,,,,,,,,,,,,,,,,,,304.5939927001018,304.60717990016565,304.60717990016565,306.0461429001298,r,1.0,1.437431199941784,,,,,,sub-040,1,stroop_test,59.77965222213362,
,,,,34.0,10.0,2.0,,,,,,,,,,,,,gelb,blue,b,0.0,b,1.0,1.0585487999487668,,,,,,,,,,2.0,10.0,34.0,9.0,306.0566529000644,,,,,,,,,,,,,,,,,306.04655870003626,306.8572392000351,307.6578449001536,307.6408660002053,,,,,,,,,,,,,,,,,,,,,,,,,,,,,,,,,,,307.6413415002171,307.6578449001536,307.6578449001536,308.724609100027,b,1.0,1.0585487999487668,,,,,,sub-040,1,stroop_test,59.77965222213362,
,,,,35.0,11.0,2.0,,,,,,,,,,,,,blau,blue,b,1.0,b,1.0,1.191746799973771,,,,,,,,,,2.0,11.0,35.0,5.0,308.7410017000512,,,,,,,,,,,,,,,,,308.724911400117,309.92410510010086,310.72423230018467,310.7078559000511,,,,,,,,,,,,,,,,,,,,,,,,,,,,,,,,,,,310.7106535001658,310.72423230018467,310.72423230018467,311.9246928000357,b,1.0,1.191746799973771,,,,,,sub-040,1,stroop_test,59.77965222213362,
,,,,36.0,0.0,3.0,,,,,,,,,,,,,rot,yellow,g,0.0,g,1.0,1.8210284998640416,,,,,,,,,,3.0,0.0,36.0,3.0,311.9404330002144,,,,,,,,,,,,,,,,,311.92509970022365,312.04045640002005,312.841859200038,312.8245143000968,,,,,,,,,,,,,,,,,,,,,,,,,,,,,,,,,,,312.8266428001225,312.841859200038,312.841859200038,314.67502210009843,g,1.0,1.8210284998640416,,,,,,sub-040,1,stroop_test,59.77965222213362,
,,,,37.0,1.0,3.0,,,,,,,,,,,,,blau,yellow,g,0.0,g,1.0,0.9936132999137044,,,,,,,,,,3.0,1.0,37.0,7.0,314.69057610002346,,,,,,,,,,,,,,,,,314.6753585000988,315.47391920001246,316.2741358000785,316.2574993001763,,,,,,,,,,,,,,,,,,,,,,,,,,,,,,,,,,,316.260579300113,316.2741358000785,316.2741358000785,317.2755855000578,g,1.0,0.9936132999137044,,,,,,sub-040,1,stroop_test,59.77965222213362,
,,,,38.0,2.0,3.0,,,,,,,,,,,,,blau,red,r,0.0,r,1.0,0.8606064000632614,,,,,,,,,,3.0,2.0,38.0,4.0,317.2911160001531,,,,,,,,,,,,,,,,,317.2759686000645,318.0912114002276,318.8905397001654,318.8753097001463,,,,,,,,,,,,,,,,,,,,,,,,,,,,,,,,,,,318.87581410002895,318.8905397001654,318.8905397001654,319.75860410020687,r,1.0,0.8606064000632614,,,,,,sub-040,1,stroop_test,59.77965222213362,
,,,,39.0,3.0,3.0,,,,,,,,,,,,,gelb,blue,b,0.0,b,1.0,1.1346321001183242,,,,,,,,,,3.0,3.0,39.0,9.0,319.77408920018934,,,,,,,,,,,,,,,,,319.7590073000174,320.9736173001584,321.7738027002197,321.75758630014025,,,,,,,,,,,,,,,,,,,,,,,,,,,,,,,,,,,321.759917500196,321.7738027002197,321.7738027002197,322.9256944002118,b,1.0,1.1346321001183242,,,,,,sub-040,1,stroop_test,59.77965222213362,
,,,,40.0,4.0,3.0,,,,,,,,,,,,,gelb,yellow,g,1.0,g,1.0,1.1762538000475615,,,,,,,,,,3.0,4.0,40.0,11.0,322.9413990001194,,,,,,,,,,,,,,,,,322.92603450012393,323.290844600182,324.0910921001341,324.0749122002162,,,,,,,,,,,,,,,,,,,,,,,,,,,,,,,,,,,324.07532440009527,324.0910921001341,324.0910921001341,325.278635900002,g,1.0,1.1762538000475615,,,,,,sub-040,1,stroop_test,59.77965222213362,
,,,,41.0,5.0,3.0,,,,,,,,,,,,,rot,red,r,1.0,r,1.0,0.8433723000343889,,,,,,,,,,3.0,5.0,41.0,0.0,325.28991870000027,,,,,,,,,,,,,,,,,325.27910640020855,325.63978050020523,326.4401319001336,326.423966600094,,,,,,,,,,,,,,,,,,,,,,,,,,,,,,,,,,,326.4268306000158,326.4401319001336,326.4401319001336,327.291251800023,r,1.0,0.8433723000343889,,,,,,sub-040,1,stroop_test,59.77965222213362,
,,,,42.0,6.0,3.0,,,,,,,,,,,,,rot,red,r,1.0,r,1.0,0.6958751999773085,,,,,,,,,,3.0,6.0,42.0,1.0,327.30664780014195,,,,,,,,,,,,,,,,,327.291554100113,328.4908226002008,329.2911104001105,329.27539910003543,,,,,,,,,,,,,,,,,,,,,,,,,,,,,,,,,,,329.27587200002745,329.2911104001105,329.2911104001105,329.99137010006234,r,1.0,0.6958751999773085,,,,,,sub-040,1,stroop_test,59.77965222213362,
,,,,43.0,7.0,3.0,,,,,,,,,,,,,rot,blue,b,0.0,b,1.0,1.092291000066325,,,,,,,,,,3.0,7.0,43.0,2.0,330.0079018000979,,,,,,,,,,,,,,,,,329.99167330004275,330.3403930000495,331.1405686000362,331.1251022000797,,,,,,,,,,,,,,,,,,,,,,,,,,,,,,,,,,,331.12557020015083,331.1405686000362,331.1405686000362,332.2417929000221,b,1.0,1.092291000066325,,,,,,sub-040,1,stroop_test,59.77965222213362,
,,,,44.0,8.0,3.0,,,,,,,,,,,,,blau,blue,b,1.0,b,1.0,0.7121991999447346,,,,,,,,,,3.0,8.0,44.0,5.0,332.257544600172,,,,,,,,,,,,,,,,,332.2420968001243,332.3577247001231,333.15743850008585,333.14100760011934,,,,,,,,,,,,,,,,,,,,,,,,,,,,,,,,,,,333.1436988001224,333.15743850008585,333.15743850008585,333.8757806001231,b,1.0,0.7121991999447346,,,,,,sub-040,1,stroop_test,59.77965222213362,
,,,,45.0,9.0,3.0,,,,,,,,,,,,,blau,blue,b,1.0,b,1.0,0.6102048999164253,,,,,,,,,,3.0,9.0,45.0,6.0,333.89070670004,,,,,,,,,,,,,,,,,333.8760896001477,333.9912894000299,334.79174180002883,334.77545780013315,,,,,,,,,,,,,,,,,,,,,,,,,,,,,,,,,,,334.77596440003254,334.79174180002883,334.79174180002883,335.40847750008106,b,1.0,0.6102048999164253,,,,,,sub-040,1,stroop_test,59.77965222213362,
,,,,46.0,10.0,3.0,,,,,,,,,,,,,gelb,red,r,0.0,r,1.0,1.015546099981293,,,,,,,,,,3.0,10.0,46.0,8.0,335.4250119000208,,,,,,,,,,,,,,,,,335.4087895001285,335.5243736000266,336.3244400001131,336.30847930000164,,,,,,,,,,,,,,,,,,,,,,,,,,,,,,,,,,,336.3112600001041,336.3244400001131,336.3244400001131,337.3414174001664,r,1.0,1.015546099981293,,,,,,sub-040,1,stroop_test,59.77965222213362,
,,,,47.0,11.0,3.0,,,,,,,,,,,,,gelb,yellow,g,1.0,g,1.0,0.5444850998464972,,,,,,,,,,3.0,11.0,47.0,10.0,337.3564346001949,,,,,,,,,,,,,,,,,337.34172280016355,338.1414255001582,338.9410011,338.92566680000164,,,,,,,,,,,,,,,,,,,,,,,,,,,,,,,,,,,338.9260888001881,338.9410011,338.9410011,339.49206040007994,g,1.0,0.5444850998464972,,,,,,sub-040,1,stroop_test,59.77965222213362,
,,,,48.0,0.0,4.0,,,,,,,,,,,,,rot,red,r,1.0,r,1.0,0.8026226998772472,,,,,,,,,,4.0,0.0,48.0,0.0,339.50718730012886,,,,,,,,,,,,,,,,,339.49239540006965,340.7076791001018,341.5071241001133,341.4918763001915,,,,,,,,,,,,,,,,,,,,,,,,,,,,,,,,,,,341.4941593001131,341.5071241001133,341.5071241001133,342.32573380018584,r,1.0,0.8026226998772472,,,,,,sub-040,1,stroop_test,59.77965222213362,
,,,,49.0,1.0,4.0,,,,,,,,,,,,,gelb,yellow,g,1.0,g,1.0,0.9210339998826385,,,,,,,,,,4.0,1.0,49.0,10.0,342.3410686000716,,,,,,,,,,,,,,,,,342.3261138000525,342.4406549001578,343.24127880018204,343.2250227001496,,,,,,,,,,,,,,,,,,,,,,,,,,,,,,,,,,,343.2272838000208,343.24127880018204,343.24127880018204,344.17458890005946,g,1.0,0.9210339998826385,,,,,,sub-040,1,stroop_test,59.77965222213362,
,,,,50.0,2.0,4.0,,,,,,,,,,,,,rot,blue,b,0.0,b,1.0,1.1596375000663102,,,,,,,,,,4.0,2.0,50.0,2.0,344.190706100082,,,,,,,,,,,,,,,,,344.1748959000688,344.9743433000985,345.77429150021635,345.7582710001152,,,,,,,,,,,,,,,,,,,,,,,,,,,,,,,,,,,345.76046490017325,345.77429150021635,345.77429150021635,346.94172130012885,b,1.0,1.1596375000663102,,,,,,sub-040,1,stroop_test,59.77965222213362,
,,,,51.0,3.0,4.0,,,,,,,,,,,,,gelb,yellow,g,1.0,g,1.0,1.1911293000448495,,,,,,,,,,4.0,3.0,51.0,11.0,346.9572101000231,,,,,,,,,,,,,,,,,346.94204860017635,347.2911556002218,348.0907415000256,348.07523030019365,,,,,,,,,,,,,,,,,,,,,,,,,,,,,,,,,,,348.07804910000414,348.0907415000256,348.0907415000256,349.2921002001967,g,1.0,1.1911293000448495,,,,,,sub-040,1,stroop_test,59.77965222213362,
,,,,52.0,4.0,4.0,,,,,,,,,,,,,blau,blue,b,1.0,b,1.0,0.8389365999028087,,,,,,,,,,4.0,4.0,52.0,6.0,349.3073576001916,,,,,,,,,,,,,,,,,349.2924012001604,350.5076407000888,351.3073487000074,351.2913214000873,,,,,,,,,,,,,,,,,,,,,,,,,,,,,,,,,,,351.2938355000224,351.3073487000074,351.3073487000074,352.15901280008256,b,1.0,0.8389365999028087,,,,,,sub-040,1,stroop_test,59.77965222213362,
,,,,53.0,5.0,4.0,,,,,,,,,,,,,blau,blue,b,1.0,b,1.0,0.701704400125891,,,,,,,,,,4.0,5.0,53.0,5.0,352.1743247001432,,,,,,,,,,,,,,,,,352.15939890011214,352.97424470004626,353.7743097001221,353.7588455001824,,,,,,,,,,,,,,,,,,,,,,,,,,,,,,,,,,,353.7593501000665,353.7743097001221,353.7743097001221,354.4921591000166,b,1.0,0.701704400125891,,,,,,sub-040,1,stroop_test,59.77965222213362,
,,,,54.0,6.0,4.0,,,,,,,,,,,,,blau,yellow,g,0.0,g,1.0,1.0177980000153184,,,,,,,,,,4.0,6.0,54.0,7.0,354.50717080011964,,,,,,,,,,,,,,,,,354.4925707001239,355.2909608001355,356.09132820018567,356.0751902000047,,,,,,,,,,,,,,,,,,,,,,,,,,,,,,,,,,,356.07561990013346,356.09132820018567,356.09132820018567,357.1253292001784,g,1.0,1.0177980000153184,,,,,,sub-040,1,stroop_test,59.77965222213362,
,,,,55.0,7.0,4.0,,,,,,,,,,,,,blau,red,r,0.0,r,1.0,1.0155702999327332,,,,,,,,,,4.0,7.0,55.0,4.0,357.14137730002403,,,,,,,,,,,,,,,,,357.12563820020296,357.2401001001708,358.04012610018253,358.0240587000735,,,,,,,,,,,,,,,,,,,,,,,,,,,,,,,,,,,358.02470000018366,358.04012610018253,358.04012610018253,359.0587247000076,r,1.0,1.0155702999327332,,,,,,sub-040,1,stroop_test,59.77965222213362,
,,,,56.0,8.0,4.0,,,,,,,,,,,,,rot,yellow,g,0.0,g,1.0,1.4280198998749256,,,,,,,,,,4.0,8.0,56.0,3.0,359.07385120005347,,,,,,,,,,,,,,,,,359.05909430002794,360.2733658000361,361.0737505001016,361.0573626002297,,,,,,,,,,,,,,,,,,,,,,,,,,,,,,,,,,,361.0600841001142,361.0737505001016,361.0737505001016,362.5079773000907,g,1.0,1.4280198998749256,,,,,,sub-040,1,stroop_test,59.77965222213362,
,,,,57.0,9.0,4.0,,,,,,,,,,,,,gelb,blue,b,0.0,b,1.0,0.9986966999713331,,,,,,,,,,4.0,9.0,57.0,9.0,362.5267397002317,,,,,,,,,,,,,,,,,362.5083383000456,362.85778350010514,363.6575812001247,363.6412581000477,,,,,,,,,,,,,,,,,,,,,,,,,,,,,,,,,,,363.64352920022793,363.6575812001247,363.6575812001247,364.65847490006126,b,1.0,0.9986966999713331,,,,,,sub-040,1,stroop_test,59.77965222213362,
,,,,58.0,10.0,4.0,,,,,,,,,,,,,rot,red,r,1.0,r,1.0,0.8932467000558972,,,,,,,,,,4.0,10.0,58.0,1.0,364.6739151000511,,,,,,,,,,,,,,,,,364.6588339000009,365.0249094001483,365.8415780002251,365.82449960010126,,,,,,,,,,,,,,,,,,,,,,,,,,,,,,,,,,,365.8267217001412,365.8415780002251,365.8415780002251,366.7417019000277,r,1.0,0.8932467000558972,,,,,,sub-040,1,stroop_test,59.77965222213362,
,,,,59.0,11.0,4.0,,,,,,,,,,,,,gelb,red,r,0.0,r,1.0,1.2396572998259217,,,,,,,,,,4.0,11.0,59.0,8.0,366.75719410018064,,,,,,,,,,,,,,,,,366.74208110012114,367.54078630008735,368.34141690004617,368.325018200092,,,,,,,,,,,,,,,,,,,,,,,,,,,,,,,,,,,368.32792100007646,368.34141690004617,368.34141690004617,369.5916327000596,r,1.0,1.2396572998259217,,,,,,sub-040,1,stroop_test,59.77965222213362,
,,,,60.0,0.0,5.0,,,,,,,,,,,,,blau,blue,b,1.0,b,1.0,1.1559280001092702,,,,,,,,,,5.0,0.0,60.0,5.0,369.6070794002153,,,,,,,,,,,,,,,,,369.5919762002304,369.94076370005496,370.7411886001937,370.7252997001633,,,,,,,,,,,,,,,,,,,,,,,,,,,,,,,,,,,370.7277110000141,370.7411886001937,370.7411886001937,371.9085885002278,b,1.0,1.1559280001092702,,,,,,sub-040,1,stroop_test,59.77965222213362,
,,,,61.0,1.0,5.0,,,,,,,,,,,,,rot,red,r,1.0,r,1.0,0.7465772000141442,,,,,,,,,,5.0,1.0,61.0,0.0,371.92401920002885,,,,,,,,,,,,,,,,,371.9089198000729,373.1077512002085,373.9078044001944,373.89169910014607,,,,,,,,,,,,,,,,,,,,,,,,,,,,,,,,,,,373.89396380004473,373.9078044001944,373.9078044001944,374.6587468001526,r,1.0,0.7465772000141442,,,,,,sub-040,1,stroop_test,59.77965222213362,
,,,,62.0,2.0,5.0,,,,,,,,,,,,,gelb,yellow,g,1.0,g,1.0,0.8916969001293182,,,,,,,,,,5.0,2.0,62.0,10.0,374.6736665000208,,,,,,,,,,,,,,,,,374.6591170001775,375.47358290012926,376.27362920017913,376.2588775001932,,,,,,,,,,,,,,,,,,,,,,,,,,,,,,,,,,,376.2612492002081,376.27362920017913,376.27362920017913,377.1744604001288,g,1.0,0.8916969001293182,,,,,,sub-040,1,stroop_test,59.77965222213362,
,,,,63.0,3.0,5.0,,,,,,,,,,,,,rot,yellow,g,0.0,g,1.0,1.1739787000697106,,,,,,,,,,5.0,3.0,63.0,3.0,377.19019820005633,,,,,,,,,,,,,,,,,377.1748108000029,378.3910671002232,379.1911039000843,379.17440600018017,,,,,,,,,,,,,,,,,,,,,,,,,,,,,,,,,,,379.1766946001444,379.1911039000843,379.1911039000843,380.37479990022257,g,1.0,1.1739787000697106,,,,,,sub-040,1,stroop_test,59.77965222213362,
,,,,64.0,4.0,5.0,,,,,,,,,,,,,gelb,yellow,g,1.0,g,1.0,1.0937421000562608,,,,,,,,,,5.0,4.0,64.0,11.0,380.39041790016927,,,,,,,,,,,,,,,,,380.37516090017743,381.1742717002053,381.9739776002243,381.9580693000462,,,,,,,,,,,,,,,,,,,,,,,,,,,,,,,,,,,381.96066110022366,381.9739776002243,381.9739776002243,383.0753199001774,g,1.0,1.0937421000562608,,,,,,sub-040,1,stroop_test,59.77965222213362,
,,,,65.0,5.0,5.0,,,,,,,,,,,,,gelb,blue,b,0.0,b,1.0,0.7104390000458807,,,,,,,,,,5.0,5.0,65.0,9.0,383.09000560012646,,,,,,,,,,,,,,,,,383.0756182000041,384.2916599002201,385.1068379001226,385.0917719001882,,,,,,,,,,,,,,,,,,,,,,,,,,,,,,,,,,,385.092209600145,385.1068379001226,385.1068379001226,385.8250437001698,b,1.0,0.7104390000458807,,,,,,sub-040,1,stroop_test,59.77965222213362,
,,,,66.0,6.0,5.0,,,,,,,,,,,,,blau,blue,b,1.0,b,1.0,1.2153465000446886,,,,,,,,,,5.0,6.0,66.0,6.0,385.8404673000332,,,,,,,,,,,,,,,,,385.825366300065,385.940410300158,386.7408749000169,386.7254787001293,,,,,,,,,,,,,,,,,,,,,,,,,,,,,,,,,,,386.7283828000072,386.7408749000169,386.7408749000169,387.9587875001598,b,1.0,1.2153465000446886,,,,,,sub-040,1,stroop_test,59.77965222213362,
,,,,67.0,7.0,5.0,,,,,,,,,,,,,blau,yellow,g,0.0,g,1.0,1.1116711001377553,,,,,,,,,,5.0,7.0,67.0,7.0,387.9737659001257,,,,,,,,,,,,,,,,,387.9591656001285,388.074051800184,388.8746023999993,388.8577019001823,,,,,,,,,,,,,,,,,,,,,,,,,,,,,,,,,,,388.85812990018167,388.8746023999993,388.8746023999993,389.9908431000076,g,1.0,1.1116711001377553,,,,,,sub-040,1,stroop_test,59.77965222213362,
,,,,68.0,8.0,5.0,,,,,,,,,,,,,rot,blue,b,0.0,b,1.0,1.0700846000108868,,,,,,,,,,5.0,8.0,68.0,2.0,390.0063181000296,,,,,,,,,,,,,,,,,389.9912413000129,390.34086460014805,391.14093220001087,391.12467450019903,,,,,,,,,,,,,,,,,,,,,,,,,,,,,,,,,,,391.1269782001618,391.14093220001087,391.14093220001087,392.2252131002024,b,1.0,1.0700846000108868,,,,,,sub-040,1,stroop_test,59.77965222213362,
,,,,69.0,9.0,5.0,,,,,,,,,,,,,gelb,red,r,0.0,r,1.0,0.8590023999568075,,,,,,,,,,5.0,9.0,69.0,8.0,392.24017110001296,,,,,,,,,,,,,,,,,392.22551580006257,392.3407342000864,393.1399153000675,393.1240269001573,,,,,,,,,,,,,,,,,,,,,,,,,,,,,,,,,,,393.1268345999997,393.1399153000675,393.1399153000675,394.0085357001517,r,1.0,0.8590023999568075,,,,,,sub-040,1,stroop_test,59.77965222213362,
,,,,70.0,10.0,5.0,,,,,,,,,,,,,blau,red,r,0.0,r,1.0,1.12074670009315,,,,,,,,,,5.0,10.0,70.0,4.0,394.024050100008,,,,,,,,,,,,,,,,,394.00884160003625,394.3743142001331,395.174902100116,395.15858020004816,,,,,,,,,,,,,,,,,,,,,,,,,,,,,,,,,,,395.1612743001897,395.174902100116,395.174902100116,396.308091300074,r,1.0,1.12074670009315,,,,,,sub-040,1,stroop_test,59.77965222213362,
,,,,71.0,11.0,5.0,,,,,,,,,,,,,rot,red,r,1.0,r,1.0,0.7329394998960197,,,,,,,,,,5.0,11.0,71.0,1.0,396.32421600003727,,,,,,,,,,,,,,,,,396.3083977000788,396.65778130013496,397.4572154001799,397.4414650001563,,,,,,,,,,,,,,,,,,,,,,,,,,,,,,,,,,,397.4435897001531,397.4572154001799,397.4572154001799,398.1922373000998,r,1.0,0.7329394998960197,,,,,,sub-040,1,stroop_test,59.77965222213362,
,,,,72.0,0.0,6.0,,,,,,,,,,,,,gelb,yellow,g,1.0,g,1.0,0.8989587998948991,,,,,,,,,,6.0,0.0,72.0,10.0,398.2078300002031,,,,,,,,,,,,,,,,,398.1925388001837,398.56140470015816,399.3741471001413,399.3574949000031,,,,,,,,,,,,,,,,,,,,,,,,,,,,,,,,,,,399.35971930017695,399.3741471001413,399.3741471001413,400.2752694000956,g,1.0,0.8989587998948991,,,,,,sub-040,1,stroop_test,59.77965222213362,
,,,,73.0,1.0,6.0,,,,,,,,,,,,,rot,blue,b,0.0,b,1.0,1.287944300100207,,,,,,,,,,6.0,1.0,73.0,2.0,400.2906125001609,,,,,,,,,,,,,,,,,400.2756083002314,401.4908846002072,402.2904908000492,402.2746532000601,,,,,,,,,,,,,,,,,,,,,,,,,,,,,,,,,,,402.2773477002047,402.2904908000492,402.2904908000492,403.5913360000122,b,1.0,1.287944300100207,,,,,,sub-040,1,stroop_test,59.77965222213362,
,,,,74.0,2.0,6.0,,,,,,,,,,,,,rot,red,r,1.0,r,1.0,1.7304185000248251,,,,,,,,,,6.0,2.0,74.0,0.0,403.6073816001881,,,,,,,,,,,,,,,,,403.5916333000641,403.94079890009016,404.7407849000301,404.72438240004703,,,,,,,,,,,,,,,,,,,,,,,,,,,,,,,,,,,404.7248818001244,404.7407849000301,404.7407849000301,406.4751185001805,r,1.0,1.7304185000248251,,,,,,sub-040,1,stroop_test,59.77965222213362,
,,,,75.0,3.0,6.0,,,,,,,,,,,,,rot,yellow,g,0.0,g,1.0,1.159634100040421,,,,,,,,,,6.0,3.0,75.0,3.0,406.491332200123,,,,,,,,,,,,,,,,,406.4755454000551,406.59044500021264,407.3902149000205,407.3745611000341,,,,,,,,,,,,,,,,,,,,,,,,,,,,,,,,,,,407.3750021001324,407.3902149000205,407.3902149000205,408.558201200096,g,1.0,1.159634100040421,,,,,,sub-040,1,stroop_test,59.77965222213362,
,,,,76.0,4.0,6.0,,,,,,,,,,,,,rot,red,r,1.0,r,1.0,0.8190293000079691,,,,,,,,,,6.0,4.0,76.0,1.0,408.57373480009846,,,,,,,,,,,,,,,,,408.5586106001865,409.7575434001628,410.5566595001146,410.54099200014025,,,,,,,,,,,,,,,,,,,,,,,,,,,,,,,,,,,410.5414397001732,410.5566595001146,410.5566595001146,411.3912488000933,r,1.0,0.8190293000079691,,,,,,sub-040,1,stroop_test,59.77965222213362,
,,,,77.0,5.0,6.0,,,,,,,,,,,,,gelb,red,r,0.0,r,1.0,1.3679688000120225,,,,,,,,,,6.0,5.0,77.0,8.0,411.4068900002167,,,,,,,,,,,,,,,,,411.3915681000799,411.7413519001566,412.5402642001864,412.5248354000505,,,,,,,,,,,,,,,,,,,,,,,,,,,,,,,,,,,412.5272341000382,412.5402642001864,412.5402642001864,413.9237617000472,r,1.0,1.3679688000120225,,,,,,sub-040,1,stroop_test,59.77965222213362,
,,,,78.0,6.0,6.0,,,,,,,,,,,,,blau,blue,b,1.0,b,1.0,0.790633900091052,,,,,,,,,,6.0,6.0,78.0,5.0,413.93966700020246,,,,,,,,,,,,,,,,,413.92411620006897,414.2740103001706,415.0910205000546,415.07475830009207,,,,,,,,,,,,,,,,,,,,,,,,,,,,,,,,,,,415.0774435000494,415.0910205000546,415.0910205000546,415.8913019001484,b,1.0,0.790633900091052,,,,,,sub-040,1,stroop_test,59.77965222213362,
,,,,79.0,7.0,6.0,,,,,,,,,,,,,blau,yellow,g,0.0,g,1.0,1.2515876998659223,,,,,,,,,,6.0,7.0,79.0,7.0,415.9068035001401,,,,,,,,,,,,,,,,,415.8917114001233,417.1077531001065,417.9075112000573,417.8914359000046,,,,,,,,,,,,,,,,,,,,,,,,,,,,,,,,,,,417.89191730017774,417.9075112000573,417.9075112000573,419.17506860010326,g,1.0,1.2515876998659223,,,,,,sub-040,1,stroop_test,59.77965222213362,
,,,,80.0,8.0,6.0,,,,,,,,,,,,,blau,red,r,0.0,r,1.0,1.1862444998696446,,,,,,,,,,6.0,8.0,80.0,4.0,419.19108200003393,,,,,,,,,,,,,,,,,419.1753716000821,420.3899890000466,421.1909594000317,421.17476610001177,,,,,,,,,,,,,,,,,,,,,,,,,,,,,,,,,,,421.17518950020894,421.1909594000317,421.1909594000317,422.3911641000304,r,1.0,1.1862444998696446,,,,,,sub-040,1,stroop_test,59.77965222213362,
,,,,81.0,9.0,6.0,,,,,,,,,,,,,gelb,blue,b,0.0,b,1.0,0.9949615001678468,,,,,,,,,,6.0,9.0,81.0,9.0,422.4068303001113,,,,,,,,,,,,,,,,,422.3915125001222,422.7407968000043,423.5400135000236,423.5239014001563,,,,,,,,,,,,,,,,,,,,,,,,,,,,,,,,,,,423.52685210015625,423.5400135000236,423.5400135000236,424.54208330018446,b,1.0,0.9949615001678468,,,,,,sub-040,1,stroop_test,59.77965222213362,
,,,,82.0,10.0,6.0,,,,,,,,,,,,,gelb,yellow,g,1.0,g,1.0,0.8085918999277055,,,,,,,,,,6.0,10.0,82.0,11.0,424.5568150000181,,,,,,,,,,,,,,,,,424.542407900095,424.90736650000326,425.7077961000614,425.6916151000187,,,,,,,,,,,,,,,,,,,,,,,,,,,,,,,,,,,425.69201930006966,425.7077961000614,425.7077961000614,426.5255859000608,g,1.0,0.8085918999277055,,,,,,sub-040,1,stroop_test,59.77965222213362,
,,,,83.0,11.0,6.0,,,,,,,,,,,,,blau,blue,b,1.0,b,1.0,0.9615696000400932,,,,,,,,,,6.0,11.0,83.0,6.0,426.5402106000111,,,,,,,,,,,,,,,,,426.5259956000373,427.3392593001481,428.1402356000617,428.1251348000951,,,,,,,,,,,,,,,,,,,,,,,,,,,,,,,,,,,428.1283933001105,428.1402356000617,428.1402356000617,429.1084401002154,b,1.0,0.9615696000400932,,,,,,sub-040,1,stroop_test,59.77965222213362,
,,,,84.0,0.0,7.0,,,,,,,,,,,,,blau,yellow,g,0.0,g,1.0,1.0733598000369966,,,,,,,,,,7.0,0.0,84.0,7.0,429.123016100144,,,,,,,,,,,,,,,,,429.1088240002282,430.306089800084,431.1073116001208,431.0910637001507,,,,,,,,,,,,,,,,,,,,,,,,,,,,,,,,,,,431.0914884000085,431.1073116001208,431.1073116001208,432.191184700001,g,1.0,1.0733598000369966,,,,,,sub-040,1,stroop_test,59.77965222213362,
,,,,85.0,1.0,7.0,,,,,,,,,,,,,rot,blue,b,0.0,b,1.0,1.04474990000017,,,,,,,,,,7.0,1.0,85.0,2.0,432.2069533001632,,,,,,,,,,,,,,,,,432.19157480006106,433.4071336002089,434.20655510015786,434.1911997999996,,,,,,,,,,,,,,,,,,,,,,,,,,,,,,,,,,,434.1938516001683,434.20655510015786,434.20655510015786,435.2586593001615,b,1.0,1.04474990000017,,,,,,sub-040,1,stroop_test,59.77965222213362,
,,,,86.0,2.0,7.0,,,,,,,,,,,,,rot,red,r,1.0,r,1.0,0.8445700998418033,,,,,,,,,,7.0,2.0,86.0,1.0,435.2741056000814,,,,,,,,,,,,,,,,,435.2590375000145,436.07371100015007,436.8730484000407,436.8571252000984,,,,,,,,,,,,,,,,,,,,,,,,,,,,,,,,,,,436.8575660001952,436.8730484000407,436.8730484000407,437.7241106000729,r,1.0,0.8445700998418033,,,,,,sub-040,1,stroop_test,59.77965222213362,
,,,,87.0,3.0,7.0,,,,,,,,,,,,,gelb,yellow,g,1.0,g,1.0,0.8441874999552965,,,,,,,,,,7.0,3.0,87.0,10.0,437.7405670001172,,,,,,,,,,,,,,,,,437.7244096000213,438.5235289002303,439.3238059000578,439.3081694000866,,,,,,,,,,,,,,,,,,,,,,,,,,,,,,,,,,,439.3105163001456,439.3238059000578,439.3238059000578,440.1739234002307,g,1.0,0.8441874999552965,,,,,,sub-040,1,stroop_test,59.77965222213362,
,,,,88.0,4.0,7.0,,,,,,,,,,,,,blau,blue,b,1.0,b,1.0,0.8850228998344392,,,,,,,,,,7.0,4.0,88.0,6.0,440.1897292002104,,,,,,,,,,,,,,,,,440.1743099000305,440.2742735000793,441.07354750018567,441.0584716000594,,,,,,,,,,,,,,,,,,,,,,,,,,,,,,,,,,,441.06124940002337,441.07354750018567,441.07354750018567,441.97497430001386,b,1.0,0.8850228998344392,,,,,,sub-040,1,stroop_test,59.77965222213362,
,,,,89.0,5.0,7.0,,,,,,,,,,,,,rot,yellow,g,0.0,g,1.0,1.961928900098428,,,,,,,,,,7.0,5.0,89.0,3.0,441.9899679000955,,,,,,,,,,,,,,,,,441.9753937001806,442.7904027001932,443.5904248000588,443.57466310006566,,,,,,,,,,,,,,,,,,,,,,,,,,,,,,,,,,,443.5768943000585,443.5904248000588,443.5904248000588,445.5581622000318,g,1.0,1.961928900098428,,,,,,sub-040,1,stroop_test,59.77965222213362,
,,,,90.0,6.0,7.0,,,,,,,,,,,,,gelb,yellow,g,1.0,g,1.0,0.8460296001285315,,,,,,,,,,7.0,6.0,90.0,11.0,445.5731276001316,,,,,,,,,,,,,,,,,445.5585512001999,445.90713610011153,446.7068424001336,446.6916259001009,,,,,,,,,,,,,,,,,,,,,,,,,,,,,,,,,,,446.69547950010747,446.7068424001336,446.7068424001336,447.5576578001492,g,1.0,0.8460296001285315,,,,,,sub-040,1,stroop_test,59.77965222213362,
,,,,91.0,7.0,7.0,,,,,,,,,,,,,blau,blue,b,1.0,b,1.0,0.8294569000136107,,,,,,,,,,7.0,7.0,91.0,5.0,447.5728219000157,,,,,,,,,,,,,,,,,447.5579783001449,448.7566278001759,449.5575671000406,449.5411082000937,,,,,,,,,,,,,,,,,,,,,,,,,,,,,,,,,,,449.5434231001418,449.5575671000406,449.5575671000406,450.3914092001505,b,1.0,0.8294569000136107,,,,,,sub-040,1,stroop_test,59.77965222213362,
,,,,92.0,8.0,7.0,,,,,,,,,,,,,blau,red,r,0.0,r,1.0,0.9323980999179184,,,,,,,,,,7.0,8.0,92.0,4.0,450.4073597001843,,,,,,,,,,,,,,,,,450.3917279001325,450.7570320002269,451.5571887001861,451.54135569999926,,,,,,,,,,,,,,,,,,,,,,,,,,,,,,,,,,,451.5418407001998,451.5571887001861,451.5571887001861,452.4925352002029,r,1.0,0.9323980999179184,,,,,,sub-040,1,stroop_test,59.77965222213362,
,,,,93.0,9.0,7.0,,,,,,,,,,,,,gelb,blue,b,0.0,b,1.0,1.738636399852112,,,,,,,,,,7.0,9.0,93.0,9.0,452.5071422001347,,,,,,,,,,,,,,,,,452.4928424002137,452.60711160022765,453.4079715001863,453.3915398002137,,,,,,,,,,,,,,,,,,,,,,,,,,,,,,,,,,,453.3937778000254,453.4079715001863,453.4079715001863,455.158535500057,b,1.0,1.738636399852112,,,,,,sub-040,1,stroop_test,59.77965222213362,
,,,,94.0,10.0,7.0,,,,,,,,,,,,,gelb,red,r,0.0,r,1.0,1.0397195999976248,,,,,,,,,,7.0,10.0,94.0,8.0,455.1733030001633,,,,,,,,,,,,,,,,,455.1588344001211,455.2740553000476,456.0737551001366,456.0579672001768,,,,,,,,,,,,,,,,,,,,,,,,,,,,,,,,,,,456.0583853002172,456.0737551001366,456.0737551001366,457.1249452000484,r,1.0,1.0397195999976248,,,,,,sub-040,1,stroop_test,59.77965222213362,
,,,,95.0,11.0,7.0,,,,,,,,,,,,,rot,red,r,1.0,r,1.0,0.7095998001750559,,,,,,,,,,7.0,11.0,95.0,0.0,457.1397337000817,,,,,,,,,,,,,,,,,457.1252473001368,457.2405702001415,458.03964810003527,458.0238184002228,,,,,,,,,,,,,,,,,,,,,,,,,,,,,,,,,,,458.026006600121,458.03964810003527,458.03964810003527,458.7576637000311,r,1.0,0.7095998001750559,,,,,,sub-040,1,stroop_test,59.77965222213362,
,,,,96.0,0.0,8.0,,,,,,,,,,,,,gelb,red,r,0.0,r,1.0,1.2768172000069171,,,,,,,,,,8.0,0.0,96.0,8.0,458.7728334001731,,,,,,,,,,,,,,,,,458.7580060001928,459.5570278000087,460.35704360017553,460.3412577002309,,,,,,,,,,,,,,,,,,,,,,,,,,,,,,,,,,,460.343771800166,460.35704360017553,460.35704360017553,461.6407879001927,r,1.0,1.2768172000069171,,,,,,sub-040,1,stroop_test,59.77965222213362,
,,,,97.0,1.0,8.0,,,,,,,,,,,,,gelb,yellow,g,1.0,g,1.0,0.7869325000792742,,,,,,,,,,8.0,1.0,97.0,11.0,461.6567484000698,,,,,,,,,,,,,,,,,461.64110850007273,462.84020090010017,463.6404413001146,463.6241288001184,,,,,,,,,,,,,,,,,,,,,,,,,,,,,,,,,,,463.6246193000116,463.6404413001146,463.6404413001146,464.4417848000303,g,1.0,0.7869325000792742,,,,,,sub-040,1,stroop_test,59.77965222213362,
,,,,98.0,2.0,8.0,,,,,,,,,,,,,blau,yellow,g,0.0,g,1.0,0.9207115999888628,,,,,,,,,,8.0,2.0,98.0,7.0,464.4567140000872,,,,,,,,,,,,,,,,,464.4421133000869,464.5566817000508,465.3572675001342,465.3410771000199,,,,,,,,,,,,,,,,,,,,,,,,,,,,,,,,,,,465.3437469000928,465.3572675001342,465.3572675001342,466.2920524000656,g,1.0,0.9207115999888628,,,,,,sub-040,1,stroop_test,59.77965222213362,
,,,,99.0,3.0,8.0,,,,,,,,,,,,,gelb,yellow,g,1.0,g,1.0,0.5544318000320345,,,,,,,,,,8.0,3.0,99.0,10.0,466.30660120002,,,,,,,,,,,,,,,,,466.29237320018,466.6580680001061,467.47351410007104,467.4579379002098,,,,,,,,,,,,,,,,,,,,,,,,,,,,,,,,,,,467.4609411000274,467.47351410007104,467.47351410007104,468.041312900139,g,1.0,0.5544318000320345,,,,,,sub-040,1,stroop_test,59.77965222213362,
,,,,100.0,4.0,8.0,,,,,,,,,,,,,rot,blue,b,0.0,b,1.0,0.9843655000440776,,,,,,,,,,8.0,4.0,100.0,2.0,468.05631400016136,,,,,,,,,,,,,,,,,468.04163570003584,468.15695240022615,468.9572590000462,468.9410673000384,,,,,,,,,,,,,,,,,,,,,,,,,,,,,,,,,,,468.9433108000085,468.9572590000462,468.9572590000462,469.95868520019576,b,1.0,0.9843655000440776,,,,,,sub-040,1,stroop_test,59.77965222213362,
,,,,101.0,5.0,8.0,,,,,,,,,,,,,blau,blue,b,1.0,b,1.0,0.5415204998571426,,,,,,,,,,8.0,5.0,101.0,5.0,469.9741848001722,,,,,,,,,,,,,,,,,469.9590400001034,470.0735440000426,470.8734830000904,470.8576295000967,,,,,,,,,,,,,,,,,,,,,,,,,,,,,,,,,,,470.8599455000367,470.8734830000904,470.8734830000904,471.4254476001952,b,1.0,0.5415204998571426,,,,,,sub-040,1,stroop_test,59.77965222213362,
,,,,102.0,6.0,8.0,,,,,,,,,,,,,gelb,blue,b,0.0,b,1.0,0.775774700101465,,,,,,,,,,8.0,6.0,102.0,9.0,471.44029340008274,,,,,,,,,,,,,,,,,471.42582560004666,471.790677400073,472.5904761001002,472.5747042000294,,,,,,,,,,,,,,,,,,,,,,,,,,,,,,,,,,,472.5774510002229,472.5904761001002,472.5904761001002,473.3749330001883,b,1.0,0.775774700101465,,,,,,sub-040,1,stroop_test,59.77965222213362,
,,,,103.0,7.0,8.0,,,,,,,,,,,,,rot,red,r,1.0,r,1.0,0.7185877000447363,,,,,,,,,,8.0,7.0,103.0,0.0,473.38998790015467,,,,,,,,,,,,,,,,,473.3752983000595,474.58929460006766,475.3900752000045,475.374722200213,,,,,,,,,,,,,,,,,,,,,,,,,,,,,,,,,,,475.37763740005903,475.3900752000045,475.3900752000045,476.1243108001072,r,1.0,0.7185877000447363,,,,,,sub-040,1,stroop_test,59.77965222213362,
,,,,104.0,8.0,8.0,,,,,,,,,,,,,rot,yellow,g,0.0,g,1.0,1.1388580999337137,,,,,,,,,,8.0,8.0,104.0,3.0,476.1405354000162,,,,,,,,,,,,,,,,,476.12460900004953,476.4735069000162,477.2734057002235,477.2581101001706,,,,,,,,,,,,,,,,,,,,,,,,,,,,,,,,,,,477.2585374000482,477.2734057002235,477.2734057002235,478.4239290000405,g,1.0,1.1388580999337137,,,,,,sub-040,1,stroop_test,59.77965222213362,
,,,,105.0,9.0,8.0,,,,,,,,,,,,,rot,red,r,1.0,r,1.0,0.841535700019449,,,,,,,,,,8.0,9.0,105.0,1.0,478.43897980009206,,,,,,,,,,,,,,,,,478.4243320000824,478.52356650005095,479.3240221000742,479.3074284000322,,,,,,,,,,,,,,,,,,,,,,,,,,,,,,,,,,,479.30786970001645,479.3240221000742,479.3240221000742,480.1751678001601,r,1.0,0.841535700019449,,,,,,sub-040,1,stroop_test,59.77965222213362,
,,,,106.0,10.0,8.0,,,,,,,,,,,,,blau,red,r,0.0,r,1.0,1.163019800093025,,,,,,,,,,8.0,10.0,106.0,4.0,480.19037670013495,,,,,,,,,,,,,,,,,480.1754691000097,480.9738638000563,481.7729979001451,481.7579059000127,,,,,,,,,,,,,,,,,,,,,,,,,,,,,,,,,,,481.76165860006586,481.7729979001451,481.7729979001451,482.9411763001699,r,1.0,1.163019800093025,,,,,,sub-040,1,stroop_test,59.77965222213362,
,,,,107.0,11.0,8.0,,,,,,,,,,,,,blau,blue,b,1.0,b,1.0,0.9239433999173344,,,,,,,,,,8.0,11.0,107.0,6.0,482.9564077001996,,,,,,,,,,,,,,,,,482.94147650012746,483.056297800038,483.85747040016577,483.8413173002191,,,,,,,,,,,,,,,,,,,,,,,,,,,,,,,,,,,483.8417435002048,483.85747040016577,483.85747040016577,484.7910393001512,b,1.0,0.9239433999173344,,,,,,sub-040,1,stroop_test,59.77965222213362,
,,,,108.0,0.0,9.0,,,,,,,,,,,,,gelb,yellow,g,1.0,g,1.0,0.8333225001115352,,,,,,,,,,9.0,0.0,108.0,11.0,484.8071693000384,,,,,,,,,,,,,,,,,484.79148200014606,486.0070531000383,486.8073589000851,486.7914237000514,,,,,,,,,,,,,,,,,,,,,,,,,,,,,,,,,,,486.79378500022,486.8073589000851,486.8073589000851,487.6580153000541,g,1.0,0.8333225001115352,,,,,,sub-040,1,stroop_test,59.77965222213362,
,,,,109.0,1.0,9.0,,,,,,,,,,,,,rot,red,r,1.0,r,1.0,0.9095187000930308,,,,,,,,,,9.0,1.0,109.0,1.0,487.6737375000957,,,,,,,,,,,,,,,,,487.6584067000076,488.0238392001484,488.8234470000025,488.8080750000663,,,,,,,,,,,,,,,,,,,,,,,,,,,,,,,,,,,488.81030020001344,488.8234470000025,488.8234470000025,489.7413881001994,r,1.0,0.9095187000930308,,,,,,sub-040,1,stroop_test,59.77965222213362,
,,,,110.0,2.0,9.0,,,,,,,,,,,,,gelb,yellow,g,1.0,g,1.0,0.7509240999352187,,,,,,,,,,9.0,2.0,110.0,10.0,489.7570787000004,,,,,,,,,,,,,,,,,489.741694000084,490.5573896002024,491.3559268000536,491.3408677000552,,,,,,,,,,,,,,,,,,,,,,,,,,,,,,,,,,,491.3444015001878,491.3559268000536,491.3559268000536,492.123898900114,g,1.0,0.7509240999352187,,,,,,sub-040,1,stroop_test,59.77965222213362,
,,,,111.0,3.0,9.0,,,,,,,,,,,,,rot,blue,b,0.0,b,1.0,0.8452385000418872,,,,,,,,,,9.0,3.0,111.0,2.0,492.1391875001136,,,,,,,,,,,,,,,,,492.12430620007217,493.3400090001524,494.1401777002029,494.1239027001429,,,,,,,,,,,,,,,,,,,,,,,,,,,,,,,,,,,494.1260032001883,494.1401777002029,494.1401777002029,494.99048390006647,b,1.0,0.8452385000418872,,,,,,sub-040,1,stroop_test,59.77965222213362,
,,,,112.0,4.0,9.0,,,,,,,,,,,,,rot,red,r,1.0,r,1.0,1.0337906000204384,,,,,,,,,,9.0,4.0,112.0,0.0,495.0059802001342,,,,,,,,,,,,,,,,,494.9908208001871,496.1901795000304,496.9894184002187,496.9734629001469,,,,,,,,,,,,,,,,,,,,,,,,,,,,,,,,,,,496.9739848000463,496.9894184002187,496.9894184002187,498.024741700152,r,1.0,1.0337906000204384,,,,,,sub-040,1,stroop_test,59.77965222213362,
,,,,113.0,5.0,9.0,,,,,,,,,,,,,blau,red,r,0.0,r,1.0,1.06245300010778,,,,,,,,,,9.0,5.0,113.0,4.0,498.0399436000735,,,,,,,,,,,,,,,,,498.0250430000015,498.8400896000676,499.6398785000201,499.62423280021176,,,,,,,,,,,,,,,,,,,,,,,,,,,,,,,,,,,499.62716730008833,499.6398785000201,499.6398785000201,500.7083152001724,r,1.0,1.06245300010778,,,,,,sub-040,1,stroop_test,59.77965222213362,
,,,,114.0,6.0,9.0,,,,,,,,,,,,,blau,blue,b,1.0,b,1.0,0.6555377999320626,,,,,,,,,,9.0,6.0,114.0,6.0,500.7236083000898,,,,,,,,,,,,,,,,,500.7086672000587,501.9070692001842,502.7073845001869,502.6907420000061,,,,,,,,,,,,,,,,,,,,,,,,,,,,,,,,,,,502.6911319000647,502.7073845001869,502.7073845001869,503.37447830010206,b,1.0,0.6555377999320626,,,,,,sub-040,1,stroop_test,59.77965222213362,
,,,,115.0,7.0,9.0,,,,,,,,,,,,,rot,yellow,g,0.0,g,1.0,1.08753880020231,,,,,,,,,,9.0,7.0,115.0,3.0,503.3895206002053,,,,,,,,,,,,,,,,,503.3747762001585,503.474106800044,504.2738383000251,504.2581941001117,,,,,,,,,,,,,,,,,,,,,,,,,,,,,,,,,,,504.26045720023103,504.2738383000251,504.2738383000251,505.373798500048,g,1.0,1.08753880020231,,,,,,sub-040,1,stroop_test,59.77965222213362,
,,,,116.0,8.0,9.0,,,,,,,,,,,,,gelb,red,r,0.0,r,1.0,1.2757091000676155,,,,,,,,,,9.0,8.0,116.0,8.0,505.3892096001655,,,,,,,,,,,,,,,,,505.37418210017495,505.7224220000208,506.5226301001385,506.5063613001257,,,,,,,,,,,,,,,,,,,,,,,,,,,,,,,,,,,506.5091581000015,506.5226301001385,506.5226301001385,507.807647800073,r,1.0,1.2757091000676155,,,,,,sub-040,1,stroop_test,59.77965222213362,
,,,,117.0,9.0,9.0,,,,,,,,,,,,,gelb,blue,b,0.0,b,1.0,0.6669614999555051,,,,,,,,,,9.0,9.0,117.0,9.0,507.8224319000728,,,,,,,,,,,,,,,,,507.8080518001225,508.17275100015104,508.9746060001198,508.95780220022425,,,,,,,,,,,,,,,,,,,,,,,,,,,,,,,,,,,508.958225000184,508.9746060001198,508.9746060001198,509.65751400007866,b,1.0,0.6669614999555051,,,,,,sub-040,1,stroop_test,59.77965222213362,
,,,,118.0,10.0,9.0,,,,,,,,,,,,,blau,blue,b,1.0,b,1.0,0.6076191999018192,,,,,,,,,,9.0,10.0,118.0,5.0,509.6734049001243,,,,,,,,,,,,,,,,,509.65784030011855,510.856886100024,511.6572544001974,511.64066740009,,,,,,,,,,,,,,,,,,,,,,,,,,,,,,,,,,,511.643400200177,511.6572544001974,511.6572544001974,512.2744335001335,b,1.0,0.6076191999018192,,,,,,sub-040,1,stroop_test,59.77965222213362,
,,,,119.0,11.0,9.0,,,,,,,,,,,,,blau,yellow,g,0.0,g,1.0,1.028944400139153,,,,,,,,,,9.0,11.0,119.0,7.0,512.2897848000284,,,,,,,,,,,,,,,,,512.2748348000459,512.3730326001532,513.1730310001876,513.1570330001414,,,,,,,,,,,,,,,,,,,,,,,,,,,,,,,,,,,513.1574564001057,513.1730310001876,513.1730310001876,514.2079179000575,g,1.0,1.028944400139153,,,,,,sub-040,1,stroop_test,59.77965222213362,
,,,,,,,,,,,,,,,,,,,,,,,,,,,,,,,,,,,,,,,,,,,,,,,,,,,,,,,,,,,,,,,,,,,,,,,,,,,,,,,,,,,,,,,,,,,,,,,,,,,,,,514.208063500002,514.223522900138,519.2235668001231,519.2076300000772,sub-040,1,stroop_test,59.77965222213362,
