direction,corrAns,randomInstr,practice_trials.thisRepN,practice_trials.thisTrialN,practice_trials.thisN,practice_trials.thisIndex,instr_trials.thisRepN,instr_trials.thisTrialN,instr_trials.thisN,instr_trials.thisIndex,test_trials.thisRepN,test_trials.thisTrialN,test_trials.thisN,test_trials.thisIndex,thisRow.t,notes,general_instruction.started,textGeneralInstr.started,respGeneralInstr.started,general_instruction.stopped,respGeneralInstr.keys,respGeneralInstr.rt,respGeneralInstr.duration,ITI.started,fixcross.started,fixcross.stopped,ITI.stopped,dots.started,backgroundDots.started,stimulusDots.started,respDots.started,stimulusDots.stopped,dots.stopped,respDots.keys,respDots.corr,respDots.rt,respDots.duration,feedback.started,textFeedback.started,feedback.stopped,textFeedback.stopped,info.started,textInfo.started,keyRespInfo.started,info.stopped,keyRespInfo.keys,keyRespInfo.rt,keyRespInfo.duration,test_instruction.started,textTestInstr.started,respTestInstr.started,test_instruction.stopped,respTestInstr.keys,respTestInstr.rt,respTestInstr.duration,random_instruction.started,textRandomInstr.started,respRandomInstr.started,random_instruction.stopped,respRandomInstr.keys,respRandomInstr.rt,respRandomInstr.duration,goodbye.started,textGoodbye.started,goodbye.stopped,participant,session,expName,frameRate,Unnamed: 73
,,,,,,,,,,,,,,,,,0.009368799997901,0.0205248999991454,0.0205248999991454,35.14084619999994,space,85.05881139999838,,,,,,,,,,,,,,,,,,,,,,,,,,,,,,,,,,,,,,,,,,,,sub-028,1.0,random_dot,59.985267619133744,
left,left,,0.0,0.0,0.0,0.0,,,,,,,,,35.16758280000067,,,,,,,,,35.16144820000045,35.9552182999978,36.76842240000042,36.74053679999997,36.74057759999778,36.76842240000042,36.76842240000042,36.76842240000042,41.74410409999837,46.24901500000124,left,1.0,59.42266380000001,,46.2506386999994,46.2784232999984,46.76310970000122,,,,,,,,,,,,,,,,,,,,,,,,,,sub-028,1.0,random_dot,59.985267619133744,
right,right,,0.0,1.0,1.0,1.0,,,,,,,,,46.779459999997925,,,,,,,,,46.76410939999914,47.96384409999882,48.76559629999974,48.748781499998586,48.74884459999885,48.76559629999974,48.76559629999974,48.76559629999974,,53.72124049999911,right,1.0,54.8958642999969,,53.72222289999991,53.73482169999989,54.21969199999876,54.234786000000895,,,,,,,,,,,,,,,,,,,,,,,,,sub-028,1.0,random_dot,59.985267619133744,
right,right,,1.0,0.0,2.0,1.0,,,,,,,,,54.234786000000895,,,,,,,,,54.22071919999871,55.43563259999792,56.237588699998014,56.22080999999889,56.22084689999974,56.237588699998014,56.237588699998014,56.237588699998014,61.22492340000099,61.59299699999974,left,0.0,55.29493430000002,,61.59358439999778,61.60950039999807,62.10708009999871,,,,,,,,,,,,,,,,,,,,,,,,,,sub-028,1.0,random_dot,59.985267619133744,
left,left,,1.0,1.0,3.0,0.0,,,,,,,,,62.1239330999997,,,,,,,,,62.1077566999993,62.45724359999804,63.25931330000094,63.24208540000109,63.24212039999839,63.25931330000094,63.25931330000094,63.25931330000094,,66.57999579999887,right,0.0,53.25230350000129,,66.58080210000116,66.59321640000053,67.07766699999775,67.0933929999992,,,,,,,,,,,,,,,,,,,,,,,,,sub-028,1.0,random_dot,59.985267619133744,
left,left,,2.0,0.0,4.0,0.0,,,,,,,,,67.0933929999992,,,,,,,,,67.07823339999959,68.29453849999845,69.0964361999977,69.07959879999908,69.07963899999959,69.0964361999977,69.0964361999977,69.0964361999977,,72.66708780000044,left,1.0,53.50487279999652,,72.6680923999993,72.68096769999829,73.16559639999832,73.18092429999888,,,,,,,,,,,,,,,,,,,,,,,,,sub-028,1.0,random_dot,59.985267619133744,
right,right,,2.0,1.0,5.0,1.0,,,,,,,,,73.18092429999888,,,,,,,,,73.16628990000027,73.98180859999775,74.78351549999934,74.76664600000004,74.76669109999784,74.78351549999934,74.78351549999934,74.78351549999934,,77.35431690000041,right,1.0,52.50845499999923,,77.355752200001,77.36756669999886,77.85210089999964,77.86767239999972,,,,,,,,,,,,,,,,,,,,,,,,,sub-028,1.0,random_dot,59.985267619133744,
right,right,,3.0,0.0,6.0,1.0,,,,,,,,,77.86767239999972,,,,,,,,,77.85266969999793,78.66826120000042,79.4700797000005,79.45348019999801,79.45351450000089,79.4700797000005,79.4700797000005,79.4700797000005,,82.90762209999957,right,1.0,53.37181920000148,,82.90873509999801,82.92136430000028,83.4062984000011,83.4217936999994,,,,,,,,,,,,,,,,,,,,,,,,,sub-028,1.0,random_dot,59.985267619133744,
left,left,,3.0,1.0,7.0,0.0,,,,,,,,,83.4217936999994,,,,,,,,,83.40713590000087,84.62218639999992,85.42440400000123,85.40734069999962,85.4073681000009,85.42440400000123,85.42440400000123,85.42440400000123,,87.71150249999846,left,1.0,52.22752399999808,,87.71299820000058,87.72462530000121,88.20978159999868,88.22467580000011,,,,,,,,,,,,,,,,,,,,,,,,,sub-028,1.0,random_dot,59.985267619133744,
left,left,,4.0,0.0,8.0,0.0,,,,,,,,,88.22467580000011,,,,,,,,,88.21066119999887,88.57491289999962,89.3773743999991,89.3597817000009,89.35981280000124,89.3773743999991,89.3773743999991,89.3773743999991,,92.21406469999783,left,1.0,52.77416599999924,,92.21462220000105,92.22787679999963,92.71261049999885,92.72831869999936,,,,,,,,,,,,,,,,,,,,,,,,,sub-028,1.0,random_dot,59.985267619133744,
right,right,,4.0,1.0,9.0,1.0,,,,,,,,,92.72831869999936,,,,,,,,,92.71325299999808,93.0783494999996,93.88048069999786,93.86295299999983,93.86299209999925,93.88048069999786,93.88048069999786,93.88048069999786,,95.04994369999986,right,1.0,51.11110519999784,,95.05084250000073,95.06291879999844,95.54772270000105,95.5631171999994,,,,,,,,,,,,,,,,,,,,,,,,,sub-028,1.0,random_dot,59.985267619133744,
left,left,,5.0,0.0,10.0,0.0,,,,,,,,,95.5631171999994,,,,,,,,,95.54850929999884,96.36390530000062,97.16603430000032,97.14982020000024,97.14986259999932,97.16603430000032,97.16603430000032,97.16603430000032,,100.0873216,right,0.0,52.856239699998696,,100.08844150000004,100.1048751999988,100.60056269999768,,,,,,,,,,,,,,,,,,,,,,,,,,sub-028,1.0,random_dot,59.985267619133744,
right,right,,5.0,1.0,11.0,1.0,,,,,,,,,100.61689119999936,,,,,,,,,100.60192430000096,100.95016680000116,101.75231509999868,101.7358275000006,101.7358643999978,101.75231509999868,101.75231509999868,101.75231509999868,,103.15493449999848,left,0.0,51.33913739999844,,103.15579950000028,103.16857049999815,103.65372669999851,103.6687927999992,,,,,,,,,,,,,,,,,,,,,,,,,sub-028,1.0,random_dot,59.985267619133744,
left,left,,6.0,0.0,12.0,0.0,,,,,,,,,103.6687927999992,,,,,,,,,103.65430529999868,103.76888959999997,104.57083889999922,104.55382879999888,104.55389039999864,104.57083889999922,104.57083889999922,104.57083889999922,,106.24105659999988,left,1.0,51.61106049999944,,106.242123,106.25694369999836,106.7550216999989,,,,,,,,,,,,,,,,,,,,,,,,,,sub-028,1.0,random_dot,59.985267619133744,
right,right,,6.0,1.0,13.0,1.0,,,,,,,,,106.77107350000006,,,,,,,,,106.75577949999932,107.55487770000036,108.35735679999924,108.33997029999956,108.3399931999993,108.35735679999924,108.35735679999924,108.35735679999924,,111.4446624000011,left,0.0,53.02416489999814,,111.44564420000096,111.45970490000036,111.95853949999946,,,,,,,,,,,,,,,,,,,,,,,,,,sub-028,1.0,random_dot,59.985267619133744,
right,right,,7.0,0.0,14.0,1.0,,,,,,,,,111.9749727999988,,,,,,,,,111.95930919999957,112.30847229999928,113.11032459999842,113.093949099999,113.09399069999928,113.11032459999842,113.11032459999842,113.11032459999842,,115.01377589999902,right,1.0,51.83175739999933,,115.01474809999854,115.02961119999964,115.52761810000084,,,,,,,,,,,,,,,,,,,,,,,,,,sub-028,1.0,random_dot,59.985267619133744,
left,left,,7.0,1.0,15.0,0.0,,,,,,,,,115.54418259999876,,,,,,,,,115.52846579999824,115.87745599999836,116.6794082999986,116.66367660000104,116.66371810000057,116.6794082999986,116.6794082999986,116.6794082999986,,117.94978759999869,left,1.0,51.21216249999634,,117.95097379999788,117.96246030000113,118.4473627999978,118.4624808999979,,,,,,,,,,,,,,,,,,,,,,,,,sub-028,1.0,random_dot,59.985267619133744,
left,left,,8.0,0.0,16.0,0.0,,,,,,,,,118.4624808999979,,,,,,,,,118.44867629999862,118.56299619999844,119.36485750000064,119.3478886999983,119.34795029999805,119.36485750000064,119.36485750000064,119.36485750000064,,121.0020267,left,1.0,51.57797120000032,,121.00310109999918,121.0145169999996,121.49947299999984,121.51467010000124,,,,,,,,,,,,,,,,,,,,,,,,,sub-028,1.0,random_dot,59.985267619133744,
right,right,,8.0,1.0,17.0,1.0,,,,,,,,,121.51467010000124,,,,,,,,,121.50021709999784,121.61466899999868,122.41685489999873,122.3998834999984,122.3999334,122.41685489999873,122.41685489999873,122.41685489999873,,123.47018469999966,right,1.0,50.98486209999828,,123.4712217999986,123.48274889999811,123.96815509999942,123.98310610000044,,,,,,,,,,,,,,,,,,,,,,,,,sub-028,1.0,random_dot,59.985267619133744,
right,right,,9.0,0.0,18.0,1.0,,,,,,,,,123.98310610000044,,,,,,,,,123.96901589999834,124.33360370000082,125.1352971999986,125.1186189,125.1186596999978,125.1352971999986,125.1352971999986,125.1352971999986,,126.17092039999989,left,0.0,50.96626009999818,,126.17159529999844,126.184549900001,126.66939609999828,126.68499869999869,,,,,,,,,,,,,,,,,,,,,,,,,sub-028,1.0,random_dot,59.985267619133744,
left,left,,9.0,1.0,19.0,0.0,,,,,,,,,126.68499869999869,,,,,,,,,126.67008609999904,127.4855366999982,128.28776870000002,128.2705879999994,128.27061999999933,128.28776870000002,128.28776870000002,128.28776870000002,,130.52350450000085,left,1.0,52.17420089999723,,130.5240883999977,130.53741850000006,131.02220640000087,131.03788300000087,,,,,,,,,,,,,,,,,,,,,,,,,sub-028,1.0,random_dot,59.985267619133744,
,,,,,,,,,,,,,,,,,,,,,,,,,,,,,,,,,,,,,,,,,,131.022339799998,131.03788300000087,131.03788300000087,134.02653999999893,space,52.91458579999744,,,,,,,,,,,,,,,,,,,sub-028,1.0,random_dot,59.985267619133744,
,,,,,,,,,,,,,,,,,,,,,,,,,,,,,,,,,,,,,,,,,,,,,,,,,134.02662520000013,134.04055829999925,134.04055829999925,141.88161399999808,space,57.7712466999983,,,,,,,,,,,,sub-028,1.0,random_dot,59.985267619133744,
right,right,accuracy,,,,,0.0,0.0,0.0,0.0,0.0,0.0,0.0,1.0,145.10745150000002,,,,,,,,,145.103138399998,145.44864640000014,146.25003819999984,146.23346310000125,146.23351949999778,146.25003819999984,146.25003819999984,146.25003819999984,,149.55474930000128,left,0.0,53.23303929999747,,,,,,,,,,,,,,,,,,,,141.8956866999979,141.94188519999807,141.94188519999807,145.08645949999843,space,53.07005709999794,,,,,sub-028,1.0,random_dot,59.985267619133744,
left,left,accuracy,,,,,0.0,0.0,0.0,0.0,0.0,1.0,1.0,0.0,149.56769669999994,,,,,,,,,149.55760720000035,150.7687373000008,151.5703383,151.55355200000122,151.55358799999885,151.5703383,151.5703383,151.5703383,,153.89164529999834,right,0.0,52.26195250000092,,,,,,,,,,,,,,,,,,,,,,,,,,,,,,sub-028,1.0,random_dot,59.985267619133744,
right,right,accuracy,,,,,0.0,0.0,0.0,0.0,1.0,0.0,2.0,1.0,153.90407090000008,,,,,,,,,153.89376659999834,155.10495029999947,155.90675230000124,155.8902209000007,155.89026390000072,155.90675230000124,155.90675230000124,155.90675230000124,,157.36091970000052,left,0.0,51.38513659999808,,,,,,,,,,,,,,,,,,,,,,,,,,,,,,sub-028,1.0,random_dot,59.985267619133744,
left,left,accuracy,,,,,0.0,0.0,0.0,0.0,1.0,1.0,3.0,0.0,157.37280359999932,,,,,,,,,157.36271750000014,158.1734823000006,158.9756185999977,158.95867699999872,158.95871609999813,158.9756185999977,158.9756185999977,158.9756185999977,,160.2783974999984,right,0.0,51.23636400000032,,,,,,,,,,,,,,,,,,,,,,,,,,,,,,sub-028,1.0,random_dot,59.985267619133744,
right,right,accuracy,,,,,0.0,0.0,0.0,0.0,2.0,0.0,4.0,1.0,160.29148110000096,,,,,,,,,160.2806211999996,160.39186540000082,161.19352939999953,161.18552210000053,161.18555650000053,161.19352939999953,161.19352939999953,161.19352939999953,,164.0318088999993,left,0.0,52.77914360000068,,,,,,,,,,,,,,,,,,,,,,,,,,,,,,sub-028,1.0,random_dot,59.985267619133744,
left,left,accuracy,,,,,0.0,0.0,0.0,0.0,2.0,1.0,5.0,0.0,164.04423609999867,,,,,,,,,164.03386020000107,164.84478989999843,165.64683779999905,165.62983779999922,165.62987749999957,165.64683779999905,165.64683779999905,165.64683779999905,,166.9332308999983,right,0.0,51.21501910000006,,,,,,,,,,,,,,,,,,,,,,,,,,,,,,sub-028,1.0,random_dot,59.985267619133744,
left,left,accuracy,,,,,0.0,0.0,0.0,0.0,3.0,0.0,6.0,0.0,166.94637599999987,,,,,,,,,166.93505129999903,167.04641059999994,167.84814629999892,167.83164100000067,167.8316823999994,167.84814629999892,167.84814629999892,167.84814629999892,,169.3683799999999,right,0.0,51.4548892999992,,,,,,,,,,,,,,,,,,,,,,,,,,,,,,sub-028,1.0,random_dot,59.985267619133744,
right,right,accuracy,,,,,0.0,0.0,0.0,0.0,3.0,1.0,7.0,1.0,169.3812528999988,,,,,,,,,169.37101210000037,170.58257089999825,171.38416030000008,171.36690029999954,171.36693449999802,171.38416030000008,171.38416030000008,171.38416030000008,,172.4713097999993,left,0.0,51.01771999999983,,,,,,,,,,,,,,,,,,,,,,,,,,,,,,sub-028,1.0,random_dot,59.985267619133744,
right,right,accuracy,,,,,0.0,0.0,0.0,0.0,4.0,0.0,8.0,1.0,172.4834563000004,,,,,,,,,172.4733672000002,172.58364979999897,173.38568590000068,173.36806369999977,173.36808659999951,173.38568590000068,173.38568590000068,173.38568590000068,,174.45456009999907,right,1.0,51.00715510000009,,,,,,,,,,,,,,,,,,,,,,,,,,,,,,sub-028,1.0,random_dot,59.985267619133744,
left,left,accuracy,,,,,0.0,0.0,0.0,0.0,4.0,1.0,9.0,0.0,174.46816920000128,,,,,,,,,174.45580849999897,174.81845220000105,175.62063009999838,175.6037088000012,175.60375729999942,175.62063009999838,175.62063009999838,175.62063009999838,,178.77469669999846,left,1.0,53.09179049999875,,,,,,,,,,,,,,,,,,,,,,,,,,,,,,sub-028,1.0,random_dot,59.985267619133744,
left,left,accuracy,,,,,0.0,0.0,0.0,0.0,5.0,0.0,10.0,0.0,178.78810320000048,,,,,,,,,178.7768990000004,179.58833849999792,180.39051889999973,180.37343169999804,180.37347130000128,180.39051889999973,180.39051889999973,180.39051889999973,,183.36124370000107,left,1.0,52.901749499997095,,,,,,,,,,,,,,,,,,,,,,,,,,,,,,sub-028,1.0,random_dot,59.985267619133744,
right,right,accuracy,,,,,0.0,0.0,0.0,0.0,5.0,1.0,11.0,1.0,183.37430559999848,,,,,,,,,183.3635351000012,184.17507190000103,184.97702690000008,184.96041599999808,184.96045799999771,184.97702690000008,184.97702690000008,184.97702690000008,,185.97923209999863,right,1.0,50.93594060000032,,,,,,,,,,,,,,,,,,,,,,,,,,,,,,sub-028,1.0,random_dot,59.985267619133744,
left,left,accuracy,,,,,0.0,0.0,0.0,0.0,6.0,0.0,12.0,0.0,185.99284049999915,,,,,,,,,185.98120819999892,187.1939108000006,188.00051429999803,187.98951289999968,187.98955320000096,188.00051429999803,188.00051429999803,188.00051429999803,,189.4325159,right,0.0,51.36178429999927,,,,,,,,,,,,,,,,,,,,,,,,,,,,,,sub-028,1.0,random_dot,59.985267619133744,
right,right,accuracy,,,,,0.0,0.0,0.0,0.0,6.0,1.0,13.0,1.0,189.44553480000104,,,,,,,,,189.4343805999997,189.5451764999998,190.34725989999788,190.33080880000125,190.33084339999917,190.34725989999788,190.34725989999788,190.34725989999788,,191.50024699999997,left,0.0,51.08550679999826,,,,,,,,,,,,,,,,,,,,,,,,,,,,,,sub-028,1.0,random_dot,59.985267619133744,
left,left,accuracy,,,,,0.0,0.0,0.0,0.0,7.0,0.0,14.0,0.0,191.5135311999984,,,,,,,,,191.50278210000036,191.86358449999895,192.66580969999995,192.64860829999816,192.64865120000104,192.66580969999995,192.66580969999995,192.66580969999995,,193.7183302000012,right,0.0,50.98666239999875,,,,,,,,,,,,,,,,,,,,,,,,,,,,,,sub-028,1.0,random_dot,59.985267619133744,
right,right,accuracy,,,,,0.0,0.0,0.0,0.0,7.0,1.0,15.0,1.0,193.7315396999984,,,,,,,,,193.7201438000011,194.93226969999887,195.7340425000002,195.7169227000013,195.71695429999815,195.7340425000002,195.7340425000002,195.7340425000002,,196.98764669999943,left,0.0,51.1890127000006,,,,,,,,,,,,,,,,,,,,,,,,,,,,,,sub-028,1.0,random_dot,59.985267619133744,
right,right,accuracy,,,,,0.0,0.0,0.0,0.0,8.0,0.0,16.0,1.0,197.0004663,,,,,,,,,196.99036350000097,198.2012761000005,199.0031756999997,198.9866865000004,198.98672799999983,199.0031756999997,199.0031756999997,199.0031756999997,,200.172748099998,right,1.0,51.10057379999853,,,,,,,,,,,,,,,,,,,,,,,,,,,,,,sub-028,1.0,random_dot,59.985267619133744,
left,left,accuracy,,,,,0.0,0.0,0.0,0.0,8.0,1.0,17.0,0.0,200.1868547999984,,,,,,,,,200.1747309999992,201.38675339999827,202.18872859999829,202.1718832000006,202.1719240999992,202.18872859999829,202.18872859999829,202.18872859999829,,204.1886243000008,right,0.0,51.93378780000057,,,,,,,,,,,,,,,,,,,,,,,,,,,,,,sub-028,1.0,random_dot,59.985267619133744,
right,right,accuracy,,,,,0.0,0.0,0.0,0.0,9.0,0.0,18.0,1.0,204.19572739999785,,,,,,,,,204.1903691999978,204.28931939999893,205.0909657000011,205.07449300000007,205.07455579999805,205.0909657000011,205.0909657000011,205.0909657000011,,207.67789039999843,right,1.0,52.5213264999984,,,,,,,,,,,,,,,,,,,,,,,,,,,,,,sub-028,1.0,random_dot,59.985267619133744,
left,left,accuracy,,,,,0.0,0.0,0.0,0.0,9.0,1.0,19.0,0.0,207.69149330000076,,,,,,,,,207.68014530000076,207.79117250000127,208.59324410000045,208.5763336999989,208.57636849999835,208.59324410000045,208.59324410000045,208.59324410000045,,209.4959869999984,left,1.0,50.82892829999764,,,,,,,,,,,,,,,,,,,,,,,,,,,,,,sub-028,1.0,random_dot,59.985267619133744,
left,left,accuracy,,,,,0.0,0.0,0.0,0.0,10.0,0.0,20.0,0.0,209.50910949999889,,,,,,,,,209.4980543999991,209.6090992999998,210.4233672999981,210.4131396000012,210.41317889999848,210.4233672999981,210.4233672999981,210.4233672999981,,211.7320237999993,right,0.0,51.250174299999344,,,,,,,,,,,,,,,,,,,,,,,,,,,,,,sub-028,1.0,random_dot,59.985267619133744,
right,right,accuracy,,,,,0.0,0.0,0.0,0.0,10.0,1.0,21.0,1.0,211.7438398000013,,,,,,,,,211.73408469999777,211.84442950000084,212.64641629999824,212.6292532999978,212.62930309999865,212.64641629999824,212.64641629999824,212.64641629999824,,214.5162855999988,left,0.0,51.80680779999966,,,,,,,,,,,,,,,,,,,,,,,,,,,,,,sub-028,1.0,random_dot,59.985267619133744,
left,left,accuracy,,,,,0.0,0.0,0.0,0.0,11.0,0.0,22.0,0.0,214.5294126000008,,,,,,,,,214.5181115999985,215.3297128999984,216.13185349999912,216.115049,216.11508930000127,216.13185349999912,216.13185349999912,216.13185349999912,,219.49427129999825,left,1.0,53.30167079999956,,,,,,,,,,,,,,,,,,,,,,,,,,,,,,sub-028,1.0,random_dot,59.985267619133744,
right,right,accuracy,,,,,0.0,0.0,0.0,0.0,11.0,1.0,23.0,1.0,219.50118289999955,,,,,,,,,219.4959329000012,219.8496089,220.6565174999996,220.64267850000036,220.6427294999994,220.6565174999996,220.6565174999996,220.6565174999996,,221.8212605000008,right,1.0,51.0957785999999,,,,,,,,,,,,,,,,,,,,,,,,,,,,,,sub-028,1.0,random_dot,59.985267619133744,
right,right,accuracy,,,,,0.0,0.0,0.0,0.0,12.0,0.0,24.0,1.0,221.8344705999989,,,,,,,,,221.8233,222.18500420000052,222.9865280999984,222.9699634999997,222.97001470000032,222.9865280999984,222.9865280999984,222.9865280999984,,224.022715799998,left,0.0,50.97589270000026,,,,,,,,,,,,,,,,,,,,,,,,,,,,,,sub-028,1.0,random_dot,59.985267619133744,
left,left,accuracy,,,,,0.0,0.0,0.0,0.0,12.0,1.0,25.0,0.0,224.0361527999994,,,,,,,,,224.0245547000013,225.2471575999989,226.05568309999944,226.03901079999923,226.03905139999915,226.05568309999944,226.05568309999944,226.05568309999944,,229.3273036999999,left,1.0,53.20696630000021,,,,,,,,,,,,,,,,,,,,,,,,,,,,,,sub-028,1.0,random_dot,59.985267619133744,
left,left,accuracy,,,,,0.0,0.0,0.0,0.0,13.0,0.0,26.0,0.0,229.33961709999855,,,,,,,,,229.32983609999792,230.1402798999989,230.9421524999998,230.9250874999998,230.9251207999987,230.9421524999998,230.9421524999998,230.9421524999998,,232.1615297999997,right,0.0,51.15027689999988,,,,,,,,,,,,,,,,,,,,,,,,,,,,,,sub-028,1.0,random_dot,59.985267619133744,
right,right,accuracy,,,,,0.0,0.0,0.0,0.0,13.0,1.0,27.0,1.0,232.1749434000012,,,,,,,,,232.16323809999813,232.5253002999998,233.3271999999997,233.3105097000007,233.3105495999989,233.3271999999997,233.3271999999997,233.3271999999997,,236.3479514999999,right,1.0,52.95595729999695,,,,,,,,,,,,,,,,,,,,,,,,,,,,,,sub-028,1.0,random_dot,59.985267619133744,
left,left,accuracy,,,,,0.0,0.0,0.0,0.0,14.0,0.0,28.0,0.0,236.36133319999865,,,,,,,,,236.3499996999999,236.46126019999792,237.2633160000005,237.2465215000011,237.24657509999813,237.2633160000005,237.2633160000005,237.2633160000005,,240.15103180000008,right,0.0,52.82909529999597,,,,,,,,,,,,,,,,,,,,,,,,,,,,,,sub-028,1.0,random_dot,59.985267619133744,
right,right,accuracy,,,,,0.0,0.0,0.0,0.0,14.0,1.0,29.0,1.0,240.1639601999996,,,,,,,,,240.15445519999776,241.3644650999995,242.16651690000072,242.1499877999995,242.15004319999932,242.16651690000072,242.16651690000072,242.16651690000072,,245.10408539999844,left,0.0,52.86592179999934,,,,,,,,,,,,,,,,,,,,,,,,,,,,,,sub-028,1.0,random_dot,59.985267619133744,
left,left,accuracy,,,,,0.0,0.0,0.0,0.0,15.0,0.0,30.0,0.0,245.1173295000008,,,,,,,,,245.10632460000124,245.90098969999963,246.7030449999984,246.6864968000009,246.6865402000003,246.7030449999984,246.7030449999984,246.7030449999984,,247.72352519999916,right,0.0,50.95960180000111,,,,,,,,,,,,,,,,,,,,,,,,,,,,,,sub-028,1.0,random_dot,59.985267619133744,
right,right,accuracy,,,,,0.0,0.0,0.0,0.0,15.0,1.0,31.0,1.0,247.73609419999772,,,,,,,,,247.72588489999907,248.53610349999872,249.33821779999928,249.3219984999996,249.32204199999975,249.33821779999928,249.33821779999928,249.33821779999928,,250.25775280000016,left,0.0,50.85503899999821,,,,,,,,,,,,,,,,,,,,,,,,,,,,,,sub-028,1.0,random_dot,59.985267619133744,
left,left,accuracy,,,,,0.0,0.0,0.0,0.0,16.0,0.0,32.0,0.0,250.2710146999998,,,,,,,,,250.26075610000044,250.37085790000128,251.1725939999997,251.15570540000044,251.15575049999825,251.1725939999997,251.1725939999997,251.1725939999997,,252.8180579,right,0.0,51.5865900999961,,,,,,,,,,,,,,,,,,,,,,,,,,,,,,sub-028,1.0,random_dot,59.985267619133744,
right,right,accuracy,,,,,0.0,0.0,0.0,0.0,16.0,1.0,33.0,1.0,252.85619880000013,,,,,,,,,252.82126269999932,253.62301699999807,254.42509439999776,254.4080150000009,254.40804650000064,254.42509439999776,254.42509439999776,254.42509439999776,,256.4249760999992,left,0.0,51.90741839999828,,,,,,,,,,,,,,,,,,,,,,,,,,,,,,sub-028,1.0,random_dot,59.985267619133744,
right,right,accuracy,,,,,0.0,0.0,0.0,0.0,17.0,0.0,34.0,1.0,256.4319461999985,,,,,,,,,256.42731569999887,257.2419129000009,258.0438566999983,258.0271152999994,258.0271595000013,258.0438566999983,258.0438566999983,258.0438566999983,,261.9239047999981,left,0.0,53.805910800001584,,,,,,,,,,,,,,,,,,,,,,,,,,,,,,sub-028,1.0,random_dot,59.985267619133744,
left,left,accuracy,,,,,0.0,0.0,0.0,0.0,17.0,1.0,35.0,0.0,261.9301642999999,,,,,,,,,261.92548850000094,262.72922090000066,263.531304199998,263.51724249999825,263.5172735999986,263.531304199998,263.531304199998,263.531304199998,268.5182219999988,270.7222585999989,right,0.0,57.13128829999914,,,,,,,,,,,,,,,,,,,,,,,,,,,,,,sub-028,1.0,random_dot,59.985267619133744,
left,left,accuracy,,,,,0.0,0.0,0.0,0.0,18.0,0.0,36.0,0.0,270.73492429999897,,,,,,,,,270.72455369999807,271.52047649999804,272.3207970000003,272.3045839000006,272.3046476999989,272.3207970000003,272.3207970000003,272.3207970000003,,275.7276576000004,right,0.0,53.34856279999804,,,,,,,,,,,,,,,,,,,,,,,,,,,,,,sub-028,1.0,random_dot,59.985267619133744,
right,right,accuracy,,,,,0.0,0.0,0.0,0.0,18.0,1.0,37.0,1.0,275.73395719999826,,,,,,,,,275.7294524999997,276.08897029999935,276.8906442999978,276.8739428999979,276.8739876,276.8906442999978,276.8906442999978,276.8906442999978,,280.1374160999985,right,1.0,53.18205029999808,,,,,,,,,,,,,,,,,,,,,,,,,,,,,,sub-028,1.0,random_dot,59.985267619133744,
left,left,accuracy,,,,,0.0,0.0,0.0,0.0,19.0,0.0,38.0,0.0,280.14549049999914,,,,,,,,,280.1408862999997,280.4915290999997,281.32032059999983,281.2770888999985,281.2771326000002,281.32032059999983,281.32032059999983,281.32032059999983,,283.4640333999996,right,0.0,52.07308310000008,,,,,,,,,,,,,,,,,,,,,,,,,,,,,,sub-028,1.0,random_dot,59.985267619133744,
right,right,accuracy,,,,,0.0,0.0,0.0,0.0,19.0,1.0,39.0,1.0,283.47692800000004,,,,,,,,,283.46616129999893,283.5772168000003,284.37940829999934,284.36237020000044,284.3624104000009,284.37940829999934,284.37940829999934,284.37940829999934,,285.905190999998,right,1.0,51.46757119999893,,,,,,,,,,,,,,,,,,,,,,,,,,,,,,sub-028,1.0,random_dot,59.985267619133744,
right,right,accuracy,,,,,0.0,0.0,0.0,0.0,20.0,0.0,40.0,1.0,285.91207869999926,,,,,,,,,285.907091699999,286.2626509000001,287.0642148000006,287.04808480000065,287.0481269000011,287.0642148000006,287.0642148000006,287.0642148000006,,290.09709790000124,right,1.0,52.968477299997176,,,,,,,,,,,,,,,,,,,,,,,,,,,,,,sub-028,1.0,random_dot,59.985267619133744,
left,left,accuracy,,,,,0.0,0.0,0.0,0.0,20.0,1.0,41.0,0.0,290.1037632999978,,,,,,,,,290.0987692999988,290.8988425999996,291.70124080000096,291.68384049999804,291.68387599999915,291.70124080000096,291.70124080000096,291.70124080000096,,292.8694895000008,right,0.0,51.10250180000003,,,,,,,,,,,,,,,,,,,,,,,,,,,,,,sub-028,1.0,random_dot,59.985267619133744,
right,right,accuracy,,,,,0.0,0.0,0.0,0.0,21.0,0.0,42.0,1.0,292.88379480000003,,,,,,,,,292.87099169999783,294.0846586000007,294.8865423999996,294.86981319999904,294.86986239999896,294.8865423999996,294.8865423999996,294.8865423999996,,295.5560970999977,left,0.0,50.59710279999854,,,,,,,,,,,,,,,,,,,,,,,,,,,,,,sub-028,1.0,random_dot,59.985267619133744,
left,left,accuracy,,,,,0.0,0.0,0.0,0.0,21.0,1.0,43.0,0.0,295.56878900000083,,,,,,,,,295.5579861999977,296.3692678999978,297.17132409999977,297.1549606000008,297.155010399998,297.17132409999977,297.17132409999977,297.17132409999977,,297.9238375999994,left,1.0,50.6815858000009,,,,,,,,,,,,,,,,,,,,,,,,,,,,,,sub-028,1.0,random_dot,59.985267619133744,
right,right,accuracy,,,,,0.0,0.0,0.0,0.0,22.0,0.0,44.0,1.0,297.9372086000003,,,,,,,,,297.9253581000012,298.3011676999995,299.1061859000001,299.0888798999986,299.08890729999985,299.1061859000001,299.1061859000001,299.1061859000001,,300.6933848999979,right,1.0,51.52719040000011,,,,,,,,,,,,,,,,,,,,,,,,,,,,,,sub-028,1.0,random_dot,59.985267619133744,
left,left,accuracy,,,,,0.0,0.0,0.0,0.0,22.0,1.0,45.0,0.0,300.70601309999984,,,,,,,,,300.6957688000002,301.5061671000003,302.3166187999996,302.3080287000012,302.3080652999997,302.3166187999996,302.3166187999996,302.3166187999996,,303.79534280000007,right,0.0,51.4179269999986,,,,,,,,,,,,,,,,,,,,,,,,,,,,,,sub-028,1.0,random_dot,59.985267619133744,
left,left,accuracy,,,,,0.0,0.0,0.0,0.0,23.0,0.0,46.0,0.0,303.8079174000013,,,,,,,,,303.7983227000004,304.6066197,305.41017379999903,305.3937904000013,305.3938378999992,305.41017379999903,305.41017379999903,305.41017379999903,,306.063102199998,left,1.0,50.59327299999859,,,,,,,,,,,,,,,,,,,,,,,,,,,,,,sub-028,1.0,random_dot,59.985267619133744,
right,right,accuracy,,,,,0.0,0.0,0.0,0.0,23.0,1.0,47.0,1.0,306.0761371000008,,,,,,,,,306.0660715999984,306.1763002999978,306.97839159999785,306.9614737000011,306.96151629999804,306.97839159999785,306.97839159999785,306.97839159999785,,308.56469559999823,left,0.0,51.51476639999965,,,,,,,,,,,,,,,,,,,,,,,,,,,,,,sub-028,1.0,random_dot,59.985267619133744,
left,left,accuracy,,,,,0.0,0.0,0.0,0.0,24.0,0.0,48.0,0.0,308.5780734,,,,,,,,,308.56724229999963,308.92613379999966,309.7300255000009,309.71353579999777,309.71357459999854,309.7300255000009,309.7300255000009,309.7300255000009,,311.5746274999983,right,0.0,51.78286249999656,,,,,,,,,,,,,,,,,,,,,,,,,,,,,,sub-028,1.0,random_dot,59.985267619133744,
right,right,accuracy,,,,,0.0,0.0,0.0,0.0,24.0,1.0,49.0,1.0,311.5811539999995,,,,,,,,,311.5764101999994,312.3806724999995,313.1920012999981,313.1825248999994,313.1825620999989,313.1920012999981,313.1920012999981,313.1920012999981,,314.10676149999927,left,0.0,50.8518839999997,,,,,,,,,,,,,,,,,,,,,,,,,,,,,,sub-028,1.0,random_dot,59.985267619133744,
left,left,accuracy,,,,,0.0,0.0,0.0,0.0,25.0,0.0,50.0,0.0,314.1149955000001,,,,,,,,,314.1086214999996,314.91572129999986,315.7177107999996,315.7008299000008,315.70087019999846,315.7177107999996,315.7177107999996,315.7177107999996,,316.85426319999897,right,0.0,51.076104799998575,,,,,,,,,,,,,,,,,,,,,,,,,,,,,,sub-028,1.0,random_dot,59.985267619133744,
right,right,accuracy,,,,,0.0,0.0,0.0,0.0,25.0,1.0,51.0,1.0,316.8668246999987,,,,,,,,,316.85642329999973,317.667560599999,318.5318539,318.48314390000087,318.48320559999775,318.5318539,318.5318539,318.5318539,,320.1563615999985,right,1.0,51.5627358999991,,,,,,,,,,,,,,,,,,,,,,,,,,,,,,sub-028,1.0,random_dot,59.985267619133744,
right,right,accuracy,,,,,0.0,0.0,0.0,0.0,26.0,0.0,52.0,1.0,320.16940669999894,,,,,,,,,320.1580568999998,321.3700863000013,322.1719975999986,322.1544743000013,322.15449960000115,322.1719975999986,322.1719975999986,322.1719975999986,,323.0410024999983,right,1.0,50.80102849999821,,,,,,,,,,,,,,,,,,,,,,,,,,,,,,sub-028,1.0,random_dot,59.985267619133744,
left,left,accuracy,,,,,0.0,0.0,0.0,0.0,26.0,1.0,53.0,0.0,323.05457150000075,,,,,,,,,323.0426879000006,323.85519170000043,324.657121799999,324.6402535999987,324.6402935000005,324.657121799999,324.657121799999,324.657121799999,,326.02687909999804,right,0.0,51.305964700000914,,,,,,,,,,,,,,,,,,,,,,,,,,,,,,sub-028,1.0,random_dot,59.985267619133744,
right,right,accuracy,,,,,0.0,0.0,0.0,0.0,27.0,0.0,54.0,1.0,326.0401920000004,,,,,,,,,326.0289501999978,327.2410362999981,328.042827199999,328.02601589999904,328.0260539999981,328.042827199999,328.042827199999,328.042827199999,,330.59638429999904,right,1.0,52.49038769999606,,,,,,,,,,,,,,,,,,,,,,,,,,,,,,sub-028,1.0,random_dot,59.985267619133744,
left,left,accuracy,,,,,0.0,0.0,0.0,0.0,27.0,1.0,55.0,0.0,330.61000630000126,,,,,,,,,330.59848910000073,331.8106313999997,332.6124907000012,332.59586689999924,332.5959060999994,332.6124907000012,332.6124907000012,332.6124907000012,,335.6332927000003,right,0.0,52.951574299997446,,,,,,,,,,,,,,,,,,,,,,,,,,,,,,sub-028,1.0,random_dot,59.985267619133744,
left,left,accuracy,,,,,0.0,0.0,0.0,0.0,28.0,0.0,56.0,0.0,335.6469674,,,,,,,,,335.6353277999988,336.4473660000004,337.2490624999991,337.2322663999985,337.232306599999,337.2490624999991,337.2490624999991,337.2490624999991,,338.45210940000106,left,1.0,51.14411950000067,,,,,,,,,,,,,,,,,,,,,,,,,,,,,,sub-028,1.0,random_dot,59.985267619133744,
right,right,accuracy,,,,,0.0,0.0,0.0,0.0,28.0,1.0,57.0,1.0,338.4654809999993,,,,,,,,,338.4538685999978,338.81553669999994,339.6176985999992,339.60069920000024,339.6007462999987,339.6176985999992,339.6176985999992,339.6176985999992,,340.7208413000008,left,0.0,51.03548469999805,,,,,,,,,,,,,,,,,,,,,,,,,,,,,,sub-028,1.0,random_dot,59.985267619133744,
left,left,accuracy,,,,,0.0,0.0,0.0,0.0,29.0,0.0,58.0,0.0,340.7335325999993,,,,,,,,,340.7227696000009,341.53441139999995,342.3458258999999,342.3354956000003,342.33554319999894,342.3458258999999,342.3458258999999,342.3458258999999,,343.45572329999777,left,1.0,51.03785029999926,,,,,,,,,,,,,,,,,,,,,,,,,,,,,,sub-028,1.0,random_dot,59.985267619133744,
right,right,accuracy,,,,,0.0,0.0,0.0,0.0,29.0,1.0,59.0,1.0,343.46872019999864,,,,,,,,,343.4582330000012,344.2694666999996,345.0712717999995,345.0546467999993,345.05469670000093,345.0712717999995,345.0712717999995,345.0712717999995,,346.50809819999995,left,0.0,51.37311109999792,,,,,,,,,,,,,,,,,,,,,,,,,,,,,,sub-028,1.0,random_dot,59.985267619133744,
,,accuracy,,,,,0.0,0.0,0.0,0.0,,,,,,,,,,,,,,,,,,,,,,,,,,,,,,,,,,,,,,,,,,,,,,,,,,,,,,,,sub-028,1.0,random_dot,59.985267619133744,
left,left,speed,,,,,0.0,1.0,1.0,1.0,0.0,0.0,0.0,0.0,351.1662175999991,,,,,,,,,351.1603305999997,351.9580057999992,352.7598908,352.7432136999996,352.74325379999937,352.7598908,352.7598908,352.7598908,,353.8335293999989,right,0.0,51.00346349999745,,,,,,,,,,,,,,,,,,,,346.5100655999995,346.53648659999817,346.53648659999817,351.1435098000002,space,54.53668749999997,,,,,sub-028,1.0,random_dot,59.985267619133744,
right,right,speed,,,,,0.0,1.0,1.0,1.0,0.0,1.0,1.0,1.0,353.84257100000104,,,,,,,,,353.83612540000104,354.1930829000012,354.99474049999844,354.97861379999813,354.9786669999994,354.99474049999844,354.99474049999844,354.99474049999844,,356.31476309999925,right,1.0,51.248550199998135,,,,,,,,,,,,,,,,,,,,,,,,,,,,,,sub-028,1.0,random_dot,59.985267619133744,
left,left,speed,,,,,0.0,1.0,1.0,1.0,1.0,0.0,2.0,0.0,356.32771539999885,,,,,,,,,356.31683939999857,357.54870110000047,358.36384739999994,358.3470321999994,358.3470813999993,358.36384739999994,358.36384739999994,358.36384739999994,,359.26624209999864,left,1.0,50.829488199997286,,,,,,,,,,,,,,,,,,,,,,,,,,,,,,sub-028,1.0,random_dot,59.985267619133744,
right,right,speed,,,,,0.0,1.0,1.0,1.0,1.0,1.0,3.0,1.0,359.2798595999993,,,,,,,,,359.2683285999992,360.48054670000056,361.2828520000003,361.26583069999833,361.2658833999994,361.2828520000003,361.2828520000003,361.2828520000003,,361.91589849999946,right,1.0,50.519857199997205,,,,,,,,,,,,,,,,,,,,,,,,,,,,,,sub-028,1.0,random_dot,59.985267619133744,
right,right,speed,,,,,0.0,1.0,1.0,1.0,2.0,0.0,4.0,1.0,361.9221894000002,,,,,,,,,361.91739439999947,362.03175909999845,362.8334563999997,362.8172802000008,362.8173346000003,362.8334563999997,362.8334563999997,362.8334563999997,,363.4528882999985,left,0.0,50.55976899999951,,,,,,,,,,,,,,,,,,,,,,,,,,,,,,sub-028,1.0,random_dot,59.985267619133744,
left,left,speed,,,,,0.0,1.0,1.0,1.0,2.0,1.0,5.0,0.0,363.4659853999983,,,,,,,,,363.4553014000012,363.8168411999977,364.6180908999995,364.6021073000011,364.6023090999988,364.6180908999995,364.6180908999995,364.6180908999995,,365.2039717000007,left,1.0,50.52588760000072,,,,,,,,,,,,,,,,,,,,,,,,,,,,,,sub-028,1.0,random_dot,59.985267619133744,
left,left,speed,,,,,0.0,1.0,1.0,1.0,3.0,0.0,6.0,0.0,365.2171949000003,,,,,,,,,365.20599239999865,366.0176236000007,366.8197811999999,366.8029139999999,366.8029532000001,366.8197811999999,366.8197811999999,366.8197811999999,,367.5224630999983,right,0.0,50.63422839999839,,,,,,,,,,,,,,,,,,,,,,,,,,,,,,sub-028,1.0,random_dot,59.985267619133744,
right,right,speed,,,,,0.0,1.0,1.0,1.0,3.0,1.0,7.0,1.0,367.5355438999977,,,,,,,,,367.52471650000007,367.6355782999999,368.43815280000126,368.420806099999,368.4208599999984,368.43815280000126,368.43815280000126,368.43815280000126,,369.1741089999996,left,0.0,50.665838499997335,,,,,,,,,,,,,,,,,,,,,,,,,,,,,,sub-028,1.0,random_dot,59.985267619133744,
right,right,speed,,,,,0.0,1.0,1.0,1.0,4.0,0.0,8.0,1.0,369.1868738999983,,,,,,,,,369.1761881999992,370.38721299999816,371.1893882000004,371.1728369999983,371.1728852999986,371.1893882000004,371.1893882000004,371.1893882000004,,371.8252791999985,left,0.0,50.56391139999687,,,,,,,,,,,,,,,,,,,,,,,,,,,,,,sub-028,1.0,random_dot,59.985267619133744,
left,left,speed,,,,,0.0,1.0,1.0,1.0,4.0,1.0,9.0,0.0,371.83850470000107,,,,,,,,,371.82695070000045,372.6390346000008,373.4455404,373.4350554999983,373.4351070000012,373.4455404,373.4455404,373.4455404,,374.15903329999855,left,1.0,50.64842199999839,,,,,,,,,,,,,,,,,,,,,,,,,,,,,,sub-028,1.0,random_dot,59.985267619133744,
left,left,speed,,,,,0.0,1.0,1.0,1.0,5.0,0.0,10.0,0.0,374.1731335000004,,,,,,,,,374.160284900001,374.52353519999815,375.3255116,375.3079433999992,375.3079675000008,375.3255116,375.3255116,375.3255116,,376.0601983999986,left,1.0,50.66886969999905,,,,,,,,,,,,,,,,,,,,,,,,,,,,,,sub-028,1.0,random_dot,59.985267619133744,
right,right,speed,,,,,0.0,1.0,1.0,1.0,5.0,1.0,11.0,1.0,376.0746801999994,,,,,,,,,376.061136100001,376.8752566000003,377.67714630000046,377.6607464000008,377.6607842000012,377.67714630000046,377.67714630000046,377.67714630000046,,378.2963211999995,right,1.0,50.546155899999576,,,,,,,,,,,,,,,,,,,,,,,,,,,,,,sub-028,1.0,random_dot,59.985267619133744,
left,left,speed,,,,,0.0,1.0,1.0,1.0,6.0,0.0,12.0,0.0,378.3095874999999,,,,,,,,,378.298365300001,379.5103760999991,380.31225450000056,380.29590950000056,380.2959611999977,380.31225450000056,380.31225450000056,380.31225450000056,,381.3148407000008,right,0.0,50.944060900001205,,,,,,,,,,,,,,,,,,,,,,,,,,,,,,sub-028,1.0,random_dot,59.985267619133744,
right,right,speed,,,,,0.0,1.0,1.0,1.0,6.0,1.0,13.0,1.0,381.3217317999988,,,,,,,,,381.3167814000008,382.12893619999886,382.9312047999993,382.91389269999854,382.91392079999787,382.9312047999993,382.9312047999993,382.9312047999993,,383.9670421999981,right,1.0,50.97199439999895,,,,,,,,,,,,,,,,,,,,,,,,,,,,,,sub-028,1.0,random_dot,59.985267619133744,
right,right,speed,,,,,0.0,1.0,1.0,1.0,7.0,0.0,14.0,1.0,383.98037199999817,,,,,,,,,383.9690749000001,385.1809420999998,385.9832782999984,385.96624040000097,385.9662762000007,385.9832782999984,385.9832782999984,385.9832782999984,,387.1229540999993,left,0.0,51.080612999998266,,,,,,,,,,,,,,,,,,,,,,,,,,,,,,sub-028,1.0,random_dot,59.985267619133744,
left,left,speed,,,,,0.0,1.0,1.0,1.0,7.0,1.0,15.0,0.0,387.1317100999986,,,,,,,,,387.1258579999994,387.9329117999987,388.7349090999997,388.71911399999954,388.71916249999776,388.7349090999997,388.7349090999997,388.7349090999997,,389.3973631000008,left,1.0,50.59923630000048,,,,,,,,,,,,,,,,,,,,,,,,,,,,,,sub-028,1.0,random_dot,59.985267619133744,
right,right,speed,,,,,0.0,1.0,1.0,1.0,8.0,0.0,16.0,1.0,389.4031231000008,,,,,,,,,389.399013899998,390.20135970000047,391.0031510000008,390.98668779999934,390.9867247000002,391.0031510000008,391.0031510000008,391.0031510000008,,391.622350900001,left,0.0,50.560213299999305,,,,,,,,,,,,,,,,,,,,,,,,,,,,,,sub-028,1.0,random_dot,59.985267619133744,
left,left,speed,,,,,0.0,1.0,1.0,1.0,8.0,1.0,17.0,0.0,391.6355259999982,,,,,,,,,391.6246730999992,392.8364806999998,393.6384925999992,393.6218136999996,393.62185789999785,393.6384925999992,393.6384925999992,393.6384925999992,,394.69110329999967,right,0.0,50.9851161000006,,,,,,,,,,,,,,,,,,,,,,,,,,,,,,sub-028,1.0,random_dot,59.985267619133744,
right,right,speed,,,,,0.0,1.0,1.0,1.0,9.0,0.0,18.0,1.0,394.7047203000002,,,,,,,,,394.6933170000011,395.9052612999985,396.7070768999984,396.6905126999991,396.6905570999989,396.7070768999984,396.7070768999984,396.7070768999984,,397.4433563999992,left,0.0,50.676759399997536,,,,,,,,,,,,,,,,,,,,,,,,,,,,,,sub-028,1.0,random_dot,59.985267619133744,
left,left,speed,,,,,0.0,1.0,1.0,1.0,9.0,1.0,19.0,0.0,397.4562388999984,,,,,,,,,397.4456281999992,398.2568203999981,399.0587168999991,399.0422323999992,399.0422747999983,399.0587168999991,399.0587168999991,399.0587168999991,,399.9448536999989,left,1.0,50.81457699999737,,,,,,,,,,,,,,,,,,,,,,,,,,,,,,sub-028,1.0,random_dot,59.985267619133744,
right,right,speed,,,,,0.0,1.0,1.0,1.0,10.0,0.0,20.0,1.0,399.95816019999984,,,,,,,,,399.9468487000013,400.7582962999986,401.56070510000063,401.5437710999977,401.543804500001,401.56070510000063,401.56070510000063,401.56070510000063,,402.4799423000004,left,0.0,50.85260689999996,,,,,,,,,,,,,,,,,,,,,,,,,,,,,,sub-028,1.0,random_dot,59.985267619133744,
left,left,speed,,,,,0.0,1.0,1.0,1.0,10.0,1.0,21.0,0.0,402.4928867999988,,,,,,,,,402.4819399000007,402.8569973999984,403.6621237,403.6455212000001,403.6455615999985,403.6621237,403.6621237,403.6621237,,404.6313946000009,left,1.0,50.90141139999832,,,,,,,,,,,,,,,,,,,,,,,,,,,,,,sub-028,1.0,random_dot,59.985267619133744,
left,left,speed,,,,,0.0,1.0,1.0,1.0,11.0,0.0,22.0,0.0,404.6446259000004,,,,,,,,,404.63322119999793,404.74461900000097,405.54668540000057,405.52963979999913,405.5296844000004,405.54668540000057,405.54668540000057,405.54668540000057,,408.3683595000002,left,1.0,52.7566611000002,,,,,,,,,,,,,,,,,,,,,,,,,,,,,,sub-028,1.0,random_dot,59.985267619133744,
right,right,speed,,,,,0.0,1.0,1.0,1.0,11.0,1.0,23.0,1.0,408.3804858000003,,,,,,,,,408.3701653999997,408.7306969999991,409.5327294999988,409.5157775000007,409.5158211999988,409.5327294999988,409.5327294999988,409.5327294999988,,410.431190700001,left,0.0,50.83922349999921,,,,,,,,,,,,,,,,,,,,,,,,,,,,,,sub-028,1.0,random_dot,59.985267619133744,
left,left,speed,,,,,0.0,1.0,1.0,1.0,12.0,0.0,24.0,0.0,410.4402002999996,,,,,,,,,410.4342827,410.5486191999989,411.3507499000007,411.3335726000005,411.3336277999988,411.3507499000007,411.3507499000007,411.3507499000007,,412.82006360000014,left,1.0,51.40348530000119,,,,,,,,,,,,,,,,,,,,,,,,,,,,,,sub-028,1.0,random_dot,59.985267619133744,
right,right,speed,,,,,0.0,1.0,1.0,1.0,12.0,1.0,25.0,1.0,412.8335287000009,,,,,,,,,412.8219299999983,413.6341709000008,414.43620329999976,414.4193023000007,414.41934179999953,414.43620329999976,414.43620329999976,414.43620329999976,,415.22451269999874,left,0.0,50.72840469999937,,,,,,,,,,,,,,,,,,,,,,,,,,,,,,sub-028,1.0,random_dot,59.985267619133744,
left,left,speed,,,,,0.0,1.0,1.0,1.0,13.0,0.0,26.0,0.0,415.2353933999984,,,,,,,,,415.2277166999993,416.4360697999982,417.2381924000001,417.2211840999989,417.22122359999776,417.2381924000001,417.2381924000001,417.2381924000001,,418.0236389999991,left,1.0,50.71609949999765,,,,,,,,,,,,,,,,,,,,,,,,,,,,,,sub-028,1.0,random_dot,59.985267619133744,
right,right,speed,,,,,0.0,1.0,1.0,1.0,13.0,1.0,27.0,1.0,418.0374179999999,,,,,,,,,418.0253097999994,418.1371665000006,418.9391839999989,418.9223822999993,418.9224248999999,418.9391839999989,418.9391839999989,418.9391839999989,,420.04307530000005,left,0.0,51.04432350000207,,,,,,,,,,,,,,,,,,,,,,,,,,,,,,sub-028,1.0,random_dot,59.985267619133744,
left,left,speed,,,,,0.0,1.0,1.0,1.0,14.0,0.0,28.0,0.0,420.0554296000009,,,,,,,,,420.0462590999996,420.8559064000001,421.6580375000012,421.6410322999982,421.64108529999794,421.6580375000012,421.6580375000012,421.6580375000012,,422.69448740000007,left,1.0,50.97558239999853,,,,,,,,,,,,,,,,,,,,,,,,,,,,,,sub-028,1.0,random_dot,59.985267619133744,
right,right,speed,,,,,0.0,1.0,1.0,1.0,14.0,1.0,29.0,1.0,422.7075705999996,,,,,,,,,422.6965500999977,423.50776419999966,424.30975639999815,424.2927813999995,424.2928199999988,424.30975639999815,424.30975639999815,424.30975639999815,,426.0127767999984,left,0.0,51.63459049999801,,,,,,,,,,,,,,,,,,,,,,,,,,,,,,sub-028,1.0,random_dot,59.985267619133744,
left,left,speed,,,,,0.0,1.0,1.0,1.0,15.0,0.0,30.0,0.0,426.02614769999855,,,,,,,,,426.0146820000009,427.226740099999,428.0473659999989,428.0367540999978,428.0368052999984,428.0473659999989,428.0473659999989,428.0473659999989,,428.7652467000007,left,1.0,50.64633589999721,,,,,,,,,,,,,,,,,,,,,,,,,,,,,,sub-028,1.0,random_dot,59.985267619133744,
right,right,speed,,,,,0.0,1.0,1.0,1.0,15.0,1.0,31.0,1.0,428.7779601000002,,,,,,,,,428.7672749999984,428.8781210999987,429.6801871999997,429.6634014999981,429.6634550999988,429.6801871999997,429.6801871999997,429.6801871999997,,430.5321594999986,left,0.0,50.78425509999943,,,,,,,,,,,,,,,,,,,,,,,,,,,,,,sub-028,1.0,random_dot,59.985267619133744,
right,right,speed,,,,,0.0,1.0,1.0,1.0,16.0,0.0,32.0,1.0,430.5458760000001,,,,,,,,,430.5334221000012,431.7465687000004,432.5486754000012,432.5322309000003,432.53226949999953,432.5486754000012,432.5486754000012,432.5486754000012,,434.2519331000003,left,0.0,51.63556020000033,,,,,,,,,,,,,,,,,,,,,,,,,,,,,,sub-028,1.0,random_dot,59.985267619133744,
left,left,speed,,,,,0.0,1.0,1.0,1.0,16.0,1.0,33.0,0.0,434.265084300001,,,,,,,,,434.2537023000005,435.0658436000013,435.8677009999992,435.8509817000013,435.8510255000001,435.8677009999992,435.8677009999992,435.8677009999992,,437.3901396000001,left,1.0,51.457359399999405,,,,,,,,,,,,,,,,,,,,,,,,,,,,,,sub-028,1.0,random_dot,59.985267619133744,
left,left,speed,,,,,0.0,1.0,1.0,1.0,17.0,0.0,34.0,0.0,437.4007968000005,,,,,,,,,437.39216269999815,437.75077469999815,438.5526562999985,438.5391931000013,438.539235799999,438.5526562999985,438.5526562999985,438.5526562999985,,440.32287749999887,left,1.0,51.71150580000176,,,,,,,,,,,,,,,,,,,,,,,,,,,,,,sub-028,1.0,random_dot,59.985267619133744,
right,right,speed,,,,,0.0,1.0,1.0,1.0,17.0,1.0,35.0,1.0,440.3362259999994,,,,,,,,,440.3253334000001,441.5367951000008,442.3386716999994,442.32187169999816,442.3219123999989,442.3386716999994,442.3386716999994,442.3386716999994,,443.2083230999997,left,0.0,50.80563759999859,,,,,,,,,,,,,,,,,,,,,,,,,,,,,,sub-028,1.0,random_dot,59.985267619133744,
left,left,speed,,,,,0.0,1.0,1.0,1.0,18.0,0.0,36.0,0.0,443.2150170999994,,,,,,,,,443.2102780999994,444.0221218000006,444.8242214999991,444.8072033999997,444.8072573999998,444.8242214999991,444.8242214999991,444.8242214999991,,445.66669679999904,left,1.0,50.78393549999964,,,,,,,,,,,,,,,,,,,,,,,,,,,,,,sub-028,1.0,random_dot,59.985267619133744,
right,right,speed,,,,,0.0,1.0,1.0,1.0,18.0,1.0,37.0,1.0,445.67531400000007,,,,,,,,,445.669056499999,445.7856434999994,446.5917165999999,446.57522679999965,446.5752609999981,446.5917165999999,446.5917165999999,446.5917165999999,,448.17830179999874,left,0.0,51.52350210000077,,,,,,,,,,,,,,,,,,,,,,,,,,,,,,sub-028,1.0,random_dot,59.985267619133744,
right,right,speed,,,,,0.0,1.0,1.0,1.0,19.0,0.0,38.0,1.0,448.1913553999984,,,,,,,,,448.1803474000008,448.29151999999885,449.0933937000009,449.0766117999992,449.0766517000011,449.0933937000009,449.0933937000009,449.0933937000009,,451.0134347999992,left,0.0,51.8605327999976,,,,,,,,,,,,,,,,,,,,,,,,,,,,,,sub-028,1.0,random_dot,59.985267619133744,
left,left,speed,,,,,0.0,1.0,1.0,1.0,19.0,1.0,39.0,0.0,451.0267200999988,,,,,,,,,451.0162268999993,451.3770005999977,452.17875640000057,452.16254240000126,452.1625915000004,452.17875640000057,452.17875640000057,452.17875640000057,,453.3488307000007,left,1.0,51.1058916999973,,,,,,,,,,,,,,,,,,,,,,,,,,,,,,sub-028,1.0,random_dot,59.985267619133744,
right,right,speed,,,,,0.0,1.0,1.0,1.0,20.0,0.0,40.0,1.0,453.3621000999992,,,,,,,,,453.3508753999995,454.1622485999978,454.9843230000006,454.97332860000097,454.9733754000008,454.9843230000006,454.9843230000006,454.9843230000006,,456.4845163999999,left,0.0,51.439904200000456,,,,,,,,,,,,,,,,,,,,,,,,,,,,,,sub-028,1.0,random_dot,59.985267619133744,
left,left,speed,,,,,0.0,1.0,1.0,1.0,20.0,1.0,41.0,0.0,456.4971326999985,,,,,,,,,456.4865213000012,456.597327200001,457.3991538000009,457.38309970000046,457.3831395999987,457.3991538000009,457.3991538000009,457.3991538000009,,458.7356228999997,left,1.0,51.27479220000168,,,,,,,,,,,,,,,,,,,,,,,,,,,,,,sub-028,1.0,random_dot,59.985267619133744,
right,right,speed,,,,,0.0,1.0,1.0,1.0,21.0,0.0,42.0,1.0,458.7486796999983,,,,,,,,,458.7378714999977,459.9495010999999,460.75169480000113,460.7350207999989,460.7350742999988,460.75169480000113,460.75169480000113,460.75169480000113,,462.0546045999981,right,1.0,51.23213469999973,,,,,,,,,,,,,,,,,,,,,,,,,,,,,,sub-028,1.0,random_dot,59.985267619133744,
left,left,speed,,,,,0.0,1.0,1.0,1.0,21.0,1.0,43.0,0.0,462.06761069999993,,,,,,,,,462.05669080000007,462.41801829999895,463.2201703999999,463.2032158000002,463.2032561999986,463.2201703999999,463.2201703999999,463.2201703999999,,464.7066644000006,right,0.0,51.41416730000128,,,,,,,,,,,,,,,,,,,,,,,,,,,,,,sub-028,1.0,random_dot,59.985267619133744,
left,left,speed,,,,,0.0,1.0,1.0,1.0,22.0,0.0,44.0,0.0,464.7199553999999,,,,,,,,,464.7084160999984,465.5654016999979,466.37209040000016,466.3552565999999,466.3552961999994,466.37209040000016,466.37209040000016,466.37209040000016,,467.5585914000003,left,1.0,51.12240559999918,,,,,,,,,,,,,,,,,,,,,,,,,,,,,,sub-028,1.0,random_dot,59.985267619133744,
right,right,speed,,,,,0.0,1.0,1.0,1.0,22.0,1.0,45.0,1.0,467.5714249000012,,,,,,,,,467.56085600000006,467.6716235999993,468.4736186000009,468.4571276999996,468.4571795999982,468.4736186000009,468.4736186000009,468.4736186000009,,470.07686749999993,left,0.0,51.531313699997554,,,,,,,,,,,,,,,,,,,,,,,,,,,,,,sub-028,1.0,random_dot,59.985267619133744,
left,left,speed,,,,,0.0,1.0,1.0,1.0,23.0,0.0,46.0,0.0,470.0899280000013,,,,,,,,,470.07959610000034,470.4403163999996,471.2421032999992,471.2254623999979,471.2255089999999,471.2421032999992,471.2421032999992,471.2421032999992,,473.5460096999996,left,1.0,52.23189569999886,,,,,,,,,,,,,,,,,,,,,,,,,,,,,,sub-028,1.0,random_dot,59.985267619133744,
right,right,speed,,,,,0.0,1.0,1.0,1.0,23.0,1.0,47.0,1.0,473.5588298000002,,,,,,,,,473.54817009999897,473.9094714999992,474.71141949999947,474.6950699000008,474.6951119000005,474.71141949999947,474.71141949999947,474.71141949999947,,475.9473663999997,right,1.0,51.162750999996206,,,,,,,,,,,,,,,,,,,,,,,,,,,,,,sub-028,1.0,random_dot,59.985267619133744,
right,right,speed,,,,,0.0,1.0,1.0,1.0,24.0,0.0,48.0,1.0,475.96086920000016,,,,,,,,,475.9498624000007,477.1616099999992,477.96365890000015,477.9471984999982,477.9472509000007,477.96365890000015,477.96365890000015,477.96365890000015,,478.91658280000047,right,1.0,50.89058329999898,,,,,,,,,,,,,,,,,,,,,,,,,,,,,,sub-028,1.0,random_dot,59.985267619133744,
left,left,speed,,,,,0.0,1.0,1.0,1.0,24.0,1.0,49.0,0.0,478.929278399999,,,,,,,,,478.9196726999981,479.279696499998,480.0817754999989,480.0679725000009,480.0680289999982,480.0817754999989,480.0817754999989,480.0817754999989,,482.6223960999996,right,0.0,52.4820856999977,,,,,,,,,,,,,,,,,,,,,,,,,,,,,,sub-028,1.0,random_dot,59.985267619133744,
right,right,speed,,,,,0.0,1.0,1.0,1.0,25.0,0.0,50.0,1.0,482.6296841000003,,,,,,,,,482.6244205000002,483.8328865000003,484.6349768,484.6192961999986,484.6193447000005,484.6349768,484.6349768,484.6349768,,485.9044643999987,left,0.0,51.19913539999834,,,,,,,,,,,,,,,,,,,,,,,,,,,,,,sub-028,1.0,random_dot,59.985267619133744,
left,left,speed,,,,,0.0,1.0,1.0,1.0,25.0,1.0,51.0,0.0,485.9177560999997,,,,,,,,,485.9069406999988,486.2678859000007,487.06981169999926,487.05313269999897,487.0531721000007,487.06981169999926,487.06981169999926,487.06981169999926,,489.1910394000006,right,0.0,52.05932489999759,,,,,,,,,,,,,,,,,,,,,,,,,,,,,,sub-028,1.0,random_dot,59.985267619133744,
left,left,speed,,,,,0.0,1.0,1.0,1.0,26.0,0.0,52.0,0.0,489.2032857999984,,,,,,,,,489.1927593,489.9992201999994,490.8055642,490.78910389999874,490.7891501999984,490.8055642,490.8055642,490.8055642,,492.2430365,right,0.0,51.37873639999816,,,,,,,,,,,,,,,,,,,,,,,,,,,,,,sub-028,1.0,random_dot,59.985267619133744,
right,right,speed,,,,,0.0,1.0,1.0,1.0,26.0,1.0,53.0,1.0,492.2556206000008,,,,,,,,,492.24535599999945,493.069758900001,493.8744785999989,493.8579281999992,493.8579963000011,493.8744785999989,493.8744785999989,493.8744785999989,,495.5614231,right,1.0,51.61970809999912,,,,,,,,,,,,,,,,,,,,,,,,,,,,,,sub-028,1.0,random_dot,59.985267619133744,
right,right,speed,,,,,0.0,1.0,1.0,1.0,27.0,0.0,54.0,1.0,495.57462719999967,,,,,,,,,495.5631910000011,496.3748893000011,497.1768998000007,497.1599870999999,497.1600342999991,497.1768998000007,497.1768998000007,497.1768998000007,,498.5647347000013,right,1.0,51.31738419999601,,,,,,,,,,,,,,,,,,,,,,,,,,,,,,sub-028,1.0,random_dot,59.985267619133744,
left,left,speed,,,,,0.0,1.0,1.0,1.0,27.0,1.0,55.0,0.0,498.5766980999979,,,,,,,,,498.5666439999986,499.3770455999984,500.1790079999992,500.1621840999978,500.1622232000009,500.1790079999992,500.1790079999992,500.1790079999992,,501.86544969999886,left,1.0,51.62523979999969,,,,,,,,,,,,,,,,,,,,,,,,,,,,,,sub-028,1.0,random_dot,59.985267619133744,
right,right,speed,,,,,0.0,1.0,1.0,1.0,28.0,0.0,56.0,1.0,501.878700199999,,,,,,,,,501.8676530999983,501.9787365000011,502.7807811999992,502.76321240000107,502.7632373999986,502.7807811999992,502.7807811999992,502.7807811999992,,505.6016739000006,right,1.0,52.753687600001285,,,,,,,,,,,,,,,,,,,,,,,,,,,,,,sub-028,1.0,random_dot,59.985267619133744,
left,left,speed,,,,,0.0,1.0,1.0,1.0,28.0,1.0,57.0,0.0,505.61473879999903,,,,,,,,,505.6037037999995,506.815673699999,507.6177027000013,507.6009563000007,507.6010060000008,507.6177027000013,507.6177027000013,507.6177027000013,,508.603823999998,left,1.0,50.92644139999902,,,,,,,,,,,,,,,,,,,,,,,,,,,,,,sub-028,1.0,random_dot,59.985267619133744,
left,left,speed,,,,,0.0,1.0,1.0,1.0,29.0,0.0,58.0,0.0,508.6166922000011,,,,,,,,,508.6058716000007,508.71672599999874,509.518742799999,509.50197529999787,509.50201509999897,509.518742799999,509.518742799999,509.518742799999,,511.0041187999996,right,0.0,51.42581919999793,,,,,,,,,,,,,,,,,,,,,,,,,,,,,,sub-028,1.0,random_dot,59.985267619133744,
right,right,speed,,,,,0.0,1.0,1.0,1.0,29.0,1.0,59.0,1.0,511.0182993999988,,,,,,,,,511.00511769999866,511.1185851000009,511.9204045999977,511.9037543999984,511.90380580000055,511.9204045999977,511.9204045999977,511.9204045999977,,513.352233499998,right,1.0,51.373561399999744,,,,,,,,,,,,,,,,,,,,,,,,,,,,,,sub-028,1.0,random_dot,59.985267619133744,
,,speed,,,,,0.0,1.0,1.0,1.0,,,,,,,,,,,,,,,,,,,,,,,,,,,,,,,,,,,,,,,,,,,,,,,,,,,,,,,,sub-028,1.0,random_dot,59.985267619133744,
,,,,,,,,,,,,,,,,,,,,,,,,,,,,,,,,,,,,,,,,,,,,,,,,,,,,,,,,,,,,,,,513.3533150000003,513.3596671999985,518.3572886000002,sub-028,,,,
