direction,corrAns,thisN,thisTrialN,thisRepN,respDots.keys,respDots.corr,respDots.rt,respDots.duration,randomInstr,respRandomInstr.keys,respRandomInstr.rt,respRandomInstr.duration,practice_trials.thisRepN,practice_trials.thisTrialN,practice_trials.thisN,practice_trials.thisIndex,instr_trials.thisRepN,instr_trials.thisTrialN,instr_trials.thisN,instr_trials.thisIndex,test_trials.thisRepN,test_trials.thisTrialN,test_trials.thisN,test_trials.thisIndex,thisRow.t,notes,general_instruction.started,textGeneralInstr.started,respGeneralInstr.started,general_instruction.stopped,respGeneralInstr.keys,respGeneralInstr.rt,respGeneralInstr.duration,ITI.started,fixcross.started,fixcross.stopped,ITI.stopped,dots.started,backgroundDots.started,stimulusDots.started,respDots.started,dots.stopped,practice_trials.respDots.keys,practice_trials.respDots.corr,practice_trials.respDots.rt,practice_trials.respDots.duration,feedback.started,textFeedback.started,feedback.stopped,stimulusDots.stopped,textFeedback.stopped,info.started,textInfo.started,keyRespInfo.started,info.stopped,keyRespInfo.keys,keyRespInfo.rt,keyRespInfo.duration,test_instruction.started,textTestInstr.started,respTestInstr.started,test_instruction.stopped,respTestInstr.keys,respTestInstr.rt,respTestInstr.duration,random_instruction.started,textRandomInstr.started,respRandomInstr.started,random_instruction.stopped,instr_trials.respRandomInstr.keys,instr_trials.respRandomInstr.rt,instr_trials.respRandomInstr.duration,test_trials.respDots.keys,test_trials.respDots.corr,test_trials.respDots.rt,test_trials.respDots.duration,goodbye.started,textGoodbye.started,goodbye.stopped,participant,session,expName,frameRate,Unnamed: 87
,,,,,,,,,,,,,,,,,,,,,,,,,,,0.0141816300165373,0.0357447840215172,0.0357447840215172,40.03753819799749,space,39.82863935898058,,,,,,,,,,,,,,,,,,,,,,,,,,,,,,,,,,,,,,,,,,,,,,,,sub-225,1,random_dot,59.718377690246655,
right,right,0.0,0.0,0.0,left,0.0,3.7508135810203385,,,,,,0.0,0.0,0.0,1.0,,,,,,,,,40.06168586600688,,,,,,,,,40.04924314000528,40.39292473500245,41.1979874940007,41.17676167801256,41.17722267800127,41.1979874940007,41.1979874940007,41.1979874940007,44.96061099300277,left,0.0,3.7508135810203385,,44.96634875101154,45.02674062299775,45.47653697401984,,,,,,,,,,,,,,,,,,,,,,,,,,,,,,,sub-225,1,random_dot,59.718377690246655,
left,left,1.0,1.0,0.0,right,0.0,17.899653193017002,,,,,,0.0,1.0,1.0,0.0,,,,,,,,,45.49305676901713,,,,,,,,,45.47699092200492,46.65954475602484,47.45974451300572,47.44332765199943,47.4437178010121,47.45974451300572,47.45974451300572,47.45974451300572,65.3762752180046,right,0.0,17.899653193017002,,65.37636829400435,65.39228955301223,65.87600075401133,52.44254259302397,65.89248778001638,,,,,,,,,,,,,,,,,,,,,,,,,,,,,sub-225,1,random_dot,59.718377690246655,
right,right,2.0,0.0,1.0,right,1.0,2.0808145710034296,,,,,,1.0,0.0,2.0,1.0,,,,,,,,,65.89248778001638,,,,,,,,,65.87635273000342,65.97561146999942,66.77558882400626,66.75939626301988,66.75985097000375,66.77558882400626,66.77558882400626,66.77558882400626,68.86017785200966,right,1.0,2.0808145710034296,,68.86476517902338,68.87756476301001,69.375485261,,,,,,,,,,,,,,,,,,,,,,,,,,,,,,,sub-225,1,random_dot,59.718377690246655,
left,left,3.0,1.0,1.0,left,1.0,1.763471373997163,,,,,,1.0,1.0,3.0,0.0,,,,,,,,,69.39609988700249,,,,,,,,,69.3757636770024,69.72555781301344,70.525754975999,70.50905362100457,70.50940140101011,70.525754975999,70.525754975999,70.525754975999,72.29363270601607,left,1.0,1.763471373997163,,72.29373660401325,72.30871852301061,72.79268340099952,,72.80896222102456,,,,,,,,,,,,,,,,,,,,,,,,,,,,,sub-225,1,random_dot,59.718377690246655,
right,right,4.0,0.0,2.0,right,1.0,1.777012768026907,,,,,,2.0,0.0,4.0,1.0,,,,,,,,,72.80896222102456,,,,,,,,,72.79305964501691,72.90894292900339,73.70892211401951,73.69258876799722,73.69293215702055,73.70892211401951,73.70892211401951,73.70892211401951,75.49336963801761,right,1.0,1.777012768026907,,75.49346676500863,75.5088375400228,75.99276188699878,,76.00893309700768,,,,,,,,,,,,,,,,,,,,,,,,,,,,,sub-225,1,random_dot,59.718377690246655,
left,left,5.0,1.0,2.0,left,1.0,1.5006013050151523,,,,,,2.0,1.0,5.0,0.0,,,,,,,,,76.00893309700768,,,,,,,,,75.99314588101697,77.20873527400545,78.00886792800156,77.99270745800459,77.99306695599807,78.00886792800156,78.00886792800156,78.00886792800156,79.52608983402024,left,1.0,1.5006013050151523,,79.52618469001027,79.5422991910018,80.0259898720251,,80.04232246300671,,,,,,,,,,,,,,,,,,,,,,,,,,,,,sub-225,1,random_dot,59.718377690246655,
left,left,6.0,0.0,3.0,right,0.0,1.3869843989959918,,,,,,3.0,0.0,6.0,0.0,,,,,,,,,80.04232246300671,,,,,,,,,80.02638485899661,80.37566977902316,81.17539579799632,81.1592685970245,81.15971428601188,81.17539579799632,81.17539579799632,81.17539579799632,82.57613553700503,right,0.0,1.3869843989959918,,82.57833471600316,82.592208579008,83.07576438502292,,83.09221594000701,,,,,,,,,,,,,,,,,,,,,,,,,,,,,sub-225,1,random_dot,59.718377690246655,
right,right,7.0,1.0,3.0,left,0.0,2.8329884350241628,,,,,,3.0,1.0,7.0,1.0,,,,,,,,,83.09221594000701,,,,,,,,,83.07616212201538,84.27561849201447,85.07556359699811,85.05921044701245,85.05965251900489,85.07556359699811,85.07556359699811,85.07556359699811,87.90992740599904,left,0.0,2.8329884350241628,,87.91005996800959,87.9252943820029,88.40920106502017,,88.42550768502406,,,,,,,,,,,,,,,,,,,,,,,,,,,,,sub-225,1,random_dot,59.718377690246655,
left,left,8.0,0.0,4.0,left,1.0,1.7662218479963483,,,,,,4.0,0.0,8.0,0.0,,,,,,,,,88.42550768502406,,,,,,,,,88.4095922250126,89.62550184302381,90.42547096300405,90.4091019309999,90.40954310001688,90.42547096300405,90.42547096300405,90.42547096300405,92.19312245902256,left,1.0,1.7662218479963483,,92.19611915599673,92.20921891700708,92.692540278018,,92.70870207902044,,,,,,,,,,,,,,,,,,,,,,,,,,,,,sub-225,1,random_dot,59.718377690246655,
right,right,9.0,1.0,4.0,right,1.0,2.771185254008742,,,,,,4.0,1.0,9.0,1.0,,,,,,,,,92.70870207902044,,,,,,,,,92.69291922301636,93.5087641570135,94.3087435369962,94.29248588101473,94.29292422599974,94.3087435369962,94.3087435369962,94.3087435369962,97.09253425901989,right,1.0,2.771185254008742,,97.09262699302052,97.1086305040226,97.59243332900223,,97.60874425299698,,,,,,,,,,,,,,,,,,,,,,,,,,,,,sub-225,1,random_dot,59.718377690246655,
right,right,10.0,0.0,5.0,left,0.0,2.626130378019297,,,,,,5.0,0.0,10.0,1.0,,,,,,,,,97.60874425299698,,,,,,,,,97.5928197100002,97.6920577190176,98.49209848302417,98.47561821099951,98.476058440021,98.49209848302417,98.49209848302417,98.49209848302417,101.12697781101453,left,0.0,2.626130378019297,,101.12964966500294,101.143225754,101.64227672701236,,,,,,,,,,,,,,,,,,,,,,,,,,,,,,,sub-225,1,random_dot,59.718377690246655,
left,left,11.0,1.0,5.0,right,0.0,1.389263826975366,,,,,,5.0,1.0,11.0,0.0,,,,,,,,,101.65877422702032,,,,,,,,,101.64271834099782,102.44201958100894,103.2418892950227,103.22564727501594,103.2261089149979,103.2418892950227,103.2418892950227,103.2418892950227,104.64329952700064,right,0.0,1.389263826975366,,104.6434082390042,104.65858826300246,105.1423460750084,,105.15863104900929,,,,,,,,,,,,,,,,,,,,,,,,,,,,,sub-225,1,random_dot,59.718377690246655,
right,right,12.0,0.0,6.0,right,1.0,3.0901971650018822,,,,,,6.0,0.0,12.0,1.0,,,,,,,,,105.15863104900929,,,,,,,,,105.14267709100386,106.35844528902088,107.15886799700093,107.14222821700967,107.14261152400286,107.15886799700093,107.15886799700093,107.15886799700093,110.259767156007,right,1.0,3.0901971650018822,,110.26193533602054,110.27554921500268,110.76030189101584,,,,,,,,,,,,,,,,,,,,,,,,,,,,,,,sub-225,1,random_dot,59.718377690246655,
left,left,13.0,1.0,6.0,right,0.0,2.3197223389870487,,,,,,6.0,1.0,13.0,0.0,,,,,,,,,110.77631536702393,,,,,,,,,110.76065753700097,111.12543237200587,111.92524808002054,111.90892978399644,111.90938248400926,111.92524808002054,111.92524808002054,111.92524808002054,114.25915857800284,right,0.0,2.3197223389870487,,114.2614118110214,114.2753752389981,114.75876602501376,,114.775236675021,,,,,,,,,,,,,,,,,,,,,,,,,,,,,sub-225,1,random_dot,59.718377690246655,
left,left,14.0,0.0,7.0,left,1.0,1.770159697975032,,,,,,7.0,0.0,14.0,0.0,,,,,,,,,114.775236675021,,,,,,,,,114.75906350600415,115.55854861802072,116.35870308501762,116.34222851099912,116.34268943601636,116.35870308501762,116.35870308501762,116.35870308501762,118.14313518902054,left,1.0,1.770159697975032,,118.14563044300304,118.1590626820107,118.6422593400057,,118.65860162000172,,,,,,,,,,,,,,,,,,,,,,,,,,,,,sub-225,1,random_dot,59.718377690246655,
right,right,15.0,1.0,7.0,right,1.0,3.7584720060112886,,,,,,7.0,1.0,15.0,1.0,,,,,,,,,118.65860162000172,,,,,,,,,118.64251787800458,119.45848187600495,120.25856008799748,120.24232162200497,120.242778232001,120.25856008799748,120.25856008799748,120.25856008799748,124.02621349800027,right,1.0,3.7584720060112886,,124.02630045701515,124.04177924699616,124.52565161301754,,124.5419927300245,,,,,,,,,,,,,,,,,,,,,,,,,,,,,sub-225,1,random_dot,59.718377690246655,
right,right,16.0,0.0,8.0,left,0.0,4.805299226019997,,,,,,8.0,0.0,16.0,1.0,,,,,,,,,124.5419927300245,,,,,,,,,124.52606186299818,124.62537176400656,125.42521437400136,125.40896706900094,125.4094095310138,125.42521437400136,125.42521437400136,125.42521437400136,130.24309948601876,left,0.0,4.805299226019997,,130.24549328902503,130.26048096700106,130.7586948920216,,,,,,,,,,,,,,,,,,,,,,,,,,,,,,,sub-225,1,random_dot,59.718377690246655,
left,left,17.0,1.0,8.0,left,1.0,1.0155162689916324,,,,,,8.0,1.0,17.0,0.0,,,,,,,,,130.77519207101432,,,,,,,,,130.75901478002197,130.85863658000017,131.65861122100614,131.6420960680116,131.64244031001,131.65861122100614,131.65861122100614,131.65861122100614,132.67675837900606,left,1.0,1.0155162689916324,,132.67956062601297,132.6930868170166,133.1920001170074,,,,,,,,,,,,,,,,,,,,,,,,,,,,,,,sub-225,1,random_dot,59.718377690246655,
left,left,18.0,0.0,9.0,left,1.0,1.779262950993143,,,,,,9.0,0.0,18.0,0.0,,,,,,,,,133.20861913901172,,,,,,,,,133.1924679260119,134.39186445600353,135.19179154900485,135.17545227400842,135.17579148500226,135.19179154900485,135.19179154900485,135.19179154900485,136.97640121501172,left,1.0,1.779262950993143,,136.97653645600076,136.9916154210223,137.475161690003,,137.49185132200364,,,,,,,,,,,,,,,,,,,,,,,,,,,,,sub-225,1,random_dot,59.718377690246655,
right,right,19.0,1.0,9.0,right,1.0,1.0514814280031717,,,,,,9.0,1.0,19.0,1.0,,,,,,,,,137.49185132200364,,,,,,,,,137.47545373500907,137.84179552801652,138.6418002450082,138.6253140050103,138.62575732101686,138.6418002450082,138.6418002450082,138.6418002450082,139.70952950802166,right,1.0,1.0514814280031717,,139.70961897500092,139.72495651300414,140.20873781401315,,140.22508211102104,,,,,,,,,,,,,,,,,,,,,,,,,,,,,sub-225,1,random_dot,59.718377690246655,
,,,,,,,,,,,,,,,,,,,,,,,,,,,,,,,,,,,,,,,,,,,,,,,,,,,,140.2088959730172,140.22508211102104,140.22508211102104,172.3259086680191,space,32.09664927600534,,,,,,,,,,,,,,,,,,,,,,,sub-225,1,random_dot,59.718377690246655,
,,,,,,,,,,,,,,,,,,,,,,,,,,,,,,,,,,,,,,,,,,,,,,,,,,,,,,,,,,,172.32600287901005,172.34139265099657,172.34139265099657,180.9249558870215,space,8.57307788199978,,,,,,,,,,,,,,,,sub-225,1,random_dot,59.718377690246655,
right,right,0.0,0.0,0.0,left,0.0,2.3125204970128834,,accuracy,space,12.330508668994298,,,,,,0.0,0.0,0.0,0.0,0.0,0.0,0.0,1.0,193.3115854439966,,,,,,,,,193.30042920200503,193.40701277501648,194.2074179650226,194.19115628799773,194.1916101310053,194.2074179650226,194.2074179650226,194.2074179650226,196.525230461004,,,,,,,,,,,,,,,,,,,,,,,,180.9452407130157,180.9563177910168,180.9563177910168,193.29248794700837,space,12.330508668994298,,left,0.0,2.3125204970128834,,,,,sub-225,1,random_dot,59.718377690246655,
left,left,1.0,1.0,0.0,right,0.0,2.512884268013295,,accuracy,space,12.330508668994298,,,,,,0.0,0.0,0.0,0.0,0.0,1.0,1.0,0.0,196.5407692110166,,,,,,,,,196.5256852699968,196.8739062579989,197.67395055101952,197.6575430840021,197.6578825400211,197.67395055101952,197.67395055101952,197.67395055101952,200.19210796200787,,,,,,,,,,,,,,,,,,,,,,,,,,,,,,,right,0.0,2.512884268013295,,,,,sub-225,1,random_dot,59.718377690246655,
right,right,2.0,0.0,1.0,left,0.0,2.637950619013281,,accuracy,space,12.330508668994298,,,,,,0.0,0.0,0.0,0.0,1.0,0.0,2.0,1.0,200.2077164229995,,,,,,,,,200.1924172550207,201.40722027502488,202.2074535950087,202.1908223880164,202.1912602860248,202.2074535950087,202.2074535950087,202.2074535950087,204.85802083500312,,,,,,,,,,,,,,,,,,,,,,,,,,,,,,,left,0.0,2.637950619013281,,,,,sub-225,1,random_dot,59.718377690246655,
left,left,3.0,1.0,1.0,left,1.0,3.233651196002029,,accuracy,space,12.330508668994298,,,,,,0.0,0.0,0.0,0.0,1.0,1.0,3.0,0.0,204.87384123000083,,,,,,,,,204.8583432760206,205.6571538230055,206.45715964899864,206.44077412600743,206.44120744001705,206.45715964899864,206.45715964899864,206.45715964899864,209.70794545899844,,,,,,,,,,,,,,,,,,,,,,,,,,,,,,,left,1.0,3.233651196002029,,,,,sub-225,1,random_dot,59.718377690246655,
right,right,4.0,0.0,2.0,right,1.0,3.823820513993269,,accuracy,space,12.330508668994298,,,,,,0.0,0.0,0.0,0.0,2.0,0.0,4.0,1.0,209.72380929402425,,,,,,,,,209.708327905013,210.90719717100728,211.7073448120209,211.6909392219968,211.69139153099968,211.7073448120209,211.7073448120209,211.7073448120209,215.541360585019,,,,,,,,,,,,,,,,,,,,,,,,,,,,,,,right,1.0,3.823820513993269,,,,,sub-225,1,random_dot,59.718377690246655,
left,left,5.0,1.0,2.0,left,1.0,1.5099797250004483,,accuracy,space,12.330508668994298,,,,,,0.0,0.0,0.0,0.0,2.0,1.0,5.0,0.0,215.55699826101767,,,,,,,,,215.54166057900875,215.8903389290208,216.69058730700635,216.6741153470066,216.67455065101967,216.69058730700635,216.69058730700635,216.69058730700635,218.20860116102267,,,,,,,,,,,,,,,,,,,,,,,,,,,,,,,left,1.0,1.5099797250004483,,,,,sub-225,1,random_dot,59.718377690246655,
left,left,6.0,0.0,3.0,left,1.0,2.7721365359902848,,accuracy,space,12.330508668994298,,,,,,0.0,0.0,0.0,0.0,3.0,0.0,6.0,0.0,218.2236508150236,,,,,,,,,218.20890518999656,218.3237051629985,219.1237885710143,219.1074726790248,219.107924638025,219.1237885710143,219.1237885710143,219.1237885710143,221.90830349799944,,,,,,,,,,,,,,,,,,,,,,,,,,,,,,,left,1.0,2.7721365359902848,,,,,sub-225,1,random_dot,59.718377690246655,
right,right,7.0,1.0,3.0,right,1.0,4.32404982400476,,accuracy,space,12.330508668994298,,,,,,0.0,0.0,0.0,0.0,3.0,1.0,7.0,1.0,221.92360135601484,,,,,,,,,221.90861427100023,223.12346667601375,223.92371240400823,223.9073790620023,223.9078304300201,223.92371240400823,223.92371240400823,223.92371240400823,228.2579257150064,,,,,,,,,,,,,,,,,,,,,,,,,,,,,,,right,1.0,4.32404982400476,,,,,sub-225,1,random_dot,59.718377690246655,
left,left,8.0,0.0,4.0,left,1.0,2.1401007090171333,,accuracy,space,12.330508668994298,,,,,,0.0,0.0,0.0,0.0,4.0,0.0,8.0,0.0,228.27359122800408,,,,,,,,,228.25822404402425,228.35705140102075,229.1571273440204,229.14072633101023,229.14107132100617,229.1571273440204,229.1571273440204,229.1571273440204,231.30778653299785,,,,,,,,,,,,,,,,,,,,,,,,,,,,,,,left,1.0,2.1401007090171333,,,,,sub-225,1,random_dot,59.718377690246655,
right,right,9.0,1.0,4.0,right,1.0,4.126356935012154,,accuracy,space,12.330508668994298,,,,,,0.0,0.0,0.0,0.0,4.0,1.0,9.0,1.0,231.323475525016,,,,,,,,,231.3080943990208,232.50711736900848,233.30695200301125,233.2906933230115,233.2910648760153,233.30695200301125,233.30695200301125,233.30695200301125,237.4418795100064,,,,,,,,,,,,,,,,,,,,,,,,,,,,,,,right,1.0,4.126356935012154,,,,,sub-225,1,random_dot,59.718377690246655,
right,right,10.0,0.0,5.0,right,1.0,8.375680706987623,,accuracy,space,12.330508668994298,,,,,,0.0,0.0,0.0,0.0,5.0,0.0,10.0,1.0,237.4569078880013,,,,,,,,,237.442349910998,238.6569542690122,239.4566616880184,239.44063308500336,239.44103172101316,239.4566616880184,239.4566616880184,239.4566616880184,247.84130841199655,,,,,,,,244.43975736299765,,,,,,,,,,,,,,,,,,,,,,,right,1.0,8.375680706987623,,,,,sub-225,1,random_dot,59.718377690246655,
left,left,11.0,1.0,5.0,left,1.0,2.793283407983836,,accuracy,space,12.330508668994298,,,,,,0.0,0.0,0.0,0.0,5.0,1.0,11.0,0.0,247.85649258401827,,,,,,,,,247.8417785950005,248.20656970702112,249.00643885400493,248.9900211400236,248.9904096969985,249.00643885400493,249.00643885400493,249.00643885400493,251.80802182501063,,,,,,,,,,,,,,,,,,,,,,,,,,,,,,,left,1.0,2.793283407983836,,,,,sub-225,1,random_dot,59.718377690246655,
left,left,12.0,0.0,6.0,right,0.0,1.4448004440055229,,accuracy,space,12.330508668994298,,,,,,0.0,0.0,0.0,0.0,6.0,0.0,12.0,0.0,251.82268730801297,,,,,,,,,251.80846623302205,251.9229714210087,252.7230428740149,252.70665461500172,252.70708567200927,252.7230428740149,252.7230428740149,252.7230428740149,254.17423468301425,,,,,,,,,,,,,,,,,,,,,,,,,,,,,,,right,0.0,1.4448004440055229,,,,,sub-225,1,random_dot,59.718377690246655,
right,right,13.0,1.0,6.0,left,0.0,2.5248472149833106,,accuracy,space,12.330508668994298,,,,,,0.0,0.0,0.0,0.0,6.0,1.0,13.0,1.0,254.18990913999733,,,,,,,,,254.17468230900704,255.3914613710076,256.20612773200264,256.1896394180076,256.1899553340045,256.20612773200264,256.20612773200264,256.20612773200264,258.7406847740058,,,,,,,,,,,,,,,,,,,,,,,,,,,,,,,left,0.0,2.5248472149833106,,,,,sub-225,1,random_dot,59.718377690246655,
left,left,14.0,0.0,7.0,left,1.0,2.973307878972264,,accuracy,space,12.330508668994298,,,,,,0.0,0.0,0.0,0.0,7.0,0.0,14.0,0.0,258.756044978014,,,,,,,,,258.7409988020081,259.55619060099707,260.35617844600347,260.3397276570031,260.3401271920011,260.35617844600347,260.35617844600347,260.35617844600347,263.34057537899935,,,,,,,,,,,,,,,,,,,,,,,,,,,,,,,left,1.0,2.973307878972264,,,,,sub-225,1,random_dot,59.718377690246655,
right,right,15.0,1.0,7.0,right,1.0,1.05925022700103,,accuracy,space,12.330508668994298,,,,,,0.0,0.0,0.0,0.0,7.0,1.0,15.0,1.0,263.35609450301854,,,,,,,,,263.34088869800325,263.4395997380197,264.2397639490082,264.2232928170124,264.2236291010049,264.2397639490082,264.2397639490082,264.2397639490082,265.30739134101896,,,,,,,,,,,,,,,,,,,,,,,,,,,,,,,right,1.0,1.05925022700103,,,,,sub-225,1,random_dot,59.718377690246655,
left,left,16.0,0.0,8.0,left,1.0,4.3002921040169895,,accuracy,space,12.330508668994298,,,,,,0.0,0.0,0.0,0.0,8.0,0.0,16.0,0.0,265.32283506699605,,,,,,,,,265.307692508999,265.6729658730037,266.4729475050117,266.45674771800986,266.4571890399966,266.4729475050117,266.4729475050117,266.4729475050117,270.79029675901984,,,,,,,,,,,,,,,,,,,,,,,,,,,,,,,left,1.0,4.3002921040169895,,,,,sub-225,1,random_dot,59.718377690246655,
right,right,17.0,1.0,8.0,right,1.0,6.055553821002832,,accuracy,space,12.330508668994298,,,,,,0.0,0.0,0.0,0.0,8.0,1.0,17.0,1.0,270.8061126219982,,,,,,,,,270.79061312699923,270.8895971190068,271.689549799019,271.67323944100644,271.6737053910037,271.689549799019,271.689549799019,271.689549799019,277.7571496090095,,,,,,,,276.6728494290146,,,,,,,,,,,,,,,,,,,,,,,right,1.0,6.055553821002832,,,,,sub-225,1,random_dot,59.718377690246655,
right,right,18.0,0.0,9.0,right,1.0,4.722103335021529,,accuracy,space,12.330508668994298,,,,,,0.0,0.0,0.0,0.0,9.0,0.0,18.0,1.0,277.7728230900248,,,,,,,,,277.7574596659979,278.1228345830168,278.9227559720166,278.9064187089971,278.90687353900285,278.9227559720166,278.9227559720166,278.9227559720166,283.6571246700187,,,,,,,,,,,,,,,,,,,,,,,,,,,,,,,right,1.0,4.722103335021529,,,,,sub-225,1,random_dot,59.718377690246655,
left,left,19.0,1.0,9.0,left,1.0,3.371501718997024,,accuracy,space,12.330508668994298,,,,,,0.0,0.0,0.0,0.0,9.0,1.0,19.0,0.0,283.6725591610011,,,,,,,,,283.65743633901,284.00577631400665,284.8058891140099,284.7898026590119,284.79014102902147,284.8058891140099,284.8058891140099,284.8058891140099,288.19030097400537,,,,,,,,,,,,,,,,,,,,,,,,,,,,,,,left,1.0,3.371501718997024,,,,,sub-225,1,random_dot,59.718377690246655,
right,right,20.0,0.0,10.0,right,1.0,3.438142758997856,,accuracy,space,12.330508668994298,,,,,,0.0,0.0,0.0,0.0,10.0,0.0,20.0,1.0,288.20559195501846,,,,,,,,,288.19062791601755,289.40608763700584,290.20609207599773,290.1896683840023,290.1901146880118,290.20609207599773,290.20609207599773,290.20609207599773,293.6566053270071,,,,,,,,,,,,,,,,,,,,,,,,,,,,,,,right,1.0,3.438142758997856,,,,,sub-225,1,random_dot,59.718377690246655,
left,left,21.0,1.0,10.0,left,1.0,2.5764566919824574,,accuracy,space,12.330508668994298,,,,,,0.0,0.0,0.0,0.0,10.0,1.0,21.0,0.0,293.6723428020196,,,,,,,,,293.6569193530013,293.75597046202165,294.555784311,294.5394645810011,294.5397988370096,294.555784311,294.555784311,294.555784311,297.14043371300795,,,,,,,,,,,,,,,,,,,,,,,,,,,,,,,left,1.0,2.5764566919824574,,,,,sub-225,1,random_dot,59.718377690246655,
left,left,22.0,0.0,11.0,left,1.0,3.704226155008655,,accuracy,space,12.330508668994298,,,,,,0.0,0.0,0.0,0.0,11.0,0.0,22.0,0.0,297.1558909760206,,,,,,,,,297.1407626730215,297.25591849701595,298.0560649880208,298.03956101302174,298.03990281402366,298.0560649880208,298.0560649880208,298.0560649880208,301.77393264800776,,,,,,,,,,,,,,,,,,,,,,,,,,,,,,,left,1.0,3.704226155008655,,,,,sub-225,1,random_dot,59.718377690246655,
right,right,23.0,1.0,11.0,right,1.0,1.5559268670040185,,accuracy,space,12.330508668994298,,,,,,0.0,0.0,0.0,0.0,11.0,1.0,23.0,1.0,301.7899254390213,,,,,,,,,301.77511567101465,302.13935336100985,302.9391380190209,302.9228701730026,302.92330789001426,302.9391380190209,302.9391380190209,302.9391380190209,304.5067879180133,,,,,,,,,,,,,,,,,,,,,,,,,,,,,,,right,1.0,1.5559268670040185,,,,,sub-225,1,random_dot,59.718377690246655,
left,left,24.0,0.0,12.0,left,1.0,4.233536034007557,,accuracy,space,12.330508668994298,,,,,,0.0,0.0,0.0,0.0,12.0,0.0,24.0,0.0,304.5220158820157,,,,,,,,,304.5071737940016,304.6225923390012,305.42243987802067,305.40588151902193,305.40630937501555,305.42243987802067,305.42243987802067,305.42243987802067,309.6728218870121,,,,,,,,,,,,,,,,,,,,,,,,,,,,,,,left,1.0,4.233536034007557,,,,,sub-225,1,random_dot,59.718377690246655,
right,right,25.0,1.0,12.0,right,1.0,2.987990230001742,,accuracy,space,12.330508668994298,,,,,,0.0,0.0,0.0,0.0,12.0,1.0,25.0,1.0,309.68896720401244,,,,,,,,,309.6731361889979,310.02239486400504,310.82239642200875,310.8060358650109,310.806329744024,310.82239642200875,310.82239642200875,310.82239642200875,313.8229565140209,,,,,,,,,,,,,,,,,,,,,,,,,,,,,,,right,1.0,2.987990230001742,,,,,sub-225,1,random_dot,59.718377690246655,
left,left,26.0,0.0,13.0,right,0.0,4.824495806999039,,accuracy,space,12.330508668994298,,,,,,0.0,0.0,0.0,0.0,13.0,0.0,26.0,0.0,313.8389301840216,,,,,,,,,313.82327966499724,314.17240328600747,314.9724393430224,314.9559504479985,314.95640374399954,314.9724393430224,314.9724393430224,314.9724393430224,319.80666144299903,,,,,,,,,,,,,,,,,,,,,,,,,,,,,,,right,0.0,4.824495806999039,,,,,sub-225,1,random_dot,59.718377690246655,
right,right,27.0,1.0,13.0,left,0.0,3.608442481025122,,accuracy,space,12.330508668994298,,,,,,0.0,0.0,0.0,0.0,13.0,1.0,27.0,1.0,319.8220215770125,,,,,,,,,319.8070040110033,319.9221746060066,320.7222228140163,320.70577128301375,320.7062088340172,320.7222228140163,320.7222228140163,320.7222228140163,324.33977733700885,,,,,,,,,,,,,,,,,,,,,,,,,,,,,,,left,0.0,3.608442481025122,,,,,sub-225,1,random_dot,59.718377690246655,
left,left,28.0,0.0,14.0,left,1.0,5.438158878998365,,accuracy,space,12.330508668994298,,,,,,0.0,0.0,0.0,0.0,14.0,0.0,28.0,0.0,324.3553857920051,,,,,,,,,324.34008277900284,324.6888489520061,325.4889226410014,325.47244688801584,325.4728940440109,325.4889226410014,325.4889226410014,325.4889226410014,330.9394152240129,,,,,,,,330.4722397870209,,,,,,,,,,,,,,,,,,,,,,,left,1.0,5.438158878998365,,,,,sub-225,1,random_dot,59.718377690246655,
right,right,29.0,1.0,14.0,right,1.0,2.9452008490043227,,accuracy,space,12.330508668994298,,,,,,0.0,0.0,0.0,0.0,14.0,1.0,29.0,1.0,330.9553683430131,,,,,,,,,330.9397460760083,331.28893449899624,332.08872492902447,332.07251541499863,332.0729546729999,332.08872492902447,332.08872492902447,332.08872492902447,335.04017895902507,,,,,,,,,,,,,,,,,,,,,,,,,,,,,,,right,1.0,2.9452008490043227,,,,,sub-225,1,random_dot,59.718377690246655,
left,left,30.0,0.0,15.0,left,1.0,5.7424969490093645,,accuracy,space,12.330508668994298,,,,,,0.0,0.0,0.0,0.0,15.0,0.0,30.0,0.0,335.0551899179991,,,,,,,,,335.04048403102206,335.15539137701853,335.9550814329996,335.93898437402095,335.9393236870237,335.9550814329996,335.9550814329996,335.9550814329996,341.70652912100195,,,,,,,,340.9386168610072,,,,,,,,,,,,,,,,,,,,,,,left,1.0,5.7424969490093645,,,,,sub-225,1,random_dot,59.718377690246655,
right,right,31.0,1.0,15.0,right,1.0,4.023137131996919,,accuracy,space,12.330508668994298,,,,,,0.0,0.0,0.0,0.0,15.0,1.0,31.0,1.0,341.7218013720121,,,,,,,,,341.7068484030024,342.5218841820024,343.32188187300926,343.305631330004,343.3060726950061,343.32188187300926,343.32188187300926,343.32188187300926,347.35627051000483,,,,,,,,,,,,,,,,,,,,,,,,,,,,,,,right,1.0,4.023137131996919,,,,,sub-225,1,random_dot,59.718377690246655,
left,left,32.0,0.0,16.0,left,1.0,3.674692937987857,,accuracy,space,12.330508668994298,,,,,,0.0,0.0,0.0,0.0,16.0,0.0,32.0,0.0,347.3717191820033,,,,,,,,,347.35656679800013,348.57185584600666,349.37196314299945,349.3554538480239,349.35589327602065,349.37196314299945,349.37196314299945,349.37196314299945,353.0562804650108,,,,,,,,,,,,,,,,,,,,,,,,,,,,,,,left,1.0,3.674692937987857,,,,,sub-225,1,random_dot,59.718377690246655,
right,right,33.0,1.0,16.0,right,1.0,2.408453771000495,,accuracy,space,12.330508668994298,,,,,,0.0,0.0,0.0,0.0,16.0,1.0,33.0,1.0,353.07193966401974,,,,,,,,,353.0565992020129,353.17173347700736,353.9719162620022,353.9552065640164,353.95554575900314,353.9719162620022,353.9719162620022,353.9719162620022,356.3893728000112,,,,,,,,,,,,,,,,,,,,,,,,,,,,,,,right,1.0,2.408453771000495,,,,,sub-225,1,random_dot,59.718377690246655,
left,left,34.0,0.0,17.0,left,1.0,3.950421025016112,,accuracy,space,12.330508668994298,,,,,,0.0,0.0,0.0,0.0,17.0,0.0,34.0,0.0,356.40521009801887,,,,,,,,,356.38967963002506,356.75499699200736,357.5551413939975,357.5386948370142,357.53915057500126,357.5551413939975,357.5551413939975,357.5551413939975,361.52231604102417,,,,,,,,,,,,,,,,,,,,,,,,,,,,,,,left,1.0,3.950421025016112,,,,,sub-225,1,random_dot,59.718377690246655,
right,right,35.0,1.0,17.0,right,1.0,5.570062628015876,,accuracy,space,12.330508668994298,,,,,,0.0,0.0,0.0,0.0,17.0,1.0,35.0,1.0,361.53822794702137,,,,,,,,,361.5226351430174,362.7217182900058,363.5217716250045,363.505423405004,363.5058591350098,363.5217716250045,363.5217716250045,363.5217716250045,369.1056648820231,,,,,,,,368.5051443370176,,,,,,,,,,,,,,,,,,,,,,,right,1.0,5.570062628015876,,,,,sub-225,1,random_dot,59.718377690246655,
left,left,36.0,0.0,18.0,left,1.0,5.016730283008656,,accuracy,space,12.330508668994298,,,,,,0.0,0.0,0.0,0.0,18.0,0.0,36.0,0.0,369.1215289630054,,,,,,,,,369.1059906310111,370.3050504130079,371.1050830820168,371.0887226920168,371.0891740840161,371.1050830820168,371.1050830820168,371.1050830820168,376.1230233130045,,,,,,,,376.0883322030131,,,,,,,,,,,,,,,,,,,,,,,left,1.0,5.016730283008656,,,,,sub-225,1,random_dot,59.718377690246655,
right,right,37.0,1.0,18.0,right,1.0,5.050601200986421,,accuracy,space,12.330508668994298,,,,,,0.0,0.0,0.0,0.0,18.0,1.0,37.0,1.0,376.1378543240135,,,,,,,,,376.123382396996,376.9382836139994,377.7382095650246,377.7219620440155,377.72240689300816,377.7382095650246,377.7382095650246,377.7382095650246,382.8053313130222,,,,,,,,382.721823282016,,,,,,,,,,,,,,,,,,,,,,,right,1.0,5.050601200986421,,,,,sub-225,1,random_dot,59.718377690246655,
right,right,38.0,0.0,19.0,right,1.0,1.798750764981378,,accuracy,space,12.330508668994298,,,,,,0.0,0.0,0.0,0.0,19.0,0.0,38.0,1.0,382.8214268349984,,,,,,,,,382.80564552001306,384.0048512050125,384.8047142320138,384.7883916940191,384.7888341899961,384.8047142320138,384.8047142320138,384.8047142320138,386.6061927929986,,,,,,,,,,,,,,,,,,,,,,,,,,,,,,,right,1.0,1.798750764981378,,,,,sub-225,1,random_dot,59.718377690246655,
left,left,39.0,1.0,19.0,left,1.0,5.273794058011845,,accuracy,space,12.330508668994298,,,,,,0.0,0.0,0.0,0.0,19.0,1.0,39.0,0.0,386.6212423980178,,,,,,,,,386.6065495010116,387.822517757013,388.6381502060103,388.621649904002,388.6220122720115,388.6381502060103,388.6381502060103,388.6381502060103,393.9223312760005,,,,,,,,393.6213892890082,,,,,,,,,,,,,,,,,,,,,,,left,1.0,5.273794058011845,,,,,sub-225,1,random_dot,59.718377690246655,
right,right,40.0,0.0,20.0,right,1.0,2.9671386140107643,,accuracy,space,12.330508668994298,,,,,,0.0,0.0,0.0,0.0,20.0,0.0,40.0,1.0,393.9377779820061,,,,,,,,,393.9226341470203,394.2877499349997,395.08780741901137,395.0715813190036,395.0718689339992,395.08780741901137,395.08780741901137,395.08780741901137,398.0717153010192,,,,,,,,,,,,,,,,,,,,,,,,,,,,,,,right,1.0,2.9671386140107643,,,,,sub-225,1,random_dot,59.718377690246655,
left,left,41.0,1.0,20.0,left,1.0,6.132683613017434,,accuracy,space,12.330508668994298,,,,,,0.0,0.0,0.0,0.0,20.0,1.0,41.0,0.0,398.087734508008,,,,,,,,,398.0720749940083,398.8710747680161,399.6710433880216,399.6546566320176,399.6550813380163,399.6710433880216,399.6710433880216,399.6710433880216,405.8056124040159,,,,,,,,404.6541141040216,,,,,,,,,,,,,,,,,,,,,,,left,1.0,6.132683613017434,,,,,sub-225,1,random_dot,59.718377690246655,
right,right,42.0,0.0,21.0,right,1.0,2.8673976580030285,,accuracy,space,12.330508668994298,,,,,,0.0,0.0,0.0,0.0,21.0,0.0,42.0,1.0,405.8210418540111,,,,,,,,,405.80601669399766,406.171013462008,406.97104036199744,406.9545695920242,406.9550140790234,406.97104036199744,406.97104036199744,406.97104036199744,409.8549500750087,,,,,,,,,,,,,,,,,,,,,,,,,,,,,,,right,1.0,2.8673976580030285,,,,,sub-225,1,random_dot,59.718377690246655,
left,left,43.0,1.0,21.0,left,1.0,5.467925643984927,,accuracy,space,12.330508668994298,,,,,,0.0,0.0,0.0,0.0,21.0,1.0,43.0,0.0,409.8707147890236,,,,,,,,,409.8554900010058,411.0543390510138,411.8544030740159,411.8380732090154,411.8385212240101,411.8544030740159,411.8544030740159,411.8544030740159,417.3389328269986,,,,,,,,416.8374208730238,,,,,,,,,,,,,,,,,,,,,,,left,1.0,5.467925643984927,,,,,sub-225,1,random_dot,59.718377690246655,
left,left,44.0,0.0,22.0,left,1.0,3.6926781780202873,,accuracy,space,12.330508668994298,,,,,,0.0,0.0,0.0,0.0,22.0,0.0,44.0,0.0,417.353733224998,,,,,,,,,417.3393891419983,418.1538081809995,418.95517646402,418.9393469660136,418.9397667910089,418.95517646402,418.95517646402,418.95517646402,422.65511575801065,,,,,,,,,,,,,,,,,,,,,,,,,,,,,,,left,1.0,3.6926781780202873,,,,,sub-225,1,random_dot,59.718377690246655,
right,right,45.0,1.0,22.0,right,1.0,3.6004078930127434,,accuracy,space,12.330508668994298,,,,,,0.0,0.0,0.0,0.0,22.0,1.0,45.0,1.0,422.67064932599897,,,,,,,,,422.6554406300129,423.87070084401057,424.6707939570188,424.6543012030015,424.6546369790158,424.6707939570188,424.6707939570188,424.6707939570188,428.2879232400155,,,,,,,,,,,,,,,,,,,,,,,,,,,,,,,right,1.0,3.6004078930127434,,,,,sub-225,1,random_dot,59.718377690246655,
right,right,46.0,0.0,23.0,right,1.0,5.962469878984848,,accuracy,space,12.330508668994298,,,,,,0.0,0.0,0.0,0.0,23.0,0.0,46.0,1.0,428.3035473120108,,,,,,,,,428.288235325017,428.6372781310056,429.43738125101663,429.4208657370182,429.4212058190024,429.43738125101663,429.43738125101663,429.43738125101663,435.4047968110244,,,,,,,,434.4204312250076,,,,,,,,,,,,,,,,,,,,,,,right,1.0,5.962469878984848,,,,,sub-225,1,random_dot,59.718377690246655,
left,left,47.0,1.0,23.0,right,0.0,4.977330349996919,,accuracy,space,12.330508668994298,,,,,,0.0,0.0,0.0,0.0,23.0,1.0,47.0,0.0,435.4208309070091,,,,,,,,,435.4051257140236,436.60385513401707,437.4037383530231,437.38748592100455,437.38783426201553,437.4037383530231,437.4037383530231,437.4037383530231,442.38875063101295,,,,,,,,442.3877126320149,,,,,,,,,,,,,,,,,,,,,,,right,0.0,4.977330349996919,,,,,sub-225,1,random_dot,59.718377690246655,
left,left,48.0,0.0,24.0,left,1.0,4.526599220000207,,accuracy,space,12.330508668994298,,,,,,0.0,0.0,0.0,0.0,24.0,0.0,48.0,0.0,442.4033239830169,,,,,,,,,442.3890552740195,442.75374629101134,443.5536201799987,443.53701874800026,443.5373642350023,443.5536201799987,443.5536201799987,443.5536201799987,448.08841321402,,,,,,,,,,,,,,,,,,,,,,,,,,,,,,,left,1.0,4.526599220000207,,,,,sub-225,1,random_dot,59.718377690246655,
right,right,49.0,1.0,24.0,right,1.0,1.777271111990558,,accuracy,space,12.330508668994298,,,,,,0.0,0.0,0.0,0.0,24.0,1.0,49.0,1.0,448.10343252299936,,,,,,,,,448.0887167150213,448.9035987740208,449.7037011980137,449.6873972470057,449.6878462260065,449.7037011980137,449.7037011980137,449.7037011980137,451.4883623520145,,,,,,,,,,,,,,,,,,,,,,,,,,,,,,,right,1.0,1.777271111990558,,,,,sub-225,1,random_dot,59.718377690246655,
right,right,50.0,0.0,25.0,left,0.0,3.691691357991658,,accuracy,space,12.330508668994298,,,,,,0.0,0.0,0.0,0.0,25.0,0.0,50.0,1.0,451.503540086007,,,,,,,,,451.4886666800012,452.3036182640062,453.1036663110135,453.087406983017,453.0879612990248,453.1036663110135,453.1036663110135,453.1036663110135,456.8043378670118,,,,,,,,,,,,,,,,,,,,,,,,,,,,,,,left,0.0,3.691691357991658,,,,,sub-225,1,random_dot,59.718377690246655,
left,left,51.0,1.0,25.0,right,0.0,6.221033442998305,,accuracy,space,12.330508668994298,,,,,,0.0,0.0,0.0,0.0,25.0,1.0,51.0,0.0,456.8206628100015,,,,,,,,,456.804631357023,456.9035797300167,457.7035295630049,457.6872877690184,457.6877376720077,457.7035295630049,457.7035295630049,457.7035295630049,463.9373884150118,,,,,,,,462.6868167850189,,,,,,,,,,,,,,,,,,,,,,,right,0.0,6.221033442998305,,,,,sub-225,1,random_dot,59.718377690246655,
right,right,52.0,0.0,26.0,right,1.0,2.2128768780094106,,accuracy,space,12.330508668994298,,,,,,0.0,0.0,0.0,0.0,26.0,0.0,52.0,1.0,463.9533067320008,,,,,,,,,463.9377046629961,465.1368690340023,465.9369269529998,465.9205116200028,465.9209533800022,465.9369269529998,465.9369269529998,465.9369269529998,468.15488897802425,,,,,,,,,,,,,,,,,,,,,,,,,,,,,,,right,1.0,2.2128768780094106,,,,,sub-225,1,random_dot,59.718377690246655,
left,left,53.0,1.0,26.0,left,1.0,5.688523004995659,,accuracy,space,12.330508668994298,,,,,,0.0,0.0,0.0,0.0,26.0,1.0,53.0,0.0,468.1700468110212,,,,,,,,,468.155209982011,468.9700948000245,469.7700745800103,469.7537867700157,469.7541446280084,469.7700745800103,469.7700745800103,469.7700745800103,475.4705547479971,,,,,,,,474.7533971110242,,,,,,,,,,,,,,,,,,,,,,,left,1.0,5.688523004995659,,,,,sub-225,1,random_dot,59.718377690246655,
right,right,54.0,0.0,27.0,right,1.0,2.390166673983913,,accuracy,space,12.330508668994298,,,,,,0.0,0.0,0.0,0.0,27.0,0.0,54.0,1.0,475.4864330819983,,,,,,,,,475.4708662590128,475.5701923690213,476.3701210140134,476.3537091239996,476.3541583390033,476.3701210140134,476.3701210140134,476.3701210140134,478.7705329680175,,,,,,,,,,,,,,,,,,,,,,,,,,,,,,,right,1.0,2.390166673983913,,,,,sub-225,1,random_dot,59.718377690246655,
left,left,55.0,1.0,27.0,left,1.0,2.9953627490031067,,accuracy,space,12.330508668994298,,,,,,0.0,0.0,0.0,0.0,27.0,1.0,55.0,0.0,478.7864552250248,,,,,,,,,478.7708400860138,479.5701516850095,480.3701145469968,480.3536754570087,480.3541092610103,480.3701145469968,480.3701145469968,480.3701145469968,483.3714030219999,,,,,,,,,,,,,,,,,,,,,,,,,,,,,,,left,1.0,2.9953627490031067,,,,,sub-225,1,random_dot,59.718377690246655,
left,left,56.0,0.0,28.0,left,1.0,5.1925442009815015,,accuracy,space,12.330508668994298,,,,,,0.0,0.0,0.0,0.0,28.0,0.0,56.0,0.0,483.386506927025,,,,,,,,,483.3717131020094,483.4865064580226,484.2865266930021,484.2703926850226,484.27071083002375,484.2865266930021,484.2865266930021,484.2865266930021,489.4876093700004,,,,,,,,489.2697945590189,,,,,,,,,,,,,,,,,,,,,,,left,1.0,5.1925442009815015,,,,,sub-225,1,random_dot,59.718377690246655,
right,right,57.0,1.0,28.0,right,1.0,4.685894994996488,,accuracy,space,12.330508668994298,,,,,,0.0,0.0,0.0,0.0,28.0,1.0,57.0,1.0,489.50305637100246,,,,,,,,,489.48799828102347,490.2865080760093,491.0864679760125,491.07000128302025,491.0703412410221,491.0864679760125,491.0864679760125,491.0864679760125,495.78692868500366,,,,,,,,,,,,,,,,,,,,,,,,,,,,,,,right,1.0,4.685894994996488,,,,,sub-225,1,random_dot,59.718377690246655,
right,right,58.0,0.0,29.0,left,0.0,5.576932472991757,,accuracy,space,12.330508668994298,,,,,,0.0,0.0,0.0,0.0,29.0,0.0,58.0,1.0,495.80276133000734,,,,,,,,,495.78725745601696,495.8864471570123,496.6863797820115,496.66999139700783,496.6704294049996,496.6863797820115,496.6863797820115,496.6863797820115,502.2716937070072,,,,,,,,501.66943811799865,,,,,,,,,,,,,,,,,,,,,,,left,0.0,5.576932472991757,,,,,sub-225,1,random_dot,59.718377690246655,
left,left,59.0,1.0,29.0,left,1.0,5.433998220018111,,accuracy,space,12.330508668994298,,,,,,0.0,0.0,0.0,0.0,29.0,1.0,59.0,0.0,502.2861059740244,,,,,,,,,502.27214360801736,502.63650345100905,503.4361980870017,503.4197870870121,503.42013011701056,503.4361980870017,503.4361980870017,503.4361980870017,508.8869604710199,,,,,,,,508.4193200050213,,,,,,,,,,,,,,,,,,,,,,,left,1.0,5.433998220018111,,,,,sub-225,1,random_dot,59.718377690246655,
,,0.0,0.0,0.0,,,,,accuracy,space,12.330508668994298,,,,,,0.0,0.0,0.0,0.0,,,,,,,,,,,,,,,,,,,,,,,,,,,,,,,,,,,,,,,,,,,,,,,,,,,,,,,,,,,,sub-225,1,random_dot,59.718377690246655,
left,left,0.0,0.0,0.0,left,1.0,1.429655216023093,,speed,space,19.922204147005687,,,,,,0.0,1.0,1.0,1.0,0.0,0.0,0.0,0.0,528.8566139890172,,,,,,,,,528.8442476380151,529.2027414580225,530.0026491460158,529.986285758001,529.9866810060048,530.0026491460158,530.0026491460158,530.0026491460158,531.4373652480135,,,,,,,,,,,,,,,,,,,,,,,,508.89908614300657,508.9091416840092,508.9091416840092,528.8374039930059,space,19.922204147005687,,left,1.0,1.429655216023093,,,,,sub-225,1,random_dot,59.718377690246655,
right,right,1.0,1.0,0.0,right,1.0,0.8246770550031215,,speed,space,19.922204147005687,,,,,,0.0,1.0,1.0,1.0,0.0,1.0,1.0,1.0,531.4524479000247,,,,,,,,,531.4376810009999,531.5526917300012,532.3525694230048,532.3362798989983,532.3367209570133,532.3525694230048,532.3525694230048,532.3525694230048,533.1866696829966,,,,,,,,,,,,,,,,,,,,,,,,,,,,,,,right,1.0,0.8246770550031215,,,,,sub-225,1,random_dot,59.718377690246655,
right,right,2.0,0.0,1.0,right,1.0,0.7884935880138073,,speed,space,19.922204147005687,,,,,,0.0,1.0,1.0,1.0,1.0,0.0,2.0,1.0,533.2024882569967,,,,,,,,,533.1869758020039,533.9858606310154,534.7858469960047,534.7695511180209,534.7699863190064,534.7858469960047,534.7858469960047,534.7858469960047,535.5864868189965,,,,,,,,,,,,,,,,,,,,,,,,,,,,,,,right,1.0,0.7884935880138073,,,,,sub-225,1,random_dot,59.718377690246655,
left,left,3.0,1.0,1.0,right,0.0,1.7472274159954395,,speed,space,19.922204147005687,,,,,,0.0,1.0,1.0,1.0,1.0,1.0,3.0,0.0,535.602295929013,,,,,,,,,535.5868417700112,535.9357840610028,536.7357782190084,536.7195195570239,536.7199328390125,536.7357782190084,536.7357782190084,536.7357782190084,538.4869382860197,,,,,,,,,,,,,,,,,,,,,,,,,,,,,,,right,0.0,1.7472274159954395,,,,,sub-225,1,random_dot,59.718377690246655,
left,left,4.0,0.0,2.0,left,1.0,1.3792912430071738,,speed,space,19.922204147005687,,,,,,0.0,1.0,1.0,1.0,2.0,0.0,4.0,0.0,538.5027515040128,,,,,,,,,538.4873036220088,538.6025718120218,539.4026866450149,539.386224818998,539.3868627080228,539.4026866450149,539.4026866450149,539.4026866450149,540.787323268014,,,,,,,,,,,,,,,,,,,,,,,,,,,,,,,left,1.0,1.3792912430071738,,,,,sub-225,1,random_dot,59.718377690246655,
right,right,5.0,1.0,2.0,right,1.0,0.785393391008256,,speed,space,19.922204147005687,,,,,,0.0,1.0,1.0,1.0,2.0,1.0,5.0,1.0,540.8024210639996,,,,,,,,,540.7876556200208,541.1522847790038,541.952349019004,541.9361717120046,541.9365039039985,541.952349019004,541.952349019004,541.952349019004,542.7531197910139,,,,,,,,,,,,,,,,,,,,,,,,,,,,,,,right,1.0,0.785393391008256,,,,,sub-225,1,random_dot,59.718377690246655,
right,right,6.0,0.0,3.0,left,0.0,0.7677024700096808,,speed,space,19.922204147005687,,,,,,0.0,1.0,1.0,1.0,3.0,0.0,6.0,1.0,542.7686923770234,,,,,,,,,542.7534234190243,543.5523125670152,544.3522710190155,544.3360901120177,544.3364295400097,544.3522710190155,544.3522710190155,544.3522710190155,545.1364739180135,,,,,,,,,,,,,,,,,,,,,,,,,,,,,,,left,0.0,0.7677024700096808,,,,,sub-225,1,random_dot,59.718377690246655,
left,left,7.0,1.0,3.0,left,1.0,2.757147907977924,,speed,space,19.922204147005687,,,,,,0.0,1.0,1.0,1.0,3.0,1.0,7.0,0.0,545.1522420250112,,,,,,,,,545.1367727880133,546.3357315730245,547.1357786139997,547.1194051950006,547.1198374990199,547.1357786139997,547.1357786139997,547.1357786139997,549.9031161820167,,,,,,,,,,,,,,,,,,,,,,,,,,,,,,,left,1.0,2.757147907977924,,,,,sub-225,1,random_dot,59.718377690246655,
right,right,8.0,0.0,4.0,right,1.0,1.1559284850081897,,speed,space,19.922204147005687,,,,,,0.0,1.0,1.0,1.0,4.0,0.0,8.0,1.0,549.9189201230183,,,,,,,,,549.9034410199965,551.102345870022,551.9019628580136,551.8858621190011,551.8862964110158,551.9019628580136,551.9019628580136,551.9019628580136,553.0697764290089,,,,,,,,,,,,,,,,,,,,,,,,,,,,,,,right,1.0,1.1559284850081897,,,,,sub-225,1,random_dot,59.718377690246655,
left,left,9.0,1.0,4.0,left,1.0,2.241717316006543,,speed,space,19.922204147005687,,,,,,0.0,1.0,1.0,1.0,4.0,1.0,9.0,0.0,553.085191391001,,,,,,,,,553.0700847700064,553.8852670170018,554.6856496810215,554.6692230100161,554.6696509550093,554.6856496810215,554.6856496810215,554.6856496810215,556.9366305980075,,,,,,,,,,,,,,,,,,,,,,,,,,,,,,,left,1.0,2.241717316006543,,,,,sub-225,1,random_dot,59.718377690246655,
left,left,10.0,0.0,5.0,right,0.0,1.0894797960063445,,speed,space,19.922204147005687,,,,,,0.0,1.0,1.0,1.0,5.0,0.0,10.0,0.0,556.9519103570201,,,,,,,,,556.9369307410088,557.7523230439983,558.5521047540242,558.5359780790168,558.5363147199969,558.5521047540242,558.5521047540242,558.5521047540242,559.6527939510124,,,,,,,,,,,,,,,,,,,,,,,,,,,,,,,right,0.0,1.0894797960063445,,,,,sub-225,1,random_dot,59.718377690246655,
right,right,11.0,1.0,5.0,right,1.0,2.9200913129898254,,speed,space,19.922204147005687,,,,,,0.0,1.0,1.0,1.0,5.0,1.0,11.0,1.0,559.6685844580061,,,,,,,,,559.6530981440155,560.0023120639962,560.8021708349988,560.7858663400111,560.7861978760047,560.8021708349988,560.8021708349988,560.8021708349988,563.736377402005,,,,,,,,,,,,,,,,,,,,,,,,,,,,,,,right,1.0,2.9200913129898254,,,,,sub-225,1,random_dot,59.718377690246655,
right,right,12.0,0.0,6.0,left,0.0,2.422877419012366,,speed,space,19.922204147005687,,,,,,0.0,1.0,1.0,1.0,6.0,0.0,12.0,1.0,563.7516668750031,,,,,,,,,563.7367180710135,564.0855342099967,564.8854147210077,564.8691427780141,564.8695798910048,564.8854147210077,564.8854147210077,564.8854147210077,567.3194477430079,,,,,,,,,,,,,,,,,,,,,,,,,,,,,,,left,0.0,2.422877419012366,,,,,sub-225,1,random_dot,59.718377690246655,
left,left,13.0,1.0,6.0,left,1.0,2.6356191500090063,,speed,space,19.922204147005687,,,,,,0.0,1.0,1.0,1.0,6.0,1.0,13.0,0.0,567.3349176790216,,,,,,,,,567.3197773710126,568.5354308250244,569.3352757310204,569.3190301390132,569.3193661000114,569.3352757310204,569.3352757310204,569.3352757310204,571.985989925015,,,,,,,,,,,,,,,,,,,,,,,,,,,,,,,left,1.0,2.6356191500090063,,,,,sub-225,1,random_dot,59.718377690246655,
right,right,14.0,0.0,7.0,right,1.0,0.806664345000172,,speed,space,19.922204147005687,,,,,,0.0,1.0,1.0,1.0,7.0,0.0,14.0,1.0,572.0017206560005,,,,,,,,,571.9862909410149,572.7854247930227,573.585535805003,573.5691452019964,573.5694874190085,573.585535805003,573.585535805003,573.585535805003,574.4030107569997,,,,,,,,,,,,,,,,,,,,,,,,,,,,,,,right,1.0,0.806664345000172,,,,,sub-225,1,random_dot,59.718377690246655,
left,left,15.0,1.0,7.0,right,0.0,0.6946508679830004,,speed,space,19.922204147005687,,,,,,0.0,1.0,1.0,1.0,7.0,1.0,15.0,0.0,574.418609497021,,,,,,,,,574.4033968239964,575.6019377060002,576.4022394650092,576.3857187820249,576.3860786900041,576.4022394650092,576.4022394650092,576.4022394650092,577.1032182400231,,,,,,,,,,,,,,,,,,,,,,,,,,,,,,,right,0.0,0.6946508679830004,,,,,sub-225,1,random_dot,59.718377690246655,
left,left,16.0,0.0,8.0,left,1.0,1.0436314560065512,,speed,space,19.922204147005687,,,,,,0.0,1.0,1.0,1.0,8.0,0.0,16.0,0.0,577.1187076370115,,,,,,,,,577.1035135000129,578.3184047740069,579.1190088520234,579.1025328960095,579.1028742589988,579.1190088520234,579.1190088520234,579.1190088520234,580.1700939790171,,,,,,,,,,,,,,,,,,,,,,,,,,,,,,,left,1.0,1.0436314560065512,,,,,sub-225,1,random_dot,59.718377690246655,
right,right,17.0,1.0,8.0,right,1.0,1.2326367979985662,,speed,space,19.922204147005687,,,,,,0.0,1.0,1.0,1.0,8.0,1.0,17.0,1.0,580.1852450669976,,,,,,,,,580.1703936840058,580.985518417001,581.7853735300014,581.7689888500026,581.7694330690138,581.7853735300014,581.7853735300014,581.7853735300014,583.019803430012,,,,,,,,,,,,,,,,,,,,,,,,,,,,,,,right,1.0,1.2326367979985662,,,,,sub-225,1,random_dot,59.718377690246655,
left,left,18.0,0.0,9.0,left,1.0,1.0245910969970282,,speed,space,19.922204147005687,,,,,,0.0,1.0,1.0,1.0,9.0,0.0,18.0,0.0,583.0350071040157,,,,,,,,,583.0201631960226,583.8354471610219,584.6351088079973,584.6189994169981,584.6194440990221,584.6351088079973,584.6351088079973,584.6351088079973,585.669441926002,,,,,,,,,,,,,,,,,,,,,,,,,,,,,,,left,1.0,1.0245910969970282,,,,,sub-225,1,random_dot,59.718377690246655,
right,right,19.0,1.0,9.0,left,0.0,2.1248726609919686,,speed,space,19.922204147005687,,,,,,0.0,1.0,1.0,1.0,9.0,1.0,19.0,1.0,585.6848897790187,,,,,,,,,585.6697477420093,586.4687279500067,587.2686574640102,587.2522967080004,587.2527647820243,587.2686574640102,587.2686574640102,587.2686574640102,589.4026891460235,,,,,,,,,,,,,,,,,,,,,,,,,,,,,,,left,0.0,2.1248726609919686,,,,,sub-225,1,random_dot,59.718377690246655,
left,left,20.0,0.0,10.0,right,0.0,2.247371495992411,,speed,space,19.922204147005687,,,,,,0.0,1.0,1.0,1.0,10.0,0.0,20.0,0.0,589.4185233240132,,,,,,,,,589.4029935240105,590.6020075990236,591.4019931200019,591.3856307660171,591.386070159002,591.4019931200019,591.4019931200019,591.4019931200019,593.6532172700099,,,,,,,,,,,,,,,,,,,,,,,,,,,,,,,right,0.0,2.247371495992411,,,,,sub-225,1,random_dot,59.718377690246655,
right,right,21.0,1.0,10.0,right,1.0,2.1475218630221207,,speed,space,19.922204147005687,,,,,,0.0,1.0,1.0,1.0,10.0,1.0,21.0,1.0,593.6684858899971,,,,,,,,,593.6535650080186,594.4685264630243,595.2686159660225,595.2521850460034,595.2526463510003,595.2686159660225,595.2686159660225,595.2686159660225,597.4199665610213,,,,,,,,,,,,,,,,,,,,,,,,,,,,,,,right,1.0,2.1475218630221207,,,,,sub-225,1,random_dot,59.718377690246655,
right,right,22.0,0.0,11.0,left,0.0,2.63147797001875,,speed,space,19.922204147005687,,,,,,0.0,1.0,1.0,1.0,11.0,0.0,22.0,1.0,597.435313096008,,,,,,,,,597.4203814770153,598.6354249390133,599.43523714802,599.4189168520097,599.4193591750227,599.43523714802,599.43523714802,599.43523714802,602.0696785300097,,,,,,,,,,,,,,,,,,,,,,,,,,,,,,,left,0.0,2.63147797001875,,,,,sub-225,1,random_dot,59.718377690246655,
left,left,23.0,1.0,11.0,right,0.0,1.7790276260057,,speed,space,19.922204147005687,,,,,,0.0,1.0,1.0,1.0,11.0,1.0,23.0,0.0,602.0848801929969,,,,,,,,,602.0700576259987,602.1853159090097,602.98470012701,602.9686652150122,602.9690118270228,602.98470012701,602.98470012701,602.98470012701,604.7697276050167,,,,,,,,,,,,,,,,,,,,,,,,,,,,,,,right,0.0,1.7790276260057,,,,,sub-225,1,random_dot,59.718377690246655,
left,left,24.0,0.0,12.0,left,1.0,1.1637636439991184,,speed,space,19.922204147005687,,,,,,0.0,1.0,1.0,1.0,12.0,0.0,24.0,0.0,604.7845512880012,,,,,,,,,604.7700242970022,605.5853789719986,606.384849915019,606.3689398560091,606.3692776829994,606.384849915019,606.384849915019,606.384849915019,607.5528949900181,,,,,,,,,,,,,,,,,,,,,,,,,,,,,,,left,1.0,1.1637636439991184,,,,,sub-225,1,random_dot,59.718377690246655,
right,right,25.0,1.0,12.0,right,1.0,2.0689330459863413,,speed,space,19.922204147005687,,,,,,0.0,1.0,1.0,1.0,12.0,1.0,25.0,1.0,607.5680641870131,,,,,,,,,607.553238174005,607.668076816015,608.468382652005,608.4522147060197,608.4525542500196,608.468382652005,608.468382652005,608.468382652005,610.5521074040153,,,,,,,,,,,,,,,,,,,,,,,,,,,,,,,right,1.0,2.0689330459863413,,,,,sub-225,1,random_dot,59.718377690246655,
right,right,26.0,0.0,13.0,right,1.0,2.7299644610029645,,speed,space,19.922204147005687,,,,,,0.0,1.0,1.0,1.0,13.0,0.0,26.0,1.0,610.5682582550216,,,,,,,,,610.5524120840128,611.7516756580153,612.5514825980063,612.535106779018,612.535486378998,612.5514825980063,612.5514825980063,612.5514825980063,615.286410818022,,,,,,,,,,,,,,,,,,,,,,,,,,,,,,,right,1.0,2.7299644610029645,,,,,sub-225,1,random_dot,59.718377690246655,
left,left,27.0,1.0,13.0,left,1.0,2.09526797500439,,speed,space,19.922204147005687,,,,,,0.0,1.0,1.0,1.0,13.0,1.0,27.0,0.0,615.3016275590053,,,,,,,,,615.286912954005,616.1015601110121,616.9015212640224,616.8851518680167,616.8856019450177,616.9015212640224,616.9015212640224,616.9015212640224,619.0028151099978,,,,,,,,,,,,,,,,,,,,,,,,,,,,,,,left,1.0,2.09526797500439,,,,,sub-225,1,random_dot,59.718377690246655,
right,right,28.0,0.0,14.0,right,1.0,2.5495470140012912,,speed,space,19.922204147005687,,,,,,0.0,1.0,1.0,1.0,14.0,0.0,28.0,1.0,619.017985028011,,,,,,,,,619.0031189220026,620.2181836340169,621.0184163520171,621.0018342120165,621.0021466080216,621.0184163520171,621.0184163520171,621.0184163520171,623.5695077370037,,,,,,,,,,,,,,,,,,,,,,,,,,,,,,,right,1.0,2.5495470140012912,,,,,sub-225,1,random_dot,59.718377690246655,
left,left,29.0,1.0,14.0,left,1.0,1.8840125800052192,,speed,space,19.922204147005687,,,,,,0.0,1.0,1.0,1.0,14.0,1.0,29.0,0.0,623.5844040560187,,,,,,,,,623.5699576380139,624.3847457160009,625.1847949610092,625.1684076130041,625.1688656019978,625.1847949610092,625.1847949610092,625.1847949610092,627.0854959800199,,,,,,,,,,,,,,,,,,,,,,,,,,,,,,,left,1.0,1.8840125800052192,,,,,sub-225,1,random_dot,59.718377690246655,
left,left,30.0,0.0,15.0,left,1.0,0.8137914410035592,,speed,space,19.922204147005687,,,,,,0.0,1.0,1.0,1.0,15.0,0.0,30.0,0.0,627.1009942770179,,,,,,,,,627.0858048960217,627.1848141399969,627.9845516119967,627.9683020710072,627.968639749015,627.9845516119967,627.9845516119967,627.9845516119967,628.803038337006,,,,,,,,,,,,,,,,,,,,,,,,,,,,,,,left,1.0,0.8137914410035592,,,,,sub-225,1,random_dot,59.718377690246655,
right,right,31.0,1.0,15.0,left,0.0,2.198850585991749,,speed,space,19.922204147005687,,,,,,0.0,1.0,1.0,1.0,15.0,1.0,31.0,1.0,628.8177158180042,,,,,,,,,628.8033430880168,629.6181205820176,630.4181580830191,630.4014972209989,630.4018338290043,630.4181580830191,630.4181580830191,630.4181580830191,632.6193293260003,,,,,,,,,,,,,,,,,,,,,,,,,,,,,,,left,0.0,2.198850585991749,,,,,sub-225,1,random_dot,59.718377690246655,
left,left,32.0,0.0,16.0,left,1.0,1.856575888989028,,speed,space,19.922204147005687,,,,,,0.0,1.0,1.0,1.0,16.0,0.0,32.0,0.0,632.6343342370237,,,,,,,,,632.6196870320127,632.9848522420216,633.7846561180195,633.7682651900104,633.7687282999977,633.7846561180195,633.7846561180195,633.7846561180195,635.6520476120058,,,,,,,,,,,,,,,,,,,,,,,,,,,,,,,left,1.0,1.856575888989028,,,,,sub-225,1,random_dot,59.718377690246655,
right,right,33.0,1.0,16.0,right,1.0,4.000090754998382,,speed,space,19.922204147005687,,,,,,0.0,1.0,1.0,1.0,16.0,1.0,33.0,1.0,635.66779760801,,,,,,,,,635.6523669360031,635.7513768320205,636.5511323469982,636.5349404220178,636.5353912050196,636.5511323469982,636.5511323469982,636.5511323469982,640.5524276829965,,,,,,,,,,,,,,,,,,,,,,,,,,,,,,,right,1.0,4.000090754998382,,,,,sub-225,1,random_dot,59.718377690246655,
right,right,34.0,0.0,17.0,right,1.0,2.8960527360031847,,speed,space,19.922204147005687,,,,,,0.0,1.0,1.0,1.0,17.0,0.0,34.0,1.0,640.567496616015,,,,,,,,,640.5529191330133,641.350726892997,642.1511857029982,642.134842318017,642.1352946900006,642.1511857029982,642.1511857029982,642.1511857029982,645.0526570950169,,,,,,,,,,,,,,,,,,,,,,,,,,,,,,,right,1.0,2.8960527360031847,,,,,sub-225,1,random_dot,59.718377690246655,
left,left,35.0,1.0,17.0,left,1.0,1.7165369360009208,,speed,space,19.922204147005687,,,,,,0.0,1.0,1.0,1.0,17.0,1.0,35.0,0.0,645.0677602369979,,,,,,,,,645.0529509100015,646.2678612240124,647.0678520070214,647.0515039820166,647.051948013017,647.0678520070214,647.0678520070214,647.0678520070214,648.7856711820059,,,,,,,,,,,,,,,,,,,,,,,,,,,,,,,left,1.0,1.7165369360009208,,,,,sub-225,1,random_dot,59.718377690246655,
right,right,36.0,0.0,18.0,right,1.0,2.284963198006153,,speed,space,19.922204147005687,,,,,,0.0,1.0,1.0,1.0,18.0,0.0,36.0,1.0,648.8007342500205,,,,,,,,,648.786080564023,650.0009770140168,650.8011213710124,650.7847004460054,650.7851469550224,650.8011213710124,650.8011213710124,650.8011213710124,653.1015977070201,,,,,,,,,,,,,,,,,,,,,,,,,,,,,,,right,1.0,2.284963198006153,,,,,sub-225,1,random_dot,59.718377690246655,
left,left,37.0,1.0,18.0,left,1.0,1.66608279600041,,speed,space,19.922204147005687,,,,,,0.0,1.0,1.0,1.0,18.0,1.0,37.0,0.0,653.1176264310197,,,,,,,,,653.1019069589966,653.4511252340162,654.2512414870143,654.2346697750036,654.2350537250168,654.2512414870143,654.2512414870143,654.2512414870143,655.9188970499963,,,,,,,,,,,,,,,,,,,,,,,,,,,,,,,left,1.0,1.66608279600041,,,,,sub-225,1,random_dot,59.718377690246655,
right,right,38.0,0.0,19.0,right,1.0,2.317556679015979,,speed,space,19.922204147005687,,,,,,0.0,1.0,1.0,1.0,19.0,0.0,38.0,1.0,655.9340793010197,,,,,,,,,655.9192653490172,656.0344098110218,656.834388214018,656.8179910269973,656.8184444610088,656.834388214018,656.834388214018,656.834388214018,659.1684431300091,,,,,,,,,,,,,,,,,,,,,,,,,,,,,,,right,1.0,2.317556679015979,,,,,sub-225,1,random_dot,59.718377690246655,
left,left,39.0,1.0,19.0,left,1.0,1.0989694979798514,,speed,space,19.922204147005687,,,,,,0.0,1.0,1.0,1.0,19.0,1.0,39.0,0.0,659.1839676010131,,,,,,,,,659.1688190590066,659.9674343400111,660.7675516930176,660.7513149740116,660.7517112230125,660.7675516930176,660.7675516930176,660.7675516930176,661.8688092040247,,,,,,,,,,,,,,,,,,,,,,,,,,,,,,,left,1.0,1.0989694979798514,,,,,sub-225,1,random_dot,59.718377690246655,
left,left,40.0,0.0,20.0,right,0.0,1.1847632029966917,,speed,space,19.922204147005687,,,,,,0.0,1.0,1.0,1.0,20.0,0.0,40.0,0.0,661.8839474660053,,,,,,,,,661.8691561760206,662.2341813220119,663.0339858950174,663.0178691020119,663.0183190700191,663.0339858950174,663.0339858950174,663.0339858950174,664.2348794240097,,,,,,,,,,,,,,,,,,,,,,,,,,,,,,,right,0.0,1.1847632029966917,,,,,sub-225,1,random_dot,59.718377690246655,
right,right,41.0,1.0,20.0,right,1.0,3.489645694993669,,speed,space,19.922204147005687,,,,,,0.0,1.0,1.0,1.0,20.0,1.0,41.0,1.0,664.2507027060201,,,,,,,,,664.235255890002,665.0342722640198,665.8618105380156,665.8368163700216,665.8371081290243,665.8618105380156,665.8618105380156,665.8618105380156,669.3686256550136,,,,,,,,,,,,,,,,,,,,,,,,,,,,,,,right,1.0,3.489645694993669,,,,,sub-225,1,random_dot,59.718377690246655,
right,right,42.0,0.0,21.0,right,1.0,2.679294184985338,,speed,space,19.922204147005687,,,,,,0.0,1.0,1.0,1.0,21.0,0.0,42.0,1.0,669.3838466940215,,,,,,,,,669.3690625190211,669.734181562002,670.5339675160067,670.5175558990159,670.5178831079975,670.5339675160067,670.5339675160067,670.5339675160067,673.2185503540095,,,,,,,,,,,,,,,,,,,,,,,,,,,,,,,right,1.0,2.679294184985338,,,,,sub-225,1,random_dot,59.718377690246655,
left,left,43.0,1.0,21.0,left,1.0,0.703518182010157,,speed,space,19.922204147005687,,,,,,0.0,1.0,1.0,1.0,21.0,1.0,43.0,0.0,673.2342677580018,,,,,,,,,673.2189291730174,674.4340742930071,675.2339470419975,675.2175288830185,675.2178314440243,675.2339470419975,675.2339470419975,675.2339470419975,675.9514856970054,,,,,,,,,,,,,,,,,,,,,,,,,,,,,,,left,1.0,0.703518182010157,,,,,sub-225,1,random_dot,59.718377690246655,
right,right,44.0,0.0,22.0,right,1.0,0.8327759979874827,,speed,space,19.922204147005687,,,,,,0.0,1.0,1.0,1.0,22.0,0.0,44.0,1.0,675.967107502016,,,,,,,,,675.9518027610029,676.3008536859998,677.1006494830071,677.0845947230118,677.0848980410083,677.1006494830071,677.1006494830071,677.1006494830071,677.9350952200184,,,,,,,,,,,,,,,,,,,,,,,,,,,,,,,right,1.0,0.8327759979874827,,,,,sub-225,1,random_dot,59.718377690246655,
left,left,45.0,1.0,22.0,left,1.0,1.8537055109918583,,speed,space,19.922204147005687,,,,,,0.0,1.0,1.0,1.0,22.0,1.0,45.0,0.0,677.9505066960119,,,,,,,,,677.9355400520144,678.0505904870224,678.8506405370135,678.8342512480158,678.8345508610073,678.8506405370135,678.8506405370135,678.8506405370135,680.7181406900054,,,,,,,,,,,,,,,,,,,,,,,,,,,,,,,left,1.0,1.8537055109918583,,,,,sub-225,1,random_dot,59.718377690246655,
left,left,46.0,0.0,23.0,right,0.0,1.8458552630036136,,speed,space,19.922204147005687,,,,,,0.0,1.0,1.0,1.0,23.0,0.0,46.0,0.0,680.733774524997,,,,,,,,,680.7184425590094,681.9175009290047,682.7173712410149,682.7011664140155,682.7015998590214,682.7173712410149,682.7173712410149,682.7173712410149,684.5684980640071,,,,,,,,,,,,,,,,,,,,,,,,,,,,,,,right,0.0,1.8458552630036136,,,,,sub-225,1,random_dot,59.718377690246655,
right,right,47.0,1.0,23.0,right,1.0,1.6142971760127691,,speed,space,19.922204147005687,,,,,,0.0,1.0,1.0,1.0,23.0,1.0,47.0,1.0,684.5835620250145,,,,,,,,,684.5687963200035,685.3837743180047,686.183955192013,686.1674799790198,686.1679194400203,686.183955192013,686.183955192013,686.183955192013,687.8019060850202,,,,,,,,,,,,,,,,,,,,,,,,,,,,,,,right,1.0,1.6142971760127691,,,,,sub-225,1,random_dot,59.718377690246655,
left,left,48.0,0.0,24.0,left,1.0,1.8087123770092148,,speed,space,19.922204147005687,,,,,,0.0,1.0,1.0,1.0,24.0,0.0,48.0,0.0,687.8169950960146,,,,,,,,,687.802342141018,688.6173207510146,689.4171833950095,689.4005162810208,689.4008533180167,689.4171833950095,689.4171833950095,689.4171833950095,691.2351780070167,,,,,,,,,,,,,,,,,,,,,,,,,,,,,,,left,1.0,1.8087123770092148,,,,,sub-225,1,random_dot,59.718377690246655,
right,right,49.0,1.0,24.0,right,1.0,2.2684880570159294,,speed,space,19.922204147005687,,,,,,0.0,1.0,1.0,1.0,24.0,1.0,49.0,1.0,691.2505641120079,,,,,,,,,691.2356218339992,692.0506970670249,692.8506477850024,692.8342911960208,692.8346309990156,692.8506477850024,692.8506477850024,692.8506477850024,695.1345754220092,,,,,,,,,,,,,,,,,,,,,,,,,,,,,,,right,1.0,2.2684880570159294,,,,,sub-225,1,random_dot,59.718377690246655,
right,right,50.0,0.0,25.0,right,1.0,2.113319705007598,,speed,space,19.922204147005687,,,,,,0.0,1.0,1.0,1.0,25.0,0.0,50.0,1.0,695.1503529070178,,,,,,,,,695.1349507940176,695.4837207670207,696.2836484560103,696.2675540870114,696.2678889960225,696.2836484560103,696.2836484560103,696.2836484560103,698.4016898109985,,,,,,,,,,,,,,,,,,,,,,,,,,,,,,,right,1.0,2.113319705007598,,,,,sub-225,1,random_dot,59.718377690246655,
left,left,51.0,1.0,25.0,left,1.0,1.7192700610030442,,speed,space,19.922204147005687,,,,,,0.0,1.0,1.0,1.0,25.0,1.0,51.0,0.0,698.4171140399994,,,,,,,,,698.4021018070052,699.6171237360104,700.4170541780186,700.4008330810175,700.4011320820136,700.4170541780186,700.4170541780186,700.4170541780186,702.1510482290178,,,,,,,,,,,,,,,,,,,,,,,,,,,,,,,left,1.0,1.7192700610030442,,,,,sub-225,1,random_dot,59.718377690246655,
left,left,52.0,0.0,26.0,right,0.0,1.0587815889739431,,speed,space,19.922204147005687,,,,,,0.0,1.0,1.0,1.0,26.0,0.0,52.0,0.0,702.1669480130076,,,,,,,,,702.1513868159964,702.9504334240046,703.7504135900235,703.7339406870014,703.7343838940142,703.7504135900235,703.7504135900235,703.7504135900235,704.8178034670127,,,,,,,,,,,,,,,,,,,,,,,,,,,,,,,right,0.0,1.0587815889739431,,,,,sub-225,1,random_dot,59.718377690246655,
right,right,53.0,1.0,26.0,left,0.0,1.7780822519853243,,speed,space,19.922204147005687,,,,,,0.0,1.0,1.0,1.0,26.0,1.0,53.0,1.0,704.8332650610246,,,,,,,,,704.8180998120224,705.167039205,705.9670351700042,705.9506270860147,705.9510819550196,705.9670351700042,705.9670351700042,705.9670351700042,707.7516887359961,,,,,,,,,,,,,,,,,,,,,,,,,,,,,,,left,0.0,1.7780822519853243,,,,,sub-225,1,random_dot,59.718377690246655,
left,left,54.0,0.0,27.0,right,0.0,2.8760631929908413,,speed,space,19.922204147005687,,,,,,0.0,1.0,1.0,1.0,27.0,0.0,54.0,0.0,707.7668714980246,,,,,,,,,707.751991202007,708.117061070021,708.9169809710002,708.9006476869981,708.9010939200234,708.9169809710002,708.9169809710002,708.9169809710002,711.801174606022,,,,,,,,,,,,,,,,,,,,,,,,,,,,,,,right,0.0,2.8760631929908413,,,,,sub-225,1,random_dot,59.718377690246655,
right,right,55.0,1.0,27.0,left,0.0,1.0141797469987068,,speed,space,19.922204147005687,,,,,,0.0,1.0,1.0,1.0,27.0,1.0,55.0,1.0,711.8165139530029,,,,,,,,,711.8014705430251,711.9168158149987,712.7168618160067,712.7006122670136,712.7010741670092,712.7168618160067,712.7168618160067,712.7168618160067,713.7347475270217,,,,,,,,,,,,,,,,,,,,,,,,,,,,,,,left,0.0,1.0141797469987068,,,,,sub-225,1,random_dot,59.718377690246655,
right,right,56.0,0.0,28.0,left,0.0,1.745800654985942,,speed,space,19.922204147005687,,,,,,0.0,1.0,1.0,1.0,28.0,0.0,56.0,1.0,713.7501414870203,,,,,,,,,713.7352342310187,714.1001566900231,714.9002568350115,714.8837696060073,714.8842099120084,714.9002568350115,714.9002568350115,714.9002568350115,716.6514722650172,,,,,,,,,,,,,,,,,,,,,,,,,,,,,,,left,0.0,1.745800654985942,,,,,sub-225,1,random_dot,59.718377690246655,
left,left,57.0,1.0,28.0,left,1.0,2.0992919960117438,,speed,space,19.922204147005687,,,,,,0.0,1.0,1.0,1.0,28.0,1.0,57.0,0.0,716.666699991998,,,,,,,,,716.6517819930159,717.4669200470089,718.2667751240078,718.2503887620114,718.2508360180072,718.2667751240078,718.2667751240078,718.2667751240078,720.3678412570152,,,,,,,,,,,,,,,,,,,,,,,,,,,,,,,left,1.0,2.0992919960117438,,,,,sub-225,1,random_dot,59.718377690246655,
left,left,58.0,0.0,29.0,right,0.0,2.895968005002942,,speed,space,19.922204147005687,,,,,,0.0,1.0,1.0,1.0,29.0,0.0,58.0,0.0,720.3830991320137,,,,,,,,,720.368248593004,720.733307454997,721.5329001370119,721.5164841500227,721.5167861010123,721.5329001370119,721.5329001370119,721.5329001370119,724.4346999740228,,,,,,,,,,,,,,,,,,,,,,,,,,,,,,,right,0.0,2.895968005002942,,,,,sub-225,1,random_dot,59.718377690246655,
right,right,59.0,1.0,29.0,left,0.0,1.2180049610033166,,speed,space,19.922204147005687,,,,,,0.0,1.0,1.0,1.0,29.0,1.0,59.0,1.0,724.4497511840018,,,,,,,,,724.4350958880095,725.6499966520059,726.4500810340105,726.4339075809985,726.4343335190206,726.4500810340105,726.4500810340105,726.4500810340105,727.6842280290148,,,,,,,,,,,,,,,,,,,,,,,,,,,,,,,left,0.0,1.2180049610033166,,,,,sub-225,1,random_dot,59.718377690246655,
,,1.0,1.0,0.0,,,,,speed,space,19.922204147005687,,,,,,0.0,1.0,1.0,1.0,,,,,,,,,,,,,,,,,,,,,,,,,,,,,,,,,,,,,,,,,,,,,,,,,,,,,,,,,,,,sub-225,1,random_dot,59.718377690246655,
,,,,,,,,,,,,,,,,,,,,,,,,,,,,,,,,,,,,,,,,,,,,,,,,,,,,,,,,,,,,,,,,,,,,,,,,,,,,,727.6881592520222,727.7029056580213,732.7002163880097,sub-225,1,random_dot,59.718377690246655,
