direction,corrAns,thisN,thisTrialN,thisRepN,respDots.keys,respDots.corr,respDots.rt,respDots.duration,randomInstr,respRandomInstr.keys,respRandomInstr.rt,respRandomInstr.duration,practice_trials.thisRepN,practice_trials.thisTrialN,practice_trials.thisN,practice_trials.thisIndex,instr_trials.thisRepN,instr_trials.thisTrialN,instr_trials.thisN,instr_trials.thisIndex,test_trials.thisRepN,test_trials.thisTrialN,test_trials.thisN,test_trials.thisIndex,thisRow.t,notes,general_instruction.started,textGeneralInstr.started,respGeneralInstr.started,general_instruction.stopped,respGeneralInstr.keys,respGeneralInstr.rt,respGeneralInstr.duration,ITI.started,fixcross.started,fixcross.stopped,ITI.stopped,dots.started,backgroundDots.started,stimulusDots.started,respDots.started,stimulusDots.stopped,dots.stopped,practice_trials.respDots.keys,practice_trials.respDots.corr,practice_trials.respDots.rt,practice_trials.respDots.duration,feedback.started,textFeedback.started,feedback.stopped,textFeedback.stopped,info.started,textInfo.started,keyRespInfo.started,info.stopped,keyRespInfo.keys,keyRespInfo.rt,keyRespInfo.duration,test_instruction.started,textTestInstr.started,respTestInstr.started,test_instruction.stopped,respTestInstr.keys,respTestInstr.rt,respTestInstr.duration,random_instruction.started,textRandomInstr.started,respRandomInstr.started,random_instruction.stopped,instr_trials.respRandomInstr.keys,instr_trials.respRandomInstr.rt,instr_trials.respRandomInstr.duration,test_trials.respDots.keys,test_trials.respDots.corr,test_trials.respDots.rt,test_trials.respDots.duration,goodbye.started,textGoodbye.started,goodbye.stopped,participant,session,expName,frameRate,Unnamed: 87
,,,,,,,,,,,,,,,,,,,,,,,,,,,0.0198303449869854,0.0357664769981056,0.0357664769981056,62.15261013100098,space,62.073391361002,,,,,,,,,,,,,,,,,,,,,,,,,,,,,,,,,,,,,,,,,,,,,,,,sub-014,1,random_dot,89.40127581892128,
left,left,0.0,0.0,0.0,right,0.0,12.756303990987362,,,,,,0.0,0.0,0.0,0.0,,,,,,,,,62.23334911199345,,,,,,,,,62.21357923299365,62.95999959199981,63.77569512199261,63.746419258997776,63.747172352988855,63.77569512199261,63.77569512199261,63.77569512199261,68.73960881998937,76.54229197298991,right,0.0,12.756303990987362,,76.54931422499067,76.82798720599385,77.04631471799803,,,,,,,,,,,,,,,,,,,,,,,,,,,,,,sub-014,1,random_dot,89.40127581892128,
right,right,1.0,1.0,0.0,left,0.0,4.987409925000975,,,,,,0.0,1.0,1.0,1.0,,,,,,,,,77.05394245599746,,,,,,,,,77.04692534999049,77.38980737399834,78.19483559099899,78.18141425799695,78.18213523799204,78.19483559099899,78.19483559099899,78.19483559099899,83.17956641499768,83.19377548799093,left,0.0,4.987409925000975,,83.19390794399078,83.20447952799441,83.69674105900049,,,,,,,,,,,,,,,,,,,,,,,,,,,,,,sub-014,1,random_dot,89.40127581892128,
right,right,2.0,0.0,1.0,right,1.0,4.92222804800258,,,,,,1.0,0.0,2.0,1.0,,,,,,,,,83.70512694498757,,,,,,,,,83.69715513499978,84.91215801399085,85.71250108699314,85.70095008099452,85.70144081200124,85.71250108699314,85.71250108699314,85.71250108699314,,90.6390353129973,right,1.0,4.92222804800258,,90.64807735699289,90.65695100899028,91.13949468400097,,,,,,,,,,,,,,,,,,,,,,,,,,,,,,sub-014,1,random_dot,89.40127581892128,
left,left,3.0,1.0,1.0,left,1.0,11.011139833004563,,,,,,1.0,1.0,3.0,0.0,,,,,,,,,91.15008320899506,,,,,,,,,91.14025702999788,92.3364261329989,93.14112937499884,93.12958503399568,93.13006690899785,93.14112937499884,93.14112937499884,93.14112937499884,98.12213017798786,104.15804750198733,left,1.0,11.011139833004563,,104.15820841499954,104.16959361000043,104.66250434798712,,,,,,,,,,,,,,,,,,,,,,,,,,,,,,sub-014,1,random_dot,89.40127581892128,
right,right,4.0,0.0,2.0,right,1.0,3.338936925996677,,,,,,2.0,0.0,4.0,1.0,,,,,,,,,104.67169935000128,,,,,,,,,104.663096364995,105.47839128499618,106.29474405400106,106.26758848800092,106.26828736098832,106.29474405400106,106.29474405400106,106.29474405400106,,109.64848191999772,right,1.0,3.338936925996677,,109.64863486599644,109.66007935199012,110.14634710199608,110.15426756598754,,,,,,,,,,,,,,,,,,,,,,,,,,,,,sub-014,1,random_dot,89.40127581892128,
left,left,5.0,1.0,2.0,right,0.0,1.9962874009943332,,,,,,2.0,1.0,5.0,0.0,,,,,,,,,110.15426756598754,,,,,,,,,110.1467617599992,110.9451866499876,111.74731277598768,111.73663256199508,111.73710821299755,111.74731277598768,111.74731277598768,111.74731277598768,,113.75529125100002,right,0.0,1.9962874009943332,,113.7598772009951,113.7773064179928,114.26239637599792,,,,,,,,,,,,,,,,,,,,,,,,,,,,,,sub-014,1,random_dot,89.40127581892128,
left,left,6.0,0.0,3.0,left,1.0,2.098127043005661,,,,,,3.0,0.0,6.0,0.0,,,,,,,,,114.27088355500018,,,,,,,,,114.2629977739998,115.46285145598812,116.2659653390001,116.25511696799369,116.255617103001,116.2659653390001,116.2659653390001,116.2659653390001,,118.37684335999074,left,1.0,2.098127043005661,,118.3794657440012,118.3894748879975,118.89486434900029,,,,,,,,,,,,,,,,,,,,,,,,,,,,,,sub-014,1,random_dot,89.40127581892128,
right,right,7.0,1.0,3.0,right,1.0,2.8070942100021057,,,,,,3.0,1.0,7.0,1.0,,,,,,,,,118.91240312199808,,,,,,,,,118.89546552998944,120.0786161119904,120.87422754,120.86287835499388,120.86335366500134,120.87422754,120.87422754,120.87422754,,123.69266583699208,right,1.0,2.8070942100021057,,123.6927988749958,123.70174453599611,124.19563356899016,,,,,,,,,,,,,,,,,,,,,,,,,,,,,,sub-014,1,random_dot,89.40127581892128,
right,right,8.0,0.0,4.0,left,0.0,3.9261002340062983,,,,,,4.0,0.0,8.0,1.0,,,,,,,,,124.20396690598864,,,,,,,,,124.196225940992,124.9850142869982,125.78372799999488,125.77189488899604,125.77257921198908,125.78372799999488,125.78372799999488,125.78372799999488,,129.73087692300032,left,0.0,3.9261002340062983,,129.7346400339884,129.74657993399887,130.23536169499857,,,,,,,,,,,,,,,,,,,,,,,,,,,,,,sub-014,1,random_dot,89.40127581892128,
left,left,9.0,1.0,4.0,left,1.0,1.540018958010478,,,,,,4.0,1.0,9.0,0.0,,,,,,,,,130.24394446499355,,,,,,,,,130.23613678099355,131.03189328899316,131.83264398899337,131.82161380299658,131.8221016479947,131.83264398899337,131.83264398899337,131.83264398899337,,133.38439344699145,left,1.0,1.540018958010478,,133.38779792799323,133.39876766799716,133.8881285339885,,,,,,,,,,,,,,,,,,,,,,,,,,,,,,sub-014,1,random_dot,89.40127581892128,
right,right,10.0,0.0,5.0,left,0.0,1.8025552119943316,,,,,,5.0,0.0,10.0,1.0,,,,,,,,,133.8978048860008,,,,,,,,,133.88876326598984,133.99399372299376,134.7933904800011,134.78153428698715,134.7820527589938,134.7933904800011,134.7933904800011,134.7933904800011,,136.60416348499712,left,0.0,1.8025552119943316,,136.60822996399656,136.6182715509931,137.11083383699588,,,,,,,,,,,,,,,,,,,,,,,,,,,,,,sub-014,1,random_dot,89.40127581892128,
left,left,11.0,1.0,5.0,left,1.0,4.170804731998942,,,,,,5.0,1.0,11.0,0.0,,,,,,,,,137.12860078299127,,,,,,,,,137.1112698809884,137.9022094809916,138.7077374520013,138.69672857299156,138.6972158439894,138.7077374520013,138.7077374520013,138.7077374520013,,142.88174241699744,left,1.0,4.170804731998942,,142.88596153199614,142.89672864098975,143.38569043399184,,,,,,,,,,,,,,,,,,,,,,,,,,,,,,sub-014,1,random_dot,89.40127581892128,
right,right,12.0,0.0,6.0,right,1.0,1.4457148640067317,,,,,,6.0,0.0,12.0,1.0,,,,,,,,,143.41090591099055,,,,,,,,,143.3864039459877,144.5943672049907,145.42964373799623,145.4086117049883,145.40932665599394,145.42964373799623,145.42964373799623,145.42964373799623,,146.88701712498732,right,1.0,1.4457148640067317,,146.88712068699533,146.89766373598832,147.39435681598843,,,,,,,,,,,,,,,,,,,,,,,,,,,,,,sub-014,1,random_dot,89.40127581892128,
left,left,13.0,1.0,6.0,left,1.0,2.9480204569990747,,,,,,6.0,1.0,13.0,0.0,,,,,,,,,147.4121295549994,,,,,,,,,147.39500386398868,148.59531775099458,149.39011502898938,149.3791968099977,149.3796832090011,149.39011502898938,149.39011502898938,149.39011502898938,,152.3520807679888,left,1.0,2.9480204569990747,,152.3522286269872,152.36407498898916,152.85506375599653,,,,,,,,,,,,,,,,,,,,,,,,,,,,,,sub-014,1,random_dot,89.40127581892128,
left,left,14.0,0.0,7.0,left,1.0,1.443660289995023,,,,,,7.0,0.0,14.0,0.0,,,,,,,,,152.8643815569958,,,,,,,,,152.85612614398997,154.0536943719926,154.85696815999108,154.8461788249988,154.8466561009991,154.85696815999108,154.85696815999108,154.85696815999108,,156.31757913398906,left,1.0,1.443660289995023,,156.31771699199453,156.32758513798765,156.81405031398754,156.82357968798897,,,,,,,,,,,,,,,,,,,,,,,,,,,,,sub-014,1,random_dot,89.40127581892128,
right,right,15.0,1.0,7.0,right,1.0,1.240254581993213,,,,,,7.0,1.0,15.0,1.0,,,,,,,,,156.82357968798897,,,,,,,,,156.8146446759929,157.1720811379928,157.9746697429946,157.96294999199745,157.9636405409983,157.9746697429946,157.9746697429946,157.9746697429946,,159.22906235299888,right,1.0,1.240254581993213,,159.2292416579876,159.24429225899803,159.72900771698914,159.73717424499046,,,,,,,,,,,,,,,,,,,,,,,,,,,,,sub-014,1,random_dot,89.40127581892128,
left,left,16.0,0.0,8.0,left,1.0,3.144560699001886,,,,,,8.0,0.0,16.0,0.0,,,,,,,,,159.73717424499046,,,,,,,,,159.72940705899964,159.82792049099226,160.63017255198793,160.61809886999254,160.6188230830012,160.63017255198793,160.63017255198793,160.63017255198793,,163.7833715119923,left,1.0,3.144560699001886,,163.78347660599684,163.7929043990007,164.27881520798837,164.28656609499012,,,,,,,,,,,,,,,,,,,,,,,,,,,,,sub-014,1,random_dot,89.40127581892128,
right,right,17.0,1.0,8.0,right,1.0,4.321306401005131,,,,,,8.0,1.0,17.0,1.0,,,,,,,,,164.28656609499012,,,,,,,,,164.2792236039968,164.6299627369881,165.4250746799953,165.41351099999156,165.41399029099557,165.4250746799953,165.4250746799953,165.4250746799953,,169.75079435299267,right,1.0,4.321306401005131,,169.75094972999068,169.7636567659938,170.24882352499117,170.26151093299268,,,,,,,,,,,,,,,,,,,,,,,,,,,,,sub-014,1,random_dot,89.40127581892128,
right,right,18.0,0.0,9.0,left,0.0,6.03880505199777,,,,,,9.0,0.0,18.0,1.0,,,,,,,,,170.26151093299268,,,,,,,,,170.24941736199253,170.5932582589885,171.39358284999616,171.38188862398965,171.38259299199854,171.39358284999616,171.39358284999616,171.39358284999616,176.37682587999734,177.4415776669921,left,0.0,6.03880505199777,,177.4450177779945,177.45538517698878,177.94656191198737,,,,,,,,,,,,,,,,,,,,,,,,,,,,,,sub-014,1,random_dot,89.40127581892128,
left,left,19.0,1.0,9.0,left,1.0,2.422119109003688,,,,,,9.0,1.0,19.0,0.0,,,,,,,,,177.96125389399822,,,,,,,,,177.94735308398958,178.04438697399746,178.86033538699849,178.84248910399037,178.84319969399075,178.86033538699849,178.86033538699849,178.86033538699849,,181.28517466099584,left,1.0,2.422119109003688,,181.28884818698864,181.29965030799207,181.78733547400043,,,,,,,,,,,,,,,,,,,,,,,,,,,,,,sub-014,1,random_dot,89.40127581892128,
,,,,,,,,,,,,,,,,,,,,,,,,,,,,,,,,,,,,,,,,,,,,,,,,,,,,181.7876216989971,181.7998896770005,181.7998896770005,196.6964867899951,space,14.884121409995714,,,,,,,,,,,,,,,,,,,,,,,sub-014,1,random_dot,89.40127581892128,
,,,,,,,,,,,,,,,,,,,,,,,,,,,,,,,,,,,,,,,,,,,,,,,,,,,,,,,,,,,196.69657085699143,196.70913463899345,196.70913463899345,206.3287094889965,space,9.60630057399976,,,,,,,,,,,,,,,,sub-014,1,random_dot,89.40127581892128,
left,left,0.0,0.0,0.0,right,0.0,4.820445938006742,,speed,space,7.057756964000873,,,,,,0.0,0.0,0.0,1.0,0.0,0.0,0.0,0.0,213.453253159998,,,,,,,,,213.44421981099003,214.2333058239892,215.0391795309988,215.0282216179912,215.0287081229908,215.0391795309988,215.0391795309988,215.0391795309988,,219.86876896298784,,,,,,,,,,,,,,,,,,,,,,,206.3555300999869,206.36700038598792,206.36700038598792,213.4343691499962,space,7.057756964000873,,right,0.0,4.820445938006742,,,,,sub-014,1,random_dot,89.40127581892128,
right,right,1.0,1.0,0.0,left,0.0,1.6149329040054,,speed,space,7.057756964000873,,,,,,0.0,0.0,0.0,1.0,0.0,1.0,1.0,1.0,219.87914076499877,,,,,,,,,219.86914488399637,221.06701939099003,221.87350555199373,221.86246273000145,221.8629422219965,221.87350555199373,221.87350555199373,221.87350555199373,,223.5016694369988,,,,,,,,,,,,,,,,,,,,,,,,,,,,,,left,0.0,1.6149329040054,,,,,sub-014,1,random_dot,89.40127581892128,
right,right,2.0,0.0,1.0,left,0.0,1.5507672849926166,,speed,space,7.057756964000873,,,,,,0.0,0.0,0.0,1.0,1.0,0.0,2.0,1.0,223.5129214069893,,,,,,,,,223.50212326899052,223.8529576180008,224.6536978219956,224.6436483469879,224.64419321299647,224.6536978219956,224.6536978219956,224.6536978219956,,226.21168943299563,,,,,,,,,,,,,,,,,,,,,,,,,,,,,,left,0.0,1.5507672849926166,,,,,sub-014,1,random_dot,89.40127581892128,
left,left,3.0,1.0,1.0,right,0.0,2.671478735996061,,speed,space,7.057756964000873,,,,,,0.0,0.0,0.0,1.0,1.0,1.0,3.0,0.0,226.22255893799596,,,,,,,,,226.21217280799465,226.31210720499803,227.12233868800104,227.1118157539895,227.1123026269925,227.12233868800104,227.12233868800104,227.12233868800104,,229.80135653899924,,,,,,,,,,,,,,,,,,,,,,,,,,,,,,right,0.0,2.671478735996061,,,,,sub-014,1,random_dot,89.40127581892128,
right,right,4.0,0.0,2.0,left,0.0,2.865131589991506,,speed,space,7.057756964000873,,,,,,0.0,0.0,0.0,1.0,2.0,0.0,4.0,1.0,229.81247994299335,,,,,,,,,229.801801677997,231.00203607899311,231.80544681799077,231.78647788499077,231.78690348999223,231.80544681799077,231.80544681799077,231.80544681799077,,234.69720784400124,,,,,,,,,,,,,,,,,,,,,,,,,,,,,,left,0.0,2.865131589991506,,,,,sub-014,1,random_dot,89.40127581892128,
left,left,5.0,1.0,2.0,right,0.0,2.832084241992561,,speed,space,7.057756964000873,,,,,,0.0,0.0,0.0,1.0,2.0,1.0,5.0,0.0,234.7090301579883,,,,,,,,,234.6977164879936,235.89634601699072,236.6924251189921,236.68065374999424,236.68113324099977,236.6924251189921,236.6924251189921,236.6924251189921,,239.52856832399263,,,,,,,,,,,,,,,,,,,,,,,,,,,,,,right,0.0,2.832084241992561,,,,,sub-014,1,random_dot,89.40127581892128,
right,right,6.0,0.0,3.0,right,1.0,6.733234387997072,,speed,space,7.057756964000873,,,,,,0.0,0.0,0.0,1.0,3.0,0.0,6.0,1.0,239.53906297399956,,,,,,,,,239.5291300359968,239.89308328100012,240.6934718720004,240.6778927819978,240.6785923599964,240.6934718720004,240.6934718720004,240.6934718720004,245.693705933998,247.44033086899435,,,,,,,,,,,,,,,,,,,,,,,,,,,,,,right,1.0,6.733234387997072,,,,,sub-014,1,random_dot,89.40127581892128,
left,left,7.0,1.0,3.0,left,1.0,4.377912486001151,,speed,space,7.057756964000873,,,,,,0.0,0.0,0.0,1.0,3.0,1.0,7.0,0.0,247.450954652988,,,,,,,,,247.44088642598945,247.78789479199625,248.5932747869956,248.5773593630001,248.57785384499584,248.5932747869956,248.5932747869956,248.5932747869956,,252.97578786799568,,,,,,,,,,,,,,,,,,,,,,,,,,,,,,left,1.0,4.377912486001151,,,,,sub-014,1,random_dot,89.40127581892128,
left,left,8.0,0.0,4.0,right,0.0,1.2241733039991232,,speed,space,7.057756964000873,,,,,,0.0,0.0,0.0,1.0,4.0,0.0,8.0,0.0,252.9862407589972,,,,,,,,,252.9762419829931,253.79338335400095,254.5933981709968,254.57951664600117,254.580035365987,254.5933981709968,254.5933981709968,254.5933981709968,,255.830139452999,,,,,,,,,,,,,,,,,,,,,,,,,,,,,,right,0.0,1.2241733039991232,,,,,sub-014,1,random_dot,89.40127581892128,
right,right,9.0,1.0,4.0,left,0.0,1.980517271993449,,speed,space,7.057756964000873,,,,,,0.0,0.0,0.0,1.0,4.0,1.0,9.0,1.0,255.83984794199927,,,,,,,,,255.8305843619892,255.9290847839875,256.73194073799823,256.720811991996,256.72135884799354,256.73194073799823,256.73194073799823,256.73194073799823,,258.7179381780006,,,,,,,,,,,,,,,,,,,,,,,,,,,,,,left,0.0,1.980517271993449,,,,,sub-014,1,random_dot,89.40127581892128,
right,right,10.0,0.0,5.0,right,1.0,2.009552692004945,,speed,space,7.057756964000873,,,,,,0.0,0.0,0.0,1.0,5.0,0.0,10.0,1.0,258.729181304996,,,,,,,,,258.7184692890005,259.91789796100056,260.7202934819943,260.7018968889897,260.70240972799365,260.7202934819943,260.7202934819943,260.7202934819943,,262.7413916579972,,,,,,,,,,,,,,,,,,,,,,,,,,,,,,right,1.0,2.009552692004945,,,,,sub-014,1,random_dot,89.40127581892128,
left,left,11.0,1.0,5.0,left,1.0,1.4225871300004655,,speed,space,7.057756964000873,,,,,,0.0,0.0,0.0,1.0,5.0,1.0,11.0,0.0,262.7513870799885,,,,,,,,,262.741850284001,263.5431495369994,264.3425862659933,264.33096905399,264.33167345498805,264.3425862659933,264.3425862659933,264.3425862659933,,265.7784197029978,,,,,,,,,,,,,,,,,,,,,,,,,,,,,,left,1.0,1.4225871300004655,,,,,sub-014,1,random_dot,89.40127581892128,
right,right,12.0,0.0,6.0,right,1.0,2.623310690993094,,speed,space,7.057756964000873,,,,,,0.0,0.0,0.0,1.0,6.0,0.0,12.0,1.0,265.7931334379973,,,,,,,,,265.7788623529923,266.59398423400125,267.39060871698894,267.37827432098857,267.3789674199943,267.39060871698894,267.39060871698894,267.39060871698894,,270.0183577849966,,,,,,,,,,,,,,,,,,,,,,,,,,,,,,right,1.0,2.623310690993094,,,,,sub-014,1,random_dot,89.40127581892128,
left,left,13.0,1.0,6.0,left,1.0,1.0320128219900653,,speed,space,7.057756964000873,,,,,,0.0,0.0,0.0,1.0,6.0,1.0,13.0,0.0,270.0303723939869,,,,,,,,,270.0189994809916,270.3635977550002,271.16438938799547,271.15231507598946,271.15302923899435,271.16438938799547,271.16438938799547,271.16438938799547,,272.2083563779888,,,,,,,,,,,,,,,,,,,,,,,,,,,,,,left,1.0,1.0320128219900653,,,,,sub-014,1,random_dot,89.40127581892128,
left,left,14.0,0.0,7.0,left,1.0,4.631346042995574,,speed,space,7.057756964000873,,,,,,0.0,0.0,0.0,1.0,7.0,0.0,14.0,0.0,272.21787267699256,,,,,,,,,272.2088100609981,272.5521768949984,273.35360430799483,273.34352691599634,273.3441546989925,273.35360430799483,273.35360430799483,273.35360430799483,,277.9962738789909,,,,,,,,,,,,,,,,,,,,,,,,,,,,,,left,1.0,4.631346042995574,,,,,sub-014,1,random_dot,89.40127581892128,
right,right,15.0,1.0,7.0,right,1.0,2.5962755660002586,,speed,space,7.057756964000873,,,,,,0.0,0.0,0.0,1.0,7.0,1.0,15.0,1.0,278.0058637529873,,,,,,,,,277.9967372559913,279.19300712599943,279.98959882398776,279.9781526359875,279.9787920939998,279.98959882398776,279.98959882398776,279.98959882398776,,282.6007250369876,,,,,,,,,,,,,,,,,,,,,,,,,,,,,,right,1.0,2.5962755660002586,,,,,sub-014,1,random_dot,89.40127581892128,
right,right,16.0,0.0,8.0,left,0.0,1.118696044999524,,speed,space,7.057756964000873,,,,,,0.0,0.0,0.0,1.0,8.0,0.0,16.0,1.0,282.6122825989878,,,,,,,,,282.6015085129912,282.9453358009923,283.7456355629984,283.7359148779942,283.73615152300044,283.7456355629984,283.7456355629984,283.7456355629984,,284.87547542899847,,,,,,,,,,,,,,,,,,,,,,,,,,,,,,left,0.0,1.118696044999524,,,,,sub-014,1,random_dot,89.40127581892128,
left,left,17.0,1.0,8.0,right,0.0,1.703534106985899,,speed,space,7.057756964000873,,,,,,0.0,0.0,0.0,1.0,8.0,1.0,17.0,0.0,284.88615597398893,,,,,,,,,284.87595163699007,284.99218049699266,285.786523000992,285.776946056998,285.7772899949923,285.786523000992,285.786523000992,285.786523000992,,287.500325246001,,,,,,,,,,,,,,,,,,,,,,,,,,,,,,right,0.0,1.703534106985899,,,,,sub-014,1,random_dot,89.40127581892128,
right,right,18.0,0.0,9.0,left,0.0,1.5972698900004616,,speed,space,7.057756964000873,,,,,,0.0,0.0,0.0,1.0,9.0,0.0,18.0,1.0,287.5114134030009,,,,,,,,,287.50083287600137,287.60237607499585,288.4064097549999,288.3944517810014,288.3951520929986,288.4064097549999,288.4064097549999,288.4064097549999,,290.0077551860013,,,,,,,,,,,,,,,,,,,,,,,,,,,,,,left,0.0,1.5972698900004616,,,,,sub-014,1,random_dot,89.40127581892128,
left,left,19.0,1.0,9.0,left,1.0,1.6030347579944646,,speed,space,7.057756964000873,,,,,,0.0,0.0,0.0,1.0,9.0,1.0,19.0,0.0,290.023632010998,,,,,,,,,290.00820877098886,290.3769814650004,291.1718463399884,291.1613277699944,291.16180932099815,291.1718463399884,291.1718463399884,291.1718463399884,,292.7964563409914,,,,,,,,,,,,,,,,,,,,,,,,,,,,,,left,1.0,1.6030347579944646,,,,,sub-014,1,random_dot,89.40127581892128,
right,right,20.0,0.0,10.0,left,0.0,3.576195117988391,,speed,space,7.057756964000873,,,,,,0.0,0.0,0.0,1.0,10.0,0.0,20.0,1.0,292.808190279,,,,,,,,,292.7972154349991,293.14473217498744,293.9427949739911,293.9286243559909,293.9290483289951,293.9427949739911,293.9427949739911,293.9427949739911,,297.5238248839887,,,,,,,,,,,,,,,,,,,,,,,,,,,,,,left,0.0,3.576195117988391,,,,,sub-014,1,random_dot,89.40127581892128,
left,left,21.0,1.0,10.0,right,0.0,3.1380897850031038,,speed,space,7.057756964000873,,,,,,0.0,0.0,0.0,1.0,10.0,1.0,21.0,0.0,297.5337925389904,,,,,,,,,297.52456010499736,297.8677777839912,298.66279990799376,298.6523042199988,298.65300256099727,298.66279990799376,298.66279990799376,298.66279990799376,,301.81629540798895,,,,,,,,,,,,,,,,,,,,,,,,,,,,,,right,0.0,3.1380897850031038,,,,,sub-014,1,random_dot,89.40127581892128,
right,right,22.0,0.0,11.0,left,0.0,8.04217742900073,,speed,space,7.057756964000873,,,,,,0.0,0.0,0.0,1.0,11.0,0.0,22.0,1.0,301.8329234759876,,,,,,,,,301.8168280559912,302.1684124099993,302.96386554698984,302.95245243598765,302.9531504469924,302.96386554698984,302.96386554698984,302.96386554698984,307.94748515098763,311.0177547380008,,,,,,,,,,,,,,,,,,,,,,,,,,,,,,left,0.0,8.04217742900073,,,,,sub-014,1,random_dot,89.40127581892128,
left,left,23.0,1.0,11.0,right,0.0,3.152857357999892,,speed,space,7.057756964000873,,,,,,0.0,0.0,0.0,1.0,11.0,1.0,23.0,0.0,311.0295581919927,,,,,,,,,311.0182062219974,312.22032655098883,313.0262660929875,313.01432470099826,313.0150300759997,313.0262660929875,313.0262660929875,313.0262660929875,,316.190855347988,,,,,,,,,,,,,,,,,,,,,,,,,,,,,,right,0.0,3.152857357999892,,,,,sub-014,1,random_dot,89.40127581892128,
left,left,24.0,0.0,12.0,left,1.0,1.0457664480054518,,speed,space,7.057756964000873,,,,,,0.0,0.0,0.0,1.0,12.0,0.0,24.0,0.0,316.2007809309871,,,,,,,,,316.1913094819902,316.98642209600075,317.788066395995,317.77733727300074,317.77781106998737,317.788066395995,317.788066395995,317.788066395995,,318.8478683249996,,,,,,,,,,,,,,,,,,,,,,,,,,,,,,left,1.0,1.0457664480054518,,,,,sub-014,1,random_dot,89.40127581892128,
right,right,25.0,1.0,12.0,right,1.0,2.8592215230019065,,speed,space,7.057756964000873,,,,,,0.0,0.0,0.0,1.0,12.0,1.0,25.0,1.0,318.8591894779965,,,,,,,,,318.848399961993,319.20165680898936,320.0028230389871,319.9926105719933,319.9932026079914,320.0028230389871,320.0028230389871,320.0028230389871,,322.8738720139954,,,,,,,,,,,,,,,,,,,,,,,,,,,,,,right,1.0,2.8592215230019065,,,,,sub-014,1,random_dot,89.40127581892128,
right,right,26.0,0.0,13.0,left,0.0,3.4402683799999068,,speed,space,7.057756964000873,,,,,,0.0,0.0,0.0,1.0,13.0,0.0,26.0,1.0,322.8829494709935,,,,,,,,,322.87433064199286,322.9682310849894,323.7642366789951,323.752918497994,323.753634830995,323.7642366789951,323.7642366789951,323.7642366789951,,327.21139357799257,,,,,,,,,,,,,,,,,,,,,,,,,,,,,,left,0.0,3.4402683799999068,,,,,sub-014,1,random_dot,89.40127581892128,
left,left,27.0,1.0,13.0,right,0.0,1.11440426199988,,speed,space,7.057756964000873,,,,,,0.0,0.0,0.0,1.0,13.0,1.0,27.0,0.0,327.2208504299924,,,,,,,,,327.2118597719964,327.56842771598895,328.37555274399347,328.3626288189989,328.3633315009938,328.37555274399347,328.37555274399347,328.37555274399347,,329.5028832669923,,,,,,,,,,,,,,,,,,,,,,,,,,,,,,right,0.0,1.11440426199988,,,,,sub-014,1,random_dot,89.40127581892128,
right,right,28.0,0.0,14.0,left,0.0,1.061139387995354,,speed,space,7.057756964000873,,,,,,0.0,0.0,0.0,1.0,14.0,0.0,28.0,1.0,329.5143404769915,,,,,,,,,329.5035620109993,329.87654769499204,330.68027609300043,330.6675837649964,330.6680515159969,330.68027609300043,330.68027609300043,330.68027609300043,,331.746984161,,,,,,,,,,,,,,,,,,,,,,,,,,,,,,left,0.0,1.061139387995354,,,,,sub-014,1,random_dot,89.40127581892128,
left,left,29.0,1.0,14.0,right,0.0,2.085553002994857,,speed,space,7.057756964000873,,,,,,0.0,0.0,0.0,1.0,14.0,1.0,29.0,0.0,331.75601358398853,,,,,,,,,331.7474503979902,332.94066479698813,333.75849319199915,333.743402453998,333.7441087979969,333.75849319199915,333.75849319199915,333.75849319199915,,335.8517654419993,,,,,,,,,,,,,,,,,,,,,,,,,,,,,,right,0.0,2.085553002994857,,,,,sub-014,1,random_dot,89.40127581892128,
right,right,30.0,0.0,15.0,left,0.0,0.8959556589979911,,speed,space,7.057756964000873,,,,,,0.0,0.0,0.0,1.0,15.0,0.0,30.0,1.0,335.8617747259996,,,,,,,,,335.85229320600047,336.64478828999563,337.4468811949919,337.4357022829936,337.43621560798783,337.4468811949919,337.4468811949919,337.4468811949919,,338.3497919259971,,,,,,,,,,,,,,,,,,,,,,,,,,,,,,left,0.0,0.8959556589979911,,,,,sub-014,1,random_dot,89.40127581892128,
left,left,31.0,1.0,15.0,left,1.0,0.9557280430017272,,speed,space,7.057756964000873,,,,,,0.0,0.0,0.0,1.0,15.0,1.0,31.0,0.0,338.36047820799286,,,,,,,,,338.3502408130007,338.70155000899103,339.50453488698986,339.4941271139978,339.49482333799824,339.50453488698986,339.50453488698986,339.50453488698986,,340.47625478499685,,,,,,,,,,,,,,,,,,,,,,,,,,,,,,left,1.0,0.9557280430017272,,,,,sub-014,1,random_dot,89.40127581892128,
right,right,32.0,0.0,16.0,left,0.0,1.1132013750029728,,speed,space,7.057756964000873,,,,,,0.0,0.0,0.0,1.0,16.0,0.0,32.0,1.0,340.4836562029959,,,,,,,,,340.4768832779955,340.5750441079872,341.3731782209943,341.3619520099892,341.3624334289925,341.3731782209943,341.3731782209943,341.3731782209943,,342.4998289649957,,,,,,,,,,,,,,,,,,,,,,,,,,,,,,left,0.0,1.1132013750029728,,,,,sub-014,1,random_dot,89.40127581892128,
left,left,33.0,1.0,16.0,right,0.0,2.872690242002136,,speed,space,7.057756964000873,,,,,,0.0,0.0,0.0,1.0,16.0,1.0,33.0,0.0,342.5116054099926,,,,,,,,,342.5002800069924,343.2909925569984,344.0874360099988,344.07654323599127,344.07703034899896,344.0874360099988,344.0874360099988,344.0874360099988,,346.977259856998,,,,,,,,,,,,,,,,,,,,,,,,,,,,,,right,0.0,2.872690242002136,,,,,sub-014,1,random_dot,89.40127581892128,
right,right,34.0,0.0,17.0,left,0.0,4.31651211999997,,speed,space,7.057756964000873,,,,,,0.0,0.0,0.0,1.0,17.0,0.0,34.0,1.0,346.9845593289938,,,,,,,,,346.9777402389882,347.07670541098923,347.8735338799888,347.8618696919875,347.8624023089942,347.8735338799888,347.8735338799888,347.8735338799888,,352.2019015319965,,,,,,,,,,,,,,,,,,,,,,,,,,,,,,left,0.0,4.31651211999997,,,,,sub-014,1,random_dot,89.40127581892128,
left,left,35.0,1.0,17.0,right,0.0,3.3858139910007594,,speed,space,7.057756964000873,,,,,,0.0,0.0,0.0,1.0,17.0,1.0,35.0,0.0,352.21272902899364,,,,,,,,,352.2024580819998,353.40927475198987,354.2213109209988,354.2108075589931,354.2113010350004,354.2213109209988,354.2213109209988,354.2213109209988,,357.6193349209934,,,,,,,,,,,,,,,,,,,,,,,,,,,,,,right,0.0,3.3858139910007594,,,,,sub-014,1,random_dot,89.40127581892128,
left,left,36.0,0.0,18.0,right,0.0,5.596432680002181,,speed,space,7.057756964000873,,,,,,0.0,0.0,0.0,1.0,18.0,0.0,36.0,0.0,357.6289464149886,,,,,,,,,357.6200274430012,357.7278809409909,358.5322243059927,358.52116588898934,358.5217294689937,358.5322243059927,358.5322243059927,358.5322243059927,363.525155987998,364.1332131089876,,,,,,,,,,,,,,,,,,,,,,,,,,,,,,right,0.0,5.596432680002181,,,,,sub-014,1,random_dot,89.40127581892128,
right,right,37.0,1.0,18.0,left,0.0,6.629168702987954,,speed,space,7.057756964000873,,,,,,0.0,0.0,0.0,1.0,18.0,1.0,37.0,1.0,364.1452275119955,,,,,,,,,364.1337560079992,365.3351099769934,366.1314255229954,366.1193647639884,366.1201073419943,366.1314255229954,366.1314255229954,366.1314255229954,371.1249301450007,372.7672617779899,,,,,,,,,,,,,,,,,,,,,,,,,,,,,,left,0.0,6.629168702987954,,,,,sub-014,1,random_dot,89.40127581892128,
right,right,38.0,0.0,19.0,left,0.0,5.459469517998514,,speed,space,7.057756964000873,,,,,,0.0,0.0,0.0,1.0,19.0,0.0,38.0,1.0,372.7789986689895,,,,,,,,,372.76773163399776,373.1200498029939,373.9413658459962,373.9136055589916,373.9143181219988,373.9413658459962,373.9413658459962,373.9413658459962,378.91234067799815,379.40537719998974,,,,,,,,,,,,,,,,,,,,,,,,,,,,,,left,0.0,5.459469517998514,,,,,sub-014,1,random_dot,89.40127581892128,
left,left,39.0,1.0,19.0,left,1.0,1.2568260669941085,,speed,space,7.057756964000873,,,,,,0.0,0.0,0.0,1.0,19.0,1.0,39.0,0.0,379.41586433899647,,,,,,,,,379.4062051929941,379.75871551199816,380.5746617029945,380.5499316959904,380.5503727999894,380.5746617029945,380.5746617029945,380.5746617029945,,381.84033519998775,,,,,,,,,,,,,,,,,,,,,,,,,,,,,,left,1.0,1.2568260669941085,,,,,sub-014,1,random_dot,89.40127581892128,
right,right,40.0,0.0,20.0,right,1.0,1.198310510997544,,speed,space,7.057756964000873,,,,,,0.0,0.0,0.0,1.0,20.0,0.0,40.0,1.0,381.8497527879954,,,,,,,,,381.8408331649989,382.1846706629876,382.9855737819889,382.97538692399394,382.9758215759939,382.9855737819889,382.9855737819889,382.9855737819889,,384.1937216779916,,,,,,,,,,,,,,,,,,,,,,,,,,,,,,right,1.0,1.198310510997544,,,,,sub-014,1,random_dot,89.40127581892128,
left,left,41.0,1.0,20.0,left,1.0,4.21597294100502,,speed,space,7.057756964000873,,,,,,0.0,0.0,0.0,1.0,20.0,1.0,41.0,0.0,384.207988174996,,,,,,,,,384.19422709698847,384.54430867799965,385.34668085999147,385.3350068169966,385.33575880799617,385.34668085999147,385.34668085999147,385.34668085999147,,389.5771761139913,,,,,,,,,,,,,,,,,,,,,,,,,,,,,,left,1.0,4.21597294100502,,,,,sub-014,1,random_dot,89.40127581892128,
right,right,42.0,0.0,21.0,left,0.0,5.568130539002596,,speed,space,7.057756964000873,,,,,,0.0,0.0,0.0,1.0,21.0,0.0,42.0,1.0,389.58736641699215,,,,,,,,,389.5776382789918,389.9273194099951,390.7254395139898,390.7139325199969,390.7144133010006,390.7254395139898,390.7254395139898,390.7254395139898,395.7073810820002,396.310230174,,,,,,,,,,,,,,,,,,,,,,,,,,,,,,left,0.0,5.568130539002596,,,,,sub-014,1,random_dot,89.40127581892128,
left,left,43.0,1.0,21.0,left,1.0,1.0290668699890375,,speed,space,7.057756964000873,,,,,,0.0,0.0,0.0,1.0,21.0,1.0,43.0,0.0,396.3213133120007,,,,,,,,,396.31068439599767,397.50924339199264,398.3146029119962,398.301926671993,398.30290222199983,398.3146029119962,398.3146029119962,398.3146029119962,,399.3492219740001,,,,,,,,,,,,,,,,,,,,,,,,,,,,,,left,1.0,1.0290668699890375,,,,,sub-014,1,random_dot,89.40127581892128,
left,left,44.0,0.0,22.0,right,0.0,4.117497533006826,,speed,space,7.057756964000873,,,,,,0.0,0.0,0.0,1.0,22.0,0.0,44.0,0.0,399.3614056889928,,,,,,,,,399.34968775499146,400.5491637489904,401.3563515459973,401.34367788500094,401.3441585549881,401.3563515459973,401.3563515459973,401.3563515459973,,405.4792512349959,,,,,,,,,,,,,,,,,,,,,,,,,,,,,,right,0.0,4.117497533006826,,,,,sub-014,1,random_dot,89.40127581892128,
right,right,45.0,1.0,22.0,left,0.0,2.011851611008751,,speed,space,7.057756964000873,,,,,,0.0,0.0,0.0,1.0,22.0,1.0,45.0,1.0,405.48943771299673,,,,,,,,,405.47971260799386,405.8337944349914,406.65756254599546,406.64250399699085,406.6432020559878,406.65756254599546,406.65756254599546,406.65756254599546,,408.6772499739891,,,,,,,,,,,,,,,,,,,,,,,,,,,,,,left,0.0,2.011851611008751,,,,,sub-014,1,random_dot,89.40127581892128,
left,left,46.0,0.0,23.0,left,1.0,4.4031953500089,,speed,space,7.057756964000873,,,,,,0.0,0.0,0.0,1.0,23.0,0.0,46.0,0.0,408.68790371999785,,,,,,,,,408.6776922939898,409.03361170899007,409.8376921829913,409.8265613439871,409.8270552329923,409.8376921829913,409.8376921829913,409.8376921829913,,414.245640825,,,,,,,,,,,,,,,,,,,,,,,,,,,,,,left,1.0,4.4031953500089,,,,,sub-014,1,random_dot,89.40127581892128,
right,right,47.0,1.0,23.0,right,1.0,4.270349355996586,,speed,space,7.057756964000873,,,,,,0.0,0.0,0.0,1.0,23.0,1.0,47.0,1.0,414.2565400379972,,,,,,,,,414.2461028989928,415.057818301997,415.8519707659871,415.8416131080012,415.8421040190005,415.8519707659871,415.8519707659871,415.8519707659871,,420.1280819699896,,,,,,,,,,,,,,,,,,,,,,,,,,,,,,right,1.0,4.270349355996586,,,,,sub-014,1,random_dot,89.40127581892128,
left,left,48.0,0.0,24.0,left,1.0,4.0934966019995045,,speed,space,7.057756964000873,,,,,,0.0,0.0,0.0,1.0,24.0,0.0,48.0,0.0,420.13788870099233,,,,,,,,,420.1285343459895,420.4789263679995,421.2804237269884,421.2682628219918,421.2688187749882,421.2804237269884,421.2804237269884,421.2804237269884,,425.38327967999794,,,,,,,,,,,,,,,,,,,,,,,,,,,,,,left,1.0,4.0934966019995045,,,,,sub-014,1,random_dot,89.40127581892128,
right,right,49.0,1.0,24.0,left,0.0,5.940537806993234,,speed,space,7.057756964000873,,,,,,0.0,0.0,0.0,1.0,24.0,1.0,49.0,1.0,425.39458598199417,,,,,,,,,425.3836439049919,426.1824549399898,426.9812956009992,426.96971446099633,426.9701956939971,426.9812956009992,426.9812956009992,426.9812956009992,431.9670615069917,432.9279404650006,,,,,,,,,,,,,,,,,,,,,,,,,,,,,,left,0.0,5.940537806993234,,,,,sub-014,1,random_dot,89.40127581892128,
left,left,50.0,0.0,25.0,right,0.0,4.547908752996591,,speed,space,7.057756964000873,,,,,,0.0,0.0,0.0,1.0,25.0,0.0,50.0,0.0,432.939205001996,,,,,,,,,432.9283963199996,433.2732425119903,434.0745469579997,434.0631189739943,434.0637219549972,434.0745469579997,434.0745469579997,434.0745469579997,,438.6297686369944,,,,,,,,,,,,,,,,,,,,,,,,,,,,,,right,0.0,4.547908752996591,,,,,sub-014,1,random_dot,89.40127581892128,
right,right,51.0,1.0,25.0,right,1.0,2.223564932995941,,speed,space,7.057756964000873,,,,,,0.0,0.0,0.0,1.0,25.0,1.0,51.0,1.0,438.6405598239944,,,,,,,,,438.630211990996,438.9762653189973,439.7802539439872,439.768166119,439.7691770449892,439.7802539439872,439.7802539439872,439.7802539439872,,442.0215783289896,,,,,,,,,,,,,,,,,,,,,,,,,,,,,,right,1.0,2.223564932995941,,,,,sub-014,1,random_dot,89.40127581892128,
right,right,52.0,0.0,26.0,left,0.0,4.099350085001788,,speed,space,7.057756964000873,,,,,,0.0,0.0,0.0,1.0,26.0,0.0,52.0,1.0,442.031751218994,,,,,,,,,442.0220936019905,442.1175148389884,442.9219711069891,442.90998300298816,442.9106773179956,442.9219711069891,442.9219711069891,442.9219711069891,,447.0337391409994,,,,,,,,,,,,,,,,,,,,,,,,,,,,,,left,0.0,4.099350085001788,,,,,sub-014,1,random_dot,89.40127581892128,
left,left,53.0,1.0,26.0,left,1.0,2.296567487996072,,speed,space,7.057756964000873,,,,,,0.0,0.0,0.0,1.0,26.0,1.0,53.0,0.0,447.04426561699074,,,,,,,,,447.0342010489985,447.83254603800015,448.6322638089914,448.6199591999903,448.6207836510002,448.6322638089914,448.6322638089914,448.6322638089914,,450.93935256999976,,,,,,,,,,,,,,,,,,,,,,,,,,,,,,left,1.0,2.296567487996072,,,,,sub-014,1,random_dot,89.40127581892128,
left,left,54.0,0.0,27.0,right,0.0,4.748541547000059,,speed,space,7.057756964000873,,,,,,0.0,0.0,0.0,1.0,27.0,0.0,54.0,0.0,450.9487394189928,,,,,,,,,450.9398096389923,451.7406595009961,452.5410020729905,452.52924192098726,452.52971992899256,452.5410020729905,452.5410020729905,452.5410020729905,,457.2997238120006,,,,,,,,,,,,,,,,,,,,,,,,,,,,,,right,0.0,4.748541547000059,,,,,sub-014,1,random_dot,89.40127581892128,
right,right,55.0,1.0,27.0,left,0.0,3.624910179991275,,speed,space,7.057756964000873,,,,,,0.0,0.0,0.0,1.0,27.0,1.0,55.0,1.0,457.3105669629877,,,,,,,,,457.30016264200094,458.1073616119975,458.903626239,458.8924566450005,458.8929449869902,458.903626239,458.903626239,458.903626239,,462.5320194029919,,,,,,,,,,,,,,,,,,,,,,,,,,,,,,left,0.0,3.624910179991275,,,,,sub-014,1,random_dot,89.40127581892128,
right,right,56.0,0.0,28.0,left,0.0,1.5534714620007437,,speed,space,7.057756964000873,,,,,,0.0,0.0,0.0,1.0,28.0,0.0,56.0,1.0,462.54361953899206,,,,,,,,,462.5326992969931,462.8761843809916,463.6774185609975,463.66592589300126,463.66632963599113,463.6774185609975,463.6774185609975,463.6774185609975,,465.24422993700136,,,,,,,,,,,,,,,,,,,,,,,,,,,,,,left,0.0,1.5534714620007437,,,,,sub-014,1,random_dot,89.40127581892128,
left,left,57.0,1.0,28.0,right,0.0,5.259414259999176,,speed,space,7.057756964000873,,,,,,0.0,0.0,0.0,1.0,28.0,1.0,57.0,0.0,465.2547323839972,,,,,,,,,465.244666034996,465.342845096995,466.1447427959938,466.1338829359884,466.1344436949876,466.1447427959938,466.1447427959938,466.1447427959938,471.1404462999926,471.4156071069883,,,,,,,,,,,,,,,,,,,,,,,,,,,,,,right,0.0,5.259414259999176,,,,,sub-014,1,random_dot,89.40127581892128,
left,left,58.0,0.0,29.0,left,1.0,1.8158164599881277,,speed,space,7.057756964000873,,,,,,0.0,0.0,0.0,1.0,29.0,0.0,58.0,0.0,471.4277639840002,,,,,,,,,471.4160556089919,472.2187137439905,473.0220882789872,473.00971674099856,473.0104220939975,473.0220882789872,473.0220882789872,473.0220882789872,,474.8431993409904,,,,,,,,,,,,,,,,,,,,,,,,,,,,,,left,1.0,1.8158164599881277,,,,,sub-014,1,random_dot,89.40127581892128,
right,right,59.0,1.0,29.0,left,0.0,5.734612003012444,,speed,space,7.057756964000873,,,,,,0.0,0.0,0.0,1.0,29.0,1.0,59.0,1.0,474.852419457995,,,,,,,,,474.843574278988,475.64072018899606,476.4406773669907,476.4274546309898,476.4279292629944,476.4406773669907,476.4406773669907,476.4406773669907,481.42201429199486,482.186247990001,,,,,,,,,,,,,,,,,,,,,,,,,,,,,,left,0.0,5.734612003012444,,,,,sub-014,1,random_dot,89.40127581892128,
,,0.0,0.0,0.0,,,,,speed,space,7.057756964000873,,,,,,0.0,0.0,0.0,1.0,,,,,,,,,,,,,,,,,,,,,,,,,,,,,,,,,,,,,,,,,,,,,,,,,,,,,,,,,,,,sub-014,1,random_dot,89.40127581892128,
left,left,0.0,0.0,0.0,left,1.0,4.751103133996367,,accuracy,space,8.25255350599764,,,,,,0.0,1.0,1.0,0.0,0.0,0.0,0.0,0.0,490.4994794199884,,,,,,,,,490.4894007919938,491.6828684649954,492.486926336991,492.4754421519901,492.4761539129977,492.486926336991,492.486926336991,492.486926336991,,497.24309657399135,,,,,,,,,,,,,,,,,,,,,,,482.2114372639917,482.2217101409915,482.2217101409915,490.4795159599889,space,8.25255350599764,,left,1.0,4.751103133996367,,,,,sub-014,1,random_dot,89.40127581892128,
right,right,1.0,1.0,0.0,right,1.0,4.459577656001784,,accuracy,space,8.25255350599764,,,,,,0.0,1.0,1.0,0.0,0.0,1.0,1.0,1.0,497.2568130199943,,,,,,,,,497.2435775490012,497.33883290000085,498.1358053289878,498.1251190299954,498.12560192198725,498.1358053289878,498.1358053289878,498.1358053289878,,502.6008680989908,,,,,,,,,,,,,,,,,,,,,,,,,,,,,,right,1.0,4.459577656001784,,,,,sub-014,1,random_dot,89.40127581892128,
left,left,2.0,0.0,1.0,left,1.0,6.286911408999004,,accuracy,space,8.25255350599764,,,,,,0.0,1.0,1.0,0.0,1.0,0.0,2.0,0.0,502.6113510659925,,,,,,,,,502.6015493649902,502.9576660829917,503.751061485993,503.74093354700017,503.74136170400016,503.751061485993,503.751061485993,503.751061485993,508.7485256439977,510.0494630359899,,,,,,,,,,,,,,,,,,,,,,,,,,,,,,left,1.0,6.286911408999004,,,,,sub-014,1,random_dot,89.40127581892128,
right,right,3.0,1.0,1.0,left,0.0,4.430167950995383,,accuracy,space,8.25255350599764,,,,,,0.0,1.0,1.0,0.0,1.0,1.0,3.0,1.0,510.0605519230012,,,,,,,,,510.0499708809948,510.1519250949932,510.9547963399964,510.9420648879896,510.94276884799183,510.9547963399964,510.9547963399964,510.9547963399964,,515.3977680479875,,,,,,,,,,,,,,,,,,,,,,,,,,,,,,left,0.0,4.430167950995383,,,,,sub-014,1,random_dot,89.40127581892128,
left,left,4.0,0.0,2.0,left,1.0,2.895174759993097,,accuracy,space,8.25255350599764,,,,,,0.0,1.0,1.0,0.0,2.0,0.0,4.0,0.0,515.4101638119901,,,,,,,,,515.3982988950011,515.7562970979925,516.5561678789963,516.5407076759875,516.5414087300014,516.5561678789963,516.5561678789963,516.5561678789963,,519.455555633991,,,,,,,,,,,,,,,,,,,,,,,,,,,,,,left,1.0,2.895174759993097,,,,,sub-014,1,random_dot,89.40127581892128,
right,right,5.0,1.0,2.0,right,1.0,1.23537206799665,,accuracy,space,8.25255350599764,,,,,,0.0,1.0,1.0,0.0,2.0,1.0,5.0,1.0,519.4665172489913,,,,,,,,,519.4561121750012,520.6565836859954,521.4537802069972,521.4423470109905,521.4428121859964,521.4537802069972,521.4537802069972,521.4537802069972,,522.6930711739988,,,,,,,,,,,,,,,,,,,,,,,,,,,,,,right,1.0,1.23537206799665,,,,,sub-014,1,random_dot,89.40127581892128,
right,right,6.0,0.0,3.0,left,0.0,4.27489701200102,,accuracy,space,8.25255350599764,,,,,,0.0,1.0,1.0,0.0,3.0,0.0,6.0,1.0,522.7041129949939,,,,,,,,,522.6935404039978,522.788513913998,523.6060906229977,523.5907479199959,523.5914943209937,523.6060906229977,523.6060906229977,523.6060906229977,,527.885461111,,,,,,,,,,,,,,,,,,,,,,,,,,,,,,left,0.0,4.27489701200102,,,,,sub-014,1,random_dot,89.40127581892128,
left,left,7.0,1.0,3.0,left,1.0,2.5857153730030404,,accuracy,space,8.25255350599764,,,,,,0.0,1.0,1.0,0.0,3.0,1.0,7.0,0.0,527.896108306988,,,,,,,,,527.88614610699,528.6805077229947,529.4843769189902,529.4738607769978,529.4743316849926,529.4843769189902,529.4843769189902,529.4843769189902,,532.0768312919972,,,,,,,,,,,,,,,,,,,,,,,,,,,,,,left,1.0,2.5857153730030404,,,,,sub-014,1,random_dot,89.40127581892128,
left,left,8.0,0.0,4.0,left,1.0,5.81233898899518,,accuracy,space,8.25255350599764,,,,,,0.0,1.0,1.0,0.0,4.0,0.0,8.0,0.0,532.0881363259978,,,,,,,,,532.077277127988,533.2749286519975,534.0774514889927,534.066262509994,534.0668706989964,534.0774514889927,534.0774514889927,534.0774514889927,539.0644246969896,539.8975032109884,,,,,,,,,,,,,,,,,,,,,,,,,,,,,,left,1.0,5.81233898899518,,,,,sub-014,1,random_dot,89.40127581892128,
right,right,9.0,1.0,4.0,right,1.0,4.196616257002461,,accuracy,space,8.25255350599764,,,,,,0.0,1.0,1.0,0.0,4.0,1.0,9.0,1.0,539.9099901459995,,,,,,,,,539.8979574369878,540.0065323159943,540.8054440889973,540.7934318529879,540.7941236439947,540.8054440889973,540.8054440889973,540.8054440889973,,545.0095012569946,,,,,,,,,,,,,,,,,,,,,,,,,,,,,,right,1.0,4.196616257002461,,,,,sub-014,1,random_dot,89.40127581892128,
right,right,10.0,0.0,5.0,right,1.0,4.69848424900556,,accuracy,space,8.25255350599764,,,,,,0.0,1.0,1.0,0.0,5.0,0.0,10.0,1.0,545.0208366109873,,,,,,,,,545.0099780669989,545.8049677579984,546.6064181059919,546.5903423029959,546.59103640799,546.6064181059919,546.6064181059919,546.6064181059919,,551.314224693997,,,,,,,,,,,,,,,,,,,,,,,,,,,,,,right,1.0,4.69848424900556,,,,,sub-014,1,random_dot,89.40127581892128,
left,left,11.0,1.0,5.0,left,1.0,4.302821145000053,,accuracy,space,8.25255350599764,,,,,,0.0,1.0,1.0,0.0,5.0,1.0,11.0,0.0,551.3270228809997,,,,,,,,,551.3147114629974,552.1156468339905,552.9204582089878,552.9079981449904,552.9086875369976,552.9204582089878,552.9204582089878,552.9204582089878,,557.2287250619993,,,,,,,,,,,,,,,,,,,,,,,,,,,,,,left,1.0,4.302821145000053,,,,,sub-014,1,random_dot,89.40127581892128,
left,left,12.0,0.0,6.0,left,1.0,4.996586683002533,,accuracy,space,8.25255350599764,,,,,,0.0,1.0,1.0,0.0,6.0,0.0,12.0,0.0,557.2381882139889,,,,,,,,,557.2290986949956,557.3319588379964,558.1331141879928,558.1233745950012,558.1239511339954,558.1331141879928,558.1331141879928,558.1331141879928,563.1161737519869,563.1411767709942,,,,,,,,,,,,,,,,,,,,,,,,,,,,,,left,1.0,4.996586683002533,,,,,sub-014,1,random_dot,89.40127581892128,
right,right,13.0,1.0,6.0,right,1.0,0.8343254789942876,,accuracy,space,8.25255350599764,,,,,,0.0,1.0,1.0,0.0,6.0,1.0,13.0,1.0,563.1508840269962,,,,,,,,,563.1416603049875,564.3412216610013,565.1445369529974,565.1327541109931,565.1332962960005,565.1445369529974,565.1445369529974,565.1445369529974,,565.9913935309887,,,,,,,,,,,,,,,,,,,,,,,,,,,,,,right,1.0,0.8343254789942876,,,,,sub-014,1,random_dot,89.40127581892128,
right,right,14.0,0.0,7.0,right,1.0,1.4931806189997587,,accuracy,space,8.25255350599764,,,,,,0.0,1.0,1.0,0.0,7.0,0.0,14.0,1.0,566.0043707669975,,,,,,,,,565.9918691999919,566.3393688379874,567.134066721992,567.123738476992,567.1242484149989,567.134066721992,567.134066721992,567.134066721992,,568.6376877889998,,,,,,,,,,,,,,,,,,,,,,,,,,,,,,right,1.0,1.4931806189997587,,,,,sub-014,1,random_dot,89.40127581892128,
left,left,15.0,1.0,7.0,left,1.0,1.0770967729913536,,accuracy,space,8.25255350599764,,,,,,0.0,1.0,1.0,0.0,7.0,1.0,15.0,0.0,568.6468728920008,,,,,,,,,568.6381469159969,568.7299277179991,569.528352149995,569.5163343109889,569.5169367089984,569.528352149995,569.528352149995,569.528352149995,,570.6172109699983,,,,,,,,,,,,,,,,,,,,,,,,,,,,,,left,1.0,1.0770967729913536,,,,,sub-014,1,random_dot,89.40127581892128,
right,right,16.0,0.0,8.0,right,1.0,4.200132308003958,,accuracy,space,8.25255350599764,,,,,,0.0,1.0,1.0,0.0,8.0,0.0,16.0,1.0,570.6270950409962,,,,,,,,,570.6176811079931,571.8143074399995,572.6222180839977,572.6067553530011,572.6074201529991,572.6222180839977,572.6222180839977,572.6222180839977,,576.8521292789956,,,,,,,,,,,,,,,,,,,,,,,,,,,,,,right,1.0,4.200132308003958,,,,,sub-014,1,random_dot,89.40127581892128,
left,left,17.0,1.0,8.0,left,1.0,4.972602107998682,,accuracy,space,8.25255350599764,,,,,,0.0,1.0,1.0,0.0,8.0,1.0,17.0,0.0,576.8755299429904,,,,,,,,,576.8528445819975,577.6723961819953,578.4768156130012,578.4654362059955,578.4658134859928,578.4768156130012,578.4768156130012,578.4768156130012,583.5077384169999,583.4750422270008,,,,,,,,,,,,,,,,,,,,,,,,,,,,,,left,1.0,4.972602107998682,,,,,sub-014,1,random_dot,89.40127581892128,
left,left,18.0,0.0,9.0,right,0.0,2.885236290996545,,accuracy,space,8.25255350599764,,,,,,0.0,1.0,1.0,0.0,9.0,0.0,18.0,0.0,583.5077384169999,,,,,,,,,583.475498210988,583.8379374489887,584.6350780520006,584.6240240719926,584.624539735989,584.6350780520006,584.6350780520006,584.6350780520006,,587.5317060909874,,,,,,,,,,,,,,,,,,,,,,,,,,,,,,right,0.0,2.885236290996545,,,,,sub-014,1,random_dot,89.40127581892128,
right,right,19.0,1.0,9.0,right,1.0,3.387293185995077,,accuracy,space,8.25255350599764,,,,,,0.0,1.0,1.0,0.0,9.0,1.0,19.0,1.0,587.5425197769946,,,,,,,,,587.5321751919982,587.8785432199948,588.6774060019961,588.6660221349885,588.6667614259932,588.6774060019961,588.6774060019961,588.6774060019961,,592.0760874080006,,,,,,,,,,,,,,,,,,,,,,,,,,,,,,right,1.0,3.387293185995077,,,,,sub-014,1,random_dot,89.40127581892128,
left,left,20.0,0.0,10.0,left,1.0,1.0137952770019183,,accuracy,space,8.25255350599764,,,,,,0.0,1.0,1.0,0.0,10.0,0.0,20.0,0.0,592.0853275069967,,,,,,,,,592.0764463809901,592.8801455389912,593.6854575589969,593.6740908159991,593.6745103389985,593.6854575589969,593.6854575589969,593.6854575589969,,594.7079611759982,,,,,,,,,,,,,,,,,,,,,,,,,,,,,,left,1.0,1.0137952770019183,,,,,sub-014,1,random_dot,89.40127581892128,
right,right,21.0,1.0,10.0,right,1.0,0.859396215993911,,accuracy,space,8.25255350599764,,,,,,0.0,1.0,1.0,0.0,10.0,1.0,21.0,1.0,594.717401914997,,,,,,,,,594.7084121769876,595.9157460829883,596.7204714249965,596.7094934219931,596.7099696439982,596.7204714249965,596.7204714249965,596.7204714249965,,597.591368355992,,,,,,,,,,,,,,,,,,,,,,,,,,,,,,right,1.0,0.859396215993911,,,,,sub-014,1,random_dot,89.40127581892128,
left,left,22.0,0.0,11.0,left,1.0,0.8073354670050321,,accuracy,space,8.25255350599764,,,,,,0.0,1.0,1.0,0.0,11.0,0.0,22.0,0.0,597.6017160679912,,,,,,,,,597.5918126039905,597.9412622550008,598.7379707149958,598.7268067049881,598.7272589529894,598.7379707149958,598.7379707149958,598.7379707149958,,599.5615966329933,,,,,,,,,,,,,,,,,,,,,,,,,,,,,,left,1.0,0.8073354670050321,,,,,sub-014,1,random_dot,89.40127581892128,
right,right,23.0,1.0,11.0,left,0.0,0.7735184100019978,,accuracy,space,8.25255350599764,,,,,,0.0,1.0,1.0,0.0,11.0,1.0,23.0,1.0,599.571689673001,,,,,,,,,599.5620512819878,600.7714810139878,601.5719669569953,601.557795531,601.558321887991,601.5719669569953,601.5719669569953,601.5719669569953,,602.3577319999895,,,,,,,,,,,,,,,,,,,,,,,,,,,,,,left,0.0,0.7735184100019978,,,,,sub-014,1,random_dot,89.40127581892128,
right,right,24.0,0.0,12.0,right,1.0,0.7012507219915278,,accuracy,space,8.25255350599764,,,,,,0.0,1.0,1.0,0.0,12.0,0.0,24.0,1.0,602.3688276879984,,,,,,,,,602.3582036699954,603.154081471992,603.9537976360007,603.9414636659931,603.9421568409889,603.9537976360007,603.9537976360007,603.9537976360007,,604.6643414249993,,,,,,,,,,,,,,,,,,,,,,,,,,,,,,right,1.0,0.7012507219915278,,,,,sub-014,1,random_dot,89.40127581892128,
left,left,25.0,1.0,12.0,left,1.0,0.6971474540041527,,accuracy,space,8.25255350599764,,,,,,0.0,1.0,1.0,0.0,12.0,1.0,25.0,0.0,604.6761264059896,,,,,,,,,604.6647875149938,605.0151359709998,605.8417227159953,605.8206628179905,605.8211627919954,605.8417227159953,605.8417227159953,605.8417227159953,,606.5458453399915,,,,,,,,,,,,,,,,,,,,,,,,,,,,,,left,1.0,0.6971474540041527,,,,,sub-014,1,random_dot,89.40127581892128,
left,left,26.0,0.0,13.0,left,1.0,5.327111906008213,,accuracy,space,8.25255350599764,,,,,,0.0,1.0,1.0,0.0,13.0,0.0,26.0,0.0,606.5551924229949,,,,,,,,,606.546221489989,606.6479580909945,607.4551438950002,607.438105519992,607.4384601829952,607.4551438950002,607.4551438950002,607.4551438950002,612.4293903299986,612.792014421997,,,,,,,,,,,,,,,,,,,,,,,,,,,,,,left,1.0,5.327111906008213,,,,,sub-014,1,random_dot,89.40127581892128,
right,right,27.0,1.0,13.0,right,1.0,3.794381606989191,,accuracy,space,8.25255350599764,,,,,,0.0,1.0,1.0,0.0,13.0,1.0,27.0,1.0,612.8018656979984,,,,,,,,,612.7923869239894,612.904876207991,613.7188672069897,613.707630216988,613.708134444998,613.7188672069897,613.7188672069897,613.7188672069897,,617.5266802979895,,,,,,,,,,,,,,,,,,,,,,,,,,,,,,right,1.0,3.794381606989191,,,,,sub-014,1,random_dot,89.40127581892128,
right,right,28.0,0.0,14.0,left,0.0,3.2260537649999605,,accuracy,space,8.25255350599764,,,,,,0.0,1.0,1.0,0.0,14.0,0.0,28.0,1.0,617.5370856249938,,,,,,,,,617.5270409379882,617.6201695169875,618.4403852809919,618.4100432889973,618.4107117579988,618.4403852809919,618.4403852809919,618.4403852809919,,621.6752016609971,,,,,,,,,,,,,,,,,,,,,,,,,,,,,,left,0.0,3.2260537649999605,,,,,sub-014,1,random_dot,89.40127581892128,
left,left,29.0,1.0,14.0,right,0.0,0.799929205008084,,accuracy,space,8.25255350599764,,,,,,0.0,1.0,1.0,0.0,14.0,1.0,29.0,0.0,621.6844290829904,,,,,,,,,621.6755773139885,622.871371909001,623.6716939709877,623.6560270629998,623.6566771239886,623.6716939709877,623.6716939709877,623.6716939709877,,624.4844590249995,,,,,,,,,,,,,,,,,,,,,,,,,,,,,,right,0.0,0.799929205008084,,,,,sub-014,1,random_dot,89.40127581892128,
left,left,30.0,0.0,15.0,left,1.0,0.93874841700017,,accuracy,space,8.25255350599764,,,,,,0.0,1.0,1.0,0.0,15.0,0.0,30.0,0.0,624.4938835319917,,,,,,,,,624.4849983979948,625.2811818299961,626.08915758699,626.0717412139929,626.0721957889909,626.08915758699,626.08915758699,626.08915758699,,627.0421709169896,,,,,,,,,,,,,,,,,,,,,,,,,,,,,,left,1.0,0.93874841700017,,,,,sub-014,1,random_dot,89.40127581892128,
right,right,31.0,1.0,15.0,right,1.0,0.8860060659935698,,accuracy,space,8.25255350599764,,,,,,0.0,1.0,1.0,0.0,15.0,1.0,31.0,1.0,627.0756565459887,,,,,,,,,627.042651470998,627.1370049449906,627.9332664409885,627.922621323989,627.9230290359992,627.9332664409885,627.9332664409885,627.9332664409885,,628.8255618279945,,,,,,,,,,,,,,,,,,,,,,,,,,,,,,right,1.0,0.8860060659935698,,,,,sub-014,1,random_dot,89.40127581892128,
left,left,32.0,0.0,16.0,left,1.0,0.7130079700000351,,accuracy,space,8.25255350599764,,,,,,0.0,1.0,1.0,0.0,16.0,0.0,32.0,0.0,628.8346613959875,,,,,,,,,628.8259353419999,630.030095449998,630.8268666859949,630.8145776129968,630.8150477210002,630.8268666859949,630.8268666859949,630.8268666859949,,631.544560956987,,,,,,,,,,,,,,,,,,,,,,,,,,,,,,left,1.0,0.7130079700000351,,,,,sub-014,1,random_dot,89.40127581892128,
right,right,33.0,1.0,16.0,right,1.0,0.8594560920028016,,accuracy,space,8.25255350599764,,,,,,0.0,1.0,1.0,0.0,16.0,1.0,33.0,1.0,631.5548226239916,,,,,,,,,631.5450347119913,632.7548289879924,633.5544791059947,633.5415495679918,633.5422653889982,633.5544791059947,633.5544791059947,633.5544791059947,,634.4241835110006,,,,,,,,,,,,,,,,,,,,,,,,,,,,,,right,1.0,0.8594560920028016,,,,,sub-014,1,random_dot,89.40127581892128,
right,right,34.0,0.0,17.0,left,0.0,3.186772146000294,,accuracy,space,8.25255350599764,,,,,,0.0,1.0,1.0,0.0,17.0,0.0,34.0,1.0,634.4329335569928,,,,,,,,,634.4245577709953,635.6218075689976,636.4195530379948,636.4072767579928,636.4077970149956,636.4195530379948,636.4195530379948,636.4195530379948,,639.6242829599942,,,,,,,,,,,,,,,,,,,,,,,,,,,,,,left,0.0,3.186772146000294,,,,,sub-014,1,random_dot,89.40127581892128,
left,left,35.0,1.0,17.0,left,1.0,2.2157921079924563,,accuracy,space,8.25255350599764,,,,,,0.0,1.0,1.0,0.0,17.0,1.0,35.0,0.0,639.6327340869902,,,,,,,,,639.6249443169945,640.8261917299969,641.6267473240005,641.6142233779974,641.6148023509886,641.6267473240005,641.6267473240005,641.6267473240005,,643.8538620309992,,,,,,,,,,,,,,,,,,,,,,,,,,,,,,left,1.0,2.2157921079924563,,,,,sub-014,1,random_dot,89.40127581892128,
right,right,36.0,0.0,18.0,right,1.0,1.4439522539905738,,accuracy,space,8.25255350599764,,,,,,0.0,1.0,1.0,0.0,18.0,0.0,36.0,1.0,643.8639799719967,,,,,,,,,643.8542957789905,644.1960843599954,645.0046687209979,644.9883935539983,644.9888357890013,645.0046687209979,645.0046687209979,645.0046687209979,,646.455841293995,,,,,,,,,,,,,,,,,,,,,,,,,,,,,,right,1.0,1.4439522539905738,,,,,sub-014,1,random_dot,89.40127581892128,
left,left,37.0,1.0,18.0,left,1.0,2.199378864999744,,accuracy,space,8.25255350599764,,,,,,0.0,1.0,1.0,0.0,18.0,1.0,37.0,0.0,646.4666000329889,,,,,,,,,646.4563089919975,646.5632022989885,647.3599088769988,647.348450118996,647.3489934799873,647.3599088769988,647.3599088769988,647.3599088769988,,649.5649027309992,,,,,,,,,,,,,,,,,,,,,,,,,,,,,,left,1.0,2.199378864999744,,,,,sub-014,1,random_dot,89.40127581892128,
left,left,38.0,0.0,19.0,left,1.0,3.750838164007291,,accuracy,space,8.25255350599764,,,,,,0.0,1.0,1.0,0.0,19.0,0.0,38.0,0.0,649.583800583001,,,,,,,,,649.5653771719954,650.3630730180012,651.1598619549914,651.1472920019878,651.1477096659946,651.1598619549914,651.1598619549914,651.1598619549914,,654.9272589389875,,,,,,,,,,,,,,,,,,,,,,,,,,,,,,left,1.0,3.750838164007291,,,,,sub-014,1,random_dot,89.40127581892128,
right,right,39.0,1.0,19.0,left,0.0,1.766246746003162,,accuracy,space,8.25255350599764,,,,,,0.0,1.0,1.0,0.0,19.0,1.0,39.0,1.0,654.9447478469956,,,,,,,,,654.9277234839974,655.2796640539891,656.0814918159886,656.0721737899876,656.072612235992,656.0814918159886,656.0814918159886,656.0814918159886,,657.8597720969992,,,,,,,,,,,,,,,,,,,,,,,,,,,,,,left,0.0,1.766246746003162,,,,,sub-014,1,random_dot,89.40127581892128,
right,right,40.0,0.0,20.0,right,1.0,0.7375000479951268,,accuracy,space,8.25255350599764,,,,,,0.0,1.0,1.0,0.0,20.0,0.0,40.0,1.0,657.8714669350011,,,,,,,,,657.8602702869975,659.0565351749974,659.8530986719998,659.8413608359988,659.8418780840002,659.8530986719998,659.8530986719998,659.8530986719998,,660.6010109950003,,,,,,,,,,,,,,,,,,,,,,,,,,,,,,right,1.0,0.7375000479951268,,,,,sub-014,1,random_dot,89.40127581892128,
left,left,41.0,1.0,20.0,left,1.0,1.972652880009264,,accuracy,space,8.25255350599764,,,,,,0.0,1.0,1.0,0.0,20.0,1.0,41.0,0.0,660.6105323719967,,,,,,,,,660.6015624519932,661.7949405529944,662.5913706379943,662.579995808992,662.580526632999,662.5913706379943,662.5913706379943,662.5913706379943,,664.5778178529872,,,,,,,,,,,,,,,,,,,,,,,,,,,,,,left,1.0,1.972652880009264,,,,,sub-014,1,random_dot,89.40127581892128,
right,right,42.0,0.0,21.0,right,1.0,1.572569926007418,,accuracy,space,8.25255350599764,,,,,,0.0,1.0,1.0,0.0,21.0,0.0,42.0,1.0,664.5874588079896,,,,,,,,,664.5782728439954,664.9372547069943,665.7347084689973,665.7229588079936,665.7233059869905,665.7347084689973,665.7347084689973,665.7347084689973,,667.3233902579959,,,,,,,,,,,,,,,,,,,,,,,,,,,,,,right,1.0,1.572569926007418,,,,,sub-014,1,random_dot,89.40127581892128,
left,left,43.0,1.0,21.0,left,1.0,1.1331634059897624,,accuracy,space,8.25255350599764,,,,,,0.0,1.0,1.0,0.0,21.0,1.0,43.0,0.0,667.3311588499928,,,,,,,,,667.3238155439903,667.6987417279888,668.5047422450007,668.4881180589873,668.4885923859983,668.5047422450007,668.5047422450007,668.5047422450007,,669.6408409739961,,,,,,,,,,,,,,,,,,,,,,,,,,,,,,left,1.0,1.1331634059897624,,,,,sub-014,1,random_dot,89.40127581892128,
left,left,44.0,0.0,22.0,left,1.0,5.70035461599764,,accuracy,space,8.25255350599764,,,,,,0.0,1.0,1.0,0.0,22.0,0.0,44.0,0.0,669.6515445049881,,,,,,,,,669.6413979059871,669.7557158139971,670.5708881719911,670.5549474299914,670.5553054899938,670.5708881719911,670.5708881719911,670.5708881719911,675.5578193959955,676.2735677219898,,,,,,,,,,,,,,,,,,,,,,,,,,,,,,left,1.0,5.70035461599764,,,,,sub-014,1,random_dot,89.40127581892128,
right,right,45.0,1.0,22.0,left,0.0,7.1997426449961495,,accuracy,space,8.25255350599764,,,,,,0.0,1.0,1.0,0.0,22.0,1.0,45.0,1.0,676.2834896169952,,,,,,,,,676.2741128519992,677.072871640994,677.8699770199892,677.8587350640009,677.8592870430002,677.8699770199892,677.8699770199892,677.8699770199892,682.8601252959925,685.0735263370007,,,,,,,,,,,,,,,,,,,,,,,,,,,,,,left,0.0,7.1997426449961495,,,,,sub-014,1,random_dot,89.40127581892128,
right,right,46.0,0.0,23.0,left,0.0,4.553884053995716,,accuracy,space,8.25255350599764,,,,,,0.0,1.0,1.0,0.0,23.0,0.0,46.0,1.0,685.0813540730014,,,,,,,,,685.073900258998,685.8807836339984,686.6823041489988,686.6721905649902,686.6726317139983,686.6823041489988,686.6823041489988,686.6823041489988,,691.239911600991,,,,,,,,,,,,,,,,,,,,,,,,,,,,,,left,0.0,4.553884053995716,,,,,sub-014,1,random_dot,89.40127581892128,
left,left,47.0,1.0,23.0,left,1.0,3.2294458609976573,,accuracy,space,8.25255350599764,,,,,,0.0,1.0,1.0,0.0,23.0,1.0,47.0,0.0,691.2490835200006,,,,,,,,,691.2403085629921,691.3401908169908,692.141153804987,692.1298387009883,692.1303151030006,692.141153804987,692.141153804987,692.141153804987,,695.3784483060008,,,,,,,,,,,,,,,,,,,,,,,,,,,,,,left,1.0,3.2294458609976573,,,,,sub-014,1,random_dot,89.40127581892128,
left,left,48.0,0.0,24.0,right,0.0,0.9649141659901944,,accuracy,space,8.25255350599764,,,,,,0.0,1.0,1.0,0.0,24.0,0.0,48.0,0.0,695.4030577959929,,,,,,,,,695.378819007994,695.4692601179995,696.2874918859889,696.2706750709913,696.2710441609961,696.2874918859889,696.2874918859889,696.2874918859889,,697.2650502999895,,,,,,,,,,,,,,,,,,,,,,,,,,,,,,right,0.0,0.9649141659901944,,,,,sub-014,1,random_dot,89.40127581892128,
right,right,49.0,1.0,24.0,left,0.0,0.8445571839984041,,accuracy,space,8.25255350599764,,,,,,0.0,1.0,1.0,0.0,24.0,1.0,49.0,1.0,697.2751405320014,,,,,,,,,697.2655935859948,698.060448831995,698.8594323589932,698.8468277349893,698.8473448149889,698.8594323589932,698.8594323589932,698.8594323589932,,699.715544273,,,,,,,,,,,,,,,,,,,,,,,,,,,,,,left,0.0,0.8445571839984041,,,,,sub-014,1,random_dot,89.40127581892128,
left,left,50.0,0.0,25.0,right,0.0,0.8539745050074998,,accuracy,space,8.25255350599764,,,,,,0.0,1.0,1.0,0.0,25.0,0.0,50.0,0.0,699.7261375089874,,,,,,,,,699.7160082560004,700.0879491369997,700.9017213599873,700.8899168579956,700.890627470988,700.9017213599873,700.9017213599873,700.9017213599873,,701.7683819659869,,,,,,,,,,,,,,,,,,,,,,,,,,,,,,right,0.0,0.8539745050074998,,,,,sub-014,1,random_dot,89.40127581892128,
right,right,51.0,1.0,25.0,left,0.0,0.8628777889971389,,accuracy,space,8.25255350599764,,,,,,0.0,1.0,1.0,0.0,25.0,1.0,51.0,1.0,701.7773997449985,,,,,,,,,701.7687431879895,701.8624539209995,702.6593290140008,702.6468643010012,702.6474000239978,702.6593290140008,702.6593290140008,702.6593290140008,,703.5381807639933,,,,,,,,,,,,,,,,,,,,,,,,,,,,,,left,0.0,0.8628777889971389,,,,,sub-014,1,random_dot,89.40127581892128,
left,left,52.0,0.0,26.0,right,0.0,3.00022927900136,,accuracy,space,8.25255350599764,,,,,,0.0,1.0,1.0,0.0,26.0,0.0,52.0,0.0,703.5455899119988,,,,,,,,,703.5389223199891,703.6352733199892,704.43644102299,704.4244763329916,704.4252026039903,704.43644102299,704.43644102299,704.43644102299,,707.4405878959951,,,,,,,,,,,,,,,,,,,,,,,,,,,,,,right,0.0,3.00022927900136,,,,,sub-014,1,random_dot,89.40127581892128,
right,right,53.0,1.0,26.0,left,0.0,1.1795015509997029,,accuracy,space,8.25255350599764,,,,,,0.0,1.0,1.0,0.0,26.0,1.0,53.0,1.0,707.4513432569947,,,,,,,,,707.4412346929894,708.2548606409982,709.0506366509944,709.0398404269945,709.0403285799985,709.0506366509944,709.0506366509944,709.0506366509944,,710.2416956239904,,,,,,,,,,,,,,,,,,,,,,,,,,,,,,left,0.0,1.1795015509997029,,,,,sub-014,1,random_dot,89.40127581892128,
left,left,54.0,0.0,27.0,left,1.0,2.36307136900723,,accuracy,space,8.25255350599764,,,,,,0.0,1.0,1.0,0.0,27.0,0.0,54.0,0.0,710.2524865559972,,,,,,,,,710.242165299991,711.0402040579938,711.841237029992,711.8302464539884,711.8309700009995,711.841237029992,711.841237029992,711.841237029992,,714.2154058259912,,,,,,,,,,,,,,,,,,,,,,,,,,,,,,left,1.0,2.36307136900723,,,,,sub-014,1,random_dot,89.40127581892128,
right,right,55.0,1.0,27.0,right,1.0,1.4710242500004824,,accuracy,space,8.25255350599764,,,,,,0.0,1.0,1.0,0.0,27.0,1.0,55.0,1.0,714.2252022829925,,,,,,,,,714.2160020390002,715.0124073519983,715.8104822379973,715.7980092529906,715.7988932000007,715.8104822379973,715.8104822379973,715.8104822379973,,717.28607065299,,,,,,,,,,,,,,,,,,,,,,,,,,,,,,right,1.0,1.4710242500004824,,,,,sub-014,1,random_dot,89.40127581892128,
left,left,56.0,0.0,28.0,left,1.0,0.7721963400108507,,accuracy,space,8.25255350599764,,,,,,0.0,1.0,1.0,0.0,28.0,0.0,56.0,0.0,717.2954908279935,,,,,,,,,717.2865355559916,718.0808003429993,718.8766790049995,718.8653328369983,718.8660422249959,718.8766790049995,718.8766790049995,718.8766790049995,,719.6610632029915,,,,,,,,,,,,,,,,,,,,,,,,,,,,,,left,1.0,0.7721963400108507,,,,,sub-014,1,random_dot,89.40127581892128,
right,right,57.0,1.0,28.0,right,1.0,5.333351590001257,,accuracy,space,8.25255350599764,,,,,,0.0,1.0,1.0,0.0,28.0,1.0,57.0,1.0,719.6725937279989,,,,,,,,,719.6615062849887,720.4635019879934,721.2704654449917,721.2566691239917,721.2571473009884,721.2704654449917,721.2704654449917,721.2704654449917,726.259311390997,726.6110881409986,,,,,,,,,,,,,,,,,,,,,,,,,,,,,,right,1.0,5.333351590001257,,,,,sub-014,1,random_dot,89.40127581892128,
right,right,58.0,0.0,29.0,left,0.0,1.36946007500228,,accuracy,space,8.25255350599764,,,,,,0.0,1.0,1.0,0.0,29.0,0.0,58.0,1.0,726.6220866840013,,,,,,,,,726.611534443,727.809038056992,728.6096902889985,728.5984152559977,728.5989611189871,728.6096902889985,728.6096902889985,728.6096902889985,,730.0072086779983,,,,,,,,,,,,,,,,,,,,,,,,,,,,,,left,0.0,1.36946007500228,,,,,sub-014,1,random_dot,89.40127581892128,
left,left,59.0,1.0,29.0,left,1.0,1.1821988110023085,,accuracy,space,8.25255350599764,,,,,,0.0,1.0,1.0,0.0,29.0,1.0,59.0,0.0,730.0184984849911,,,,,,,,,730.0080228709994,730.3625994729955,731.1600896379969,731.1481080239901,731.1488144989999,731.1600896379969,731.1600896379969,731.1600896379969,,732.3514417879924,,,,,,,,,,,,,,,,,,,,,,,,,,,,,,left,1.0,1.1821988110023085,,,,,sub-014,1,random_dot,89.40127581892128,
,,1.0,1.0,0.0,,,,,accuracy,space,8.25255350599764,,,,,,0.0,1.0,1.0,0.0,,,,,,,,,,,,,,,,,,,,,,,,,,,,,,,,,,,,,,,,,,,,,,,,,,,,,,,,,,,,sub-014,1,random_dot,89.40127581892128,
,,,,,,,,,,,,,,,,,,,,,,,,,,,,,,,,,,,,,,,,,,,,,,,,,,,,,,,,,,,,,,,,,,,,,,,,,,,,,732.3568366729887,732.3691021919949,737.3538323829998,sub-014,1,random_dot,89.40127581892128,
