direction,corrAns,thisN,thisTrialN,thisRepN,respDots.keys,respDots.corr,respDots.rt,respDots.duration,randomInstr,respRandomInstr.keys,respRandomInstr.rt,respRandomInstr.duration,practice_trials.thisRepN,practice_trials.thisTrialN,practice_trials.thisN,practice_trials.thisIndex,instr_trials.thisRepN,instr_trials.thisTrialN,instr_trials.thisN,instr_trials.thisIndex,test_trials.thisRepN,test_trials.thisTrialN,test_trials.thisN,test_trials.thisIndex,thisRow.t,notes,general_instruction.started,textGeneralInstr.started,respGeneralInstr.started,general_instruction.stopped,respGeneralInstr.keys,respGeneralInstr.rt,respGeneralInstr.duration,ITI.started,fixcross.started,fixcross.stopped,ITI.stopped,dots.started,backgroundDots.started,stimulusDots.started,respDots.started,stimulusDots.stopped,dots.stopped,practice_trials.respDots.keys,practice_trials.respDots.corr,practice_trials.respDots.rt,practice_trials.respDots.duration,feedback.started,textFeedback.started,textFeedback.stopped,feedback.stopped,info.started,textInfo.started,keyRespInfo.started,info.stopped,keyRespInfo.keys,keyRespInfo.rt,keyRespInfo.duration,test_instruction.started,textTestInstr.started,respTestInstr.started,test_instruction.stopped,respTestInstr.keys,respTestInstr.rt,respTestInstr.duration,random_instruction.started,textRandomInstr.started,respRandomInstr.started,random_instruction.stopped,instr_trials.respRandomInstr.keys,instr_trials.respRandomInstr.rt,instr_trials.respRandomInstr.duration,test_trials.respDots.keys,test_trials.respDots.corr,test_trials.respDots.rt,test_trials.respDots.duration,goodbye.started,textGoodbye.started,textGoodbye.stopped,goodbye.stopped,participant,session,expName,frameRate,Unnamed: 88
,,,,,,,,,,,,,,,,,,,,,,,,,,,0.0074659580000115,0.0142417910000176,0.0142417910000176,73.13051962499992,space,73.10547804099997,,,,,,,,,,,,,,,,,,,,,,,,,,,,,,,,,,,,,,,,,,,,,,,,,sub-090,1,random_dot,,
right,right,0.0,0.0,0.0,right,1.0,13.150336625000024,,,,,,0.0,0.0,0.0,1.0,,,,,,,,,73.16828795799995,,,,,,,,,73.15604562499993,73.22999966599991,74.03510729099992,74.01839904099995,74.01888183299991,74.03510729099992,74.03510729099992,74.03510729099992,79.01605254099991,87.26008441599993,right,1.0,13.150336625000024,,87.26294766599995,87.26682074999997,87.76183841599993,87.75183637499993,,,,,,,,,,,,,,,,,,,,,,,,,,,,,,sub-090,1,random_dot,,
left,left,1.0,1.0,0.0,left,1.0,8.047071167000013,,,,,,0.0,1.0,1.0,0.0,,,,,,,,,87.76183841599993,,,,,,,,,87.75220624999997,88.10116633299992,88.89362141599997,88.88488141599998,88.88533241599998,88.89362141599997,88.89362141599997,88.89362141599997,93.878452875,96.94718091599998,left,1.0,8.047071167000013,,96.947330791,96.95955108299997,97.45165191599996,97.446035875,,,,,,,,,,,,,,,,,,,,,,,,,,,,,,sub-090,1,random_dot,,
right,right,2.0,0.0,1.0,right,1.0,6.007847374999983,,,,,,1.0,0.0,2.0,1.0,,,,,,,,,97.45165191599996,,,,,,,,,97.44648762499992,97.545152916,98.33734091600002,98.329099833,98.32963874999996,98.33734091600002,98.33734091600002,98.33734091600002,103.31657962499992,104.34796783299998,right,1.0,6.007847374999983,,104.34815341599996,104.35851029100002,104.85154512499992,104.84594549999996,,,,,,,,,,,,,,,,,,,,,,,,,,,,,,sub-090,1,random_dot,,
left,left,3.0,1.0,1.0,left,1.0,4.350194458000033,,,,,,1.0,1.0,3.0,0.0,,,,,,,,,104.85154512499992,,,,,,,,,104.84639625,106.04523979099996,106.83719404099998,106.82925287499997,106.82980216599992,106.83719404099998,106.83719404099998,106.83719404099998,,111.195645291,left,1.0,4.350194458000033,,111.19576908299996,111.20333716599998,111.70159624999997,111.69595925,,,,,,,,,,,,,,,,,,,,,,,,,,,,,,sub-090,1,random_dot,,
left,left,4.0,0.0,2.0,right,0.0,3.0927144170000247,,,,,,2.0,0.0,4.0,0.0,,,,,,,,,111.70159624999997,,,,,,,,,111.69641416599995,111.784550041,112.57692566599997,112.56791683299991,112.56835991599996,112.57692566599997,112.57692566599997,112.57692566599997,,115.680013875,right,0.0,3.0927144170000247,,115.6851375,115.69228254099994,116.1854055,116.17981429099996,,,,,,,,,,,,,,,,,,,,,,,,,,,,,,sub-090,1,random_dot,,
right,right,5.0,1.0,2.0,left,0.0,3.308308334000003,,,,,,2.0,1.0,5.0,1.0,,,,,,,,,116.1854055,,,,,,,,,116.18035583299992,116.97834479099993,117.77053474999992,117.76263791600002,117.763189291,117.77053474999992,117.77053474999992,117.77053474999992,,121.084548208,left,0.0,3.308308334000003,,121.084637833,121.09421920799991,121.58507283299993,121.57938658299996,,,,,,,,,,,,,,,,,,,,,,,,,,,,,,sub-090,1,random_dot,,
right,right,6.0,0.0,3.0,right,1.0,3.864579333000052,,,,,,3.0,0.0,6.0,1.0,,,,,,,,,121.58507283299993,,,,,,,,,121.57984549999992,122.378523041,123.16980462499998,123.162377041,123.16281700000002,123.16980462499998,123.16980462499998,123.16980462499998,,127.03603562499995,right,1.0,3.864579333000052,,127.03863412499992,127.04652795799996,127.54511970800002,127.53470574999994,,,,,,,,,,,,,,,,,,,,,,,,,,,,,,sub-090,1,random_dot,,
left,left,7.0,1.0,3.0,left,1.0,5.890668000000005,,,,,,3.0,1.0,7.0,0.0,,,,,,,,,127.54511970800002,,,,,,,,,127.535057833,127.884930875,128.6767917909999,128.66790579099995,128.66833799999995,128.6767917909999,128.6767917909999,128.6767917909999,133.6616251659999,134.57001141599994,left,1.0,5.890668000000005,,134.57015924999996,134.58045937499992,135.07832804099996,135.068437958,,,,,,,,,,,,,,,,,,,,,,,,,,,,,,sub-090,1,random_dot,,
left,left,8.0,0.0,4.0,left,1.0,5.92117108299999,,,,,,4.0,0.0,8.0,0.0,,,,,,,,,135.07832804099996,,,,,,,,,135.06879116599998,136.26852229099995,137.07072641599996,137.06257074999996,137.06313729099998,137.07072641599996,137.07072641599996,137.07072641599996,142.06181987499997,142.99576858299997,left,1.0,5.92117108299999,,142.99592154099992,143.00601170799996,143.501841958,143.49600629099996,,,,,,,,,,,,,,,,,,,,,,,,,,,,,,sub-090,1,random_dot,,
right,right,9.0,1.0,4.0,right,1.0,6.972610707999934,,,,,,4.0,1.0,9.0,1.0,,,,,,,,,143.501841958,,,,,,,,,143.49644554099996,144.28442324999992,145.07682224999996,145.06778324999993,145.06819599999994,145.07682224999996,145.07682224999996,145.07682224999996,150.06722445799994,152.05392141599998,right,1.0,6.972610707999934,,152.05406512499997,152.06397533299992,152.56166433299995,152.5510049579999,,,,,,,,,,,,,,,,,,,,,,,,,,,,,,sub-090,1,random_dot,,
left,left,10.0,0.0,5.0,left,1.0,6.369396749999964,,,,,,5.0,0.0,10.0,0.0,,,,,,,,,152.56166433299995,,,,,,,,,152.551357875,152.9012601249999,153.69348387499997,153.68488770800002,153.685326208,153.69348387499997,153.69348387499997,153.69348387499997,158.68257108299997,160.070414958,left,1.0,6.369396749999964,,160.07056183299994,160.0808085829999,160.57827124999994,160.567876458,,,,,,,,,,,,,,,,,,,,,,,,,,,,,,sub-090,1,random_dot,,
right,right,11.0,1.0,5.0,right,1.0,3.4323808749999216,,,,,,5.0,1.0,11.0,1.0,,,,,,,,,160.57827124999994,,,,,,,,,160.568234125,161.76865324999994,162.57031204099997,162.56243074999998,162.56298941599994,162.57031204099997,162.57031204099997,162.57031204099997,,166.01274683299994,right,1.0,3.4323808749999216,,166.01284575,166.01986345799992,166.5179700829999,166.51235266599997,,,,,,,,,,,,,,,,,,,,,,,,,,,,,,sub-090,1,random_dot,,
left,left,12.0,0.0,6.0,right,0.0,4.438301833999958,,,,,,6.0,0.0,12.0,0.0,,,,,,,,,166.5179700829999,,,,,,,,,166.512795375,166.861532291,167.65369787499992,167.64572187499994,167.64626224999995,167.65369787499992,167.65369787499992,167.65369787499992,,172.096290416,right,0.0,4.438301833999958,,172.099107291,172.10648379099996,172.60101583300002,172.59564687499994,,,,,,,,,,,,,,,,,,,,,,,,,,,,,,sub-090,1,random_dot,,
right,right,13.0,1.0,6.0,right,1.0,5.907522999999969,,,,,,6.0,1.0,13.0,1.0,,,,,,,,,172.60101583300002,,,,,,,,,172.5960134999999,172.944964625,173.73742649999997,173.72907875,173.7296389999999,173.73742649999997,173.73742649999997,173.73742649999997,178.71690562499998,179.64750970799992,right,1.0,5.907522999999969,,179.65205320799998,179.6614199999999,180.151073625,180.145659875,,,,,,,,,,,,,,,,,,,,,,,,,,,,,,sub-090,1,random_dot,,
left,left,14.0,0.0,7.0,right,0.0,5.598911625000028,,,,,,7.0,0.0,14.0,0.0,,,,,,,,,180.151073625,,,,,,,,,180.14613454099992,180.49499812499997,181.287226541,181.27913687499995,181.279683625,181.287226541,181.287226541,181.287226541,186.27807295799997,186.896898333,right,0.0,5.598911625000028,,186.901351125,186.9117494159999,187.40166658299995,187.39593008299997,,,,,,,,,,,,,,,,,,,,,,,,,,,,,,sub-090,1,random_dot,,
right,right,15.0,1.0,7.0,right,1.0,5.630694959000039,,,,,,7.0,1.0,15.0,1.0,,,,,,,,,187.40166658299995,,,,,,,,,187.396394,188.594889083,189.38680749999992,189.37894137499995,189.379482208,189.38680749999992,189.38680749999992,189.38680749999992,194.366817083,195.020204208,right,1.0,5.630694959000039,,195.02532429099995,195.034094916,195.528220791,195.518476333,,,,,,,,,,,,,,,,,,,,,,,,,,,,,,sub-090,1,random_dot,,
left,left,16.0,0.0,8.0,left,1.0,3.141159041000037,,,,,,8.0,0.0,16.0,0.0,,,,,,,,,195.528220791,,,,,,,,,195.5188314579999,196.71757683299995,197.510198166,197.50094379099997,197.501365333,197.510198166,197.510198166,197.510198166,,200.653158666,left,1.0,3.141159041000037,,200.65325558299992,200.66002774999995,201.15053883299996,201.145440916,,,,,,,,,,,,,,,,,,,,,,,,,,,,,,sub-090,1,random_dot,,
right,right,17.0,1.0,8.0,right,1.0,2.548182750000024,,,,,,8.0,1.0,17.0,1.0,,,,,,,,,201.15053883299996,,,,,,,,,201.145806625,201.9509351659999,202.743329583,202.73471866599996,202.73513912499996,202.743329583,202.743329583,202.743329583,,205.29505833299996,right,1.0,2.548182750000024,,205.29515166599992,205.301766458,205.80158295799995,205.79583745799997,,,,,,,,,,,,,,,,,,,,,,,,,,,,,,sub-090,1,random_dot,,
left,left,18.0,0.0,9.0,right,0.0,2.542060958000093,,,,,,9.0,0.0,18.0,0.0,,,,,,,,,205.80158295799995,,,,,,,,,205.79630691599996,206.134749541,206.92663904099996,206.918179333,206.918618416,206.92663904099996,206.92663904099996,206.92663904099996,,209.479322833,right,0.0,2.542060958000093,,209.481902708,209.48888279099992,209.984920583,209.9792309999999,,,,,,,,,,,,,,,,,,,,,,,,,,,,,,sub-090,1,random_dot,,
right,right,19.0,1.0,9.0,right,1.0,2.1707222909999477,,,,,,9.0,1.0,19.0,1.0,,,,,,,,,209.984920583,,,,,,,,,209.979686,211.178157541,211.96994062499996,211.96209375,211.962542958,211.96994062499996,211.96994062499996,211.96994062499996,,214.146808375,right,1.0,2.1707222909999477,,214.1497294579999,214.157163291,214.653359916,214.6455685,,,,,,,,,,,,,,,,,,,,,,,,,,,,,,sub-090,1,random_dot,,
,,,,,,,,,,,,,,,,,,,,,,,,,,,,,,,,,,,,,,,,,,,,,,,,,,,,214.64575070799992,214.653359916,214.653359916,218.5800969999999,space,3.919418749999977,,,,,,,,,,,,,,,,,,,,,,,,sub-090,1,random_dot,,
,,,,,,,,,,,,,,,,,,,,,,,,,,,,,,,,,,,,,,,,,,,,,,,,,,,,,,,,,,,218.58020691599995,218.59272654099996,218.59272654099996,226.796857833,space,8.199121083000023,,,,,,,,,,,,,,,,,sub-090,1,random_dot,,
right,right,0.0,0.0,0.0,left,0.0,1.946506250000084,,accuracy,space,22.96071424999991,,,,,,0.0,0.0,0.0,0.0,0.0,0.0,0.0,1.0,249.81262066599996,,,,,,,,,249.805720166,250.59489899999997,251.387313458,251.379065041,251.37962945799995,251.387313458,251.387313458,251.387313458,,253.33558774999997,,,,,,,,,,,,,,,,,,,,,,,226.820470916,226.828175583,226.828175583,249.79679483299992,space,22.96071424999991,,left,0.0,1.946506250000084,,,,,,sub-090,1,random_dot,,
left,left,1.0,1.0,0.0,right,0.0,1.400263667000104,,accuracy,space,22.96071424999991,,,,,,0.0,0.0,0.0,0.0,0.0,1.0,1.0,0.0,253.344740666,,,,,,,,,253.33591108299996,253.68415808299997,254.4765725,254.4676155,254.468044291,254.4765725,254.4765725,254.4765725,,255.87925466599995,,,,,,,,,,,,,,,,,,,,,,,,,,,,,,right,0.0,1.400263667000104,,,,,,sub-090,1,random_dot,,
right,right,2.0,0.0,1.0,right,1.0,1.520581208000067,,accuracy,space,22.96071424999991,,,,,,0.0,0.0,0.0,0.0,1.0,0.0,2.0,1.0,255.886076,,,,,,,,,255.879578833,255.977970875,256.770137125,256.762215291,256.76276599999994,256.770137125,256.770137125,256.770137125,,258.2943735409999,,,,,,,,,,,,,,,,,,,,,,,,,,,,,,right,1.0,1.520581208000067,,,,,,sub-090,1,random_dot,,
left,left,3.0,1.0,1.0,left,1.0,1.1041133750001109,,accuracy,space,22.96071424999991,,,,,,0.0,0.0,0.0,0.0,1.0,1.0,3.0,0.0,258.30112933299995,,,,,,,,,258.29468862499994,259.485282958,260.286631875,260.278728541,260.2791904999999,260.286631875,260.286631875,260.286631875,,261.395623583,,,,,,,,,,,,,,,,,,,,,,,,,,,,,,left,1.0,1.1041133750001109,,,,,,sub-090,1,random_dot,,
left,left,4.0,0.0,2.0,left,1.0,2.3155224590000216,,accuracy,space,22.96071424999991,,,,,,0.0,0.0,0.0,0.0,2.0,0.0,4.0,0.0,261.402599333,,,,,,,,,261.396024166,261.494782583,262.28675358299995,262.2788869159999,262.279426166,262.28675358299995,262.28675358299995,262.28675358299995,,264.613107,,,,,,,,,,,,,,,,,,,,,,,,,,,,,,left,1.0,2.3155224590000216,,,,,,sub-090,1,random_dot,,
right,right,5.0,1.0,2.0,right,1.0,2.999700458999996,,accuracy,space,22.96071424999991,,,,,,0.0,0.0,0.0,0.0,2.0,1.0,5.0,1.0,264.62081549999994,,,,,,,,,264.613588125,265.411426625,266.20333808299995,266.1955063329999,266.195955875,266.20333808299995,266.20333808299995,266.20333808299995,,269.21249387499995,,,,,,,,,,,,,,,,,,,,,,,,,,,,,,right,1.0,2.999700458999996,,,,,,sub-090,1,random_dot,,
left,left,6.0,0.0,3.0,left,1.0,3.0016903340000454,,accuracy,space,22.96071424999991,,,,,,0.0,0.0,0.0,0.0,3.0,0.0,6.0,0.0,269.21928375,,,,,,,,,269.2128231659999,269.561413833,270.353372833,270.3454684999999,270.3460097909999,270.353372833,270.353372833,270.353372833,,273.363338625,,,,,,,,,,,,,,,,,,,,,,,,,,,,,,left,1.0,3.0016903340000454,,,,,,sub-090,1,random_dot,,
right,right,7.0,1.0,3.0,left,0.0,4.1847044170000345,,accuracy,space,22.96071424999991,,,,,,0.0,0.0,0.0,0.0,3.0,1.0,7.0,1.0,273.3708560409999,,,,,,,,,273.3638408329999,274.161484333,274.95336158299995,274.945364333,274.945809791,274.95336158299995,274.95336158299995,274.95336158299995,,279.14615041599995,,,,,,,,,,,,,,,,,,,,,,,,,,,,,,left,0.0,4.1847044170000345,,,,,,sub-090,1,random_dot,,
right,right,8.0,0.0,4.0,right,1.0,6.042177917000004,,accuracy,space,22.96071424999991,,,,,,0.0,0.0,0.0,0.0,4.0,0.0,8.0,1.0,279.153438125,,,,,,,,,279.1464867909999,280.34479187499994,281.136817791,281.12883575,281.129379083,281.136817791,281.136817791,281.136817791,286.11604420799995,287.186495166,,,,,,,,,,,,,,,,,,,,,,,,,,,,,,right,1.0,6.042177917000004,,,,,,sub-090,1,random_dot,,
left,left,9.0,1.0,4.0,left,1.0,2.117842957999983,,accuracy,space,22.96071424999991,,,,,,0.0,0.0,0.0,0.0,4.0,1.0,9.0,0.0,287.196501333,,,,,,,,,287.187060958,287.9850823329999,288.776540708,288.76819587499995,288.768628416,288.776540708,288.776540708,288.776540708,,290.8960059159999,,,,,,,,,,,,,,,,,,,,,,,,,,,,,,left,1.0,2.117842957999983,,,,,,sub-090,1,random_dot,,
right,right,10.0,0.0,5.0,right,1.0,1.774131333000014,,accuracy,space,22.96071424999991,,,,,,0.0,0.0,0.0,0.0,5.0,0.0,10.0,1.0,290.9007087499999,,,,,,,,,290.8963326659999,290.994686666,291.786611041,291.778752875,291.779295208,291.786611041,291.786611041,291.786611041,,293.563183166,,,,,,,,,,,,,,,,,,,,,,,,,,,,,,right,1.0,1.774131333000014,,,,,,sub-090,1,random_dot,,
left,left,11.0,1.0,5.0,left,1.0,1.291058291000013,,accuracy,space,22.96071424999991,,,,,,0.0,0.0,0.0,0.0,5.0,1.0,11.0,0.0,293.570590541,,,,,,,,,293.563722958,294.76136475,295.553331333,295.54543425,295.545987291,295.553331333,295.553331333,295.553331333,,296.8464265829999,,,,,,,,,,,,,,,,,,,,,,,,,,,,,,left,1.0,1.291058291000013,,,,,,sub-090,1,random_dot,,
left,left,12.0,0.0,6.0,left,1.0,1.3193122909999602,,accuracy,space,22.96071424999991,,,,,,0.0,0.0,0.0,0.0,6.0,0.0,12.0,0.0,296.8510165,,,,,,,,,296.846767375,297.194658208,297.986851708,297.9788747079999,297.9794231249999,297.986851708,297.986851708,297.986851708,,299.313053666,,,,,,,,,,,,,,,,,,,,,,,,,,,,,,left,1.0,1.3193122909999602,,,,,,sub-090,1,random_dot,,
right,right,13.0,1.0,6.0,left,0.0,5.963647750000064,,accuracy,space,22.96071424999991,,,,,,0.0,0.0,0.0,0.0,6.0,1.0,13.0,1.0,299.3202242499999,,,,,,,,,299.3135646249999,300.511434583,301.3029530409999,301.295218625,301.295777125,301.3029530409999,301.3029530409999,301.3029530409999,306.2945317499999,307.2703836249999,,,,,,,,,,,,,,,,,,,,,,,,,,,,,,left,0.0,5.963647750000064,,,,,,sub-090,1,random_dot,,
left,left,14.0,0.0,7.0,right,0.0,3.9805504170000177,,accuracy,space,22.96071424999991,,,,,,0.0,0.0,0.0,0.0,7.0,0.0,14.0,0.0,307.280267958,,,,,,,,,307.270955041,307.618097208,308.409798916,308.4016141249999,308.402028291,308.409798916,308.409798916,308.409798916,,312.3949415000001,,,,,,,,,,,,,,,,,,,,,,,,,,,,,,right,0.0,3.9805504170000177,,,,,,sub-090,1,random_dot,,
right,right,15.0,1.0,7.0,right,1.0,1.336069791999989,,accuracy,space,22.96071424999991,,,,,,0.0,0.0,0.0,0.0,7.0,1.0,15.0,1.0,312.4022423329999,,,,,,,,,312.395374416,313.184385833,313.98740424999994,313.97902454100006,313.9797394579999,313.98740424999994,313.98740424999994,313.98740424999994,,315.32945833299993,,,,,,,,,,,,,,,,,,,,,,,,,,,,,,right,1.0,1.336069791999989,,,,,,sub-090,1,random_dot,,
right,right,16.0,0.0,8.0,left,0.0,3.1717432500001905,,accuracy,space,22.96071424999991,,,,,,0.0,0.0,0.0,0.0,8.0,0.0,16.0,1.0,315.33683791600004,,,,,,,,,315.329922708,316.127953541,316.91942666600005,316.9118427499999,316.91228625,316.91942666600005,316.91942666600005,316.91942666600005,,320.09482408299993,,,,,,,,,,,,,,,,,,,,,,,,,,,,,,left,0.0,3.1717432500001905,,,,,,sub-090,1,random_dot,,
left,left,17.0,1.0,8.0,left,1.0,5.6577537080002,,accuracy,space,22.96071424999991,,,,,,0.0,0.0,0.0,0.0,8.0,1.0,17.0,0.0,320.09981466600004,,,,,,,,,320.09525570799985,320.88461770800006,321.67642225,321.668124125,321.668555958,321.67642225,321.67642225,321.67642225,326.66121804099987,327.3368019999999,,,,,,,,,,,,,,,,,,,,,,,,,,,,,,left,1.0,5.6577537080002,,,,,,sub-090,1,random_dot,,
right,right,18.0,0.0,9.0,right,1.0,5.323606791999964,,accuracy,space,22.96071424999991,,,,,,0.0,0.0,0.0,0.0,9.0,0.0,18.0,1.0,327.3468851659999,,,,,,,,,327.33744979100004,327.6848442909999,328.476295541,328.46782841599986,328.46824908299993,328.476295541,328.476295541,328.476295541,333.464562583,333.80367712500004,,,,,,,,,,,,,,,,,,,,,,,,,,,,,,right,1.0,5.323606791999964,,,,,,sub-090,1,random_dot,,
left,left,19.0,1.0,9.0,left,1.0,5.729840917000047,,accuracy,space,22.96071424999991,,,,,,0.0,0.0,0.0,0.0,9.0,1.0,19.0,0.0,333.81350066599987,,,,,,,,,333.8042302079999,333.900766333,334.6930060409999,334.68425516600007,334.6846795,334.6930060409999,334.6930060409999,334.6930060409999,339.67786216599995,340.4299998329999,,,,,,,,,,,,,,,,,,,,,,,,,,,,,,left,1.0,5.729840917000047,,,,,,sub-090,1,random_dot,,
left,left,20.0,0.0,10.0,right,0.0,4.908362750000151,,accuracy,space,22.96071424999991,,,,,,0.0,0.0,0.0,0.0,10.0,0.0,20.0,0.0,340.43997624999986,,,,,,,,,340.4306694579999,341.22797420799986,342.0199779159999,342.0120524160001,342.01261191599986,342.0199779159999,342.0199779159999,342.0199779159999,,346.93558641599986,,,,,,,,,,,,,,,,,,,,,,,,,,,,,,right,0.0,4.908362750000151,,,,,,sub-090,1,random_dot,,
right,right,21.0,1.0,10.0,left,0.0,5.322262832999968,,accuracy,space,22.96071424999991,,,,,,0.0,0.0,0.0,0.0,10.0,1.0,21.0,1.0,346.94296291600006,,,,,,,,,346.93601412500004,347.03350324999985,347.8263028329999,347.817373708,347.817800916,347.8263028329999,347.8263028329999,347.8263028329999,352.81119087499985,353.15365925000003,,,,,,,,,,,,,,,,,,,,,,,,,,,,,,left,0.0,5.322262832999968,,,,,,sub-090,1,random_dot,,
right,right,22.0,0.0,11.0,left,0.0,2.80270754199978,,accuracy,space,22.96071424999991,,,,,,0.0,0.0,0.0,0.0,11.0,0.0,22.0,1.0,353.163526791,,,,,,,,,353.154238791,354.351197458,355.153381666,355.14513320799995,355.14568558300004,355.153381666,355.153381666,355.153381666,,357.96294679100004,,,,,,,,,,,,,,,,,,,,,,,,,,,,,,left,0.0,2.80270754199978,,,,,,sub-090,1,random_dot,,
left,left,23.0,1.0,11.0,left,1.0,3.614745082999889,,accuracy,space,22.96071424999991,,,,,,0.0,0.0,0.0,0.0,11.0,1.0,23.0,0.0,357.970501083,,,,,,,,,357.96348616600005,358.761127375,359.5533268329999,359.545231041,359.5457842499999,359.5533268329999,359.5533268329999,359.5533268329999,,363.1701623329999,,,,,,,,,,,,,,,,,,,,,,,,,,,,,,left,1.0,3.614745082999889,,,,,,sub-090,1,random_dot,,
right,right,24.0,0.0,12.0,left,0.0,3.1404907910000475,,accuracy,space,22.96071424999991,,,,,,0.0,0.0,0.0,0.0,12.0,0.0,24.0,1.0,363.176243125,,,,,,,,,363.1705671250001,363.266617416,364.05968875,364.0514132909999,364.05183758300007,364.05968875,364.05968875,364.05968875,,367.2026932499999,,,,,,,,,,,,,,,,,,,,,,,,,,,,,,left,0.0,3.1404907910000475,,,,,,sub-090,1,random_dot,,
left,left,25.0,1.0,12.0,right,0.0,2.436699709000095,,accuracy,space,22.96071424999991,,,,,,0.0,0.0,0.0,0.0,12.0,1.0,25.0,0.0,367.2096680409999,,,,,,,,,367.203074333,367.3004864159999,368.09290691600006,368.0845646249999,368.0850079999999,368.09290691600006,368.09290691600006,368.09290691600006,,370.535512583,,,,,,,,,,,,,,,,,,,,,,,,,,,,,,right,0.0,2.436699709000095,,,,,,sub-090,1,random_dot,,
right,right,26.0,0.0,13.0,left,0.0,3.1795013749999725,,accuracy,space,22.96071424999991,,,,,,0.0,0.0,0.0,0.0,13.0,0.0,26.0,1.0,370.54337275,,,,,,,,,370.5358395,371.7332009999999,372.526435875,372.518023625,372.5184840409999,372.526435875,372.526435875,372.526435875,,375.712677208,,,,,,,,,,,,,,,,,,,,,,,,,,,,,,left,0.0,3.1795013749999725,,,,,,sub-090,1,random_dot,,
left,left,27.0,1.0,13.0,left,1.0,4.054455749999988,,accuracy,space,22.96071424999991,,,,,,0.0,0.0,0.0,0.0,13.0,1.0,27.0,0.0,375.7198238749999,,,,,,,,,375.713151458,376.061080333,376.85278575,376.8451535,376.8455991249999,376.85278575,376.85278575,376.85278575,,380.9121657499999,,,,,,,,,,,,,,,,,,,,,,,,,,,,,,left,1.0,4.054455749999988,,,,,,sub-090,1,random_dot,,
right,right,28.0,0.0,14.0,left,0.0,3.802853916000004,,accuracy,space,22.96071424999991,,,,,,0.0,0.0,0.0,0.0,14.0,0.0,28.0,1.0,380.919147083,,,,,,,,,380.9124996659999,381.7110121249999,382.502524833,382.4949658750001,382.49541187500006,382.502524833,382.502524833,382.502524833,,386.31284,,,,,,,,,,,,,,,,,,,,,,,,,,,,,,left,0.0,3.802853916000004,,,,,,sub-090,1,random_dot,,
left,left,29.0,1.0,14.0,right,0.0,3.453149707999956,,accuracy,space,22.96071424999991,,,,,,0.0,0.0,0.0,0.0,14.0,1.0,29.0,0.0,386.320238083,,,,,,,,,386.313322333,387.111147041,387.9031148749999,387.895235333,387.89577091600006,387.9031148749999,387.9031148749999,387.9031148749999,,391.3608149159999,,,,,,,,,,,,,,,,,,,,,,,,,,,,,,right,0.0,3.453149707999956,,,,,,sub-090,1,random_dot,,
right,right,30.0,0.0,15.0,left,0.0,4.002081500000031,,accuracy,space,22.96071424999991,,,,,,0.0,0.0,0.0,0.0,15.0,0.0,30.0,1.0,391.3676402499999,,,,,,,,,391.361151208,392.5508053749999,393.34279075000006,393.3340939159999,393.33451816600007,393.34279075000006,393.34279075000006,393.34279075000006,,397.355744958,,,,,,,,,,,,,,,,,,,,,,,,,,,,,,left,0.0,4.002081500000031,,,,,,sub-090,1,random_dot,,
left,left,31.0,1.0,15.0,left,1.0,5.25791412500007,,accuracy,space,22.96071424999991,,,,,,0.0,0.0,0.0,0.0,15.0,1.0,31.0,0.0,397.359925416,,,,,,,,,397.356066125,397.450540875,398.24289254100006,398.234089166,398.234518416,398.24289254100006,398.24289254100006,398.24289254100006,403.227506458,403.50341775,,,,,,,,,,,,,,,,,,,,,,,,,,,,,,left,1.0,5.25791412500007,,,,,,sub-090,1,random_dot,,
left,left,32.0,0.0,16.0,left,1.0,5.519786249999925,,accuracy,space,22.96071424999991,,,,,,0.0,0.0,0.0,0.0,16.0,0.0,32.0,0.0,403.5132964579999,,,,,,,,,403.504108791,403.600396208,404.3928367499999,404.384196375,404.384622791,404.3928367499999,404.3928367499999,404.3928367499999,409.382011541,409.9202327499999,,,,,,,,,,,,,,,,,,,,,,,,,,,,,,left,1.0,5.519786249999925,,,,,,sub-090,1,random_dot,,
right,right,33.0,1.0,16.0,left,0.0,3.917082666999932,,accuracy,space,22.96071424999991,,,,,,0.0,0.0,0.0,0.0,16.0,1.0,33.0,1.0,409.92996475000007,,,,,,,,,409.920785916,410.0181629160001,410.8197744579999,410.81185,410.81239875,410.8197744579999,410.8197744579999,410.8197744579999,,414.7459237079999,,,,,,,,,,,,,,,,,,,,,,,,,,,,,,left,0.0,3.917082666999932,,,,,,sub-090,1,random_dot,,
right,right,34.0,0.0,17.0,left,0.0,5.359395667000172,,accuracy,space,22.96071424999991,,,,,,0.0,0.0,0.0,0.0,17.0,0.0,34.0,1.0,414.753347041,,,,,,,,,414.7463584579999,414.844252083,415.63597841600006,415.628400791,415.62884275,415.63597841600006,415.63597841600006,415.63597841600006,420.6172215,421.00308525,,,,,,,,,,,,,,,,,,,,,,,,,,,,,,left,0.0,5.359395667000172,,,,,,sub-090,1,random_dot,,
left,left,35.0,1.0,17.0,right,0.0,4.349179792000086,,accuracy,space,22.96071424999991,,,,,,0.0,0.0,0.0,0.0,17.0,1.0,35.0,0.0,421.013031416,,,,,,,,,421.0036255829999,421.1005611659999,421.892712125,421.884318041,421.8847569579999,421.892712125,421.892712125,421.892712125,,426.245568875,,,,,,,,,,,,,,,,,,,,,,,,,,,,,,right,0.0,4.349179792000086,,,,,,sub-090,1,random_dot,,
left,left,36.0,0.0,18.0,left,1.0,3.5543401249999533,,accuracy,space,22.96071424999991,,,,,,0.0,0.0,0.0,0.0,18.0,0.0,36.0,0.0,426.25027587500006,,,,,,,,,426.245902,426.3442602500001,427.136382625,427.128379375,427.128966291,427.136382625,427.136382625,427.136382625,,430.695978375,,,,,,,,,,,,,,,,,,,,,,,,,,,,,,left,1.0,3.5543401249999533,,,,,,sub-090,1,random_dot,,
right,right,37.0,1.0,18.0,right,1.0,3.862879750000048,,accuracy,space,22.96071424999991,,,,,,0.0,0.0,0.0,0.0,18.0,1.0,37.0,1.0,430.703524333,,,,,,,,,430.696471291,431.8943331659999,432.6862668329999,432.6782476249999,432.678686291,432.6862668329999,432.6862668329999,432.6862668329999,,436.562525958,,,,,,,,,,,,,,,,,,,,,,,,,,,,,,right,1.0,3.862879750000048,,,,,,sub-090,1,random_dot,,
left,left,38.0,0.0,19.0,left,1.0,5.575798415999998,,accuracy,space,22.96071424999991,,,,,,0.0,0.0,0.0,0.0,19.0,0.0,38.0,0.0,436.5700291249999,,,,,,,,,436.563005333,436.660902166,437.452876041,437.4450142909999,437.4455798329999,437.452876041,437.452876041,437.452876041,442.4318852079999,443.036448666,,,,,,,,,,,,,,,,,,,,,,,,,,,,,,left,1.0,5.575798415999998,,,,,,sub-090,1,random_dot,,
right,right,39.0,1.0,19.0,right,1.0,2.8686057909999363,,accuracy,space,22.96071424999991,,,,,,0.0,0.0,0.0,0.0,19.0,1.0,39.0,1.0,443.0463555,,,,,,,,,443.0370037910001,443.13380029100006,443.926066958,443.9172649579999,443.9176854159999,443.926066958,443.926066958,443.926066958,,446.8048431250001,,,,,,,,,,,,,,,,,,,,,,,,,,,,,,right,1.0,2.8686057909999363,,,,,,sub-090,1,random_dot,,
left,left,40.0,0.0,20.0,right,0.0,3.3316492080000444,,accuracy,space,22.96071424999991,,,,,,0.0,0.0,0.0,0.0,20.0,0.0,40.0,0.0,446.8094004579999,,,,,,,,,446.8051809580001,447.600106541,448.3926805,448.384149208,448.3845728329999,448.3926805,448.3926805,448.3926805,,451.7290772079999,,,,,,,,,,,,,,,,,,,,,,,,,,,,,,right,0.0,3.3316492080000444,,,,,,sub-090,1,random_dot,,
right,right,41.0,1.0,20.0,right,1.0,5.301840041999867,,accuracy,space,22.96071424999991,,,,,,0.0,0.0,0.0,0.0,20.0,1.0,41.0,1.0,451.7365585409999,,,,,,,,,451.7294914999999,451.82752975000005,452.6199142909999,452.611749,452.6122972909999,452.6199142909999,452.6199142909999,452.6199142909999,457.6108001249999,457.9295348330001,,,,,,,,,,,,,,,,,,,,,,,,,,,,,,right,1.0,5.301840041999867,,,,,,sub-090,1,random_dot,,
left,left,42.0,0.0,21.0,left,1.0,2.7682865000001584,,accuracy,space,22.96071424999991,,,,,,0.0,0.0,0.0,0.0,21.0,0.0,42.0,0.0,457.9388103749999,,,,,,,,,457.930161458,458.027506541,458.8198745409999,458.811601666,458.812054916,458.8198745409999,458.8198745409999,458.8198745409999,,461.5957763329999,,,,,,,,,,,,,,,,,,,,,,,,,,,,,,left,1.0,2.7682865000001584,,,,,,sub-090,1,random_dot,,
right,right,43.0,1.0,21.0,right,1.0,1.5244769590001397,,accuracy,space,22.96071424999991,,,,,,0.0,0.0,0.0,0.0,21.0,1.0,43.0,1.0,461.6029185409999,,,,,,,,,461.59613887500007,461.944202416,462.736585791,462.728460791,462.729125666,462.736585791,462.736585791,462.736585791,,464.26311962500006,,,,,,,,,,,,,,,,,,,,,,,,,,,,,,right,1.0,1.5244769590001397,,,,,,sub-090,1,random_dot,,
left,left,44.0,0.0,22.0,right,0.0,3.4086202909998065,,accuracy,space,22.96071424999991,,,,,,0.0,0.0,0.0,0.0,22.0,0.0,44.0,0.0,464.270327458,,,,,,,,,464.263672041,465.4608139159999,466.2532676249999,466.2452858329999,466.245838083,466.2532676249999,466.2532676249999,466.2532676249999,,469.668913291,,,,,,,,,,,,,,,,,,,,,,,,,,,,,,right,0.0,3.4086202909998065,,,,,,sub-090,1,random_dot,,
right,right,45.0,1.0,22.0,right,1.0,6.541389459000129,,accuracy,space,22.96071424999991,,,,,,0.0,0.0,0.0,0.0,22.0,1.0,45.0,1.0,469.6759632079999,,,,,,,,,469.6692359160001,470.8676154159999,471.6697191249999,471.6616117079999,471.6621543329999,471.6697191249999,471.6697191249999,471.6697191249999,476.660840791,478.21391633299993,,,,,,,,,,,,,,,,,,,,,,,,,,,,,,right,1.0,6.541389459000129,,,,,,sub-090,1,random_dot,,
right,right,46.0,0.0,23.0,left,0.0,1.5408055420000435,,accuracy,space,22.96071424999991,,,,,,0.0,0.0,0.0,0.0,23.0,0.0,46.0,1.0,478.223828541,,,,,,,,,478.2145932909999,479.410807458,480.2031517909999,480.1949377499999,480.1954924579999,480.2031517909999,480.2031517909999,480.2031517909999,,481.746127666,,,,,,,,,,,,,,,,,,,,,,,,,,,,,,left,0.0,1.5408055420000435,,,,,,sub-090,1,random_dot,,
left,left,47.0,1.0,23.0,right,0.0,2.799948916999938,,accuracy,space,22.96071424999991,,,,,,0.0,0.0,0.0,0.0,23.0,1.0,47.0,0.0,481.754299583,,,,,,,,,481.746701083,482.94414570800006,483.735602416,483.72790875,483.728353291,483.735602416,483.735602416,483.735602416,,486.5439815409999,,,,,,,,,,,,,,,,,,,,,,,,,,,,,,right,0.0,2.799948916999938,,,,,,sub-090,1,random_dot,,
right,right,48.0,0.0,24.0,right,1.0,2.4575998750001418,,accuracy,space,22.96071424999991,,,,,,0.0,0.0,0.0,0.0,24.0,0.0,48.0,1.0,486.550899041,,,,,,,,,486.5443255409999,486.632877958,487.4258874579999,487.4174212909999,487.417847333,487.4258874579999,487.4258874579999,487.4258874579999,,489.885649125,,,,,,,,,,,,,,,,,,,,,,,,,,,,,,right,1.0,2.4575998750001418,,,,,,sub-090,1,random_dot,,
left,left,49.0,1.0,24.0,left,1.0,1.7711322079999263,,accuracy,space,22.96071424999991,,,,,,0.0,0.0,0.0,0.0,24.0,1.0,49.0,0.0,489.8928581249999,,,,,,,,,489.885965625,491.084468166,491.88650058299993,491.878140833,491.878592375,491.88650058299993,491.88650058299993,491.88650058299993,,493.66190062499993,,,,,,,,,,,,,,,,,,,,,,,,,,,,,,left,1.0,1.7711322079999263,,,,,,sub-090,1,random_dot,,
left,left,50.0,0.0,25.0,left,1.0,1.6346480409999913,,accuracy,space,22.96071424999991,,,,,,0.0,0.0,0.0,0.0,25.0,0.0,50.0,0.0,493.6664414159999,,,,,,,,,493.6622011660001,493.760734416,494.5527798330001,494.5448016249999,494.5453430829999,494.5527798330001,494.5527798330001,494.5527798330001,,496.1956919159999,,,,,,,,,,,,,,,,,,,,,,,,,,,,,,left,1.0,1.6346480409999913,,,,,,sub-090,1,random_dot,,
right,right,51.0,1.0,25.0,right,1.0,1.2409354999999778,,accuracy,space,22.96071424999991,,,,,,0.0,0.0,0.0,0.0,25.0,1.0,51.0,1.0,496.203404541,,,,,,,,,496.196167708,496.99417204100007,497.786057083,497.7781678749999,497.7787230830001,497.786057083,497.786057083,497.786057083,,499.028953208,,,,,,,,,,,,,,,,,,,,,,,,,,,,,,right,1.0,1.2409354999999778,,,,,,sub-090,1,random_dot,,
left,left,52.0,0.0,26.0,right,0.0,0.8986230000000432,,accuracy,space,22.96071424999991,,,,,,0.0,0.0,0.0,0.0,26.0,0.0,52.0,0.0,499.03604870800007,,,,,,,,,499.029368208,500.2274577499999,501.0187387499999,501.01117225,501.011614375,501.0187387499999,501.0187387499999,501.0187387499999,,501.929258583,,,,,,,,,,,,,,,,,,,,,,,,,,,,,,right,0.0,0.8986230000000432,,,,,,sub-090,1,random_dot,,
right,right,53.0,1.0,26.0,right,1.0,0.770898834000036,,accuracy,space,22.96071424999991,,,,,,0.0,0.0,0.0,0.0,26.0,1.0,53.0,1.0,501.9367033329999,,,,,,,,,501.9297486249999,502.2774450409999,503.06897512500007,503.061413541,503.0618498749999,503.06897512500007,503.06897512500007,503.06897512500007,,503.84454237500006,,,,,,,,,,,,,,,,,,,,,,,,,,,,,,right,1.0,0.770898834000036,,,,,,sub-090,1,random_dot,,
left,left,54.0,0.0,27.0,right,0.0,1.0517971669999042,,accuracy,space,22.96071424999991,,,,,,0.0,0.0,0.0,0.0,27.0,0.0,54.0,0.0,503.85145958300006,,,,,,,,,503.8449165829999,503.933025833,504.7258444159999,504.717380291,504.7178069159999,504.7258444159999,504.7258444159999,504.7258444159999,,505.7884255,,,,,,,,,,,,,,,,,,,,,,,,,,,,,,right,0.0,1.0517971669999042,,,,,,sub-090,1,random_dot,,
right,right,55.0,1.0,27.0,right,1.0,1.613128665999966,,accuracy,space,22.96071424999991,,,,,,0.0,0.0,0.0,0.0,27.0,1.0,55.0,1.0,505.792488875,,,,,,,,,505.788735791,505.8833618749999,506.6758874159999,506.66712229100006,506.6675510409999,506.6758874159999,506.6758874159999,506.6758874159999,,508.2954041659999,,,,,,,,,,,,,,,,,,,,,,,,,,,,,,right,1.0,1.613128665999966,,,,,,sub-090,1,random_dot,,
left,left,56.0,0.0,28.0,right,0.0,2.1084953330000644,,accuracy,space,22.96071424999991,,,,,,0.0,0.0,0.0,0.0,28.0,0.0,56.0,0.0,508.302675458,,,,,,,,,508.295829416,509.0938096659999,509.8865629159999,509.878232208,509.8788564579999,509.8865629159999,509.8865629159999,509.8865629159999,,512.0025004999999,,,,,,,,,,,,,,,,,,,,,,,,,,,,,,right,0.0,2.1084953330000644,,,,,,sub-090,1,random_dot,,
right,right,57.0,1.0,28.0,right,1.0,2.1394335840000167,,accuracy,space,22.96071424999991,,,,,,0.0,0.0,0.0,0.0,28.0,1.0,57.0,1.0,512.0094384999999,,,,,,,,,512.0028267910001,512.8006393750001,513.592588958,513.58435275,513.5847774999999,513.592588958,513.592588958,513.592588958,,515.735427791,,,,,,,,,,,,,,,,,,,,,,,,,,,,,,right,1.0,2.1394335840000167,,,,,,sub-090,1,random_dot,,
right,right,58.0,0.0,29.0,right,1.0,2.3114222499998505,,accuracy,space,22.96071424999991,,,,,,0.0,0.0,0.0,0.0,29.0,0.0,58.0,1.0,515.743013875,,,,,,,,,515.735842208,516.5337338329999,517.325831125,517.317706916,517.318124125,517.325831125,517.325831125,517.325831125,,519.6437285829999,,,,,,,,,,,,,,,,,,,,,,,,,,,,,,right,1.0,2.3114222499998505,,,,,,sub-090,1,random_dot,,
left,left,59.0,1.0,29.0,left,1.0,1.058996124999794,,accuracy,space,22.96071424999991,,,,,,0.0,0.0,0.0,0.0,29.0,1.0,59.0,0.0,519.650736041,,,,,,,,,519.644052166,519.9838973749999,520.775789125,520.7673304159999,520.767756375,520.775789125,520.775789125,520.775789125,,521.8451718329999,,,,,,,,,,,,,,,,,,,,,,,,,,,,,,left,1.0,1.058996124999794,,,,,,sub-090,1,random_dot,,
,,0.0,0.0,0.0,,,,,accuracy,space,22.96071424999991,,,,,,0.0,0.0,0.0,0.0,,,,,,,,,,,,,,,,,,,,,,,,,,,,,,,,,,,,,,,,,,,,,,,,,,,,,,,,,,,,,sub-090,1,random_dot,,
left,left,0.0,0.0,0.0,left,1.0,0.6261086249999153,,speed,space,4.582875250000143,,,,,,0.0,1.0,1.0,1.0,0.0,0.0,0.0,0.0,526.4700167909999,,,,,,,,,526.462652,526.800820666,527.5925020409999,527.583945,527.5843872909999,527.5925020409999,527.5925020409999,527.5925020409999,,528.228137291,,,,,,,,,,,,,,,,,,,,,,,521.8574842499999,521.86401625,521.86401625,526.4526246659999,space,4.582875250000143,,left,1.0,0.6261086249999153,,,,,,sub-090,1,random_dot,,
right,right,1.0,1.0,0.0,right,1.0,0.5479006670000217,,speed,space,4.582875250000143,,,,,,0.0,1.0,1.0,1.0,0.0,1.0,1.0,1.0,528.2361601659999,,,,,,,,,528.2286805,528.3156305829999,529.1091460409999,529.100590416,529.101014125,529.1091460409999,529.1091460409999,529.1091460409999,,529.661767291,,,,,,,,,,,,,,,,,,,,,,,,,,,,,,right,1.0,0.5479006670000217,,,,,,sub-090,1,random_dot,,
left,left,2.0,0.0,1.0,right,0.0,0.6373490000000857,,speed,space,4.582875250000143,,,,,,0.0,1.0,1.0,1.0,1.0,0.0,2.0,0.0,529.66837325,,,,,,,,,529.662096416,529.760655208,530.552245708,530.5446081659999,530.5450522079999,530.552245708,530.552245708,530.552245708,,531.195909166,,,,,,,,,,,,,,,,,,,,,,,,,,,,,,right,0.0,0.6373490000000857,,,,,,sub-090,1,random_dot,,
right,right,3.0,1.0,1.0,right,1.0,0.5667496250000568,,speed,space,4.582875250000143,,,,,,0.0,1.0,1.0,1.0,1.0,1.0,3.0,1.0,531.203251083,,,,,,,,,531.1964052079999,531.9940373329999,532.785887208,532.777949958,532.7783872910001,532.785887208,532.785887208,532.785887208,,533.36194225,,,,,,,,,,,,,,,,,,,,,,,,,,,,,,right,1.0,0.5667496250000568,,,,,,sub-090,1,random_dot,,
left,left,4.0,0.0,2.0,right,0.0,0.5488554579999345,,speed,space,4.582875250000143,,,,,,0.0,1.0,1.0,1.0,2.0,0.0,4.0,0.0,533.3685227909999,,,,,,,,,533.362269541,533.4606273329999,534.252931916,534.2448191249999,534.2452783329999,534.252931916,534.252931916,534.252931916,,534.812410958,,,,,,,,,,,,,,,,,,,,,,,,,,,,,,right,0.0,0.5488554579999345,,,,,,sub-090,1,random_dot,,
right,right,5.0,1.0,2.0,right,1.0,0.7203724169999077,,speed,space,4.582875250000143,,,,,,0.0,1.0,1.0,1.0,2.0,1.0,5.0,1.0,534.81951425,,,,,,,,,534.8128822079999,535.6108175829999,536.4026392499999,536.394867541,536.3953030829999,536.4026392499999,536.4026392499999,536.4026392499999,,537.128432375,,,,,,,,,,,,,,,,,,,,,,,,,,,,,,right,1.0,0.7203724169999077,,,,,,sub-090,1,random_dot,,
left,left,6.0,0.0,3.0,right,0.0,0.5047723339998811,,speed,space,4.582875250000143,,,,,,0.0,1.0,1.0,1.0,3.0,0.0,6.0,0.0,537.1351315409999,,,,,,,,,537.128743208,538.327327375,539.1195717909999,539.1115223329999,539.112112125,539.1195717909999,539.1195717909999,539.1195717909999,,539.627674666,,,,,,,,,,,,,,,,,,,,,,,,,,,,,,right,0.0,0.5047723339998811,,,,,,sub-090,1,random_dot,,
right,right,7.0,1.0,3.0,right,1.0,0.4855950829999074,,speed,space,4.582875250000143,,,,,,0.0,1.0,1.0,1.0,3.0,1.0,7.0,1.0,539.6323531249999,,,,,,,,,539.6279945,540.417491625,541.209201125,541.2010192909999,541.2014525829999,541.209201125,541.209201125,541.209201125,,541.7022725829999,,,,,,,,,,,,,,,,,,,,,,,,,,,,,,right,1.0,0.4855950829999074,,,,,,sub-090,1,random_dot,,
left,left,8.0,0.0,4.0,right,0.0,1.13842016600006,,speed,space,4.582875250000143,,,,,,0.0,1.0,1.0,1.0,4.0,0.0,8.0,0.0,541.7088843329999,,,,,,,,,541.7025797499999,541.8000375830001,542.5924638329999,542.583287666,542.583710791,542.5924638329999,542.5924638329999,542.5924638329999,,543.7338698749999,,,,,,,,,,,,,,,,,,,,,,,,,,,,,,right,0.0,1.13842016600006,,,,,,sub-090,1,random_dot,,
right,right,9.0,1.0,4.0,right,1.0,0.5849047920000885,,speed,space,4.582875250000143,,,,,,0.0,1.0,1.0,1.0,4.0,1.0,9.0,1.0,543.7428646249999,,,,,,,,,543.734189875,544.9328503749999,545.725800416,545.7170065829999,545.717431833,545.725800416,545.725800416,545.725800416,,546.3128854579999,,,,,,,,,,,,,,,,,,,,,,,,,,,,,,right,1.0,0.5849047920000885,,,,,,sub-090,1,random_dot,,
right,right,10.0,0.0,5.0,right,1.0,0.5583021249999547,,speed,space,4.582875250000143,,,,,,0.0,1.0,1.0,1.0,5.0,0.0,10.0,1.0,546.3199900409999,,,,,,,,,546.313435916,547.510730458,548.302742666,548.2948829579999,548.2954343749999,548.302742666,548.302742666,548.302742666,,548.871726166,,,,,,,,,,,,,,,,,,,,,,,,,,,,,,right,1.0,0.5583021249999547,,,,,,sub-090,1,random_dot,,
left,left,11.0,1.0,5.0,right,0.0,0.8636310000001686,,speed,space,4.582875250000143,,,,,,0.0,1.0,1.0,1.0,5.0,1.0,11.0,0.0,548.875864208,,,,,,,,,548.8720294999999,550.0671715,550.8590203749999,550.85065075,550.851073208,550.8590203749999,550.8590203749999,550.8590203749999,,551.727597083,,,,,,,,,,,,,,,,,,,,,,,,,,,,,,right,0.0,0.8636310000001686,,,,,,sub-090,1,random_dot,,
right,right,12.0,0.0,6.0,right,1.0,0.5302757080000902,,speed,space,4.582875250000143,,,,,,0.0,1.0,1.0,1.0,6.0,0.0,12.0,1.0,551.7346088329999,,,,,,,,,551.7280306249999,551.816180833,552.609295291,552.5997604579999,552.6001694579999,552.609295291,552.609295291,552.609295291,,553.1454418330001,,,,,,,,,,,,,,,,,,,,,,,,,,,,,,right,1.0,0.5302757080000902,,,,,,sub-090,1,random_dot,,
left,left,13.0,1.0,6.0,right,0.0,0.746845667000116,,speed,space,4.582875250000143,,,,,,0.0,1.0,1.0,1.0,6.0,1.0,13.0,0.0,553.1528803329999,,,,,,,,,553.1458831250001,553.4940962499999,554.2855874579999,554.277927041,554.2784733329999,554.2855874579999,554.2855874579999,554.2855874579999,,555.035957916,,,,,,,,,,,,,,,,,,,,,,,,,,,,,,right,0.0,0.746845667000116,,,,,,sub-090,1,random_dot,,
right,right,14.0,0.0,7.0,right,1.0,0.5732762089999142,,speed,space,4.582875250000143,,,,,,0.0,1.0,1.0,1.0,7.0,0.0,14.0,1.0,555.0431171659999,,,,,,,,,555.0363586249999,555.133028333,555.9257927909999,555.916751333,555.917162458,555.9257927909999,555.9257927909999,555.9257927909999,,556.5023354159999,,,,,,,,,,,,,,,,,,,,,,,,,,,,,,right,1.0,0.5732762089999142,,,,,,sub-090,1,random_dot,,
left,left,15.0,1.0,7.0,right,0.0,0.6375653330001114,,speed,space,4.582875250000143,,,,,,0.0,1.0,1.0,1.0,7.0,1.0,15.0,0.0,556.509115,,,,,,,,,556.5026510829999,557.2993722079999,558.0924516249999,558.084099583,558.084538958,558.0924516249999,558.0924516249999,558.0924516249999,,558.7359848329999,,,,,,,,,,,,,,,,,,,,,,,,,,,,,,right,0.0,0.6375653330001114,,,,,,sub-090,1,random_dot,,
left,left,16.0,0.0,8.0,left,1.0,0.6910188340000332,,speed,space,4.582875250000143,,,,,,0.0,1.0,1.0,1.0,8.0,0.0,16.0,0.0,558.7429787079999,,,,,,,,,558.736396791,558.8328820830001,559.625725833,559.616974375,559.617400041,559.625725833,559.625725833,559.625725833,,560.3185949580001,,,,,,,,,,,,,,,,,,,,,,,,,,,,,,left,1.0,0.6910188340000332,,,,,,sub-090,1,random_dot,,
right,right,17.0,1.0,8.0,right,1.0,0.6033477080000011,,speed,space,4.582875250000143,,,,,,0.0,1.0,1.0,1.0,8.0,1.0,17.0,1.0,560.325670333,,,,,,,,,560.318899166,560.6676325,561.469543,561.461306583,561.4618420829999,561.469543,561.469543,561.469543,,562.0786232080001,,,,,,,,,,,,,,,,,,,,,,,,,,,,,,right,1.0,0.6033477080000011,,,,,,sub-090,1,random_dot,,
right,right,18.0,0.0,9.0,left,0.0,1.5750289580000754,,speed,space,4.582875250000143,,,,,,0.0,1.0,1.0,1.0,9.0,0.0,18.0,1.0,562.0861384159999,,,,,,,,,562.079108083,563.2771885829999,564.069108041,564.0613924579999,564.0619352499999,564.069108041,564.069108041,564.069108041,,565.646072166,,,,,,,,,,,,,,,,,,,,,,,,,,,,,,left,0.0,1.5750289580000754,,,,,,sub-090,1,random_dot,,
left,left,19.0,1.0,9.0,right,0.0,0.9367291250000562,,speed,space,4.582875250000143,,,,,,0.0,1.0,1.0,1.0,9.0,1.0,19.0,0.0,565.650833458,,,,,,,,,565.6464358750001,565.9939759160001,566.7854263329999,566.777841166,566.778288916,566.7854263329999,566.7854263329999,566.7854263329999,,567.7287991249999,,,,,,,,,,,,,,,,,,,,,,,,,,,,,,right,0.0,0.9367291250000562,,,,,,sub-090,1,random_dot,,
left,left,20.0,0.0,10.0,left,1.0,0.7747885419998966,,speed,space,4.582875250000143,,,,,,0.0,1.0,1.0,1.0,10.0,0.0,20.0,0.0,567.7358561249999,,,,,,,,,567.729243458,567.827344083,568.619306083,568.6113771249999,568.6119271249999,568.619306083,568.619306083,568.619306083,,569.396348208,,,,,,,,,,,,,,,,,,,,,,,,,,,,,,left,1.0,0.7747885419998966,,,,,,sub-090,1,random_dot,,
right,right,21.0,1.0,10.0,right,1.0,0.7285023750000619,,speed,space,4.582875250000143,,,,,,0.0,1.0,1.0,1.0,10.0,1.0,21.0,1.0,569.4034105,,,,,,,,,569.3969062079999,569.4940023749999,570.286002208,570.2780577079999,570.278591833,570.286002208,570.286002208,570.286002208,,571.0186003749999,,,,,,,,,,,,,,,,,,,,,,,,,,,,,,right,1.0,0.7285023750000619,,,,,,sub-090,1,random_dot,,
right,right,22.0,0.0,11.0,left,0.0,0.9517383749998772,,speed,space,4.582875250000143,,,,,,0.0,1.0,1.0,1.0,11.0,0.0,22.0,1.0,571.025994791,,,,,,,,,571.018968666,571.3668872909999,572.1590152079999,572.150603208,572.1510314159999,572.1590152079999,572.1590152079999,572.1590152079999,,573.1176017500001,,,,,,,,,,,,,,,,,,,,,,,,,,,,,,left,0.0,0.9517383749998772,,,,,,sub-090,1,random_dot,,
left,left,23.0,1.0,11.0,right,0.0,0.6741431670000111,,speed,space,4.582875250000143,,,,,,0.0,1.0,1.0,1.0,11.0,1.0,23.0,0.0,573.125666708,,,,,,,,,573.1180679579999,573.9177330409999,574.7194170829999,574.7114344999999,574.712030041,574.7194170829999,574.7194170829999,574.7194170829999,,575.3956084579999,,,,,,,,,,,,,,,,,,,,,,,,,,,,,,right,0.0,0.6741431670000111,,,,,,sub-090,1,random_dot,,
left,left,24.0,0.0,12.0,left,1.0,0.8829250419998971,,speed,space,4.582875250000143,,,,,,0.0,1.0,1.0,1.0,12.0,0.0,24.0,0.0,575.402521541,,,,,,,,,575.3959765000001,576.193908416,576.9854019159999,576.9778058329999,576.978255958,576.9854019159999,576.9854019159999,576.9854019159999,,577.878815375,,,,,,,,,,,,,,,,,,,,,,,,,,,,,,left,1.0,0.8829250419998971,,,,,,sub-090,1,random_dot,,
right,right,25.0,1.0,12.0,left,0.0,1.000729832999923,,speed,space,4.582875250000143,,,,,,0.0,1.0,1.0,1.0,12.0,1.0,25.0,1.0,577.88581925,,,,,,,,,577.8792359999999,577.977266666,578.768533666,578.761120625,578.7615542079999,578.768533666,578.768533666,578.768533666,,579.7783853330001,,,,,,,,,,,,,,,,,,,,,,,,,,,,,,left,0.0,1.000729832999923,,,,,,sub-090,1,random_dot,,
left,left,26.0,0.0,13.0,left,1.0,0.9773889579998922,,speed,space,4.582875250000143,,,,,,0.0,1.0,1.0,1.0,13.0,0.0,26.0,0.0,579.785197666,,,,,,,,,579.778698666,580.5772888749999,581.3688498749999,581.3612427909999,581.3617043329999,581.3688498749999,581.3688498749999,581.3688498749999,,582.351145041,,,,,,,,,,,,,,,,,,,,,,,,,,,,,,left,1.0,0.9773889579998922,,,,,,sub-090,1,random_dot,,
right,right,27.0,1.0,13.0,left,0.0,1.0516329590000169,,speed,space,4.582875250000143,,,,,,0.0,1.0,1.0,1.0,13.0,1.0,27.0,1.0,582.3593421249999,,,,,,,,,582.351467958,583.1499284579999,583.9424513329999,583.9335554159999,583.933977708,583.9424513329999,583.9424513329999,583.9424513329999,,584.9961232909999,,,,,,,,,,,,,,,,,,,,,,,,,,,,,,left,0.0,1.0516329590000169,,,,,,sub-090,1,random_dot,,
right,right,28.0,0.0,14.0,right,1.0,0.944002208000029,,speed,space,4.582875250000143,,,,,,0.0,1.0,1.0,1.0,14.0,0.0,28.0,1.0,585.0032983749999,,,,,,,,,584.9966524160001,585.093818291,585.8857791659999,585.878138875,585.8785672079999,585.8857791659999,585.8857791659999,585.8857791659999,,586.8342018750001,,,,,,,,,,,,,,,,,,,,,,,,,,,,,,right,1.0,0.944002208000029,,,,,,sub-090,1,random_dot,,
left,left,29.0,1.0,14.0,left,1.0,1.062730375000001,,speed,space,4.582875250000143,,,,,,0.0,1.0,1.0,1.0,14.0,1.0,29.0,0.0,586.8425781249999,,,,,,,,,586.834518625,586.932515541,587.7256182079999,587.717141583,587.717591583,587.7256182079999,587.7256182079999,587.7256182079999,,588.7956231659999,,,,,,,,,,,,,,,,,,,,,,,,,,,,,,left,1.0,1.062730375000001,,,,,,sub-090,1,random_dot,,
left,left,30.0,0.0,15.0,right,0.0,1.5419643749999068,,speed,space,4.582875250000143,,,,,,0.0,1.0,1.0,1.0,15.0,0.0,30.0,0.0,588.803053208,,,,,,,,,588.796113,589.9938618749999,590.785495083,590.7778560410001,590.7783136659999,590.785495083,590.785495083,590.785495083,,592.335424125,,,,,,,,,,,,,,,,,,,,,,,,,,,,,,right,0.0,1.5419643749999068,,,,,,sub-090,1,random_dot,,
right,right,31.0,1.0,15.0,right,1.0,2.224079291999942,,speed,space,4.582875250000143,,,,,,0.0,1.0,1.0,1.0,15.0,1.0,31.0,1.0,592.3422805829999,,,,,,,,,592.335783916,593.1328124159999,593.9256121249999,593.9171379579999,593.9175875,593.9256121249999,593.9256121249999,593.9256121249999,,596.1514666249999,,,,,,,,,,,,,,,,,,,,,,,,,,,,,,right,1.0,2.224079291999942,,,,,,sub-090,1,random_dot,,
left,left,32.0,0.0,16.0,left,1.0,1.315568416999895,,speed,space,4.582875250000143,,,,,,0.0,1.0,1.0,1.0,16.0,0.0,32.0,0.0,596.1602763330001,,,,,,,,,596.1518024999999,597.3507268330001,598.1525883329999,598.1446892499999,598.1452411249999,598.1525883329999,598.1525883329999,598.1525883329999,,599.4791301249999,,,,,,,,,,,,,,,,,,,,,,,,,,,,,,left,1.0,1.315568416999895,,,,,,sub-090,1,random_dot,,
right,right,33.0,1.0,16.0,right,1.0,0.70800687499991,,speed,space,4.582875250000143,,,,,,0.0,1.0,1.0,1.0,16.0,1.0,33.0,1.0,599.486922791,,,,,,,,,599.479693916,600.2771884160001,601.0691914999999,601.061210833,601.0616477079999,601.0691914999999,601.0691914999999,601.0691914999999,,601.783701875,,,,,,,,,,,,,,,,,,,,,,,,,,,,,,right,1.0,0.70800687499991,,,,,,sub-090,1,random_dot,,
right,right,34.0,0.0,17.0,right,1.0,0.7801410829999895,,speed,space,4.582875250000143,,,,,,0.0,1.0,1.0,1.0,17.0,0.0,34.0,1.0,601.7927088749999,,,,,,,,,601.7840138329999,601.882759,602.67561575,602.6674125000001,602.6678324999999,602.67561575,602.67561575,602.67561575,,603.4615036249999,,,,,,,,,,,,,,,,,,,,,,,,,,,,,,right,1.0,0.7801410829999895,,,,,,sub-090,1,random_dot,,
left,left,35.0,1.0,17.0,left,1.0,0.7870316669998374,,speed,space,4.582875250000143,,,,,,0.0,1.0,1.0,1.0,17.0,1.0,35.0,0.0,603.468130291,,,,,,,,,603.461804333,603.8104661659999,604.602426541,604.594509375,604.595061416,604.602426541,604.602426541,604.602426541,,605.394075458,,,,,,,,,,,,,,,,,,,,,,,,,,,,,,left,1.0,0.7870316669998374,,,,,,sub-090,1,random_dot,,
right,right,36.0,0.0,18.0,right,1.0,0.7645219169999109,,speed,space,4.582875250000143,,,,,,0.0,1.0,1.0,1.0,18.0,0.0,36.0,1.0,605.4006988749999,,,,,,,,,605.3943957079999,605.733829791,606.525560916,606.516853,606.517266833,606.525560916,606.525560916,606.525560916,,607.2947593749999,,,,,,,,,,,,,,,,,,,,,,,,,,,,,,right,1.0,0.7645219169999109,,,,,,sub-090,1,random_dot,,
left,left,37.0,1.0,18.0,right,0.0,1.1641522920001537,,speed,space,4.582875250000143,,,,,,0.0,1.0,1.0,1.0,18.0,1.0,37.0,0.0,607.3014503329999,,,,,,,,,607.295080541,607.393809708,608.1857860829999,608.177876375,608.1784139999999,608.1857860829999,608.1857860829999,608.1857860829999,,609.3515673329999,,,,,,,,,,,,,,,,,,,,,,,,,,,,,,right,0.0,1.1641522920001537,,,,,,sub-090,1,random_dot,,
left,left,38.0,0.0,19.0,right,0.0,2.155372040999964,,speed,space,4.582875250000143,,,,,,0.0,1.0,1.0,1.0,19.0,0.0,38.0,0.0,609.359361083,,,,,,,,,609.351874333,609.44943675,610.242218083,610.2332909159999,610.233725125,610.242218083,610.242218083,610.242218083,,612.4017794160001,,,,,,,,,,,,,,,,,,,,,,,,,,,,,,right,0.0,2.155372040999964,,,,,,sub-090,1,random_dot,,
right,right,39.0,1.0,19.0,right,1.0,2.218001209000022,,speed,space,4.582875250000143,,,,,,0.0,1.0,1.0,1.0,19.0,1.0,39.0,1.0,612.4092541250001,,,,,,,,,612.4021806249999,613.2001703749999,614.002109208,613.994441333,613.9948457499999,614.002109208,614.002109208,614.002109208,,616.2289055,,,,,,,,,,,,,,,,,,,,,,,,,,,,,,right,1.0,2.218001209000022,,,,,,sub-090,1,random_dot,,
left,left,40.0,0.0,20.0,left,1.0,1.1199552079999648,,speed,space,4.582875250000143,,,,,,0.0,1.0,1.0,1.0,20.0,0.0,40.0,0.0,616.235944208,,,,,,,,,616.2292718329999,617.4271400829999,618.218458041,618.2110703330001,618.211503916,618.218458041,618.218458041,618.218458041,,619.345692,,,,,,,,,,,,,,,,,,,,,,,,,,,,,,left,1.0,1.1199552079999648,,,,,,sub-090,1,random_dot,,
right,right,41.0,1.0,20.0,right,1.0,1.0958424580001065,,speed,space,4.582875250000143,,,,,,0.0,1.0,1.0,1.0,20.0,1.0,41.0,1.0,619.352712125,,,,,,,,,619.346090958,619.443819166,620.2360018749999,620.2278816249999,620.228422,620.2360018749999,620.2360018749999,620.2360018749999,,621.334343458,,,,,,,,,,,,,,,,,,,,,,,,,,,,,,right,1.0,1.0958424580001065,,,,,,sub-090,1,random_dot,,
left,left,42.0,0.0,21.0,left,1.0,1.1965883329999087,,speed,space,4.582875250000143,,,,,,0.0,1.0,1.0,1.0,21.0,0.0,42.0,0.0,621.3426363749999,,,,,,,,,621.334662416,622.133334791,622.9255582909999,622.9164959999999,622.9169169159999,622.9255582909999,622.9255582909999,622.9255582909999,,624.1281467499999,,,,,,,,,,,,,,,,,,,,,,,,,,,,,,left,1.0,1.1965883329999087,,,,,,sub-090,1,random_dot,,
right,right,43.0,1.0,21.0,right,1.0,0.9454705839998496,,speed,space,4.582875250000143,,,,,,0.0,1.0,1.0,1.0,21.0,1.0,43.0,1.0,624.1352519159999,,,,,,,,,624.1285885829999,625.327206375,626.118554458,626.1111367499999,626.111570333,626.118554458,626.118554458,626.118554458,,627.065642166,,,,,,,,,,,,,,,,,,,,,,,,,,,,,,right,1.0,0.9454705839998496,,,,,,sub-090,1,random_dot,,
left,left,44.0,0.0,22.0,left,1.0,0.8180896250000842,,speed,space,4.582875250000143,,,,,,0.0,1.0,1.0,1.0,22.0,0.0,44.0,0.0,627.0768320829999,,,,,,,,,627.065957333,627.410504333,628.202225166,628.1945185000001,628.195044958,628.202225166,628.202225166,628.202225166,,629.0281859579999,,,,,,,,,,,,,,,,,,,,,,,,,,,,,,left,1.0,0.8180896250000842,,,,,,sub-090,1,random_dot,,
right,right,45.0,1.0,22.0,right,1.0,1.2156471250000322,,speed,space,4.582875250000143,,,,,,0.0,1.0,1.0,1.0,22.0,1.0,45.0,1.0,629.0348787500001,,,,,,,,,629.028504708,629.377054708,630.1689890829999,630.161099541,630.1616387079999,630.1689890829999,630.1689890829999,630.1689890829999,,631.3951185,,,,,,,,,,,,,,,,,,,,,,,,,,,,,,right,1.0,1.2156471250000322,,,,,,sub-090,1,random_dot,,
right,right,46.0,0.0,23.0,right,1.0,1.5522042920001695,,speed,space,4.582875250000143,,,,,,0.0,1.0,1.0,1.0,23.0,0.0,46.0,1.0,631.4021764159999,,,,,,,,,631.3955602909999,631.4937369579999,632.285721458,632.2778232499999,632.2783686249999,632.285721458,632.285721458,632.285721458,,633.8448327079999,,,,,,,,,,,,,,,,,,,,,,,,,,,,,,right,1.0,1.5522042920001695,,,,,,sub-090,1,random_dot,,
left,left,47.0,1.0,23.0,right,0.0,1.0103617079998912,,speed,space,4.582875250000143,,,,,,0.0,1.0,1.0,1.0,23.0,1.0,47.0,0.0,633.8517149999999,,,,,,,,,633.845159333,633.9436595409999,634.7360287079999,634.727900583,634.7284610830001,634.7360287079999,634.7360287079999,634.7360287079999,,635.7505539999999,,,,,,,,,,,,,,,,,,,,,,,,,,,,,,right,0.0,1.0103617079998912,,,,,,sub-090,1,random_dot,,
right,right,48.0,0.0,24.0,right,1.0,0.9832471659999557,,speed,space,4.582875250000143,,,,,,0.0,1.0,1.0,1.0,24.0,0.0,48.0,1.0,635.7592610410001,,,,,,,,,635.7508650829999,636.0938118329999,636.8855333329999,636.8776993329999,636.8781547499999,636.8855333329999,636.8855333329999,636.8855333329999,,637.8784213749999,,,,,,,,,,,,,,,,,,,,,,,,,,,,,,right,1.0,0.9832471659999557,,,,,,sub-090,1,random_dot,,
left,left,49.0,1.0,24.0,left,1.0,1.0625966249999692,,speed,space,4.582875250000143,,,,,,0.0,1.0,1.0,1.0,24.0,1.0,49.0,0.0,637.8854096249999,,,,,,,,,637.878819166,639.0770376659999,639.8687725829999,639.861104916,639.8616465829999,639.8687725829999,639.8687725829999,639.8687725829999,,640.94482175,,,,,,,,,,,,,,,,,,,,,,,,,,,,,,left,1.0,1.0625966249999692,,,,,,sub-090,1,random_dot,,
left,left,50.0,0.0,25.0,right,0.0,0.7708824999999706,,speed,space,4.582875250000143,,,,,,0.0,1.0,1.0,1.0,25.0,0.0,50.0,0.0,640.951522666,,,,,,,,,640.945138125,641.293669041,642.0856102909999,642.0777422499999,642.0781833749999,642.0856102909999,642.0856102909999,642.0856102909999,,642.862020875,,,,,,,,,,,,,,,,,,,,,,,,,,,,,,right,0.0,0.7708824999999706,,,,,,sub-090,1,random_dot,,
right,right,51.0,1.0,25.0,right,1.0,1.4489362080000774,,speed,space,4.582875250000143,,,,,,0.0,1.0,1.0,1.0,25.0,1.0,51.0,1.0,642.869050125,,,,,,,,,642.8624718329999,643.210548333,644.0023264999999,643.994449875,643.9949894999999,644.0023264999999,644.0023264999999,644.0023264999999,,645.4620384159999,,,,,,,,,,,,,,,,,,,,,,,,,,,,,,right,1.0,1.4489362080000774,,,,,,sub-090,1,random_dot,,
left,left,52.0,0.0,26.0,left,1.0,1.119103042000006,,speed,space,4.582875250000143,,,,,,0.0,1.0,1.0,1.0,26.0,0.0,52.0,0.0,645.4691993329999,,,,,,,,,645.4625018749999,645.8104325829999,646.6023992909999,646.594473625,646.5950261659999,646.6023992909999,646.6023992909999,646.6023992909999,,647.7284177079999,,,,,,,,,,,,,,,,,,,,,,,,,,,,,,left,1.0,1.119103042000006,,,,,,sub-090,1,random_dot,,
right,right,53.0,1.0,26.0,right,1.0,0.8914811659999486,,speed,space,4.582875250000143,,,,,,0.0,1.0,1.0,1.0,26.0,1.0,53.0,1.0,647.7353749160001,,,,,,,,,647.728824875,647.826960666,648.618815875,648.6110688749999,648.6116082499999,648.618815875,648.618815875,648.618815875,,649.512322875,,,,,,,,,,,,,,,,,,,,,,,,,,,,,,right,1.0,0.8914811659999486,,,,,,sub-090,1,random_dot,,
right,right,54.0,0.0,27.0,left,0.0,1.0185066250001,,speed,space,4.582875250000143,,,,,,0.0,1.0,1.0,1.0,27.0,0.0,54.0,1.0,649.5194271659999,,,,,,,,,649.5128236249999,649.6103132909999,650.4023268749999,650.3944950829999,650.395035375,650.4023268749999,650.4023268749999,650.4023268749999,,651.428436708,,,,,,,,,,,,,,,,,,,,,,,,,,,,,,left,0.0,1.0185066250001,,,,,,sub-090,1,random_dot,,
left,left,55.0,1.0,27.0,right,0.0,0.8662080000001424,,speed,space,4.582875250000143,,,,,,0.0,1.0,1.0,1.0,27.0,1.0,55.0,0.0,651.4351741659999,,,,,,,,,651.428767791,652.227030791,653.0189850410001,653.011043458,653.0115899159999,653.0189850410001,653.0189850410001,653.0189850410001,,653.895099041,,,,,,,,,,,,,,,,,,,,,,,,,,,,,,right,0.0,0.8662080000001424,,,,,,sub-090,1,random_dot,,
right,right,56.0,0.0,28.0,right,1.0,0.6995776670000851,,speed,space,4.582875250000143,,,,,,0.0,1.0,1.0,1.0,28.0,0.0,56.0,1.0,653.9022603330001,,,,,,,,,653.895641125,654.693730583,655.485447208,655.4776351659999,655.478072625,655.485447208,655.485447208,655.485447208,,656.192847791,,,,,,,,,,,,,,,,,,,,,,,,,,,,,,right,1.0,0.6995776670000851,,,,,,sub-090,1,random_dot,,
left,left,57.0,1.0,28.0,right,0.0,0.741508291999935,,speed,space,4.582875250000143,,,,,,0.0,1.0,1.0,1.0,28.0,1.0,57.0,0.0,656.1993152910001,,,,,,,,,656.193158333,657.383297625,658.1755144580001,658.166761625,658.1671797079999,658.1755144580001,658.1755144580001,658.1755144580001,,658.9191312499999,,,,,,,,,,,,,,,,,,,,,,,,,,,,,,right,0.0,0.741508291999935,,,,,,sub-090,1,random_dot,,
right,right,58.0,0.0,29.0,right,1.0,0.5789899999999761,,speed,space,4.582875250000143,,,,,,0.0,1.0,1.0,1.0,29.0,0.0,58.0,1.0,658.9263777079999,,,,,,,,,658.919498375,660.1164736659999,660.908746291,660.899893291,660.900312958,660.908746291,660.908746291,660.908746291,,661.4939693749999,,,,,,,,,,,,,,,,,,,,,,,,,,,,,,right,1.0,0.5789899999999761,,,,,,sub-090,1,random_dot,,
left,left,59.0,1.0,29.0,right,0.0,0.8960089170000174,,speed,space,4.582875250000143,,,,,,0.0,1.0,1.0,1.0,29.0,1.0,59.0,0.0,661.500692708,,,,,,,,,661.4943166249999,661.5844364159999,662.3852459999999,662.3776279580001,662.378072416,662.3852459999999,662.3852459999999,662.3852459999999,,663.284526041,,,,,,,,,,,,,,,,,,,,,,,,,,,,,,right,0.0,0.8960089170000174,,,,,,sub-090,1,random_dot,,
,,1.0,1.0,0.0,,,,,speed,space,4.582875250000143,,,,,,0.0,1.0,1.0,1.0,,,,,,,,,,,,,,,,,,,,,,,,,,,,,,,,,,,,,,,,,,,,,,,,,,,,,,,,,,,,,sub-090,1,random_dot,,
,,,,,,,,,,,,,,,,,,,,,,,,,,,,,,,,,,,,,,,,,,,,,,,,,,,,,,,,,,,,,,,,,,,,,,,,,,,,,663.2900485409999,663.296842416,668.2935894999999,668.2836450409999,sub-090,1,random_dot,,
