wordCTK,colorCTK,corrAnsCTK,congruentCTK,thisN,thisTrialN,thisRepN,keyResp_CTK.keys,keyResp_CTK.corr,keyResp_CTK.rt,keyResp_CTK.duration,wordPractice,colorPractice,corrAnsPractice,congruentPractice,respPractice.keys,respPractice.corr,respPractice.rt,respPractice.duration,word,color,corrAns,congruent,keyResp_test_run.keys,keyResp_test_run.corr,keyResp_test_run.rt,keyResp_test_run.duration,trials_CTK.thisRepN,trials_CTK.thisTrialN,trials_CTK.thisN,trials_CTK.thisIndex,trials_practice.thisRepN,trials_practice.thisTrialN,trials_practice.thisN,trials_practice.thisIndex,trials_test.thisRepN,trials_test.thisTrialN,trials_test.thisN,trials_test.thisIndex,thisRow.t,notes,instruction.started,instr_text.started,instr_image.started,instr_resp.started,instruction.stopped,instr_resp.keys,instr_resp.rt,instr_resp.duration,instr_color_to_key.started,instr_ctk.started,resp_ctk.started,instr_color_to_key.stopped,resp_ctk.keys,resp_ctk.rt,resp_ctk.duration,ITI.started,fixcross.started,fixcross.stopped,ITI.stopped,color_to_key_run.started,stimulus_CTK.started,keyResp_CTK.started,color_to_key_run.stopped,trials_CTK.keyResp_CTK.keys,trials_CTK.keyResp_CTK.corr,trials_CTK.keyResp_CTK.rt,trials_CTK.keyResp_CTK.duration,instr_practice.started,instr_practice_text.started,instr_practice_resp.started,instr_practice.stopped,instr_practice_resp.keys,instr_practice_resp.rt,instr_practice_resp.duration,practice_run.started,stimulus_practice.started,respPractice.started,practice_run.stopped,trials_practice.respPractice.keys,trials_practice.respPractice.corr,trials_practice.respPractice.rt,trials_practice.respPractice.duration,feedback.started,textFeedback.started,feedback.stopped,textFeedback.stopped,instr_test.started,instr_test_text.started,instr_test_resp.started,instr_test.stopped,instr_test_resp.keys,instr_test_resp.rt,instr_test_resp.duration,test_run.started,stimulus_test_run.started,keyResp_test_run.started,test_run.stopped,trials_test.keyResp_test_run.keys,trials_test.keyResp_test_run.corr,trials_test.keyResp_test_run.rt,trials_test.keyResp_test_run.duration,goodbye.started,textGoodbye.started,textGoodbye.stopped,goodbye.stopped,participant,session,expName,frameRate,Unnamed: 113
,,,,,,,,,,,,,,,,,,,,,,,,,,,,,,,,,,,,,,,,,0.0149253000272437,0.110068628040608,0.110068628040608,0.110068628040608,49.57640336698387,space,49.46441089303698,,,,,,,,,,,,,,,,,,,,,,,,,,,,,,,,,,,,,,,,,,,,,,,,,,,,,,,,,,,sub-064,1,stroop_test,60.58896275577093,
,,,,,,,,,,,,,,,,,,,,,,,,,,,,,,,,,,,,,,,,,,,,,,,,,49.57647386100143,49.59080130403163,49.59080130403163,58.777435399999376,space,9.16974843799835,,,,,,,,,,,,,,,,,,,,,,,,,,,,,,,,,,,,,,,,,,,,,,,,,,,,sub-064,1,stroop_test,60.58896275577093,
test,yellow,g,1.0,0.0,0.0,0.0,g,1.0,6.07460443204036,,,,,,,,,,,,,,,,,,0.0,0.0,0.0,1.0,,,,,,,,,58.79458725900622,,,,,,,,,,,,,,,,,58.78635770099936,59.58595821703784,60.39274544303771,60.37682950898306,60.38180509401718,60.39274544303771,60.39274544303771,66.4860602300032,g,1.0,6.07460443204036,,,,,,,,,,,,,,,,,,,,,,,,,,,,,,,,,,,,,,,,sub-064,1,stroop_test,60.58896275577093,
test,blue,b,1.0,1.0,1.0,0.0,b,1.0,2.009459182037972,,,,,,,,,,,,,,,,,,0.0,1.0,1.0,2.0,,,,,,,,,66.50374754698714,,,,,,,,,,,,,,,,,66.48635197099065,66.58713299402734,67.39374148199568,67.37842445203569,67.37901748600416,67.39374148199568,67.39374148199568,69.41210665600374,b,1.0,2.009459182037972,,,,,,,,,,,,,,,,,,,,,,,,,,,,,,,,,,,,,,,,sub-064,1,stroop_test,60.58896275577093,
test,red,r,1.0,2.0,2.0,0.0,r,1.0,1.1621275109937417,,,,,,,,,,,,,,,,,,0.0,2.0,2.0,0.0,,,,,,,,,69.4275065450347,,,,,,,,,,,,,,,,,69.41239238501294,69.77754118700977,70.57765035500051,70.56200215901481,70.5626066789846,70.57765035500051,70.57765035500051,71.74607727100374,r,1.0,1.1621275109937417,,,,,,,,,,,,,,,,,,,,,,,,,,,,,,,,,,,,,,,,sub-064,1,stroop_test,60.58896275577093,
test,red,r,1.0,3.0,0.0,1.0,r,1.0,0.5387609669705853,,,,,,,,,,,,,,,,,,1.0,0.0,3.0,0.0,,,,,,,,,71.76146092201816,,,,,,,,,,,,,,,,,71.74635857803514,72.11131218302762,72.91142550401855,72.89578794903355,72.89639094803715,72.91142550401855,72.91142550401855,73.46292877499945,r,1.0,0.5387609669705853,,,,,,,,,,,,,,,,,,,,,,,,,,,,,,,,,,,,,,,,sub-064,1,stroop_test,60.58896275577093,
test,yellow,g,1.0,4.0,1.0,1.0,g,1.0,1.000954044982791,,,,,,,,,,,,,,,,,,1.0,1.0,4.0,1.0,,,,,,,,,73.47785227803979,,,,,,,,,,,,,,,,,73.46321364399046,73.5779268059996,74.37831869500224,74.36253062798642,74.3631349389907,74.37831869500224,74.37831869500224,75.39691796898842,g,1.0,1.000954044982791,,,,,,,,,,,,,,,,,,,,,,,,,,,,,,,,,,,,,,,,sub-064,1,stroop_test,60.58896275577093,
test,blue,b,1.0,5.0,2.0,1.0,b,1.0,0.4625002869870513,,,,,,,,,,,,,,,,,,1.0,2.0,5.0,2.0,,,,,,,,,75.41194472799543,,,,,,,,,,,,,,,,,75.39722199301468,76.61392571398756,77.42900943401037,77.4130538640311,77.41364917199826,77.42900943401037,77.42900943401037,77.89724980702158,b,1.0,0.4625002869870513,,,,,,,,,,,,,,,,,,,,,,,,,,,,,,,,,,,,,,,,sub-064,1,stroop_test,60.58896275577093,
test,red,r,1.0,6.0,0.0,2.0,r,1.0,0.5728973119985312,,,,,,,,,,,,,,,,,,2.0,0.0,6.0,0.0,,,,,,,,,77.9120655170409,,,,,,,,,,,,,,,,,77.8975378019968,78.26212115900125,79.06261713802814,79.04697133903392,79.04756992502371,79.06261713802814,79.06261713802814,79.64104046399007,r,1.0,0.5728973119985312,,,,,,,,,,,,,,,,,,,,,,,,,,,,,,,,,,,,,,,,sub-064,1,stroop_test,60.58896275577093,
test,yellow,g,1.0,7.0,1.0,2.0,g,1.0,1.0295339069562033,,,,,,,,,,,,,,,,,,2.0,1.0,7.0,1.0,,,,,,,,,79.65595988702262,,,,,,,,,,,,,,,,,79.64133035601117,80.44617913500406,81.24627430702094,81.23046213702764,81.23108931002207,81.24627430702094,81.24627430702094,82.2811942010303,g,1.0,1.0295339069562033,,,,,,,,,,,,,,,,,,,,,,,,,,,,,,,,,,,,,,,,sub-064,1,stroop_test,60.58896275577093,
test,blue,b,1.0,8.0,2.0,2.0,b,1.0,0.6748313109856099,,,,,,,,,,,,,,,,,,2.0,2.0,8.0,2.0,,,,,,,,,82.29617020802107,,,,,,,,,,,,,,,,,82.28148224798497,83.49648647103459,84.29673119302606,84.28058417001739,84.2810167639982,84.29673119302606,84.29673119302606,84.98134996800218,b,1.0,0.6748313109856099,,,,,,,,,,,,,,,,,,,,,,,,,,,,,,,,,,,,,,,,sub-064,1,stroop_test,60.58896275577093,
test,red,r,1.0,9.0,0.0,3.0,r,1.0,0.638799705018755,,,,,,,,,,,,,,,,,,3.0,0.0,9.0,0.0,,,,,,,,,84.99663109803805,,,,,,,,,,,,,,,,,84.98163930501323,86.18037657398963,86.98056812002324,86.96486236300552,86.96546217403375,86.98056812002324,86.98056812002324,87.62180778902257,r,1.0,0.638799705018755,,,,,,,,,,,,,,,,,,,,,,,,,,,,,,,,,,,,,,,,sub-064,1,stroop_test,60.58896275577093,
test,blue,b,1.0,10.0,1.0,3.0,b,1.0,0.7805518160457723,,,,,,,,,,,,,,,,,,3.0,1.0,10.0,2.0,,,,,,,,,87.64038588100811,,,,,,,,,,,,,,,,,87.62209485203493,88.43068638100522,89.2309491269989,89.21504504303448,89.21547533303965,89.2309491269989,89.2309491269989,90.01600297202822,b,1.0,0.7805518160457723,,,,,,,,,,,,,,,,,,,,,,,,,,,,,,,,,,,,,,,,sub-064,1,stroop_test,60.58896275577093,
test,yellow,g,1.0,11.0,2.0,3.0,g,1.0,0.6022822150262073,,,,,,,,,,,,,,,,,,3.0,2.0,11.0,1.0,,,,,,,,,90.0308143980219,,,,,,,,,,,,,,,,,90.0162995189894,90.83128021098672,91.64082386600784,91.62108515203,91.6217046820093,91.64082386600784,91.64082386600784,92.24957921699388,g,1.0,0.6022822150262073,,,,,,,,,,,,,,,,,,,,,,,,,,,,,,,,,,,,,,,,sub-064,1,stroop_test,60.58896275577093,
,,,,,,,,,,,,,,,,,,,,,,,,,,,,,,,,,,,,,,,,,,,,,,,,,,,,,,,,,,,,,,,,,,,,92.24972806801088,92.26465989503777,92.26465989503777,97.83358292898627,space,5.566496507963166,,,,,,,,,,,,,,,,,,,,,,,,,,,,,,,,,sub-064,1,stroop_test,60.58896275577093,
,,,,0.0,0.0,0.0,,,,,rot,yellow,g,0.0,g,1.0,5.817106010974385,,,,,,,,,,,,,,0.0,0.0,0.0,3.0,,,,,97.8510307550314,,,,,,,,,,,,,,,,,97.84237477299756,97.94890112703432,98.74896359699778,98.73329831898444,,,,,,,,,,,,,,,,98.73693523701512,98.74896359699778,98.74896359699778,104.5689197620377,g,1.0,5.817106010974385,,104.57396182999946,104.58561230503256,105.58416493301048,,,,,,,,,,,,,,,,,,,,,sub-064,1,stroop_test,60.58896275577093,
,,,,1.0,1.0,0.0,,,,,blau,yellow,g,0.0,g,1.0,0.7796719459583983,,,,,,,,,,,,,,0.0,1.0,1.0,7.0,,,,,105.60064690402942,,,,,,,,,,,,,,,,,105.58456212899182,105.68400335102342,106.48379676003242,106.46810425102012,,,,,,,,,,,,,,,,106.4724035480176,106.48379676003242,106.48379676003242,107.26893165998628,g,1.0,0.7796719459583983,,107.26940890500556,107.2840607590042,108.27670754602876,,,,,,,,,,,,,,,,,,,,,sub-064,1,stroop_test,60.58896275577093,
,,,,2.0,2.0,0.0,,,,,rot,blue,b,0.0,b,1.0,0.6600017030141316,,,,,,,,,,,,,,0.0,2.0,2.0,2.0,,,,,108.29392091801856,,,,,,,,,,,,,,,,,108.27709964301904,108.63416223303648,109.43427948298633,109.41853857401291,,,,,,,,,,,,,,,,109.42165558499984,109.43427948298633,109.43427948298633,110.10252391902031,b,1.0,0.6600017030141316,,110.10300440201536,110.1177750779898,111.1020650350256,111.11814487999072,,,,,,,,,,,,,,,,,,,,sub-064,1,stroop_test,60.58896275577093,
,,,,3.0,3.0,0.0,,,,,rot,red,r,1.0,r,1.0,0.5090083690010943,,,,,,,,,,,,,,0.0,3.0,3.0,0.0,,,,,111.11814487999072,,,,,,,,,,,,,,,,,111.10234656604008,112.3182921030093,113.11826551903503,113.10274132998892,,,,,,,,,,,,,,,,113.10335755703272,113.11826551903503,113.11826551903503,113.63633006101009,r,1.0,0.5090083690010943,,113.63682106503984,113.65159226802643,114.63596320501529,114.65188512200255,,,,,,,,,,,,,,,,,,,,sub-064,1,stroop_test,60.58896275577093,
,,,,4.0,4.0,0.0,,,,,gelb,yellow,g,1.0,g,1.0,0.4426196099957451,,,,,,,,,,,,,,0.0,4.0,4.0,11.0,,,,,114.65188512200255,,,,,,,,,,,,,,,,,114.6362415360054,115.83540829003324,116.6353196130367,116.61969115602552,,,,,,,,,,,,,,,,116.62287582200952,116.6353196130367,116.6353196130367,117.08704739401584,g,1.0,0.4426196099957451,,117.08752315002494,117.10219808103284,118.08670767303556,118.1026140640024,,,,,,,,,,,,,,,,,,,,sub-064,1,stroop_test,60.58896275577093,
,,,,5.0,5.0,0.0,,,,,blau,blue,b,1.0,b,1.0,0.640005347027909,,,,,,,,,,,,,,0.0,5.0,5.0,5.0,,,,,118.1026140640024,,,,,,,,,,,,,,,,,118.08708515303442,118.90281884599244,119.7027688540402,119.68701050803064,,,,,,,,,,,,,,,,119.69016966299388,119.7027688540402,119.7027688540402,120.34657290601172,b,1.0,0.640005347027909,,120.34701903403038,120.36297735502012,121.35359773301752,,,,,,,,,,,,,,,,,,,,,sub-064,1,stroop_test,60.58896275577093,
,,,,6.0,6.0,0.0,,,,,rot,red,r,1.0,r,1.0,0.4066329729976132,,,,,,,,,,,,,,0.0,6.0,6.0,1.0,,,,,121.37008375499865,,,,,,,,,,,,,,,,,121.35400337202007,121.70301040599588,122.50319621502422,122.48785119998502,,,,,,,,,,,,,,,,122.49137395998696,122.50319621502422,122.50319621502422,122.92185630300082,r,1.0,0.4066329729976132,,122.92247353302082,122.93665226903975,123.92122178402497,123.9370096140192,,,,,,,,,,,,,,,,,,,,sub-064,1,stroop_test,60.58896275577093,
,,,,7.0,7.0,0.0,,,,,gelb,red,r,0.0,r,1.0,0.6977677349932492,,,,,,,,,,,,,,0.0,7.0,7.0,8.0,,,,,123.9370096140192,,,,,,,,,,,,,,,,,123.92159610701492,124.03715367702534,124.83695240999803,124.82123264903204,,,,,,,,,,,,,,,,124.82382489502196,124.83695240999803,124.83695240999803,125.53837655903772,r,1.0,0.6977677349932492,,125.53886374802096,125.5538358510239,126.53774475300452,126.55402855499416,,,,,,,,,,,,,,,,,,,,sub-064,1,stroop_test,60.58896275577093,
,,,,8.0,8.0,0.0,,,,,gelb,yellow,g,1.0,g,1.0,0.6728095180005766,,,,,,,,,,,,,,0.0,8.0,8.0,10.0,,,,,126.55402855499416,,,,,,,,,,,,,,,,,126.53802525100764,126.653949095984,127.45396402000917,127.43813006102572,,,,,,,,,,,,,,,,127.43858209298924,127.45396402000917,127.45396402000917,128.13914800301427,g,1.0,0.6728095180005766,,128.13962200999958,128.15403184201568,129.13849534501787,129.15451912098797,,,,,,,,,,,,,,,,,,,,sub-064,1,stroop_test,60.58896275577093,
,,,,9.0,9.0,0.0,,,,,blau,blue,b,1.0,b,1.0,0.3284935320261866,,,,,,,,,,,,,,0.0,9.0,9.0,6.0,,,,,129.15451912098797,,,,,,,,,,,,,,,,,129.13877519103698,129.25435936899157,130.05441471002996,130.03859315800946,,,,,,,,,,,,,,,,130.04175846802536,130.05441471002996,130.05441471002996,130.3983376600081,b,1.0,0.3284935320261866,,130.39881124102976,130.41467735503102,131.40528476203326,,,,,,,,,,,,,,,,,,,,,sub-064,1,stroop_test,60.58896275577093,
,,,,10.0,10.0,0.0,,,,,gelb,blue,b,0.0,b,1.0,0.8613680499838665,,,,,,,,,,,,,,0.0,10.0,10.0,9.0,,,,,131.42165242799092,,,,,,,,,,,,,,,,,131.40559719101293,132.60517413698835,133.4150044140406,133.39456042199163,,,,,,,,,,,,,,,,133.3970628430252,133.4150044140406,133.4150044140406,134.29028966103215,b,1.0,0.8613680499838665,,134.29077652900014,134.30526898801327,135.28983776201494,135.30565634998493,,,,,,,,,,,,,,,,,,,,sub-064,1,stroop_test,60.58896275577093,
,,,,11.0,11.0,0.0,,,,,blau,red,r,0.0,r,1.0,0.5457556290202774,,,,,,,,,,,,,,0.0,11.0,11.0,4.0,,,,,135.30565634998493,,,,,,,,,,,,,,,,,135.29021312802797,136.10572106199106,136.9056289769942,136.88942427799338,,,,,,,,,,,,,,,,136.89186960202642,136.9056289769942,136.9056289769942,137.45739055098966,r,1.0,0.5457556290202774,,137.4578680670238,137.47210645803716,138.46555077203084,,,,,,,,,,,,,,,,,,,,,sub-064,1,stroop_test,60.58896275577093,
,,,,12.0,0.0,1.0,,,,,gelb,yellow,g,1.0,g,1.0,0.6216060899896547,,,,,,,,,,,,,,1.0,0.0,12.0,10.0,,,,,138.48238491703523,,,,,,,,,,,,,,,,,138.46586110803764,139.672841556021,140.48308666300727,140.46515975199873,,,,,,,,,,,,,,,,140.4684471320361,140.48308666300727,140.48308666300727,141.10738164902432,g,1.0,0.6216060899896547,,141.10784068104113,141.12290693703108,142.1075271270238,142.12349897203967,,,,,,,,,,,,,,,,,,,,sub-064,1,stroop_test,60.58896275577093,
,,,,13.0,1.0,1.0,,,,,blau,yellow,g,0.0,g,1.0,0.8959839210147038,,,,,,,,,,,,,,1.0,1.0,13.0,7.0,,,,,142.12349897203967,,,,,,,,,,,,,,,,,142.10780742601492,143.30705745401792,144.1069699160289,144.09108925802866,,,,,,,,,,,,,,,,144.09560335800052,144.1069699160289,144.1069699160289,145.0084113900084,g,1.0,0.8959839210147038,,145.00889054103754,145.02370129100746,146.00812463200418,146.0242152379942,,,,,,,,,,,,,,,,,,,,sub-064,1,stroop_test,60.58896275577093,
,,,,14.0,2.0,1.0,,,,,blau,red,r,0.0,r,1.0,0.4936150960274972,,,,,,,,,,,,,,1.0,2.0,14.0,4.0,,,,,146.0242152379942,,,,,,,,,,,,,,,,,146.00850230199285,147.22980732901487,148.04109784303,148.02522064402,,,,,,,,,,,,,,,,148.02582221198827,148.04109784303,148.04109784303,148.5422842320404,r,1.0,0.4936150960274972,,148.54275378701277,148.5578551660292,149.54225981899071,149.55774449300952,,,,,,,,,,,,,,,,,,,,sub-064,1,stroop_test,60.58896275577093,
,,,,15.0,3.0,1.0,,,,,blau,blue,b,1.0,b,1.0,0.545426162017975,,,,,,,,,,,,,,1.0,3.0,15.0,6.0,,,,,149.55774449300952,,,,,,,,,,,,,,,,,149.54264019901166,149.89151023200247,150.69326514500426,150.68215065903496,,,,,,,,,,,,,,,,150.68259679799667,150.69326514500426,150.69326514500426,151.243135222001,b,1.0,0.545426162017975,,151.24360935000004,151.25797397701535,152.24244211701443,152.2583799790009,,,,,,,,,,,,,,,,,,,,sub-064,1,stroop_test,60.58896275577093,
,,,,16.0,4.0,1.0,,,,,rot,red,r,1.0,r,1.0,0.4453653169912286,,,,,,,,,,,,,,1.0,4.0,16.0,1.0,,,,,152.2583799790009,,,,,,,,,,,,,,,,,152.24282110802596,153.05849788099297,153.85836586303776,153.8423788099899,,,,,,,,,,,,,,,,153.8448077160283,153.85836586303776,153.85836586303776,154.3103891669889,r,1.0,0.4453653169912286,,154.31082605902338,154.32505045301514,155.3097891309881,155.32563087699236,,,,,,,,,,,,,,,,,,,,sub-064,1,stroop_test,60.58896275577093,
,,,,17.0,5.0,1.0,,,,,gelb,yellow,g,1.0,g,1.0,0.3858485660166479,,,,,,,,,,,,,,1.0,5.0,17.0,11.0,,,,,155.32563087699236,,,,,,,,,,,,,,,,,155.31016464403365,156.5260293110041,157.32590705499751,157.31006526603596,,,,,,,,,,,,,,,,157.31316453200998,157.32590705499751,157.32590705499751,157.7277518209885,g,1.0,0.3858485660166479,,157.72822919703322,157.7423399160034,158.72676536202198,158.74288979999255,,,,,,,,,,,,,,,,,,,,sub-064,1,stroop_test,60.58896275577093,
,,,,18.0,6.0,1.0,,,,,rot,yellow,g,0.0,g,1.0,0.6829175970051438,,,,,,,,,,,,,,1.0,6.0,18.0,3.0,,,,,158.74288979999255,,,,,,,,,,,,,,,,,158.72704493399942,159.08437539101578,159.89290867600357,159.87727779103443,,,,,,,,,,,,,,,,159.88034232199425,159.89290867600357,159.89290867600357,160.57792964502005,g,1.0,0.6829175970051438,,160.5783608750207,160.5927884640405,161.57790592801757,161.59351030003745,,,,,,,,,,,,,,,,,,,,sub-064,1,stroop_test,60.58896275577093,
,,,,19.0,7.0,1.0,,,,,gelb,red,r,0.0,r,1.0,1.0501967999734916,,,,,,,,,,,,,,1.0,7.0,19.0,8.0,,,,,161.59351030003745,,,,,,,,,,,,,,,,,161.5782830649987,161.69323479401646,162.49328326102113,162.47786662500584,,,,,,,,,,,,,,,,162.48091716103954,162.49328326102113,162.49328326102113,163.54534733202308,r,1.0,1.0501967999734916,,163.54583187302342,163.56042435002746,164.54469035600778,164.56074652500683,,,,,,,,,,,,,,,,,,,,sub-064,1,stroop_test,60.58896275577093,
,,,,20.0,8.0,1.0,,,,,rot,blue,b,0.0,b,1.0,0.3550101090222597,,,,,,,,,,,,,,1.0,8.0,20.0,2.0,,,,,164.56074652500683,,,,,,,,,,,,,,,,,164.5449718059972,164.66066889598733,165.46056759502972,165.44477895199088,,,,,,,,,,,,,,,,165.4478361950023,165.46056759502972,165.46056759502972,165.82870693603763,b,1.0,0.3550101090222597,,165.82919554703403,165.84409409802174,166.82832129503367,166.84451746399282,,,,,,,,,,,,,,,,,,,,sub-064,1,stroop_test,60.58896275577093,
,,,,21.0,9.0,1.0,,,,,gelb,blue,b,0.0,b,1.0,0.7709029130055569,,,,,,,,,,,,,,1.0,9.0,21.0,9.0,,,,,166.84451746399282,,,,,,,,,,,,,,,,,166.82870043301955,167.6445649890229,168.4445462889853,168.42834710201714,,,,,,,,,,,,,,,,168.43125748401508,168.4445462889853,168.4445462889853,169.2227619010373,b,1.0,0.7709029130055569,,169.2232299990137,169.23803110100562,170.22786693798844,,,,,,,,,,,,,,,,,,,,,sub-064,1,stroop_test,60.58896275577093,
,,,,22.0,10.0,1.0,,,,,blau,blue,b,1.0,b,1.0,0.4172978159622289,,,,,,,,,,,,,,1.0,10.0,22.0,5.0,,,,,170.24464578798506,,,,,,,,,,,,,,,,,170.22815756103955,171.42842867103172,172.23844100203132,172.22134309698595,,,,,,,,,,,,,,,,172.22398691700073,172.23844100203132,172.23844100203132,172.6634763010079,b,1.0,0.4172978159622289,,172.6639619130292,172.6782809770084,173.66306585702114,173.67866807500832,,,,,,,,,,,,,,,,,,,,sub-064,1,stroop_test,60.58896275577093,
,,,,23.0,11.0,1.0,,,,,rot,red,r,1.0,r,1.0,0.7612381370272487,,,,,,,,,,,,,,1.0,11.0,23.0,0.0,,,,,173.67866807500832,,,,,,,,,,,,,,,,,173.66344274301082,174.87886762799462,175.67878226499306,175.66296278499067,,,,,,,,,,,,,,,,175.6662003819947,175.67878226499306,175.67878226499306,176.44689548702445,r,1.0,0.7612381370272487,,176.4473751159967,176.46235206199344,177.44662409299053,177.4624396750005,,,,,,,,,,,,,,,,,,,,sub-064,1,stroop_test,60.58896275577093,
,,,,,,,,,,,,,,,,,,,,,,,,,,,,,,,,,,,,,,,,,,,,,,,,,,,,,,,,,,,,,,,,,,,,,,,,,,,,,,,,,,,,,,,177.446746429021,177.4624396750005,177.4624396750005,180.5641737250262,space,3.0987319410196505,,,,,,,,,,,,,,sub-064,1,stroop_test,60.58896275577093,
,,,,0.0,0.0,0.0,,,,,,,,,,,,,rot,yellow,g,0.0,g,1.0,1.0733426939696074,,,,,,,,,,0.0,0.0,0.0,3.0,180.5824453170062,,,,,,,,,,,,,,,,,180.57433375401888,181.37986278400055,182.1841566769872,182.1637842259952,,,,,,,,,,,,,,,,,,,,,,,,,,,,,,,,,,,182.16629454202484,182.1841566769872,182.1841566769872,183.2650788080064,g,1.0,1.0733426939696074,,,,,,sub-064,1,stroop_test,60.58896275577093,
,,,,1.0,1.0,0.0,,,,,,,,,,,,,gelb,red,r,0.0,r,1.0,0.8591794609674253,,,,,,,,,,0.0,1.0,1.0,8.0,183.28042822203133,,,,,,,,,,,,,,,,,183.265408191015,183.6306708970224,184.43030930799432,184.4146363030304,,,,,,,,,,,,,,,,,,,,,,,,,,,,,,,,,,,184.41713051701663,184.43030930799432,184.43030930799432,185.2990384650184,r,1.0,0.8591794609674253,,,,,,sub-064,1,stroop_test,60.58896275577093,
,,,,2.0,2.0,0.0,,,,,,,,,,,,,rot,red,r,1.0,r,1.0,0.6960375329945236,,,,,,,,,,0.0,2.0,2.0,0.0,185.31390336103505,,,,,,,,,,,,,,,,,185.2993677289924,186.1141002160148,186.9140379760065,186.89852710498965,,,,,,,,,,,,,,,,,,,,,,,,,,,,,,,,,,,186.9018839939963,186.9140379760065,186.9140379760065,187.61558346700625,r,1.0,0.6960375329945236,,,,,,sub-064,1,stroop_test,60.58896275577093,
,,,,3.0,3.0,0.0,,,,,,,,,,,,,blau,blue,b,1.0,b,1.0,0.562525972025469,,,,,,,,,,0.0,3.0,3.0,6.0,187.63089653203497,,,,,,,,,,,,,,,,,187.6159193360363,188.41470251098508,189.21435322001344,189.1987120929989,,,,,,,,,,,,,,,,,,,,,,,,,,,,,,,,,,,189.2019210550352,189.21435322001344,189.21435322001344,189.78281854401573,b,1.0,0.562525972025469,,,,,,sub-064,1,stroop_test,60.58896275577093,
,,,,4.0,4.0,0.0,,,,,,,,,,,,,blau,blue,b,1.0,b,1.0,0.5312484389869496,,,,,,,,,,0.0,4.0,4.0,5.0,189.79792640800588,,,,,,,,,,,,,,,,,189.78314191300888,190.59821497299708,191.3983777090325,191.3824206170393,,,,,,,,,,,,,,,,,,,,,,,,,,,,,,,,,,,191.38301397301257,191.3983777090325,191.3983777090325,191.93318286101567,b,1.0,0.5312484389869496,,,,,,sub-064,1,stroop_test,60.58896275577093,
,,,,5.0,5.0,0.0,,,,,,,,,,,,,blau,yellow,g,0.0,r,0.0,0.3962416430003941,,,,,,,,,,0.0,5.0,5.0,7.0,191.94835654000053,,,,,,,,,,,,,,,,,191.93351645203077,193.14860956103075,193.948971912032,193.9330434220028,,,,,,,,,,,,,,,,,,,,,,,,,,,,,,,,,,,193.9336495450116,193.948971912032,193.948971912032,194.36035516601987,r,0.0,0.3962416430003941,,,,,,sub-064,1,stroop_test,60.58896275577093,
,,,,6.0,6.0,0.0,,,,,,,,,,,,,rot,red,r,1.0,r,1.0,0.4854772450053133,,,,,,,,,,0.0,6.0,6.0,1.0,194.3754195990041,,,,,,,,,,,,,,,,,194.360699071025,194.71584197698397,195.51564749603855,195.4999977980042,,,,,,,,,,,,,,,,,,,,,,,,,,,,,,,,,,,195.5027102110325,195.51564749603855,195.51564749603855,196.0174023419968,r,1.0,0.4854772450053133,,,,,,sub-064,1,stroop_test,60.58896275577093,
,,,,7.0,7.0,0.0,,,,,,,,,,,,,gelb,blue,b,0.0,b,1.0,0.9868074120022357,,,,,,,,,,0.0,7.0,7.0,9.0,196.03238625603265,,,,,,,,,,,,,,,,,196.01773073204092,196.38237146200845,197.1825316810282,197.16693247301737,,,,,,,,,,,,,,,,,,,,,,,,,,,,,,,,,,,197.16934868402316,197.1825316810282,197.1825316810282,198.1843146940228,b,1.0,0.9868074120022357,,,,,,sub-064,1,stroop_test,60.58896275577093,
,,,,8.0,8.0,0.0,,,,,,,,,,,,,blau,red,r,0.0,r,1.0,0.8230885959928855,,,,,,,,,,0.0,8.0,8.0,4.0,198.19963882601587,,,,,,,,,,,,,,,,,198.1846479800297,198.2830433390336,199.08283530001063,199.0673368499847,,,,,,,,,,,,,,,,,,,,,,,,,,,,,,,,,,,199.07042133499635,199.08283530001063,199.08283530001063,199.9179962319904,r,1.0,0.8230885959928855,,,,,,sub-064,1,stroop_test,60.58896275577093,
,,,,9.0,9.0,0.0,,,,,,,,,,,,,gelb,yellow,g,1.0,g,1.0,0.9499995619989932,,,,,,,,,,0.0,9.0,9.0,10.0,199.93315545399676,,,,,,,,,,,,,,,,,199.9183235110249,200.03357047203465,200.84343204501783,200.82361405302072,,,,,,,,,,,,,,,,,,,,,,,,,,,,,,,,,,,200.8261233880185,200.84343204501783,200.84343204501783,201.80098246998384,g,1.0,0.9499995619989932,,,,,,sub-064,1,stroop_test,60.58896275577093,
,,,,10.0,10.0,0.0,,,,,,,,,,,,,gelb,yellow,g,1.0,g,1.0,0.4769375899923034,,,,,,,,,,0.0,10.0,10.0,11.0,201.81649988598656,,,,,,,,,,,,,,,,,201.801281261025,201.91687974898375,202.7168494760408,202.7011676779948,,,,,,,,,,,,,,,,,,,,,,,,,,,,,,,,,,,202.70178406703053,202.7168494760408,202.7168494760408,203.201882274996,g,1.0,0.4769375899923034,,,,,,sub-064,1,stroop_test,60.58896275577093,
,,,,11.0,11.0,0.0,,,,,,,,,,,,,rot,blue,b,0.0,b,1.0,1.8187339110299945,,,,,,,,,,0.0,11.0,11.0,2.0,203.21693407103885,,,,,,,,,,,,,,,,,203.20220539002912,203.56706615403527,204.3669023280381,204.35085037304088,,,,,,,,,,,,,,,,,,,,,,,,,,,,,,,,,,,204.3536875550053,204.3669023280381,204.3669023280381,206.20231547701405,b,1.0,1.8187339110299945,,,,,,sub-064,1,stroop_test,60.58896275577093,
,,,,12.0,0.0,1.0,,,,,,,,,,,,,rot,red,r,1.0,r,1.0,1.2033575249952264,,,,,,,,,,1.0,0.0,12.0,1.0,206.21724323299716,,,,,,,,,,,,,,,,,206.20265028299764,206.31763625703752,207.1177692610072,207.1015428649844,,,,,,,,,,,,,,,,,,,,,,,,,,,,,,,,,,,207.10198368999409,207.1177692610072,207.1177692610072,208.3366157070268,r,1.0,1.2033575249952264,,,,,,sub-064,1,stroop_test,60.58896275577093,
,,,,13.0,1.0,1.0,,,,,,,,,,,,,gelb,yellow,g,1.0,g,1.0,0.6172464079572819,,,,,,,,,,1.0,1.0,13.0,10.0,208.35120782302693,,,,,,,,,,,,,,,,,208.3369404420373,209.1447468100232,209.9514879169874,209.9353833530331,,,,,,,,,,,,,,,,,,,,,,,,,,,,,,,,,,,209.93788799003232,209.9514879169874,209.9514879169874,210.57026579702503,g,1.0,0.6172464079572819,,,,,,sub-064,1,stroop_test,60.58896275577093,
,,,,14.0,2.0,1.0,,,,,,,,,,,,,rot,yellow,g,0.0,g,1.0,0.5406640060245991,,,,,,,,,,1.0,2.0,14.0,3.0,210.5849002519972,,,,,,,,,,,,,,,,,210.5706999070244,210.6850877039833,211.4849596890272,211.4693777820212,,,,,,,,,,,,,,,,,,,,,,,,,,,,,,,,,,,211.47262262698496,211.4849596890272,211.4849596890272,212.03657205303895,g,1.0,0.5406640060245991,,,,,,sub-064,1,stroop_test,60.58896275577093,
,,,,15.0,3.0,1.0,,,,,,,,,,,,,rot,red,r,1.0,r,1.0,1.2066878390032798,,,,,,,,,,1.0,3.0,15.0,0.0,212.0518440480228,,,,,,,,,,,,,,,,,212.03691046102904,212.15204243198968,212.9620839220006,212.94507853599495,,,,,,,,,,,,,,,,,,,,,,,,,,,,,,,,,,,212.94568245502887,212.9620839220006,212.9620839220006,214.18041127902688,r,1.0,1.2066878390032798,,,,,,sub-064,1,stroop_test,60.58896275577093,
,,,,16.0,4.0,1.0,,,,,,,,,,,,,gelb,blue,b,0.0,b,1.0,0.5916198859922588,,,,,,,,,,1.0,4.0,16.0,9.0,214.18890313000884,,,,,,,,,,,,,,,,,214.18073705403367,215.38601613399808,216.1859939330025,216.1698222270352,,,,,,,,,,,,,,,,,,,,,,,,,,,,,,,,,,,216.172308045032,216.1859939330025,216.1859939330025,216.78767554601652,b,1.0,0.5916198859922588,,,,,,sub-064,1,stroop_test,60.58896275577093,
,,,,17.0,5.0,1.0,,,,,,,,,,,,,blau,yellow,g,0.0,g,1.0,0.6299870060174726,,,,,,,,,,1.0,5.0,17.0,7.0,216.8025777899893,,,,,,,,,,,,,,,,,216.7880012509995,217.60298392898403,218.4027800260228,218.3871658819844,,,,,,,,,,,,,,,,,,,,,,,,,,,,,,,,,,,218.39028674701692,218.4027800260228,218.4027800260228,219.0480483249994,g,1.0,0.6299870060174726,,,,,,sub-064,1,stroop_test,60.58896275577093,
,,,,18.0,6.0,1.0,,,,,,,,,,,,,blau,blue,b,1.0,b,1.0,2.062718263012357,,,,,,,,,,1.0,6.0,18.0,5.0,219.0629267090117,,,,,,,,,,,,,,,,,219.04837474302624,219.16316963301503,219.9698931690073,219.9542725880165,,,,,,,,,,,,,,,,,,,,,,,,,,,,,,,,,,,219.95487674704052,219.9698931690073,219.9698931690073,222.0385832079919,b,1.0,2.062718263012357,,,,,,sub-064,1,stroop_test,60.58896275577093,
,,,,19.0,7.0,1.0,,,,,,,,,,,,,rot,blue,b,0.0,b,1.0,0.6941144170123152,,,,,,,,,,1.0,7.0,19.0,2.0,222.05356691899945,,,,,,,,,,,,,,,,,222.03890871198385,222.4037562329904,223.20371167903068,223.18769252300265,,,,,,,,,,,,,,,,,,,,,,,,,,,,,,,,,,,223.19015278998995,223.20371167903068,223.20371167903068,223.9054756030091,b,1.0,0.6941144170123152,,,,,,sub-064,1,stroop_test,60.58896275577093,
,,,,20.0,8.0,1.0,,,,,,,,,,,,,blau,red,r,0.0,r,1.0,1.176065491978079,,,,,,,,,,1.0,8.0,20.0,4.0,223.92047167901185,,,,,,,,,,,,,,,,,223.90579871402588,225.1208752300008,225.92085429502183,225.90496457199333,,,,,,,,,,,,,,,,,,,,,,,,,,,,,,,,,,,225.9083731470164,225.92085429502183,225.92085429502183,227.1056538310368,r,1.0,1.176065491978079,,,,,,sub-064,1,stroop_test,60.58896275577093,
,,,,21.0,9.0,1.0,,,,,,,,,,,,,blau,blue,b,1.0,b,1.0,0.6024530059657991,,,,,,,,,,1.0,9.0,21.0,6.0,227.1210426010075,,,,,,,,,,,,,,,,,227.105979932996,227.2211774259922,228.0313178350334,228.01345285301795,,,,,,,,,,,,,,,,,,,,,,,,,,,,,,,,,,,228.0138844980393,228.0313178350334,228.0313178350334,228.6396184919868,b,1.0,0.6024530059657991,,,,,,sub-064,1,stroop_test,60.58896275577093,
,,,,22.0,10.0,1.0,,,,,,,,,,,,,gelb,red,r,0.0,b,0.0,0.5225980710238218,,,,,,,,,,1.0,10.0,22.0,8.0,228.65474158799043,,,,,,,,,,,,,,,,,228.6399425790296,229.45475074503335,230.2548123000306,230.2389962750021,,,,,,,,,,,,,,,,,,,,,,,,,,,,,,,,,,,230.24211415700847,230.2548123000306,230.2548123000306,230.7896605639835,b,0.0,0.5225980710238218,,,,,,sub-064,1,stroop_test,60.58896275577093,
,,,,23.0,11.0,1.0,,,,,,,,,,,,,gelb,yellow,g,1.0,g,1.0,0.5663519119843841,,,,,,,,,,1.0,11.0,23.0,11.0,230.80498243798505,,,,,,,,,,,,,,,,,230.78998477599816,231.1484183880384,231.9553474410204,231.93932828202375,,,,,,,,,,,,,,,,,,,,,,,,,,,,,,,,,,,231.9399392310297,231.9553474410204,231.9553474410204,232.52363634802168,g,1.0,0.5663519119843841,,,,,,sub-064,1,stroop_test,60.58896275577093,
,,,,24.0,0.0,2.0,,,,,,,,,,,,,gelb,blue,b,0.0,b,1.0,0.4704548140289262,,,,,,,,,,2.0,0.0,24.0,9.0,232.53886487398995,,,,,,,,,,,,,,,,,232.52398196898864,233.3389494810253,234.1390486609889,234.1228051169892,,,,,,,,,,,,,,,,,,,,,,,,,,,,,,,,,,,234.12324064603308,234.1390486609889,234.1390486609889,234.6172650519875,b,1.0,0.4704548140289262,,,,,,sub-064,1,stroop_test,60.58896275577093,
,,,,25.0,1.0,2.0,,,,,,,,,,,,,blau,blue,b,1.0,b,1.0,0.8228464130079374,,,,,,,,,,2.0,1.0,25.0,6.0,234.63235055701807,,,,,,,,,,,,,,,,,234.61761243798537,234.72282379702665,235.5221752630314,235.50695502501912,,,,,,,,,,,,,,,,,,,,,,,,,,,,,,,,,,,235.5098497850122,235.5221752630314,235.5221752630314,236.35739310999637,b,1.0,0.8228464130079374,,,,,,sub-064,1,stroop_test,60.58896275577093,
,,,,26.0,2.0,2.0,,,,,,,,,,,,,gelb,yellow,g,1.0,g,1.0,0.5643753779586405,,,,,,,,,,2.0,2.0,26.0,11.0,236.37238818901824,,,,,,,,,,,,,,,,,236.3577190579963,237.57286179199585,238.3726973980083,238.3569761030376,,,,,,,,,,,,,,,,,,,,,,,,,,,,,,,,,,,238.36014550802065,238.3726973980083,238.3726973980083,238.9410661670263,g,1.0,0.5643753779586405,,,,,,sub-064,1,stroop_test,60.58896275577093,
,,,,27.0,3.0,2.0,,,,,,,,,,,,,gelb,yellow,g,1.0,g,1.0,0.413985216000583,,,,,,,,,,2.0,3.0,27.0,10.0,238.95633428700967,,,,,,,,,,,,,,,,,238.941389174026,239.30657066399,240.10654614999655,240.09100489103,,,,,,,,,,,,,,,,,,,,,,,,,,,,,,,,,,,240.09164404100736,240.10654614999655,240.10654614999655,240.5245263039833,g,1.0,0.413985216000583,,,,,,sub-064,1,stroop_test,60.58896275577093,
,,,,28.0,4.0,2.0,,,,,,,,,,,,,blau,red,r,0.0,r,1.0,0.4212022330029867,,,,,,,,,,2.0,4.0,28.0,4.0,240.5401102360338,,,,,,,,,,,,,,,,,240.5248257429921,241.7302505469997,242.54025097802517,242.5244508300093,,,,,,,,,,,,,,,,,,,,,,,,,,,,,,,,,,,242.52696001698496,242.54025097802517,242.54025097802517,242.9753353749984,r,1.0,0.4212022330029867,,,,,,sub-064,1,stroop_test,60.58896275577093,
,,,,29.0,5.0,2.0,,,,,,,,,,,,,rot,red,r,1.0,r,1.0,0.4626935409614816,,,,,,,,,,2.0,5.0,29.0,0.0,242.99045467103133,,,,,,,,,,,,,,,,,242.97565966303227,243.0904239180381,243.890426560014,243.87489648303017,,,,,,,,,,,,,,,,,,,,,,,,,,,,,,,,,,,243.8777710360009,243.890426560014,243.890426560014,244.3591411000234,r,1.0,0.4626935409614816,,,,,,sub-064,1,stroop_test,60.58896275577093,
,,,,30.0,6.0,2.0,,,,,,,,,,,,,blau,blue,b,1.0,b,1.0,0.5989012659993023,,,,,,,,,,2.0,6.0,30.0,5.0,244.37411245098335,,,,,,,,,,,,,,,,,244.35947575600585,244.47408663498936,245.27390747802565,245.2583565560053,,,,,,,,,,,,,,,,,,,,,,,,,,,,,,,,,,,245.2619210120174,245.27390747802565,245.27390747802565,245.8756151139969,b,1.0,0.5989012659993023,,,,,,sub-064,1,stroop_test,60.58896275577093,
,,,,31.0,7.0,2.0,,,,,,,,,,,,,blau,yellow,g,0.0,g,1.0,0.9333312719827518,,,,,,,,,,2.0,7.0,31.0,7.0,245.8910605350393,,,,,,,,,,,,,,,,,245.87591355503537,245.99082608002936,246.7958090360044,246.78522632998647,,,,,,,,,,,,,,,,,,,,,,,,,,,,,,,,,,,246.7858917330159,246.7958090360044,246.7958090360044,247.7431521420367,g,1.0,0.9333312719827518,,,,,,sub-064,1,stroop_test,60.58896275577093,
,,,,32.0,8.0,2.0,,,,,,,,,,,,,rot,blue,b,0.0,b,1.0,0.7571237109950744,,,,,,,,,,2.0,8.0,32.0,2.0,247.75772015802795,,,,,,,,,,,,,,,,,247.74347708298592,248.11362970003395,248.92469418403925,248.90885866002645,,,,,,,,,,,,,,,,,,,,,,,,,,,,,,,,,,,248.9119521180401,248.92469418403925,248.92469418403925,249.68500261200825,b,1.0,0.7571237109950744,,,,,,sub-064,1,stroop_test,60.58896275577093,
,,,,33.0,9.0,2.0,,,,,,,,,,,,,rot,yellow,g,0.0,g,1.0,1.0416173479752615,,,,,,,,,,2.0,9.0,33.0,3.0,249.70146212703548,,,,,,,,,,,,,,,,,249.6853423030116,249.78484003199264,250.59155429899693,250.57570044102613,,,,,,,,,,,,,,,,,,,,,,,,,,,,,,,,,,,250.57631227798996,250.59155429899693,250.59155429899693,251.65015400300035,g,1.0,1.0416173479752615,,,,,,sub-064,1,stroop_test,60.58896275577093,
,,,,34.0,10.0,2.0,,,,,,,,,,,,,gelb,red,r,0.0,r,1.0,0.5306880139978603,,,,,,,,,,2.0,10.0,34.0,8.0,251.66848241799744,,,,,,,,,,,,,,,,,251.65059305698375,251.75193866802147,252.55870810704076,252.5433867929969,,,,,,,,,,,,,,,,,,,,,,,,,,,,,,,,,,,252.54622919298708,252.55870810704076,252.55870810704076,253.093829267018,r,1.0,0.5306880139978603,,,,,,sub-064,1,stroop_test,60.58896275577093,
,,,,35.0,11.0,2.0,,,,,,,,,,,,,rot,red,r,1.0,r,1.0,0.4378554639988579,,,,,,,,,,2.0,11.0,35.0,1.0,253.10864941502223,,,,,,,,,,,,,,,,,253.0941595960176,253.45897045801397,254.25883382902248,254.24317697202787,,,,,,,,,,,,,,,,,,,,,,,,,,,,,,,,,,,254.24616216600407,254.25883382902248,254.25883382902248,254.7035332180094,r,1.0,0.4378554639988579,,,,,,sub-064,1,stroop_test,60.58896275577093,
,,,,36.0,0.0,3.0,,,,,,,,,,,,,blau,yellow,g,0.0,g,1.0,0.5187580939964391,,,,,,,,,,3.0,0.0,36.0,7.0,254.71906387002676,,,,,,,,,,,,,,,,,254.7038554630126,254.81917161203452,255.62590802198972,255.61006097402424,,,,,,,,,,,,,,,,,,,,,,,,,,,,,,,,,,,255.61254893202567,255.62590802198972,255.62590802198972,256.160757389036,g,1.0,0.5187580939964391,,,,,,sub-064,1,stroop_test,60.58896275577093,
,,,,37.0,1.0,3.0,,,,,,,,,,,,,rot,yellow,g,0.0,g,1.0,0.3420538229984231,,,,,,,,,,3.0,1.0,37.0,3.0,256.1760771750123,,,,,,,,,,,,,,,,,256.1611094609834,256.9764160030172,257.7864394680364,257.7700942180236,,,,,,,,,,,,,,,,,,,,,,,,,,,,,,,,,,,257.7726364250411,257.7864394680364,257.7864394680364,258.144460725016,g,1.0,0.3420538229984231,,,,,,sub-064,1,stroop_test,60.58896275577093,
,,,,38.0,2.0,3.0,,,,,,,,,,,,,blau,blue,b,1.0,b,1.0,0.4634781729546375,,,,,,,,,,3.0,2.0,38.0,5.0,258.1598183590104,,,,,,,,,,,,,,,,,258.1447901779902,258.9598424319993,259.7699692050228,259.75255730800563,,,,,,,,,,,,,,,,,,,,,,,,,,,,,,,,,,,259.75559349299874,259.7699692050228,259.7699692050228,260.2453514820081,b,1.0,0.4634781729546375,,,,,,sub-064,1,stroop_test,60.58896275577093,
,,,,39.0,3.0,3.0,,,,,,,,,,,,,blau,blue,b,1.0,b,1.0,0.3763531639706343,,,,,,,,,,3.0,3.0,39.0,6.0,260.26015260402346,,,,,,,,,,,,,,,,,260.24567929602927,260.3600633770111,261.16046348103555,261.1444460620405,,,,,,,,,,,,,,,,,,,,,,,,,,,,,,,,,,,261.14503222098574,261.16046348103555,261.16046348103555,261.5452098210226,b,1.0,0.3763531639706343,,,,,,sub-064,1,stroop_test,60.58896275577093,
,,,,40.0,4.0,3.0,,,,,,,,,,,,,gelb,red,r,0.0,g,0.0,0.9249451920040884,,,,,,,,,,3.0,4.0,40.0,8.0,261.5605121430126,,,,,,,,,,,,,,,,,261.5455295650172,261.66049819102045,262.4605717830127,262.4443564270041,,,,,,,,,,,,,,,,,,,,,,,,,,,,,,,,,,,262.4468841550406,262.4605717830127,262.4605717830127,263.39532399899326,g,0.0,0.9249451920040884,,,,,,sub-064,1,stroop_test,60.58896275577093,
,,,,41.0,5.0,3.0,,,,,,,,,,,,,rot,blue,b,0.0,b,1.0,0.7150062230066396,,,,,,,,,,3.0,5.0,41.0,2.0,263.41078111500246,,,,,,,,,,,,,,,,,263.39564942900324,263.51074546104064,264.31064803601475,264.29489749099594,,,,,,,,,,,,,,,,,,,,,,,,,,,,,,,,,,,264.2979968510336,264.31064803601475,264.31064803601475,265.02865267999005,b,1.0,0.7150062230066396,,,,,,sub-064,1,stroop_test,60.58896275577093,
,,,,42.0,6.0,3.0,,,,,,,,,,,,,gelb,yellow,g,1.0,g,1.0,0.6292169269872829,,,,,,,,,,3.0,6.0,42.0,10.0,265.04412444500485,,,,,,,,,,,,,,,,,265.02896487299586,266.2342641840223,267.0445803240291,267.02884768898366,,,,,,,,,,,,,,,,,,,,,,,,,,,,,,,,,,,267.03180451103253,267.0445803240291,267.0445803240291,267.67937853798503,g,1.0,0.6292169269872829,,,,,,sub-064,1,stroop_test,60.58896275577093,
,,,,43.0,7.0,3.0,,,,,,,,,,,,,gelb,yellow,g,1.0,g,1.0,0.3542481039767153,,,,,,,,,,3.0,7.0,43.0,11.0,267.6948403500137,,,,,,,,,,,,,,,,,267.6797331490088,268.4949959979858,269.2951389339869,269.27936075703474,,,,,,,,,,,,,,,,,,,,,,,,,,,,,,,,,,,269.2799744239892,269.2951389339869,269.2951389339869,269.6631834009895,g,1.0,0.3542481039767153,,,,,,sub-064,1,stroop_test,60.58896275577093,
,,,,44.0,8.0,3.0,,,,,,,,,,,,,rot,red,r,1.0,r,1.0,1.0122357130167077,,,,,,,,,,3.0,8.0,44.0,1.0,269.67833188700024,,,,,,,,,,,,,,,,,269.6635236759903,270.02854880399536,270.82843095302815,270.81268315704074,,,,,,,,,,,,,,,,,,,,,,,,,,,,,,,,,,,270.81574793200707,270.82843095302815,270.82843095302815,271.8574104710133,r,1.0,1.0122357130167077,,,,,,sub-064,1,stroop_test,60.58896275577093,
,,,,45.0,9.0,3.0,,,,,,,,,,,,,gelb,blue,b,0.0,b,1.0,0.923086703987792,,,,,,,,,,3.0,9.0,45.0,9.0,271.87201953399926,,,,,,,,,,,,,,,,,271.8577363259974,273.0623284250032,273.86216557602165,273.84689211199293,,,,,,,,,,,,,,,,,,,,,,,,,,,,,,,,,,,273.8501842170372,273.86216557602165,273.86216557602165,274.79718852002406,b,1.0,0.923086703987792,,,,,,sub-064,1,stroop_test,60.58896275577093,
,,,,46.0,10.0,3.0,,,,,,,,,,,,,rot,red,r,1.0,r,1.0,0.6366968390066177,,,,,,,,,,3.0,10.0,46.0,0.0,274.8123735639965,,,,,,,,,,,,,,,,,274.7975112459972,275.6124159870087,276.41262581699993,276.396867242991,,,,,,,,,,,,,,,,,,,,,,,,,,,,,,,,,,,276.4003862970276,276.41262581699993,276.41262581699993,277.0645441680099,r,1.0,0.6366968390066177,,,,,,sub-064,1,stroop_test,60.58896275577093,
,,,,47.0,11.0,3.0,,,,,,,,,,,,,blau,red,r,0.0,r,1.0,0.52338775905082,,,,,,,,,,3.0,11.0,47.0,4.0,277.0795553480275,,,,,,,,,,,,,,,,,277.064866596018,277.4297016070341,278.2294987670029,278.2137997900136,,,,,,,,,,,,,,,,,,,,,,,,,,,,,,,,,,,278.2163250719896,278.2294987670029,278.2294987670029,278.76439908798784,r,1.0,0.52338775905082,,,,,,sub-064,1,stroop_test,60.58896275577093,
,,,,48.0,0.0,4.0,,,,,,,,,,,,,blau,blue,b,1.0,b,1.0,0.5710448970203288,,,,,,,,,,4.0,0.0,48.0,6.0,278.7797332960181,,,,,,,,,,,,,,,,,278.7647244700347,279.5636134020169,280.3734670280246,280.3567976910272,,,,,,,,,,,,,,,,,,,,,,,,,,,,,,,,,,,280.35738758399384,280.3734670280246,280.3734670280246,280.9482095550047,b,1.0,0.5710448970203288,,,,,,sub-064,1,stroop_test,60.58896275577093,
,,,,49.0,1.0,4.0,,,,,,,,,,,,,rot,yellow,g,0.0,g,1.0,0.6474403110332787,,,,,,,,,,4.0,1.0,49.0,3.0,280.9634567470057,,,,,,,,,,,,,,,,,280.9485160220065,281.3136523910216,282.1136857260135,282.097984927008,,,,,,,,,,,,,,,,,,,,,,,,,,,,,,,,,,,282.1003527450375,282.1136857260135,282.1136857260135,282.7652361760265,g,1.0,0.6474403110332787,,,,,,sub-064,1,stroop_test,60.58896275577093,
,,,,50.0,2.0,4.0,,,,,,,,,,,,,gelb,red,r,0.0,r,1.0,1.0083908700034954,,,,,,,,,,4.0,2.0,50.0,8.0,282.78033862798475,,,,,,,,,,,,,,,,,282.76554989401484,282.880347561033,283.68085377902025,283.6646888410324,,,,,,,,,,,,,,,,,,,,,,,,,,,,,,,,,,,283.66770121100126,283.68085377902025,283.68085377902025,284.6994086159975,r,1.0,1.0083908700034954,,,,,,sub-064,1,stroop_test,60.58896275577093,
,,,,51.0,3.0,4.0,,,,,,,,,,,,,rot,red,r,1.0,r,1.0,0.7178668959531933,,,,,,,,,,4.0,3.0,51.0,1.0,284.7142768020276,,,,,,,,,,,,,,,,,284.6997474380187,285.9144913540222,286.7147847060114,286.699050337018,,,,,,,,,,,,,,,,,,,,,,,,,,,,,,,,,,,286.7022410740028,286.7147847060114,286.7147847060114,287.4496476160129,r,1.0,0.7178668959531933,,,,,,sub-064,1,stroop_test,60.58896275577093,
,,,,52.0,4.0,4.0,,,,,,,,,,,,,gelb,yellow,g,1.0,g,1.0,0.6607041400275193,,,,,,,,,,4.0,4.0,52.0,11.0,287.46475226903567,,,,,,,,,,,,,,,,,287.44996873900527,287.56466191401705,288.3646542769857,288.3492894130177,,,,,,,,,,,,,,,,,,,,,,,,,,,,,,,,,,,288.35254658502527,288.3646542769857,288.3646542769857,289.0276460190071,g,1.0,0.6607041400275193,,,,,,sub-064,1,stroop_test,60.58896275577093,
,,,,53.0,5.0,4.0,,,,,,,,,,,,,blau,yellow,g,0.0,g,1.0,0.5090008639963344,,,,,,,,,,4.0,5.0,53.0,7.0,289.0388556499965,,,,,,,,,,,,,,,,,289.02798381098546,289.1321084080264,289.9317655680352,289.91552712902194,,,,,,,,,,,,,,,,,,,,,,,,,,,,,,,,,,,289.9181668740348,289.9317655680352,289.9317655680352,290.4425332570099,g,1.0,0.5090008639963344,,,,,,sub-064,1,stroop_test,60.58896275577093,
,,,,54.0,6.0,4.0,,,,,,,,,,,,,rot,blue,b,0.0,b,1.0,0.5085379800293595,,,,,,,,,,4.0,6.0,54.0,2.0,290.4583765889984,,,,,,,,,,,,,,,,,290.44287627202,290.55018290900625,291.3727691670065,291.3512789729866,,,,,,,,,,,,,,,,,,,,,,,,,,,,,,,,,,,291.3540952380281,291.3727691670065,291.3727691670065,291.8837409230182,b,1.0,0.5085379800293595,,,,,,sub-064,1,stroop_test,60.58896275577093,
,,,,55.0,7.0,4.0,,,,,,,,,,,,,blau,blue,b,1.0,b,1.0,0.3594304560101591,,,,,,,,,,4.0,7.0,55.0,5.0,291.89892937702825,,,,,,,,,,,,,,,,,291.8840381480404,293.0823560580029,293.8822848320124,293.8668239089893,,,,,,,,,,,,,,,,,,,,,,,,,,,,,,,,,,,293.8697949150228,293.8822848320124,293.8822848320124,294.2505380809889,b,1.0,0.3594304560101591,,,,,,sub-064,1,stroop_test,60.58896275577093,
,,,,56.0,8.0,4.0,,,,,,,,,,,,,blau,red,r,0.0,r,1.0,0.906667805975303,,,,,,,,,,4.0,8.0,56.0,4.0,294.2659711220185,,,,,,,,,,,,,,,,,294.2508770060376,294.3660355969914,295.1659124750295,295.1498456299887,,,,,,,,,,,,,,,,,,,,,,,,,,,,,,,,,,,295.15028761402937,295.1659124750295,295.1659124750295,296.0842948729987,r,1.0,0.906667805975303,,,,,,sub-064,1,stroop_test,60.58896275577093,
,,,,57.0,9.0,4.0,,,,,,,,,,,,,rot,red,r,1.0,r,1.0,0.4589069550274871,,,,,,,,,,4.0,9.0,57.0,0.0,296.0992985930061,,,,,,,,,,,,,,,,,296.08463993802434,296.89968288003,297.70209174900083,297.6911949160276,,,,,,,,,,,,,,,,,,,,,,,,,,,,,,,,,,,297.69382940302603,297.70209174900083,297.70209174900083,298.1680333780241,r,1.0,0.4589069550274871,,,,,,sub-064,1,stroop_test,60.58896275577093,
,,,,58.0,10.0,4.0,,,,,,,,,,,,,gelb,blue,b,0.0,g,0.0,0.7638391160289757,,,,,,,,,,4.0,10.0,58.0,9.0,298.1833867980167,,,,,,,,,,,,,,,,,298.16835652804,298.5336148510105,299.33344816602767,299.31734540499747,,,,,,,,,,,,,,,,,,,,,,,,,,,,,,,,,,,299.3198439439875,299.33344816602767,299.33344816602767,300.1019566640025,g,0.0,0.7638391160289757,,,,,,sub-064,1,stroop_test,60.58896275577093,
,,,,59.0,11.0,4.0,,,,,,,,,,,,,gelb,yellow,g,1.0,g,1.0,1.0916565190418623,,,,,,,,,,4.0,11.0,59.0,10.0,300.1168383740005,,,,,,,,,,,,,,,,,300.1022761510103,300.92213086999254,301.7339282250032,301.7183120379923,,,,,,,,,,,,,,,,,,,,,,,,,,,,,,,,,,,301.7189494239865,301.7339282250032,301.7339282250032,302.83519360004,g,1.0,1.0916565190418623,,,,,,sub-064,1,stroop_test,60.58896275577093,
,,,,60.0,0.0,5.0,,,,,,,,,,,,,rot,blue,b,0.0,b,1.0,1.406819267955143,,,,,,,,,,5.0,0.0,60.0,2.0,302.85037665703567,,,,,,,,,,,,,,,,,302.83552853699075,304.04367888200795,304.8507005519932,304.8350787250092,,,,,,,,,,,,,,,,,,,,,,,,,,,,,,,,,,,304.8382648000261,304.8507005519932,304.8507005519932,306.2692243490019,b,1.0,1.406819267955143,,,,,,sub-064,1,stroop_test,60.58896275577093,
,,,,61.0,1.0,5.0,,,,,,,,,,,,,gelb,yellow,g,1.0,g,1.0,0.8035100140259601,,,,,,,,,,5.0,1.0,61.0,10.0,306.284246182011,,,,,,,,,,,,,,,,,306.26954618800664,307.47370511700865,308.28498194599524,308.268913789012,,,,,,,,,,,,,,,,,,,,,,,,,,,,,,,,,,,308.2714284720132,308.28498194599524,308.28498194599524,309.0965357759851,g,1.0,0.8035100140259601,,,,,,sub-064,1,stroop_test,60.58896275577093,
,,,,62.0,2.0,5.0,,,,,,,,,,,,,gelb,yellow,g,1.0,g,1.0,0.499618935980834,,,,,,,,,,5.0,2.0,62.0,11.0,309.11167798301904,,,,,,,,,,,,,,,,,309.09686867002165,309.90187938598683,310.7019569359836,310.685698996007,,,,,,,,,,,,,,,,,,,,,,,,,,,,,,,,,,,310.68614691100083,310.7019569359836,310.7019569359836,311.20350586698623,g,1.0,0.499618935980834,,,,,,sub-064,1,stroop_test,60.58896275577093,
,,,,63.0,3.0,5.0,,,,,,,,,,,,,blau,yellow,g,0.0,g,1.0,0.5302931129699573,,,,,,,,,,5.0,3.0,63.0,7.0,311.21887016500114,,,,,,,,,,,,,,,,,311.20386022503953,311.31895272101974,312.1186758650001,312.1032077730051,,,,,,,,,,,,,,,,,,,,,,,,,,,,,,,,,,,312.1068328950205,312.1186758650001,312.1186758650001,312.6643258400145,g,1.0,0.5302931129699573,,,,,,sub-064,1,stroop_test,60.58896275577093,
,,,,64.0,4.0,5.0,,,,,,,,,,,,,blau,blue,b,1.0,b,1.0,0.8118101570289582,,,,,,,,,,5.0,4.0,64.0,6.0,312.6788467610022,,,,,,,,,,,,,,,,,312.6646502080257,313.8694353440078,314.66943609999726,314.6537296270253,,,,,,,,,,,,,,,,,,,,,,,,,,,,,,,,,,,314.65434280299814,314.66943609999726,314.66943609999726,315.4876479230006,b,1.0,0.8118101570289582,,,,,,sub-064,1,stroop_test,60.58896275577093,
,,,,65.0,5.0,5.0,,,,,,,,,,,,,blau,blue,b,1.0,b,1.0,0.401889780012425,,,,,,,,,,5.0,5.0,65.0,5.0,315.5027251940337,,,,,,,,,,,,,,,,,315.48799362103455,316.7028603540384,317.5030724669923,317.4870051390026,,,,,,,,,,,,,,,,,,,,,,,,,,,,,,,,,,,317.48743462603306,317.5030724669923,317.5030724669923,317.9223984410055,b,1.0,0.401889780012425,,,,,,sub-064,1,stroop_test,60.58896275577093,
,,,,66.0,6.0,5.0,,,,,,,,,,,,,gelb,red,r,0.0,r,1.0,0.6195812529767863,,,,,,,,,,5.0,6.0,66.0,8.0,317.93677941098576,,,,,,,,,,,,,,,,,317.92272007500287,318.7368259630166,319.54203294200124,319.52094006503467,,,,,,,,,,,,,,,,,,,,,,,,,,,,,,,,,,,319.52407124702586,319.54203294200124,319.54203294200124,320.1716576830368,r,1.0,0.6195812529767863,,,,,,sub-064,1,stroop_test,60.58896275577093,
,,,,67.0,7.0,5.0,,,,,,,,,,,,,rot,yellow,g,0.0,b,0.0,1.5815498380106874,,,,,,,,,,5.0,7.0,67.0,3.0,320.1868960080319,,,,,,,,,,,,,,,,,320.17198165802984,320.9871873160009,321.7869947600411,321.77138791099424,,,,,,,,,,,,,,,,,,,,,,,,,,,,,,,,,,,321.7745170019916,321.7869947600411,321.7869947600411,323.3718323290232,b,0.0,1.5815498380106874,,,,,,sub-064,1,stroop_test,60.58896275577093,
,,,,68.0,8.0,5.0,,,,,,,,,,,,,gelb,blue,b,0.0,b,1.0,1.5847674559918232,,,,,,,,,,5.0,8.0,68.0,9.0,323.38748299202416,,,,,,,,,,,,,,,,,323.37212382402504,324.58765031403163,325.387527843006,325.37204631301574,,,,,,,,,,,,,,,,,,,,,,,,,,,,,,,,,,,325.37514379102504,325.387527843006,325.387527843006,326.9889337079949,b,1.0,1.5847674559918232,,,,,,sub-064,1,stroop_test,60.58896275577093,
,,,,69.0,9.0,5.0,,,,,,,,,,,,,rot,red,r,1.0,r,1.0,1.217027689970564,,,,,,,,,,5.0,9.0,69.0,1.0,327.00475679402007,,,,,,,,,,,,,,,,,326.9892645390355,327.347843310039,328.15485275903484,328.13917633803794,,,,,,,,,,,,,,,,,,,,,,,,,,,,,,,,,,,328.14168428099947,328.15485275903484,328.15485275903484,329.37366595398635,r,1.0,1.217027689970564,,,,,,sub-064,1,stroop_test,60.58896275577093,
,,,,70.0,10.0,5.0,,,,,,,,,,,,,blau,red,r,0.0,r,1.0,0.5202241509687155,,,,,,,,,,5.0,10.0,70.0,4.0,329.3882909390377,,,,,,,,,,,,,,,,,329.3739875589963,330.5888894320233,331.3885594010353,331.372935833002,,,,,,,,,,,,,,,,,,,,,,,,,,,,,,,,,,,331.37542117899284,331.3885594010353,331.3885594010353,331.9242226399947,r,1.0,0.5202241509687155,,,,,,sub-064,1,stroop_test,60.58896275577093,
,,,,71.0,11.0,5.0,,,,,,,,,,,,,rot,red,r,1.0,r,1.0,0.4987361989915371,,,,,,,,,,5.0,11.0,71.0,0.0,331.9387282219832,,,,,,,,,,,,,,,,,331.9245556690148,332.0388272459968,332.8491408600239,332.832125371031,,,,,,,,,,,,,,,,,,,,,,,,,,,,,,,,,,,332.83512884302763,332.8491408600239,332.8491408600239,333.35729680303484,r,1.0,0.4987361989915371,,,,,,sub-064,1,stroop_test,60.58896275577093,
,,,,72.0,0.0,6.0,,,,,,,,,,,,,gelb,yellow,g,1.0,g,1.0,0.6993991609779187,,,,,,,,,,6.0,0.0,72.0,11.0,333.37247635499807,,,,,,,,,,,,,,,,,333.35762013000203,333.47271541599184,334.27248559403233,334.25688881700626,,,,,,,,,,,,,,,,,,,,,,,,,,,,,,,,,,,334.26014748204034,334.27248559403233,334.27248559403233,334.97419237403665,g,1.0,0.6993991609779187,,,,,,sub-064,1,stroop_test,60.58896275577093,
,,,,73.0,1.0,6.0,,,,,,,,,,,,,blau,yellow,g,0.0,g,1.0,0.3432857120060362,,,,,,,,,,6.0,1.0,73.0,7.0,334.9893229560112,,,,,,,,,,,,,,,,,334.9745160820312,336.1797623060411,336.98965553200105,336.9735841990332,,,,,,,,,,,,,,,,,,,,,,,,,,,,,,,,,,,336.976084827038,336.98965553200105,336.98965553200105,337.34137908299454,g,1.0,0.3432857120060362,,,,,,sub-064,1,stroop_test,60.58896275577093,
,,,,74.0,2.0,6.0,,,,,,,,,,,,,blau,blue,b,1.0,b,1.0,0.8420260209823027,,,,,,,,,,6.0,2.0,74.0,5.0,337.35659385402687,,,,,,,,,,,,,,,,,337.3416995590087,337.6967563109938,338.5067441590363,338.49044696002966,,,,,,,,,,,,,,,,,,,,,,,,,,,,,,,,,,,338.4908785999869,338.5067441590363,338.5067441590363,339.35831990401493,b,1.0,0.8420260209823027,,,,,,sub-064,1,stroop_test,60.58896275577093,
,,,,75.0,3.0,6.0,,,,,,,,,,,,,rot,yellow,g,0.0,g,1.0,0.859234870004002,,,,,,,,,,6.0,3.0,75.0,3.0,339.3735340469866,,,,,,,,,,,,,,,,,339.358657039993,339.4736128739896,340.2734776639845,340.2578877740307,,,,,,,,,,,,,,,,,,,,,,,,,,,,,,,,,,,340.26097542903153,340.2734776639845,340.2734776639845,341.1417427530396,g,1.0,0.859234870004002,,,,,,sub-064,1,stroop_test,60.58896275577093,
,,,,76.0,4.0,6.0,,,,,,,,,,,,,rot,blue,b,0.0,b,1.0,1.0783769579720683,,,,,,,,,,6.0,4.0,76.0,2.0,341.1570171460044,,,,,,,,,,,,,,,,,341.1420654280228,342.35742577404017,343.1575643119868,343.14133228198625,,,,,,,,,,,,,,,,,,,,,,,,,,,,,,,,,,,343.1417653739918,343.1575643119868,343.1575643119868,344.2512601100025,b,1.0,1.0783769579720683,,,,,,sub-064,1,stroop_test,60.58896275577093,
,,,,77.0,5.0,6.0,,,,,,,,,,,,,blau,red,r,0.0,r,1.0,0.6349743340397254,,,,,,,,,,6.0,5.0,77.0,4.0,344.2675771040376,,,,,,,,,,,,,,,,,344.25161822803784,345.05774922599085,345.85773299401626,345.841603872017,,,,,,,,,,,,,,,,,,,,,,,,,,,,,,,,,,,345.84416057303315,345.85773299401626,345.85773299401626,346.5092121270136,r,1.0,0.6349743340397254,,,,,,sub-064,1,stroop_test,60.58896275577093,
,,,,78.0,6.0,6.0,,,,,,,,,,,,,gelb,red,r,0.0,r,1.0,0.4201433900161646,,,,,,,,,,6.0,6.0,78.0,8.0,346.52450337499613,,,,,,,,,,,,,,,,,346.50953512301203,346.6247220340301,347.4246749390149,347.4093337840168,,,,,,,,,,,,,,,,,,,,,,,,,,,,,,,,,,,347.4124043729971,347.4246749390149,347.4246749390149,347.85362346400507,r,1.0,0.4201433900161646,,,,,,sub-064,1,stroop_test,60.58896275577093,
,,,,79.0,7.0,6.0,,,,,,,,,,,,,gelb,yellow,g,1.0,g,1.0,0.6261533760116436,,,,,,,,,,6.0,7.0,79.0,10.0,347.8682707999833,,,,,,,,,,,,,,,,,347.8539490040275,348.6584189829882,349.4584316399996,349.4423366370029,,,,,,,,,,,,,,,,,,,,,,,,,,,,,,,,,,,349.44277783401776,349.4584316399996,349.4584316399996,350.0933429329889,g,1.0,0.6261533760116436,,,,,,sub-064,1,stroop_test,60.58896275577093,
,,,,80.0,8.0,6.0,,,,,,,,,,,,,gelb,blue,b,0.0,b,1.0,0.7155489799915813,,,,,,,,,,6.0,8.0,80.0,9.0,350.1085377690033,,,,,,,,,,,,,,,,,350.09366206103005,350.208680937998,351.0085395150236,350.9928080799873,,,,,,,,,,,,,,,,,,,,,,,,,,,,,,,,,,,350.9932376240031,351.0085395150236,351.0085395150236,351.7268343369942,b,1.0,0.7155489799915813,,,,,,sub-064,1,stroop_test,60.58896275577093,
,,,,81.0,9.0,6.0,,,,,,,,,,,,,rot,red,r,1.0,r,1.0,0.8423467599786818,,,,,,,,,,6.0,9.0,81.0,1.0,351.74208121799165,,,,,,,,,,,,,,,,,351.7271359449951,351.84220198803814,352.64218176703434,352.62662888801424,,,,,,,,,,,,,,,,,,,,,,,,,,,,,,,,,,,352.63030573603464,352.64218176703434,352.64218176703434,353.4941084070015,r,1.0,0.8423467599786818,,,,,,sub-064,1,stroop_test,60.58896275577093,
,,,,82.0,10.0,6.0,,,,,,,,,,,,,blau,blue,b,1.0,b,1.0,1.1775862419744954,,,,,,,,,,6.0,10.0,82.0,6.0,353.50903576699784,,,,,,,,,,,,,,,,,353.4944329910213,353.85928378999233,354.6593939780141,354.64331893698545,,,,,,,,,,,,,,,,,,,,,,,,,,,,,,,,,,,354.64577960100723,354.6593939780141,354.6593939780141,355.84401337598683,b,1.0,1.1775862419744954,,,,,,sub-064,1,stroop_test,60.58896275577093,
,,,,83.0,11.0,6.0,,,,,,,,,,,,,rot,red,r,1.0,r,1.0,0.7228306359611452,,,,,,,,,,6.0,11.0,83.0,0.0,355.85945084603736,,,,,,,,,,,,,,,,,355.8443362140097,356.2094115540385,357.0096967740101,356.993881597009,,,,,,,,,,,,,,,,,,,,,,,,,,,,,,,,,,,356.9970206859871,357.0096967740101,357.0096967740101,357.74441705300706,r,1.0,0.7228306359611452,,,,,,sub-064,1,stroop_test,60.58896275577093,
,,,,84.0,0.0,7.0,,,,,,,,,,,,,rot,blue,b,0.0,b,1.0,0.7009590259985998,,,,,,,,,,7.0,0.0,84.0,2.0,357.7599064480164,,,,,,,,,,,,,,,,,357.74473964900244,358.94353403901914,359.74344564502826,359.727763945004,,,,,,,,,,,,,,,,,,,,,,,,,,,,,,,,,,,359.7283538830234,359.74344564502826,359.74344564502826,360.46127732499735,b,1.0,0.7009590259985998,,,,,,sub-064,1,stroop_test,60.58896275577093,
,,,,85.0,1.0,7.0,,,,,,,,,,,,,blau,blue,b,1.0,b,1.0,0.582983540953137,,,,,,,,,,7.0,1.0,85.0,6.0,360.4772779659834,,,,,,,,,,,,,,,,,360.4616042000125,360.8106485159951,361.6127196680172,361.6002645200351,,,,,,,,,,,,,,,,,,,,,,,,,,,,,,,,,,,361.6027261600248,361.6127196680172,361.6127196680172,362.2123685380211,b,1.0,0.582983540953137,,,,,,sub-064,1,stroop_test,60.58896275577093,
,,,,86.0,2.0,7.0,,,,,,,,,,,,,rot,red,r,1.0,r,1.0,0.6733214790001512,,,,,,,,,,7.0,2.0,86.0,0.0,362.2271345570334,,,,,,,,,,,,,,,,,362.2126901180018,363.0274793300196,363.8275061679888,363.811761132034,,,,,,,,,,,,,,,,,,,,,,,,,,,,,,,,,,,363.8148931140313,363.8275061679888,363.8275061679888,364.5128304490354,r,1.0,0.6733214790001512,,,,,,sub-064,1,stroop_test,60.58896275577093,
,,,,87.0,3.0,7.0,,,,,,,,,,,,,rot,red,r,1.0,r,1.0,0.3885266639990732,,,,,,,,,,7.0,3.0,87.0,1.0,364.52769568399526,,,,,,,,,,,,,,,,,364.5131543590105,365.72802304598736,366.527949684998,366.5119127869839,,,,,,,,,,,,,,,,,,,,,,,,,,,,,,,,,,,366.5123547189869,366.527949684998,366.527949684998,366.9294432459865,r,1.0,0.3885266639990732,,,,,,sub-064,1,stroop_test,60.58896275577093,
,,,,88.0,4.0,7.0,,,,,,,,,,,,,gelb,yellow,g,1.0,g,1.0,0.6274455940001644,,,,,,,,,,7.0,4.0,88.0,10.0,366.9447522590053,,,,,,,,,,,,,,,,,366.9297645280021,368.1449812770006,368.945064679021,368.9291446729912,,,,,,,,,,,,,,,,,,,,,,,,,,,,,,,,,,,368.9322492780048,368.945064679021,368.945064679021,369.5802707010298,g,1.0,0.6274455940001644,,,,,,sub-064,1,stroop_test,60.58896275577093,
,,,,89.0,5.0,7.0,,,,,,,,,,,,,blau,red,r,0.0,b,0.0,1.0033710320130922,,,,,,,,,,7.0,5.0,89.0,4.0,369.59509191603865,,,,,,,,,,,,,,,,,369.5805925950408,369.93838358600624,370.7452241519932,370.7292198560317,,,,,,,,,,,,,,,,,,,,,,,,,,,,,,,,,,,370.7321871169843,370.7452241519932,370.7452241519932,371.7636269939831,b,0.0,1.0033710320130922,,,,,,sub-064,1,stroop_test,60.58896275577093,
,,,,90.0,6.0,7.0,,,,,,,,,,,,,gelb,blue,b,0.0,b,1.0,0.8254990159766749,,,,,,,,,,7.0,6.0,90.0,9.0,371.7787549170316,,,,,,,,,,,,,,,,,371.7639653690276,372.57917725201696,373.3790995510062,373.3633490389912,,,,,,,,,,,,,,,,,,,,,,,,,,,,,,,,,,,373.36646259302506,373.3790995510062,373.3790995510062,374.2138918720302,b,1.0,0.8254990159766749,,,,,,sub-064,1,stroop_test,60.58896275577093,
,,,,91.0,7.0,7.0,,,,,,,,,,,,,blau,yellow,g,0.0,g,1.0,0.7922914230148308,,,,,,,,,,7.0,7.0,91.0,7.0,374.2295181510272,,,,,,,,,,,,,,,,,374.21421284799,374.3293560030288,375.1396123120212,375.12346772901947,,,,,,,,,,,,,,,,,,,,,,,,,,,,,,,,,,,375.1260014750296,375.1396123120212,375.1396123120212,375.947952150018,g,1.0,0.7922914230148308,,,,,,sub-064,1,stroop_test,60.58896275577093,
,,,,92.0,8.0,7.0,,,,,,,,,,,,,gelb,yellow,g,1.0,g,1.0,0.515704849967733,,,,,,,,,,7.0,8.0,92.0,11.0,375.96286502701696,,,,,,,,,,,,,,,,,375.9482750309981,376.3131417430122,377.1132242340245,377.0970278769965,,,,,,,,,,,,,,,,,,,,,,,,,,,,,,,,,,,377.0995021039853,377.1132242340245,377.1132242340245,377.6316141859861,g,1.0,0.515704849967733,,,,,,sub-064,1,stroop_test,60.58896275577093,
,,,,93.0,9.0,7.0,,,,,,,,,,,,,blau,blue,b,1.0,b,1.0,0.538131550012622,,,,,,,,,,7.0,9.0,93.0,5.0,377.64644507702906,,,,,,,,,,,,,,,,,377.6319374340237,377.7467516119941,378.5467097100336,378.5305838860222,,,,,,,,,,,,,,,,,,,,,,,,,,,,,,,,,,,378.533143719018,378.5467097100336,378.5467097100336,379.0982573960209,b,1.0,0.538131550012622,,,,,,sub-064,1,stroop_test,60.58896275577093,
,,,,94.0,10.0,7.0,,,,,,,,,,,,,gelb,red,r,0.0,r,1.0,0.6833797610015608,,,,,,,,,,7.0,10.0,94.0,8.0,379.11342289700406,,,,,,,,,,,,,,,,,379.0985970959882,379.9137244950398,380.7136747390032,380.6980060560163,,,,,,,,,,,,,,,,,,,,,,,,,,,,,,,,,,,380.7009304949897,380.7136747390032,380.7136747390032,381.3994094619993,r,1.0,0.6833797610015608,,,,,,sub-064,1,stroop_test,60.58896275577093,
,,,,95.0,11.0,7.0,,,,,,,,,,,,,rot,yellow,g,0.0,g,1.0,1.0243107430287637,,,,,,,,,,7.0,11.0,95.0,3.0,381.41382292401977,,,,,,,,,,,,,,,,,381.3997490660404,381.7641008720384,382.5642699029995,382.5485090650036,,,,,,,,,,,,,,,,,,,,,,,,,,,,,,,,,,,382.5510143570136,382.5642699029995,382.5642699029995,383.5987361170119,g,1.0,1.0243107430287637,,,,,,sub-064,1,stroop_test,60.58896275577093,
,,,,96.0,0.0,8.0,,,,,,,,,,,,,blau,blue,b,1.0,b,1.0,0.6140683919657022,,,,,,,,,,8.0,0.0,96.0,6.0,383.6139313250314,,,,,,,,,,,,,,,,,383.5990024030325,384.39804241701495,385.1979235809995,385.18177030899096,,,,,,,,,,,,,,,,,,,,,,,,,,,,,,,,,,,385.1847303530085,385.1979235809995,385.1979235809995,385.8160422150395,b,1.0,0.6140683919657022,,,,,,sub-064,1,stroop_test,60.58896275577093,
,,,,97.0,1.0,8.0,,,,,,,,,,,,,rot,red,r,1.0,r,1.0,0.6960152210085653,,,,,,,,,,8.0,1.0,97.0,0.0,385.8312334429938,,,,,,,,,,,,,,,,,385.8163427370018,386.18147692701314,386.9814662680146,386.96579565800494,,,,,,,,,,,,,,,,,,,,,,,,,,,,,,,,,,,386.9686970129842,386.9814662680146,386.9814662680146,387.68302100902656,r,1.0,0.6960152210085653,,,,,,sub-064,1,stroop_test,60.58896275577093,
,,,,98.0,2.0,8.0,,,,,,,,,,,,,blau,blue,b,1.0,b,1.0,0.4821630140068009,,,,,,,,,,8.0,2.0,98.0,5.0,387.6984280770412,,,,,,,,,,,,,,,,,387.6833456450258,388.4819945250056,389.28169087303104,389.26627950399416,,,,,,,,,,,,,,,,,,,,,,,,,,,,,,,,,,,389.2693526709918,389.28169087303104,389.28169087303104,389.766491832037,b,1.0,0.4821630140068009,,,,,,sub-064,1,stroop_test,60.58896275577093,
,,,,99.0,3.0,8.0,,,,,,,,,,,,,blau,yellow,g,0.0,g,1.0,0.5587146899779327,,,,,,,,,,8.0,3.0,99.0,7.0,389.7817625760217,,,,,,,,,,,,,,,,,389.7667845439864,390.58211127499817,391.3823844420258,391.3663250840036,,,,,,,,,,,,,,,,,,,,,,,,,,,,,,,,,,,391.3669540850096,391.3823844420258,391.3823844420258,391.95067485800246,g,1.0,0.5587146899779327,,,,,,sub-064,1,stroop_test,60.58896275577093,
,,,,100.0,4.0,8.0,,,,,,,,,,,,,rot,yellow,g,0.0,g,1.0,0.4468936889898032,,,,,,,,,,8.0,4.0,100.0,3.0,391.9655554990168,,,,,,,,,,,,,,,,,391.95099740003934,392.31614429102046,393.126020678028,393.10984977701446,,,,,,,,,,,,,,,,,,,,,,,,,,,,,,,,,,,393.1122923300136,393.126020678028,393.126020678028,393.58422509703087,g,1.0,0.4468936889898032,,,,,,sub-064,1,stroop_test,60.58896275577093,
,,,,101.0,5.0,8.0,,,,,,,,,,,,,gelb,yellow,g,1.0,g,1.0,0.4008812989923171,,,,,,,,,,8.0,5.0,101.0,11.0,393.5991874450119,,,,,,,,,,,,,,,,,393.584543798992,393.6994162820047,394.4994632159942,394.4838583859964,,,,,,,,,,,,,,,,,,,,,,,,,,,,,,,,,,,394.4869998199865,394.4994632159942,394.4994632159942,394.9180636930396,g,1.0,0.4008812989923171,,,,,,sub-064,1,stroop_test,60.58896275577093,
,,,,102.0,6.0,8.0,,,,,,,,,,,,,rot,red,r,1.0,r,1.0,0.6400842120056041,,,,,,,,,,8.0,6.0,102.0,1.0,394.9326828120393,,,,,,,,,,,,,,,,,394.918406117009,396.1333138720365,396.9331568240305,396.9170991179999,,,,,,,,,,,,,,,,,,,,,,,,,,,,,,,,,,,396.9195653159986,396.9331568240305,396.9331568240305,397.5851209289976,r,1.0,0.6400842120056041,,,,,,sub-064,1,stroop_test,60.58896275577093,
,,,,103.0,7.0,8.0,,,,,,,,,,,,,gelb,red,r,0.0,r,1.0,0.8878524389583617,,,,,,,,,,8.0,7.0,103.0,8.0,397.6003085480188,,,,,,,,,,,,,,,,,397.5855519580073,397.70000837702537,398.5001493130112,398.4838808019995,,,,,,,,,,,,,,,,,,,,,,,,,,,,,,,,,,,398.48638501099776,398.5001493130112,398.5001493130112,399.4019316670019,r,1.0,0.8878524389583617,,,,,,sub-064,1,stroop_test,60.58896275577093,
,,,,104.0,8.0,8.0,,,,,,,,,,,,,rot,blue,b,0.0,b,1.0,0.6395932279992849,,,,,,,,,,8.0,8.0,104.0,2.0,399.41683728504,,,,,,,,,,,,,,,,,399.40225370798726,399.5168773290352,400.3170445720316,400.3014602210024,,,,,,,,,,,,,,,,,,,,,,,,,,,,,,,,,,,400.3050325490185,400.3170445720316,400.3170445720316,400.96916641603457,b,1.0,0.6395932279992849,,,,,,sub-064,1,stroop_test,60.58896275577093,
,,,,105.0,9.0,8.0,,,,,,,,,,,,,gelb,blue,b,0.0,b,1.0,1.220588059979491,,,,,,,,,,8.0,9.0,105.0,9.0,400.9839589790208,,,,,,,,,,,,,,,,,400.9694959720364,401.7840805170126,402.5841741560144,402.56828610098455,,,,,,,,,,,,,,,,,,,,,,,,,,,,,,,,,,,402.5713764940156,402.5841741560144,402.5841741560144,403.8192064400064,b,1.0,1.220588059979491,,,,,,sub-064,1,stroop_test,60.58896275577093,
,,,,106.0,10.0,8.0,,,,,,,,,,,,,gelb,yellow,g,1.0,g,1.0,0.4417165369959548,,,,,,,,,,8.0,10.0,106.0,10.0,403.834429524024,,,,,,,,,,,,,,,,,403.81954500701977,405.0346384330187,405.8349251120235,405.8189375950024,,,,,,,,,,,,,,,,,,,,,,,,,,,,,,,,,,,405.8195457039983,405.8349251120235,405.8349251120235,406.2861395530053,g,1.0,0.4417165369959548,,,,,,sub-064,1,stroop_test,60.58896275577093,
,,,,107.0,11.0,8.0,,,,,,,,,,,,,blau,red,r,0.0,r,1.0,0.63169446203392,,,,,,,,,,8.0,11.0,107.0,4.0,406.30158206203487,,,,,,,,,,,,,,,,,406.2864635470323,407.5017619699938,408.30940013699,408.2959537440329,,,,,,,,,,,,,,,,,,,,,,,,,,,,,,,,,,,408.2985300199944,408.30940013699,408.30940013699,408.95318346400745,r,1.0,0.63169446203392,,,,,,sub-064,1,stroop_test,60.58896275577093,
,,,,108.0,0.0,9.0,,,,,,,,,,,,,rot,yellow,g,0.0,g,1.0,1.419570783036761,,,,,,,,,,9.0,0.0,108.0,3.0,408.9684621979832,,,,,,,,,,,,,,,,,408.95351595804095,410.16865966800833,410.96904344303766,410.9531515359995,,,,,,,,,,,,,,,,,,,,,,,,,,,,,,,,,,,410.9562393430388,410.96904344303766,410.96904344303766,412.4040975010139,g,1.0,1.419570783036761,,,,,,sub-064,1,stroop_test,60.58896275577093,
,,,,109.0,1.0,9.0,,,,,,,,,,,,,gelb,red,r,0.0,r,1.0,0.7373071350157261,,,,,,,,,,9.0,1.0,109.0,8.0,412.4190583649906,,,,,,,,,,,,,,,,,412.4044219320058,413.2104773269966,414.01923424704,414.0034671309986,,,,,,,,,,,,,,,,,,,,,,,,,,,,,,,,,,,414.0059208720341,414.01923424704,414.01923424704,414.77086910500657,r,1.0,0.7373071350157261,,,,,,sub-064,1,stroop_test,60.58896275577093,
,,,,110.0,2.0,9.0,,,,,,,,,,,,,blau,red,r,0.0,r,1.0,0.9956413849722594,,,,,,,,,,9.0,2.0,110.0,4.0,414.7862626209972,,,,,,,,,,,,,,,,,414.7711923100287,415.13617522100685,415.936245296034,415.9205685590277,,,,,,,,,,,,,,,,,,,,,,,,,,,,,,,,,,,415.9236697300221,415.936245296034,415.936245296034,416.9385322349845,r,1.0,0.9956413849722594,,,,,,sub-064,1,stroop_test,60.58896275577093,
,,,,111.0,3.0,9.0,,,,,,,,,,,,,gelb,yellow,g,1.0,g,1.0,1.482535004033707,,,,,,,,,,9.0,3.0,111.0,11.0,416.9531945160125,,,,,,,,,,,,,,,,,416.9388534280006,417.7535495490301,418.5537195189973,418.5373617450241,,,,,,,,,,,,,,,,,,,,,,,,,,,,,,,,,,,418.5398848750047,418.5537195189973,418.5537195189973,420.03889115701895,g,1.0,1.482535004033707,,,,,,sub-064,1,stroop_test,60.58896275577093,
,,,,112.0,4.0,9.0,,,,,,,,,,,,,blau,yellow,g,0.0,g,1.0,0.8914438089705072,,,,,,,,,,9.0,4.0,112.0,7.0,420.05364310299046,,,,,,,,,,,,,,,,,420.0392149600084,420.1539092159946,420.95372835802846,420.9381784860161,,,,,,,,,,,,,,,,,,,,,,,,,,,,,,,,,,,420.9418181980145,420.95372835802846,420.95372835802846,421.8558188489988,g,1.0,0.8914438089705072,,,,,,sub-064,1,stroop_test,60.58896275577093,
,,,,113.0,5.0,9.0,,,,,,,,,,,,,blau,blue,b,1.0,b,1.0,0.6134105779929087,,,,,,,,,,9.0,5.0,113.0,6.0,421.87058309302665,,,,,,,,,,,,,,,,,421.8561412660056,422.67133897100575,423.47129023401067,423.4557075059856,,,,,,,,,,,,,,,,,,,,,,,,,,,,,,,,,,,423.4563272939995,423.47129023401067,423.47129023401067,424.0892877060105,b,1.0,0.6134105779929087,,,,,,sub-064,1,stroop_test,60.58896275577093,
,,,,114.0,6.0,9.0,,,,,,,,,,,,,rot,red,r,1.0,r,1.0,0.6279192880028859,,,,,,,,,,9.0,6.0,114.0,0.0,424.10468439699616,,,,,,,,,,,,,,,,,424.0896103869891,424.4547443779884,425.2647998800385,425.2456801520311,,,,,,,,,,,,,,,,,,,,,,,,,,,,,,,,,,,425.24898763903184,425.2647998800385,425.2647998800385,425.9066673420021,r,1.0,0.6279192880028859,,,,,,sub-064,1,stroop_test,60.58896275577093,
,,,,115.0,7.0,9.0,,,,,,,,,,,,,blau,blue,b,1.0,b,1.0,0.7064495259546675,,,,,,,,,,9.0,7.0,115.0,5.0,425.9213887560181,,,,,,,,,,,,,,,,,425.906991233991,427.1218849759898,427.92169010202633,427.9059662770014,,,,,,,,,,,,,,,,,,,,,,,,,,,,,,,,,,,427.9090514139971,427.92169010202633,427.92169010202633,428.64047359803226,b,1.0,0.7064495259546675,,,,,,sub-064,1,stroop_test,60.58896275577093,
,,,,116.0,8.0,9.0,,,,,,,,,,,,,rot,red,r,1.0,r,1.0,0.5165812129853293,,,,,,,,,,9.0,8.0,116.0,1.0,428.6554125230177,,,,,,,,,,,,,,,,,428.6408011780004,429.85543693299405,430.6555107610184,430.6396622339962,,,,,,,,,,,,,,,,,,,,,,,,,,,,,,,,,,,430.6426786800148,430.6555107610184,430.6555107610184,431.1744908770197,r,1.0,0.5165812129853293,,,,,,sub-064,1,stroop_test,60.58896275577093,
,,,,117.0,9.0,9.0,,,,,,,,,,,,,rot,blue,b,0.0,b,1.0,1.3359487139969133,,,,,,,,,,9.0,9.0,117.0,2.0,431.1890976459836,,,,,,,,,,,,,,,,,431.17487113102106,431.9722381969914,432.77285903703887,432.75686242000666,,,,,,,,,,,,,,,,,,,,,,,,,,,,,,,,,,,432.7572977929958,432.77285903703887,432.77285903703887,434.1242064490216,b,1.0,1.3359487139969133,,,,,,sub-064,1,stroop_test,60.58896275577093,
,,,,118.0,10.0,9.0,,,,,,,,,,,,,gelb,blue,b,0.0,b,1.0,0.4691447740187868,,,,,,,,,,9.0,10.0,118.0,9.0,434.13944256299874,,,,,,,,,,,,,,,,,434.1245298550348,434.2394264049945,435.0395725630224,435.0241183260223,,,,,,,,,,,,,,,,,,,,,,,,,,,,,,,,,,,435.0271740829921,435.0395725630224,435.0395725630224,435.5250138380216,b,1.0,0.4691447740187868,,,,,,sub-064,1,stroop_test,60.58896275577093,
,,,,119.0,11.0,9.0,,,,,,,,,,,,,gelb,yellow,g,1.0,g,1.0,0.3036512199905701,,,,,,,,,,9.0,11.0,119.0,10.0,435.5400723930216,,,,,,,,,,,,,,,,,435.525333608035,436.7401695069857,437.54030944401165,437.5243759879959,,,,,,,,,,,,,,,,,,,,,,,,,,,,,,,,,,,437.5250051590265,437.54030944401165,437.54030944401165,437.8583682629978,g,1.0,0.3036512199905701,,,,,,sub-064,1,stroop_test,60.58896275577093,
,,,,,,,,,,,,,,,,,,,,,,,,,,,,,,,,,,,,,,,,,,,,,,,,,,,,,,,,,,,,,,,,,,,,,,,,,,,,,,,,,,,,,,,,,,,,,,,,,,,,,,437.8585322260042,437.87368670199066,442.8744868350332,442.8583713570261,sub-064,1,stroop_test,60.58896275577093,
