wordCTK,colorCTK,corrAnsCTK,congruentCTK,thisN,thisTrialN,thisRepN,keyResp_CTK.keys,keyResp_CTK.corr,keyResp_CTK.rt,keyResp_CTK.duration,wordPractice,colorPractice,corrAnsPractice,congruentPractice,respPractice.keys,respPractice.corr,respPractice.rt,respPractice.duration,word,color,corrAns,congruent,keyResp_test_run.keys,keyResp_test_run.corr,keyResp_test_run.rt,keyResp_test_run.duration,trials_CTK.thisRepN,trials_CTK.thisTrialN,trials_CTK.thisN,trials_CTK.thisIndex,trials_practice.thisRepN,trials_practice.thisTrialN,trials_practice.thisN,trials_practice.thisIndex,trials_test.thisRepN,trials_test.thisTrialN,trials_test.thisN,trials_test.thisIndex,thisRow.t,notes,instruction.started,instr_text.started,instr_image.started,instr_resp.started,instruction.stopped,instr_resp.keys,instr_resp.rt,instr_resp.duration,instr_color_to_key.started,instr_ctk.started,resp_ctk.started,instr_color_to_key.stopped,resp_ctk.keys,resp_ctk.rt,resp_ctk.duration,ITI.started,fixcross.started,fixcross.stopped,ITI.stopped,color_to_key_run.started,stimulus_CTK.started,keyResp_CTK.started,color_to_key_run.stopped,trials_CTK.keyResp_CTK.keys,trials_CTK.keyResp_CTK.corr,trials_CTK.keyResp_CTK.rt,trials_CTK.keyResp_CTK.duration,instr_practice.started,instr_practice_text.started,instr_practice_resp.started,instr_practice.stopped,instr_practice_resp.keys,instr_practice_resp.rt,instr_practice_resp.duration,practice_run.started,stimulus_practice.started,respPractice.started,practice_run.stopped,trials_practice.respPractice.keys,trials_practice.respPractice.corr,trials_practice.respPractice.rt,trials_practice.respPractice.duration,feedback.started,textFeedback.started,feedback.stopped,textFeedback.stopped,instr_test.started,instr_test_text.started,instr_test_resp.started,instr_test.stopped,instr_test_resp.keys,instr_test_resp.rt,instr_test_resp.duration,test_run.started,stimulus_test_run.started,keyResp_test_run.started,test_run.stopped,trials_test.keyResp_test_run.keys,trials_test.keyResp_test_run.corr,trials_test.keyResp_test_run.rt,trials_test.keyResp_test_run.duration,goodbye.started,textGoodbye.started,goodbye.stopped,participant,session,expName,frameRate,Unnamed: 112
,,,,,,,,,,,,,,,,,,,,,,,,,,,,,,,,,,,,,,,,,0.0054857000000083,0.1242013000000952,0.1242013000000952,0.1242013000000952,63.16219150000006,space,62.96813380000003,,,,,,,,,,,,,,,,,,,,,,,,,,,,,,,,,,,,,,,,,,,,,,,,,,,,,,,,,,sub-020,1,stroop_test,60.0718218702735,
,,,,,,,,,,,,,,,,,,,,,,,,,,,,,,,,,,,,,,,,,,,,,,,,,63.162274700000125,63.16925140000012,63.16925140000012,73.17350379999971,space,9.99290259999998,,,,,,,,,,,,,,,,,,,,,,,,,,,,,,,,,,,,,,,,,,,,,,,,,,,sub-020,1,stroop_test,60.0718218702735,
test,red,r,1.0,0.0,0.0,0.0,r,1.0,1.7837076999999226,,,,,,,,,,,,,,,,,,0.0,0.0,0.0,0.0,,,,,,,,,73.20947309999974,,,,,,,,,,,,,,,,,73.20448390000001,74.38875479999979,75.19814129999986,75.1742350999998,75.19032500000003,75.19814129999986,75.19814129999986,76.99296869999989,r,1.0,1.7837076999999226,,,,,,,,,,,,,,,,,,,,,,,,,,,,,,,,,,,,,,,sub-020,1,stroop_test,60.0718218702735,
test,blue,b,1.0,1.0,1.0,0.0,b,1.0,1.1339186000000154,,,,,,,,,,,,,,,,,,0.0,1.0,1.0,2.0,,,,,,,,,77.00741789999984,,,,,,,,,,,,,,,,,76.9934846000001,77.80781819999993,78.60833589999993,78.59317759999976,78.59423789999983,78.60833589999993,78.60833589999993,79.74552829999993,b,1.0,1.1339186000000154,,,,,,,,,,,,,,,,,,,,,,,,,,,,,,,,,,,,,,,sub-020,1,stroop_test,60.0718218702735,
test,yellow,g,1.0,2.0,2.0,0.0,g,1.0,1.2730584999999337,,,,,,,,,,,,,,,,,,0.0,2.0,2.0,1.0,,,,,,,,,79.75917359999994,,,,,,,,,,,,,,,,,79.74609239999972,79.85921989999997,80.65985819999969,80.64457110000012,80.64532220000001,80.65985819999969,80.65985819999969,81.94677289999981,g,1.0,1.2730584999999337,,,,,,,,,,,,,,,,,,,,,,,,,,,,,,,,,,,,,,,sub-020,1,stroop_test,60.0718218702735,
test,red,r,1.0,3.0,0.0,1.0,r,1.0,0.6803706000000602,,,,,,,,,,,,,,,,,,1.0,0.0,3.0,0.0,,,,,,,,,81.96059250000008,,,,,,,,,,,,,,,,,81.94729639999969,82.76156039999978,83.56189820000009,83.54670510000005,83.54748849999987,83.56189820000009,83.56189820000009,84.24808039999971,r,1.0,0.6803706000000602,,,,,,,,,,,,,,,,,,,,,,,,,,,,,,,,,,,,,,,sub-020,1,stroop_test,60.0718218702735,
test,blue,b,1.0,4.0,1.0,1.0,b,1.0,0.7294379999998455,,,,,,,,,,,,,,,,,,1.0,1.0,4.0,2.0,,,,,,,,,84.2624151,,,,,,,,,,,,,,,,,84.24859879999985,84.36248269999987,85.16321650000009,85.14888889999975,85.149543,85.16321650000009,85.16321650000009,85.89962179999975,b,1.0,0.7294379999998455,,,,,,,,,,,,,,,,,,,,,,,,,,,,,,,,,,,,,,,sub-020,1,stroop_test,60.0718218702735,
test,yellow,g,1.0,5.0,2.0,1.0,g,1.0,0.6074125000000095,,,,,,,,,,,,,,,,,,1.0,2.0,5.0,1.0,,,,,,,,,85.91352860000006,,,,,,,,,,,,,,,,,85.90039999999999,86.26401269999997,87.06450360000008,87.04896550000012,87.04980299999988,87.06450360000008,87.06450360000008,87.68371789999992,g,1.0,0.6074125000000095,,,,,,,,,,,,,,,,,,,,,,,,,,,,,,,,,,,,,,,sub-020,1,stroop_test,60.0718218702735,
test,blue,b,1.0,6.0,0.0,2.0,b,1.0,0.8539636000000428,,,,,,,,,,,,,,,,,,2.0,0.0,6.0,2.0,,,,,,,,,87.69814869999982,,,,,,,,,,,,,,,,,87.68431819999978,87.79816549999987,88.59887089999984,88.5836949999998,88.58454129999973,88.59887089999984,88.59887089999984,89.46816409999974,b,1.0,0.8539636000000428,,,,,,,,,,,,,,,,,,,,,,,,,,,,,,,,,,,,,,,sub-020,1,stroop_test,60.0718218702735,
test,red,r,1.0,7.0,1.0,2.0,r,1.0,0.4188625000001593,,,,,,,,,,,,,,,,,,2.0,1.0,7.0,0.0,,,,,,,,,89.48289329999989,,,,,,,,,,,,,,,,,89.46869979999974,89.5828891000001,90.3832238,90.3684945,90.36943419999989,90.3832238,90.3832238,90.81930349999992,r,1.0,0.4188625000001593,,,,,,,,,,,,,,,,,,,,,,,,,,,,,,,,,,,,,,,sub-020,1,stroop_test,60.0718218702735,
test,yellow,g,1.0,8.0,2.0,2.0,g,1.0,0.5276926000001367,,,,,,,,,,,,,,,,,,2.0,2.0,8.0,1.0,,,,,,,,,90.8338276999998,,,,,,,,,,,,,,,,,90.81986439999991,91.18380819999992,91.98447690000012,91.96932909999988,91.97027649999973,91.98447690000012,91.98447690000012,92.5203477,g,1.0,0.5276926000001367,,,,,,,,,,,,,,,,,,,,,,,,,,,,,,,,,,,,,,,sub-020,1,stroop_test,60.0718218702735,
test,yellow,g,1.0,9.0,0.0,3.0,g,1.0,0.6162506999999096,,,,,,,,,,,,,,,,,,3.0,0.0,9.0,1.0,,,,,,,,,92.53478039999982,,,,,,,,,,,,,,,,,92.52093549999972,93.73566739999978,94.5361954,94.52139399999987,94.52228659999992,94.5361954,94.5361954,95.15604459999986,g,1.0,0.6162506999999096,,,,,,,,,,,,,,,,,,,,,,,,,,,,,,,,,,,,,,,sub-020,1,stroop_test,60.0718218702735,
test,red,r,1.0,10.0,1.0,3.0,r,1.0,0.6405577000000449,,,,,,,,,,,,,,,,,,3.0,1.0,10.0,0.0,,,,,,,,,95.16995769999994,,,,,,,,,,,,,,,,,95.15677509999978,95.26990380000008,96.07112899999991,96.05470209999976,96.0552057,96.07112899999991,96.07112899999991,96.72317609999982,r,1.0,0.6405577000000449,,,,,,,,,,,,,,,,,,,,,,,,,,,,,,,,,,,,,,,sub-020,1,stroop_test,60.0718218702735,
test,blue,b,1.0,11.0,2.0,3.0,b,1.0,0.7531044999996084,,,,,,,,,,,,,,,,,,3.0,2.0,11.0,2.0,,,,,,,,,96.7376451,,,,,,,,,,,,,,,,,96.72368000000006,97.08808219999992,97.88864049999984,97.8732298,97.87399469999993,97.88864049999984,97.88864049999984,98.65840739999976,b,1.0,0.7531044999996084,,,,,,,,,,,,,,,,,,,,,,,,,,,,,,,,,,,,,,,sub-020,1,stroop_test,60.0718218702735,
,,,,,,,,,,,,,,,,,,,,,,,,,,,,,,,,,,,,,,,,,,,,,,,,,,,,,,,,,,,,,,,,,,,,98.65865039999971,98.67238019999968,98.67238019999968,101.04318169999988,space,2.359493200000088,,,,,,,,,,,,,,,,,,,,,,,,,,,,,,,,sub-020,1,stroop_test,60.0718218702735,
,,,,0.0,0.0,0.0,,,,,rot,blue,b,0.0,b,1.0,0.7269381000000976,,,,,,,,,,,,,,0.0,0.0,0.0,2.0,,,,,101.07302249999977,,,,,,,,,,,,,,,,,101.06702469999982,102.25827410000012,103.06563809999987,103.04361710000012,,,,,,,,,,,,,,,,103.0576102,103.06563809999987,103.06563809999987,103.79569949999996,b,1.0,0.7269381000000976,,103.8140881999998,103.8240096999998,104.81050619999996,,,,,,,,,,,,,,,,,,,,sub-020,1,stroop_test,60.0718218702735,
,,,,1.0,1.0,0.0,,,,,blau,red,r,0.0,r,1.0,1.033731900000021,,,,,,,,,,,,,,0.0,1.0,1.0,4.0,,,,,104.82657470000004,,,,,,,,,,,,,,,,,104.81114410000008,105.61057589999972,106.4188779000001,106.39586229999986,,,,,,,,,,,,,,,,106.4118054999999,106.4188779000001,106.4188779000001,107.46412939999982,r,1.0,1.033731900000021,,107.46508749999975,107.47842749999973,108.46386499999971,108.47946069999988,,,,,,,,,,,,,,,,,,,sub-020,1,stroop_test,60.0718218702735,
,,,,2.0,2.0,0.0,,,,,rot,yellow,g,0.0,g,1.0,0.8820388999997704,,,,,,,,,,,,,,0.0,2.0,2.0,3.0,,,,,108.47946069999988,,,,,,,,,,,,,,,,,108.46468419999974,109.67997530000002,110.48047180000005,110.46611179999992,,,,,,,,,,,,,,,,110.47231680000004,110.48047180000005,110.48047180000005,111.36668569999983,g,1.0,0.8820388999997704,,111.36753899999984,111.38142779999998,112.36652069999992,112.38186769999992,,,,,,,,,,,,,,,,,,,sub-020,1,stroop_test,60.0718218702735,
,,,,3.0,3.0,0.0,,,,,gelb,yellow,g,1.0,g,1.0,1.0782515999999305,,,,,,,,,,,,,,0.0,3.0,3.0,10.0,,,,,112.38186769999992,,,,,,,,,,,,,,,,,112.36730439999974,112.73218700000008,113.5349725000001,113.51781699999992,,,,,,,,,,,,,,,,113.5248587000001,113.5349725000001,113.5349725000001,114.6193033999998,g,1.0,1.0782515999999305,,114.62026639999976,114.63352159999975,115.61876570000004,115.63402029999996,,,,,,,,,,,,,,,,,,,sub-020,1,stroop_test,60.0718218702735,
,,,,4.0,4.0,0.0,,,,,blau,blue,b,1.0,b,1.0,1.027331299999787,,,,,,,,,,,,,,0.0,4.0,4.0,6.0,,,,,115.63402029999996,,,,,,,,,,,,,,,,,115.6192962,116.83518460000003,117.63549839999996,117.62032129999989,,,,,,,,,,,,,,,,117.62618199999996,117.63549839999996,117.63549839999996,118.67181170000003,b,1.0,1.027331299999787,,118.67258089999996,118.686154,119.67242850000002,119.68698480000012,,,,,,,,,,,,,,,,,,,sub-020,1,stroop_test,60.0718218702735,
,,,,5.0,5.0,0.0,,,,,gelb,red,r,0.0,r,1.0,0.8650272999998379,,,,,,,,,,,,,,0.0,5.0,5.0,8.0,,,,,119.68698480000012,,,,,,,,,,,,,,,,,119.67296080000006,119.7868856,120.58750400000008,120.57234289999997,,,,,,,,,,,,,,,,120.57853969999996,120.58750400000008,120.58750400000008,121.4570230999998,r,1.0,0.8650272999998379,,121.45788399999992,121.47169570000004,122.45764439999994,122.47250149999992,,,,,,,,,,,,,,,,,,,sub-020,1,stroop_test,60.0718218702735,
,,,,6.0,6.0,0.0,,,,,gelb,yellow,g,1.0,g,1.0,0.6857429000001503,,,,,,,,,,,,,,0.0,6.0,6.0,11.0,,,,,122.47250149999992,,,,,,,,,,,,,,,,,122.45821669999988,122.55551250000008,123.35620089999976,123.34123419999968,,,,,,,,,,,,,,,,123.34196470000006,123.35620089999976,123.35620089999976,124.0587375,g,1.0,0.6857429000001503,,124.05962139999974,124.07332799999996,125.05883080000012,125.0738825999997,,,,,,,,,,,,,,,,,,,sub-020,1,stroop_test,60.0718218702735,
,,,,7.0,7.0,0.0,,,,,gelb,blue,b,0.0,b,1.0,0.6274352000000363,,,,,,,,,,,,,,0.0,7.0,7.0,9.0,,,,,125.0738825999997,,,,,,,,,,,,,,,,,125.05956939999987,125.17412149999971,125.97502619999976,125.95956139999998,,,,,,,,,,,,,,,,125.96052229999988,125.97502619999976,125.97502619999976,126.61036839999996,b,1.0,0.6274352000000363,,126.61116779999976,126.62532749999993,127.61114449999968,127.62595089999968,,,,,,,,,,,,,,,,,,,sub-020,1,stroop_test,60.0718218702735,
,,,,8.0,8.0,0.0,,,,,blau,yellow,g,0.0,g,1.0,0.6618708999999399,,,,,,,,,,,,,,0.0,8.0,8.0,7.0,,,,,127.62595089999968,,,,,,,,,,,,,,,,,127.61171280000008,128.40973669999994,129.21038039999985,129.1950340999997,,,,,,,,,,,,,,,,129.20059700000002,129.21038039999985,129.21038039999985,129.87993819999974,g,1.0,0.6618708999999399,,129.88098760000003,129.89404699999977,130.87945519999994,130.89474900000005,,,,,,,,,,,,,,,,,,,sub-020,1,stroop_test,60.0718218702735,
,,,,9.0,9.0,0.0,,,,,rot,red,r,1.0,r,1.0,0.6222109000000273,,,,,,,,,,,,,,0.0,9.0,9.0,1.0,,,,,130.89474900000005,,,,,,,,,,,,,,,,,130.87992859999986,131.69532639999989,132.50040839999974,132.4805978999998,,,,,,,,,,,,,,,,132.48755690000007,132.50040839999974,132.50040839999974,133.1322765,r,1.0,0.6222109000000273,,133.13311669999985,133.14641059999985,134.13188769999988,134.14712149999968,,,,,,,,,,,,,,,,,,,sub-020,1,stroop_test,60.0718218702735,
,,,,10.0,10.0,0.0,,,,,blau,blue,b,1.0,b,1.0,0.974015799999961,,,,,,,,,,,,,,0.0,10.0,10.0,5.0,,,,,134.14712149999968,,,,,,,,,,,,,,,,,134.13240640000004,134.94800099999975,135.748329,135.73269889999983,,,,,,,,,,,,,,,,135.73855839999987,135.748329,135.748329,136.73455079999985,b,1.0,0.974015799999961,,136.73546929999975,136.7488475,137.73427089999996,137.7496056,,,,,,,,,,,,,,,,,,,sub-020,1,stroop_test,60.0718218702735,
,,,,11.0,11.0,0.0,,,,,rot,red,r,1.0,r,1.0,1.008664299999964,,,,,,,,,,,,,,0.0,11.0,11.0,0.0,,,,,137.7496056,,,,,,,,,,,,,,,,,137.73488980000002,137.83283869999968,138.63343559999976,138.61863589999984,,,,,,,,,,,,,,,,138.62474380000003,138.63343559999976,138.63343559999976,139.65795489999982,r,1.0,1.008664299999964,,139.65899170000012,139.66769599999998,140.65310689999978,140.66839299999992,,,,,,,,,,,,,,,,,,,sub-020,1,stroop_test,60.0718218702735,
,,,,12.0,0.0,1.0,,,,,blau,blue,b,1.0,b,1.0,0.9029906999999184,,,,,,,,,,,,,,1.0,0.0,12.0,6.0,,,,,140.66839299999992,,,,,,,,,,,,,,,,,140.6537115000001,141.46873689999984,142.2696109999997,142.25405779999983,,,,,,,,,,,,,,,,142.25971469999968,142.2696109999997,142.2696109999997,143.1890954999999,b,1.0,0.9029906999999184,,143.1898358999997,143.2035839,144.18860360000008,144.2040248999997,,,,,,,,,,,,,,,,,,,sub-020,1,stroop_test,60.0718218702735,
,,,,13.0,1.0,1.0,,,,,gelb,red,r,0.0,r,1.0,0.9343611000003876,,,,,,,,,,,,,,1.0,1.0,13.0,8.0,,,,,144.2040248999997,,,,,,,,,,,,,,,,,144.18918230000008,144.5547203000001,145.35764410000002,145.33963790000007,,,,,,,,,,,,,,,,145.34643890000007,145.35764410000002,145.35764410000002,146.30735430000004,r,1.0,0.9343611000003876,,146.30841779999992,146.32207280000011,147.30766360000007,147.32297729999982,,,,,,,,,,,,,,,,,,,sub-020,1,stroop_test,60.0718218702735,
,,,,14.0,2.0,1.0,,,,,blau,yellow,g,0.0,g,1.0,1.068601099999796,,,,,,,,,,,,,,1.0,2.0,14.0,7.0,,,,,147.32297729999982,,,,,,,,,,,,,,,,,147.30822850000004,147.67298419999997,148.47379180000007,148.45880140000008,,,,,,,,,,,,,,,,148.4651312000001,148.47379180000007,148.47379180000007,149.54460319999998,g,1.0,1.068601099999796,,149.54561049999984,149.55778779999991,150.5435705,150.55824699999994,,,,,,,,,,,,,,,,,,,sub-020,1,stroop_test,60.0718218702735,
,,,,15.0,3.0,1.0,,,,,blau,blue,b,1.0,b,1.0,1.1238475000000108,,,,,,,,,,,,,,1.0,3.0,15.0,5.0,,,,,150.55824699999994,,,,,,,,,,,,,,,,,150.5446283000001,150.65838779999967,151.45899169999984,151.44383359999983,,,,,,,,,,,,,,,,151.44464870000002,151.45899169999984,151.45899169999984,152.59578229999988,b,1.0,1.1238475000000108,,152.59695489999967,152.60980659999996,153.59576909999987,153.61063479999984,,,,,,,,,,,,,,,,,,,sub-020,1,stroop_test,60.0718218702735,
,,,,16.0,4.0,1.0,,,,,blau,red,r,0.0,r,1.0,0.8409898999998404,,,,,,,,,,,,,,1.0,4.0,16.0,4.0,,,,,153.61063479999984,,,,,,,,,,,,,,,,,153.5963929999998,153.96081370000002,154.7613769999998,154.74599390000003,,,,,,,,,,,,,,,,154.74722169999995,154.7613769999998,154.7613769999998,155.61617769999975,r,1.0,0.8409898999998404,,155.61699099999987,155.62889369999994,156.61389869999994,156.62937199999988,,,,,,,,,,,,,,,,,,,sub-020,1,stroop_test,60.0718218702735,
,,,,17.0,5.0,1.0,,,,,gelb,yellow,g,1.0,g,1.0,0.7671849999996994,,,,,,,,,,,,,,1.0,5.0,17.0,11.0,,,,,156.62937199999988,,,,,,,,,,,,,,,,,156.6144617,157.42975119999983,158.23518409999997,158.21510630000012,,,,,,,,,,,,,,,,158.22273210000003,158.23518409999997,158.23518409999997,159.01653699999997,g,1.0,0.7671849999996994,,159.01732309999989,159.03121190000002,160.0165336,160.0318913000001,,,,,,,,,,,,,,,,,,,sub-020,1,stroop_test,60.0718218702735,
,,,,18.0,6.0,1.0,,,,,gelb,blue,b,0.0,b,1.0,0.91631069999994,,,,,,,,,,,,,,1.0,6.0,18.0,9.0,,,,,160.0318913000001,,,,,,,,,,,,,,,,,160.01708929999995,161.2158086999998,162.0164205000001,162.00115819999974,,,,,,,,,,,,,,,,162.00201419999985,162.0164205000001,162.0164205000001,162.93599189999986,b,1.0,0.91631069999994,,162.93667779999987,162.9503998999999,163.93586019999975,163.95113749999973,,,,,,,,,,,,,,,,,,,sub-020,1,stroop_test,60.0718218702735,
,,,,19.0,7.0,1.0,,,,,gelb,yellow,g,1.0,g,1.0,0.6802002999997967,,,,,,,,,,,,,,1.0,7.0,19.0,10.0,,,,,163.95113749999973,,,,,,,,,,,,,,,,,163.9364688999999,164.3011492999999,165.10215130000006,165.08665489999976,,,,,,,,,,,,,,,,165.08734939999977,165.10215130000006,165.10215130000006,165.78779129999975,g,1.0,0.6802002999997967,,165.78872490000003,165.80250320000005,166.78743170000007,166.8029978999998,,,,,,,,,,,,,,,,,,,sub-020,1,stroop_test,60.0718218702735,
,,,,20.0,8.0,1.0,,,,,rot,red,r,1.0,r,1.0,0.6852428000001964,,,,,,,,,,,,,,1.0,8.0,20.0,1.0,,,,,166.8029978999998,,,,,,,,,,,,,,,,,166.78799489999983,167.9870679999999,168.7875197999997,168.7723086000001,,,,,,,,,,,,,,,,168.77902240000003,168.7875197999997,168.7875197999997,169.4909462999999,r,1.0,0.6852428000001964,,169.49179289999984,169.50538509999978,170.4905587999997,170.50548769999978,,,,,,,,,,,,,,,,,,,sub-020,1,stroop_test,60.0718218702735,
,,,,21.0,9.0,1.0,,,,,rot,blue,b,0.0,b,1.0,1.0453821000000971,,,,,,,,,,,,,,1.0,9.0,21.0,2.0,,,,,170.50548769999978,,,,,,,,,,,,,,,,,170.49104050000005,171.70646399999987,172.50701019999997,172.49197980000008,,,,,,,,,,,,,,,,172.4927690999998,172.50701019999997,172.50701019999997,173.5600575999997,b,1.0,1.0453821000000971,,173.56094989999974,173.57463710000002,174.5601753999999,174.5753080999998,,,,,,,,,,,,,,,,,,,sub-020,1,stroop_test,60.0718218702735,
,,,,22.0,10.0,1.0,,,,,rot,yellow,g,0.0,g,1.0,1.0925348000000668,,,,,,,,,,,,,,1.0,10.0,22.0,3.0,,,,,174.5753080999998,,,,,,,,,,,,,,,,,174.5607541999998,175.7592808999998,176.5597585999999,176.54433990000007,,,,,,,,,,,,,,,,176.54521459999978,176.5597585999999,176.5597585999999,177.6641995,g,1.0,1.0925348000000668,,177.6651713000001,177.67756579999968,178.66250420000006,178.67837389999977,,,,,,,,,,,,,,,,,,,sub-020,1,stroop_test,60.0718218702735,
,,,,23.0,11.0,1.0,,,,,rot,red,r,1.0,r,1.0,0.9939782999999808,,,,,,,,,,,,,,1.0,11.0,23.0,0.0,,,,,178.67837389999977,,,,,,,,,,,,,,,,,178.6630372999998,179.4786168999999,180.2789385000001,180.26350109999976,,,,,,,,,,,,,,,,180.2647029,180.2789385000001,180.2789385000001,181.28199159999983,r,1.0,0.9939782999999808,,181.2828217000001,181.2966422999998,182.28204449999976,182.29714259999992,,,,,,,,,,,,,,,,,,,sub-020,1,stroop_test,60.0718218702735,
,,,,,,,,,,,,,,,,,,,,,,,,,,,,,,,,,,,,,,,,,,,,,,,,,,,,,,,,,,,,,,,,,,,,,,,,,,,,,,,,,,,,,,,182.28231629999985,182.29714259999992,182.29714259999992,194.75875869999985,space,12.456219299999702,,,,,,,,,,,,,sub-020,1,stroop_test,60.0718218702735,
,,,,0.0,0.0,0.0,,,,,,,,,,,,,rot,yellow,g,0.0,g,1.0,1.2990099999997256,,,,,,,,,,0.0,0.0,0.0,3.0,194.7898737999999,,,,,,,,,,,,,,,,,194.7840959,195.5730106000001,196.37338139999972,196.35824090000008,,,,,,,,,,,,,,,,,,,,,,,,,,,,,,,,,,,196.36500549999985,196.37338139999972,196.37338139999972,197.67625529999987,g,1.0,1.2990099999997256,,,,,sub-020,1,stroop_test,60.0718218702735,
,,,,1.0,1.0,0.0,,,,,,,,,,,,,gelb,yellow,g,1.0,g,1.0,0.8276365000001533,,,,,,,,,,0.0,1.0,1.0,11.0,197.69099989999995,,,,,,,,,,,,,,,,,197.67663820000007,197.7911018,198.5955971999997,198.57647129999987,,,,,,,,,,,,,,,,,,,,,,,,,,,,,,,,,,,198.58546449999997,198.5955971999997,198.5955971999997,199.4280149000001,g,1.0,0.8276365000001533,,,,,sub-020,1,stroop_test,60.0718218702735,
,,,,2.0,2.0,0.0,,,,,,,,,,,,,blau,blue,b,1.0,b,1.0,0.5993318999999246,,,,,,,,,,0.0,2.0,2.0,5.0,199.4423228999999,,,,,,,,,,,,,,,,,199.4287002000001,199.5422582000001,200.34322299999985,200.3278255,,,,,,,,,,,,,,,,,,,,,,,,,,,,,,,,,,,200.3335382,200.34322299999985,200.34322299999985,200.9463222999998,b,1.0,0.5993318999999246,,,,,sub-020,1,stroop_test,60.0718218702735,
,,,,3.0,3.0,0.0,,,,,,,,,,,,,gelb,red,r,0.0,r,1.0,0.6768339000000196,,,,,,,,,,0.0,3.0,3.0,8.0,200.96016800000007,,,,,,,,,,,,,,,,,200.9469239,201.31043229999975,202.11583699999983,202.0959087000001,,,,,,,,,,,,,,,,,,,,,,,,,,,,,,,,,,,202.10262379999995,202.11583699999983,202.11583699999983,202.7974836999997,r,1.0,0.6768339000000196,,,,,sub-020,1,stroop_test,60.0718218702735,
,,,,4.0,4.0,0.0,,,,,,,,,,,,,rot,red,r,1.0,r,1.0,0.7346768999996129,,,,,,,,,,0.0,4.0,4.0,1.0,202.81159979999984,,,,,,,,,,,,,,,,,202.79829560000007,203.61187549999977,204.4179955999998,204.39711039999972,,,,,,,,,,,,,,,,,,,,,,,,,,,,,,,,,,,204.4043183999997,204.4179955999998,204.4179955999998,205.16511170000007,r,1.0,0.7346768999996129,,,,,sub-020,1,stroop_test,60.0718218702735,
,,,,5.0,5.0,0.0,,,,,,,,,,,,,blau,red,r,0.0,r,1.0,1.1293219999997746,,,,,,,,,,0.0,5.0,5.0,4.0,205.17977960000007,,,,,,,,,,,,,,,,,205.16575319999995,205.9801035999999,206.78329889999983,206.7655764000001,,,,,,,,,,,,,,,,,,,,,,,,,,,,,,,,,,,206.77115409999988,206.78329889999983,206.78329889999983,207.9176459,r,1.0,1.1293219999997746,,,,,sub-020,1,stroop_test,60.0718218702735,
,,,,6.0,6.0,0.0,,,,,,,,,,,,,blau,yellow,g,0.0,g,1.0,0.8311267999997654,,,,,,,,,,0.0,6.0,6.0,7.0,207.93143389999975,,,,,,,,,,,,,,,,,207.91824129999983,208.03167519999988,208.8321455,208.8170544999998,,,,,,,,,,,,,,,,,,,,,,,,,,,,,,,,,,,208.8179283999998,208.8321455,208.8321455,209.66891880000003,g,1.0,0.8311267999997654,,,,,sub-020,1,stroop_test,60.0718218702735,
,,,,7.0,7.0,0.0,,,,,,,,,,,,,gelb,blue,b,0.0,b,1.0,1.2487301000001023,,,,,,,,,,0.0,7.0,7.0,9.0,209.68283119999975,,,,,,,,,,,,,,,,,209.66947679999976,210.8834002999997,211.6842045999997,211.66913759999989,,,,,,,,,,,,,,,,,,,,,,,,,,,,,,,,,,,211.67587049999972,211.6842045999997,211.6842045999997,212.93726639999977,b,1.0,1.2487301000001023,,,,,sub-020,1,stroop_test,60.0718218702735,
,,,,8.0,8.0,0.0,,,,,,,,,,,,,blau,blue,b,1.0,b,1.0,0.7703125000002728,,,,,,,,,,0.0,8.0,8.0,6.0,212.9517188,,,,,,,,,,,,,,,,,212.9379275000001,214.15274659999977,214.95288459999983,214.93794919999985,,,,,,,,,,,,,,,,,,,,,,,,,,,,,,,,,,,214.9437769000001,214.95288459999983,214.95288459999983,215.73912059999972,b,1.0,0.7703125000002728,,,,,sub-020,1,stroop_test,60.0718218702735,
,,,,9.0,9.0,0.0,,,,,,,,,,,,,gelb,yellow,g,1.0,g,1.0,0.7997310999999172,,,,,,,,,,0.0,9.0,9.0,10.0,215.75354100000004,,,,,,,,,,,,,,,,,215.7397265999998,215.85382750000008,216.65449959999975,216.63904559999992,,,,,,,,,,,,,,,,,,,,,,,,,,,,,,,,,,,216.64552999999975,216.65449959999975,216.65449959999975,217.4573777999999,g,1.0,0.7997310999999172,,,,,sub-020,1,stroop_test,60.0718218702735,
,,,,10.0,10.0,0.0,,,,,,,,,,,,,rot,red,r,1.0,r,1.0,0.5898976999997103,,,,,,,,,,0.0,10.0,10.0,0.0,217.47153949999984,,,,,,,,,,,,,,,,,217.45809659999983,218.2719965000001,219.07353740000008,219.0576057999997,,,,,,,,,,,,,,,,,,,,,,,,,,,,,,,,,,,219.0649158000001,219.07353740000008,219.07353740000008,219.6752941,r,1.0,0.5898976999997103,,,,,sub-020,1,stroop_test,60.0718218702735,
,,,,11.0,11.0,0.0,,,,,,,,,,,,,rot,blue,b,0.0,b,1.0,0.8220565999999963,,,,,,,,,,0.0,11.0,11.0,2.0,219.68965759999992,,,,,,,,,,,,,,,,,219.67593499999973,220.49062159999997,221.2909089,221.27546600000005,,,,,,,,,,,,,,,,,,,,,,,,,,,,,,,,,,,221.2762622,221.2909089,221.2909089,222.12689509999973,b,1.0,0.8220565999999963,,,,,sub-020,1,stroop_test,60.0718218702735,
,,,,12.0,0.0,1.0,,,,,,,,,,,,,rot,red,r,1.0,r,1.0,0.9018682000000808,,,,,,,,,,1.0,0.0,12.0,1.0,222.1414992,,,,,,,,,,,,,,,,,222.12748509999983,222.49160200000009,223.29233309999967,223.27738959999988,,,,,,,,,,,,,,,,,,,,,,,,,,,,,,,,,,,223.2785899999999,223.29233309999967,223.29233309999967,224.2110644999998,r,1.0,0.9018682000000808,,,,,sub-020,1,stroop_test,60.0718218702735,
,,,,13.0,1.0,1.0,,,,,,,,,,,,,blau,red,r,0.0,r,1.0,1.1923965999999382,,,,,,,,,,1.0,1.0,13.0,4.0,224.2275295999998,,,,,,,,,,,,,,,,,224.21147299999984,225.4103265999997,226.2108809000001,226.19563149999976,,,,,,,,,,,,,,,,,,,,,,,,,,,,,,,,,,,226.20136090000003,226.2108809000001,226.2108809000001,227.4139325000001,r,1.0,1.1923965999999382,,,,,sub-020,1,stroop_test,60.0718218702735,
,,,,14.0,2.0,1.0,,,,,,,,,,,,,gelb,yellow,g,1.0,g,1.0,0.7628962999997384,,,,,,,,,,1.0,2.0,14.0,11.0,227.42830989999996,,,,,,,,,,,,,,,,,227.4144815,228.62992399999985,229.4301261999999,229.41498049999973,,,,,,,,,,,,,,,,,,,,,,,,,,,,,,,,,,,229.4216538999999,229.4301261999999,229.4301261999999,230.19941960000008,g,1.0,0.7628962999997384,,,,,sub-020,1,stroop_test,60.0718218702735,
,,,,15.0,3.0,1.0,,,,,,,,,,,,,gelb,yellow,g,1.0,g,1.0,0.7679321000000527,,,,,,,,,,1.0,3.0,15.0,10.0,230.2139016000001,,,,,,,,,,,,,,,,,230.20005219999985,231.41467719999991,232.21493539999983,232.19980369999985,,,,,,,,,,,,,,,,,,,,,,,,,,,,,,,,,,,232.20090320000008,232.21493539999983,232.21493539999983,232.9853162999998,g,1.0,0.7679321000000527,,,,,sub-020,1,stroop_test,60.0718218702735,
,,,,16.0,4.0,1.0,,,,,,,,,,,,,rot,blue,b,0.0,b,1.0,0.9027393999999732,,,,,,,,,,1.0,4.0,16.0,2.0,232.9987990999998,,,,,,,,,,,,,,,,,232.9872476999999,233.34923320000007,234.1498352999997,234.1345007,,,,,,,,,,,,,,,,,,,,,,,,,,,,,,,,,,,234.1408833999999,234.1498352999997,234.1498352999997,235.06940799999984,b,1.0,0.9027393999999732,,,,,sub-020,1,stroop_test,60.0718218702735,
,,,,17.0,5.0,1.0,,,,,,,,,,,,,gelb,blue,b,0.0,b,1.0,1.067131100000097,,,,,,,,,,1.0,5.0,17.0,9.0,235.0837919999999,,,,,,,,,,,,,,,,,235.07000609999977,235.43412020000005,236.2361697000001,236.2192313999999,,,,,,,,,,,,,,,,,,,,,,,,,,,,,,,,,,,236.2279921999998,236.2361697000001,236.2361697000001,237.32056209999973,b,1.0,1.067131100000097,,,,,sub-020,1,stroop_test,60.0718218702735,
,,,,18.0,6.0,1.0,,,,,,,,,,,,,blau,blue,b,1.0,b,1.0,0.7150883999997859,,,,,,,,,,1.0,6.0,18.0,6.0,237.33512759999985,,,,,,,,,,,,,,,,,237.3211470000001,238.13590160000007,238.93789179999976,238.92495439999996,,,,,,,,,,,,,,,,,,,,,,,,,,,,,,,,,,,238.9302763000001,238.93789179999976,238.93789179999976,239.65640219999975,b,1.0,0.7150883999997859,,,,,sub-020,1,stroop_test,60.0718218702735,
,,,,19.0,7.0,1.0,,,,,,,,,,,,,rot,red,r,1.0,r,1.0,0.6882251000001816,,,,,,,,,,1.0,7.0,19.0,0.0,239.67013069999985,,,,,,,,,,,,,,,,,239.65732769999977,240.4708504,241.2745500000001,241.2559080000001,,,,,,,,,,,,,,,,,,,,,,,,,,,,,,,,,,,241.26481430000013,241.2745500000001,241.2745500000001,241.97459189999967,r,1.0,0.6882251000001816,,,,,sub-020,1,stroop_test,60.0718218702735,
,,,,20.0,8.0,1.0,,,,,,,,,,,,,rot,yellow,g,0.0,g,1.0,1.0027000999998563,,,,,,,,,,1.0,8.0,20.0,3.0,241.9884959000001,,,,,,,,,,,,,,,,,241.97565209999996,242.78928640000004,243.58995860000005,243.57453399999983,,,,,,,,,,,,,,,,,,,,,,,,,,,,,,,,,,,243.5752733999998,243.58995860000005,243.58995860000005,244.60963450000008,g,1.0,1.0027000999998563,,,,,sub-020,1,stroop_test,60.0718218702735,
,,,,21.0,9.0,1.0,,,,,,,,,,,,,blau,blue,b,1.0,b,1.0,1.1193367999999282,,,,,,,,,,1.0,9.0,21.0,5.0,244.6239726999997,,,,,,,,,,,,,,,,,244.6102968,244.97391549999972,245.77437549999968,245.75925479999975,,,,,,,,,,,,,,,,,,,,,,,,,,,,,,,,,,,245.76498059999997,245.77437549999968,245.77437549999968,246.91080250000005,b,1.0,1.1193367999999282,,,,,sub-020,1,stroop_test,60.0718218702735,
,,,,22.0,10.0,1.0,,,,,,,,,,,,,gelb,red,r,0.0,r,1.0,0.8868074000001798,,,,,,,,,,1.0,10.0,22.0,8.0,246.92546719999973,,,,,,,,,,,,,,,,,246.91163099999997,247.0257343999997,247.8266325,247.81065820000003,,,,,,,,,,,,,,,,,,,,,,,,,,,,,,,,,,,247.81761629999983,247.8266325,247.8266325,248.7287222,r,1.0,0.8868074000001798,,,,,sub-020,1,stroop_test,60.0718218702735,
,,,,23.0,11.0,1.0,,,,,,,,,,,,,blau,yellow,g,0.0,g,1.0,0.9596667000000708,,,,,,,,,,1.0,11.0,23.0,7.0,248.7430108999997,,,,,,,,,,,,,,,,,248.72930189999988,249.0934532000001,249.89389429999983,249.87880909999967,,,,,,,,,,,,,,,,,,,,,,,,,,,,,,,,,,,249.88564289999977,249.89389429999983,249.89389429999983,250.8638275999997,g,1.0,0.9596667000000708,,,,,sub-020,1,stroop_test,60.0718218702735,
,,,,24.0,0.0,2.0,,,,,,,,,,,,,rot,blue,b,0.0,b,1.0,0.7639782999999625,,,,,,,,,,2.0,0.0,24.0,2.0,250.87790039999985,,,,,,,,,,,,,,,,,250.86447580000004,251.67893529999992,252.4790958999997,252.46400559999984,,,,,,,,,,,,,,,,,,,,,,,,,,,,,,,,,,,252.46986509999988,252.4790958999997,252.4790958999997,253.2491381,b,1.0,0.7639782999999625,,,,,sub-020,1,stroop_test,60.0718218702735,
,,,,25.0,1.0,2.0,,,,,,,,,,,,,gelb,blue,b,0.0,b,1.0,1.035712599999897,,,,,,,,,,2.0,1.0,25.0,9.0,253.2629324999998,,,,,,,,,,,,,,,,,253.2497506,254.4639856999997,255.2670525999997,255.24961559999971,,,,,,,,,,,,,,,,,,,,,,,,,,,,,,,,,,,255.2578131,255.2670525999997,255.2670525999997,256.31611040000007,b,1.0,1.035712599999897,,,,,sub-020,1,stroop_test,60.0718218702735,
,,,,26.0,2.0,2.0,,,,,,,,,,,,,gelb,yellow,g,1.0,g,1.0,0.937755400000242,,,,,,,,,,2.0,2.0,26.0,11.0,256.332285,,,,,,,,,,,,,,,,,256.3164403999999,257.1157291999998,257.9161759999997,257.9008491999998,,,,,,,,,,,,,,,,,,,,,,,,,,,,,,,,,,,257.9017174999999,257.9161759999997,257.9161759999997,258.8693794999999,g,1.0,0.937755400000242,,,,,sub-020,1,stroop_test,60.0718218702735,
,,,,27.0,3.0,2.0,,,,,,,,,,,,,blau,blue,b,1.0,b,1.0,1.0291841000002933,,,,,,,,,,2.0,3.0,27.0,6.0,258.8838489999998,,,,,,,,,,,,,,,,,258.8699689,258.98371259999976,259.78421089999983,259.7688785999999,,,,,,,,,,,,,,,,,,,,,,,,,,,,,,,,,,,259.7745258,259.78421089999983,259.78421089999983,260.8208096999997,b,1.0,1.0291841000002933,,,,,sub-020,1,stroop_test,60.0718218702735,
,,,,28.0,4.0,2.0,,,,,,,,,,,,,rot,red,r,1.0,r,1.0,1.0274484000001394,,,,,,,,,,2.0,4.0,28.0,1.0,260.834789,,,,,,,,,,,,,,,,,260.8213888,260.9349391999999,261.7361799999999,261.7201958999999,,,,,,,,,,,,,,,,,,,,,,,,,,,,,,,,,,,261.7276460999997,261.7361799999999,261.7361799999999,262.7716697999999,r,1.0,1.0274484000001394,,,,,sub-020,1,stroop_test,60.0718218702735,
,,,,29.0,5.0,2.0,,,,,,,,,,,,,gelb,red,r,0.0,r,1.0,0.9955245999999534,,,,,,,,,,2.0,5.0,29.0,8.0,262.78614819999984,,,,,,,,,,,,,,,,,262.77227889999995,262.88647949999995,263.6885192999998,263.67165380000006,,,,,,,,,,,,,,,,,,,,,,,,,,,,,,,,,,,263.6788416999998,263.6885192999998,263.6885192999998,264.69093040000007,r,1.0,0.9955245999999534,,,,,sub-020,1,stroop_test,60.0718218702735,
,,,,30.0,6.0,2.0,,,,,,,,,,,,,blau,yellow,g,0.0,g,1.0,1.0287434000001667,,,,,,,,,,2.0,6.0,30.0,7.0,264.70431759999974,,,,,,,,,,,,,,,,,264.6915396999998,264.80419559999973,265.6048751999997,265.5900200000001,,,,,,,,,,,,,,,,,,,,,,,,,,,,,,,,,,,265.59662249999974,265.6048751999997,265.6048751999997,266.64134160000003,g,1.0,1.0287434000001667,,,,,sub-020,1,stroop_test,60.0718218702735,
,,,,31.0,7.0,2.0,,,,,,,,,,,,,blau,red,r,0.0,r,1.0,0.7972561999999925,,,,,,,,,,2.0,7.0,31.0,4.0,266.65571580000005,,,,,,,,,,,,,,,,,266.6420279999997,267.00612550000005,267.8063508,267.7913233999998,,,,,,,,,,,,,,,,,,,,,,,,,,,,,,,,,,,267.79204649999974,267.8063508,267.8063508,268.60952210000005,r,1.0,0.7972561999999925,,,,,sub-020,1,stroop_test,60.0718218702735,
,,,,32.0,8.0,2.0,,,,,,,,,,,,,rot,red,r,1.0,r,1.0,0.6669415999999728,,,,,,,,,,2.0,8.0,32.0,0.0,268.6235041,,,,,,,,,,,,,,,,,268.6100945999997,269.4242239,270.2251372999999,270.2097261999997,,,,,,,,,,,,,,,,,,,,,,,,,,,,,,,,,,,270.21650120000004,270.2251372999999,270.2251372999999,270.8955492,r,1.0,0.6669415999999728,,,,,sub-020,1,stroop_test,60.0718218702735,
,,,,33.0,9.0,2.0,,,,,,,,,,,,,blau,blue,b,1.0,b,1.0,0.7034046999997372,,,,,,,,,,2.0,9.0,33.0,5.0,270.9087543999999,,,,,,,,,,,,,,,,,270.8962263999997,271.25866499999984,272.06064689999994,272.04449399999976,,,,,,,,,,,,,,,,,,,,,,,,,,,,,,,,,,,272.04767379999976,272.06064689999994,272.06064689999994,272.7797121999997,b,1.0,0.7034046999997372,,,,,sub-020,1,stroop_test,60.0718218702735,
,,,,34.0,10.0,2.0,,,,,,,,,,,,,gelb,yellow,g,1.0,g,1.0,0.8691252999997232,,,,,,,,,,2.0,10.0,34.0,10.0,272.7937207,,,,,,,,,,,,,,,,,272.7800557999999,272.8930430999999,273.6939168999997,273.67921879999994,,,,,,,,,,,,,,,,,,,,,,,,,,,,,,,,,,,273.68422199999986,273.6939168999997,273.6939168999997,274.5797195,g,1.0,0.8691252999997232,,,,,sub-020,1,stroop_test,60.0718218702735,
,,,,35.0,11.0,2.0,,,,,,,,,,,,,rot,yellow,g,0.0,g,1.0,1.0150168000000122,,,,,,,,,,2.0,11.0,35.0,3.0,274.59442409999974,,,,,,,,,,,,,,,,,274.580328,275.3949207999999,276.1973558,276.1802634999999,,,,,,,,,,,,,,,,,,,,,,,,,,,,,,,,,,,276.1876146,276.1973558,276.1973558,277.2153797000001,g,1.0,1.0150168000000122,,,,,sub-020,1,stroop_test,60.0718218702735,
,,,,36.0,0.0,3.0,,,,,,,,,,,,,rot,red,r,1.0,r,1.0,1.0629550000003292,,,,,,,,,,3.0,0.0,36.0,0.0,277.22951539999985,,,,,,,,,,,,,,,,,277.2160137999999,277.5798540999999,278.3807766,278.3654658999999,,,,,,,,,,,,,,,,,,,,,,,,,,,,,,,,,,,278.3664574999998,278.3807766,278.3807766,279.4503344999998,r,1.0,1.0629550000003292,,,,,sub-020,1,stroop_test,60.0718218702735,
,,,,37.0,1.0,3.0,,,,,,,,,,,,,blau,yellow,g,0.0,g,1.0,0.9482938000001012,,,,,,,,,,3.0,1.0,37.0,7.0,279.46452199999976,,,,,,,,,,,,,,,,,279.4510508999997,279.8148584999999,280.61516299999994,280.6000866999998,,,,,,,,,,,,,,,,,,,,,,,,,,,,,,,,,,,280.60635909999974,280.61516299999994,280.61516299999994,281.5683574,g,1.0,0.9482938000001012,,,,,sub-020,1,stroop_test,60.0718218702735,
,,,,38.0,2.0,3.0,,,,,,,,,,,,,rot,blue,b,0.0,b,1.0,0.8989947999998549,,,,,,,,,,3.0,2.0,38.0,2.0,281.58256649999976,,,,,,,,,,,,,,,,,281.5692773999999,282.7835498999998,283.5839708999997,283.56862980000005,,,,,,,,,,,,,,,,,,,,,,,,,,,,,,,,,,,283.5748865999999,283.5839708999997,283.5839708999997,284.4870611000001,b,1.0,0.8989947999998549,,,,,sub-020,1,stroop_test,60.0718218702735,
,,,,39.0,3.0,3.0,,,,,,,,,,,,,rot,red,r,1.0,r,1.0,1.0495719999998985,,,,,,,,,,3.0,3.0,39.0,1.0,284.5011725999998,,,,,,,,,,,,,,,,,284.4877544000001,285.30218990000003,286.1025687000001,286.0874153,,,,,,,,,,,,,,,,,,,,,,,,,,,,,,,,,,,286.0882905999997,286.1025687000001,286.1025687000001,287.15535980000004,r,1.0,1.0495719999998985,,,,,sub-020,1,stroop_test,60.0718218702735,
,,,,40.0,4.0,3.0,,,,,,,,,,,,,blau,red,r,0.0,r,1.0,1.0128697000000102,,,,,,,,,,3.0,4.0,40.0,4.0,287.1699730999999,,,,,,,,,,,,,,,,,287.15597679999973,287.9702529000001,288.7708097999998,288.75561100000004,,,,,,,,,,,,,,,,,,,,,,,,,,,,,,,,,,,288.7608795000001,288.7708097999998,288.7708097999998,289.7911789,r,1.0,1.0128697000000102,,,,,sub-020,1,stroop_test,60.0718218702735,
,,,,41.0,5.0,3.0,,,,,,,,,,,,,gelb,red,r,0.0,r,1.0,0.8569428000000698,,,,,,,,,,3.0,5.0,41.0,8.0,289.80488130000003,,,,,,,,,,,,,,,,,289.7917914,291.0059600999998,291.8063581000001,291.79194689999986,,,,,,,,,,,,,,,,,,,,,,,,,,,,,,,,,,,291.7985847,291.8063581000001,291.8063581000001,292.67522689999987,r,1.0,0.8569428000000698,,,,,sub-020,1,stroop_test,60.0718218702735,
,,,,42.0,6.0,3.0,,,,,,,,,,,,,gelb,blue,b,0.0,b,1.0,0.9571939000002204,,,,,,,,,,3.0,6.0,42.0,9.0,292.6904034999998,,,,,,,,,,,,,,,,,292.67563530000007,293.8745172999997,294.67512209999995,294.6598423999999,,,,,,,,,,,,,,,,,,,,,,,,,,,,,,,,,,,294.6606376,294.67512209999995,294.67512209999995,295.6447718999998,b,1.0,0.9571939000002204,,,,,sub-020,1,stroop_test,60.0718218702735,
,,,,43.0,7.0,3.0,,,,,,,,,,,,,gelb,yellow,g,1.0,g,1.0,0.8038738000000194,,,,,,,,,,3.0,7.0,43.0,11.0,295.65917549999995,,,,,,,,,,,,,,,,,295.6453612999999,296.4596456999998,297.26029849999986,297.24479999999994,,,,,,,,,,,,,,,,,,,,,,,,,,,,,,,,,,,297.2455824999997,297.26029849999986,297.26029849999986,298.0798027999999,g,1.0,0.8038738000000194,,,,,sub-020,1,stroop_test,60.0718218702735,
,,,,44.0,8.0,3.0,,,,,,,,,,,,,blau,blue,b,1.0,b,1.0,1.8376266999998732,,,,,,,,,,3.0,8.0,44.0,6.0,298.0941518999998,,,,,,,,,,,,,,,,,298.0804258999997,298.89475219999986,299.69491789999984,299.68024990000004,,,,,,,,,,,,,,,,,,,,,,,,,,,,,,,,,,,299.6860904,299.69491789999984,299.69491789999984,301.5489398999998,b,1.0,1.8376266999998732,,,,,sub-020,1,stroop_test,60.0718218702735,
,,,,45.0,9.0,3.0,,,,,,,,,,,,,rot,yellow,g,0.0,g,1.0,0.90625319999981,,,,,,,,,,3.0,9.0,45.0,3.0,301.5634301,,,,,,,,,,,,,,,,,301.54972640000005,302.76368749999983,303.5658946999997,303.5492973999999,,,,,,,,,,,,,,,,,,,,,,,,,,,,,,,,,,,303.5569937,303.5658946999997,303.5658946999997,304.48485089999986,g,1.0,0.90625319999981,,,,,sub-020,1,stroop_test,60.0718218702735,
,,,,46.0,10.0,3.0,,,,,,,,,,,,,gelb,yellow,g,1.0,g,1.0,0.7126549999998133,,,,,,,,,,3.0,10.0,46.0,10.0,304.4986807999999,,,,,,,,,,,,,,,,,304.4856199000001,304.5985370999997,305.4002132999999,305.38375769999993,,,,,,,,,,,,,,,,,,,,,,,,,,,,,,,,,,,305.3921289,305.4002132999999,305.4002132999999,306.11958129999994,g,1.0,0.7126549999998133,,,,,sub-020,1,stroop_test,60.0718218702735,
,,,,47.0,11.0,3.0,,,,,,,,,,,,,blau,blue,b,1.0,b,1.0,0.8885160000004362,,,,,,,,,,3.0,11.0,47.0,5.0,306.1331328000001,,,,,,,,,,,,,,,,,306.1202395999999,306.2331392000001,307.03381949999994,307.0183041,,,,,,,,,,,,,,,,,,,,,,,,,,,,,,,,,,,307.02404769999976,307.03381949999994,307.03381949999994,307.9369025000001,b,1.0,0.8885160000004362,,,,,sub-020,1,stroop_test,60.0718218702735,
,,,,48.0,0.0,4.0,,,,,,,,,,,,,gelb,yellow,g,1.0,g,1.0,0.8115732000001117,,,,,,,,,,4.0,0.0,48.0,10.0,307.9508071999999,,,,,,,,,,,,,,,,,307.9374835999997,308.05087430000003,308.8515560000001,308.8363099999997,,,,,,,,,,,,,,,,,,,,,,,,,,,,,,,,,,,308.8435006,308.8515560000001,308.8515560000001,309.6711252,g,1.0,0.8115732000001117,,,,,sub-020,1,stroop_test,60.0718218702735,
,,,,49.0,1.0,4.0,,,,,,,,,,,,,blau,red,r,0.0,r,1.0,0.8359399999999368,,,,,,,,,,4.0,1.0,49.0,4.0,309.6855367999997,,,,,,,,,,,,,,,,,309.67170399999986,310.4860466,311.28665249999995,311.2715155000001,,,,,,,,,,,,,,,,,,,,,,,,,,,,,,,,,,,311.2767490000001,311.28665249999995,311.28665249999995,312.1395265000001,r,1.0,0.8359399999999368,,,,,sub-020,1,stroop_test,60.0718218702735,
,,,,50.0,2.0,4.0,,,,,,,,,,,,,gelb,red,r,0.0,r,1.0,1.391298699999879,,,,,,,,,,4.0,2.0,50.0,8.0,312.1536880999997,,,,,,,,,,,,,,,,,312.1401350000001,312.5042516999997,313.3119432999997,313.2894806999998,,,,,,,,,,,,,,,,,,,,,,,,,,,,,,,,,,,313.2976112000001,313.3119432999997,313.3119432999997,314.7091219999997,r,1.0,1.391298699999879,,,,,sub-020,1,stroop_test,60.0718218702735,
,,,,51.0,3.0,4.0,,,,,,,,,,,,,blau,blue,b,1.0,b,1.0,0.6992666999999528,,,,,,,,,,4.0,3.0,51.0,5.0,314.7222128999997,,,,,,,,,,,,,,,,,314.7098299999998,315.0726448999999,315.8734436999998,315.8581276,,,,,,,,,,,,,,,,,,,,,,,,,,,,,,,,,,,315.86484470000005,315.8734436999998,315.8734436999998,316.5759782,b,1.0,0.6992666999999528,,,,,sub-020,1,stroop_test,60.0718218702735,
,,,,52.0,4.0,4.0,,,,,,,,,,,,,rot,yellow,g,0.0,g,1.0,0.9507181999997556,,,,,,,,,,4.0,4.0,52.0,3.0,316.59037069999977,,,,,,,,,,,,,,,,,316.57665670000006,317.7910834999998,318.5916032,318.5762910999997,,,,,,,,,,,,,,,,,,,,,,,,,,,,,,,,,,,318.5828839999999,318.5916032,318.5916032,319.5466096,g,1.0,0.9507181999997556,,,,,sub-020,1,stroop_test,60.0718218702735,
,,,,53.0,5.0,4.0,,,,,,,,,,,,,rot,blue,b,0.0,b,1.0,0.7615162000001874,,,,,,,,,,4.0,5.0,53.0,2.0,319.5590149999998,,,,,,,,,,,,,,,,,319.5472586000001,320.75992670000005,321.56145990000005,321.5457023999997,,,,,,,,,,,,,,,,,,,,,,,,,,,,,,,,,,,321.54652929999975,321.56145990000005,321.56145990000005,322.3303164999997,b,1.0,0.7615162000001874,,,,,sub-020,1,stroop_test,60.0718218702735,
,,,,54.0,6.0,4.0,,,,,,,,,,,,,blau,yellow,g,0.0,b,0.0,0.8868895000000521,,,,,,,,,,4.0,6.0,54.0,7.0,322.3441386999998,,,,,,,,,,,,,,,,,322.33088240000006,323.54493779999984,324.34592010000006,324.3312946000001,,,,,,,,,,,,,,,,,,,,,,,,,,,,,,,,,,,324.3368015000001,324.34592010000006,324.34592010000006,325.2485668999998,b,0.0,0.8868895000000521,,,,,sub-020,1,stroop_test,60.0718218702735,
,,,,55.0,7.0,4.0,,,,,,,,,,,,,gelb,blue,b,0.0,b,1.0,1.5762555999999677,,,,,,,,,,4.0,7.0,55.0,9.0,325.2628298,,,,,,,,,,,,,,,,,325.24914390000004,325.3629849999997,326.1667005999998,326.14841380000007,,,,,,,,,,,,,,,,,,,,,,,,,,,,,,,,,,,326.1558246999998,326.1667005999998,326.1667005999998,327.7511786,b,1.0,1.5762555999999677,,,,,sub-020,1,stroop_test,60.0718218702735,
,,,,56.0,8.0,4.0,,,,,,,,,,,,,blau,blue,b,1.0,b,1.0,0.7265965000001415,,,,,,,,,,4.0,8.0,56.0,6.0,327.7646682,,,,,,,,,,,,,,,,,327.75186859999985,328.96552299999985,329.7660130999998,329.75068569999985,,,,,,,,,,,,,,,,,,,,,,,,,,,,,,,,,,,329.7565725999998,329.7660130999998,329.7660130999998,330.5023815999998,b,1.0,0.7265965000001415,,,,,sub-020,1,stroop_test,60.0718218702735,
,,,,57.0,9.0,4.0,,,,,,,,,,,,,rot,red,r,1.0,r,1.0,0.8048404000001028,,,,,,,,,,4.0,9.0,57.0,0.0,330.5167022999999,,,,,,,,,,,,,,,,,330.50293650000003,331.7173316999997,332.5178516000001,332.5028204,,,,,,,,,,,,,,,,,,,,,,,,,,,,,,,,,,,332.5097602000001,332.5178516000001,332.5178516000001,333.3376043999997,r,1.0,0.8048404000001028,,,,,sub-020,1,stroop_test,60.0718218702735,
,,,,58.0,10.0,4.0,,,,,,,,,,,,,gelb,yellow,g,1.0,g,1.0,0.7376083000003746,,,,,,,,,,4.0,10.0,58.0,11.0,333.3519127,,,,,,,,,,,,,,,,,333.3381724000001,334.15254400000003,334.95535729999983,334.9376343999997,,,,,,,,,,,,,,,,,,,,,,,,,,,,,,,,,,,334.94505709999976,334.95535729999983,334.95535729999983,335.7060441999997,g,1.0,0.7376083000003746,,,,,sub-020,1,stroop_test,60.0718218702735,
,,,,59.0,11.0,4.0,,,,,,,,,,,,,rot,red,r,1.0,r,1.0,0.7191406000001734,,,,,,,,,,4.0,11.0,59.0,1.0,335.7204084,,,,,,,,,,,,,,,,,335.70668449999994,336.5209617999999,337.32321060000004,337.3060513999999,,,,,,,,,,,,,,,,,,,,,,,,,,,,,,,,,,,337.3123992999999,337.32321060000004,337.32321060000004,338.05739829999993,r,1.0,0.7191406000001734,,,,,sub-020,1,stroop_test,60.0718218702735,
,,,,60.0,0.0,5.0,,,,,,,,,,,,,blau,blue,b,1.0,b,1.0,0.738778800000091,,,,,,,,,,5.0,0.0,60.0,6.0,338.0718382,,,,,,,,,,,,,,,,,338.0580291000001,339.2729676999997,340.0737030999999,340.05803530000003,,,,,,,,,,,,,,,,,,,,,,,,,,,,,,,,,,,340.0639917999997,340.0737030999999,340.0737030999999,340.82859740000004,b,1.0,0.738778800000091,,,,,sub-020,1,stroop_test,60.0718218702735,
,,,,61.0,1.0,5.0,,,,,,,,,,,,,rot,red,r,1.0,r,1.0,0.6907446999998683,,,,,,,,,,5.0,1.0,61.0,0.0,340.84058559999994,,,,,,,,,,,,,,,,,340.82948799999986,341.64106919999995,342.4438267999999,342.42627189999985,,,,,,,,,,,,,,,,,,,,,,,,,,,,,,,,,,,342.43241850000004,342.4438267999999,342.4438267999999,343.14439,r,1.0,0.6907446999998683,,,,,sub-020,1,stroop_test,60.0718218702735,
,,,,62.0,2.0,5.0,,,,,,,,,,,,,blau,red,r,0.0,r,1.0,0.6625123000003441,,,,,,,,,,5.0,2.0,62.0,4.0,343.1587706,,,,,,,,,,,,,,,,,343.14498430000003,343.50900809999985,344.3101370999998,344.29427450000003,,,,,,,,,,,,,,,,,,,,,,,,,,,,,,,,,,,344.30031819999977,344.3101370999998,344.3101370999998,344.9789063999997,r,1.0,0.6625123000003441,,,,,sub-020,1,stroop_test,60.0718218702735,
,,,,63.0,3.0,5.0,,,,,,,,,,,,,rot,yellow,g,0.0,g,1.0,2.074704099999962,,,,,,,,,,5.0,3.0,63.0,3.0,344.99318360000007,,,,,,,,,,,,,,,,,344.9797441999999,346.1940042000001,346.99838249999993,346.9796496999997,,,,,,,,,,,,,,,,,,,,,,,,,,,,,,,,,,,346.9859306999997,346.99838249999993,346.99838249999993,349.08205899999984,g,1.0,2.074704099999962,,,,,sub-020,1,stroop_test,60.0718218702735,
,,,,64.0,4.0,5.0,,,,,,,,,,,,,gelb,red,r,0.0,r,1.0,1.086220499999854,,,,,,,,,,5.0,4.0,64.0,8.0,349.0960498999998,,,,,,,,,,,,,,,,,349.0827024,349.44646349999994,350.24728920000007,350.2313697,,,,,,,,,,,,,,,,,,,,,,,,,,,,,,,,,,,350.2373944000001,350.24728920000007,350.24728920000007,351.3518617999998,r,1.0,1.086220499999854,,,,,sub-020,1,stroop_test,60.0718218702735,
,,,,65.0,5.0,5.0,,,,,,,,,,,,,blau,yellow,g,0.0,g,1.0,0.8729628000000957,,,,,,,,,,5.0,5.0,65.0,7.0,351.3643403000001,,,,,,,,,,,,,,,,,351.35321870000007,351.7147101999999,352.5201195,352.50358400000005,,,,,,,,,,,,,,,,,,,,,,,,,,,,,,,,,,,352.5110897,352.5201195,352.5201195,353.4016246000001,g,1.0,0.8729628000000957,,,,,sub-020,1,stroop_test,60.0718218702735,
,,,,66.0,6.0,5.0,,,,,,,,,,,,,gelb,blue,b,0.0,b,1.0,0.7940464999996948,,,,,,,,,,5.0,6.0,66.0,9.0,353.4158182000001,,,,,,,,,,,,,,,,,353.4022729999997,354.6168309,355.4186830999997,355.40187289999994,,,,,,,,,,,,,,,,,,,,,,,,,,,,,,,,,,,355.4088228999999,355.4186830999997,355.4186830999997,356.2202438999998,b,1.0,0.7940464999996948,,,,,sub-020,1,stroop_test,60.0718218702735,
,,,,67.0,7.0,5.0,,,,,,,,,,,,,gelb,yellow,g,1.0,g,1.0,0.8469004000003224,,,,,,,,,,5.0,7.0,67.0,11.0,356.2346969,,,,,,,,,,,,,,,,,356.2208759,357.43526859999974,358.2360957000001,358.2206401999997,,,,,,,,,,,,,,,,,,,,,,,,,,,,,,,,,,,358.22136550000005,358.2360957000001,358.2360957000001,359.08881269999983,g,1.0,0.8469004000003224,,,,,sub-020,1,stroop_test,60.0718218702735,
,,,,68.0,8.0,5.0,,,,,,,,,,,,,rot,blue,b,0.0,b,1.0,0.9372161999999662,,,,,,,,,,5.0,8.0,68.0,2.0,359.10305759999983,,,,,,,,,,,,,,,,,359.0894407999999,359.9037334999998,360.7064339999997,360.6891851,,,,,,,,,,,,,,,,,,,,,,,,,,,,,,,,,,,360.69612849999976,360.7064339999997,360.7064339999997,361.6569162999999,b,1.0,0.9372161999999662,,,,,sub-020,1,stroop_test,60.0718218702735,
,,,,69.0,9.0,5.0,,,,,,,,,,,,,rot,red,r,1.0,r,1.0,0.8401972000001479,,,,,,,,,,5.0,9.0,69.0,1.0,361.6715645999998,,,,,,,,,,,,,,,,,361.6575204999999,362.0217109999999,362.8225210999999,362.8079266,,,,,,,,,,,,,,,,,,,,,,,,,,,,,,,,,,,362.8092856999997,362.8225210999999,362.8225210999999,363.6756412999998,r,1.0,0.8401972000001479,,,,,sub-020,1,stroop_test,60.0718218702735,
,,,,70.0,10.0,5.0,,,,,,,,,,,,,blau,blue,b,1.0,b,1.0,0.8310142000000269,,,,,,,,,,5.0,10.0,70.0,5.0,363.6895050999997,,,,,,,,,,,,,,,,,363.6763842,364.0400421,364.8414536,364.8253221,,,,,,,,,,,,,,,,,,,,,,,,,,,,,,,,,,,364.8312581999999,364.8414536,364.8414536,365.6766743999997,b,1.0,0.8310142000000269,,,,,sub-020,1,stroop_test,60.0718218702735,
,,,,71.0,11.0,5.0,,,,,,,,,,,,,gelb,yellow,g,1.0,g,1.0,0.8280660000000353,,,,,,,,,,5.0,11.0,71.0,10.0,365.69093870000006,,,,,,,,,,,,,,,,,365.6772808999999,365.7912685000001,366.5943629999997,366.5764052999998,,,,,,,,,,,,,,,,,,,,,,,,,,,,,,,,,,,366.5843673,366.5943629999997,366.5943629999997,367.4279432999997,g,1.0,0.8280660000000353,,,,,sub-020,1,stroop_test,60.0718218702735,
,,,,72.0,0.0,6.0,,,,,,,,,,,,,rot,blue,b,0.0,b,1.0,0.8685814999998911,,,,,,,,,,6.0,0.0,72.0,2.0,367.4424366999997,,,,,,,,,,,,,,,,,367.4286428999999,368.24291829999993,369.0449060000001,369.0281055,,,,,,,,,,,,,,,,,,,,,,,,,,,,,,,,,,,369.0352248999998,369.0449060000001,369.0449060000001,369.9301873999998,b,1.0,0.8685814999998911,,,,,sub-020,1,stroop_test,60.0718218702735,
,,,,73.0,1.0,6.0,,,,,,,,,,,,,gelb,yellow,g,1.0,g,1.0,1.2076898999998775,,,,,,,,,,6.0,1.0,73.0,10.0,369.9439443000001,,,,,,,,,,,,,,,,,369.9308281999997,370.0439993,370.8455334999999,370.8292573999997,,,,,,,,,,,,,,,,,,,,,,,,,,,,,,,,,,,370.8357825999997,370.8455334999999,370.8455334999999,372.0642786999997,g,1.0,1.2076898999998775,,,,,sub-020,1,stroop_test,60.0718218702735,
,,,,74.0,2.0,6.0,,,,,,,,,,,,,gelb,red,r,0.0,r,1.0,0.9629277999997612,,,,,,,,,,6.0,2.0,74.0,8.0,372.0787507999999,,,,,,,,,,,,,,,,,372.0649040999997,373.2794786,374.08013230000006,374.0662896999997,,,,,,,,,,,,,,,,,,,,,,,,,,,,,,,,,,,374.0673465,374.08013230000006,374.08013230000006,375.0498359999997,r,1.0,0.9629277999997612,,,,,sub-020,1,stroop_test,60.0718218702735,
,,,,75.0,3.0,6.0,,,,,,,,,,,,,rot,red,r,1.0,r,1.0,0.7341996000000108,,,,,,,,,,6.0,3.0,75.0,1.0,375.0642990000001,,,,,,,,,,,,,,,,,375.0503973,375.1642757999998,375.9684849999999,375.9494360999997,,,,,,,,,,,,,,,,,,,,,,,,,,,,,,,,,,,375.9583321,375.9684849999999,375.9684849999999,376.7176454999999,r,1.0,0.7341996000000108,,,,,sub-020,1,stroop_test,60.0718218702735,
,,,,76.0,4.0,6.0,,,,,,,,,,,,,blau,blue,b,1.0,b,1.0,1.6871062999998685,,,,,,,,,,6.0,4.0,76.0,6.0,376.7319354000001,,,,,,,,,,,,,,,,,376.7182090000001,377.93295679999983,378.7356357999997,378.7184024999997,,,,,,,,,,,,,,,,,,,,,,,,,,,,,,,,,,,378.7263312,378.7356357999997,378.7356357999997,380.4370983999997,b,1.0,1.6871062999998685,,,,,sub-020,1,stroop_test,60.0718218702735,
,,,,77.0,5.0,6.0,,,,,,,,,,,,,rot,yellow,g,0.0,g,1.0,0.92058679999991,,,,,,,,,,6.0,5.0,77.0,3.0,380.4512881999999,,,,,,,,,,,,,,,,,380.4378475999997,381.6520915000001,382.4526025999999,382.4377574,,,,,,,,,,,,,,,,,,,,,,,,,,,,,,,,,,,382.4441536999998,382.4526025999999,382.4526025999999,383.3890287999998,g,1.0,0.92058679999991,,,,,sub-020,1,stroop_test,60.0718218702735,
,,,,78.0,6.0,6.0,,,,,,,,,,,,,gelb,yellow,g,1.0,g,1.0,1.0984213000001546,,,,,,,,,,6.0,6.0,78.0,11.0,383.4033747999997,,,,,,,,,,,,,,,,,383.389655,384.6046246000001,385.4048496,385.3886376999999,,,,,,,,,,,,,,,,,,,,,,,,,,,,,,,,,,,385.3928670999999,385.4048496,385.4048496,386.5091526000001,g,1.0,1.0984213000001546,,,,,sub-020,1,stroop_test,60.0718218702735,
,,,,79.0,7.0,6.0,,,,,,,,,,,,,blau,yellow,g,0.0,g,1.0,0.9680010000001856,,,,,,,,,,6.0,7.0,79.0,7.0,386.5227116000001,,,,,,,,,,,,,,,,,386.50972120000006,386.6222582999999,387.4247590999999,387.40782439999975,,,,,,,,,,,,,,,,,,,,,,,,,,,,,,,,,,,387.4153849,387.4247590999999,387.4247590999999,388.4093198999999,g,1.0,0.9680010000001856,,,,,sub-020,1,stroop_test,60.0718218702735,
,,,,80.0,8.0,6.0,,,,,,,,,,,,,blau,red,r,0.0,r,1.0,0.9188610999999582,,,,,,,,,,6.0,8.0,80.0,4.0,388.4233684000001,,,,,,,,,,,,,,,,,388.4099980000001,389.2242084999998,390.0244843999999,390.0095048999997,,,,,,,,,,,,,,,,,,,,,,,,,,,,,,,,,,,390.0103694,390.0244843999999,390.0244843999999,390.9605398999997,r,1.0,0.9188610999999582,,,,,sub-020,1,stroop_test,60.0718218702735,
,,,,81.0,9.0,6.0,,,,,,,,,,,,,rot,red,r,1.0,r,1.0,0.5910155999999915,,,,,,,,,,6.0,9.0,81.0,0.0,390.9780584,,,,,,,,,,,,,,,,,390.9612066,391.3254029999998,392.132674,392.1114288999997,,,,,,,,,,,,,,,,,,,,,,,,,,,,,,,,,,,392.1184023999999,392.132674,392.132674,392.72823199999993,r,1.0,0.5910155999999915,,,,,sub-020,1,stroop_test,60.0718218702735,
,,,,82.0,10.0,6.0,,,,,,,,,,,,,blau,blue,b,1.0,b,1.0,1.3880143999999746,,,,,,,,,,6.0,10.0,82.0,5.0,392.7430968999997,,,,,,,,,,,,,,,,,392.7287336999998,392.8431372,393.6450338999998,393.6283003999997,,,,,,,,,,,,,,,,,,,,,,,,,,,,,,,,,,,393.6341210999999,393.6450338999998,393.6450338999998,395.0470516999999,b,1.0,1.3880143999999746,,,,,sub-020,1,stroop_test,60.0718218702735,
,,,,83.0,11.0,6.0,,,,,,,,,,,,,gelb,blue,b,0.0,b,1.0,1.049020599999949,,,,,,,,,,6.0,11.0,83.0,9.0,395.0614707,,,,,,,,,,,,,,,,,395.0476767999999,395.8619390999997,396.6637378999999,396.6475240999998,,,,,,,,,,,,,,,,,,,,,,,,,,,,,,,,,,,396.6541975999999,396.6637378999999,396.6637378999999,397.7157352999998,b,1.0,1.049020599999949,,,,,sub-020,1,stroop_test,60.0718218702735,
,,,,84.0,0.0,7.0,,,,,,,,,,,,,blau,blue,b,1.0,b,1.0,0.8404420000001664,,,,,,,,,,7.0,0.0,84.0,5.0,397.7300780999999,,,,,,,,,,,,,,,,,397.716484,398.9306806,399.7332167999998,399.7159679000001,,,,,,,,,,,,,,,,,,,,,,,,,,,,,,,,,,,399.7238195,399.7332167999998,399.7332167999998,400.5842508999999,b,1.0,0.8404420000001664,,,,,sub-020,1,stroop_test,60.0718218702735,
,,,,85.0,1.0,7.0,,,,,,,,,,,,,blau,yellow,g,0.0,g,1.0,1.194914600000175,,,,,,,,,,7.0,1.0,85.0,7.0,400.5987517999997,,,,,,,,,,,,,,,,,400.5848372,400.6991355,401.4990924999997,401.48411529999976,,,,,,,,,,,,,,,,,,,,,,,,,,,,,,,,,,,401.48546739999983,401.4990924999997,401.4990924999997,402.7022916000001,g,1.0,1.194914600000175,,,,,sub-020,1,stroop_test,60.0718218702735,
,,,,86.0,2.0,7.0,,,,,,,,,,,,,blau,blue,b,1.0,b,1.0,1.1858527999997932,,,,,,,,,,7.0,2.0,86.0,6.0,402.7165117999998,,,,,,,,,,,,,,,,,402.7029044000001,403.06684049999967,403.8677035999999,403.85223769999993,,,,,,,,,,,,,,,,,,,,,,,,,,,,,,,,,,,403.8530909000001,403.8677035999999,403.8677035999999,405.0705475999998,b,1.0,1.1858527999997932,,,,,sub-020,1,stroop_test,60.0718218702735,
,,,,87.0,3.0,7.0,,,,,,,,,,,,,gelb,red,r,0.0,r,1.0,1.246704099999988,,,,,,,,,,7.0,3.0,87.0,8.0,405.0851695000001,,,,,,,,,,,,,,,,,405.07117199999993,405.1851290999998,405.9863061000001,405.9706956999999,,,,,,,,,,,,,,,,,,,,,,,,,,,,,,,,,,,405.9771603999998,405.9863061000001,405.9863061000001,407.2388277999999,r,1.0,1.246704099999988,,,,,sub-020,1,stroop_test,60.0718218702735,
,,,,88.0,4.0,7.0,,,,,,,,,,,,,gelb,yellow,g,1.0,g,1.0,0.8891328999998223,,,,,,,,,,7.0,4.0,88.0,11.0,407.25361429999975,,,,,,,,,,,,,,,,,407.2394488,408.4540068000001,409.2549036,409.2391352999998,,,,,,,,,,,,,,,,,,,,,,,,,,,,,,,,,,,409.2402828999998,409.2549036,409.2549036,410.15734239999983,g,1.0,0.8891328999998223,,,,,sub-020,1,stroop_test,60.0718218702735,
,,,,89.0,5.0,7.0,,,,,,,,,,,,,rot,yellow,g,0.0,g,1.0,1.1184335000002648,,,,,,,,,,7.0,5.0,89.0,3.0,410.1718031,,,,,,,,,,,,,,,,,410.1579102999999,410.2718691,411.0750221999997,411.0574080000001,,,,,,,,,,,,,,,,,,,,,,,,,,,,,,,,,,,411.0638869999998,411.0750221999997,411.0750221999997,412.2089683999998,g,1.0,1.1184335000002648,,,,,sub-020,1,stroop_test,60.0718218702735,
,,,,90.0,6.0,7.0,,,,,,,,,,,,,blau,red,r,0.0,r,1.0,1.0389867999997475,,,,,,,,,,7.0,6.0,90.0,4.0,412.2234426,,,,,,,,,,,,,,,,,412.2096429999997,412.5735962999997,413.3742804999997,413.35885800000005,,,,,,,,,,,,,,,,,,,,,,,,,,,,,,,,,,,413.3649922,413.3742804999997,413.3742804999997,414.4273131,r,1.0,1.0389867999997475,,,,,sub-020,1,stroop_test,60.0718218702735,
,,,,91.0,7.0,7.0,,,,,,,,,,,,,rot,blue,b,0.0,b,1.0,1.2308873000001768,,,,,,,,,,7.0,7.0,91.0,2.0,414.4413906,,,,,,,,,,,,,,,,,414.42799209999976,414.7918215,415.5921946999997,415.5776188,,,,,,,,,,,,,,,,,,,,,,,,,,,,,,,,,,,415.5840506,415.5921946999997,415.5921946999997,416.8299535000001,b,1.0,1.2308873000001768,,,,,sub-020,1,stroop_test,60.0718218702735,
,,,,92.0,8.0,7.0,,,,,,,,,,,,,rot,red,r,1.0,r,1.0,0.7282046000000264,,,,,,,,,,7.0,8.0,92.0,0.0,416.84309159999975,,,,,,,,,,,,,,,,,416.8305550999999,418.04425390000006,418.84482979999984,418.8293242999998,,,,,,,,,,,,,,,,,,,,,,,,,,,,,,,,,,,418.83001209999975,418.84482979999984,418.84482979999984,419.5814212999999,r,1.0,0.7282046000000264,,,,,sub-020,1,stroop_test,60.0718218702735,
,,,,93.0,9.0,7.0,,,,,,,,,,,,,gelb,yellow,g,1.0,g,1.0,1.0533129000000372,,,,,,,,,,7.0,9.0,93.0,10.0,419.5949382999997,,,,,,,,,,,,,,,,,419.5820129999997,419.9455251,420.7497708000001,420.7306601999999,,,,,,,,,,,,,,,,,,,,,,,,,,,,,,,,,,,420.73687960000007,420.7497708000001,420.7497708000001,421.8161025999998,g,1.0,1.0533129000000372,,,,,sub-020,1,stroop_test,60.0718218702735,
,,,,94.0,10.0,7.0,,,,,,,,,,,,,gelb,blue,b,0.0,b,1.0,1.0427706999998918,,,,,,,,,,7.0,10.0,94.0,9.0,421.8300875,,,,,,,,,,,,,,,,,421.81677899999977,421.9301796,422.73058850000007,422.7149193999999,,,,,,,,,,,,,,,,,,,,,,,,,,,,,,,,,,,422.71566589999975,422.73058850000007,422.73058850000007,423.7840225,b,1.0,1.0427706999998918,,,,,sub-020,1,stroop_test,60.0718218702735,
,,,,95.0,11.0,7.0,,,,,,,,,,,,,rot,red,r,1.0,r,1.0,0.8341559000000416,,,,,,,,,,7.0,11.0,95.0,1.0,423.7988276000001,,,,,,,,,,,,,,,,,423.7851526,424.1483318000001,424.9494359,424.9334730999999,,,,,,,,,,,,,,,,,,,,,,,,,,,,,,,,,,,424.9402240999998,424.9494359,424.9494359,425.7856747999999,r,1.0,0.8341559000000416,,,,,sub-020,1,stroop_test,60.0718218702735,
,,,,96.0,0.0,8.0,,,,,,,,,,,,,blau,blue,b,1.0,b,1.0,0.8332814999998845,,,,,,,,,,8.0,0.0,96.0,5.0,425.7992400999997,,,,,,,,,,,,,,,,,425.7863079999997,426.14972940000007,426.9501872000001,426.93532049999976,,,,,,,,,,,,,,,,,,,,,,,,,,,,,,,,,,,426.9415659000001,426.9501872000001,426.9501872000001,427.786372,b,1.0,0.8332814999998845,,,,,sub-020,1,stroop_test,60.0718218702735,
,,,,97.0,1.0,8.0,,,,,,,,,,,,,gelb,yellow,g,1.0,g,1.0,0.5708728999998129,,,,,,,,,,8.0,1.0,97.0,11.0,427.8006406999998,,,,,,,,,,,,,,,,,427.7870475999998,427.9007994999997,428.7027834999999,428.6863236999998,,,,,,,,,,,,,,,,,,,,,,,,,,,,,,,,,,,428.6931365,428.7027834999999,428.7027834999999,429.28725129999975,g,1.0,0.5708728999998129,,,,,sub-020,1,stroop_test,60.0718218702735,
,,,,98.0,2.0,8.0,,,,,,,,,,,,,rot,blue,b,0.0,b,1.0,1.359031800000139,,,,,,,,,,8.0,2.0,98.0,2.0,429.3017058,,,,,,,,,,,,,,,,,429.2879181999997,429.6522866,430.4547325999997,430.4374472,,,,,,,,,,,,,,,,,,,,,,,,,,,,,,,,,,,430.4445003999999,430.4547325999997,430.4547325999997,431.8226010999997,b,1.0,1.359031800000139,,,,,sub-020,1,stroop_test,60.0718218702735,
,,,,99.0,3.0,8.0,,,,,,,,,,,,,blau,red,r,0.0,r,1.0,1.025329900000088,,,,,,,,,,8.0,3.0,99.0,4.0,431.8370858999997,,,,,,,,,,,,,,,,,431.82316409999976,432.6376686999997,433.4378105999999,433.4231798999999,,,,,,,,,,,,,,,,,,,,,,,,,,,,,,,,,,,433.4287697999998,433.4378105999999,433.4378105999999,434.4743758,r,1.0,1.025329900000088,,,,,sub-020,1,stroop_test,60.0718218702735,
,,,,100.0,4.0,8.0,,,,,,,,,,,,,gelb,blue,b,0.0,b,1.0,1.482786800000213,,,,,,,,,,8.0,4.0,100.0,9.0,434.4890061000001,,,,,,,,,,,,,,,,,434.4750282999999,435.6895820999998,436.4901734,436.4750998999998,,,,,,,,,,,,,,,,,,,,,,,,,,,,,,,,,,,436.4819951999998,436.4901734,436.4901734,437.9781401,b,1.0,1.482786800000213,,,,,sub-020,1,stroop_test,60.0718218702735,
,,,,101.0,5.0,8.0,,,,,,,,,,,,,gelb,yellow,g,1.0,g,1.0,0.9618107999999664,,,,,,,,,,8.0,5.0,101.0,10.0,437.9911032,,,,,,,,,,,,,,,,,437.9788152000001,438.0915679999998,438.8916347999998,438.8769103999998,,,,,,,,,,,,,,,,,,,,,,,,,,,,,,,,,,,438.8777062999998,438.8916347999998,438.8916347999998,439.8619948999999,g,1.0,0.9618107999999664,,,,,sub-020,1,stroop_test,60.0718218702735,
,,,,102.0,6.0,8.0,,,,,,,,,,,,,blau,blue,b,1.0,b,1.0,1.227290499999981,,,,,,,,,,8.0,6.0,102.0,6.0,439.87563150000005,,,,,,,,,,,,,,,,,439.8626448,439.9758948999997,440.7763844000001,440.7612085999999,,,,,,,,,,,,,,,,,,,,,,,,,,,,,,,,,,,440.76702449999993,440.7763844000001,440.7763844000001,442.0126795000001,b,1.0,1.227290499999981,,,,,sub-020,1,stroop_test,60.0718218702735,
,,,,103.0,7.0,8.0,,,,,,,,,,,,,blau,yellow,g,0.0,g,1.0,0.9152226999999584,,,,,,,,,,8.0,7.0,103.0,7.0,442.0274214000001,,,,,,,,,,,,,,,,,442.0131981,442.1274601,442.9279790999999,442.9124268000001,,,,,,,,,,,,,,,,,,,,,,,,,,,,,,,,,,,442.91319840000006,442.9279790999999,442.9279790999999,443.8478943,g,1.0,0.9152226999999584,,,,,sub-020,1,stroop_test,60.0718218702735,
,,,,104.0,8.0,8.0,,,,,,,,,,,,,rot,red,r,1.0,r,1.0,0.6992549999999937,,,,,,,,,,8.0,8.0,104.0,1.0,443.8618683999998,,,,,,,,,,,,,,,,,443.8485799,443.9620792999999,444.76430249999976,444.7473430999999,,,,,,,,,,,,,,,,,,,,,,,,,,,,,,,,,,,444.75497270000005,444.76430249999976,444.76430249999976,445.4656694,r,1.0,0.6992549999999937,,,,,sub-020,1,stroop_test,60.0718218702735,
,,,,105.0,9.0,8.0,,,,,,,,,,,,,gelb,red,r,0.0,r,1.0,1.0765793000000483,,,,,,,,,,8.0,9.0,105.0,8.0,445.479621,,,,,,,,,,,,,,,,,445.4662592,446.2802171999997,447.0865573000001,447.0657526999999,,,,,,,,,,,,,,,,,,,,,,,,,,,,,,,,,,,447.0727311999999,447.0865573000001,447.0865573000001,448.1682507999999,r,1.0,1.0765793000000483,,,,,sub-020,1,stroop_test,60.0718218702735,
,,,,106.0,10.0,8.0,,,,,,,,,,,,,rot,red,r,1.0,r,1.0,0.7592812000002596,,,,,,,,,,8.0,10.0,106.0,0.0,448.1814968999997,,,,,,,,,,,,,,,,,448.1688399,448.2820179,449.0841439000001,449.0667309,,,,,,,,,,,,,,,,,,,,,,,,,,,,,,,,,,,449.074912,449.0841439000001,449.0841439000001,449.8519689999998,r,1.0,0.7592812000002596,,,,,sub-020,1,stroop_test,60.0718218702735,
,,,,107.0,11.0,8.0,,,,,,,,,,,,,rot,yellow,g,0.0,g,1.0,0.9263022999998612,,,,,,,,,,8.0,11.0,107.0,3.0,449.8661265999999,,,,,,,,,,,,,,,,,449.8526374999997,449.9661154,450.7670737999997,450.7513848999997,,,,,,,,,,,,,,,,,,,,,,,,,,,,,,,,,,,450.75213369999983,450.7670737999997,450.7670737999997,451.7035794999997,g,1.0,0.9263022999998612,,,,,sub-020,1,stroop_test,60.0718218702735,
,,,,108.0,0.0,9.0,,,,,,,,,,,,,rot,red,r,1.0,r,1.0,0.8451301000000058,,,,,,,,,,9.0,0.0,108.0,0.0,451.7173386999998,,,,,,,,,,,,,,,,,451.7043966000001,451.8174331999999,452.6180992999998,452.60296560000006,,,,,,,,,,,,,,,,,,,,,,,,,,,,,,,,,,,452.6038774999997,452.6180992999998,452.6180992999998,453.4707049999997,r,1.0,0.8451301000000058,,,,,sub-020,1,stroop_test,60.0718218702735,
,,,,109.0,1.0,9.0,,,,,,,,,,,,,rot,yellow,g,0.0,g,1.0,0.997671299999638,,,,,,,,,,9.0,1.0,109.0,3.0,453.4855134999998,,,,,,,,,,,,,,,,,453.4713008999997,453.5855345,454.3862823,454.3723068999998,,,,,,,,,,,,,,,,,,,,,,,,,,,,,,,,,,,454.3730608000001,454.3862823,454.3862823,455.3890360999999,g,1.0,0.997671299999638,,,,,sub-020,1,stroop_test,60.0718218702735,
,,,,110.0,2.0,9.0,,,,,,,,,,,,,blau,red,r,0.0,r,1.0,1.1860293999998248,,,,,,,,,,9.0,2.0,110.0,4.0,455.4032318,,,,,,,,,,,,,,,,,455.38960039999984,456.2037144000001,457.0075996999999,456.9894974999997,,,,,,,,,,,,,,,,,,,,,,,,,,,,,,,,,,,456.99523009999984,457.0075996999999,457.0075996999999,458.2075725999998,r,1.0,1.1860293999998248,,,,,sub-020,1,stroop_test,60.0718218702735,
,,,,111.0,3.0,9.0,,,,,,,,,,,,,gelb,yellow,g,1.0,g,1.0,0.7237138000000414,,,,,,,,,,9.0,3.0,111.0,10.0,458.2218641999998,,,,,,,,,,,,,,,,,458.2082024000001,458.3223832999997,459.1302989999999,459.1076514000001,,,,,,,,,,,,,,,,,,,,,,,,,,,,,,,,,,,459.11478739999984,459.1302989999999,459.1302989999999,459.8590457999999,g,1.0,0.7237138000000414,,,,,sub-020,1,stroop_test,60.0718218702735,
,,,,112.0,4.0,9.0,,,,,,,,,,,,,blau,blue,b,1.0,b,1.0,0.6891030000001592,,,,,,,,,,9.0,4.0,112.0,6.0,459.8728428,,,,,,,,,,,,,,,,,459.8596386999998,460.674137,461.4747706999997,461.4594546999997,,,,,,,,,,,,,,,,,,,,,,,,,,,,,,,,,,,461.4656587,461.4747706999997,461.4747706999997,462.1766606000001,b,1.0,0.6891030000001592,,,,,sub-020,1,stroop_test,60.0718218702735,
,,,,113.0,5.0,9.0,,,,,,,,,,,,,gelb,blue,b,0.0,b,1.0,1.046573999999964,,,,,,,,,,9.0,5.0,113.0,9.0,462.1912635999997,,,,,,,,,,,,,,,,,462.17729359999976,462.54168690000006,463.34765160000006,463.3267536999997,,,,,,,,,,,,,,,,,,,,,,,,,,,,,,,,,,,463.338107,463.34765160000006,463.34765160000006,464.4115981,b,1.0,1.046573999999964,,,,,sub-020,1,stroop_test,60.0718218702735,
,,,,114.0,6.0,9.0,,,,,,,,,,,,,rot,red,r,1.0,r,1.0,0.7231545999998161,,,,,,,,,,9.0,6.0,114.0,1.0,464.42632319999984,,,,,,,,,,,,,,,,,464.4121243999998,465.6269027999997,466.4303424999998,466.4124812,,,,,,,,,,,,,,,,,,,,,,,,,,,,,,,,,,,466.4209237,466.4303424999998,466.4303424999998,467.1639683999997,r,1.0,0.7231545999998161,,,,,sub-020,1,stroop_test,60.0718218702735,
,,,,115.0,7.0,9.0,,,,,,,,,,,,,blau,yellow,g,0.0,g,1.0,0.8140333999999712,,,,,,,,,,9.0,7.0,115.0,7.0,467.1779702999997,,,,,,,,,,,,,,,,,467.1648209,468.3792076,469.1795985999997,469.1641144,,,,,,,,,,,,,,,,,,,,,,,,,,,,,,,,,,,469.1692653,469.1795985999997,469.1795985999997,469.9990110999997,g,1.0,0.8140333999999712,,,,,sub-020,1,stroop_test,60.0718218702735,
,,,,116.0,8.0,9.0,,,,,,,,,,,,,rot,blue,b,0.0,b,1.0,0.9332527999999912,,,,,,,,,,9.0,8.0,116.0,2.0,470.0133363,,,,,,,,,,,,,,,,,469.9996016,470.8137609999999,471.6199429999997,471.5995359999997,,,,,,,,,,,,,,,,,,,,,,,,,,,,,,,,,,,471.6056825999999,471.6199429999997,471.6199429999997,472.568158,b,1.0,0.9332527999999912,,,,,sub-020,1,stroop_test,60.0718218702735,
,,,,117.0,9.0,9.0,,,,,,,,,,,,,blau,blue,b,1.0,b,1.0,0.8315522000002602,,,,,,,,,,9.0,9.0,117.0,5.0,472.5817321,,,,,,,,,,,,,,,,,472.5687785999999,472.6821372,473.4823819999997,473.4670148999999,,,,,,,,,,,,,,,,,,,,,,,,,,,,,,,,,,,473.47205369999983,473.4823819999997,473.4823819999997,474.3186427999999,b,1.0,0.8315522000002602,,,,,sub-020,1,stroop_test,60.0718218702735,
,,,,118.0,10.0,9.0,,,,,,,,,,,,,gelb,yellow,g,1.0,g,1.0,0.9671235000000706,,,,,,,,,,9.0,10.0,118.0,11.0,474.3331331999998,,,,,,,,,,,,,,,,,474.3192232000001,475.1336661999999,475.9365966999999,475.9189922000001,,,,,,,,,,,,,,,,,,,,,,,,,,,,,,,,,,,475.92669380000007,475.9365966999999,475.9365966999999,476.9205299999999,g,1.0,0.9671235000000706,,,,,sub-020,1,stroop_test,60.0718218702735,
,,,,119.0,11.0,9.0,,,,,,,,,,,,,gelb,red,r,0.0,r,1.0,1.2277165999998942,,,,,,,,,,9.0,11.0,119.0,8.0,476.9347533,,,,,,,,,,,,,,,,,476.9211319000001,477.28533359999983,478.085838,478.0703555,,,,,,,,,,,,,,,,,,,,,,,,,,,,,,,,,,,478.0710706,478.085838,478.085838,479.3224657999999,r,1.0,1.2277165999998942,,,,,sub-020,1,stroop_test,60.0718218702735,
,,,,,,,,,,,,,,,,,,,,,,,,,,,,,,,,,,,,,,,,,,,,,,,,,,,,,,,,,,,,,,,,,,,,,,,,,,,,,,,,,,,,,,,,,,,,,,,,,,,,,,479.3227447999998,479.3366163999999,484.3238252000001,sub-020,1,stroop_test,60.0718218702735,
