direction,corrAns,thisN,thisTrialN,thisRepN,respDots.keys,respDots.corr,respDots.rt,respDots.duration,randomInstr,respRandomInstr.keys,respRandomInstr.rt,respRandomInstr.duration,practice_trials.thisRepN,practice_trials.thisTrialN,practice_trials.thisN,practice_trials.thisIndex,instr_trials.thisRepN,instr_trials.thisTrialN,instr_trials.thisN,instr_trials.thisIndex,test_trials.thisRepN,test_trials.thisTrialN,test_trials.thisN,test_trials.thisIndex,thisRow.t,notes,general_instruction.started,textGeneralInstr.started,respGeneralInstr.started,general_instruction.stopped,respGeneralInstr.keys,respGeneralInstr.rt,respGeneralInstr.duration,ITI.started,fixcross.started,fixcross.stopped,ITI.stopped,dots.started,backgroundDots.started,stimulusDots.started,respDots.started,dots.stopped,practice_trials.respDots.keys,practice_trials.respDots.corr,practice_trials.respDots.rt,practice_trials.respDots.duration,feedback.started,textFeedback.started,feedback.stopped,textFeedback.stopped,info.started,textInfo.started,keyRespInfo.started,info.stopped,keyRespInfo.keys,keyRespInfo.rt,keyRespInfo.duration,test_instruction.started,textTestInstr.started,respTestInstr.started,test_instruction.stopped,respTestInstr.keys,respTestInstr.rt,respTestInstr.duration,random_instruction.started,textRandomInstr.started,respRandomInstr.started,random_instruction.stopped,instr_trials.respRandomInstr.keys,instr_trials.respRandomInstr.rt,instr_trials.respRandomInstr.duration,test_trials.respDots.keys,test_trials.respDots.corr,test_trials.respDots.rt,test_trials.respDots.duration,goodbye.started,textGoodbye.started,goodbye.stopped,participant,session,expName,frameRate,Unnamed: 86
,,,,,,,,,,,,,,,,,,,,,,,,,,,0.0131661089835688,0.0365314240334555,0.0365314240334555,1.5451881890185175,space,1.3856379460194148,,,,,,,,,,,,,,,,,,,,,,,,,,,,,,,,,,,,,,,,,,,,,,,sub-047,2,random_dot,61.86910145200656,
left,left,0.0,0.0,0.0,left,1.0,2.16033664502902,,,,,,0.0,0.0,0.0,0.0,,,,,,,,,1.5639518509851769,,,,,,,,,1.5539598879986445,1.6573465859983116,2.5497063639923,2.441007376997732,2.441418820992112,2.5497063639923,2.5497063639923,2.5497063639923,4.725660644995514,left,1.0,2.16033664502902,,4.731883361993823,4.751227975008078,5.241554565029219,,,,,,,,,,,,,,,,,,,,,,,,,,,,,,sub-047,2,random_dot,61.86910145200656,
right,right,1.0,1.0,0.0,right,1.0,0.8448977800435387,,,,,,0.0,1.0,1.0,1.0,,,,,,,,,5.257869769993704,,,,,,,,,5.241912832017988,6.024713889986742,6.825124680995941,6.808815421012696,6.809199651994277,6.825124680995941,6.825124680995941,6.825124680995941,7.67624502099352,right,1.0,0.8448977800435387,,7.676331795984879,7.6921606180258095,8.175762741011567,8.19223210803466,,,,,,,,,,,,,,,,,,,,,,,,,,,,,sub-047,2,random_dot,61.86910145200656,
right,right,2.0,0.0,1.0,right,1.0,0.9445613180287182,,,,,,1.0,0.0,2.0,1.0,,,,,,,,,8.19223210803466,,,,,,,,,8.176094152033329,8.525515010987874,9.325486754009034,9.30915999202989,9.309555525018368,9.325486754009034,9.325486754009034,9.325486754009034,10.27671367302537,right,1.0,0.9445613180287182,,10.276801345986314,10.292351785989013,10.775959767983297,10.792369963019157,,,,,,,,,,,,,,,,,,,,,,,,,,,,,sub-047,2,random_dot,61.86910145200656,
left,left,3.0,1.0,1.0,left,1.0,0.933109750971198,,,,,,1.0,1.0,3.0,0.0,,,,,,,,,10.792369963019157,,,,,,,,,10.776287643006071,11.982506463013124,12.792743945028633,12.77632236201316,12.776631072978487,12.792743945028633,12.792743945028633,12.792743945028633,13.727109024010131,left,1.0,0.933109750971198,,13.727192990016192,13.743185169994833,14.226863396004774,14.243138436984736,,,,,,,,,,,,,,,,,,,,,,,,,,,,,sub-047,2,random_dot,61.86910145200656,
left,left,4.0,0.0,2.0,left,1.0,0.8051606489461847,,,,,,2.0,0.0,4.0,0.0,,,,,,,,,14.243138436984736,,,,,,,,,14.22719700302696,14.576685571984854,15.37669016898144,15.3602181969909,15.36061165400315,15.37669016898144,15.37669016898144,15.37669016898144,16.19429100002162,left,1.0,0.8051606489461847,,16.194380244007334,16.210168305027764,16.69368696102174,16.710224887006916,,,,,,,,,,,,,,,,,,,,,,,,,,,,,sub-047,2,random_dot,61.86910145200656,
right,right,5.0,1.0,2.0,right,1.0,1.1215678459848275,,,,,,2.0,1.0,5.0,1.0,,,,,,,,,16.710224887006916,,,,,,,,,16.69401650800137,17.050220435019583,17.860264807997737,17.8438538890332,17.844262715021614,17.860264807997737,17.860264807997737,17.860264807997737,18.99443878198508,right,1.0,1.1215678459848275,,18.994526130030863,19.01070146501297,19.49417534901295,19.510592260980047,,,,,,,,,,,,,,,,,,,,,,,,,,,,,sub-047,2,random_dot,61.86910145200656,
right,right,6.0,0.0,3.0,right,1.0,2.6228374789934605,,,,,,3.0,0.0,6.0,1.0,,,,,,,,,19.510592260980047,,,,,,,,,19.49450454302132,19.59402595902793,20.39410511602182,20.3774987179786,20.37788660201477,20.39410511602182,20.39410511602182,20.39410511602182,23.028519782994408,right,1.0,2.6228374789934605,,23.028610841021877,23.0444934660336,23.533200562989805,,,,,,,,,,,,,,,,,,,,,,,,,,,,,,sub-047,2,random_dot,61.86910145200656,
left,left,7.0,1.0,3.0,left,1.0,0.9228733020136132,,,,,,3.0,1.0,7.0,0.0,,,,,,,,,23.5503242710256,,,,,,,,,23.533552334993143,23.878048023034356,24.67810034600552,24.66157049301546,24.661959199002013,24.67810034600552,24.67810034600552,24.67810034600552,25.612147804989945,left,1.0,0.9228733020136132,,25.61223502102075,25.62812489300268,26.111950165010057,26.12842790799914,,,,,,,,,,,,,,,,,,,,,,,,,,,,,sub-047,2,random_dot,61.86910145200656,
left,left,8.0,0.0,4.0,right,0.0,1.5553688000072723,,,,,,4.0,0.0,8.0,0.0,,,,,,,,,26.12842790799914,,,,,,,,,26.112297324987598,26.912148101022467,27.71205472102156,27.69583905901527,27.69623193098232,27.71205472102156,27.71205472102156,27.71205472102156,29.27991868200479,right,0.0,1.5553688000072723,,29.28498426300939,29.29543853399809,29.77924120798707,29.79572722001467,,,,,,,,,,,,,,,,,,,,,,,,,,,,,sub-047,2,random_dot,61.86910145200656,
right,right,9.0,1.0,4.0,left,0.0,2.50395625596866,,,,,,4.0,1.0,9.0,1.0,,,,,,,,,29.79572722001467,,,,,,,,,29.779568722005934,30.135683673026502,30.94590239902027,30.929522341990378,30.92991276399698,30.94590239902027,30.94590239902027,30.94590239902027,33.464215696032625,left,0.0,2.50395625596866,,33.46433805703418,33.47966026503127,33.96332092699595,33.979787250980735,,,,,,,,,,,,,,,,,,,,,,,,,,,,,sub-047,2,random_dot,61.86910145200656,
left,left,10.0,0.0,5.0,left,1.0,0.9326298169908114,,,,,,5.0,0.0,10.0,0.0,,,,,,,,,33.979787250980735,,,,,,,,,33.96364731201902,34.32978179299971,35.141136841033585,35.11895748303505,35.119346852006856,35.141136841033585,35.141136841033585,35.141136841033585,36.080745966988616,left,1.0,0.9326298169908114,,36.08309027203359,36.096908762003295,36.58036736102076,36.59691439801827,,,,,,,,,,,,,,,,,,,,,,,,,,,,,sub-047,2,random_dot,61.86910145200656,
right,right,11.0,1.0,5.0,right,1.0,0.8611953849904239,,,,,,5.0,1.0,11.0,1.0,,,,,,,,,36.59691439801827,,,,,,,,,36.58069589198567,37.78040825302014,38.58051959000295,38.5642167290207,38.5646043010056,38.58051959000295,38.58051959000295,38.58051959000295,39.4482322660042,right,1.0,0.8611953849904239,,39.44831861398416,39.46403572399868,39.94771707203472,39.964055485033896,,,,,,,,,,,,,,,,,,,,,,,,,,,,,sub-047,2,random_dot,61.86910145200656,
left,left,12.0,0.0,6.0,left,1.0,1.0777567909681238,,,,,,6.0,0.0,12.0,0.0,,,,,,,,,39.964055485033896,,,,,,,,,39.94804876600392,40.74746999901254,41.54795145301614,41.53140064002946,41.53178928903071,41.54795145301614,41.54795145301614,41.54795145301614,42.63163051003357,left,1.0,1.0777567909681238,,42.63171980401967,42.647782207001,43.131514739012346,43.14780424098717,,,,,,,,,,,,,,,,,,,,,,,,,,,,,sub-047,2,random_dot,61.86910145200656,
right,right,13.0,1.0,6.0,right,1.0,1.2651227460009975,,,,,,6.0,1.0,13.0,1.0,,,,,,,,,43.14780424098717,,,,,,,,,43.131860149034765,43.48128231102601,44.29656798898941,44.273538120032754,44.27392349002184,44.29656798898941,44.29656798898941,44.29656798898941,45.56547867500922,right,1.0,1.2651227460009975,,45.56556007103063,45.58156298601534,46.06486025702907,46.081167825032026,,,,,,,,,,,,,,,,,,,,,,,,,,,,,sub-047,2,random_dot,61.86910145200656,
right,right,14.0,0.0,7.0,right,1.0,0.9844470350071788,,,,,,7.0,0.0,14.0,1.0,,,,,,,,,46.081167825032026,,,,,,,,,46.06510859099217,46.86523315199884,47.66524978203233,47.6491983460146,47.649585639999714,47.66524978203233,47.66524978203233,47.66524978203233,48.66659337899182,right,1.0,0.9844470350071788,,48.666713803017046,48.68201490101637,49.16581839398714,49.18240062100813,,,,,,,,,,,,,,,,,,,,,,,,,,,,,sub-047,2,random_dot,61.86910145200656,
left,left,15.0,1.0,7.0,left,1.0,0.669931911979802,,,,,,7.0,1.0,15.0,0.0,,,,,,,,,49.18240062100813,,,,,,,,,49.16614841698902,49.51581925502978,50.31589310098207,50.29919264197815,50.29949453298468,50.31589310098207,50.31589310098207,50.31589310098207,50.99978000699775,left,1.0,0.669931911979802,,50.99987197102746,51.0158933030325,51.49924505298259,51.5159967209911,,,,,,,,,,,,,,,,,,,,,,,,,,,,,sub-047,2,random_dot,61.86910145200656,
left,left,16.0,0.0,8.0,left,1.0,0.3117679920396767,,,,,,8.0,0.0,16.0,0.0,,,,,,,,,51.5159967209911,,,,,,,,,51.499535717011895,51.856162292009685,52.66594298003474,52.64976784499595,52.65015662700171,52.66594298003474,52.66594298003474,52.66594298003474,52.983875409001485,left,1.0,0.3117679920396767,,52.98396466003032,52.999643558985554,53.48342747899005,53.49984935898101,,,,,,,,,,,,,,,,,,,,,,,,,,,,,sub-047,2,random_dot,61.86910145200656,
right,right,17.0,1.0,8.0,right,1.0,1.0106721529737115,,,,,,8.0,1.0,17.0,1.0,,,,,,,,,53.49984935898101,,,,,,,,,53.48376051202649,53.58317566901678,54.383098427031655,54.36676701297984,54.36715192999691,54.383098427031655,54.383098427031655,54.383098427031655,55.40041189797921,right,1.0,1.0106721529737115,,55.40049951599213,55.416668886027765,55.90976444998523,,,,,,,,,,,,,,,,,,,,,,,,,,,,,,sub-047,2,random_dot,61.86910145200656,
right,right,18.0,0.0,9.0,left,0.0,0.6282123629935086,,,,,,9.0,0.0,18.0,1.0,,,,,,,,,55.926298218022566,,,,,,,,,55.91013220499735,56.00009795400547,56.81350455398206,56.79031654202845,56.7907026699977,56.81350455398206,56.81350455398206,56.81350455398206,57.45075732201804,left,0.0,0.6282123629935086,,57.4531762439874,57.46709211700363,57.950782653992064,57.96723631100031,,,,,,,,,,,,,,,,,,,,,,,,,,,,,sub-047,2,random_dot,61.86910145200656,
left,left,19.0,1.0,9.0,left,1.0,0.6670638489886187,,,,,,9.0,1.0,19.0,0.0,,,,,,,,,57.96723631100031,,,,,,,,,57.951116661017295,58.7506081360043,59.550640018016566,59.53448071499588,59.53487503400538,59.550640018016566,59.550640018016566,59.550640018016566,60.23538504500175,left,1.0,0.6670638489886187,,60.23844203201588,60.25083064800128,60.7343964559841,60.75065313000232,,,,,,,,,,,,,,,,,,,,,,,,,,,,,sub-047,2,random_dot,61.86910145200656,
,,,,,,,,,,,,,,,,,,,,,,,,,,,,,,,,,,,,,,,,,,,,,,,,,,,60.73453035199782,60.75065313000232,60.75065313000232,76.17086558701703,space,15.41245311498642,,,,,,,,,,,,,,,,,,,,,,,sub-047,2,random_dot,61.86910145200656,
,,,,,,,,,,,,,,,,,,,,,,,,,,,,,,,,,,,,,,,,,,,,,,,,,,,,,,,,,,76.17092762800166,76.18709608301288,76.18709608301288,76.85452468600124,space,0.6638925439910963,,,,,,,,,,,,,,,,sub-047,2,random_dot,61.86910145200656,
left,left,0.0,0.0,0.0,left,1.0,0.8266321310075,,accuracy,space,0.6194382769754156,,,,,,0.0,0.0,0.0,0.0,0.0,0.0,0.0,0.0,77.53538285201648,,,,,,,,,77.52043980301823,78.72081386001082,79.52050399198197,79.50421240302967,79.50452282599872,79.52050399198197,79.52050399198197,79.52050399198197,80.3547636650037,,,,,,,,,,,,,,,,,,,,,,,76.87054987001466,76.87950688001001,76.87950688001001,77.51480741001433,space,0.6194382769754156,,left,1.0,0.8266321310075,,,,,sub-047,2,random_dot,61.86910145200656,
right,right,1.0,1.0,0.0,right,1.0,1.427133605000563,,accuracy,space,0.6194382769754156,,,,,,0.0,0.0,0.0,0.0,0.0,1.0,1.0,1.0,80.37086640897905,,,,,,,,,80.35508009599289,81.1542756180279,81.96786748903105,81.94426222302718,81.94465182902059,81.96786748903105,81.96786748903105,81.96786748903105,83.40536139602773,,,,,,,,,,,,,,,,,,,,,,,,,,,,,,right,1.0,1.427133605000563,,,,,sub-047,2,random_dot,61.86910145200656,
right,right,2.0,0.0,1.0,right,1.0,0.9440408279770054,,accuracy,space,0.6194382769754156,,,,,,0.0,0.0,0.0,0.0,1.0,0.0,2.0,1.0,83.42139788600616,,,,,,,,,83.40567402000306,83.75494065100793,84.55488964502001,84.53845129301772,84.53884038701653,84.55488964502001,84.55488964502001,84.55488964502001,85.50576864200411,,,,,,,,,,,,,,,,,,,,,,,,,,,,,,right,1.0,0.9440408279770054,,,,,sub-047,2,random_dot,61.86910145200656,
left,left,3.0,1.0,1.0,left,1.0,0.8449447029852308,,accuracy,space,0.6194382769754156,,,,,,0.0,0.0,0.0,0.0,1.0,1.0,3.0,0.0,85.52123649301939,,,,,,,,,85.50608316902071,85.62117524899077,86.42196997499559,86.40545753203332,86.40585432603257,86.42196997499559,86.42196997499559,86.42196997499559,87.27245878399117,,,,,,,,,,,,,,,,,,,,,,,,,,,,,,left,1.0,0.8449447029852308,,,,,sub-047,2,random_dot,61.86910145200656,
right,right,4.0,0.0,2.0,right,1.0,1.1786664110259153,,accuracy,space,0.6194382769754156,,,,,,0.0,0.0,0.0,0.0,2.0,0.0,4.0,1.0,87.28873524902156,,,,,,,,,87.27274648199091,88.07213097403292,88.8722569749807,88.85587502497947,88.8562654510024,88.8722569749807,88.8722569749807,88.8722569749807,90.05655208800454,,,,,,,,,,,,,,,,,,,,,,,,,,,,,,right,1.0,1.1786664110259153,,,,,sub-047,2,random_dot,61.86910145200656,
left,left,5.0,1.0,2.0,left,1.0,0.9149495079764164,,accuracy,space,0.6194382769754156,,,,,,0.0,0.0,0.0,0.0,2.0,1.0,5.0,0.0,90.07249380002033,,,,,,,,,90.05683699098881,90.85591223702068,91.65599264699269,91.6397037860006,91.64010006800528,91.65599264699269,91.65599264699269,91.65599264699269,92.5733527020202,,,,,,,,,,,,,,,,,,,,,,,,,,,,,,left,1.0,0.9149495079764164,,,,,sub-047,2,random_dot,61.86910145200656,
right,right,6.0,0.0,3.0,right,1.0,0.9098843639949336,,accuracy,space,0.6194382769754156,,,,,,0.0,0.0,0.0,0.0,3.0,0.0,6.0,1.0,92.5892906410154,,,,,,,,,92.57365537201986,93.77255981898634,94.5732484459877,94.5569203250343,94.55730833701092,94.5732484459877,94.5732484459877,94.5732484459877,95.49035968398675,,,,,,,,,,,,,,,,,,,,,,,,,,,,,,right,1.0,0.9098843639949336,,,,,sub-047,2,random_dot,61.86910145200656,
left,left,7.0,1.0,3.0,left,1.0,1.3685072279768065,,accuracy,space,0.6194382769754156,,,,,,0.0,0.0,0.0,0.0,3.0,1.0,7.0,0.0,95.51230958697852,,,,,,,,,95.4906730200164,96.6900585470139,97.49042559502412,97.47398220101604,97.47437386203092,97.49042559502412,97.49042559502412,97.49042559502412,98.87514615000693,,,,,,,,,,,,,,,,,,,,,,,,,,,,,,left,1.0,1.3685072279768065,,,,,sub-047,2,random_dot,61.86910145200656,
left,left,8.0,0.0,4.0,left,1.0,1.156098834995646,,accuracy,space,0.6194382769754156,,,,,,0.0,0.0,0.0,0.0,4.0,0.0,8.0,0.0,98.8906980099855,,,,,,,,,98.87558831699424,98.9908385699964,99.79096415202366,99.7745933480328,99.77498525299598,99.79096415202366,99.79096415202366,99.79096415202366,100.95841654500693,,,,,,,,,,,,,,,,,,,,,,,,,,,,,,left,1.0,1.156098834995646,,,,,sub-047,2,random_dot,61.86910145200656,
right,right,9.0,1.0,4.0,right,1.0,0.9358880440122448,,accuracy,space,0.6194382769754156,,,,,,0.0,0.0,0.0,0.0,4.0,1.0,9.0,1.0,100.97440347698284,,,,,,,,,100.9587296959944,101.75791930599372,102.5631959720049,102.54091163701378,102.54115518298931,102.5631959720049,102.5631959720049,102.5631959720049,103.50840876298024,,,,,,,,,,,,,,,,,,,,,,,,,,,,,,right,1.0,0.9358880440122448,,,,,sub-047,2,random_dot,61.86910145200656,
right,right,10.0,0.0,5.0,right,1.0,1.880530958995223,,accuracy,space,0.6194382769754156,,,,,,0.0,0.0,0.0,0.0,5.0,0.0,10.0,1.0,103.52488813502714,,,,,,,,,103.508721574035,103.85822886798996,104.6583997780108,104.6419418809819,104.64233473700006,104.6583997780108,104.6583997780108,104.6583997780108,106.5426524769864,,,,,,,,,,,,,,,,,,,,,,,,,,,,,,right,1.0,1.880530958995223,,,,,sub-047,2,random_dot,61.86910145200656,
left,left,11.0,1.0,5.0,left,1.0,0.904790423985105,,accuracy,space,0.6194382769754156,,,,,,0.0,0.0,0.0,0.0,5.0,1.0,11.0,0.0,106.5586401700275,,,,,,,,,106.5429625310353,106.6419836159912,107.44229112600442,107.42576242302312,107.4261560739833,107.44229112600442,107.44229112600442,107.44229112600442,108.36008132097776,,,,,,,,,,,,,,,,,,,,,,,,,,,,,,left,1.0,0.904790423985105,,,,,sub-047,2,random_dot,61.86910145200656,
left,left,12.0,0.0,6.0,left,1.0,1.304003887984436,,accuracy,space,0.6194382769754156,,,,,,0.0,0.0,0.0,0.0,6.0,0.0,12.0,0.0,108.37573170103131,,,,,,,,,108.3605048370082,108.47575545299333,109.29093651502626,109.26908840902615,109.26948073902167,109.29093651502626,109.29093651502626,109.29093651502626,110.6160389370052,,,,,,,,,,,,,,,,,,,,,,,,,,,,,,left,1.0,1.304003887984436,,,,,sub-047,2,random_dot,61.86910145200656,
right,right,13.0,1.0,6.0,right,1.0,0.8005617950111628,,accuracy,space,0.6194382769754156,,,,,,0.0,0.0,0.0,0.0,6.0,1.0,13.0,1.0,110.63457651698263,,,,,,,,,110.61646337702405,111.42619998002192,112.22636876400792,112.209967487026,112.21035743202084,112.22636876400792,112.22636876400792,112.22636876400792,113.04436383902794,,,,,,,,,,,,,,,,,,,,,,,,,,,,,,right,1.0,0.8005617950111628,,,,,sub-047,2,random_dot,61.86910145200656,
right,right,14.0,0.0,7.0,right,1.0,2.835784863040317,,accuracy,space,0.6194382769754156,,,,,,0.0,0.0,0.0,0.0,7.0,0.0,14.0,1.0,113.05978328798663,,,,,,,,,113.04478563100564,113.40987933799624,114.20990724198056,114.19371576799313,114.19412667897996,114.20990724198056,114.20990724198056,114.20990724198056,117.0606647550012,,,,,,,,,,,,,,,,,,,,,,,,,,,,,,right,1.0,2.835784863040317,,,,,sub-047,2,random_dot,61.86910145200656,
left,left,15.0,1.0,7.0,left,1.0,0.6808361420407891,,accuracy,space,0.6194382769754156,,,,,,0.0,0.0,0.0,0.0,7.0,1.0,15.0,0.0,117.07707309600664,,,,,,,,,117.06095591699705,118.2600993179949,119.06083665200276,119.04458017199067,119.04496897599893,119.06083665200276,119.06083665200276,119.06083665200276,119.74460701597854,,,,,,,,,,,,,,,,,,,,,,,,,,,,,,left,1.0,0.6808361420407891,,,,,sub-047,2,random_dot,61.86910145200656,
right,right,16.0,0.0,8.0,right,1.0,1.353504869970493,,accuracy,space,0.6194382769754156,,,,,,0.0,0.0,0.0,0.0,8.0,0.0,16.0,1.0,119.76082739199046,,,,,,,,,119.74487273400882,120.94407900702208,121.74421293998604,121.72764823702164,121.72791273798794,121.74421293998604,121.74421293998604,121.74421293998604,123.11211360199376,,,,,,,,,,,,,,,,,,,,,,,,,,,,,,right,1.0,1.353504869970493,,,,,sub-047,2,random_dot,61.86910145200656,
left,left,17.0,1.0,8.0,right,0.0,2.022404977993574,,accuracy,space,0.6194382769754156,,,,,,0.0,0.0,0.0,0.0,8.0,1.0,17.0,0.0,123.12829071702436,,,,,,,,,123.11242352699628,123.4615040430217,124.27529314497951,124.2520867100102,124.25247837102506,124.27529314497951,124.27529314497951,124.27529314497951,126.31305950100068,,,,,,,,,,,,,,,,,,,,,,,,,,,,,,right,0.0,2.022404977993574,,,,,sub-047,2,random_dot,61.86910145200656,
left,left,18.0,0.0,9.0,left,1.0,0.7453212310210802,,accuracy,space,0.6194382769754156,,,,,,0.0,0.0,0.0,0.0,9.0,0.0,18.0,0.0,126.32872148399474,,,,,,,,,126.3134855250246,127.11236805003136,127.912245273008,127.8960947500309,127.89648292399944,127.912245273008,127.912245273008,127.912245273008,128.66347142501036,,,,,,,,,,,,,,,,,,,,,,,,,,,,,,left,1.0,0.7453212310210802,,,,,sub-047,2,random_dot,61.86910145200656,
right,right,19.0,1.0,9.0,right,1.0,1.0504997039679438,,accuracy,space,0.6194382769754156,,,,,,0.0,0.0,0.0,0.0,9.0,1.0,19.0,1.0,128.67930260900175,,,,,,,,,128.66378627700033,129.8628717919928,130.66306544700635,130.64651865698397,130.6469066850259,130.66306544700635,130.66306544700635,130.66306544700635,131.730841571989,,,,,,,,,,,,,,,,,,,,,,,,,,,,,,right,1.0,1.0504997039679438,,,,,sub-047,2,random_dot,61.86910145200656,
right,right,20.0,0.0,10.0,left,0.0,1.0892354649840854,,accuracy,space,0.6194382769754156,,,,,,0.0,0.0,0.0,0.0,10.0,0.0,20.0,1.0,131.74627540400252,,,,,,,,,131.73126617103117,132.09639318700647,132.89646776299924,132.88007886899868,132.88046822301112,132.89646776299924,132.89646776299924,132.89646776299924,133.99739577103173,,,,,,,,,,,,,,,,,,,,,,,,,,,,,,left,0.0,1.0892354649840854,,,,,sub-047,2,random_dot,61.86910145200656,
left,left,21.0,1.0,10.0,left,1.0,0.7247100199456327,,accuracy,space,0.6194382769754156,,,,,,0.0,0.0,0.0,0.0,10.0,1.0,21.0,0.0,134.01341658300953,,,,,,,,,133.9977082510013,134.79686431598384,135.59685968700796,135.58026701002382,135.58057111297967,135.59685968700796,135.59685968700796,135.59685968700796,136.33089504903182,,,,,,,,,,,,,,,,,,,,,,,,,,,,,,left,1.0,0.7247100199456327,,,,,sub-047,2,random_dot,61.86910145200656,
left,left,22.0,0.0,11.0,left,1.0,1.0030970280058682,,accuracy,space,0.6194382769754156,,,,,,0.0,0.0,0.0,0.0,11.0,0.0,22.0,0.0,136.34715406800387,,,,,,,,,136.3312062380137,136.43040512898006,137.230576122005,137.2141021140269,137.21449549501995,137.230576122005,137.230576122005,137.230576122005,138.2482486910303,,,,,,,,,,,,,,,,,,,,,,,,,,,,,,left,1.0,1.0030970280058682,,,,,sub-047,2,random_dot,61.86910145200656,
right,right,23.0,1.0,11.0,right,1.0,0.6978445880231448,,accuracy,space,0.6194382769754156,,,,,,0.0,0.0,0.0,0.0,11.0,1.0,23.0,1.0,138.26399841799866,,,,,,,,,138.24856302898843,139.44764150603442,140.24770707002608,140.231192103005,140.23158111301018,140.24770707002608,140.24770707002608,140.24770707002608,140.96829111501577,,,,,,,,,,,,,,,,,,,,,,,,,,,,,,right,1.0,0.6978445880231448,,,,,sub-047,2,random_dot,61.86910145200656,
right,right,24.0,0.0,12.0,right,1.0,1.342222762003075,,accuracy,space,0.6194382769754156,,,,,,0.0,0.0,0.0,0.0,12.0,0.0,24.0,1.0,140.98359848099062,,,,,,,,,140.96873597003287,141.33116846700432,142.1314993739943,142.11496476299362,142.11535553401336,142.1314993739943,142.1314993739943,142.1314993739943,143.48192924802424,,,,,,,,,,,,,,,,,,,,,,,,,,,,,,right,1.0,1.342222762003075,,,,,sub-047,2,random_dot,61.86910145200656,
left,left,25.0,1.0,12.0,left,1.0,0.6795608309912495,,accuracy,space,0.6194382769754156,,,,,,0.0,0.0,0.0,0.0,12.0,1.0,25.0,0.0,143.49841916601872,,,,,,,,,143.48224068101263,144.281822600984,145.08195251098368,145.06537205597851,145.06576380500337,145.08195251098368,145.08195251098368,145.08195251098368,145.76557854400016,,,,,,,,,,,,,,,,,,,,,,,,,,,,,,left,1.0,0.6795608309912495,,,,,sub-047,2,random_dot,61.86910145200656,
left,left,26.0,0.0,13.0,left,1.0,1.1720039540086873,,accuracy,space,0.6194382769754156,,,,,,0.0,0.0,0.0,0.0,13.0,0.0,26.0,0.0,145.78163643699372,,,,,,,,,145.76582957903156,146.56552021001698,147.36568138201255,147.34910595900146,147.3494949740125,147.36568138201255,147.36568138201255,147.36568138201255,148.55521913198754,,,,,,,,,,,,,,,,,,,,,,,,,,,,,,left,1.0,1.1720039540086873,,,,,sub-047,2,random_dot,61.86910145200656,
right,right,27.0,1.0,13.0,right,1.0,0.6353913700440899,,accuracy,space,0.6194382769754156,,,,,,0.0,0.0,0.0,0.0,13.0,1.0,27.0,1.0,148.5726213559974,,,,,,,,,148.5556410300196,149.36605478200363,150.16617372701876,150.1496190560283,150.14992075099144,150.16617372701876,150.16617372701876,150.16617372701876,150.81763036601478,,,,,,,,,,,,,,,,,,,,,,,,,,,,,,right,1.0,0.6353913700440899,,,,,sub-047,2,random_dot,61.86910145200656,
right,right,28.0,0.0,14.0,right,1.0,1.3726033439743333,,accuracy,space,0.6194382769754156,,,,,,0.0,0.0,0.0,0.0,14.0,0.0,28.0,1.0,150.83306377701228,,,,,,,,,150.81805633200565,150.93321767402813,151.73310453700833,151.71690608700737,151.71729626803426,151.73310453700833,151.73310453700833,151.73310453700833,153.11717683001189,,,,,,,,,,,,,,,,,,,,,,,,,,,,,,right,1.0,1.3726033439743333,,,,,sub-047,2,random_dot,61.86910145200656,
left,left,29.0,1.0,14.0,left,1.0,0.743028130964376,,accuracy,space,0.6194382769754156,,,,,,0.0,0.0,0.0,0.0,14.0,1.0,29.0,0.0,153.13312734902138,,,,,,,,,153.11748971702764,153.46647309698164,154.26667909900425,154.25010943802772,154.25049846002366,154.26667909900425,154.26667909900425,154.26667909900425,155.01717221800936,,,,,,,,,,,,,,,,,,,,,,,,,,,,,,left,1.0,0.743028130964376,,,,,sub-047,2,random_dot,61.86910145200656,
left,left,30.0,0.0,15.0,left,1.0,0.8325936609762721,,accuracy,space,0.6194382769754156,,,,,,0.0,0.0,0.0,0.0,15.0,0.0,30.0,0.0,155.03354351699818,,,,,,,,,155.01748267601943,155.81682079698658,156.61708244099282,156.60071863100166,156.6011148079997,156.61708244099282,156.61708244099282,156.61708244099282,157.4595837200177,,,,,,,,,,,,,,,,,,,,,,,,,,,,,,left,1.0,0.8325936609762721,,,,,sub-047,2,random_dot,61.86910145200656,
right,right,31.0,1.0,15.0,right,1.0,1.1429253779933788,,accuracy,space,0.6194382769754156,,,,,,0.0,0.0,0.0,0.0,15.0,1.0,31.0,1.0,157.47708827099996,,,,,,,,,157.46000448003178,158.2675512030255,159.08277213497786,159.0604862209875,159.06087171297986,159.08277213497786,159.08277213497786,159.08277213497786,160.23521756898845,,,,,,,,,,,,,,,,,,,,,,,,,,,,,,right,1.0,1.1429253779933788,,,,,sub-047,2,random_dot,61.86910145200656,
left,left,32.0,0.0,16.0,left,1.0,0.7442158359917812,,accuracy,space,0.6194382769754156,,,,,,0.0,0.0,0.0,0.0,16.0,0.0,32.0,0.0,160.2513237260282,,,,,,,,,160.23552948603174,160.59226286102785,161.4013491270016,161.38493148097768,161.38532455899986,161.4013491270016,161.4013491270016,161.4013491270016,162.15200095798355,,,,,,,,,,,,,,,,,,,,,,,,,,,,,,left,1.0,0.7442158359917812,,,,,sub-047,2,random_dot,61.86910145200656,
right,right,33.0,1.0,16.0,right,1.0,0.9262550660059788,,accuracy,space,0.6194382769754156,,,,,,0.0,0.0,0.0,0.0,16.0,1.0,33.0,1.0,162.16790575702908,,,,,,,,,162.1523147179978,162.25130897201598,163.05144910200033,163.03504772903398,163.0354356750031,163.05144910200033,163.05144910200033,163.05144910200033,163.9853323409916,,,,,,,,,,,,,,,,,,,,,,,,,,,,,,right,1.0,0.9262550660059788,,,,,sub-047,2,random_dot,61.86910145200656,
right,right,34.0,0.0,17.0,left,0.0,0.752325784007553,,accuracy,space,0.6194382769754156,,,,,,0.0,0.0,0.0,0.0,17.0,0.0,34.0,1.0,164.00155670702225,,,,,,,,,163.98564398201415,165.18499417003477,165.98523879097775,165.9687648509862,165.9691724840086,165.98523879097775,165.98523879097775,165.98523879097775,166.753347587015,,,,,,,,,,,,,,,,,,,,,,,,,,,,,,left,0.0,0.752325784007553,,,,,sub-047,2,random_dot,61.86910145200656,
left,left,35.0,1.0,17.0,left,1.0,0.9014291880303062,,accuracy,space,0.6194382769754156,,,,,,0.0,0.0,0.0,0.0,17.0,1.0,35.0,0.0,166.76885246502934,,,,,,,,,166.75376917101676,166.8688427300076,167.68431942700408,167.66237221600022,167.66276221501175,167.68431942700408,167.68431942700408,167.68431942700408,168.5867419820279,,,,,,,,,,,,,,,,,,,,,,,,,,,,,,left,1.0,0.9014291880303062,,,,,sub-047,2,random_dot,61.86910145200656,
right,right,36.0,0.0,18.0,right,1.0,0.8916094719897956,,accuracy,space,0.6194382769754156,,,,,,0.0,0.0,0.0,0.0,18.0,0.0,36.0,1.0,168.60266599297756,,,,,,,,,168.5870410450152,168.68594088201644,169.4860895529855,169.46963340602815,169.470021043031,169.4860895529855,169.4860895529855,169.4860895529855,170.38665204000426,,,,,,,,,,,,,,,,,,,,,,,,,,,,,,right,1.0,0.8916094719897956,,,,,sub-047,2,random_dot,61.86910145200656,
left,left,37.0,1.0,18.0,left,1.0,0.9430167020182124,,accuracy,space,0.6194382769754156,,,,,,0.0,0.0,0.0,0.0,18.0,1.0,37.0,0.0,170.40283447201364,,,,,,,,,170.38696470297873,171.18628791801166,171.9866709309863,171.97015905502485,171.97054952703184,171.9866709309863,171.9866709309863,171.9866709309863,172.93690681399312,,,,,,,,,,,,,,,,,,,,,,,,,,,,,,left,1.0,0.9430167020182124,,,,,sub-047,2,random_dot,61.86910145200656,
left,left,38.0,0.0,19.0,left,1.0,0.876922496012412,,accuracy,space,0.6194382769754156,,,,,,0.0,0.0,0.0,0.0,19.0,0.0,38.0,0.0,172.95319794601528,,,,,,,,,172.93721600202844,173.03654474701034,173.8366552279913,173.82027127197944,173.82067983300658,173.8366552279913,173.8366552279913,173.8366552279913,174.72073192498647,,,,,,,,,,,,,,,,,,,,,,,,,,,,,,left,1.0,0.876922496012412,,,,,sub-047,2,random_dot,61.86910145200656,
right,right,39.0,1.0,19.0,right,1.0,0.939233182987664,,accuracy,space,0.6194382769754156,,,,,,0.0,0.0,0.0,0.0,19.0,1.0,39.0,1.0,174.73663042898988,,,,,,,,,174.72104536398547,175.07029366702773,175.87044412398245,175.85382365400437,175.85421005799435,175.87044412398245,175.87044412398245,175.87044412398245,176.8212808939861,,,,,,,,,,,,,,,,,,,,,,,,,,,,,,right,1.0,0.939233182987664,,,,,sub-047,2,random_dot,61.86910145200656,
left,left,40.0,0.0,20.0,left,1.0,0.7247390249976888,,accuracy,space,0.6194382769754156,,,,,,0.0,0.0,0.0,0.0,20.0,0.0,40.0,0.0,176.83695943199564,,,,,,,,,176.8215950540034,178.020801442035,178.82096208701842,178.80451107403496,178.80490006599575,178.82096208701842,178.82096208701842,178.82096208701842,179.55510493199108,,,,,,,,,,,,,,,,,,,,,,,,,,,,,,left,1.0,0.7247390249976888,,,,,sub-047,2,random_dot,61.86910145200656,
right,right,41.0,1.0,20.0,right,1.0,0.7789530199952424,,accuracy,space,0.6194382769754156,,,,,,0.0,0.0,0.0,0.0,20.0,1.0,41.0,1.0,179.57123648701236,,,,,,,,,179.55541573802475,179.65470202598954,180.45461206301115,180.43834448698908,180.43875689501877,180.45461206301115,180.45461206301115,180.45461206301115,181.2388714050176,,,,,,,,,,,,,,,,,,,,,,,,,,,,,,right,1.0,0.7789530199952424,,,,,sub-047,2,random_dot,61.86910145200656,
right,right,42.0,0.0,21.0,right,1.0,1.0666669129859656,,accuracy,space,0.6194382769754156,,,,,,0.0,0.0,0.0,0.0,21.0,0.0,42.0,1.0,181.2548596580164,,,,,,,,,181.2391784710344,182.03810779203195,182.83891188399863,182.8217083780328,182.8220937459846,182.83891188399863,182.83891188399863,182.83891188399863,183.92287277901775,,,,,,,,,,,,,,,,,,,,,,,,,,,,,,right,1.0,1.0666669129859656,,,,,sub-047,2,random_dot,61.86910145200656,
left,left,43.0,1.0,21.0,left,1.0,0.6650535430526361,,accuracy,space,0.6194382769754156,,,,,,0.0,0.0,0.0,0.0,21.0,1.0,43.0,0.0,183.93842587800464,,,,,,,,,183.92332884803184,184.2797517820145,185.08863275003387,185.0720987980021,185.0724919940112,185.08863275003387,185.08863275003387,185.08863275003387,185.76629089697963,,,,,,,,,,,,,,,,,,,,,,,,,,,,,,left,1.0,0.6650535430526361,,,,,sub-047,2,random_dot,61.86910145200656,
left,left,44.0,0.0,22.0,left,1.0,1.4212044110172428,,accuracy,space,0.6194382769754156,,,,,,0.0,0.0,0.0,0.0,22.0,0.0,44.0,0.0,185.78193579101932,,,,,,,,,185.76674569398165,186.57239603699415,187.3724530609907,187.35871762101303,187.3590222200146,187.3724530609907,187.3724530609907,187.3724530609907,188.81067839101888,,,,,,,,,,,,,,,,,,,,,,,,,,,,,,left,1.0,1.4212044110172428,,,,,sub-047,2,random_dot,61.86910145200656,
right,right,45.0,1.0,22.0,right,1.0,0.7889250800362788,,accuracy,space,0.6194382769754156,,,,,,0.0,0.0,0.0,0.0,22.0,1.0,45.0,1.0,188.8257067630184,,,,,,,,,188.81110043998345,189.1726220310084,189.97277057601605,189.95627047203016,189.95665866398485,189.97277057601605,189.97277057601605,189.97277057601605,190.7647238150239,,,,,,,,,,,,,,,,,,,,,,,,,,,,,,right,1.0,0.7889250800362788,,,,,sub-047,2,random_dot,61.86910145200656,
left,left,46.0,0.0,23.0,left,1.0,1.1012461589998566,,accuracy,space,0.6194382769754156,,,,,,0.0,0.0,0.0,0.0,23.0,0.0,46.0,0.0,190.7786159919924,,,,,,,,,190.76501056802223,191.57323836401335,192.3884595730342,192.36671198002296,192.36710599600335,192.3884595730342,192.3884595730342,192.3884595730342,193.4908720580279,,,,,,,,,,,,,,,,,,,,,,,,,,,,,,left,1.0,1.1012461589998566,,,,,sub-047,2,random_dot,61.86910145200656,
right,right,47.0,1.0,23.0,right,1.0,0.9235636590165086,,accuracy,space,0.6194382769754156,,,,,,0.0,0.0,0.0,0.0,23.0,1.0,47.0,1.0,193.50672723102616,,,,,,,,,193.49115715298103,193.5900924720336,194.39021596999373,194.37375674798383,194.3741441380116,194.39021596999373,194.39021596999373,194.39021596999373,195.32436209300067,,,,,,,,,,,,,,,,,,,,,,,,,,,,,,right,1.0,0.9235636590165086,,,,,sub-047,2,random_dot,61.86910145200656,
left,left,48.0,0.0,24.0,left,1.0,1.0017550489865243,,accuracy,space,0.6194382769754156,,,,,,0.0,0.0,0.0,0.0,24.0,0.0,48.0,0.0,195.34027450502617,,,,,,,,,195.3246753209969,195.4237401849823,196.223812790995,196.207358560001,196.20774974301457,196.223812790995,196.223812790995,196.223812790995,197.24195606203284,,,,,,,,,,,,,,,,,,,,,,,,,,,,,,left,1.0,1.0017550489865243,,,,,sub-047,2,random_dot,61.86910145200656,
right,right,49.0,1.0,24.0,right,1.0,1.1117580959689803,,accuracy,space,0.6194382769754156,,,,,,0.0,0.0,0.0,0.0,24.0,1.0,49.0,1.0,197.25732911698287,,,,,,,,,197.24237679003272,198.457545872021,199.25780672603287,199.24150971497875,199.24189991602907,199.25780672603287,199.25780672603287,199.25780672603287,200.37148099503247,,,,,,,,,,,,,,,,,,,,,,,,,,,,,,right,1.0,1.1117580959689803,,,,,sub-047,2,random_dot,61.86910145200656,
right,right,50.0,0.0,25.0,right,1.0,1.430839164997451,,accuracy,space,0.6194382769754156,,,,,,0.0,0.0,0.0,0.0,25.0,0.0,50.0,1.0,200.385156252014,,,,,,,,,200.37178238900376,200.47468662599567,201.27479318599217,201.25832677603464,201.25871391798137,201.27479318599217,201.27479318599217,201.27479318599217,202.7090410339879,,,,,,,,,,,,,,,,,,,,,,,,,,,,,,right,1.0,1.430839164997451,,,,,sub-047,2,random_dot,61.86910145200656,
left,left,51.0,1.0,25.0,left,1.0,1.8170213660341688,,accuracy,space,0.6194382769754156,,,,,,0.0,0.0,0.0,0.0,25.0,1.0,51.0,0.0,202.72512688400457,,,,,,,,,202.7093458219897,202.80840062903007,203.60858026501955,203.5921332440339,203.59252383199052,203.60858026501955,203.60858026501955,203.60858026501955,205.4479850010248,,,,,,,,,,,,,,,,,,,,,,,,,,,,,,left,1.0,1.8170213660341688,,,,,sub-047,2,random_dot,61.86910145200656,
left,left,52.0,0.0,26.0,left,1.0,1.4471350489766337,,accuracy,space,0.6194382769754156,,,,,,0.0,0.0,0.0,0.0,26.0,0.0,52.0,0.0,205.4665745450184,,,,,,,,,205.4484090670012,206.6590769279865,207.47442745801527,207.4530260459869,207.45341402600752,207.47442745801527,207.47442745801527,207.47442745801527,208.9423493730137,,,,,,,,,,,,,,,,,,,,,,,,,,,,,,left,1.0,1.4471350489766337,,,,,sub-047,2,random_dot,61.86910145200656,
right,right,53.0,1.0,26.0,right,1.0,1.2067814429756254,,accuracy,space,0.6194382769754156,,,,,,0.0,0.0,0.0,0.0,26.0,1.0,53.0,1.0,208.9578212089837,,,,,,,,,208.9427769850008,209.0428440709948,209.8429801790044,209.8266103210044,209.82699813699583,209.8429801790044,209.8429801790044,209.8429801790044,211.0600697179907,,,,,,,,,,,,,,,,,,,,,,,,,,,,,,right,1.0,1.2067814429756254,,,,,sub-047,2,random_dot,61.86910145200656,
left,left,54.0,0.0,27.0,left,1.0,1.71968962601386,,accuracy,space,0.6194382769754156,,,,,,0.0,0.0,0.0,0.0,27.0,0.0,54.0,0.0,211.0764678320265,,,,,,,,,211.0603836500086,211.4099279459915,212.21002861403397,212.19362184702183,212.1940088790143,212.21002861403397,212.21002861403397,212.21002861403397,213.9321893369779,,,,,,,,,,,,,,,,,,,,,,,,,,,,,,left,1.0,1.71968962601386,,,,,sub-047,2,random_dot,61.86910145200656,
right,right,55.0,1.0,27.0,left,0.0,1.805888368980959,,accuracy,space,0.6194382769754156,,,,,,0.0,0.0,0.0,0.0,27.0,1.0,55.0,1.0,213.94998408301035,,,,,,,,,213.9324712859816,214.03291169001025,214.8438200270175,214.82731378398603,214.82770119502675,214.8438200270175,214.8438200270175,214.8438200270175,216.66134504700312,,,,,,,,,,,,,,,,,,,,,,,,,,,,,,left,0.0,1.805888368980959,,,,,sub-047,2,random_dot,61.86910145200656,
left,left,56.0,0.0,28.0,left,1.0,1.5087923150276763,,accuracy,space,0.6194382769754156,,,,,,0.0,0.0,0.0,0.0,28.0,0.0,56.0,0.0,216.67740893299924,,,,,,,,,216.661654148018,217.86067294201348,218.66093208600068,218.644719014992,218.6451141249854,218.66093208600068,218.66093208600068,218.66093208600068,220.17845817300255,,,,,,,,,,,,,,,,,,,,,,,,,,,,,,left,1.0,1.5087923150276763,,,,,sub-047,2,random_dot,61.86910145200656,
right,right,57.0,1.0,28.0,right,1.0,0.8809676599921659,,accuracy,space,0.6194382769754156,,,,,,0.0,0.0,0.0,0.0,28.0,1.0,57.0,1.0,220.1945136769791,,,,,,,,,220.1787673989893,220.5356198010268,221.34464951901464,221.3281784140272,221.32856826198983,221.34464951901464,221.34464951901464,221.34464951901464,222.2288960170117,,,,,,,,,,,,,,,,,,,,,,,,,,,,,,right,1.0,0.8809676599921659,,,,,sub-047,2,random_dot,61.86910145200656,
right,right,58.0,0.0,29.0,right,1.0,2.230808107997291,,accuracy,space,0.6194382769754156,,,,,,0.0,0.0,0.0,0.0,29.0,0.0,58.0,1.0,222.2451217630296,,,,,,,,,222.22918026702249,223.02854918700177,223.8286067720037,223.81213649600977,223.81252541899448,223.8286067720037,223.8286067720037,223.8286067720037,226.0628910550149,,,,,,,,,,,,,,,,,,,,,,,,,,,,,,right,1.0,2.230808107997291,,,,,sub-047,2,random_dot,61.86910145200656,
left,left,59.0,1.0,29.0,left,1.0,1.993326214957051,,accuracy,space,0.6194382769754156,,,,,,0.0,0.0,0.0,0.0,29.0,1.0,59.0,0.0,226.07891134702368,,,,,,,,,226.06319563498252,226.86249199102167,227.6626652670093,227.6460560610285,227.64644361002135,227.6626652670093,227.6626652670093,227.6626652670093,229.66317781299583,,,,,,,,,,,,,,,,,,,,,,,,,,,,,,left,1.0,1.993326214957051,,,,,sub-047,2,random_dot,61.86910145200656,
,,0.0,0.0,0.0,,,,,accuracy,space,0.6194382769754156,,,,,,0.0,0.0,0.0,0.0,,,,,,,,,,,,,,,,,,,,,,,,,,,,,,,,,,,,,,,,,,,,,,,,,,,,,,,,,,,sub-047,2,random_dot,61.86910145200656,
right,right,0.0,0.0,0.0,right,1.0,0.6709935370017774,,speed,space,2.790405576990452,,,,,,0.0,1.0,1.0,1.0,0.0,0.0,0.0,1.0,232.4968610770302,,,,,,,,,232.4855396170169,233.2898580880137,234.097104393004,234.08075485599693,234.0811464189901,234.097104393004,234.097104393004,234.097104393004,234.7813194670016,,,,,,,,,,,,,,,,,,,,,,,229.6727562919841,229.6817049210076,229.6817049210076,232.48081244301284,space,2.790405576990452,,right,1.0,0.6709935370017774,,,,,sub-047,2,random_dot,61.86910145200656,
left,left,1.0,1.0,0.0,left,1.0,0.5792407850385644,,speed,space,2.790405576990452,,,,,,0.0,1.0,1.0,1.0,0.0,1.0,1.0,0.0,234.79738815000744,,,,,,,,,234.7816341490252,235.98070333799117,236.78072159102885,236.7643631370156,236.76475789700635,236.78072159102885,236.78072159102885,236.78072159102885,237.36485164699843,,,,,,,,,,,,,,,,,,,,,,,,,,,,,,left,1.0,0.5792407850385644,,,,,sub-047,2,random_dot,61.86910145200656,
left,left,2.0,0.0,1.0,left,1.0,0.7155719539732672,,speed,space,2.790405576990452,,,,,,0.0,1.0,1.0,1.0,1.0,0.0,2.0,0.0,237.38072433701015,,,,,,,,,237.3651620420278,238.1642764150165,238.96438861999195,238.94808791403196,238.94847480999303,238.96438861999195,238.96438861999195,238.96438861999195,239.68181095900945,,,,,,,,,,,,,,,,,,,,,,,,,,,,,,left,1.0,0.7155719539732672,,,,,sub-047,2,random_dot,61.86910145200656,
right,right,3.0,1.0,1.0,right,1.0,0.654362908040639,,speed,space,2.790405576990452,,,,,,0.0,1.0,1.0,1.0,1.0,1.0,3.0,1.0,239.6980197770172,,,,,,,,,239.68212406500243,240.88151508400915,241.68173888500317,241.6651820209809,241.66557294200172,241.68173888500317,241.68173888500317,241.68173888500317,242.3489839070244,,,,,,,,,,,,,,,,,,,,,,,,,,,,,,right,1.0,0.654362908040639,,,,,sub-047,2,random_dot,61.86910145200656,
left,left,4.0,0.0,2.0,left,1.0,0.629556248022709,,speed,space,2.790405576990452,,,,,,0.0,1.0,1.0,1.0,2.0,0.0,4.0,0.0,242.36505274201045,,,,,,,,,242.34929404198192,242.69831014599183,243.4984769609873,243.48228191101225,243.4826703339932,243.4984769609873,243.4984769609873,243.4984769609873,244.13106466602767,,,,,,,,,,,,,,,,,,,,,,,,,,,,,,left,1.0,0.629556248022709,,,,,sub-047,2,random_dot,61.86910145200656,
right,right,5.0,1.0,2.0,right,1.0,0.7559298590058461,,speed,space,2.790405576990452,,,,,,0.0,1.0,1.0,1.0,2.0,1.0,5.0,1.0,244.1466772260028,,,,,,,,,244.1313509470201,245.3319713210221,246.1321492419811,246.11569267400773,246.11608327401336,246.1321492419811,246.1321492419811,246.1321492419811,246.8997614780092,,,,,,,,,,,,,,,,,,,,,,,,,,,,,,right,1.0,0.7559298590058461,,,,,sub-047,2,random_dot,61.86910145200656,
left,left,6.0,0.0,3.0,left,1.0,0.7398476179805584,,speed,space,2.790405576990452,,,,,,0.0,1.0,1.0,1.0,3.0,0.0,6.0,0.0,246.9159081139951,,,,,,,,,246.90007178101223,248.1014965369832,248.91623270499983,248.89970263798023,248.90009400399867,248.91623270499983,248.91623270499983,248.91623270499983,249.66710514802253,,,,,,,,,,,,,,,,,,,,,,,,,,,,,,left,1.0,0.7398476179805584,,,,,sub-047,2,random_dot,61.86910145200656,
right,right,7.0,1.0,3.0,right,1.0,1.025648266018834,,speed,space,2.790405576990452,,,,,,0.0,1.0,1.0,1.0,3.0,1.0,7.0,1.0,249.68322162301047,,,,,,,,,249.6674161269912,249.7665530469967,250.56645906198537,250.55018454400124,250.5505758440122,250.56645906198537,250.56645906198537,250.56645906198537,251.6004874340142,,,,,,,,,,,,,,,,,,,,,,,,,,,,,,right,1.0,1.025648266018834,,,,,sub-047,2,random_dot,61.86910145200656,
left,left,8.0,0.0,4.0,left,1.0,0.6502593799959868,,speed,space,2.790405576990452,,,,,,0.0,1.0,1.0,1.0,4.0,0.0,8.0,0.0,251.6166742939968,,,,,,,,,251.60079895099625,252.40016239898975,253.21370264299912,253.19047548499657,253.1908643229981,253.21370264299912,253.21370264299912,253.21370264299912,253.86770664301,,,,,,,,,,,,,,,,,,,,,,,,,,,,,,left,1.0,0.6502593799959868,,,,,sub-047,2,random_dot,61.86910145200656,
right,right,9.0,1.0,4.0,right,1.0,0.7249080049805343,,speed,space,2.790405576990452,,,,,,0.0,1.0,1.0,1.0,4.0,1.0,9.0,1.0,253.8839225480333,,,,,,,,,253.8680060069892,254.6671186320018,255.4671854180051,255.4510163840023,255.4514266339829,255.4671854180051,255.4671854180051,255.4671854180051,256.20147964701755,,,,,,,,,,,,,,,,,,,,,,,,,,,,,,right,1.0,0.7249080049805343,,,,,sub-047,2,random_dot,61.86910145200656,
left,left,10.0,0.0,5.0,left,1.0,0.6469178080442362,,speed,space,2.790405576990452,,,,,,0.0,1.0,1.0,1.0,5.0,0.0,10.0,0.0,256.21764675999293,,,,,,,,,256.20178637001663,257.0009822360007,257.8010450970032,257.7846644910169,257.7850579310325,257.8010450970032,257.8010450970032,257.8010450970032,258.45175847801147,,,,,,,,,,,,,,,,,,,,,,,,,,,,,,left,1.0,0.6469178080442362,,,,,sub-047,2,random_dot,61.86910145200656,
right,right,11.0,1.0,5.0,right,1.0,0.6204447200288996,,speed,space,2.790405576990452,,,,,,0.0,1.0,1.0,1.0,5.0,1.0,11.0,1.0,258.46781515702605,,,,,,,,,258.4520665369928,259.65140512998914,260.4516566729872,260.435292234004,260.4356798750232,260.4516566729872,260.4516566729872,260.4516566729872,261.0857357439818,,,,,,,,,,,,,,,,,,,,,,,,,,,,,,right,1.0,0.6204447200288996,,,,,sub-047,2,random_dot,61.86910145200656,
right,right,12.0,0.0,6.0,left,0.0,0.8768607559613883,,speed,space,2.790405576990452,,,,,,0.0,1.0,1.0,1.0,6.0,0.0,12.0,1.0,261.1017445210018,,,,,,,,,261.0860447739833,261.4349529140163,262.2351522570243,262.2186066110153,262.21899194503203,262.2351522570243,262.2351522570243,262.2351522570243,263.1191834009951,,,,,,,,,,,,,,,,,,,,,,,,,,,,,,left,0.0,0.8768607559613883,,,,,sub-047,2,random_dot,61.86910145200656,
left,left,13.0,1.0,6.0,left,1.0,0.9609048750135116,,speed,space,2.790405576990452,,,,,,0.0,1.0,1.0,1.0,6.0,1.0,13.0,0.0,263.1352701209835,,,,,,,,,263.1194916770328,264.3187219880056,265.1190567250014,265.10254678002093,265.1029371760087,265.1190567250014,265.1190567250014,265.1190567250014,266.08683425199706,,,,,,,,,,,,,,,,,,,,,,,,,,,,,,left,1.0,0.9609048750135116,,,,,sub-047,2,random_dot,61.86910145200656,
right,right,14.0,0.0,7.0,right,1.0,0.5855102330096997,,speed,space,2.790405576990452,,,,,,0.0,1.0,1.0,1.0,7.0,0.0,14.0,1.0,266.1027367670322,,,,,,,,,266.0871538359788,266.89380948402686,267.70254662202206,267.6861359020113,267.68652317201486,267.70254662202206,267.70254662202206,267.70254662202206,268.3023614260019,,,,,,,,,,,,,,,,,,,,,,,,,,,,,,right,1.0,0.5855102330096997,,,,,sub-047,2,random_dot,61.86910145200656,
left,left,15.0,1.0,7.0,left,1.0,0.7645919720525853,,speed,space,2.790405576990452,,,,,,0.0,1.0,1.0,1.0,7.0,1.0,15.0,0.0,268.3177602090291,,,,,,,,,268.30277997098165,268.41263370699016,269.2194765540189,269.20302586402977,269.20341588399606,269.2194765540189,269.2194765540189,269.2194765540189,269.9868375780061,,,,,,,,,,,,,,,,,,,,,,,,,,,,,,left,1.0,0.7645919720525853,,,,,sub-047,2,random_dot,61.86910145200656,
left,left,16.0,0.0,8.0,right,0.0,1.4406250179745257,,speed,space,2.790405576990452,,,,,,0.0,1.0,1.0,1.0,8.0,0.0,16.0,0.0,270.00300463702297,,,,,,,,,269.9871227730182,271.1864878400229,271.9913373599993,271.9800701640197,271.98045888199704,271.9913373599993,271.9913373599993,271.9913373599993,273.4423645490315,,,,,,,,,,,,,,,,,,,,,,,,,,,,,,right,0.0,1.4406250179745257,,,,,sub-047,2,random_dot,61.86910145200656,
right,right,17.0,1.0,8.0,right,1.0,1.950218905985821,,speed,space,2.790405576990452,,,,,,0.0,1.0,1.0,1.0,8.0,1.0,17.0,1.0,273.46098352898844,,,,,,,,,273.44278474798193,273.55377083300846,274.35386714700144,274.3374759199796,274.3378634470282,274.35386714700144,274.35386714700144,274.35386714700144,276.3050255670096,,,,,,,,,,,,,,,,,,,,,,,,,,,,,,right,1.0,1.950218905985821,,,,,sub-047,2,random_dot,61.86910145200656,
right,right,18.0,0.0,9.0,right,1.0,2.3616469179978594,,speed,space,2.790405576990452,,,,,,0.0,1.0,1.0,1.0,9.0,0.0,18.0,1.0,276.3207576699788,,,,,,,,,276.3053086720174,276.6541919520241,277.4543102629832,277.4378950870014,277.43828447000124,277.4543102629832,277.4543102629832,277.4543102629832,279.82227796898223,,,,,,,,,,,,,,,,,,,,,,,,,,,,,,right,1.0,2.3616469179978594,,,,,sub-047,2,random_dot,61.86910145200656,
left,left,19.0,1.0,9.0,left,1.0,0.9462504729744978,,speed,space,2.790405576990452,,,,,,0.0,1.0,1.0,1.0,9.0,1.0,19.0,0.0,279.8418032170157,,,,,,,,,279.82258989999536,280.621549153002,281.4217543079867,281.4052099760156,281.4056193450233,281.4217543079867,281.4217543079867,281.4217543079867,282.3729516780004,,,,,,,,,,,,,,,,,,,,,,,,,,,,,,left,1.0,0.9462504729744978,,,,,sub-047,2,random_dot,61.86910145200656,
left,left,20.0,0.0,10.0,right,0.0,1.702086085046176,,speed,space,2.790405576990452,,,,,,0.0,1.0,1.0,1.0,10.0,0.0,20.0,0.0,282.38867214601487,,,,,,,,,282.3732283220161,282.73864563100506,283.5538695360301,283.5318420770345,283.5322276829975,283.5538695360301,283.5538695360301,283.5538695360301,285.2735686720116,,,,,,,,,,,,,,,,,,,,,,,,,,,,,,right,0.0,1.702086085046176,,,,,sub-047,2,random_dot,61.86910145200656,
right,right,21.0,1.0,10.0,right,1.0,1.8386485959636047,,speed,space,2.790405576990452,,,,,,0.0,1.0,1.0,1.0,10.0,1.0,21.0,1.0,285.2890230430057,,,,,,,,,285.2740102080279,286.0892207539873,286.8894348770264,286.8728276570328,286.8732133450103,286.8894348770264,286.8894348770264,286.8894348770264,288.74000468599843,,,,,,,,,,,,,,,,,,,,,,,,,,,,,,right,1.0,1.8386485959636047,,,,,sub-047,2,random_dot,61.86910145200656,
left,left,22.0,0.0,11.0,left,1.0,0.6594097609631717,,speed,space,2.790405576990452,,,,,,0.0,1.0,1.0,1.0,11.0,0.0,22.0,0.0,288.75633060198743,,,,,,,,,288.7403131109895,289.9459953309852,290.7566938290256,290.74049746000674,290.7408872420201,290.7566938290256,290.7566938290256,290.7566938290256,291.42367917398224,,,,,,,,,,,,,,,,,,,,,,,,,,,,,,left,1.0,0.6594097609631717,,,,,sub-047,2,random_dot,61.86910145200656,
right,right,23.0,1.0,11.0,right,1.0,1.167320678010583,,speed,space,2.790405576990452,,,,,,0.0,1.0,1.0,1.0,11.0,1.0,23.0,1.0,291.44560026802355,,,,,,,,,291.4239858050132,292.6319785970263,293.44064061000245,293.424194258987,293.4245839070063,293.44064061000245,293.44064061000245,293.44064061000245,294.6246304840315,,,,,,,,,,,,,,,,,,,,,,,,,,,,,,right,1.0,1.167320678010583,,,,,sub-047,2,random_dot,61.86910145200656,
right,right,24.0,0.0,12.0,right,1.0,1.3918836200027729,,speed,space,2.790405576990452,,,,,,0.0,1.0,1.0,1.0,12.0,0.0,24.0,1.0,294.6407105230028,,,,,,,,,294.6249414960039,295.4240989490063,296.2241849059937,296.20780484197894,296.20819404901704,296.2241849059937,296.2241849059937,296.2241849059937,297.62472396099474,,,,,,,,,,,,,,,,,,,,,,,,,,,,,,right,1.0,1.3918836200027729,,,,,sub-047,2,random_dot,61.86910145200656,
left,left,25.0,1.0,12.0,left,1.0,0.8872728060232475,,speed,space,2.790405576990452,,,,,,0.0,1.0,1.0,1.0,12.0,1.0,25.0,0.0,297.64118404500186,,,,,,,,,297.62503352202475,298.82463724398986,299.62482566799736,299.6085523950169,299.6089436360053,299.62482566799736,299.62482566799736,299.62482566799736,300.52601192402653,,,,,,,,,,,,,,,,,,,,,,,,,,,,,,left,1.0,0.8872728060232475,,,,,sub-047,2,random_dot,61.86910145200656,
left,left,26.0,0.0,13.0,left,1.0,0.8261737870052457,,speed,space,2.790405576990452,,,,,,0.0,1.0,1.0,1.0,13.0,0.0,26.0,0.0,300.5416021650308,,,,,,,,,300.5264315510285,301.3416766250157,302.14183584903367,302.1254386139917,302.1258284819778,302.14183584903367,302.14183584903367,302.14183584903367,302.97615670599043,,,,,,,,,,,,,,,,,,,,,,,,,,,,,,left,1.0,0.8261737870052457,,,,,sub-047,2,random_dot,61.86910145200656,
right,right,27.0,1.0,13.0,right,1.0,0.8918621910270303,,speed,space,2.790405576990452,,,,,,0.0,1.0,1.0,1.0,13.0,1.0,27.0,1.0,302.9922868440044,,,,,,,,,302.9764670050354,303.0824611550197,303.89226067700656,303.8758328509866,303.87621912098257,303.89226067700656,303.89226067700656,303.89226067700656,304.792911135999,,,,,,,,,,,,,,,,,,,,,,,,,,,,,,right,1.0,0.8918621910270303,,,,,sub-047,2,random_dot,61.86910145200656,
right,right,28.0,0.0,14.0,right,1.0,1.5352685749530792,,speed,space,2.790405576990452,,,,,,0.0,1.0,1.0,1.0,14.0,0.0,28.0,1.0,304.80900487402687,,,,,,,,,304.7932251649909,305.99275646102615,306.79269363201456,306.77653216099134,306.7769204180222,306.79269363201456,306.79269363201456,306.79269363201456,308.34412856202107,,,,,,,,,,,,,,,,,,,,,,,,,,,,,,right,1.0,1.5352685749530792,,,,,sub-047,2,random_dot,61.86910145200656,
left,left,29.0,1.0,14.0,right,0.0,1.46804363100091,,speed,space,2.790405576990452,,,,,,0.0,1.0,1.0,1.0,14.0,1.0,29.0,0.0,308.3596895540249,,,,,,,,,308.344547390996,308.4596762220026,309.2599206119776,309.2435413610074,309.24393580202013,309.2599206119776,309.2599206119776,309.2599206119776,310.7440440549981,,,,,,,,,,,,,,,,,,,,,,,,,,,,,,right,0.0,1.46804363100091,,,,,sub-047,2,random_dot,61.86910145200656,
left,left,30.0,0.0,15.0,left,1.0,0.7923661940149032,,speed,space,2.790405576990452,,,,,,0.0,1.0,1.0,1.0,15.0,0.0,30.0,0.0,310.76008214999456,,,,,,,,,310.7443559030071,311.5437160070287,312.3436591640348,312.32739804900484,312.3277907859883,312.3436591640348,312.3436591640348,312.3436591640348,313.1429924130207,,,,,,,,,,,,,,,,,,,,,,,,,,,,,,left,1.0,0.7923661940149032,,,,,sub-047,2,random_dot,61.86910145200656,
right,right,31.0,1.0,15.0,right,1.0,0.7718887170194648,,speed,space,2.790405576990452,,,,,,0.0,1.0,1.0,1.0,15.0,1.0,31.0,1.0,313.1584145650268,,,,,,,,,313.1433033149806,313.25341144099366,314.0600506530027,314.04348659398966,314.04373516101623,314.0600506530027,314.0600506530027,314.0600506530027,314.84448979003355,,,,,,,,,,,,,,,,,,,,,,,,,,,,,,right,1.0,0.7718887170194648,,,,,sub-047,2,random_dot,61.86910145200656,
right,right,32.0,0.0,16.0,right,1.0,1.3601136860088443,,speed,space,2.790405576990452,,,,,,0.0,1.0,1.0,1.0,16.0,0.0,32.0,1.0,314.8601541660028,,,,,,,,,314.8448748019873,314.9436270510196,315.7439882939798,315.72785665199626,315.7282447129837,315.7439882939798,315.7439882939798,315.7439882939798,317.11165854200954,,,,,,,,,,,,,,,,,,,,,,,,,,,,,,right,1.0,1.3601136860088443,,,,,sub-047,2,random_dot,61.86910145200656,
left,left,33.0,1.0,16.0,left,1.0,0.7759764459915459,,speed,space,2.790405576990452,,,,,,0.0,1.0,1.0,1.0,16.0,1.0,33.0,0.0,317.12782504502684,,,,,,,,,317.1119718350237,318.31692198099336,319.1280167159857,319.1118755689822,319.1122660340043,319.1280167159857,319.1280167159857,319.1280167159857,319.9122893860331,,,,,,,,,,,,,,,,,,,,,,,,,,,,,,left,1.0,0.7759764459915459,,,,,sub-047,2,random_dot,61.86910145200656,
right,right,34.0,0.0,17.0,right,1.0,0.7035260879783891,,speed,space,2.790405576990452,,,,,,0.0,1.0,1.0,1.0,17.0,0.0,34.0,1.0,319.9284524110262,,,,,,,,,319.9125986029976,320.7278298410238,321.52857628598576,321.5123002670007,321.5126917900052,321.52857628598576,321.52857628598576,321.52857628598576,322.24613558797864,,,,,,,,,,,,,,,,,,,,,,,,,,,,,,right,1.0,0.7035260879783891,,,,,sub-047,2,random_dot,61.86910145200656,
left,left,35.0,1.0,17.0,left,1.0,0.6584708800073713,,speed,space,2.790405576990452,,,,,,0.0,1.0,1.0,1.0,17.0,1.0,35.0,0.0,322.2621495000203,,,,,,,,,322.24646455800394,323.445389312983,324.2455741169979,324.2290513460175,324.22935491998214,324.2455741169979,324.2455741169979,324.2455741169979,324.9127956390148,,,,,,,,,,,,,,,,,,,,,,,,,,,,,,left,1.0,0.6584708800073713,,,,,sub-047,2,random_dot,61.86910145200656,
left,left,36.0,0.0,18.0,right,0.0,1.0094356370391324,,speed,space,2.790405576990452,,,,,,0.0,1.0,1.0,1.0,18.0,0.0,36.0,0.0,324.92889571900014,,,,,,,,,324.913102046994,325.26246897602687,326.06254163902486,326.04604568402283,326.04643668502104,326.06254163902486,326.06254163902486,326.06254163902486,327.0798774770228,,,,,,,,,,,,,,,,,,,,,,,,,,,,,,right,0.0,1.0094356370391324,,,,,sub-047,2,random_dot,61.86910145200656,
right,right,37.0,1.0,18.0,right,1.0,1.432224510004744,,speed,space,2.790405576990452,,,,,,0.0,1.0,1.0,1.0,18.0,1.0,37.0,1.0,327.0961469290196,,,,,,,,,327.0801873910241,327.87960717000533,328.6797375110327,328.6634115600027,328.6638037220109,328.6797375110327,328.6797375110327,328.6797375110327,330.1139724259847,,,,,,,,,,,,,,,,,,,,,,,,,,,,,,right,1.0,1.432224510004744,,,,,sub-047,2,random_dot,61.86910145200656,
left,left,38.0,0.0,19.0,left,1.0,0.8964074759860523,,speed,space,2.790405576990452,,,,,,0.0,1.0,1.0,1.0,19.0,0.0,38.0,0.0,330.1296712870244,,,,,,,,,330.1142682150239,330.4633639770327,331.2635360540007,331.247117025021,331.24750758102164,331.2635360540007,331.2635360540007,331.2635360540007,332.164510156028,,,,,,,,,,,,,,,,,,,,,,,,,,,,,,left,1.0,0.8964074759860523,,,,,sub-047,2,random_dot,61.86910145200656,
right,right,39.0,1.0,19.0,right,1.0,0.7952321749762632,,speed,space,2.790405576990452,,,,,,0.0,1.0,1.0,1.0,19.0,1.0,39.0,1.0,332.1804936240078,,,,,,,,,332.1648203289951,333.3712661790196,334.1807279229979,334.1642336840159,334.1646230330225,334.1807279229979,334.1807279229979,334.1807279229979,334.9822459790157,,,,,,,,,,,,,,,,,,,,,,,,,,,,,,right,1.0,0.7952321749762632,,,,,sub-047,2,random_dot,61.86910145200656,
right,right,40.0,0.0,20.0,right,1.0,0.778208956005983,,speed,space,2.790405576990452,,,,,,0.0,1.0,1.0,1.0,20.0,0.0,40.0,1.0,334.9977086620056,,,,,,,,,334.9825578579912,336.1976279949886,336.99772923102137,336.9812796289916,336.9816640110221,336.99772923102137,336.99772923102137,336.99772923102137,337.78206648898777,,,,,,,,,,,,,,,,,,,,,,,,,,,,,,right,1.0,0.778208956005983,,,,,sub-047,2,random_dot,61.86910145200656,
left,left,41.0,1.0,20.0,left,1.0,0.7942213189671747,,speed,space,2.790405576990452,,,,,,0.0,1.0,1.0,1.0,20.0,1.0,41.0,0.0,337.79816506401403,,,,,,,,,337.7823741000029,338.5816081740195,339.3817492260132,339.36505473102443,339.3653603710118,339.3817492260132,339.3817492260132,339.3817492260132,340.182752186025,,,,,,,,,,,,,,,,,,,,,,,,,,,,,,left,1.0,0.7942213189671747,,,,,sub-047,2,random_dot,61.86910145200656,
left,left,42.0,0.0,21.0,left,1.0,0.7693387630279176,,speed,space,2.790405576990452,,,,,,0.0,1.0,1.0,1.0,21.0,0.0,42.0,0.0,340.1982975639985,,,,,,,,,340.1830631599878,341.3890833440237,342.19860919902567,342.1822065280285,342.18260035902495,342.19860919902567,342.19860919902567,342.19860919902567,342.9834871669882,,,,,,,,,,,,,,,,,,,,,,,,,,,,,,left,1.0,0.7693387630279176,,,,,sub-047,2,random_dot,61.86910145200656,
right,right,43.0,1.0,21.0,right,1.0,1.4209723050007597,,speed,space,2.790405576990452,,,,,,0.0,1.0,1.0,1.0,21.0,1.0,43.0,1.0,342.9990556440316,,,,,,,,,342.983906191017,344.19909316900885,345.011070520035,344.9924233549973,344.9928257550346,345.011070520035,345.011070520035,345.011070520035,346.44322986499174,,,,,,,,,,,,,,,,,,,,,,,,,,,,,,right,1.0,1.4209723050007597,,,,,sub-047,2,random_dot,61.86910145200656,
right,right,44.0,0.0,22.0,right,1.0,3.348502528038807,,speed,space,2.790405576990452,,,,,,0.0,1.0,1.0,1.0,22.0,0.0,44.0,1.0,346.45922563498607,,,,,,,,,346.4436632479774,346.5494852249976,347.34961266303435,347.3331390399835,347.33353123802226,347.34961266303435,347.34961266303435,347.34961266303435,350.70042878598906,,,,,,,,,,,,,,,,,,,,,,,,,,,,,,right,1.0,3.348502528038807,,,,,sub-047,2,random_dot,61.86910145200656,
left,left,45.0,1.0,22.0,right,0.0,1.5784177070017904,,speed,space,2.790405576990452,,,,,,0.0,1.0,1.0,1.0,22.0,1.0,45.0,0.0,350.7162250260008,,,,,,,,,350.70069701003376,350.7998009219882,351.5997348090168,351.58321144402726,351.5834641599795,351.5997348090168,351.5997348090168,351.5997348090168,353.18401295202784,,,,,,,,,,,,,,,,,,,,,,,,,,,,,,right,0.0,1.5784177070017904,,,,,sub-047,2,random_dot,61.86910145200656,
right,right,46.0,0.0,23.0,right,1.0,0.8745155709912069,,speed,space,2.790405576990452,,,,,,0.0,1.0,1.0,1.0,23.0,0.0,46.0,1.0,353.1999399450142,,,,,,,,,353.1842654470238,353.9834232190042,354.78365839703474,354.7671090340009,354.76734480500454,354.78365839703474,354.78365839703474,354.78365839703474,355.66783856600523,,,,,,,,,,,,,,,,,,,,,,,,,,,,,,right,1.0,0.8745155709912069,,,,,sub-047,2,random_dot,61.86910145200656,
left,left,47.0,1.0,23.0,left,1.0,0.750147113983985,,speed,space,2.790405576990452,,,,,,0.0,1.0,1.0,1.0,23.0,1.0,47.0,0.0,355.6838724130066,,,,,,,,,355.66809476801427,356.8677244010032,357.66806679801084,357.65158980397973,357.6519836279913,357.66806679801084,357.66806679801084,357.66806679801084,358.42922706803074,,,,,,,,,,,,,,,,,,,,,,,,,,,,,,left,1.0,0.750147113983985,,,,,sub-047,2,random_dot,61.86910145200656,
left,left,48.0,0.0,24.0,left,1.0,0.7760360300308093,,speed,space,2.790405576990452,,,,,,0.0,1.0,1.0,1.0,24.0,0.0,48.0,0.0,358.44452170300065,,,,,,,,,358.4297159650014,359.2346790980082,360.0502618129831,360.0280029870337,360.02839326503454,360.0502618129831,360.0502618129831,360.0502618129831,360.8356880039792,,,,,,,,,,,,,,,,,,,,,,,,,,,,,,left,1.0,0.7760360300308093,,,,,sub-047,2,random_dot,61.86910145200656,
right,right,49.0,1.0,24.0,right,1.0,0.8230444139917381,,speed,space,2.790405576990452,,,,,,0.0,1.0,1.0,1.0,24.0,1.0,49.0,1.0,360.8518982090173,,,,,,,,,360.83599937998224,361.6349557850044,362.43526513001416,362.41890377301024,362.4192914420273,362.43526513001416,362.43526513001416,362.43526513001416,363.2698574319948,,,,,,,,,,,,,,,,,,,,,,,,,,,,,,right,1.0,0.8230444139917381,,,,,sub-047,2,random_dot,61.86910145200656,
right,right,50.0,0.0,25.0,right,1.0,1.2462663020123728,,speed,space,2.790405576990452,,,,,,0.0,1.0,1.0,1.0,25.0,0.0,50.0,1.0,363.285686874995,,,,,,,,,363.2701683280175,363.63097305299016,364.435894765018,364.41942095098784,364.41980853601126,364.435894765018,364.435894765018,364.435894765018,365.6868251520209,,,,,,,,,,,,,,,,,,,,,,,,,,,,,,right,1.0,1.2462663020123728,,,,,sub-047,2,random_dot,61.86910145200656,
left,left,51.0,1.0,25.0,left,1.0,0.9717050360050052,,speed,space,2.790405576990452,,,,,,0.0,1.0,1.0,1.0,25.0,1.0,51.0,0.0,365.7027090769843,,,,,,,,,365.6871376149938,366.886414528999,367.68659899698105,367.6701225769939,367.67051026498666,367.68659899698105,367.68659899698105,367.68659899698105,368.6707636400242,,,,,,,,,,,,,,,,,,,,,,,,,,,,,,left,1.0,0.9717050360050052,,,,,sub-047,2,random_dot,61.86910145200656,
right,right,52.0,0.0,26.0,left,0.0,1.9034717709873803,,speed,space,2.790405576990452,,,,,,0.0,1.0,1.0,1.0,26.0,0.0,52.0,1.0,368.6865632890258,,,,,,,,,368.6711863219971,368.7864075520192,369.5866898560198,369.5702504520305,369.5706383450306,369.5866898560198,369.5866898560198,369.5866898560198,371.5118020870141,,,,,,,,,,,,,,,,,,,,,,,,,,,,,,left,0.0,1.9034717709873803,,,,,sub-047,2,random_dot,61.86910145200656,
left,left,53.0,1.0,26.0,left,1.0,0.9535319510032424,,speed,space,2.790405576990452,,,,,,0.0,1.0,1.0,1.0,26.0,1.0,53.0,0.0,371.5299147840124,,,,,,,,,371.5122265089885,372.7206558419857,373.52078064501984,373.5044529979932,373.5048433259944,373.52078064501984,373.52078064501984,373.52078064501984,374.4886717280024,,,,,,,,,,,,,,,,,,,,,,,,,,,,,,left,1.0,0.9535319510032424,,,,,sub-047,2,random_dot,61.86910145200656,
right,right,54.0,0.0,27.0,right,1.0,0.8663714969879948,,speed,space,2.790405576990452,,,,,,0.0,1.0,1.0,1.0,27.0,0.0,54.0,1.0,374.50419217400486,,,,,,,,,374.4890908380039,375.6878010589862,376.4879252919927,376.47163818299305,376.4720285109943,376.4879252919927,376.4879252919927,376.4879252919927,377.3555324419867,,,,,,,,,,,,,,,,,,,,,,,,,,,,,,right,1.0,0.8663714969879948,,,,,sub-047,2,random_dot,61.86910145200656,
left,left,55.0,1.0,27.0,left,1.0,1.115031431952957,,speed,space,2.790405576990452,,,,,,0.0,1.0,1.0,1.0,27.0,1.0,55.0,0.0,377.3712040180108,,,,,,,,,377.3558170759934,377.4546510060318,378.2551318100304,378.2426284560352,378.24293191800825,378.2551318100304,378.2551318100304,378.2551318100304,379.3722620490007,,,,,,,,,,,,,,,,,,,,,,,,,,,,,,left,1.0,1.115031431952957,,,,,sub-047,2,random_dot,61.86910145200656,
left,left,56.0,0.0,28.0,left,1.0,1.0655904870363884,,speed,space,2.790405576990452,,,,,,0.0,1.0,1.0,1.0,28.0,0.0,56.0,0.0,379.3884576000273,,,,,,,,,379.3725554150296,379.47185691900086,380.2727009439841,380.25955841399264,380.2599497269839,380.2727009439841,380.2727009439841,380.2727009439841,381.3393225219916,,,,,,,,,,,,,,,,,,,,,,,,,,,,,,left,1.0,1.0655904870363884,,,,,sub-047,2,random_dot,61.86910145200656,
right,right,57.0,1.0,28.0,right,1.0,1.2973302350146696,,speed,space,2.790405576990452,,,,,,0.0,1.0,1.0,1.0,28.0,1.0,57.0,1.0,381.3552343919873,,,,,,,,,381.3396078600199,381.69637527503073,382.5049570400152,382.4884104580269,382.488646821992,382.5049570400152,382.5049570400152,382.5049570400152,383.8062444020179,,,,,,,,,,,,,,,,,,,,,,,,,,,,,,right,1.0,1.2973302350146696,,,,,sub-047,2,random_dot,61.86910145200656,
left,left,58.0,0.0,29.0,left,1.0,0.6760407399851829,,speed,space,2.790405576990452,,,,,,0.0,1.0,1.0,1.0,29.0,0.0,58.0,0.0,383.82220275403233,,,,,,,,,383.8065547040314,385.0059600159875,385.8062661529984,385.7896341439919,385.790022598987,385.8062661529984,385.8062661529984,385.8062661529984,386.4900436699973,,,,,,,,,,,,,,,,,,,,,,,,,,,,,,left,1.0,0.6760407399851829,,,,,sub-047,2,random_dot,61.86910145200656,
right,right,59.0,1.0,29.0,right,1.0,0.674340013996698,,speed,space,2.790405576990452,,,,,,0.0,1.0,1.0,1.0,29.0,1.0,59.0,1.0,386.5059032100253,,,,,,,,,386.490351430024,386.8393815280288,387.639817332034,387.62336700502783,387.6237521719886,387.639817332034,387.639817332034,387.639817332034,388.3249956709915,,,,,,,,,,,,,,,,,,,,,,,,,,,,,,right,1.0,0.674340013996698,,,,,sub-047,2,random_dot,61.86910145200656,
,,1.0,1.0,0.0,,,,,speed,space,2.790405576990452,,,,,,0.0,1.0,1.0,1.0,,,,,,,,,,,,,,,,,,,,,,,,,,,,,,,,,,,,,,,,,,,,,,,,,,,,,,,,,,,sub-047,2,random_dot,61.86910145200656,
,,,,,,,,,,,,,,,,,,,,,,,,,,,,,,,,,,,,,,,,,,,,,,,,,,,,,,,,,,,,,,,,,,,,,,,,,,,,388.3299703060184,388.3414051349973,393.33230698201805,sub-047,2,random_dot,61.86910145200656,
