direction,corrAns,thisN,thisTrialN,thisRepN,respDots.keys,respDots.corr,respDots.rt,respDots.duration,randomInstr,respRandomInstr.keys,respRandomInstr.rt,respRandomInstr.duration,practice_trials.thisRepN,practice_trials.thisTrialN,practice_trials.thisN,practice_trials.thisIndex,instr_trials.thisRepN,instr_trials.thisTrialN,instr_trials.thisN,instr_trials.thisIndex,test_trials.thisRepN,test_trials.thisTrialN,test_trials.thisN,test_trials.thisIndex,thisRow.t,notes,general_instruction.started,textGeneralInstr.started,respGeneralInstr.started,general_instruction.stopped,respGeneralInstr.keys,respGeneralInstr.rt,respGeneralInstr.duration,ITI.started,fixcross.started,fixcross.stopped,ITI.stopped,dots.started,backgroundDots.started,stimulusDots.started,respDots.started,dots.stopped,practice_trials.respDots.keys,practice_trials.respDots.corr,practice_trials.respDots.rt,practice_trials.respDots.duration,feedback.started,textFeedback.started,feedback.stopped,textFeedback.stopped,info.started,textInfo.started,keyRespInfo.started,info.stopped,keyRespInfo.keys,keyRespInfo.rt,keyRespInfo.duration,test_instruction.started,textTestInstr.started,respTestInstr.started,test_instruction.stopped,respTestInstr.keys,respTestInstr.rt,respTestInstr.duration,random_instruction.started,textRandomInstr.started,respRandomInstr.started,random_instruction.stopped,instr_trials.respRandomInstr.keys,instr_trials.respRandomInstr.rt,instr_trials.respRandomInstr.duration,test_trials.respDots.keys,test_trials.respDots.corr,test_trials.respDots.rt,test_trials.respDots.duration,stimulusDots.stopped,goodbye.started,textGoodbye.started,goodbye.stopped,participant,session,expName,frameRate,Unnamed: 87
,,,,,,,,,,,,,,,,,,,,,,,,,,,0.0120521960197947,0.034912011004053,0.034912011004053,9.43152307200944,space,9.246458494017132,,,,,,,,,,,,,,,,,,,,,,,,,,,,,,,,,,,,,,,,,,,,,,,,sub-227,1,random_dot,61.16467049438232,
right,right,0.0,0.0,0.0,right,1.0,1.6668819909973536,,,,,,0.0,0.0,0.0,1.0,,,,,,,,,9.477285649016268,,,,,,,,,9.465381212998182,9.781295897002565,10.589280551008414,10.56490325302002,10.565293366002152,10.589280551008414,10.589280551008414,10.589280551008414,12.265617910015862,right,1.0,1.6668819909973536,,12.270586163998814,12.31195159300114,12.781761571008246,,,,,,,,,,,,,,,,,,,,,,,,,,,,,,,sub-227,1,random_dot,61.16467049438232,
left,left,1.0,1.0,0.0,left,1.0,1.0941091540153138,,,,,,0.0,1.0,1.0,0.0,,,,,,,,,12.799791350000303,,,,,,,,,12.782216637016973,12.865020135010129,13.664883110002847,13.64852035100921,13.648966920009116,13.664883110002847,13.664883110002847,13.664883110002847,14.765534664009463,left,1.0,1.0941091540153138,,14.76562035700772,14.781391151016578,15.265028935013106,15.281523345009193,,,,,,,,,,,,,,,,,,,,,,,,,,,,,,sub-227,1,random_dot,61.16467049438232,
left,left,2.0,0.0,1.0,right,0.0,0.9659864630084484,,,,,,1.0,0.0,2.0,0.0,,,,,,,,,15.281523345009193,,,,,,,,,15.265319474012358,15.364841575006722,16.16506821999792,16.148249984020367,16.14860999400844,16.16506821999792,16.16506821999792,16.16506821999792,17.132685933000175,right,0.0,0.9659864630084484,,17.13811788201565,17.150718554999912,17.648153640999226,,,,,,,,,,,,,,,,,,,,,,,,,,,,,,,sub-227,1,random_dot,61.16467049438232,
right,right,3.0,1.0,1.0,left,0.0,0.9685516959871164,,,,,,1.0,1.0,3.0,1.0,,,,,,,,,17.665062595013296,,,,,,,,,17.648429382999893,17.747929572011344,18.548154011019506,18.53160494202166,18.53197620101855,18.548154011019506,18.548154011019506,18.548154011019506,19.53204980501323,left,0.0,0.9685516959871164,,19.53215978501248,19.54775920099928,20.031578488997184,20.048143822001293,,,,,,,,,,,,,,,,,,,,,,,,,,,,,,sub-227,1,random_dot,61.16467049438232,
left,left,4.0,0.0,2.0,left,1.0,1.4992441579815932,,,,,,2.0,0.0,4.0,0.0,,,,,,,,,20.048143822001293,,,,,,,,,20.03192839201074,20.13129387900699,20.931500403996324,20.91489881600137,20.91523862001486,20.931500403996324,20.931500403996324,20.931500403996324,22.43260107000242,left,1.0,1.4992441579815932,,22.435264597996134,22.448556597024435,22.9316745249962,22.948107664997224,,,,,,,,,,,,,,,,,,,,,,,,,,,,,,sub-227,1,random_dot,61.16467049438232,
right,right,5.0,1.0,2.0,left,0.0,1.6499072629958391,,,,,,2.0,1.0,5.0,1.0,,,,,,,,,22.948107664997224,,,,,,,,,22.931922527001007,23.7718986220134,24.581566659006057,24.56563528600964,24.56608672000584,24.581566659006057,24.581566659006057,24.581566659006057,26.2522466990049,left,0.0,1.6499072629958391,,26.25446050299797,26.26849260900053,26.76471986502293,,,,,,,,,,,,,,,,,,,,,,,,,,,,,,,sub-227,1,random_dot,61.16467049438232,
right,right,6.0,0.0,3.0,right,1.0,0.8760698009864427,,,,,,3.0,0.0,6.0,1.0,,,,,,,,,26.781239641015414,,,,,,,,,26.765164790005656,27.964510746009186,28.764469581015877,28.74809354901663,28.74843528700876,28.764469581015877,28.764469581015877,28.764469581015877,29.648942043015268,right,1.0,0.8760698009864427,,29.65114788801293,29.66455870302161,30.1482791720191,30.164619710005358,,,,,,,,,,,,,,,,,,,,,,,,,,,,,,sub-227,1,random_dot,61.16467049438232,
left,left,7.0,1.0,3.0,left,1.0,0.8639439349935856,,,,,,3.0,1.0,7.0,0.0,,,,,,,,,30.164619710005358,,,,,,,,,30.148670636001043,30.5144415210234,31.31453443900682,31.298086963011883,31.298426699009724,31.31453443900682,31.31453443900682,31.31453443900682,32.18247311300365,left,1.0,0.8639439349935856,,32.18260330200428,32.197540912020486,32.68145283401827,32.6981500289985,,,,,,,,,,,,,,,,,,,,,,,,,,,,,,sub-227,1,random_dot,61.16467049438232,
right,right,8.0,0.0,4.0,left,0.0,2.7692387670103926,,,,,,4.0,0.0,8.0,1.0,,,,,,,,,32.6981500289985,,,,,,,,,32.68180581100751,33.04777513499721,33.847910676005995,33.831304393010214,33.8316397050221,33.847910676005995,33.847910676005995,33.847910676005995,36.632073782995576,left,0.0,2.7692387670103926,,36.63481046201196,36.64839653801755,37.131488262995845,37.147682934009936,,,,,,,,,,,,,,,,,,,,,,,,,,,,,,sub-227,1,random_dot,61.16467049438232,
left,left,9.0,1.0,4.0,left,1.0,1.034444794000592,,,,,,4.0,1.0,9.0,0.0,,,,,,,,,37.147682934009936,,,,,,,,,37.13186399600818,37.49763421600801,38.29775009502191,38.28102277001017,38.28136394600733,38.29775009502191,38.29775009502191,38.29775009502191,39.34841015099664,left,1.0,1.034444794000592,,39.35072269800003,39.36445188100333,39.84803525102325,39.86436116401456,,,,,,,,,,,,,,,,,,,,,,,,,,,,,,sub-227,1,random_dot,61.16467049438232,
left,left,10.0,0.0,5.0,left,1.0,0.7057655489770696,,,,,,5.0,0.0,10.0,0.0,,,,,,,,,39.86436116401456,,,,,,,,,39.84830128500471,40.197711946006166,40.99773279001238,40.98138884702348,40.98181444601505,40.99773279001238,40.99773279001238,40.99773279001238,41.71504309400916,left,1.0,0.7057655489770696,,41.71513041501749,41.730892777006375,42.214620393002406,42.23115246402449,,,,,,,,,,,,,,,,,,,,,,,,,,,,,,sub-227,1,random_dot,61.16467049438232,
right,right,11.0,1.0,5.0,right,1.0,1.639012569998158,,,,,,5.0,1.0,11.0,1.0,,,,,,,,,42.23115246402449,,,,,,,,,42.21490813101991,42.5642824320239,43.36434743300197,43.348081914009526,43.34848312201211,43.36434743300197,43.36434743300197,43.36434743300197,45.015181716007646,right,1.0,1.639012569998158,,45.01527155100485,45.03030403601588,45.51443265200942,45.53079913501279,,,,,,,,,,,,,,,,,,,,,,,,,,,,,,sub-227,1,random_dot,61.16467049438232,
left,left,12.0,0.0,6.0,left,1.0,1.095660339022288,,,,,,6.0,0.0,12.0,0.0,,,,,,,,,45.53079913501279,,,,,,,,,45.51481295801932,46.73079768000753,47.530747273005545,47.51449132201378,47.514930316014215,47.530747273005545,47.530747273005545,47.530747273005545,48.63222017901717,left,1.0,1.095660339022288,,48.63231038799859,48.64739733102033,49.13114577400847,49.14739985400229,,,,,,,,,,,,,,,,,,,,,,,,,,,,,,sub-227,1,random_dot,61.16467049438232,
right,right,13.0,1.0,6.0,right,1.0,0.8342565759958234,,,,,,6.0,1.0,13.0,1.0,,,,,,,,,49.14739985400229,,,,,,,,,49.13149100000737,50.34753940202063,51.14754418001394,51.1311535690038,51.13148777702008,51.14754418001394,51.14754418001394,51.14754418001394,51.99795570599963,right,1.0,0.8342565759958234,,51.99804368201876,52.01377131300978,52.497644210001454,52.51421096001286,,,,,,,,,,,,,,,,,,,,,,,,,,,,,,sub-227,1,random_dot,61.16467049438232,
left,left,14.0,0.0,7.0,left,1.0,0.621710425009951,,,,,,7.0,0.0,14.0,0.0,,,,,,,,,52.51421096001286,,,,,,,,,52.49795956900925,52.84744415202295,53.64748779000365,53.63104458001908,53.631400167010725,53.64748779000365,53.64748779000365,53.64748779000365,54.281348695018096,left,1.0,0.621710425009951,,54.28144366201013,54.2972891080135,54.78102824301459,54.797415217006346,,,,,,,,,,,,,,,,,,,,,,,,,,,,,,sub-227,1,random_dot,61.16467049438232,
right,right,15.0,1.0,7.0,right,1.0,0.8741965950175654,,,,,,7.0,1.0,15.0,1.0,,,,,,,,,54.797415217006346,,,,,,,,,54.78134496702114,55.13074029699783,55.93073620001087,55.91428216602071,55.91457213100512,55.93073620001087,55.93073620001087,55.93073620001087,56.81489414902171,right,1.0,0.8741965950175654,,56.814988594996976,56.83030135300942,57.31438731402159,57.33069643602357,,,,,,,,,,,,,,,,,,,,,,,,,,,,,,sub-227,1,random_dot,61.16467049438232,
left,left,16.0,0.0,8.0,left,1.0,0.6990165089955553,,,,,,8.0,0.0,16.0,0.0,,,,,,,,,57.33069643602357,,,,,,,,,57.31476751700393,57.68056404200616,58.48063530802028,58.464396832016064,58.46473829701426,58.48063530802028,58.48063530802028,58.48063530802028,59.181968618009705,left,1.0,0.6990165089955553,,59.18206142200506,59.19701029700809,59.68091725499835,59.69759072700981,,,,,,,,,,,,,,,,,,,,,,,,,,,,,,sub-227,1,random_dot,61.16467049438232,
right,right,17.0,1.0,8.0,right,1.0,1.1714419369818645,,,,,,8.0,1.0,17.0,1.0,,,,,,,,,59.69759072700981,,,,,,,,,59.681299554009456,60.89725404401543,61.69743722400744,61.68095583800459,61.68129597400548,61.69743722400744,61.69743722400744,61.69743722400744,62.88129870701232,right,1.0,1.1714419369818645,,62.88140034201206,62.89735684602056,63.38084107401664,63.39729085200816,,,,,,,,,,,,,,,,,,,,,,,,,,,,,,sub-227,1,random_dot,61.16467049438232,
right,right,18.0,0.0,9.0,left,0.0,0.7403133200132288,,,,,,9.0,0.0,18.0,1.0,,,,,,,,,63.39729085200816,,,,,,,,,63.381129072018666,63.73062841402134,64.5304467920214,64.51389584102435,64.5141803950246,64.5304467920214,64.5304467920214,64.5304467920214,65.28117611401831,left,0.0,0.7403133200132288,,65.28333419901901,65.29679052700521,65.78099289900274,65.79736057799892,,,,,,,,,,,,,,,,,,,,,,,,,,,,,,sub-227,1,random_dot,61.16467049438232,
left,left,19.0,1.0,9.0,left,1.0,0.8733149789914023,,,,,,9.0,1.0,19.0,0.0,,,,,,,,,65.79736057799892,,,,,,,,,65.7813560020004,65.88071977702202,66.68029597701388,66.6639554730209,66.6642814540246,66.68029597701388,66.68029597701388,66.68029597701388,67.5650873730192,left,1.0,0.8733149789914023,,67.56757497100625,67.58127320601488,68.06427319100476,68.08059598400723,,,,,,,,,,,,,,,,,,,,,,,,,,,,,,sub-227,1,random_dot,61.16467049438232,
,,,,,,,,,,,,,,,,,,,,,,,,,,,,,,,,,,,,,,,,,,,,,,,,,,,68.06443408000632,68.08059598400723,68.08059598400723,70.1153454160085,space,2.0266306700068526,,,,,,,,,,,,,,,,,,,,,,,,sub-227,1,random_dot,61.16467049438232,
,,,,,,,,,,,,,,,,,,,,,,,,,,,,,,,,,,,,,,,,,,,,,,,,,,,,,,,,,,70.11544927902287,70.13125494300039,70.13125494300039,72.06514580600196,space,1.920418319001328,,,,,,,,,,,,,,,,,sub-227,1,random_dot,61.16467049438232,
left,left,0.0,0.0,0.0,left,1.0,0.6698367140197661,,accuracy,space,2.500267677998636,,,,,,0.0,0.0,0.0,0.0,0.0,0.0,0.0,0.0,74.6189021320024,,,,,,,,,74.60557483701268,75.41417900801753,76.21427209401736,76.19754837400978,76.19784851500299,76.21427209401736,76.21427209401736,76.21427209401736,76.89829755201936,,,,,,,,,,,,,,,,,,,,,,,72.08518490401912,72.09682171500754,72.09682171500754,74.59890298699611,space,2.500267677998636,,left,1.0,0.6698367140197661,,,,,,sub-227,1,random_dot,61.16467049438232,
right,right,1.0,1.0,0.0,right,1.0,0.7747776420146693,,accuracy,space,2.500267677998636,,,,,,0.0,0.0,0.0,0.0,0.0,1.0,1.0,1.0,76.91370304502198,,,,,,,,,76.89860680900165,76.99712116800947,77.79729513000348,77.78080034902086,77.78116878401488,77.79729513000348,77.79729513000348,77.79729513000348,78.58173884599819,,,,,,,,,,,,,,,,,,,,,,,,,,,,,,right,1.0,0.7747776420146693,,,,,,sub-227,1,random_dot,61.16467049438232,
left,left,2.0,0.0,1.0,left,1.0,0.8015819840074982,,accuracy,space,2.500267677998636,,,,,,0.0,0.0,0.0,0.0,1.0,0.0,2.0,0.0,78.59719981299713,,,,,,,,,78.5820596620033,78.69769745602389,79.49733532601385,79.48102275800193,79.48146102399915,79.49733532601385,79.49733532601385,79.49733532601385,80.31511167500867,,,,,,,,,,,,,,,,,,,,,,,,,,,,,,left,1.0,0.8015819840074982,,,,,,sub-227,1,random_dot,61.16467049438232,
right,right,3.0,1.0,1.0,right,1.0,0.6545593019982334,,accuracy,space,2.500267677998636,,,,,,0.0,0.0,0.0,0.0,1.0,1.0,3.0,1.0,80.33066258500912,,,,,,,,,80.31541036101407,81.13064304401632,81.93070624701795,81.91419151201262,81.91447798200534,81.93070624701795,81.93070624701795,81.93070624701795,82.59822566600633,,,,,,,,,,,,,,,,,,,,,,,,,,,,,,right,1.0,0.6545593019982334,,,,,,sub-227,1,random_dot,61.16467049438232,
right,right,4.0,0.0,2.0,left,0.0,0.8466071140137501,,accuracy,space,2.500267677998636,,,,,,0.0,0.0,0.0,0.0,2.0,0.0,4.0,1.0,82.6138216679974,,,,,,,,,82.59854493101011,82.94725997099886,83.74737789301435,83.73089037899626,83.73122950200923,83.74737789301435,83.74737789301435,83.74737789301435,84.59821604299941,,,,,,,,,,,,,,,,,,,,,,,,,,,,,,left,0.0,0.8466071140137501,,,,,,sub-227,1,random_dot,61.16467049438232,
left,left,5.0,1.0,2.0,left,1.0,2.2188023019989487,,accuracy,space,2.500267677998636,,,,,,0.0,0.0,0.0,0.0,2.0,1.0,5.0,0.0,84.61379841802409,,,,,,,,,84.59852579300059,84.96390374400653,85.76385939802276,85.74742459401023,85.74780104900128,85.76385939802276,85.76385939802276,85.76385939802276,87.99856795099913,,,,,,,,,,,,,,,,,,,,,,,,,,,,,,left,1.0,2.2188023019989487,,,,,,sub-227,1,random_dot,61.16467049438232,
right,right,6.0,0.0,3.0,right,1.0,5.300436666992027,,accuracy,space,2.500267677998636,,,,,,0.0,0.0,0.0,0.0,3.0,0.0,6.0,1.0,88.01377486300771,,,,,,,,,87.9989280430018,88.36391697000363,89.1638750770071,89.14747478702338,89.14776870902278,89.1638750770071,89.1638750770071,89.1638750770071,94.48165879299631,,,,,,,,,,,,,,,,,,,,,,,,,,,,,,right,1.0,5.300436666992027,,94.14736764901318,,,,sub-227,1,random_dot,61.16467049438232,
left,left,7.0,1.0,3.0,left,1.0,0.6490473120065872,,accuracy,space,2.500267677998636,,,,,,0.0,0.0,0.0,0.0,3.0,1.0,7.0,0.0,94.49676246001036,,,,,,,,,94.4819656330219,94.847057616018,95.6471799800056,95.6306060310162,95.631001517002,95.6471799800056,95.6471799800056,95.6471799800056,96.29853587801335,,,,,,,,,,,,,,,,,,,,,,,,,,,,,,left,1.0,0.6490473120065872,,,,,,sub-227,1,random_dot,61.16467049438232,
left,left,8.0,0.0,4.0,left,1.0,3.126116144005209,,accuracy,space,2.500267677998636,,,,,,0.0,0.0,0.0,0.0,4.0,0.0,8.0,0.0,96.31338416601648,,,,,,,,,96.29886098302086,96.41409276801278,97.21381547601776,97.19714159800787,97.19748592501855,97.21381547601776,97.21381547601776,97.21381547601776,100.34828540700256,,,,,,,,,,,,,,,,,,,,,,,,,,,,,,left,1.0,3.126116144005209,,,,,,sub-227,1,random_dot,61.16467049438232,
right,right,9.0,1.0,4.0,right,1.0,4.203603191999719,,accuracy,space,2.500267677998636,,,,,,0.0,0.0,0.0,0.0,4.0,1.0,9.0,1.0,100.36342023700126,,,,,,,,,100.34862947202056,101.56360923300964,102.36664524601656,102.34735965300932,102.3478000460018,102.36664524601656,102.36664524601656,102.36664524601656,106.58137881700532,,,,,,,,,,,,,,,,,,,,,,,,,,,,,,right,1.0,4.203603191999719,,,,,,sub-227,1,random_dot,61.16467049438232,
left,left,10.0,0.0,5.0,left,1.0,0.8232443000015337,,accuracy,space,2.500267677998636,,,,,,0.0,0.0,0.0,0.0,5.0,0.0,10.0,0.0,106.59688381801244,,,,,,,,,106.58168794901576,106.69652917401982,107.49681770100142,107.48032033300842,107.48075994901592,107.49681770100142,107.49681770100142,107.49681770100142,108.3310568529996,,,,,,,,,,,,,,,,,,,,,,,,,,,,,,left,1.0,0.8232443000015337,,,,,,sub-227,1,random_dot,61.16467049438232,
right,right,11.0,1.0,5.0,right,1.0,0.9437120759976096,,accuracy,space,2.500267677998636,,,,,,0.0,0.0,0.0,0.0,5.0,1.0,11.0,1.0,108.34646232202068,,,,,,,,,108.3313660310232,108.68014796101488,109.47991360901506,109.46375557701684,109.46417764399666,109.47991360901506,109.47991360901506,109.47991360901506,110.43172257201512,,,,,,,,,,,,,,,,,,,,,,,,,,,,,,right,1.0,0.9437120759976096,,,,,,sub-227,1,random_dot,61.16467049438232,
right,right,12.0,0.0,6.0,left,0.0,5.019839397020405,,accuracy,space,2.500267677998636,,,,,,0.0,0.0,0.0,0.0,6.0,0.0,12.0,1.0,110.44651248501032,,,,,,,,,110.43216114101232,111.6468865390052,112.44716234199586,112.43062950202147,112.4310657310125,112.44716234199586,112.44716234199586,112.44716234199586,117.480533732014,,,,,,,,,,,,,,,,,,,,,,,,,,,,,,left,0.0,5.019839397020405,,117.42994481002096,,,,sub-227,1,random_dot,61.16467049438232,
left,left,13.0,1.0,6.0,left,1.0,0.683427177980775,,accuracy,space,2.500267677998636,,,,,,0.0,0.0,0.0,0.0,6.0,1.0,13.0,0.0,117.49624764799955,,,,,,,,,117.48083520302316,118.68004005900002,119.48001468501752,119.46360106402426,119.463937196997,119.48001468501752,119.48001468501752,119.48001468501752,120.18058910901892,,,,,,,,,,,,,,,,,,,,,,,,,,,,,,left,1.0,0.683427177980775,,,,,,sub-227,1,random_dot,61.16467049438232,
left,left,14.0,0.0,7.0,left,1.0,0.8074356839933898,,accuracy,space,2.500267677998636,,,,,,0.0,0.0,0.0,0.0,7.0,0.0,14.0,0.0,120.19619620300364,,,,,,,,,120.1809182940051,121.37997438100864,122.18004822701914,122.16352112501043,122.163860124012,122.18004822701914,122.18004822701914,122.18004822701914,122.99742288401468,,,,,,,,,,,,,,,,,,,,,,,,,,,,,,left,1.0,0.8074356839933898,,,,,,sub-227,1,random_dot,61.16467049438232,
right,right,15.0,1.0,7.0,right,1.0,1.874488806992304,,accuracy,space,2.500267677998636,,,,,,0.0,0.0,0.0,0.0,7.0,1.0,15.0,1.0,123.01322413200978,,,,,,,,,122.99773725200794,123.7964951210015,124.59659013702183,124.5799781359965,124.58031437001772,124.59659013702183,124.59659013702183,124.59659013702183,126.48097303402028,,,,,,,,,,,,,,,,,,,,,,,,,,,,,,right,1.0,1.874488806992304,,,,,,sub-227,1,random_dot,61.16467049438232,
left,left,16.0,0.0,8.0,left,1.0,0.8275802139833104,,accuracy,space,2.500267677998636,,,,,,0.0,0.0,0.0,0.0,8.0,0.0,16.0,0.0,126.49617877500714,,,,,,,,,126.48140466300538,127.69645345301252,128.49667065500398,128.4808460700151,128.48128384700976,128.49667065500398,128.49667065500398,128.49667065500398,129.3305571770179,,,,,,,,,,,,,,,,,,,,,,,,,,,,,,left,1.0,0.8275802139833104,,,,,,sub-227,1,random_dot,61.16467049438232,
right,right,17.0,1.0,8.0,right,1.0,0.6520778279809747,,accuracy,space,2.500267677998636,,,,,,0.0,0.0,0.0,0.0,8.0,1.0,17.0,1.0,129.3463531010202,,,,,,,,,129.33084944900477,130.5297949530068,131.32981400200515,131.31319863902172,131.3135307970224,131.32981400200515,131.32981400200515,131.32981400200515,131.9972197340103,,,,,,,,,,,,,,,,,,,,,,,,,,,,,,right,1.0,0.6520778279809747,,,,,,sub-227,1,random_dot,61.16467049438232,
left,left,18.0,0.0,9.0,left,1.0,1.123483055998804,,accuracy,space,2.500267677998636,,,,,,0.0,0.0,0.0,0.0,9.0,0.0,18.0,0.0,132.01296120299958,,,,,,,,,131.99752495600842,133.1966175760026,133.99644529400393,133.97998476901557,133.9803626560024,133.99644529400393,133.99644529400393,133.99644529400393,135.1307327870163,,,,,,,,,,,,,,,,,,,,,,,,,,,,,,left,1.0,1.123483055998804,,,,,,sub-227,1,random_dot,61.16467049438232,
right,right,19.0,1.0,9.0,right,1.0,0.9102342750120442,,accuracy,space,2.500267677998636,,,,,,0.0,0.0,0.0,0.0,9.0,1.0,19.0,1.0,135.14631721601472,,,,,,,,,135.13117703000898,135.47974168299697,136.27957607401186,136.26338568000938,136.26376489902032,136.27957607401186,136.27957607401186,136.27957607401186,137.1979300030216,,,,,,,,,,,,,,,,,,,,,,,,,,,,,,right,1.0,0.9102342750120442,,,,,,sub-227,1,random_dot,61.16467049438232,
right,right,20.0,0.0,10.0,right,1.0,0.7917050890100654,,accuracy,space,2.500267677998636,,,,,,0.0,0.0,0.0,0.0,10.0,0.0,20.0,1.0,137.21287556400057,,,,,,,,,137.19823450999684,138.41300648701144,139.213027788006,139.1964082790073,139.19671083902358,139.213027788006,139.213027788006,139.213027788006,140.01388201100053,,,,,,,,,,,,,,,,,,,,,,,,,,,,,,right,1.0,0.7917050890100654,,,,,,sub-227,1,random_dot,61.16467049438232,
left,left,21.0,1.0,10.0,left,1.0,0.8414398700115271,,accuracy,space,2.500267677998636,,,,,,0.0,0.0,0.0,0.0,10.0,1.0,21.0,0.0,140.0295164740237,,,,,,,,,140.01418116802233,140.81290722702397,141.61320274701575,141.5967086990131,141.59714677699958,141.61320274701575,141.61320274701575,141.61320274701575,142.4638962720055,,,,,,,,,,,,,,,,,,,,,,,,,,,,,,left,1.0,0.8414398700115271,,,,,,sub-227,1,random_dot,61.16467049438232,
right,right,22.0,0.0,11.0,right,1.0,1.0000461829768028,,accuracy,space,2.500267677998636,,,,,,0.0,0.0,0.0,0.0,11.0,0.0,22.0,1.0,142.47953475700342,,,,,,,,,142.4642043460044,143.6629586520139,144.4633184420236,144.44660141100758,144.44700750001357,144.4633184420236,144.4633184420236,144.4633184420236,145.4656136550184,,,,,,,,,,,,,,,,,,,,,,,,,,,,,,right,1.0,1.0000461829768028,,,,,,sub-227,1,random_dot,61.16467049438232,
left,left,23.0,1.0,11.0,left,1.0,0.6604700270108879,,accuracy,space,2.500267677998636,,,,,,0.0,0.0,0.0,0.0,11.0,1.0,23.0,0.0,145.48152436700184,,,,,,,,,145.46606378501747,145.58027250901796,146.38028511599987,146.36323086899938,146.36353308701655,146.38028511599987,146.38028511599987,146.38028511599987,147.05792550102342,,,,,,,,,,,,,,,,,,,,,,,,,,,,,,left,1.0,0.6604700270108879,,,,,,sub-227,1,random_dot,61.16467049438232,
left,left,24.0,0.0,12.0,left,1.0,1.5915362770028878,,accuracy,space,2.500267677998636,,,,,,0.0,0.0,0.0,0.0,12.0,0.0,24.0,0.0,147.0740630630171,,,,,,,,,147.05877414302086,148.27298845301266,149.08194791901042,149.06169935900834,149.06305463399622,149.08194791901042,149.08194791901042,149.08194791901042,150.6867302340106,,,,,,,,,,,,,,,,,,,,,,,,,,,,,,left,1.0,1.5915362770028878,,,,,,sub-227,1,random_dot,61.16467049438232,
right,right,25.0,1.0,12.0,right,1.0,0.7055044330190867,,accuracy,space,2.500267677998636,,,,,,0.0,0.0,0.0,0.0,12.0,1.0,25.0,1.0,150.70193450100487,,,,,,,,,150.68717541801743,151.50438176799798,152.30949981699814,152.28919198201038,152.2903783460206,152.30949981699814,152.30949981699814,152.30949981699814,153.0263568299997,,,,,,,,,,,,,,,,,,,,,,,,,,,,,,right,1.0,0.7055044330190867,,,,,,sub-227,1,random_dot,61.16467049438232,
right,right,26.0,0.0,13.0,left,0.0,3.139871477003908,,accuracy,space,2.500267677998636,,,,,,0.0,0.0,0.0,0.0,13.0,0.0,26.0,1.0,153.0424493640021,,,,,,,,,153.0271144970029,154.23533042200145,155.0461290870153,155.0272613330162,155.0278325670224,155.0461290870153,155.0461290870153,155.0461290870153,158.19792206701825,,,,,,,,,,,,,,,,,,,,,,,,,,,,,,left,0.0,3.139871477003908,,,,,,sub-227,1,random_dot,61.16467049438232,
left,left,27.0,1.0,13.0,left,1.0,0.9164461870095691,,accuracy,space,2.500267677998636,,,,,,0.0,0.0,0.0,0.0,13.0,1.0,27.0,0.0,158.21327689199825,,,,,,,,,158.19823941102368,158.3132719200221,159.11310706101358,159.0969193110068,159.09735863600508,159.11310706101358,159.11310706101358,159.11310706101358,160.03102035901975,,,,,,,,,,,,,,,,,,,,,,,,,,,,,,left,1.0,0.9164461870095691,,,,,,sub-227,1,random_dot,61.16467049438232,
left,left,28.0,0.0,14.0,left,1.0,0.7911260620167013,,accuracy,space,2.500267677998636,,,,,,0.0,0.0,0.0,0.0,14.0,0.0,28.0,0.0,160.04623466302291,,,,,,,,,160.03145524201682,160.3967426000163,161.1965880439966,161.1800890820159,161.18053356799646,161.1965880439966,161.1965880439966,161.1965880439966,161.99762865001685,,,,,,,,,,,,,,,,,,,,,,,,,,,,,,left,1.0,0.7911260620167013,,,,,,sub-227,1,random_dot,61.16467049438232,
right,right,29.0,1.0,14.0,right,1.0,0.626129783981014,,accuracy,space,2.500267677998636,,,,,,0.0,0.0,0.0,0.0,14.0,1.0,29.0,1.0,162.01298723102082,,,,,,,,,161.99793663300807,162.11338294300367,162.91328909402364,162.8965667040029,162.89699969301,162.91328909402364,162.91328909402364,162.91328909402364,163.5475526250084,,,,,,,,,,,,,,,,,,,,,,,,,,,,,,right,1.0,0.626129783981014,,,,,,sub-227,1,random_dot,61.16467049438232,
left,left,30.0,0.0,15.0,left,1.0,0.674515054008225,,accuracy,space,2.500267677998636,,,,,,0.0,0.0,0.0,0.0,15.0,0.0,30.0,0.0,163.56303786599892,,,,,,,,,163.5478499029996,163.89654171699658,164.7066563060216,164.68873624200933,164.68918421902345,164.7066563060216,164.7066563060216,164.7066563060216,165.40128396899672,,,,,,,,,,,,,,,,,,,,,,,,,,,,,,left,1.0,0.674515054008225,,,,,,sub-227,1,random_dot,61.16467049438232,
right,right,31.0,1.0,15.0,right,1.0,0.8955783470009919,,accuracy,space,2.500267677998636,,,,,,0.0,0.0,0.0,0.0,15.0,1.0,31.0,1.0,165.41779176102136,,,,,,,,,165.40177122800378,166.21562766699935,167.02975401401636,167.01115023900638,167.01252300600754,167.02975401401636,167.02975401401636,167.02975401401636,167.92912273600814,,,,,,,,,,,,,,,,,,,,,,,,,,,,,,right,1.0,0.8955783470009919,,,,,,sub-227,1,random_dot,61.16467049438232,
right,right,32.0,0.0,16.0,right,1.0,3.880580094002653,,accuracy,space,2.500267677998636,,,,,,0.0,0.0,0.0,0.0,16.0,0.0,32.0,1.0,167.94447275201674,,,,,,,,,167.9299742570147,169.1414539469988,169.95263426101883,169.9354192269966,169.9358238709974,169.95263426101883,169.95263426101883,169.95263426101883,173.85494479502086,,,,,,,,,,,,,,,,,,,,,,,,,,,,,,right,1.0,3.880580094002653,,,,,,sub-227,1,random_dot,61.16467049438232,
left,left,33.0,1.0,16.0,left,1.0,1.9008714269730265,,accuracy,space,2.500267677998636,,,,,,0.0,0.0,0.0,0.0,16.0,1.0,33.0,0.0,173.8737190219981,,,,,,,,,173.85539771901676,174.2070787830162,175.01892790501006,175.00187705800636,175.00233383002342,175.01892790501006,175.01892790501006,175.01892790501006,176.93275581501075,,,,,,,,,,,,,,,,,,,,,,,,,,,,,,left,1.0,1.9008714269730265,,,,,,sub-227,1,random_dot,61.16467049438232,
left,left,34.0,0.0,17.0,left,1.0,0.7550964069960173,,accuracy,space,2.500267677998636,,,,,,0.0,0.0,0.0,0.0,17.0,0.0,34.0,0.0,176.94851751401438,,,,,,,,,176.93341314201825,177.2960543470108,178.10900489400956,178.0883134510077,178.08979579200968,178.10900489400956,178.10900489400956,178.10900489400956,178.86630304800929,,,,,,,,,,,,,,,,,,,,,,,,,,,,,,left,1.0,0.7550964069960173,,,,,,sub-227,1,random_dot,61.16467049438232,
right,right,35.0,1.0,17.0,right,1.0,2.0228706959751435,,accuracy,space,2.500267677998636,,,,,,0.0,0.0,0.0,0.0,17.0,1.0,35.0,1.0,178.8821346470213,,,,,,,,,178.86746464500902,179.2287707600044,180.04272160801338,180.02214028101298,180.02328739801305,180.04272160801338,180.04272160801338,180.04272160801338,182.06855626401372,,,,,,,,,,,,,,,,,,,,,,,,,,,,,,right,1.0,2.0228706959751435,,,,,,sub-227,1,random_dot,61.16467049438232,
left,left,36.0,0.0,18.0,left,1.0,1.976757753000129,,accuracy,space,2.500267677998636,,,,,,0.0,0.0,0.0,0.0,18.0,0.0,36.0,0.0,182.0839251760044,,,,,,,,,182.06925625100848,182.43223412599764,183.23645308602136,183.21775188902396,183.2187846150191,183.23645308602136,183.23645308602136,183.23645308602136,185.22985112600145,,,,,,,,,,,,,,,,,,,,,,,,,,,,,,left,1.0,1.976757753000129,,,,,,sub-227,1,random_dot,61.16467049438232,
right,right,37.0,1.0,18.0,right,1.0,2.903277816978516,,accuracy,space,2.500267677998636,,,,,,0.0,0.0,0.0,0.0,18.0,1.0,37.0,1.0,185.245675106009,,,,,,,,,185.2301526950032,185.3290967140056,186.12930783099728,186.1130787059956,186.11337312601967,186.12930783099728,186.12930783099728,186.12930783099728,189.04111529301736,,,,,,,,,,,,,,,,,,,,,,,,,,,,,,right,1.0,2.903277816978516,,,,,,sub-227,1,random_dot,61.16467049438232,
right,right,38.0,0.0,19.0,right,1.0,4.569490207999479,,accuracy,space,2.500267677998636,,,,,,0.0,0.0,0.0,0.0,19.0,0.0,38.0,1.0,189.05794965600944,,,,,,,,,189.0417916630104,189.84560389400576,190.6494647700165,190.63060608299568,190.6316580389976,190.6494647700165,190.6494647700165,190.6494647700165,195.23840916200425,,,,,,,,,,,,,,,,,,,,,,,,,,,,,,right,1.0,4.569490207999479,,,,,,sub-227,1,random_dot,61.16467049438232,
left,left,39.0,1.0,19.0,left,1.0,0.5915999140124768,,accuracy,space,2.500267677998636,,,,,,0.0,0.0,0.0,0.0,19.0,1.0,39.0,0.0,195.2549042480241,,,,,,,,,195.2388757270237,196.44941891700728,197.25214635202428,197.2354685010214,197.2358853650221,197.25214635202428,197.25214635202428,197.25214635202428,197.86658902600172,,,,,,,,,,,,,,,,,,,,,,,,,,,,,,left,1.0,0.5915999140124768,,,,,,sub-227,1,random_dot,61.16467049438232,
left,left,40.0,0.0,20.0,right,0.0,5.770555532013532,,accuracy,space,2.500267677998636,,,,,,0.0,0.0,0.0,0.0,20.0,0.0,40.0,0.0,197.8829152850085,,,,,,,,,197.8670684180106,198.68363658202,199.492636312003,199.47442803700687,199.47484621900367,199.492636312003,199.492636312003,199.492636312003,205.2724997549958,,,,,,,,,,,,,,,,,,,,,,,,,,,,,,right,0.0,5.770555532013532,,204.49728633501215,,,,sub-227,1,random_dot,61.16467049438232,
right,right,41.0,1.0,20.0,right,1.0,3.882122455019271,,accuracy,space,2.500267677998636,,,,,,0.0,0.0,0.0,0.0,20.0,1.0,41.0,1.0,205.2890720849973,,,,,,,,,205.2731963310216,205.37442758801623,206.1806136300147,206.1619139109971,206.16306467200047,206.1806136300147,206.1806136300147,206.1806136300147,210.08242852901455,,,,,,,,,,,,,,,,,,,,,,,,,,,,,,right,1.0,3.882122455019271,,,,,,sub-227,1,random_dot,61.16467049438232,
right,right,42.0,0.0,21.0,left,0.0,0.7575652220111806,,accuracy,space,2.500267677998636,,,,,,0.0,0.0,0.0,0.0,21.0,0.0,42.0,1.0,210.0994290340168,,,,,,,,,210.08319953401224,211.27924324100604,212.0922638120246,212.07391682901653,212.07459560100688,212.0922638120246,212.0922638120246,212.0922638120246,212.85143455900837,,,,,,,,,,,,,,,,,,,,,,,,,,,,,,left,0.0,0.7575652220111806,,,,,,sub-227,1,random_dot,61.16467049438232,
left,left,43.0,1.0,21.0,left,1.0,2.357108551019337,,accuracy,space,2.500267677998636,,,,,,0.0,0.0,0.0,0.0,21.0,1.0,43.0,0.0,212.86547379900003,,,,,,,,,212.8522092400235,214.054573299014,214.863447612006,214.8450894700072,214.84590649901656,214.863447612006,214.863447612006,214.863447612006,217.22890236301464,,,,,,,,,,,,,,,,,,,,,,,,,,,,,,left,1.0,2.357108551019337,,,,,,sub-227,1,random_dot,61.16467049438232,
left,left,44.0,0.0,22.0,left,1.0,1.0824041720188688,,accuracy,space,2.500267677998636,,,,,,0.0,0.0,0.0,0.0,22.0,0.0,44.0,0.0,217.24392800900387,,,,,,,,,217.22969616702176,217.3335393519956,218.14407660401776,218.12517270000532,218.1258661989996,218.14407660401776,218.14407660401776,218.14407660401776,219.2390154300083,,,,,,,,,,,,,,,,,,,,,,,,,,,,,,left,1.0,1.0824041720188688,,,,,,sub-227,1,random_dot,61.16467049438232,
right,right,45.0,1.0,22.0,right,1.0,2.501065072981873,,accuracy,space,2.500267677998636,,,,,,0.0,0.0,0.0,0.0,22.0,1.0,45.0,1.0,219.25457173099855,,,,,,,,,219.2394563849957,219.60114201699616,220.42044373700628,220.4024495120102,220.40299939800752,220.42044373700628,220.42044373700628,220.42044373700628,222.93209176301025,,,,,,,,,,,,,,,,,,,,,,,,,,,,,,right,1.0,2.501065072981873,,,,,,sub-227,1,random_dot,61.16467049438232,
right,right,46.0,0.0,23.0,left,0.0,2.6430404119892046,,accuracy,space,2.500267677998636,,,,,,0.0,0.0,0.0,0.0,23.0,0.0,46.0,1.0,222.9474347700016,,,,,,,,,222.93270823700004,224.1308395670203,224.93565737400783,224.9182788820181,224.9187413290201,224.93565737400783,224.93565737400783,224.93565737400783,227.59894531301688,,,,,,,,,,,,,,,,,,,,,,,,,,,,,,left,0.0,2.6430404119892046,,,,,,sub-227,1,random_dot,61.16467049438232,
left,left,47.0,1.0,23.0,left,1.0,1.0754856929997914,,accuracy,space,2.500267677998636,,,,,,0.0,0.0,0.0,0.0,23.0,1.0,47.0,0.0,227.6151516030077,,,,,,,,,227.59945288702147,228.4123415159993,229.21597479001505,229.1954292830196,229.19713885700912,229.21597479001505,229.21597479001505,229.21597479001505,230.2978714700148,,,,,,,,,,,,,,,,,,,,,,,,,,,,,,left,1.0,1.0754856929997914,,,,,,sub-227,1,random_dot,61.16467049438232,
right,right,48.0,0.0,24.0,right,1.0,1.1311016799882054,,accuracy,space,2.500267677998636,,,,,,0.0,0.0,0.0,0.0,24.0,0.0,48.0,1.0,230.3125401099969,,,,,,,,,230.2984828710032,230.6560933200235,231.4672090120148,231.4491829010076,231.44958896402383,231.4672090120148,231.4672090120148,231.4672090120148,232.60214273800372,,,,,,,,,,,,,,,,,,,,,,,,,,,,,,right,1.0,1.1311016799882054,,,,,,sub-227,1,random_dot,61.16467049438232,
left,left,49.0,1.0,24.0,left,1.0,0.7111135089944582,,accuracy,space,2.500267677998636,,,,,,0.0,0.0,0.0,0.0,24.0,1.0,49.0,0.0,232.61740997000012,,,,,,,,,232.60283240300487,233.8154050570156,234.6273027319985,234.60883620902317,234.6094213979959,234.6273027319985,234.6273027319985,234.6273027319985,235.3405061039957,,,,,,,,,,,,,,,,,,,,,,,,,,,,,,left,1.0,0.7111135089944582,,,,,,sub-227,1,random_dot,61.16467049438232,
right,right,50.0,0.0,25.0,right,1.0,1.058268829016015,,accuracy,space,2.500267677998636,,,,,,0.0,0.0,0.0,0.0,25.0,0.0,50.0,1.0,235.35585590600385,,,,,,,,,235.3417207960156,236.152761268022,236.9659542629961,236.94624240201665,236.9473064370104,236.9659542629961,236.9659542629961,236.9659542629961,238.03268271201523,,,,,,,,,,,,,,,,,,,,,,,,,,,,,,right,1.0,1.058268829016015,,,,,,sub-227,1,random_dot,61.16467049438232,
left,left,51.0,1.0,25.0,left,1.0,0.7136342070007231,,accuracy,space,2.500267677998636,,,,,,0.0,0.0,0.0,0.0,25.0,1.0,51.0,0.0,238.0493816579983,,,,,,,,,238.03316588501912,238.8436623809976,239.6515682580066,239.6331117800146,239.6341997870186,239.6515682580066,239.6515682580066,239.6515682580066,240.3827275520016,,,,,,,,,,,,,,,,,,,,,,,,,,,,,,left,1.0,0.7136342070007231,,,,,,sub-227,1,random_dot,61.16467049438232,
right,right,52.0,0.0,26.0,right,1.0,1.112102930987021,,accuracy,space,2.500267677998636,,,,,,0.0,0.0,0.0,0.0,26.0,0.0,52.0,1.0,240.3982885580044,,,,,,,,,240.3831873870222,240.4852644640196,241.30084700402224,241.2817655740073,241.2828202600067,241.30084700402224,241.30084700402224,241.30084700402224,242.4319917810208,,,,,,,,,,,,,,,,,,,,,,,,,,,,,,right,1.0,1.112102930987021,,,,,,sub-227,1,random_dot,61.16467049438232,
left,left,53.0,1.0,26.0,left,1.0,0.7095542530005332,,accuracy,space,2.500267677998636,,,,,,0.0,0.0,0.0,0.0,26.0,1.0,53.0,0.0,242.44791313502355,,,,,,,,,242.43248464801584,243.2411330320174,244.0495261430042,244.0299227500218,244.03101939201588,244.0495261430042,244.0495261430042,244.0495261430042,244.76824649699847,,,,,,,,,,,,,,,,,,,,,,,,,,,,,,left,1.0,0.7095542530005332,,,,,,sub-227,1,random_dot,61.16467049438232,
right,right,54.0,0.0,27.0,right,1.0,4.181558420008514,,accuracy,space,2.500267677998636,,,,,,0.0,0.0,0.0,0.0,27.0,0.0,54.0,1.0,244.78469055501049,,,,,,,,,244.7689679360192,245.5833189650148,246.3931820160069,246.3750925710192,246.3756576160085,246.3931820160069,246.3931820160069,246.3931820160069,250.590208973008,,,,,,,,,,,,,,,,,,,,,,,,,,,,,,right,1.0,4.181558420008514,,,,,,sub-227,1,random_dot,61.16467049438232,
left,left,55.0,1.0,27.0,left,1.0,0.8115568799839821,,accuracy,space,2.500267677998636,,,,,,0.0,0.0,0.0,0.0,27.0,1.0,55.0,0.0,250.60621796399937,,,,,,,,,250.590821550024,250.6927692840109,251.50030990102096,251.4806901050033,251.48187332000816,251.50030990102096,251.50030990102096,251.50030990102096,252.33297393700923,,,,,,,,,,,,,,,,,,,,,,,,,,,,,,left,1.0,0.8115568799839821,,,,,,sub-227,1,random_dot,61.16467049438232,
right,right,56.0,0.0,28.0,right,1.0,5.749448387010489,,accuracy,space,2.500267677998636,,,,,,0.0,0.0,0.0,0.0,28.0,0.0,56.0,1.0,252.349575766013,,,,,,,,,252.33347822801443,252.43698117299937,253.237766464008,253.22009992500531,253.2207362820045,253.237766464008,253.237766464008,253.237766464008,259.0062319020217,,,,,,,,,,,,,,,,,,,,,,,,,,,,,,right,1.0,5.749448387010489,,258.23459953902056,,,,sub-227,1,random_dot,61.16467049438232,
left,left,57.0,1.0,28.0,left,1.0,0.7392070159839932,,accuracy,space,2.500267677998636,,,,,,0.0,0.0,0.0,0.0,28.0,1.0,57.0,0.0,259.0226795950148,,,,,,,,,259.0068443150085,259.10686782799894,259.91255375000765,259.89295267601847,259.8943141910131,259.91255375000765,259.91255375000765,259.91255375000765,260.66891652700724,,,,,,,,,,,,,,,,,,,,,,,,,,,,,,left,1.0,0.7392070159839932,,,,,,sub-227,1,random_dot,61.16467049438232,
left,left,58.0,0.0,29.0,left,1.0,0.7717273109883536,,accuracy,space,2.500267677998636,,,,,,0.0,0.0,0.0,0.0,29.0,0.0,58.0,0.0,260.68425869199564,,,,,,,,,260.66936901101144,261.0335926219996,261.848920769,261.8291943950171,261.8302481050196,261.848920769,261.848920769,261.848920769,262.62659939500736,,,,,,,,,,,,,,,,,,,,,,,,,,,,,,left,1.0,0.7717273109883536,,,,,,sub-227,1,random_dot,61.16467049438232,
right,right,59.0,1.0,29.0,right,1.0,0.7453772199805826,,accuracy,space,2.500267677998636,,,,,,0.0,0.0,0.0,0.0,29.0,1.0,59.0,1.0,262.64182838902343,,,,,,,,,262.62787502401625,263.83013925602427,264.6450795349956,264.6264931030164,264.6269288629992,264.6450795349956,264.6450795349956,264.6450795349956,265.4057751680084,,,,,,,,,,,,,,,,,,,,,,,,,,,,,,right,1.0,0.7453772199805826,,,,,,sub-227,1,random_dot,61.16467049438232,
,,0.0,0.0,0.0,,,,,accuracy,space,2.500267677998636,,,,,,0.0,0.0,0.0,0.0,,,,,,,,,,,,,,,,,,,,,,,,,,,,,,,,,,,,,,,,,,,,,,,,,,,,,,,,,,,,sub-227,1,random_dot,61.16467049438232,
right,right,0.0,0.0,0.0,right,1.0,0.9344325120036956,,speed,space,1.5664851959736552,,,,,,0.0,1.0,1.0,1.0,0.0,0.0,0.0,1.0,267.03639870902407,,,,,,,,,267.0247489839967,267.37922379301745,268.1799892130075,268.1630540570186,268.1635268070095,268.1799892130075,268.1799892130075,268.1799892130075,269.1311893600214,,,,,,,,,,,,,,,,,,,,,,,265.4281725960027,265.4421559580078,265.4421559580078,267.01397203700617,space,1.5664851959736552,,right,1.0,0.9344325120036956,,,,,,sub-227,1,random_dot,61.16467049438232,
left,left,1.0,1.0,0.0,left,1.0,0.6702757129969541,,speed,space,1.5664851959736552,,,,,,0.0,1.0,1.0,1.0,0.0,1.0,1.0,0.0,269.1467158790037,,,,,,,,,269.1316344770021,270.3457741300226,271.14612505200785,271.1293710960017,271.1299306290166,271.14612505200785,271.14612505200785,271.14612505200785,271.83134498700383,,,,,,,,,,,,,,,,,,,,,,,,,,,,,,left,1.0,0.6702757129969541,,,,,,sub-227,1,random_dot,61.16467049438232,
right,right,2.0,0.0,1.0,right,1.0,1.7527091600059066,,speed,space,1.5664851959736552,,,,,,0.0,1.0,1.0,1.0,1.0,0.0,2.0,1.0,271.8472379920131,,,,,,,,,271.83180317201186,273.04585946101,273.84628239201265,273.8294768340129,273.8298950600147,273.84628239201265,273.84628239201265,273.84628239201265,275.6143396370171,,,,,,,,,,,,,,,,,,,,,,,,,,,,,,right,1.0,1.7527091600059066,,,,,,sub-227,1,random_dot,61.16467049438232,
left,left,3.0,1.0,1.0,right,0.0,2.6164934989938047,,speed,space,1.5664851959736552,,,,,,0.0,1.0,1.0,1.0,1.0,1.0,3.0,0.0,275.6298458740057,,,,,,,,,275.6147835980228,276.4290797279973,277.22942640900146,277.2125997010153,277.2130187640141,277.22942640900146,277.22942640900146,277.22942640900146,279.84748924701125,,,,,,,,,,,,,,,,,,,,,,,,,,,,,,right,0.0,2.6164934989938047,,,,,,sub-227,1,random_dot,61.16467049438232,
right,right,4.0,0.0,2.0,right,1.0,5.2231214009807445,,speed,space,1.5664851959736552,,,,,,0.0,1.0,1.0,1.0,2.0,0.0,4.0,1.0,279.86247582299984,,,,,,,,,279.8480103650072,281.0622029649967,281.86314176101587,281.8460256539984,281.84644076100085,281.86314176101587,281.86314176101587,281.86314176101587,287.09720444399863,,,,,,,,,,,,,,,,,,,,,,,,,,,,,,right,1.0,5.2231214009807445,,286.8457000000053,,,,sub-227,1,random_dot,61.16467049438232,
left,left,5.0,1.0,2.0,left,1.0,1.0946673589933198,,speed,space,1.5664851959736552,,,,,,0.0,1.0,1.0,1.0,2.0,1.0,5.0,0.0,287.11314171602135,,,,,,,,,287.09769577599945,287.4623582439963,288.26302106899675,288.2460467409983,288.2465136280225,288.26302106899675,288.26302106899675,288.26302106899675,289.3643857720017,,,,,,,,,,,,,,,,,,,,,,,,,,,,,,left,1.0,1.0946673589933198,,,,,,sub-227,1,random_dot,61.16467049438232,
right,right,6.0,0.0,3.0,left,0.0,1.4653217300074175,,speed,space,1.5664851959736552,,,,,,0.0,1.0,1.0,1.0,3.0,0.0,6.0,1.0,289.37983569400967,,,,,,,,,289.3648347420094,290.5788419030141,291.3794803210185,291.3626008600113,291.36307374201715,291.3794803210185,291.3794803210185,291.3794803210185,292.84708683702047,,,,,,,,,,,,,,,,,,,,,,,,,,,,,,left,0.0,1.4653217300074175,,,,,,sub-227,1,random_dot,61.16467049438232,
left,left,7.0,1.0,3.0,left,1.0,1.1401782640023157,,speed,space,1.5664851959736552,,,,,,0.0,1.0,1.0,1.0,3.0,1.0,7.0,0.0,292.8622380790184,,,,,,,,,292.84763533601654,294.0623520539957,294.862551068014,294.8457206420135,294.8461288010003,294.862551068014,294.862551068014,294.862551068014,296.0143159140134,,,,,,,,,,,,,,,,,,,,,,,,,,,,,,left,1.0,1.1401782640023157,,,,,,sub-227,1,random_dot,61.16467049438232,
left,left,8.0,0.0,4.0,left,1.0,1.1482075460080523,,speed,space,1.5664851959736552,,,,,,0.0,1.0,1.0,1.0,4.0,0.0,8.0,0.0,296.0300766279979,,,,,,,,,296.01475951701286,296.3788440670178,297.1790957119956,297.1623631210241,297.1627677710203,297.1790957119956,297.1790957119956,297.1790957119956,298.33058106101817,,,,,,,,,,,,,,,,,,,,,,,,,,,,,,left,1.0,1.1482075460080523,,,,,,sub-227,1,random_dot,61.16467049438232,
right,right,9.0,1.0,4.0,right,1.0,2.458351570996456,,speed,space,1.5664851959736552,,,,,,0.0,1.0,1.0,1.0,4.0,1.0,9.0,1.0,298.34563931199955,,,,,,,,,298.3311237300222,298.6955773810041,299.49594565402367,299.4791429640027,299.4796158000245,299.49594565402367,299.49594565402367,299.49594565402367,301.96396029600874,,,,,,,,,,,,,,,,,,,,,,,,,,,,,,right,1.0,2.458351570996456,,,,,,sub-227,1,random_dot,61.16467049438232,
left,left,10.0,0.0,5.0,left,1.0,0.7699601740168873,,speed,space,1.5664851959736552,,,,,,0.0,1.0,1.0,1.0,5.0,0.0,10.0,0.0,301.9797871840128,,,,,,,,,301.9644026340102,303.1787545330008,303.9791228440008,303.96228880700073,303.9627016960003,303.9791228440008,303.9791228440008,303.9791228440008,304.7637530899956,,,,,,,,,,,,,,,,,,,,,,,,,,,,,,left,1.0,0.7699601740168873,,,,,,sub-227,1,random_dot,61.16467049438232,
right,right,11.0,1.0,5.0,right,1.0,1.1401793469849508,,speed,space,1.5664851959736552,,,,,,0.0,1.0,1.0,1.0,5.0,1.0,11.0,1.0,304.77966613700846,,,,,,,,,304.7641979440232,305.5788127130072,306.3791576740041,306.3622638050001,306.3627263770031,306.3791576740041,306.3791576740041,306.3791576740041,307.53054483101005,,,,,,,,,,,,,,,,,,,,,,,,,,,,,,right,1.0,1.1401793469849508,,,,,,sub-227,1,random_dot,61.16467049438232,
right,right,12.0,0.0,6.0,left,0.0,1.5695426669844892,,speed,space,1.5664851959736552,,,,,,0.0,1.0,1.0,1.0,6.0,0.0,12.0,1.0,307.5461217560224,,,,,,,,,307.53098719901755,307.89517305302434,308.69553015602287,308.6788186650083,308.6792277740024,308.69553015602287,308.69553015602287,308.69553015602287,310.2807151620218,,,,,,,,,,,,,,,,,,,,,,,,,,,,,,left,0.0,1.5695426669844892,,,,,,sub-227,1,random_dot,61.16467049438232,
left,left,13.0,1.0,6.0,left,1.0,0.8196462180058006,,speed,space,1.5664851959736552,,,,,,0.0,1.0,1.0,1.0,6.0,1.0,13.0,0.0,310.2962399260141,,,,,,,,,310.28116203600075,311.4956731950224,312.2972574949963,312.27927681201254,312.2798591510218,312.2972574949963,312.2972574949963,312.2972574949963,313.130691311002,,,,,,,,,,,,,,,,,,,,,,,,,,,,,,left,1.0,0.8196462180058006,,,,,,sub-227,1,random_dot,61.16467049438232,
left,left,14.0,0.0,7.0,left,1.0,0.6801070730143692,,speed,space,1.5664851959736552,,,,,,0.0,1.0,1.0,1.0,7.0,0.0,14.0,0.0,313.146503639,,,,,,,,,313.1311358960229,313.4952885280072,314.29558613401605,314.278756351996,314.2791717220098,314.29558613401605,314.29558613401605,314.29558613401605,314.9799886030087,,,,,,,,,,,,,,,,,,,,,,,,,,,,,,left,1.0,0.6801070730143692,,,,,,sub-227,1,random_dot,61.16467049438232,
right,right,15.0,1.0,7.0,right,1.0,0.9992321229947264,,speed,space,1.5664851959736552,,,,,,0.0,1.0,1.0,1.0,7.0,1.0,15.0,1.0,314.9959955140075,,,,,,,,,314.9806782170199,315.0956368019979,315.8956016820157,315.8787658570218,315.879180265998,315.8956016820157,315.8956016820157,315.8956016820157,316.896815813001,,,,,,,,,,,,,,,,,,,,,,,,,,,,,,right,1.0,0.9992321229947264,,,,,,sub-227,1,random_dot,61.16467049438232,
left,left,16.0,0.0,8.0,left,1.0,0.7414161009946838,,speed,space,1.5664851959736552,,,,,,0.0,1.0,1.0,1.0,8.0,0.0,16.0,0.0,316.9119149460166,,,,,,,,,316.897355196008,318.1118249450228,318.9124321069976,318.8956795380218,318.89611292802147,318.9124321069976,318.9124321069976,318.9124321069976,319.6637348830118,,,,,,,,,,,,,,,,,,,,,,,,,,,,,,left,1.0,0.7414161009946838,,,,,,sub-227,1,random_dot,61.16467049438232,
right,right,17.0,1.0,8.0,right,1.0,1.2097538200032432,,speed,space,1.5664851959736552,,,,,,0.0,1.0,1.0,1.0,8.0,1.0,17.0,1.0,319.6792729340086,,,,,,,,,319.6641755470191,320.0285984680231,320.8289300220204,320.8121836920036,320.8126029690029,320.8289300220204,320.8289300220204,320.8289300220204,322.0467327939987,,,,,,,,,,,,,,,,,,,,,,,,,,,,,,right,1.0,1.2097538200032432,,,,,,sub-227,1,random_dot,61.16467049438232,
left,left,18.0,0.0,9.0,left,1.0,0.8001212780072819,,speed,space,1.5664851959736552,,,,,,0.0,1.0,1.0,1.0,9.0,0.0,18.0,0.0,322.06256258900976,,,,,,,,,322.0471774190082,323.26187267902424,324.06227761501214,324.0453800240066,324.04585097602103,324.06227761501214,324.06227761501214,324.06227761501214,324.8805708940199,,,,,,,,,,,,,,,,,,,,,,,,,,,,,,left,1.0,0.8001212780072819,,,,,,sub-227,1,random_dot,61.16467049438232,
right,right,19.0,1.0,9.0,right,1.0,0.8678089609893505,,speed,space,1.5664851959736552,,,,,,0.0,1.0,1.0,1.0,9.0,1.0,19.0,1.0,324.89602570902207,,,,,,,,,324.8810229790106,325.6950466080161,326.4955336660205,326.47879321101937,326.47921118701925,326.4955336660205,326.4955336660205,326.4955336660205,327.38029048399767,,,,,,,,,,,,,,,,,,,,,,,,,,,,,,right,1.0,0.8678089609893505,,,,,,sub-227,1,random_dot,61.16467049438232,
left,left,20.0,0.0,10.0,left,1.0,0.9921282770228572,,speed,space,1.5664851959736552,,,,,,0.0,1.0,1.0,1.0,10.0,0.0,20.0,0.0,327.3957809560234,,,,,,,,,327.38072714500595,327.4949666290195,328.296252361004,328.27878584500286,328.27920093599823,328.296252361004,328.296252361004,328.296252361004,329.29671486100415,,,,,,,,,,,,,,,,,,,,,,,,,,,,,,left,1.0,0.9921282770228572,,,,,,sub-227,1,random_dot,61.16467049438232,
right,right,21.0,1.0,10.0,right,1.0,0.7800643270020373,,speed,space,1.5664851959736552,,,,,,0.0,1.0,1.0,1.0,10.0,1.0,21.0,1.0,329.312353693007,,,,,,,,,329.29715563802165,330.1116168709996,330.9121460210008,330.8953446840169,330.89581327099586,330.9121460210008,330.9121460210008,330.9121460210008,331.69632872901275,,,,,,,,,,,,,,,,,,,,,,,,,,,,,,right,1.0,0.7800643270020373,,,,,,sub-227,1,random_dot,61.16467049438232,
left,left,22.0,0.0,11.0,left,1.0,0.9490405030082912,,speed,space,1.5664851959736552,,,,,,0.0,1.0,1.0,1.0,11.0,0.0,22.0,0.0,331.71230541099794,,,,,,,,,331.6968637170212,331.8116716030054,332.6122082830116,332.5953926220245,332.5958133530221,332.6122082830116,332.6122082830116,332.6122082830116,333.56324442802,,,,,,,,,,,,,,,,,,,,,,,,,,,,,,left,1.0,0.9490405030082912,,,,,,sub-227,1,random_dot,61.16467049438232,
right,right,23.0,1.0,11.0,right,1.0,2.8046948190021794,,speed,space,1.5664851959736552,,,,,,0.0,1.0,1.0,1.0,11.0,1.0,23.0,1.0,333.5782159290102,,,,,,,,,333.5638487530232,333.92839224802447,334.72878943700925,334.7120313270134,334.71244915301213,334.72878943700925,334.72878943700925,334.72878943700925,337.54673378000734,,,,,,,,,,,,,,,,,,,,,,,,,,,,,,right,1.0,2.8046948190021794,,,,,,sub-227,1,random_dot,61.16467049438232,
right,right,24.0,0.0,12.0,right,1.0,3.0021578180021606,,speed,space,1.5664851959736552,,,,,,0.0,1.0,1.0,1.0,12.0,0.0,24.0,1.0,337.5624704100192,,,,,,,,,337.5471804820117,338.36161859802087,339.1621956739982,339.1453779780132,339.14578769000946,339.1621956739982,339.1621956739982,339.1621956739982,342.1803999510012,,,,,,,,,,,,,,,,,,,,,,,,,,,,,,right,1.0,3.0021578180021606,,,,,,sub-227,1,random_dot,61.16467049438232,
left,left,25.0,1.0,12.0,left,1.0,0.7010581679933239,,speed,space,1.5664851959736552,,,,,,0.0,1.0,1.0,1.0,12.0,1.0,25.0,0.0,342.19674811299774,,,,,,,,,342.18094818500686,342.99499439800275,343.79611915300484,343.7785743320128,343.77906784499646,343.79611915300484,343.79611915300484,343.79611915300484,344.50374057501904,,,,,,,,,,,,,,,,,,,,,,,,,,,,,,left,1.0,0.7010581679933239,,,,,,sub-227,1,random_dot,61.16467049438232,
right,right,26.0,0.0,13.0,right,1.0,1.883257520996267,,speed,space,1.5664851959736552,,,,,,0.0,1.0,1.0,1.0,13.0,0.0,26.0,1.0,344.5176209080091,,,,,,,,,344.5044186540181,344.86343689702335,345.6786841030116,345.6615229980089,345.6619307360088,345.6786841030116,345.6786841030116,345.6786841030116,347.58002602501074,,,,,,,,,,,,,,,,,,,,,,,,,,,,,,right,1.0,1.883257520996267,,,,,,sub-227,1,random_dot,61.16467049438232,
left,left,27.0,1.0,13.0,left,1.0,1.2250120169774164,,speed,space,1.5664851959736552,,,,,,0.0,1.0,1.0,1.0,13.0,1.0,27.0,0.0,347.5958362329984,,,,,,,,,347.5804715700215,348.7948908790131,349.59511679800926,349.5783551100176,349.57882037301897,349.59511679800926,349.59511679800926,349.59511679800926,350.83042163500795,,,,,,,,,,,,,,,,,,,,,,,,,,,,,,left,1.0,1.2250120169774164,,,,,,sub-227,1,random_dot,61.16467049438232,
left,left,28.0,0.0,14.0,right,0.0,2.571441012987634,,speed,space,1.5664851959736552,,,,,,0.0,1.0,1.0,1.0,14.0,0.0,28.0,0.0,350.8457525980193,,,,,,,,,350.8308671050181,351.6448204200133,352.4453592830105,352.4284206239972,352.4289166870003,352.4453592830105,352.4453592830105,352.4453592830105,355.0299631640082,,,,,,,,,,,,,,,,,,,,,,,,,,,,,,right,0.0,2.571441012987634,,,,,,sub-227,1,random_dot,61.16467049438232,
right,right,29.0,1.0,14.0,left,0.0,1.9440514240122864,,speed,space,1.5664851959736552,,,,,,0.0,1.0,1.0,1.0,14.0,1.0,29.0,1.0,355.04571632499574,,,,,,,,,355.0304053990112,355.14454852201743,355.9451047740004,355.92834456902347,355.9287524070241,355.9451047740004,355.9451047740004,355.9451047740004,357.8965166840062,,,,,,,,,,,,,,,,,,,,,,,,,,,,,,left,0.0,1.9440514240122864,,,,,,sub-227,1,random_dot,61.16467049438232,
left,left,30.0,0.0,15.0,left,1.0,1.2543908859952353,,speed,space,1.5664851959736552,,,,,,0.0,1.0,1.0,1.0,15.0,0.0,30.0,0.0,357.9121788290213,,,,,,,,,357.8970057350234,358.2613478230196,359.06169770800625,359.0448714410013,359.04534120700555,359.06169770800625,359.06169770800625,359.06169770800625,360.33097260599607,,,,,,,,,,,,,,,,,,,,,,,,,,,,,,left,1.0,1.2543908859952353,,,,,,sub-227,1,random_dot,61.16467049438232,
right,right,31.0,1.0,15.0,right,1.0,1.029890310979681,,speed,space,1.5664851959736552,,,,,,0.0,1.0,1.0,1.0,15.0,1.0,31.0,1.0,360.3467205920024,,,,,,,,,360.3314204089984,360.6946504950174,361.4950946040044,361.4782119650045,361.4786213560146,361.4950946040044,361.4950946040044,361.4950946040044,362.5300827129977,,,,,,,,,,,,,,,,,,,,,,,,,,,,,,right,1.0,1.029890310979681,,,,,,sub-227,1,random_dot,61.16467049438232,
right,right,32.0,0.0,16.0,right,1.0,0.9082521370146424,,speed,space,1.5664851959736552,,,,,,0.0,1.0,1.0,1.0,16.0,0.0,32.0,1.0,362.5457622980175,,,,,,,,,362.5307397810102,362.6446014830144,363.4448875430098,363.4282044370193,363.4286221930233,363.4448875430098,363.4448875430098,363.4448875430098,364.3628637960064,,,,,,,,,,,,,,,,,,,,,,,,,,,,,,right,1.0,0.9082521370146424,,,,,,sub-227,1,random_dot,61.16467049438232,
left,left,33.0,1.0,16.0,left,1.0,0.7604133980057668,,speed,space,1.5664851959736552,,,,,,0.0,1.0,1.0,1.0,16.0,1.0,33.0,0.0,364.37863732202095,,,,,,,,,364.3633114749973,365.1778929660213,365.97852462000446,365.9616498090036,365.96212021200336,365.97852462000446,365.97852462000446,365.97852462000446,366.7460655220202,,,,,,,,,,,,,,,,,,,,,,,,,,,,,,left,1.0,0.7604133980057668,,,,,,sub-227,1,random_dot,61.16467049438232,
left,left,34.0,0.0,17.0,left,1.0,1.036083108978346,,speed,space,1.5664851959736552,,,,,,0.0,1.0,1.0,1.0,17.0,0.0,34.0,0.0,366.7618679100124,,,,,,,,,366.7465218100115,367.9612482600205,368.7615152390208,368.7447501290008,368.74516079502064,368.7615152390208,368.7615152390208,368.7615152390208,369.8130040719989,,,,,,,,,,,,,,,,,,,,,,,,,,,,,,left,1.0,1.036083108978346,,,,,,sub-227,1,random_dot,61.16467049438232,
right,right,35.0,1.0,17.0,right,1.0,2.1900026939983945,,speed,space,1.5664851959736552,,,,,,0.0,1.0,1.0,1.0,17.0,1.0,35.0,1.0,369.8288380140148,,,,,,,,,369.8134557720041,370.6279198150151,371.4281161070103,371.4113860220241,371.4118224090198,371.4281161070103,371.4281161070103,371.4281161070103,373.6358867259987,,,,,,,,,,,,,,,,,,,,,,,,,,,,,,right,1.0,2.1900026939983945,,,,,,sub-227,1,random_dot,61.16467049438232,
left,left,36.0,0.0,18.0,left,1.0,0.7403633520007133,,speed,space,1.5664851959736552,,,,,,0.0,1.0,1.0,1.0,18.0,0.0,36.0,0.0,373.6504818980175,,,,,,,,,373.63654943500296,373.9942862270109,374.7948035880109,374.7781072360231,374.7785798679979,374.7948035880109,374.7948035880109,374.7948035880109,375.5469069190149,,,,,,,,,,,,,,,,,,,,,,,,,,,,,,left,1.0,0.7403633520007133,,,,,,sub-227,1,random_dot,61.16467049438232,
right,right,37.0,1.0,18.0,left,0.0,5.905885895015672,,speed,space,1.5664851959736552,,,,,,0.0,1.0,1.0,1.0,18.0,1.0,37.0,1.0,375.56235173202,,,,,,,,,375.54751836002106,376.3611856360221,377.1614374190103,377.1445466690057,377.1450121920207,377.1614374190103,377.1614374190103,377.1614374190103,383.0791019909957,,,,,,,,,,,,,,,,,,,,,,,,,,,,,,left,0.0,5.905885895015672,,382.1444385820069,,,,sub-227,1,random_dot,61.16467049438232,
right,right,38.0,0.0,19.0,right,1.0,0.8121032690105494,,speed,space,1.5664851959736552,,,,,,0.0,1.0,1.0,1.0,19.0,0.0,38.0,1.0,383.0951154830109,,,,,,,,,383.0795455129992,384.2943456470093,385.0947056650184,385.0779200490215,385.0783896899957,385.0947056650184,385.0947056650184,385.0947056650184,385.9127060430183,,,,,,,,,,,,,,,,,,,,,,,,,,,,,,right,1.0,0.8121032690105494,,,,,,sub-227,1,random_dot,61.16467049438232,
left,left,39.0,1.0,19.0,left,1.0,0.9656541799777189,,speed,space,1.5664851959736552,,,,,,0.0,1.0,1.0,1.0,19.0,1.0,39.0,0.0,385.9290136870113,,,,,,,,,385.91317831902415,386.7277418930025,387.52823439400527,387.511337894015,387.5117578190111,387.52823439400527,387.52823439400527,387.52823439400527,388.4959120630229,,,,,,,,,,,,,,,,,,,,,,,,,,,,,,left,1.0,0.9656541799777189,,,,,,sub-227,1,random_dot,61.16467049438232,
left,left,40.0,0.0,20.0,left,1.0,2.646136283990927,,speed,space,1.5664851959736552,,,,,,0.0,1.0,1.0,1.0,20.0,0.0,40.0,0.0,388.5109916370129,,,,,,,,,388.49653669801774,389.7108545890078,390.5114952150034,390.4946821600024,390.4951001450245,390.5114952150034,390.5114952150034,390.5114952150034,393.1623215349973,,,,,,,,,,,,,,,,,,,,,,,,,,,,,,left,1.0,2.646136283990927,,,,,,sub-227,1,random_dot,61.16467049438232,
right,right,41.0,1.0,20.0,right,1.0,2.85996601197985,,speed,space,1.5664851959736552,,,,,,0.0,1.0,1.0,1.0,20.0,1.0,41.0,1.0,393.1783547649975,,,,,,,,,393.1629315330065,393.9775509940228,394.7779167760164,394.76114028901793,394.76155567899696,394.7779167760164,394.7779167760164,394.7779167760164,397.6461061380105,,,,,,,,,,,,,,,,,,,,,,,,,,,,,,right,1.0,2.85996601197985,,,,,,sub-227,1,random_dot,61.16467049438232,
right,right,42.0,0.0,21.0,left,0.0,2.238385147997178,,speed,space,1.5664851959736552,,,,,,0.0,1.0,1.0,1.0,21.0,0.0,42.0,1.0,397.6622318410082,,,,,,,,,397.64663413501694,397.7608484700031,398.5612765380065,398.54435830700095,398.54484321101336,398.5612765380065,398.5612765380065,398.5612765380065,400.8125602260116,,,,,,,,,,,,,,,,,,,,,,,,,,,,,,left,0.0,2.238385147997178,,,,,,sub-227,1,random_dot,61.16467049438232,
left,left,43.0,1.0,21.0,left,1.0,0.917323314002715,,speed,space,1.5664851959736552,,,,,,0.0,1.0,1.0,1.0,21.0,1.0,43.0,0.0,400.8282348320063,,,,,,,,,400.81301159999566,401.1773513140215,401.97793156601256,401.9610466040031,401.96146359702107,401.97793156601256,401.97793156601256,401.97793156601256,402.912900374009,,,,,,,,,,,,,,,,,,,,,,,,,,,,,,left,1.0,0.917323314002715,,,,,,sub-227,1,random_dot,61.16467049438232,
left,left,44.0,0.0,22.0,left,1.0,3.832873637991725,,speed,space,1.5664851959736552,,,,,,0.0,1.0,1.0,1.0,22.0,0.0,44.0,0.0,402.928444796009,,,,,,,,,402.9133586620155,403.27734868900734,404.0778285720153,404.06095032099984,404.0614215680107,404.0778285720153,404.0778285720153,404.0778285720153,407.91280762301176,,,,,,,,,,,,,,,,,,,,,,,,,,,,,,left,1.0,3.832873637991725,,,,,,sub-227,1,random_dot,61.16467049438232,
right,right,45.0,1.0,22.0,right,1.0,2.1830393330019437,,speed,space,1.5664851959736552,,,,,,0.0,1.0,1.0,1.0,22.0,1.0,45.0,1.0,407.9278045710234,,,,,,,,,407.9134144500131,409.1274397710222,409.927646776021,409.9109215130157,409.9113348970132,409.927646776021,409.927646776021,409.927646776021,412.11224437202327,,,,,,,,,,,,,,,,,,,,,,,,,,,,,,right,1.0,2.1830393330019437,,,,,,sub-227,1,random_dot,61.16467049438232,
left,left,46.0,0.0,23.0,left,1.0,0.8630716979969293,,speed,space,1.5664851959736552,,,,,,0.0,1.0,1.0,1.0,23.0,0.0,46.0,0.0,412.1273438000062,,,,,,,,,412.1128533200245,412.47723713802407,413.27770260800025,413.2609318240138,413.2613673930173,413.27770260800025,413.27770260800025,413.27770260800025,414.1453976210032,,,,,,,,,,,,,,,,,,,,,,,,,,,,,,left,1.0,0.8630716979969293,,,,,,sub-227,1,random_dot,61.16467049438232,
right,right,47.0,1.0,23.0,right,1.0,0.7092641349881887,,speed,space,1.5664851959736552,,,,,,0.0,1.0,1.0,1.0,23.0,1.0,47.0,1.0,414.1613592200156,,,,,,,,,414.146075474011,415.3606038640137,416.16135325000505,416.1441464770178,416.1446126450028,416.16135325000505,416.16135325000505,416.16135325000505,416.8786778820213,,,,,,,,,,,,,,,,,,,,,,,,,,,,,,right,1.0,0.7092641349881887,,,,,,sub-227,1,random_dot,61.16467049438232,
right,right,48.0,0.0,24.0,right,1.0,1.4512817530194295,,speed,space,1.5664851959736552,,,,,,0.0,1.0,1.0,1.0,24.0,0.0,48.0,1.0,416.894889919,,,,,,,,,416.8791255420074,417.2439062799968,418.04412514102296,418.0274339750176,418.0278498319967,418.04412514102296,418.04412514102296,418.04412514102296,419.51291395700537,,,,,,,,,,,,,,,,,,,,,,,,,,,,,,right,1.0,1.4512817530194295,,,,,,sub-227,1,random_dot,61.16467049438232,
left,left,49.0,1.0,24.0,left,1.0,1.0878147009934764,,speed,space,1.5664851959736552,,,,,,0.0,1.0,1.0,1.0,24.0,1.0,49.0,0.0,419.5282255480124,,,,,,,,,419.5133614120132,420.3271823340037,421.1276883750106,421.1109104490024,421.11137876001885,421.1276883750106,421.1276883750106,421.1276883750106,422.229226772004,,,,,,,,,,,,,,,,,,,,,,,,,,,,,,left,1.0,1.0878147009934764,,,,,,sub-227,1,random_dot,61.16467049438232,
left,left,50.0,0.0,25.0,right,0.0,2.168361164018279,,speed,space,1.5664851959736552,,,,,,0.0,1.0,1.0,1.0,25.0,0.0,50.0,0.0,422.2447457149974,,,,,,,,,422.22967406202224,422.5938041619957,423.39481589000206,423.3774719650101,423.3779623490118,423.39481589000206,423.39481589000206,423.39481589000206,425.57909635300166,,,,,,,,,,,,,,,,,,,,,,,,,,,,,,right,0.0,2.168361164018279,,,,,,sub-227,1,random_dot,61.16467049438232,
right,right,51.0,1.0,25.0,right,1.0,2.7153817120124586,,speed,space,1.5664851959736552,,,,,,0.0,1.0,1.0,1.0,25.0,1.0,51.0,1.0,425.5947622450185,,,,,,,,,425.5795494269987,426.3937278939993,427.19561626401264,427.1775742839964,427.1781779500016,427.19561626401264,427.19561626401264,427.19561626401264,429.9302460650215,,,,,,,,,,,,,,,,,,,,,,,,,,,,,,right,1.0,2.7153817120124586,,,,,,sub-227,1,random_dot,61.16467049438232,
right,right,52.0,0.0,26.0,left,0.0,1.0026390419807285,,speed,space,1.5664851959736552,,,,,,0.0,1.0,1.0,1.0,26.0,0.0,52.0,1.0,429.9465203550062,,,,,,,,,429.9308018000156,430.04352373001166,430.8445809080149,430.8275573989959,430.8279656530067,430.8445809080149,430.8445809080149,430.8445809080149,431.8621651889989,,,,,,,,,,,,,,,,,,,,,,,,,,,,,,left,0.0,1.0026390419807285,,,,,,sub-227,1,random_dot,61.16467049438232,
left,left,53.0,1.0,26.0,left,1.0,1.009633951995056,,speed,space,1.5664851959736552,,,,,,0.0,1.0,1.0,1.0,26.0,1.0,53.0,0.0,431.8778368400235,,,,,,,,,431.8626237550052,431.9767640170176,432.7774514380144,432.76055285701295,432.7609663449985,432.7774514380144,432.7774514380144,432.7774514380144,433.795992385014,,,,,,,,,,,,,,,,,,,,,,,,,,,,,,left,1.0,1.009633951995056,,,,,,sub-227,1,random_dot,61.16467049438232,
right,right,54.0,0.0,27.0,right,1.0,0.7669194690242875,,speed,space,1.5664851959736552,,,,,,0.0,1.0,1.0,1.0,27.0,0.0,54.0,1.0,433.8127355870092,,,,,,,,,433.7966801260191,434.6103124790243,435.4111961990129,435.393860117998,435.3942694970174,435.4111961990129,435.4111961990129,435.4111961990129,436.180130718014,,,,,,,,,,,,,,,,,,,,,,,,,,,,,,right,1.0,0.7669194690242875,,,,,,sub-227,1,random_dot,61.16467049438232,
left,left,55.0,1.0,27.0,left,1.0,0.809361349005485,,speed,space,1.5664851959736552,,,,,,0.0,1.0,1.0,1.0,27.0,1.0,55.0,0.0,436.1950794320146,,,,,,,,,436.1807978680008,436.5437911460176,437.3446971780213,437.3271515100205,437.3275653760065,437.3446971780213,437.3446971780213,437.3446971780213,438.1631216990063,,,,,,,,,,,,,,,,,,,,,,,,,,,,,,left,1.0,0.809361349005485,,,,,,sub-227,1,random_dot,61.16467049438232,
right,right,56.0,0.0,28.0,right,1.0,0.8953002759953961,,speed,space,1.5664851959736552,,,,,,0.0,1.0,1.0,1.0,28.0,0.0,56.0,1.0,438.1786298110092,,,,,,,,,438.1635653580015,438.5270235000062,439.3280190890073,439.310538818012,439.3109673940053,439.3280190890073,439.3280190890073,439.3280190890073,440.2300392780162,,,,,,,,,,,,,,,,,,,,,,,,,,,,,,right,1.0,0.8953002759953961,,,,,,sub-227,1,random_dot,61.16467049438232,
left,left,57.0,1.0,28.0,left,1.0,0.7162002469995059,,speed,space,1.5664851959736552,,,,,,0.0,1.0,1.0,1.0,28.0,1.0,57.0,0.0,440.2457353490172,,,,,,,,,440.2304814130184,440.34357383599854,441.1443301929976,441.12702493200777,441.12743680900894,441.1443301929976,441.1443301929976,441.1443301929976,441.8626199480205,,,,,,,,,,,,,,,,,,,,,,,,,,,,,,left,1.0,0.7162002469995059,,,,,,sub-227,1,random_dot,61.16467049438232,
right,right,58.0,0.0,29.0,right,1.0,1.0783021429961082,,speed,space,1.5664851959736552,,,,,,0.0,1.0,1.0,1.0,29.0,0.0,58.0,1.0,441.87777995702345,,,,,,,,,441.8633358450024,443.0767637620156,443.87767377201817,443.8605888970196,443.86100966800586,443.87767377201817,443.87767377201817,443.87767377201817,444.96492239899817,,,,,,,,,,,,,,,,,,,,,,,,,,,,,,right,1.0,1.0783021429961082,,,,,,sub-227,1,random_dot,61.16467049438232,
left,left,59.0,1.0,29.0,left,1.0,0.9935231849958654,,speed,space,1.5664851959736552,,,,,,0.0,1.0,1.0,1.0,29.0,1.0,59.0,0.0,444.980565787002,,,,,,,,,444.9653721470095,445.77681831200607,446.5774136370164,446.56035622101626,446.5608071860042,446.5774136370164,446.5774136370164,446.5774136370164,447.5803722910059,,,,,,,,,,,,,,,,,,,,,,,,,,,,,,left,1.0,0.9935231849958654,,,,,,sub-227,1,random_dot,61.16467049438232,
,,1.0,1.0,0.0,,,,,speed,space,1.5664851959736552,,,,,,0.0,1.0,1.0,1.0,,,,,,,,,,,,,,,,,,,,,,,,,,,,,,,,,,,,,,,,,,,,,,,,,,,,,,,,,,,,sub-227,1,random_dot,61.16467049438232,
,,,,,,,,,,,,,,,,,,,,,,,,,,,,,,,,,,,,,,,,,,,,,,,,,,,,,,,,,,,,,,,,,,,,,,,,,,,,,447.59157034399686,447.6064691360225,452.5940979050065,sub-227,1,random_dot,61.16467049438232,
