direction,corrAns,randomInstr,practice_trials.thisRepN,practice_trials.thisTrialN,practice_trials.thisN,practice_trials.thisIndex,instr_trials.thisRepN,instr_trials.thisTrialN,instr_trials.thisN,instr_trials.thisIndex,test_trials.thisRepN,test_trials.thisTrialN,test_trials.thisN,test_trials.thisIndex,thisRow.t,notes,general_instruction.started,textGeneralInstr.started,respGeneralInstr.started,general_instruction.stopped,respGeneralInstr.keys,respGeneralInstr.rt,respGeneralInstr.duration,ITI.started,fixcross.started,fixcross.stopped,ITI.stopped,dots.started,backgroundDots.started,stimulusDots.started,respDots.started,stimulusDots.stopped,dots.stopped,respDots.keys,respDots.corr,respDots.rt,respDots.duration,feedback.started,textFeedback.started,feedback.stopped,textFeedback.stopped,info.started,textInfo.started,keyRespInfo.started,info.stopped,keyRespInfo.keys,keyRespInfo.rt,keyRespInfo.duration,test_instruction.started,textTestInstr.started,respTestInstr.started,test_instruction.stopped,respTestInstr.keys,respTestInstr.rt,respTestInstr.duration,random_instruction.started,textRandomInstr.started,respRandomInstr.started,random_instruction.stopped,respRandomInstr.keys,respRandomInstr.rt,respRandomInstr.duration,goodbye.started,textGoodbye.started,goodbye.stopped,participant,session,date,expName,psychopyVersion,frameRate,expStart
,,,,,,,,,,,,,,,,,0.0339886,0.0504872,0.0504872,16.0551964,space,47.5573912,None,,,,,,,,,,,,,,,,,,,,,,,,,,,,,,,,,,,,,,,,,,,sub-138,1,2025-03-11_11h53.02.965,random_dot,03.02.2023,60.011006,2025-03-11 11h53.23.660501 +0100
right,right,,0,0,0,1,,,,,,,,,16.1039029,,,,,,,,,16.0831371,16.4197854,17.4352637,17.2035463,17.2035941,17.4352637,17.4352637,17.4352637,22.2313481,25.2638281,left,0,39.3890875,None,25.2735835,25.3119302,25.7784629,,,,,,,,,,,,,,,,,,,,,,,,,,sub-138,1,2025-03-11_11h53.02.965,random_dot,03.02.2023,60.011006,2025-03-11 11h53.23.660501 +0100
left,left,,0,1,1,0,,,,,,,,,25.7953082,,,,,,,,,25.7793181,25.8782688,26.6775196,26.6621058,26.6621663,26.6775196,26.6775196,26.6775196,,29.2437911,left,1,34.1256823,None,29.2448887,29.2751516,29.7582594,,,,,,,,,,,,,,,,,,,,,,,,,,sub-138,1,2025-03-11_11h53.02.965,random_dot,03.02.2023,60.011006,2025-03-11 11h53.23.660501 +0100
right,right,,1,0,2,1,,,,,,,,,29.7747779,,,,,,,,,29.7590529,29.8582397,30.6573279,30.6416583,30.6417033,30.6573279,30.6573279,30.6573279,,31.6580588,left,0,32.5537499,None,31.6591442,31.6742571,32.1599387,32.1754973,,,,,,,,,,,,,,,,,,,,,,,,,sub-138,1,2025-03-11_11h53.02.965,random_dot,03.02.2023,60.011006,2025-03-11 11h53.23.660501 +0100
left,left,,1,1,3,0,,,,,,,,,32.1754973,,,,,,,,,32.160723,32.5088275,33.3088809,33.2926639,33.2927072,33.3088809,33.3088809,33.3088809,,35.2259335,left,1,33.4620243,None,35.2270184,35.2532674,35.7363409,,,,,,,,,,,,,,,,,,,,,,,,,,sub-138,1,2025-03-11_11h53.02.965,random_dot,03.02.2023,60.011006,2025-03-11 11h53.23.660501 +0100
left,left,,2,0,4,0,,,,,,,,,35.7530607,,,,,,,,,35.7371439,36.0859191,36.8855639,36.8697392,36.8697835,36.8855639,36.8855639,36.8855639,,37.4695956,right,0,32.1403674,None,37.4706895,37.4848711,37.9687428,37.9841297,,,,,,,,,,,,,,,,,,,,,,,,,sub-138,1,2025-03-11_11h53.02.965,random_dot,03.02.2023,60.011006,2025-03-11 11h53.23.660501 +0100
right,right,,2,1,5,1,,,,,,,,,37.9841297,,,,,,,,,37.9695932,39.1832867,39.9823175,39.9669093,39.9669528,39.9823175,39.9823175,39.9823175,,41.6159985,left,0,33.18908,None,41.6170904,41.6308651,42.1148953,42.1304961,,,,,,,,,,,,,,,,,,,,,,,,,sub-138,1,2025-03-11_11h53.02.965,random_dot,03.02.2023,60.011006,2025-03-11 11h53.23.660501 +0100
right,right,,3,0,6,1,,,,,,,,,42.1304961,,,,,,,,,42.1156663,42.4801728,43.2794076,43.2638891,43.2639346,43.2794076,43.2794076,43.2794076,48.2757285,48.3101507,right,1,36.5810236,None,48.3112572,48.326482,48.8119064,48.8278814,,,,,,,,,,,,,,,,,,,,,,,,,sub-138,1,2025-03-11_11h53.02.965,random_dot,03.02.2023,60.011006,2025-03-11 11h53.23.660501 +0100
left,left,,3,1,7,0,,,,,,,,,48.8278814,,,,,,,,,48.8126913,49.6274316,50.4438985,50.4271448,50.4271889,50.4438985,50.4438985,50.4438985,,51.7237891,left,1,32.8153977,None,51.7248862,51.7385963,52.2226794,52.2382283,,,,,,,,,,,,,,,,,,,,,,,,,sub-138,1,2025-03-11_11h53.02.965,random_dot,03.02.2023,60.011006,2025-03-11 11h53.23.660501 +0100
right,right,,4,0,8,1,,,,,,,,,52.2382283,,,,,,,,,52.2234567,53.4373464,54.236434,54.2207284,54.220772,54.236434,54.236434,54.236434,,54.9043185,right,1,32.2281687,None,54.905423,54.919202,55.4031338,55.4187395,,,,,,,,,,,,,,,,,,,,,,,,,sub-138,1,2025-03-11_11h53.02.965,random_dot,03.02.2023,60.011006,2025-03-11 11h53.23.660501 +0100
left,left,,4,1,9,0,,,,,,,,,55.4187395,,,,,,,,,55.4039198,55.5186265,56.3179214,56.3028116,56.3028826,56.3179214,56.3179214,56.3179214,,56.9860135,left,1,32.2255074,None,56.9871064,57.0011543,57.4847213,57.5002704,,,,,,,,,,,,,,,,,,,,,,,,,sub-138,1,2025-03-11_11h53.02.965,random_dot,03.02.2023,60.011006,2025-03-11 11h53.23.660501 +0100
right,right,,5,0,10,1,,,,,,,,,57.5002704,,,,,,,,,57.4856566,57.6002806,58.3994659,58.384044,58.384082,58.3994659,58.3994659,58.3994659,,59.3508815,right,1,32.5115013,None,59.3520993,59.3655691,59.849538,59.8648588,,,,,,,,,,,,,,,,,,,,,,,,,sub-138,1,2025-03-11_11h53.02.965,random_dot,03.02.2023,60.011006,2025-03-11 11h53.23.660501 +0100
left,left,,5,1,11,0,,,,,,,,,59.8648588,,,,,,,,,59.8509379,59.9650822,60.7806955,60.7654458,60.7654878,60.7806955,60.7806955,60.7806955,,61.4155223,left,1,32.1952194,None,61.4166118,61.4304652,61.9145245,61.9295666,,,,,,,,,,,,,,,,,,,,,,,,,sub-138,1,2025-03-11_11h53.02.965,random_dot,03.02.2023,60.011006,2025-03-11 11h53.23.660501 +0100
left,left,,6,0,12,0,,,,,,,,,61.9295666,,,,,,,,,61.9153051,62.7290823,63.5281559,63.5131987,63.5132457,63.5281559,63.5281559,63.5281559,,64.3791295,right,0,32.4016076,None,64.3802239,64.4958106,64.8803341,,,,,,,,,,,,,,,,,,,,,,,,,,sub-138,1,2025-03-11_11h53.02.965,random_dot,03.02.2023,60.011006,2025-03-11 11h53.23.660501 +0100
right,right,,6,1,13,1,,,,,,,,,64.8967008,,,,,,,,,64.8812746,64.9799695,65.7802069,65.7636191,65.7636619,65.7802069,65.7802069,65.7802069,,66.8644609,right,1,32.6326604,None,66.8655724,66.8921079,67.3751394,,,,,,,,,,,,,,,,,,,,,,,,,,sub-138,1,2025-03-11_11h53.02.965,random_dot,03.02.2023,60.011006,2025-03-11 11h53.23.660501 +0100
left,left,,7,0,14,0,,,,,,,,,67.3915015,,,,,,,,,67.3759494,68.5740017,69.3734217,69.3575363,69.3575813,69.3734217,69.3734217,69.3734217,,71.9560306,left,1,34.1420405,None,71.9571163,71.9708016,72.4547409,72.4706423,,,,,,,,,,,,,,,,,,,,,,,,,sub-138,1,2025-03-11_11h53.02.965,random_dot,03.02.2023,60.011006,2025-03-11 11h53.23.660501 +0100
right,right,,7,1,15,1,,,,,,,,,72.4706423,,,,,,,,,72.4555226,73.269574,74.0689328,74.0533059,74.0533483,74.0689328,74.0689328,74.0689328,,75.4527969,left,0,32.9372779,None,75.4538892,75.4684519,75.9546707,75.9701395,,,,,,,,,,,,,,,,,,,,,,,,,sub-138,1,2025-03-11_11h53.02.965,random_dot,03.02.2023,60.011006,2025-03-11 11h53.23.660501 +0100
right,right,,8,0,16,1,,,,,,,,,75.9701395,,,,,,,,,75.9554613,76.3032671,77.1035958,77.0869491,77.0869916,77.1035958,77.1035958,77.1035958,,78.7039626,right,1,33.156707,None,78.7050636,78.7323468,79.2149402,,,,,,,,,,,,,,,,,,,,,,,,,,sub-138,1,2025-03-11_11h53.02.965,random_dot,03.02.2023,60.011006,2025-03-11 11h53.23.660501 +0100
left,left,,8,1,17,0,,,,,,,,,79.2312395,,,,,,,,,79.2165016,79.5640652,80.3633455,80.3478648,80.3479075,80.3633455,80.3633455,80.3633455,,81.4310033,right,0,32.6232999,None,81.43248,81.4470157,81.9327281,81.9483748,,,,,,,,,,,,,,,,,,,,,,,,,sub-138,1,2025-03-11_11h53.02.965,random_dot,03.02.2023,60.011006,2025-03-11 11h53.23.660501 +0100
left,left,,9,0,18,0,,,,,,,,,81.9483748,,,,,,,,,81.9335496,82.7475836,83.5480358,83.5310384,83.5310642,83.5480358,83.5480358,83.5480358,,85.481224,right,0,33.487373,None,85.4829167,85.5093074,85.991906,,,,,,,,,,,,,,,,,,,,,,,,,,sub-138,1,2025-03-11_11h53.02.965,random_dot,03.02.2023,60.011006,2025-03-11 11h53.23.660501 +0100
right,right,,9,1,19,1,,,,,,,,,86.0084646,,,,,,,,,85.9926832,86.791126,87.5903741,87.5747052,87.5747482,87.5903741,87.5903741,87.5903741,,88.6069358,left,0,32.5698676,None,88.6076357,88.6224113,89.1068695,89.1223576,,,,,,,,,,,,,,,,,,,,,,,,,sub-138,1,2025-03-11_11h53.02.965,random_dot,03.02.2023,60.011006,2025-03-11 11h53.23.660501 +0100
,,,,,,,,,,,,,,,,,,,,,,,,,,,,,,,,,,,,,,,,,,89.1069928,89.1223576,89.1223576,92.5377121,space,34.9662882,None,,,,,,,,,,,,,,,,,,sub-138,1,2025-03-11_11h53.02.965,random_dot,03.02.2023,60.011006,2025-03-11 11h53.23.660501 +0100
,,,,,,,,,,,,,,,,,,,,,,,,,,,,,,,,,,,,,,,,,,,,,,,,,92.5377827,92.5526187,92.5526187,98.166238,space,37.1680355,None,,,,,,,,,,,sub-138,1,2025-03-11_11h53.02.965,random_dot,03.02.2023,60.011006,2025-03-11 11h53.23.660501 +0100
right,right,accuracy,,,,,0,0,0,0,0,0,0,1,101.561316,,,,,,,,,101.5452771,101.8944307,102.6936699,102.6780523,102.6780968,102.6936699,102.6936699,102.6936699,,106.3587882,left,0,35.2179619,None,,,,,,,,,,,,,,,,,,,98.1733179,98.2144647,98.2144647,101.5297506,space,34.8617248,None,,,,sub-138,1,2025-03-11_11h53.02.965,random_dot,03.02.2023,60.011006,2025-03-11 11h53.23.660501 +0100
left,left,accuracy,,,,,0,0,0,0,0,1,1,0,106.3737922,,,,,,,,,106.3615078,107.1731485,107.9724165,107.9566745,107.9567203,107.9724165,107.9724165,107.9724165,,109.9560159,right,0,33.5436652,None,,,,,,,,,,,,,,,,,,,,,,,,,,,,,sub-138,1,2025-03-11_11h53.02.965,random_dot,03.02.2023,60.011006,2025-03-11 11h53.23.660501 +0100
right,right,accuracy,,,,,0,0,0,0,1,0,2,1,109.9709272,,,,,,,,,109.9583167,111.169663,111.9687849,111.953423,111.9534673,111.9687849,111.9687849,111.9687849,,113.8023556,right,1,33.3928052,None,,,,,,,,,,,,,,,,,,,,,,,,,,,,,sub-138,1,2025-03-11_11h53.02.965,random_dot,03.02.2023,60.011006,2025-03-11 11h53.23.660501 +0100
left,left,accuracy,,,,,0,0,0,0,1,1,3,0,113.817155,,,,,,,,,113.8045426,114.1664889,114.9662323,114.9504748,114.950518,114.9662323,114.9662323,114.9662323,,116.134829,left,1,32.7270849,None,,,,,,,,,,,,,,,,,,,,,,,,,,,,,sub-138,1,2025-03-11_11h53.02.965,random_dot,03.02.2023,60.011006,2025-03-11 11h53.23.660501 +0100
right,right,accuracy,,,,,0,0,0,0,2,0,4,1,116.1486129,,,,,,,,,116.1370491,116.2483663,117.0476367,117.032203,117.0322453,117.0476367,117.0476367,117.0476367,,120.1966487,right,1,34.7088849,None,,,,,,,,,,,,,,,,,,,,,,,,,,,,,sub-138,1,2025-03-11_11h53.02.965,random_dot,03.02.2023,60.011006,2025-03-11 11h53.23.660501 +0100
left,left,accuracy,,,,,0,0,0,0,2,1,5,0,120.2116314,,,,,,,,,120.1988329,121.4106611,122.2100799,122.1940873,122.1941271,122.2100799,122.2100799,122.2100799,,124.6593559,left,1,33.997872,None,,,,,,,,,,,,,,,,,,,,,,,,,,,,,sub-138,1,2025-03-11_11h53.02.965,random_dot,03.02.2023,60.011006,2025-03-11 11h53.23.660501 +0100
left,left,accuracy,,,,,0,0,0,0,3,0,6,0,124.6742762,,,,,,,,,124.6615427,125.4736038,126.2728364,126.2571724,126.2572146,126.2728364,126.2728364,126.2728364,,130.3044191,left,1,35.5893604,None,,,,,,,,,,,,,,,,,,,,,,,,,,,,,sub-138,1,2025-03-11_11h53.02.965,random_dot,03.02.2023,60.011006,2025-03-11 11h53.23.660501 +0100
right,right,accuracy,,,,,0,0,0,0,3,1,7,1,130.3194809,,,,,,,,,130.3066583,130.4192074,131.2185267,131.2029221,131.2029653,131.2185267,131.2185267,131.2185267,,135.8867316,right,1,36.2209455,None,,,,,,,,,,,,,,,,,,,,,,,,,,,,,sub-138,1,2025-03-11_11h53.02.965,random_dot,03.02.2023,60.011006,2025-03-11 11h53.23.660501 +0100
left,left,accuracy,,,,,0,0,0,0,4,0,8,0,135.9011762,,,,,,,,,135.8889424,136.2507774,137.0505755,137.0345162,137.0345567,137.0505755,137.0505755,137.0505755,,137.8185131,left,1,32.3143735,None,,,,,,,,,,,,,,,,,,,,,,,,,,,,,sub-138,1,2025-03-11_11h53.02.965,random_dot,03.02.2023,60.011006,2025-03-11 11h53.23.660501 +0100
right,right,accuracy,,,,,0,0,0,0,4,1,9,1,137.8322375,,,,,,,,,137.8206967,139.0312452,139.8315085,139.8148822,139.8149277,139.8315085,139.8315085,139.8315085,,142.1942189,right,1,33.9231612,None,,,,,,,,,,,,,,,,,,,,,,,,,,,,,sub-138,1,2025-03-11_11h53.02.965,random_dot,03.02.2023,60.011006,2025-03-11 11h53.23.660501 +0100
left,left,accuracy,,,,,0,0,0,0,5,0,10,0,142.2088916,,,,,,,,,142.1963992,143.4079071,144.2069779,144.1922038,144.1922462,144.2069779,144.2069779,144.2069779,149.2027321,150.2370442,left,1,37.5868915,None,,,,,,,,,,,,,,,,,,,,,,,,,,,,,sub-138,1,2025-03-11_11h53.02.965,random_dot,03.02.2023,60.011006,2025-03-11 11h53.23.660501 +0100
right,right,accuracy,,,,,0,0,0,0,5,1,11,1,150.2519093,,,,,,,,,150.2392503,151.0510277,151.8503957,151.8349818,151.8350231,151.8503957,151.8503957,151.8503957,,153.08421,right,1,32.7907546,None,,,,,,,,,,,,,,,,,,,,,,,,,,,,,sub-138,1,2025-03-11_11h53.02.965,random_dot,03.02.2023,60.011006,2025-03-11 11h53.23.660501 +0100
right,right,accuracy,,,,,0,0,0,0,6,0,12,1,153.0995748,,,,,,,,,153.0863688,153.1990922,153.9983766,153.9827201,153.9827627,153.9983766,153.9983766,153.9983766,,156.8475395,left,0,34.3967728,None,,,,,,,,,,,,,,,,,,,,,,,,,,,,,sub-138,1,2025-03-11_11h53.02.965,random_dot,03.02.2023,60.011006,2025-03-11 11h53.23.660501 +0100
left,left,accuracy,,,,,0,0,0,0,6,1,13,0,156.8625621,,,,,,,,,156.849716,156.9626596,157.7617182,157.746067,157.7461082,157.7617182,157.7617182,157.7617182,,159.0959402,left,1,32.8811345,None,,,,,,,,,,,,,,,,,,,,,,,,,,,,,sub-138,1,2025-03-11_11h53.02.965,random_dot,03.02.2023,60.011006,2025-03-11 11h53.23.660501 +0100
right,right,accuracy,,,,,0,0,0,0,7,0,14,1,159.1105193,,,,,,,,,159.0980999,160.311345,161.1254316,161.1097425,161.1097872,161.1254316,161.1254316,161.1254316,,164.0744983,right,1,34.4962429,None,,,,,,,,,,,,,,,,,,,,,,,,,,,,,sub-138,1,2025-03-11_11h53.02.965,random_dot,03.02.2023,60.011006,2025-03-11 11h53.23.660501 +0100
left,left,accuracy,,,,,0,0,0,0,7,1,15,0,164.0895477,,,,,,,,,164.0766882,164.8887596,165.6880835,165.6726612,165.6727036,165.6880835,165.6880835,165.6880835,,170.2693895,left,1,36.1403708,None,,,,,,,,,,,,,,,,,,,,,,,,,,,,,sub-138,1,2025-03-11_11h53.02.965,random_dot,03.02.2023,60.011006,2025-03-11 11h53.23.660501 +0100
right,right,accuracy,,,,,0,0,0,0,8,0,16,1,170.2839394,,,,,,,,,170.271649,171.0835305,171.8826064,171.8669955,171.8670372,171.8826064,171.8826064,171.8826064,,175.7477065,left,0,35.4204028,None,,,,,,,,,,,,,,,,,,,,,,,,,,,,,sub-138,1,2025-03-11_11h53.02.965,random_dot,03.02.2023,60.011006,2025-03-11 11h53.23.660501 +0100
left,left,accuracy,,,,,0,0,0,0,8,1,17,0,175.762519,,,,,,,,,175.7499058,176.9615128,177.7607725,177.7455049,177.7455461,177.7607725,177.7607725,177.7607725,,178.8616007,right,0,32.6521752,None,,,,,,,,,,,,,,,,,,,,,,,,,,,,,sub-138,1,2025-03-11_11h53.02.965,random_dot,03.02.2023,60.011006,2025-03-11 11h53.23.660501 +0100
right,right,accuracy,,,,,0,0,0,0,9,0,18,1,178.876421,,,,,,,,,178.8637975,178.9763316,179.7759459,179.7601821,179.7602252,179.7759459,179.7759459,179.7759459,,183.0911298,right,1,34.8748866,None,,,,,,,,,,,,,,,,,,,,,,,,,,,,,sub-138,1,2025-03-11_11h53.02.965,random_dot,03.02.2023,60.011006,2025-03-11 11h53.23.660501 +0100
left,left,accuracy,,,,,0,0,0,0,9,1,19,0,183.1060491,,,,,,,,,183.0933392,184.3049989,185.1042591,185.0888316,185.0888746,185.1042591,185.1042591,185.1042591,,185.8721577,left,1,32.3185443,None,,,,,,,,,,,,,,,,,,,,,,,,,,,,,sub-138,1,2025-03-11_11h53.02.965,random_dot,03.02.2023,60.011006,2025-03-11 11h53.23.660501 +0100
left,left,accuracy,,,,,0,0,0,0,10,0,20,0,185.8869156,,,,,,,,,185.8744795,187.085846,187.8851535,187.8694666,187.8695094,187.8851535,187.8851535,187.8851535,,191.6335927,left,1,35.3023917,None,,,,,,,,,,,,,,,,,,,,,,,,,,,,,sub-138,1,2025-03-11_11h53.02.965,random_dot,03.02.2023,60.011006,2025-03-11 11h53.23.660501 +0100
right,right,accuracy,,,,,0,0,0,0,10,1,21,1,191.6484769,,,,,,,,,191.6357759,192.4477509,193.247131,193.231533,193.2315755,193.247131,193.247131,193.247131,,194.3479521,right,1,32.6486126,None,,,,,,,,,,,,,,,,,,,,,,,,,,,,,sub-138,1,2025-03-11_11h53.02.965,random_dot,03.02.2023,60.011006,2025-03-11 11h53.23.660501 +0100
left,left,accuracy,,,,,0,0,0,0,11,0,22,0,194.3627868,,,,,,,,,194.3501571,194.4628605,195.2619956,195.2463788,195.2464223,195.2619956,195.2619956,195.2619956,,196.2296993,left,1,32.5268893,None,,,,,,,,,,,,,,,,,,,,,,,,,,,,,sub-138,1,2025-03-11_11h53.02.965,random_dot,03.02.2023,60.011006,2025-03-11 11h53.23.660501 +0100
right,right,accuracy,,,,,0,0,0,0,11,1,23,1,196.2443882,,,,,,,,,196.2319048,196.3443823,197.1437087,197.1280034,197.1280453,197.1437087,197.1437087,197.1437087,,198.2610396,right,1,32.6679948,None,,,,,,,,,,,,,,,,,,,,,,,,,,,,,sub-138,1,2025-03-11_11h53.02.965,random_dot,03.02.2023,60.011006,2025-03-11 11h53.23.660501 +0100
right,right,accuracy,,,,,0,0,0,0,12,0,24,1,198.2759293,,,,,,,,,198.2631962,198.6260377,199.4249186,199.409468,199.4095096,199.4249186,199.4249186,199.4249186,,200.1760727,right,1,32.3085712,None,,,,,,,,,,,,,,,,,,,,,,,,,,,,,sub-138,1,2025-03-11_11h53.02.965,random_dot,03.02.2023,60.011006,2025-03-11 11h53.23.660501 +0100
left,left,accuracy,,,,,0,0,0,0,12,1,25,0,200.1911579,,,,,,,,,200.1782712,200.5407465,201.3399097,201.3242784,201.3243201,201.3399097,201.3399097,201.3399097,,202.1575595,left,1,32.3677263,None,,,,,,,,,,,,,,,,,,,,,,,,,,,,,sub-138,1,2025-03-11_11h53.02.965,random_dot,03.02.2023,60.011006,2025-03-11 11h53.23.660501 +0100
right,right,accuracy,,,,,0,0,0,0,13,0,26,1,202.1725976,,,,,,,,,202.159849,202.2725586,203.0717386,203.0560232,203.0560653,203.0717386,203.0717386,203.0717386,,203.9894494,right,1,32.4753323,None,,,,,,,,,,,,,,,,,,,,,,,,,,,,,sub-138,1,2025-03-11_11h53.02.965,random_dot,03.02.2023,60.011006,2025-03-11 11h53.23.660501 +0100
left,left,accuracy,,,,,0,0,0,0,13,1,27,0,204.0042392,,,,,,,,,203.9916518,205.2033718,206.0025868,205.9868356,205.9868784,206.0025868,206.0025868,206.0025868,,207.4196544,left,1,32.962535,None,,,,,,,,,,,,,,,,,,,,,,,,,,,,,sub-138,1,2025-03-11_11h53.02.965,random_dot,03.02.2023,60.011006,2025-03-11 11h53.23.660501 +0100
right,right,accuracy,,,,,0,0,0,0,14,0,28,1,207.4345101,,,,,,,,,207.4218332,207.7841834,208.5836534,208.5683208,208.5683845,208.5836534,208.5836534,208.5836534,,209.5511417,right,1,32.5151871,None,,,,,,,,,,,,,,,,,,,,,,,,,,,,,sub-138,1,2025-03-11_11h53.02.965,random_dot,03.02.2023,60.011006,2025-03-11 11h53.23.660501 +0100
left,left,accuracy,,,,,0,0,0,0,14,1,29,0,209.5659795,,,,,,,,,209.5533314,210.365261,211.1645761,211.1489604,211.1490033,211.1645761,211.1645761,211.1645761,,211.8662827,left,1,32.2627723,None,,,,,,,,,,,,,,,,,,,,,,,,,,,,,sub-138,1,2025-03-11_11h53.02.965,random_dot,03.02.2023,60.011006,2025-03-11 11h53.23.660501 +0100
right,right,accuracy,,,,,0,0,0,0,15,0,30,1,211.8808977,,,,,,,,,211.8701205,212.2304222,213.0300265,213.0140311,213.0140723,213.0300265,213.0300265,213.0300265,,213.9471737,right,1,32.4723946,None,,,,,,,,,,,,,,,,,,,,,,,,,,,,,sub-138,1,2025-03-11_11h53.02.965,random_dot,03.02.2023,60.011006,2025-03-11 11h53.23.660501 +0100
left,left,accuracy,,,,,0,0,0,0,15,1,31,0,213.9623644,,,,,,,,,213.9493515,214.7615109,215.5609924,215.5450856,215.5451279,215.5609924,215.5609924,215.5609924,,216.278628,left,1,32.2767416,None,,,,,,,,,,,,,,,,,,,,,,,,,,,,,sub-138,1,2025-03-11_11h53.02.965,random_dot,03.02.2023,60.011006,2025-03-11 11h53.23.660501 +0100
right,right,accuracy,,,,,0,0,0,0,16,0,32,1,216.2934395,,,,,,,,,216.2807889,216.6431472,217.4423881,217.4268565,217.4268988,217.4423881,217.4423881,217.4423881,,218.2434137,right,1,32.3494968,None,,,,,,,,,,,,,,,,,,,,,,,,,,,,,sub-138,1,2025-03-11_11h53.02.965,random_dot,03.02.2023,60.011006,2025-03-11 11h53.23.660501 +0100
left,left,accuracy,,,,,0,0,0,0,16,1,33,0,218.2583364,,,,,,,,,218.245575,219.4573846,220.2567,220.2410785,220.2411201,220.2567,220.2567,220.2567,,221.2751441,left,1,32.5737657,None,,,,,,,,,,,,,,,,,,,,,,,,,,,,,sub-138,1,2025-03-11_11h53.02.965,random_dot,03.02.2023,60.011006,2025-03-11 11h53.23.660501 +0100
left,left,accuracy,,,,,0,0,0,0,17,0,34,0,221.2889729,,,,,,,,,221.2773428,221.6386781,222.4379087,222.4223269,222.4223688,222.4379087,222.4379087,222.4379087,,224.6546105,left,1,33.7766151,None,,,,,,,,,,,,,,,,,,,,,,,,,,,,,sub-138,1,2025-03-11_11h53.02.965,random_dot,03.02.2023,60.011006,2025-03-11 11h53.23.660501 +0100
right,right,accuracy,,,,,0,0,0,0,17,1,35,1,224.6693469,,,,,,,,,224.6567914,225.4686227,226.2844849,226.2680691,226.268093,226.2844849,226.2844849,226.2844849,,227.5519658,right,1,32.8232181,None,,,,,,,,,,,,,,,,,,,,,,,,,,,,,sub-138,1,2025-03-11_11h53.02.965,random_dot,03.02.2023,60.011006,2025-03-11 11h53.23.660501 +0100
right,right,accuracy,,,,,0,0,0,0,18,0,36,1,227.5667738,,,,,,,,,227.5541489,227.6669056,228.4661341,228.4504787,228.4505205,228.4661341,228.4661341,228.4661341,,231.6486285,right,1,34.7275264,None,,,,,,,,,,,,,,,,,,,,,,,,,,,,,sub-138,1,2025-03-11_11h53.02.965,random_dot,03.02.2023,60.011006,2025-03-11 11h53.23.660501 +0100
left,left,accuracy,,,,,0,0,0,0,18,1,37,0,231.6631773,,,,,,,,,231.6508371,232.0128778,232.812171,232.7966613,232.796703,232.812171,232.812171,232.812171,,233.6633651,left,1,32.4038628,None,,,,,,,,,,,,,,,,,,,,,,,,,,,,,sub-138,1,2025-03-11_11h53.02.965,random_dot,03.02.2023,60.011006,2025-03-11 11h53.23.660501 +0100
left,left,accuracy,,,,,0,0,0,0,19,0,38,0,233.6780296,,,,,,,,,233.6655651,234.8769327,235.6763784,235.6606324,235.6606745,235.6763784,235.6763784,235.6763784,,236.6439396,right,0,32.519874,None,,,,,,,,,,,,,,,,,,,,,,,,,,,,,sub-138,1,2025-03-11_11h53.02.965,random_dot,03.02.2023,60.011006,2025-03-11 11h53.23.660501 +0100
right,right,accuracy,,,,,0,0,0,0,19,1,39,1,236.6588225,,,,,,,,,236.6461361,236.7586893,237.5580926,237.5423518,237.5423966,237.5580926,237.5580926,237.5580926,,239.375276,right,1,33.3781784,None,,,,,,,,,,,,,,,,,,,,,,,,,,,,,sub-138,1,2025-03-11_11h53.02.965,random_dot,03.02.2023,60.011006,2025-03-11 11h53.23.660501 +0100
right,right,accuracy,,,,,0,0,0,0,20,0,40,1,239.389651,,,,,,,,,239.3775058,240.5887041,241.3879917,241.3723939,241.3724388,241.3879917,241.3879917,241.3879917,,244.5036196,right,1,34.6652617,None,,,,,,,,,,,,,,,,,,,,,,,,,,,,,sub-138,1,2025-03-11_11h53.02.965,random_dot,03.02.2023,60.011006,2025-03-11 11h53.23.660501 +0100
left,left,accuracy,,,,,0,0,0,0,20,1,41,0,244.5185173,,,,,,,,,244.5059177,244.8681732,245.6680466,245.6518951,245.6519376,245.6680466,245.6680466,245.6680466,,246.4352416,left,1,32.3236386,None,,,,,,,,,,,,,,,,,,,,,,,,,,,,,sub-138,1,2025-03-11_11h53.02.965,random_dot,03.02.2023,60.011006,2025-03-11 11h53.23.660501 +0100
left,left,accuracy,,,,,0,0,0,0,21,0,42,0,246.4501583,,,,,,,,,246.4374651,247.6491284,248.4482926,248.4327424,248.4327884,248.4482926,248.4482926,248.4482926,,249.1826324,left,1,32.2799835,None,,,,,,,,,,,,,,,,,,,,,,,,,,,,,sub-138,1,2025-03-11_11h53.02.965,random_dot,03.02.2023,60.011006,2025-03-11 11h53.23.660501 +0100
right,right,accuracy,,,,,0,0,0,0,21,1,43,1,249.1980937,,,,,,,,,249.1848141,250.3971978,251.2125102,251.1969833,251.197025,251.2125102,251.2125102,251.2125102,,251.9137416,left,0,32.2627738,None,,,,,,,,,,,,,,,,,,,,,,,,,,,,,sub-138,1,2025-03-11_11h53.02.965,random_dot,03.02.2023,60.011006,2025-03-11 11h53.23.660501 +0100
right,right,accuracy,,,,,0,0,0,0,22,0,44,1,251.9282795,,,,,,,,,251.9152824,252.2783219,253.077567,253.0621181,253.0621596,253.077567,253.077567,253.077567,,253.9118671,left,0,32.3833899,None,,,,,,,,,,,,,,,,,,,,,,,,,,,,,sub-138,1,2025-03-11_11h53.02.965,random_dot,03.02.2023,60.011006,2025-03-11 11h53.23.660501 +0100
left,left,accuracy,,,,,0,0,0,0,22,1,45,0,253.9269304,,,,,,,,,253.9140704,254.0269162,254.8260636,254.8104191,254.8104622,254.8260636,254.8260636,254.8260636,,256.72694,right,0,33.4510004,None,,,,,,,,,,,,,,,,,,,,,,,,,,,,,sub-138,1,2025-03-11_11h53.02.965,random_dot,03.02.2023,60.011006,2025-03-11 11h53.23.660501 +0100
right,right,accuracy,,,,,0,0,0,0,23,0,46,1,256.7416021,,,,,,,,,256.7291142,256.8409906,257.6402329,257.6246857,257.6247275,257.6402329,257.6402329,257.6402329,,260.8058844,right,1,34.7170352,None,,,,,,,,,,,,,,,,,,,,,,,,,,,,,sub-138,1,2025-03-11_11h53.02.965,random_dot,03.02.2023,60.011006,2025-03-11 11h53.23.660501 +0100
left,left,accuracy,,,,,0,0,0,0,23,1,47,0,260.8207321,,,,,,,,,260.8081201,261.620161,262.4195491,262.4037245,262.4037671,262.4195491,262.4195491,262.4195491,,263.3537678,left,1,32.4897855,None,,,,,,,,,,,,,,,,,,,,,,,,,,,,,sub-138,1,2025-03-11_11h53.02.965,random_dot,03.02.2023,60.011006,2025-03-11 11h53.23.660501 +0100
right,right,accuracy,,,,,0,0,0,0,24,0,48,1,263.368716,,,,,,,,,263.3559557,263.4683741,264.2677992,264.2521797,264.2522221,264.2677992,264.2677992,264.2677992,,265.3018409,right,1,32.5798301,None,,,,,,,,,,,,,,,,,,,,,,,,,,,,,sub-138,1,2025-03-11_11h53.02.965,random_dot,03.02.2023,60.011006,2025-03-11 11h53.23.660501 +0100
left,left,accuracy,,,,,0,0,0,0,24,1,49,0,265.3168315,,,,,,,,,265.3040294,265.6665215,266.4659343,266.4507335,266.4507786,266.4659343,266.4659343,266.4659343,,267.383445,left,1,32.4744332,None,,,,,,,,,,,,,,,,,,,,,,,,,,,,,sub-138,1,2025-03-11_11h53.02.965,random_dot,03.02.2023,60.011006,2025-03-11 11h53.23.660501 +0100
left,left,accuracy,,,,,0,0,0,0,25,0,50,0,267.3979292,,,,,,,,,267.3848235,267.4981902,268.2975606,268.2818382,268.2818796,268.2975606,268.2975606,268.2975606,,271.9628579,left,1,35.2245143,None,,,,,,,,,,,,,,,,,,,,,,,,,,,,,sub-138,1,2025-03-11_11h53.02.965,random_dot,03.02.2023,60.011006,2025-03-11 11h53.23.660501 +0100
right,right,accuracy,,,,,0,0,0,0,25,1,51,1,271.9777217,,,,,,,,,271.9650434,272.3272444,273.1265422,273.111173,273.1112141,273.1265422,273.1265422,273.1265422,,274.3441097,right,1,32.7640186,None,,,,,,,,,,,,,,,,,,,,,,,,,,,,,sub-138,1,2025-03-11_11h53.02.965,random_dot,03.02.2023,60.011006,2025-03-11 11h53.23.660501 +0100
right,right,accuracy,,,,,0,0,0,0,26,0,52,1,274.3588058,,,,,,,,,274.3463738,274.7085505,275.5080313,275.4921432,275.4921957,275.5080313,275.5080313,275.5080313,,276.8456023,right,1,32.8844244,None,,,,,,,,,,,,,,,,,,,,,,,,,,,,,sub-138,1,2025-03-11_11h53.02.965,random_dot,03.02.2023,60.011006,2025-03-11 11h53.23.660501 +0100
left,left,accuracy,,,,,0,0,0,0,26,1,53,0,276.8595445,,,,,,,,,276.8478064,277.6588769,278.4591432,278.4428886,278.4429293,278.4591432,278.4591432,278.4591432,,281.0878848,left,1,34.1863699,None,,,,,,,,,,,,,,,,,,,,,,,,,,,,,sub-138,1,2025-03-11_11h53.02.965,random_dot,03.02.2023,60.011006,2025-03-11 11h53.23.660501 +0100
left,left,accuracy,,,,,0,0,0,0,27,0,54,0,281.1028846,,,,,,,,,281.0900938,282.3018065,283.1010857,283.0854648,283.0855069,283.1010857,283.1010857,283.1010857,,284.4515566,left,1,32.9066126,None,,,,,,,,,,,,,,,,,,,,,,,,,,,,,sub-138,1,2025-03-11_11h53.02.965,random_dot,03.02.2023,60.011006,2025-03-11 11h53.23.660501 +0100
right,right,accuracy,,,,,0,0,0,0,27,1,55,1,284.4665692,,,,,,,,,284.4537636,284.5664563,285.3657762,285.3501297,285.3501725,285.3657762,285.3657762,285.3657762,,290.0471266,left,0,36.2417879,None,,,,,,,,,,,,,,,,,,,,,,,,,,,,,sub-138,1,2025-03-11_11h53.02.965,random_dot,03.02.2023,60.011006,2025-03-11 11h53.23.660501 +0100
left,left,accuracy,,,,,0,0,0,0,28,0,56,0,290.0615657,,,,,,,,,290.0493232,290.4114571,291.210597,291.1949993,291.1950401,291.210597,291.210597,291.210597,,292.3781281,left,1,32.7228928,None,,,,,,,,,,,,,,,,,,,,,,,,,,,,,sub-138,1,2025-03-11_11h53.02.965,random_dot,03.02.2023,60.011006,2025-03-11 11h53.23.660501 +0100
right,right,accuracy,,,,,0,0,0,0,28,1,57,1,292.3928848,,,,,,,,,292.3802982,292.7426343,293.5421848,293.5263462,293.5263899,293.5421848,293.5421848,293.5421848,298.5374182,299.1887102,right,1,37.1940777,None,,,,,,,,,,,,,,,,,,,,,,,,,,,,,sub-138,1,2025-03-11_11h53.02.965,random_dot,03.02.2023,60.011006,2025-03-11 11h53.23.660501 +0100
left,left,accuracy,,,,,0,0,0,0,29,0,58,0,299.2035868,,,,,,,,,299.1909183,300.4027706,301.2019006,301.1869809,301.1870378,301.2019006,301.2019006,301.2019006,,302.2693557,left,1,32.6223317,None,,,,,,,,,,,,,,,,,,,,,,,,,,,,,sub-138,1,2025-03-11_11h53.02.965,random_dot,03.02.2023,60.011006,2025-03-11 11h53.23.660501 +0100
right,right,accuracy,,,,,0,0,0,0,29,1,59,1,302.284208,,,,,,,,,302.2715277,302.6342461,303.4497987,303.4343485,303.4343941,303.4497987,303.4497987,303.4497987,,307.4983397,right,1,35.5971278,None,,,,,,,,,,,,,,,,,,,,,,,,,,,,,sub-138,1,2025-03-11_11h53.02.965,random_dot,03.02.2023,60.011006,2025-03-11 11h53.23.660501 +0100
,,accuracy,,,,,0,0,0,0,,,,,,,,,,,,,,,,,,,,,,,,,,,,,,,,,,,,,,,,,,,,,,,,,,,,,,,,sub-138,1,2025-03-11_11h53.02.965,random_dot,03.02.2023,60.011006,2025-03-11 11h53.23.660501 +0100
right,right,speed,,,,,0,1,1,1,0,0,0,1,310.060649,,,,,,,,,310.0430391,310.3937098,311.1929317,311.1773301,311.177375,311.1929317,311.1929317,311.1929317,,312.2272172,right,1,32.5935084,None,,,,,,,,,,,,,,,,,,,307.5003239,307.5294705,307.5294705,310.0289814,space,34.0509348,None,,,,sub-138,1,2025-03-11_11h53.02.965,random_dot,03.02.2023,60.011006,2025-03-11 11h53.23.660501 +0100
left,left,speed,,,,,0,1,1,1,0,1,1,0,312.2421308,,,,,,,,,312.229932,312.5917729,313.3909179,313.3755796,313.375614,313.3909179,313.3909179,313.3909179,,314.0934237,left,1,32.2621424,None,,,,,,,,,,,,,,,,,,,,,,,,,,,,,sub-138,1,2025-03-11_11h53.02.965,random_dot,03.02.2023,60.011006,2025-03-11 11h53.23.660501 +0100
left,left,speed,,,,,0,1,1,1,1,0,2,0,314.1072308,,,,,,,,,314.0956123,314.2067067,315.0063389,314.9906911,314.9907317,315.0063389,315.0063389,315.0063389,,315.824433,left,1,32.3785623,None,,,,,,,,,,,,,,,,,,,,,,,,,,,,,sub-138,1,2025-03-11_11h53.02.965,random_dot,03.02.2023,60.011006,2025-03-11 11h53.23.660501 +0100
right,right,speed,,,,,0,1,1,1,1,1,3,1,315.8389281,,,,,,,,,315.8275692,316.6387547,317.4541311,317.4387934,317.4388417,317.4541311,317.4541311,317.4541311,,318.1894989,right,1,32.2869083,None,,,,,,,,,,,,,,,,,,,,,,,,,,,,,sub-138,1,2025-03-11_11h53.02.965,random_dot,03.02.2023,60.011006,2025-03-11 11h53.23.660501 +0100
left,left,speed,,,,,0,1,1,1,2,0,4,0,318.2035266,,,,,,,,,318.1917064,318.303895,319.1192738,319.1036248,319.1036676,319.1192738,319.1192738,319.1192738,,319.6710393,left,1,32.1127133,None,,,,,,,,,,,,,,,,,,,,,,,,,,,,,sub-138,1,2025-03-11_11h53.02.965,random_dot,03.02.2023,60.011006,2025-03-11 11h53.23.660501 +0100
right,right,speed,,,,,0,1,1,1,2,1,5,1,319.6855708,,,,,,,,,319.673229,319.7853514,320.5846419,320.5689796,320.5690219,320.5846419,320.5846419,320.5846419,,321.3025642,right,1,32.27378,None,,,,,,,,,,,,,,,,,,,,,,,,,,,,,sub-138,1,2025-03-11_11h53.02.965,random_dot,03.02.2023,60.011006,2025-03-11 11h53.23.660501 +0100
left,left,speed,,,,,0,1,1,1,3,0,6,0,321.3177463,,,,,,,,,321.3047375,322.5164732,323.3155826,323.3000895,323.3001309,323.3155826,323.3155826,323.3155826,,323.9833873,left,1,32.2169476,None,,,,,,,,,,,,,,,,,,,,,,,,,,,,,sub-138,1,2025-03-11_11h53.02.965,random_dot,03.02.2023,60.011006,2025-03-11 11h53.23.660501 +0100
right,right,speed,,,,,0,1,1,1,3,1,7,1,323.9983518,,,,,,,,,323.9855744,324.0987554,324.9147609,324.8985495,324.898592,324.9147609,324.9147609,324.9147609,,325.5664616,right,1,32.2017575,None,,,,,,,,,,,,,,,,,,,,,,,,,,,,,sub-138,1,2025-03-11_11h53.02.965,random_dot,03.02.2023,60.011006,2025-03-11 11h53.23.660501 +0100
left,left,speed,,,,,0,1,1,1,4,0,8,0,325.5806742,,,,,,,,,325.5688412,325.6803036,326.4796023,326.4638037,326.4638449,326.4796023,326.4796023,326.4796023,,327.1308119,left,1,32.2031453,None,,,,,,,,,,,,,,,,,,,,,,,,,,,,,sub-138,1,2025-03-11_11h53.02.965,random_dot,03.02.2023,60.011006,2025-03-11 11h53.23.660501 +0100
right,right,speed,,,,,0,1,1,1,4,1,9,1,327.1455649,,,,,,,,,327.1335518,327.2454392,328.0447366,328.0291484,328.0291902,328.0447366,328.0447366,328.0447366,,328.529263,right,1,32.0300876,None,,,,,,,,,,,,,,,,,,,,,,,,,,,,,sub-138,1,2025-03-11_11h53.02.965,random_dot,03.02.2023,60.011006,2025-03-11 11h53.23.660501 +0100
left,left,speed,,,,,0,1,1,1,5,0,10,0,328.5443388,,,,,,,,,328.5314542,328.6442114,329.4439181,329.4278958,329.4279374,329.4439181,329.4439181,329.4439181,,329.9947067,left,1,32.1047347,None,,,,,,,,,,,,,,,,,,,,,,,,,,,,,sub-138,1,2025-03-11_11h53.02.965,random_dot,03.02.2023,60.011006,2025-03-11 11h53.23.660501 +0100
right,right,speed,,,,,0,1,1,1,5,1,11,1,330.0098715,,,,,,,,,329.997817,330.109605,330.9089062,330.8931858,330.8932287,330.9089062,330.9089062,330.9089062,,331.4102209,right,1,32.0517986,None,,,,,,,,,,,,,,,,,,,,,,,,,,,,,sub-138,1,2025-03-11_11h53.02.965,random_dot,03.02.2023,60.011006,2025-03-11 11h53.23.660501 +0100
right,right,speed,,,,,0,1,1,1,6,0,12,1,331.425147,,,,,,,,,331.4124169,332.2243522,333.0236676,333.0080128,333.0080545,333.0236676,333.0236676,333.0236676,,333.7250719,right,1,32.2558213,None,,,,,,,,,,,,,,,,,,,,,,,,,,,,,sub-138,1,2025-03-11_11h53.02.965,random_dot,03.02.2023,60.011006,2025-03-11 11h53.23.660501 +0100
left,left,speed,,,,,0,1,1,1,6,1,13,0,333.7397566,,,,,,,,,333.7272781,333.8396208,334.6391037,334.62329,334.6233325,334.6391037,334.6391037,334.6391037,,335.3566543,left,1,32.2699731,None,,,,,,,,,,,,,,,,,,,,,,,,,,,,,sub-138,1,2025-03-11_11h53.02.965,random_dot,03.02.2023,60.011006,2025-03-11 11h53.23.660501 +0100
right,right,speed,,,,,0,1,1,1,7,0,14,1,335.3716396,,,,,,,,,335.358826,335.4715368,336.2707925,336.2553446,336.2553855,336.2707925,336.2707925,336.2707925,,336.755658,right,1,32.0422874,None,,,,,,,,,,,,,,,,,,,,,,,,,,,,,sub-138,1,2025-03-11_11h53.02.965,random_dot,03.02.2023,60.011006,2025-03-11 11h53.23.660501 +0100
left,left,speed,,,,,0,1,1,1,7,1,15,0,336.7703776,,,,,,,,,336.7578485,337.9694676,338.7686857,338.7535472,338.7535898,338.7686857,338.7686857,338.7686857,,339.2365879,left,1,32.0150061,None,,,,,,,,,,,,,,,,,,,,,,,,,,,,,sub-138,1,2025-03-11_11h53.02.965,random_dot,03.02.2023,60.011006,2025-03-11 11h53.23.660501 +0100
right,right,speed,,,,,0,1,1,1,8,0,16,1,339.2515614,,,,,,,,,339.2387755,339.3514929,340.150785,340.1350906,340.1351361,340.150785,340.150785,340.150785,,340.9853553,right,1,32.3906887,None,,,,,,,,,,,,,,,,,,,,,,,,,,,,,sub-138,1,2025-03-11_11h53.02.965,random_dot,03.02.2023,60.011006,2025-03-11 11h53.23.660501 +0100
left,left,speed,,,,,0,1,1,1,8,1,17,0,341.0000823,,,,,,,,,340.9875715,341.7992595,342.5986219,342.5829024,342.5829445,342.5986219,342.5986219,342.5986219,,343.083306,left,1,32.0359811,None,,,,,,,,,,,,,,,,,,,,,,,,,,,,,sub-138,1,2025-03-11_11h53.02.965,random_dot,03.02.2023,60.011006,2025-03-11 11h53.23.660501 +0100
left,left,speed,,,,,0,1,1,1,9,0,18,0,343.0981972,,,,,,,,,343.0854738,344.2972769,345.0963786,345.0807579,345.0808,345.0963786,345.0963786,345.0963786,,348.0125454,left,1,34.4686353,None,,,,,,,,,,,,,,,,,,,,,,,,,,,,,sub-138,1,2025-03-11_11h53.02.965,random_dot,03.02.2023,60.011006,2025-03-11 11h53.23.660501 +0100
right,right,speed,,,,,0,1,1,1,9,1,19,1,348.0271169,,,,,,,,,348.0147305,349.2261053,350.0253741,350.0098906,350.0099341,350.0253741,350.0253741,350.0253741,,351.492421,right,1,33.0159943,None,,,,,,,,,,,,,,,,,,,,,,,,,,,,,sub-138,1,2025-03-11_11h53.02.965,random_dot,03.02.2023,60.011006,2025-03-11 11h53.23.660501 +0100
right,right,speed,,,,,0,1,1,1,10,0,20,1,351.5074485,,,,,,,,,351.4946007,351.6074015,352.4066224,352.3911178,352.3911609,352.4066224,352.4066224,352.4066224,,353.2908575,right,1,32.436455,None,,,,,,,,,,,,,,,,,,,,,,,,,,,,,sub-138,1,2025-03-11_11h53.02.965,random_dot,03.02.2023,60.011006,2025-03-11 11h53.23.660501 +0100
left,left,speed,,,,,0,1,1,1,10,1,21,0,353.3058467,,,,,,,,,353.2931075,353.4059898,354.2051347,354.1893422,354.1893848,354.2051347,354.2051347,354.2051347,,354.8064751,left,1,32.1568133,None,,,,,,,,,,,,,,,,,,,,,,,,,,,,,sub-138,1,2025-03-11_11h53.02.965,random_dot,03.02.2023,60.011006,2025-03-11 11h53.23.660501 +0100
left,left,speed,,,,,0,1,1,1,11,0,22,0,354.821232,,,,,,,,,354.8086928,354.9221368,355.737005,355.7213965,355.7214405,355.737005,355.737005,355.737005,,357.2043704,left,1,33.025792,None,,,,,,,,,,,,,,,,,,,,,,,,,,,,,sub-138,1,2025-03-11_11h53.02.965,random_dot,03.02.2023,60.011006,2025-03-11 11h53.23.660501 +0100
right,right,speed,,,,,0,1,1,1,11,1,23,1,357.2189815,,,,,,,,,357.2065333,358.0184786,358.8340327,358.8181806,358.8182047,358.8340327,358.8340327,358.8340327,,359.5021911,left,0,32.2161669,None,,,,,,,,,,,,,,,,,,,,,,,,,,,,,sub-138,1,2025-03-11_11h53.02.965,random_dot,03.02.2023,60.011006,2025-03-11 11h53.23.660501 +0100
left,left,speed,,,,,0,1,1,1,12,0,24,0,359.5169787,,,,,,,,,359.504407,359.866718,360.6659709,360.6502956,360.65034,360.6659709,360.6659709,360.6659709,,361.3004556,right,0,32.1819065,None,,,,,,,,,,,,,,,,,,,,,,,,,,,,,sub-138,1,2025-03-11_11h53.02.965,random_dot,03.02.2023,60.011006,2025-03-11 11h53.23.660501 +0100
right,right,speed,,,,,0,1,1,1,12,1,25,1,361.3156085,,,,,,,,,361.3026793,362.5143877,363.3136027,363.2980157,363.2980567,363.3136027,363.3136027,363.3136027,,363.8640222,right,1,32.0980846,None,,,,,,,,,,,,,,,,,,,,,,,,,,,,,sub-138,1,2025-03-11_11h53.02.965,random_dot,03.02.2023,60.011006,2025-03-11 11h53.23.660501 +0100
right,right,speed,,,,,0,1,1,1,13,0,26,1,363.8796388,,,,,,,,,363.8653465,364.2296531,365.02876,365.0131049,365.0131463,365.02876,365.02876,365.02876,,365.563473,right,1,32.0899224,None,,,,,,,,,,,,,,,,,,,,,,,,,,,,,sub-138,1,2025-03-11_11h53.02.965,random_dot,03.02.2023,60.011006,2025-03-11 11h53.23.660501 +0100
left,left,speed,,,,,0,1,1,1,13,1,27,0,365.5783241,,,,,,,,,365.5656537,365.678166,366.4774365,366.4618041,366.4618466,366.4774365,366.4774365,366.4774365,,367.0455233,right,0,32.1168285,None,,,,,,,,,,,,,,,,,,,,,,,,,,,,,sub-138,1,2025-03-11_11h53.02.965,random_dot,03.02.2023,60.011006,2025-03-11 11h53.23.660501 +0100
right,right,speed,,,,,0,1,1,1,14,0,28,1,367.0603617,,,,,,,,,367.0477135,367.8596023,368.6589744,368.6433202,368.6433682,368.6589744,368.6589744,368.6589744,,369.4436251,right,1,32.3367527,None,,,,,,,,,,,,,,,,,,,,,,,,,,,,,sub-138,1,2025-03-11_11h53.02.965,random_dot,03.02.2023,60.011006,2025-03-11 11h53.23.660501 +0100
left,left,speed,,,,,0,1,1,1,14,1,29,0,369.4587132,,,,,,,,,369.4470653,369.5581232,370.3576067,370.3418367,370.3418782,370.3576067,370.3576067,370.3576067,,371.1086054,left,1,32.3006302,None,,,,,,,,,,,,,,,,,,,,,,,,,,,,,sub-138,1,2025-03-11_11h53.02.965,random_dot,03.02.2023,60.011006,2025-03-11 11h53.23.660501 +0100
left,left,speed,,,,,0,1,1,1,15,0,30,0,371.1234007,,,,,,,,,371.1107924,371.4731434,372.2726282,372.2567322,372.2567735,372.2726282,372.2726282,372.2726282,,372.8903911,right,0,32.1749894,None,,,,,,,,,,,,,,,,,,,,,,,,,,,,,sub-138,1,2025-03-11_11h53.02.965,random_dot,03.02.2023,60.011006,2025-03-11 11h53.23.660501 +0100
right,right,speed,,,,,0,1,1,1,15,1,31,1,372.9053664,,,,,,,,,372.8925608,374.103875,374.9033633,374.8884493,374.8884964,374.9033633,374.9033633,374.9033633,,375.5714972,right,1,32.2247424,None,,,,,,,,,,,,,,,,,,,,,,,,,,,,,sub-138,1,2025-03-11_11h53.02.965,random_dot,03.02.2023,60.011006,2025-03-11 11h53.23.660501 +0100
left,left,speed,,,,,0,1,1,1,16,0,32,0,375.5862495,,,,,,,,,375.5736859,376.7850965,377.5843501,377.5691741,377.5692171,377.5843501,377.5843501,377.5843501,,378.1524159,right,0,32.1226611,None,,,,,,,,,,,,,,,,,,,,,,,,,,,,,sub-138,1,2025-03-11_11h53.02.965,random_dot,03.02.2023,60.011006,2025-03-11 11h53.23.660501 +0100
right,right,speed,,,,,0,1,1,1,16,1,33,1,378.1671841,,,,,,,,,378.1545804,379.3665002,380.1654289,380.1498678,380.1499119,380.1654289,380.1654289,380.1654289,,380.6170821,left,0,32.0010434,None,,,,,,,,,,,,,,,,,,,,,,,,,,,,,sub-138,1,2025-03-11_11h53.02.965,random_dot,03.02.2023,60.011006,2025-03-11 11h53.23.660501 +0100
right,right,speed,,,,,0,1,1,1,17,0,34,1,380.6316737,,,,,,,,,380.6192747,381.8308069,382.6298886,382.6142922,382.6143333,382.6298886,382.6298886,382.6298886,,383.2143324,left,0,32.1358868,None,,,,,,,,,,,,,,,,,,,,,,,,,,,,,sub-138,1,2025-03-11_11h53.02.965,random_dot,03.02.2023,60.011006,2025-03-11 11h53.23.660501 +0100
left,left,speed,,,,,0,1,1,1,17,1,35,0,383.2294226,,,,,,,,,383.2165162,384.4283312,385.2276653,385.2121239,385.2121662,385.2276653,385.2276653,385.2276653,,385.8621114,right,0,32.1942271,None,,,,,,,,,,,,,,,,,,,,,,,,,,,,,sub-138,1,2025-03-11_11h53.02.965,random_dot,03.02.2023,60.011006,2025-03-11 11h53.23.660501 +0100
right,right,speed,,,,,0,1,1,1,18,0,36,1,385.8771524,,,,,,,,,385.8643227,385.9770538,386.7762746,386.7608723,386.7609135,386.7762746,386.7762746,386.7762746,,387.5282661,left,0,32.3043367,None,,,,,,,,,,,,,,,,,,,,,,,,,,,,,sub-138,1,2025-03-11_11h53.02.965,random_dot,03.02.2023,60.011006,2025-03-11 11h53.23.660501 +0100
left,left,speed,,,,,0,1,1,1,18,1,37,0,387.5422323,,,,,,,,,387.5305302,387.6421904,388.4414726,388.4258807,388.4259225,388.4414726,388.4414726,388.4414726,,389.1592923,right,0,32.2689325,None,,,,,,,,,,,,,,,,,,,,,,,,,,,,,sub-138,1,2025-03-11_11h53.02.965,random_dot,03.02.2023,60.011006,2025-03-11 11h53.23.660501 +0100
right,right,speed,,,,,0,1,1,1,19,0,38,1,389.1741827,,,,,,,,,389.1614987,389.2740182,390.0735671,390.0576974,390.0577403,390.0735671,390.0735671,390.0735671,,390.9244893,left,0,32.4106831,None,,,,,,,,,,,,,,,,,,,,,,,,,,,,,sub-138,1,2025-03-11_11h53.02.965,random_dot,03.02.2023,60.011006,2025-03-11 11h53.23.660501 +0100
left,left,speed,,,,,0,1,1,1,19,1,39,0,390.9393628,,,,,,,,,390.9266748,391.0394166,391.8385773,391.8237849,391.8238282,391.8385773,391.8385773,391.8385773,,393.0058272,left,1,32.7136826,None,,,,,,,,,,,,,,,,,,,,,,,,,,,,,sub-138,1,2025-03-11_11h53.02.965,random_dot,03.02.2023,60.011006,2025-03-11 11h53.23.660501 +0100
left,left,speed,,,,,0,1,1,1,20,0,40,0,393.0207096,,,,,,,,,393.0080283,393.1207377,393.9199361,393.9045105,393.9045559,393.9199361,393.9199361,393.9199361,,394.8375654,right,0,32.4682931,None,,,,,,,,,,,,,,,,,,,,,,,,,,,,,sub-138,1,2025-03-11_11h53.02.965,random_dot,03.02.2023,60.011006,2025-03-11 11h53.23.660501 +0100
right,right,speed,,,,,0,1,1,1,20,1,41,1,394.8524829,,,,,,,,,394.8397302,395.2022401,396.0014509,395.98577,395.9858321,396.0014509,396.0014509,396.0014509,,396.540115,left,0,32.0946647,None,,,,,,,,,,,,,,,,,,,,,,,,,,,,,sub-138,1,2025-03-11_11h53.02.965,random_dot,03.02.2023,60.011006,2025-03-11 11h53.23.660501 +0100
right,right,speed,,,,,0,1,1,1,21,0,42,1,396.5543526,,,,,,,,,396.5422921,397.3532276,398.1538185,398.1368533,398.1368968,398.1538185,398.1538185,398.1538185,,398.7506388,right,1,32.1567221,None,,,,,,,,,,,,,,,,,,,,,,,,,,,,,sub-138,1,2025-03-11_11h53.02.965,random_dot,03.02.2023,60.011006,2025-03-11 11h53.23.660501 +0100
left,left,speed,,,,,0,1,1,1,21,1,43,0,398.765746,,,,,,,,,398.7528235,398.8659964,399.6648481,399.649488,399.6495298,399.6648481,399.6648481,399.6648481,,400.2329527,left,1,32.1155612,None,,,,,,,,,,,,,,,,,,,,,,,,,,,,,sub-138,1,2025-03-11_11h53.02.965,random_dot,03.02.2023,60.011006,2025-03-11 11h53.23.660501 +0100
left,left,speed,,,,,0,1,1,1,22,0,44,0,400.2477196,,,,,,,,,400.2351381,401.0470212,401.8465126,401.8306861,401.8307266,401.8465126,401.8465126,401.8465126,,402.5310112,right,0,32.2454689,None,,,,,,,,,,,,,,,,,,,,,,,,,,,,,sub-138,1,2025-03-11_11h53.02.965,random_dot,03.02.2023,60.011006,2025-03-11 11h53.23.660501 +0100
right,right,speed,,,,,0,1,1,1,22,1,45,1,402.5457222,,,,,,,,,402.5332261,403.7446242,404.5440362,404.5283132,404.5283541,404.5440362,404.5440362,404.5440362,,405.1784926,left,0,32.1943541,None,,,,,,,,,,,,,,,,,,,,,,,,,,,,,sub-138,1,2025-03-11_11h53.02.965,random_dot,03.02.2023,60.011006,2025-03-11 11h53.23.660501 +0100
right,right,speed,,,,,0,1,1,1,23,0,46,1,405.1934032,,,,,,,,,405.1806631,405.5430986,406.3422894,406.3268958,406.3269359,406.3422894,406.3422894,406.3422894,,407.2099222,right,1,32.4282602,None,,,,,,,,,,,,,,,,,,,,,,,,,,,,,sub-138,1,2025-03-11_11h53.02.965,random_dot,03.02.2023,60.011006,2025-03-11 11h53.23.660501 +0100
left,left,speed,,,,,0,1,1,1,23,1,47,0,407.2249437,,,,,,,,,407.2121221,408.42386,409.2230374,409.207467,409.2075089,409.2230374,409.2230374,409.2230374,,409.9075662,left,1,32.2318768,None,,,,,,,,,,,,,,,,,,,,,,,,,,,,,sub-138,1,2025-03-11_11h53.02.965,random_dot,03.02.2023,60.011006,2025-03-11 11h53.23.660501 +0100
left,left,speed,,,,,0,1,1,1,24,0,48,0,409.9226501,,,,,,,,,409.909748,410.0226607,410.8216718,410.8060931,410.8061347,410.8216718,410.8216718,410.8216718,,411.9398412,right,0,32.6791513,None,,,,,,,,,,,,,,,,,,,,,,,,,,,,,sub-138,1,2025-03-11_11h53.02.965,random_dot,03.02.2023,60.011006,2025-03-11 11h53.23.660501 +0100
right,right,speed,,,,,0,1,1,1,24,1,49,1,411.9540453,,,,,,,,,411.9421111,412.7535376,413.5525788,413.537227,413.5372683,413.5525788,413.5525788,413.5525788,,414.154054,left,0,32.1578828,None,,,,,,,,,,,,,,,,,,,,,,,,,,,,,sub-138,1,2025-03-11_11h53.02.965,random_dot,03.02.2023,60.011006,2025-03-11 11h53.23.660501 +0100
right,right,speed,,,,,0,1,1,1,25,0,50,1,414.168737,,,,,,,,,414.1562228,414.268667,415.0679426,415.0523823,415.0524221,415.0679426,415.0679426,415.0679426,,416.0024096,right,1,32.4889634,None,,,,,,,,,,,,,,,,,,,,,,,,,,,,,sub-138,1,2025-03-11_11h53.02.965,random_dot,03.02.2023,60.011006,2025-03-11 11h53.23.660501 +0100
left,left,speed,,,,,0,1,1,1,25,1,51,0,416.0174455,,,,,,,,,416.0045751,417.2172414,418.0319705,418.0164092,418.0164492,418.0319705,418.0319705,418.0319705,,418.6498939,left,1,32.1671442,None,,,,,,,,,,,,,,,,,,,,,,,,,,,,,sub-138,1,2025-03-11_11h53.02.965,random_dot,03.02.2023,60.011006,2025-03-11 11h53.23.660501 +0100
right,right,speed,,,,,0,1,1,1,26,0,52,1,418.6647501,,,,,,,,,418.6520769,419.4642641,420.2633719,420.2476824,420.2477234,420.2633719,420.2633719,420.2633719,,420.9649021,right,1,32.2626367,None,,,,,,,,,,,,,,,,,,,,,,,,,,,,,sub-138,1,2025-03-11_11h53.02.965,random_dot,03.02.2023,60.011006,2025-03-11 11h53.23.660501 +0100
left,left,speed,,,,,0,1,1,1,26,1,53,0,420.9793965,,,,,,,,,420.9671074,421.7787436,422.5779453,422.5623864,422.5624277,422.5779453,422.5779453,422.5779453,,423.4465106,left,1,32.4252333,None,,,,,,,,,,,,,,,,,,,,,,,,,,,,,sub-138,1,2025-03-11_11h53.02.965,random_dot,03.02.2023,60.011006,2025-03-11 11h53.23.660501 +0100
left,left,speed,,,,,0,1,1,1,27,0,54,0,423.4605318,,,,,,,,,423.4489105,423.5604833,424.3597705,424.3441263,424.3441662,424.3597705,424.3597705,424.3597705,,425.3106687,right,0,32.5021451,None,,,,,,,,,,,,,,,,,,,,,,,,,,,,,sub-138,1,2025-03-11_11h53.02.965,random_dot,03.02.2023,60.011006,2025-03-11 11h53.23.660501 +0100
right,right,speed,,,,,0,1,1,1,27,1,55,1,425.325777,,,,,,,,,425.3128314,425.6753345,426.4745021,426.4589184,426.4589596,426.4745021,426.4745021,426.4745021,,427.2923744,right,1,32.3734653,None,,,,,,,,,,,,,,,,,,,,,,,,,,,,,sub-138,1,2025-03-11_11h53.02.965,random_dot,03.02.2023,60.011006,2025-03-11 11h53.23.660501 +0100
left,left,speed,,,,,0,1,1,1,28,0,56,0,427.3072268,,,,,,,,,427.2945598,428.5062591,429.305449,429.2898426,429.2898862,429.305449,429.305449,429.305449,,429.8903951,left,1,32.1329053,None,,,,,,,,,,,,,,,,,,,,,,,,,,,,,sub-138,1,2025-03-11_11h53.02.965,random_dot,03.02.2023,60.011006,2025-03-11 11h53.23.660501 +0100
right,right,speed,,,,,0,1,1,1,28,1,57,1,429.9048146,,,,,,,,,429.892697,430.2540945,431.0538676,431.0382954,431.0383407,431.0538676,431.0538676,431.0538676,,431.7217046,right,1,32.224713,None,,,,,,,,,,,,,,,,,,,,,,,,,,,,,sub-138,1,2025-03-11_11h53.02.965,random_dot,03.02.2023,60.011006,2025-03-11 11h53.23.660501 +0100
left,left,speed,,,,,0,1,1,1,29,0,58,0,431.7365784,,,,,,,,,431.7239051,432.0862471,432.8855452,432.8698714,432.8699138,432.8855452,432.8855452,432.8855452,,433.6701833,left,1,32.3345055,None,,,,,,,,,,,,,,,,,,,,,,,,,,,,,sub-138,1,2025-03-11_11h53.02.965,random_dot,03.02.2023,60.011006,2025-03-11 11h53.23.660501 +0100
right,right,speed,,,,,0,1,1,1,29,1,59,1,433.6849495,,,,,,,,,433.6723722,434.8837571,435.6831379,435.6674435,435.6674814,435.6831379,435.6831379,435.6831379,,436.3011262,left,0,32.1704266,None,,,,,,,,,,,,,,,,,,,,,,,,,,,,,sub-138,1,2025-03-11_11h53.02.965,random_dot,03.02.2023,60.011006,2025-03-11 11h53.23.660501 +0100
,,speed,,,,,0,1,1,1,,,,,,,,,,,,,,,,,,,,,,,,,,,,,,,,,,,,,,,,,,,,,,,,,,,,,,,,sub-138,1,2025-03-11_11h53.02.965,random_dot,03.02.2023,60.011006,2025-03-11 11h53.23.660501 +0100
,,,,,,,,,,,,,,,,,,,,,,,,,,,,,,,,,,,,,,,,,,,,,,,,,,,,,,,,,,,,,,,436.3027859,436.3164051,441.3118777,,,,,,,
