direction,corrAns,randomInstr,practice_trials.thisRepN,practice_trials.thisTrialN,practice_trials.thisN,practice_trials.thisIndex,instr_trials.thisRepN,instr_trials.thisTrialN,instr_trials.thisN,instr_trials.thisIndex,test_trials.thisRepN,test_trials.thisTrialN,test_trials.thisN,test_trials.thisIndex,thisRow.t,notes,general_instruction.started,textGeneralInstr.started,respGeneralInstr.started,general_instruction.stopped,respGeneralInstr.keys,respGeneralInstr.rt,respGeneralInstr.duration,ITI.started,fixcross.started,fixcross.stopped,ITI.stopped,dots.started,backgroundDots.started,stimulusDots.started,respDots.started,dots.stopped,respDots.keys,respDots.corr,respDots.rt,respDots.duration,feedback.started,textFeedback.started,textFeedback.stopped,feedback.stopped,stimulusDots.stopped,info.started,textInfo.started,keyRespInfo.started,info.stopped,keyRespInfo.keys,keyRespInfo.rt,keyRespInfo.duration,test_instruction.started,textTestInstr.started,respTestInstr.started,test_instruction.stopped,respTestInstr.keys,respTestInstr.rt,respTestInstr.duration,random_instruction.started,textRandomInstr.started,respRandomInstr.started,random_instruction.stopped,respRandomInstr.keys,respRandomInstr.rt,respRandomInstr.duration,goodbye.started,textGoodbye.started,textGoodbye.stopped,goodbye.stopped,participant,session,expName,frameRate,Unnamed: 74
,,,,,,,,,,,,,,,,,0.0050359999295324,0.0126173999160528,0.0126173999160528,6.943693999899551,space,25.419423799961805,,,,,,,,,,,,,,,,,,,,,,,,,,,,,,,,,,,,,,,,,,,,,sub-081,1.0,random_dot,59.98598727840456,
right,right,,0.0,0.0,0.0,1.0,,,,,,,,,6.95940489997156,,,,,,,,,6.950842299964279,8.15906299999915,8.959661799948663,8.943366299849004,8.943398899864405,8.959661799948663,8.959661799948663,8.959661799948663,12.676418599905446,right,1.0,22.20365839987062,,12.6771803998854,12.692144599976018,13.191892500035465,13.175913499901071,,,,,,,,,,,,,,,,,,,,,,,,,,,sub-081,1.0,random_dot,59.98598727840456,
left,left,,0.0,1.0,1.0,0.0,,,,,,,,,13.191892500035465,,,,,,,,,13.176332599949092,13.54208970000036,14.341759899863971,14.325825300067663,14.325845699990168,14.341759899863971,14.341759899863971,14.341759899863971,18.75893669994548,left,1.0,22.90729170013219,,18.75949570001103,18.774773699929938,19.27451710007153,19.258648399962112,,,,,,,,,,,,,,,,,,,,,,,,,,,sub-081,1.0,random_dot,59.98598727840456,
right,right,,1.0,0.0,2.0,1.0,,,,,,,,,19.27451710007153,,,,,,,,,19.25908269989304,20.074430800043046,20.87440039985813,20.858116899849847,20.858134099980816,20.87440039985813,20.87440039985813,20.87440039985813,26.22469999990426,right,1.0,23.8382363000419,,26.22524970001541,26.24024279997684,26.740187699906528,26.724381299922243,25.85730779985897,,,,,,,,,,,,,,,,,,,,,,,,,,sub-081,1.0,random_dot,59.98598727840456,
left,left,,1.0,1.0,3.0,0.0,,,,,,,,,26.740187699906528,,,,,,,,,26.724796500056986,27.089976700022817,27.890091500012204,27.87423980003223,27.87426279997453,27.890091500012204,27.890091500012204,27.890091500012204,30.474100099876523,left,1.0,21.06630120007321,,30.47468649991788,30.489892799872905,30.98981889989227,30.97360310005024,,,,,,,,,,,,,,,,,,,,,,,,,,,sub-081,1.0,random_dot,59.98598727840456,
right,right,,2.0,0.0,4.0,1.0,,,,,,,,,30.98981889989227,,,,,,,,,30.974079699954014,32.18962119985372,32.98967220005579,32.97360799997114,32.97363390005194,32.98967220005579,32.98967220005579,32.98967220005579,37.67304049991071,right,1.0,23.1665203999728,,37.67362200003117,37.68899749987759,38.18888229993172,38.1730345999822,,,,,,,,,,,,,,,,,,,,,,,,,,,sub-081,1.0,random_dot,59.98598727840456,
left,left,,2.0,1.0,5.0,0.0,,,,,,,,,38.18888229993172,,,,,,,,,38.17351970006712,39.38873169990256,40.188739300007,40.17319880006835,40.17322860006243,40.188739300007,40.188739300007,40.188739300007,43.822640100028366,left,1.0,22.112308700103316,,43.82327209995128,43.8380861999467,44.33802759996615,44.32219869992696,,,,,,,,,,,,,,,,,,,,,,,,,,,sub-081,1.0,random_dot,59.98598727840456,
left,left,,3.0,0.0,6.0,0.0,,,,,,,,,44.33802759996615,,,,,,,,,44.32263850001618,45.53778719995171,46.33788560004905,46.32212359993719,46.322149799903855,46.33788560004905,46.33788560004905,46.33788560004905,51.638368600048125,right,0.0,23.7898851998616,,51.63898529997096,51.653906299965456,52.153810699936,52.13766820007004,51.337250999873504,,,,,,,,,,,,,,,,,,,,,,,,,,sub-081,1.0,random_dot,59.98598727840456,
right,right,,3.0,1.0,7.0,1.0,,,,,,,,,52.153810699936,,,,,,,,,52.138130499981344,52.50386850000359,53.3039883999154,53.28811679990031,53.28814950003289,53.3039883999154,53.3039883999154,53.3039883999154,58.92073470004834,left,0.0,24.09675359982066,,58.9213696999941,58.93637240002863,59.43635559990071,59.420289600035176,58.30297239986248,,,,,,,,,,,,,,,,,,,,,,,,,,sub-081,1.0,random_dot,59.98598727840456,
right,right,,4.0,0.0,8.0,1.0,,,,,,,,,59.43635559990071,,,,,,,,,59.42074049985968,60.63640580000356,61.43592739989981,61.42001989996061,61.42004269990139,61.43592739989981,61.43592739989981,61.43592739989981,67.33623380004428,right,1.0,24.378362100105733,,67.33678440004587,67.35172949987464,67.85161709995009,67.83540019998327,66.43500439985655,,,,,,,,,,,,,,,,,,,,,,,,,,sub-081,1.0,random_dot,59.98598727840456,
left,left,,4.0,1.0,9.0,0.0,,,,,,,,,67.85161709995009,,,,,,,,,67.8357313000597,67.95144960004836,68.75178100005724,68.73559559998102,68.7356191999279,68.75178100005724,68.75178100005724,68.75178100005724,74.13520519994199,left,1.0,23.866703799925745,,74.13579309987836,74.15099540003575,74.65090140001848,74.63499250006862,73.7510524999816,,,,,,,,,,,,,,,,,,,,,,,,,,sub-081,1.0,random_dot,59.98598727840456,
right,right,,5.0,0.0,10.0,1.0,,,,,,,,,74.65090140001848,,,,,,,,,74.63540819985792,75.0003080999013,75.80075579998083,75.7845079000108,75.78452889993787,75.80075579998083,75.80075579998083,75.80075579998083,79.2355976998806,right,1.0,21.92161719989963,,79.23640549997799,79.25004730001092,79.75030419998802,79.73445999994874,,,,,,,,,,,,,,,,,,,,,,,,,,,sub-081,1.0,random_dot,59.98598727840456,
left,left,,5.0,1.0,11.0,0.0,,,,,,,,,79.75030419998802,,,,,,,,,79.73492269986309,80.10010079992935,80.90015559992753,80.8844355000183,80.88445809995756,80.90015559992753,80.90015559992753,80.90015559992753,82.25100330007263,left,1.0,19.83635729993693,,82.25155070004985,82.26648380002007,82.76657869992778,82.7502639000304,,,,,,,,,,,,,,,,,,,,,,,,,,,sub-081,1.0,random_dot,59.98598727840456,
right,right,,6.0,0.0,12.0,1.0,,,,,,,,,82.76657869992778,,,,,,,,,82.75065100006759,83.9662221998442,84.76635969989002,84.75048919999972,84.75051330006681,84.76635969989002,84.76635969989002,84.76635969989002,88.3666795999743,right,1.0,22.09341699979268,,88.36709890002385,88.38235149998218,88.88232639990747,88.86653089988977,,,,,,,,,,,,,,,,,,,,,,,,,,,sub-081,1.0,random_dot,59.98598727840456,
left,left,,6.0,1.0,13.0,0.0,,,,,,,,,88.88232639990747,,,,,,,,,88.86696120002307,89.68220230005682,90.48200539988466,90.466140500037,90.46615920006298,90.48200539988466,90.48200539988466,90.48200539988466,94.1163033999037,left,1.0,22.123522700043395,,94.11685119988395,94.13165610004216,94.63152879988776,94.61557650007308,,,,,,,,,,,,,,,,,,,,,,,,,,,sub-081,1.0,random_dot,59.98598727840456,
left,left,,7.0,0.0,14.0,0.0,,,,,,,,,94.63152879988776,,,,,,,,,94.61599990003742,94.98166619986296,95.78158179996537,95.76536610000768,95.76538580004126,95.78158179996537,95.78158179996537,95.78158179996537,99.06537209986708,left,1.0,21.761673499830067,,99.06595179997385,99.08105489984156,99.58107309998012,99.56492689996958,,,,,,,,,,,,,,,,,,,,,,,,,,,sub-081,1.0,random_dot,59.98598727840456,
right,right,,7.0,1.0,15.0,1.0,,,,,,,,,99.58107309998012,,,,,,,,,99.56537780002692,100.78119939984754,101.58096589986236,101.56492859986612,101.56495540007018,101.58096589986236,101.58096589986236,101.58096589986236,103.03151659993456,right,1.0,19.93551249988377,,103.03212319989689,103.0470195999369,103.54697500006296,103.53102450002916,,,,,,,,,,,,,,,,,,,,,,,,,,,sub-081,1.0,random_dot,59.98598727840456,
right,right,,8.0,0.0,16.0,1.0,,,,,,,,,103.54697500006296,,,,,,,,,103.53141269995832,103.6470788998995,104.4472647998482,104.43122359993868,104.43124770000576,104.4472647998482,104.4472647998482,104.4472647998482,106.54798859986477,right,1.0,20.59255119995214,,106.54863519989884,106.5635961999651,107.06347699998878,107.04772039991803,,,,,,,,,,,,,,,,,,,,,,,,,,,sub-081,1.0,random_dot,59.98598727840456,
left,left,,8.0,1.0,17.0,0.0,,,,,,,,,107.06347699998878,,,,,,,,,107.0481729998719,107.41349820001052,108.2130809999071,108.19729499984533,108.19732829998247,108.2130809999071,108.2130809999071,108.2130809999071,110.9139264000114,left,1.0,21.18522200011648,,110.91448539984412,110.93035849998704,,111.42922100005671,,,,,,,,,,,,,,,,,,,,,,,,,,,sub-081,1.0,random_dot,59.98598727840456,
right,right,,9.0,0.0,18.0,1.0,,,,,,,,,111.44648899999449,,,,,,,,,111.42960959998892,111.51521330000833,112.3320549998898,112.31696669990195,112.3170320999343,112.3320549998898,112.3320549998898,112.3320549998898,113.4802774998825,right,1.0,19.633980199927464,,113.4808487999253,113.49587989994323,113.99598699994384,113.97996999998576,,,,,,,,,,,,,,,,,,,,,,,,,,,sub-081,1.0,random_dot,59.98598727840456,
left,left,,9.0,1.0,19.0,0.0,,,,,,,,,113.99598699994384,,,,,,,,,113.98038329998964,115.1957398999948,115.9958238999825,115.97969119995832,115.9797143000178,115.9958238999825,115.9958238999825,115.9958238999825,119.31328470003793,left,1.0,21.80656769988127,,119.31393840000965,119.32857250003144,119.8289669000078,119.81245309999213,,,,,,,,,,,,,,,,,,,,,,,,,,,sub-081,1.0,random_dot,59.98598727840456,
,,,,,,,,,,,,,,,,,,,,,,,,,,,,,,,,,,,,,,,,,,119.81254770001397,119.8289669000078,119.8289669000078,128.8617104999721,space,27.51281310012564,,,,,,,,,,,,,,,,,,,,sub-081,1.0,random_dot,59.98598727840456,
,,,,,,,,,,,,,,,,,,,,,,,,,,,,,,,,,,,,,,,,,,,,,,,,,128.8617509000469,128.8774415999651,128.8774415999651,136.9268942999188,space,26.53758140001446,,,,,,,,,,,,,sub-081,1.0,random_dot,59.98598727840456,
left,left,accuracy,,,,,0.0,0.0,0.0,0.0,0.0,0.0,0.0,0.0,141.60913269990124,,,,,,,,,141.6009511000011,141.70895959995687,142.508903299924,142.4931757999584,142.4932007000316,142.508903299924,142.508903299924,142.508903299924,145.9594849999994,left,1.0,21.93472140002996,,,,,,,,,,,,,,,,,,,,,136.93035559984855,136.9469033998903,136.9469033998903,141.59375089989044,space,23.13237960007973,,,,,,sub-081,1.0,random_dot,59.98598727840456,
right,right,accuracy,,,,,0.0,0.0,0.0,0.0,0.0,1.0,1.0,1.0,145.9752487000078,,,,,,,,,145.96090739988722,146.07513420004398,146.87501919991337,146.8589953999035,146.859018499963,146.87501919991337,146.87501919991337,146.87501919991337,150.42608969984576,right,1.0,22.040129499975592,,,,,,,,,,,,,,,,,,,,,,,,,,,,,,,,sub-081,1.0,random_dot,59.98598727840456,
right,right,accuracy,,,,,0.0,0.0,0.0,0.0,1.0,0.0,2.0,1.0,150.441324000014,,,,,,,,,150.4274120000191,150.79144040006213,151.59117159992456,151.5753172999248,151.57534219999798,151.59117159992456,151.59117159992456,151.59117159992456,154.99202919984236,right,1.0,21.893544499995187,,,,,,,,,,,,,,,,,,,,,,,,,,,,,,,,sub-081,1.0,random_dot,59.98598727840456,
left,left,accuracy,,,,,0.0,0.0,0.0,0.0,1.0,1.0,3.0,0.0,155.00729810004125,,,,,,,,,154.99313979991712,155.10716430004686,155.907297299942,155.8913161000237,155.89133849996142,155.907297299942,155.907297299942,155.907297299942,160.24093639990315,left,1.0,22.821443799883127,,,,,,,,,,,,,,,,,,,,,,,,,,,,,,,,sub-081,1.0,random_dot,59.98598727840456,
right,right,accuracy,,,,,0.0,0.0,0.0,0.0,2.0,0.0,4.0,1.0,160.2565969999414,,,,,,,,,160.2417508000508,161.05665519996546,161.8564760000445,161.84040970006026,161.84043250000104,161.8564760000445,161.8564760000445,161.8564760000445,163.9405420999974,right,1.0,20.56914009992033,,,,,,,,,,,,,,,,,,,,,,,,,,,,,,,,sub-081,1.0,random_dot,59.98598727840456,
left,left,accuracy,,,,,0.0,0.0,0.0,0.0,2.0,1.0,5.0,0.0,163.95625340007246,,,,,,,,,163.94172080000862,164.30626119999215,165.10618379991502,165.0904327998869,165.09045649995096,165.10618379991502,165.10618379991502,165.10618379991502,169.9564288998954,left,1.0,23.340319899842143,,,,,,,,,,,,,,,,,,,,,,,,,,,,,,,,sub-081,1.0,random_dot,59.98598727840456,
right,right,accuracy,,,,,0.0,0.0,0.0,0.0,3.0,0.0,6.0,1.0,169.97223179996945,,,,,,,,,169.95758039993234,170.77210019994527,171.57174469996244,171.5558014998678,171.5558223000262,171.57174469996244,171.57174469996244,171.57174469996244,174.67268329998478,right,1.0,21.579393999883905,,,,,,,,,,,,,,,,,,,,,,,,,,,,,,,,sub-081,1.0,random_dot,59.98598727840456,
left,left,accuracy,,,,,0.0,0.0,0.0,0.0,3.0,1.0,7.0,0.0,174.68814309989102,,,,,,,,,174.67386669991538,174.78832979989238,175.58805989986286,175.5721024000086,175.57213449990377,175.58805989986286,175.58805989986286,175.58805989986286,176.95615889993496,left,1.0,19.85425249999389,,,,,,,,,,,,,,,,,,,,,,,,,,,,,,,,sub-081,1.0,random_dot,59.98598727840456,
right,right,accuracy,,,,,0.0,0.0,0.0,0.0,4.0,0.0,8.0,1.0,176.9712652999442,,,,,,,,,176.95730559993535,177.32101269997656,178.12125229998492,178.10491669992916,178.10493709985167,178.12125229998492,178.12125229998492,178.12125229998492,180.5717827999033,right,1.0,20.940605799900368,,,,,,,,,,,,,,,,,,,,,,,,,,,,,,,,sub-081,1.0,random_dot,59.98598727840456,
left,left,accuracy,,,,,0.0,0.0,0.0,0.0,4.0,1.0,9.0,0.0,180.58751249988563,,,,,,,,,180.5728748000693,181.78718969994225,182.5872537998948,182.57124019996263,182.57126450003125,182.5872537998948,182.5872537998948,182.5872537998948,185.55464769992977,left,1.0,21.45664900005795,,,,,,,,,,,,,,,,,,,,,,,,,,,,,,,,sub-081,1.0,random_dot,59.98598727840456,
left,left,accuracy,,,,,0.0,0.0,0.0,0.0,5.0,0.0,10.0,0.0,185.57020499999635,,,,,,,,,185.55578979989517,185.91980769997463,186.7202620999888,186.7044255998917,186.7044538999908,186.7202620999888,186.7202620999888,186.7202620999888,189.68736690003425,left,1.0,21.44479399989359,,,,,,,,,,,,,,,,,,,,,,,,,,,,,,,,sub-081,1.0,random_dot,59.98598727840456,
right,right,accuracy,,,,,0.0,0.0,0.0,0.0,5.0,1.0,11.0,1.0,189.7031228998676,,,,,,,,,189.6885532999877,190.90304789994843,191.7029901999049,191.68711619987155,191.68714359984733,191.7029901999049,191.7029901999049,191.7029901999049,192.92025580001064,right,1.0,19.69662429997697,,,,,,,,,,,,,,,,,,,,,,,,,,,,,,,,sub-081,1.0,random_dot,59.98598727840456,
left,left,accuracy,,,,,0.0,0.0,0.0,0.0,6.0,0.0,12.0,0.0,192.9359748000279,,,,,,,,,192.9214331000112,193.7359366999008,194.53576490003616,194.5196503999177,194.51967439986765,194.53576490003616,194.53576490003616,194.53576490003616,195.58661979995668,left,1.0,19.543531599920243,,,,,,,,,,,,,,,,,,,,,,,,,,,,,,,,sub-081,1.0,random_dot,59.98598727840456,
right,right,accuracy,,,,,0.0,0.0,0.0,0.0,6.0,1.0,13.0,1.0,195.60202199989,,,,,,,,,195.5875210000668,196.40216739987957,197.20217169984244,197.18610409996472,197.18612700002268,197.20217169984244,197.20217169984244,197.20217169984244,199.65272879996337,right,1.0,20.933621099917215,,,,,,,,,,,,,,,,,,,,,,,,,,,,,,,,sub-081,1.0,random_dot,59.98598727840456,
right,right,accuracy,,,,,0.0,0.0,0.0,0.0,7.0,0.0,14.0,1.0,199.6685484999325,,,,,,,,,199.6539024999365,200.01841129991223,200.81815050006844,200.80234019993804,200.8023635998834,200.81815050006844,200.81815050006844,200.81815050006844,205.08528509992172,right,1.0,22.757626499980688,,,,,,,,,,,,,,,,,,,,,,,,,,,,,,,,sub-081,1.0,random_dot,59.98598727840456,
left,left,accuracy,,,,,0.0,0.0,0.0,0.0,7.0,1.0,15.0,0.0,205.1011932999827,,,,,,,,,205.08629340003245,206.30093119991943,207.10100509994663,207.0851693998557,207.08519689994864,207.10100509994663,207.10100509994663,207.10100509994663,208.4515343999956,left,1.0,19.83754949993454,,,,,,,,,,,,,,,,,,,,,,,,,,,,,,,,sub-081,1.0,random_dot,59.98598727840456,
right,right,accuracy,,,,,0.0,0.0,0.0,0.0,8.0,0.0,16.0,1.0,208.46722729993053,,,,,,,,,208.45272689987905,208.81736149988137,209.61721299984487,209.60122710000724,209.60125020006672,209.61721299984487,209.61721299984487,209.61721299984487,212.20130970003083,right,1.0,21.06616790010594,,,,,,,,,,,,,,,,,,,,,,,,,,,,,,,,sub-081,1.0,random_dot,59.98598727840456,
left,left,accuracy,,,,,0.0,0.0,0.0,0.0,8.0,1.0,17.0,0.0,212.2169246999547,,,,,,,,,212.2025186000392,213.0168335000053,213.81655099987984,213.80049040005545,213.80051259999163,213.81655099987984,213.81655099987984,213.81655099987984,218.9170931999106,left,1.0,23.587073100032285,,,,,,218.81586960004643,,,,,,,,,,,,,,,,,,,,,,,,,,sub-081,1.0,random_dot,59.98598727840456,
right,right,accuracy,,,,,0.0,0.0,0.0,0.0,9.0,0.0,18.0,1.0,218.9325045000296,,,,,,,,,218.91824160004035,219.732398299966,220.53244389989413,220.51644789986312,220.51647250005044,220.53244389989413,220.53244389989413,220.53244389989413,226.21623459993864,right,1.0,24.162130000069737,,,,,,225.53156189993024,,,,,,,,,,,,,,,,,,,,,,,,,,sub-081,1.0,random_dot,59.98598727840456,
left,left,accuracy,,,,,0.0,0.0,0.0,0.0,9.0,1.0,19.0,0.0,226.2317268999759,,,,,,,,,226.21746269986036,227.0315447000321,227.8316043999512,227.81559780007228,227.81562189990652,227.8316043999512,227.8316043999512,227.8316043999512,230.8821451999247,left,1.0,21.54130699997768,,,,,,,,,,,,,,,,,,,,,,,,,,,,,,,,sub-081,1.0,random_dot,59.98598727840456,
right,right,accuracy,,,,,0.0,0.0,0.0,0.0,10.0,0.0,20.0,1.0,230.89750900003128,,,,,,,,,230.88308939989656,231.24773110006936,232.04750350001268,232.03161209984685,232.03164519998245,232.04750350001268,232.04750350001268,232.04750350001268,233.44861359987408,right,1.0,19.892751900013536,,,,,,,,,,,,,,,,,,,,,,,,,,,,,,,,sub-081,1.0,random_dot,59.98598727840456,
left,left,accuracy,,,,,0.0,0.0,0.0,0.0,10.0,1.0,21.0,0.0,233.46401960006915,,,,,,,,,233.44970369990915,233.5641453000717,234.36386919999492,234.3475542999804,234.34757249988616,234.36386919999492,234.36386919999492,234.36386919999492,236.98148910002783,left,1.0,21.099190999986604,,,,,,,,,,,,,,,,,,,,,,,,,,,,,,,,sub-081,1.0,random_dot,59.98598727840456,
left,left,accuracy,,,,,0.0,0.0,0.0,0.0,11.0,0.0,22.0,0.0,236.996929399902,,,,,,,,,236.98269279999656,238.19686709996316,238.9967904000077,238.98083680006675,238.98085980000903,238.9967904000077,238.9967904000077,238.9967904000077,242.0311267999932,left,1.0,21.517225099960346,,,,,,,,,,,,,,,,,,,,,,,,,,,,,,,,sub-081,1.0,random_dot,59.98598727840456,
right,right,accuracy,,,,,0.0,0.0,0.0,0.0,11.0,1.0,23.0,1.0,242.0465062998701,,,,,,,,,242.03246279992163,242.14658409985717,242.94639869988896,242.93022059998475,242.93025940004736,242.94639869988896,242.94639869988896,242.94639869988896,246.063509099884,right,1.0,21.5979283999186,,,,,,,,,,,,,,,,,,,,,,,,,,,,,,,,sub-081,1.0,random_dot,59.98598727840456,
left,left,accuracy,,,,,0.0,0.0,0.0,0.0,12.0,0.0,24.0,0.0,246.07905199984089,,,,,,,,,246.0646921999287,246.42902430007237,247.22897549998012,247.21292079985145,247.212943200022,247.22897549998012,247.22897549998012,247.22897549998012,248.37995549989864,left,1.0,19.634404000127688,,,,,,,,,,,,,,,,,,,,,,,,,,,,,,,,sub-081,1.0,random_dot,59.98598727840456,
right,right,accuracy,,,,,0.0,0.0,0.0,0.0,12.0,1.0,25.0,1.0,248.39558349992149,,,,,,,,,248.38101259991527,248.7455102999229,249.54540349985476,249.52957260003316,249.52959529985677,249.54540349985476,249.54540349985476,249.54540349985476,250.6797122000717,right,1.0,19.617972599808127,,,,,,,,,,,,,,,,,,,,,,,,,,,,,,,,sub-081,1.0,random_dot,59.98598727840456,
left,left,accuracy,,,,,0.0,0.0,0.0,0.0,13.0,0.0,26.0,0.0,250.6951772000175,,,,,,,,,250.68084309995172,251.4952010998968,252.29508630000052,252.2787982998416,252.27881829999387,252.29508630000052,252.29508630000052,252.29508630000052,253.2293499999214,left,1.0,19.422519899904728,,,,,,,,,,,,,,,,,,,,,,,,,,,,,,,,sub-081,1.0,random_dot,59.98598727840456,
right,right,accuracy,,,,,0.0,0.0,0.0,0.0,13.0,1.0,27.0,1.0,253.2450295998715,,,,,,,,,253.2304754999932,254.4448227998801,255.2449008000549,255.22902469988912,255.229051399976,255.2449008000549,255.2449008000549,255.2449008000549,256.3455876000225,right,1.0,19.592589600011703,,,,,,,,,,,,,,,,,,,,,,,,,,,,,,,,sub-081,1.0,random_dot,59.98598727840456,
left,left,accuracy,,,,,0.0,0.0,0.0,0.0,14.0,0.0,28.0,0.0,256.36094589997083,,,,,,,,,256.3468508999795,256.7109091999009,257.51124410005286,257.4952849999536,257.4953115000389,257.51124410005286,257.51124410005286,257.51124410005286,258.72835980006494,left,1.0,19.69889170001261,,,,,,,,,,,,,,,,,,,,,,,,,,,,,,,,sub-081,1.0,random_dot,59.98598727840456,
right,right,accuracy,,,,,0.0,0.0,0.0,0.0,14.0,1.0,29.0,1.0,258.7439278999809,,,,,,,,,258.729202499846,258.8438691999763,259.6443177999463,259.62839279999025,259.62841939996,259.6443177999463,259.6443177999463,259.6443177999463,262.4949984999839,right,1.0,21.330810999963436,,,,,,,,,,,,,,,,,,,,,,,,,,,,,,,,sub-081,1.0,random_dot,59.98598727840456,
left,left,accuracy,,,,,0.0,0.0,0.0,0.0,15.0,0.0,30.0,0.0,262.5105014999863,,,,,,,,,262.4962114999071,262.6105716000311,263.41028259997256,263.3944763999898,263.39449979993515,263.41028259997256,263.41028259997256,263.41028259997256,264.4613800998777,left,1.0,19.532422200078145,,,,,,,,,,,,,,,,,,,,,,,,,,,,,,,,sub-081,1.0,random_dot,59.98598727840456,
right,right,accuracy,,,,,0.0,0.0,0.0,0.0,15.0,1.0,31.0,1.0,264.4769130998757,,,,,,,,,264.4626056998968,265.2768935000058,266.0766332000494,266.06024120002985,266.0602607000619,266.0766332000494,266.0766332000494,266.0766332000494,269.7272043998819,right,1.0,22.132216199999675,,,,,,,,,,,,,,,,,,,,,,,,,,,,,,,,sub-081,1.0,random_dot,59.98598727840456,
left,left,accuracy,,,,,0.0,0.0,0.0,0.0,16.0,0.0,32.0,0.0,269.7427383000031,,,,,,,,,269.7283411999233,269.84287399984896,270.64283180003986,270.62669249996543,270.62672579986975,270.64283180003986,270.64283180003986,270.64283180003986,272.21052729990333,left,1.0,20.05645849998109,,,,,,,,,,,,,,,,,,,,,,,,,,,,,,,,sub-081,1.0,random_dot,59.98598727840456,
right,right,accuracy,,,,,0.0,0.0,0.0,0.0,16.0,1.0,33.0,1.0,272.2259694999084,,,,,,,,,272.21176189999096,272.3258382999338,273.1258886000141,273.10978109994903,273.10980540001765,273.1258886000141,273.1258886000141,273.1258886000141,275.5933773999568,right,1.0,20.94700239994563,,,,,,,,,,,,,,,,,,,,,,,,,,,,,,,,sub-081,1.0,random_dot,59.98598727840456,
right,right,accuracy,,,,,0.0,0.0,0.0,0.0,17.0,0.0,34.0,1.0,275.60893659992144,,,,,,,,,275.59479180001654,276.4087948999368,277.2088357999455,277.1927680000663,277.1927944999188,277.2088357999455,277.2088357999455,277.2088357999455,279.8091132999398,right,1.0,21.087849999777973,,,,,,,,,,,,,,,,,,,,,,,,,,,,,,,,sub-081,1.0,random_dot,59.98598727840456,
left,left,accuracy,,,,,0.0,0.0,0.0,0.0,17.0,1.0,35.0,0.0,279.82496999995783,,,,,,,,,279.81009400007315,280.6249396998901,281.42471439996734,281.4085291000083,281.40854989993386,281.42471439996734,281.42471439996734,281.42471439996734,282.8091291000601,left,1.0,19.86253140005283,,,,,,,,,,,,,,,,,,,,,,,,,,,,,,,,sub-081,1.0,random_dot,59.98598727840456,
left,left,accuracy,,,,,0.0,0.0,0.0,0.0,18.0,0.0,36.0,0.0,282.8246365999803,,,,,,,,,282.8103906000033,282.9246479999274,283.7243438998703,283.7085221998859,283.70854420005344,283.7243438998703,283.7243438998703,283.7243438998703,285.17503699986264,left,1.0,19.93264389992692,,,,,,,,,,,,,,,,,,,,,,,,,,,,,,,,sub-081,1.0,random_dot,59.98598727840456,
right,right,accuracy,,,,,0.0,0.0,0.0,0.0,18.0,1.0,37.0,1.0,285.1907686998602,,,,,,,,,285.17625919985585,285.5409069999587,286.3406213000417,286.32471169997007,286.32475210004486,286.3406213000417,286.3406213000417,286.3406213000417,287.6251165999565,right,1.0,19.76259059994481,,,,,,,,,,,,,,,,,,,,,,,,,,,,,,,,sub-081,1.0,random_dot,59.98598727840456,
left,left,accuracy,,,,,0.0,0.0,0.0,0.0,19.0,0.0,38.0,0.0,287.64063699985854,,,,,,,,,287.6262731999159,288.8404618999921,289.6404019999318,289.6245935000479,289.624618700007,289.6404019999318,289.6404019999318,289.6404019999318,290.5584151998628,left,1.0,19.400035299826413,,,,,,,,,,,,,,,,,,,,,,,,,,,,,,,,sub-081,1.0,random_dot,59.98598727840456,
right,right,accuracy,,,,,0.0,0.0,0.0,0.0,19.0,1.0,39.0,1.0,290.57386390003376,,,,,,,,,290.5596932999324,291.3733640999999,292.17356180003844,292.1577279998455,292.1577560000587,292.17356180003844,292.17356180003844,292.17356180003844,297.3738843000028,right,1.0,23.692137900041416,,,,,,297.17284969985485,,,,,,,,,,,,,,,,,,,,,,,,,,sub-081,1.0,random_dot,59.98598727840456,
left,left,accuracy,,,,,0.0,0.0,0.0,0.0,20.0,0.0,40.0,0.0,297.38950499985367,,,,,,,,,297.3751691998914,297.4893427998759,298.28932649991475,298.27317889989354,298.273202699842,298.28932649991475,298.28932649991475,298.28932649991475,299.19023670000024,left,1.0,19.383343999972567,,,,,,,,,,,,,,,,,,,,,,,,,,,,,,,,sub-081,1.0,random_dot,59.98598727840456,
right,right,accuracy,,,,,0.0,0.0,0.0,0.0,20.0,1.0,41.0,1.0,299.2055704998784,,,,,,,,,299.1913312000688,299.30570179992355,300.10593229997903,300.0900204000063,300.0900483999867,300.10593229997903,300.10593229997903,300.10593229997903,301.2064409998711,right,1.0,19.58793859998696,,,,,,,,,,,,,,,,,,,,,,,,,,,,,,,,sub-081,1.0,random_dot,59.98598727840456,
left,left,accuracy,,,,,0.0,0.0,0.0,0.0,21.0,0.0,42.0,0.0,301.22211429988965,,,,,,,,,301.2073796999175,302.02199909999035,302.82192480005324,302.8060812000185,302.8061036998406,302.82192480005324,302.82192480005324,302.82192480005324,304.34030829998665,left,1.0,19.99619510001503,,,,,,,,,,,,,,,,,,,,,,,,,,,,,,,,sub-081,1.0,random_dot,59.98598727840456,
right,right,accuracy,,,,,0.0,0.0,0.0,0.0,21.0,1.0,43.0,1.0,304.35543240001425,,,,,,,,,304.3419814000372,305.5551119998563,306.35481170006096,306.33882449986413,306.338850799948,306.35481170006096,306.35481170006096,306.35481170006096,311.63886730000377,right,1.0,23.76861499994993,,,,,,311.3542026998475,,,,,,,,,,,,,,,,,,,,,,,,,,sub-081,1.0,random_dot,59.98598727840456,
left,left,accuracy,,,,,0.0,0.0,0.0,0.0,22.0,0.0,44.0,0.0,311.65427089994773,,,,,,,,,311.6401052000001,312.85407830006443,313.65409439988434,313.6380620999262,313.63808749988675,313.65409439988434,313.65409439988434,313.65409439988434,315.1049587999005,left,1.0,19.943613399984315,,,,,,,,,,,,,,,,,,,,,,,,,,,,,,,,sub-081,1.0,random_dot,59.98598727840456,
right,right,accuracy,,,,,0.0,0.0,0.0,0.0,22.0,1.0,45.0,1.0,315.1204651999288,,,,,,,,,315.1061102999374,315.9201960000209,316.7204688000493,316.7042717000004,316.70429620007053,316.7204688000493,316.7204688000493,316.7204688000493,319.9876744998619,right,1.0,21.74950349982828,,,,,,,,,,,,,,,,,,,,,,,,,,,,,,,,sub-081,1.0,random_dot,59.98598727840456,
left,left,accuracy,,,,,0.0,0.0,0.0,0.0,23.0,0.0,46.0,0.0,320.0032868999988,,,,,,,,,319.988851999864,321.2027531999629,322.00287949992344,321.98716549994424,321.9871922000312,322.00287949992344,322.00287949992344,322.00287949992344,322.98708710004576,left,1.0,19.47371660009958,,,,,,,,,,,,,,,,,,,,,,,,,,,,,,,,sub-081,1.0,random_dot,59.98598727840456,
right,right,accuracy,,,,,0.0,0.0,0.0,0.0,23.0,1.0,47.0,1.0,323.00248879985884,,,,,,,,,322.98801199998707,324.2026428000536,325.00245829997584,324.9867084999569,324.98673340003006,325.00245829997584,325.00245829997584,325.00245829997584,329.8363946999889,right,1.0,23.32323159999214,,,,,,,,,,,,,,,,,,,,,,,,,,,,,,,,sub-081,1.0,random_dot,59.98598727840456,
left,left,accuracy,,,,,0.0,0.0,0.0,0.0,24.0,0.0,48.0,0.0,329.8518405000213,,,,,,,,,329.83758959989063,329.95189539995044,330.7518668998964,330.7357327998616,330.7357558000367,330.7518668998964,330.7518668998964,330.7518668998964,332.96971730003133,left,1.0,20.71080200001597,,,,,,,,,,,,,,,,,,,,,,,,,,,,,,,,sub-081,1.0,random_dot,59.98598727840456,
right,right,accuracy,,,,,0.0,0.0,0.0,0.0,24.0,1.0,49.0,1.0,332.9847442000173,,,,,,,,,332.97081550001167,334.18561609997414,334.98473079991527,334.9688611999154,334.96888749999925,334.98473079991527,334.98473079991527,334.98473079991527,339.20191189995967,right,1.0,22.700158999999985,,,,,,,,,,,,,,,,,,,,,,,,,,,,,,,,sub-081,1.0,random_dot,59.98598727840456,
right,right,accuracy,,,,,0.0,0.0,0.0,0.0,25.0,0.0,50.0,1.0,339.21748519991525,,,,,,,,,339.2031681998633,339.3174827999901,340.1175969999749,340.1015566000715,340.101585400058,340.1175969999749,340.1175969999749,340.1175969999749,342.7182984000537,right,1.0,21.083956100046635,,,,,,,,,,,,,,,,,,,,,,,,,,,,,,,,sub-081,1.0,random_dot,59.98598727840456,
left,left,accuracy,,,,,0.0,0.0,0.0,0.0,25.0,1.0,51.0,0.0,342.733547499869,,,,,,,,,342.7195583998692,343.0836265999824,343.88340719998814,343.86768849985674,343.86771279992536,343.88340719998814,343.88340719998814,343.88340719998814,345.0507006999105,left,1.0,19.65062229987234,,,,,,,,,,,,,,,,,,,,,,,,,,,,,,,,sub-081,1.0,random_dot,59.98598727840456,
left,left,accuracy,,,,,0.0,0.0,0.0,0.0,26.0,0.0,52.0,0.0,345.0665708000306,,,,,,,,,345.051715800073,345.1663804000709,345.9664371998515,345.95041029993445,345.95043259998783,345.9664371998515,345.9664371998515,345.9664371998515,347.367591700051,left,1.0,19.893413400044665,,,,,,,,,,,,,,,,,,,,,,,,,,,,,,,,sub-081,1.0,random_dot,59.98598727840456,
right,right,accuracy,,,,,0.0,0.0,0.0,0.0,26.0,1.0,53.0,1.0,347.38290439988486,,,,,,,,,347.3687551000621,347.48294049990363,348.28292199992575,348.2668504000176,348.2668777999934,348.28292199992575,348.28292199992575,348.28292199992575,349.1172529000323,right,1.0,19.31348570017144,,,,,,,,,,,,,,,,,,,,,,,,,,,,,,,,sub-081,1.0,random_dot,59.98598727840456,
right,right,accuracy,,,,,0.0,0.0,0.0,0.0,27.0,0.0,54.0,1.0,349.13283100002445,,,,,,,,,349.118383300025,350.3327279998921,351.1325695000123,351.1165674999356,351.1165895999875,351.1325695000123,351.1325695000123,351.1325695000123,355.9158882999327,right,1.0,23.266340000089254,,,,,,,,,,,,,,,,,,,,,,,,,,,,,,,,sub-081,1.0,random_dot,59.98598727840456,
left,left,accuracy,,,,,0.0,0.0,0.0,0.0,27.0,1.0,55.0,0.0,355.93170119985007,,,,,,,,,355.9167523998767,356.2819300000556,357.0815588000696,357.06561190006323,357.06563249998726,357.0815588000696,357.0815588000696,357.0815588000696,359.133082699962,left,1.0,20.535652699880306,,,,,,,,,,,,,,,,,,,,,,,,,,,,,,,,sub-081,1.0,random_dot,59.98598727840456,
left,left,accuracy,,,,,0.0,0.0,0.0,0.0,28.0,0.0,56.0,0.0,359.14844490005635,,,,,,,,,359.1344266999513,359.49821639992297,360.2983454999048,360.2824927000329,360.2825225999113,360.2983454999048,360.2983454999048,360.2983454999048,362.71571319992654,left,1.0,20.897382100112736,,,,,,,,,,,,,,,,,,,,,,,,,,,,,,,,sub-081,1.0,random_dot,59.98598727840456,
right,right,accuracy,,,,,0.0,0.0,0.0,0.0,28.0,1.0,57.0,1.0,362.7311853999272,,,,,,,,,362.7169989999384,363.0812184000388,363.8810503999703,363.8652414998505,363.86526770005,363.8810503999703,363.8810503999703,363.8810503999703,368.5315684999805,right,1.0,23.135180899873376,,,,,,,,,,,,,,,,,,,,,,,,,,,,,,,,sub-081,1.0,random_dot,59.98598727840456,
left,left,accuracy,,,,,0.0,0.0,0.0,0.0,29.0,0.0,58.0,0.0,368.54704639990814,,,,,,,,,368.5328357999679,368.6469695998821,369.44704449991696,369.4308412000537,369.4308821000159,369.44704449991696,369.44704449991696,369.44704449991696,371.1982716000639,left,1.0,20.230246300110597,,,,,,,,,,,,,,,,,,,,,,,,,,,,,,,,sub-081,1.0,random_dot,59.98598727840456,
right,right,accuracy,,,,,0.0,0.0,0.0,0.0,29.0,1.0,59.0,1.0,371.2136075999588,,,,,,,,,371.19969210005365,371.3135962998495,372.1134527998511,372.0974850999192,372.0975120998919,372.1134527998511,372.1134527998511,372.1134527998511,374.0967387999408,right,1.0,20.469297900097445,,,,,,,,,,,,,,,,,,,,,,,,,,,,,,,,sub-081,1.0,random_dot,59.98598727840456,
,,accuracy,,,,,0.0,0.0,0.0,0.0,,,,,,,,,,,,,,,,,,,,,,,,,,,,,,,,,,,,,,,,,,,,,,,,,,,,,,,,,sub-081,1.0,random_dot,59.98598727840456,
left,left,speed,,,,,0.0,1.0,1.0,1.0,0.0,0.0,0.0,0.0,385.92867799988016,,,,,,,,,385.9188570999541,386.713015699992,387.5281231000554,387.5124353999272,387.51245519984514,387.5281231000554,387.5281231000554,387.5281231000554,390.2459239000455,right,0.0,21.209476799936965,,,,,,,,,,,,,,,,,,,,,374.0975074998569,374.112957400037,374.112957400037,385.912843399914,space,30.291600600117818,,,,,,sub-081,1.0,random_dot,59.98598727840456,
right,right,speed,,,,,0.0,1.0,1.0,1.0,0.0,1.0,1.0,1.0,390.2620448998641,,,,,,,,,390.2470547000412,391.46097179991193,392.2609305998776,392.2450812000316,392.2450987000484,392.2609305998776,392.2609305998776,392.2609305998776,393.47869629994966,right,1.0,19.70088450005278,,,,,,,,,,,,,,,,,,,,,,,,,,,,,,,,sub-081,1.0,random_dot,59.98598727840456,
left,left,speed,,,,,0.0,1.0,1.0,1.0,1.0,0.0,2.0,0.0,393.4946334999986,,,,,,,,,393.47958939988166,393.844301499892,394.6440349998884,394.62792239990085,394.6279398999177,394.6440349998884,394.6440349998884,394.6440349998884,395.5614287999924,left,1.0,19.40042810002342,,,,,,,,,,,,,,,,,,,,,,,,,,,,,,,,sub-081,1.0,random_dot,59.98598727840456,
right,right,speed,,,,,0.0,1.0,1.0,1.0,1.0,1.0,3.0,1.0,395.5770316000562,,,,,,,,,395.56266029994,396.7764427000657,397.5765583999455,397.56076529994607,397.560787800001,397.5765583999455,397.5765583999455,397.5765583999455,398.1275152000599,right,1.0,19.03297649999149,,,,,,,,,,,,,,,,,,,,,,,,,,,,,,,,sub-081,1.0,random_dot,59.98598727840456,
right,right,speed,,,,,0.0,1.0,1.0,1.0,2.0,0.0,4.0,1.0,398.1432372999843,,,,,,,,,398.1286857000087,398.94300119997934,399.7431987000164,399.7273581998888,399.7273846999742,399.7431987000164,399.7431987000164,399.7431987000164,401.54386410000734,right,1.0,20.281532800057903,,,,,,,,,,,,,,,,,,,,,,,,,,,,,,,,sub-081,1.0,random_dot,59.98598727840456,
left,left,speed,,,,,0.0,1.0,1.0,1.0,2.0,1.0,5.0,0.0,401.5595384999178,,,,,,,,,401.5451130999718,401.6594583999831,402.45942199998535,402.44334369990975,402.4433788000606,402.45942199998535,402.45942199998535,402.45942199998535,403.2435124998447,left,1.0,19.267944399965927,,,,,,,,,,,,,,,,,,,,,,,,,,,,,,,,sub-081,1.0,random_dot,59.98598727840456,
left,left,speed,,,,,0.0,1.0,1.0,1.0,3.0,0.0,6.0,0.0,403.2590707999189,,,,,,,,,403.24461110006087,404.4589990999084,405.2590306999628,405.24308150005527,405.2431027998682,405.2590306999628,405.2590306999628,405.2590306999628,406.30993149988353,left,1.0,19.537530099973083,,,,,,,,,,,,,,,,,,,,,,,,,,,,,,,,sub-081,1.0,random_dot,59.98598727840456,
right,right,speed,,,,,0.0,1.0,1.0,1.0,3.0,1.0,7.0,1.0,406.3256633998826,,,,,,,,,406.3111783999484,406.4257827000693,407.22550499998033,407.2096196999773,407.209644400049,407.22550499998033,407.22550499998033,407.22550499998033,408.093149599852,right,1.0,19.348290499998257,,,,,,,,,,,,,,,,,,,,,,,,,,,,,,,,sub-081,1.0,random_dot,59.98598727840456,
left,left,speed,,,,,0.0,1.0,1.0,1.0,4.0,0.0,8.0,0.0,408.1086850999855,,,,,,,,,408.0943793000188,408.458672599867,409.25839890004136,409.24262689985335,409.2426448999904,409.25839890004136,409.25839890004136,409.25839890004136,410.6422808000352,left,1.0,19.86899370001629,,,,,,,,,,,,,,,,,,,,,,,,,,,,,,,,sub-081,1.0,random_dot,59.98598727840456,
right,right,speed,,,,,0.0,1.0,1.0,1.0,4.0,1.0,9.0,1.0,410.65818100003526,,,,,,,,,410.64299679989927,411.4583143000491,412.2583897998557,412.24234029999934,412.2423678999767,412.2583897998557,412.2583897998557,412.2583897998557,415.3252856000327,right,1.0,21.55530039989389,,,,,,,,,,,,,,,,,,,,,,,,,,,,,,,,sub-081,1.0,random_dot,59.98598727840456,
left,left,speed,,,,,0.0,1.0,1.0,1.0,5.0,0.0,10.0,0.0,415.34108959999867,,,,,,,,,415.32626589993015,415.4409813999664,416.24104009987786,416.225327800028,416.2253558998928,416.24104009987786,416.24104009987786,416.24104009987786,417.0582908999641,left,1.0,19.304874800145623,,,,,,,,,,,,,,,,,,,,,,,,,,,,,,,,sub-081,1.0,random_dot,59.98598727840456,
right,right,speed,,,,,0.0,1.0,1.0,1.0,5.0,1.0,11.0,1.0,417.0741999000311,,,,,,,,,417.0593524000142,417.8738587999251,418.67406079988,418.65799809992313,418.6580221999902,418.67406079988,418.67406079988,418.67406079988,419.5416500000283,right,1.0,19.351382700027894,,,,,,,,,,,,,,,,,,,,,,,,,,,,,,,,sub-081,1.0,random_dot,59.98598727840456,
right,right,speed,,,,,0.0,1.0,1.0,1.0,6.0,0.0,12.0,1.0,419.5572021000553,,,,,,,,,419.5428929000627,420.3574737999588,421.15706490003504,421.1409793999046,421.1410117999185,421.15706490003504,421.15706490003504,421.15706490003504,421.7578902000096,left,0.0,19.08491239999421,,,,,,,,,,,,,,,,,,,,,,,,,,,,,,,,sub-081,1.0,random_dot,59.98598727840456,
left,left,speed,,,,,0.0,1.0,1.0,1.0,6.0,1.0,13.0,0.0,421.7736325999722,,,,,,,,,421.75901519996114,422.123442000011,422.92337520001456,422.9076008999255,422.9076250998769,422.92337520001456,422.92337520001456,422.92337520001456,424.8573507000692,right,0.0,20.42054840014316,,,,,,,,,,,,,,,,,,,,,,,,,,,,,,,,sub-081,1.0,random_dot,59.98598727840456,
right,right,speed,,,,,0.0,1.0,1.0,1.0,7.0,0.0,14.0,1.0,424.87371239997447,,,,,,,,,424.8581920000725,424.97380509995855,425.7731244000606,425.7570384000428,425.7570730999578,425.7731244000606,425.7731244000606,425.7731244000606,427.1237148998771,right,1.0,19.829533000011,,,,,,,,,,,,,,,,,,,,,,,,,,,,,,,,sub-081,1.0,random_dot,59.98598727840456,
left,left,speed,,,,,0.0,1.0,1.0,1.0,7.0,1.0,15.0,0.0,427.13945179991424,,,,,,,,,427.1248314999975,428.33928889990784,429.1392824999057,429.12316680001095,429.1231916998513,429.1392824999057,429.1392824999057,429.1392824999057,430.9569427999668,left,1.0,20.306640800088644,,,,,,,,,,,,,,,,,,,,,,,,,,,,,,,,sub-081,1.0,random_dot,59.98598727840456,
right,right,speed,,,,,0.0,1.0,1.0,1.0,8.0,0.0,16.0,1.0,430.97245480003767,,,,,,,,,430.958127199905,432.1722234999761,432.9722756000701,432.9561631998513,432.9561900999397,432.9722756000701,432.9722756000701,432.9722756000701,434.389916599961,right,1.0,19.909336699871343,,,,,,,,,,,,,,,,,,,,,,,,,,,,,,,,sub-081,1.0,random_dot,59.98598727840456,
left,left,speed,,,,,0.0,1.0,1.0,1.0,8.0,1.0,17.0,0.0,434.4052007999271,,,,,,,,,434.39107039989904,434.7552283999976,435.5553073999472,435.5393991000019,435.5394224999473,435.5553073999472,435.5553073999472,435.5553073999472,436.7393966000527,left,1.0,19.67164329998195,,,,,,,,,,,,,,,,,,,,,,,,,,,,,,,,sub-081,1.0,random_dot,59.98598727840456,
right,right,speed,,,,,0.0,1.0,1.0,1.0,9.0,0.0,18.0,1.0,436.7550641000271,,,,,,,,,436.7406416998711,436.85517290001735,437.6550445000176,437.63913489994593,437.63915920001455,437.6550445000176,437.6550445000176,437.6550445000176,439.9883921998553,right,1.0,20.820594899822023,,,,,,,,,,,,,,,,,,,,,,,,,,,,,,,,sub-081,1.0,random_dot,59.98598727840456,
left,left,speed,,,,,0.0,1.0,1.0,1.0,9.0,1.0,19.0,0.0,440.0044783998746,,,,,,,,,439.98924200003967,440.3378330999985,441.1378764999099,441.12174399988726,441.12176709994674,441.1378764999099,441.1378764999099,441.1378764999099,442.23853860003874,left,1.0,19.59078429988585,,,,,,,,,,,,,,,,,,,,,,,,,,,,,,,,sub-081,1.0,random_dot,59.98598727840456,
right,right,speed,,,,,0.0,1.0,1.0,1.0,10.0,0.0,20.0,1.0,442.25440179998986,,,,,,,,,442.2396712000482,442.354187999852,443.154142000014,443.138083799975,443.1381057000253,443.154142000014,443.154142000014,443.154142000014,445.9554077000357,right,1.0,21.292852099984884,,,,,,,,,,,,,,,,,,,,,,,,,,,,,,,,sub-081,1.0,random_dot,59.98598727840456,
left,left,speed,,,,,0.0,1.0,1.0,1.0,10.0,1.0,21.0,0.0,445.9707642998546,,,,,,,,,445.9565544000361,447.1707401999738,447.9707776000723,447.9547170998994,447.9547480000183,447.9707776000723,447.9707776000723,447.9707776000723,449.23858830006793,left,1.0,19.75944179994985,,,,,,,,,,,,,,,,,,,,,,,,,,,,,,,,sub-081,1.0,random_dot,59.98598727840456,
right,right,speed,,,,,0.0,1.0,1.0,1.0,11.0,0.0,22.0,1.0,449.2537849000655,,,,,,,,,449.2401677998714,450.0531405999791,450.85313689988106,450.837147800019,450.83716630004346,450.85313689988106,450.85313689988106,450.85313689988106,451.8042170999106,right,1.0,19.42947079986334,,,,,,,,,,,,,,,,,,,,,,,,,,,,,,,,sub-081,1.0,random_dot,59.98598727840456,
left,left,speed,,,,,0.0,1.0,1.0,1.0,11.0,1.0,23.0,0.0,451.8196771000512,,,,,,,,,451.80534760002047,453.0196726999711,453.8196702999994,453.8037880999036,453.80381339997984,453.8196702999994,453.8196702999994,453.8196702999994,454.7870533000678,left,1.0,19.45619199983776,,,,,,,,,,,,,,,,,,,,,,,,,,,,,,,,sub-081,1.0,random_dot,59.98598727840456,
left,left,speed,,,,,0.0,1.0,1.0,1.0,12.0,0.0,24.0,0.0,454.8026417000219,,,,,,,,,454.7881901999936,454.9026215998456,455.7027201999445,455.6865288000554,455.6865509999916,455.7027201999445,455.7027201999445,455.7027201999445,456.9034347999841,right,0.0,19.682794300140813,,,,,,,,,,,,,,,,,,,,,,,,,,,,,,,,sub-081,1.0,random_dot,59.98598727840456,
right,right,speed,,,,,0.0,1.0,1.0,1.0,12.0,1.0,25.0,1.0,456.9192154998891,,,,,,,,,456.9045724000316,458.1188598000445,458.9188876999542,458.9026859998703,458.9027042000089,458.9188876999542,458.9188876999542,458.9188876999542,460.5199370000046,right,1.0,20.088391199940816,,,,,,,,,,,,,,,,,,,,,,,,,,,,,,,,sub-081,1.0,random_dot,59.98598727840456,
right,right,speed,,,,,0.0,1.0,1.0,1.0,13.0,0.0,26.0,1.0,460.5355300998781,,,,,,,,,460.5213023000397,461.335103899939,462.1349954998586,462.1191252998542,462.1191562998574,462.1349954998586,462.1349954998586,462.1349954998586,464.01942289993167,right,1.0,20.3760665000882,,,,,,,,,,,,,,,,,,,,,,,,,,,,,,,,sub-081,1.0,random_dot,59.98598727840456,
left,left,speed,,,,,0.0,1.0,1.0,1.0,13.0,1.0,27.0,0.0,464.0348084999714,,,,,,,,,464.0205749999732,464.384837300051,465.1847848999314,465.1687213999685,465.1687588000205,465.1847848999314,465.1847848999314,465.1847848999314,466.2522515999153,left,1.0,19.557567400159314,,,,,,,,,,,,,,,,,,,,,,,,,,,,,,,,sub-081,1.0,random_dot,59.98598727840456,
left,left,speed,,,,,0.0,1.0,1.0,1.0,14.0,0.0,28.0,0.0,466.26802319986746,,,,,,,,,466.2533368000295,466.3680104999803,467.16775979986414,467.1517501999624,467.15177439991385,467.16775979986414,467.16775979986414,467.16775979986414,470.0519816000015,right,0.0,21.36225449992344,,,,,,,,,,,,,,,,,,,,,,,,,,,,,,,,sub-081,1.0,random_dot,59.98598727840456,
right,right,speed,,,,,0.0,1.0,1.0,1.0,14.0,1.0,29.0,1.0,470.067560599884,,,,,,,,,470.0531695999671,470.16756860003807,470.967333599925,470.9509576000273,470.95097539993,470.967333599925,470.967333599925,470.967333599925,472.318638100056,right,1.0,19.83769299997948,,,,,,,,,,,,,,,,,,,,,,,,,,,,,,,,sub-081,1.0,random_dot,59.98598727840456,
right,right,speed,,,,,0.0,1.0,1.0,1.0,15.0,0.0,30.0,1.0,472.333873399999,,,,,,,,,472.3200194998644,473.1336286000442,473.9338519000448,473.917761299992,473.91778700007126,473.9338519000448,473.9338519000448,473.9338519000448,475.41758310003206,right,1.0,19.96932990010828,,,,,,,,,,,,,,,,,,,,,,,,,,,,,,,,sub-081,1.0,random_dot,59.98598727840456,
left,left,speed,,,,,0.0,1.0,1.0,1.0,15.0,1.0,31.0,0.0,475.4334280998446,,,,,,,,,475.4185834999662,476.2332794999238,477.03312069992535,477.0174242998473,477.01744810002856,477.03312069992535,477.03312069992535,477.03312069992535,478.8674637000077,left,1.0,20.32045440003276,,,,,,,,,,,,,,,,,,,,,,,,,,,,,,,,sub-081,1.0,random_dot,59.98598727840456,
right,right,speed,,,,,0.0,1.0,1.0,1.0,16.0,0.0,32.0,1.0,478.8831438999623,,,,,,,,,478.8686396998819,479.6829452998936,480.482773100026,480.4669518000446,480.4669750998728,480.482773100026,480.482773100026,480.482773100026,481.6338579999283,right,1.0,19.63127610017545,,,,,,,,,,,,,,,,,,,,,,,,,,,,,,,,sub-081,1.0,random_dot,59.98598727840456,
left,left,speed,,,,,0.0,1.0,1.0,1.0,16.0,1.0,33.0,0.0,481.6494014998898,,,,,,,,,481.6350398999639,482.84910129988566,483.6492254999466,483.6332969998475,483.6333216000348,483.6492254999466,483.6492254999466,483.6492254999466,484.7840676000342,left,1.0,19.617680700030174,,,,,,,,,,,,,,,,,,,,,,,,,,,,,,,,sub-081,1.0,random_dot,59.98598727840456,
left,left,speed,,,,,0.0,1.0,1.0,1.0,17.0,0.0,34.0,0.0,484.79930790001526,,,,,,,,,484.7857752998825,484.8993229998741,485.69905230007134,485.6828669998795,485.6828935998492,485.69905230007134,485.69905230007134,485.69905230007134,486.6329959998839,left,1.0,19.41268920013681,,,,,,,,,,,,,,,,,,,,,,,,,,,,,,,,sub-081,1.0,random_dot,59.98598727840456,
right,right,speed,,,,,0.0,1.0,1.0,1.0,17.0,1.0,35.0,1.0,486.6487813000567,,,,,,,,,486.6341212999541,486.7485116999597,487.5487631000578,487.5328001000453,487.5328271999024,487.5487631000578,487.5487631000578,487.5487631000578,488.3659608999733,right,1.0,19.299262000015005,,,,,,,,,,,,,,,,,,,,,,,,,,,,,,,,sub-081,1.0,random_dot,59.98598727840456,
right,right,speed,,,,,0.0,1.0,1.0,1.0,18.0,0.0,36.0,1.0,488.3816037999932,,,,,,,,,488.3669797000475,488.7318634998519,489.53173409984447,489.515495599946,489.5155176999979,489.53173409984447,489.53173409984447,489.53173409984447,490.6991601998452,right,1.0,19.644512599799786,,,,,,,,,,,,,,,,,,,,,,,,,,,,,,,,sub-081,1.0,random_dot,59.98598727840456,
left,left,speed,,,,,0.0,1.0,1.0,1.0,18.0,1.0,37.0,0.0,490.7149570998736,,,,,,,,,490.7003113999963,490.8148054999765,491.6146668000147,491.59878830006346,491.59881029999815,491.6146668000147,491.6146668000147,491.6146668000147,492.5490408998448,left,1.0,19.41250089998357,,,,,,,,,,,,,,,,,,,,,,,,,,,,,,,,sub-081,1.0,random_dot,59.98598727840456,
left,left,speed,,,,,0.0,1.0,1.0,1.0,19.0,0.0,38.0,0.0,492.56463899998926,,,,,,,,,492.550178400008,493.7642532000318,494.5645383999217,494.54847509996034,494.5485014000442,494.5645383999217,494.5645383999217,494.5645383999217,495.6824475000613,left,1.0,19.60722030000761,,,,,,,,,,,,,,,,,,,,,,,,,,,,,,,,sub-081,1.0,random_dot,59.98598727840456,
right,right,speed,,,,,0.0,1.0,1.0,1.0,19.0,1.0,39.0,1.0,495.6976117999293,,,,,,,,,495.68378299986944,495.7975916999858,496.5975540999789,496.5813608998433,496.5813839999028,496.5975540999789,496.5975540999789,496.5975540999789,497.6651192998979,right,1.0,19.55741839995608,,,,,,,,,,,,,,,,,,,,,,,,,,,,,,,,sub-081,1.0,random_dot,59.98598727840456,
right,right,speed,,,,,0.0,1.0,1.0,1.0,20.0,0.0,40.0,1.0,497.6808017999865,,,,,,,,,497.6663118000142,498.0306825998705,498.83052870002575,498.81430920003913,498.8143304998521,498.83052870002575,498.83052870002575,498.83052870002575,499.6978716999293,right,1.0,19.35105989989825,,,,,,,,,,,,,,,,,,,,,,,,,,,,,,,,sub-081,1.0,random_dot,59.98598727840456,
left,left,speed,,,,,0.0,1.0,1.0,1.0,20.0,1.0,41.0,0.0,499.7134324999061,,,,,,,,,499.6988836999517,500.0636630998925,500.8636534998659,500.847527399892,500.8475663999561,500.8636534998659,500.8636534998659,500.8636534998659,501.6312196999788,left,1.0,19.25021789991297,,,,,,,,,,,,,,,,,,,,,,,,,,,,,,,,sub-081,1.0,random_dot,59.98598727840456,
right,right,speed,,,,,0.0,1.0,1.0,1.0,21.0,0.0,42.0,1.0,501.6466991000343,,,,,,,,,501.6323563000187,502.84638680005446,503.6467426000163,503.63065720000304,503.630683099851,503.6467426000163,503.6467426000163,503.6467426000163,504.0813855999149,right,1.0,18.92347740009427,,,,,,,,,,,,,,,,,,,,,,,,,,,,,,,,sub-081,1.0,random_dot,59.98598727840456,
left,left,speed,,,,,0.0,1.0,1.0,1.0,21.0,1.0,43.0,0.0,504.0966147999279,,,,,,,,,504.0827194000594,504.1968294000253,504.9965180999134,504.9806760998909,504.98070169985294,504.9965180999134,504.9965180999134,504.9965180999134,505.59761970001273,left,1.0,19.09105010004714,,,,,,,,,,,,,,,,,,,,,,,,,,,,,,,,sub-081,1.0,random_dot,59.98598727840456,
left,left,speed,,,,,0.0,1.0,1.0,1.0,22.0,0.0,44.0,0.0,505.61286709993146,,,,,,,,,505.598743799841,506.8128474999685,507.6125127999112,507.5965757998638,507.5965966999065,507.6125127999112,507.6125127999112,507.6125127999112,508.6635622000322,left,1.0,19.53806359996088,,,,,,,,,,,,,,,,,,,,,,,,,,,,,,,,sub-081,1.0,random_dot,59.98598727840456,
right,right,speed,,,,,0.0,1.0,1.0,1.0,22.0,1.0,45.0,1.0,508.67913060006686,,,,,,,,,508.6646411998663,509.4790256000124,510.27889929991215,510.2630779000465,510.2630970999599,510.27889929991215,510.27889929991215,510.27889929991215,511.3964333999902,right,1.0,19.60539509984665,,,,,,,,,,,,,,,,,,,,,,,,,,,,,,,,sub-081,1.0,random_dot,59.98598727840456,
left,left,speed,,,,,0.0,1.0,1.0,1.0,23.0,0.0,46.0,0.0,511.41214669984765,,,,,,,,,511.3975557000376,511.7622241000645,512.5621859999374,512.5461845998652,512.5462082999293,512.5621859999374,512.5621859999374,512.5621859999374,513.9794625998475,left,1.0,19.90525019983761,,,,,,,,,,,,,,,,,,,,,,,,,,,,,,,,sub-081,1.0,random_dot,59.98598727840456,
right,right,speed,,,,,0.0,1.0,1.0,1.0,23.0,1.0,47.0,1.0,513.9951337999664,,,,,,,,,513.9805950999726,514.345149599947,515.1450209999457,515.1289387000725,515.128960999893,515.1450209999457,515.1450209999457,515.1450209999457,515.9126178000588,right,1.0,19.25556159997359,,,,,,,,,,,,,,,,,,,,,,,,,,,,,,,,sub-081,1.0,random_dot,59.98598727840456,
right,right,speed,,,,,0.0,1.0,1.0,1.0,24.0,0.0,48.0,1.0,515.9282806999981,,,,,,,,,515.9137854999863,516.2783470998984,517.0782202000264,517.0620907000266,517.0621138999704,517.0782202000264,517.0782202000264,517.0782202000264,520.1290349999908,right,1.0,21.532337200129405,,,,,,,,,,,,,,,,,,,,,,,,,,,,,,,,sub-081,1.0,random_dot,59.98598727840456,
left,left,speed,,,,,0.0,1.0,1.0,1.0,24.0,1.0,49.0,0.0,520.1444697999395,,,,,,,,,520.1302874998655,520.2444066999014,521.0444157000165,521.028452700004,521.0284764999524,521.0444157000165,521.0444157000165,521.0444157000165,522.6620485000312,right,0.0,20.10420829989016,,,,,,,,,,,,,,,,,,,,,,,,,,,,,,,,sub-081,1.0,random_dot,59.98598727840456,
left,left,speed,,,,,0.0,1.0,1.0,1.0,25.0,0.0,50.0,0.0,522.6774176000617,,,,,,,,,522.6633037000429,522.7775762998499,523.5775343000423,523.5617777998559,523.5618080999702,523.5775343000423,523.5775343000423,523.5775343000423,525.2123062999453,right,0.0,20.12636850005947,,,,,,,,,,,,,,,,,,,,,,,,,,,,,,,,sub-081,1.0,random_dot,59.98598727840456,
right,right,speed,,,,,0.0,1.0,1.0,1.0,25.0,1.0,51.0,1.0,525.2274865999352,,,,,,,,,525.2138673998415,525.3275226000696,526.1273280000314,526.1114490998443,526.1114796998445,526.1273280000314,526.1273280000314,526.1273280000314,527.6278961999342,right,1.0,19.983181100105867,,,,,,,,,,,,,,,,,,,,,,,,,,,,,,,,sub-081,1.0,random_dot,59.98598727840456,
right,right,speed,,,,,0.0,1.0,1.0,1.0,26.0,0.0,52.0,1.0,527.6433194999117,,,,,,,,,527.6289905998856,527.9932386998553,528.79329829989,528.7774388999678,528.777460699901,528.79329829989,528.79329829989,528.79329829989,529.9112909999676,right,1.0,19.610806199954823,,,,,,,,,,,,,,,,,,,,,,,,,,,,,,,,sub-081,1.0,random_dot,59.98598727840456,
left,left,speed,,,,,0.0,1.0,1.0,1.0,26.0,1.0,53.0,0.0,529.9264531000517,,,,,,,,,529.9123883999418,531.1263172999024,531.9263689999934,531.910580500029,531.910605299985,531.9263689999934,531.9263689999934,531.9263689999934,534.1939470998477,left,1.0,20.75051899976097,,,,,,,,,,,,,,,,,,,,,,,,,,,,,,,,sub-081,1.0,random_dot,59.98598727840456,
right,right,speed,,,,,0.0,1.0,1.0,1.0,27.0,0.0,54.0,1.0,534.2095351000316,,,,,,,,,534.1952265000436,534.3095128000714,535.1094136000611,535.0933119000401,535.093336599879,535.1094136000611,535.1094136000611,535.1094136000611,538.8263228000142,right,1.0,22.204876800067723,,,,,,,,,,,,,,,,,,,,,,,,,,,,,,,,sub-081,1.0,random_dot,59.98598727840456,
left,left,speed,,,,,0.0,1.0,1.0,1.0,27.0,1.0,55.0,0.0,538.8421408999711,,,,,,,,,538.8274874999188,539.6417648000643,540.441913299961,540.4259988998529,540.4260227000341,540.441913299961,540.441913299961,540.441913299961,541.4262584999669,left,1.0,19.46178329992108,,,,,,,,,,,,,,,,,,,,,,,,,,,,,,,,sub-081,1.0,random_dot,59.98598727840456,
left,left,speed,,,,,0.0,1.0,1.0,1.0,28.0,0.0,56.0,0.0,541.441706399899,,,,,,,,,541.4275113998447,541.7917636998463,542.5916438000277,542.5755336000584,542.5755574998911,542.5916438000277,542.5916438000277,542.5916438000277,545.4590425998904,left,1.0,21.351617000065744,,,,,,,,,,,,,,,,,,,,,,,,,,,,,,,,sub-081,1.0,random_dot,59.98598727840456,
right,right,speed,,,,,0.0,1.0,1.0,1.0,28.0,1.0,57.0,1.0,545.474623600021,,,,,,,,,545.4602623998653,546.2745141000487,547.0743730000686,547.0582528000232,547.0582762998529,547.0743730000686,547.0743730000686,547.0743730000686,549.0084869998973,right,1.0,20.41998739982955,,,,,,,,,,,,,,,,,,,,,,,,,,,,,,,,sub-081,1.0,random_dot,59.98598727840456,
right,right,speed,,,,,0.0,1.0,1.0,1.0,29.0,0.0,58.0,1.0,549.0240694000386,,,,,,,,,549.0096843000501,549.1240608000662,549.9239000000525,549.9081096998416,549.9081331000198,549.9239000000525,549.9239000000525,549.9239000000525,551.558117599925,right,1.0,20.11839019996114,,,,,,,,,,,,,,,,,,,,,,,,,,,,,,,,sub-081,1.0,random_dot,59.98598727840456,
left,left,speed,,,,,0.0,1.0,1.0,1.0,29.0,1.0,59.0,0.0,551.573679999914,,,,,,,,,551.5592783999164,551.9238952999003,552.7235911998432,552.7077078998554,552.7077301999088,552.7235911998432,552.7235911998432,552.7235911998432,553.791123499861,left,1.0,19.547306899912652,,,,,,,,,,,,,,,,,,,,,,,,,,,,,,,,sub-081,1.0,random_dot,59.98598727840456,
,,speed,,,,,0.0,1.0,1.0,1.0,,,,,,,,,,,,,,,,,,,,,,,,,,,,,,,,,,,,,,,,,,,,,,,,,,,,,,,,,sub-081,1.0,random_dot,59.98598727840456,
,,,,,,,,,,,,,,,,,,,,,,,,,,,,,,,,,,,,,,,,,,,,,,,,,,,,,,,,,,,,,,,553.7919876000378,553.8067959998734,558.8064369000494,558.790631899843,sub-081,,,,
