direction,corrAns,thisN,thisTrialN,thisRepN,respDots.keys,respDots.corr,respDots.rt,respDots.duration,randomInstr,respRandomInstr.keys,respRandomInstr.rt,respRandomInstr.duration,practice_trials.thisRepN,practice_trials.thisTrialN,practice_trials.thisN,practice_trials.thisIndex,instr_trials.thisRepN,instr_trials.thisTrialN,instr_trials.thisN,instr_trials.thisIndex,test_trials.thisRepN,test_trials.thisTrialN,test_trials.thisN,test_trials.thisIndex,thisRow.t,notes,general_instruction.started,textGeneralInstr.started,respGeneralInstr.started,general_instruction.stopped,respGeneralInstr.keys,respGeneralInstr.rt,respGeneralInstr.duration,ITI.started,fixcross.started,fixcross.stopped,ITI.stopped,dots.started,backgroundDots.started,stimulusDots.started,respDots.started,stimulusDots.stopped,dots.stopped,practice_trials.respDots.keys,practice_trials.respDots.corr,practice_trials.respDots.rt,practice_trials.respDots.duration,feedback.started,textFeedback.started,feedback.stopped,textFeedback.stopped,info.started,textInfo.started,keyRespInfo.started,info.stopped,keyRespInfo.keys,keyRespInfo.rt,keyRespInfo.duration,test_instruction.started,textTestInstr.started,respTestInstr.started,test_instruction.stopped,respTestInstr.keys,respTestInstr.rt,respTestInstr.duration,random_instruction.started,textRandomInstr.started,respRandomInstr.started,random_instruction.stopped,instr_trials.respRandomInstr.keys,instr_trials.respRandomInstr.rt,instr_trials.respRandomInstr.duration,test_trials.respDots.keys,test_trials.respDots.corr,test_trials.respDots.rt,test_trials.respDots.duration,goodbye.started,textGoodbye.started,goodbye.stopped,participant,session,expName,frameRate,Unnamed: 87
,,,,,,,,,,,,,,,,,,,,,,,,,,,0.0072948320012073,0.0185398130051908,0.0185398130051908,35.050651472003665,space,35.00706217400148,,,,,,,,,,,,,,,,,,,,,,,,,,,,,,,,,,,,,,,,,,,,,,,,sub-119,1,random_dot,58.94483892963076,
right,right,0.0,0.0,0.0,right,1.0,19.14418741800182,,,,,,0.0,0.0,0.0,1.0,,,,,,,,,35.06934843300405,,,,,,,,,35.05972353100515,35.16502143500111,35.96905502700247,35.95185214999947,35.95235405499989,35.96905502700247,35.96905502700247,35.96905502700247,40.96346715200343,55.12028637500043,right,1.0,19.14418741800182,,55.12895129200479,55.15372713700344,55.6206780270004,,,,,,,,,,,,,,,,,,,,,,,,,,,,,,sub-119,1,random_dot,58.94483892963076,
left,left,1.0,1.0,0.0,left,1.0,5.807834348997858,,,,,,0.0,1.0,1.0,0.0,,,,,,,,,55.63707805499871,,,,,,,,,55.62109867000254,56.82343938700069,57.62449403299979,57.60858730500331,57.6089304470006,57.62449403299979,57.62449403299979,57.62449403299979,62.62127627500013,63.4415283480048,left,1.0,5.807834348997858,,63.44161789100326,63.45684759600408,63.941756496999005,,,,,,,,,,,,,,,,,,,,,,,,,,,,,,sub-119,1,random_dot,58.94483892963076,
left,left,2.0,0.0,1.0,left,1.0,5.574420762997761,,,,,,1.0,0.0,2.0,0.0,,,,,,,,,63.95843869300006,,,,,,,,,63.94207362399902,65.14469170300436,65.94758145200467,65.93191736200242,65.93240289700043,65.94758145200467,65.94758145200467,65.94758145200467,70.94391580500087,71.53131250200386,left,1.0,5.574420762997761,,71.53145416299958,71.54486259700207,72.03145900700474,72.04724971199903,,,,,,,,,,,,,,,,,,,,,,,,,,,,,sub-119,1,random_dot,58.94483892963076,
right,right,3.0,1.0,1.0,right,1.0,1.1762604500036105,,,,,,1.0,1.0,3.0,1.0,,,,,,,,,72.04724971199903,,,,,,,,,72.03186714999902,72.38176618700527,73.18351873999927,73.1676527669988,73.16812988700258,73.18351873999927,73.18351873999927,73.18351873999927,,74.37029364300543,right,1.0,1.1762604500036105,,74.3703801820011,74.3859933950007,74.87119588300266,,,,,,,,,,,,,,,,,,,,,,,,,,,,,,sub-119,1,random_dot,58.94483892963076,
right,right,4.0,0.0,2.0,right,1.0,2.452724594004394,,,,,,2.0,0.0,4.0,1.0,,,,,,,,,74.88734496899997,,,,,,,,,74.87162261000049,75.22148310299963,76.0236209010036,76.00783969300392,76.0081771480036,76.0236209010036,76.0236209010036,76.0236209010036,,78.48222644600173,right,1.0,2.452724594004394,,78.48232346500299,78.49709356300446,78.98260794499947,,,,,,,,,,,,,,,,,,,,,,,,,,,,,,sub-119,1,random_dot,58.94483892963076,
left,left,5.0,1.0,2.0,right,0.0,2.4667390780014102,,,,,,2.0,1.0,5.0,0.0,,,,,,,,,78.99913248500525,,,,,,,,,78.9830216650007,79.78389412700199,80.58701468200161,80.5711258950032,80.57160683999973,80.58701468200161,80.58701468200161,80.58701468200161,,83.06116206300067,right,0.0,2.4667390780014102,,83.06684067100286,83.0763719509996,83.56164806699962,83.5773246700046,,,,,,,,,,,,,,,,,,,,,,,,,,,,,sub-119,1,random_dot,58.94483892963076,
left,left,6.0,0.0,3.0,left,1.0,1.077391566002916,,,,,,3.0,0.0,6.0,0.0,,,,,,,,,83.5773246700046,,,,,,,,,83.56198532200506,84.3634266270019,85.16466150100314,85.14872128100251,85.1490670810017,85.16466150100314,85.16466150100314,85.16466150100314,,86.2528324110026,left,1.0,1.077391566002916,,86.25520778800274,86.26770386000135,86.75289519799844,86.77003268200497,,,,,,,,,,,,,,,,,,,,,,,,,,,,,sub-119,1,random_dot,58.94483892963076,
right,right,7.0,1.0,3.0,right,1.0,1.4893051800027024,,,,,,3.0,1.0,7.0,1.0,,,,,,,,,86.77003268200497,,,,,,,,,86.75318309100112,87.55492464100098,88.3569063190007,88.34177925500262,88.34226269200008,88.3569063190007,88.3569063190007,88.3569063190007,,89.8625016760052,right,1.0,1.4893051800027024,,89.8625873120036,89.87742260099913,90.36327970700222,,,,,,,,,,,,,,,,,,,,,,,,,,,,,,sub-119,1,random_dot,58.94483892963076,
left,left,8.0,0.0,4.0,left,1.0,1.0387937929990585,,,,,,4.0,0.0,8.0,0.0,,,,,,,,,90.3795118449998,,,,,,,,,90.36369309500152,90.71376157700432,91.51602433199878,91.50022798000282,91.50070247999976,91.51602433199878,91.51602433199878,91.51602433199878,,92.56907598500402,left,1.0,1.0387937929990585,,92.5691673770052,92.58512108300056,93.06979472400415,93.0862564820054,,,,,,,,,,,,,,,,,,,,,,,,,,,,,sub-119,1,random_dot,58.94483892963076,
right,right,9.0,1.0,4.0,right,1.0,1.0375048760033678,,,,,,4.0,1.0,9.0,1.0,,,,,,,,,93.0862564820054,,,,,,,,,93.07008888400014,93.87202371100284,94.6742815450052,94.6585839899999,94.65906166700006,94.6742815450052,94.6742815450052,94.6742815450052,,95.72813503900396,right,1.0,1.0375048760033678,,95.7282415849986,95.7430115649986,96.22860196200054,,,,,,,,,,,,,,,,,,,,,,,,,,,,,,sub-119,1,random_dot,58.94483892963076,
left,left,10.0,0.0,5.0,left,1.0,0.8678954779970809,,,,,,5.0,0.0,10.0,0.0,,,,,,,,,96.24552485500315,,,,,,,,,96.22901619200276,96.3287188250033,97.1309144350016,97.1152032300015,97.1156810169996,97.1309144350016,97.1309144350016,97.1309144350016,,98.00199627600524,left,1.0,0.8678954779970809,,98.00209912600258,98.0163155410046,98.5015120110038,98.51719328300533,,,,,,,,,,,,,,,,,,,,,,,,,,,,,sub-119,1,random_dot,58.94483892963076,
right,right,11.0,1.0,5.0,right,1.0,0.9533114419973572,,,,,,5.0,1.0,11.0,1.0,,,,,,,,,98.51719328300533,,,,,,,,,98.50181239499943,99.7044354919999,100.5065967920018,100.4909686050014,100.49144043200069,100.5065967920018,100.5065967920018,100.5065967920018,,101.477058647004,right,1.0,0.9533114419973572,,101.47716444500112,101.49178467599997,101.97728921200178,,,,,,,,,,,,,,,,,,,,,,,,,,,,,,sub-119,1,random_dot,58.94483892963076,
left,left,12.0,0.0,6.0,left,1.0,0.91157611500239,,,,,,6.0,0.0,12.0,0.0,,,,,,,,,101.99390701200171,,,,,,,,,101.97773347500332,102.77969452000252,103.58161429000027,103.56574011500196,103.56621970700508,103.58161429000027,103.58161429000027,103.58161429000027,,104.50146719100304,left,1.0,0.91157611500239,,104.50157487099932,104.51708087500448,105.00173148100292,,,,,,,,,,,,,,,,,,,,,,,,,,,,,,sub-119,1,random_dot,58.94483892963076,
right,right,13.0,1.0,6.0,left,0.0,1.889411379997909,,,,,,6.0,1.0,13.0,1.0,,,,,,,,,105.0183349900035,,,,,,,,,105.00204388400016,105.80398525700002,106.60544435900374,106.58961512300448,106.58996799700252,106.60544435900374,106.60544435900374,106.60544435900374,,108.51196039500064,left,0.0,1.889411379997909,,108.51437686999998,108.52727778500412,109.0131015750012,,,,,,,,,,,,,,,,,,,,,,,,,,,,,,sub-119,1,random_dot,58.94483892963076,
right,right,14.0,0.0,7.0,left,0.0,0.816885733998788,,,,,,7.0,0.0,14.0,1.0,,,,,,,,,109.0293060469994,,,,,,,,,109.01351708199944,109.36403195500316,110.16577065200543,110.14985121499922,110.15033327700075,110.16577065200543,110.16577065200543,110.16577065200543,,110.98637610800506,left,0.0,0.816885733998788,,110.98649403000309,111.00086766800086,111.48595683500024,111.50173106500006,,,,,,,,,,,,,,,,,,,,,,,,,,,,,sub-119,1,random_dot,58.94483892963076,
left,left,15.0,1.0,7.0,left,1.0,1.3977221769964672,,,,,,7.0,1.0,15.0,0.0,,,,,,,,,111.50173106500006,,,,,,,,,111.48625170000014,111.83601281099982,112.63908781699864,112.62322904499888,112.6237077870028,112.63908781699864,112.63908781699864,112.63908781699864,,114.04413013000158,left,1.0,1.3977221769964672,,114.04667252700165,114.0588431760043,114.54491926699848,114.56112648700218,,,,,,,,,,,,,,,,,,,,,,,,,,,,,sub-119,1,random_dot,58.94483892963076,
left,left,16.0,0.0,8.0,left,1.0,2.3750271790049737,,,,,,8.0,0.0,16.0,0.0,,,,,,,,,114.56112648700218,,,,,,,,,114.54532505500538,115.74728995199985,116.54973237200466,116.53355032700348,116.534035536999,116.54973237200466,116.54973237200466,116.54973237200466,,118.94012556799862,left,1.0,2.3750271790049737,,118.94023327500328,118.95550370300045,119.44085871300194,119.45645300300384,,,,,,,,,,,,,,,,,,,,,,,,,,,,,sub-119,1,random_dot,58.94483892963076,
right,right,17.0,1.0,8.0,right,1.0,0.8592641939976602,,,,,,8.0,1.0,17.0,1.0,,,,,,,,,119.45645300300384,,,,,,,,,119.44114541300225,120.24263727200014,121.04473600200436,121.02892558200256,121.02940112200304,121.04473600200436,121.04473600200436,121.04473600200436,,121.915138027005,right,1.0,0.8592641939976602,,121.9152581189992,121.92952559900004,122.41533644200535,,,,,,,,,,,,,,,,,,,,,,,,,,,,,,sub-119,1,random_dot,58.94483892963076,
left,left,18.0,0.0,9.0,right,0.0,2.977757788998133,,,,,,9.0,0.0,18.0,0.0,,,,,,,,,122.43180583500362,,,,,,,,,122.41575357699912,123.6184351769989,124.42011938900396,124.40469518000464,124.40520184000344,124.42011938900396,124.42011938900396,124.42011938900396,,127.41272145100083,right,0.0,2.977757788998133,,127.41504986800282,127.42818257099862,127.91284833800457,127.9290618110026,,,,,,,,,,,,,,,,,,,,,,,,,,,,,sub-119,1,random_dot,58.94483892963076,
right,right,19.0,1.0,9.0,right,1.0,0.7482526429957943,,,,,,9.0,1.0,19.0,1.0,,,,,,,,,127.9290618110026,,,,,,,,,127.91313575700042,128.26372167200316,129.0665069970055,129.05088731000433,129.05136783500348,129.0665069970055,129.0665069970055,129.0665069970055,,129.82178094700066,right,1.0,0.7482526429957943,,129.82463263100362,129.8340864749989,130.3207811320026,130.33627257500484,,,,,,,,,,,,,,,,,,,,,,,,,,,,,sub-119,1,random_dot,58.94483892963076,
,,,,,,,,,,,,,,,,,,,,,,,,,,,,,,,,,,,,,,,,,,,,,,,,,,,,130.3209391269993,130.33627257500484,130.33627257500484,134.214030146999,space,3.8631318749976336,,,,,,,,,,,,,,,,,,,,,,,sub-119,1,random_dot,58.94483892963076,
,,,,,,,,,,,,,,,,,,,,,,,,,,,,,,,,,,,,,,,,,,,,,,,,,,,,,,,,,,,134.21410950100108,134.2291216550002,134.2291216550002,142.53697890700278,space,8.302877174006426,,,,,,,,,,,,,,,,sub-119,1,random_dot,58.94483892963076,
right,right,0.0,0.0,0.0,right,1.0,0.993211742999847,,accuracy,space,7.36068910099857,,,,,,0.0,0.0,0.0,0.0,0.0,0.0,0.0,1.0,149.95475455300038,,,,,,,,,149.9447971020054,151.14204635700298,151.9439511599994,151.92817211199872,151.9286587020033,151.9439511599994,151.9439511599994,151.9439511599994,,152.94750538000517,,,,,,,,,,,,,,,,,,,,,,,142.56047456500528,142.56996283500484,142.56996283500484,149.93982365199918,space,7.36068910099857,,right,1.0,0.993211742999847,,,,,sub-119,1,random_dot,58.94483892963076,
left,left,1.0,1.0,0.0,left,1.0,0.902903658003197,,accuracy,space,7.36068910099857,,,,,,0.0,0.0,0.0,0.0,0.0,1.0,1.0,0.0,152.96312231000047,,,,,,,,,152.94779313600156,153.29751684200164,154.09977595200326,154.08397708999837,154.0844674300024,154.09977595200326,154.09977595200326,154.09977595200326,,155.02015667100204,,,,,,,,,,,,,,,,,,,,,,,,,,,,,,left,1.0,0.902903658003197,,,,,sub-119,1,random_dot,58.94483892963076,
left,left,2.0,0.0,1.0,left,1.0,1.044070386000385,,accuracy,space,7.36068910099857,,,,,,0.0,0.0,0.0,0.0,1.0,0.0,2.0,0.0,155.03488518499944,,,,,,,,,155.02049446300225,155.82089066199842,156.62330051699973,156.60743911000463,156.60792009700526,156.62330051699973,156.62330051699973,156.62330051699973,,157.67663662300038,,,,,,,,,,,,,,,,,,,,,,,,,,,,,,left,1.0,1.044070386000385,,,,,sub-119,1,random_dot,58.94483892963076,
right,right,3.0,1.0,1.0,right,1.0,1.186546234996058,,accuracy,space,7.36068910099857,,,,,,0.0,0.0,0.0,0.0,1.0,1.0,3.0,1.0,157.69253981200018,,,,,,,,,157.67691875799937,158.02611011700355,158.82936273499945,158.81315401699976,158.81365401700168,158.82936273499945,158.82936273499945,158.82936273499945,,160.03385583300405,,,,,,,,,,,,,,,,,,,,,,,,,,,,,,right,1.0,1.186546234996058,,,,,sub-119,1,random_dot,58.94483892963076,
right,right,4.0,0.0,2.0,right,1.0,2.698056130997429,,accuracy,space,7.36068910099857,,,,,,0.0,0.0,0.0,0.0,2.0,0.0,4.0,1.0,160.04804308700113,,,,,,,,,160.0342252870032,160.1487309209988,160.9513347020038,160.93546025999967,160.93593149699882,160.9513347020038,160.9513347020038,160.9513347020038,,163.6595246450015,,,,,,,,,,,,,,,,,,,,,,,,,,,,,,right,1.0,2.698056130997429,,,,,sub-119,1,random_dot,58.94483892963076,
left,left,5.0,1.0,2.0,left,1.0,0.987779754002986,,accuracy,space,7.36068910099857,,,,,,0.0,0.0,0.0,0.0,2.0,1.0,5.0,0.0,163.67438526700423,,,,,,,,,163.65988217099948,164.46032263500092,165.26274661999923,165.24723366500257,165.24770897700364,165.26274661999923,165.26274661999923,165.26274661999923,,166.26693509700272,,,,,,,,,,,,,,,,,,,,,,,,,,,,,,left,1.0,0.987779754002986,,,,,sub-119,1,random_dot,58.94483892963076,
right,right,6.0,0.0,3.0,right,1.0,0.8156057149972185,,accuracy,space,7.36068910099857,,,,,,0.0,0.0,0.0,0.0,3.0,0.0,6.0,1.0,166.28137351699843,,,,,,,,,166.2673062419999,166.6334979050007,167.4355165599991,167.419463860002,167.4199338670005,167.4355165599991,167.4355165599991,167.4355165599991,,168.25789846000407,,,,,,,,,,,,,,,,,,,,,,,,,,,,,,right,1.0,0.8156057149972185,,,,,sub-119,1,random_dot,58.94483892963076,
left,left,7.0,1.0,3.0,left,1.0,0.674601505001192,,accuracy,space,7.36068910099857,,,,,,0.0,0.0,0.0,0.0,3.0,1.0,7.0,0.0,168.27044520500203,,,,,,,,,168.25833651499852,169.47326209099992,170.27670084500278,170.260605812,170.26108353200107,170.27670084500278,170.27670084500278,170.27670084500278,,170.96243809700536,,,,,,,,,,,,,,,,,,,,,,,,,,,,,,left,1.0,0.674601505001192,,,,,sub-119,1,random_dot,58.94483892963076,
right,right,8.0,0.0,4.0,right,1.0,0.6586495349984034,,accuracy,space,7.36068910099857,,,,,,0.0,0.0,0.0,0.0,4.0,0.0,8.0,1.0,170.97722840100323,,,,,,,,,170.9628118210021,171.07779352999933,171.88056780699844,171.86494726000092,171.86542389000533,171.88056780699844,171.88056780699844,171.88056780699844,,172.5504974170035,,,,,,,,,,,,,,,,,,,,,,,,,,,,,,right,1.0,0.6586495349984034,,,,,sub-119,1,random_dot,58.94483892963076,
left,left,9.0,1.0,4.0,left,1.0,0.6923835039997357,,accuracy,space,7.36068910099857,,,,,,0.0,0.0,0.0,0.0,4.0,1.0,9.0,0.0,172.56479109300562,,,,,,,,,172.55085425300058,173.75218663000123,174.55346105000353,174.5378218199985,174.53815595099877,174.55346105000353,174.55346105000353,174.55346105000353,,175.25701587500225,,,,,,,,,,,,,,,,,,,,,,,,,,,,,,left,1.0,0.6923835039997357,,,,,sub-119,1,random_dot,58.94483892963076,
right,right,10.0,0.0,5.0,left,0.0,0.9282371980007156,,accuracy,space,7.36068910099857,,,,,,0.0,0.0,0.0,0.0,5.0,0.0,10.0,1.0,175.2725690990046,,,,,,,,,175.25730028199905,176.45961119700223,177.26145115200052,177.24594223500026,177.24641554000118,177.26145115200052,177.26145115200052,177.26145115200052,,178.19805043499946,,,,,,,,,,,,,,,,,,,,,,,,,,,,,,left,0.0,0.9282371980007156,,,,,sub-119,1,random_dot,58.94483892963076,
left,left,11.0,1.0,5.0,right,0.0,0.8578684800013434,,accuracy,space,7.36068910099857,,,,,,0.0,0.0,0.0,0.0,5.0,1.0,11.0,0.0,178.21371930999885,,,,,,,,,178.19833386100072,178.99954887700005,179.80157049000263,179.78616492199944,179.7866415870012,179.80157049000263,179.80157049000263,179.80157049000263,,180.67173508500127,,,,,,,,,,,,,,,,,,,,,,,,,,,,,,right,0.0,0.8578684800013434,,,,,sub-119,1,random_dot,58.94483892963076,
left,left,12.0,0.0,6.0,left,1.0,0.9767391130008036,,accuracy,space,7.36068910099857,,,,,,0.0,0.0,0.0,0.0,6.0,0.0,12.0,0.0,180.6865326460029,,,,,,,,,180.67210675599927,181.02189465500123,181.82381713500217,181.80827167000095,181.80877003000205,181.82381713500217,181.82381713500217,181.82381713500217,,182.81019101299896,,,,,,,,,,,,,,,,,,,,,,,,,,,,,,left,1.0,0.9767391130008036,,,,,sub-119,1,random_dot,58.94483892963076,
right,right,13.0,1.0,6.0,right,1.0,5.766358094995667,,accuracy,space,7.36068910099857,,,,,,0.0,0.0,0.0,0.0,6.0,1.0,13.0,1.0,182.8256984489999,,,,,,,,,182.8104946770036,182.91005340999985,183.7123755050052,183.69669639500356,183.69716938000056,183.7123755050052,183.7123755050052,183.7123755050052,188.70887682700413,189.4830640900036,,,,,,,,,,,,,,,,,,,,,,,,,,,,,,right,1.0,5.766358094995667,,,,,sub-119,1,random_dot,58.94483892963076,
right,right,14.0,0.0,7.0,right,1.0,1.2057232549996115,,accuracy,space,7.36068910099857,,,,,,0.0,0.0,0.0,0.0,7.0,0.0,14.0,1.0,189.4935226200032,,,,,,,,,189.48377227500168,190.6977483619994,191.4989210970016,191.4828324830014,191.483170573003,191.4989210970016,191.4989210970016,191.4989210970016,,192.72063754700503,,,,,,,,,,,,,,,,,,,,,,,,,,,,,,right,1.0,1.2057232549996115,,,,,sub-119,1,random_dot,58.94483892963076,
left,left,15.0,1.0,7.0,left,1.0,0.6039708399985102,,accuracy,space,7.36068910099857,,,,,,0.0,0.0,0.0,0.0,7.0,1.0,15.0,0.0,192.73541033700167,,,,,,,,,192.7209961109984,192.83571213600223,193.6386260950021,193.62305390999973,193.62352730500425,193.6386260950021,193.6386260950021,193.6386260950021,,194.2581916190029,,,,,,,,,,,,,,,,,,,,,,,,,,,,,,left,1.0,0.6039708399985102,,,,,sub-119,1,random_dot,58.94483892963076,
left,left,16.0,0.0,8.0,right,0.0,0.575144761998672,,accuracy,space,7.36068910099857,,,,,,0.0,0.0,0.0,0.0,8.0,0.0,16.0,0.0,194.273507431004,,,,,,,,,194.2585583570035,194.3733268729993,195.17615471700265,195.1601735720033,195.160653277002,195.17615471700265,195.17615471700265,195.17615471700265,,195.76124041000003,,,,,,,,,,,,,,,,,,,,,,,,,,,,,,right,0.0,0.575144761998672,,,,,sub-119,1,random_dot,58.94483892963076,
right,right,17.0,1.0,8.0,left,0.0,0.5852556750032818,,accuracy,space,7.36068910099857,,,,,,0.0,0.0,0.0,0.0,8.0,1.0,17.0,1.0,195.7769639450053,,,,,,,,,195.7615414780012,195.8617425870034,196.66375565500493,196.64790716500283,196.64837974200051,196.66375565500493,196.66375565500493,196.66375565500493,,197.26648591900448,,,,,,,,,,,,,,,,,,,,,,,,,,,,,,left,0.0,0.5852556750032818,,,,,sub-119,1,random_dot,58.94483892963076,
right,right,18.0,0.0,9.0,right,1.0,1.9360023859990176,,accuracy,space,7.36068910099857,,,,,,0.0,0.0,0.0,0.0,9.0,0.0,18.0,1.0,197.28090579499985,,,,,,,,,197.26686039500052,197.63186769700405,198.43421102299908,198.4178277820029,198.41816455100343,198.43421102299908,198.43421102299908,198.43421102299908,,200.3746976110051,,,,,,,,,,,,,,,,,,,,,,,,,,,,,,right,1.0,1.9360023859990176,,,,,sub-119,1,random_dot,58.94483892963076,
left,left,19.0,1.0,9.0,left,1.0,0.7362392979994183,,accuracy,space,7.36068910099857,,,,,,0.0,0.0,0.0,0.0,9.0,1.0,19.0,0.0,200.38902517500537,,,,,,,,,200.37501136200444,200.49017069500405,201.29246563999916,201.2768548899985,201.2773267599987,201.29246563999916,201.29246563999916,201.29246563999916,,202.0457107870025,,,,,,,,,,,,,,,,,,,,,,,,,,,,,,left,1.0,0.7362392979994183,,,,,sub-119,1,random_dot,58.94483892963076,
right,right,20.0,0.0,10.0,right,1.0,1.1837507719974385,,accuracy,space,7.36068910099857,,,,,,0.0,0.0,0.0,0.0,10.0,0.0,20.0,1.0,202.06039014099952,,,,,,,,,202.04607934300293,203.24785343700205,204.04889441500563,204.03227478500048,204.0325860170051,204.04889441500563,204.04889441500563,204.04889441500563,,205.23787621800147,,,,,,,,,,,,,,,,,,,,,,,,,,,,,,right,1.0,1.1837507719974385,,,,,sub-119,1,random_dot,58.94483892963076,
left,left,21.0,1.0,10.0,right,0.0,1.0873918340003002,,accuracy,space,7.36068910099857,,,,,,0.0,0.0,0.0,0.0,10.0,1.0,21.0,0.0,205.25230365500465,,,,,,,,,205.2382105979996,205.3530096610048,206.1546419369988,206.1383957670041,206.13877380700436,206.1546419369988,206.1546419369988,206.1546419369988,,207.25905837000028,,,,,,,,,,,,,,,,,,,,,,,,,,,,,,right,0.0,1.0873918340003002,,,,,sub-119,1,random_dot,58.94483892963076,
left,left,22.0,0.0,11.0,right,0.0,0.8683464819987421,,accuracy,space,7.36068910099857,,,,,,0.0,0.0,0.0,0.0,11.0,0.0,22.0,0.0,207.2741875110005,,,,,,,,,207.25936062099936,208.46171391000095,209.26367381200544,209.2481742450036,209.2486527400033,209.26367381200544,209.26367381200544,209.26367381200544,,210.1356319550032,,,,,,,,,,,,,,,,,,,,,,,,,,,,,,right,0.0,0.8683464819987421,,,,,sub-119,1,random_dot,58.94483892963076,
right,right,23.0,1.0,11.0,left,0.0,1.5909876670048106,,accuracy,space,7.36068910099857,,,,,,0.0,0.0,0.0,0.0,11.0,1.0,23.0,1.0,210.1485091249997,,,,,,,,,210.135952360004,210.2486235890028,211.05134392499892,211.03592746000504,211.0364053919984,211.05134392499892,211.05134392499892,211.05134392499892,,212.65694365100356,,,,,,,,,,,,,,,,,,,,,,,,,,,,,,left,0.0,1.5909876670048106,,,,,sub-119,1,random_dot,58.94483892963076,
right,right,24.0,0.0,12.0,right,1.0,0.905270338000264,,accuracy,space,7.36068910099857,,,,,,0.0,0.0,0.0,0.0,12.0,0.0,24.0,1.0,212.67199378499936,,,,,,,,,212.65726287200232,213.0063713769996,213.80859921700176,213.7923213320028,213.79260665499896,213.80859921700176,213.80859921700176,213.80859921700176,,214.7292543930016,,,,,,,,,,,,,,,,,,,,,,,,,,,,,,right,1.0,0.905270338000264,,,,,sub-119,1,random_dot,58.94483892963076,
left,left,25.0,1.0,12.0,left,1.0,0.6927328840029077,,accuracy,space,7.36068910099857,,,,,,0.0,0.0,0.0,0.0,12.0,1.0,25.0,0.0,214.74444508900345,,,,,,,,,214.72961021000083,215.93192440499843,216.7338181450032,216.71832369700127,216.7188009320016,216.7338181450032,216.7338181450032,216.7338181450032,,217.43581516099948,,,,,,,,,,,,,,,,,,,,,,,,,,,,,,left,1.0,0.6927328840029077,,,,,sub-119,1,random_dot,58.94483892963076,
right,right,26.0,0.0,13.0,right,1.0,0.8207885260053445,,accuracy,space,7.36068910099857,,,,,,0.0,0.0,0.0,0.0,13.0,0.0,26.0,1.0,217.45146709000252,,,,,,,,,217.4361105900025,218.23817514999973,219.03991615700212,219.02410360700011,219.0245933050028,219.03991615700212,219.03991615700212,219.03991615700212,,219.8763224620052,,,,,,,,,,,,,,,,,,,,,,,,,,,,,,right,1.0,0.8207885260053445,,,,,sub-119,1,random_dot,58.94483892963076,
left,left,27.0,1.0,13.0,left,1.0,1.2706115129985849,,accuracy,space,7.36068910099857,,,,,,0.0,0.0,0.0,0.0,13.0,1.0,27.0,0.0,219.89166204300275,,,,,,,,,219.8766531709989,220.22648336199927,221.02866111000185,221.01282149500184,221.01329729700228,221.02866111000185,221.02866111000185,221.02866111000185,,222.31677303700417,,,,,,,,,,,,,,,,,,,,,,,,,,,,,,left,1.0,1.2706115129985849,,,,,sub-119,1,random_dot,58.94483892963076,
right,right,28.0,0.0,14.0,left,0.0,2.22473410499515,,accuracy,space,7.36068910099857,,,,,,0.0,0.0,0.0,0.0,14.0,0.0,28.0,1.0,222.3311970750001,,,,,,,,,222.317134075005,223.11740997000012,223.91995638200024,223.9039636720045,223.9044352550045,223.91995638200024,223.91995638200024,223.91995638200024,,226.15951083300024,,,,,,,,,,,,,,,,,,,,,,,,,,,,,,left,0.0,2.22473410499515,,,,,sub-119,1,random_dot,58.94483892963076,
left,left,29.0,1.0,14.0,right,0.0,1.0770688139964475,,accuracy,space,7.36068910099857,,,,,,0.0,0.0,0.0,0.0,14.0,1.0,29.0,0.0,226.1750683909995,,,,,,,,,226.15984156500053,226.27518831100315,227.07762378700136,227.0616460130041,227.0619997230024,227.07762378700136,227.07762378700136,227.07762378700136,,228.1652227509985,,,,,,,,,,,,,,,,,,,,,,,,,,,,,,right,0.0,1.0770688139964475,,,,,sub-119,1,random_dot,58.94483892963076,
left,left,30.0,0.0,15.0,left,1.0,1.3783877960013342,,accuracy,space,7.36068910099857,,,,,,0.0,0.0,0.0,0.0,15.0,0.0,30.0,0.0,228.1801281049993,,,,,,,,,228.16554757799892,228.514467715002,229.3164041370037,229.30055829300545,229.30093659300476,229.3164041370037,229.3164041370037,229.3164041370037,,230.70486969099875,,,,,,,,,,,,,,,,,,,,,,,,,,,,,,left,1.0,1.3783877960013342,,,,,sub-119,1,random_dot,58.94483892963076,
right,right,31.0,1.0,15.0,right,1.0,1.654856714005291,,accuracy,space,7.36068910099857,,,,,,0.0,0.0,0.0,0.0,15.0,1.0,31.0,1.0,230.720341925,,,,,,,,,230.70517008100435,230.8048982649998,231.60598686300364,231.59011003000344,231.5904452219984,231.60598686300364,231.60598686300364,231.60598686300364,,233.26341637800212,,,,,,,,,,,,,,,,,,,,,,,,,,,,,,right,1.0,1.654856714005291,,,,,sub-119,1,random_dot,58.94483892963076,
right,right,32.0,0.0,16.0,right,1.0,1.682737905997783,,accuracy,space,7.36068910099857,,,,,,0.0,0.0,0.0,0.0,16.0,0.0,32.0,1.0,233.27758034499857,,,,,,,,,233.2637270050036,233.62802564300364,234.430116141004,234.4145032400047,234.4149890109984,234.430116141004,234.430116141004,234.430116141004,,236.11972812800377,,,,,,,,,,,,,,,,,,,,,,,,,,,,,,right,1.0,1.682737905997783,,,,,sub-119,1,random_dot,58.94483892963076,
left,left,33.0,1.0,16.0,left,1.0,0.7199007149974932,,accuracy,space,7.36068910099857,,,,,,0.0,0.0,0.0,0.0,16.0,1.0,33.0,0.0,236.1348311469992,,,,,,,,,236.12003001500125,236.92004389100475,237.7230041650037,237.70760926500225,237.70809303499848,237.7230041650037,237.7230041650037,237.7230041650037,,238.4588237050048,,,,,,,,,,,,,,,,,,,,,,,,,,,,,,left,1.0,0.7199007149974932,,,,,sub-119,1,random_dot,58.94483892963076,
left,left,34.0,0.0,17.0,right,0.0,1.3442387339964623,,accuracy,space,7.36068910099857,,,,,,0.0,0.0,0.0,0.0,17.0,0.0,34.0,0.0,238.47449169299944,,,,,,,,,238.4591435149996,239.26011388000188,240.0626626320009,240.04705556200497,240.0475328399989,240.0626626320009,240.0626626320009,240.0626626320009,,241.41704952100557,,,,,,,,,,,,,,,,,,,,,,,,,,,,,,right,0.0,1.3442387339964623,,,,,sub-119,1,random_dot,58.94483892963076,
right,right,35.0,1.0,17.0,left,0.0,0.9513627589985844,,accuracy,space,7.36068910099857,,,,,,0.0,0.0,0.0,0.0,17.0,1.0,35.0,1.0,241.43221445700328,,,,,,,,,241.4174451170038,241.51660174700373,242.31807827900047,242.30223313500028,242.3026227500013,242.31807827900047,242.31807827900047,242.31807827900047,,243.2750662430044,,,,,,,,,,,,,,,,,,,,,,,,,,,,,,left,0.0,0.9513627589985844,,,,,sub-119,1,random_dot,58.94483892963076,
right,right,36.0,0.0,18.0,right,1.0,0.6451473339984659,,accuracy,space,7.36068910099857,,,,,,0.0,0.0,0.0,0.0,18.0,0.0,36.0,1.0,243.286953683004,,,,,,,,,243.2754393790019,243.6392428800027,244.4402796850045,244.42429480000283,244.42463625100208,244.4402796850045,244.4402796850045,244.4402796850045,,245.0933844780011,,,,,,,,,,,,,,,,,,,,,,,,,,,,,,right,1.0,0.6451473339984659,,,,,sub-119,1,random_dot,58.94483892963076,
left,left,37.0,1.0,18.0,left,1.0,0.6068636769996374,,accuracy,space,7.36068910099857,,,,,,0.0,0.0,0.0,0.0,18.0,1.0,37.0,0.0,245.10914425300143,,,,,,,,,245.0936836980036,245.44311436100543,246.24593019500023,246.23018311500343,246.2306608650033,246.24593019500023,246.24593019500023,246.24593019500023,,246.86522005600276,,,,,,,,,,,,,,,,,,,,,,,,,,,,,,left,1.0,0.6068636769996374,,,,,sub-119,1,random_dot,58.94483892963076,
left,left,38.0,0.0,19.0,left,1.0,0.7207020799978636,,accuracy,space,7.36068910099857,,,,,,0.0,0.0,0.0,0.0,19.0,0.0,38.0,0.0,246.8800597090012,,,,,,,,,246.8655274710036,248.0674542000052,248.86919579100504,248.8529021200011,248.85324554500403,248.86919579100504,248.86919579100504,248.86919579100504,,249.6063119850005,,,,,,,,,,,,,,,,,,,,,,,,,,,,,,left,1.0,0.7207020799978636,,,,,sub-119,1,random_dot,58.94483892963076,
right,right,39.0,1.0,19.0,right,1.0,1.4278264079985092,,accuracy,space,7.36068910099857,,,,,,0.0,0.0,0.0,0.0,19.0,1.0,39.0,1.0,249.62075944500248,,,,,,,,,249.60666806900556,249.97165553300147,250.77469281700175,250.75879559000168,250.7592671300008,250.77469281700175,250.77469281700175,250.77469281700175,,252.21208487699917,,,,,,,,,,,,,,,,,,,,,,,,,,,,,,right,1.0,1.4278264079985092,,,,,sub-119,1,random_dot,58.94483892963076,
left,left,40.0,0.0,20.0,right,0.0,0.8534950370012666,,accuracy,space,7.36068910099857,,,,,,0.0,0.0,0.0,0.0,20.0,0.0,40.0,0.0,252.22792382500484,,,,,,,,,252.2123866450056,252.3112332020028,253.11427538200223,253.09849369700527,253.09897374999852,253.11427538200223,253.11427538200223,253.11427538200223,,253.9842226949986,,,,,,,,,,,,,,,,,,,,,,,,,,,,,,right,0.0,0.8534950370012666,,,,,sub-119,1,random_dot,58.94483892963076,
right,right,41.0,1.0,20.0,right,1.0,0.7341536300009466,,accuracy,space,7.36068910099857,,,,,,0.0,0.0,0.0,0.0,20.0,1.0,41.0,1.0,253.9990041150013,,,,,,,,,253.9845925270056,255.18638538000232,255.9877205900048,255.9718716070056,255.9722591020036,255.9877205900048,255.9877205900048,255.9877205900048,,256.72549958700256,,,,,,,,,,,,,,,,,,,,,,,,,,,,,,right,1.0,0.7341536300009466,,,,,sub-119,1,random_dot,58.94483892963076,
right,right,42.0,0.0,21.0,left,0.0,0.6567540929972893,,accuracy,space,7.36068910099857,,,,,,0.0,0.0,0.0,0.0,21.0,0.0,42.0,1.0,256.7396241000024,,,,,,,,,256.72580671800097,257.9270107670018,258.7292337250037,258.71337458999915,258.7138457350011,258.7292337250037,258.7292337250037,258.7292337250037,,259.3977930969995,,,,,,,,,,,,,,,,,,,,,,,,,,,,,,left,0.0,0.6567540929972893,,,,,sub-119,1,random_dot,58.94483892963076,
left,left,43.0,1.0,21.0,right,0.0,0.8320361649966799,,accuracy,space,7.36068910099857,,,,,,0.0,0.0,0.0,0.0,21.0,1.0,43.0,0.0,259.4139838789997,,,,,,,,,259.3981265120019,260.6008517020018,261.40309916499973,261.3874965300056,261.3879746099992,261.40309916499973,261.40309916499973,261.40309916499973,,262.24179487700167,,,,,,,,,,,,,,,,,,,,,,,,,,,,,,right,0.0,0.8320361649966799,,,,,sub-119,1,random_dot,58.94483892963076,
right,right,44.0,0.0,22.0,left,0.0,0.5865515069963294,,accuracy,space,7.36068910099857,,,,,,0.0,0.0,0.0,0.0,22.0,0.0,44.0,1.0,262.25430460100324,,,,,,,,,262.24217221300205,262.3551666600033,263.15716439099924,263.1411792850049,263.1415143760023,263.15716439099924,263.15716439099924,263.15716439099924,,263.75990016600554,,,,,,,,,,,,,,,,,,,,,,,,,,,,,,left,0.0,0.5865515069963294,,,,,sub-119,1,random_dot,58.94483892963076,
left,left,45.0,1.0,22.0,left,1.0,0.6279792589994031,,accuracy,space,7.36068910099857,,,,,,0.0,0.0,0.0,0.0,22.0,1.0,45.0,0.0,263.7751284719998,,,,,,,,,263.7601953780031,263.8596597520009,264.6612386589986,264.644905510002,264.64529956700426,264.6612386589986,264.6612386589986,264.6612386589986,,265.2971831180039,,,,,,,,,,,,,,,,,,,,,,,,,,,,,,left,1.0,0.6279792589994031,,,,,sub-119,1,random_dot,58.94483892963076,
right,right,46.0,0.0,23.0,right,1.0,0.5998627059962018,,accuracy,space,7.36068910099857,,,,,,0.0,0.0,0.0,0.0,23.0,0.0,46.0,1.0,265.312655103,,,,,,,,,265.29748785099946,266.0983774250053,266.9005909949992,266.8840714540056,266.8844143700044,266.9005909949992,266.9005909949992,266.9005909949992,,267.5045261280029,,,,,,,,,,,,,,,,,,,,,,,,,,,,,,right,1.0,0.5998627059962018,,,,,sub-119,1,random_dot,58.94483892963076,
left,left,47.0,1.0,23.0,left,1.0,0.6754825620009797,,accuracy,space,7.36068910099857,,,,,,0.0,0.0,0.0,0.0,23.0,1.0,47.0,0.0,267.5179621550051,,,,,,,,,267.5048385780028,267.85427803199855,268.6553475770052,268.6389001530042,268.6392379530007,268.6553475770052,268.6553475770052,268.6553475770052,,269.34199927900045,,,,,,,,,,,,,,,,,,,,,,,,,,,,,,left,1.0,0.6754825620009797,,,,,sub-119,1,random_dot,58.94483892963076,
left,left,48.0,0.0,24.0,right,0.0,0.8876406349954777,,accuracy,space,7.36068910099857,,,,,,0.0,0.0,0.0,0.0,24.0,0.0,48.0,0.0,269.3570717230032,,,,,,,,,269.3423660949993,269.707679430001,270.5097905030052,270.4948772170028,270.4953562170049,270.5097905030052,270.5097905030052,270.5097905030052,,271.4145654590029,,,,,,,,,,,,,,,,,,,,,,,,,,,,,,right,0.0,0.8876406349954777,,,,,sub-119,1,random_dot,58.94483892963076,
right,right,49.0,1.0,24.0,left,0.0,0.6863214819968562,,accuracy,space,7.36068910099857,,,,,,0.0,0.0,0.0,0.0,24.0,1.0,49.0,1.0,271.42893690500205,,,,,,,,,271.41491746900283,272.2151526950038,273.01715693499864,273.00043417500274,273.00079079499847,273.01715693499864,273.01715693499864,273.01715693499864,,273.7068405770042,,,,,,,,,,,,,,,,,,,,,,,,,,,,,,left,0.0,0.6863214819968562,,,,,sub-119,1,random_dot,58.94483892963076,
left,left,50.0,0.0,25.0,left,1.0,0.5599765759980073,,accuracy,space,7.36068910099857,,,,,,0.0,0.0,0.0,0.0,25.0,0.0,50.0,0.0,273.7181739480002,,,,,,,,,273.707211904999,273.81880464200367,274.62093542100047,274.60510364700167,274.60550008500286,274.62093542100047,274.62093542100047,274.62093542100047,,275.19038273900514,,,,,,,,,,,,,,,,,,,,,,,,,,,,,,left,1.0,0.5599765759980073,,,,,sub-119,1,random_dot,58.94483892963076,
right,right,51.0,1.0,25.0,right,1.0,1.894961293997767,,accuracy,space,7.36068910099857,,,,,,0.0,0.0,0.0,0.0,25.0,1.0,51.0,1.0,275.2060943780016,,,,,,,,,275.1907349450048,275.3059737250005,276.108897680002,276.09334417500213,276.0938266700032,276.108897680002,276.108897680002,276.108897680002,,278.01459823500045,,,,,,,,,,,,,,,,,,,,,,,,,,,,,,right,1.0,1.894961293997767,,,,,sub-119,1,random_dot,58.94483892963076,
left,left,52.0,0.0,26.0,left,1.0,0.7697589439994772,,accuracy,space,7.36068910099857,,,,,,0.0,0.0,0.0,0.0,26.0,0.0,52.0,0.0,278.0301137850038,,,,,,,,,278.0148975100019,278.3646358870028,279.167352632001,279.1513194720028,279.1517888119997,279.167352632001,279.167352632001,279.167352632001,,279.95347133900214,,,,,,,,,,,,,,,,,,,,,,,,,,,,,,left,1.0,0.7697589439994772,,,,,sub-119,1,random_dot,58.94483892963076,
right,right,53.0,1.0,26.0,right,1.0,0.8838410270036547,,accuracy,space,7.36068910099857,,,,,,0.0,0.0,0.0,0.0,26.0,1.0,53.0,1.0,279.9688861950053,,,,,,,,,279.9538550270008,280.7550038620029,281.55600433699874,281.54037252000126,281.5407254660022,281.55600433699874,281.55600433699874,281.55600433699874,,282.4459167430032,,,,,,,,,,,,,,,,,,,,,,,,,,,,,,right,1.0,0.8838410270036547,,,,,sub-119,1,random_dot,58.94483892963076,
left,left,54.0,0.0,27.0,left,1.0,0.841108874999918,,accuracy,space,7.36068910099857,,,,,,0.0,0.0,0.0,0.0,27.0,0.0,54.0,0.0,282.459043380004,,,,,,,,,282.4462745490018,283.26178512500337,284.06329254199954,284.04735339499894,284.04774086199905,284.06329254199954,284.06329254199954,284.06329254199954,,284.91654334700434,,,,,,,,,,,,,,,,,,,,,,,,,,,,,,left,1.0,0.841108874999918,,,,,sub-119,1,random_dot,58.94483892963076,
right,right,55.0,1.0,27.0,left,0.0,2.9451030310010538,,accuracy,space,7.36068910099857,,,,,,0.0,0.0,0.0,0.0,27.0,1.0,55.0,1.0,284.9316656880037,,,,,,,,,284.9169151180031,285.71834664500057,286.5200796400022,286.5042380300001,286.5047127700018,286.5200796400022,286.5200796400022,286.5200796400022,,289.4785290869986,,,,,,,,,,,,,,,,,,,,,,,,,,,,,,left,0.0,2.9451030310010538,,,,,sub-119,1,random_dot,58.94483892963076,
right,right,56.0,0.0,28.0,left,0.0,0.8212018769991118,,accuracy,space,7.36068910099857,,,,,,0.0,0.0,0.0,0.0,28.0,0.0,56.0,1.0,289.4936025740026,,,,,,,,,289.478824595004,290.2800196600001,291.08298226500483,291.0665946520021,291.0670720170019,291.08298226500483,291.08298226500483,291.08298226500483,,291.9184179790027,,,,,,,,,,,,,,,,,,,,,,,,,,,,,,left,0.0,0.8212018769991118,,,,,sub-119,1,random_dot,58.94483892963076,
left,left,57.0,1.0,28.0,left,1.0,2.2712188239966054,,accuracy,space,7.36068910099857,,,,,,0.0,0.0,0.0,0.0,28.0,1.0,57.0,0.0,291.9335583300053,,,,,,,,,291.9187951249987,292.0339429800006,292.83651902500424,292.820008667004,292.820360951002,292.83651902500424,292.83651902500424,292.83651902500424,,295.1135727120054,,,,,,,,,,,,,,,,,,,,,,,,,,,,,,left,1.0,2.2712188239966054,,,,,sub-119,1,random_dot,58.94483892963076,
right,right,58.0,0.0,29.0,right,1.0,0.9236856740026268,,accuracy,space,7.36068910099857,,,,,,0.0,0.0,0.0,0.0,29.0,0.0,58.0,1.0,295.1257565850028,,,,,,,,,295.1140022100008,296.3133728450048,297.1154673100027,297.0994468249992,297.09991814700334,297.1154673100027,297.1154673100027,297.1154673100027,,298.0515925229993,,,,,,,,,,,,,,,,,,,,,,,,,,,,,,right,1.0,0.9236856740026268,,,,,sub-119,1,random_dot,58.94483892963076,
left,left,59.0,1.0,29.0,left,1.0,1.2706660679978086,,accuracy,space,7.36068910099857,,,,,,0.0,0.0,0.0,0.0,29.0,1.0,59.0,0.0,298.0672519910004,,,,,,,,,298.05194676500105,298.85220282500086,299.65521997200267,299.6395173600031,299.63999019699986,299.65521997200267,299.65521997200267,299.65521997200267,,300.9427099189997,,,,,,,,,,,,,,,,,,,,,,,,,,,,,,left,1.0,1.2706660679978086,,,,,sub-119,1,random_dot,58.94483892963076,
,,0.0,0.0,0.0,,,,,accuracy,space,7.36068910099857,,,,,,0.0,0.0,0.0,0.0,,,,,,,,,,,,,,,,,,,,,,,,,,,,,,,,,,,,,,,,,,,,,,,,,,,,,,,,,,,,sub-119,1,random_dot,58.94483892963076,
right,right,0.0,0.0,0.0,left,0.0,0.7962518069980433,,speed,space,11.518560066004284,,,,,,0.0,1.0,1.0,1.0,0.0,0.0,0.0,1.0,312.5051319269988,,,,,,,,,312.4965799280035,313.2907935809999,314.0931940849987,314.077437730004,314.0778405520032,314.0931940849987,314.0931940849987,314.0931940849987,,314.8967167209994,,,,,,,,,,,,,,,,,,,,,,,300.95411841600435,300.96286426400184,300.96286426400184,312.4913108190012,space,11.518560066004284,,left,0.0,0.7962518069980433,,,,,sub-119,1,random_dot,58.94483892963076,
left,left,1.0,1.0,0.0,left,1.0,2.5731239500019,,speed,space,11.518560066004284,,,,,,0.0,1.0,1.0,1.0,0.0,1.0,1.0,0.0,314.9117856049997,,,,,,,,,314.8970074800018,315.697472509004,316.5002290600023,316.4841843670001,316.48466764700424,316.5002290600023,316.5002290600023,316.5002290600023,,319.07582432500203,,,,,,,,,,,,,,,,,,,,,,,,,,,,,,left,1.0,2.5731239500019,,,,,sub-119,1,random_dot,58.94483892963076,
left,left,2.0,0.0,1.0,left,1.0,2.337713982000423,,speed,space,11.518560066004284,,,,,,0.0,1.0,1.0,1.0,1.0,0.0,2.0,0.0,319.089925033004,,,,,,,,,319.0762037310051,319.8757760350054,320.6778989049999,320.66238975000306,320.6628736670027,320.6778989049999,320.6778989049999,320.6778989049999,,323.0194408520037,,,,,,,,,,,,,,,,,,,,,,,,,,,,,,left,1.0,2.337713982000423,,,,,sub-119,1,random_dot,58.94483892963076,
right,right,3.0,1.0,1.0,right,1.0,1.009396534995176,,speed,space,11.518560066004284,,,,,,0.0,1.0,1.0,1.0,1.0,1.0,3.0,1.0,323.0328144500017,,,,,,,,,323.01977169699967,324.2206813150042,325.02203009200457,325.0073297620038,325.00780515000224,325.02203009200457,325.02203009200457,325.02203009200457,,326.0432092850024,,,,,,,,,,,,,,,,,,,,,,,,,,,,,,right,1.0,1.009396534995176,,,,,sub-119,1,random_dot,58.94483892963076,
left,left,4.0,0.0,2.0,left,1.0,0.6079930839987355,,speed,space,11.518560066004284,,,,,,0.0,1.0,1.0,1.0,2.0,0.0,4.0,0.0,326.05813831699925,,,,,,,,,326.04351681299886,326.1584319149988,326.9604931130016,326.9445299049985,326.9449360170038,326.9604931130016,326.9604931130016,326.9604931130016,,327.5805884500005,,,,,,,,,,,,,,,,,,,,,,,,,,,,,,left,1.0,0.6079930839987355,,,,,sub-119,1,random_dot,58.94483892963076,
right,right,5.0,1.0,2.0,left,0.0,1.1916485309993732,,speed,space,11.518560066004284,,,,,,0.0,1.0,1.0,1.0,2.0,1.0,5.0,1.0,327.5956267400033,,,,,,,,,327.58087158200215,328.7829489319993,329.58451163900463,329.5683138930035,329.5686519439987,329.58451163900463,329.58451163900463,329.58451163900463,,330.78938445699896,,,,,,,,,,,,,,,,,,,,,,,,,,,,,,left,0.0,1.1916485309993732,,,,,sub-119,1,random_dot,58.94483892963076,
right,right,6.0,0.0,3.0,left,0.0,1.0168976389977615,,speed,space,11.518560066004284,,,,,,0.0,1.0,1.0,1.0,3.0,0.0,6.0,1.0,330.8047715499997,,,,,,,,,330.78968303100555,331.9916140300047,332.7936285770047,332.7782551249984,332.7787288870022,332.7936285770047,332.7936285770047,332.7936285770047,,333.8144852600017,,,,,,,,,,,,,,,,,,,,,,,,,,,,,,left,0.0,1.0168976389977615,,,,,sub-119,1,random_dot,58.94483892963076,
left,left,7.0,1.0,3.0,left,1.0,0.5086890139937168,,speed,space,11.518560066004284,,,,,,0.0,1.0,1.0,1.0,3.0,1.0,7.0,0.0,333.82943639500445,,,,,,,,,333.8147943830045,335.01615641500393,335.8186191970017,335.80255346000195,335.8030298599988,335.8186191970017,335.8186191970017,335.8186191970017,,336.33781511700363,,,,,,,,,,,,,,,,,,,,,,,,,,,,,,left,1.0,0.5086890139937168,,,,,sub-119,1,random_dot,58.94483892963076,
right,right,8.0,0.0,4.0,left,0.0,0.5485845889998018,,speed,space,11.518560066004284,,,,,,0.0,1.0,1.0,1.0,4.0,0.0,8.0,1.0,336.35243480500503,,,,,,,,,336.338129486001,336.7032416930015,337.506159165001,337.49045171000034,337.4909236500025,337.506159165001,337.506159165001,337.506159165001,,338.0591450680004,,,,,,,,,,,,,,,,,,,,,,,,,,,,,,left,0.0,0.5485845889998018,,,,,sub-119,1,random_dot,58.94483892963076,
left,left,9.0,1.0,4.0,left,1.0,1.0252802499962854,,speed,space,11.518560066004284,,,,,,0.0,1.0,1.0,1.0,4.0,1.0,9.0,0.0,338.0735426600004,,,,,,,,,338.0594802170017,339.2613225899986,340.06301582200103,340.04735600200365,340.0478331550039,340.06301582200103,340.06301582200103,340.06301582200103,,341.1004864350034,,,,,,,,,,,,,,,,,,,,,,,,,,,,,,left,1.0,1.0252802499962854,,,,,sub-119,1,random_dot,58.94483892963076,
right,right,10.0,0.0,5.0,left,0.0,0.5222406280008727,,speed,space,11.518560066004284,,,,,,0.0,1.0,1.0,1.0,5.0,0.0,10.0,1.0,341.11505759000283,,,,,,,,,341.1008478049989,341.2154709530005,342.01853072499944,342.00256006000564,342.00304041500203,342.01853072499944,342.01853072499944,342.01853072499944,,342.55349065300106,,,,,,,,,,,,,,,,,,,,,,,,,,,,,,left,0.0,0.5222406280008727,,,,,sub-119,1,random_dot,58.94483892963076,
left,left,11.0,1.0,5.0,left,1.0,0.6022284979990218,,speed,space,11.518560066004284,,,,,,0.0,1.0,1.0,1.0,5.0,1.0,11.0,0.0,342.5690106270049,,,,,,,,,342.55378967000433,342.65255301300203,343.45546572199964,343.439781011999,343.4402577200017,343.45546572199964,343.45546572199964,343.45546572199964,,344.07557942999847,,,,,,,,,,,,,,,,,,,,,,,,,,,,,,left,1.0,0.6022284979990218,,,,,sub-119,1,random_dot,58.94483892963076,
left,left,12.0,0.0,6.0,left,1.0,0.977650082000764,,speed,space,11.518560066004284,,,,,,0.0,1.0,1.0,1.0,6.0,0.0,12.0,0.0,344.09045979499933,,,,,,,,,344.0760128930051,344.8757179050008,345.6782307050016,345.66228572199907,345.66276821499923,345.6782307050016,345.6782307050016,345.6782307050016,,346.6642582330024,,,,,,,,,,,,,,,,,,,,,,,,,,,,,,left,1.0,0.977650082000764,,,,,sub-119,1,random_dot,58.94483892963076,
right,right,13.0,1.0,6.0,left,0.0,0.3669601989968214,,speed,space,11.518560066004284,,,,,,0.0,1.0,1.0,1.0,6.0,1.0,13.0,1.0,346.6799219489985,,,,,,,,,346.66456315600226,347.4662900399999,348.26836034200096,348.25255432999984,348.2530323550018,348.26836034200096,348.26836034200096,348.26836034200096,,348.6381300550056,,,,,,,,,,,,,,,,,,,,,,,,,,,,,,left,0.0,0.3669601989968214,,,,,sub-119,1,random_dot,58.94483892963076,
left,left,14.0,0.0,7.0,left,1.0,0.435874763999891,,speed,space,11.518560066004284,,,,,,0.0,1.0,1.0,1.0,7.0,0.0,14.0,0.0,348.6523846230048,,,,,,,,,348.63843041200016,349.0037167000046,349.8050000830044,349.78937856099947,349.78971750500205,349.8050000830044,349.8050000830044,349.8050000830044,,350.2578668280039,,,,,,,,,,,,,,,,,,,,,,,,,,,,,,left,1.0,0.435874763999891,,,,,sub-119,1,random_dot,58.94483892963076,
right,right,15.0,1.0,7.0,left,0.0,0.3266180830032681,,speed,space,11.518560066004284,,,,,,0.0,1.0,1.0,1.0,7.0,1.0,15.0,1.0,350.2729977570052,,,,,,,,,350.2581446500044,350.6072595279984,351.4096523199987,351.39323629600403,351.39356838200183,351.4096523199987,351.4096523199987,351.4096523199987,,351.745643743001,,,,,,,,,,,,,,,,,,,,,,,,,,,,,,left,0.0,0.3266180830032681,,,,,sub-119,1,random_dot,58.94483892963076,
left,left,16.0,0.0,8.0,left,1.0,0.4749460809980519,,speed,space,11.518560066004284,,,,,,0.0,1.0,1.0,1.0,8.0,0.0,16.0,0.0,351.7601370670018,,,,,,,,,351.74599670300086,352.54684350000025,353.3476879510053,353.3316193710052,353.3319619730028,353.3476879510053,353.3476879510053,353.3476879510053,,353.8334541220029,,,,,,,,,,,,,,,,,,,,,,,,,,,,,,left,1.0,0.4749460809980519,,,,,sub-119,1,random_dot,58.94483892963076,
right,right,17.0,1.0,8.0,left,0.0,0.3096515020006336,,speed,space,11.518560066004284,,,,,,0.0,1.0,1.0,1.0,8.0,1.0,17.0,1.0,353.8492443150026,,,,,,,,,353.83374864700454,354.1836294169989,354.98534119200485,354.96961618500063,354.9699616430007,354.98534119200485,354.98534119200485,354.98534119200485,,355.30401396500383,,,,,,,,,,,,,,,,,,,,,,,,,,,,,,left,0.0,0.3096515020006336,,,,,sub-119,1,random_dot,58.94483892963076,
left,left,18.0,0.0,9.0,left,1.0,0.4083869929963839,,speed,space,11.518560066004284,,,,,,0.0,1.0,1.0,1.0,9.0,0.0,18.0,0.0,355.3197022730019,,,,,,,,,355.30432317500527,356.50719698000466,357.3083179189998,357.29205497300427,357.29239504300494,357.3083179189998,357.3083179189998,357.3083179189998,,357.72750236600405,,,,,,,,,,,,,,,,,,,,,,,,,,,,,,left,1.0,0.4083869929963839,,,,,sub-119,1,random_dot,58.94483892963076,
right,right,19.0,1.0,9.0,left,0.0,0.3361646269986522,,speed,space,11.518560066004284,,,,,,0.0,1.0,1.0,1.0,9.0,1.0,19.0,1.0,357.74265091100096,,,,,,,,,357.72784046499874,357.8431468130002,358.6451084569999,358.6291611500056,358.6294983199987,358.6451084569999,358.6451084569999,358.6451084569999,,358.99827044500125,,,,,,,,,,,,,,,,,,,,,,,,,,,,,,left,0.0,0.3361646269986522,,,,,sub-119,1,random_dot,58.94483892963076,
right,right,20.0,0.0,10.0,left,0.0,0.2916437780004344,,speed,space,11.518560066004284,,,,,,0.0,1.0,1.0,1.0,10.0,0.0,20.0,1.0,359.0133188050022,,,,,,,,,358.998628415,359.34769419700024,360.1492689520019,360.13320431100146,360.13354401000106,360.1492689520019,360.1492689520019,360.1492689520019,,360.4516116349987,,,,,,,,,,,,,,,,,,,,,,,,,,,,,,left,0.0,0.2916437780004344,,,,,sub-119,1,random_dot,58.94483892963076,
left,left,21.0,1.0,10.0,left,1.0,0.2713806610045139,,speed,space,11.518560066004284,,,,,,0.0,1.0,1.0,1.0,10.0,1.0,21.0,0.0,360.4673219750039,,,,,,,,,360.4519053230033,360.8014331930026,361.60305835000327,361.5878803330052,361.5882027970001,361.60305835000327,361.60305835000327,361.60305835000327,,361.8885231680033,,,,,,,,,,,,,,,,,,,,,,,,,,,,,,left,1.0,0.2713806610045139,,,,,sub-119,1,random_dot,58.94483892963076,
left,left,22.0,0.0,11.0,left,1.0,0.3676177749948692,,speed,space,11.518560066004284,,,,,,0.0,1.0,1.0,1.0,11.0,0.0,22.0,0.0,361.9039465590031,,,,,,,,,361.88882272300543,362.6900982549996,363.49262734199874,363.4769700020042,363.4774528420021,363.49262734199874,363.49262734199874,363.49262734199874,,363.87824931499927,,,,,,,,,,,,,,,,,,,,,,,,,,,,,,left,1.0,0.3676177749948692,,,,,sub-119,1,random_dot,58.94483892963076,
right,right,23.0,1.0,11.0,left,0.0,0.3939596350028296,,speed,space,11.518560066004284,,,,,,0.0,1.0,1.0,1.0,11.0,1.0,23.0,1.0,363.8930526210024,,,,,,,,,363.8785985229988,365.0790935449986,365.88186893500097,365.8667700500009,365.8672478320004,365.88186893500097,365.88186893500097,365.88186893500097,,366.28361461500026,,,,,,,,,,,,,,,,,,,,,,,,,,,,,,left,0.0,0.3939596350028296,,,,,sub-119,1,random_dot,58.94483892963076,
left,left,24.0,0.0,12.0,left,1.0,0.3574816350010223,,speed,space,11.518560066004284,,,,,,0.0,1.0,1.0,1.0,12.0,0.0,24.0,0.0,366.2993065720002,,,,,,,,,366.2839217410001,366.63424340500205,367.43613562000246,367.4203135170028,367.4208049500012,367.43613562000246,367.43613562000246,367.43613562000246,,367.80485288699856,,,,,,,,,,,,,,,,,,,,,,,,,,,,,,left,1.0,0.3574816350010223,,,,,sub-119,1,random_dot,58.94483892963076,
right,right,25.0,1.0,12.0,left,0.0,0.3220779129987932,,speed,space,11.518560066004284,,,,,,0.0,1.0,1.0,1.0,12.0,1.0,25.0,1.0,367.8200978820023,,,,,,,,,367.8052302190045,368.1544255100016,368.9569486200053,368.9410701020024,368.9415433850008,368.9569486200053,368.9569486200053,368.9569486200053,,369.2921695710029,,,,,,,,,,,,,,,,,,,,,,,,,,,,,,left,0.0,0.3220779129987932,,,,,sub-119,1,random_dot,58.94483892963076,
left,left,26.0,0.0,13.0,left,1.0,0.564568950998364,,speed,space,11.518560066004284,,,,,,0.0,1.0,1.0,1.0,13.0,0.0,26.0,0.0,369.3069676310042,,,,,,,,,369.2924844920053,370.4945124799997,371.29654010000377,371.2806129349992,371.281089037002,371.29654010000377,371.29654010000377,371.29654010000377,,371.86609067200334,,,,,,,,,,,,,,,,,,,,,,,,,,,,,,left,1.0,0.564568950998364,,,,,sub-119,1,random_dot,58.94483892963076,
right,right,27.0,1.0,13.0,left,0.0,0.3155167849981808,,speed,space,11.518560066004284,,,,,,0.0,1.0,1.0,1.0,13.0,1.0,27.0,1.0,371.88061576000473,,,,,,,,,371.8664785869987,373.0676958900003,373.86940017500456,373.852981035001,373.8532589070019,373.86940017500456,373.86940017500456,373.86940017500456,,374.1910613720029,,,,,,,,,,,,,,,,,,,,,,,,,,,,,,left,0.0,0.3155167849981808,,,,,sub-119,1,random_dot,58.94483892963076,
right,right,28.0,0.0,14.0,left,0.0,0.3684312719997251,,speed,space,11.518560066004284,,,,,,0.0,1.0,1.0,1.0,14.0,0.0,28.0,1.0,374.203459467004,,,,,,,,,374.19148730500456,375.3906826669991,376.1924660250006,376.1760659920037,376.1764156230056,376.1924660250006,376.1924660250006,376.1924660250006,,376.57831307499873,,,,,,,,,,,,,,,,,,,,,,,,,,,,,,left,0.0,0.3684312719997251,,,,,sub-119,1,random_dot,58.94483892963076,
left,left,29.0,1.0,14.0,left,1.0,0.3667267240016372,,speed,space,11.518560066004284,,,,,,0.0,1.0,1.0,1.0,14.0,1.0,29.0,0.0,376.5932916520032,,,,,,,,,376.5786639290018,376.6777458020006,377.4788589029995,377.4631922230037,377.4635336830033,377.4788589029995,377.4788589029995,377.4788589029995,,377.8491178460026,,,,,,,,,,,,,,,,,,,,,,,,,,,,,,left,1.0,0.3667267240016372,,,,,sub-119,1,random_dot,58.94483892963076,
right,right,30.0,0.0,15.0,left,0.0,0.276530481998634,,speed,space,11.518560066004284,,,,,,0.0,1.0,1.0,1.0,15.0,0.0,30.0,1.0,377.8630801309992,,,,,,,,,377.8494141109986,378.21525806000136,379.016279841002,379.0001791809991,379.0005192940007,379.016279841002,379.016279841002,379.016279841002,,379.3023163850012,,,,,,,,,,,,,,,,,,,,,,,,,,,,,,left,0.0,0.276530481998634,,,,,sub-119,1,random_dot,58.94483892963076,
left,left,31.0,1.0,15.0,left,1.0,0.273948708003445,,speed,space,11.518560066004284,,,,,,0.0,1.0,1.0,1.0,15.0,1.0,31.0,0.0,379.3170822489992,,,,,,,,,379.3026062429999,379.66800659,380.4709692500037,380.4552210900001,380.45570663500257,380.4709692500037,380.4709692500037,380.4709692500037,,380.7561969580056,,,,,,,,,,,,,,,,,,,,,,,,,,,,,,left,1.0,0.273948708003445,,,,,sub-119,1,random_dot,58.94483892963076,
right,right,32.0,0.0,16.0,left,0.0,0.3015762049981276,,speed,space,11.518560066004284,,,,,,0.0,1.0,1.0,1.0,16.0,0.0,32.0,1.0,380.7709123370005,,,,,,,,,380.7564769770033,381.10626346200297,381.9081788600015,381.89226870999846,381.89274135700543,381.9081788600015,381.9081788600015,381.9081788600015,,382.226596530003,,,,,,,,,,,,,,,,,,,,,,,,,,,,,,left,0.0,0.3015762049981276,,,,,sub-119,1,random_dot,58.94483892963076,
left,left,33.0,1.0,16.0,left,1.0,0.3331190050012083,,speed,space,11.518560066004284,,,,,,0.0,1.0,1.0,1.0,16.0,1.0,33.0,0.0,382.2414830570051,,,,,,,,,382.226876408,382.3421078730025,383.1440111470001,383.1278407600039,383.1281850250016,383.1440111470001,383.1440111470001,383.1440111470001,,383.48090860700177,,,,,,,,,,,,,,,,,,,,,,,,,,,,,,left,1.0,0.3331190050012083,,,,,sub-119,1,random_dot,58.94483892963076,
right,right,34.0,0.0,17.0,left,0.0,0.2475382680058828,,speed,space,11.518560066004284,,,,,,0.0,1.0,1.0,1.0,17.0,0.0,34.0,1.0,383.49512509500346,,,,,,,,,383.4812172500024,384.2815073470047,385.0833405220037,385.06791524500295,385.06839717500407,385.0833405220037,385.0833405220037,385.0833405220037,,385.3354589869996,,,,,,,,,,,,,,,,,,,,,,,,,,,,,,left,0.0,0.2475382680058828,,,,,sub-119,1,random_dot,58.94483892963076,
left,left,35.0,1.0,17.0,left,1.0,0.2199385720014106,,speed,space,11.518560066004284,,,,,,0.0,1.0,1.0,1.0,17.0,1.0,35.0,0.0,385.349868121004,,,,,,,,,385.335741243005,385.7009155600026,386.5030248930052,386.4871645259991,386.4875033360004,386.5030248930052,386.5030248930052,386.5030248930052,,386.7391282410026,,,,,,,,,,,,,,,,,,,,,,,,,,,,,,left,1.0,0.2199385720014106,,,,,sub-119,1,random_dot,58.94483892963076,
left,left,36.0,0.0,18.0,left,1.0,0.243441721999261,,speed,space,11.518560066004284,,,,,,0.0,1.0,1.0,1.0,18.0,0.0,36.0,0.0,386.7536270990022,,,,,,,,,386.7394835220039,387.1051460910021,387.90679971800273,387.890821908004,387.8911624850007,387.90679971800273,387.90679971800273,387.90679971800273,,388.1589412329995,,,,,,,,,,,,,,,,,,,,,,,,,,,,,,left,1.0,0.243441721999261,,,,,sub-119,1,random_dot,58.94483892963076,
right,right,37.0,1.0,18.0,left,0.0,0.2437251070005004,,speed,space,11.518560066004284,,,,,,0.0,1.0,1.0,1.0,18.0,1.0,37.0,1.0,388.1746539400047,,,,,,,,,388.1592356750043,388.9603305600031,389.7625546449999,389.7469606670056,389.7474355049999,389.7625546449999,389.7625546449999,389.7625546449999,,390.0141653630053,,,,,,,,,,,,,,,,,,,,,,,,,,,,,,left,0.0,0.2437251070005004,,,,,sub-119,1,random_dot,58.94483892963076,
right,right,38.0,0.0,19.0,left,0.0,0.2849671500007389,,speed,space,11.518560066004284,,,,,,0.0,1.0,1.0,1.0,19.0,0.0,38.0,1.0,390.02930893099983,,,,,,,,,390.0144598320039,391.2162955099993,392.0183551650043,392.0017084970023,392.00205686100526,392.0183551650043,392.0183551650043,392.0183551650043,,392.3206106010039,,,,,,,,,,,,,,,,,,,,,,,,,,,,,,left,0.0,0.2849671500007389,,,,,sub-119,1,random_dot,58.94483892963076,
left,left,39.0,1.0,19.0,left,1.0,0.5328910269963671,,speed,space,11.518560066004284,,,,,,0.0,1.0,1.0,1.0,19.0,1.0,39.0,0.0,392.335572046999,,,,,,,,,392.3209804549988,393.52247570000327,394.32368946000497,394.3095317970001,394.3099868729987,394.32368946000497,394.32368946000497,394.32368946000497,,394.8611842750033,,,,,,,,,,,,,,,,,,,,,,,,,,,,,,left,1.0,0.5328910269963671,,,,,sub-119,1,random_dot,58.94483892963076,
right,right,40.0,0.0,20.0,left,0.0,0.2509285429987358,,speed,space,11.518560066004284,,,,,,0.0,1.0,1.0,1.0,20.0,0.0,40.0,1.0,394.8751686270043,,,,,,,,,394.86150415200245,395.661839557004,396.46384929700434,396.4481683470003,396.4486422350019,396.46384929700434,396.46384929700434,396.46384929700434,,396.7319399830012,,,,,,,,,,,,,,,,,,,,,,,,,,,,,,left,0.0,0.2509285429987358,,,,,sub-119,1,random_dot,58.94483892963076,
left,left,41.0,1.0,20.0,left,1.0,0.21925535799528,,speed,space,11.518560066004284,,,,,,0.0,1.0,1.0,1.0,20.0,1.0,41.0,0.0,396.7474333630016,,,,,,,,,396.73231591100193,397.9342250350019,398.73658637000335,398.7209842520024,398.7214667600056,398.73658637000335,398.73658637000335,398.73658637000335,,398.9717339589988,,,,,,,,,,,,,,,,,,,,,,,,,,,,,,left,1.0,0.21925535799528,,,,,sub-119,1,random_dot,58.94483892963076,
left,left,42.0,0.0,21.0,left,1.0,0.2205085230016266,,speed,space,11.518560066004284,,,,,,0.0,1.0,1.0,1.0,21.0,0.0,42.0,0.0,398.9867264519999,,,,,,,,,398.9720865570053,399.7726159150043,400.5745696369995,400.5589900019986,400.5594699550056,400.5745696369995,400.5745696369995,400.5745696369995,,400.8096331530032,,,,,,,,,,,,,,,,,,,,,,,,,,,,,,left,1.0,0.2205085230016266,,,,,sub-119,1,random_dot,58.94483892963076,
right,right,43.0,1.0,21.0,left,0.0,0.4935463020010502,,speed,space,11.518560066004284,,,,,,0.0,1.0,1.0,1.0,21.0,1.0,43.0,1.0,400.82476160499937,,,,,,,,,400.8099855270048,401.1595639849984,401.9616643150002,401.9459235899994,401.9464003220055,401.9616643150002,401.9616643150002,401.9616643150002,,402.4641831109984,,,,,,,,,,,,,,,,,,,,,,,,,,,,,,left,0.0,0.4935463020010502,,,,,sub-119,1,random_dot,58.94483892963076,
right,right,44.0,0.0,22.0,left,0.0,0.5861482179971063,,speed,space,11.518560066004284,,,,,,0.0,1.0,1.0,1.0,22.0,0.0,44.0,1.0,402.479293190001,,,,,,,,,402.46453575500345,402.5802436770027,403.3823371850012,403.3664478150022,403.3669365220048,403.3823371850012,403.3823371850012,403.3823371850012,,403.98522755500017,,,,,,,,,,,,,,,,,,,,,,,,,,,,,,left,0.0,0.5861482179971063,,,,,sub-119,1,random_dot,58.94483892963076,
left,left,45.0,1.0,22.0,left,1.0,0.4031694389996119,,speed,space,11.518560066004284,,,,,,0.0,1.0,1.0,1.0,22.0,1.0,45.0,0.0,403.99968468500447,,,,,,,,,403.9855808550056,405.1868916250023,405.988431910002,405.9721057640054,405.9724470750007,405.988431910002,405.988431910002,405.988431910002,,406.4082274690009,,,,,,,,,,,,,,,,,,,,,,,,,,,,,,left,1.0,0.4031694389996119,,,,,sub-119,1,random_dot,58.94483892963076,
left,left,46.0,0.0,23.0,left,1.0,0.3172199440014083,,speed,space,11.518560066004284,,,,,,0.0,1.0,1.0,1.0,23.0,0.0,46.0,0.0,406.422801834,,,,,,,,,406.4085935670009,406.7569917310029,407.5599096549995,407.544147007,407.54462580700056,407.5599096549995,407.5599096549995,407.5599096549995,,407.87972733600327,,,,,,,,,,,,,,,,,,,,,,,,,,,,,,left,1.0,0.3172199440014083,,,,,sub-119,1,random_dot,58.94483892963076,
right,right,47.0,1.0,23.0,left,0.0,0.2524990399979288,,speed,space,11.518560066004284,,,,,,0.0,1.0,1.0,1.0,23.0,1.0,47.0,1.0,407.8939025080035,,,,,,,,,407.8800368320008,408.6798780570025,409.4812213230034,409.46510146900255,409.4654383610032,409.4812213230034,409.4812213230034,409.4812213230034,,409.7500324249995,,,,,,,,,,,,,,,,,,,,,,,,,,,,,,left,0.0,0.2524990399979288,,,,,sub-119,1,random_dot,58.94483892963076,
right,right,48.0,0.0,24.0,right,1.0,5.596075421999558,,speed,space,11.518560066004284,,,,,,0.0,1.0,1.0,1.0,24.0,0.0,48.0,1.0,409.7650426190012,,,,,,,,,409.75039468199975,410.10017475500354,410.9013210710036,410.885638411004,410.88599106400216,410.9013210710036,410.9013210710036,410.9013210710036,415.8984741930035,416.5047765199997,,,,,,,,,,,,,,,,,,,,,,,,,,,,,,right,1.0,5.596075421999558,,,,,sub-119,1,random_dot,58.94483892963076,
left,left,49.0,1.0,24.0,right,0.0,3.776102253003046,,speed,space,11.518560066004284,,,,,,0.0,1.0,1.0,1.0,24.0,1.0,49.0,0.0,416.5169444070052,,,,,,,,,416.505197683,416.8682011370038,417.67071423499874,417.6547617450051,417.6552420750013,417.67071423499874,417.67071423499874,417.67071423499874,,421.4507144270028,,,,,,,,,,,,,,,,,,,,,,,,,,,,,,right,0.0,3.776102253003046,,,,,sub-119,1,random_dot,58.94483892963076,
left,left,50.0,0.0,25.0,right,0.0,0.9113051559979796,,speed,space,11.518560066004284,,,,,,0.0,1.0,1.0,1.0,25.0,0.0,50.0,0.0,421.46343016099854,,,,,,,,,421.4510749910041,422.64949763099867,423.45290786999976,423.4366387850023,423.4371180150047,423.45290786999976,423.45290786999976,423.45290786999976,,424.3719183850044,,,,,,,,,,,,,,,,,,,,,,,,,,,,,,right,0.0,0.9113051559979796,,,,,sub-119,1,random_dot,58.94483892963076,
right,right,51.0,1.0,25.0,right,1.0,1.847042706998764,,speed,space,11.518560066004284,,,,,,0.0,1.0,1.0,1.0,25.0,1.0,51.0,1.0,424.3874312710032,,,,,,,,,424.3721948829989,424.7225693900036,425.5250008720032,425.5091174620029,425.5095959649989,425.5250008720032,425.5250008720032,425.5250008720032,,427.3814525830021,,,,,,,,,,,,,,,,,,,,,,,,,,,,,,right,1.0,1.847042706998764,,,,,sub-119,1,random_dot,58.94483892963076,
right,right,52.0,0.0,26.0,right,1.0,0.4353139829981955,,speed,space,11.518560066004284,,,,,,0.0,1.0,1.0,1.0,26.0,0.0,52.0,1.0,427.3954355189999,,,,,,,,,427.38176750799903,428.1816337870041,428.9839007550036,428.9680724420032,428.9685454920036,428.9839007550036,428.9839007550036,428.9839007550036,,429.4217509369992,,,,,,,,,,,,,,,,,,,,,,,,,,,,,,right,1.0,0.4353139829981955,,,,,sub-119,1,random_dot,58.94483892963076,
left,left,53.0,1.0,26.0,right,0.0,0.9464374270028202,,speed,space,11.518560066004284,,,,,,0.0,1.0,1.0,1.0,26.0,1.0,53.0,0.0,429.43471493000106,,,,,,,,,429.4222262760013,429.7858093750037,430.5883751150032,430.5724734920004,430.572956172,430.5883751150032,430.5883751150032,430.5883751150032,,431.5418784670037,,,,,,,,,,,,,,,,,,,,,,,,,,,,,,right,0.0,0.9464374270028202,,,,,sub-119,1,random_dot,58.94483892963076,
left,left,54.0,0.0,27.0,right,0.0,0.9574628850023146,,speed,space,11.518560066004284,,,,,,0.0,1.0,1.0,1.0,27.0,0.0,54.0,0.0,431.5566640800025,,,,,,,,,431.54224097300175,431.6573401429996,432.45989745200495,432.44436412000505,432.44484295500297,432.45989745200495,432.45989745200495,432.45989745200495,,433.4295880630016,,,,,,,,,,,,,,,,,,,,,,,,,,,,,,right,0.0,0.9574628850023146,,,,,sub-119,1,random_dot,58.94483892963076,
right,right,55.0,1.0,27.0,right,1.0,1.4820942989972536,,speed,space,11.518560066004284,,,,,,0.0,1.0,1.0,1.0,27.0,1.0,55.0,1.0,433.4455933749996,,,,,,,,,433.42990210000426,433.52848949000327,434.3311218470044,434.31500801900256,434.3153294490039,434.3311218470044,434.3311218470044,434.3311218470044,,435.81994540500455,,,,,,,,,,,,,,,,,,,,,,,,,,,,,,right,1.0,1.4820942989972536,,,,,sub-119,1,random_dot,58.94483892963076,
right,right,56.0,0.0,28.0,right,1.0,0.6191792149984394,,speed,space,11.518560066004284,,,,,,0.0,1.0,1.0,1.0,28.0,0.0,56.0,1.0,435.8348400770046,,,,,,,,,435.8202389869985,435.9351732700016,436.7378246070002,436.722184160004,436.72265603500273,436.7378246070002,436.7378246070002,436.7378246070002,,437.37393062100455,,,,,,,,,,,,,,,,,,,,,,,,,,,,,,right,1.0,0.6191792149984394,,,,,sub-119,1,random_dot,58.94483892963076,
left,left,57.0,1.0,28.0,right,0.0,0.2568950659988331,,speed,space,11.518560066004284,,,,,,0.0,1.0,1.0,1.0,28.0,1.0,57.0,0.0,437.38878905100137,,,,,,,,,437.3742816570011,438.5761355120048,439.37862763200246,439.3624577650044,439.36293124499934,439.37862763200246,439.37862763200246,439.37862763200246,,439.647057921,,,,,,,,,,,,,,,,,,,,,,,,,,,,,,right,0.0,0.2568950659988331,,,,,sub-119,1,random_dot,58.94483892963076,
right,right,58.0,0.0,29.0,right,1.0,0.339475801003573,,speed,space,11.518560066004284,,,,,,0.0,1.0,1.0,1.0,29.0,0.0,58.0,1.0,439.66134649000014,,,,,,,,,439.6473372980036,439.7618340870031,440.5649505800029,440.5492314549992,440.54973210200114,440.5649505800029,440.5649505800029,440.5649505800029,,440.91709618900495,,,,,,,,,,,,,,,,,,,,,,,,,,,,,,right,1.0,0.339475801003573,,,,,sub-119,1,random_dot,58.94483892963076,
left,left,59.0,1.0,29.0,right,0.0,0.3072918299949378,,speed,space,11.518560066004284,,,,,,0.0,1.0,1.0,1.0,29.0,1.0,59.0,0.0,440.9316472010032,,,,,,,,,440.9174478470013,441.71702872300375,442.5201020220047,442.5042187150029,442.5047010950002,442.5201020220047,442.5201020220047,442.5201020220047,,442.83821070300473,,,,,,,,,,,,,,,,,,,,,,,,,,,,,,right,0.0,0.3072918299949378,,,,,sub-119,1,random_dot,58.94483892963076,
,,1.0,1.0,0.0,,,,,speed,space,11.518560066004284,,,,,,0.0,1.0,1.0,1.0,,,,,,,,,,,,,,,,,,,,,,,,,,,,,,,,,,,,,,,,,,,,,,,,,,,,,,,,,,,,sub-119,1,random_dot,58.94483892963076,
,,,,,,,,,,,,,,,,,,,,,,,,,,,,,,,,,,,,,,,,,,,,,,,,,,,,,,,,,,,,,,,,,,,,,,,,,,,,,442.84260525600257,442.8528633550013,447.8513174550026,sub-119,1,random_dot,58.94483892963076,
