wordCTK,colorCTK,corrAnsCTK,congruentCTK,thisN,thisTrialN,thisRepN,keyResp_CTK.keys,keyResp_CTK.corr,keyResp_CTK.rt,keyResp_CTK.duration,wordPractice,colorPractice,corrAnsPractice,congruentPractice,respPractice.keys,respPractice.corr,respPractice.rt,respPractice.duration,word,color,corrAns,congruent,keyResp_test_run.keys,keyResp_test_run.corr,keyResp_test_run.rt,keyResp_test_run.duration,trials_CTK.thisRepN,trials_CTK.thisTrialN,trials_CTK.thisN,trials_CTK.thisIndex,trials_practice.thisRepN,trials_practice.thisTrialN,trials_practice.thisN,trials_practice.thisIndex,trials_test.thisRepN,trials_test.thisTrialN,trials_test.thisN,trials_test.thisIndex,thisRow.t,notes,instruction.started,instr_text.started,instr_image.started,instr_resp.started,instruction.stopped,instr_resp.keys,instr_resp.rt,instr_resp.duration,instr_color_to_key.started,instr_ctk.started,resp_ctk.started,instr_color_to_key.stopped,resp_ctk.keys,resp_ctk.rt,resp_ctk.duration,ITI.started,fixcross.started,fixcross.stopped,ITI.stopped,color_to_key_run.started,stimulus_CTK.started,keyResp_CTK.started,color_to_key_run.stopped,trials_CTK.keyResp_CTK.keys,trials_CTK.keyResp_CTK.corr,trials_CTK.keyResp_CTK.rt,trials_CTK.keyResp_CTK.duration,instr_practice.started,instr_practice_text.started,instr_practice_resp.started,instr_practice.stopped,instr_practice_resp.keys,instr_practice_resp.rt,instr_practice_resp.duration,practice_run.started,stimulus_practice.started,respPractice.started,practice_run.stopped,trials_practice.respPractice.keys,trials_practice.respPractice.corr,trials_practice.respPractice.rt,trials_practice.respPractice.duration,feedback.started,textFeedback.started,feedback.stopped,textFeedback.stopped,instr_test.started,instr_test_text.started,instr_test_resp.started,instr_test.stopped,instr_test_resp.keys,instr_test_resp.rt,instr_test_resp.duration,test_run.started,stimulus_test_run.started,keyResp_test_run.started,test_run.stopped,trials_test.keyResp_test_run.keys,trials_test.keyResp_test_run.corr,trials_test.keyResp_test_run.rt,trials_test.keyResp_test_run.duration,goodbye.started,textGoodbye.started,goodbye.stopped,participant,session,expName,frameRate,Unnamed: 112
,,,,,,,,,,,,,,,,,,,,,,,,,,,,,,,,,,,,,,,,,0.0128388330003872,0.0219539170002462,0.0219539170002462,0.0219539170002462,2465.6335901249995,space,2465.589773333,,,,,,,,,,,,,,,,,,,,,,,,,,,,,,,,,,,,,,,,,,,,,,,,,,,,,,,,,,sub-121,1,stroop_test,120.5719935366614,
,,,,,,,,,,,,,,,,,,,,,,,,,,,,,,,,,,,,,,,,,,,,,,,,,2465.6337335,2465.644553917001,2465.644553917001,2472.803139542001,space,7.152370083000278,,,,,,,,,,,,,,,,,,,,,,,,,,,,,,,,,,,,,,,,,,,,,,,,,,,sub-121,1,stroop_test,120.5719935366614,
test,yellow,g,1.0,0.0,0.0,0.0,g,1.0,3.920547540999905,,,,,,,,,,,,,,,,,,0.0,0.0,0.0,1.0,,,,,,,,,2472.8561118750013,,,,,,,,,,,,,,,,,2472.83150175,2474.006710750001,2474.814364792,2474.7946905,2474.8053872499995,2474.814364792,2474.814364792,2478.743707083001,g,1.0,3.920547540999905,,,,,,,,,,,,,,,,,,,,,,,,,,,,,,,,,,,,,,,sub-121,1,stroop_test,120.5719935366614,
test,red,r,1.0,1.0,1.0,0.0,r,1.0,0.7157179590012674,,,,,,,,,,,,,,,,,,0.0,1.0,1.0,0.0,,,,,,,,,2478.7562632920008,,,,,,,,,,,,,,,,,2478.744494208001,2479.541168292001,2480.342882708,2480.329731833,2480.330661625,2480.342882708,2480.342882708,2481.074579708001,r,1.0,0.7157179590012674,,,,,,,,,,,,,,,,,,,,,,,,,,,,,,,,,,,,,,,sub-121,1,stroop_test,120.5719935366614,
test,blue,b,1.0,2.0,2.0,0.0,b,1.0,0.4667566250009258,,,,,,,,,,,,,,,,,,0.0,2.0,2.0,2.0,,,,,,,,,2481.081048542,,,,,,,,,,,,,,,,,2481.0751131670013,2481.416238042001,2482.219831417001,2482.2099262500005,2482.2108189170003,2482.219831417001,2482.219831417001,2482.6943666670004,b,1.0,0.4667566250009258,,,,,,,,,,,,,,,,,,,,,,,,,,,,,,,,,,,,,,,sub-121,1,stroop_test,120.5719935366614,
test,yellow,g,1.0,3.0,0.0,1.0,g,1.0,0.6405418329995882,,,,,,,,,,,,,,,,,,1.0,0.0,3.0,1.0,,,,,,,,,2482.7068787920007,,,,,,,,,,,,,,,,,2482.695079625001,2483.887098542001,2484.684675958001,2484.675919167,2484.6766165420004,2484.684675958001,2484.684675958001,2485.3424119580004,g,1.0,0.6405418329995882,,,,,,,,,,,,,,,,,,,,,,,,,,,,,,,,,,,,,,,sub-121,1,stroop_test,120.5719935366614,
test,red,r,1.0,4.0,1.0,1.0,r,1.0,0.6189847500008909,,,,,,,,,,,,,,,,,,1.0,1.0,4.0,0.0,,,,,,,,,2485.348662208001,,,,,,,,,,,,,,,,,2485.3429062080004,2486.533122667,2487.3253102080007,2487.316693958,2487.317383042001,2487.3253102080007,2487.3253102080007,2487.951374042,r,1.0,0.6189847500008909,,,,,,,,,,,,,,,,,,,,,,,,,,,,,,,,,,,,,,,sub-121,1,stroop_test,120.5719935366614,
test,blue,b,1.0,5.0,2.0,1.0,b,1.0,0.9253923329997632,,,,,,,,,,,,,,,,,,1.0,2.0,5.0,2.0,,,,,,,,,2487.9655997500004,,,,,,,,,,,,,,,,,2487.9522895,2488.749786083,2489.542333833001,2489.5337130420003,2489.534388792,2489.542333833001,2489.542333833001,2490.483379792001,b,1.0,0.9253923329997632,,,,,,,,,,,,,,,,,,,,,,,,,,,,,,,,,,,,,,,sub-121,1,stroop_test,120.5719935366614,
test,yellow,g,1.0,6.0,0.0,2.0,g,1.0,0.4296731670001463,,,,,,,,,,,,,,,,,,2.0,0.0,6.0,1.0,,,,,,,,,2490.491668417001,,,,,,,,,,,,,,,,,2490.4840414580003,2490.832343625,2491.628959208,2491.619845875,2491.620552333,2491.628959208,2491.628959208,2492.075070917,g,1.0,0.4296731670001463,,,,,,,,,,,,,,,,,,,,,,,,,,,,,,,,,,,,,,,sub-121,1,stroop_test,120.5719935366614,
test,blue,b,1.0,7.0,1.0,2.0,b,1.0,0.4763708749997022,,,,,,,,,,,,,,,,,,2.0,1.0,7.0,2.0,,,,,,,,,2492.0815581670004,,,,,,,,,,,,,,,,,2492.0755743750005,2492.868045708,2493.669048042001,2493.6590279580005,2493.65996525,2493.669048042001,2493.669048042001,2494.150834083,b,1.0,0.4763708749997022,,,,,,,,,,,,,,,,,,,,,,,,,,,,,,,,,,,,,,,sub-121,1,stroop_test,120.5719935366614,
test,red,r,1.0,8.0,2.0,2.0,r,1.0,0.5541797920013778,,,,,,,,,,,,,,,,,,2.0,2.0,8.0,0.0,,,,,,,,,2494.165503458001,,,,,,,,,,,,,,,,,2494.151675833001,2495.344917667001,2496.14124575,2496.1328956669995,2496.133579708,2496.14124575,2496.14124575,2496.703333833001,r,1.0,0.5541797920013778,,,,,,,,,,,,,,,,,,,,,,,,,,,,,,,,,,,,,,,sub-121,1,stroop_test,120.5719935366614,
test,yellow,g,1.0,9.0,0.0,3.0,g,1.0,0.7033261250016949,,,,,,,,,,,,,,,,,,3.0,0.0,9.0,1.0,,,,,,,,,2496.716612500001,,,,,,,,,,,,,,,,,2496.7042116250004,2496.8013485420006,2497.601455292,2497.592052417001,2497.592970208,2497.601455292,2497.601455292,2498.310947125,g,1.0,0.7033261250016949,,,,,,,,,,,,,,,,,,,,,,,,,,,,,,,,,,,,,,,sub-121,1,stroop_test,120.5719935366614,
test,red,r,1.0,10.0,1.0,3.0,r,1.0,0.5556965420000779,,,,,,,,,,,,,,,,,,3.0,1.0,10.0,0.0,,,,,,,,,2498.325100542,,,,,,,,,,,,,,,,,2498.3118417079995,2498.660541167,2499.477207375,2499.4608017500004,2499.46149775,2499.477207375,2499.477207375,2500.03567375,r,1.0,0.5556965420000779,,,,,,,,,,,,,,,,,,,,,,,,,,,,,,,,,,,,,,,sub-121,1,stroop_test,120.5719935366614,
test,blue,b,1.0,11.0,2.0,3.0,b,1.0,0.7462685410009726,,,,,,,,,,,,,,,,,,3.0,2.0,11.0,2.0,,,,,,,,,2500.048097917,,,,,,,,,,,,,,,,,2500.0364612500007,2500.132295875,2500.9291181670005,2500.919734458,2500.920406208,2500.9291181670005,2500.9291181670005,2501.691339,b,1.0,0.7462685410009726,,,,,,,,,,,,,,,,,,,,,,,,,,,,,,,,,,,,,,,sub-121,1,stroop_test,120.5719935366614,
,,,,,,,,,,,,,,,,,,,,,,,,,,,,,,,,,,,,,,,,,,,,,,,,,,,,,,,,,,,,,,,,,,,,2501.6916054170006,2501.7007134170008,2501.7007134170008,2510.3022370420013,space,8.592973332999463,,,,,,,,,,,,,,,,,,,,,,,,,,,,,,,,sub-121,1,stroop_test,120.5719935366614,
,,,,0.0,0.0,0.0,,,,,gelb,blue,b,0.0,b,1.0,0.619754291999925,,,,,,,,,,,,,,0.0,0.0,0.0,9.0,,,,,2510.340463208001,,,,,,,,,,,,,,,,,2510.327366292001,2510.6490317920006,2511.449981500001,2511.4332520830003,,,,,,,,,,,,,,,,2511.440616125,2511.449981500001,2511.449981500001,2512.078010833001,b,1.0,0.619754291999925,,2512.091246375,2512.107096833,2513.0829119580003,,,,,,,,,,,,,,,,,,,,sub-121,1,stroop_test,120.5719935366614,
,,,,1.0,1.0,0.0,,,,,blau,red,r,0.0,r,1.0,0.4877602920005301,,,,,,,,,,,,,,0.0,1.0,1.0,4.0,,,,,2513.092772000001,,,,,,,,,,,,,,,,,2513.0834685420004,2513.8762464580004,2514.680601750001,2514.661498500001,,,,,,,,,,,,,,,,2514.6709750420005,2514.680601750001,2514.680601750001,2515.179607375,r,1.0,0.4877602920005301,,2515.1804442500006,2515.195127708,2516.1835435420007,,,,,,,,,,,,,,,,,,,,sub-121,1,stroop_test,120.5719935366614,
,,,,2.0,2.0,0.0,,,,,rot,red,r,1.0,r,1.0,0.5438396669997019,,,,,,,,,,,,,,0.0,2.0,2.0,1.0,,,,,2516.193759958001,,,,,,,,,,,,,,,,,2516.1842059170003,2516.528100417,2517.335653292,2517.316556625,,,,,,,,,,,,,,,,2517.325046625,2517.335653292,2517.335653292,2517.888407042,r,1.0,0.5438396669997019,,2517.889738625,2517.907987208001,2518.894289250001,,,,,,,,,,,,,,,,,,,,sub-121,1,stroop_test,120.5719935366614,
,,,,3.0,3.0,0.0,,,,,rot,yellow,g,0.0,g,1.0,0.4782448329988256,,,,,,,,,,,,,,0.0,3.0,3.0,3.0,,,,,2518.900045792,,,,,,,,,,,,,,,,,2518.8949395419995,2520.086178292001,2520.8858859170005,2520.876970792001,,,,,,,,,,,,,,,,2520.8776991250006,2520.8858859170005,2520.8858859170005,2521.3699208750013,g,1.0,0.4782448329988256,,2521.370906542,2521.3848625420005,2522.376476625,,,,,,,,,,,,,,,,,,,,sub-121,1,stroop_test,120.5719935366614,
,,,,4.0,4.0,0.0,,,,,rot,red,r,1.0,r,1.0,0.3910737920014071,,,,,,,,,,,,,,0.0,4.0,4.0,0.0,,,,,2522.3829266250004,,,,,,,,,,,,,,,,,2522.376970875,2523.568730625001,2524.3685531670008,2524.359447708,,,,,,,,,,,,,,,,2524.360167708,2524.3685531670008,2524.3685531670008,2524.7689804169995,r,1.0,0.3910737920014071,,2524.770395542001,2524.786105458,2525.774717667001,,,,,,,,,,,,,,,,,,,,sub-121,1,stroop_test,120.5719935366614,
,,,,5.0,5.0,0.0,,,,,blau,blue,b,1.0,b,1.0,0.5613156670005992,,,,,,,,,,,,,,0.0,5.0,5.0,6.0,,,,,2525.7811742500007,,,,,,,,,,,,,,,,,2525.7752480829995,2526.117323833,2526.9234903330007,2526.910190167001,,,,,,,,,,,,,,,,2526.914804750001,2526.9234903330007,2526.9234903330007,2527.488497417001,b,1.0,0.5613156670005992,,2527.4898490000005,2527.5076947080006,2528.492463292,,,,,,,,,,,,,,,,,,,,sub-121,1,stroop_test,120.5719935366614,
,,,,6.0,6.0,0.0,,,,,gelb,red,r,0.0,r,1.0,1.038143333000335,,,,,,,,,,,,,,0.0,6.0,6.0,8.0,,,,,2528.498927708001,,,,,,,,,,,,,,,,,2528.492977000001,2529.283979792,2530.088472625,2530.075124917,,,,,,,,,,,,,,,,2530.0797206670004,2530.088472625,2530.088472625,2531.1305566670007,r,1.0,1.038143333000335,,2531.1317680830007,2531.147421208,2532.1427710420003,,,,,,,,,,,,,,,,,,,,sub-121,1,stroop_test,120.5719935366614,
,,,,7.0,7.0,0.0,,,,,blau,yellow,g,0.0,g,1.0,0.3779582499992102,,,,,,,,,,,,,,0.0,7.0,7.0,7.0,,,,,2532.1593547500006,,,,,,,,,,,,,,,,,2532.143390875,2533.3435196670007,2534.150929875,2534.1339771249995,,,,,,,,,,,,,,,,2534.140754542,2534.150929875,2534.150929875,2534.5343444170003,g,1.0,0.3779582499992102,,2534.535382917001,2534.549212833,2535.5349300000007,,,,,,,,,,,,,,,,,,,,sub-121,1,stroop_test,120.5719935366614,
,,,,8.0,8.0,0.0,,,,,gelb,yellow,g,1.0,g,1.0,0.5025062499989872,,,,,,,,,,,,,,0.0,8.0,8.0,11.0,,,,,2535.544511000001,,,,,,,,,,,,,,,,,2535.5355925000013,2536.332983333,2537.1328286670005,2537.117144625,,,,,,,,,,,,,,,,2537.1227241670013,2537.1328286670005,2537.1328286670005,2537.644721625001,g,1.0,0.5025062499989872,,2537.646131583001,2537.6624075419995,2538.650581583,,,,,,,,,,,,,,,,,,,,sub-121,1,stroop_test,120.5719935366614,
,,,,9.0,9.0,0.0,,,,,gelb,yellow,g,1.0,g,1.0,0.3966955000014422,,,,,,,,,,,,,,0.0,9.0,9.0,10.0,,,,,2538.6604676670004,,,,,,,,,,,,,,,,,2538.651149667,2539.4447840830007,2540.252900583001,2540.243819667,,,,,,,,,,,,,,,,2540.244543,2540.252900583001,2540.252900583001,2540.6530711250007,g,1.0,0.3966955000014422,,2540.654423750001,2540.6702178330006,2541.659568375001,,,,,,,,,,,,,,,,,,,,sub-121,1,stroop_test,120.5719935366614,
,,,,10.0,10.0,0.0,,,,,blau,blue,b,1.0,b,1.0,0.6070029160000558,,,,,,,,,,,,,,0.0,10.0,10.0,5.0,,,,,2541.665954000001,,,,,,,,,,,,,,,,,2541.660082333,2541.999075167,2542.796023667,2542.783722542,,,,,,,,,,,,,,,,2542.7880144170003,2542.796023667,2542.796023667,2543.4136232499995,b,1.0,0.6070029160000558,,2543.414441125001,2543.4286083750003,2544.415441958,,,,,,,,,,,,,,,,,,,,sub-121,1,stroop_test,120.5719935366614,
,,,,11.0,11.0,0.0,,,,,rot,blue,b,0.0,b,1.0,0.5743990000009944,,,,,,,,,,,,,,0.0,11.0,11.0,2.0,,,,,2544.4262481670003,,,,,,,,,,,,,,,,,2544.416012625,2544.5106570420003,2545.312176708,2545.2996281250007,,,,,,,,,,,,,,,,2545.303800167,2545.312176708,2545.312176708,2545.89345975,b,1.0,0.5743990000009944,,2545.894683583,2545.909078,2546.894398417001,2546.901264958001,,,,,,,,,,,,,,,,,,,sub-121,1,stroop_test,120.5719935366614,
,,,,12.0,0.0,1.0,,,,,blau,blue,b,1.0,b,1.0,0.4819731660008983,,,,,,,,,,,,,,1.0,0.0,12.0,5.0,,,,,2546.901264958001,,,,,,,,,,,,,,,,,2546.895060917,2548.0854159170003,2548.889338167,2548.8760572500005,,,,,,,,,,,,,,,,2548.880743875,2548.889338167,2548.889338167,2549.3777920830007,b,1.0,0.4819731660008983,,2549.3790211250007,2549.393522917001,2550.3769215420007,2550.383584708,,,,,,,,,,,,,,,,,,,sub-121,1,stroop_test,120.5719935366614,
,,,,13.0,1.0,1.0,,,,,blau,red,r,0.0,r,1.0,0.4729185000014695,,,,,,,,,,,,,,1.0,1.0,13.0,4.0,,,,,2550.383584708,,,,,,,,,,,,,,,,,2550.3773935830004,2550.727250750001,2551.527690417,2551.516918667,,,,,,,,,,,,,,,,2551.517772417,2551.527690417,2551.527690417,2552.004661208,r,1.0,0.4729185000014695,,2552.005871542001,2552.020001458,2553.0089695,,,,,,,,,,,,,,,,,,,,sub-121,1,stroop_test,120.5719935366614,
,,,,14.0,2.0,1.0,,,,,gelb,yellow,g,1.0,g,1.0,0.4838598750011442,,,,,,,,,,,,,,1.0,2.0,14.0,11.0,,,,,2553.0152642500007,,,,,,,,,,,,,,,,,2553.009427667,2553.349587417001,2554.151504833001,2554.135408000001,,,,,,,,,,,,,,,,2554.141097042001,2554.151504833001,2554.151504833001,2554.644632542001,g,1.0,0.4838598750011442,,2554.64605425,2554.662151583,2555.6497680830007,,,,,,,,,,,,,,,,,,,,sub-121,1,stroop_test,120.5719935366614,
,,,,15.0,3.0,1.0,,,,,gelb,red,r,0.0,r,1.0,0.4597914169989963,,,,,,,,,,,,,,1.0,3.0,15.0,8.0,,,,,2555.6604471670007,,,,,,,,,,,,,,,,,2555.6504197080003,2555.985771292001,2556.785395125001,2556.776854292001,,,,,,,,,,,,,,,,2556.7775021669995,2556.785395125001,2556.785395125001,2557.252491708,r,1.0,0.4597914169989963,,2557.253903375001,2557.269696958,2558.2606277920013,,,,,,,,,,,,,,,,,,,,sub-121,1,stroop_test,120.5719935366614,
,,,,16.0,4.0,1.0,,,,,gelb,yellow,g,1.0,g,1.0,0.5292233330001181,,,,,,,,,,,,,,1.0,4.0,16.0,10.0,,,,,2558.2672235420005,,,,,,,,,,,,,,,,,2558.261150458001,2558.3518634170005,2559.1534073330013,2559.141969208001,,,,,,,,,,,,,,,,2559.142853792001,2559.1534073330013,2559.1534073330013,2559.686882292,g,1.0,0.5292233330001181,,2559.688290250001,2559.704589125001,2560.694959583,,,,,,,,,,,,,,,,,,,,sub-121,1,stroop_test,120.5719935366614,
,,,,17.0,5.0,1.0,,,,,gelb,blue,b,0.0,b,1.0,0.4896757500009698,,,,,,,,,,,,,,1.0,5.0,17.0,9.0,,,,,2560.7022821670007,,,,,,,,,,,,,,,,,2560.695737000001,2561.4846831250006,2562.2786760830013,2562.2694313330003,,,,,,,,,,,,,,,,2562.2701190420003,2562.2786760830013,2562.2786760830013,2562.7771255830003,b,1.0,0.4896757500009698,,2562.778339167001,2562.7924648750004,2563.7769537920003,2563.783415583,,,,,,,,,,,,,,,,,,,sub-121,1,stroop_test,120.5719935366614,
,,,,18.0,6.0,1.0,,,,,rot,blue,b,0.0,b,1.0,0.4201242079998337,,,,,,,,,,,,,,1.0,6.0,18.0,2.0,,,,,2563.783415583,,,,,,,,,,,,,,,,,2563.777418167,2564.967217875,2565.775516292001,2565.7613971250003,,,,,,,,,,,,,,,,2565.766113292001,2565.775516292001,2565.775516292001,2566.2115506670007,b,1.0,0.4201242079998337,,2566.212337,2566.2262708749995,2567.2259871670003,,,,,,,,,,,,,,,,,,,,sub-121,1,stroop_test,120.5719935366614,
,,,,19.0,7.0,1.0,,,,,blau,blue,b,1.0,b,1.0,0.5205740829987917,,,,,,,,,,,,,,1.0,7.0,19.0,6.0,,,,,2567.242971042001,,,,,,,,,,,,,,,,,2567.226500208001,2568.402400458,2569.209345167,2569.193766708001,,,,,,,,,,,,,,,,2569.199845917,2569.209345167,2569.209345167,2569.734225125,b,1.0,0.5205740829987917,,2569.735271625,2569.7485835830003,2570.734590208001,2570.743787375,,,,,,,,,,,,,,,,,,,sub-121,1,stroop_test,120.5719935366614,
,,,,20.0,8.0,1.0,,,,,rot,yellow,g,0.0,r,0.0,0.4858979590007948,,,,,,,,,,,,,,1.0,8.0,20.0,3.0,,,,,2570.743787375,,,,,,,,,,,,,,,,,2570.735052375,2571.9280336250004,2572.728862125,2572.716676083,,,,,,,,,,,,,,,,2572.720855625,2572.728862125,2572.728862125,2573.218869792,r,0.0,0.4858979590007948,,2573.228642792,2573.245943250001,2574.225701667,,,,,,,,,,,,,,,,,,,,sub-121,1,stroop_test,120.5719935366614,
,,,,21.0,9.0,1.0,,,,,rot,red,r,1.0,r,1.0,0.6751926249999087,,,,,,,,,,,,,,1.0,9.0,21.0,1.0,,,,,2574.2318494580004,,,,,,,,,,,,,,,,,2574.226187917001,2574.3153757500013,2575.112274792001,2575.1033140829995,,,,,,,,,,,,,,,,2575.104022125,2575.112274792001,2575.112274792001,2575.795415875001,r,1.0,0.6751926249999087,,2575.802536833001,2575.820055917001,2576.800767958,,,,,,,,,,,,,,,,,,,,sub-121,1,stroop_test,120.5719935366614,
,,,,22.0,10.0,1.0,,,,,blau,yellow,g,0.0,g,1.0,0.5311807079997379,,,,,,,,,,,,,,1.0,10.0,22.0,7.0,,,,,2576.810588042,,,,,,,,,,,,,,,,,2576.801513417001,2576.884961375,2577.683925333001,2577.668719792001,,,,,,,,,,,,,,,,2577.674529750001,2577.683925333001,2577.683925333001,2578.220367583,g,1.0,0.5311807079997379,,2578.2214495,2578.236719333,2579.2273993749995,,,,,,,,,,,,,,,,,,,,sub-121,1,stroop_test,120.5719935366614,
,,,,23.0,11.0,1.0,,,,,rot,red,r,1.0,r,1.0,0.509406625000338,,,,,,,,,,,,,,1.0,11.0,23.0,0.0,,,,,2579.2344621250004,,,,,,,,,,,,,,,,,2579.2280157920004,2580.413309542001,2581.2245001670008,2581.209645417,,,,,,,,,,,,,,,,2581.215536083001,2581.2245001670008,2581.2245001670008,2581.743789000001,r,1.0,0.509406625000338,,2581.745027,2581.759443458,2582.742890208,2582.751930208001,,,,,,,,,,,,,,,,,,,sub-121,1,stroop_test,120.5719935366614,
,,,,,,,,,,,,,,,,,,,,,,,,,,,,,,,,,,,,,,,,,,,,,,,,,,,,,,,,,,,,,,,,,,,,,,,,,,,,,,,,,,,,,,,2582.7430701250005,2582.751930208001,2582.751930208001,2593.945666792001,space,11.186999249999644,,,,,,,,,,,,,sub-121,1,stroop_test,120.5719935366614,
,,,,0.0,0.0,0.0,,,,,,,,,,,,,rot,red,r,1.0,r,1.0,1.020034332999785,,,,,,,,,,0.0,0.0,0.0,0.0,2593.9875848750007,,,,,,,,,,,,,,,,,2593.973595583001,2594.2921560000004,2595.0904409170007,2595.076702208001,,,,,,,,,,,,,,,,,,,,,,,,,,,,,,,,,,,2595.081322250001,2595.0904409170007,2595.0904409170007,2596.1279010000007,r,1.0,1.020034332999785,,,,,sub-121,1,stroop_test,120.5719935366614,
,,,,1.0,1.0,0.0,,,,,,,,,,,,,gelb,yellow,g,1.0,g,1.0,0.790634291999595,,,,,,,,,,0.0,1.0,1.0,11.0,2596.142198625,,,,,,,,,,,,,,,,,2596.1284706670003,2596.2254803330006,2597.024796750001,2597.0105069579995,,,,,,,,,,,,,,,,,,,,,,,,,,,,,,,,,,,2597.01605125,2597.024796750001,2597.024796750001,2597.8201490830006,g,1.0,0.790634291999595,,,,,sub-121,1,stroop_test,120.5719935366614,
,,,,2.0,2.0,0.0,,,,,,,,,,,,,gelb,blue,b,0.0,b,1.0,0.5335279580012866,,,,,,,,,,0.0,2.0,2.0,9.0,2597.8336817080008,,,,,,,,,,,,,,,,,2597.821169375001,2598.167116208001,2598.961947625,2598.952871458,,,,,,,,,,,,,,,,,,,,,,,,,,,,,,,,,,,2598.953724167,2598.961947625,2598.961947625,2599.500364583001,b,1.0,0.5335279580012866,,,,,sub-121,1,stroop_test,120.5719935366614,
,,,,3.0,3.0,0.0,,,,,,,,,,,,,rot,yellow,g,0.0,g,1.0,0.58606141600103,,,,,,,,,,0.0,3.0,3.0,3.0,2599.514653083,,,,,,,,,,,,,,,,,2599.501138458,2600.300669458001,2601.1071075419995,2601.0927762500005,,,,,,,,,,,,,,,,,,,,,,,,,,,,,,,,,,,2601.096901667,2601.1071075419995,2601.1071075419995,2601.700589375,g,1.0,0.58606141600103,,,,,sub-121,1,stroop_test,120.5719935366614,
,,,,4.0,4.0,0.0,,,,,,,,,,,,,rot,blue,b,0.0,r,0.0,1.1269909579987143,,,,,,,,,,0.0,4.0,4.0,2.0,2601.7150799170004,,,,,,,,,,,,,,,,,2601.701352292,2602.4956945000004,2603.287813417,2603.278772542001,,,,,,,,,,,,,,,,,,,,,,,,,,,,,,,,,,,2603.279472708001,2603.287813417,2603.287813417,2604.419555208001,r,0.0,1.1269909579987143,,,,,sub-121,1,stroop_test,120.5719935366614,
,,,,5.0,5.0,0.0,,,,,,,,,,,,,gelb,yellow,g,1.0,g,1.0,0.7462789999990491,,,,,,,,,,0.0,5.0,5.0,10.0,2604.433041333,,,,,,,,,,,,,,,,,2604.420596250001,2604.5175056670005,2605.317324333001,2605.302140042001,,,,,,,,,,,,,,,,,,,,,,,,,,,,,,,,,,,2605.307965500001,2605.317324333001,2605.317324333001,2606.071394333,g,1.0,0.7462789999990491,,,,,sub-121,1,stroop_test,120.5719935366614,
,,,,6.0,6.0,0.0,,,,,,,,,,,,,gelb,red,r,0.0,r,1.0,0.6768001670006925,,,,,,,,,,0.0,6.0,6.0,8.0,2606.0839614999995,,,,,,,,,,,,,,,,,2606.072346125001,2607.2681766670003,2608.0680532920005,2608.059158625,,,,,,,,,,,,,,,,,,,,,,,,,,,,,,,,,,,2608.059882833001,2608.0680532920005,2608.0680532920005,2608.752685375,r,1.0,0.6768001670006925,,,,,sub-121,1,stroop_test,120.5719935366614,
,,,,7.0,7.0,0.0,,,,,,,,,,,,,blau,red,r,0.0,r,1.0,0.4526774589994602,,,,,,,,,,0.0,7.0,7.0,4.0,2608.764967083001,,,,,,,,,,,,,,,,,2608.753403458001,2609.951080667,2610.759787208,2610.743261125,,,,,,,,,,,,,,,,,,,,,,,,,,,,,,,,,,,2610.750194667001,2610.759787208,2610.759787208,2611.220066042001,r,1.0,0.4526774589994602,,,,,sub-121,1,stroop_test,120.5719935366614,
,,,,8.0,8.0,0.0,,,,,,,,,,,,,rot,red,r,1.0,r,1.0,0.4338160409988632,,,,,,,,,,0.0,8.0,8.0,1.0,2611.232146083,,,,,,,,,,,,,,,,,2611.220818250001,2611.567373500001,2612.3766246250007,2612.360420458,,,,,,,,,,,,,,,,,,,,,,,,,,,,,,,,,,,2612.366202375001,2612.3766246250007,2612.3766246250007,2612.814321125,r,1.0,0.4338160409988632,,,,,sub-121,1,stroop_test,120.5719935366614,
,,,,9.0,9.0,0.0,,,,,,,,,,,,,blau,yellow,g,0.0,g,1.0,0.5916312919998745,,,,,,,,,,0.0,9.0,9.0,7.0,2612.827085375001,,,,,,,,,,,,,,,,,2612.815090375,2614.0084384579995,2614.8095821670004,2614.794780333,,,,,,,,,,,,,,,,,,,,,,,,,,,,,,,,,,,2614.799482583,2614.8095821670004,2614.8095821670004,2615.4134253330003,g,1.0,0.5916312919998745,,,,,sub-121,1,stroop_test,120.5719935366614,
,,,,10.0,10.0,0.0,,,,,,,,,,,,,blau,blue,b,1.0,b,1.0,0.7391936250005529,,,,,,,,,,0.0,10.0,10.0,6.0,2615.4269063750007,,,,,,,,,,,,,,,,,2615.414467,2616.209641958,2617.0027865420006,2616.9940265,,,,,,,,,,,,,,,,,,,,,,,,,,,,,,,,,,,2616.994783292,2617.0027865420006,2617.0027865420006,2617.744514375,b,1.0,0.7391936250005529,,,,,sub-121,1,stroop_test,120.5719935366614,
,,,,11.0,11.0,0.0,,,,,,,,,,,,,blau,blue,b,1.0,b,1.0,0.5154597090004245,,,,,,,,,,0.0,11.0,11.0,5.0,2617.7571672080003,,,,,,,,,,,,,,,,,2617.745317875001,2618.541062458001,2619.3379259170006,2619.329004458,,,,,,,,,,,,,,,,,,,,,,,,,,,,,,,,,,,2619.3297962080005,2619.3379259170006,2619.3379259170006,2619.878220458001,b,1.0,0.5154597090004245,,,,,sub-121,1,stroop_test,120.5719935366614,
,,,,12.0,0.0,1.0,,,,,,,,,,,,,blau,blue,b,1.0,b,1.0,0.5160192920011468,,,,,,,,,,1.0,0.0,12.0,6.0,2619.8912008750003,,,,,,,,,,,,,,,,,2619.879079292,2621.069167208,2621.867925667001,2621.858989583,,,,,,,,,,,,,,,,,,,,,,,,,,,,,,,,,,,2621.8597110420005,2621.867925667001,2621.867925667001,2622.395563625,b,1.0,0.5160192920011468,,,,,sub-121,1,stroop_test,120.5719935366614,
,,,,13.0,1.0,1.0,,,,,,,,,,,,,gelb,red,r,0.0,r,1.0,0.4471582080004737,,,,,,,,,,1.0,1.0,13.0,8.0,2622.4097451669995,,,,,,,,,,,,,,,,,2622.3966117500013,2623.1928059169995,2623.99508,2623.9823377500006,,,,,,,,,,,,,,,,,,,,,,,,,,,,,,,,,,,2623.9866347920006,2623.99508,2623.99508,2624.4452118750005,r,1.0,0.4471582080004737,,,,,sub-121,1,stroop_test,120.5719935366614,
,,,,14.0,2.0,1.0,,,,,,,,,,,,,rot,red,r,1.0,r,1.0,0.523954499998581,,,,,,,,,,1.0,2.0,14.0,0.0,2624.458200708,,,,,,,,,,,,,,,,,2624.4460890830005,2625.642844000001,2626.444623917,2626.429569583,,,,,,,,,,,,,,,,,,,,,,,,,,,,,,,,,,,2626.43371425,2626.444623917,2626.444623917,2626.976748458,r,1.0,0.523954499998581,,,,,sub-121,1,stroop_test,120.5719935366614,
,,,,15.0,3.0,1.0,,,,,,,,,,,,,gelb,blue,b,0.0,b,1.0,0.7198389579989453,,,,,,,,,,1.0,3.0,15.0,9.0,2626.9898468750007,,,,,,,,,,,,,,,,,2626.9776431670007,2627.075413875001,2627.873064208,2627.8597115420007,,,,,,,,,,,,,,,,,,,,,,,,,,,,,,,,,,,2627.864294375001,2627.873064208,2627.873064208,2628.5960208330007,b,1.0,0.7198389579989453,,,,,sub-121,1,stroop_test,120.5719935366614,
,,,,16.0,4.0,1.0,,,,,,,,,,,,,gelb,yellow,g,1.0,g,1.0,0.5323236249987531,,,,,,,,,,1.0,4.0,16.0,11.0,2628.610082583001,,,,,,,,,,,,,,,,,2628.596905792,2628.692403875001,2629.484878167,2629.475994292,,,,,,,,,,,,,,,,,,,,,,,,,,,,,,,,,,,2629.4767404170007,2629.484878167,2629.484878167,2630.027479333,g,1.0,0.5323236249987531,,,,,sub-121,1,stroop_test,120.5719935366614,
,,,,17.0,5.0,1.0,,,,,,,,,,,,,rot,red,r,1.0,r,1.0,0.4626354579995677,,,,,,,,,,1.0,5.0,17.0,1.0,2630.040646708,,,,,,,,,,,,,,,,,2630.0283558750007,2631.2206895829995,2632.0432709999995,2632.0275315830013,,,,,,,,,,,,,,,,,,,,,,,,,,,,,,,,,,,2632.0333299580006,2632.0432709999995,2632.0432709999995,2632.5114382500005,r,1.0,0.4626354579995677,,,,,sub-121,1,stroop_test,120.5719935366614,
,,,,18.0,6.0,1.0,,,,,,,,,,,,,gelb,yellow,g,1.0,g,1.0,0.5091652499995689,,,,,,,,,,1.0,6.0,18.0,10.0,2632.524615917001,,,,,,,,,,,,,,,,,2632.5123171250007,2632.858752833,2633.667424875,2633.648992792,,,,,,,,,,,,,,,,,,,,,,,,,,,,,,,,,,,2633.656584458001,2633.667424875,2633.667424875,2634.185086792001,g,1.0,0.5091652499995689,,,,,sub-121,1,stroop_test,120.5719935366614,
,,,,19.0,7.0,1.0,,,,,,,,,,,,,blau,blue,b,1.0,b,1.0,0.4030196660005458,,,,,,,,,,1.0,7.0,19.0,5.0,2634.198655500001,,,,,,,,,,,,,,,,,2634.186117667,2634.983040375001,2635.7789433750013,2635.7668341670005,,,,,,,,,,,,,,,,,,,,,,,,,,,,,,,,,,,2635.771146208,2635.7789433750013,2635.7789433750013,2636.184843708,b,1.0,0.4030196660005458,,,,,sub-121,1,stroop_test,120.5719935366614,
,,,,20.0,8.0,1.0,,,,,,,,,,,,,rot,blue,b,0.0,b,1.0,0.5908864170014567,,,,,,,,,,1.0,8.0,20.0,2.0,2636.1982405830013,,,,,,,,,,,,,,,,,2636.185494625,2636.9848372080005,2637.7920700000004,2637.776273333001,,,,,,,,,,,,,,,,,,,,,,,,,,,,,,,,,,,2637.782298125,2637.7920700000004,2637.7920700000004,2638.399218458001,b,1.0,0.5908864170014567,,,,,sub-121,1,stroop_test,120.5719935366614,
,,,,21.0,9.0,1.0,,,,,,,,,,,,,rot,yellow,g,0.0,g,1.0,0.5742277079989435,,,,,,,,,,1.0,9.0,21.0,3.0,2638.407678458,,,,,,,,,,,,,,,,,2638.3997909580003,2639.194480333,2639.991603083,2639.979276375,,,,,,,,,,,,,,,,,,,,,,,,,,,,,,,,,,,2639.980066333,2639.991603083,2639.991603083,2640.5686823330007,g,1.0,0.5742277079989435,,,,,sub-121,1,stroop_test,120.5719935366614,
,,,,22.0,10.0,1.0,,,,,,,,,,,,,blau,yellow,g,0.0,g,1.0,0.3756924170011189,,,,,,,,,,1.0,10.0,22.0,7.0,2640.581390958,,,,,,,,,,,,,,,,,2640.56955775,2641.7689571670007,2642.573975208,2642.559382167,,,,,,,,,,,,,,,,,,,,,,,,,,,,,,,,,,,2642.563588958,2642.573975208,2642.573975208,2642.9524360000005,g,1.0,0.3756924170011189,,,,,sub-121,1,stroop_test,120.5719935366614,
,,,,23.0,11.0,1.0,,,,,,,,,,,,,blau,red,r,0.0,r,1.0,0.6298930410011963,,,,,,,,,,1.0,11.0,23.0,4.0,2642.964516125,,,,,,,,,,,,,,,,,2642.953283625001,2643.048571333001,2643.8450019170004,2643.833999417001,,,,,,,,,,,,,,,,,,,,,,,,,,,,,,,,,,,2643.8348987500003,2643.8450019170004,2643.8450019170004,2644.4784548750004,r,1.0,0.6298930410011963,,,,,sub-121,1,stroop_test,120.5719935366614,
,,,,24.0,0.0,2.0,,,,,,,,,,,,,rot,blue,b,0.0,b,1.0,0.4179517499997018,,,,,,,,,,2.0,0.0,24.0,2.0,2644.491341708,,,,,,,,,,,,,,,,,2644.4790819580003,2644.576002833,2645.3838866670003,2645.366886792,,,,,,,,,,,,,,,,,,,,,,,,,,,,,,,,,,,2645.372490833,2645.3838866670003,2645.3838866670003,2645.814010583,b,1.0,0.4179517499997018,,,,,sub-121,1,stroop_test,120.5719935366614,
,,,,25.0,1.0,2.0,,,,,,,,,,,,,gelb,blue,b,0.0,b,1.0,0.4800612079998245,,,,,,,,,,2.0,1.0,25.0,9.0,2645.826113833001,,,,,,,,,,,,,,,,,2645.814711208,2647.020299625,2647.8286927500003,2647.809684750001,,,,,,,,,,,,,,,,,,,,,,,,,,,,,,,,,,,2647.817357542,2647.8286927500003,2647.8286927500003,2648.312643792001,b,1.0,0.4800612079998245,,,,,sub-121,1,stroop_test,120.5719935366614,
,,,,26.0,2.0,2.0,,,,,,,,,,,,,blau,red,r,0.0,r,1.0,0.671126417000778,,,,,,,,,,2.0,2.0,26.0,4.0,2648.327017750001,,,,,,,,,,,,,,,,,2648.3136028750005,2649.5073454580006,2650.31005275,2650.292887167,,,,,,,,,,,,,,,,,,,,,,,,,,,,,,,,,,,2650.299647833,2650.31005275,2650.31005275,2650.985468917,r,1.0,0.671126417000778,,,,,sub-121,1,stroop_test,120.5719935366614,
,,,,27.0,3.0,2.0,,,,,,,,,,,,,rot,red,r,1.0,r,1.0,0.4098705840006005,,,,,,,,,,2.0,3.0,27.0,0.0,2650.999108333,,,,,,,,,,,,,,,,,2650.98648375,2652.1824998330003,2652.991589708,2652.9757155,,,,,,,,,,,,,,,,,,,,,,,,,,,,,,,,,,,2652.981676958,2652.991589708,2652.991589708,2653.410696125001,r,1.0,0.4098705840006005,,,,,sub-121,1,stroop_test,120.5719935366614,
,,,,28.0,4.0,2.0,,,,,,,,,,,,,gelb,yellow,g,1.0,g,1.0,0.3250442919998022,,,,,,,,,,2.0,4.0,28.0,10.0,2653.425104750001,,,,,,,,,,,,,,,,,2653.411630875001,2654.6078255420007,2655.4094018330006,2655.392326458,,,,,,,,,,,,,,,,,,,,,,,,,,,,,,,,,,,2655.399500875,2655.4094018330006,2655.4094018330006,2655.744390083001,g,1.0,0.3250442919998022,,,,,sub-121,1,stroop_test,120.5719935366614,
,,,,29.0,5.0,2.0,,,,,,,,,,,,,blau,blue,b,1.0,b,1.0,0.4882710419988143,,,,,,,,,,2.0,5.0,29.0,6.0,2655.758691625001,,,,,,,,,,,,,,,,,2655.7454216670003,2655.8423025,2656.640085417,2656.6266355830003,,,,,,,,,,,,,,,,,,,,,,,,,,,,,,,,,,,2656.6312599170005,2656.640085417,2656.640085417,2657.134498042001,b,1.0,0.4882710419988143,,,,,sub-121,1,stroop_test,120.5719935366614,
,,,,30.0,6.0,2.0,,,,,,,,,,,,,gelb,red,r,0.0,r,1.0,0.3246313749987166,,,,,,,,,,2.0,6.0,30.0,8.0,2657.147847708001,,,,,,,,,,,,,,,,,2657.135247500001,2657.232380375,2658.0339854170006,2658.0191621250005,,,,,,,,,,,,,,,,,,,,,,,,,,,,,,,,,,,2658.024850875,2658.0339854170006,2658.0339854170006,2658.3638883329995,r,1.0,0.3246313749987166,,,,,sub-121,1,stroop_test,120.5719935366614,
,,,,31.0,7.0,2.0,,,,,,,,,,,,,rot,yellow,g,0.0,g,1.0,0.5680950409987418,,,,,,,,,,2.0,7.0,31.0,3.0,2658.3771308330006,,,,,,,,,,,,,,,,,2658.364788708,2658.4583818750007,2659.2589994170003,2659.2431407920003,,,,,,,,,,,,,,,,,,,,,,,,,,,,,,,,,,,2659.249070625,2659.2589994170003,2659.2589994170003,2659.834780917,g,1.0,0.5680950409987418,,,,,sub-121,1,stroop_test,120.5719935366614,
,,,,32.0,8.0,2.0,,,,,,,,,,,,,blau,yellow,g,0.0,g,1.0,0.599161041998741,,,,,,,,,,2.0,8.0,32.0,7.0,2659.848086625,,,,,,,,,,,,,,,,,2659.835503083,2659.9324680830005,2660.732368667,2660.716689875001,,,,,,,,,,,,,,,,,,,,,,,,,,,,,,,,,,,2660.722397542001,2660.732368667,2660.732368667,2661.336842625001,g,1.0,0.599161041998741,,,,,sub-121,1,stroop_test,120.5719935366614,
,,,,33.0,9.0,2.0,,,,,,,,,,,,,blau,blue,b,1.0,b,1.0,0.732690791001005,,,,,,,,,,2.0,9.0,33.0,5.0,2661.3503825420003,,,,,,,,,,,,,,,,,2661.3378017080004,2661.435500583001,2662.237593375,2662.227389333001,,,,,,,,,,,,,,,,,,,,,,,,,,,,,,,,,,,2662.228266958001,2662.237593375,2662.237593375,2662.977817,b,1.0,0.732690791001005,,,,,sub-121,1,stroop_test,120.5719935366614,
,,,,34.0,10.0,2.0,,,,,,,,,,,,,gelb,yellow,g,1.0,g,1.0,0.5817606250002427,,,,,,,,,,2.0,10.0,34.0,11.0,2662.990873167001,,,,,,,,,,,,,,,,,2662.978690792,2663.324492500001,2664.1267359170006,2664.1109332080005,,,,,,,,,,,,,,,,,,,,,,,,,,,,,,,,,,,2664.1169376669995,2664.1267359170006,2664.1267359170006,2664.7113147500013,g,1.0,0.5817606250002427,,,,,sub-121,1,stroop_test,120.5719935366614,
,,,,35.0,11.0,2.0,,,,,,,,,,,,,rot,red,r,1.0,r,1.0,0.3248391670003911,,,,,,,,,,2.0,11.0,35.0,1.0,2664.724444875,,,,,,,,,,,,,,,,,2664.712181375001,2665.5028175,2666.3081824170013,2666.292492167001,,,,,,,,,,,,,,,,,,,,,,,,,,,,,,,,,,,2666.298460583,2666.3081824170013,2666.3081824170013,2666.636304625,r,1.0,0.3248391670003911,,,,,sub-121,1,stroop_test,120.5719935366614,
,,,,36.0,0.0,3.0,,,,,,,,,,,,,rot,red,r,1.0,r,1.0,0.3333962919987243,,,,,,,,,,3.0,0.0,36.0,0.0,2666.6494505,,,,,,,,,,,,,,,,,2666.637298583001,2666.983786708,2667.7787890419995,2667.76788375,,,,,,,,,,,,,,,,,,,,,,,,,,,,,,,,,,,2667.7685780830006,2667.7787890419995,2667.7787890419995,2668.1176773750003,r,1.0,0.3333962919987243,,,,,sub-121,1,stroop_test,120.5719935366614,
,,,,37.0,1.0,3.0,,,,,,,,,,,,,rot,yellow,g,0.0,g,1.0,0.4759063749988854,,,,,,,,,,3.0,1.0,37.0,3.0,2668.131077500001,,,,,,,,,,,,,,,,,2668.118262792,2668.2152579170006,2669.01124225,2669.001201958,,,,,,,,,,,,,,,,,,,,,,,,,,,,,,,,,,,2669.002054708001,2669.01124225,2669.01124225,2669.494181917001,g,1.0,0.4759063749988854,,,,,sub-121,1,stroop_test,120.5719935366614,
,,,,38.0,2.0,3.0,,,,,,,,,,,,,blau,red,r,0.0,r,1.0,0.3546097500002361,,,,,,,,,,3.0,2.0,38.0,4.0,2669.507635542,,,,,,,,,,,,,,,,,2669.4950180000005,2670.292015708,2671.090145333,2671.076654917001,,,,,,,,,,,,,,,,,,,,,,,,,,,,,,,,,,,2671.0812977920004,2671.090145333,2671.090145333,2671.452857250001,r,1.0,0.3546097500002361,,,,,sub-121,1,stroop_test,120.5719935366614,
,,,,39.0,3.0,3.0,,,,,,,,,,,,,blau,blue,b,1.0,b,1.0,0.3921826249988953,,,,,,,,,,3.0,3.0,39.0,5.0,2671.466355208001,,,,,,,,,,,,,,,,,2671.453898375,2672.253477667001,2673.0759848750013,2673.059656042001,,,,,,,,,,,,,,,,,,,,,,,,,,,,,,,,,,,2673.060340250001,2673.0759848750013,2673.0759848750013,2673.477646708,b,1.0,0.3921826249988953,,,,,sub-121,1,stroop_test,120.5719935366614,
,,,,40.0,4.0,3.0,,,,,,,,,,,,,rot,red,r,1.0,r,1.0,0.5091627919991879,,,,,,,,,,3.0,4.0,40.0,1.0,2673.490561,,,,,,,,,,,,,,,,,2673.478533083001,2673.5753452500003,2674.3730308330005,2674.359737042,,,,,,,,,,,,,,,,,,,,,,,,,,,,,,,,,,,2674.364345292,2674.3730308330005,2674.3730308330005,2674.8850586670005,r,1.0,0.5091627919991879,,,,,sub-121,1,stroop_test,120.5719935366614,
,,,,41.0,5.0,3.0,,,,,,,,,,,,,blau,yellow,g,0.0,g,1.0,0.4264371250010299,,,,,,,,,,3.0,5.0,41.0,7.0,2674.898552167001,,,,,,,,,,,,,,,,,2674.885870125,2676.083729750001,2676.886693083,2676.869318917,,,,,,,,,,,,,,,,,,,,,,,,,,,,,,,,,,,2676.875574042001,2676.886693083,2676.886693083,2677.319846667001,g,1.0,0.4264371250010299,,,,,sub-121,1,stroop_test,120.5719935366614,
,,,,42.0,6.0,3.0,,,,,,,,,,,,,blau,blue,b,1.0,b,1.0,0.4353470839996589,,,,,,,,,,3.0,6.0,42.0,6.0,2677.3338270000013,,,,,,,,,,,,,,,,,2677.320913083001,2677.4162700000006,2678.209760125,2678.200050625,,,,,,,,,,,,,,,,,,,,,,,,,,,,,,,,,,,2678.200733375,2678.209760125,2678.209760125,2678.651790583,b,1.0,0.4353470839996589,,,,,sub-121,1,stroop_test,120.5719935366614,
,,,,43.0,7.0,3.0,,,,,,,,,,,,,gelb,yellow,g,1.0,g,1.0,0.342396333000579,,,,,,,,,,3.0,7.0,43.0,10.0,2678.6656247500005,,,,,,,,,,,,,,,,,2678.6528231250004,2679.8511300420005,2680.659253583,2680.64342625,,,,,,,,,,,,,,,,,,,,,,,,,,,,,,,,,,,2680.649497000001,2680.659253583,2680.659253583,2681.012321833,g,1.0,0.342396333000579,,,,,sub-121,1,stroop_test,120.5719935366614,
,,,,44.0,8.0,3.0,,,,,,,,,,,,,gelb,red,r,0.0,g,0.0,0.4344003750011325,,,,,,,,,,3.0,8.0,44.0,8.0,2681.0262161670007,,,,,,,,,,,,,,,,,2681.0133237500004,2681.1089038750006,2681.9032489579995,2681.8931637079995,,,,,,,,,,,,,,,,,,,,,,,,,,,,,,,,,,,2681.8940864999995,2681.9032489579995,2681.9032489579995,2682.344362875,g,0.0,0.4344003750011325,,,,,sub-121,1,stroop_test,120.5719935366614,
,,,,45.0,9.0,3.0,,,,,,,,,,,,,rot,blue,b,0.0,g,0.0,0.4157353749997128,,,,,,,,,,3.0,9.0,45.0,2.0,2682.358087417001,,,,,,,,,,,,,,,,,2682.3451990000003,2683.534550208001,2684.342840458,2684.325482917001,,,,,,,,,,,,,,,,,,,,,,,,,,,,,,,,,,,2684.3328143749995,2684.342840458,2684.342840458,2684.7621377919995,g,0.0,0.4157353749997128,,,,,sub-121,1,stroop_test,120.5719935366614,
,,,,46.0,10.0,3.0,,,,,,,,,,,,,gelb,blue,b,0.0,b,1.0,0.5985547909986053,,,,,,,,,,3.0,10.0,46.0,9.0,2684.77702875,,,,,,,,,,,,,,,,,2684.7631424170004,2685.958687417001,2686.7599192080006,2686.744921792001,,,,,,,,,,,,,,,,,,,,,,,,,,,,,,,,,,,2686.7500775420003,2686.7599192080006,2686.7599192080006,2687.362191250001,b,1.0,0.5985547909986053,,,,,sub-121,1,stroop_test,120.5719935366614,
,,,,47.0,11.0,3.0,,,,,,,,,,,,,gelb,yellow,g,1.0,g,1.0,0.5142232500002137,,,,,,,,,,3.0,11.0,47.0,11.0,2687.376357167,,,,,,,,,,,,,,,,,2687.3631815,2688.561078958,2689.3613252080004,2689.351298375,,,,,,,,,,,,,,,,,,,,,,,,,,,,,,,,,,,2689.352113,2689.3613252080004,2689.3613252080004,2689.893831958,g,1.0,0.5142232500002137,,,,,sub-121,1,stroop_test,120.5719935366614,
,,,,48.0,0.0,4.0,,,,,,,,,,,,,gelb,red,r,0.0,r,1.0,0.4602762089998577,,,,,,,,,,4.0,0.0,48.0,8.0,2689.901100667,,,,,,,,,,,,,,,,,2689.8945340420005,2690.696227583,2691.494445083,2691.483692750001,,,,,,,,,,,,,,,,,,,,,,,,,,,,,,,,,,,2691.484591792,2691.494445083,2691.494445083,2691.960774417,r,1.0,0.4602762089998577,,,,,sub-121,1,stroop_test,120.5719935366614,
,,,,49.0,1.0,4.0,,,,,,,,,,,,,blau,blue,b,1.0,b,1.0,0.50226316699991,,,,,,,,,,4.0,1.0,49.0,6.0,2691.975267125,,,,,,,,,,,,,,,,,2691.96178275,2692.759592625001,2693.5564415420004,2693.542841958001,,,,,,,,,,,,,,,,,,,,,,,,,,,,,,,,,,,2693.5474871670003,2693.5564415420004,2693.5564415420004,2694.063405958,b,1.0,0.50226316699991,,,,,sub-121,1,stroop_test,120.5719935366614,
,,,,50.0,2.0,4.0,,,,,,,,,,,,,rot,red,r,1.0,r,1.0,0.4322965419996762,,,,,,,,,,4.0,2.0,50.0,0.0,2694.076312208,,,,,,,,,,,,,,,,,2694.0642927500003,2694.857910208001,2695.6608227080005,2695.644864125,,,,,,,,,,,,,,,,,,,,,,,,,,,,,,,,,,,2695.6490681250007,2695.6608227080005,2695.6608227080005,2696.1095550830005,r,1.0,0.4322965419996762,,,,,sub-121,1,stroop_test,120.5719935366614,
,,,,51.0,3.0,4.0,,,,,,,,,,,,,blau,red,r,0.0,r,1.0,0.5980469590012945,,,,,,,,,,4.0,3.0,51.0,4.0,2696.1158687920006,,,,,,,,,,,,,,,,,2696.110120208,2696.899834083001,2697.696023083,2697.683439958001,,,,,,,,,,,,,,,,,,,,,,,,,,,,,,,,,,,2697.687690042,2697.696023083,2697.696023083,2698.3036052920006,r,1.0,0.5980469590012945,,,,,sub-121,1,stroop_test,120.5719935366614,
,,,,52.0,4.0,4.0,,,,,,,,,,,,,rot,blue,b,0.0,b,1.0,0.8877439170009893,,,,,,,,,,4.0,4.0,52.0,2.0,2698.3160674170003,,,,,,,,,,,,,,,,,2698.304585583,2699.0996210420008,2699.901640292,2699.885209958001,,,,,,,,,,,,,,,,,,,,,,,,,,,,,,,,,,,2699.890984167,2699.901640292,2699.901640292,2700.7943870830013,b,1.0,0.8877439170009893,,,,,sub-121,1,stroop_test,120.5719935366614,
,,,,53.0,5.0,4.0,,,,,,,,,,,,,blau,blue,b,1.0,b,1.0,0.4746914170009404,,,,,,,,,,4.0,5.0,53.0,5.0,2700.807902167001,,,,,,,,,,,,,,,,,2700.795399667001,2700.891250292,2701.6900271250006,2701.6765133750005,,,,,,,,,,,,,,,,,,,,,,,,,,,,,,,,,,,2701.681214833,2701.6900271250006,2701.6900271250006,2702.168030917,b,1.0,0.4746914170009404,,,,,sub-121,1,stroop_test,120.5719935366614,
,,,,54.0,6.0,4.0,,,,,,,,,,,,,gelb,yellow,g,1.0,g,1.0,0.5098362909993739,,,,,,,,,,4.0,6.0,54.0,10.0,2702.181401375,,,,,,,,,,,,,,,,,2702.1687412500005,2702.961795667,2703.762195667,2703.748877083,,,,,,,,,,,,,,,,,,,,,,,,,,,,,,,,,,,2703.754192208001,2703.762195667,2703.762195667,2704.277943625001,g,1.0,0.5098362909993739,,,,,sub-121,1,stroop_test,120.5719935366614,
,,,,55.0,7.0,4.0,,,,,,,,,,,,,rot,yellow,g,0.0,g,1.0,0.6275903749992722,,,,,,,,,,4.0,7.0,55.0,3.0,2704.2911174580013,,,,,,,,,,,,,,,,,2704.27882975,2705.069626375001,2705.8858267080004,2705.858631958,,,,,,,,,,,,,,,,,,,,,,,,,,,,,,,,,,,2705.864350542,2705.8858267080004,2705.8858267080004,2706.518760875001,g,1.0,0.6275903749992722,,,,,sub-121,1,stroop_test,120.5719935366614,
,,,,56.0,8.0,4.0,,,,,,,,,,,,,rot,red,r,1.0,r,1.0,0.464073000001008,,,,,,,,,,4.0,8.0,56.0,1.0,2706.532710792001,,,,,,,,,,,,,,,,,2706.519725292,2707.716771917,2708.5195339169995,2708.509146167001,,,,,,,,,,,,,,,,,,,,,,,,,,,,,,,,,,,2708.509889125001,2708.5195339169995,2708.5195339169995,2709.0005092500005,r,1.0,0.464073000001008,,,,,sub-121,1,stroop_test,120.5719935366614,
,,,,57.0,9.0,4.0,,,,,,,,,,,,,gelb,blue,b,0.0,b,1.0,0.8471129999998084,,,,,,,,,,4.0,9.0,57.0,9.0,2709.008044125,,,,,,,,,,,,,,,,,2709.0010678749995,2709.349596625,2710.152851917,2710.1354299580007,,,,,,,,,,,,,,,,,,,,,,,,,,,,,,,,,,,2710.1426424579995,2710.152851917,2710.152851917,2711.0036245420006,b,1.0,0.8471129999998084,,,,,sub-121,1,stroop_test,120.5719935366614,
,,,,58.0,10.0,4.0,,,,,,,,,,,,,blau,yellow,g,0.0,g,1.0,0.497021458000745,,,,,,,,,,4.0,10.0,58.0,7.0,2711.015475792,,,,,,,,,,,,,,,,,2711.004465375,2711.800177625001,2712.608071625001,2712.5921828750006,,,,,,,,,,,,,,,,,,,,,,,,,,,,,,,,,,,2712.598272875,2712.608071625001,2712.608071625001,2713.111633667001,g,1.0,0.497021458000745,,,,,sub-121,1,stroop_test,120.5719935366614,
,,,,59.0,11.0,4.0,,,,,,,,,,,,,gelb,yellow,g,1.0,g,1.0,0.575425125000038,,,,,,,,,,4.0,11.0,59.0,11.0,2713.126116167,,,,,,,,,,,,,,,,,2713.1126144580003,2713.909435292001,2714.705632,2714.692890458001,,,,,,,,,,,,,,,,,,,,,,,,,,,,,,,,,,,2714.6972053750005,2714.705632,2714.705632,2715.286410875001,g,1.0,0.575425125000038,,,,,sub-121,1,stroop_test,120.5719935366614,
,,,,60.0,0.0,5.0,,,,,,,,,,,,,rot,red,r,1.0,r,1.0,0.5325959170004353,,,,,,,,,,5.0,0.0,60.0,0.0,2715.298807167,,,,,,,,,,,,,,,,,2715.28744125,2715.383670833001,2716.180858500001,2716.1681727919995,,,,,,,,,,,,,,,,,,,,,,,,,,,,,,,,,,,2716.172346625,2716.180858500001,2716.180858500001,2716.7183985830006,r,1.0,0.5325959170004353,,,,,sub-121,1,stroop_test,120.5719935366614,
,,,,61.0,1.0,5.0,,,,,,,,,,,,,blau,yellow,g,0.0,g,1.0,0.5449110839999776,,,,,,,,,,5.0,1.0,61.0,7.0,2716.7314894170004,,,,,,,,,,,,,,,,,2716.719153542,2717.516341167001,2718.3143873750005,2718.301165,,,,,,,,,,,,,,,,,,,,,,,,,,,,,,,,,,,2718.305897250001,2718.3143873750005,2718.3143873750005,2718.868163208,g,1.0,0.5449110839999776,,,,,sub-121,1,stroop_test,120.5719935366614,
,,,,62.0,2.0,5.0,,,,,,,,,,,,,blau,blue,b,1.0,b,1.0,0.6005347500013158,,,,,,,,,,5.0,2.0,62.0,5.0,2718.8815040420004,,,,,,,,,,,,,,,,,2718.8688785000004,2718.95824775,2719.754121000001,2719.7452364170013,,,,,,,,,,,,,,,,,,,,,,,,,,,,,,,,,,,2719.745992333,2719.754121000001,2719.754121000001,2720.360799500001,b,1.0,0.6005347500013158,,,,,sub-121,1,stroop_test,120.5719935366614,
,,,,63.0,3.0,5.0,,,,,,,,,,,,,gelb,blue,b,0.0,b,1.0,0.5504925000004732,,,,,,,,,,5.0,3.0,63.0,9.0,2720.3751305,,,,,,,,,,,,,,,,,2720.361827917,2720.458792708,2721.2585737500003,2721.242860000001,,,,,,,,,,,,,,,,,,,,,,,,,,,,,,,,,,,2721.250111875,2721.2585737500003,2721.2585737500003,2721.827672083001,b,1.0,0.5504925000004732,,,,,sub-121,1,stroop_test,120.5719935366614,
,,,,64.0,4.0,5.0,,,,,,,,,,,,,blau,red,r,0.0,r,1.0,0.7192451659993822,,,,,,,,,,5.0,4.0,64.0,4.0,2721.842278083,,,,,,,,,,,,,,,,,2721.8284264580006,2723.020391625,2723.822884583001,2723.8095124170004,,,,,,,,,,,,,,,,,,,,,,,,,,,,,,,,,,,2723.814153542001,2723.822884583001,2723.822884583001,2724.545049542,r,1.0,0.7192451659993822,,,,,sub-121,1,stroop_test,120.5719935366614,
,,,,65.0,5.0,5.0,,,,,,,,,,,,,rot,red,r,1.0,r,1.0,0.8488840840000194,,,,,,,,,,5.0,5.0,65.0,1.0,2724.5580240420013,,,,,,,,,,,,,,,,,2724.5459075420013,2724.89200875,2725.690510083,2725.676841333,,,,,,,,,,,,,,,,,,,,,,,,,,,,,,,,,,,2725.681400833001,2725.690510083,2725.690510083,2726.544078958,r,1.0,0.8488840840000194,,,,,sub-121,1,stroop_test,120.5719935366614,
,,,,66.0,6.0,5.0,,,,,,,,,,,,,rot,blue,b,0.0,g,0.0,0.4494542080010433,,,,,,,,,,5.0,6.0,66.0,2.0,2726.557450042,,,,,,,,,,,,,,,,,2726.54500125,2727.734459,2728.534378792,2728.525268333001,,,,,,,,,,,,,,,,,,,,,,,,,,,,,,,,,,,2728.525985917001,2728.534378792,2728.534378792,2728.986925792001,g,0.0,0.4494542080010433,,,,,sub-121,1,stroop_test,120.5719935366614,
,,,,67.0,7.0,5.0,,,,,,,,,,,,,gelb,red,r,0.0,r,1.0,0.7004504169999564,,,,,,,,,,5.0,7.0,67.0,8.0,2729.000573542001,,,,,,,,,,,,,,,,,2728.9879235420003,2729.0870896250008,2729.8924647920003,2729.876660250001,,,,,,,,,,,,,,,,,,,,,,,,,,,,,,,,,,,2729.882800083001,2729.8924647920003,2729.8924647920003,2730.5960740420005,r,1.0,0.7004504169999564,,,,,sub-121,1,stroop_test,120.5719935366614,
,,,,68.0,8.0,5.0,,,,,,,,,,,,,blau,blue,b,1.0,b,1.0,0.7632255410007929,,,,,,,,,,5.0,8.0,68.0,6.0,2730.61002225,,,,,,,,,,,,,,,,,2730.5969385420003,2731.794065917001,2732.5952101249995,2732.583175292001,,,,,,,,,,,,,,,,,,,,,,,,,,,,,,,,,,,2732.587436917001,2732.5952101249995,2732.5952101249995,2733.374985792,b,1.0,0.7632255410007929,,,,,sub-121,1,stroop_test,120.5719935366614,
,,,,69.0,9.0,5.0,,,,,,,,,,,,,rot,yellow,g,0.0,g,1.0,0.5333103749999282,,,,,,,,,,5.0,9.0,69.0,3.0,2733.381510583001,,,,,,,,,,,,,,,,,2733.375557667,2733.468650667,2734.277363833001,2734.261604125001,,,,,,,,,,,,,,,,,,,,,,,,,,,,,,,,,,,2734.265753333001,2734.277363833001,2734.277363833001,2734.818155417,g,1.0,0.5333103749999282,,,,,sub-121,1,stroop_test,120.5719935366614,
,,,,70.0,10.0,5.0,,,,,,,,,,,,,gelb,yellow,g,1.0,g,1.0,0.5243831250008952,,,,,,,,,,5.0,10.0,70.0,10.0,2734.831441458001,,,,,,,,,,,,,,,,,2734.818807750001,2736.016177292001,2736.8123415830005,2736.7997560000013,,,,,,,,,,,,,,,,,,,,,,,,,,,,,,,,,,,2736.804102583,2736.8123415830005,2736.8123415830005,2737.361012667,g,1.0,0.5243831250008952,,,,,sub-121,1,stroop_test,120.5719935366614,
,,,,71.0,11.0,5.0,,,,,,,,,,,,,gelb,yellow,g,1.0,g,1.0,0.4781441670002095,,,,,,,,,,5.0,11.0,71.0,11.0,2737.374090708,,,,,,,,,,,,,,,,,2737.361885958001,2737.458847500001,2738.2518895420008,2738.2427407919995,,,,,,,,,,,,,,,,,,,,,,,,,,,,,,,,,,,2738.243460542001,2738.2518895420008,2738.2518895420008,2738.7352583750007,g,1.0,0.4781441670002095,,,,,sub-121,1,stroop_test,120.5719935366614,
,,,,72.0,0.0,6.0,,,,,,,,,,,,,rot,blue,b,0.0,b,1.0,0.5707443749997765,,,,,,,,,,6.0,0.0,72.0,2.0,2738.748181458,,,,,,,,,,,,,,,,,2738.736014958001,2738.83691175,2739.641867458001,2739.626879583001,,,,,,,,,,,,,,,,,,,,,,,,,,,,,,,,,,,2739.6327307500005,2739.641867458001,2739.641867458001,2740.2174709580004,b,1.0,0.5707443749997765,,,,,sub-121,1,stroop_test,120.5719935366614,
,,,,73.0,1.0,6.0,,,,,,,,,,,,,blau,yellow,g,0.0,g,1.0,0.4142482909992395,,,,,,,,,,6.0,1.0,73.0,7.0,2740.231341208001,,,,,,,,,,,,,,,,,2740.218192792,2741.015789625001,2741.811751375001,2741.799363708001,,,,,,,,,,,,,,,,,,,,,,,,,,,,,,,,,,,2741.803525583001,2741.811751375001,2741.811751375001,2742.230826,g,1.0,0.4142482909992395,,,,,sub-121,1,stroop_test,120.5719935366614,
,,,,74.0,2.0,6.0,,,,,,,,,,,,,blau,blue,b,1.0,b,1.0,0.3728053750000981,,,,,,,,,,6.0,2.0,74.0,6.0,2742.247276333,,,,,,,,,,,,,,,,,2742.232057667,2743.4285329170007,2744.236821042,2744.227817625001,,,,,,,,,,,,,,,,,,,,,,,,,,,,,,,,,,,2744.228519542,2744.236821042,2744.236821042,2744.6190061669995,b,1.0,0.3728053750000981,,,,,sub-121,1,stroop_test,120.5719935366614,
,,,,75.0,3.0,6.0,,,,,,,,,,,,,rot,red,r,1.0,r,1.0,0.513855874998626,,,,,,,,,,6.0,3.0,75.0,0.0,2744.632757750001,,,,,,,,,,,,,,,,,2744.62000625,2744.9661857500005,2745.762185792001,2745.750004333001,,,,,,,,,,,,,,,,,,,,,,,,,,,,,,,,,,,2745.754099500001,2745.762185792001,2745.762185792001,2746.2920152920005,r,1.0,0.513855874998626,,,,,sub-121,1,stroop_test,120.5719935366614,
,,,,76.0,4.0,6.0,,,,,,,,,,,,,blau,red,r,0.0,r,1.0,0.5015364580012829,,,,,,,,,,6.0,4.0,76.0,4.0,2746.298437042001,,,,,,,,,,,,,,,,,2746.2925382500007,2746.3821838329995,2747.190470042001,2747.176981875001,,,,,,,,,,,,,,,,,,,,,,,,,,,,,,,,,,,2747.181685208,2747.190470042001,2747.190470042001,2747.694855833,r,1.0,0.5015364580012829,,,,,sub-121,1,stroop_test,120.5719935366614,
,,,,77.0,5.0,6.0,,,,,,,,,,,,,gelb,red,r,0.0,r,1.0,0.5147844580005767,,,,,,,,,,6.0,5.0,77.0,8.0,2747.7080102500013,,,,,,,,,,,,,,,,,2747.695713667,2747.792223292,2748.590412333001,2748.5766418330013,,,,,,,,,,,,,,,,,,,,,,,,,,,,,,,,,,,2748.581343375,2748.590412333001,2748.590412333001,2749.111021625001,r,1.0,0.5147844580005767,,,,,sub-121,1,stroop_test,120.5719935366614,
,,,,78.0,6.0,6.0,,,,,,,,,,,,,rot,yellow,g,0.0,g,1.0,0.3574824169991188,,,,,,,,,,6.0,6.0,78.0,3.0,2749.124071125,,,,,,,,,,,,,,,,,2749.111890667001,2749.901606417,2750.707907833,2750.694515917,,,,,,,,,,,,,,,,,,,,,,,,,,,,,,,,,,,2750.6991005419995,2750.707907833,2750.707907833,2751.0681579580005,g,1.0,0.3574824169991188,,,,,sub-121,1,stroop_test,120.5719935366614,
,,,,79.0,7.0,6.0,,,,,,,,,,,,,gelb,blue,b,0.0,b,1.0,0.719686874999752,,,,,,,,,,6.0,7.0,79.0,9.0,2751.0810047080004,,,,,,,,,,,,,,,,,2751.069026917,2751.415743458,2752.217426917,2752.2013524170006,,,,,,,,,,,,,,,,,,,,,,,,,,,,,,,,,,,2752.207043583,2752.217426917,2752.217426917,2752.945402167,b,1.0,0.719686874999752,,,,,sub-121,1,stroop_test,120.5719935366614,
,,,,80.0,8.0,6.0,,,,,,,,,,,,,gelb,yellow,g,1.0,g,1.0,0.5768608750004205,,,,,,,,,,6.0,8.0,80.0,11.0,2752.9599325829995,,,,,,,,,,,,,,,,,2752.946437667001,2753.042175,2753.837209708,2753.8283086250003,,,,,,,,,,,,,,,,,,,,,,,,,,,,,,,,,,,2753.8290814580005,2753.837209708,2753.837209708,2754.4183141250005,g,1.0,0.5768608750004205,,,,,sub-121,1,stroop_test,120.5719935366614,
,,,,81.0,9.0,6.0,,,,,,,,,,,,,blau,blue,b,1.0,b,1.0,0.3808222919997206,,,,,,,,,,6.0,9.0,81.0,5.0,2754.431040667,,,,,,,,,,,,,,,,,2754.418962083001,2755.617972375,2756.4270382920013,2756.4098469580013,,,,,,,,,,,,,,,,,,,,,,,,,,,,,,,,,,,2756.4173832080005,2756.4270382920013,2756.4270382920013,2756.812654625,b,1.0,0.3808222919997206,,,,,sub-121,1,stroop_test,120.5719935366614,
,,,,82.0,10.0,6.0,,,,,,,,,,,,,rot,red,r,1.0,r,1.0,0.3912267920004524,,,,,,,,,,6.0,10.0,82.0,1.0,2756.826793042,,,,,,,,,,,,,,,,,2756.8136430000004,2756.9251440420003,2757.724529417,2757.7087824170003,,,,,,,,,,,,,,,,,,,,,,,,,,,,,,,,,,,2757.714721042,2757.724529417,2757.724529417,2758.127161333,r,1.0,0.3912267920004524,,,,,sub-121,1,stroop_test,120.5719935366614,
,,,,83.0,11.0,6.0,,,,,,,,,,,,,gelb,yellow,g,1.0,g,1.0,0.2976508749998174,,,,,,,,,,6.0,11.0,83.0,10.0,2758.1403214169995,,,,,,,,,,,,,,,,,2758.128013292001,2758.4755252920013,2759.277370750001,2759.261751542,,,,,,,,,,,,,,,,,,,,,,,,,,,,,,,,,,,2759.266015792001,2759.277370750001,2759.277370750001,2759.578647167001,g,1.0,0.2976508749998174,,,,,sub-121,1,stroop_test,120.5719935366614,
,,,,84.0,0.0,7.0,,,,,,,,,,,,,gelb,red,r,0.0,r,1.0,0.2984458330010966,,,,,,,,,,7.0,0.0,84.0,8.0,2759.592074333,,,,,,,,,,,,,,,,,2759.579577083,2759.925361792001,2760.719647375,2760.7102021250003,,,,,,,,,,,,,,,,,,,,,,,,,,,,,,,,,,,2760.710929625001,2760.719647375,2760.719647375,2761.021298000001,r,1.0,0.2984458330010966,,,,,sub-121,1,stroop_test,120.5719935366614,
,,,,85.0,1.0,7.0,,,,,,,,,,,,,blau,red,r,0.0,r,1.0,0.3429643750005198,,,,,,,,,,7.0,1.0,85.0,4.0,2761.03483675,,,,,,,,,,,,,,,,,2761.0221237920005,2761.367225333,2762.172908583,2762.1595128750005,,,,,,,,,,,,,,,,,,,,,,,,,,,,,,,,,,,2762.164189083001,2762.172908583,2762.172908583,2762.519629083,r,1.0,0.3429643750005198,,,,,sub-121,1,stroop_test,120.5719935366614,
,,,,86.0,2.0,7.0,,,,,,,,,,,,,rot,yellow,g,0.0,g,1.0,0.490466582999943,,,,,,,,,,7.0,2.0,86.0,3.0,2762.5324546250004,,,,,,,,,,,,,,,,,2762.520638833,2763.3162341670004,2764.11263325,2764.1000522080003,,,,,,,,,,,,,,,,,,,,,,,,,,,,,,,,,,,2764.104433042,2764.11263325,2764.11263325,2764.6109974580004,g,1.0,0.490466582999943,,,,,sub-121,1,stroop_test,120.5719935366614,
,,,,87.0,3.0,7.0,,,,,,,,,,,,,blau,blue,b,1.0,b,1.0,0.3371418750011798,,,,,,,,,,7.0,3.0,87.0,6.0,2764.624075292001,,,,,,,,,,,,,,,,,2764.6118547920005,2765.811249417001,2766.6183850000007,2766.601899958,,,,,,,,,,,,,,,,,,,,,,,,,,,,,,,,,,,2766.607552167,2766.6183850000007,2766.6183850000007,2766.962709375,b,1.0,0.3371418750011798,,,,,sub-121,1,stroop_test,120.5719935366614,
,,,,88.0,4.0,7.0,,,,,,,,,,,,,gelb,blue,b,0.0,b,1.0,0.3472260409998853,,,,,,,,,,7.0,4.0,88.0,9.0,2766.9771135,,,,,,,,,,,,,,,,,2766.9636643330005,2767.307960833,2768.112314792,2768.093213292,,,,,,,,,,,,,,,,,,,,,,,,,,,,,,,,,,,2768.100776292001,2768.112314792,2768.112314792,2768.4792494170006,b,1.0,0.3472260409998853,,,,,sub-121,1,stroop_test,120.5719935366614,
,,,,89.0,5.0,7.0,,,,,,,,,,,,,rot,red,r,1.0,r,1.0,0.4490819580005336,,,,,,,,,,7.0,5.0,89.0,1.0,2768.492428208,,,,,,,,,,,,,,,,,2768.480095917,2768.824916375,2769.625856083,2769.608453667,,,,,,,,,,,,,,,,,,,,,,,,,,,,,,,,,,,2769.615891958,2769.625856083,2769.625856083,2770.07930475,r,1.0,0.4490819580005336,,,,,sub-121,1,stroop_test,120.5719935366614,
,,,,90.0,6.0,7.0,,,,,,,,,,,,,gelb,yellow,g,1.0,g,1.0,0.3931433750003634,,,,,,,,,,7.0,6.0,90.0,10.0,2770.093922333,,,,,,,,,,,,,,,,,2770.080281458001,2770.892419042001,2771.695039583,2771.682228292001,,,,,,,,,,,,,,,,,,,,,,,,,,,,,,,,,,,2771.6866404580005,2771.695039583,2771.695039583,2772.094392917,g,1.0,0.3931433750003634,,,,,sub-121,1,stroop_test,120.5719935366614,
,,,,91.0,7.0,7.0,,,,,,,,,,,,,rot,red,r,1.0,r,1.0,0.4353764160005084,,,,,,,,,,7.0,7.0,91.0,0.0,2772.1086881250003,,,,,,,,,,,,,,,,,2772.0953602500003,2772.891109667001,2773.6910746250005,2773.675360667,,,,,,,,,,,,,,,,,,,,,,,,,,,,,,,,,,,2773.6812684999995,2773.6910746250005,2773.6910746250005,2774.1335329170006,r,1.0,0.4353764160005084,,,,,sub-121,1,stroop_test,120.5719935366614,
,,,,92.0,8.0,7.0,,,,,,,,,,,,,blau,blue,b,1.0,b,1.0,0.4870615839990933,,,,,,,,,,7.0,8.0,92.0,5.0,2774.1482708329995,,,,,,,,,,,,,,,,,2774.134117625,2775.333058542,2776.131951667,2776.116587208001,,,,,,,,,,,,,,,,,,,,,,,,,,,,,,,,,,,2776.1221648750006,2776.131951667,2776.131951667,2776.6277362499995,b,1.0,0.4870615839990933,,,,,sub-121,1,stroop_test,120.5719935366614,
,,,,93.0,9.0,7.0,,,,,,,,,,,,,gelb,yellow,g,1.0,g,1.0,0.5369606659987767,,,,,,,,,,7.0,9.0,93.0,11.0,2776.640876500001,,,,,,,,,,,,,,,,,2776.6286599580008,2776.724432708,2777.523347792,2777.5100252500006,,,,,,,,,,,,,,,,,,,,,,,,,,,,,,,,,,,2777.514607708,2777.523347792,2777.523347792,2778.077639125001,g,1.0,0.5369606659987767,,,,,sub-121,1,stroop_test,120.5719935366614,
,,,,94.0,10.0,7.0,,,,,,,,,,,,,rot,blue,b,0.0,b,1.0,0.732324749998952,,,,,,,,,,7.0,10.0,94.0,2.0,2778.092143792,,,,,,,,,,,,,,,,,2778.078197375001,2778.8680300000005,2779.671749042001,2779.6584885420007,,,,,,,,,,,,,,,,,,,,,,,,,,,,,,,,,,,2779.663011167001,2779.671749042001,2779.671749042001,2780.410200042,b,1.0,0.732324749998952,,,,,sub-121,1,stroop_test,120.5719935366614,
,,,,95.0,11.0,7.0,,,,,,,,,,,,,blau,yellow,g,0.0,g,1.0,0.5204806250003458,,,,,,,,,,7.0,11.0,95.0,7.0,2780.423294333,,,,,,,,,,,,,,,,,2780.411050875001,2780.7587378750004,2781.5622984169995,2781.546428333001,,,,,,,,,,,,,,,,,,,,,,,,,,,,,,,,,,,2781.5506654580013,2781.5622984169995,2781.5622984169995,2782.0941647500013,g,1.0,0.5204806250003458,,,,,sub-121,1,stroop_test,120.5719935366614,
,,,,96.0,0.0,8.0,,,,,,,,,,,,,rot,yellow,g,0.0,g,1.0,0.4918206250004004,,,,,,,,,,8.0,0.0,96.0,3.0,2782.108701,,,,,,,,,,,,,,,,,2782.095198958,2782.1922817920013,2782.9954444580007,2782.978835833,,,,,,,,,,,,,,,,,,,,,,,,,,,,,,,,,,,2782.986063458001,2782.9954444580007,2782.9954444580007,2783.4935718330007,g,1.0,0.4918206250004004,,,,,sub-121,1,stroop_test,120.5719935366614,
,,,,97.0,1.0,8.0,,,,,,,,,,,,,gelb,yellow,g,1.0,g,1.0,0.4297402499996678,,,,,,,,,,8.0,1.0,97.0,11.0,2783.507108375,,,,,,,,,,,,,,,,,2783.494449250001,2784.292283167001,2785.089544417001,2785.076176708001,,,,,,,,,,,,,,,,,,,,,,,,,,,,,,,,,,,2785.0808367500003,2785.089544417001,2785.089544417001,2785.5271918749995,g,1.0,0.4297402499996678,,,,,sub-121,1,stroop_test,120.5719935366614,
,,,,98.0,2.0,8.0,,,,,,,,,,,,,blau,yellow,g,0.0,g,1.0,0.4003585419995943,,,,,,,,,,8.0,2.0,98.0,7.0,2785.5402494580003,,,,,,,,,,,,,,,,,2785.528064125,2786.719494375001,2787.526989792,2787.5117686250005,,,,,,,,,,,,,,,,,,,,,,,,,,,,,,,,,,,2787.517238292,2787.526989792,2787.526989792,2787.9444037500007,g,1.0,0.4003585419995943,,,,,sub-121,1,stroop_test,120.5719935366614,
,,,,99.0,3.0,8.0,,,,,,,,,,,,,rot,blue,b,0.0,b,1.0,0.8801138750004611,,,,,,,,,,8.0,3.0,99.0,2.0,2787.957607917001,,,,,,,,,,,,,,,,,2787.9452585830013,2788.0412073750003,2788.8391538330006,2788.8258067920005,,,,,,,,,,,,,,,,,,,,,,,,,,,,,,,,,,,2788.830401917,2788.8391538330006,2788.8391538330006,2789.728045083001,b,1.0,0.8801138750004611,,,,,sub-121,1,stroop_test,120.5719935366614,
,,,,100.0,4.0,8.0,,,,,,,,,,,,,gelb,yellow,g,1.0,g,1.0,0.671731374999581,,,,,,,,,,8.0,4.0,100.0,10.0,2789.7409994580003,,,,,,,,,,,,,,,,,2789.728920875,2790.917695500001,2791.7232641670007,2791.709617917001,,,,,,,,,,,,,,,,,,,,,,,,,,,,,,,,,,,2791.7144569580005,2791.7232641670007,2791.7232641670007,2792.4011595,g,1.0,0.671731374999581,,,,,sub-121,1,stroop_test,120.5719935366614,
,,,,101.0,5.0,8.0,,,,,,,,,,,,,gelb,red,r,0.0,r,1.0,0.5202578339994943,,,,,,,,,,8.0,5.0,101.0,8.0,2792.4151025,,,,,,,,,,,,,,,,,2792.4019335000003,2792.7428778330004,2793.541468917,2793.5312105830008,,,,,,,,,,,,,,,,,,,,,,,,,,,,,,,,,,,2793.5319121250004,2793.541468917,2793.541468917,2794.0704734170004,r,1.0,0.5202578339994943,,,,,sub-121,1,stroop_test,120.5719935366614,
,,,,102.0,6.0,8.0,,,,,,,,,,,,,blau,blue,b,1.0,b,1.0,0.8563242919990444,,,,,,,,,,8.0,6.0,102.0,5.0,2794.084238375,,,,,,,,,,,,,,,,,2794.071456375,2794.167258042001,2794.9682851669995,2794.951941542001,,,,,,,,,,,,,,,,,,,,,,,,,,,,,,,,,,,2794.95764075,2794.9682851669995,2794.9682851669995,2795.827761292,b,1.0,0.8563242919990444,,,,,sub-121,1,stroop_test,120.5719935366614,
,,,,103.0,7.0,8.0,,,,,,,,,,,,,gelb,blue,b,0.0,b,1.0,0.9242385830002604,,,,,,,,,,8.0,7.0,103.0,9.0,2795.840885375,,,,,,,,,,,,,,,,,2795.8286323330003,2796.1753927500004,2796.985380000001,2796.966810875,,,,,,,,,,,,,,,,,,,,,,,,,,,,,,,,,,,2796.974516583,2796.985380000001,2796.985380000001,2797.925912875001,b,1.0,0.9242385830002604,,,,,sub-121,1,stroop_test,120.5719935366614,
,,,,104.0,8.0,8.0,,,,,,,,,,,,,rot,red,r,1.0,r,1.0,0.5304939160014328,,,,,,,,,,8.0,8.0,104.0,0.0,2797.932360625001,,,,,,,,,,,,,,,,,2797.926465333,2798.265136125,2799.065856125001,2799.051037833001,,,,,,,,,,,,,,,,,,,,,,,,,,,,,,,,,,,2799.0567688750007,2799.065856125001,2799.065856125001,2799.610688875001,r,1.0,0.5304939160014328,,,,,sub-121,1,stroop_test,120.5719935366614,
,,,,105.0,9.0,8.0,,,,,,,,,,,,,rot,red,r,1.0,r,1.0,0.4589791250000417,,,,,,,,,,8.0,9.0,105.0,1.0,2799.6247550420003,,,,,,,,,,,,,,,,,2799.611452375001,2799.7071010829995,2800.5042824580005,2800.495279625001,,,,,,,,,,,,,,,,,,,,,,,,,,,,,,,,,,,2800.495960000001,2800.5042824580005,2800.5042824580005,2800.9687344580007,r,1.0,0.4589791250000417,,,,,sub-121,1,stroop_test,120.5719935366614,
,,,,106.0,10.0,8.0,,,,,,,,,,,,,blau,blue,b,1.0,b,1.0,0.59565158300029,,,,,,,,,,8.0,10.0,106.0,6.0,2800.9812133330006,,,,,,,,,,,,,,,,,2800.969543,2801.065429292,2801.8678143330008,2801.851282292001,,,,,,,,,,,,,,,,,,,,,,,,,,,,,,,,,,,2801.8571339170003,2801.8678143330008,2801.8678143330008,2802.468466000001,b,1.0,0.59565158300029,,,,,sub-121,1,stroop_test,120.5719935366614,
,,,,107.0,11.0,8.0,,,,,,,,,,,,,blau,red,r,0.0,r,1.0,0.7981124159996398,,,,,,,,,,8.0,11.0,107.0,4.0,2802.481718333001,,,,,,,,,,,,,,,,,2802.469517208,2802.8150760830003,2803.611228792,2803.600220833,,,,,,,,,,,,,,,,,,,,,,,,,,,,,,,,,,,2803.6011205000004,2803.611228792,2803.611228792,2804.413011708001,r,1.0,0.7981124159996398,,,,,sub-121,1,stroop_test,120.5719935366614,
,,,,108.0,0.0,9.0,,,,,,,,,,,,,blau,yellow,g,0.0,g,1.0,0.5097147500000574,,,,,,,,,,9.0,0.0,108.0,7.0,2804.4272353330007,,,,,,,,,,,,,,,,,2804.41402125,2805.6097645830005,2806.409385375001,2806.394205708001,,,,,,,,,,,,,,,,,,,,,,,,,,,,,,,,,,,2806.3949175000007,2806.409385375001,2806.409385375001,2806.9279111250007,g,1.0,0.5097147500000574,,,,,sub-121,1,stroop_test,120.5719935366614,
,,,,109.0,1.0,9.0,,,,,,,,,,,,,rot,red,r,1.0,r,1.0,0.4638367910010856,,,,,,,,,,9.0,1.0,109.0,1.0,2806.9410057920004,,,,,,,,,,,,,,,,,2806.928775458001,2808.144542542,2808.9453788750006,2808.932045667,,,,,,,,,,,,,,,,,,,,,,,,,,,,,,,,,,,2808.936207375001,2808.9453788750006,2808.9453788750006,2809.4148457500005,r,1.0,0.4638367910010856,,,,,sub-121,1,stroop_test,120.5719935366614,
,,,,110.0,2.0,9.0,,,,,,,,,,,,,blau,red,r,0.0,r,1.0,0.3214528339995013,,,,,,,,,,9.0,2.0,110.0,4.0,2809.4303045000006,,,,,,,,,,,,,,,,,2809.415906792,2810.6113132500004,2811.411905958,2811.396431375001,,,,,,,,,,,,,,,,,,,,,,,,,,,,,,,,,,,2811.402036542001,2811.411905958,2811.411905958,2811.7490767080008,r,1.0,0.3214528339995013,,,,,sub-121,1,stroop_test,120.5719935366614,
,,,,111.0,3.0,9.0,,,,,,,,,,,,,rot,red,r,1.0,r,1.0,0.3484065419997932,,,,,,,,,,9.0,3.0,111.0,0.0,2811.757636417001,,,,,,,,,,,,,,,,,2811.749634125,2811.848922458,2812.650904542,2812.6347677500007,,,,,,,,,,,,,,,,,,,,,,,,,,,,,,,,,,,2812.640371042001,2812.650904542,2812.650904542,2813.009948708,r,1.0,0.3484065419997932,,,,,sub-121,1,stroop_test,120.5719935366614,
,,,,112.0,4.0,9.0,,,,,,,,,,,,,blau,blue,b,1.0,b,1.0,0.4243454999996174,,,,,,,,,,9.0,4.0,112.0,6.0,2813.0232852920008,,,,,,,,,,,,,,,,,2813.010819458,2813.803071958001,2814.6097032080006,2814.594689250001,,,,,,,,,,,,,,,,,,,,,,,,,,,,,,,,,,,2814.599550875001,2814.6097032080006,2814.6097032080006,2815.0436311250005,b,1.0,0.4243454999996174,,,,,sub-121,1,stroop_test,120.5719935366614,
,,,,113.0,5.0,9.0,,,,,,,,,,,,,gelb,yellow,g,1.0,g,1.0,0.4457724590010912,,,,,,,,,,9.0,5.0,113.0,11.0,2815.056782208,,,,,,,,,,,,,,,,,2815.044524708,2816.234994083,2817.0414747080004,2817.0265402920004,,,,,,,,,,,,,,,,,,,,,,,,,,,,,,,,,,,2817.032794875001,2817.0414747080004,2817.0414747080004,2817.4947375420006,g,1.0,0.4457724590010912,,,,,sub-121,1,stroop_test,120.5719935366614,
,,,,114.0,6.0,9.0,,,,,,,,,,,,,gelb,blue,b,0.0,g,0.0,0.4792410420013766,,,,,,,,,,9.0,6.0,114.0,9.0,2817.509001667001,,,,,,,,,,,,,,,,,2817.49576275,2818.691037,2819.491198292001,2819.4787432500007,,,,,,,,,,,,,,,,,,,,,,,,,,,,,,,,,,,2819.4796717500003,2819.491198292001,2819.491198292001,2819.9776234580013,g,0.0,0.4792410420013766,,,,,sub-121,1,stroop_test,120.5719935366614,
,,,,115.0,7.0,9.0,,,,,,,,,,,,,gelb,yellow,g,1.0,g,1.0,0.5022088330006227,,,,,,,,,,9.0,7.0,115.0,10.0,2819.9908463750007,,,,,,,,,,,,,,,,,2819.9784785,2820.7745670000013,2821.57398925,2821.561342167,,,,,,,,,,,,,,,,,,,,,,,,,,,,,,,,,,,2821.5622503330005,2821.57398925,2821.57398925,2822.0841161670005,g,1.0,0.5022088330006227,,,,,sub-121,1,stroop_test,120.5719935366614,
,,,,116.0,8.0,9.0,,,,,,,,,,,,,blau,blue,b,1.0,b,1.0,0.5773542080005427,,,,,,,,,,9.0,8.0,116.0,5.0,2822.09809875,,,,,,,,,,,,,,,,,2822.084828,2823.283720167,2824.0933340830006,2824.078767125001,,,,,,,,,,,,,,,,,,,,,,,,,,,,,,,,,,,2824.083535750001,2824.0933340830006,2824.0933340830006,2824.677730708,b,1.0,0.5773542080005427,,,,,sub-121,1,stroop_test,120.5719935366614,
,,,,117.0,9.0,9.0,,,,,,,,,,,,,rot,blue,b,0.0,r,0.0,0.8181408330001432,,,,,,,,,,9.0,9.0,117.0,2.0,2824.690820792,,,,,,,,,,,,,,,,,2824.6786148750007,2825.0242544580005,2825.827715417,2825.812315208,,,,,,,,,,,,,,,,,,,,,,,,,,,,,,,,,,,2825.8164809170003,2825.827715417,2825.827715417,2826.653610833001,r,0.0,0.8181408330001432,,,,,sub-121,1,stroop_test,120.5719935366614,
,,,,118.0,10.0,9.0,,,,,,,,,,,,,gelb,red,r,0.0,r,1.0,0.8038441659991804,,,,,,,,,,9.0,10.0,118.0,8.0,2826.667446500001,,,,,,,,,,,,,,,,,2826.65463525,2827.852571833001,2828.6559604170006,2828.6423074580007,,,,,,,,,,,,,,,,,,,,,,,,,,,,,,,,,,,2828.647113208,2828.6559604170006,2828.6559604170006,2829.467437833001,r,1.0,0.8038441659991804,,,,,sub-121,1,stroop_test,120.5719935366614,
,,,,119.0,11.0,9.0,,,,,,,,,,,,,rot,yellow,g,0.0,g,1.0,0.6513079590004054,,,,,,,,,,9.0,11.0,119.0,3.0,2829.4814118330005,,,,,,,,,,,,,,,,,2829.468218417001,2829.815410125001,2830.612352083,2830.600036083001,,,,,,,,,,,,,,,,,,,,,,,,,,,,,,,,,,,2830.604161208,2830.612352083,2830.612352083,2831.269617583,g,1.0,0.6513079590004054,,,,,sub-121,1,stroop_test,120.5719935366614,
,,,,,,,,,,,,,,,,,,,,,,,,,,,,,,,,,,,,,,,,,,,,,,,,,,,,,,,,,,,,,,,,,,,,,,,,,,,,,,,,,,,,,,,,,,,,,,,,,,,,,,2831.269928333001,2831.284585333001,2836.275847708,sub-121,1,stroop_test,120.5719935366614,
