direction,corrAns,thisN,thisTrialN,thisRepN,respDots.keys,respDots.corr,respDots.rt,respDots.duration,randomInstr,respRandomInstr.keys,respRandomInstr.rt,respRandomInstr.duration,practice_trials.thisRepN,practice_trials.thisTrialN,practice_trials.thisN,practice_trials.thisIndex,instr_trials.thisRepN,instr_trials.thisTrialN,instr_trials.thisN,instr_trials.thisIndex,test_trials.thisRepN,test_trials.thisTrialN,test_trials.thisN,test_trials.thisIndex,thisRow.t,notes,general_instruction.started,textGeneralInstr.started,respGeneralInstr.started,general_instruction.stopped,respGeneralInstr.keys,respGeneralInstr.rt,respGeneralInstr.duration,ITI.started,fixcross.started,fixcross.stopped,ITI.stopped,dots.started,backgroundDots.started,stimulusDots.started,respDots.started,dots.stopped,practice_trials.respDots.keys,practice_trials.respDots.corr,practice_trials.respDots.rt,practice_trials.respDots.duration,feedback.started,textFeedback.started,feedback.stopped,textFeedback.stopped,info.started,textInfo.started,keyRespInfo.started,info.stopped,keyRespInfo.keys,keyRespInfo.rt,keyRespInfo.duration,test_instruction.started,textTestInstr.started,respTestInstr.started,test_instruction.stopped,respTestInstr.keys,respTestInstr.rt,respTestInstr.duration,random_instruction.started,textRandomInstr.started,respRandomInstr.started,random_instruction.stopped,instr_trials.respRandomInstr.keys,instr_trials.respRandomInstr.rt,instr_trials.respRandomInstr.duration,test_trials.respDots.keys,test_trials.respDots.corr,test_trials.respDots.rt,test_trials.respDots.duration,goodbye.started,textGoodbye.started,goodbye.stopped,participant,session,expName,frameRate,Unnamed: 86
,,,,,,,,,,,,,,,,,,,,,,,,,,,0.0115345660015009,0.1163863920010044,0.1163863920010044,5.481382550002309,space,5.364046282003983,,,,,,,,,,,,,,,,,,,,,,,,,,,,,,,,,,,,,,,,,,,,,,,sub-089,3,random_dot,60.79142877808816,
left,left,0.0,0.0,0.0,left,1.0,1.38676865400339,,,,,,0.0,0.0,0.0,0.0,,,,,,,,,5.501151745003881,,,,,,,,,5.488362338997831,6.29704993100313,7.101617211003031,7.0809071920011775,7.08130818400241,7.101617211003031,7.101617211003031,7.101617211003031,8.498032563002198,left,1.0,1.38676865400339,,8.503964832998463,8.523211038998852,9.01426145699952,,,,,,,,,,,,,,,,,,,,,,,,,,,,,,sub-089,3,random_dot,60.79142877808816,
right,right,1.0,1.0,0.0,right,1.0,0.6827072520027286,,,,,,0.0,1.0,1.0,1.0,,,,,,,,,9.030806586000836,,,,,,,,,9.014616942004068,9.797448208002606,10.597663733002264,10.581222788001469,10.58160705499904,10.597663733002264,10.597663733002264,10.597663733002264,11.281867639001575,right,1.0,0.6827072520027286,,11.281951238001056,11.297991564002588,11.78165603600064,11.797908819004078,,,,,,,,,,,,,,,,,,,,,,,,,,,,,sub-089,3,random_dot,60.79142877808816,
left,left,2.0,0.0,1.0,left,1.0,0.5730986870039487,,,,,,1.0,0.0,2.0,0.0,,,,,,,,,11.797908819004078,,,,,,,,,11.781980157000362,12.131475276997662,12.931314838999242,12.915091756003676,12.915472799999408,12.931314838999242,12.931314838999242,12.931314838999242,13.515207591000944,left,1.0,0.5730986870039487,,13.515301311002986,13.531590928003425,14.014428713002417,14.031109064999328,,,,,,,,,,,,,,,,,,,,,,,,,,,,,sub-089,3,random_dot,60.79142877808816,
right,right,3.0,1.0,1.0,right,1.0,0.6693547960021533,,,,,,1.0,1.0,3.0,1.0,,,,,,,,,14.031109064999328,,,,,,,,,14.01461933000246,14.114817683002912,14.914933159998329,14.898556917003589,14.898939525002788,14.914933159998329,14.914933159998329,14.914933159998329,15.59904922699934,right,1.0,0.6693547960021533,,15.59913878700172,15.61511088500265,16.09877871900244,16.11482314800378,,,,,,,,,,,,,,,,,,,,,,,,,,,,,sub-089,3,random_dot,60.79142877808816,
right,right,4.0,0.0,2.0,right,1.0,0.7649187479983084,,,,,,2.0,0.0,4.0,1.0,,,,,,,,,16.11482314800378,,,,,,,,,16.099103223001293,16.90583199899993,17.715448159004154,17.6990506919974,17.69943308299844,17.715448159004154,17.715448159004154,17.715448159004154,18.483068852998255,right,1.0,0.7649187479983084,,18.483150589003344,18.499118437997826,18.982574727997417,18.99889850099862,,,,,,,,,,,,,,,,,,,,,,,,,,,,,sub-089,3,random_dot,60.79142877808816,
left,left,5.0,1.0,2.0,left,1.0,0.5899876969997422,,,,,,2.0,1.0,5.0,0.0,,,,,,,,,18.99889850099862,,,,,,,,,18.982900267998048,19.082311070000287,19.88240925699938,19.866082537002512,19.86646724899765,19.88240925699938,19.88240925699938,19.88240925699938,20.48332838399801,left,1.0,0.5899876969997422,,20.48341898200306,20.49939363799785,20.98290967500361,20.999252693000017,,,,,,,,,,,,,,,,,,,,,,,,,,,,,sub-089,3,random_dot,60.79142877808816,
left,left,6.0,0.0,3.0,left,1.0,0.8734080009962781,,,,,,3.0,0.0,6.0,0.0,,,,,,,,,20.999252693000017,,,,,,,,,20.98323247100052,22.18290657800389,22.982978726999136,22.966724732999865,22.96710821799934,22.982978726999136,22.982978726999136,22.982978726999136,23.858608866001305,left,1.0,0.8734080009962781,,23.85868921100337,23.873964004997102,24.366709189001995,,,,,,,,,,,,,,,,,,,,,,,,,,,,,,sub-089,3,random_dot,60.79142877808816,
right,right,7.0,1.0,3.0,right,1.0,0.6673591079961625,,,,,,3.0,1.0,7.0,1.0,,,,,,,,,24.38323638599832,,,,,,,,,24.367058513998927,24.716707145002147,25.516862648000824,25.50029039500077,25.500668378001137,25.516862648000824,25.516862648000824,25.516862648000824,26.20151498199993,right,1.0,0.6673591079961625,,26.201634773999103,26.21710059999896,26.7007077140006,26.717176669000764,,,,,,,,,,,,,,,,,,,,,,,,,,,,,sub-089,3,random_dot,60.79142877808816,
right,right,8.0,0.0,4.0,right,1.0,0.7199081120052142,,,,,,4.0,0.0,8.0,1.0,,,,,,,,,26.717176669000764,,,,,,,,,26.701032841003325,26.80046495900024,27.6004660289982,27.58417960400402,27.584559597999032,27.6004660289982,27.6004660289982,27.6004660289982,28.33508564100339,right,1.0,0.7199081120052142,,28.33517402099824,28.350776209998003,28.841307643997425,,,,,,,,,,,,,,,,,,,,,,,,,,,,,,sub-089,3,random_dot,60.79142877808816,
left,left,9.0,1.0,4.0,left,1.0,0.6534129580031731,,,,,,4.0,1.0,9.0,0.0,,,,,,,,,28.858627364999847,,,,,,,,,28.841655172000173,29.6506659939987,30.450963305003825,30.434791206003865,30.435173794001457,30.450963305003825,30.450963305003825,30.450963305003825,31.118561150004098,left,1.0,0.6534129580031731,,31.118651236000005,31.134631877001084,31.618252918997317,31.6345342190034,,,,,,,,,,,,,,,,,,,,,,,,,,,,,sub-089,3,random_dot,60.79142877808816,
right,right,10.0,0.0,5.0,right,1.0,0.5975190210010624,,,,,,5.0,0.0,10.0,1.0,,,,,,,,,31.6345342190034,,,,,,,,,31.61857849700027,32.42519308200281,33.234829567001725,33.21845399399899,33.21883525799785,33.234829567001725,33.234829567001725,33.234829567001725,33.84123782000097,right,1.0,0.5975190210010624,,33.84132836700155,33.85935896699812,34.35176240600413,,,,,,,,,,,,,,,,,,,,,,,,,,,,,,sub-089,3,random_dot,60.79142877808816,
left,left,11.0,1.0,5.0,left,1.0,0.528213728000992,,,,,,5.0,1.0,11.0,0.0,,,,,,,,,34.3682635160003,,,,,,,,,34.35211432600045,35.551802139001666,36.35199912000098,36.335639472003095,36.33602133199747,36.35199912000098,36.35199912000098,36.35199912000098,36.90170843699889,left,1.0,0.528213728000992,,36.901827831003175,36.91737173299771,37.40227482099726,,,,,,,,,,,,,,,,,,,,,,,,,,,,,,sub-089,3,random_dot,60.79142877808816,
left,left,12.0,0.0,6.0,left,1.0,0.6147531579990755,,,,,,6.0,0.0,12.0,0.0,,,,,,,,,37.41871596300189,,,,,,,,,37.402624839000055,38.20215361100418,39.01762606600096,38.99550959800399,38.99588809700072,39.01762606600096,39.01762606600096,39.01762606600096,39.63668411000253,left,1.0,0.6147531579990755,,39.63677372300299,39.65264075300365,40.13619522799854,40.15260997100268,,,,,,,,,,,,,,,,,,,,,,,,,,,,,sub-089,3,random_dot,60.79142877808816,
right,right,13.0,1.0,6.0,right,1.0,0.5461301690011169,,,,,,6.0,1.0,13.0,1.0,,,,,,,,,40.15260997100268,,,,,,,,,40.136538448001374,40.48590732899902,41.28608474499924,41.269706680002855,41.27008770799876,41.28608474499924,41.28608474499924,41.28608474499924,41.836942740003,right,1.0,0.5461301690011169,,41.837033171002986,41.852845968998736,42.3364703469997,42.35291511600372,,,,,,,,,,,,,,,,,,,,,,,,,,,,,sub-089,3,random_dot,60.79142877808816,
left,left,14.0,0.0,7.0,left,1.0,0.6999512499969569,,,,,,7.0,0.0,14.0,0.0,,,,,,,,,42.35291511600372,,,,,,,,,42.336797427997226,42.436244762997376,43.23633410700131,43.21979726599966,43.220179718999134,43.23633410700131,43.23633410700131,43.23633410700131,43.95279307800229,left,1.0,0.6999512499969569,,43.95291540800099,43.96841271300218,44.45328641599917,,,,,,,,,,,,,,,,,,,,,,,,,,,,,,sub-089,3,random_dot,60.79142877808816,
right,right,15.0,1.0,7.0,right,1.0,0.674765258001571,,,,,,7.0,1.0,15.0,1.0,,,,,,,,,44.46984847600106,,,,,,,,,44.45363938099763,45.25320788299723,46.053624792002665,46.03718499000388,46.03756242799864,46.053624792002665,46.053624792002665,46.053624792002665,46.73757373999979,right,1.0,0.674765258001571,,46.73766397500003,46.75367582299805,47.23709703900386,47.25359234899952,,,,,,,,,,,,,,,,,,,,,,,,,,,,,sub-089,3,random_dot,60.79142877808816,
right,right,16.0,0.0,8.0,right,1.0,0.8873167769997963,,,,,,8.0,0.0,16.0,1.0,,,,,,,,,47.25359234899952,,,,,,,,,47.23742323300394,47.33696588499879,48.13703287400131,48.12063021900394,48.12101429599716,48.13703287400131,48.13703287400131,48.13703287400131,49.03147554099996,right,1.0,0.8873167769997963,,49.03159904600034,49.0447691119989,49.53755263100175,,,,,,,,,,,,,,,,,,,,,,,,,,,,,,sub-089,3,random_dot,60.79142877808816,
left,left,17.0,1.0,8.0,left,1.0,0.5366905550035881,,,,,,8.0,1.0,17.0,0.0,,,,,,,,,49.55427307199716,,,,,,,,,49.5379037390012,49.88761786199757,50.68768388999888,50.67130474700389,50.67168501100241,50.68768388999888,50.68768388999888,50.68768388999888,51.23860357900412,left,1.0,0.5366905550035881,,51.23869481399743,51.25459771500027,51.738281940997695,51.75472292100312,,,,,,,,,,,,,,,,,,,,,,,,,,,,,sub-089,3,random_dot,60.79142877808816,
left,left,18.0,0.0,9.0,left,1.0,0.6695364820043324,,,,,,9.0,0.0,18.0,0.0,,,,,,,,,51.75472292100312,,,,,,,,,51.73860420499841,52.5451746050021,53.35483683199709,53.33865240799787,53.3390364529987,53.35483683199709,53.35483683199709,53.35483683199709,54.04406532400026,left,1.0,0.6695364820043324,,54.04418595899915,54.0593008920041,54.55511469000339,,,,,,,,,,,,,,,,,,,,,,,,,,,,,,sub-089,3,random_dot,60.79142877808816,
right,right,19.0,1.0,9.0,right,1.0,0.8688152149989037,,,,,,9.0,1.0,19.0,1.0,,,,,,,,,54.57178388700413,,,,,,,,,54.555466785001045,55.35514063500159,56.15542737799842,56.13904110599833,56.13941922500089,56.15542737799842,56.15542737799842,56.15542737799842,57.03986974700092,right,1.0,0.8688152149989037,,57.03998987600062,57.05541700100002,57.54581131599844,,,,,,,,,,,,,,,,,,,,,,,,,,,,,,sub-089,3,random_dot,60.79142877808816,
,,,,,,,,,,,,,,,,,,,,,,,,,,,,,,,,,,,,,,,,,,,,,,,,,,,57.54595450800116,57.56549425100093,57.56549425100093,59.09967343699827,space,1.530816513004538,,,,,,,,,,,,,,,,,,,,,,,sub-089,3,random_dot,60.79142877808816,
,,,,,,,,,,,,,,,,,,,,,,,,,,,,,,,,,,,,,,,,,,,,,,,,,,,,,,,,,,59.099732073998894,59.11733893999917,59.11733893999917,59.60682481300319,space,0.4829196339996997,,,,,,,,,,,,,,,,sub-089,3,random_dot,60.79142877808816,
right,right,0.0,0.0,0.0,left,0.0,0.6791665069977171,,speed,space,0.6723509919975186,,,,,,0.0,0.0,0.0,1.0,0.0,0.0,0.0,1.0,60.32242571099778,,,,,,,,,60.31097956599842,60.664228670997545,61.47306771099829,61.45657490300073,61.45698122899921,61.47306771099829,61.47306771099829,61.47306771099829,62.15735423500155,,,,,,,,,,,,,,,,,,,,,,,59.62282914000389,59.631913957004144,59.631913957004144,60.30663459700008,space,0.6723509919975186,,left,0.0,0.6791665069977171,,,,,sub-089,3,random_dot,60.79142877808816,
left,left,1.0,1.0,0.0,left,1.0,0.5917018549953355,,speed,space,0.6723509919975186,,,,,,0.0,0.0,0.0,1.0,0.0,1.0,1.0,0.0,62.173109987001226,,,,,,,,,62.15766749800241,62.25611315599963,63.05665758800024,63.040067538000585,63.040448345003824,63.05665758800024,63.05665758800024,63.05665758800024,63.65737704800267,,,,,,,,,,,,,,,,,,,,,,,,,,,,,,left,1.0,0.5917018549953355,,,,,sub-089,3,random_dot,60.79142877808816,
right,right,2.0,0.0,1.0,left,0.0,0.8793809760027216,,speed,space,0.6723509919975186,,,,,,0.0,0.0,0.0,1.0,1.0,0.0,2.0,1.0,63.67345184199803,,,,,,,,,63.65768466400186,64.4567190700036,65.2568599849983,65.24037644299824,65.24075610400178,65.2568599849983,65.2568599849983,65.2568599849983,66.14087916399876,,,,,,,,,,,,,,,,,,,,,,,,,,,,,,left,0.0,0.8793809760027216,,,,,sub-089,3,random_dot,60.79142877808816,
left,left,3.0,1.0,1.0,left,1.0,1.181643958996574,,speed,space,0.6723509919975186,,,,,,0.0,0.0,0.0,1.0,1.0,1.0,3.0,0.0,66.15692922200105,,,,,,,,,66.14119423900411,66.49035204199754,67.29056996500003,67.27404713600117,67.27442589100247,67.29056996500003,67.29056996500003,67.29056996500003,68.47457067300275,,,,,,,,,,,,,,,,,,,,,,,,,,,,,,left,1.0,1.181643958996574,,,,,sub-089,3,random_dot,60.79142877808816,
left,left,4.0,0.0,2.0,left,1.0,0.8581572800030699,,speed,space,0.6723509919975186,,,,,,0.0,0.0,0.0,1.0,2.0,0.0,4.0,0.0,68.49075219799852,,,,,,,,,68.47485035200225,68.57398630899843,69.37422117299866,69.35773966799752,69.35812001400336,69.37422117299866,69.37422117299866,69.37422117299866,70.24130438800057,,,,,,,,,,,,,,,,,,,,,,,,,,,,,,left,1.0,0.8581572800030699,,,,,sub-089,3,random_dot,60.79142877808816,
right,right,5.0,1.0,2.0,right,1.0,0.6557853499980411,,speed,space,0.6723509919975186,,,,,,0.0,0.0,0.0,1.0,2.0,1.0,5.0,1.0,70.25783388000127,,,,,,,,,70.24161850399832,71.4412175480029,72.25659502900089,72.23455248300161,72.2349292430008,72.25659502900089,72.25659502900089,72.25659502900089,72.92561384000146,,,,,,,,,,,,,,,,,,,,,,,,,,,,,,right,1.0,0.6557853499980411,,,,,sub-089,3,random_dot,60.79142877808816,
right,right,6.0,0.0,3.0,right,1.0,0.5470875159953721,,speed,space,0.6723509919975186,,,,,,0.0,0.0,0.0,1.0,3.0,0.0,6.0,1.0,72.94130258900259,,,,,,,,,72.92592254000192,73.72480622700095,74.5251525690037,74.5084210069981,74.50871377200383,74.5251525690037,74.5251525690037,74.5251525690037,75.07589301899861,,,,,,,,,,,,,,,,,,,,,,,,,,,,,,right,1.0,0.5470875159953721,,,,,sub-089,3,random_dot,60.79142877808816,
left,left,7.0,1.0,3.0,left,1.0,0.5167824039963307,,speed,space,0.6723509919975186,,,,,,0.0,0.0,0.0,1.0,3.0,1.0,7.0,0.0,75.09188072899997,,,,,,,,,75.07619987100043,76.27559081000072,77.07555534799758,77.059258194,77.05964116399991,77.07555534799758,77.07555534799758,77.07555534799758,77.59329672800231,,,,,,,,,,,,,,,,,,,,,,,,,,,,,,left,1.0,0.5167824039963307,,,,,sub-089,3,random_dot,60.79142877808816,
right,right,8.0,0.0,4.0,right,1.0,0.6230154099976062,,speed,space,0.6723509919975186,,,,,,0.0,0.0,0.0,1.0,4.0,0.0,8.0,1.0,77.60909227500088,,,,,,,,,77.59358506299759,78.39387335199717,79.20938051900157,79.19292150699766,79.19321490400034,79.20938051900157,79.20938051900157,79.20938051900157,79.84336867200182,,,,,,,,,,,,,,,,,,,,,,,,,,,,,,right,1.0,0.6230154099976062,,,,,sub-089,3,random_dot,60.79142877808816,
left,left,9.0,1.0,4.0,left,1.0,0.557421167002758,,speed,space,0.6723509919975186,,,,,,0.0,0.0,0.0,1.0,4.0,1.0,9.0,0.0,79.85950855199917,,,,,,,,,79.8436793410001,80.64281512900197,81.44292098400183,81.42643521999707,81.42681913499837,81.44292098400183,81.44292098400183,81.44292098400183,82.01038078300189,,,,,,,,,,,,,,,,,,,,,,,,,,,,,,left,1.0,0.557421167002758,,,,,sub-089,3,random_dot,60.79142877808816,
left,left,10.0,0.0,5.0,left,1.0,1.162743793996924,,speed,space,0.6723509919975186,,,,,,0.0,0.0,0.0,1.0,5.0,0.0,10.0,0.0,82.02653897600248,,,,,,,,,82.01070621100371,82.10988929899759,82.9095316660023,82.89280919599696,82.89308969800186,82.9095316660023,82.9095316660023,82.9095316660023,84.07719054199697,,,,,,,,,,,,,,,,,,,,,,,,,,,,,,left,1.0,1.162743793996924,,,,,sub-089,3,random_dot,60.79142877808816,
right,right,11.0,1.0,5.0,right,1.0,0.6613651130028302,,speed,space,0.6723509919975186,,,,,,0.0,0.0,0.0,1.0,5.0,1.0,11.0,1.0,84.09330597799999,,,,,,,,,84.07749781000166,84.42676994900103,85.22687847600173,85.21046011999715,85.21083995699883,85.22687847600173,85.22687847600173,85.22687847600173,85.90186451000045,,,,,,,,,,,,,,,,,,,,,,,,,,,,,,right,1.0,0.6613651130028302,,,,,sub-089,3,random_dot,60.79142877808816,
left,left,12.0,0.0,6.0,left,1.0,0.5135624719987391,,speed,space,0.6723509919975186,,,,,,0.0,0.0,0.0,1.0,6.0,0.0,12.0,0.0,85.91029988600349,,,,,,,,,85.90228373400168,86.71049681000295,87.51065656999708,87.49423943799775,87.49462129599851,87.51065656999708,87.51065656999708,87.51065656999708,88.02764298800321,,,,,,,,,,,,,,,,,,,,,,,,,,,,,,left,1.0,0.5135624719987391,,,,,sub-089,3,random_dot,60.79142877808816,
right,right,13.0,1.0,6.0,right,1.0,0.876545241997519,,speed,space,0.6723509919975186,,,,,,0.0,0.0,0.0,1.0,6.0,1.0,13.0,1.0,88.04429433099722,,,,,,,,,88.02788885399787,89.2275530859988,90.02775024499715,90.01154207700165,90.01192200800142,90.02775024499715,90.02775024499715,90.02775024499715,90.91851946400128,,,,,,,,,,,,,,,,,,,,,,,,,,,,,,right,1.0,0.876545241997519,,,,,sub-089,3,random_dot,60.79142877808816,
left,left,14.0,0.0,7.0,left,1.0,0.544175107999763,,speed,space,0.6723509919975186,,,,,,0.0,0.0,0.0,1.0,7.0,0.0,14.0,0.0,90.93583787199896,,,,,,,,,90.91897189299924,91.72799374700116,92.52806393900391,92.51169050300086,92.51207531100226,92.52806393900391,92.52806393900391,92.52806393900391,93.07897399899956,,,,,,,,,,,,,,,,,,,,,,,,,,,,,,left,1.0,0.544175107999763,,,,,sub-089,3,random_dot,60.79142877808816,
right,right,15.0,1.0,7.0,right,1.0,0.5610114580049412,,speed,space,0.6723509919975186,,,,,,0.0,0.0,0.0,1.0,7.0,1.0,15.0,1.0,93.0948985560026,,,,,,,,,93.07928583800094,93.88577671600068,94.69522942400364,94.67874474500422,94.67912202300067,94.69522942400364,94.69522942400364,94.69522942400364,95.26305555800354,,,,,,,,,,,,,,,,,,,,,,,,,,,,,,right,1.0,0.5610114580049412,,,,,sub-089,3,random_dot,60.79142877808816,
right,right,16.0,0.0,8.0,right,1.0,0.5879987480002455,,speed,space,0.6723509919975186,,,,,,0.0,0.0,0.0,1.0,8.0,0.0,16.0,1.0,95.2788092539995,,,,,,,,,95.26336532999994,96.06229516599706,96.87624204299937,96.8535689929995,96.85386374899826,96.87624204299937,96.87624204299937,96.87624204299937,97.48027806499886,,,,,,,,,,,,,,,,,,,,,,,,,,,,,,right,1.0,0.5879987480002455,,,,,sub-089,3,random_dot,60.79142877808816,
left,left,17.0,1.0,8.0,left,1.0,0.4824995000017225,,speed,space,0.6723509919975186,,,,,,0.0,0.0,0.0,1.0,8.0,1.0,17.0,0.0,97.4958038190016,,,,,,,,,97.4806971759972,97.84593803300233,98.64584982600354,98.62943264299976,98.62981535799918,98.64584982600354,98.64584982600354,98.64584982600354,99.1299218139975,,,,,,,,,,,,,,,,,,,,,,,,,,,,,,left,1.0,0.4824995000017225,,,,,sub-089,3,random_dot,60.79142877808816,
left,left,18.0,0.0,9.0,left,1.0,0.5267079930054024,,speed,space,0.6723509919975186,,,,,,0.0,0.0,0.0,1.0,9.0,0.0,18.0,0.0,99.14613681699848,,,,,,,,,99.1302106840012,99.92959398600216,100.729556874001,100.71331551799813,100.7136948740008,100.729556874001,100.729556874001,100.729556874001,101.26371422100055,,,,,,,,,,,,,,,,,,,,,,,,,,,,,,left,1.0,0.5267079930054024,,,,,sub-089,3,random_dot,60.79142877808816,
right,right,19.0,1.0,9.0,right,1.0,0.7010900080058491,,speed,space,0.6723509919975186,,,,,,0.0,0.0,0.0,1.0,9.0,1.0,19.0,1.0,101.27990776499792,,,,,,,,,101.26402760099882,101.36316392900336,102.16315050199772,102.1469377750036,102.14731536700128,102.16315050199772,102.16315050199772,102.16315050199772,102.88112874500077,,,,,,,,,,,,,,,,,,,,,,,,,,,,,,right,1.0,0.7010900080058491,,,,,sub-089,3,random_dot,60.79142877808816,
right,right,20.0,0.0,10.0,right,1.0,1.579647083999589,,speed,space,0.6723509919975186,,,,,,0.0,0.0,0.0,1.0,10.0,0.0,20.0,1.0,102.89674200399897,,,,,,,,,102.88154942700204,102.99657849300274,103.79659294400336,103.78024647699932,103.78062446600234,103.79659294400336,103.79659294400336,103.79659294400336,105.3809970250004,,,,,,,,,,,,,,,,,,,,,,,,,,,,,,right,1.0,1.579647083999589,,,,,sub-089,3,random_dot,60.79142877808816,
left,left,21.0,1.0,10.0,left,1.0,0.4756690869980957,,speed,space,0.6723509919975186,,,,,,0.0,0.0,0.0,1.0,10.0,1.0,21.0,0.0,105.39708217600128,,,,,,,,,105.38130887599982,106.18040741400182,106.98066060100246,106.96434308400056,106.96472541500408,106.98066060100246,106.98066060100246,106.98066060100246,107.45795721300236,,,,,,,,,,,,,,,,,,,,,,,,,,,,,,left,1.0,0.4756690869980957,,,,,sub-089,3,random_dot,60.79142877808816,
right,right,22.0,0.0,11.0,right,1.0,0.4957648560011876,,speed,space,0.6723509919975186,,,,,,0.0,0.0,0.0,1.0,11.0,0.0,22.0,1.0,107.47054961699904,,,,,,,,,107.45829246000358,108.66419007600052,109.46447920199716,109.44806908100144,109.44844684300188,109.46447920199716,109.46447920199716,109.46447920199716,109.96490339199954,,,,,,,,,,,,,,,,,,,,,,,,,,,,,,right,1.0,0.4957648560011876,,,,,sub-089,3,random_dot,60.79142877808816,
left,left,23.0,1.0,11.0,left,1.0,0.4116864310053643,,speed,space,0.6723509919975186,,,,,,0.0,0.0,0.0,1.0,11.0,1.0,23.0,0.0,109.9811194770009,,,,,,,,,109.96522452899808,110.76456445499934,111.5645712330006,111.5483752029977,111.54876250099916,111.5645712330006,111.5645712330006,111.5645712330006,111.98247075299878,,,,,,,,,,,,,,,,,,,,,,,,,,,,,,left,1.0,0.4116864310053643,,,,,sub-089,3,random_dot,60.79142877808816,
left,left,24.0,0.0,12.0,left,1.0,0.5785939010020229,,speed,space,0.6723509919975186,,,,,,0.0,0.0,0.0,1.0,12.0,0.0,24.0,0.0,111.99824831300066,,,,,,,,,111.98277701000188,112.78169704700122,113.58165677200304,113.56540638799925,113.56578761799756,113.58165677200304,113.58165677200304,113.58165677200304,114.16610634099924,,,,,,,,,,,,,,,,,,,,,,,,,,,,,,left,1.0,0.5785939010020229,,,,,sub-089,3,random_dot,60.79142877808816,
right,right,25.0,1.0,12.0,right,1.0,0.6746877109981142,,speed,space,0.6723509919975186,,,,,,0.0,0.0,0.0,1.0,12.0,1.0,25.0,1.0,114.1819938999979,,,,,,,,,114.16641528299806,115.36550674399768,116.16568838500098,116.14924186999995,116.1496206849988,116.16568838500098,116.16568838500098,116.16568838500098,116.84930828500364,,,,,,,,,,,,,,,,,,,,,,,,,,,,,,right,1.0,0.6746877109981142,,,,,sub-089,3,random_dot,60.79142877808816,
left,left,26.0,0.0,13.0,left,1.0,0.4949852379941148,,speed,space,0.6723509919975186,,,,,,0.0,0.0,0.0,1.0,13.0,0.0,26.0,0.0,116.86579851600254,,,,,,,,,116.84961533000023,117.64905222700328,118.44923539199954,118.43264720599836,118.43302764699912,118.44923539199954,118.44923539199954,118.44923539199954,118.95562772200356,,,,,,,,,,,,,,,,,,,,,,,,,,,,,,left,1.0,0.4949852379941148,,,,,sub-089,3,random_dot,60.79142877808816,
right,right,27.0,1.0,13.0,left,0.0,0.9218345250046696,,speed,space,0.6723509919975186,,,,,,0.0,0.0,0.0,1.0,13.0,1.0,27.0,1.0,118.97355956499814,,,,,,,,,118.95593703300256,120.16633824200107,120.96652443800122,120.9501163340028,120.95049539300088,120.96652443800122,120.96652443800122,120.96652443800122,121.9006548690013,,,,,,,,,,,,,,,,,,,,,,,,,,,,,,left,0.0,0.9218345250046696,,,,,sub-089,3,random_dot,60.79142877808816,
right,right,28.0,0.0,14.0,right,1.0,1.573923203999584,,speed,space,0.6723509919975186,,,,,,0.0,0.0,0.0,1.0,14.0,0.0,28.0,1.0,121.91663822500414,,,,,,,,,121.9009797940016,123.09992894600146,123.9000879630039,123.8836623840034,123.8840416200037,123.9000879630039,123.9000879630039,123.9000879630039,125.48751841000194,,,,,,,,,,,,,,,,,,,,,,,,,,,,,,right,1.0,1.573923203999584,,,,,sub-089,3,random_dot,60.79142877808816,
left,left,29.0,1.0,14.0,left,1.0,0.6534398680014419,,speed,space,0.6723509919975186,,,,,,0.0,0.0,0.0,1.0,14.0,1.0,29.0,0.0,125.50589816499996,,,,,,,,,125.4879419459976,126.30046679599764,127.10067974599951,127.08418307700047,127.08456468999792,127.10067974599951,127.10067974599951,127.10067974599951,127.7685832049974,,,,,,,,,,,,,,,,,,,,,,,,,,,,,,left,1.0,0.6534398680014419,,,,,sub-089,3,random_dot,60.79142877808816,
right,right,30.0,0.0,15.0,right,1.0,0.709811920998618,,speed,space,0.6723509919975186,,,,,,0.0,0.0,0.0,1.0,15.0,0.0,30.0,1.0,127.78410499999882,,,,,,,,,127.76900644400304,127.88403408900194,128.6843650209994,128.66785300899937,128.66822839999804,128.6843650209994,128.6843650209994,128.6843650209994,129.4013181640039,,,,,,,,,,,,,,,,,,,,,,,,,,,,,,right,1.0,0.709811920998618,,,,,sub-089,3,random_dot,60.79142877808816,
left,left,31.0,1.0,15.0,left,1.0,0.4478149690039572,,speed,space,0.6723509919975186,,,,,,0.0,0.0,0.0,1.0,15.0,1.0,31.0,0.0,129.4176266909999,,,,,,,,,129.4016202519997,130.60842981599853,131.4182707220025,131.40182551700127,131.40220932700322,131.4182707220025,131.4182707220025,131.4182707220025,131.86890863699955,,,,,,,,,,,,,,,,,,,,,,,,,,,,,,left,1.0,0.4478149690039572,,,,,sub-089,3,random_dot,60.79142877808816,
right,right,32.0,0.0,16.0,right,1.0,0.4927856580034131,,speed,space,0.6723509919975186,,,,,,0.0,0.0,0.0,1.0,16.0,0.0,32.0,1.0,131.88507592899987,,,,,,,,,131.8691909780027,132.67635100700136,133.48518994000187,133.4688793739988,133.46925724400353,133.48518994000187,133.48518994000187,133.48518994000187,133.98569610500272,,,,,,,,,,,,,,,,,,,,,,,,,,,,,,right,1.0,0.4927856580034131,,,,,sub-089,3,random_dot,60.79142877808816,
left,left,33.0,1.0,16.0,left,1.0,0.5797259760001907,,speed,space,0.6723509919975186,,,,,,0.0,0.0,0.0,1.0,16.0,1.0,33.0,0.0,134.00174307799898,,,,,,,,,133.98600566000096,134.09105148500385,134.90232272400317,134.88570794500265,134.88608988100168,134.90232272400317,134.90232272400317,134.90232272400317,135.48630460099957,,,,,,,,,,,,,,,,,,,,,,,,,,,,,,left,1.0,0.5797259760001907,,,,,sub-089,3,random_dot,60.79142877808816,
right,right,34.0,0.0,17.0,right,1.0,0.5003871669978253,,speed,space,0.6723509919975186,,,,,,0.0,0.0,0.0,1.0,17.0,0.0,34.0,1.0,135.50223807200382,,,,,,,,,135.48661306499707,136.2855788460001,137.08570279500418,137.06924467899807,137.06962323100015,137.08570279500418,137.08570279500418,137.08570279500418,137.59682641700056,,,,,,,,,,,,,,,,,,,,,,,,,,,,,,right,1.0,0.5003871669978253,,,,,sub-089,3,random_dot,60.79142877808816,
left,left,35.0,1.0,17.0,left,1.0,0.3842383950031944,,speed,space,0.6723509919975186,,,,,,0.0,0.0,0.0,1.0,17.0,1.0,35.0,0.0,137.6122812820031,,,,,,,,,137.59733530700032,138.40245207599946,139.21787334100372,139.19547997599875,139.19585884900152,139.21787334100372,139.21787334100372,139.21787334100372,139.60341710400098,,,,,,,,,,,,,,,,,,,,,,,,,,,,,,left,1.0,0.3842383950031944,,,,,sub-089,3,random_dot,60.79142877808816,
left,left,36.0,0.0,18.0,left,1.0,0.4867367140032002,,speed,space,0.6723509919975186,,,,,,0.0,0.0,0.0,1.0,18.0,0.0,36.0,0.0,139.6194788569992,,,,,,,,,139.60373136700218,140.80310195300262,141.6033832039975,141.58689181200316,141.58727486000134,141.6033832039975,141.6033832039975,141.6033832039975,142.10400971199851,,,,,,,,,,,,,,,,,,,,,,,,,,,,,,left,1.0,0.4867367140032002,,,,,sub-089,3,random_dot,60.79142877808816,
right,right,37.0,1.0,18.0,right,1.0,0.5587820950022433,,speed,space,0.6723509919975186,,,,,,0.0,0.0,0.0,1.0,18.0,1.0,37.0,1.0,142.12015677100135,,,,,,,,,142.1043221459986,142.20344339899748,143.003328589999,142.98717573699832,142.98754991200258,143.003328589999,143.003328589999,143.003328589999,143.5707271430001,,,,,,,,,,,,,,,,,,,,,,,,,,,,,,right,1.0,0.5587820950022433,,,,,sub-089,3,random_dot,60.79142877808816,
left,left,38.0,0.0,19.0,left,1.0,0.6795891360015958,,speed,space,0.6723509919975186,,,,,,0.0,0.0,0.0,1.0,19.0,0.0,38.0,0.0,143.587103621001,,,,,,,,,143.5710393870031,144.37021224499767,145.17043971800013,145.15402525300306,145.1544107400041,145.17043971800013,145.17043971800013,145.17043971800013,145.8547014700016,,,,,,,,,,,,,,,,,,,,,,,,,,,,,,left,1.0,0.6795891360015958,,,,,sub-089,3,random_dot,60.79142877808816,
right,right,39.0,1.0,19.0,right,1.0,0.5877792239989503,,speed,space,0.6723509919975186,,,,,,0.0,0.0,0.0,1.0,19.0,1.0,39.0,1.0,145.87056884699996,,,,,,,,,145.8550133460012,146.65403759099718,147.45432020600128,147.4379474649977,147.43833272899792,147.45432020600128,147.45432020600128,147.45432020600128,148.05492806700204,,,,,,,,,,,,,,,,,,,,,,,,,,,,,,right,1.0,0.5877792239989503,,,,,sub-089,3,random_dot,60.79142877808816,
left,left,40.0,0.0,20.0,left,1.0,0.4428160780007601,,speed,space,0.6723509919975186,,,,,,0.0,0.0,0.0,1.0,20.0,0.0,40.0,0.0,148.07085689499945,,,,,,,,,148.05524115700246,149.26163145300234,150.07129206199895,150.0552114680031,150.05559277899738,150.07129206199895,150.07129206199895,150.07129206199895,150.52181876500254,,,,,,,,,,,,,,,,,,,,,,,,,,,,,,left,1.0,0.4428160780007601,,,,,sub-089,3,random_dot,60.79142877808816,
right,right,41.0,1.0,20.0,right,1.0,0.7283261350021348,,speed,space,0.6723509919975186,,,,,,0.0,0.0,0.0,1.0,20.0,1.0,41.0,1.0,150.53817877599795,,,,,,,,,150.52212780500122,151.32167648700124,152.12165467700106,152.1053592649987,152.10573959300382,152.12165467700106,152.12165467700106,152.12165467700106,152.85620350200043,,,,,,,,,,,,,,,,,,,,,,,,,,,,,,right,1.0,0.7283261350021348,,,,,sub-089,3,random_dot,60.79142877808816,
right,right,42.0,0.0,21.0,right,1.0,0.6261353559966665,,speed,space,0.6723509919975186,,,,,,0.0,0.0,0.0,1.0,21.0,0.0,42.0,1.0,152.87200941800256,,,,,,,,,152.85652890100027,153.67193112699897,154.4720310699995,154.45565292899846,154.4560312609974,154.4720310699995,154.4720310699995,154.4720310699995,155.10599824399833,,,,,,,,,,,,,,,,,,,,,,,,,,,,,,right,1.0,0.6261353559966665,,,,,sub-089,3,random_dot,60.79142877808816,
left,left,43.0,1.0,21.0,left,1.0,1.260344674999942,,speed,space,0.6723509919975186,,,,,,0.0,0.0,0.0,1.0,21.0,1.0,43.0,0.0,155.12214268800017,,,,,,,,,155.1063087060029,155.2054169030016,156.00563078300183,155.98918838999816,155.9895735309983,156.00563078300183,156.00563078300183,156.00563078300183,157.27201204399898,,,,,,,,,,,,,,,,,,,,,,,,,,,,,,left,1.0,1.260344674999942,,,,,sub-089,3,random_dot,60.79142877808816,
right,right,44.0,0.0,22.0,right,1.0,0.6411101389967371,,speed,space,0.6723509919975186,,,,,,0.0,0.0,0.0,1.0,22.0,0.0,44.0,1.0,157.28706734799923,,,,,,,,,157.27243349399942,158.4726893890038,159.27299770100217,159.25654438199854,159.2569261239987,159.27299770100217,159.27299770100217,159.27299770100217,159.92332244600402,,,,,,,,,,,,,,,,,,,,,,,,,,,,,,right,1.0,0.6411101389967371,,,,,sub-089,3,random_dot,60.79142877808816,
left,left,45.0,1.0,22.0,left,1.0,0.5728641410023556,,speed,space,0.6723509919975186,,,,,,0.0,0.0,0.0,1.0,22.0,1.0,45.0,0.0,159.93982363500254,,,,,,,,,159.92364069000178,160.0230033600019,160.83725612499984,160.81394837400148,160.8143502180028,160.83725612499984,160.83725612499984,160.83725612499984,161.4243187960019,,,,,,,,,,,,,,,,,,,,,,,,,,,,,,left,1.0,0.5728641410023556,,,,,sub-089,3,random_dot,60.79142877808816,
left,left,46.0,0.0,23.0,left,1.0,1.1001063130024704,,speed,space,0.6723509919975186,,,,,,0.0,0.0,0.0,1.0,23.0,0.0,46.0,0.0,161.43984039899806,,,,,,,,,161.42475759600347,161.78986581000208,162.590066802004,162.57379786000092,162.57417740399978,162.590066802004,162.590066802004,162.590066802004,163.6911689940025,,,,,,,,,,,,,,,,,,,,,,,,,,,,,,left,1.0,1.1001063130024704,,,,,sub-089,3,random_dot,60.79142877808816,
right,right,47.0,1.0,23.0,right,1.0,0.7057234940002672,,speed,space,0.6723509919975186,,,,,,0.0,0.0,0.0,1.0,23.0,1.0,47.0,1.0,163.70701325700065,,,,,,,,,163.69145953399857,164.04032619699865,164.8403761640002,164.8240291070033,164.82440970800235,164.8403761640002,164.8403761640002,164.8403761640002,165.557785392004,,,,,,,,,,,,,,,,,,,,,,,,,,,,,,right,1.0,0.7057234940002672,,,,,sub-089,3,random_dot,60.79142877808816,
left,left,48.0,0.0,24.0,left,1.0,0.6165944110034616,,speed,space,0.6723509919975186,,,,,,0.0,0.0,0.0,1.0,24.0,0.0,48.0,0.0,165.57373453900072,,,,,,,,,165.55809296700318,165.65720317600062,166.45737357100006,166.4408970910008,166.44127660999948,166.45737357100006,166.45737357100006,166.45737357100006,167.07490531499934,,,,,,,,,,,,,,,,,,,,,,,,,,,,,,left,1.0,0.6165944110034616,,,,,sub-089,3,random_dot,60.79142877808816,
right,right,49.0,1.0,24.0,right,1.0,0.6036534559971187,,speed,space,0.6723509919975186,,,,,,0.0,0.0,0.0,1.0,24.0,1.0,49.0,1.0,167.0908139930034,,,,,,,,,167.07521054700192,167.17410770500285,167.97446609100007,167.957915676001,167.95829498400417,167.97446609100007,167.97446609100007,167.97446609100007,168.5919604610026,,,,,,,,,,,,,,,,,,,,,,,,,,,,,,right,1.0,0.6036534559971187,,,,,sub-089,3,random_dot,60.79142877808816,
right,right,50.0,0.0,25.0,right,1.0,1.4907977640032186,,speed,space,0.6723509919975186,,,,,,0.0,0.0,0.0,1.0,25.0,0.0,50.0,1.0,168.60789512799963,,,,,,,,,168.59227172799729,169.39132942599826,170.1913087790017,170.17481286600378,170.1751937750014,170.1913087790017,170.1913087790017,170.1913087790017,171.69219560700003,,,,,,,,,,,,,,,,,,,,,,,,,,,,,,right,1.0,1.4907977640032186,,,,,sub-089,3,random_dot,60.79142877808816,
left,left,51.0,1.0,25.0,left,1.0,0.5044266879995121,,speed,space,0.6723509919975186,,,,,,0.0,0.0,0.0,1.0,25.0,1.0,51.0,0.0,171.70795205899776,,,,,,,,,171.69250413400005,172.04152284999873,172.84169222399942,172.82526491300086,172.825648566999,172.84169222399942,172.84169222399942,172.84169222399942,173.35944697900413,,,,,,,,,,,,,,,,,,,,,,,,,,,,,,left,1.0,0.5044266879995121,,,,,sub-089,3,random_dot,60.79142877808816,
right,right,52.0,0.0,26.0,right,1.0,0.5592040470000939,,speed,space,0.6723509919975186,,,,,,0.0,0.0,0.0,1.0,26.0,0.0,52.0,1.0,173.37504890499986,,,,,,,,,173.35986511199735,173.45844744900387,174.25885013100196,174.24232194999786,174.2427203219995,174.25885013100196,174.25885013100196,174.25885013100196,174.82596637799725,,,,,,,,,,,,,,,,,,,,,,,,,,,,,,right,1.0,0.5592040470000939,,,,,sub-089,3,random_dot,60.79142877808816,
left,left,53.0,1.0,26.0,left,1.0,0.5565504309997777,,speed,space,0.6723509919975186,,,,,,0.0,0.0,0.0,1.0,26.0,1.0,53.0,0.0,174.84231670600275,,,,,,,,,174.82627282699832,174.92579553199903,175.72555948600348,175.70921952400386,175.70959922899783,175.72555948600348,175.72555948600348,175.72555948600348,176.2930604400026,,,,,,,,,,,,,,,,,,,,,,,,,,,,,,left,1.0,0.5565504309997777,,,,,sub-089,3,random_dot,60.79142877808816,
left,left,54.0,0.0,27.0,left,1.0,0.7326851139951032,,speed,space,0.6723509919975186,,,,,,0.0,0.0,0.0,1.0,27.0,0.0,54.0,0.0,176.30896735499846,,,,,,,,,176.29337269900134,177.50058884399914,178.3093992150025,178.29307902599976,178.29346552999775,178.3093992150025,178.3093992150025,178.3093992150025,179.04893798899866,,,,,,,,,,,,,,,,,,,,,,,,,,,,,,left,1.0,0.7326851139951032,,,,,sub-089,3,random_dot,60.79142877808816,
right,right,55.0,1.0,27.0,right,1.0,0.5383879500004696,,speed,space,0.6723509919975186,,,,,,0.0,0.0,0.0,1.0,27.0,1.0,55.0,1.0,179.0672535190024,,,,,,,,,179.04935402199771,179.15958646099898,179.95972033200087,179.9433157320018,179.9436955630008,179.95972033200087,179.95972033200087,179.95972033200087,180.50395956200373,,,,,,,,,,,,,,,,,,,,,,,,,,,,,,right,1.0,0.5383879500004696,,,,,sub-089,3,random_dot,60.79142877808816,
left,left,56.0,0.0,28.0,left,1.0,0.7119675149951945,,speed,space,0.6723509919975186,,,,,,0.0,0.0,0.0,1.0,28.0,0.0,56.0,0.0,180.51962434699817,,,,,,,,,180.50437333599984,180.60978564999823,181.4100127830025,181.39350853700307,181.393888204002,181.4100127830025,181.4100127830025,181.4100127830025,182.1273651320007,,,,,,,,,,,,,,,,,,,,,,,,,,,,,,left,1.0,0.7119675149951945,,,,,sub-089,3,random_dot,60.79142877808816,
right,right,57.0,1.0,28.0,right,1.0,0.7245310759972199,,speed,space,0.6723509919975186,,,,,,0.0,0.0,0.0,1.0,28.0,1.0,57.0,1.0,182.14340006300336,,,,,,,,,182.12767080900085,182.48353147799932,183.2936026789976,183.27714061299773,183.27752094300376,183.2936026789976,183.2936026789976,183.2936026789976,184.0196940800015,,,,,,,,,,,,,,,,,,,,,,,,,,,,,,right,1.0,0.7245310759972199,,,,,sub-089,3,random_dot,60.79142877808816,
right,right,58.0,0.0,29.0,right,1.0,0.720810151004116,,speed,space,0.6723509919975186,,,,,,0.0,0.0,0.0,1.0,29.0,0.0,58.0,1.0,184.03673092999816,,,,,,,,,184.01999252600217,184.37706410700048,185.1773235820001,185.1607550560002,185.161135043003,185.1773235820001,185.1773235820001,185.1773235820001,185.9117901470017,,,,,,,,,,,,,,,,,,,,,,,,,,,,,,right,1.0,0.720810151004116,,,,,sub-089,3,random_dot,60.79142877808816,
left,left,59.0,1.0,29.0,left,1.0,0.6664639570008148,,speed,space,0.6723509919975186,,,,,,0.0,0.0,0.0,1.0,29.0,1.0,59.0,0.0,185.92735987599733,,,,,,,,,185.91220649200116,186.72764051899867,187.52767442900225,187.5112007409989,187.51158358000248,187.52767442900225,187.52767442900225,187.52767442900225,188.19517336600256,,,,,,,,,,,,,,,,,,,,,,,,,,,,,,left,1.0,0.6664639570008148,,,,,sub-089,3,random_dot,60.79142877808816,
,,0.0,0.0,0.0,,,,,speed,space,0.6723509919975186,,,,,,0.0,0.0,0.0,1.0,,,,,,,,,,,,,,,,,,,,,,,,,,,,,,,,,,,,,,,,,,,,,,,,,,,,,,,,,,,sub-089,3,random_dot,60.79142877808816,
right,right,0.0,0.0,0.0,right,1.0,0.64921115499601,,accuracy,space,1.1009441589994822,,,,,,0.0,1.0,1.0,0.0,0.0,0.0,0.0,1.0,189.3450717960004,,,,,,,,,189.33474217000185,190.14495102100045,190.94489901899945,190.9286156149974,190.9290010909972,190.94489901899945,190.94489901899945,190.94489901899945,191.59555048699983,,,,,,,,,,,,,,,,,,,,,,,188.20500344599716,188.21318567800336,188.21318567800336,189.3291747980038,space,1.1009441589994822,,right,1.0,0.64921115499601,,,,,sub-089,3,random_dot,60.79142877808816,
left,left,1.0,1.0,0.0,left,1.0,1.136986880999757,,accuracy,space,1.1009441589994822,,,,,,0.0,1.0,1.0,0.0,0.0,1.0,1.0,0.0,191.61182155999995,,,,,,,,,191.5958411449974,191.9451776819988,192.74513128700343,192.7287969329991,192.7291784140034,192.74513128700343,192.74513128700343,192.74513128700343,193.89652080200176,,,,,,,,,,,,,,,,,,,,,,,,,,,,,,left,1.0,1.136986880999757,,,,,sub-089,3,random_dot,60.79142877808816,
left,left,2.0,0.0,1.0,right,0.0,1.1536188240061165,,accuracy,space,1.1009441589994822,,,,,,0.0,1.0,1.0,0.0,1.0,0.0,2.0,0.0,193.9120272020009,,,,,,,,,193.8969420950016,195.10263010400377,195.9124880579984,195.89589725599944,195.8962823000038,195.9124880579984,195.9124880579984,195.9124880579984,197.08510710299743,,,,,,,,,,,,,,,,,,,,,,,,,,,,,,right,0.0,1.1536188240061165,,,,,sub-089,3,random_dot,60.79142877808816,
right,right,3.0,1.0,1.0,right,1.0,0.8039620729978196,,accuracy,space,1.1009441589994822,,,,,,0.0,1.0,1.0,0.0,1.0,1.0,3.0,1.0,197.103348112003,,,,,,,,,197.0855307210004,197.446040558003,198.24615785700007,198.2296813590001,198.23007629699717,198.24615785700007,198.24615785700007,198.24615785700007,199.0639422949971,,,,,,,,,,,,,,,,,,,,,,,,,,,,,,right,1.0,0.8039620729978196,,,,,sub-089,3,random_dot,60.79142877808816,
left,left,4.0,0.0,2.0,left,1.0,0.5783915819993126,,accuracy,space,1.1009441589994822,,,,,,0.0,1.0,1.0,0.0,2.0,0.0,4.0,0.0,199.07955764699727,,,,,,,,,199.0643623290016,200.26323832000344,201.06359089200123,201.04702578100117,201.04740758700063,201.06359089200123,201.06359089200123,201.06359089200123,201.6475496679996,,,,,,,,,,,,,,,,,,,,,,,,,,,,,,left,1.0,0.5783915819993126,,,,,sub-089,3,random_dot,60.79142877808816,
right,right,5.0,1.0,2.0,right,1.0,0.8371525979964645,,accuracy,space,1.1009441589994822,,,,,,0.0,1.0,1.0,0.0,2.0,1.0,5.0,1.0,201.6636470939993,,,,,,,,,201.6478591729974,201.99669433999952,202.7969676529974,202.78044388200212,202.78082442699812,202.7969676529974,202.7969676529974,202.7969676529974,203.63567889799745,,,,,,,,,,,,,,,,,,,,,,,,,,,,,,right,1.0,0.8371525979964645,,,,,sub-089,3,random_dot,60.79142877808816,
left,left,6.0,0.0,3.0,left,1.0,0.5909179669979494,,accuracy,space,1.1009441589994822,,,,,,0.0,1.0,1.0,0.0,3.0,0.0,6.0,0.0,203.6535472420001,,,,,,,,,203.6359816999975,203.7377742660028,204.547134405002,204.53057483900196,204.5309557349974,204.547134405002,204.547134405002,204.547134405002,205.1476932209989,,,,,,,,,,,,,,,,,,,,,,,,,,,,,,left,1.0,0.5909179669979494,,,,,sub-089,3,random_dot,60.79142877808816,
right,right,7.0,1.0,3.0,right,1.0,0.8865119969996158,,accuracy,space,1.1009441589994822,,,,,,0.0,1.0,1.0,0.0,3.0,1.0,7.0,1.0,205.16399813900352,,,,,,,,,205.1480023300028,205.94743529400148,206.7475982420001,206.73134520599703,206.73172157200315,206.7475982420001,206.7475982420001,206.7475982420001,207.6485753119996,,,,,,,,,,,,,,,,,,,,,,,,,,,,,,right,1.0,0.8865119969996158,,,,,sub-089,3,random_dot,60.79142877808816,
right,right,8.0,0.0,4.0,right,1.0,0.5700909560036962,,accuracy,space,1.1009441589994822,,,,,,0.0,1.0,1.0,0.0,4.0,0.0,8.0,1.0,207.66458411799977,,,,,,,,,207.64888442400115,208.44788834099745,209.2480236420015,209.23162094200237,209.23200315300343,209.2480236420015,209.2480236420015,209.2480236420015,209.83267697100385,,,,,,,,,,,,,,,,,,,,,,,,,,,,,,right,1.0,0.5700909560036962,,,,,sub-089,3,random_dot,60.79142877808816,
left,left,9.0,1.0,4.0,left,1.0,0.7296920379958465,,accuracy,space,1.1009441589994822,,,,,,0.0,1.0,1.0,0.0,4.0,1.0,9.0,0.0,209.84811476000323,,,,,,,,,209.833115554,210.64823245200387,211.448402713002,211.43208305299777,211.4324662159997,211.448402713002,211.448402713002,211.448402713002,212.1812060709999,,,,,,,,,,,,,,,,,,,,,,,,,,,,,,left,1.0,0.7296920379958465,,,,,sub-089,3,random_dot,60.79142877808816,
right,right,10.0,0.0,5.0,right,1.0,0.4039018969997414,,accuracy,space,1.1009441589994822,,,,,,0.0,1.0,1.0,0.0,5.0,0.0,10.0,1.0,212.19669105100184,,,,,,,,,212.18148713799744,213.3824162669989,214.18222210100063,214.1659452480017,214.16632719399783,214.18222210100063,214.18222210100063,214.18222210100063,214.59991518899915,,,,,,,,,,,,,,,,,,,,,,,,,,,,,,right,1.0,0.4039018969997414,,,,,sub-089,3,random_dot,60.79142877808816,
left,left,11.0,1.0,5.0,left,1.0,0.4267162999967695,,accuracy,space,1.1009441589994822,,,,,,0.0,1.0,1.0,0.0,5.0,1.0,11.0,0.0,214.61582595000075,,,,,,,,,214.6002371029972,215.3991983770029,216.1993354419974,216.18285723400183,216.18323627099744,216.1993354419974,216.1993354419974,216.1993354419974,216.63338429300347,,,,,,,,,,,,,,,,,,,,,,,,,,,,,,left,1.0,0.4267162999967695,,,,,sub-089,3,random_dot,60.79142877808816,
right,right,12.0,0.0,6.0,right,1.0,0.7131316259983578,,accuracy,space,1.1009441589994822,,,,,,0.0,1.0,1.0,0.0,6.0,0.0,12.0,1.0,216.6493175939977,,,,,,,,,216.63369244599744,217.43286824700044,218.23297186000127,218.21625751099785,218.2165548819976,218.23297186000127,218.23297186000127,218.23297186000127,218.95065840199825,,,,,,,,,,,,,,,,,,,,,,,,,,,,,,right,1.0,0.7131316259983578,,,,,sub-089,3,random_dot,60.79142877808816,
left,left,13.0,1.0,6.0,left,1.0,0.5316982570002438,,accuracy,space,1.1009441589994822,,,,,,0.0,1.0,1.0,0.0,6.0,1.0,13.0,0.0,218.96615762900183,,,,,,,,,218.95096559100057,220.15005495399964,220.9502849729979,220.93379012300284,220.9341768259983,220.9502849729979,220.9502849729979,220.9502849729979,221.48409062599967,,,,,,,,,,,,,,,,,,,,,,,,,,,,,,left,1.0,0.5316982570002438,,,,,sub-089,3,random_dot,60.79142877808816,
right,right,14.0,0.0,7.0,right,1.0,0.6703638469989528,,accuracy,space,1.1009441589994822,,,,,,0.0,1.0,1.0,0.0,7.0,0.0,14.0,1.0,221.5002864210037,,,,,,,,,221.48438164300023,222.68364524900244,223.4837751969972,223.46733205400236,223.4677327789977,223.4837751969972,223.4837751969972,223.4837751969972,224.1679636150002,,,,,,,,,,,,,,,,,,,,,,,,,,,,,,right,1.0,0.6703638469989528,,,,,sub-089,3,random_dot,60.79142877808816,
left,left,15.0,1.0,7.0,left,1.0,1.4146412370027974,,accuracy,space,1.1009441589994822,,,,,,0.0,1.0,1.0,0.0,7.0,1.0,15.0,0.0,224.18404016600107,,,,,,,,,224.16827068899877,224.2673757049997,225.06744801800232,225.05118880399823,225.0515713049972,225.06744801800232,225.06744801800232,225.06744801800232,226.48481685700244,,,,,,,,,,,,,,,,,,,,,,,,,,,,,,left,1.0,1.4146412370027974,,,,,sub-089,3,random_dot,60.79142877808816,
left,left,16.0,0.0,8.0,left,1.0,1.1935716799998772,,accuracy,space,1.1009441589994822,,,,,,0.0,1.0,1.0,0.0,8.0,0.0,16.0,0.0,226.50100312400173,,,,,,,,,226.48510740799972,226.58434186100203,227.3844648209997,227.36794416300108,227.3683259360041,227.3844648209997,227.3844648209997,227.3844648209997,228.58490489199903,,,,,,,,,,,,,,,,,,,,,,,,,,,,,,left,1.0,1.1935716799998772,,,,,sub-089,3,random_dot,60.79142877808816,
right,right,17.0,1.0,8.0,right,1.0,0.5770613759959815,,accuracy,space,1.1009441589994822,,,,,,0.0,1.0,1.0,0.0,8.0,1.0,17.0,1.0,228.60131540000293,,,,,,,,,228.58521515400207,229.38481404900085,230.1849931329998,230.16852899100195,230.16890531399983,230.1849931329998,230.1849931329998,230.1849931329998,230.7690068390002,,,,,,,,,,,,,,,,,,,,,,,,,,,,,,right,1.0,0.5770613759959815,,,,,sub-089,3,random_dot,60.79142877808816,
left,left,18.0,0.0,9.0,left,1.0,0.7095250979982666,,accuracy,space,1.1009441589994822,,,,,,0.0,1.0,1.0,0.0,9.0,0.0,18.0,0.0,230.78507495100348,,,,,,,,,230.769315794998,230.8683562389997,231.66845857600129,231.6520950539998,231.6524776639999,231.66845857600129,231.66845857600129,231.66845857600129,232.399486938004,,,,,,,,,,,,,,,,,,,,,,,,,,,,,,left,1.0,0.7095250979982666,,,,,sub-089,3,random_dot,60.79142877808816,
right,right,19.0,1.0,9.0,right,1.0,0.6557662679988425,,accuracy,space,1.1009441589994822,,,,,,0.0,1.0,1.0,0.0,9.0,1.0,19.0,1.0,232.4147248970039,,,,,,,,,232.3999045160017,233.60232525299944,234.4023326480019,234.3860298569998,234.3864126609988,234.4023326480019,234.4023326480019,234.4023326480019,235.0696868230007,,,,,,,,,,,,,,,,,,,,,,,,,,,,,,right,1.0,0.6557662679988425,,,,,sub-089,3,random_dot,60.79142877808816,
right,right,20.0,0.0,10.0,left,0.0,0.6125631440008874,,accuracy,space,1.1009441589994822,,,,,,0.0,1.0,1.0,0.0,10.0,0.0,20.0,1.0,235.08561724299943,,,,,,,,,235.06999666499905,236.2692597159985,237.06941210800144,237.0531278060007,237.05350526500115,237.06941210800144,237.06941210800144,237.06941210800144,237.6869549769981,,,,,,,,,,,,,,,,,,,,,,,,,,,,,,left,0.0,0.6125631440008874,,,,,sub-089,3,random_dot,60.79142877808816,
left,left,21.0,1.0,10.0,left,1.0,0.6355646540032467,,accuracy,space,1.1009441589994822,,,,,,0.0,1.0,1.0,0.0,10.0,1.0,21.0,0.0,237.7029961250009,,,,,,,,,237.6872622660012,238.4862368699978,239.2864153219998,239.27003239199985,239.2704131920036,239.2864153219998,239.2864153219998,239.2864153219998,239.93771709800055,,,,,,,,,,,,,,,,,,,,,,,,,,,,,,left,1.0,0.6355646540032467,,,,,sub-089,3,random_dot,60.79142877808816,
right,right,22.0,0.0,11.0,right,1.0,0.6565802279947093,,accuracy,space,1.1009441589994822,,,,,,0.0,1.0,1.0,0.0,11.0,0.0,22.0,1.0,239.9532606970024,,,,,,,,,239.9381355259975,240.7534164230019,241.55353417099832,241.53717446500377,241.53755469500172,241.55353417099832,241.55353417099832,241.55353417099832,242.2211246099978,,,,,,,,,,,,,,,,,,,,,,,,,,,,,,right,1.0,0.6565802279947093,,,,,sub-089,3,random_dot,60.79142877808816,
left,left,23.0,1.0,11.0,left,1.0,0.7496789549986715,,accuracy,space,1.1009441589994822,,,,,,0.0,1.0,1.0,0.0,11.0,1.0,23.0,0.0,242.23695350199705,,,,,,,,,242.22143149300248,243.02060014800367,243.82043431900087,243.80430218199763,243.8046817150025,243.82043431900087,243.82043431900087,243.82043431900087,244.57152195699743,,,,,,,,,,,,,,,,,,,,,,,,,,,,,,left,1.0,0.7496789549986715,,,,,sub-089,3,random_dot,60.79142877808816,
left,left,24.0,0.0,12.0,left,1.0,0.8865516110017779,,accuracy,space,1.1009441589994822,,,,,,0.0,1.0,1.0,0.0,12.0,0.0,24.0,0.0,244.5876546990039,,,,,,,,,244.57181233700248,245.37702492400425,246.18756188700357,246.171226176004,246.1716080039987,246.18756188700357,246.18756188700357,246.18756188700357,247.08870710700285,,,,,,,,,,,,,,,,,,,,,,,,,,,,,,left,1.0,0.8865516110017779,,,,,sub-089,3,random_dot,60.79142877808816,
right,right,25.0,1.0,12.0,right,1.0,0.5794641730026342,,accuracy,space,1.1009441589994822,,,,,,0.0,1.0,1.0,0.0,12.0,1.0,25.0,1.0,247.1044312410013,,,,,,,,,247.0891328759972,247.4447502760013,248.25452109300383,248.23824637100188,248.23862757199825,248.25452109300383,248.25452109300383,248.25452109300383,248.8384754770013,,,,,,,,,,,,,,,,,,,,,,,,,,,,,,right,1.0,0.5794641730026342,,,,,sub-089,3,random_dot,60.79142877808816,
left,left,26.0,0.0,13.0,left,1.0,0.5576974180003162,,accuracy,space,1.1009441589994822,,,,,,0.0,1.0,1.0,0.0,13.0,0.0,26.0,0.0,248.85455803100197,,,,,,,,,248.83875936899855,249.18803824500355,249.98831185900053,249.97190615900035,249.97228668699967,249.98831185900053,249.98831185900053,249.98831185900053,250.56551019100152,,,,,,,,,,,,,,,,,,,,,,,,,,,,,,left,1.0,0.5576974180003162,,,,,sub-089,3,random_dot,60.79142877808816,
right,right,27.0,1.0,13.0,right,1.0,0.7179277340037515,,accuracy,space,1.1009441589994822,,,,,,0.0,1.0,1.0,0.0,13.0,1.0,27.0,1.0,250.57875363699716,,,,,,,,,250.5659298870014,251.7718538420013,252.572056129,252.55557521100127,252.55595414999695,252.572056129,252.572056129,252.572056129,253.30670934500083,,,,,,,,,,,,,,,,,,,,,,,,,,,,,,right,1.0,0.7179277340037515,,,,,sub-089,3,random_dot,60.79142877808816,
left,left,28.0,0.0,14.0,left,1.0,0.8236803359977785,,accuracy,space,1.1009441589994822,,,,,,0.0,1.0,1.0,0.0,14.0,0.0,28.0,0.0,253.322315575002,,,,,,,,,253.3071284079997,254.10983515800035,254.9224338159984,254.90618899700348,254.90656960199703,254.9224338159984,254.9224338159984,254.9224338159984,255.7564413029977,,,,,,,,,,,,,,,,,,,,,,,,,,,,,,left,1.0,0.8236803359977785,,,,,sub-089,3,random_dot,60.79142877808816,
right,right,29.0,1.0,14.0,right,1.0,0.7361014359994442,,accuracy,space,1.1009441589994822,,,,,,0.0,1.0,1.0,0.0,14.0,1.0,29.0,1.0,255.7727078000025,,,,,,,,,255.75674537300077,256.1059552890001,256.90601092400175,256.8895997319996,256.8899748909971,256.90601092400175,256.90601092400175,256.90601092400175,257.65730978800275,,,,,,,,,,,,,,,,,,,,,,,,,,,,,,right,1.0,0.7361014359994442,,,,,sub-089,3,random_dot,60.79142877808816,
right,right,30.0,0.0,15.0,right,1.0,0.7928383159960504,,accuracy,space,1.1009441589994822,,,,,,0.0,1.0,1.0,0.0,15.0,0.0,30.0,1.0,257.67284952200134,,,,,,,,,257.65774691499973,258.8730251520028,259.6731537149972,259.6566124329984,259.6569906389996,259.6731537149972,259.6731537149972,259.6731537149972,260.48481676600204,,,,,,,,,,,,,,,,,,,,,,,,,,,,,,right,1.0,0.7928383159960504,,,,,sub-089,3,random_dot,60.79142877808816,
left,left,31.0,1.0,15.0,left,1.0,0.6739275369982352,,accuracy,space,1.1009441589994822,,,,,,0.0,1.0,1.0,0.0,15.0,1.0,31.0,0.0,260.4999096570027,,,,,,,,,260.4852417840011,260.8403014959986,261.64018169900373,261.6239439600031,261.6243271249987,261.64018169900373,261.64018169900373,261.64018169900373,262.32419656000275,,,,,,,,,,,,,,,,,,,,,,,,,,,,,,left,1.0,0.6739275369982352,,,,,sub-089,3,random_dot,60.79142877808816,
right,right,32.0,0.0,16.0,right,1.0,1.128092304999882,,accuracy,space,1.1009441589994822,,,,,,0.0,1.0,1.0,0.0,16.0,0.0,32.0,1.0,262.34029558500333,,,,,,,,,262.32450984200113,262.673686275004,263.47389932900114,263.4576670469978,263.4580464009996,263.47389932900114,263.47389932900114,263.47389932900114,264.6084453040021,,,,,,,,,,,,,,,,,,,,,,,,,,,,,,right,1.0,1.128092304999882,,,,,sub-089,3,random_dot,60.79142877808816,
left,left,33.0,1.0,16.0,left,1.0,0.5563730029971339,,accuracy,space,1.1009441589994822,,,,,,0.0,1.0,1.0,0.0,16.0,1.0,33.0,0.0,264.62421312800143,,,,,,,,,264.6087532329984,264.9575792609976,265.7577267980014,265.74117770200246,265.741560925002,265.7577267980014,265.7577267980014,265.7577267980014,266.325232682997,,,,,,,,,,,,,,,,,,,,,,,,,,,,,,left,1.0,0.5563730029971339,,,,,sub-089,3,random_dot,60.79142877808816,
left,left,34.0,0.0,17.0,left,1.0,1.0531609049940016,,accuracy,space,1.1009441589994822,,,,,,0.0,1.0,1.0,0.0,17.0,0.0,34.0,0.0,266.3412821489983,,,,,,,,,266.32555500799936,267.5247813110036,268.32495909200225,268.3084786429972,268.30885936199775,268.32495909200225,268.32495909200225,268.32495909200225,269.39288875499915,,,,,,,,,,,,,,,,,,,,,,,,,,,,,,left,1.0,1.0531609049940016,,,,,sub-089,3,random_dot,60.79142877808816,
right,right,35.0,1.0,17.0,right,1.0,1.0196684369948343,,accuracy,space,1.1009441589994822,,,,,,0.0,1.0,1.0,0.0,17.0,1.0,35.0,1.0,269.4080324450042,,,,,,,,,269.39347228500264,269.75829919600073,270.5584524279984,270.5420114200024,270.5423903949996,270.5584524279984,270.5584524279984,270.5584524279984,271.592980499001,,,,,,,,,,,,,,,,,,,,,,,,,,,,,,right,1.0,1.0196684369948343,,,,,sub-089,3,random_dot,60.79142877808816,
right,right,36.0,0.0,18.0,right,1.0,1.009924884994689,,accuracy,space,1.1009441589994822,,,,,,0.0,1.0,1.0,0.0,18.0,0.0,36.0,1.0,271.60860734099697,,,,,,,,,271.59339657799865,272.39206964400364,273.1922874610027,273.17575779800245,273.17613551999966,273.1922874610027,273.1922874610027,273.1922874610027,274.20936359500047,,,,,,,,,,,,,,,,,,,,,,,,,,,,,,right,1.0,1.009924884994689,,,,,sub-089,3,random_dot,60.79142877808816,
left,left,37.0,1.0,18.0,left,1.0,0.8886735810010578,,accuracy,space,1.1009441589994822,,,,,,0.0,1.0,1.0,0.0,18.0,1.0,37.0,0.0,274.2257750330027,,,,,,,,,274.2096697079978,275.4094914349989,276.20942705999914,276.1931787689973,276.1935577740005,276.20942705999914,276.20942705999914,276.20942705999914,277.1101957540013,,,,,,,,,,,,,,,,,,,,,,,,,,,,,,left,1.0,0.8886735810010578,,,,,sub-089,3,random_dot,60.79142877808816,
right,right,38.0,0.0,19.0,right,1.0,0.7602413200002047,,accuracy,space,1.1009441589994822,,,,,,0.0,1.0,1.0,0.0,19.0,0.0,38.0,1.0,277.1262262820019,,,,,,,,,277.1105042959971,277.20959775400115,278.00973859900114,277.99328732600407,277.9936640800006,278.00973859900114,278.00973859900114,278.00973859900114,278.78902173999813,,,,,,,,,,,,,,,,,,,,,,,,,,,,,,right,1.0,0.7602413200002047,,,,,sub-089,3,random_dot,60.79142877808816,
left,left,39.0,1.0,19.0,left,1.0,0.6667466430008062,,accuracy,space,1.1009441589994822,,,,,,0.0,1.0,1.0,0.0,19.0,1.0,39.0,0.0,278.79696769000293,,,,,,,,,278.7894422859972,279.1432136200019,279.94330688699847,279.92690761999984,279.92730423800094,279.94330688699847,279.94330688699847,279.94330688699847,280.6167190710039,,,,,,,,,,,,,,,,,,,,,,,,,,,,,,left,1.0,0.6667466430008062,,,,,sub-089,3,random_dot,60.79142877808816,
right,right,40.0,0.0,20.0,right,1.0,0.8751491199946031,,accuracy,space,1.1009441589994822,,,,,,0.0,1.0,1.0,0.0,20.0,0.0,40.0,1.0,280.634850430004,,,,,,,,,280.617135597,280.71964315699734,281.5269846680021,281.5106159069983,281.51099225600046,281.5269846680021,281.5269846680021,281.5269846680021,282.41098365100333,,,,,,,,,,,,,,,,,,,,,,,,,,,,,,right,1.0,0.8751491199946031,,,,,sub-089,3,random_dot,60.79142877808816,
left,left,41.0,1.0,20.0,left,1.0,2.5071548289997736,,accuracy,space,1.1009441589994822,,,,,,0.0,1.0,1.0,0.0,20.0,1.0,41.0,0.0,282.4271146730025,,,,,,,,,282.4112928730028,282.51049690200307,283.31082341,283.29433883700403,283.29472075500234,283.31082341,283.31082341,283.31082341,285.83660931899794,,,,,,,,,,,,,,,,,,,,,,,,,,,,,,left,1.0,2.5071548289997736,,,,,sub-089,3,random_dot,60.79142877808816,
right,right,42.0,0.0,21.0,right,1.0,0.5987001779940329,,accuracy,space,1.1009441589994822,,,,,,0.0,1.0,1.0,0.0,21.0,0.0,42.0,1.0,285.84485724299884,,,,,,,,,285.837024253,286.6445618150028,287.45141182000225,287.43797965299746,287.4383518850009,287.45141182000225,287.45141182000225,287.45141182000225,288.06182848099706,,,,,,,,,,,,,,,,,,,,,,,,,,,,,,right,1.0,0.5987001779940329,,,,,sub-089,3,random_dot,60.79142877808816,
left,left,43.0,1.0,21.0,left,1.0,0.8249149480034248,,accuracy,space,1.1009441589994822,,,,,,0.0,1.0,1.0,0.0,21.0,1.0,43.0,0.0,288.07811310599936,,,,,,,,,288.0621378319993,288.41165384300257,289.22518491200026,289.20194921200164,289.20232904500153,289.22518491200026,289.22518491200026,289.22518491200026,290.062615269002,,,,,,,,,,,,,,,,,,,,,,,,,,,,,,left,1.0,0.8249149480034248,,,,,sub-089,3,random_dot,60.79142877808816,
left,left,44.0,0.0,22.0,left,1.0,0.6919606760056922,,accuracy,space,1.1009441589994822,,,,,,0.0,1.0,1.0,0.0,22.0,0.0,44.0,0.0,290.078576234002,,,,,,,,,290.06292364800174,291.2621663980026,292.06213103199843,292.0458298329977,292.0462110090011,292.06213103199843,292.06213103199843,292.06213103199843,292.76266499100166,,,,,,,,,,,,,,,,,,,,,,,,,,,,,,left,1.0,0.6919606760056922,,,,,sub-089,3,random_dot,60.79142877808816,
right,right,45.0,1.0,22.0,right,1.0,0.767372094996972,,accuracy,space,1.1009441589994822,,,,,,0.0,1.0,1.0,0.0,22.0,1.0,45.0,1.0,292.77918201200373,,,,,,,,,292.76297127400176,293.9624850870023,294.76260967700364,294.74609080299706,294.7464702610014,294.76260967700364,294.76260967700364,294.76260967700364,295.54724048999924,,,,,,,,,,,,,,,,,,,,,,,,,,,,,,right,1.0,0.767372094996972,,,,,sub-089,3,random_dot,60.79142877808816,
left,left,46.0,0.0,23.0,left,1.0,0.5915732490029768,,accuracy,space,1.1009441589994822,,,,,,0.0,1.0,1.0,0.0,23.0,0.0,46.0,0.0,295.56284943500214,,,,,,,,,295.547674362002,296.7525497759998,297.5624378510038,297.54630613399786,297.5466001360037,297.5624378510038,297.5624378510038,297.5624378510038,298.16396589299984,,,,,,,,,,,,,,,,,,,,,,,,,,,,,,left,1.0,0.5915732490029768,,,,,sub-089,3,random_dot,60.79142877808816,
right,right,47.0,1.0,23.0,right,1.0,0.9621034840020002,,accuracy,space,1.1009441589994822,,,,,,0.0,1.0,1.0,0.0,23.0,1.0,47.0,1.0,298.179898522998,,,,,,,,,298.1642770239996,298.279366417999,299.0798836730028,299.0632851460032,299.06357887500053,299.0798836730028,299.0798836730028,299.0798836730028,300.0474155560005,,,,,,,,,,,,,,,,,,,,,,,,,,,,,,right,1.0,0.9621034840020002,,,,,sub-089,3,random_dot,60.79142877808816,
right,right,48.0,0.0,24.0,left,0.0,0.5392451570005505,,accuracy,space,1.1009441589994822,,,,,,0.0,1.0,1.0,0.0,24.0,0.0,48.0,1.0,300.0635097999984,,,,,,,,,300.04773058000137,300.8470328170006,301.6468740830024,301.6306967540004,301.63107735299855,301.6468740830024,301.6468740830024,301.6468740830024,302.1980077620028,,,,,,,,,,,,,,,,,,,,,,,,,,,,,,left,0.0,0.5392451570005505,,,,,sub-089,3,random_dot,60.79142877808816,
left,left,49.0,1.0,24.0,left,1.0,1.359523712999362,,accuracy,space,1.1009441589994822,,,,,,0.0,1.0,1.0,0.0,24.0,1.0,49.0,0.0,302.2140245260016,,,,,,,,,302.1983185170029,302.9974696270001,303.81057686499844,303.7872804209983,303.78765865600144,303.81057686499844,303.81057686499844,303.81057686499844,305.18137235200265,,,,,,,,,,,,,,,,,,,,,,,,,,,,,,left,1.0,1.359523712999362,,,,,sub-089,3,random_dot,60.79142877808816,
left,left,50.0,0.0,25.0,left,1.0,1.720862476999173,,accuracy,space,1.1009441589994822,,,,,,0.0,1.0,1.0,0.0,25.0,0.0,50.0,0.0,305.1976768189997,,,,,,,,,305.1816818360021,305.2810291369969,306.0812562810024,306.06485629400413,306.0652386750007,306.0812562810024,306.0812562810024,306.0812562810024,307.815872403,,,,,,,,,,,,,,,,,,,,,,,,,,,,,,left,1.0,1.720862476999173,,,,,sub-089,3,random_dot,60.79142877808816,
right,right,51.0,1.0,25.0,right,1.0,0.6902837269954034,,accuracy,space,1.1009441589994822,,,,,,0.0,1.0,1.0,0.0,25.0,1.0,51.0,1.0,307.8314864310014,,,,,,,,,307.8162919040042,308.6316803410009,309.431848375003,309.4152370239972,309.4156150470008,309.431848375003,309.431848375003,309.431848375003,310.132483718,,,,,,,,,,,,,,,,,,,,,,,,,,,,,,right,1.0,0.6902837269954034,,,,,sub-089,3,random_dot,60.79142877808816,
right,right,52.0,0.0,26.0,right,1.0,0.5975997249988723,,accuracy,space,1.1009441589994822,,,,,,0.0,1.0,1.0,0.0,26.0,0.0,52.0,1.0,310.1485315579994,,,,,,,,,310.13279370400414,311.3320925240041,312.1325025519982,312.1158517340009,312.1162315420006,312.1325025519982,312.1325025519982,312.1325025519982,312.7330124680011,,,,,,,,,,,,,,,,,,,,,,,,,,,,,,right,1.0,0.5975997249988723,,,,,sub-089,3,random_dot,60.79142877808816,
left,left,53.0,1.0,26.0,left,1.0,0.6686696550023044,,accuracy,space,1.1009441589994822,,,,,,0.0,1.0,1.0,0.0,26.0,1.0,53.0,0.0,312.7490895649971,,,,,,,,,312.7333009970025,313.9394747109982,314.74931187600305,314.73288606500137,314.7332656770013,314.74931187600305,314.74931187600305,314.74931187600305,315.4339655790027,,,,,,,,,,,,,,,,,,,,,,,,,,,,,,left,1.0,0.6686696550023044,,,,,sub-089,3,random_dot,60.79142877808816,
right,right,54.0,0.0,27.0,right,1.0,0.746128917002352,,accuracy,space,1.1009441589994822,,,,,,0.0,1.0,1.0,0.0,27.0,0.0,54.0,1.0,315.4495646459982,,,,,,,,,315.4343846249976,315.7996035190008,316.5999031190004,316.5833377309973,316.5837174359985,316.5999031190004,316.5999031190004,316.5999031190004,317.3507934480004,,,,,,,,,,,,,,,,,,,,,,,,,,,,,,right,1.0,0.746128917002352,,,,,sub-089,3,random_dot,60.79142877808816,
left,left,55.0,1.0,27.0,left,1.0,1.1439266830057022,,accuracy,space,1.1009441589994822,,,,,,0.0,1.0,1.0,0.0,27.0,1.0,55.0,0.0,317.36647965700104,,,,,,,,,317.3511159080008,317.4498700100012,318.2500533429993,318.2335647650034,318.23394355599885,318.2500533429993,318.2500533429993,318.2500533429993,319.40062165199924,,,,,,,,,,,,,,,,,,,,,,,,,,,,,,left,1.0,1.1439266830057022,,,,,sub-089,3,random_dot,60.79142877808816,
left,left,56.0,0.0,28.0,left,1.0,0.5774350889987545,,accuracy,space,1.1009441589994822,,,,,,0.0,1.0,1.0,0.0,28.0,0.0,56.0,0.0,319.41660238100303,,,,,,,,,319.40093127,320.2002779359973,321.0005702970011,320.98405891100265,320.9844400650036,321.0005702970011,321.0005702970011,321.0005702970011,321.5848849260001,,,,,,,,,,,,,,,,,,,,,,,,,,,,,,left,1.0,0.5774350889987545,,,,,sub-089,3,random_dot,60.79142877808816,
right,right,57.0,1.0,28.0,right,1.0,0.5639922689952073,,accuracy,space,1.1009441589994822,,,,,,0.0,1.0,1.0,0.0,28.0,1.0,57.0,1.0,321.60076461800054,,,,,,,,,321.5851934739985,321.934092219999,322.73404198799835,322.7175678040003,322.7179462780041,322.73404198799835,322.73404198799835,322.73404198799835,323.3016172589996,,,,,,,,,,,,,,,,,,,,,,,,,,,,,,right,1.0,0.5639922689952073,,,,,sub-089,3,random_dot,60.79142877808816,
right,right,58.0,0.0,29.0,right,1.0,0.5608632029980072,,accuracy,space,1.1009441589994822,,,,,,0.0,1.0,1.0,0.0,29.0,0.0,58.0,1.0,323.3175006309976,,,,,,,,,323.3018984250011,323.40081904199906,324.20111820499733,324.1845608759977,324.18494025799737,324.20111820499733,324.20111820499733,324.20111820499733,324.76839988400025,,,,,,,,,,,,,,,,,,,,,,,,,,,,,,right,1.0,0.5608632029980072,,,,,sub-089,3,random_dot,60.79142877808816,
left,left,59.0,1.0,29.0,left,1.0,0.946290145999228,,accuracy,space,1.1009441589994822,,,,,,0.0,1.0,1.0,0.0,29.0,1.0,59.0,0.0,324.78460172199993,,,,,,,,,324.7687086270016,325.9677814809984,326.7677035559973,326.7513815450002,326.75176291800017,326.7677035559973,326.7677035559973,326.7677035559973,327.71892410500004,,,,,,,,,,,,,,,,,,,,,,,,,,,,,,left,1.0,0.946290145999228,,,,,sub-089,3,random_dot,60.79142877808816,
,,1.0,1.0,0.0,,,,,accuracy,space,1.1009441589994822,,,,,,0.0,1.0,1.0,0.0,,,,,,,,,,,,,,,,,,,,,,,,,,,,,,,,,,,,,,,,,,,,,,,,,,,,,,,,,,,sub-089,3,random_dot,60.79142877808816,
,,,,,,,,,,,,,,,,,,,,,,,,,,,,,,,,,,,,,,,,,,,,,,,,,,,,,,,,,,,,,,,,,,,,,,,,,,,,327.7233667410037,327.73481770299986,332.71931735600083,sub-089,3,random_dot,60.79142877808816,
