direction,corrAns,randomInstr,practice_trials.thisRepN,practice_trials.thisTrialN,practice_trials.thisN,practice_trials.thisIndex,instr_trials.thisRepN,instr_trials.thisTrialN,instr_trials.thisN,instr_trials.thisIndex,test_trials.thisRepN,test_trials.thisTrialN,test_trials.thisN,test_trials.thisIndex,thisRow.t,notes,general_instruction.started,textGeneralInstr.started,respGeneralInstr.started,general_instruction.stopped,respGeneralInstr.keys,respGeneralInstr.rt,respGeneralInstr.duration,ITI.started,fixcross.started,fixcross.stopped,ITI.stopped,dots.started,backgroundDots.started,stimulusDots.started,respDots.started,stimulusDots.stopped,dots.stopped,respDots.keys,respDots.corr,respDots.rt,respDots.duration,feedback.started,textFeedback.started,textFeedback.stopped,feedback.stopped,info.started,textInfo.started,keyRespInfo.started,info.stopped,keyRespInfo.keys,keyRespInfo.rt,keyRespInfo.duration,test_instruction.started,textTestInstr.started,respTestInstr.started,test_instruction.stopped,respTestInstr.keys,respTestInstr.rt,respTestInstr.duration,random_instruction.started,textRandomInstr.started,respRandomInstr.started,random_instruction.stopped,respRandomInstr.keys,respRandomInstr.rt,respRandomInstr.duration,goodbye.started,textGoodbye.started,goodbye.stopped,participant,session,expName,frameRate,Unnamed: 73
,,,,,,,,,,,,,,,,,0.0171088001225143,0.0357945999130606,0.0357945999130606,92.3453240999952,space,104.7010819998104,,,,,,,,,,,,,,,,,,,,,,,,,,,,,,,,,,,,,,,,,,,,sub-048,1.0,random_dot,59.54613930858404,
right,right,,0.0,0.0,0.0,1.0,,,,,,,,,92.38159930007532,,,,,,,,,92.37881930009462,92.4611357001122,93.26068500010297,93.24450800009072,93.24453349993564,93.26068500010297,93.26068500010297,93.26068500010297,98.25618389993906,112.4128090001177,right,1.0,31.54714109981433,,112.41401900001802,112.4272982000839,112.92694619996472,112.9110493999906,,,,,,,,,,,,,,,,,,,,,,,,,sub-048,1.0,random_dot,59.54613930858404,
left,left,,0.0,1.0,1.0,0.0,,,,,,,,,112.92694619996472,,,,,,,,,112.91145700006746,113.27668990008532,114.07611100003125,114.05969769996592,114.05971499998122,114.07611100003125,114.07611100003125,114.07611100003125,119.0716975000687,120.25688100000843,left,1.0,18.58411129983142,,120.25757299992256,120.27193069993518,120.77073160000144,120.75519970012829,,,,,,,,,,,,,,,,,,,,,,,,,sub-048,1.0,random_dot,59.54613930858404,
left,left,,1.0,0.0,2.0,0.0,,,,,,,,,120.77073160000144,,,,,,,,,120.75551209994592,121.1200272999704,121.91980740008876,121.90336670004764,121.90338400006294,121.91980740008876,121.91980740008876,121.91980740008876,,126.1497250001412,left,1.0,16.632383599877357,,126.1501887999475,126.16600769991057,126.66676159994677,126.65005830000156,,,,,,,,,,,,,,,,,,,,,,,,,sub-048,1.0,random_dot,59.54613930858404,
right,right,,1.0,1.0,3.0,1.0,,,,,,,,,126.66676159994677,,,,,,,,,126.65038440003993,127.86436440004036,128.6641651999671,128.64834389998578,128.64836019999348,128.6641651999671,128.6641651999671,128.6641651999671,,132.81180149991997,right,1.0,16.547539199935272,,132.81214540009387,132.82751729991287,133.32652739994228,133.31122820009475,,,,,,,,,,,,,,,,,,,,,,,,,sub-048,1.0,random_dot,59.54613930858404,
right,right,,2.0,0.0,4.0,1.0,,,,,,,,,133.32652739994228,,,,,,,,,133.31158039998263,133.4267162999604,134.22622129996307,134.21030850009993,134.21032500010915,134.22622129996307,134.22622129996307,134.22622129996307,139.22147640003823,139.60561460000463,left,0.0,17.782438499853015,,139.60597310005687,139.62213340005837,140.12207889999263,140.1052254999522,,,,,,,,,,,,,,,,,,,,,,,,,sub-048,1.0,random_dot,59.54613930858404,
left,left,,2.0,1.0,5.0,0.0,,,,,,,,,140.12207889999263,,,,,,,,,140.105549500091,140.47572250012308,141.28726370004006,141.27111540012993,141.27112990012392,141.28726370004006,141.28726370004006,141.28726370004006,,143.90238220011815,right,0.0,15.005548299988732,,143.90271460008807,143.91844370006584,144.41781030013226,144.4019182000775,,,,,,,,,,,,,,,,,,,,,,,,,sub-048,1.0,random_dot,59.54613930858404,
right,right,,3.0,0.0,6.0,1.0,,,,,,,,,144.41781030013226,,,,,,,,,144.40236059995368,145.6168200999964,146.4163156999275,146.4005221000407,146.40054149995558,146.4163156999275,146.4163156999275,146.4163156999275,,149.34849769994617,right,1.0,15.337846300099043,,149.34898549993522,149.36351549997926,149.86311220005155,149.8473110999912,,,,,,,,,,,,,,,,,,,,,,,,,sub-048,1.0,random_dot,59.54613930858404,
left,left,,3.0,1.0,7.0,0.0,,,,,,,,,149.86311220005155,,,,,,,,,149.84762750007212,151.0626272999216,151.8780877001118,151.86244360008277,151.8624660000205,151.8780877001118,151.8780877001118,151.8780877001118,,154.69448060006837,left,1.0,15.220857399981467,,154.69500990002416,154.7092943999451,155.2083688999992,155.19269459997304,,,,,,,,,,,,,,,,,,,,,,,,,sub-048,1.0,random_dot,59.54613930858404,
right,right,,4.0,0.0,8.0,1.0,,,,,,,,,155.2083688999992,,,,,,,,,155.19314710004255,156.0089036000427,156.82402579998598,156.80781510006636,156.80783060006797,156.82402579998598,156.82402579998598,156.82402579998598,,158.84025350003503,right,1.0,14.418787899892775,,158.84058870002627,158.85595760005526,159.35635169991292,159.33909579995088,,,,,,,,,,,,,,,,,,,,,,,,,sub-048,1.0,random_dot,59.54613930858404,
left,left,,4.0,1.0,9.0,0.0,,,,,,,,,159.35635169991292,,,,,,,,,159.33939710003324,159.45590639999136,160.2548211000394,160.2388869000133,160.23890090011992,160.2548211000394,160.2548211000394,160.2548211000394,,162.22042459994557,left,1.0,14.36085329996422,,162.22076570009813,162.23653579992242,162.73612880008295,162.72097450005822,,,,,,,,,,,,,,,,,,,,,,,,,sub-048,1.0,random_dot,59.54613930858404,
left,left,,5.0,0.0,10.0,0.0,,,,,,,,,162.73612880008295,,,,,,,,,162.7212386999745,163.0853562001139,163.88487570011057,163.86868149996735,163.86869759997353,163.88487570011057,163.88487570011057,163.88487570011057,,166.70093109994195,right,0.0,15.213427799986675,,166.70128759997897,166.71652020001784,,167.21583490003832,,,,,,,,,,,,,,,,,,,,,,,,,sub-048,1.0,random_dot,59.54613930858404,
right,right,,5.0,1.0,11.0,1.0,,,,,,,,,167.23265670007095,,,,,,,,,167.2162842999678,168.41474230005406,169.21392900007777,169.1980546999257,169.19807330006734,169.21392900007777,169.21392900007777,169.21392900007777,,172.18064939999022,right,1.0,15.372185900108889,,172.18149970006198,172.19567480008118,172.69577959994783,172.6792236000765,,,,,,,,,,,,,,,,,,,,,,,,,sub-048,1.0,random_dot,59.54613930858404,
left,left,,6.0,0.0,12.0,0.0,,,,,,,,,172.69577959994783,,,,,,,,,172.6797424000688,173.8935259000864,174.69336339994334,174.6775573999621,174.6775810001418,174.69336339994334,174.69336339994334,174.69336339994334,,176.62630799994804,left,1.0,14.329446799820287,,176.6269280000124,176.64196330006234,,177.14130589994602,,,,,,,,,,,,,,,,,,,,,,,,,sub-048,1.0,random_dot,59.54613930858404,
right,right,,6.0,1.0,13.0,1.0,,,,,,,,,177.15776910004206,,,,,,,,,177.14188329991885,177.94038549996912,178.75718550011516,178.7403043000959,178.74032350000925,178.75718550011516,178.75718550011516,178.75718550011516,,180.8055964000523,right,1.0,14.449154200032352,,180.80609020008703,180.82140420004723,181.3214108000975,181.30504749994725,,,,,,,,,,,,,,,,,,,,,,,,,sub-048,1.0,random_dot,59.54613930858404,
left,left,,7.0,0.0,14.0,0.0,,,,,,,,,181.3214108000975,,,,,,,,,181.3053949000314,182.1203385000117,182.91958720004183,182.9037955000531,182.90381200006232,182.91958720004183,182.91958720004183,182.91958720004183,,185.3699622999411,right,0.0,14.85427389992401,,185.37068119994365,185.3847799000796,185.88419060013257,185.86857590009456,,,,,,,,,,,,,,,,,,,,,,,,,sub-048,1.0,random_dot,59.54613930858404,
right,right,,7.0,1.0,15.0,1.0,,,,,,,,,185.88419060013257,,,,,,,,,185.86912010004744,186.68331649992612,187.4822193,187.46670900005847,187.46673880005252,187.4822193,187.4822193,187.4822193,,190.1474023000337,left,0.0,15.065118100028483,,190.1479585999623,190.16353869996965,190.66281270002943,190.64655720000155,,,,,,,,,,,,,,,,,,,,,,,,,sub-048,1.0,random_dot,59.54613930858404,
right,right,,8.0,0.0,16.0,1.0,,,,,,,,,190.66281270002943,,,,,,,,,190.64685599994849,191.01293159998025,191.811717600096,191.796010900056,191.796026899945,191.811717600096,191.811717600096,191.811717600096,,194.4620247001294,right,1.0,15.050774299772456,,194.4623535000719,194.4766214999836,194.9763174999971,194.96031489991583,,,,,,,,,,,,,,,,,,,,,,,,,sub-048,1.0,random_dot,59.54613930858404,
left,left,,8.0,1.0,17.0,0.0,,,,,,,,,194.9763174999971,,,,,,,,,194.9606457001064,195.77583840000443,196.5750690000132,196.55923220003024,196.55925259995277,196.5750690000132,196.5750690000132,196.5750690000132,,198.45813870010895,right,0.0,14.28197619994171,,198.45849300012924,198.4737363001332,198.972661399981,198.9570794000756,,,,,,,,,,,,,,,,,,,,,,,,,sub-048,1.0,random_dot,59.54613930858404,
right,right,,9.0,0.0,18.0,1.0,,,,,,,,,198.972661399981,,,,,,,,,198.957490199944,199.07300810003653,199.8724012000021,199.85694959992543,199.85696689994077,199.8724012000021,199.8724012000021,199.8724012000021,,202.1388523001224,right,1.0,14.664134999969974,,202.13954890007156,202.1535261999816,202.65320280008015,202.6378317999188,,,,,,,,,,,,,,,,,,,,,,,,,sub-048,1.0,random_dot,59.54613930858404,
left,left,,9.0,1.0,19.0,0.0,,,,,,,,,202.65320280008015,,,,,,,,,202.6385741000995,202.75372090004385,203.5527334001381,203.53711079992357,203.53713309997693,203.5527334001381,203.5527334001381,203.5527334001381,,205.33586050011215,left,1.0,14.183295499999076,,205.3364317000378,205.3510167999193,205.85058819991536,205.83448410010897,,,,,,,,,,,,,,,,,,,,,,,,,sub-048,1.0,random_dot,59.54613930858404,
,,,,,,,,,,,,,,,,,,,,,,,,,,,,,,,,,,,,,,,,,,205.834529099986,205.85058819991536,205.85058819991536,229.48252550000325,space,36.0385850998573,,,,,,,,,,,,,,,,,,,sub-048,1.0,random_dot,59.54613930858404,
,,,,,,,,,,,,,,,,,,,,,,,,,,,,,,,,,,,,,,,,,,,,,,,,,229.4825474000536,229.49795110011476,229.49795110011476,241.45613509998657,space,24.36369249993004,,,,,,,,,,,,sub-048,1.0,random_dot,59.54613930858404,
left,left,accuracy,,,,,0.0,0.0,0.0,0.0,0.0,0.0,0.0,0.0,246.98320060013796,,,,,,,,,246.9730795000214,247.33344090008177,248.14916869997975,248.13334530009888,248.1333745000884,248.14916869997975,248.14916869997975,248.14916869997975,,250.51492560002956,right,0.0,14.772345799719917,,,,,,,,,,,,,,,,,,,,241.458871900104,241.4735902999528,241.4735902999528,246.96759869996455,space,17.896729299798608,,,,,sub-048,1.0,random_dot,59.54613930858404,
right,right,accuracy,,,,,0.0,0.0,0.0,0.0,0.0,1.0,1.0,1.0,250.531156900106,,,,,,,,,250.51592030003667,251.7297759000212,252.5456364999991,252.52955049998127,252.52956850011836,252.5456364999991,252.5456364999991,252.5456364999991,,255.29471549997103,right,1.0,15.147419499931855,,,,,,,,,,,,,,,,,,,,,,,,,,,,,,sub-048,1.0,random_dot,59.54613930858404,
left,left,accuracy,,,,,0.0,0.0,0.0,0.0,1.0,0.0,2.0,0.0,255.30984130012803,,,,,,,,,255.29532620008104,255.41016359999776,256.225929700071,256.2099000001326,256.20991800003685,256.225929700071,256.225929700071,256.225929700071,,257.40883349999785,left,1.0,13.584814199944958,,,,,,,,,,,,,,,,,,,,,,,,,,,,,,sub-048,1.0,random_dot,59.54613930858404,
right,right,accuracy,,,,,0.0,0.0,0.0,0.0,1.0,1.0,3.0,1.0,257.42459930013865,,,,,,,,,257.40947080007754,257.5250884999987,258.3246873000171,258.3082225001417,258.30823970003985,258.3246873000171,258.3246873000171,258.3246873000171,,262.38829419994727,right,1.0,16.46934899990447,,,,,,,,,,,,,,,,,,,,,,,,,,,,,,sub-048,1.0,random_dot,59.54613930858404,
right,right,accuracy,,,,,0.0,0.0,0.0,0.0,2.0,0.0,4.0,1.0,262.4041452000384,,,,,,,,,262.3889363000635,262.7543047999497,263.553318799939,263.5373843999114,263.53740080003627,263.553318799939,263.553318799939,263.553318799939,,267.9350352000911,right,1.0,16.785467699868605,,,,,,,,,,,,,,,,,,,,,,,,,,,,,,sub-048,1.0,random_dot,59.54613930858404,
left,left,accuracy,,,,,0.0,0.0,0.0,0.0,2.0,1.0,5.0,0.0,267.9502322000917,,,,,,,,,267.9359095001128,269.1492002999876,269.9648792000953,269.9490410001017,269.94905639998615,269.9648792000953,269.9648792000953,269.9648792000953,,272.9972868000623,left,1.0,15.424162999959664,,,,,,,,,,,,,,,,,,,,,,,,,,,,,,sub-048,1.0,random_dot,59.54613930858404,
left,left,accuracy,,,,,0.0,0.0,0.0,0.0,3.0,0.0,6.0,0.0,273.0121987001039,,,,,,,,,272.9979362001177,274.2124586000573,275.02712400001474,275.0114670000039,275.01148140011355,275.02712400001474,275.02712400001474,275.02712400001474,,279.6415604001377,right,0.0,17.02072999998927,,,,,,,,,,,,,,,,,,,,,,,,,,,,,,sub-048,1.0,random_dot,59.54613930858404,
right,right,accuracy,,,,,0.0,0.0,0.0,0.0,3.0,1.0,7.0,1.0,279.6568386000581,,,,,,,,,279.64223000011407,280.0066442999523,280.8062789000105,280.7900827000849,280.7900996000972,280.8062789000105,280.8062789000105,280.8062789000105,,285.3360139001161,right,1.0,16.923270100029185,,,,,,,,,,,,,,,,,,,,,,,,,,,,,,sub-048,1.0,random_dot,59.54613930858404,
left,left,accuracy,,,,,0.0,0.0,0.0,0.0,4.0,0.0,8.0,0.0,285.3522147999611,,,,,,,,,285.3366217000876,285.7020028000697,286.5010011999402,286.4849658999592,286.4849797000643,286.5010011999402,286.5010011999402,286.5010011999402,,289.06674610008486,left,1.0,14.959959599887952,,,,,,,,,,,,,,,,,,,,,,,,,,,,,,sub-048,1.0,random_dot,59.54613930858404,
right,right,accuracy,,,,,0.0,0.0,0.0,0.0,4.0,1.0,9.0,1.0,289.0824283999391,,,,,,,,,289.0673468001187,290.28168200002983,291.08100480004214,291.0650347999763,291.0650506000966,291.08100480004214,291.08100480004214,291.08100480004214,,294.9950480000116,right,1.0,16.32019570004195,,,,,,,,,,,,,,,,,,,,,,,,,,,,,,sub-048,1.0,random_dot,59.54613930858404,
right,right,accuracy,,,,,0.0,0.0,0.0,0.0,5.0,0.0,10.0,1.0,295.01055260002613,,,,,,,,,294.9959370000288,295.110710500041,295.9103238999378,295.89387809997424,295.89390189992264,295.9103238999378,295.9103238999378,295.9103238999378,,300.1741867000237,right,1.0,16.65838799998164,,,,,,,,,,,,,,,,,,,,,,,,,,,,,,sub-048,1.0,random_dot,59.54613930858404,
left,left,accuracy,,,,,0.0,0.0,0.0,0.0,5.0,1.0,11.0,0.0,300.1898086001165,,,,,,,,,300.17495990009047,300.5397073000204,301.3388271001168,301.32339509995654,301.32341139996424,301.3388271001168,301.3388271001168,301.3388271001168,,305.019944800064,left,1.0,16.07812409987673,,,,,,,,,,,,,,,,,,,,,,,,,,,,,,sub-048,1.0,random_dot,59.54613930858404,
left,left,accuracy,,,,,0.0,0.0,0.0,0.0,6.0,0.0,12.0,0.0,305.0361277000047,,,,,,,,,305.02074980014004,306.23636500001885,307.0509933999274,307.0348569001071,307.0348722001072,307.0509933999274,307.0509933999274,307.0509933999274,,311.64779730001464,right,0.0,16.99926729989238,,,,,,,,,,,,,,,,,,,,,,,,,,,,,,sub-048,1.0,random_dot,59.54613930858404,
right,right,accuracy,,,,,0.0,0.0,0.0,0.0,6.0,1.0,13.0,1.0,311.6642314000055,,,,,,,,,311.6484211999923,312.8633085999172,313.67872600001283,313.66278170002624,313.66279650013894,313.67872600001283,313.67872600001283,313.67872600001283,,318.2762200001161,right,1.0,16.988688299898058,,,,,,,,,,,,,,,,,,,,,,,,,,,,,,sub-048,1.0,random_dot,59.54613930858404,
right,right,accuracy,,,,,0.0,0.0,0.0,0.0,7.0,0.0,14.0,1.0,318.29189540003426,,,,,,,,,318.2768193001393,319.0908586001024,319.8906302000396,319.87466949992813,319.87468779995106,319.8906302000396,319.8906302000396,319.8906302000396,,324.6540483001154,left,0.0,17.16524209990166,,,,,,,,,,,,,,,,,,,,,,,,,,,,,,sub-048,1.0,random_dot,59.54613930858404,
left,left,accuracy,,,,,0.0,0.0,0.0,0.0,7.0,1.0,15.0,0.0,324.66982059995644,,,,,,,,,324.6548401000909,325.0192925001029,325.8189860000275,325.8030624000821,325.8030807999894,325.8189860000275,325.8189860000275,325.8189860000275,,327.5020417000633,right,0.0,14.089325200067831,,,,,,,,,,,,,,,,,,,,,,,,,,,,,,sub-048,1.0,random_dot,59.54613930858404,
left,left,accuracy,,,,,0.0,0.0,0.0,0.0,8.0,0.0,16.0,0.0,327.51753400010057,,,,,,,,,327.5027407000307,328.7162550999783,329.51594329997897,329.4991403000895,329.4991536999587,329.51594329997897,329.51594329997897,329.51594329997897,334.5115481999237,334.89569590007886,right,0.0,17.78325909981504,,,,,,,,,,,,,,,,,,,,,,,,,,,,,,sub-048,1.0,random_dot,59.54613930858404,
right,right,accuracy,,,,,0.0,0.0,0.0,0.0,8.0,1.0,17.0,1.0,334.9116676999256,,,,,,,,,334.8962995000184,335.01205989997834,335.8273893001024,335.8113760999404,335.8113941999618,335.8273893001024,335.8273893001024,335.8273893001024,,339.94153470010497,left,0.0,16.515080799814314,,,,,,,,,,,,,,,,,,,,,,,,,,,,,,sub-048,1.0,random_dot,59.54613930858404,
right,right,accuracy,,,,,0.0,0.0,0.0,0.0,9.0,0.0,18.0,1.0,339.9573467001319,,,,,,,,,339.94243540009484,341.1566800000146,341.9723221999593,341.95619700010866,341.95621360000223,341.9723221999593,341.9723221999593,341.9723221999593,,345.1540679000318,right,1.0,15.574724599951878,,,,,,,,,,,,,,,,,,,,,,,,,,,,,,sub-048,1.0,random_dot,59.54613930858404,
left,left,accuracy,,,,,0.0,0.0,0.0,0.0,9.0,1.0,19.0,0.0,345.16956340009347,,,,,,,,,345.1549609999638,345.96923010004684,346.7682125000283,346.75255460012704,346.7525732999202,346.7682125000283,346.7682125000283,346.7682125000283,,348.11811570008285,left,1.0,13.754619400016963,,,,,,,,,,,,,,,,,,,,,,,,,,,,,,sub-048,1.0,random_dot,59.54613930858404,
left,left,accuracy,,,,,0.0,0.0,0.0,0.0,10.0,0.0,20.0,0.0,348.133983500069,,,,,,,,,348.11875730007887,348.9332707999274,349.73231340013444,349.71645319997333,349.71647979994304,349.73231340013444,349.73231340013444,349.73231340013444,,351.58353750011884,left,1.0,14.25553029985167,,,,,,,,,,,,,,,,,,,,,,,,,,,,,,sub-048,1.0,random_dot,59.54613930858404,
right,right,accuracy,,,,,0.0,0.0,0.0,0.0,10.0,1.0,21.0,1.0,351.5978550000582,,,,,,,,,351.58459440013394,351.6979970999528,352.51370329991914,352.49757579993457,352.4975902000442,352.51370329991914,352.51370329991914,352.51370329991914,,356.7444714999292,right,1.0,16.634409499820322,,,,,,,,,,,,,,,,,,,,,,,,,,,,,,sub-048,1.0,random_dot,59.54613930858404,
left,left,accuracy,,,,,0.0,0.0,0.0,0.0,11.0,0.0,22.0,0.0,356.76006900006905,,,,,,,,,356.74508089991286,356.86001970013604,357.65945439995266,357.6437234999612,357.6437399999704,357.65945439995266,357.65945439995266,357.65945439995266,,360.3576839000452,left,1.0,15.091677099931983,,,,,,,,,,,,,,,,,,,,,,,,,,,,,,sub-048,1.0,random_dot,59.54613930858404,
right,right,accuracy,,,,,0.0,0.0,0.0,0.0,11.0,1.0,23.0,1.0,360.37504540011287,,,,,,,,,360.358333399985,361.57275680010207,362.3718838000205,362.3559310000856,362.3559475000948,362.3718838000205,362.3718838000205,362.3718838000205,367.36781010008417,367.6189653999172,right,1.0,17.65054229996167,,,,,,,,,,,,,,,,,,,,,,,,,,,,,,sub-048,1.0,random_dot,59.54613930858404,
right,right,accuracy,,,,,0.0,0.0,0.0,0.0,12.0,0.0,24.0,1.0,367.6344107999466,,,,,,,,,367.6198611999862,368.8329320999328,369.6333034001291,369.61666469997726,369.6166864000261,369.6333034001291,369.6333034001291,369.6333034001291,374.6289234999567,375.0300849999767,right,1.0,17.797865299973637,,,,,,,,,,,,,,,,,,,,,,,,,,,,,,sub-048,1.0,random_dot,59.54613930858404,
left,left,accuracy,,,,,0.0,0.0,0.0,0.0,12.0,1.0,25.0,0.0,375.04546610009857,,,,,,,,,375.0306802999694,376.2447750999127,377.0602929000743,377.0442045000382,377.0442264000885,377.0602929000743,377.0602929000743,377.0602929000743,,378.9924012001138,left,1.0,14.323940800037237,,,,,,,,,,,,,,,,,,,,,,,,,,,,,,sub-048,1.0,random_dot,59.54613930858404,
left,left,accuracy,,,,,0.0,0.0,0.0,0.0,13.0,0.0,26.0,0.0,379.00824859994464,,,,,,,,,378.9930297001265,380.2087089999113,381.0232844001148,381.0072369000409,381.00725449994206,381.0232844001148,381.0232844001148,381.0232844001148,,385.1374395999592,right,0.0,16.51794039993547,,,,,,,,,,,,,,,,,,,,,,,,,,,,,,sub-048,1.0,random_dot,59.54613930858404,
right,right,accuracy,,,,,0.0,0.0,0.0,0.0,13.0,1.0,27.0,1.0,385.1532616999466,,,,,,,,,385.1380843000952,385.9527010000311,386.7684671001043,386.7525212999899,386.7525381001178,386.7684671001043,386.7684671001043,386.7684671001043,,390.4990048001055,right,1.0,16.12280989997089,,,,,,,,,,,,,,,,,,,,,,,,,,,,,,sub-048,1.0,random_dot,59.54613930858404,
left,left,accuracy,,,,,0.0,0.0,0.0,0.0,14.0,0.0,28.0,0.0,390.51524659991264,,,,,,,,,390.4996049001347,390.848571700044,391.6479480999988,391.6321294000372,391.6321560000069,391.6479480999988,391.6479480999988,391.6479480999988,,393.3141330999788,left,1.0,14.061028799973428,,,,,,,,,,,,,,,,,,,,,,,,,,,,,,sub-048,1.0,random_dot,59.54613930858404,
right,right,accuracy,,,,,0.0,0.0,0.0,0.0,14.0,1.0,29.0,1.0,393.3296880000271,,,,,,,,,393.3149325000122,394.5293364999816,395.32806650013663,395.3125531000551,395.3125692999456,395.32806650013663,395.32806650013663,395.32806650013663,,397.9932282001246,left,0.0,15.06457439973019,,,,,,,,,,,,,,,,,,,,,,,,,,,,,,sub-048,1.0,random_dot,59.54613930858404,
right,right,accuracy,,,,,0.0,0.0,0.0,0.0,15.0,0.0,30.0,1.0,398.0087240000721,,,,,,,,,397.99383780010976,399.2080824000295,400.007537700003,399.99164139991626,399.9916564000305,400.007537700003,400.007537700003,400.007537700003,,403.7892354999203,left,0.0,16.188204900128767,,,,,,,,,,,,,,,,,,,,,,,,,,,,,,sub-048,1.0,random_dot,59.54613930858404,
left,left,accuracy,,,,,0.0,0.0,0.0,0.0,15.0,1.0,31.0,0.0,403.8046152000316,,,,,,,,,403.7898389000911,404.1542334000114,404.9537239000201,404.9376316999551,404.9376475000754,404.9537239000201,404.9537239000201,404.9537239000201,,408.9507518000901,right,0.0,16.39467029972002,,,,,,,,,,,,,,,,,,,,,,,,,,,,,,sub-048,1.0,random_dot,59.54613930858404,
left,left,accuracy,,,,,0.0,0.0,0.0,0.0,16.0,0.0,32.0,0.0,408.9671456001233,,,,,,,,,408.95139740011655,409.2996815999504,410.0997550999746,410.0830749999732,410.0830920001026,410.0997550999746,410.0997550999746,410.0997550999746,,414.0303716000635,right,0.0,16.333470799960196,,,,,,,,,,,,,,,,,,,,,,,,,,,,,,sub-048,1.0,random_dot,59.54613930858404,
right,right,accuracy,,,,,0.0,0.0,0.0,0.0,16.0,1.0,33.0,1.0,414.0462642000057,,,,,,,,,414.0311112999916,414.3959874000866,415.1946020000614,415.1793124000542,415.1793291000649,415.1946020000614,415.1946020000614,415.1946020000614,,417.1628242000006,right,1.0,14.3701172999572,,,,,,,,,,,,,,,,,,,,,,,,,,,,,,sub-048,1.0,random_dot,59.54613930858404,
right,right,accuracy,,,,,0.0,0.0,0.0,0.0,17.0,0.0,34.0,1.0,417.1788739999756,,,,,,,,,417.163679700112,417.27747939992696,418.0766829000786,418.0608095000498,418.060826000059,418.0766829000786,418.0766829000786,418.0766829000786,,419.7957627000287,left,0.0,14.119107899721712,,,,,,,,,,,,,,,,,,,,,,,,,,,,,,sub-048,1.0,random_dot,59.54613930858404,
left,left,accuracy,,,,,0.0,0.0,0.0,0.0,17.0,1.0,35.0,0.0,419.80960940010846,,,,,,,,,419.7977182001341,420.1593770999461,420.9749837999698,420.960364599945,420.9604374999181,420.9749837999698,420.9749837999698,420.9749837999698,,424.7225232000928,left,1.0,16.149183999747038,,,,,,,,,,,,,,,,,,,,,,,,,,,,,,sub-048,1.0,random_dot,59.54613930858404,
left,left,accuracy,,,,,0.0,0.0,0.0,0.0,18.0,0.0,36.0,0.0,424.7378217999358,,,,,,,,,424.72347879991867,425.5368327000178,426.3366006000433,426.321678499924,426.3217257000506,426.3366006000433,426.3366006000433,426.3366006000433,,430.8518763000611,right,0.0,16.917607499985024,,,,,,,,,,,,,,,,,,,,,,,,,,,,,,sub-048,1.0,random_dot,59.54613930858404,
right,right,accuracy,,,,,0.0,0.0,0.0,0.0,18.0,1.0,37.0,1.0,430.8674656001385,,,,,,,,,430.85380859998986,431.6647332999855,432.48092889995314,432.4646681000013,432.4646825999953,432.48092889995314,432.48092889995314,432.48092889995314,,435.029735899996,right,1.0,14.952024099882692,,,,,,,,,,,,,,,,,,,,,,,,,,,,,,sub-048,1.0,random_dot,59.54613930858404,
right,right,accuracy,,,,,0.0,0.0,0.0,0.0,19.0,0.0,38.0,1.0,435.04493779991753,,,,,,,,,435.03049509995617,436.2440235000104,437.0432790000923,437.0276488000527,437.0276663000696,437.0432790000923,437.0432790000923,437.0432790000923,,439.4759575999342,right,1.0,14.825241499813274,,,,,,,,,,,,,,,,,,,,,,,,,,,,,,sub-048,1.0,random_dot,59.54613930858404,
left,left,accuracy,,,,,0.0,0.0,0.0,0.0,19.0,1.0,39.0,0.0,439.4916648000944,,,,,,,,,439.4768745000474,440.29076200001873,441.0904149000999,441.0752264999319,441.075241799932,441.0904149000999,441.0904149000999,441.0904149000999,,443.6056983000599,left,1.0,14.9217018999625,,,,,,,,,,,,,,,,,,,,,,,,,,,,,,sub-048,1.0,random_dot,59.54613930858404,
right,right,accuracy,,,,,0.0,0.0,0.0,0.0,20.0,0.0,40.0,1.0,443.6207926000934,,,,,,,,,443.6064303999301,444.8204314999748,445.636304799933,445.6197788000573,445.61979319993407,445.636304799933,445.636304799933,445.636304799933,450.6326993999537,451.3982748999261,left,0.0,18.15427349996753,,,,,,,,,,,,,,,,,,,,,,,,,,,,,,sub-048,1.0,random_dot,59.54613930858404,
left,left,accuracy,,,,,0.0,0.0,0.0,0.0,20.0,1.0,41.0,0.0,451.41518500004895,,,,,,,,,451.39895429997705,451.7488019000739,452.5477406000719,452.53224309999496,452.5322662000544,452.5477406000719,452.5477406000719,452.5477406000719,,456.6453967001289,left,1.0,16.487408600049093,,,,,,,,,,,,,,,,,,,,,,,,,,,,,,sub-048,1.0,random_dot,59.54613930858404,
right,right,accuracy,,,,,0.0,0.0,0.0,0.0,21.0,0.0,42.0,1.0,456.66111569991335,,,,,,,,,456.64621199993417,457.0106877000071,457.80980259994976,457.79376160004176,457.7937928999309,457.80980259994976,457.80980259994976,457.80980259994976,,460.34261330007575,right,1.0,14.938787099905312,,,,,,,,,,,,,,,,,,,,,,,,,,,,,,sub-048,1.0,random_dot,59.54613930858404,
left,left,accuracy,,,,,0.0,0.0,0.0,0.0,21.0,1.0,43.0,0.0,460.357511700131,,,,,,,,,460.34334040014073,461.15777510008775,461.9727978000883,461.9573153001256,461.9573306001257,461.9727978000883,461.9727978000883,461.9727978000883,,465.121690500062,left,1.0,15.55293979984708,,,,,,,,,,,,,,,,,,,,,,,,,,,,,,sub-048,1.0,random_dot,59.54613930858404,
left,left,accuracy,,,,,0.0,0.0,0.0,0.0,22.0,0.0,44.0,0.0,465.13670750008896,,,,,,,,,465.12230370007455,466.3370155999437,467.1524662999436,467.1359224999324,467.13593810005113,467.1524662999436,467.1524662999436,467.1524662999436,,468.951544099953,right,0.0,14.20475329970941,,,,,,,,,,,,,,,,,,,,,,,,,,,,,,sub-048,1.0,random_dot,59.54613930858404,
right,right,accuracy,,,,,0.0,0.0,0.0,0.0,22.0,1.0,45.0,1.0,468.967029399937,,,,,,,,,468.95219009998254,469.7666919999756,470.56561799999326,470.55003990000114,470.5500618999358,470.56561799999326,470.56561799999326,470.56561799999326,,473.8652615000028,right,1.0,15.690338999964297,,,,,,,,,,,,,,,,,,,,,,,,,,,,,,sub-048,1.0,random_dot,59.54613930858404,
right,right,accuracy,,,,,0.0,0.0,0.0,0.0,23.0,0.0,46.0,1.0,473.8804606001359,,,,,,,,,473.8663375000469,473.9799904001411,474.7792503000237,474.7631657000165,474.763183800038,474.7792503000237,474.7792503000237,474.7792503000237,,478.1277405000292,left,0.0,15.75416100001894,,,,,,,,,,,,,,,,,,,,,,,,,,,,,,sub-048,1.0,random_dot,59.54613930858404,
left,left,accuracy,,,,,0.0,0.0,0.0,0.0,23.0,1.0,47.0,0.0,478.1439789999277,,,,,,,,,478.1283692999277,478.9429226000793,479.7412433999125,479.7264598999173,479.72647539991885,479.7412433999125,479.7412433999125,479.7412433999125,,483.97294900007546,left,1.0,16.634372800122947,,,,,,,,,,,,,,,,,,,,,,,,,,,,,,sub-048,1.0,random_dot,59.54613930858404,
right,right,accuracy,,,,,0.0,0.0,0.0,0.0,24.0,0.0,48.0,1.0,483.9880506999325,,,,,,,,,483.9735683000181,484.0876754000783,484.8884251001291,484.87161840009503,484.8716368000023,484.8884251001291,484.8884251001291,484.8884251001291,,487.5701163001359,right,1.0,15.085862299893051,,,,,,,,,,,,,,,,,,,,,,,,,,,,,,sub-048,1.0,random_dot,59.54613930858404,
left,left,accuracy,,,,,0.0,0.0,0.0,0.0,24.0,1.0,49.0,0.0,487.5846681999974,,,,,,,,,487.5707873001229,488.3844159001019,489.18397859996185,489.1679344000295,489.1679485000204,489.18397859996185,489.18397859996185,489.18397859996185,,491.83188710012473,left,1.0,15.050296899862587,,,,,,,,,,,,,,,,,,,,,,,,,,,,,,sub-048,1.0,random_dot,59.54613930858404,
right,right,accuracy,,,,,0.0,0.0,0.0,0.0,25.0,0.0,50.0,1.0,491.8479693001136,,,,,,,,,491.8326509001199,491.9317546000239,492.7477534001228,492.7318637000863,492.7318828001153,492.7477534001228,492.7477534001228,492.7477534001228,,495.69580830005,right,1.0,15.347594499820843,,,,,,,,,,,,,,,,,,,,,,,,,,,,,,sub-048,1.0,random_dot,59.54613930858404,
left,left,accuracy,,,,,0.0,0.0,0.0,0.0,25.0,1.0,51.0,0.0,495.7120723000262,,,,,,,,,495.6964930000249,495.8114384999499,496.61183360009454,496.5952234000433,496.595239700051,496.61183360009454,496.61183360009454,496.61183360009454,,500.6920521000866,right,0.0,16.47560609993525,,,,,,,,,,,,,,,,,,,,,,,,,,,,,,sub-048,1.0,random_dot,59.54613930858404,
left,left,accuracy,,,,,0.0,0.0,0.0,0.0,26.0,0.0,52.0,0.0,500.7083085000049,,,,,,,,,500.692853000015,501.90684229996987,502.7062458000146,502.69045990007,502.6904776999727,502.7062458000146,502.7062458000146,502.7062458000146,,507.3697838000953,right,0.0,17.06062819994986,,,,,,,,,,,,,,,,,,,,,,,,,,,,,,sub-048,1.0,random_dot,59.54613930858404,
right,right,accuracy,,,,,0.0,0.0,0.0,0.0,26.0,1.0,53.0,1.0,507.3858777999412,,,,,,,,,507.3705416000448,508.58489520009607,509.3837918001227,509.36848490010016,509.36850460013375,509.3837918001227,509.3837918001227,509.3837918001227,,511.0167505000718,left,0.0,14.02586969989352,,,,,,,,,,,,,,,,,,,,,,,,,,,,,,sub-048,1.0,random_dot,59.54613930858404,
left,left,accuracy,,,,,0.0,0.0,0.0,0.0,27.0,0.0,54.0,0.0,511.0324190999381,,,,,,,,,511.0173991001211,511.831659700023,512.6309730999637,512.6153663001023,512.6154068999458,512.6309730999637,512.6309730999637,512.6309730999637,,515.0970167000778,right,0.0,14.857622599927709,,,,,,,,,,,,,,,,,,,,,,,,,,,,,,sub-048,1.0,random_dot,59.54613930858404,
right,right,accuracy,,,,,0.0,0.0,0.0,0.0,27.0,1.0,55.0,1.0,515.1127861000132,,,,,,,,,515.0979536999948,515.4623589999974,516.2618654000107,516.245803100057,516.2458174000494,516.2618654000107,516.2618654000107,516.2618654000107,,519.6924916999415,left,0.0,15.825096199987456,,,,,,,,,,,,,,,,,,,,,,,,,,,,,,sub-048,1.0,random_dot,59.54613930858404,
left,left,accuracy,,,,,0.0,0.0,0.0,0.0,28.0,0.0,56.0,0.0,519.7087876999285,,,,,,,,,519.6932220000308,520.0583858001046,520.8584503999446,520.8418316000607,520.8418487999588,520.8584503999446,520.8584503999446,520.8584503999446,,524.3064973000437,right,0.0,15.85443830001168,,,,,,,,,,,,,,,,,,,,,,,,,,,,,,sub-048,1.0,random_dot,59.54613930858404,
right,right,accuracy,,,,,0.0,0.0,0.0,0.0,28.0,1.0,57.0,1.0,524.3214263000991,,,,,,,,,524.3072057000827,525.5211515000556,526.3366016000509,526.3213355999906,526.3213502001017,526.3366016000509,526.3366016000509,526.3366016000509,,527.6194776999764,left,0.0,13.687405499862509,,,,,,,,,,,,,,,,,,,,,,,,,,,,,,sub-048,1.0,random_dot,59.54613930858404,
right,right,accuracy,,,,,0.0,0.0,0.0,0.0,29.0,0.0,58.0,1.0,527.6351662001107,,,,,,,,,527.6203648999799,528.436029799981,529.250631700037,529.2359039001167,529.2359202001244,529.250631700037,529.250631700037,529.250631700037,534.2467239999678,534.9310542999301,left,0.0,18.0867487997748,,,,,,,,,,,,,,,,,,,,,,,,,,,,,,sub-048,1.0,random_dot,59.54613930858404,
left,left,accuracy,,,,,0.0,0.0,0.0,0.0,29.0,1.0,59.0,0.0,534.9460165000055,,,,,,,,,534.9317088001408,535.2960999000352,536.1124782001134,536.0956486000214,536.095664500026,536.1124782001134,536.1124782001134,536.1124782001134,,537.7282175000291,left,1.0,14.009345300029963,,,,,,,,,,,,,,,,,,,,,,,,,,,,,,sub-048,1.0,random_dot,59.54613930858404,
,,accuracy,,,,,0.0,0.0,0.0,0.0,,,,,,,,,,,,,,,,,,,,,,,,,,,,,,,,,,,,,,,,,,,,,,,,,,,,,,,,sub-048,1.0,random_dot,59.54613930858404,
right,right,speed,,,,,0.0,1.0,1.0,1.0,0.0,0.0,0.0,1.0,542.3900862999726,,,,,,,,,542.3866505001206,543.5892489999533,544.405397699913,544.3891660000663,544.3891946999356,544.405397699913,544.405397699913,544.405397699913,,546.6040282999165,left,0.0,14.60099650011398,,,,,,,,,,,,,,,,,,,,537.7289054000285,537.7440156000666,537.7440156000666,542.374798099976,space,17.027979099890217,,,,,sub-048,1.0,random_dot,59.54613930858404,
left,left,speed,,,,,0.0,1.0,1.0,1.0,0.0,1.0,1.0,0.0,546.6201377999969,,,,,,,,,546.604835400125,546.7194926999509,547.5190878000576,547.5033680000342,547.5033937001135,547.5190878000576,547.5190878000576,547.5190878000576,,550.6839731999207,right,0.0,15.566817299928516,,,,,,,,,,,,,,,,,,,,,,,,,,,,,,sub-048,1.0,random_dot,59.54613930858404,
left,left,speed,,,,,0.0,1.0,1.0,1.0,1.0,0.0,2.0,0.0,550.7001593001187,,,,,,,,,550.6852331999689,551.4992768000811,552.2988692000508,552.2826291001402,552.28264390002,552.2988692000508,552.2988692000508,552.2988692000508,,553.8318990000989,left,1.0,13.939174799947068,,,,,,,,,,,,,,,,,,,,,,,,,,,,,,sub-048,1.0,random_dot,59.54613930858404,
right,right,speed,,,,,0.0,1.0,1.0,1.0,1.0,1.0,3.0,1.0,553.8477620999329,,,,,,,,,553.832553199958,555.046353300102,555.8455586000346,555.8297852000687,555.8298015999608,555.8455586000346,555.8455586000346,555.8455586000346,,558.178153200075,right,1.0,14.736061799805611,,,,,,,,,,,,,,,,,,,,,,,,,,,,,,sub-048,1.0,random_dot,59.54613930858404,
right,right,speed,,,,,0.0,1.0,1.0,1.0,2.0,0.0,4.0,1.0,558.1938706000801,,,,,,,,,558.1787855001166,558.5436321001034,559.3429747000337,559.326879600063,559.3268987999763,559.3429747000337,559.3429747000337,559.3429747000337,,560.925502799917,left,0.0,13.976831899955869,,,,,,,,,,,,,,,,,,,,,,,,,,,,,,sub-048,1.0,random_dot,59.54613930858404,
left,left,speed,,,,,0.0,1.0,1.0,1.0,2.0,1.0,5.0,0.0,560.9411307999399,,,,,,,,,560.9261469999328,562.1408683999907,562.9396993000992,562.9241174000781,562.9241357999854,562.9396993000992,562.9396993000992,562.9396993000992,,565.5384585999418,left,1.0,14.992665499914438,,,,,,,,,,,,,,,,,,,,,,,,,,,,,,sub-048,1.0,random_dot,59.54613930858404,
left,left,speed,,,,,0.0,1.0,1.0,1.0,3.0,0.0,6.0,0.0,565.5544839000795,,,,,,,,,565.5391532999929,566.7535061000381,567.5529004000127,567.537021300057,567.5370386999566,567.5529004000127,567.5529004000127,567.5529004000127,,570.3856466000434,left,1.0,15.2243945999071,,,,,,,,,,,,,,,,,,,,,,,,,,,,,,sub-048,1.0,random_dot,59.54613930858404,
right,right,speed,,,,,0.0,1.0,1.0,1.0,3.0,1.0,7.0,1.0,570.4002726001199,,,,,,,,,570.3863019999117,571.1992512999568,571.998867199989,571.9829925000668,571.9830098000821,571.998867199989,571.998867199989,571.998867199989,,573.4157072999515,right,1.0,13.808248899877071,,,,,,,,,,,,,,,,,,,,,,,,,,,,,,sub-048,1.0,random_dot,59.54613930858404,
right,right,speed,,,,,0.0,1.0,1.0,1.0,4.0,0.0,8.0,1.0,573.4312672000378,,,,,,,,,573.4163212999701,573.5313933999278,574.3472259000409,574.3312248999719,574.3312453001272,574.3472259000409,574.3472259000409,574.3472259000409,,576.229995300062,right,1.0,14.287248000036923,,,,,,,,,,,,,,,,,,,,,,,,,,,,,,sub-048,1.0,random_dot,59.54613930858404,
left,left,speed,,,,,0.0,1.0,1.0,1.0,4.0,1.0,9.0,0.0,576.2452571999747,,,,,,,,,576.230732700089,577.0448229999747,577.844064099947,577.8282564999536,577.8282723999582,577.844064099947,577.844064099947,577.844064099947,,579.460768399993,left,1.0,14.019296599784866,,,,,,,,,,,,,,,,,,,,,,,,,,,,,,sub-048,1.0,random_dot,59.54613930858404,
right,right,speed,,,,,0.0,1.0,1.0,1.0,5.0,0.0,10.0,1.0,579.4767929001246,,,,,,,,,579.4614570999984,579.5760623000097,580.3755661000032,580.3593802000396,580.3593997000717,580.3755661000032,580.3755661000032,580.3755661000032,,581.5921505999286,right,1.0,13.613636399852112,,,,,,,,,,,,,,,,,,,,,,,,,,,,,,sub-048,1.0,random_dot,59.54613930858404,
left,left,speed,,,,,0.0,1.0,1.0,1.0,5.0,1.0,11.0,0.0,581.6076722000726,,,,,,,,,581.5928521999158,581.6910963999107,582.4909322999883,582.4749014999252,582.474923599977,582.4909322999883,582.4909322999883,582.4909322999883,,583.4736355999485,left,1.0,13.37545769987628,,,,,,,,,,,,,,,,,,,,,,,,,,,,,,sub-048,1.0,random_dot,59.54613930858404,
left,left,speed,,,,,0.0,1.0,1.0,1.0,6.0,0.0,12.0,0.0,583.489139100071,,,,,,,,,583.4742594000418,584.688691599993,585.4881130000576,585.4720711999107,585.4720906999428,585.4881130000576,585.4881130000576,585.4881130000576,,587.6543058999814,right,0.0,14.571426599752158,,,,,,,,,,,,,,,,,,,,,,,,,,,,,,sub-048,1.0,random_dot,59.54613930858404,
right,right,speed,,,,,0.0,1.0,1.0,1.0,6.0,1.0,13.0,1.0,587.6695101000369,,,,,,,,,587.6550135000143,588.0194677999243,588.818276300095,588.803330300143,588.803344800137,588.818276300095,588.818276300095,588.818276300095,,590.1687763000373,right,1.0,13.755500699859113,,,,,,,,,,,,,,,,,,,,,,,,,,,,,,sub-048,1.0,random_dot,59.54613930858404,
left,left,speed,,,,,0.0,1.0,1.0,1.0,7.0,0.0,14.0,0.0,590.1846388999838,,,,,,,,,590.1695630999748,590.983742600074,591.7828570001293,591.7682306999341,591.7682537999935,591.7828570001293,591.7828570001293,591.7828570001293,,595.8309696000069,right,0.0,16.45208439975977,,,,,,,,,,,,,,,,,,,,,,,,,,,,,,sub-048,1.0,random_dot,59.54613930858404,
right,right,speed,,,,,0.0,1.0,1.0,1.0,7.0,1.0,15.0,1.0,595.8459850000218,,,,,,,,,595.8317007001024,596.1963007999584,597.0132860001177,596.995929100085,596.995945099974,597.0132860001177,597.0132860001177,597.0132860001177,,599.8782148000319,right,1.0,15.268800699850544,,,,,,,,,,,,,,,,,,,,,,,,,,,,,,sub-048,1.0,random_dot,59.54613930858404,
right,right,speed,,,,,0.0,1.0,1.0,1.0,8.0,0.0,16.0,1.0,599.8927462000865,,,,,,,,,599.8788972001057,601.0918459999375,601.8912792999763,601.8754613001365,601.8754795000423,601.8912792999763,601.8912792999763,601.8912792999763,,604.2569905999117,right,1.0,14.760281200055031,,,,,,,,,,,,,,,,,,,,,,,,,,,,,,sub-048,1.0,random_dot,59.54613930858404,
left,left,speed,,,,,0.0,1.0,1.0,1.0,8.0,1.0,17.0,0.0,604.2731083999388,,,,,,,,,604.2578809000552,604.6227971001063,605.4382943999954,605.4226117001381,605.4226289999206,605.4382943999954,605.4382943999954,605.4382943999954,,607.187884400133,left,1.0,14.14017459983006,,,,,,,,,,,,,,,,,,,,,,,,,,,,,,sub-048,1.0,random_dot,59.54613930858404,
right,right,speed,,,,,0.0,1.0,1.0,1.0,9.0,0.0,18.0,1.0,607.2032119000796,,,,,,,,,607.1884900000878,608.4030576001387,609.2187554999255,609.2032314001117,609.2032506000251,609.2187554999255,609.2187554999255,609.2187554999255,,612.034742699936,right,1.0,15.20666870009154,,,,,,,,,,,,,,,,,,,,,,,,,,,,,,sub-048,1.0,random_dot,59.54613930858404,
left,left,speed,,,,,0.0,1.0,1.0,1.0,9.0,1.0,19.0,0.0,612.0497381999157,,,,,,,,,612.0357937000226,612.399030599976,613.1984443999827,613.1830839000177,613.1831048000604,613.1984443999827,613.1984443999827,613.1984443999827,,614.2319293001201,left,1.0,13.431967799784616,,,,,,,,,,,,,,,,,,,,,,,,,,,,,,sub-048,1.0,random_dot,59.54613930858404,
right,right,speed,,,,,0.0,1.0,1.0,1.0,10.0,0.0,20.0,1.0,614.2472177001182,,,,,,,,,614.2327000999358,615.0470167000312,615.846469799988,615.8303042999469,615.8303509000689,615.846469799988,615.846469799988,615.846469799988,,618.36191159999,right,1.0,14.914347699843349,,,,,,,,,,,,,,,,,,,,,,,,,,,,,,sub-048,1.0,random_dot,59.54613930858404,
left,left,speed,,,,,0.0,1.0,1.0,1.0,10.0,1.0,21.0,0.0,618.3776990000624,,,,,,,,,618.3625702001154,619.1768304000143,619.9766331000719,619.960450500017,619.9604682000354,619.9766331000719,619.9766331000719,619.9766331000719,,621.5590349999256,left,1.0,13.981944299768656,,,,,,,,,,,,,,,,,,,,,,,,,,,,,,sub-048,1.0,random_dot,59.54613930858404,
right,right,speed,,,,,0.0,1.0,1.0,1.0,11.0,0.0,22.0,1.0,621.5752600000706,,,,,,,,,621.5597753999755,621.9084334000945,622.7074466000777,622.6917074001394,622.6917238000315,622.7074466000777,622.7074466000777,622.7074466000777,,625.8560041999444,left,0.0,15.551987200044096,,,,,,,,,,,,,,,,,,,,,,,,,,,,,,sub-048,1.0,random_dot,59.54613930858404,
left,left,speed,,,,,0.0,1.0,1.0,1.0,11.0,1.0,23.0,0.0,625.871203100076,,,,,,,,,625.8566698001232,626.670736100059,627.4697086000815,627.4538901001215,627.4539095999207,627.4697086000815,627.4697086000815,627.4697086000815,,629.7853981999215,right,0.0,14.712026699911805,,,,,,,,,,,,,,,,,,,,,,,,,,,,,,sub-048,1.0,random_dot,59.54613930858404,
right,right,speed,,,,,0.0,1.0,1.0,1.0,12.0,0.0,24.0,1.0,629.8009244001005,,,,,,,,,629.7861933000386,630.601127800066,631.416889199987,631.4006644999608,631.400689000031,631.416889199987,631.416889199987,631.416889199987,,632.849530500127,right,1.0,13.828876699786631,,,,,,,,,,,,,,,,,,,,,,,,,,,,,,sub-048,1.0,random_dot,59.54613930858404,
left,left,speed,,,,,0.0,1.0,1.0,1.0,12.0,1.0,25.0,0.0,632.8655290000606,,,,,,,,,632.8501760999206,634.0644223999698,634.864477199968,634.8478747000918,634.8478928999975,634.864477199968,634.864477199968,634.864477199968,,637.7292406000197,left,1.0,15.269806699827312,,,,,,,,,,,,,,,,,,,,,,,,,,,,,,sub-048,1.0,random_dot,59.54613930858404,
right,right,speed,,,,,0.0,1.0,1.0,1.0,13.0,0.0,26.0,1.0,637.7449722001329,,,,,,,,,637.7299909999128,638.9434966999106,639.7430758001283,639.727603000123,639.7276240999345,639.7430758001283,639.7430758001283,639.7430758001283,,641.9597338000312,right,1.0,14.616328799864275,,,,,,,,,,,,,,,,,,,,,,,,,,,,,,sub-048,1.0,random_dot,59.54613930858404,
left,left,speed,,,,,0.0,1.0,1.0,1.0,13.0,1.0,27.0,0.0,641.9742789999582,,,,,,,,,641.9603753001429,642.7740943999961,643.5734800000209,643.5571332999971,643.5571487001143,643.5734800000209,643.5734800000209,643.5734800000209,,644.9400696000084,left,1.0,13.765880199847745,,,,,,,,,,,,,,,,,,,,,,,,,,,,,,sub-048,1.0,random_dot,59.54613930858404,
left,left,speed,,,,,0.0,1.0,1.0,1.0,14.0,0.0,28.0,0.0,644.9551490000449,,,,,,,,,644.9406745000742,646.1547632999718,646.9703568001278,646.9543729999568,646.9543902000878,646.9703568001278,646.9703568001278,646.9703568001278,,649.4860431000125,left,1.0,14.910733500029892,,,,,,,,,,,,,,,,,,,,,,,,,,,,,,sub-048,1.0,random_dot,59.54613930858404,
right,right,speed,,,,,0.0,1.0,1.0,1.0,14.0,1.0,29.0,1.0,649.5018025999889,,,,,,,,,649.4868439999409,649.6018368999939,650.4015069000889,650.3857460001018,650.3857607999817,650.4015069000889,650.4015069000889,650.4015069000889,,652.1007590000518,left,0.0,14.104150099912658,,,,,,,,,,,,,,,,,,,,,,,,,,,,,,sub-048,1.0,random_dot,59.54613930858404,
right,right,speed,,,,,0.0,1.0,1.0,1.0,15.0,0.0,30.0,1.0,652.1161179000046,,,,,,,,,652.1013760999776,652.2159178999718,653.0159614000004,653.0006675999612,653.0007182001136,653.0159614000004,653.0159614000004,653.0159614000004,,655.3478298999835,right,1.0,14.738545499974862,,,,,,,,,,,,,,,,,,,,,,,,,,,,,,sub-048,1.0,random_dot,59.54613930858404,
left,left,speed,,,,,0.0,1.0,1.0,1.0,15.0,1.0,31.0,0.0,655.3638931000605,,,,,,,,,655.3486311000306,655.7132340001408,656.5125671001151,656.4964435000438,656.4964588000439,656.5125671001151,656.5125671001151,656.5125671001151,,658.7949707000516,right,0.0,14.678485999815166,,,,,,,,,,,,,,,,,,,,,,,,,,,,,,sub-048,1.0,random_dot,59.54613930858404,
left,left,speed,,,,,0.0,1.0,1.0,1.0,16.0,0.0,32.0,0.0,658.8108196000103,,,,,,,,,658.7959404999856,659.1599771999754,659.9601102001034,659.9437683001161,659.9437846001238,659.9601102001034,659.9601102001034,659.9601102001034,,661.7758401001338,left,1.0,14.210357499774544,,,,,,,,,,,,,,,,,,,,,,,,,,,,,,sub-048,1.0,random_dot,59.54613930858404,
right,right,speed,,,,,0.0,1.0,1.0,1.0,16.0,1.0,33.0,1.0,661.7918988999445,,,,,,,,,661.7765162999276,662.5908117000945,663.3911260000896,663.3745442000218,663.3745603999123,663.3911260000896,663.3911260000896,663.3911260000896,,664.5240271999501,left,0.0,13.539485699962825,,,,,,,,,,,,,,,,,,,,,,,,,,,,,,sub-048,1.0,random_dot,59.54613930858404,
left,left,speed,,,,,0.0,1.0,1.0,1.0,17.0,0.0,34.0,0.0,664.5398464999162,,,,,,,,,664.5246751999948,665.7378525000531,666.537253000075,666.5219314000569,666.52194399992,666.537253000075,666.537253000075,666.537253000075,,670.6688115000725,left,1.0,16.528938199859113,,,,,,,,,,,,,,,,,,,,,,,,,,,,,,sub-048,1.0,random_dot,59.54613930858404,
right,right,speed,,,,,0.0,1.0,1.0,1.0,17.0,1.0,35.0,1.0,670.6847461001016,,,,,,,,,670.6697049001232,671.0344356000423,671.84972129995,671.8340354999527,671.8340582000092,671.84972129995,671.84972129995,671.84972129995,,673.0009997000452,right,1.0,13.555735599948092,,,,,,,,,,,,,,,,,,,,,,,,,,,,,,sub-048,1.0,random_dot,59.54613930858404,
right,right,speed,,,,,0.0,1.0,1.0,1.0,18.0,0.0,36.0,1.0,673.0158154999372,,,,,,,,,673.0018273999449,673.8153023999184,674.6143851999659,674.5990578001365,674.599074000027,674.6143851999659,674.6143851999659,674.6143851999659,,676.298645599978,left,0.0,14.076316099846736,,,,,,,,,,,,,,,,,,,,,,,,,,,,,,sub-048,1.0,random_dot,59.54613930858404,
left,left,speed,,,,,0.0,1.0,1.0,1.0,18.0,1.0,37.0,0.0,676.3136223000474,,,,,,,,,676.2998685999773,676.4135282000061,677.2287685000338,677.2132457999978,677.2132808999158,677.2287685000338,677.2287685000338,677.2287685000338,,679.7935844000895,right,0.0,14.963926899945363,,,,,,,,,,,,,,,,,,,,,,,,,,,,,,sub-048,1.0,random_dot,59.54613930858404,
right,right,speed,,,,,0.0,1.0,1.0,1.0,19.0,0.0,38.0,1.0,679.8097487001214,,,,,,,,,679.7946143001318,679.8931758000981,680.6936478000134,680.6766612001229,680.6767146999482,680.6936478000134,680.6936478000134,680.6936478000134,,682.3585238999221,left,0.0,14.06487249978818,,,,,,,,,,,,,,,,,,,,,,,,,,,,,,sub-048,1.0,random_dot,59.54613930858404,
left,left,speed,,,,,0.0,1.0,1.0,1.0,19.0,1.0,39.0,0.0,682.3740894999355,,,,,,,,,682.3593717999756,682.4751925000455,683.2752038000617,683.2585996999405,683.2586191999726,683.2752038000617,683.2752038000617,683.2752038000617,,685.9070194000378,left,1.0,15.03721799980849,,,,,,,,,,,,,,,,,,,,,,,,,,,,,,sub-048,1.0,random_dot,59.54613930858404,
right,right,speed,,,,,0.0,1.0,1.0,1.0,20.0,0.0,40.0,1.0,685.9221173000988,,,,,,,,,685.907827100018,686.2714651999995,687.0722344000824,687.0552920999471,687.0553121000994,687.0722344000824,687.0722344000824,687.0722344000824,,688.5375347000081,left,0.0,13.871556799858809,,,,,,,,,,,,,,,,,,,,,,,,,,,,,,sub-048,1.0,random_dot,59.54613930858404,
left,left,speed,,,,,0.0,1.0,1.0,1.0,20.0,1.0,41.0,0.0,688.5524655999616,,,,,,,,,688.5387887000106,688.6531811000314,689.4527521999553,689.4364847000688,689.4365026000887,689.4527521999553,689.4527521999553,689.4527521999553,,692.4838614000473,right,0.0,15.427984499838203,,,,,,,,,,,,,,,,,,,,,,,,,,,,,,sub-048,1.0,random_dot,59.54613930858404,
left,left,speed,,,,,0.0,1.0,1.0,1.0,21.0,0.0,42.0,0.0,692.4998403999489,,,,,,,,,692.4847341999412,692.8494186999742,693.6486271000467,693.6324493000284,693.632464400027,693.6486271000467,693.6486271000467,693.6486271000467,,694.9667142000981,right,0.0,13.721612699795514,,,,,,,,,,,,,,,,,,,,,,,,,,,,,,sub-048,1.0,random_dot,59.54613930858404,
right,right,speed,,,,,0.0,1.0,1.0,1.0,21.0,1.0,43.0,1.0,694.9819629001431,,,,,,,,,694.9679881001357,696.1811500999611,696.9968053000048,696.9809590999503,696.9809900000691,696.9968053000048,696.9968053000048,696.9968053000048,,700.6931779000442,left,0.0,16.091258499771357,,,,,,,,,,,,,,,,,,,,,,,,,,,,,,sub-048,1.0,random_dot,59.54613930858404,
left,left,speed,,,,,0.0,1.0,1.0,1.0,22.0,0.0,44.0,0.0,700.7095282000955,,,,,,,,,700.6940995999612,701.4924920999911,702.2918199999258,702.2762402000371,702.2762563000433,702.2918199999258,702.2918199999258,702.2918199999258,,703.2083906999324,right,0.0,13.319486000109464,,,,,,,,,,,,,,,,,,,,,,,,,,,,,,sub-048,1.0,random_dot,59.54613930858404,
right,right,speed,,,,,0.0,1.0,1.0,1.0,22.0,1.0,45.0,1.0,703.2244939000811,,,,,,,,,703.2092307999264,703.3242806000635,704.1240477999672,704.1080939001404,704.1081084001344,704.1240477999672,704.1240477999672,704.1240477999672,,705.0242308001034,left,0.0,13.291721499990672,,,,,,,,,,,,,,,,,,,,,,,,,,,,,,sub-048,1.0,random_dot,59.54613930858404,
right,right,speed,,,,,0.0,1.0,1.0,1.0,23.0,0.0,46.0,1.0,705.0395102999173,,,,,,,,,705.0248344999272,705.8383476000745,706.6381526000332,706.6219838999677,706.6219993999694,706.6381526000332,706.6381526000332,706.6381526000332,,708.6207079999149,left,0.0,14.378648599842563,,,,,,,,,,,,,,,,,,,,,,,,,,,,,,sub-048,1.0,random_dot,59.54613930858404,
left,left,speed,,,,,0.0,1.0,1.0,1.0,23.0,1.0,47.0,0.0,708.636434199987,,,,,,,,,708.6213221000507,708.9866740000434,709.8022757999133,709.7861409001052,709.7861577000003,709.8022757999133,709.8022757999133,709.8022757999133,,710.669300599955,right,0.0,13.263018999947237,,,,,,,,,,,,,,,,,,,,,,,,,,,,,,sub-048,1.0,random_dot,59.54613930858404,
left,left,speed,,,,,0.0,1.0,1.0,1.0,24.0,0.0,48.0,0.0,710.6848979000933,,,,,,,,,710.6699524000287,711.034697300056,711.8342536999844,711.8186477001291,711.8186745001003,711.8342536999844,711.8342536999844,711.8342536999844,,715.0658305999823,left,1.0,15.635182900121436,,,,,,,,,,,,,,,,,,,,,,,,,,,,,,sub-048,1.0,random_dot,59.54613930858404,
right,right,speed,,,,,0.0,1.0,1.0,1.0,24.0,1.0,49.0,1.0,715.0810173000209,,,,,,,,,715.0666986999568,716.2806871000212,717.0793020001147,717.0639788999688,717.0639943999704,717.0793020001147,717.0793020001147,717.0793020001147,,718.0969501000363,right,1.0,13.413286899914963,,,,,,,,,,,,,,,,,,,,,,,,,,,,,,sub-048,1.0,random_dot,59.54613930858404,
left,left,speed,,,,,0.0,1.0,1.0,1.0,25.0,0.0,50.0,0.0,718.1119709999766,,,,,,,,,718.0978073000442,718.2122349999845,719.0114585000556,718.9960002000444,718.9960173999425,719.0114585000556,719.0114585000556,719.0114585000556,,721.826242600102,left,1.0,15.21526989992708,,,,,,,,,,,,,,,,,,,,,,,,,,,,,,sub-048,1.0,random_dot,59.54613930858404,
right,right,speed,,,,,0.0,1.0,1.0,1.0,25.0,1.0,51.0,1.0,721.8418233999982,,,,,,,,,721.8268695999868,722.1921610999852,722.9919503000565,722.9759231000207,722.9759355001152,722.9919503000565,722.9919503000565,722.9919503000565,,725.2570583999623,left,0.0,14.667266699718311,,,,,,,,,,,,,,,,,,,,,,,,,,,,,,sub-048,1.0,random_dot,59.54613930858404,
right,right,speed,,,,,0.0,1.0,1.0,1.0,26.0,0.0,52.0,1.0,725.2729814001359,,,,,,,,,725.2578088000882,726.0720136999153,726.8714123999234,726.855951000005,726.8559669000097,726.8714123999234,726.8714123999234,726.8714123999234,,730.3859958001412,left,0.0,15.917288099881262,,,,,,,,,,,,,,,,,,,,,,,,,,,,,,sub-048,1.0,random_dot,59.54613930858404,
left,left,speed,,,,,0.0,1.0,1.0,1.0,26.0,1.0,53.0,0.0,730.4020243999548,,,,,,,,,730.3868859999347,730.5018362000119,731.3016321000177,731.2850069999695,731.2850234999787,731.3016321000177,731.3016321000177,731.3016321000177,,733.800157800084,right,0.0,14.901876699877905,,,,,,,,,,,,,,,,,,,,,,,,,,,,,,sub-048,1.0,random_dot,59.54613930858404,
right,right,speed,,,,,0.0,1.0,1.0,1.0,27.0,0.0,54.0,1.0,733.8161925999448,,,,,,,,,733.8008582999464,734.1658103999216,734.9650890999474,734.9494040000718,734.9494199999608,734.9650890999474,734.9650890999474,734.9650890999474,,736.3996925000101,left,0.0,13.834092399803922,,,,,,,,,,,,,,,,,,,,,,,,,,,,,,sub-048,1.0,random_dot,59.54613930858404,
left,left,speed,,,,,0.0,1.0,1.0,1.0,27.0,1.0,55.0,0.0,736.4137202000711,,,,,,,,,736.4008859000169,737.2132147001103,738.0287504000589,738.0137449000031,738.0137624000199,738.0287504000589,738.0287504000589,738.0287504000589,,741.2110339999199,right,0.0,15.580933299846947,,,,,,,,,,,,,,,,,,,,,,,,,,,,,,sub-048,1.0,random_dot,59.54613930858404,
left,left,speed,,,,,0.0,1.0,1.0,1.0,28.0,0.0,56.0,0.0,741.2260718999896,,,,,,,,,741.2117350001354,741.3267026999965,742.1254932000302,742.1107302000746,742.1107517001219,742.1254932000302,742.1254932000302,742.1254932000302,,745.3733339000028,right,0.0,15.645915899891406,,,,,,,,,,,,,,,,,,,,,,,,,,,,,,sub-048,1.0,random_dot,59.54613930858404,
right,right,speed,,,,,0.0,1.0,1.0,1.0,28.0,1.0,57.0,1.0,745.3889576999936,,,,,,,,,745.3739791000262,745.7397751000244,746.5387051999569,746.5229458000977,746.5229621001054,746.5387051999569,746.5387051999569,746.5387051999569,,749.853293800028,left,0.0,15.71938299993053,,,,,,,,,,,,,,,,,,,,,,,,,,,,,,sub-048,1.0,random_dot,59.54613930858404,
right,right,speed,,,,,0.0,1.0,1.0,1.0,29.0,0.0,58.0,1.0,749.8687134000938,,,,,,,,,749.8538981000893,749.9529520000797,750.7517574001104,750.7359275999479,750.7359418999404,750.7517574001104,750.7517574001104,750.7517574001104,,752.0019114001188,left,0.0,13.653305999934672,,,,,,,,,,,,,,,,,,,,,,,,,,,,,,sub-048,1.0,random_dot,59.54613930858404,
left,left,speed,,,,,0.0,1.0,1.0,1.0,29.0,1.0,59.0,0.0,752.0173722000327,,,,,,,,,752.002604899928,752.1166815001052,752.917027400108,752.9000993000809,752.9001128999516,752.917027400108,752.917027400108,752.917027400108,,755.7489330000244,right,0.0,15.23192789987661,,,,,,,,,,,,,,,,,,,,,,,,,,,,,,sub-048,1.0,random_dot,59.54613930858404,
,,speed,,,,,0.0,1.0,1.0,1.0,,,,,,,,,,,,,,,,,,,,,,,,,,,,,,,,,,,,,,,,,,,,,,,,,,,,,,,,sub-048,1.0,random_dot,59.54613930858404,
,,,,,,,,,,,,,,,,,,,,,,,,,,,,,,,,,,,,,,,,,,,,,,,,,,,,,,,,,,,,,,,755.749414900085,755.7646755999885,760.7607656000182,sub-048,,,,
