direction,corrAns,thisN,thisTrialN,thisRepN,respDots.keys,respDots.corr,respDots.rt,respDots.duration,randomInstr,respRandomInstr.keys,respRandomInstr.rt,respRandomInstr.duration,practice_trials.thisRepN,practice_trials.thisTrialN,practice_trials.thisN,practice_trials.thisIndex,instr_trials.thisRepN,instr_trials.thisTrialN,instr_trials.thisN,instr_trials.thisIndex,test_trials.thisRepN,test_trials.thisTrialN,test_trials.thisN,test_trials.thisIndex,thisRow.t,notes,general_instruction.started,textGeneralInstr.started,respGeneralInstr.started,general_instruction.stopped,respGeneralInstr.keys,respGeneralInstr.rt,respGeneralInstr.duration,ITI.started,fixcross.started,fixcross.stopped,ITI.stopped,dots.started,backgroundDots.started,stimulusDots.started,respDots.started,dots.stopped,practice_trials.respDots.keys,practice_trials.respDots.corr,practice_trials.respDots.rt,practice_trials.respDots.duration,feedback.started,textFeedback.started,feedback.stopped,textFeedback.stopped,stimulusDots.stopped,info.started,textInfo.started,keyRespInfo.started,info.stopped,keyRespInfo.keys,keyRespInfo.rt,keyRespInfo.duration,test_instruction.started,textTestInstr.started,respTestInstr.started,test_instruction.stopped,respTestInstr.keys,respTestInstr.rt,respTestInstr.duration,random_instruction.started,textRandomInstr.started,respRandomInstr.started,random_instruction.stopped,instr_trials.respRandomInstr.keys,instr_trials.respRandomInstr.rt,instr_trials.respRandomInstr.duration,test_trials.respDots.keys,test_trials.respDots.corr,test_trials.respDots.rt,test_trials.respDots.duration,goodbye.started,textGoodbye.started,goodbye.stopped,participant,session,expName,frameRate,Unnamed: 87
,,,,,,,,,,,,,,,,,,,,,,,,,,,0.0070156869769562,0.0213375339808408,0.0213375339808408,5.716003903973615,space,5.570425771002192,,,,,,,,,,,,,,,,,,,,,,,,,,,,,,,,,,,,,,,,,,,,,,,,sub-079,1,random_dot,,
right,right,0.0,0.0,0.0,right,1.0,2.4644957430136856,,,,,,0.0,0.0,0.0,1.0,,,,,,,,,5.77041766999173,,,,,,,,,5.74750813798164,6.064972989988746,6.873962280980777,6.848960614996031,6.849783705984009,6.873962280980777,6.873962280980777,6.873962280980777,9.34201977099292,right,1.0,2.4644957430136856,,9.34636292999494,9.430952627997613,9.847333580983104,,,,,,,,,,,,,,,,,,,,,,,,,,,,,,,sub-079,1,random_dot,,
left,left,1.0,1.0,0.0,right,0.0,2.6130770779855084,,,,,,0.0,1.0,1.0,0.0,,,,,,,,,9.85782843999914,,,,,,,,,9.848039176984456,11.031955512997229,11.842415687977336,11.8159869289957,11.816844198998297,11.842415687977336,11.842415687977336,11.842415687977336,14.45885003899457,right,0.0,2.6130770779855084,,14.462329529982526,14.473187690979104,14.958255231991645,14.964175756991608,,,,,,,,,,,,,,,,,,,,,,,,,,,,,,sub-079,1,random_dot,,
right,right,2.0,0.0,1.0,left,0.0,2.0421384149813093,,,,,,1.0,0.0,2.0,1.0,,,,,,,,,14.964175756991608,,,,,,,,,14.958754506980767,15.307373395975446,16.09919994798838,16.091306749993237,16.091774956992595,16.09919994798838,16.09919994798838,16.09919994798838,18.14912705399911,left,0.0,2.0421384149813093,,18.14920426197932,18.15758954299963,18.640443794982275,18.64553597799386,,,,,,,,,,,,,,,,,,,,,,,,,,,,,,sub-079,1,random_dot,,
left,left,3.0,1.0,1.0,right,0.0,1.0032810819975566,,,,,,1.0,1.0,3.0,0.0,,,,,,,,,18.64553597799386,,,,,,,,,18.640611222974258,18.7485570179997,19.5421491789748,19.532117062975885,19.53290944697801,19.5421491789748,19.5421491789748,19.5421491789748,20.55090258800192,right,0.0,1.0032810819975566,,20.551076838979498,20.56049379397882,21.046857059001923,21.05848188098753,,,,,,,,,,,,,,,,,,,,,,,,,,,,,,sub-079,1,random_dot,,
left,left,4.0,0.0,2.0,right,0.0,0.8758327519753948,,,,,,2.0,0.0,4.0,0.0,,,,,,,,,21.05848188098753,,,,,,,,,21.047339109994937,21.146032192977145,21.94170459598536,21.931090968981152,21.931879273994127,21.94170459598536,21.94170459598536,21.94170459598536,22.824588332994608,right,0.0,0.8758327519753948,,22.82471121297567,22.841705945000285,23.32585022097919,,,,,,,,,,,,,,,,,,,,,,,,,,,,,,,sub-079,1,random_dot,,
right,right,5.0,1.0,2.0,right,1.0,4.602953989000525,,,,,,2.0,1.0,5.0,1.0,,,,,,,,,23.33200522098923,,,,,,,,,23.32648685699678,23.414334597997367,24.20798831398133,24.19725615598145,24.19803101697471,24.20798831398133,24.20798831398133,24.20798831398133,28.817228803993203,right,1.0,4.602953989000525,,28.81901799098705,28.826292580983136,29.315268253994876,29.324156746995868,,,,,,,,,,,,,,,,,,,,,,,,,,,,,,sub-079,1,random_dot,,
right,right,6.0,0.0,3.0,right,1.0,1.5039544650062453,,,,,,3.0,0.0,6.0,1.0,,,,,,,,,29.324156746995868,,,,,,,,,29.315771632973338,30.515118162991712,31.308456126978854,31.298594715975923,31.29938325600233,31.308456126978854,31.308456126978854,31.308456126978854,32.82534624700202,right,1.0,1.5039544650062453,,32.82541161598056,32.84050428098999,33.3241070919903,33.329737233987544,,,,,,,,,,,,,,,,,,,,,,,,,,,,,,sub-079,1,random_dot,,
left,left,7.0,1.0,3.0,right,0.0,6.693594601005316,,,,,,3.0,1.0,7.0,0.0,,,,,,,,,33.329737233987544,,,,,,,,,33.324414788978174,33.41486353799701,34.21517224199488,34.20744244198431,34.20782381598838,34.21517224199488,34.21517224199488,34.21517224199488,40.91578742797719,right,0.0,6.693594601005316,,40.91807600899483,40.92629141997895,41.41396661900217,41.42410932897474,39.22406079398934,,,,,,,,,,,,,,,,,,,,,,,,,,,,,sub-079,1,random_dot,,
left,left,8.0,0.0,4.0,right,0.0,2.045804010005668,,,,,,4.0,0.0,8.0,0.0,,,,,,,,,41.42410932897474,,,,,,,,,41.4144634839904,42.214975697977934,43.02549342199927,43.00856689497596,43.00890043398249,43.02549342199927,43.02549342199927,43.02549342199927,45.07515979299205,right,0.0,2.045804010005668,,45.07527505699545,45.08289587899344,45.57475596800214,45.58091288298601,,,,,,,,,,,,,,,,,,,,,,,,,,,,,,sub-079,1,random_dot,,
right,right,9.0,1.0,4.0,right,1.0,2.1222730089793918,,,,,,4.0,1.0,9.0,1.0,,,,,,,,,45.58091288298601,,,,,,,,,45.57529405198875,45.923947318980936,46.71584235900082,46.70741554099368,46.707845878001535,46.71584235900082,46.71584235900082,46.71584235900082,48.84200811499613,right,1.0,2.1222730089793918,,48.844117492990335,48.85049724299461,49.34102929200162,49.347090486000525,,,,,,,,,,,,,,,,,,,,,,,,,,,,,,sub-079,1,random_dot,,
right,right,10.0,0.0,5.0,left,0.0,2.981494126986945,,,,,,5.0,0.0,10.0,1.0,,,,,,,,,49.347090486000525,,,,,,,,,49.341585617978126,49.68086056498578,50.475679777999176,50.4650190929824,50.46580517297844,50.475679777999176,50.475679777999176,50.475679777999176,53.45857381998212,left,0.0,2.981494126986945,,53.46120633397368,53.467712650977774,53.95753609997337,53.96340047798003,,,,,,,,,,,,,,,,,,,,,,,,,,,,,,sub-079,1,random_dot,,
left,left,11.0,1.0,5.0,right,0.0,0.7207088279828895,,,,,,5.0,1.0,11.0,0.0,,,,,,,,,53.96340047798003,,,,,,,,,53.95791810899391,55.15791844797786,55.95024861799902,55.942113236000296,55.94269842599169,55.95024861799902,55.95024861799902,55.95024861799902,56.67635657699429,right,0.0,0.7207088279828895,,56.676510510995286,56.69149285298772,57.17551527998876,57.18144738499541,,,,,,,,,,,,,,,,,,,,,,,,,,,,,,sub-079,1,random_dot,,
right,right,12.0,0.0,6.0,left,0.0,1.6126676299900282,,,,,,6.0,0.0,12.0,1.0,,,,,,,,,57.18144738499541,,,,,,,,,57.17602057100157,57.52498797897715,58.31629225198412,58.30820707898238,58.30866665099165,58.31629225198412,58.31629225198412,58.31629225198412,59.94061836297624,left,0.0,1.6126676299900282,,59.94068217498716,59.94799907397828,60.44166335699265,,,,,,,,,,,,,,,,,,,,,,,,,,,,,,,sub-079,1,random_dot,,
left,left,13.0,1.0,6.0,right,0.0,1.6308162250206806,,,,,,6.0,1.0,13.0,0.0,,,,,,,,,60.44789702899288,,,,,,,,,60.44228304497665,60.781304748990806,61.5849208959844,61.57543536199955,61.57603324498632,61.5849208959844,61.5849208959844,61.5849208959844,63.22355567399063,right,0.0,1.6308162250206806,,63.22362285098643,63.23081776697654,63.71517676798976,63.723916186980205,,,,,,,,,,,,,,,,,,,,,,,,,,,,,,sub-079,1,random_dot,,
right,right,14.0,0.0,7.0,right,1.0,3.7724256419751327,,,,,,7.0,0.0,14.0,1.0,,,,,,,,,63.723916186980205,,,,,,,,,63.715831064997474,64.91354794698418,65.71366363498964,65.70689293599571,65.70710202597547,65.71366363498964,65.71366363498964,65.71366363498964,69.4913755460002,right,1.0,3.7724256419751327,,69.49309568598983,69.49951373497606,69.99175248199026,,,,,,,,,,,,,,,,,,,,,,,,,,,,,,,sub-079,1,random_dot,,
left,left,15.0,1.0,7.0,right,0.0,3.245532983011799,,,,,,7.0,1.0,15.0,0.0,,,,,,,,,69.9979693829955,,,,,,,,,69.99234560498735,70.7799036949873,71.57421917197644,71.56322222799645,71.56401640697732,71.57421917197644,71.57421917197644,71.57421917197644,74.82477582499268,right,0.0,3.245532983011799,,74.82646241399925,74.83974701998523,75.32512306899298,,,,,,,,,,,,,,,,,,,,,,,,,,,,,,,sub-079,1,random_dot,,
left,left,16.0,0.0,8.0,right,0.0,1.89536356300232,,,,,,8.0,0.0,16.0,0.0,,,,,,,,,75.33164736599429,,,,,,,,,75.32570816398947,75.4136432579835,76.20714391799993,76.1970968300011,76.19783906798693,76.20714391799993,76.20714391799993,76.20714391799993,78.1116926559771,right,0.0,1.89536356300232,,78.11176509299548,78.12287785598892,78.60788706099265,78.61376322497381,,,,,,,,,,,,,,,,,,,,,,,,,,,,,,sub-079,1,random_dot,,
right,right,17.0,1.0,8.0,right,1.0,0.6231221120106056,,,,,,8.0,1.0,17.0,1.0,,,,,,,,,78.61376322497381,,,,,,,,,78.60822040998028,79.40583325797343,80.19734447798692,80.18947958599892,80.19014651197358,80.19734447798692,80.19734447798692,80.19734447798692,80.8245658329979,right,1.0,0.6231221120106056,,80.8262218599848,80.83344681200106,81.32425209699431,81.33018119898043,,,,,,,,,,,,,,,,,,,,,,,,,,,,,,sub-079,1,random_dot,,
right,right,18.0,0.0,9.0,left,0.0,1.2591330819996074,,,,,,9.0,0.0,18.0,1.0,,,,,,,,,81.33018119898043,,,,,,,,,81.32467091397848,82.5142958429933,83.31327004099148,83.30568558498635,83.30602005097899,83.31327004099148,83.31327004099148,83.31327004099148,84.57593306899071,left,0.0,1.2591330819996074,,84.5781669409771,84.58578297798522,85.07517312598065,85.08182565297466,,,,,,,,,,,,,,,,,,,,,,,,,,,,,,sub-079,1,random_dot,,
left,left,19.0,1.0,9.0,right,0.0,1.062522899999749,,,,,,9.0,1.0,19.0,0.0,,,,,,,,,85.08182565297466,,,,,,,,,85.07573941498413,85.87326313799713,86.66490012497525,86.65699677399243,86.65746897499776,86.66490012497525,86.66490012497525,86.66490012497525,87.73331542799133,right,0.0,1.062522899999749,,87.73338466999121,87.74291050198372,88.22996582600172,88.2395725339884,,,,,,,,,,,,,,,,,,,,,,,,,,,,,,sub-079,1,random_dot,,
,,,,,,,,,,,,,,,,,,,,,,,,,,,,,,,,,,,,,,,,,,,,,,,,,,,,88.23007443497772,88.2395725339884,88.2395725339884,90.84759700897848,space,2.6060594609880354,,,,,,,,,,,,,,,,,,,,,,,sub-079,1,random_dot,,
,,,,,,,,,,,,,,,,,,,,,,,,,,,,,,,,,,,,,,,,,,,,,,,,,,,,,,,,,,,90.84765402998892,90.8719138019951,90.8719138019951,101.05720969999676,space,10.183037086011607,,,,,,,,,,,,,,,,sub-079,1,random_dot,,
right,right,0.0,0.0,0.0,right,1.0,3.722510204999708,,accuracy,space,2.1874254099966493,,,,,,0.0,0.0,0.0,0.0,0.0,0.0,0.0,1.0,103.28787898397422,,,,,,,,,103.2786922759842,103.36461140000029,104.16698330099462,104.15847564997966,104.1591586439754,104.16698330099462,104.16698330099462,104.16698330099462,107.90820668599918,,,,,,,,,,,,,,,,,,,,,,,,101.07189163999284,101.08197207399644,101.08197207399644,103.27512301999376,space,2.1874254099966493,,right,1.0,3.722510204999708,,,,,sub-079,1,random_dot,,
left,left,1.0,1.0,0.0,left,1.0,1.604540814005304,,accuracy,space,2.1874254099966493,,,,,,0.0,0.0,0.0,0.0,0.0,1.0,1.0,0.0,107.91532077000012,,,,,,,,,107.90857329199208,108.24753020500066,109.04787493299229,109.04013798799132,109.0405947569816,109.04787493299229,109.04787493299229,109.04787493299229,110.65769522299524,,,,,,,,,,,,,,,,,,,,,,,,,,,,,,,left,1.0,1.604540814005304,,,,,sub-079,1,random_dot,,
left,left,2.0,0.0,1.0,right,0.0,1.0827573949936775,,accuracy,space,2.1874254099966493,,,,,,0.0,0.0,0.0,0.0,1.0,0.0,2.0,0.0,110.66535261299578,,,,,,,,,110.65806016197894,111.4474827979866,112.2476151449955,112.24001342599512,112.24039710999932,112.2476151449955,112.2476151449955,112.2476151449955,113.34007451997604,,,,,,,,,,,,,,,,,,,,,,,,,,,,,,,right,0.0,1.0827573949936775,,,,,sub-079,1,random_dot,,
right,right,3.0,1.0,1.0,right,1.0,1.2025129249959718,,accuracy,space,2.1874254099966493,,,,,,0.0,0.0,0.0,0.0,1.0,1.0,3.0,1.0,113.34761755698128,,,,,,,,,113.3402874939784,113.429197518999,114.22490223697967,114.21277393598577,114.2135671969736,114.22490223697967,114.22490223697967,114.22490223697967,115.44113377199392,,,,,,,,,,,,,,,,,,,,,,,,,,,,,,,right,1.0,1.2025129249959718,,,,,sub-079,1,random_dot,,
left,left,4.0,0.0,2.0,left,1.0,4.440574168984313,,accuracy,space,2.1874254099966493,,,,,,0.0,0.0,0.0,0.0,2.0,0.0,4.0,0.0,115.44770833398798,,,,,,,,,115.44140980098746,116.23072986199986,117.03109872798086,117.02329355999244,117.02379566899616,117.03109872798086,117.03109872798086,117.03109872798086,121.4784915149794,,,,,,,,,,,,,,,,,,,,,,,,,,,,,,,left,1.0,4.440574168984313,,,,,sub-079,1,random_dot,,
right,right,5.0,1.0,2.0,right,1.0,1.5863194959820248,,accuracy,space,2.1874254099966493,,,,,,0.0,0.0,0.0,0.0,2.0,1.0,5.0,1.0,121.48949315099162,,,,,,,,,121.47872768898378,122.27207283998725,123.06594752398088,123.0578399009828,123.05829774498125,123.06594752398088,123.06594752398088,123.06594752398088,124.65706913298344,,,,,,,,,,,,,,,,,,,,,,,,,,,,,,,right,1.0,1.5863194959820248,,,,,sub-079,1,random_dot,,
right,right,6.0,0.0,3.0,right,1.0,2.0324046640016604,,accuracy,space,2.1874254099966493,,,,,,0.0,0.0,0.0,0.0,3.0,0.0,6.0,1.0,124.66454556098324,,,,,,,,,124.65744866698516,125.45658368599834,126.24785334599436,126.23998889198992,126.24046974498197,126.24785334599436,126.24785334599436,126.24785334599436,128.28965942998184,,,,,,,,,,,,,,,,,,,,,,,,,,,,,,,right,1.0,2.0324046640016604,,,,,sub-079,1,random_dot,,
left,left,7.0,1.0,3.0,left,1.0,2.4178955300012603,,accuracy,space,2.1874254099966493,,,,,,0.0,0.0,0.0,0.0,3.0,1.0,7.0,0.0,128.29628646399942,,,,,,,,,128.28989497298608,128.6305870009819,129.42546941098408,129.414340118994,129.41511042497586,129.42546941098408,129.42546941098408,129.42546941098408,131.85119133099215,,,,,,,,,,,,,,,,,,,,,,,,,,,,,,,left,1.0,2.4178955300012603,,,,,sub-079,1,random_dot,,
left,left,8.0,0.0,4.0,left,1.0,5.099567445984576,,accuracy,space,2.1874254099966493,,,,,,0.0,0.0,0.0,0.0,4.0,0.0,8.0,0.0,131.85823944798904,,,,,,,,,131.85154129000148,133.04627968298155,133.84159528199234,133.83097179298056,133.83160798699828,133.84159528199234,133.84159528199234,133.84159528199234,138.94839749697712,,,,,,,,,138.82240690398612,,,,,,,,,,,,,,,,,,,,,,left,1.0,5.099567445984576,,,,,sub-079,1,random_dot,,
right,right,9.0,1.0,4.0,left,0.0,0.059643946995493,,accuracy,space,2.1874254099966493,,,,,,0.0,0.0,0.0,0.0,4.0,1.0,9.0,1.0,138.9567831339955,,,,,,,,,138.9486349899962,139.04652107297443,139.84928425299586,139.84110036099446,139.84163725798135,139.84928425299586,139.84928425299586,139.84928425299586,139.91087268097908,,,,,,,,,,,,,,,,,,,,,,,,,,,,,,,left,0.0,0.059643946995493,,,,,sub-079,1,random_dot,,
right,right,10.0,0.0,5.0,right,1.0,1.0195655910065398,,accuracy,space,2.1874254099966493,,,,,,0.0,0.0,0.0,0.0,5.0,0.0,10.0,1.0,139.92200999398483,,,,,,,,,139.91111705999356,140.70606956697884,141.49722036797905,141.48962633899646,141.4900345240021,141.49722036797905,141.49722036797905,141.49722036797905,142.5263563579938,,,,,,,,,,,,,,,,,,,,,,,,,,,,,,,right,1.0,1.0195655910065398,,,,,sub-079,1,random_dot,,
left,left,11.0,1.0,5.0,left,1.0,1.0158130689815152,,accuracy,space,2.1874254099966493,,,,,,0.0,0.0,0.0,0.0,5.0,1.0,11.0,0.0,142.53871263298788,,,,,,,,,142.5266295579786,142.63002327698632,143.43016618999536,143.42278150797938,143.42312090098858,143.43016618999536,143.43016618999536,143.43016618999536,144.45658515099785,,,,,,,,,,,,,,,,,,,,,,,,,,,,,,,left,1.0,1.0158130689815152,,,,,sub-079,1,random_dot,,
left,left,12.0,0.0,6.0,left,1.0,1.234910086001037,,accuracy,space,2.1874254099966493,,,,,,0.0,0.0,0.0,0.0,6.0,0.0,12.0,0.0,144.46353282697964,,,,,,,,,144.45686513898545,145.24666001598234,146.04094770198571,146.03022134798812,146.03102186898468,146.04094770198571,146.04094770198571,146.04094770198571,147.28498662498896,,,,,,,,,,,,,,,,,,,,,,,,,,,,,,,left,1.0,1.234910086001037,,,,,sub-079,1,random_dot,,
right,right,13.0,1.0,6.0,right,1.0,5.415862487017876,,accuracy,space,2.1874254099966493,,,,,,0.0,0.0,0.0,0.0,6.0,1.0,13.0,1.0,147.29319054898224,,,,,,,,,147.2852958930016,147.62858460197458,148.43900404399028,148.4140155799978,148.4148052679957,148.43900404399028,148.43900404399028,148.43900404399028,153.85722422698746,,,,,,,,,153.41230253299,,,,,,,,,,,,,,,,,,,,,,right,1.0,5.415862487017876,,,,,sub-079,1,random_dot,,
right,right,14.0,0.0,7.0,left,0.0,0.964150563988369,,accuracy,space,2.1874254099966493,,,,,,0.0,0.0,0.0,0.0,7.0,0.0,14.0,1.0,153.86267224198673,,,,,,,,,153.8575096129789,153.95825089799473,154.7561875319807,154.74557311399258,154.74636506699608,154.7561875319807,154.7561875319807,154.7561875319807,155.7257547339832,,,,,,,,,,,,,,,,,,,,,,,,,,,,,,,left,0.0,0.964150563988369,,,,,sub-079,1,random_dot,,
left,left,15.0,1.0,7.0,right,0.0,0.9849972919910216,,accuracy,space,2.1874254099966493,,,,,,0.0,0.0,0.0,0.0,7.0,1.0,15.0,0.0,155.73223429598147,,,,,,,,,155.7260344629758,155.82338272899506,156.6223757789994,156.61246155397384,156.61299622198567,156.6223757789994,156.6223757789994,156.6223757789994,157.61017349999747,,,,,,,,,,,,,,,,,,,,,,,,,,,,,,,right,0.0,0.9849972919910216,,,,,sub-079,1,random_dot,,
right,right,16.0,0.0,8.0,right,1.0,4.048638565000147,,accuracy,space,2.1874254099966493,,,,,,0.0,0.0,0.0,0.0,8.0,0.0,16.0,1.0,157.617875876982,,,,,,,,,157.61082244699355,157.95700413300074,158.74692578197573,158.73967839797842,158.74001014698297,158.74692578197573,158.74692578197573,158.74692578197573,162.80637463598396,,,,,,,,,,,,,,,,,,,,,,,,,,,,,,,right,1.0,4.048638565000147,,,,,sub-079,1,random_dot,,
left,left,17.0,1.0,8.0,left,1.0,1.6037565960141364,,accuracy,space,2.1874254099966493,,,,,,0.0,0.0,0.0,0.0,8.0,1.0,17.0,0.0,162.81415927398484,,,,,,,,,162.8066107609775,163.16380866599502,163.97252133398433,163.95884692799882,163.95952689799014,163.97252133398433,163.97252133398433,163.97252133398433,165.58939766098047,,,,,,,,,,,,,,,,,,,,,,,,,,,,,,,left,1.0,1.6037565960141364,,,,,sub-079,1,random_dot,,
right,right,18.0,0.0,9.0,right,1.0,1.4646547489974182,,accuracy,space,2.1874254099966493,,,,,,0.0,0.0,0.0,0.0,9.0,0.0,18.0,1.0,165.59647967698402,,,,,,,,,165.58966884197434,166.78886351297842,167.58170972499647,167.57321730998228,167.57387303799624,167.58170972499647,167.58170972499647,167.58170972499647,169.0559466400009,,,,,,,,,,,,,,,,,,,,,,,,,,,,,,,right,1.0,1.4646547489974182,,,,,sub-079,1,random_dot,,
left,left,19.0,1.0,9.0,left,1.0,0.9107661540037952,,accuracy,space,2.1874254099966493,,,,,,0.0,0.0,0.0,0.0,9.0,1.0,19.0,0.0,169.06357602297794,,,,,,,,,169.05618403299013,170.2457455219992,171.05477638498996,171.03098898299504,171.0317040529917,171.05477638498996,171.05477638498996,171.05477638498996,171.98966013197787,,,,,,,,,,,,,,,,,,,,,,,,,,,,,,,left,1.0,0.9107661540037952,,,,,sub-079,1,random_dot,,
right,right,20.0,0.0,10.0,right,1.0,0.6740152369893622,,accuracy,space,2.1874254099966493,,,,,,0.0,0.0,0.0,0.0,10.0,0.0,20.0,1.0,172.00566230498953,,,,,,,,,171.99000040598912,172.08866687800037,172.88039715899504,172.8729083329963,172.87328653997974,172.88039715899504,172.88039715899504,172.88039715899504,173.55730811797548,,,,,,,,,,,,,,,,,,,,,,,,,,,,,,,right,1.0,0.6740152369893622,,,,,sub-079,1,random_dot,,
left,left,21.0,1.0,10.0,right,0.0,4.71747214300558,,accuracy,space,2.1874254099966493,,,,,,0.0,0.0,0.0,0.0,10.0,1.0,21.0,0.0,173.5650012039987,,,,,,,,,173.55761966397404,173.90574718199787,174.69717704399957,174.68924378897646,174.6896974889969,174.69717704399957,174.69717704399957,174.69717704399957,179.42455056498875,,,,,,,,,,,,,,,,,,,,,,,,,,,,,,,right,0.0,4.71747214300558,,,,,sub-079,1,random_dot,,
left,left,22.0,0.0,11.0,left,1.0,5.986979089007946,,accuracy,space,2.1874254099966493,,,,,,0.0,0.0,0.0,0.0,11.0,0.0,22.0,0.0,179.43125999797485,,,,,,,,,179.42483149198233,180.62185295499512,181.41126501199324,181.40484718498192,181.4050584549841,181.41126501199324,181.41126501199324,181.41126501199324,187.40573976599265,,,,,,,,,186.40666974298077,,,,,,,,,,,,,,,,,,,,,,left,1.0,5.986979089007946,,,,,sub-079,1,random_dot,,
right,right,23.0,1.0,11.0,right,1.0,5.60691380299977,,accuracy,space,2.1874254099966493,,,,,,0.0,0.0,0.0,0.0,11.0,1.0,23.0,1.0,187.413107106986,,,,,,,,,187.40596223998,188.19477612298212,188.98964499798603,188.97869834699668,188.97937237497536,188.98964499798603,188.98964499798603,188.98964499798603,194.60601775799296,,,,,,,,,193.97900902098627,,,,,,,,,,,,,,,,,,,,,,right,1.0,5.60691380299977,,,,,sub-079,1,random_dot,,
left,left,24.0,0.0,12.0,right,0.0,5.449311990989372,,accuracy,space,2.1874254099966493,,,,,,0.0,0.0,0.0,0.0,12.0,0.0,24.0,0.0,194.61372184799984,,,,,,,,,194.60627253298296,195.39591090698377,196.1968979399826,196.1890164249926,196.1894462639757,196.1968979399826,196.1968979399826,196.1968979399826,201.65610494298744,,,,,,,,,201.18867021298504,,,,,,,,,,,,,,,,,,,,,,right,0.0,5.449311990989372,,,,,sub-079,1,random_dot,,
right,right,25.0,1.0,12.0,right,1.0,7.461249173997203,,accuracy,space,2.1874254099966493,,,,,,0.0,0.0,0.0,0.0,12.0,1.0,25.0,1.0,201.66379464999773,,,,,,,,,201.6565195939911,201.7460796639789,202.55547561999992,202.53014150599483,202.53091797899103,202.55547561999992,202.55547561999992,202.55547561999992,210.0226106979826,,,,,,,,,207.52847888998804,,,,,,,,,,,,,,,,,,,,,,right,1.0,7.461249173997203,,,,,sub-079,1,random_dot,,
right,right,26.0,0.0,13.0,right,1.0,0.7902046839881223,,accuracy,space,2.1874254099966493,,,,,,0.0,0.0,0.0,0.0,13.0,0.0,26.0,1.0,210.02983005298304,,,,,,,,,210.0230107789976,210.37149247698835,211.16314958399744,211.1551515579922,211.1556059129944,211.16314958399744,211.16314958399744,211.16314958399744,211.95767290599176,,,,,,,,,,,,,,,,,,,,,,,,,,,,,,,right,1.0,0.7902046839881223,,,,,sub-079,1,random_dot,,
left,left,27.0,1.0,13.0,left,1.0,1.6140861110179685,,accuracy,space,2.1874254099966493,,,,,,0.0,0.0,0.0,0.0,13.0,1.0,27.0,0.0,211.96521027799463,,,,,,,,,211.95794504298829,212.0548641239875,212.84640263899928,212.83844019999376,212.8388918449928,212.84640263899928,212.84640263899928,212.84640263899928,214.4644190199906,,,,,,,,,,,,,,,,,,,,,,,,,,,,,,,left,1.0,1.6140861110179685,,,,,sub-079,1,random_dot,,
left,left,28.0,0.0,14.0,right,0.0,4.627853126992704,,accuracy,space,2.1874254099966493,,,,,,0.0,0.0,0.0,0.0,14.0,0.0,28.0,0.0,214.4881492609857,,,,,,,,,214.46468549998824,214.81150488898857,215.60517099898425,215.59475529499468,215.59535501198843,215.60517099898425,215.60517099898425,215.60517099898425,220.23821295899688,,,,,,,,,,,,,,,,,,,,,,,,,,,,,,,right,0.0,4.627853126992704,,,,,sub-079,1,random_dot,,
right,right,29.0,1.0,14.0,right,1.0,0.7526675760163926,,accuracy,space,2.1874254099966493,,,,,,0.0,0.0,0.0,0.0,14.0,1.0,29.0,1.0,220.2553036219906,,,,,,,,,220.23846703098388,220.57758575197656,221.37266467197333,221.3626299210009,221.36340659298003,221.37266467197333,221.37266467197333,221.37266467197333,222.13280382798985,,,,,,,,,,,,,,,,,,,,,,,,,,,,,,,right,1.0,0.7526675760163926,,,,,sub-079,1,random_dot,,
left,left,30.0,0.0,15.0,left,1.0,4.767651600996032,,accuracy,space,2.1874254099966493,,,,,,0.0,0.0,0.0,0.0,15.0,0.0,30.0,0.0,222.1399602059973,,,,,,,,,222.13305676099844,222.2381544499949,223.0302091409976,223.02213073999155,223.0225930289889,223.0302091409976,223.0302091409976,223.0302091409976,227.80816247398616,,,,,,,,,,,,,,,,,,,,,,,,,,,,,,,left,1.0,4.767651600996032,,,,,sub-079,1,random_dot,,
right,right,31.0,1.0,15.0,right,1.0,2.214551386015956,,accuracy,space,2.1874254099966493,,,,,,0.0,0.0,0.0,0.0,15.0,1.0,31.0,1.0,227.8150250979816,,,,,,,,,227.80844085197896,228.1546451789909,228.94689945798015,228.93865050197928,228.93902563597655,228.94689945798015,228.94689945798015,228.94689945798015,231.1719247099827,,,,,,,,,,,,,,,,,,,,,,,,,,,,,,,right,1.0,2.214551386015956,,,,,sub-079,1,random_dot,,
left,left,32.0,0.0,16.0,left,1.0,1.2241306959767826,,accuracy,space,2.1874254099966493,,,,,,0.0,0.0,0.0,0.0,16.0,0.0,32.0,0.0,231.17964818599285,,,,,,,,,231.17215942399343,232.3602282369975,233.15448907998507,233.1443837400002,233.14489958499323,233.15448907998507,233.15448907998507,233.15448907998507,234.38043850497343,,,,,,,,,,,,,,,,,,,,,,,,,,,,,,,left,1.0,1.2241306959767826,,,,,sub-079,1,random_dot,,
right,right,33.0,1.0,16.0,left,0.0,2.3984964929986745,,accuracy,space,2.1874254099966493,,,,,,0.0,0.0,0.0,0.0,16.0,1.0,33.0,1.0,234.38864994299365,,,,,,,,,234.38068783900235,234.4779819159885,235.2719701649912,235.26129423099337,235.26205932997985,235.2719701649912,235.2719701649912,235.2719701649912,237.672173688974,,,,,,,,,,,,,,,,,,,,,,,,,,,,,,,left,0.0,2.3984964929986745,,,,,sub-079,1,random_dot,,
left,left,34.0,0.0,17.0,left,1.0,4.831734795006923,,accuracy,space,2.1874254099966493,,,,,,0.0,0.0,0.0,0.0,17.0,0.0,34.0,0.0,237.6776445399737,,,,,,,,,237.6724336609768,237.7621468099824,238.5557052840013,238.5453919879801,238.546133455995,238.5557052840013,238.5557052840013,238.5557052840013,243.38938883697847,,,,,,,,,,,,,,,,,,,,,,,,,,,,,,,left,1.0,4.831734795006923,,,,,sub-079,1,random_dot,,
right,right,35.0,1.0,17.0,right,1.0,2.503888303006533,,accuracy,space,2.1874254099966493,,,,,,0.0,0.0,0.0,0.0,17.0,1.0,35.0,1.0,243.395813746989,,,,,,,,,243.3896224909986,244.578701698978,245.3805844849849,245.3724765049992,245.3729357759876,245.3805844849849,245.3805844849849,245.3805844849849,247.90582980497857,,,,,,,,,,,,,,,,,,,,,,,,,,,,,,,right,1.0,2.503888303006533,,,,,sub-079,1,random_dot,,
left,left,36.0,0.0,18.0,left,1.0,0.9276963949960192,,accuracy,space,2.1874254099966493,,,,,,0.0,0.0,0.0,0.0,18.0,0.0,36.0,0.0,247.9212525670009,,,,,,,,,247.90632648498288,249.1043573769857,249.89739689498677,249.88819949000023,249.8886788719974,249.89739689498677,249.89739689498677,249.89739689498677,250.82933466898976,,,,,,,,,,,,,,,,,,,,,,,,,,,,,,,left,1.0,0.9276963949960192,,,,,sub-079,1,random_dot,,
right,right,37.0,1.0,18.0,left,0.0,0.7253522439859807,,accuracy,space,2.1874254099966493,,,,,,0.0,0.0,0.0,0.0,18.0,1.0,37.0,1.0,250.8382701209921,,,,,,,,,250.8296497069823,251.62862751097416,252.42884995799977,252.42125719599423,252.4216404819745,252.42884995799977,252.42884995799977,252.42884995799977,253.1570412289875,,,,,,,,,,,,,,,,,,,,,,,,,,,,,,,left,0.0,0.7253522439859807,,,,,sub-079,1,random_dot,,
right,right,38.0,0.0,19.0,right,1.0,4.752542086993344,,accuracy,space,2.1874254099966493,,,,,,0.0,0.0,0.0,0.0,19.0,0.0,38.0,1.0,253.16262878698765,,,,,,,,,253.15729659798671,253.2542395889759,254.04787316298464,254.03981029900024,254.04036232299404,254.04787316298464,254.04787316298464,254.04787316298464,258.8090576929972,,,,,,,,,,,,,,,,,,,,,,,,,,,,,,,right,1.0,4.752542086993344,,,,,sub-079,1,random_dot,,
left,left,39.0,1.0,19.0,left,1.0,3.984700700006215,,accuracy,space,2.1874254099966493,,,,,,0.0,0.0,0.0,0.0,19.0,1.0,39.0,0.0,258.8203907930001,,,,,,,,,258.8093098719837,259.6109289849992,260.4060357939743,260.39571229199646,260.39647413700004,260.4060357939743,260.4060357939743,260.4060357939743,264.3925671899924,,,,,,,,,,,,,,,,,,,,,,,,,,,,,,,left,1.0,3.984700700006215,,,,,sub-079,1,random_dot,,
left,left,40.0,0.0,20.0,right,0.0,1.6904634009988513,,accuracy,space,2.1874254099966493,,,,,,0.0,0.0,0.0,0.0,20.0,0.0,40.0,0.0,264.403770874982,,,,,,,,,264.39281541400123,265.1875626949768,265.97969742599525,265.9717609099753,265.9722138439829,265.97969742599525,265.97969742599525,265.97969742599525,267.6889754849836,,,,,,,,,,,,,,,,,,,,,,,,,,,,,,,right,0.0,1.6904634009988513,,,,,sub-079,1,random_dot,,
right,right,41.0,1.0,20.0,left,0.0,1.0166062589851208,,accuracy,space,2.1874254099966493,,,,,,0.0,0.0,0.0,0.0,20.0,1.0,41.0,1.0,267.69580787498853,,,,,,,,,267.68928160498035,268.4792814219836,269.2866539999959,269.2635854120017,269.2641339459806,269.2866539999959,269.2866539999959,269.2866539999959,270.30516821399215,,,,,,,,,,,,,,,,,,,,,,,,,,,,,,,left,0.0,1.0166062589851208,,,,,sub-079,1,random_dot,,
left,left,42.0,0.0,21.0,right,0.0,1.4789399479923304,,accuracy,space,2.1874254099966493,,,,,,0.0,0.0,0.0,0.0,21.0,0.0,42.0,0.0,270.3111851589929,,,,,,,,,270.305496201996,270.64571700498345,271.4472957729886,271.4380863729748,271.4385463889921,271.4472957729886,271.4472957729886,271.4472957729886,272.9385616959771,,,,,,,,,,,,,,,,,,,,,,,,,,,,,,,right,0.0,1.4789399479923304,,,,,sub-079,1,random_dot,,
right,right,43.0,1.0,21.0,left,0.0,0.6542566840071231,,accuracy,space,2.1874254099966493,,,,,,0.0,0.0,0.0,0.0,21.0,1.0,43.0,1.0,272.9470707549772,,,,,,,,,272.9389625369804,273.02829205899616,273.832063371985,273.8227435969748,273.8232970440004,273.832063371985,273.832063371985,273.832063371985,274.4893646790006,,,,,,,,,,,,,,,,,,,,,,,,,,,,,,,left,0.0,0.6542566840071231,,,,,sub-079,1,random_dot,,
left,left,44.0,0.0,22.0,right,0.0,2.844632697000634,,accuracy,space,2.1874254099966493,,,,,,0.0,0.0,0.0,0.0,22.0,0.0,44.0,0.0,274.49740329099586,,,,,,,,,274.4896196059999,275.2885458160017,276.08821530197747,276.0773078529746,276.0780750470003,276.08821530197747,276.08821530197747,276.08821530197747,278.9429346729885,,,,,,,,,,,,,,,,,,,,,,,,,,,,,,,right,0.0,2.844632697000634,,,,,sub-079,1,random_dot,,
right,right,45.0,1.0,22.0,left,0.0,0.8587097819836345,,accuracy,space,2.1874254099966493,,,,,,0.0,0.0,0.0,0.0,22.0,1.0,45.0,1.0,278.9537742739776,,,,,,,,,278.94318371400004,279.0372111029865,279.8290769409796,279.8211457839934,279.82160870099324,279.8290769409796,279.8290769409796,279.8290769409796,280.7053549499833,,,,,,,,,,,,,,,,,,,,,,,,,,,,,,,left,0.0,0.8587097819836345,,,,,sub-079,1,random_dot,,
left,left,46.0,0.0,23.0,right,0.0,0.9411621259932872,,accuracy,space,2.1874254099966493,,,,,,0.0,0.0,0.0,0.0,23.0,0.0,46.0,0.0,280.7123445219768,,,,,,,,,280.7056582509831,281.0453642849752,281.8402613749786,281.8291257369856,281.8299067859771,281.8402613749786,281.8402613749786,281.8402613749786,282.7911367559864,,,,,,,,,,,,,,,,,,,,,,,,,,,,,,,right,0.0,0.9411621259932872,,,,,sub-079,1,random_dot,,
right,right,47.0,1.0,23.0,left,0.0,1.535998072999064,,accuracy,space,2.1874254099966493,,,,,,0.0,0.0,0.0,0.0,23.0,1.0,47.0,1.0,282.7985557789798,,,,,,,,,282.7913503710006,283.1386509659933,283.9394254089857,283.9275001119822,283.9285626380006,283.9394254089857,283.9394254089857,283.9394254089857,285.4889703149965,,,,,,,,,,,,,,,,,,,,,,,,,,,,,,,left,0.0,1.535998072999064,,,,,sub-079,1,random_dot,,
left,left,48.0,0.0,24.0,left,1.0,1.5652436040109023,,accuracy,space,2.1874254099966493,,,,,,0.0,0.0,0.0,0.0,24.0,0.0,48.0,0.0,285.4985213259933,,,,,,,,,285.4893674879859,286.28866964697954,287.08805338997627,287.07740801398177,287.0780777529872,287.08805338997627,287.08805338997627,287.08805338997627,288.66008120498736,,,,,,,,,,,,,,,,,,,,,,,,,,,,,,,left,1.0,1.5652436040109023,,,,,sub-079,1,random_dot,,
right,right,49.0,1.0,24.0,right,1.0,1.0137393369805068,,accuracy,space,2.1874254099966493,,,,,,0.0,0.0,0.0,0.0,24.0,1.0,49.0,1.0,288.6706105899939,,,,,,,,,288.66067333798856,289.85383486398496,290.6466904269764,290.63866293799947,290.63912157999584,290.6466904269764,290.6466904269764,290.6466904269764,291.6712713579764,,,,,,,,,,,,,,,,,,,,,,,,,,,,,,,right,1.0,1.0137393369805068,,,,,sub-079,1,random_dot,,
right,right,50.0,0.0,25.0,right,1.0,1.052506681997329,,accuracy,space,2.1874254099966493,,,,,,0.0,0.0,0.0,0.0,25.0,0.0,50.0,1.0,291.6778577239893,,,,,,,,,291.6715170870011,292.8615877669945,293.6658535429742,293.6557149879809,293.6563739119738,293.6658535429742,293.6658535429742,293.6658535429742,294.72545192198595,,,,,,,,,,,,,,,,,,,,,,,,,,,,,,,right,1.0,1.052506681997329,,,,,sub-079,1,random_dot,,
left,left,51.0,1.0,25.0,right,0.0,1.861722224013647,,accuracy,space,2.1874254099966493,,,,,,0.0,0.0,0.0,0.0,25.0,1.0,51.0,0.0,294.73694596797577,,,,,,,,,294.72588108398486,295.07048696497804,295.8615870020003,295.8541002009879,295.8544803939876,295.8615870020003,295.8615870020003,295.8615870020003,297.73069142497843,,,,,,,,,,,,,,,,,,,,,,,,,,,,,,,right,0.0,1.861722224013647,,,,,sub-079,1,random_dot,,
left,left,52.0,0.0,26.0,left,1.0,0.9965048549929634,,accuracy,space,2.1874254099966493,,,,,,0.0,0.0,0.0,0.0,26.0,0.0,52.0,0.0,297.73939376699855,,,,,,,,,297.7309423449915,298.52562433399726,299.3216716349998,299.3114943369874,299.3122787679895,299.3216716349998,299.3216716349998,299.3216716349998,300.32339014598983,,,,,,,,,,,,,,,,,,,,,,,,,,,,,,,left,1.0,0.9965048549929634,,,,,sub-079,1,random_dot,,
right,right,53.0,1.0,26.0,right,1.0,0.9472717520256992,,accuracy,space,2.1874254099966493,,,,,,0.0,0.0,0.0,0.0,26.0,1.0,53.0,1.0,300.32993165697553,,,,,,,,,300.32364513300126,300.6716575959872,301.4711092779762,301.4601913289807,301.46112021798035,301.4711092779762,301.4711092779762,301.4711092779762,302.424660855002,,,,,,,,,,,,,,,,,,,,,,,,,,,,,,,right,1.0,0.9472717520256992,,,,,sub-079,1,random_dot,,
left,left,54.0,0.0,27.0,left,1.0,0.7906266090285499,,accuracy,space,2.1874254099966493,,,,,,0.0,0.0,0.0,0.0,27.0,0.0,54.0,0.0,302.4367038139899,,,,,,,,,302.42488079998293,303.2203724909923,304.0137812239991,304.00441682798555,304.0049831119832,304.0137812239991,304.0137812239991,304.0137812239991,304.80630638398,,,,,,,,,,,,,,,,,,,,,,,,,,,,,,,left,1.0,0.7906266090285499,,,,,sub-079,1,random_dot,,
right,right,55.0,1.0,27.0,right,1.0,2.9730414760124404,,accuracy,space,2.1874254099966493,,,,,,0.0,0.0,0.0,0.0,27.0,1.0,55.0,1.0,304.8120232509973,,,,,,,,,304.806557340984,304.9037792259769,305.6954731269798,305.6877033459896,305.68809251798666,305.6954731269798,305.6954731269798,305.6954731269798,308.6713476969744,,,,,,,,,,,,,,,,,,,,,,,,,,,,,,,right,1.0,2.9730414760124404,,,,,sub-079,1,random_dot,,
left,left,56.0,0.0,28.0,left,1.0,0.7319645080133341,,accuracy,space,2.1874254099966493,,,,,,0.0,0.0,0.0,0.0,28.0,0.0,56.0,0.0,308.6768134399899,,,,,,,,,308.67161624497385,309.8611457379884,310.6637122819957,310.6552608019847,310.6557168249856,310.6637122819957,310.6637122819957,310.6637122819957,311.40367075498216,,,,,,,,,,,,,,,,,,,,,,,,,,,,,,,left,1.0,0.7319645080133341,,,,,sub-079,1,random_dot,,
right,right,57.0,1.0,28.0,right,1.0,0.8158896820095833,,accuracy,space,2.1874254099966493,,,,,,0.0,0.0,0.0,0.0,28.0,1.0,57.0,1.0,311.42088388299453,,,,,,,,,311.40394044597633,312.1950551039772,312.98837939699297,312.9783431039832,312.97915681498125,312.98837939699297,312.98837939699297,312.98837939699297,313.80547677597497,,,,,,,,,,,,,,,,,,,,,,,,,,,,,,,right,1.0,0.8158896820095833,,,,,sub-079,1,random_dot,,
left,left,58.0,0.0,29.0,right,0.0,3.900171916000545,,accuracy,space,2.1874254099966493,,,,,,0.0,0.0,0.0,0.0,29.0,0.0,58.0,0.0,313.8112341679808,,,,,,,,,313.80572396799107,314.1548237709794,314.947140520002,314.93872147699585,314.93931926199,314.947140520002,314.947140520002,314.947140520002,318.85614525398705,,,,,,,,,,,,,,,,,,,,,,,,,,,,,,,right,0.0,3.900171916000545,,,,,sub-079,1,random_dot,,
right,right,59.0,1.0,29.0,right,1.0,1.012099933985155,,accuracy,space,2.1874254099966493,,,,,,0.0,0.0,0.0,0.0,29.0,1.0,59.0,1.0,318.8638790659897,,,,,,,,,318.8564579479862,319.6537354469765,320.4464136369934,320.4383733579889,320.438827897975,320.4464136369934,320.4464136369934,320.4464136369934,321.4657583059743,,,,,,,,,,,,,,,,,,,,,,,,,,,,,,,right,1.0,1.012099933985155,,,,,sub-079,1,random_dot,,
,,0.0,0.0,0.0,,,,,accuracy,space,2.1874254099966493,,,,,,0.0,0.0,0.0,0.0,,,,,,,,,,,,,,,,,,,,,,,,,,,,,,,,,,,,,,,,,,,,,,,,,,,,,,,,,,,,sub-079,1,random_dot,,
right,right,0.0,0.0,0.0,right,1.0,0.9276490600022952,,speed,space,2.459412381984293,,,,,,0.0,1.0,1.0,1.0,0.0,0.0,0.0,1.0,323.958702007978,,,,,,,,,323.95165005899617,324.7450496519741,325.5449302069901,325.5370265009988,325.53749705597875,325.5449302069901,325.5449302069901,325.5449302069901,326.4873854350008,,,,,,,,,,,,,,,,,,,,,,,,321.4740818289865,321.48216409099405,321.48216409099405,323.9467524509819,space,2.459412381984293,,right,1.0,0.9276490600022952,,,,,sub-079,1,random_dot,,
left,left,1.0,1.0,0.0,right,0.0,0.6984640570008196,,speed,space,2.459412381984293,,,,,,0.0,1.0,1.0,1.0,0.0,1.0,1.0,0.0,326.4939862829924,,,,,,,,,326.4876631349907,327.67796677397564,328.47208987697377,328.4611823419982,328.46198495899444,328.47208987697377,328.47208987697377,328.47208987697377,329.1792127569788,,,,,,,,,,,,,,,,,,,,,,,,,,,,,,,right,0.0,0.6984640570008196,,,,,sub-079,1,random_dot,,
right,right,2.0,0.0,1.0,right,1.0,0.6068953149951994,,speed,space,2.459412381984293,,,,,,0.0,1.0,1.0,1.0,1.0,0.0,2.0,1.0,329.18820436199894,,,,,,,,,329.1796598349756,330.3778186290001,331.1866738239769,331.1614885919844,331.16229842297616,331.1866738239769,331.1866738239769,331.1866738239769,331.80390618299134,,,,,,,,,,,,,,,,,,,,,,,,,,,,,,,right,1.0,0.6068953149951994,,,,,sub-079,1,random_dot,,
left,left,3.0,1.0,1.0,right,0.0,0.6072419910051394,,speed,space,2.459412381984293,,,,,,0.0,1.0,1.0,1.0,1.0,1.0,3.0,0.0,331.81153288297355,,,,,,,,,331.8041277299926,332.5941207569849,333.38833557997714,333.3772627579747,333.378044254001,333.38833557997714,333.38833557997714,333.38833557997714,334.003840876976,,,,,,,,,,,,,,,,,,,,,,,,,,,,,,,right,0.0,0.6072419910051394,,,,,sub-079,1,random_dot,,
left,left,4.0,0.0,2.0,right,0.0,0.5943787150026765,,speed,space,2.459412381984293,,,,,,0.0,1.0,1.0,1.0,2.0,0.0,4.0,0.0,334.0113640089985,,,,,,,,,334.0041017749754,334.7949826719996,335.59816711899475,335.58854206398246,335.58918433397776,335.59816711899475,335.59816711899475,335.59816711899475,336.2037132219993,,,,,,,,,,,,,,,,,,,,,,,,,,,,,,,right,0.0,0.5943787150026765,,,,,sub-079,1,random_dot,,
right,right,5.0,1.0,2.0,right,1.0,0.9563740229932592,,speed,space,2.459412381984293,,,,,,0.0,1.0,1.0,1.0,2.0,1.0,5.0,1.0,336.2113563779858,,,,,,,,,336.2039650589868,336.5443563009904,337.3531942659756,337.32830354297766,337.3291236090008,337.3531942659756,337.3531942659756,337.3531942659756,338.31553760997485,,,,,,,,,,,,,,,,,,,,,,,,,,,,,,,right,1.0,0.9563740229932592,,,,,sub-079,1,random_dot,,
right,right,6.0,0.0,3.0,right,1.0,0.598647915001493,,speed,space,2.459412381984293,,,,,,0.0,1.0,1.0,1.0,3.0,0.0,6.0,1.0,338.3234704589995,,,,,,,,,338.31579236499965,338.4098638619762,339.21092071197927,339.203426727996,339.2038063869986,339.21092071197927,339.21092071197927,339.21092071197927,339.82138999999734,,,,,,,,,,,,,,,,,,,,,,,,,,,,,,,right,1.0,0.598647915001493,,,,,sub-079,1,random_dot,,
left,left,7.0,1.0,3.0,right,0.0,2.0704452190257143,,speed,space,2.459412381984293,,,,,,0.0,1.0,1.0,1.0,3.0,1.0,7.0,0.0,339.8299800179957,,,,,,,,,339.82179444099893,340.6109743129928,341.4110260649759,341.4035967399832,341.4038383849838,341.4110260649759,341.4110260649759,341.4110260649759,343.4917888649797,,,,,,,,,,,,,,,,,,,,,,,,,,,,,,,right,0.0,2.0704452190257143,,,,,sub-079,1,random_dot,,
right,right,8.0,0.0,4.0,right,1.0,0.686882215028163,,speed,space,2.459412381984293,,,,,,0.0,1.0,1.0,1.0,4.0,0.0,8.0,1.0,343.5030079619901,,,,,,,,,343.4921946929826,343.58786424199934,344.3876377379929,344.37582858197857,344.37661879498046,344.3876377379929,344.3876377379929,344.3876377379929,345.082094168989,,,,,,,,,,,,,,,,,,,,,,,,,,,,,,,right,1.0,0.686882215028163,,,,,sub-079,1,random_dot,,
left,left,9.0,1.0,4.0,right,0.0,0.8706161750014871,,speed,space,2.459412381984293,,,,,,0.0,1.0,1.0,1.0,4.0,1.0,9.0,0.0,345.0900830059836,,,,,,,,,345.0823155459948,345.1879912180011,345.9879104519787,345.9766764289816,345.97748603799846,345.9879104519787,345.9879104519787,345.9879104519787,346.86301197699504,,,,,,,,,,,,,,,,,,,,,,,,,,,,,,,right,0.0,0.8706161750014871,,,,,sub-079,1,random_dot,,
left,left,10.0,0.0,5.0,right,0.0,0.7548933530051727,,speed,space,2.459412381984293,,,,,,0.0,1.0,1.0,1.0,5.0,0.0,10.0,0.0,346.8720201329852,,,,,,,,,346.86338032598724,346.9606236559921,347.76170615898445,347.75360649399227,347.7540938979946,347.76170615898445,347.76170615898445,347.76170615898445,348.5211043809832,,,,,,,,,,,,,,,,,,,,,,,,,,,,,,,right,0.0,0.7548933530051727,,,,,sub-079,1,random_dot,,
right,right,11.0,1.0,5.0,right,1.0,1.161594308010535,,speed,space,2.459412381984293,,,,,,0.0,1.0,1.0,1.0,5.0,1.0,11.0,1.0,348.5279832049855,,,,,,,,,348.5215287989995,348.8603910559905,349.65411761699943,349.64457446997403,349.6452051989909,349.65411761699943,349.65411761699943,349.65411761699943,350.82183792599244,,,,,,,,,,,,,,,,,,,,,,,,,,,,,,,right,1.0,1.161594308010535,,,,,sub-079,1,random_dot,,
right,right,12.0,0.0,6.0,right,1.0,0.9277699379890691,,speed,space,2.459412381984293,,,,,,0.0,1.0,1.0,1.0,6.0,0.0,12.0,1.0,350.82836247899104,,,,,,,,,350.82209783999133,352.0201147569751,352.8139075959916,352.8037446179951,352.8044062309782,352.8139075959916,352.8139075959916,352.8139075959916,353.754011299985,,,,,,,,,,,,,,,,,,,,,,,,,,,,,,,right,1.0,0.9277699379890691,,,,,sub-079,1,random_dot,,
left,left,13.0,1.0,6.0,right,0.0,5.735271202982403,,speed,space,2.459412381984293,,,,,,0.0,1.0,1.0,1.0,6.0,1.0,13.0,0.0,353.76064648799365,,,,,,,,,353.7544767749787,354.1034530449833,354.8944239659759,354.8866592010017,354.88703355699545,354.8944239659759,354.8944239659759,354.8944239659759,360.638503033988,,,,,,,,,359.9032918269804,,,,,,,,,,,,,,,,,,,,,,right,0.0,5.735271202982403,,,,,sub-079,1,random_dot,,
right,right,14.0,0.0,7.0,right,1.0,0.709972796990769,,speed,space,2.459412381984293,,,,,,0.0,1.0,1.0,1.0,7.0,0.0,14.0,1.0,360.6453638189996,,,,,,,,,360.6387351229787,361.4375171349966,362.22855956899,362.2204239409766,362.22089129698,362.22855956899,362.22855956899,362.22855956899,362.9482788609748,,,,,,,,,,,,,,,,,,,,,,,,,,,,,,,right,1.0,0.709972796990769,,,,,sub-079,1,random_dot,,
left,left,15.0,1.0,7.0,right,0.0,3.0298378550214693,,speed,space,2.459412381984293,,,,,,0.0,1.0,1.0,1.0,7.0,1.0,15.0,0.0,362.9575794029806,,,,,,,,,362.9489021769841,363.2922199169989,364.0867984719807,364.0761502349924,364.0769488019869,364.0867984719807,364.0867984719807,364.0867984719807,367.12528446500073,,,,,,,,,,,,,,,,,,,,,,,,,,,,,,,right,0.0,3.0298378550214693,,,,,sub-079,1,random_dot,,
left,left,16.0,0.0,8.0,right,0.0,0.8006823500036262,,speed,space,2.459412381984293,,,,,,0.0,1.0,1.0,1.0,8.0,0.0,16.0,0.0,367.1358188229788,,,,,,,,,367.12555840399,368.3205895899737,369.1126902089745,369.1045501729823,369.1051062699989,369.1126902089745,369.1126902089745,369.1126902089745,369.9210546359827,,,,,,,,,,,,,,,,,,,,,,,,,,,,,,,right,0.0,0.8006823500036262,,,,,sub-079,1,random_dot,,
right,right,17.0,1.0,8.0,right,1.0,0.8266135629964992,,speed,space,2.459412381984293,,,,,,0.0,1.0,1.0,1.0,8.0,1.0,17.0,1.0,369.9366435369884,,,,,,,,,369.9212716999755,370.7096483269997,371.51961074897554,371.5059693299991,371.5064808789757,371.51961074897554,371.51961074897554,371.51961074897554,372.3711561480013,,,,,,,,,,,,,,,,,,,,,,,,,,,,,,,right,1.0,0.8266135629964992,,,,,sub-079,1,random_dot,,
left,left,18.0,0.0,9.0,right,0.0,0.8185080609982833,,speed,space,2.459412381984293,,,,,,0.0,1.0,1.0,1.0,9.0,0.0,18.0,0.0,372.38007516399375,,,,,,,,,372.3715619430004,373.57021608398645,374.363827950001,374.3542893760023,374.3548619079811,374.363827950001,374.363827950001,374.363827950001,375.1875604979869,,,,,,,,,,,,,,,,,,,,,,,,,,,,,,,right,0.0,0.8185080609982833,,,,,sub-079,1,random_dot,,
right,right,19.0,1.0,9.0,right,1.0,0.8507867339940276,,speed,space,2.459412381984293,,,,,,0.0,1.0,1.0,1.0,9.0,1.0,19.0,1.0,375.2025635479949,,,,,,,,,375.1878735939972,375.98903281099047,376.7875793899875,376.7765752279957,376.7772388219892,376.7875793899875,376.7875793899875,376.7875793899875,377.6477388459898,,,,,,,,,,,,,,,,,,,,,,,,,,,,,,,right,1.0,0.8507867339940276,,,,,sub-079,1,random_dot,,
right,right,20.0,0.0,10.0,right,1.0,2.2122729170077946,,speed,space,2.459412381984293,,,,,,0.0,1.0,1.0,1.0,10.0,0.0,20.0,1.0,377.6556269479916,,,,,,,,,377.648173900001,377.99369863499305,378.7880358069961,378.7776988479891,378.7783809989924,378.7880358069961,378.7880358069961,378.7880358069961,381.007769177988,,,,,,,,,,,,,,,,,,,,,,,,,,,,,,,right,1.0,2.2122729170077946,,,,,sub-079,1,random_dot,,
left,left,21.0,1.0,10.0,right,0.0,2.09437980002258,,speed,space,2.459412381984293,,,,,,0.0,1.0,1.0,1.0,10.0,1.0,21.0,0.0,381.019002252986,,,,,,,,,381.0080896359868,381.3530603429826,382.1440321209957,382.13616670898045,382.1366257339832,382.1440321209957,382.1440321209957,382.1440321209957,384.24127130699344,,,,,,,,,,,,,,,,,,,,,,,,,,,,,,,right,0.0,2.09437980002258,,,,,sub-079,1,random_dot,,
left,left,22.0,0.0,11.0,right,0.0,1.071780364989536,,speed,space,2.459412381984293,,,,,,0.0,1.0,1.0,1.0,11.0,0.0,22.0,0.0,384.25205129999085,,,,,,,,,384.24152096998296,384.33595478499774,385.1276650450018,385.1196899069764,385.12014632098726,385.1276650450018,385.1276650450018,385.1276650450018,386.2078284699819,,,,,,,,,,,,,,,,,,,,,,,,,,,,,,,right,0.0,1.071780364989536,,,,,sub-079,1,random_dot,,
right,right,23.0,1.0,11.0,right,1.0,2.229646085004788,,speed,space,2.459412381984293,,,,,,0.0,1.0,1.0,1.0,11.0,1.0,23.0,1.0,386.2191511779965,,,,,,,,,386.2081222499837,387.40386637998745,388.1949155059992,388.1867024109815,388.1872276319773,388.1949155059992,388.1949155059992,388.1949155059992,390.4294307969976,,,,,,,,,,,,,,,,,,,,,,,,,,,,,,,right,1.0,2.229646085004788,,,,,sub-079,1,random_dot,,
right,right,24.0,0.0,12.0,right,1.0,2.1744732340157498,,speed,space,2.459412381984293,,,,,,0.0,1.0,1.0,1.0,12.0,0.0,24.0,1.0,390.43829862200073,,,,,,,,,390.429799392994,390.776319401979,391.5698739649961,391.55915647698566,391.5599302839837,391.5698739649961,391.5698739649961,391.5698739649961,393.75329756797873,,,,,,,,,,,,,,,,,,,,,,,,,,,,,,,right,1.0,2.1744732340157498,,,,,sub-079,1,random_dot,,
left,left,25.0,1.0,12.0,left,1.0,1.2822469570091926,,speed,space,2.459412381984293,,,,,,0.0,1.0,1.0,1.0,12.0,1.0,25.0,0.0,393.770596449991,,,,,,,,,393.7536025189911,393.8421851329913,394.63610892399447,394.626147803996,394.6267105489969,394.63610892399447,394.63610892399447,394.63610892399447,395.9368748619745,,,,,,,,,,,,,,,,,,,,,,,,,,,,,,,left,1.0,1.2822469570091926,,,,,sub-079,1,random_dot,,
right,right,26.0,0.0,13.0,right,1.0,4.676745514007052,,speed,space,2.459412381984293,,,,,,0.0,1.0,1.0,1.0,13.0,0.0,26.0,1.0,395.95246660200064,,,,,,,,,395.93730511699687,396.0369373939757,396.8293246190005,396.8197831059806,396.8202424659976,396.8293246190005,396.8293246190005,396.8293246190005,401.51416492299177,,,,,,,,,,,,,,,,,,,,,,,,,,,,,,,right,1.0,4.676745514007052,,,,,sub-079,1,random_dot,,
left,left,27.0,1.0,13.0,left,1.0,2.1366711760056205,,speed,space,2.459412381984293,,,,,,0.0,1.0,1.0,1.0,13.0,1.0,27.0,0.0,401.5213192219962,,,,,,,,,401.5145734099788,401.8576592809986,402.67123388897744,402.6554380969901,402.65630579998833,402.67123388897744,402.67123388897744,402.67123388897744,404.8110607150011,,,,,,,,,,,,,,,,,,,,,,,,,,,,,,,left,1.0,2.1366711760056205,,,,,sub-079,1,random_dot,,
left,left,28.0,0.0,14.0,right,0.0,1.403954348003026,,speed,space,2.459412381984293,,,,,,0.0,1.0,1.0,1.0,14.0,0.0,28.0,0.0,404.8190709449991,,,,,,,,,404.8113224919944,405.6085368549975,406.40287412397447,406.3923561849806,406.3930556419946,406.40287412397447,406.40287412397447,406.40287412397447,407.8143576459843,,,,,,,,,,,,,,,,,,,,,,,,,,,,,,,right,0.0,1.403954348003026,,,,,sub-079,1,random_dot,,
right,right,29.0,1.0,14.0,left,0.0,0.9978785650164356,,speed,space,2.459412381984293,,,,,,0.0,1.0,1.0,1.0,14.0,1.0,29.0,1.0,407.8225150119979,,,,,,,,,407.8148292979749,407.9077123149764,408.7031435239769,408.6924887779751,408.69327428299584,408.7031435239769,408.7031435239769,408.7031435239769,409.7034133909911,,,,,,,,,,,,,,,,,,,,,,,,,,,,,,,left,0.0,0.9978785650164356,,,,,sub-079,1,random_dot,,
right,right,30.0,0.0,15.0,left,0.0,0.7789417629828677,,speed,space,2.459412381984293,,,,,,0.0,1.0,1.0,1.0,15.0,0.0,30.0,1.0,409.71998488597455,,,,,,,,,409.7036574119993,410.0541996039974,410.84595030298806,410.8375282639754,410.8380867189844,410.84595030298806,410.84595030298806,410.84595030298806,411.6292215699796,,,,,,,,,,,,,,,,,,,,,,,,,,,,,,,left,0.0,0.7789417629828677,,,,,sub-079,1,random_dot,,
left,left,31.0,1.0,15.0,right,0.0,0.5252352710231207,,speed,space,2.459412381984293,,,,,,0.0,1.0,1.0,1.0,15.0,1.0,31.0,0.0,411.6378269099805,,,,,,,,,411.6295350439905,412.82541529499576,413.6198474470002,413.6091457629809,413.6099711319839,413.6198474470002,413.6198474470002,413.6198474470002,414.1473000109836,,,,,,,,,,,,,,,,,,,,,,,,,,,,,,,right,0.0,0.5252352710231207,,,,,sub-079,1,random_dot,,
right,right,32.0,0.0,16.0,right,1.0,0.6448028080048971,,speed,space,2.459412381984293,,,,,,0.0,1.0,1.0,1.0,16.0,0.0,32.0,1.0,414.1550417809922,,,,,,,,,414.147710078978,414.493562928983,415.2923171109869,415.2854204749746,415.2857133389916,415.2923171109869,415.2923171109869,415.2923171109869,415.95473406100064,,,,,,,,,,,,,,,,,,,,,,,,,,,,,,,right,1.0,0.6448028080048971,,,,,sub-079,1,random_dot,,
left,left,33.0,1.0,16.0,left,1.0,0.6561437000054866,,speed,space,2.459412381984293,,,,,,0.0,1.0,1.0,1.0,16.0,1.0,33.0,0.0,415.9621404739737,,,,,,,,,415.9551417889888,416.75365241698455,417.55285969699617,417.5418454799801,417.5426585050009,417.55285969699617,417.55285969699617,417.55285969699617,418.2191780449939,,,,,,,,,,,,,,,,,,,,,,,,,,,,,,,left,1.0,0.6561437000054866,,,,,sub-079,1,random_dot,,
left,left,34.0,0.0,17.0,left,1.0,0.680913980002515,,speed,space,2.459412381984293,,,,,,0.0,1.0,1.0,1.0,17.0,0.0,34.0,0.0,418.2257528329792,,,,,,,,,418.21941932698246,419.0085685789818,419.8048594610009,419.79360136998,419.7943739959737,419.8048594610009,419.8048594610009,419.8048594610009,420.4923985079804,,,,,,,,,,,,,,,,,,,,,,,,,,,,,,,left,1.0,0.680913980002515,,,,,sub-079,1,random_dot,,
right,right,35.0,1.0,17.0,right,1.0,0.6624140340136364,,speed,space,2.459412381984293,,,,,,0.0,1.0,1.0,1.0,17.0,1.0,35.0,1.0,420.50147236697376,,,,,,,,,420.49264355699415,421.685609534994,422.4774508839764,422.4694173819735,422.4699726869876,422.4774508839764,422.4774508839764,422.4774508839764,423.14532702899305,,,,,,,,,,,,,,,,,,,,,,,,,,,,,,,right,1.0,0.6624140340136364,,,,,sub-079,1,random_dot,,
left,left,36.0,0.0,18.0,left,1.0,0.8875101790181361,,speed,space,2.459412381984293,,,,,,0.0,1.0,1.0,1.0,18.0,0.0,36.0,0.0,423.1541466319759,,,,,,,,,423.1456384079938,423.492771352001,424.2955843159871,424.2862127349945,424.28667594498256,424.2955843159871,424.2955843159871,424.2955843159871,425.1864746779902,,,,,,,,,,,,,,,,,,,,,,,,,,,,,,,left,1.0,0.8875101790181361,,,,,sub-079,1,random_dot,,
right,right,37.0,1.0,18.0,right,1.0,0.4432296140003018,,speed,space,2.459412381984293,,,,,,0.0,1.0,1.0,1.0,18.0,1.0,37.0,1.0,425.2025641819928,,,,,,,,,425.1867376799928,425.2850882509956,426.0757628959837,426.06884583097417,426.06917115699616,426.0757628959837,426.0757628959837,426.0757628959837,426.5202885769832,,,,,,,,,,,,,,,,,,,,,,,,,,,,,,,right,1.0,0.4432296140003018,,,,,sub-079,1,random_dot,,
left,left,38.0,0.0,19.0,left,1.0,0.6510279889917001,,speed,space,2.459412381984293,,,,,,0.0,1.0,1.0,1.0,19.0,0.0,38.0,0.0,426.5269735199981,,,,,,,,,426.52053845199407,426.6095730800007,427.4028938830015,427.3933034239744,427.3940191409784,427.4028938830015,427.4028938830015,427.4028938830015,428.0629772739776,,,,,,,,,,,,,,,,,,,,,,,,,,,,,,,left,1.0,0.6510279889917001,,,,,sub-079,1,random_dot,,
right,right,39.0,1.0,19.0,right,1.0,0.4824434909969568,,speed,space,2.459412381984293,,,,,,0.0,1.0,1.0,1.0,19.0,1.0,39.0,1.0,428.0716509119957,,,,,,,,,428.0635168729932,428.8596087039914,429.65338744799374,429.6430285459792,429.64375079100137,429.65338744799374,429.65338744799374,429.65338744799374,430.1442598599824,,,,,,,,,,,,,,,,,,,,,,,,,,,,,,,right,1.0,0.4824434909969568,,,,,sub-079,1,random_dot,,
left,left,40.0,0.0,20.0,left,1.0,1.8787616580084432,,speed,space,2.459412381984293,,,,,,0.0,1.0,1.0,1.0,20.0,0.0,40.0,0.0,430.1529743839928,,,,,,,,,430.1445238369925,430.94318277499406,431.7442331819912,431.7361766239919,431.736638131988,431.7442331819912,431.7442331819912,431.7442331819912,433.6358589799784,,,,,,,,,,,,,,,,,,,,,,,,,,,,,,,left,1.0,1.8787616580084432,,,,,sub-079,1,random_dot,,
right,right,41.0,1.0,20.0,right,1.0,0.6939823069842532,,speed,space,2.459412381984293,,,,,,0.0,1.0,1.0,1.0,20.0,1.0,41.0,1.0,433.6425355109968,,,,,,,,,433.63610799697926,434.8265087949985,435.6289189889794,435.6193136969814,435.6200176939892,435.6289189889794,435.6289189889794,435.6289189889794,436.3308989279904,,,,,,,,,,,,,,,,,,,,,,,,,,,,,,,right,1.0,0.6939823069842532,,,,,sub-079,1,random_dot,,
left,left,42.0,0.0,21.0,left,1.0,1.2186624129826669,,speed,space,2.459412381984293,,,,,,0.0,1.0,1.0,1.0,21.0,0.0,42.0,0.0,436.3380566249834,,,,,,,,,436.33114500300144,437.5240633339854,438.319205709995,438.30959620699286,438.31014433299424,438.319205709995,438.319205709995,438.319205709995,439.5465133419784,,,,,,,,,,,,,,,,,,,,,,,,,,,,,,,left,1.0,1.2186624129826669,,,,,sub-079,1,random_dot,,
right,right,43.0,1.0,21.0,right,1.0,0.6497214760165662,,speed,space,2.459412381984293,,,,,,0.0,1.0,1.0,1.0,21.0,1.0,43.0,1.0,439.5560936659749,,,,,,,,,439.5470522339747,440.7547791849938,441.5522539639787,441.5416637210001,441.5424075409828,441.5522539639787,441.5522539639787,441.5522539639787,442.2044865549833,,,,,,,,,,,,,,,,,,,,,,,,,,,,,,,right,1.0,0.6497214760165662,,,,,sub-079,1,random_dot,,
right,right,44.0,0.0,22.0,left,0.0,1.011742556001991,,speed,space,2.459412381984293,,,,,,0.0,1.0,1.0,1.0,22.0,0.0,44.0,1.0,442.2103645229945,,,,,,,,,442.2047389239888,442.30172234997735,443.0950960399932,443.086551054992,443.0871436149755,443.0950960399932,443.0950960399932,443.0950960399932,444.1112684289983,,,,,,,,,,,,,,,,,,,,,,,,,,,,,,,left,0.0,1.011742556001991,,,,,sub-079,1,random_dot,,
left,left,45.0,1.0,22.0,left,1.0,2.2013810490025207,,speed,space,2.459412381984293,,,,,,0.0,1.0,1.0,1.0,22.0,1.0,45.0,0.0,444.1343202829885,,,,,,,,,444.1117789399868,444.20948372699786,445.0177168149967,444.99325714897714,444.99406579197966,445.0177168149967,445.0177168149967,445.0177168149967,447.2207565379794,,,,,,,,,,,,,,,,,,,,,,,,,,,,,,,left,1.0,2.2013810490025207,,,,,sub-079,1,random_dot,,
left,left,46.0,0.0,23.0,left,1.0,0.7515019660058897,,speed,space,2.459412381984293,,,,,,0.0,1.0,1.0,1.0,23.0,0.0,46.0,0.0,447.2263566159818,,,,,,,,,447.2210181809787,448.4185713169864,449.2114980990009,449.2034897279809,449.20395923097385,449.2114980990009,449.2114980990009,449.2114980990009,449.97255642098025,,,,,,,,,,,,,,,,,,,,,,,,,,,,,,,left,1.0,0.7515019660058897,,,,,sub-079,1,random_dot,,
right,right,47.0,1.0,23.0,left,0.0,2.784913712006528,,speed,space,2.459412381984293,,,,,,0.0,1.0,1.0,1.0,23.0,1.0,47.0,1.0,449.98519130199566,,,,,,,,,449.9728034339787,450.31852779898327,451.111895043985,451.10255721298745,451.1030880069884,451.111895043985,451.111895043985,451.111895043985,453.9054645979777,,,,,,,,,,,,,,,,,,,,,,,,,,,,,,,left,0.0,2.784913712006528,,,,,sub-079,1,random_dot,,
left,left,48.0,0.0,24.0,left,1.0,1.2773696790100075,,speed,space,2.459412381984293,,,,,,0.0,1.0,1.0,1.0,24.0,0.0,48.0,0.0,453.9182731079927,,,,,,,,,453.9057414319832,455.1190144959837,455.9125096599746,455.9033123719855,455.9037677239976,455.9125096599746,455.9125096599746,455.9125096599746,457.2023452929861,,,,,,,,,,,,,,,,,,,,,,,,,,,,,,,left,1.0,1.2773696790100075,,,,,sub-079,1,random_dot,,
right,right,49.0,1.0,24.0,right,1.0,1.5653268650057726,,speed,space,2.459412381984293,,,,,,0.0,1.0,1.0,1.0,24.0,1.0,49.0,1.0,457.2105101920024,,,,,,,,,457.2025677479978,458.3905583679734,459.1856447169848,459.1751426679839,459.1757814750017,459.1856447169848,459.1856447169848,459.1856447169848,460.7527942579764,,,,,,,,,,,,,,,,,,,,,,,,,,,,,,,right,1.0,1.5653268650057726,,,,,sub-079,1,random_dot,,
left,left,50.0,0.0,25.0,left,1.0,1.8511323089769576,,speed,space,2.459412381984293,,,,,,0.0,1.0,1.0,1.0,25.0,0.0,50.0,0.0,460.7583325319865,,,,,,,,,460.7530361469835,460.8543213919911,461.6519001419947,461.6381086959736,461.6387717689795,461.6519001419947,461.6519001419947,461.6519001419947,463.5118321990012,,,,,,,,,,,,,,,,,,,,,,,,,,,,,,,left,1.0,1.8511323089769576,,,,,sub-079,1,random_dot,,
right,right,51.0,1.0,25.0,right,1.0,1.942008355021244,,speed,space,2.459412381984293,,,,,,0.0,1.0,1.0,1.0,25.0,1.0,51.0,1.0,463.52051321597537,,,,,,,,,463.5120682319976,463.85910074197454,464.66272927698446,464.6533425799862,464.6539049949788,464.66272927698446,464.66272927698446,464.66272927698446,466.6126673609833,,,,,,,,,,,,,,,,,,,,,,,,,,,,,,,right,1.0,1.942008355021244,,,,,sub-079,1,random_dot,,
right,right,52.0,0.0,26.0,right,1.0,3.043809030001285,,speed,space,2.459412381984293,,,,,,0.0,1.0,1.0,1.0,26.0,0.0,52.0,1.0,466.6230445239926,,,,,,,,,466.61291214398807,466.7079070069885,467.50212981097866,467.49155025798245,467.492350843997,467.50212981097866,467.50212981097866,467.50212981097866,470.5559535549837,,,,,,,,,,,,,,,,,,,,,,,,,,,,,,,right,1.0,3.043809030001285,,,,,sub-079,1,random_dot,,
left,left,53.0,1.0,26.0,right,0.0,2.7136384430050384,,speed,space,2.459412381984293,,,,,,0.0,1.0,1.0,1.0,26.0,1.0,53.0,0.0,470.5649549959926,,,,,,,,,470.5563801959797,470.9012051449972,471.6923711019917,471.68535919699934,471.6855871119769,471.6923711019917,471.6923711019917,471.6923711019917,474.4110767789825,,,,,,,,,,,,,,,,,,,,,,,,,,,,,,,right,0.0,2.7136384430050384,,,,,sub-079,1,random_dot,,
left,left,54.0,0.0,27.0,right,0.0,2.67551086700405,,speed,space,2.459412381984293,,,,,,0.0,1.0,1.0,1.0,27.0,0.0,54.0,0.0,474.4332076989813,,,,,,,,,474.4113311019901,475.6078458229895,476.401140151982,476.3913509220001,476.3919201489771,476.401140151982,476.401140151982,476.401140151982,479.088038307993,,,,,,,,,,,,,,,,,,,,,,,,,,,,,,,right,0.0,2.67551086700405,,,,,sub-079,1,random_dot,,
right,right,55.0,1.0,27.0,left,0.0,1.720457425020868,,speed,space,2.459412381984293,,,,,,0.0,1.0,1.0,1.0,27.0,1.0,55.0,1.0,479.0950783039734,,,,,,,,,479.0883555749897,479.884822958993,480.67496702299104,480.6677685659961,480.6681221759936,480.67496702299104,480.67496702299104,480.67496702299104,482.40573119098553,,,,,,,,,,,,,,,,,,,,,,,,,,,,,,,left,0.0,1.720457425020868,,,,,sub-079,1,random_dot,,
left,left,56.0,0.0,28.0,right,0.0,2.227300884987926,,speed,space,2.459412381984293,,,,,,0.0,1.0,1.0,1.0,28.0,0.0,56.0,0.0,482.4178759869829,,,,,,,,,482.4060583199898,483.2014042849769,483.9960287809954,483.98664667998673,483.98724680999294,483.9960287809954,483.9960287809954,483.9960287809954,486.2348315739946,,,,,,,,,,,,,,,,,,,,,,,,,,,,,,,right,0.0,2.227300884987926,,,,,sub-079,1,random_dot,,
right,right,57.0,1.0,28.0,right,1.0,1.1653913689951878,,speed,space,2.459412381984293,,,,,,0.0,1.0,1.0,1.0,28.0,1.0,57.0,1.0,486.2423493639799,,,,,,,,,486.2350665109989,486.5758399219776,487.3690046129923,487.3601272679807,487.3607029299892,487.3690046129923,487.3690046129923,487.3690046129923,488.5358448639745,,,,,,,,,,,,,,,,,,,,,,,,,,,,,,,right,1.0,1.1653913689951878,,,,,sub-079,1,random_dot,,
right,right,58.0,0.0,29.0,right,1.0,0.7776119409827515,,speed,space,2.459412381984293,,,,,,0.0,1.0,1.0,1.0,29.0,0.0,58.0,1.0,488.54172579798615,,,,,,,,,488.5361091079831,488.6261367039988,489.4247111879813,489.417744218983,489.41808634399786,489.4247111879813,489.4247111879813,489.4247111879813,490.2121538959909,,,,,,,,,,,,,,,,,,,,,,,,,,,,,,,right,1.0,0.7776119409827515,,,,,sub-079,1,random_dot,,
left,left,59.0,1.0,29.0,left,1.0,0.8437329860171303,,speed,space,2.459412381984293,,,,,,0.0,1.0,1.0,1.0,29.0,1.0,59.0,0.0,490.2215295669739,,,,,,,,,490.21270188398194,490.5564453769766,491.3514251859742,491.34107221500017,491.3417071169824,491.3514251859742,491.3514251859742,491.3514251859742,492.205228381994,,,,,,,,,,,,,,,,,,,,,,,,,,,,,,,left,1.0,0.8437329860171303,,,,,sub-079,1,random_dot,,
,,1.0,1.0,0.0,,,,,speed,space,2.459412381984293,,,,,,0.0,1.0,1.0,1.0,,,,,,,,,,,,,,,,,,,,,,,,,,,,,,,,,,,,,,,,,,,,,,,,,,,,,,,,,,,,sub-079,1,random_dot,,
,,,,,,,,,,,,,,,,,,,,,,,,,,,,,,,,,,,,,,,,,,,,,,,,,,,,,,,,,,,,,,,,,,,,,,,,,,,,,492.2105737179809,492.2215121419868,497.2072369809903,sub-079,1,random_dot,,
