wordCTK,colorCTK,corrAnsCTK,congruentCTK,thisN,thisTrialN,thisRepN,keyResp_CTK.keys,keyResp_CTK.corr,keyResp_CTK.rt,keyResp_CTK.duration,wordPractice,colorPractice,corrAnsPractice,congruentPractice,respPractice.keys,respPractice.corr,respPractice.rt,respPractice.duration,word,color,corrAns,congruent,keyResp_test_run.keys,keyResp_test_run.corr,keyResp_test_run.rt,keyResp_test_run.duration,trials_CTK.thisRepN,trials_CTK.thisTrialN,trials_CTK.thisN,trials_CTK.thisIndex,trials_practice.thisRepN,trials_practice.thisTrialN,trials_practice.thisN,trials_practice.thisIndex,trials_test.thisRepN,trials_test.thisTrialN,trials_test.thisN,trials_test.thisIndex,thisRow.t,notes,instruction.started,instr_text.started,instr_image.started,instr_resp.started,instruction.stopped,instr_resp.keys,instr_resp.rt,instr_resp.duration,instr_color_to_key.started,instr_ctk.started,resp_ctk.started,instr_color_to_key.stopped,resp_ctk.keys,resp_ctk.rt,resp_ctk.duration,ITI.started,fixcross.started,fixcross.stopped,ITI.stopped,color_to_key_run.started,stimulus_CTK.started,keyResp_CTK.started,color_to_key_run.stopped,trials_CTK.keyResp_CTK.keys,trials_CTK.keyResp_CTK.corr,trials_CTK.keyResp_CTK.rt,trials_CTK.keyResp_CTK.duration,instr_practice.started,instr_practice_text.started,instr_practice_resp.started,instr_practice.stopped,instr_practice_resp.keys,instr_practice_resp.rt,instr_practice_resp.duration,practice_run.started,stimulus_practice.started,respPractice.started,practice_run.stopped,trials_practice.respPractice.keys,trials_practice.respPractice.corr,trials_practice.respPractice.rt,trials_practice.respPractice.duration,feedback.started,textFeedback.started,textFeedback.stopped,feedback.stopped,instr_test.started,instr_test_text.started,instr_test_resp.started,instr_test.stopped,instr_test_resp.keys,instr_test_resp.rt,instr_test_resp.duration,test_run.started,stimulus_test_run.started,keyResp_test_run.started,test_run.stopped,trials_test.keyResp_test_run.keys,trials_test.keyResp_test_run.corr,trials_test.keyResp_test_run.rt,trials_test.keyResp_test_run.duration,goodbye.started,textGoodbye.started,goodbye.stopped,participant,session,expName,frameRate,Unnamed: 112
,,,,,,,,,,,,,,,,,,,,,,,,,,,,,,,,,,,,,,,,,0.0041952999308705,0.0384959999937564,0.0384959999937564,0.0384959999937564,36.16622509993613,space,36.10950559994672,,,,,,,,,,,,,,,,,,,,,,,,,,,,,,,,,,,,,,,,,,,,,,,,,,,,,,,,,,sub-055,1,stroop_test,60.03925365539914,
,,,,,,,,,,,,,,,,,,,,,,,,,,,,,,,,,,,,,,,,,,,,,,,,,36.16627559997141,36.17361649998929,36.17361649998929,79.7504216999514,space,43.57458189991303,,,,,,,,,,,,,,,,,,,,,,,,,,,,,,,,,,,,,,,,,,,,,,,,,,,sub-055,1,stroop_test,60.03925365539914,
test,red,r,1.0,0.0,0.0,0.0,r,1.0,1.73265379993245,,,,,,,,,,,,,,,,,,0.0,0.0,0.0,0.0,,,,,,,,,79.77363029995468,,,,,,,,,,,,,,,,,79.7692522999132,80.56594200001564,81.36610979994293,81.34966599999461,81.35504179995041,81.36610979994293,81.36610979994293,83.1012364999624,r,1.0,1.73265379993245,,,,,,,,,,,,,,,,,,,,,,,,,,,,,,,,,,,,,,,sub-055,1,stroop_test,60.03925365539914,
test,blue,b,1.0,1.0,1.0,0.0,b,1.0,1.35998720000498,,,,,,,,,,,,,,,,,,0.0,1.0,1.0,2.0,,,,,,,,,83.1159543999238,,,,,,,,,,,,,,,,,83.10161259991582,83.21629289991688,84.01571059995331,83.99960639991332,83.99998209998012,84.01571059995331,84.01571059995331,85.38278220000211,b,1.0,1.35998720000498,,,,,,,,,,,,,,,,,,,,,,,,,,,,,,,,,,,,,,,sub-055,1,stroop_test,60.03925365539914,
test,yellow,g,1.0,2.0,2.0,0.0,g,1.0,1.3288993999594825,,,,,,,,,,,,,,,,,,0.0,2.0,2.0,1.0,,,,,,,,,85.39859759993851,,,,,,,,,,,,,,,,,85.38302459998522,86.19834389991593,86.99862039997242,86.98294529994018,86.98342990002129,86.99862039997242,86.99862039997242,88.3327654999448,g,1.0,1.3288993999594825,,,,,,,,,,,,,,,,,,,,,,,,,,,,,,,,,,,,,,,sub-055,1,stroop_test,60.03925365539914,
test,yellow,g,1.0,3.0,0.0,1.0,g,1.0,0.7851807000115514,,,,,,,,,,,,,,,,,,1.0,0.0,3.0,1.0,,,,,,,,,88.34831019991543,,,,,,,,,,,,,,,,,88.33298850001302,89.54844049992971,90.3478040000191,90.3319698999403,90.33235609997064,90.3478040000191,90.3478040000191,91.14890749996994,g,1.0,0.7851807000115514,,,,,,,,,,,,,,,,,,,,,,,,,,,,,,,,,,,,,,,sub-055,1,stroop_test,60.03925365539914,
test,blue,b,1.0,4.0,1.0,1.0,b,1.0,0.8395988999400288,,,,,,,,,,,,,,,,,,1.0,1.0,4.0,2.0,,,,,,,,,91.16515349992552,,,,,,,,,,,,,,,,,91.14914549991954,91.26506419992074,92.0654416999314,92.04987949994393,92.05051309999544,92.0654416999314,92.0654416999314,92.91772249992935,b,1.0,0.8395988999400288,,,,,,,,,,,,,,,,,,,,,,,,,,,,,,,,,,,,,,,sub-055,1,stroop_test,60.03925365539914,
test,red,r,1.0,5.0,2.0,1.0,r,1.0,0.615963299991563,,,,,,,,,,,,,,,,,,1.0,2.0,5.0,0.0,,,,,,,,,92.93181440001354,,,,,,,,,,,,,,,,,92.91811289999168,93.73086599993984,94.53086249995977,94.51473169995006,94.51512339990586,94.53086249995977,94.53086249995977,95.1486710999161,r,1.0,0.615963299991563,,,,,,,,,,,,,,,,,,,,,,,,,,,,,,,,,,,,,,,sub-055,1,stroop_test,60.03925365539914,
test,yellow,g,1.0,6.0,0.0,2.0,g,1.0,0.5742713999934494,,,,,,,,,,,,,,,,,,2.0,0.0,6.0,1.0,,,,,,,,,95.16386079997756,,,,,,,,,,,,,,,,,95.14891260000876,95.26408799993806,96.06442219996823,96.04766499996184,96.04797569999936,96.06442219996823,96.06442219996823,96.6489939999301,g,1.0,0.5742713999934494,,,,,,,,,,,,,,,,,,,,,,,,,,,,,,,,,,,,,,,sub-055,1,stroop_test,60.03925365539914,
test,red,r,1.0,7.0,1.0,2.0,r,1.0,0.6395292999222875,,,,,,,,,,,,,,,,,,2.0,1.0,7.0,0.0,,,,,,,,,96.66464039997663,,,,,,,,,,,,,,,,,96.64939759997652,97.01519820000976,97.83029069995972,97.81452349992468,97.81491139996795,97.83029069995972,97.83029069995972,98.48168470000384,r,1.0,0.6395292999222875,,,,,,,,,,,,,,,,,,,,,,,,,,,,,,,,,,,,,,,sub-055,1,stroop_test,60.03925365539914,
test,blue,b,1.0,8.0,2.0,2.0,b,1.0,0.6433771000010893,,,,,,,,,,,,,,,,,,2.0,2.0,8.0,2.0,,,,,,,,,98.49696429993492,,,,,,,,,,,,,,,,,98.48196100001223,98.5969524999382,99.3970198999159,99.3815573999891,99.38198049995115,99.3970198999159,99.3970198999159,100.0478917999426,b,1.0,0.6433771000010893,,,,,,,,,,,,,,,,,,,,,,,,,,,,,,,,,,,,,,,sub-055,1,stroop_test,60.03925365539914,
test,blue,b,1.0,9.0,0.0,3.0,b,1.0,0.6332823999691755,,,,,,,,,,,,,,,,,,3.0,0.0,9.0,2.0,,,,,,,,,100.0646602999186,,,,,,,,,,,,,,,,,100.04827119992116,100.84666279994416,101.6464390999172,101.6304296000162,101.63079069997184,101.6464390999172,101.6464390999172,102.28116839996072,b,1.0,0.6332823999691755,,,,,,,,,,,,,,,,,,,,,,,,,,,,,,,,,,,,,,,sub-055,1,stroop_test,60.03925365539914,
test,red,r,1.0,10.0,1.0,3.0,r,1.0,0.6959191999631003,,,,,,,,,,,,,,,,,,3.0,1.0,10.0,0.0,,,,,,,,,102.29631040000822,,,,,,,,,,,,,,,,,102.28139000001828,102.62969699990936,103.4297188000055,103.41336789994966,103.41367319994606,103.4297188000055,103.4297188000055,104.13070219999643,r,1.0,0.6959191999631003,,,,,,,,,,,,,,,,,,,,,,,,,,,,,,,,,,,,,,,sub-055,1,stroop_test,60.03925365539914,
test,yellow,g,1.0,11.0,2.0,3.0,g,1.0,0.7095691999420524,,,,,,,,,,,,,,,,,,3.0,2.0,11.0,1.0,,,,,,,,,104.14580099994782,,,,,,,,,,,,,,,,,104.1309326000046,104.94623759994283,105.74650999996813,105.73082980001344,105.73126839997713,105.74650999996813,105.74650999996813,106.46370369999204,g,1.0,0.7095691999420524,,,,,,,,,,,,,,,,,,,,,,,,,,,,,,,,,,,,,,,sub-055,1,stroop_test,60.03925365539914,
,,,,,,,,,,,,,,,,,,,,,,,,,,,,,,,,,,,,,,,,,,,,,,,,,,,,,,,,,,,,,,,,,,,,106.4638693999732,106.47937790001744,106.47937790001744,137.3776981999399,space,30.88080279994756,,,,,,,,,,,,,,,,,,,,,,,,,,,,,,,,sub-055,1,stroop_test,60.03925365539914,
,,,,0.0,0.0,0.0,,,,,gelb,yellow,g,1.0,g,1.0,0.8247073999373242,,,,,,,,,,,,,,0.0,0.0,0.0,10.0,,,,,137.4464200999355,,,,,,,,,,,,,,,,,137.44230019999668,138.59191269997973,139.39144389994908,139.37567330000456,,,,,,,,,,,,,,,,139.37944059993606,139.39144389994908,139.39144389994908,140.2258651999291,g,1.0,0.8247073999373242,,140.23178829997778,140.241541699972,141.24158059991896,141.22548839997037,,,,,,,,,,,,,,,,,,,sub-055,1,stroop_test,60.03925365539914,
,,,,1.0,1.0,0.0,,,,,gelb,red,r,0.0,r,1.0,0.7363353000255302,,,,,,,,,,,,,,0.0,1.0,1.0,8.0,,,,,141.24158059991896,,,,,,,,,,,,,,,,,141.22576940001454,142.44128529995214,143.24202959996182,143.22622159996536,,,,,,,,,,,,,,,,143.2268291999353,143.24202959996182,143.24202959996182,143.9920319999801,r,1.0,0.7363353000255302,,143.99244529998396,144.00769959995523,145.00775310001336,144.99172079993878,,,,,,,,,,,,,,,,,,,sub-055,1,stroop_test,60.03925365539914,
,,,,2.0,2.0,0.0,,,,,blau,blue,b,1.0,b,1.0,0.650589199969545,,,,,,,,,,,,,,0.0,2.0,2.0,5.0,,,,,145.00775310001336,,,,,,,,,,,,,,,,,144.99197759991512,146.2079442999093,147.00737899995875,146.9913525999291,,,,,,,,,,,,,,,,146.9955820000032,147.00737899995875,147.00737899995875,147.6589937999379,b,1.0,0.650589199969545,,147.65936769999098,147.67434649995994,148.6739739999175,148.6577554999385,,,,,,,,,,,,,,,,,,,sub-055,1,stroop_test,60.03925365539914,
,,,,3.0,3.0,0.0,,,,,blau,blue,b,1.0,b,1.0,0.643580500036478,,,,,,,,,,,,,,0.0,3.0,3.0,6.0,,,,,148.6739739999175,,,,,,,,,,,,,,,,,148.6579665999161,149.0246283999877,149.8404599999776,149.82435829995666,,,,,,,,,,,,,,,,149.82468459999654,149.8404599999776,149.8404599999776,150.49135579995345,b,1.0,0.643580500036478,,150.49166239995975,150.50706909992732,151.5073696000036,151.49191019998398,,,,,,,,,,,,,,,,,,,sub-055,1,stroop_test,60.03925365539914,
,,,,4.0,4.0,0.0,,,,,blau,red,r,0.0,r,1.0,0.5685204999754205,,,,,,,,,,,,,,0.0,4.0,4.0,4.0,,,,,151.5073696000036,,,,,,,,,,,,,,,,,151.4923152999254,152.29023289994802,153.09047599998303,153.07436019997112,,,,,,,,,,,,,,,,153.07464140001684,153.09047599998303,153.09047599998303,153.67472359992098,r,1.0,0.5685204999754205,,153.6751942000119,153.6901565999724,154.69006099994294,154.6739230999956,,,,,,,,,,,,,,,,,,,sub-055,1,stroop_test,60.03925365539914,
,,,,5.0,5.0,0.0,,,,,gelb,yellow,g,1.0,g,1.0,0.760010699974373,,,,,,,,,,,,,,0.0,5.0,5.0,11.0,,,,,154.69006099994294,,,,,,,,,,,,,,,,,154.67412250000052,155.03995439992286,155.84001199994236,155.82381400000304,,,,,,,,,,,,,,,,155.82630939991213,155.84001199994236,155.84001199994236,156.6074619999854,g,1.0,0.760010699974373,,156.60782899998594,156.62283819995355,157.62300899997354,157.60713939997368,,,,,,,,,,,,,,,,,,,sub-055,1,stroop_test,60.03925365539914,
,,,,6.0,6.0,0.0,,,,,rot,yellow,g,0.0,g,1.0,0.7617539000930265,,,,,,,,,,,,,,0.0,6.0,6.0,3.0,,,,,157.62300899997354,,,,,,,,,,,,,,,,,157.6073432000121,158.42275429994334,159.22258399997372,159.20664979994763,,,,,,,,,,,,,,,,159.20986439997796,159.22258399997372,159.22258399997372,159.99012059997767,g,1.0,0.7617539000930265,,159.9904842999531,160.00584829994477,161.00571299996227,160.98960550001357,,,,,,,,,,,,,,,,,,,sub-055,1,stroop_test,60.03925365539914,
,,,,7.0,7.0,0.0,,,,,gelb,blue,b,0.0,b,1.0,0.599233900080435,,,,,,,,,,,,,,0.0,7.0,7.0,9.0,,,,,161.00571299996227,,,,,,,,,,,,,,,,,160.9898322999943,161.33958619995974,162.13916179991793,162.12263639993034,,,,,,,,,,,,,,,,162.1245800999459,162.13916179991793,162.13916179991793,162.740431800019,b,1.0,0.599233900080435,,162.74080399994273,162.75634829991031,163.75542970001698,163.73927149991505,,,,,,,,,,,,,,,,,,,sub-055,1,stroop_test,60.03925365539914,
,,,,8.0,8.0,0.0,,,,,rot,red,r,1.0,r,1.0,0.631789300008677,,,,,,,,,,,,,,0.0,8.0,8.0,1.0,,,,,163.75542970001698,,,,,,,,,,,,,,,,,163.7394959999947,164.10570660000667,164.90522299997974,164.8904945999384,,,,,,,,,,,,,,,,164.8939376999624,164.90522299997974,164.90522299997974,165.54004389990587,r,1.0,0.631789300008677,,165.54046339995693,165.55582529993262,166.55558559997007,166.53876399993896,,,,,,,,,,,,,,,,,,,sub-055,1,stroop_test,60.03925365539914,
,,,,9.0,9.0,0.0,,,,,blau,yellow,g,0.0,g,1.0,0.5494123001117259,,,,,,,,,,,,,,0.0,9.0,9.0,7.0,,,,,166.55558559997007,,,,,,,,,,,,,,,,,166.5389980999753,167.7545496999519,168.55460819997825,168.53861920000054,,,,,,,,,,,,,,,,168.54082729993388,168.55460819997825,168.55460819997825,169.10607559990603,g,1.0,0.5494123001117259,,169.10643309995066,169.12127399991732,170.1214084000094,170.105179999955,,,,,,,,,,,,,,,,,,,sub-055,1,stroop_test,60.03925365539914,
,,,,10.0,10.0,0.0,,,,,rot,red,r,1.0,r,1.0,0.662867300095968,,,,,,,,,,,,,,0.0,10.0,10.0,0.0,,,,,170.1214084000094,,,,,,,,,,,,,,,,,170.1054012000095,170.92117939994205,171.72094069991726,171.70503660000395,,,,,,,,,,,,,,,,171.70710759994108,171.72094069991726,171.72094069991726,172.3884001999395,r,1.0,0.662867300095968,,172.38880389998667,172.40426859993022,173.40450059995055,173.38820479996502,,,,,,,,,,,,,,,,,,,sub-055,1,stroop_test,60.03925365539914,
,,,,11.0,11.0,0.0,,,,,rot,blue,b,0.0,b,1.0,0.6085037000011653,,,,,,,,,,,,,,0.0,11.0,11.0,2.0,,,,,173.40450059995055,,,,,,,,,,,,,,,,,173.3884706000099,173.48815999994986,174.28767709992826,174.27122300001793,,,,,,,,,,,,,,,,174.27156019990798,174.28767709992826,174.28767709992826,174.90508279995993,b,1.0,0.6085037000011653,,174.9056489999639,174.92064049991313,175.92045299999882,175.90440150001086,,,,,,,,,,,,,,,,,,,sub-055,1,stroop_test,60.03925365539914,
,,,,12.0,0.0,1.0,,,,,rot,yellow,g,0.0,g,1.0,0.9166324000107124,,,,,,,,,,,,,,1.0,0.0,12.0,3.0,,,,,175.92045299999882,,,,,,,,,,,,,,,,,175.90463349991478,176.02042269997764,176.8201357999351,176.80492459994275,,,,,,,,,,,,,,,,176.80544769996777,176.8201357999351,176.8201357999351,177.74001489998773,g,1.0,0.9166324000107124,,177.7405368000036,177.75422919995617,178.7532689999789,178.73741930001415,,,,,,,,,,,,,,,,,,,sub-055,1,stroop_test,60.03925365539914,
,,,,13.0,1.0,1.0,,,,,blau,red,r,0.0,r,1.0,0.5826932999771088,,,,,,,,,,,,,,1.0,1.0,13.0,4.0,,,,,178.7532689999789,,,,,,,,,,,,,,,,,178.73764379997738,179.5533464999171,180.35299099993424,180.3372134999372,,,,,,,,,,,,,,,,180.33924729994035,180.35299099993424,180.35299099993424,180.93763820000456,r,1.0,0.5826932999771088,,180.9380246999208,180.9530080999248,181.95298279996496,181.93703149992507,,,,,,,,,,,,,,,,,,,sub-055,1,stroop_test,60.03925365539914,
,,,,14.0,2.0,1.0,,,,,gelb,red,r,0.0,r,1.0,0.6668652000371367,,,,,,,,,,,,,,1.0,2.0,14.0,8.0,,,,,181.95298279996496,,,,,,,,,,,,,,,,,181.9372316999361,182.7538484999677,183.5694016999332,183.55323409999252,,,,,,,,,,,,,,,,183.55536040000152,183.5694016999332,183.5694016999332,184.23734190000687,r,1.0,0.6668652000371367,,184.23772490001284,184.25356280000412,,185.2527172999689,,,,,,,,,,,,,,,,,,,sub-055,1,stroop_test,60.03925365539914,
,,,,15.0,3.0,1.0,,,,,rot,red,r,1.0,r,1.0,0.6283150999806821,,,,,,,,,,,,,,1.0,3.0,15.0,0.0,,,,,185.26909949991384,,,,,,,,,,,,,,,,,185.25299029995224,186.45233879995067,187.25214469991624,187.23627439991105,,,,,,,,,,,,,,,,187.23899230000097,187.25214469991624,187.25214469991624,187.8876050999388,r,1.0,0.6283150999806821,,187.88800269993956,187.90214999997988,188.9019973999821,188.886155199958,,,,,,,,,,,,,,,,,,,sub-055,1,stroop_test,60.03925365539914,
,,,,16.0,4.0,1.0,,,,,rot,blue,b,0.0,b,1.0,0.5457740999991074,,,,,,,,,,,,,,1.0,4.0,16.0,2.0,,,,,188.9019973999821,,,,,,,,,,,,,,,,,188.88639769994188,189.2520646000048,190.05195899994575,190.03573539992797,,,,,,,,,,,,,,,,190.036050900002,190.05195899994575,190.05195899994575,190.6031086000148,b,1.0,0.5457740999991074,,190.6034405999817,190.61942579993047,191.61847240000495,191.6024263999425,,,,,,,,,,,,,,,,,,,sub-055,1,stroop_test,60.03925365539914,
,,,,17.0,5.0,1.0,,,,,gelb,yellow,g,1.0,g,1.0,0.6577104999450967,,,,,,,,,,,,,,1.0,5.0,17.0,10.0,,,,,191.61847240000495,,,,,,,,,,,,,,,,,191.60263629991096,191.7188205999555,192.51832669996656,192.50225879997012,,,,,,,,,,,,,,,,192.5042958999984,192.51832669996656,192.51832669996656,193.1857320999261,g,1.0,0.6577104999450967,,193.18613019993063,193.2014246999752,194.2013057000004,194.1855592000065,,,,,,,,,,,,,,,,,,,sub-055,1,stroop_test,60.03925365539914,
,,,,18.0,6.0,1.0,,,,,blau,blue,b,1.0,b,1.0,0.6022758999606594,,,,,,,,,,,,,,1.0,6.0,18.0,6.0,,,,,194.2013057000004,,,,,,,,,,,,,,,,,194.185835900018,194.30141879990697,195.10134920000564,195.0854645000072,,,,,,,,,,,,,,,,195.0886517999461,195.10134920000564,195.10134920000564,195.71907009999268,b,1.0,0.6022758999606594,,195.7194916999433,195.73443019995463,196.73474300000817,196.71866040001623,,,,,,,,,,,,,,,,,,,sub-055,1,stroop_test,60.03925365539914,
,,,,19.0,7.0,1.0,,,,,blau,yellow,g,0.0,g,1.0,1.065828199964017,,,,,,,,,,,,,,1.0,7.0,19.0,7.0,,,,,196.73474300000817,,,,,,,,,,,,,,,,,196.7189983999124,197.0678022999782,197.868172199931,197.85169309994671,,,,,,,,,,,,,,,,197.85204829997383,197.868172199931,197.868172199931,198.9356916999677,g,1.0,1.065828199964017,,198.9361780999461,198.95167549990583,199.95079689996783,199.9352685000049,,,,,,,,,,,,,,,,,,,sub-055,1,stroop_test,60.03925365539914,
,,,,20.0,8.0,1.0,,,,,blau,blue,b,1.0,b,1.0,0.7204392000567168,,,,,,,,,,,,,,1.0,8.0,20.0,5.0,,,,,199.95079689996783,,,,,,,,,,,,,,,,,199.93553299992345,200.7513482000213,201.55093199992552,201.53466190001927,,,,,,,,,,,,,,,,201.5350780999288,201.55093199992552,201.55093199992552,202.2848472999176,b,1.0,0.7204392000567168,,202.285213099909,202.3003472000128,203.3005705999676,203.28425409994088,,,,,,,,,,,,,,,,,,,sub-055,1,stroop_test,60.03925365539914,
,,,,21.0,9.0,1.0,,,,,gelb,blue,b,0.0,b,1.0,1.543667999911122,,,,,,,,,,,,,,1.0,9.0,21.0,9.0,,,,,203.3005705999676,,,,,,,,,,,,,,,,,203.2844801999163,204.10080969997216,204.90038889995776,204.88467579998544,,,,,,,,,,,,,,,,204.88735610002183,204.90038889995776,204.90038889995776,206.4513156999601,b,1.0,1.543667999911122,,206.45198030001484,206.46745829994325,207.4668190999655,207.4504887999501,,,,,,,,,,,,,,,,,,,sub-055,1,stroop_test,60.03925365539914,
,,,,22.0,10.0,1.0,,,,,gelb,yellow,g,1.0,g,1.0,0.7460313000483438,,,,,,,,,,,,,,1.0,10.0,22.0,11.0,,,,,207.4668190999655,,,,,,,,,,,,,,,,,207.4507113000145,207.5663921999512,208.36609429994127,208.35074939997867,,,,,,,,,,,,,,,,208.3510833999608,208.36609429994127,208.36609429994127,209.1177407000214,g,1.0,0.7460313000483438,,209.1181146999588,209.1328569999896,210.1327288999455,210.1166737999301,,,,,,,,,,,,,,,,,,,sub-055,1,stroop_test,60.03925365539914,
,,,,23.0,11.0,1.0,,,,,rot,red,r,1.0,r,1.0,0.5707942000590265,,,,,,,,,,,,,,1.0,11.0,23.0,1.0,,,,,210.1327288999455,,,,,,,,,,,,,,,,,210.1168785999762,210.48330869991327,211.28284479992,211.2667858999921,,,,,,,,,,,,,,,,211.26891310000792,211.28284479992,211.28284479992,211.86692739999853,r,1.0,0.5707942000590265,,211.8673262000084,211.8825974999927,,212.86870479991197,,,,,,,,,,,,,,,,,,,sub-055,1,stroop_test,60.03925365539914,
,,,,,,,,,,,,,,,,,,,,,,,,,,,,,,,,,,,,,,,,,,,,,,,,,,,,,,,,,,,,,,,,,,,,,,,,,,,,,,,,,,,,,,,212.8690229000058,212.88337669998876,212.88337669998876,248.5457454000134,space,35.648680299986154,,,,,,,,,,,,,sub-055,1,stroop_test,60.03925365539914,
,,,,0.0,0.0,0.0,,,,,,,,,,,,,blau,red,r,0.0,r,1.0,0.5886843999614939,,,,,,,,,,0.0,0.0,0.0,4.0,248.6114423999097,,,,,,,,,,,,,,,,,248.60719819995572,248.66131340002173,249.46116329997312,249.4452362000011,,,,,,,,,,,,,,,,,,,,,,,,,,,,,,,,,,,249.4473194999155,249.46116329997312,249.46116329997312,250.06182169995736,r,1.0,0.5886843999614939,,,,,sub-055,1,stroop_test,60.03925365539914,
,,,,1.0,1.0,0.0,,,,,,,,,,,,,rot,yellow,g,0.0,g,1.0,0.6608257000334561,,,,,,,,,,0.0,1.0,1.0,3.0,250.07763069996145,,,,,,,,,,,,,,,,,250.06209129991475,251.27787069999613,252.07772489998024,252.06190109997988,,,,,,,,,,,,,,,,,,,,,,,,,,,,,,,,,,,252.06402659998275,252.07772489998024,252.07772489998024,252.74570269999091,g,1.0,0.6608257000334561,,,,,sub-055,1,stroop_test,60.03925365539914,
,,,,2.0,2.0,0.0,,,,,,,,,,,,,rot,red,r,1.0,r,1.0,0.7870198999298736,,,,,,,,,,0.0,2.0,2.0,1.0,252.76071990001947,,,,,,,,,,,,,,,,,252.74596560001373,253.56068260001484,254.36053389997687,254.344736799947,,,,,,,,,,,,,,,,,,,,,,,,,,,,,,,,,,,254.3451005999232,254.36053389997687,254.36053389997687,255.1613675999688,r,1.0,0.7870198999298736,,,,,sub-055,1,stroop_test,60.03925365539914,
,,,,3.0,3.0,0.0,,,,,,,,,,,,,blau,blue,b,1.0,b,1.0,0.5876079000299796,,,,,,,,,,0.0,3.0,3.0,5.0,255.1769692999078,,,,,,,,,,,,,,,,,255.1616641000146,255.97715189994776,256.7773801999865,256.76120429998264,,,,,,,,,,,,,,,,,,,,,,,,,,,,,,,,,,,256.7634974999819,256.7773801999865,256.7773801999865,257.3777471999638,b,1.0,0.5876079000299796,,,,,sub-055,1,stroop_test,60.03925365539914,
,,,,4.0,4.0,0.0,,,,,,,,,,,,,rot,blue,b,0.0,b,1.0,0.6824626999441534,,,,,,,,,,0.0,4.0,4.0,2.0,257.3937425999902,,,,,,,,,,,,,,,,,257.37802770000417,258.19365959998686,258.9934859999921,258.9773892000085,,,,,,,,,,,,,,,,,,,,,,,,,,,,,,,,,,,258.9798233999172,258.9934859999921,258.9934859999921,259.6778831999982,b,1.0,0.6824626999441534,,,,,sub-055,1,stroop_test,60.03925365539914,
,,,,5.0,5.0,0.0,,,,,,,,,,,,,gelb,yellow,g,1.0,g,1.0,0.8484313000226393,,,,,,,,,,0.0,5.0,5.0,10.0,259.69345879997127,,,,,,,,,,,,,,,,,259.67811099998653,260.8769349999493,261.6764494999079,261.6602578000165,,,,,,,,,,,,,,,,,,,,,,,,,,,,,,,,,,,261.6622965999413,261.6764494999079,261.6764494999079,262.527138400008,g,1.0,0.8484313000226393,,,,,sub-055,1,stroop_test,60.03925365539914,
,,,,6.0,6.0,0.0,,,,,,,,,,,,,rot,red,r,1.0,r,1.0,0.494914999930188,,,,,,,,,,0.0,6.0,6.0,0.0,262.5429187999107,,,,,,,,,,,,,,,,,262.5273925999645,263.3430708999513,264.1429449999705,264.12683530000504,,,,,,,,,,,,,,,,,,,,,,,,,,,,,,,,,,,264.12911829992663,264.1429449999705,264.1429449999705,264.6442144999746,r,1.0,0.494914999930188,,,,,sub-055,1,stroop_test,60.03925365539914,
,,,,7.0,7.0,0.0,,,,,,,,,,,,,blau,blue,b,1.0,b,1.0,0.5876529000233859,,,,,,,,,,0.0,7.0,7.0,6.0,264.65902289992664,,,,,,,,,,,,,,,,,264.64444910001475,264.7593889000127,265.55901480000466,265.54321959998924,,,,,,,,,,,,,,,,,,,,,,,,,,,,,,,,,,,265.5454633999616,265.55901480000466,265.55901480000466,266.16030330001377,b,1.0,0.5876529000233859,,,,,sub-055,1,stroop_test,60.03925365539914,
,,,,8.0,8.0,0.0,,,,,,,,,,,,,gelb,yellow,g,1.0,g,1.0,1.0057150999782607,,,,,,,,,,0.0,8.0,8.0,11.0,266.1757498999359,,,,,,,,,,,,,,,,,266.1605693999445,267.3757253999356,268.175784299965,268.1595215999987,,,,,,,,,,,,,,,,,,,,,,,,,,,,,,,,,,,268.16173489997163,268.175784299965,268.175784299965,269.1931751999073,g,1.0,1.0057150999782607,,,,,sub-055,1,stroop_test,60.03925365539914,
,,,,9.0,9.0,0.0,,,,,,,,,,,,,gelb,red,r,0.0,r,1.0,1.269272300065495,,,,,,,,,,0.0,9.0,9.0,8.0,269.2088381999638,,,,,,,,,,,,,,,,,269.1933996999869,270.40872900001705,271.20908770000096,271.1923796000192,,,,,,,,,,,,,,,,,,,,,,,,,,,,,,,,,,,271.192781599937,271.20908770000096,271.20908770000096,272.49269059998915,r,1.0,1.269272300065495,,,,,sub-055,1,stroop_test,60.03925365539914,
,,,,10.0,10.0,0.0,,,,,,,,,,,,,gelb,blue,b,0.0,b,1.0,0.7379643999738619,,,,,,,,,,0.0,10.0,10.0,9.0,272.5082703999942,,,,,,,,,,,,,,,,,272.49297459993977,273.3085538999876,274.10821269999724,274.0918369999854,,,,,,,,,,,,,,,,,,,,,,,,,,,,,,,,,,,274.0921546999598,274.10821269999724,274.10821269999724,274.8585823000176,b,1.0,0.7379643999738619,,,,,sub-055,1,stroop_test,60.03925365539914,
,,,,11.0,11.0,0.0,,,,,,,,,,,,,blau,yellow,g,0.0,g,1.0,0.8230270999483764,,,,,,,,,,0.0,11.0,11.0,7.0,274.8743777999189,,,,,,,,,,,,,,,,,274.85882269998547,275.2076196999988,276.00824080000166,275.9915762000019,,,,,,,,,,,,,,,,,,,,,,,,,,,,,,,,,,,275.99388799991,276.00824080000166,276.00824080000166,276.84204609994777,g,1.0,0.8230270999483764,,,,,sub-055,1,stroop_test,60.03925365539914,
,,,,12.0,0.0,1.0,,,,,,,,,,,,,blau,blue,b,1.0,b,1.0,0.6248237999388948,,,,,,,,,,1.0,0.0,12.0,5.0,276.85856089997105,,,,,,,,,,,,,,,,,276.84235269995406,276.9413291999372,277.74074519996066,277.7254675999284,,,,,,,,,,,,,,,,,,,,,,,,,,,,,,,,,,,277.72579129994847,277.74074519996066,277.74074519996066,278.3750090999529,b,1.0,0.6248237999388948,,,,,sub-055,1,stroop_test,60.03925365539914,
,,,,13.0,1.0,1.0,,,,,,,,,,,,,rot,yellow,g,0.0,g,1.0,1.1524007000261918,,,,,,,,,,1.0,1.0,13.0,3.0,278.39065820002,,,,,,,,,,,,,,,,,278.3752790999133,279.17385799996555,279.973727399949,279.95776999997906,,,,,,,,,,,,,,,,,,,,,,,,,,,,,,,,,,,279.960345499916,279.973727399949,279.973727399949,281.14212500001304,g,1.0,1.1524007000261918,,,,,sub-055,1,stroop_test,60.03925365539914,
,,,,14.0,2.0,1.0,,,,,,,,,,,,,gelb,yellow,g,1.0,g,1.0,0.8973571999231353,,,,,,,,,,1.0,2.0,14.0,11.0,281.15749409992713,,,,,,,,,,,,,,,,,281.1423856000183,281.50709829991683,282.3070382999722,282.29082529991865,,,,,,,,,,,,,,,,,,,,,,,,,,,,,,,,,,,282.2927759999875,282.3070382999722,282.3070382999722,283.20831779995933,g,1.0,0.8973571999231353,,,,,sub-055,1,stroop_test,60.03925365539914,
,,,,15.0,3.0,1.0,,,,,,,,,,,,,rot,blue,b,0.0,b,1.0,1.4849128000205385,,,,,,,,,,1.0,3.0,15.0,2.0,283.22316970000975,,,,,,,,,,,,,,,,,283.2085630999645,283.55725369998254,284.35646649997216,284.3408138999948,,,,,,,,,,,,,,,,,,,,,,,,,,,,,,,,,,,284.3429219999816,284.35646649997216,284.35646649997216,285.85738890001085,b,1.0,1.4849128000205385,,,,,sub-055,1,stroop_test,60.03925365539914,
,,,,16.0,4.0,1.0,,,,,,,,,,,,,rot,red,r,1.0,r,1.0,0.6829299000091851,,,,,,,,,,1.0,4.0,16.0,0.0,285.87352589995135,,,,,,,,,,,,,,,,,285.8576644000132,286.2064646999352,287.0062229000032,286.9900955000194,,,,,,,,,,,,,,,,,,,,,,,,,,,,,,,,,,,286.99051989999134,287.0062229000032,287.0062229000032,287.6910310999956,r,1.0,0.6829299000091851,,,,,sub-055,1,stroop_test,60.03925365539914,
,,,,17.0,5.0,1.0,,,,,,,,,,,,,blau,red,r,0.0,r,1.0,0.6526973999571055,,,,,,,,,,1.0,5.0,17.0,4.0,287.7066149999155,,,,,,,,,,,,,,,,,287.691289999988,288.90642090002075,289.7057735999115,289.6898188999621,,,,,,,,,,,,,,,,,,,,,,,,,,,,,,,,,,,289.6919714999385,289.7057735999115,289.7057735999115,290.37335949996486,r,1.0,0.6526973999571055,,,,,sub-055,1,stroop_test,60.03925365539914,
,,,,18.0,6.0,1.0,,,,,,,,,,,,,blau,blue,b,1.0,b,1.0,0.7393722999840975,,,,,,,,,,1.0,6.0,18.0,6.0,290.3891266999999,,,,,,,,,,,,,,,,,290.3736388999969,290.72237719991244,291.52249200001825,291.5064071000088,,,,,,,,,,,,,,,,,,,,,,,,,,,,,,,,,,,291.50674360000994,291.52249200001825,291.52249200001825,292.2733127999818,b,1.0,0.7393722999840975,,,,,sub-055,1,stroop_test,60.03925365539914,
,,,,19.0,7.0,1.0,,,,,,,,,,,,,blau,yellow,g,0.0,g,1.0,0.6366463000886142,,,,,,,,,,1.0,7.0,19.0,7.0,292.29026439995505,,,,,,,,,,,,,,,,,292.273558099987,293.08924619993195,293.88972289999947,293.87324099999387,,,,,,,,,,,,,,,,,,,,,,,,,,,,,,,,,,,293.8735780999996,293.88972289999947,293.88972289999947,294.53980749996845,g,1.0,0.6366463000886142,,,,,sub-055,1,stroop_test,60.03925365539914,
,,,,20.0,8.0,1.0,,,,,,,,,,,,,gelb,red,r,0.0,r,1.0,0.5012017999542877,,,,,,,,,,1.0,8.0,20.0,8.0,294.55578439997043,,,,,,,,,,,,,,,,,294.54013919993304,295.7550218999386,296.55538829998113,296.5393502999796,,,,,,,,,,,,,,,,,,,,,,,,,,,,,,,,,,,296.54146749991924,296.55538829998113,296.55538829998113,297.07296899997164,r,1.0,0.5012017999542877,,,,,sub-055,1,stroop_test,60.03925365539914,
,,,,21.0,9.0,1.0,,,,,,,,,,,,,gelb,yellow,g,1.0,g,1.0,0.8744428999489173,,,,,,,,,,1.0,9.0,21.0,10.0,297.0889106999384,,,,,,,,,,,,,,,,,297.07318920001853,297.1717589999316,297.9718334999634,297.95572169998195,,,,,,,,,,,,,,,,,,,,,,,,,,,,,,,,,,,297.9560452000005,297.9718334999634,297.9718334999634,298.85584460000973,g,1.0,0.8744428999489173,,,,,sub-055,1,stroop_test,60.03925365539914,
,,,,22.0,10.0,1.0,,,,,,,,,,,,,gelb,blue,b,0.0,b,1.0,0.4754073000513017,,,,,,,,,,1.0,10.0,22.0,9.0,298.8716183999786,,,,,,,,,,,,,,,,,298.85609759995714,300.0716237999732,300.87152199994307,300.855558799929,,,,,,,,,,,,,,,,,,,,,,,,,,,,,,,,,,,300.8558818999445,300.87152199994307,300.87152199994307,301.3557219000068,b,1.0,0.4754073000513017,,,,,sub-055,1,stroop_test,60.03925365539914,
,,,,23.0,11.0,1.0,,,,,,,,,,,,,rot,red,r,1.0,r,1.0,0.7610973999835551,,,,,,,,,,1.0,11.0,23.0,1.0,301.3712862000102,,,,,,,,,,,,,,,,,301.35595649993047,302.15461129997857,302.9543717999477,302.9383170999354,,,,,,,,,,,,,,,,,,,,,,,,,,,,,,,,,,,302.94084689999,302.9543717999477,302.9543717999477,303.7217036999064,r,1.0,0.7610973999835551,,,,,sub-055,1,stroop_test,60.03925365539914,
,,,,24.0,0.0,2.0,,,,,,,,,,,,,gelb,red,r,0.0,r,1.0,0.5545422000577673,,,,,,,,,,2.0,0.0,24.0,8.0,303.7373551999917,,,,,,,,,,,,,,,,,303.7219910999993,304.52077219996136,305.3209825999802,305.3045448999619,,,,,,,,,,,,,,,,,,,,,,,,,,,,,,,,,,,305.3067256999202,305.3209825999802,305.3209825999802,305.8882065999788,r,1.0,0.5545422000577673,,,,,sub-055,1,stroop_test,60.03925365539914,
,,,,25.0,1.0,2.0,,,,,,,,,,,,,blau,blue,b,1.0,b,1.0,1.154322599992156,,,,,,,,,,2.0,1.0,25.0,5.0,305.90397689992096,,,,,,,,,,,,,,,,,305.8884690999985,305.9872936999891,306.78697239991743,306.7719420000212,,,,,,,,,,,,,,,,,,,,,,,,,,,,,,,,,,,306.7743318999419,306.78697239991743,306.78697239991743,307.9545528999297,b,1.0,1.154322599992156,,,,,sub-055,1,stroop_test,60.03925365539914,
,,,,26.0,2.0,2.0,,,,,,,,,,,,,gelb,yellow,g,1.0,g,1.0,0.7805614999961108,,,,,,,,,,2.0,2.0,26.0,10.0,307.97018990002107,,,,,,,,,,,,,,,,,307.95480239996687,308.0534978999058,308.8535323999822,308.8377022999339,,,,,,,,,,,,,,,,,,,,,,,,,,,,,,,,,,,308.8411987000145,308.8535323999822,308.8535323999822,309.63838479993865,g,1.0,0.7805614999961108,,,,,sub-055,1,stroop_test,60.03925365539914,
,,,,27.0,3.0,2.0,,,,,,,,,,,,,blau,blue,b,1.0,b,1.0,0.7945845000213012,,,,,,,,,,2.0,3.0,27.0,6.0,309.65370449994225,,,,,,,,,,,,,,,,,309.63864119991194,309.75332139991224,310.55393059994094,310.5375803000061,,,,,,,,,,,,,,,,,,,,,,,,,,,,,,,,,,,310.53956840001047,310.55393059994094,310.55393059994094,311.3540380999912,b,1.0,0.7945845000213012,,,,,sub-055,1,stroop_test,60.03925365539914,
,,,,28.0,4.0,2.0,,,,,,,,,,,,,rot,yellow,g,0.0,g,1.0,1.8963890000013637,,,,,,,,,,2.0,4.0,28.0,3.0,311.37057949998416,,,,,,,,,,,,,,,,,311.354302899912,311.70387490000576,312.5030826999573,312.4871060999576,,,,,,,,,,,,,,,,,,,,,,,,,,,,,,,,,,,312.4892340999795,312.5030826999573,312.5030826999573,314.4043216999853,g,1.0,1.8963890000013637,,,,,sub-055,1,stroop_test,60.03925365539914,
,,,,29.0,5.0,2.0,,,,,,,,,,,,,rot,red,r,1.0,r,1.0,0.8967675999738276,,,,,,,,,,2.0,5.0,29.0,1.0,314.4194944999181,,,,,,,,,,,,,,,,,314.4046003000112,315.21965539990924,316.0197047999827,316.0032360999612,,,,,,,,,,,,,,,,,,,,,,,,,,,,,,,,,,,316.00355679995846,316.0197047999827,316.0197047999827,316.92053929995745,r,1.0,0.8967675999738276,,,,,sub-055,1,stroop_test,60.03925365539914,
,,,,30.0,6.0,2.0,,,,,,,,,,,,,gelb,yellow,g,1.0,g,1.0,0.9471290999790654,,,,,,,,,,2.0,6.0,30.0,11.0,316.9356746999547,,,,,,,,,,,,,,,,,316.9207794999238,318.13587949995417,318.9358195000096,318.91972669994,,,,,,,,,,,,,,,,,,,,,,,,,,,,,,,,,,,318.9220611000201,318.9358195000096,318.9358195000096,319.88665939995553,g,1.0,0.9471290999790654,,,,,sub-055,1,stroop_test,60.03925365539914,
,,,,31.0,7.0,2.0,,,,,,,,,,,,,rot,red,r,1.0,r,1.0,0.7612044000998139,,,,,,,,,,2.0,7.0,31.0,0.0,319.9022147000069,,,,,,,,,,,,,,,,,319.88689269998576,320.00225129991304,320.8021302999696,320.7864199000178,,,,,,,,,,,,,,,,,,,,,,,,,,,,,,,,,,,320.78933970001526,320.8021302999696,320.8021302999696,321.569418399944,r,1.0,0.7612044000998139,,,,,sub-055,1,stroop_test,60.03925365539914,
,,,,32.0,8.0,2.0,,,,,,,,,,,,,gelb,blue,b,0.0,b,1.0,0.6920246999943629,,,,,,,,,,2.0,8.0,32.0,9.0,321.5856922999956,,,,,,,,,,,,,,,,,321.5696754999226,322.3685553999385,323.1683494999306,323.1524083999684,,,,,,,,,,,,,,,,,,,,,,,,,,,,,,,,,,,323.1544565999648,323.1683494999306,323.1683494999306,323.86928440001793,b,1.0,0.6920246999943629,,,,,sub-055,1,stroop_test,60.03925365539914,
,,,,33.0,9.0,2.0,,,,,,,,,,,,,blau,red,r,0.0,r,1.0,0.7397674000822008,,,,,,,,,,2.0,9.0,33.0,4.0,323.884855399956,,,,,,,,,,,,,,,,,323.8695545999799,324.2353043999756,325.0348482999252,325.01864449994173,,,,,,,,,,,,,,,,,,,,,,,,,,,,,,,,,,,325.02061619993765,325.0348482999252,325.0348482999252,325.7857243999606,r,1.0,0.7397674000822008,,,,,sub-055,1,stroop_test,60.03925365539914,
,,,,34.0,10.0,2.0,,,,,,,,,,,,,blau,yellow,g,0.0,g,1.0,0.5644733000081033,,,,,,,,,,2.0,10.0,34.0,7.0,325.8015671999892,,,,,,,,,,,,,,,,,325.78595629998017,327.0016030999832,327.80122199992184,327.7853596999776,,,,,,,,,,,,,,,,,,,,,,,,,,,,,,,,,,,327.78573220002,327.80122199992184,327.80122199992184,328.36907269991934,g,1.0,0.5644733000081033,,,,,sub-055,1,stroop_test,60.03925365539914,
,,,,35.0,11.0,2.0,,,,,,,,,,,,,rot,blue,b,0.0,b,1.0,0.7522923999931663,,,,,,,,,,2.0,11.0,35.0,2.0,328.3847497999668,,,,,,,,,,,,,,,,,328.3693043999374,328.4847097999882,329.2846273999894,329.2686910999473,,,,,,,,,,,,,,,,,,,,,,,,,,,,,,,,,,,329.2705798000097,329.2846273999894,329.2846273999894,330.05207289999817,b,1.0,0.7522923999931663,,,,,sub-055,1,stroop_test,60.03925365539914,
,,,,36.0,0.0,3.0,,,,,,,,,,,,,gelb,blue,b,0.0,b,1.0,0.917055599973537,,,,,,,,,,3.0,0.0,36.0,9.0,330.0679057999514,,,,,,,,,,,,,,,,,330.05228479998186,330.8507963999873,331.6511080999626,331.6348608999979,,,,,,,,,,,,,,,,,,,,,,,,,,,,,,,,,,,331.6370071999263,331.6511080999626,331.6511080999626,332.5854559999425,b,1.0,0.917055599973537,,,,,sub-055,1,stroop_test,60.03925365539914,
,,,,37.0,1.0,3.0,,,,,,,,,,,,,rot,blue,b,0.0,b,1.0,0.5184740000404418,,,,,,,,,,3.0,1.0,37.0,2.0,332.6009808999952,,,,,,,,,,,,,,,,,332.5856694999384,332.9509398000082,333.7512540000025,333.7360246999888,,,,,,,,,,,,,,,,,,,,,,,,,,,,,,,,,,,333.7407818000065,333.7512540000025,333.7512540000025,334.28558719996363,b,1.0,0.5184740000404418,,,,,sub-055,1,stroop_test,60.03925365539914,
,,,,38.0,2.0,3.0,,,,,,,,,,,,,gelb,yellow,g,1.0,g,1.0,0.8969803999643773,,,,,,,,,,3.0,2.0,38.0,11.0,334.3010194000089,,,,,,,,,,,,,,,,,334.28586419997737,335.5002832999453,336.3001827999251,336.2845567999175,,,,,,,,,,,,,,,,,,,,,,,,,,,,,,,,,,,336.28651649993844,336.3001827999251,336.3001827999251,337.2020137999207,g,1.0,0.8969803999643773,,,,,sub-055,1,stroop_test,60.03925365539914,
,,,,39.0,3.0,3.0,,,,,,,,,,,,,rot,yellow,g,0.0,g,1.0,1.347498599905521,,,,,,,,,,3.0,3.0,39.0,3.0,337.217054800014,,,,,,,,,,,,,,,,,337.202245399938,338.41708629997447,339.2166889999062,339.20039989997167,,,,,,,,,,,,,,,,,,,,,,,,,,,,,,,,,,,339.2024916999508,339.2166889999062,339.2166889999062,340.56756130000576,g,1.0,1.347498599905521,,,,,sub-055,1,stroop_test,60.03925365539914,
,,,,40.0,4.0,3.0,,,,,,,,,,,,,blau,blue,b,1.0,b,1.0,1.2218004000606015,,,,,,,,,,3.0,4.0,40.0,6.0,340.5829905999126,,,,,,,,,,,,,,,,,340.56779599993024,340.93325210001785,341.73274719994515,341.7167187000159,,,,,,,,,,,,,,,,,,,,,,,,,,,,,,,,,,,341.71875659993384,341.73274719994515,341.73274719994515,342.96721249993425,b,1.0,1.2218004000606015,,,,,sub-055,1,stroop_test,60.03925365539914,
,,,,41.0,5.0,3.0,,,,,,,,,,,,,blau,blue,b,1.0,b,1.0,0.5329745999770239,,,,,,,,,,3.0,5.0,41.0,5.0,342.982353999978,,,,,,,,,,,,,,,,,342.9674599999562,343.3326844999101,344.1327027999796,344.1168816999998,,,,,,,,,,,,,,,,,,,,,,,,,,,,,,,,,,,344.11718139995355,344.1327027999796,344.1327027999796,344.666884199949,b,1.0,0.5329745999770239,,,,,sub-055,1,stroop_test,60.03925365539914,
,,,,42.0,6.0,3.0,,,,,,,,,,,,,gelb,red,r,0.0,r,1.0,0.9503616000292824,,,,,,,,,,3.0,6.0,42.0,8.0,344.6828567999182,,,,,,,,,,,,,,,,,344.6671254999237,345.0160031999694,345.8156589999562,345.79972389992326,,,,,,,,,,,,,,,,,,,,,,,,,,,,,,,,,,,345.8014688999392,345.8156589999562,345.8156589999562,346.767076899996,r,1.0,0.9503616000292824,,,,,sub-055,1,stroop_test,60.03925365539914,
,,,,43.0,7.0,3.0,,,,,,,,,,,,,blau,red,r,0.0,r,1.0,0.5599048999138176,,,,,,,,,,3.0,7.0,43.0,4.0,346.7819725999143,,,,,,,,,,,,,,,,,346.7673238000134,347.98188899992965,348.78347649995703,348.7658277999144,,,,,,,,,,,,,,,,,,,,,,,,,,,,,,,,,,,348.7678549999837,348.78347649995703,348.78347649995703,349.349510799977,r,1.0,0.5599048999138176,,,,,sub-055,1,stroop_test,60.03925365539914,
,,,,44.0,8.0,3.0,,,,,,,,,,,,,rot,red,r,1.0,r,1.0,0.718185400008224,,,,,,,,,,3.0,8.0,44.0,0.0,349.36537010001484,,,,,,,,,,,,,,,,,349.3498413999332,350.1652139999205,350.9653075999813,350.9490443000104,,,,,,,,,,,,,,,,,,,,,,,,,,,,,,,,,,,350.9513822000008,350.9653075999813,350.9653075999813,351.6995381999295,r,1.0,0.718185400008224,,,,,sub-055,1,stroop_test,60.03925365539914,
,,,,45.0,9.0,3.0,,,,,,,,,,,,,rot,red,r,1.0,r,1.0,0.6440107000526041,,,,,,,,,,3.0,9.0,45.0,1.0,351.7148568999255,,,,,,,,,,,,,,,,,351.6997822999256,352.9147418999346,353.71446149994154,353.6981684999773,,,,,,,,,,,,,,,,,,,,,,,,,,,,,,,,,,,353.6984980999259,353.71446149994154,353.71446149994154,354.36543469992466,r,1.0,0.6440107000526041,,,,,sub-055,1,stroop_test,60.03925365539914,
,,,,46.0,10.0,3.0,,,,,,,,,,,,,blau,yellow,g,0.0,g,1.0,1.0359808000503108,,,,,,,,,,3.0,10.0,46.0,7.0,354.38118549995124,,,,,,,,,,,,,,,,,354.3657072000205,354.4811015999876,355.2810431999387,355.2647005999461,,,,,,,,,,,,,,,,,,,,,,,,,,,,,,,,,,,355.2670544999419,355.2810431999387,355.2810431999387,356.3317633999977,g,1.0,1.0359808000503108,,,,,sub-055,1,stroop_test,60.03925365539914,
,,,,47.0,11.0,3.0,,,,,,,,,,,,,gelb,yellow,g,1.0,g,1.0,0.4967763999011367,,,,,,,,,,3.0,11.0,47.0,10.0,356.3473271999974,,,,,,,,,,,,,,,,,356.33204100001603,356.44744189991616,357.2474194999086,357.2321573999943,,,,,,,,,,,,,,,,,,,,,,,,,,,,,,,,,,,357.23433499992825,357.2474194999086,357.2474194999086,357.74876519991085,g,1.0,0.4967763999011367,,,,,sub-055,1,stroop_test,60.03925365539914,
,,,,48.0,0.0,4.0,,,,,,,,,,,,,blau,yellow,g,0.0,g,1.0,0.7511882999679074,,,,,,,,,,4.0,0.0,48.0,7.0,357.7639489999274,,,,,,,,,,,,,,,,,357.7489878999768,358.5638081999496,359.36394939990714,359.3479009999428,,,,,,,,,,,,,,,,,,,,,,,,,,,,,,,,,,,359.3500687999185,359.36394939990714,359.36394939990714,360.1314676000038,g,1.0,0.7511882999679074,,,,,sub-055,1,stroop_test,60.03925365539914,
,,,,49.0,1.0,4.0,,,,,,,,,,,,,gelb,yellow,g,1.0,g,1.0,0.7834614999592304,,,,,,,,,,4.0,1.0,49.0,11.0,360.14728499995545,,,,,,,,,,,,,,,,,360.1316813000012,360.93031530000735,361.7306811999297,361.71421130001545,,,,,,,,,,,,,,,,,,,,,,,,,,,,,,,,,,,361.716277099913,361.7306811999297,361.7306811999297,362.5151926999679,g,1.0,0.7834614999592304,,,,,sub-055,1,stroop_test,60.03925365539914,
,,,,50.0,2.0,4.0,,,,,,,,,,,,,rot,yellow,g,0.0,g,1.0,0.536466799909249,,,,,,,,,,4.0,2.0,50.0,3.0,362.5305275999708,,,,,,,,,,,,,,,,,362.5154500999488,363.7298625999829,364.5302706999937,364.5136674999958,,,,,,,,,,,,,,,,,,,,,,,,,,,,,,,,,,,364.5161064999411,364.5302706999937,364.5302706999937,365.0807533999905,g,1.0,0.536466799909249,,,,,sub-055,1,stroop_test,60.03925365539914,
,,,,51.0,3.0,4.0,,,,,,,,,,,,,gelb,yellow,g,1.0,g,1.0,0.7710996000096202,,,,,,,,,,4.0,3.0,51.0,10.0,365.0965209999122,,,,,,,,,,,,,,,,,365.0810536999488,365.18023870000616,365.97953949996736,365.9637035999913,,,,,,,,,,,,,,,,,,,,,,,,,,,,,,,,,,,365.9657103000209,365.97953949996736,365.97953949996736,366.76425639993977,g,1.0,0.7710996000096202,,,,,sub-055,1,stroop_test,60.03925365539914,
,,,,52.0,4.0,4.0,,,,,,,,,,,,,rot,blue,b,0.0,b,1.0,0.9034360999939964,,,,,,,,,,4.0,4.0,52.0,2.0,366.7795056999894,,,,,,,,,,,,,,,,,366.7645044999663,367.5792457999196,368.37951769994106,368.3636073999805,,,,,,,,,,,,,,,,,,,,,,,,,,,,,,,,,,,368.36616149998736,368.37951769994106,368.37951769994106,369.2973430999554,b,1.0,0.9034360999939964,,,,,sub-055,1,stroop_test,60.03925365539914,
,,,,53.0,5.0,4.0,,,,,,,,,,,,,blau,red,r,0.0,r,1.0,0.7499308000551537,,,,,,,,,,4.0,5.0,53.0,4.0,369.31243539997377,,,,,,,,,,,,,,,,,369.2975822999142,370.1131929999683,370.9122104999842,370.8968045999063,,,,,,,,,,,,,,,,,,,,,,,,,,,,,,,,,,,370.89888320001774,370.9122104999842,370.9122104999842,371.6635522999568,r,1.0,0.7499308000551537,,,,,sub-055,1,stroop_test,60.03925365539914,
,,,,54.0,6.0,4.0,,,,,,,,,,,,,rot,red,r,1.0,r,1.0,0.5984950999263674,,,,,,,,,,4.0,6.0,54.0,0.0,371.6793637999799,,,,,,,,,,,,,,,,,371.66380959993694,371.7789593000198,372.5789733999409,372.5629849999677,,,,,,,,,,,,,,,,,,,,,,,,,,,,,,,,,,,372.5652087000199,372.5789733999409,372.5789733999409,373.18038249993697,r,1.0,0.5984950999263674,,,,,sub-055,1,stroop_test,60.03925365539914,
,,,,55.0,7.0,4.0,,,,,,,,,,,,,rot,red,r,1.0,r,1.0,0.8238396999659017,,,,,,,,,,4.0,7.0,55.0,1.0,373.1954128999496,,,,,,,,,,,,,,,,,373.18082649994176,373.5452864000108,374.3450725999428,374.3296166999498,,,,,,,,,,,,,,,,,,,,,,,,,,,,,,,,,,,374.33003399998415,374.3450725999428,374.3450725999428,375.17944929993246,r,1.0,0.8238396999659017,,,,,sub-055,1,stroop_test,60.03925365539914,
,,,,56.0,8.0,4.0,,,,,,,,,,,,,blau,blue,b,1.0,b,1.0,0.7262679999694228,,,,,,,,,,4.0,8.0,56.0,5.0,375.1952125999378,,,,,,,,,,,,,,,,,375.1796929999255,376.3947780999588,377.19505340000615,377.1788642000174,,,,,,,,,,,,,,,,,,,,,,,,,,,,,,,,,,,377.1812002999941,377.19505340000615,377.19505340000615,377.9292154000141,b,1.0,0.7262679999694228,,,,,sub-055,1,stroop_test,60.03925365539914,
,,,,57.0,9.0,4.0,,,,,,,,,,,,,blau,blue,b,1.0,b,1.0,0.6408793999580666,,,,,,,,,,4.0,9.0,57.0,6.0,377.94498919998296,,,,,,,,,,,,,,,,,377.9294645999325,378.2945214000065,379.0952070999192,379.0793988999212,,,,,,,,,,,,,,,,,,,,,,,,,,,,,,,,,,,379.07996979996096,379.0952070999192,379.0952070999192,379.7454444000032,b,1.0,0.6408793999580666,,,,,sub-055,1,stroop_test,60.03925365539914,
,,,,58.0,10.0,4.0,,,,,,,,,,,,,gelb,blue,b,0.0,b,1.0,0.6866883999900892,,,,,,,,,,4.0,10.0,58.0,9.0,379.7610425999155,,,,,,,,,,,,,,,,,379.7457042000024,379.8445190999191,380.6445769999409,380.6286137999268,,,,,,,,,,,,,,,,,,,,,,,,,,,,,,,,,,,380.63063849997707,380.6445769999409,380.6445769999409,381.3451390999835,b,1.0,0.6866883999900892,,,,,sub-055,1,stroop_test,60.03925365539914,
,,,,59.0,11.0,4.0,,,,,,,,,,,,,gelb,red,r,0.0,r,1.0,0.8984799000900239,,,,,,,,,,4.0,11.0,59.0,8.0,381.3609356000088,,,,,,,,,,,,,,,,,381.3453871000093,382.14475470001344,382.9441925999709,382.9288015000057,,,,,,,,,,,,,,,,,,,,,,,,,,,,,,,,,,,382.92928079993,382.9441925999709,382.9441925999709,383.8451438000193,r,1.0,0.8984799000900239,,,,,sub-055,1,stroop_test,60.03925365539914,
,,,,60.0,0.0,5.0,,,,,,,,,,,,,gelb,blue,b,0.0,b,1.0,0.9151430999627336,,,,,,,,,,5.0,0.0,60.0,9.0,383.8607781999745,,,,,,,,,,,,,,,,,383.8453759999247,383.9608767000027,384.7606623999309,384.7448475999991,,,,,,,,,,,,,,,,,,,,,,,,,,,,,,,,,,,384.74530760000926,384.7606623999309,384.7606623999309,385.67835159995593,b,1.0,0.9151430999627336,,,,,sub-055,1,stroop_test,60.03925365539914,
,,,,61.0,1.0,5.0,,,,,,,,,,,,,blau,red,r,0.0,r,1.0,1.1506995999952778,,,,,,,,,,5.0,1.0,61.0,4.0,385.6936802999117,,,,,,,,,,,,,,,,,385.6786170999985,386.8944678999251,387.6938365999376,387.6776977999834,,,,,,,,,,,,,,,,,,,,,,,,,,,,,,,,,,,387.6802783999592,387.6938365999376,387.6938365999376,388.861282799975,r,1.0,1.1506995999952778,,,,,sub-055,1,stroop_test,60.03925365539914,
,,,,62.0,2.0,5.0,,,,,,,,,,,,,blau,blue,b,1.0,b,1.0,0.6846856001066044,,,,,,,,,,5.0,2.0,62.0,6.0,388.8775105999084,,,,,,,,,,,,,,,,,388.8615312000038,390.076535900007,390.8769136000192,390.860449199914,,,,,,,,,,,,,,,,,,,,,,,,,,,,,,,,,,,390.8607767999638,390.8769136000192,390.8769136000192,391.5776573999319,b,1.0,0.6846856001066044,,,,,sub-055,1,stroop_test,60.03925365539914,
,,,,63.0,3.0,5.0,,,,,,,,,,,,,rot,yellow,g,0.0,g,1.0,1.1139846000587568,,,,,,,,,,5.0,3.0,63.0,3.0,391.5933833000017,,,,,,,,,,,,,,,,,391.5778928999789,392.7930171999615,393.597496500006,393.58037239999976,,,,,,,,,,,,,,,,,,,,,,,,,,,,,,,,,,,393.5889813000104,393.597496500006,393.597496500006,394.7269236999564,g,1.0,1.1139846000587568,,,,,sub-055,1,stroop_test,60.03925365539914,
,,,,64.0,4.0,5.0,,,,,,,,,,,,,gelb,yellow,g,1.0,g,1.0,0.5633636999409646,,,,,,,,,,5.0,4.0,64.0,11.0,394.7425776999444,,,,,,,,,,,,,,,,,394.727226799936,394.82629799994174,395.625918900012,395.6104039999191,,,,,,,,,,,,,,,,,,,,,,,,,,,,,,,,,,,395.61210859997664,395.625918900012,395.625918900012,396.1937593999319,g,1.0,0.5633636999409646,,,,,sub-055,1,stroop_test,60.03925365539914,
,,,,65.0,5.0,5.0,,,,,,,,,,,,,blau,yellow,g,0.0,g,1.0,0.4339326000772416,,,,,,,,,,5.0,5.0,65.0,7.0,396.2092629999388,,,,,,,,,,,,,,,,,396.19401019997895,397.0091272999998,397.8095820000162,397.7936455999734,,,,,,,,,,,,,,,,,,,,,,,,,,,,,,,,,,,397.79557189997286,397.8095820000162,397.8095820000162,398.2602485999232,g,1.0,0.4339326000772416,,,,,sub-055,1,stroop_test,60.03925365539914,
,,,,66.0,6.0,5.0,,,,,,,,,,,,,blau,blue,b,1.0,b,1.0,0.6697058000136167,,,,,,,,,,5.0,6.0,66.0,5.0,398.2758148999419,,,,,,,,,,,,,,,,,398.2604912999086,399.4758094999706,400.2754128999077,400.2598240999505,,,,,,,,,,,,,,,,,,,,,,,,,,,,,,,,,,,400.26011349994224,400.2754128999077,400.2754128999077,400.9598143999465,b,1.0,0.6697058000136167,,,,,sub-055,1,stroop_test,60.03925365539914,
,,,,67.0,7.0,5.0,,,,,,,,,,,,,gelb,red,r,0.0,r,1.0,0.6506689001107588,,,,,,,,,,5.0,7.0,67.0,8.0,400.9754715999589,,,,,,,,,,,,,,,,,400.96006979991216,401.3086008999962,402.1093114999821,402.0930958999088,,,,,,,,,,,,,,,,,,,,,,,,,,,,,,,,,,,402.0948639999842,402.1093114999821,402.1093114999821,402.7761185999261,r,1.0,0.6506689001107588,,,,,sub-055,1,stroop_test,60.03925365539914,
,,,,68.0,8.0,5.0,,,,,,,,,,,,,gelb,yellow,g,1.0,g,1.0,0.8361060000024736,,,,,,,,,,5.0,8.0,68.0,10.0,402.7915508999722,,,,,,,,,,,,,,,,,402.7763659999473,403.5916266000131,404.3914274999406,404.3754076999612,,,,,,,,,,,,,,,,,,,,,,,,,,,,,,,,,,,404.3756917999126,404.3914274999406,404.3914274999406,405.2430137000047,g,1.0,0.8361060000024736,,,,,sub-055,1,stroop_test,60.03925365539914,
,,,,69.0,9.0,5.0,,,,,,,,,,,,,rot,blue,b,0.0,b,1.0,0.7703332999954,,,,,,,,,,5.0,9.0,69.0,2.0,405.25773449998815,,,,,,,,,,,,,,,,,405.24330889992416,406.457982199965,407.2584855000023,407.2417814999353,,,,,,,,,,,,,,,,,,,,,,,,,,,,,,,,,,,407.2437136999797,407.2584855000023,407.2584855000023,408.0421376000159,b,1.0,0.7703332999954,,,,,sub-055,1,stroop_test,60.03925365539914,
,,,,70.0,10.0,5.0,,,,,,,,,,,,,rot,red,r,1.0,r,1.0,1.802021500072442,,,,,,,,,,5.0,10.0,70.0,1.0,408.0582720999373,,,,,,,,,,,,,,,,,408.0423742999556,408.85751379991416,409.6573111999314,409.641566199949,,,,,,,,,,,,,,,,,,,,,,,,,,,,,,,,,,,409.6418921999866,409.6573111999314,409.6573111999314,411.47486750001553,r,1.0,1.802021500072442,,,,,sub-055,1,stroop_test,60.03925365539914,
,,,,71.0,11.0,5.0,,,,,,,,,,,,,rot,red,r,1.0,r,1.0,0.6582040999783203,,,,,,,,,,5.0,11.0,71.0,0.0,411.49072429991793,,,,,,,,,,,,,,,,,411.4751020999393,411.5741563999327,412.3742280999432,412.35764009994455,,,,,,,,,,,,,,,,,,,,,,,,,,,,,,,,,,,412.358299799962,412.3742280999432,412.3742280999432,413.0416176000144,r,1.0,0.6582040999783203,,,,,sub-055,1,stroop_test,60.03925365539914,
,,,,72.0,0.0,6.0,,,,,,,,,,,,,blau,yellow,g,0.0,g,1.0,0.8320339000783861,,,,,,,,,,6.0,0.0,72.0,7.0,413.0576619999483,,,,,,,,,,,,,,,,,413.0418299000012,413.85713269992266,414.6572503999341,414.6409461000003,,,,,,,,,,,,,,,,,,,,,,,,,,,,,,,,,,,414.6430659999605,414.6572503999341,414.6572503999341,415.4913706999505,g,1.0,0.8320339000783861,,,,,sub-055,1,stroop_test,60.03925365539914,
,,,,73.0,1.0,6.0,,,,,,,,,,,,,blau,blue,b,1.0,b,1.0,0.5728945999871939,,,,,,,,,,6.0,1.0,73.0,6.0,415.5067990999669,,,,,,,,,,,,,,,,,415.4915959999198,415.8570179999806,416.6565409000032,416.64063909999095,,,,,,,,,,,,,,,,,,,,,,,,,,,,,,,,,,,416.6412254999159,416.6565409000032,416.6565409000032,417.24113460001536,b,1.0,0.5728945999871939,,,,,sub-055,1,stroop_test,60.03925365539914,
,,,,74.0,2.0,6.0,,,,,,,,,,,,,blau,red,r,0.0,r,1.0,0.6682690000161529,,,,,,,,,,6.0,2.0,74.0,4.0,417.2567489999346,,,,,,,,,,,,,,,,,417.24140319996513,418.05667799990624,418.8566981999902,418.8402201000136,,,,,,,,,,,,,,,,,,,,,,,,,,,,,,,,,,,418.8407980999909,418.8566981999902,418.8566981999902,419.5407755000051,r,1.0,0.6682690000161529,,,,,sub-055,1,stroop_test,60.03925365539914,
,,,,75.0,3.0,6.0,,,,,,,,,,,,,rot,red,r,1.0,r,1.0,0.6318816000130028,,,,,,,,,,6.0,3.0,75.0,0.0,419.5563705000095,,,,,,,,,,,,,,,,,419.54099449992646,419.90602300001774,420.70615969994105,420.6901772000128,,,,,,,,,,,,,,,,,,,,,,,,,,,,,,,,,,,420.6922762999311,420.70615969994105,420.70615969994105,421.3401462999173,r,1.0,0.6318816000130028,,,,,sub-055,1,stroop_test,60.03925365539914,
,,,,76.0,4.0,6.0,,,,,,,,,,,,,gelb,blue,b,0.0,b,1.0,1.0350078999763357,,,,,,,,,,6.0,4.0,76.0,9.0,421.35577289992943,,,,,,,,,,,,,,,,,421.340438199928,421.439294999931,422.23903409997,422.2228711999487,,,,,,,,,,,,,,,,,,,,,,,,,,,,,,,,,,,422.2250284999609,422.23903409997,422.23903409997,423.2905285999877,b,1.0,1.0350078999763357,,,,,sub-055,1,stroop_test,60.03925365539914,
,,,,77.0,5.0,6.0,,,,,,,,,,,,,blau,blue,b,1.0,b,1.0,1.1714148999890313,,,,,,,,,,6.0,5.0,77.0,5.0,423.3067166999681,,,,,,,,,,,,,,,,,423.2908175999765,424.5058506999631,425.30531319999136,425.2893525999971,,,,,,,,,,,,,,,,,,,,,,,,,,,,,,,,,,,425.2915646999609,425.30531319999136,425.30531319999136,426.4893875999842,b,1.0,1.1714148999890313,,,,,sub-055,1,stroop_test,60.03925365539914,
,,,,78.0,6.0,6.0,,,,,,,,,,,,,gelb,yellow,g,1.0,g,1.0,0.7812472999794409,,,,,,,,,,6.0,6.0,78.0,10.0,426.5052928999066,,,,,,,,,,,,,,,,,426.4896385999164,427.3064153000014,428.12185529991984,428.1056104999734,,,,,,,,,,,,,,,,,,,,,,,,,,,,,,,,,,,428.10753219993785,428.12185529991984,428.12185529991984,428.906091599958,g,1.0,0.7812472999794409,,,,,sub-055,1,stroop_test,60.03925365539914,
,,,,79.0,7.0,6.0,,,,,,,,,,,,,rot,blue,b,0.0,b,1.0,0.7607362000271678,,,,,,,,,,6.0,7.0,79.0,2.0,428.9220450000139,,,,,,,,,,,,,,,,,428.90633419994265,430.1214328999631,430.9218200999312,430.90536580001935,,,,,,,,,,,,,,,,,,,,,,,,,,,,,,,,,,,430.9078886000207,430.9218200999312,430.9218200999312,431.688781099976,b,1.0,0.7607362000271678,,,,,sub-055,1,stroop_test,60.03925365539914,
,,,,80.0,8.0,6.0,,,,,,,,,,,,,gelb,yellow,g,1.0,g,1.0,0.717351800063625,,,,,,,,,,6.0,8.0,80.0,11.0,431.7048656999832,,,,,,,,,,,,,,,,,431.6890393999638,432.48787049995735,433.2878994999919,433.2721654999768,,,,,,,,,,,,,,,,,,,,,,,,,,,,,,,,,,,433.2742293999763,433.2878994999919,433.2878994999919,434.0065906000091,g,1.0,0.717351800063625,,,,,sub-055,1,stroop_test,60.03925365539914,
,,,,81.0,9.0,6.0,,,,,,,,,,,,,gelb,red,r,0.0,r,1.0,0.7734733999241143,,,,,,,,,,6.0,9.0,81.0,8.0,434.021771300002,,,,,,,,,,,,,,,,,434.00682090001646,434.8217514000135,435.6208358999575,435.6047683999641,,,,,,,,,,,,,,,,,,,,,,,,,,,,,,,,,,,435.605103299953,435.6208358999575,435.6208358999575,436.4053178000031,r,1.0,0.7734733999241143,,,,,sub-055,1,stroop_test,60.03925365539914,
,,,,82.0,10.0,6.0,,,,,,,,,,,,,rot,yellow,g,0.0,g,1.0,0.943417700007558,,,,,,,,,,6.0,10.0,82.0,3.0,436.42102799995337,,,,,,,,,,,,,,,,,436.4055692999391,437.6207118999446,438.4208566999296,438.4043335999595,,,,,,,,,,,,,,,,,,,,,,,,,,,,,,,,,,,438.4066652000183,438.4208566999296,438.4208566999296,439.3714549000142,g,1.0,0.943417700007558,,,,,sub-055,1,stroop_test,60.03925365539914,
,,,,83.0,11.0,6.0,,,,,,,,,,,,,rot,red,r,1.0,r,1.0,0.7405220000073314,,,,,,,,,,6.0,11.0,83.0,1.0,439.387765099993,,,,,,,,,,,,,,,,,439.3716821999988,440.5868753999239,441.38704169995617,441.37089309992734,,,,,,,,,,,,,,,,,,,,,,,,,,,,,,,,,,,441.3712188999634,441.38704169995617,441.38704169995617,442.1378050999483,r,1.0,0.7405220000073314,,,,,sub-055,1,stroop_test,60.03925365539914,
,,,,84.0,0.0,7.0,,,,,,,,,,,,,gelb,red,r,0.0,r,1.0,1.3478101999498904,,,,,,,,,,7.0,0.0,84.0,8.0,442.1538020999869,,,,,,,,,,,,,,,,,442.1380263000028,442.48696829995606,443.28732469992246,443.27027440001257,,,,,,,,,,,,,,,,,,,,,,,,,,,,,,,,,,,443.272141299909,443.28732469992246,443.28732469992246,444.638088000007,r,1.0,1.3478101999498904,,,,,sub-055,1,stroop_test,60.03925365539914,
,,,,85.0,1.0,7.0,,,,,,,,,,,,,gelb,yellow,g,1.0,g,1.0,0.7433910999679938,,,,,,,,,,7.0,1.0,85.0,10.0,444.6533493999159,,,,,,,,,,,,,,,,,444.6384551000083,445.0033913999796,445.8033086999785,445.7868034999119,,,,,,,,,,,,,,,,,,,,,,,,,,,,,,,,,,,445.7870860999683,445.8033086999785,445.8033086999785,446.5540152000031,g,1.0,0.7433910999679938,,,,,sub-055,1,stroop_test,60.03925365539914,
,,,,86.0,2.0,7.0,,,,,,,,,,,,,blau,blue,b,1.0,b,1.0,0.6743642999790609,,,,,,,,,,7.0,2.0,86.0,5.0,446.5703386999666,,,,,,,,,,,,,,,,,446.55425549997017,447.369095299975,448.16905759996735,448.1529459999874,,,,,,,,,,,,,,,,,,,,,,,,,,,,,,,,,,,448.15503459994216,448.16905759996735,448.16905759996735,448.8534531999612,b,1.0,0.6743642999790609,,,,,sub-055,1,stroop_test,60.03925365539914,
,,,,87.0,3.0,7.0,,,,,,,,,,,,,rot,red,r,1.0,r,1.0,1.3968087999382988,,,,,,,,,,7.0,3.0,87.0,1.0,448.86916349991225,,,,,,,,,,,,,,,,,448.853730599978,448.95270309993066,449.7524179000175,449.7364080999978,,,,,,,,,,,,,,,,,,,,,,,,,,,,,,,,,,,449.7387715999503,449.7524179000175,449.7524179000175,451.1538755999645,r,1.0,1.3968087999382988,,,,,sub-055,1,stroop_test,60.03925365539914,
,,,,88.0,4.0,7.0,,,,,,,,,,,,,blau,yellow,g,0.0,g,1.0,1.0695096999406817,,,,,,,,,,7.0,4.0,88.0,7.0,451.1687084999867,,,,,,,,,,,,,,,,,451.154154799995,451.9686447000131,452.7687010999071,452.7529505999992,,,,,,,,,,,,,,,,,,,,,,,,,,,,,,,,,,,452.7554506999441,452.7687010999071,452.7687010999071,453.8527060999768,g,1.0,1.0695096999406817,,,,,sub-055,1,stroop_test,60.03925365539914,
,,,,89.0,5.0,7.0,,,,,,,,,,,,,gelb,yellow,g,1.0,g,1.0,0.6137691999319941,,,,,,,,,,7.0,5.0,89.0,11.0,453.8690716999117,,,,,,,,,,,,,,,,,453.85298720002174,453.96826599992346,454.7696014000103,454.75289499992505,,,,,,,,,,,,,,,,,,,,,,,,,,,,,,,,,,,454.75468179991,454.7696014000103,454.7696014000103,455.3858882000204,g,1.0,0.6137691999319941,,,,,sub-055,1,stroop_test,60.03925365539914,
,,,,90.0,6.0,7.0,,,,,,,,,,,,,rot,blue,b,0.0,b,1.0,0.8111699000000954,,,,,,,,,,7.0,6.0,90.0,2.0,455.401606499916,,,,,,,,,,,,,,,,,455.3861662999261,456.20142840000335,457.00133459991775,456.985282599926,,,,,,,,,,,,,,,,,,,,,,,,,,,,,,,,,,,456.98761650000233,457.00133459991775,457.00133459991775,457.8191681000171,b,1.0,0.8111699000000954,,,,,sub-055,1,stroop_test,60.03925365539914,
,,,,91.0,7.0,7.0,,,,,,,,,,,,,blau,red,r,0.0,r,1.0,0.8983000000007451,,,,,,,,,,7.0,7.0,91.0,4.0,457.8347895999905,,,,,,,,,,,,,,,,,457.8194142999128,458.6344895999646,459.4345364000183,459.4187769999262,,,,,,,,,,,,,,,,,,,,,,,,,,,,,,,,,,,459.4209963999456,459.4345364000183,459.4345364000183,460.335926199914,r,1.0,0.8983000000007451,,,,,sub-055,1,stroop_test,60.03925365539914,
,,,,92.0,8.0,7.0,,,,,,,,,,,,,rot,yellow,g,0.0,g,1.0,1.354894999996759,,,,,,,,,,7.0,8.0,92.0,3.0,460.35144309990574,,,,,,,,,,,,,,,,,460.3361735999352,460.7012825999409,461.5011196999112,461.4850224999245,,,,,,,,,,,,,,,,,,,,,,,,,,,,,,,,,,,461.48747619998176,461.5011196999112,461.5011196999112,462.8689082999481,g,1.0,1.354894999996759,,,,,sub-055,1,stroop_test,60.03925365539914,
,,,,93.0,9.0,7.0,,,,,,,,,,,,,blau,blue,b,1.0,b,1.0,0.6352959999348968,,,,,,,,,,7.0,9.0,93.0,6.0,462.88423069997225,,,,,,,,,,,,,,,,,462.86917700001504,462.9840255000163,463.7843951999676,463.7684946999652,,,,,,,,,,,,,,,,,,,,,,,,,,,,,,,,,,,463.7704683999764,463.7843951999676,463.7843951999676,464.43497049994767,b,1.0,0.6352959999348968,,,,,sub-055,1,stroop_test,60.03925365539914,
,,,,94.0,10.0,7.0,,,,,,,,,,,,,rot,red,r,1.0,r,1.0,0.5718051999574527,,,,,,,,,,7.0,10.0,94.0,0.0,464.45080589992,,,,,,,,,,,,,,,,,464.4353001000127,465.2338725000154,466.0337440000149,466.0178327999311,,,,,,,,,,,,,,,,,,,,,,,,,,,,,,,,,,,466.0207222999306,466.0337440000149,466.0337440000149,466.6183676000219,r,1.0,0.5718051999574527,,,,,sub-055,1,stroop_test,60.03925365539914,
,,,,95.0,11.0,7.0,,,,,,,,,,,,,gelb,blue,b,0.0,b,1.0,0.7241224000463262,,,,,,,,,,7.0,11.0,95.0,9.0,466.63403560000006,,,,,,,,,,,,,,,,,466.6186766999308,466.734018499963,467.53310719993897,467.517345399945,,,,,,,,,,,,,,,,,,,,,,,,,,,,,,,,,,,467.5193461999297,467.53310719993897,467.53310719993897,468.2674841999542,b,1.0,0.7241224000463262,,,,,sub-055,1,stroop_test,60.03925365539914,
,,,,96.0,0.0,8.0,,,,,,,,,,,,,rot,red,r,1.0,r,1.0,0.723428099998273,,,,,,,,,,8.0,0.0,96.0,0.0,468.2858414999209,,,,,,,,,,,,,,,,,468.2676896000048,469.0666810999392,469.8664272999158,469.85039469995536,,,,,,,,,,,,,,,,,,,,,,,,,,,,,,,,,,,469.852385199978,469.8664272999158,469.8664272999158,470.60080789995845,r,1.0,0.723428099998273,,,,,sub-055,1,stroop_test,60.03925365539914,
,,,,97.0,1.0,8.0,,,,,,,,,,,,,blau,yellow,g,0.0,g,1.0,0.4879465999547392,,,,,,,,,,8.0,1.0,97.0,7.0,470.6169926999137,,,,,,,,,,,,,,,,,470.6010487999301,470.9499166000169,471.7499248000095,471.7337012999924,,,,,,,,,,,,,,,,,,,,,,,,,,,,,,,,,,,471.73586169991177,471.7499248000095,471.7499248000095,472.2506674999604,g,1.0,0.4879465999547392,,,,,sub-055,1,stroop_test,60.03925365539914,
,,,,98.0,2.0,8.0,,,,,,,,,,,,,rot,red,r,1.0,r,1.0,1.123570599942468,,,,,,,,,,8.0,2.0,98.0,1.0,472.2667588000186,,,,,,,,,,,,,,,,,472.2508992999792,472.366050099954,473.1665494999616,473.1500544999726,,,,,,,,,,,,,,,,,,,,,,,,,,,,,,,,,,,473.1519737999188,473.1665494999616,473.1665494999616,474.3002505999757,r,1.0,1.123570599942468,,,,,sub-055,1,stroop_test,60.03925365539914,
,,,,99.0,3.0,8.0,,,,,,,,,,,,,gelb,yellow,g,1.0,g,1.0,0.9644079999998212,,,,,,,,,,8.0,3.0,99.0,10.0,474.3161430999171,,,,,,,,,,,,,,,,,474.3004905999405,474.6658193999901,475.4681234000018,475.4497747999849,,,,,,,,,,,,,,,,,,,,,,,,,,,,,,,,,,,475.4521398999496,475.4681234000018,475.4681234000018,476.4335800999543,g,1.0,0.9644079999998212,,,,,sub-055,1,stroop_test,60.03925365539914,
,,,,100.0,4.0,8.0,,,,,,,,,,,,,gelb,yellow,g,1.0,g,1.0,0.5338007999816909,,,,,,,,,,8.0,4.0,100.0,11.0,476.4489696999081,,,,,,,,,,,,,,,,,476.4338271999732,476.7993445999455,477.5987327999901,477.5826499999967,,,,,,,,,,,,,,,,,,,,,,,,,,,,,,,,,,,477.5829815999605,477.5987327999901,477.5987327999901,478.14971929998137,g,1.0,0.5338007999816909,,,,,sub-055,1,stroop_test,60.03925365539914,
,,,,101.0,5.0,8.0,,,,,,,,,,,,,blau,red,r,0.0,r,1.0,0.6978824000107124,,,,,,,,,,8.0,5.0,101.0,4.0,478.1652522999793,,,,,,,,,,,,,,,,,478.1500270999968,478.2486059999792,479.04894389992114,479.0323807999957,,,,,,,,,,,,,,,,,,,,,,,,,,,,,,,,,,,479.03489319991786,479.04894389992114,479.04894389992114,479.7494812000077,r,1.0,0.6978824000107124,,,,,sub-055,1,stroop_test,60.03925365539914,
,,,,102.0,6.0,8.0,,,,,,,,,,,,,rot,yellow,g,0.0,g,1.0,1.2896091000875458,,,,,,,,,,8.0,6.0,102.0,3.0,479.7650759000098,,,,,,,,,,,,,,,,,479.749745399924,480.56503950001206,481.36539279995486,481.3489539999282,,,,,,,,,,,,,,,,,,,,,,,,,,,,,,,,,,,481.3510303999065,481.36539279995486,481.36539279995486,482.66598079993855,g,1.0,1.2896091000875458,,,,,sub-055,1,stroop_test,60.03925365539914,
,,,,103.0,7.0,8.0,,,,,,,,,,,,,rot,blue,b,0.0,b,1.0,1.2379318999592217,,,,,,,,,,8.0,7.0,103.0,2.0,482.6817944999784,,,,,,,,,,,,,,,,,482.6661953999428,483.0316435999703,483.8311200999888,483.8154923999682,,,,,,,,,,,,,,,,,,,,,,,,,,,,,,,,,,,483.8158296999754,483.8311200999888,483.8311200999888,485.0824310999597,b,1.0,1.2379318999592217,,,,,sub-055,1,stroop_test,60.03925365539914,
,,,,104.0,8.0,8.0,,,,,,,,,,,,,gelb,red,r,0.0,r,1.0,0.5740932000335306,,,,,,,,,,8.0,8.0,104.0,8.0,485.09827790001873,,,,,,,,,,,,,,,,,485.0826620999724,486.2977300999919,487.0977971999673,487.08172319992445,,,,,,,,,,,,,,,,,,,,,,,,,,,,,,,,,,,487.0834759999998,487.0977971999673,487.0977971999673,487.68156209995504,r,1.0,0.5740932000335306,,,,,sub-055,1,stroop_test,60.03925365539914,
,,,,105.0,9.0,8.0,,,,,,,,,,,,,blau,blue,b,1.0,b,1.0,0.5797283999854699,,,,,,,,,,8.0,9.0,105.0,6.0,487.6973455999978,,,,,,,,,,,,,,,,,487.6818158999085,488.03124229994137,488.8307315999409,488.8146166999359,,,,,,,,,,,,,,,,,,,,,,,,,,,,,,,,,,,488.8166864999803,488.8307315999409,488.8307315999409,489.4155551999575,b,1.0,0.5797283999854699,,,,,sub-055,1,stroop_test,60.03925365539914,
,,,,106.0,10.0,8.0,,,,,,,,,,,,,gelb,blue,b,0.0,b,1.0,0.6092291000531986,,,,,,,,,,8.0,10.0,106.0,9.0,489.430612099939,,,,,,,,,,,,,,,,,489.4158025999786,490.2307383000152,491.0304731999058,491.01469579990953,,,,,,,,,,,,,,,,,,,,,,,,,,,,,,,,,,,491.0168725999538,491.0304731999058,491.0304731999058,491.6477087999229,b,1.0,0.6092291000531986,,,,,sub-055,1,stroop_test,60.03925365539914,
,,,,107.0,11.0,8.0,,,,,,,,,,,,,blau,blue,b,1.0,b,1.0,0.4486345000332221,,,,,,,,,,8.0,11.0,107.0,5.0,491.663552199956,,,,,,,,,,,,,,,,,491.6479443999706,492.84756319993176,493.647029499989,493.6309770999942,,,,,,,,,,,,,,,,,,,,,,,,,,,,,,,,,,,493.632880799938,493.647029499989,493.647029499989,494.0981154999463,b,1.0,0.4486345000332221,,,,,sub-055,1,stroop_test,60.03925365539914,
,,,,108.0,0.0,9.0,,,,,,,,,,,,,blau,red,r,0.0,r,1.0,0.7430918000172824,,,,,,,,,,9.0,0.0,108.0,4.0,494.1135642000008,,,,,,,,,,,,,,,,,494.09834949998185,494.913624699926,495.71344879991375,495.6975747999968,,,,,,,,,,,,,,,,,,,,,,,,,,,,,,,,,,,495.6979101999896,495.71344879991375,495.71344879991375,496.4645300999982,r,1.0,0.7430918000172824,,,,,sub-055,1,stroop_test,60.03925365539914,
,,,,109.0,1.0,9.0,,,,,,,,,,,,,rot,blue,b,0.0,b,1.0,1.5067394999787211,,,,,,,,,,9.0,1.0,109.0,2.0,496.4801657999633,,,,,,,,,,,,,,,,,496.4647698999616,497.6795333999908,498.4822866999312,498.4635447999463,,,,,,,,,,,,,,,,,,,,,,,,,,,,,,,,,,,498.46613979991525,498.4822866999312,498.4822866999312,499.9978007000173,b,1.0,1.5067394999787211,,,,,sub-055,1,stroop_test,60.03925365539914,
,,,,110.0,2.0,9.0,,,,,,,,,,,,,gelb,yellow,g,1.0,g,1.0,1.0283465998945758,,,,,,,,,,9.0,2.0,110.0,11.0,500.01315629994497,,,,,,,,,,,,,,,,,499.998266599956,500.09682350000367,500.8958557000151,500.8804844999686,,,,,,,,,,,,,,,,,,,,,,,,,,,,,,,,,,,500.88226619991474,500.8958557000151,500.8958557000151,501.9300321999472,g,1.0,1.0283465998945758,,,,,sub-055,1,stroop_test,60.03925365539914,
,,,,111.0,3.0,9.0,,,,,,,,,,,,,blau,blue,b,1.0,b,1.0,0.7247578999958932,,,,,,,,,,9.0,3.0,111.0,6.0,501.9457152999239,,,,,,,,,,,,,,,,,501.9302877999144,502.27932669990696,503.079036799958,503.0630620999728,,,,,,,,,,,,,,,,,,,,,,,,,,,,,,,,,,,503.06532259995583,503.079036799958,503.079036799958,503.8132732999511,b,1.0,0.7247578999958932,,,,,sub-055,1,stroop_test,60.03925365539914,
,,,,112.0,4.0,9.0,,,,,,,,,,,,,gelb,yellow,g,1.0,g,1.0,1.1813063999870792,,,,,,,,,,9.0,4.0,112.0,10.0,503.8291455999715,,,,,,,,,,,,,,,,,503.81350089993794,504.6122106999392,505.4141846999992,505.3961294000037,,,,,,,,,,,,,,,,,,,,,,,,,,,,,,,,,,,505.3980697999941,505.4141846999992,505.4141846999992,506.597511,g,1.0,1.1813063999870792,,,,,sub-055,1,stroop_test,60.03925365539914,
,,,,113.0,5.0,9.0,,,,,,,,,,,,,rot,red,r,1.0,r,1.0,0.6005640999646857,,,,,,,,,,9.0,5.0,113.0,0.0,506.612384499982,,,,,,,,,,,,,,,,,506.5977534999838,507.8117288999492,508.611463499954,508.5954018000048,,,,,,,,,,,,,,,,,,,,,,,,,,,,,,,,,,,508.59759689995553,508.611463499954,508.611463499954,509.2289774999954,r,1.0,0.6005640999646857,,,,,sub-055,1,stroop_test,60.03925365539914,
,,,,114.0,6.0,9.0,,,,,,,,,,,,,blau,blue,b,1.0,b,1.0,1.5248390999622643,,,,,,,,,,9.0,6.0,114.0,5.0,509.2448337000096,,,,,,,,,,,,,,,,,509.2292569999117,509.3281765999273,510.1281887999503,510.1120736999437,,,,,,,,,,,,,,,,,,,,,,,,,,,,,,,,,,,510.114146900014,510.1281887999503,510.1281887999503,511.6621623999672,b,1.0,1.5248390999622643,,,,,sub-055,1,stroop_test,60.03925365539914,
,,,,115.0,7.0,9.0,,,,,,,,,,,,,rot,red,r,1.0,r,1.0,1.1453654000069946,,,,,,,,,,9.0,7.0,115.0,1.0,511.6780113999266,,,,,,,,,,,,,,,,,511.6624323999277,511.7614231000189,512.5610357999103,512.5451296999818,,,,,,,,,,,,,,,,,,,,,,,,,,,,,,,,,,,512.5476054999745,512.5610357999103,512.5610357999103,513.7117371999193,r,1.0,1.1453654000069946,,,,,sub-055,1,stroop_test,60.03925365539914,
,,,,116.0,8.0,9.0,,,,,,,,,,,,,gelb,red,r,0.0,r,1.0,1.023030100041069,,,,,,,,,,9.0,8.0,116.0,8.0,513.7274802000029,,,,,,,,,,,,,,,,,513.7120163999498,514.5276648999425,515.327379199909,515.3113807999762,,,,,,,,,,,,,,,,,,,,,,,,,,,,,,,,,,,515.3133754999144,515.327379199909,515.327379199909,516.361713499995,r,1.0,1.023030100041069,,,,,sub-055,1,stroop_test,60.03925365539914,
,,,,117.0,9.0,9.0,,,,,,,,,,,,,blau,yellow,g,0.0,g,1.0,1.1538516000146046,,,,,,,,,,9.0,9.0,117.0,7.0,516.3773668999784,,,,,,,,,,,,,,,,,516.3619271999924,516.7106509999139,517.5103869999293,517.4943366999505,,,,,,,,,,,,,,,,,,,,,,,,,,,,,,,,,,,517.4967056999449,517.5103869999293,517.5103869999293,518.6785813999595,g,1.0,1.1538516000146046,,,,,sub-055,1,stroop_test,60.03925365539914,
,,,,118.0,10.0,9.0,,,,,,,,,,,,,rot,yellow,g,0.0,g,1.0,0.581033599912189,,,,,,,,,,9.0,10.0,118.0,3.0,518.6935675999848,,,,,,,,,,,,,,,,,518.678906599991,519.0438677999191,519.8437974000117,519.8272837999975,,,,,,,,,,,,,,,,,,,,,,,,,,,,,,,,,,,519.8295345999068,519.8437974000117,519.8437974000117,520.4287714000093,g,1.0,0.581033599912189,,,,,sub-055,1,stroop_test,60.03925365539914,
,,,,119.0,11.0,9.0,,,,,,,,,,,,,gelb,blue,b,0.0,b,1.0,0.6737629000563174,,,,,,,,,,9.0,11.0,119.0,9.0,520.4442738000071,,,,,,,,,,,,,,,,,520.4292946999194,521.6432407000102,522.442991699907,522.4269755999558,,,,,,,,,,,,,,,,,,,,,,,,,,,,,,,,,,,522.4288996999385,522.442991699907,522.442991699907,523.1275223999983,b,1.0,0.6737629000563174,,,,,sub-055,1,stroop_test,60.03925365539914,
,,,,,,,,,,,,,,,,,,,,,,,,,,,,,,,,,,,,,,,,,,,,,,,,,,,,,,,,,,,,,,,,,,,,,,,,,,,,,,,,,,,,,,,,,,,,,,,,,,,,,,523.1276423999807,523.1438783999765,528.1425655999919,sub-055,1,stroop_test,60.03925365539914,
