direction,corrAns,thisN,thisTrialN,thisRepN,respDots.keys,respDots.corr,respDots.rt,respDots.duration,randomInstr,respRandomInstr.keys,respRandomInstr.rt,respRandomInstr.duration,practice_trials.thisRepN,practice_trials.thisTrialN,practice_trials.thisN,practice_trials.thisIndex,instr_trials.thisRepN,instr_trials.thisTrialN,instr_trials.thisN,instr_trials.thisIndex,test_trials.thisRepN,test_trials.thisTrialN,test_trials.thisN,test_trials.thisIndex,thisRow.t,notes,general_instruction.started,textGeneralInstr.started,respGeneralInstr.started,general_instruction.stopped,respGeneralInstr.keys,respGeneralInstr.rt,respGeneralInstr.duration,ITI.started,fixcross.started,fixcross.stopped,ITI.stopped,dots.started,backgroundDots.started,stimulusDots.started,respDots.started,stimulusDots.stopped,dots.stopped,practice_trials.respDots.keys,practice_trials.respDots.corr,practice_trials.respDots.rt,practice_trials.respDots.duration,feedback.started,textFeedback.started,feedback.stopped,textFeedback.stopped,info.started,textInfo.started,keyRespInfo.started,info.stopped,keyRespInfo.keys,keyRespInfo.rt,keyRespInfo.duration,test_instruction.started,textTestInstr.started,respTestInstr.started,test_instruction.stopped,respTestInstr.keys,respTestInstr.rt,respTestInstr.duration,random_instruction.started,textRandomInstr.started,respRandomInstr.started,random_instruction.stopped,instr_trials.respRandomInstr.keys,instr_trials.respRandomInstr.rt,instr_trials.respRandomInstr.duration,test_trials.respDots.keys,test_trials.respDots.corr,test_trials.respDots.rt,test_trials.respDots.duration,goodbye.started,textGoodbye.started,goodbye.stopped,participant,session,expName,frameRate,Unnamed: 87
,,,,,,,,,,,,,,,,,,,,,,,,,,,0.0089003749999392,0.0144684160004544,0.0144684160004544,41.74314204099937,space,41.6322250409994,,,,,,,,,,,,,,,,,,,,,,,,,,,,,,,,,,,,,,,,,,,,,,,,sub-157,1,random_dot,121.7678875628845,
left,left,0.0,0.0,0.0,left,1.0,5.4946817489999376,,,,,,0.0,0.0,0.0,0.0,,,,,,,,,41.754398290999234,,,,,,,,,41.74756345800051,42.55140791600024,43.348518000000695,43.33459012499952,43.335149000000456,43.348518000000695,43.348518000000695,43.348518000000695,48.32418691599924,48.85282920799909,left,1.0,5.4946817489999376,,48.86213916599991,48.89915183300036,49.35718354100027,,,,,,,,,,,,,,,,,,,,,,,,,,,,,,sub-157,1,random_dot,121.7678875628845,
right,right,1.0,1.0,0.0,right,1.0,2.515175499000179,,,,,,0.0,1.0,1.0,1.0,,,,,,,,,49.36774491600045,,,,,,,,,49.35757408300015,49.7011222910005,50.49347679099992,50.48457216600036,50.48513591600022,50.49347679099992,50.49347679099992,50.49347679099992,,53.01776466599949,right,1.0,2.515175499000179,,53.01789679099966,53.02620620800008,53.51786854099919,53.5238495829999,,,,,,,,,,,,,,,,,,,,,,,,,,,,,sub-157,1,random_dot,121.7678875628845,
left,left,2.0,0.0,1.0,left,1.0,3.1145551660010824,,,,,,1.0,0.0,2.0,0.0,,,,,,,,,53.5238495829999,,,,,,,,,53.518354415999056,53.85724595799911,54.64977645799991,54.64065404100074,54.64107899999908,54.64977645799991,54.64977645799991,54.64977645799991,,57.76779666599941,left,1.0,3.1145551660010824,,57.76802637500077,57.774411915999735,58.257188375000624,58.26766716599923,,,,,,,,,,,,,,,,,,,,,,,,,,,,,sub-157,1,random_dot,121.7678875628845,
right,right,3.0,1.0,1.0,right,1.0,2.152325583001584,,,,,,1.0,1.0,3.0,1.0,,,,,,,,,58.26766716599923,,,,,,,,,58.25754583299931,58.35668583299957,59.14990612499969,59.140620500000296,59.14115687499907,59.14990612499969,59.14990612499969,59.14990612499969,,61.308184416000586,right,1.0,2.152325583001584,,61.30837637500008,61.31756825000048,61.801322208000784,61.80734091600061,,,,,,,,,,,,,,,,,,,,,,,,,,,,,sub-157,1,random_dot,121.7678875628845,
left,left,4.0,0.0,2.0,right,0.0,3.722622957000567,,,,,,2.0,0.0,4.0,0.0,,,,,,,,,61.80734091600061,,,,,,,,,61.80176137499984,63.00697424999999,63.80100220799977,63.789957125,63.79039299999931,63.80100220799977,63.80100220799977,63.80100220799977,,67.52570866600036,right,0.0,3.722622957000567,,67.53366354100035,67.54244649999964,68.03467633299988,,,,,,,,,,,,,,,,,,,,,,,,,,,,,,sub-157,1,random_dot,121.7678875628845,
right,right,5.0,1.0,2.0,left,0.0,3.1341672079997807,,,,,,2.0,1.0,5.0,1.0,,,,,,,,,68.04054933299994,,,,,,,,,68.03513262500019,68.37393225000051,69.16758316599953,69.15666637499999,69.15708987499966,69.16758316599953,69.16758316599953,69.16758316599953,,72.30906112499906,left,0.0,3.1341672079997807,,72.3092282079997,72.31852237500061,72.8013509579996,72.80734850000044,,,,,,,,,,,,,,,,,,,,,,,,,,,,,sub-157,1,random_dot,121.7678875628845,
right,right,6.0,0.0,3.0,right,1.0,3.6265951660006976,,,,,,3.0,0.0,6.0,1.0,,,,,,,,,72.80734850000044,,,,,,,,,72.80179104099989,73.15736095799912,73.95104708299914,73.94010487500054,73.94051883300017,73.95104708299914,73.95104708299914,73.95104708299914,,77.58548374999918,right,1.0,3.6265951660006976,,77.58928924999964,77.59846862499944,78.0851658749998,78.0918365409998,,,,,,,,,,,,,,,,,,,,,,,,,,,,,sub-157,1,random_dot,121.7678875628845,
left,left,7.0,1.0,3.0,right,0.0,5.522500082000988,,,,,,3.0,1.0,7.0,0.0,,,,,,,,,78.0918365409998,,,,,,,,,78.08570633300042,79.28442587499922,80.07678124999984,80.06819687499956,80.06876733299941,80.07678124999984,80.07678124999984,80.07678124999984,85.06774374999986,85.6029322079994,right,0.0,5.522500082000988,,85.60706733299958,85.61633170799905,86.10128462499961,86.10710687500068,,,,,,,,,,,,,,,,,,,,,,,,,,,,,sub-157,1,random_dot,121.7678875628845,
left,left,8.0,0.0,4.0,left,1.0,2.508105208000416,,,,,,4.0,0.0,8.0,0.0,,,,,,,,,86.10710687500068,,,,,,,,,86.10172708299979,87.30092437500025,88.09336479100057,88.08473333300026,88.08524883300015,88.09336479100057,88.09336479100057,88.09336479100057,,90.60994050000043,left,1.0,2.508105208000416,,90.61329145799937,90.62224349999995,91.10738683300042,91.11804020800082,,,,,,,,,,,,,,,,,,,,,,,,,,,,,sub-157,1,random_dot,121.7678875628845,
right,right,9.0,1.0,4.0,left,0.0,3.057938291000028,,,,,,4.0,1.0,9.0,1.0,,,,,,,,,91.11804020800082,,,,,,,,,91.10774949999904,92.30727966599989,93.0999554579994,93.09075791599936,93.09130029100017,93.0999554579994,93.0999554579994,93.0999554579994,,96.16880850000052,left,0.0,3.057938291000028,,96.17308141600006,96.18170333300075,96.6680584580008,96.67407016600008,,,,,,,,,,,,,,,,,,,,,,,,,,,,,sub-157,1,random_dot,121.7678875628845,
right,right,10.0,0.0,5.0,left,0.0,3.279050915998596,,,,,,5.0,0.0,10.0,1.0,,,,,,,,,96.67407016600008,,,,,,,,,96.66854050000074,96.76772295800038,97.56013604100008,97.5515212499995,97.55204429100012,97.56013604100008,97.56013604100008,97.56013604100008,,100.84313695799938,left,0.0,3.279050915998596,,100.8432835830008,100.85273212500032,101.34076900000036,101.35114824999982,,,,,,,,,,,,,,,,,,,,,,,,,,,,,sub-157,1,random_dot,121.7678875628845,
left,left,11.0,1.0,5.0,right,0.0,4.031662707999203,,,,,,5.0,1.0,11.0,0.0,,,,,,,,,101.35114824999982,,,,,,,,,101.34110454099935,101.4411089160003,102.23349691600016,102.22437675000036,102.22477966599943,102.23349691600016,102.23349691600016,102.23349691600016,,106.2681786659996,right,0.0,4.031662707999203,,106.26841595800032,106.2751155829992,106.76811937499951,106.77365383299912,,,,,,,,,,,,,,,,,,,,,,,,,,,,,sub-157,1,random_dot,121.7678875628845,
right,right,12.0,0.0,6.0,left,0.0,5.527738040998884,,,,,,6.0,0.0,12.0,1.0,,,,,,,,,106.77365383299912,,,,,,,,,106.76849324999966,107.10772324999924,107.89995395799995,107.89073024999924,107.89112216600006,107.89995395799995,107.89995395799995,107.89995395799995,112.88449749999928,113.43629733300077,left,0.0,5.527738040998884,,113.43655958300042,113.44544337499974,113.93484704100048,113.94077941599971,,,,,,,,,,,,,,,,,,,,,,,,,,,,,sub-157,1,random_dot,121.7678875628845,
left,left,13.0,1.0,6.0,left,1.0,3.427077541000472,,,,,,6.0,1.0,13.0,0.0,,,,,,,,,113.94077941599971,,,,,,,,,113.93528700000024,114.73465295799906,115.52655829099967,115.51810537500025,115.5186586660002,115.52655829099967,115.52655829099967,115.52655829099967,,118.95768087500072,left,1.0,3.427077541000472,,118.96174258300016,118.97068625000064,119.45760037500077,119.46805187499922,,,,,,,,,,,,,,,,,,,,,,,,,,,,,sub-157,1,random_dot,121.7678875628845,
left,left,14.0,0.0,7.0,left,1.0,3.12799779099987,,,,,,7.0,0.0,14.0,0.0,,,,,,,,,119.46805187499922,,,,,,,,,119.4579411249997,120.65754908300003,121.45000579099906,121.44073820800077,121.44117229099902,121.45000579099906,121.45000579099906,121.45000579099906,,124.58543904100044,left,1.0,3.12799779099987,,124.58560966599909,124.59449454099922,125.08485649999966,125.09078095800032,,,,,,,,,,,,,,,,,,,,,,,,,,,,,sub-157,1,random_dot,121.7678875628845,
right,right,15.0,1.0,7.0,right,1.0,2.443064790999415,,,,,,7.0,1.0,15.0,1.0,,,,,,,,,125.09078095800032,,,,,,,,,125.08534870800032,125.174249665999,125.9679029580002,125.95678745800068,125.95721475000028,125.9679029580002,125.9679029580002,125.9679029580002,,128.4182945829998,right,1.0,2.443064790999415,,128.41844866599968,128.42722295800013,128.91806587499923,128.92370225000013,,,,,,,,,,,,,,,,,,,,,,,,,,,,,sub-157,1,random_dot,121.7678875628845,
left,left,16.0,0.0,8.0,right,0.0,2.894119706999845,,,,,,8.0,0.0,16.0,0.0,,,,,,,,,128.92370225000013,,,,,,,,,128.91843275000065,129.00880208300077,129.81020700000045,129.8016002080003,129.80213387500044,129.81020700000045,129.81020700000045,129.81020700000045,,132.70924920799916,right,0.0,2.894119706999845,,132.71309724999992,132.7221352079996,133.20770987499964,133.2180751249998,,,,,,,,,,,,,,,,,,,,,,,,,,,,,sub-157,1,random_dot,121.7678875628845,
right,right,17.0,1.0,8.0,right,1.0,4.717113790999065,,,,,,8.0,1.0,17.0,1.0,,,,,,,,,133.2180751249998,,,,,,,,,133.20814445799988,134.0075617500006,134.8001266249994,134.79076362500018,134.7913087500001,134.8001266249994,134.8001266249994,134.8001266249994,,139.51962654099952,right,1.0,4.717113790999065,,139.52398533300038,139.53314645799946,140.01831966600002,140.02432070800023,,,,,,,,,,,,,,,,,,,,,,,,,,,,,sub-157,1,random_dot,121.7678875628845,
right,right,18.0,0.0,9.0,left,0.0,4.301241041001049,,,,,,9.0,0.0,18.0,1.0,,,,,,,,,140.02432070800023,,,,,,,,,140.01876958299908,140.36779170800037,141.1600183749997,141.1515855409998,141.15209254100046,141.1600183749997,141.1600183749997,141.1600183749997,,145.4681836660002,left,0.0,4.301241041001049,,145.4718114999996,145.48043883299945,145.96829720799906,145.97421187500004,,,,,,,,,,,,,,,,,,,,,,,,,,,,,sub-157,1,random_dot,121.7678875628845,
left,left,19.0,1.0,9.0,left,1.0,5.2190754570001445,,,,,,9.0,1.0,19.0,0.0,,,,,,,,,145.97421187500004,,,,,,,,,145.96877079099977,146.05747212499955,146.8500945830001,146.84092866600076,146.84132466600022,146.8500945830001,146.8500945830001,146.8500945830001,151.83476416600024,152.07631941599902,left,1.0,5.2190754570001445,,152.08047029099907,152.08954354100024,152.5740581659993,152.5835145410001,,,,,,,,,,,,,,,,,,,,,,,,,,,,,sub-157,1,random_dot,121.7678875628845,
,,,,,,,,,,,,,,,,,,,,,,,,,,,,,,,,,,,,,,,,,,,,,,,,,,,,152.57421124999928,152.5835145410001,152.5835145410001,171.30844404100026,space,18.720081581999693,,,,,,,,,,,,,,,,,,,,,,,sub-157,1,random_dot,121.7678875628845,
,,,,,,,,,,,,,,,,,,,,,,,,,,,,,,,,,,,,,,,,,,,,,,,,,,,,,,,,,,,171.30858249999983,171.32064429099955,171.32064429099955,180.20341658299915,space,8.875248956999712,,,,,,,,,,,,,,,,sub-157,1,random_dot,121.7678875628845,
right,right,0.0,0.0,0.0,right,1.0,2.274328124000021,,speed,space,6.351439707001191,,,,,,0.0,0.0,0.0,1.0,0.0,0.0,0.0,1.0,186.60946820800015,,,,,,,,,186.6005647080001,187.3913773330005,188.18363029099964,188.1745459159993,188.17494520800028,188.18363029099964,188.18363029099964,188.18363029099964,,190.45992837499944,,,,,,,,,,,,,,,,,,,,,,,180.22604024999964,180.2347090000003,180.2347090000003,186.59217499999977,space,6.351439707001191,,right,1.0,2.274328124000021,,,,,sub-157,1,random_dot,121.7678875628845,
left,left,1.0,1.0,0.0,right,0.0,2.545771499000693,,speed,space,6.351439707001191,,,,,,0.0,0.0,0.0,1.0,0.0,1.0,1.0,0.0,190.46694604100048,,,,,,,,,190.4605464159995,191.25780124999983,192.05021850000048,192.04101900000023,192.0414332500004,192.05021850000048,192.05021850000048,192.05021850000048,,194.60135512499983,,,,,,,,,,,,,,,,,,,,,,,,,,,,,,right,0.0,2.545771499000693,,,,,sub-157,1,random_dot,121.7678875628845,
left,left,2.0,0.0,1.0,left,1.0,2.99384850000024,,speed,space,6.351439707001191,,,,,,0.0,0.0,0.0,1.0,1.0,0.0,2.0,0.0,194.6094632080003,,,,,,,,,194.60178070800063,195.79046283299976,196.5835733749991,196.57434749999996,196.57474904099945,196.5835733749991,196.5835733749991,196.5835733749991,,199.5860463749996,,,,,,,,,,,,,,,,,,,,,,,,,,,,,,left,1.0,2.99384850000024,,,,,sub-157,1,random_dot,121.7678875628845,
right,right,3.0,1.0,1.0,left,0.0,3.668896623999899,,speed,space,6.351439707001191,,,,,,0.0,0.0,0.0,1.0,1.0,1.0,3.0,1.0,199.5949767080001,,,,,,,,,199.5868086249993,200.784808208,201.5770934579996,201.56844595800067,201.56900812499956,201.5770934579996,201.5770934579996,201.5770934579996,,205.25295691599968,,,,,,,,,,,,,,,,,,,,,,,,,,,,,,left,0.0,3.668896623999899,,,,,sub-157,1,random_dot,121.7678875628845,
right,right,4.0,0.0,2.0,left,0.0,2.266479707999679,,speed,space,6.351439707001191,,,,,,0.0,0.0,0.0,1.0,2.0,0.0,4.0,1.0,205.26198858299904,,,,,,,,,205.25368187499956,206.45161562499925,207.24303220799996,207.2350963329991,207.2355254159993,207.24303220799996,207.24303220799996,207.24303220799996,,209.5192147079997,,,,,,,,,,,,,,,,,,,,,,,,,,,,,,left,0.0,2.266479707999679,,,,,sub-157,1,random_dot,121.7678875628845,
left,left,5.0,1.0,2.0,right,0.0,2.869981541000016,,speed,space,6.351439707001191,,,,,,0.0,0.0,0.0,1.0,2.0,1.0,5.0,0.0,209.5281935830008,,,,,,,,,209.51998275000005,210.71829441599948,211.5106522499991,211.5020082079991,211.50257583299936,211.5106522499991,211.5106522499991,211.5106522499991,,214.3857654160001,,,,,,,,,,,,,,,,,,,,,,,,,,,,,,right,0.0,2.869981541000016,,,,,sub-157,1,random_dot,121.7678875628845,
left,left,6.0,0.0,3.0,left,1.0,4.528527415999633,,speed,space,6.351439707001191,,,,,,0.0,0.0,0.0,1.0,3.0,0.0,6.0,0.0,214.39476691600063,,,,,,,,,214.3863975000004,215.5747977909996,216.36700679100068,216.35779641599947,216.3581946659997,216.36700679100068,216.36700679100068,216.36700679100068,,220.90204812499903,,,,,,,,,,,,,,,,,,,,,,,,,,,,,,left,1.0,4.528527415999633,,,,,sub-157,1,random_dot,121.7678875628845,
right,right,7.0,1.0,3.0,right,1.0,2.894627790999948,,speed,space,6.351439707001191,,,,,,0.0,0.0,0.0,1.0,3.0,1.0,7.0,1.0,220.91073658300047,,,,,,,,,220.90281533300004,221.2414027499999,222.03374933300077,222.0246777079992,222.02508429099908,222.03374933300077,222.03374933300077,222.03374933300077,,224.93573070799903,,,,,,,,,,,,,,,,,,,,,,,,,,,,,,right,1.0,2.894627790999948,,,,,sub-157,1,random_dot,121.7678875628845,
left,left,8.0,0.0,4.0,right,0.0,3.131535915999848,,speed,space,6.351439707001191,,,,,,0.0,0.0,0.0,1.0,4.0,0.0,8.0,0.0,224.9446551660003,,,,,,,,,224.9364796249993,225.2748465829991,226.0670355000002,226.0578331659999,226.058229708,226.0670355000002,226.0670355000002,226.0670355000002,,229.2023533329993,,,,,,,,,,,,,,,,,,,,,,,,,,,,,,right,0.0,3.131535915999848,,,,,sub-157,1,random_dot,121.7678875628845,
right,right,9.0,1.0,4.0,left,0.0,1.3468239569992877,,speed,space,6.351439707001191,,,,,,0.0,0.0,0.0,1.0,4.0,1.0,9.0,1.0,229.2119619999994,,,,,,,,,229.20317412499932,229.9906933750008,230.78370216599976,230.77484208299936,230.7752887499992,230.78370216599976,230.78370216599976,230.78370216599976,,232.1366766659994,,,,,,,,,,,,,,,,,,,,,,,,,,,,,,left,0.0,1.3468239569992877,,,,,sub-157,1,random_dot,121.7678875628845,
left,left,10.0,0.0,5.0,right,0.0,2.580109206999623,,speed,space,6.351439707001191,,,,,,0.0,0.0,0.0,1.0,5.0,0.0,10.0,0.0,232.14564891599912,,,,,,,,,232.13744862500064,232.93498887500027,233.726898166,233.7186093750006,233.7191679579992,233.726898166,233.726898166,233.726898166,,236.30884074999997,,,,,,,,,,,,,,,,,,,,,,,,,,,,,,right,0.0,2.580109206999623,,,,,sub-157,1,random_dot,121.7678875628845,
right,right,11.0,1.0,5.0,left,0.0,2.6492482490011757,,speed,space,6.351439707001191,,,,,,0.0,0.0,0.0,1.0,5.0,1.0,11.0,1.0,236.31844229099988,,,,,,,,,236.30943308299905,237.50816941599987,238.3004098750007,238.2911693749993,238.2915638750001,238.3004098750007,238.3004098750007,238.3004098750007,,240.9520587909992,,,,,,,,,,,,,,,,,,,,,,,,,,,,,,left,0.0,2.6492482490011757,,,,,sub-157,1,random_dot,121.7678875628845,
right,right,12.0,0.0,6.0,right,1.0,2.811871624999185,,speed,space,6.351439707001191,,,,,,0.0,0.0,0.0,1.0,6.0,0.0,12.0,1.0,240.95864695800083,,,,,,,,,240.952821375,241.04143566600032,241.8337598750004,241.8249240000005,241.8253125409992,241.8337598750004,241.8337598750004,241.8337598750004,,244.652521,,,,,,,,,,,,,,,,,,,,,,,,,,,,,,right,1.0,2.811871624999185,,,,,sub-157,1,random_dot,121.7678875628845,
left,left,13.0,1.0,6.0,left,1.0,1.1608415820010125,,speed,space,6.351439707001191,,,,,,0.0,0.0,0.0,1.0,6.0,1.0,13.0,0.0,244.66120529100044,,,,,,,,,244.65326020800055,245.45160108299933,246.2437823750006,246.2354028329992,246.23595641599968,246.2437823750006,246.2437823750006,246.2437823750006,,247.4101224160004,,,,,,,,,,,,,,,,,,,,,,,,,,,,,,left,1.0,1.1608415820010125,,,,,sub-157,1,random_dot,121.7678875628845,
left,left,14.0,0.0,7.0,left,1.0,1.7877978320011607,,speed,space,6.351439707001191,,,,,,0.0,0.0,0.0,1.0,7.0,0.0,14.0,0.0,247.41914195800015,,,,,,,,,247.41062099999908,248.60835208299977,249.4006742500005,249.3913697909993,249.39178237499985,249.4006742500005,249.4006742500005,249.4006742500005,,251.1941767499993,,,,,,,,,,,,,,,,,,,,,,,,,,,,,,left,1.0,1.7877978320011607,,,,,sub-157,1,random_dot,121.7678875628845,
right,right,15.0,1.0,7.0,left,0.0,1.9205825830013052,,speed,space,6.351439707001191,,,,,,0.0,0.0,0.0,1.0,7.0,1.0,15.0,1.0,251.2037288749998,,,,,,,,,251.1949194999997,251.29148037499908,252.08383462500024,252.0747435409994,252.0752384999996,252.08383462500024,252.08383462500024,252.08383462500024,,254.00983108299988,,,,,,,,,,,,,,,,,,,,,,,,,,,,,,left,0.0,1.9205825830013052,,,,,sub-157,1,random_dot,121.7678875628845,
right,right,16.0,0.0,8.0,right,1.0,1.954881707999448,,speed,space,6.351439707001191,,,,,,0.0,0.0,0.0,1.0,8.0,0.0,16.0,1.0,254.0191209580007,,,,,,,,,254.01040716600076,255.20812549999937,256.0004133750008,255.9913698330001,255.99176133299989,256.0004133750008,256.0004133750008,256.0004133750008,,257.95970004099945,,,,,,,,,,,,,,,,,,,,,,,,,,,,,,right,1.0,1.954881707999448,,,,,sub-157,1,random_dot,121.7678875628845,
left,left,17.0,1.0,8.0,left,1.0,1.86268974900122,,speed,space,6.351439707001191,,,,,,0.0,0.0,0.0,1.0,8.0,1.0,17.0,0.0,257.96905641599915,,,,,,,,,257.9604005000001,258.058282,258.85057920799954,258.8412688749995,258.8416550410002,258.85057920799954,258.85057920799954,258.85057920799954,,260.71907079099947,,,,,,,,,,,,,,,,,,,,,,,,,,,,,,left,1.0,1.86268974900122,,,,,sub-157,1,random_dot,121.7678875628845,
left,left,18.0,0.0,9.0,right,0.0,2.728120707000926,,speed,space,6.351439707001191,,,,,,0.0,0.0,0.0,1.0,9.0,0.0,18.0,0.0,260.72546883299947,,,,,,,,,260.7198365000004,261.90830520800046,262.70051649999914,262.6908557080005,262.69128099999944,262.70051649999914,262.70051649999914,262.70051649999914,,265.43491679100043,,,,,,,,,,,,,,,,,,,,,,,,,,,,,,right,0.0,2.728120707000926,,,,,sub-157,1,random_dot,121.7678875628845,
right,right,19.0,1.0,9.0,right,1.0,1.179343998999684,,speed,space,6.351439707001191,,,,,,0.0,0.0,0.0,1.0,9.0,1.0,19.0,1.0,265.4433640829993,,,,,,,,,265.43554395799947,265.7742495830007,266.567165208,266.55791620799937,266.55830412499927,266.567165208,266.567165208,266.567165208,,267.75263716600057,,,,,,,,,,,,,,,,,,,,,,,,,,,,,,right,1.0,1.179343998999684,,,,,sub-157,1,random_dot,121.7678875628845,
left,left,20.0,0.0,10.0,left,1.0,1.6776446659987414,,speed,space,6.351439707001191,,,,,,0.0,0.0,0.0,1.0,10.0,0.0,20.0,0.0,267.76147370800027,,,,,,,,,267.7533894579992,267.84157941599915,268.6338394159993,268.6247740409999,268.6251963750001,268.6338394159993,268.6338394159993,268.6338394159993,,270.3194704159996,,,,,,,,,,,,,,,,,,,,,,,,,,,,,,left,1.0,1.6776446659987414,,,,,sub-157,1,random_dot,121.7678875628845,
right,right,21.0,1.0,10.0,left,0.0,1.6368181660000118,,speed,space,6.351439707001191,,,,,,0.0,0.0,0.0,1.0,10.0,1.0,21.0,1.0,270.32831229099975,,,,,,,,,270.32006345800073,270.6684815410008,271.46058925000034,271.45209316599903,271.45265483299954,271.46058925000034,271.46058925000034,271.46058925000034,,273.10348075,,,,,,,,,,,,,,,,,,,,,,,,,,,,,,left,0.0,1.6368181660000118,,,,,sub-157,1,random_dot,121.7678875628845,
right,right,22.0,0.0,11.0,right,1.0,1.7564339990003646,,speed,space,6.351439707001191,,,,,,0.0,0.0,0.0,1.0,11.0,0.0,22.0,1.0,273.1097541250001,,,,,,,,,273.1042555000004,274.30177150000054,275.09489879099965,275.08557745799953,275.0861212500004,275.09489879099965,275.09489879099965,275.09489879099965,,276.8597608750006,,,,,,,,,,,,,,,,,,,,,,,,,,,,,,right,1.0,1.7564339990003646,,,,,sub-157,1,random_dot,121.7678875628845,
left,left,23.0,1.0,11.0,right,0.0,2.4905834999990475,,speed,space,6.351439707001191,,,,,,0.0,0.0,0.0,1.0,11.0,1.0,23.0,0.0,276.8689107499995,,,,,,,,,276.8603637079996,277.65814583300016,278.45060883299993,278.44153029100016,278.4419651249991,278.45060883299993,278.45060883299993,278.45060883299993,,280.9440150829996,,,,,,,,,,,,,,,,,,,,,,,,,,,,,,right,0.0,2.4905834999990475,,,,,sub-157,1,random_dot,121.7678875628845,
left,left,24.0,0.0,12.0,left,1.0,2.043241790999673,,speed,space,6.351439707001191,,,,,,0.0,0.0,0.0,1.0,12.0,0.0,24.0,0.0,280.9506192909994,,,,,,,,,280.9444884999993,282.1414267079999,282.9339800830003,282.92484870800035,282.9252847080006,282.9339800830003,282.9339800830003,282.9339800830003,,284.9858102500002,,,,,,,,,,,,,,,,,,,,,,,,,,,,,,left,1.0,2.043241790999673,,,,,sub-157,1,random_dot,121.7678875628845,
right,right,25.0,1.0,12.0,right,1.0,2.5332598320001125,,speed,space,6.351439707001191,,,,,,0.0,0.0,0.0,1.0,12.0,1.0,25.0,1.0,284.9945196249992,,,,,,,,,284.98640737499954,286.1750823750008,286.96722133299954,286.95802091599944,286.9584177500001,286.96722133299954,286.96722133299954,286.96722133299954,,289.5023959579994,,,,,,,,,,,,,,,,,,,,,,,,,,,,,,right,1.0,2.5332598320001125,,,,,sub-157,1,random_dot,121.7678875628845,
left,left,26.0,0.0,13.0,left,1.0,1.5985205819997643,,speed,space,6.351439707001191,,,,,,0.0,0.0,0.0,1.0,13.0,0.0,26.0,0.0,289.50884487499934,,,,,,,,,289.5031583330001,290.29134095799964,291.0840411249992,291.07480612499967,291.07534900000064,291.0840411249992,291.0840411249992,291.0840411249992,,292.6860004579994,,,,,,,,,,,,,,,,,,,,,,,,,,,,,,left,1.0,1.5985205819997643,,,,,sub-157,1,random_dot,121.7678875628845,
right,right,27.0,1.0,13.0,left,0.0,2.376430416001313,,speed,space,6.351439707001191,,,,,,0.0,0.0,0.0,1.0,13.0,1.0,27.0,1.0,292.6922735410008,,,,,,,,,292.6867677909995,293.47506441599944,294.2678899999992,294.2581014160005,294.2586427080005,294.2678899999992,294.2678899999992,294.2678899999992,,296.6525108749993,,,,,,,,,,,,,,,,,,,,,,,,,,,,,,left,0.0,2.376430416001313,,,,,sub-157,1,random_dot,121.7678875628845,
left,left,28.0,0.0,14.0,right,0.0,1.6462708330000169,,speed,space,6.351439707001191,,,,,,0.0,0.0,0.0,1.0,14.0,0.0,28.0,0.0,296.66126716600047,,,,,,,,,296.6532535410006,296.9916700829999,297.7839666660002,297.7749278329993,297.7754753329991,297.7839666660002,297.7839666660002,297.7839666660002,,299.43697900000006,,,,,,,,,,,,,,,,,,,,,,,,,,,,,,right,0.0,1.6462708330000169,,,,,sub-157,1,random_dot,121.7678875628845,
right,right,29.0,1.0,14.0,right,1.0,1.7897367910009052,,speed,space,6.351439707001191,,,,,,0.0,0.0,0.0,1.0,14.0,1.0,29.0,1.0,299.443363458,,,,,,,,,299.43776462499955,299.7852773750001,300.5774261250008,300.5688645829996,300.569416332999,300.5774261250008,300.5774261250008,300.5774261250008,,302.36966079100057,,,,,,,,,,,,,,,,,,,,,,,,,,,,,,right,1.0,1.7897367910009052,,,,,sub-157,1,random_dot,121.7678875628845,
right,right,30.0,0.0,15.0,right,1.0,1.4844113740000466,,speed,space,6.351439707001191,,,,,,0.0,0.0,0.0,1.0,15.0,0.0,30.0,1.0,302.37614604100054,,,,,,,,,302.3704232910004,302.4686395410008,303.2607500409995,303.2521859160006,303.25273258299967,303.2607500409995,303.2607500409995,303.2607500409995,,304.7530977909992,,,,,,,,,,,,,,,,,,,,,,,,,,,,,,right,1.0,1.4844113740000466,,,,,sub-157,1,random_dot,121.7678875628845,
left,left,31.0,1.0,15.0,right,0.0,2.094116873999156,,speed,space,6.351439707001191,,,,,,0.0,0.0,0.0,1.0,15.0,1.0,31.0,0.0,304.7622261659999,,,,,,,,,304.7538364579996,305.9517947910008,306.7439940000004,306.7355002910008,306.7360650409992,306.7439940000004,306.7439940000004,306.7439940000004,,308.84385912499965,,,,,,,,,,,,,,,,,,,,,,,,,,,,,,right,0.0,2.094116873999156,,,,,sub-157,1,random_dot,121.7678875628845,
left,left,32.0,0.0,16.0,left,1.0,1.3914310000000114,,speed,space,6.351439707001191,,,,,,0.0,0.0,0.0,1.0,16.0,0.0,32.0,0.0,308.86821025000063,,,,,,,,,308.8444541249992,309.6412354160002,310.4345569159996,310.42490324999926,310.42526404099954,310.4345569159996,310.4345569159996,310.4345569159996,,311.8353796659994,,,,,,,,,,,,,,,,,,,,,,,,,,,,,,left,1.0,1.3914310000000114,,,,,sub-157,1,random_dot,121.7678875628845,
right,right,33.0,1.0,16.0,left,0.0,1.465579375000743,,speed,space,6.351439707001191,,,,,,0.0,0.0,0.0,1.0,16.0,1.0,33.0,1.0,311.8435656660004,,,,,,,,,311.83590170800016,313.02505379099966,313.8173329580004,313.80801345799955,313.8084328749992,313.8173329580004,313.8173329580004,313.8173329580004,,315.2858995410006,,,,,,,,,,,,,,,,,,,,,,,,,,,,,,left,0.0,1.465579375000743,,,,,sub-157,1,random_dot,121.7678875628845,
left,left,34.0,0.0,17.0,right,0.0,1.815328832999512,,speed,space,6.351439707001191,,,,,,0.0,0.0,0.0,1.0,17.0,0.0,34.0,0.0,315.2923934160008,,,,,,,,,315.2866582080005,315.3745629160003,316.16851470800066,316.1577536250006,316.15814712499923,316.16851470800066,316.16851470800066,316.16851470800066,,317.98616379099985,,,,,,,,,,,,,,,,,,,,,,,,,,,,,,right,0.0,1.815328832999512,,,,,sub-157,1,random_dot,121.7678875628845,
right,right,35.0,1.0,17.0,right,1.0,1.7957081659988037,,speed,space,6.351439707001191,,,,,,0.0,0.0,0.0,1.0,17.0,1.0,35.0,1.0,317.9923825829992,,,,,,,,,317.9868881250004,319.185384208,319.9770522079998,319.9688137909998,319.96935483299967,319.9770522079998,319.9770522079998,319.9770522079998,,321.77671641599954,,,,,,,,,,,,,,,,,,,,,,,,,,,,,,right,1.0,1.7957081659988037,,,,,sub-157,1,random_dot,121.7678875628845,
right,right,36.0,0.0,18.0,left,0.0,1.9091795409985932,,speed,space,6.351439707001191,,,,,,0.0,0.0,0.0,1.0,18.0,0.0,36.0,1.0,321.8015768330006,,,,,,,,,321.7773874159993,322.57532575000005,323.36749004100056,323.3583122500004,323.35884979100047,323.36749004100056,323.36749004100056,323.36749004100056,,325.28543404099946,,,,,,,,,,,,,,,,,,,,,,,,,,,,,,left,0.0,1.9091795409985932,,,,,sub-157,1,random_dot,121.7678875628845,
left,left,37.0,1.0,18.0,left,1.0,1.93931424999937,,speed,space,6.351439707001191,,,,,,0.0,0.0,0.0,1.0,18.0,1.0,37.0,0.0,325.2936798749997,,,,,,,,,325.2859465830006,326.0750888750008,326.8673280410003,326.8580794999998,326.8585032909996,326.8673280410003,326.8673280410003,326.8673280410003,,328.8805455410002,,,,,,,,,,,,,,,,,,,,,,,,,,,,,,left,1.0,1.93931424999937,,,,,sub-157,1,random_dot,121.7678875628845,
right,right,38.0,0.0,19.0,right,1.0,1.145042331998411,,speed,space,6.351439707001191,,,,,,0.0,0.0,0.0,1.0,19.0,0.0,38.0,1.0,328.8855915000004,,,,,,,,,328.8807298749998,329.67500379100056,330.4675669160006,330.45847862499977,330.4588910000002,330.4675669160006,330.4675669160006,330.4675669160006,,331.61937291600043,,,,,,,,,,,,,,,,,,,,,,,,,,,,,,right,1.0,1.145042331998411,,,,,sub-157,1,random_dot,121.7678875628845,
left,left,39.0,1.0,19.0,right,0.0,1.6198254579994682,,speed,space,6.351439707001191,,,,,,0.0,0.0,0.0,1.0,19.0,1.0,39.0,0.0,331.6281554159996,,,,,,,,,331.62013795799976,331.95834795799965,332.7507418330006,332.74154120799903,332.74195866599985,332.7507418330006,332.7507418330006,332.7507418330006,,334.37722279099944,,,,,,,,,,,,,,,,,,,,,,,,,,,,,,right,0.0,1.6198254579994682,,,,,sub-157,1,random_dot,121.7678875628845,
right,right,40.0,0.0,20.0,left,0.0,2.2976105409998127,,speed,space,6.351439707001191,,,,,,0.0,0.0,0.0,1.0,20.0,0.0,40.0,1.0,334.38606208300007,,,,,,,,,334.37764895799955,334.7251460000007,335.5267962500002,335.51882354100053,335.51925333299914,335.5267962500002,335.5267962500002,335.5267962500002,,337.8266422079996,,,,,,,,,,,,,,,,,,,,,,,,,,,,,,left,0.0,2.2976105409998127,,,,,sub-157,1,random_dot,121.7678875628845,
left,left,41.0,1.0,20.0,right,0.0,2.3539510000009614,,speed,space,6.351439707001191,,,,,,0.0,0.0,0.0,1.0,20.0,1.0,41.0,0.0,337.8342130000001,,,,,,,,,337.82722549999926,338.6252297499996,339.4174170410006,339.4082847080008,339.4087344159998,339.4174170410006,339.4174170410006,339.4174170410006,,341.77613100000053,,,,,,,,,,,,,,,,,,,,,,,,,,,,,,right,0.0,2.3539510000009614,,,,,sub-157,1,random_dot,121.7678875628845,
left,left,42.0,0.0,21.0,right,0.0,2.8258357909999177,,speed,space,6.351439707001191,,,,,,0.0,0.0,0.0,1.0,21.0,0.0,42.0,0.0,341.7850557080001,,,,,,,,,341.77663808299985,342.1241872499995,342.91742420800074,342.9082767910004,342.9087102079993,342.91742420800074,342.91742420800074,342.91742420800074,,345.7526794580008,,,,,,,,,,,,,,,,,,,,,,,,,,,,,,right,0.0,2.8258357909999177,,,,,sub-157,1,random_dot,121.7678875628845,
right,right,43.0,1.0,21.0,left,0.0,2.3341156660007982,,speed,space,6.351439707001191,,,,,,0.0,0.0,0.0,1.0,21.0,1.0,43.0,1.0,345.76158320799914,,,,,,,,,345.75341733300047,346.94192737499907,347.73414616599985,347.7249621659994,347.7254007499996,347.73414616599985,347.73414616599985,347.73414616599985,,350.06991204099904,,,,,,,,,,,,,,,,,,,,,,,,,,,,,,left,0.0,2.3341156660007982,,,,,sub-157,1,random_dot,121.7678875628845,
right,right,44.0,0.0,22.0,left,0.0,2.6491286250002304,,speed,space,6.351439707001191,,,,,,0.0,0.0,0.0,1.0,22.0,0.0,44.0,1.0,350.07608391599933,,,,,,,,,350.0705105409997,350.1688352910005,350.9607369999994,350.9522637909995,350.9527637499996,350.9607369999994,350.9607369999994,350.9607369999994,,353.61971708300007,,,,,,,,,,,,,,,,,,,,,,,,,,,,,,left,0.0,2.6491286250002304,,,,,sub-157,1,random_dot,121.7678875628845,
left,left,45.0,1.0,22.0,left,1.0,2.6719407490018057,,speed,space,6.351439707001191,,,,,,0.0,0.0,0.0,1.0,22.0,1.0,45.0,0.0,353.6286630409995,,,,,,,,,353.6204388749993,354.8088135830003,355.6008977500005,355.5915320410004,355.59195799999907,355.6008977500005,355.6008977500005,355.6008977500005,,358.27741058299944,,,,,,,,,,,,,,,,,,,,,,,,,,,,,,left,1.0,2.6719407490018057,,,,,sub-157,1,random_dot,121.7678875628845,
left,left,46.0,0.0,23.0,right,0.0,2.6569168329988315,,speed,space,6.351439707001191,,,,,,0.0,0.0,0.0,1.0,23.0,0.0,46.0,0.0,358.3017033750002,,,,,,,,,358.27785100000074,358.3764183330004,359.1777793750007,359.1691677079998,359.16967362499963,359.1777793750007,359.1777793750007,359.1777793750007,,361.8428306660008,,,,,,,,,,,,,,,,,,,,,,,,,,,,,,right,0.0,2.6569168329988315,,,,,sub-157,1,random_dot,121.7678875628845,
right,right,47.0,1.0,23.0,right,1.0,3.092018666000513,,speed,space,6.351439707001191,,,,,,0.0,0.0,0.0,1.0,23.0,1.0,47.0,1.0,361.85201383300046,,,,,,,,,361.84343912499935,362.1918384580004,362.9841965830001,362.975015041,362.97542562499984,362.9841965830001,362.9841965830001,362.9841965830001,,366.0853656250001,,,,,,,,,,,,,,,,,,,,,,,,,,,,,,right,1.0,3.092018666000513,,,,,sub-157,1,random_dot,121.7678875628845,
left,left,48.0,0.0,24.0,right,0.0,3.49564724999982,,speed,space,6.351439707001191,,,,,,0.0,0.0,0.0,1.0,24.0,0.0,48.0,0.0,366.0936975829991,,,,,,,,,366.08580558299946,366.42548070799967,367.21751229099937,367.2082479580004,367.2086676660001,367.21751229099937,367.21751229099937,367.21751229099937,,370.7185381250001,,,,,,,,,,,,,,,,,,,,,,,,,,,,,,right,0.0,3.49564724999982,,,,,sub-157,1,random_dot,121.7678875628845,
right,right,49.0,1.0,24.0,left,0.0,1.90790029100026,,speed,space,6.351439707001191,,,,,,0.0,0.0,0.0,1.0,24.0,1.0,49.0,1.0,370.7269972909999,,,,,,,,,370.7190366659997,371.50861291599904,372.3107014159996,372.302417166,372.3029244579993,372.3107014159996,372.3107014159996,372.3107014159996,,374.22758504100057,,,,,,,,,,,,,,,,,,,,,,,,,,,,,,left,0.0,1.90790029100026,,,,,sub-157,1,random_dot,121.7678875628845,
left,left,50.0,0.0,25.0,right,0.0,1.779474916000254,,speed,space,6.351439707001191,,,,,,0.0,0.0,0.0,1.0,25.0,0.0,50.0,0.0,374.2374718329993,,,,,,,,,374.2280893749994,375.02505983300034,375.81749479099926,375.8085008750004,375.8089077910008,375.81749479099926,375.81749479099926,375.81749479099926,,377.6032358329994,,,,,,,,,,,,,,,,,,,,,,,,,,,,,,right,0.0,1.779474916000254,,,,,sub-157,1,random_dot,121.7678875628845,
right,right,51.0,1.0,25.0,left,0.0,1.989586331999817,,speed,space,6.351439707001191,,,,,,0.0,0.0,0.0,1.0,25.0,1.0,51.0,1.0,377.6122037080004,,,,,,,,,377.60378200000014,377.6923172080005,378.4843253750005,378.4754617079998,378.4758749159992,378.4843253750005,378.4843253750005,378.4843253750005,,380.4772002499994,,,,,,,,,,,,,,,,,,,,,,,,,,,,,,left,0.0,1.989586331999817,,,,,sub-157,1,random_dot,121.7678875628845,
left,left,52.0,0.0,26.0,left,1.0,2.9482493739997158,,speed,space,6.351439707001191,,,,,,0.0,0.0,0.0,1.0,26.0,0.0,52.0,0.0,380.50162704099967,,,,,,,,,380.4778449580008,380.5751300409993,381.3675927080003,381.3583666659997,381.3587842079996,381.3675927080003,381.3675927080003,381.3675927080003,,384.3195343749994,,,,,,,,,,,,,,,,,,,,,,,,,,,,,,left,1.0,2.9482493739997158,,,,,sub-157,1,random_dot,121.7678875628845,
right,right,53.0,1.0,26.0,right,1.0,2.581245498999124,,speed,space,6.351439707001191,,,,,,0.0,0.0,0.0,1.0,26.0,1.0,53.0,1.0,384.3259058749991,,,,,,,,,384.3203497499999,385.5087635,386.3101482910006,386.3023004160004,386.30269749999934,386.3101482910006,386.3101482910006,386.3101482910006,,388.8941043750001,,,,,,,,,,,,,,,,,,,,,,,,,,,,,,right,1.0,2.581245498999124,,,,,sub-157,1,random_dot,121.7678875628845,
right,right,54.0,0.0,27.0,right,1.0,2.42898037499981,,speed,space,6.351439707001191,,,,,,0.0,0.0,0.0,1.0,27.0,0.0,54.0,1.0,388.9010208750005,,,,,,,,,388.89484366599936,388.9918991659997,389.78427445799935,389.7751322910008,389.77552029099934,389.78427445799935,389.78427445799935,389.78427445799935,,392.219413666,,,,,,,,,,,,,,,,,,,,,,,,,,,,,,right,1.0,2.42898037499981,,,,,sub-157,1,random_dot,121.7678875628845,
left,left,55.0,1.0,27.0,left,1.0,1.559192125001573,,speed,space,6.351439707001191,,,,,,0.0,0.0,0.0,1.0,27.0,1.0,55.0,0.0,392.22843541600014,,,,,,,,,392.220170999999,393.4087818749995,394.2010795829992,394.1918311249992,394.1924039580008,394.2010795829992,394.2010795829992,394.2010795829992,,395.7695177080004,,,,,,,,,,,,,,,,,,,,,,,,,,,,,,left,1.0,1.559192125001573,,,,,sub-157,1,random_dot,121.7678875628845,
left,left,56.0,0.0,28.0,left,1.0,1.7381924159999471,,speed,space,6.351439707001191,,,,,,0.0,0.0,0.0,1.0,28.0,0.0,56.0,0.0,395.7783002079996,,,,,,,,,395.7702945410001,396.5585948749994,397.3509312499991,397.3418084160003,397.3422018330002,397.3509312499991,397.3509312499991,397.3509312499991,,399.0935264159998,,,,,,,,,,,,,,,,,,,,,,,,,,,,,,left,1.0,1.7381924159999471,,,,,sub-157,1,random_dot,121.7678875628845,
right,right,57.0,1.0,28.0,left,0.0,2.2019641660008347,,speed,space,6.351439707001191,,,,,,0.0,0.0,0.0,1.0,28.0,1.0,57.0,1.0,399.1028168749999,,,,,,,,,399.094126041,399.1948731249995,399.9941782080005,399.9858310830005,399.9863320000004,399.9941782080005,399.9941782080005,399.9941782080005,,402.2027933329992,,,,,,,,,,,,,,,,,,,,,,,,,,,,,,left,0.0,2.2019641660008347,,,,,sub-157,1,random_dot,121.7678875628845,
left,left,58.0,0.0,29.0,left,1.0,2.1164810830014176,,speed,space,6.351439707001191,,,,,,0.0,0.0,0.0,1.0,29.0,0.0,58.0,0.0,402.211564833,,,,,,,,,402.2035289159994,402.2918786249993,403.0844889580003,403.0753392909992,403.07584083300026,403.0844889580003,403.0844889580003,403.0844889580003,,405.2027869159992,,,,,,,,,,,,,,,,,,,,,,,,,,,,,,left,1.0,2.1164810830014176,,,,,sub-157,1,random_dot,121.7678875628845,
right,right,59.0,1.0,29.0,right,1.0,2.1766547489987715,,speed,space,6.351439707001191,,,,,,0.0,0.0,0.0,1.0,29.0,1.0,59.0,1.0,405.20920841599946,,,,,,,,,405.20353354100007,405.2917721249996,406.0843447080006,406.0751840409994,406.0755779579995,406.0843447080006,406.0843447080006,406.0843447080006,,408.27074620799976,,,,,,,,,,,,,,,,,,,,,,,,,,,,,,right,1.0,2.1766547489987715,,,,,sub-157,1,random_dot,121.7678875628845,
,,0.0,0.0,0.0,,,,,speed,space,6.351439707001191,,,,,,0.0,0.0,0.0,1.0,,,,,,,,,,,,,,,,,,,,,,,,,,,,,,,,,,,,,,,,,,,,,,,,,,,,,,,,,,,,sub-157,1,random_dot,121.7678875628845,
right,right,0.0,0.0,0.0,right,1.0,2.44311683199885,,accuracy,space,13.19354516600106,,,,,,0.0,1.0,1.0,0.0,0.0,0.0,0.0,1.0,421.51143979100016,,,,,,,,,421.5023825829994,421.8420625409999,422.6344082079995,422.62531237499934,422.62571204099913,422.6344082079995,422.6344082079995,422.6344082079995,,425.0866103749995,,,,,,,,,,,,,,,,,,,,,,,408.2877991660007,408.29570933300056,408.29570933300056,421.4927735000001,space,13.19354516600106,,right,1.0,2.44311683199885,,,,,sub-157,1,random_dot,121.7678875628845,
left,left,1.0,1.0,0.0,right,0.0,2.2063827910005784,,accuracy,space,13.19354516600106,,,,,,0.0,1.0,1.0,0.0,0.0,1.0,1.0,0.0,425.0954676250003,,,,,,,,,425.0873723330005,425.4256766660001,426.21769074999975,426.20863112500047,426.20902654100064,426.21769074999975,426.21769074999975,426.21769074999975,,428.4272309579992,,,,,,,,,,,,,,,,,,,,,,,,,,,,,,right,0.0,2.2063827910005784,,,,,sub-157,1,random_dot,121.7678875628845,
right,right,2.0,0.0,1.0,left,0.0,1.932317499000419,,accuracy,space,13.19354516600106,,,,,,0.0,1.0,1.0,0.0,1.0,0.0,2.0,1.0,428.43459158299993,,,,,,,,,428.4278391249991,428.5251794579999,429.31772708300014,429.3086225829993,429.3090053329997,429.31772708300014,429.31772708300014,429.31772708300014,,431.2535686249994,,,,,,,,,,,,,,,,,,,,,,,,,,,,,,left,0.0,1.932317499000419,,,,,sub-157,1,random_dot,121.7678875628845,
left,left,3.0,1.0,1.0,right,0.0,1.5824962489987229,,accuracy,space,13.19354516600106,,,,,,0.0,1.0,1.0,0.0,1.0,1.0,3.0,0.0,431.259960333,,,,,,,,,431.2543234999994,432.4524310409997,433.2444204580006,433.2359392500002,433.2364875410003,433.2444204580006,433.2444204580006,433.2444204580006,,434.8367524160003,,,,,,,,,,,,,,,,,,,,,,,,,,,,,,right,0.0,1.5824962489987229,,,,,sub-157,1,random_dot,121.7678875628845,
left,left,4.0,0.0,2.0,right,0.0,1.721945123999831,,accuracy,space,13.19354516600106,,,,,,0.0,1.0,1.0,0.0,2.0,0.0,4.0,0.0,434.84505341600016,,,,,,,,,434.8371896659992,435.6356611659994,436.4279662499994,436.4194529159995,436.41998979100026,436.4279662499994,436.4279662499994,436.4279662499994,,438.1541539160007,,,,,,,,,,,,,,,,,,,,,,,,,,,,,,right,0.0,1.721945123999831,,,,,sub-157,1,random_dot,121.7678875628845,
right,right,5.0,1.0,2.0,left,0.0,2.0383474989994284,,accuracy,space,13.19354516600106,,,,,,0.0,1.0,1.0,0.0,2.0,1.0,5.0,1.0,438.1607444580004,,,,,,,,,438.1549435830002,438.2524615000002,439.044561875,439.0359511660008,439.0364993330004,439.044561875,439.044561875,439.044561875,,441.0870826249993,,,,,,,,,,,,,,,,,,,,,,,,,,,,,,left,0.0,2.0383474989994284,,,,,sub-157,1,random_dot,121.7678875628845,
right,right,6.0,0.0,3.0,right,1.0,2.542807248999452,,accuracy,space,13.19354516600106,,,,,,0.0,1.0,1.0,0.0,3.0,0.0,6.0,1.0,441.0935273750001,,,,,,,,,441.08782995799993,441.1858648329999,441.97799895800017,441.96936979100064,441.96990291600014,441.97799895800017,441.97799895800017,441.97799895800017,,444.52707895799904,,,,,,,,,,,,,,,,,,,,,,,,,,,,,,right,1.0,2.542807248999452,,,,,sub-157,1,random_dot,121.7678875628845,
left,left,7.0,1.0,3.0,right,0.0,1.8619165000000064,,accuracy,space,13.19354516600106,,,,,,0.0,1.0,1.0,0.0,3.0,1.0,7.0,0.0,444.53625691600064,,,,,,,,,444.52767225000025,444.8755140829999,445.66783208299967,445.6587133329994,445.659148875,445.66783208299967,445.66783208299967,445.66783208299967,,447.53644929099937,,,,,,,,,,,,,,,,,,,,,,,,,,,,,,right,0.0,1.8619165000000064,,,,,sub-157,1,random_dot,121.7678875628845,
right,right,8.0,0.0,4.0,right,1.0,1.390485081999941,,accuracy,space,13.19354516600106,,,,,,0.0,1.0,1.0,0.0,4.0,0.0,8.0,1.0,447.5454051659999,,,,,,,,,447.5371874159992,447.6255486659993,448.4178778749993,448.4089764159999,448.4093723330007,448.4178778749993,448.4178778749993,448.4178778749993,,449.811118874999,,,,,,,,,,,,,,,,,,,,,,,,,,,,,,right,1.0,1.390485081999941,,,,,sub-157,1,random_dot,121.7678875628845,
left,left,9.0,1.0,4.0,left,1.0,2.603473291001137,,accuracy,space,13.19354516600106,,,,,,0.0,1.0,1.0,0.0,4.0,1.0,9.0,0.0,449.8180807080007,,,,,,,,,449.8117070000008,450.6089626659996,451.4008131249993,451.3919682079995,451.3923904999992,451.4008131249993,451.4008131249993,451.4008131249993,,454.010384833,,,,,,,,,,,,,,,,,,,,,,,,,,,,,,left,1.0,2.603473291001137,,,,,sub-157,1,random_dot,121.7678875628845,
right,right,10.0,0.0,5.0,right,1.0,1.7330653740009438,,accuracy,space,13.19354516600106,,,,,,0.0,1.0,1.0,0.0,5.0,0.0,10.0,1.0,454.0195157910002,,,,,,,,,454.01095908299976,454.1010838330003,454.89380399999936,454.88600425,454.8864185410002,454.89380399999936,454.89380399999936,454.89380399999936,,456.63564600000063,,,,,,,,,,,,,,,,,,,,,,,,,,,,,,right,1.0,1.7330653740009438,,,,,sub-157,1,random_dot,121.7678875628845,
left,left,11.0,1.0,5.0,left,1.0,2.5259104579999985,,accuracy,space,13.19354516600106,,,,,,0.0,1.0,1.0,0.0,5.0,1.0,11.0,0.0,456.6435475409999,,,,,,,,,456.6360096659992,457.4256442909991,458.2179711249992,458.2086797079992,458.2091837909993,458.2179711249992,458.2179711249992,458.2179711249992,,460.7526931249995,,,,,,,,,,,,,,,,,,,,,,,,,,,,,,left,1.0,2.5259104579999985,,,,,sub-157,1,random_dot,121.7678875628845,
left,left,12.0,0.0,6.0,right,0.0,2.24251620799987,,accuracy,space,13.19354516600106,,,,,,0.0,1.0,1.0,0.0,6.0,0.0,12.0,0.0,460.7609075,,,,,,,,,460.7531808749991,461.0922193749993,461.88450312500026,461.8754658329999,461.8758607079999,461.88450312500026,461.88450312500026,461.88450312500026,,464.1354932499999,,,,,,,,,,,,,,,,,,,,,,,,,,,,,,right,0.0,2.24251620799987,,,,,sub-157,1,random_dot,121.7678875628845,
right,right,13.0,1.0,6.0,right,1.0,3.2064599160003127,,accuracy,space,13.19354516600106,,,,,,0.0,1.0,1.0,0.0,6.0,1.0,13.0,1.0,464.1435330000004,,,,,,,,,464.1359212499992,464.47507658299946,465.2678760830004,465.2587514999996,465.259142416,465.2678760830004,465.2678760830004,465.2678760830004,,468.47657191600047,,,,,,,,,,,,,,,,,,,,,,,,,,,,,,right,1.0,3.2064599160003127,,,,,sub-157,1,random_dot,121.7678875628845,
left,left,14.0,0.0,7.0,left,1.0,1.8681739159983408,,accuracy,space,13.19354516600106,,,,,,0.0,1.0,1.0,0.0,7.0,0.0,14.0,0.0,468.48575433299993,,,,,,,,,468.4771744160007,468.8257102080006,469.6180756659997,469.6089124160008,469.6093098750007,469.6180756659997,469.6180756659997,469.6180756659997,,471.4946689160006,,,,,,,,,,,,,,,,,,,,,,,,,,,,,,left,1.0,1.8681739159983408,,,,,sub-157,1,random_dot,121.7678875628845,
right,right,15.0,1.0,7.0,right,1.0,2.8632028739993984,,accuracy,space,13.19354516600106,,,,,,0.0,1.0,1.0,0.0,7.0,1.0,15.0,1.0,471.51878241600025,,,,,,,,,471.49524587499945,472.29230616600034,473.08466083299936,473.0753489159997,473.0758516250007,473.08466083299936,473.08466083299936,473.08466083299936,,475.9524581250007,,,,,,,,,,,,,,,,,,,,,,,,,,,,,,right,1.0,2.8632028739993984,,,,,sub-157,1,random_dot,121.7678875628845,
left,left,16.0,0.0,8.0,right,0.0,2.356636291000541,,accuracy,space,13.19354516600106,,,,,,0.0,1.0,1.0,0.0,8.0,0.0,16.0,0.0,475.9584488750006,,,,,,,,,475.95301679099975,477.1423825410002,477.9346000829992,477.9254162500001,477.9258179160006,477.9346000829992,477.9346000829992,477.9346000829992,,480.2938155409993,,,,,,,,,,,,,,,,,,,,,,,,,,,,,,right,0.0,2.356636291000541,,,,,sub-157,1,random_dot,121.7678875628845,
right,right,17.0,1.0,8.0,right,1.0,2.809932957001365,,accuracy,space,13.19354516600106,,,,,,0.0,1.0,1.0,0.0,8.0,1.0,17.0,1.0,480.3012198329998,,,,,,,,,480.2945242080005,480.39514837500064,481.1944304999997,481.1859890830001,481.1865340410004,481.1944304999997,481.1944304999997,481.1944304999997,,484.0109538329998,,,,,,,,,,,,,,,,,,,,,,,,,,,,,,right,1.0,2.809932957001365,,,,,sub-157,1,random_dot,121.7678875628845,
left,left,18.0,0.0,9.0,left,1.0,2.8282460409991472,,accuracy,space,13.19354516600106,,,,,,0.0,1.0,1.0,0.0,9.0,0.0,18.0,0.0,484.0195763749998,,,,,,,,,484.01132129100006,484.809079916,485.6021272079997,485.5916971660008,485.59212124999976,485.6021272079997,485.6021272079997,485.6021272079997,,488.4355488750007,,,,,,,,,,,,,,,,,,,,,,,,,,,,,,left,1.0,2.8282460409991472,,,,,sub-157,1,random_dot,121.7678875628845,
right,right,19.0,1.0,9.0,right,1.0,4.077487582999311,,accuracy,space,13.19354516600106,,,,,,0.0,1.0,1.0,0.0,9.0,1.0,19.0,1.0,488.44374704099937,,,,,,,,,488.4360595409999,488.7755418329998,489.56806554099967,489.55878225000015,489.5592785000008,489.56806554099967,489.56806554099967,489.56806554099967,,493.6539391660008,,,,,,,,,,,,,,,,,,,,,,,,,,,,,,right,1.0,4.077487582999311,,,,,sub-157,1,random_dot,121.7678875628845,
right,right,20.0,0.0,10.0,left,0.0,2.8645111239984544,,accuracy,space,13.19354516600106,,,,,,0.0,1.0,1.0,0.0,10.0,0.0,20.0,1.0,493.66251145800015,,,,,,,,,493.6545122499992,494.4526384580004,495.2446294999991,495.2362638750001,495.2368138330002,495.2446294999991,495.2446294999991,495.2446294999991,,498.1106610000006,,,,,,,,,,,,,,,,,,,,,,,,,,,,,,left,0.0,2.8645111239984544,,,,,sub-157,1,random_dot,121.7678875628845,
left,left,21.0,1.0,10.0,right,0.0,2.067429623999488,,accuracy,space,13.19354516600106,,,,,,0.0,1.0,1.0,0.0,10.0,1.0,21.0,0.0,498.11799695800073,,,,,,,,,498.11124974999984,498.4593960000002,499.2516021249994,499.2424129579995,499.2429190830008,499.2516021249994,499.2516021249994,499.2516021249994,,501.3271953749991,,,,,,,,,,,,,,,,,,,,,,,,,,,,,,right,0.0,2.067429623999488,,,,,sub-157,1,random_dot,121.7678875628845,
left,left,22.0,0.0,11.0,left,1.0,2.141921291000472,,accuracy,space,13.19354516600106,,,,,,0.0,1.0,1.0,0.0,11.0,0.0,22.0,0.0,501.3360381250004,,,,,,,,,501.3276184160004,502.1257115410008,502.9191265409991,502.9082674580004,502.9086879160004,502.9191265409991,502.9191265409991,502.9191265409991,,505.0704406660007,,,,,,,,,,,,,,,,,,,,,,,,,,,,,,left,1.0,2.141921291000472,,,,,sub-157,1,random_dot,121.7678875628845,
right,right,23.0,1.0,11.0,right,1.0,2.8173572910000075,,accuracy,space,13.19354516600106,,,,,,0.0,1.0,1.0,0.0,11.0,1.0,23.0,1.0,505.07916516600017,,,,,,,,,505.0710130000007,505.40901920800025,506.2014825410006,506.1921921659996,506.1926936250002,506.2014825410006,506.2014825410006,506.2014825410006,,509.0266773330004,,,,,,,,,,,,,,,,,,,,,,,,,,,,,,right,1.0,2.8173572910000075,,,,,sub-157,1,random_dot,121.7678875628845,
right,right,24.0,0.0,12.0,right,1.0,3.0948496660003,,accuracy,space,13.19354516600106,,,,,,0.0,1.0,1.0,0.0,12.0,0.0,24.0,1.0,509.03584291600055,,,,,,,,,509.0272829999994,509.37587345800057,510.1680687499993,510.1590827910004,510.1594677079993,510.1680687499993,510.1680687499993,510.1680687499993,,513.2697535000007,,,,,,,,,,,,,,,,,,,,,,,,,,,,,,right,1.0,3.0948496660003,,,,,sub-157,1,random_dot,121.7678875628845,
left,left,25.0,1.0,12.0,right,0.0,1.8884114989996303,,accuracy,space,13.19354516600106,,,,,,0.0,1.0,1.0,0.0,12.0,1.0,25.0,0.0,513.2784329999995,,,,,,,,,513.2704861660004,514.4592532909992,515.2514110829998,515.2424222909995,515.2428211250008,515.2514110829998,515.2514110829998,515.2514110829998,,517.1445466250007,,,,,,,,,,,,,,,,,,,,,,,,,,,,,,right,0.0,1.8884114989996303,,,,,sub-157,1,random_dot,121.7678875628845,
left,left,26.0,0.0,13.0,right,0.0,2.821443625000029,,accuracy,space,13.19354516600106,,,,,,0.0,1.0,1.0,0.0,13.0,0.0,26.0,0.0,517.1689291250004,,,,,,,,,517.1451601659992,517.9424578329999,518.7348015829994,518.7256204999994,518.7260161249997,518.7348015829994,518.7348015829994,518.7348015829994,,521.5615296659998,,,,,,,,,,,,,,,,,,,,,,,,,,,,,,right,0.0,2.821443625000029,,,,,sub-157,1,random_dot,121.7678875628845,
right,right,27.0,1.0,13.0,right,1.0,2.383363458000531,,accuracy,space,13.19354516600106,,,,,,0.0,1.0,1.0,0.0,13.0,1.0,27.0,1.0,521.5856088330002,,,,,,,,,521.5619699159997,522.759089707999,523.5514277910006,523.5422922500002,523.5426847910003,523.5514277910006,523.5514277910006,523.5514277910006,,525.9364877080006,,,,,,,,,,,,,,,,,,,,,,,,,,,,,,right,1.0,2.383363458000531,,,,,sub-157,1,random_dot,121.7678875628845,
left,left,28.0,0.0,14.0,left,1.0,2.2112274160008383,,accuracy,space,13.19354516600106,,,,,,0.0,1.0,1.0,0.0,14.0,0.0,28.0,0.0,525.9428552909994,,,,,,,,,525.9372528330005,527.1256765409998,527.9183362080003,527.9091650829996,527.9096793749995,527.9183362080003,527.9183362080003,527.9183362080003,,530.1361137080003,,,,,,,,,,,,,,,,,,,,,,,,,,,,,,left,1.0,2.2112274160008383,,,,,sub-157,1,random_dot,121.7678875628845,
right,right,29.0,1.0,14.0,right,1.0,3.419606499999645,,accuracy,space,13.19354516600106,,,,,,0.0,1.0,1.0,0.0,14.0,1.0,29.0,1.0,530.144206166,,,,,,,,,530.1365634579997,530.2256942500007,531.0180752910001,531.008889666,531.0092712080004,531.0180752910001,531.0180752910001,531.0180752910001,,534.4443887910002,,,,,,,,,,,,,,,,,,,,,,,,,,,,,,right,1.0,3.419606499999645,,,,,sub-157,1,random_dot,121.7678875628845,
right,right,30.0,0.0,15.0,right,1.0,2.308702833001007,,accuracy,space,13.19354516600106,,,,,,0.0,1.0,1.0,0.0,15.0,0.0,30.0,1.0,534.4690556250007,,,,,,,,,534.4450061659991,534.5423945000002,535.3348795410002,535.3256404999993,535.3261416660007,535.3348795410002,535.3348795410002,535.3348795410002,,537.6534040829993,,,,,,,,,,,,,,,,,,,,,,,,,,,,,,right,1.0,2.308702833001007,,,,,sub-157,1,random_dot,121.7678875628845,
left,left,31.0,1.0,15.0,right,0.0,2.410492582999723,,accuracy,space,13.19354516600106,,,,,,0.0,1.0,1.0,0.0,15.0,1.0,31.0,0.0,537.6624187079997,,,,,,,,,537.6541619580003,537.7423060410001,538.5360000000001,538.5250604579996,538.5254743330006,538.5360000000001,538.5360000000001,538.5360000000001,,540.9540542079994,,,,,,,,,,,,,,,,,,,,,,,,,,,,,,right,0.0,2.410492582999723,,,,,sub-157,1,random_dot,121.7678875628845,
left,left,32.0,0.0,16.0,left,1.0,1.8704359579987797,,accuracy,space,13.19354516600106,,,,,,0.0,1.0,1.0,0.0,16.0,0.0,32.0,0.0,540.9628494160006,,,,,,,,,540.9546304579999,541.7527089159994,542.5450473330002,542.5363178749994,542.5368866659992,542.5450473330002,542.5450473330002,542.5450473330002,,544.4209100410008,,,,,,,,,,,,,,,,,,,,,,,,,,,,,,left,1.0,1.8704359579987797,,,,,sub-157,1,random_dot,121.7678875628845,
right,right,33.0,1.0,16.0,left,0.0,2.78972529100065,,accuracy,space,13.19354516600106,,,,,,0.0,1.0,1.0,0.0,16.0,1.0,33.0,1.0,544.4298897909994,,,,,,,,,544.4215645000004,544.5192158329992,545.3116322499991,545.3030400410007,545.3035821659996,545.3116322499991,545.3116322499991,545.3116322499991,,548.1027359159998,,,,,,,,,,,,,,,,,,,,,,,,,,,,,,left,0.0,2.78972529100065,,,,,sub-157,1,random_dot,121.7678875628845,
right,right,34.0,0.0,17.0,left,0.0,2.725988999000037,,accuracy,space,13.19354516600106,,,,,,0.0,1.0,1.0,0.0,17.0,0.0,34.0,1.0,548.1088552910005,,,,,,,,,548.1033188750007,548.892511041,549.6848420000006,549.6757393749995,549.676137208,549.6848420000006,549.6848420000006,549.6848420000006,,552.4194055000007,,,,,,,,,,,,,,,,,,,,,,,,,,,,,,left,0.0,2.725988999000037,,,,,sub-157,1,random_dot,121.7678875628845,
left,left,35.0,1.0,17.0,left,1.0,3.3083244580011524,,accuracy,space,13.19354516600106,,,,,,0.0,1.0,1.0,0.0,17.0,1.0,35.0,0.0,552.4275904999995,,,,,,,,,552.4198989159995,553.2090153329991,554.0015867910006,553.9922832499997,553.9927896249992,554.0015867910006,554.0015867910006,554.0015867910006,,557.3116032079997,,,,,,,,,,,,,,,,,,,,,,,,,,,,,,left,1.0,3.3083244580011524,,,,,sub-157,1,random_dot,121.7678875628845,
right,right,36.0,0.0,18.0,left,0.0,3.2435513740001625,,accuracy,space,13.19354516600106,,,,,,0.0,1.0,1.0,0.0,18.0,0.0,36.0,1.0,557.3182278330005,,,,,,,,,557.3120368750006,557.4095641660006,558.2016586659993,558.1924719159997,558.1928682079997,558.2016586659993,558.2016586659993,558.2016586659993,,561.4532623750001,,,,,,,,,,,,,,,,,,,,,,,,,,,,,,left,0.0,3.2435513740001625,,,,,sub-157,1,random_dot,121.7678875628845,
left,left,37.0,1.0,18.0,right,0.0,1.6431869990010457,,accuracy,space,13.19354516600106,,,,,,0.0,1.0,1.0,0.0,18.0,1.0,37.0,0.0,561.4617302909992,,,,,,,,,561.4538626659996,561.5423234579994,562.3349389159994,562.3258086660007,562.3263047910004,562.3349389159994,562.3349389159994,562.3349389159994,,563.9872988749994,,,,,,,,,,,,,,,,,,,,,,,,,,,,,,right,0.0,1.6431869990010457,,,,,sub-157,1,random_dot,121.7678875628845,
left,left,38.0,0.0,19.0,left,1.0,2.0927468740010227,,accuracy,space,13.19354516600106,,,,,,0.0,1.0,1.0,0.0,19.0,0.0,38.0,0.0,563.9962667910004,,,,,,,,,563.9880246659995,564.3358617499998,565.1282972909994,565.1197245410003,565.1202739159999,565.1282972909994,565.1282972909994,565.1282972909994,,567.2274333749992,,,,,,,,,,,,,,,,,,,,,,,,,,,,,,left,1.0,2.0927468740010227,,,,,sub-157,1,random_dot,121.7678875628845,
right,right,39.0,1.0,19.0,right,1.0,3.3455412910007,,accuracy,space,13.19354516600106,,,,,,0.0,1.0,1.0,0.0,19.0,1.0,39.0,1.0,567.236136083,,,,,,,,,567.22786275,567.5759155409996,568.3681700409998,568.3589883330005,568.3594826249991,568.3681700409998,568.3681700409998,568.3681700409998,,571.7193711250002,,,,,,,,,,,,,,,,,,,,,,,,,,,,,,right,1.0,3.3455412910007,,,,,sub-157,1,random_dot,121.7678875628845,
left,left,40.0,0.0,20.0,left,1.0,2.31597475000126,,accuracy,space,13.19354516600106,,,,,,0.0,1.0,1.0,0.0,20.0,0.0,40.0,0.0,571.7281376659994,,,,,,,,,571.7198837079995,572.0592269999997,572.8515857080001,572.8424643750004,572.8428767080004,572.8515857080001,572.8515857080001,572.8515857080001,,575.1706380830001,,,,,,,,,,,,,,,,,,,,,,,,,,,,,,left,1.0,2.31597475000126,,,,,sub-157,1,random_dot,121.7678875628845,
right,right,41.0,1.0,20.0,right,1.0,2.731913291001547,,accuracy,space,13.19354516600106,,,,,,0.0,1.0,1.0,0.0,20.0,1.0,41.0,1.0,575.1770127500004,,,,,,,,,575.1713930829992,575.9694438749993,576.7616426250006,576.7530323329993,576.7535742500004,576.7616426250006,576.7616426250006,576.7616426250006,,579.5030303330004,,,,,,,,,,,,,,,,,,,,,,,,,,,,,,right,1.0,2.731913291001547,,,,,sub-157,1,random_dot,121.7678875628845,
right,right,42.0,0.0,21.0,left,0.0,2.2301599990005343,,accuracy,space,13.19354516600106,,,,,,0.0,1.0,1.0,0.0,21.0,0.0,42.0,1.0,579.5116974159992,,,,,,,,,579.5036275830007,579.5924852499993,580.3850550410007,580.3756964999993,580.3760772080004,580.3850550410007,580.3850550410007,580.3850550410007,,582.6202800409992,,,,,,,,,,,,,,,,,,,,,,,,,,,,,,left,0.0,2.2301599990005343,,,,,sub-157,1,random_dot,121.7678875628845,
left,left,43.0,1.0,21.0,left,1.0,3.4560123329993075,,accuracy,space,13.19354516600106,,,,,,0.0,1.0,1.0,0.0,21.0,1.0,43.0,0.0,582.6264893749994,,,,,,,,,582.6210221250003,583.808852958,584.6016734999994,584.592481791,584.5928787079993,584.6016734999994,584.6016734999994,584.6016734999994,,588.0608176660007,,,,,,,,,,,,,,,,,,,,,,,,,,,,,,left,1.0,3.4560123329993075,,,,,sub-157,1,random_dot,121.7678875628845,
right,right,44.0,0.0,22.0,left,0.0,4.415025915999649,,accuracy,space,13.19354516600106,,,,,,0.0,1.0,1.0,0.0,22.0,0.0,44.0,1.0,588.0683721250007,,,,,,,,,588.0614148330005,588.8595576249991,589.6516712079992,589.6426269999993,589.6430572080008,589.6516712079992,589.6516712079992,589.6516712079992,,594.0699731660006,,,,,,,,,,,,,,,,,,,,,,,,,,,,,,left,0.0,4.415025915999649,,,,,sub-157,1,random_dot,121.7678875628845,
left,left,45.0,1.0,22.0,right,0.0,2.4159818749994884,,accuracy,space,13.19354516600106,,,,,,0.0,1.0,1.0,0.0,22.0,1.0,45.0,0.0,594.0761456250002,,,,,,,,,594.0706241249991,594.158290583,594.9516427500002,594.9424414999994,594.9428280409993,594.9516427500002,594.9516427500002,594.9516427500002,,597.3717904580008,,,,,,,,,,,,,,,,,,,,,,,,,,,,,,right,0.0,2.4159818749994884,,,,,sub-157,1,random_dot,121.7678875628845,
right,right,46.0,0.0,23.0,left,0.0,1.5315784990016257,,accuracy,space,13.19354516600106,,,,,,0.0,1.0,1.0,0.0,23.0,0.0,46.0,1.0,597.378096082999,,,,,,,,,597.3724584579995,598.1695343329993,598.9619401250002,598.9532577909995,598.9538049160001,598.9619401250002,598.9619401250002,598.9619401250002,,600.5033974159996,,,,,,,,,,,,,,,,,,,,,,,,,,,,,,left,0.0,1.5315784990016257,,,,,sub-157,1,random_dot,121.7678875628845,
left,left,47.0,1.0,23.0,right,0.0,3.287707457999204,,accuracy,space,13.19354516600106,,,,,,0.0,1.0,1.0,0.0,23.0,1.0,47.0,0.0,600.512591749999,,,,,,,,,600.5041877910007,600.8427707909996,601.6349457910001,601.6255257079993,601.6259562079995,601.6349457910001,601.6349457910001,601.6349457910001,,604.9268273750004,,,,,,,,,,,,,,,,,,,,,,,,,,,,,,right,0.0,3.287707457999204,,,,,sub-157,1,random_dot,121.7678875628845,
right,right,48.0,0.0,24.0,left,0.0,1.1061850830010371,,accuracy,space,13.19354516600106,,,,,,0.0,1.0,1.0,0.0,24.0,0.0,48.0,1.0,604.9361755829996,,,,,,,,,604.9274337499992,605.7260878329998,606.5183967079993,606.5093262499995,606.5097465409999,606.5183967079993,606.5183967079993,606.5183967079993,,607.627399125,,,,,,,,,,,,,,,,,,,,,,,,,,,,,,left,0.0,1.1061850830010371,,,,,sub-157,1,random_dot,121.7678875628845,
left,left,49.0,1.0,24.0,left,1.0,1.563005541000166,,accuracy,space,13.19354516600106,,,,,,0.0,1.0,1.0,0.0,24.0,1.0,49.0,0.0,607.6350562080006,,,,,,,,,607.6279854999993,607.9761424579992,608.7685449159999,608.7591731249995,608.7597604580005,608.7685449159999,608.7685449159999,608.7685449159999,,610.336869540999,,,,,,,,,,,,,,,,,,,,,,,,,,,,,,left,1.0,1.563005541000166,,,,,sub-157,1,random_dot,121.7678875628845,
left,left,50.0,0.0,25.0,left,1.0,1.9142715830003,,accuracy,space,13.19354516600106,,,,,,0.0,1.0,1.0,0.0,25.0,0.0,50.0,0.0,610.3432080410003,,,,,,,,,610.3376162500008,611.1260193750004,611.9185617910007,611.9092551249996,611.9097973330008,611.9185617910007,611.9185617910007,611.9185617910007,,613.836970332999,,,,,,,,,,,,,,,,,,,,,,,,,,,,,,left,1.0,1.9142715830003,,,,,sub-157,1,random_dot,121.7678875628845,
right,right,51.0,1.0,25.0,right,1.0,1.7789197910005896,,accuracy,space,13.19354516600106,,,,,,0.0,1.0,1.0,0.0,25.0,1.0,51.0,1.0,613.8430151659995,,,,,,,,,613.837578749999,613.9260595409996,614.7185081249991,614.7093181250002,614.7098602499991,614.7185081249991,614.7185081249991,614.7185081249991,,616.5033117910007,,,,,,,,,,,,,,,,,,,,,,,,,,,,,,right,1.0,1.7789197910005896,,,,,sub-157,1,random_dot,121.7678875628845,
left,left,52.0,0.0,26.0,left,1.0,2.57329316600044,,accuracy,space,13.19354516600106,,,,,,0.0,1.0,1.0,0.0,26.0,0.0,52.0,0.0,616.5117581659997,,,,,,,,,616.5039164999998,617.6932890829994,618.4852494160004,618.4760219580003,618.4765852500004,618.4852494160004,618.4852494160004,618.4852494160004,,621.0619827909995,,,,,,,,,,,,,,,,,,,,,,,,,,,,,,left,1.0,2.57329316600044,,,,,sub-157,1,random_dot,121.7678875628845,
right,right,53.0,1.0,26.0,right,1.0,2.080658916000175,,accuracy,space,13.19354516600106,,,,,,0.0,1.0,1.0,0.0,26.0,1.0,53.0,1.0,621.0691518749991,,,,,,,,,621.062749916,622.2583776249994,623.0517647079996,623.0425821249992,623.0429946660006,623.0517647079996,623.0517647079996,623.0517647079996,,625.1370697080001,,,,,,,,,,,,,,,,,,,,,,,,,,,,,,right,1.0,2.080658916000175,,,,,sub-157,1,random_dot,121.7678875628845,
right,right,54.0,0.0,27.0,left,0.0,2.071922166000149,,accuracy,space,13.19354516600106,,,,,,0.0,1.0,1.0,0.0,27.0,0.0,54.0,1.0,625.1432008329994,,,,,,,,,625.1378130829999,625.4756147080006,626.268414832999,626.2592877909992,626.2596927909999,626.268414832999,626.268414832999,626.268414832999,,628.3446139160005,,,,,,,,,,,,,,,,,,,,,,,,,,,,,,left,0.0,2.071922166000149,,,,,sub-157,1,random_dot,121.7678875628845,
left,left,55.0,1.0,27.0,right,0.0,1.642141750000519,,accuracy,space,13.19354516600106,,,,,,0.0,1.0,1.0,0.0,27.0,1.0,55.0,0.0,628.3537177500002,,,,,,,,,628.345340291,629.5429470830004,630.3351089999996,630.3259450000005,630.3263600409991,630.3351089999996,630.3351089999996,630.3351089999996,,631.9783971659999,,,,,,,,,,,,,,,,,,,,,,,,,,,,,,right,0.0,1.642141750000519,,,,,sub-157,1,random_dot,121.7678875628845,
right,right,56.0,0.0,28.0,left,0.0,1.2488397079996505,,accuracy,space,13.19354516600106,,,,,,0.0,1.0,1.0,0.0,28.0,0.0,56.0,1.0,631.985158083,,,,,,,,,631.9788900000003,632.7756098329992,633.5684148750006,633.5592861660007,633.5597021659996,633.5684148750006,633.5684148750006,633.5684148750006,,634.8207580830003,,,,,,,,,,,,,,,,,,,,,,,,,,,,,,left,0.0,1.2488397079996505,,,,,sub-157,1,random_dot,121.7678875628845,
left,left,57.0,1.0,28.0,right,0.0,3.0481888739996066,,accuracy,space,13.19354516600106,,,,,,0.0,1.0,1.0,0.0,28.0,1.0,57.0,0.0,634.8272784159999,,,,,,,,,634.821525583,634.9198282500001,635.7119513329999,635.7033398330004,635.7038703329999,635.7119513329999,635.7119513329999,635.7119513329999,,638.7618975410005,,,,,,,,,,,,,,,,,,,,,,,,,,,,,,right,0.0,3.0481888739996066,,,,,sub-157,1,random_dot,121.7678875628845,
right,right,58.0,0.0,29.0,right,1.0,1.2863107070006663,,accuracy,space,13.19354516600106,,,,,,0.0,1.0,1.0,0.0,29.0,0.0,58.0,1.0,638.7685293329996,,,,,,,,,638.762337958,639.9593492910008,640.7518427499999,640.7425618329999,640.7429784579999,640.7518427499999,640.7518427499999,640.7518427499999,,642.0436516659993,,,,,,,,,,,,,,,,,,,,,,,,,,,,,,right,1.0,1.2863107070006663,,,,,sub-157,1,random_dot,121.7678875628845,
left,left,59.0,1.0,29.0,right,0.0,3.637100124000426,,accuracy,space,13.19354516600106,,,,,,0.0,1.0,1.0,0.0,29.0,1.0,59.0,0.0,642.0530109579995,,,,,,,,,642.0442642910002,643.2427351660008,644.0351559579995,644.0259452499995,644.0263850829997,644.0351559579995,644.0351559579995,644.0351559579995,,647.6770497500002,,,,,,,,,,,,,,,,,,,,,,,,,,,,,,right,0.0,3.637100124000426,,,,,sub-157,1,random_dot,121.7678875628845,
,,1.0,1.0,0.0,,,,,accuracy,space,13.19354516600106,,,,,,0.0,1.0,1.0,0.0,,,,,,,,,,,,,,,,,,,,,,,,,,,,,,,,,,,,,,,,,,,,,,,,,,,,,,,,,,,,sub-157,1,random_dot,121.7678875628845,
,,,,,,,,,,,,,,,,,,,,,,,,,,,,,,,,,,,,,,,,,,,,,,,,,,,,,,,,,,,,,,,,,,,,,,,,,,,,,647.6837649160007,647.6937495410002,652.6865101250005,sub-157,1,random_dot,121.7678875628845,
