direction,corrAns,thisN,thisTrialN,thisRepN,respDots.keys,respDots.corr,respDots.rt,respDots.duration,randomInstr,respRandomInstr.keys,respRandomInstr.rt,respRandomInstr.duration,practice_trials.thisRepN,practice_trials.thisTrialN,practice_trials.thisN,practice_trials.thisIndex,instr_trials.thisRepN,instr_trials.thisTrialN,instr_trials.thisN,instr_trials.thisIndex,test_trials.thisRepN,test_trials.thisTrialN,test_trials.thisN,test_trials.thisIndex,thisRow.t,notes,general_instruction.started,textGeneralInstr.started,respGeneralInstr.started,general_instruction.stopped,respGeneralInstr.keys,respGeneralInstr.rt,respGeneralInstr.duration,ITI.started,fixcross.started,fixcross.stopped,ITI.stopped,dots.started,backgroundDots.started,stimulusDots.started,respDots.started,stimulusDots.stopped,dots.stopped,practice_trials.respDots.keys,practice_trials.respDots.corr,practice_trials.respDots.rt,practice_trials.respDots.duration,feedback.started,textFeedback.started,feedback.stopped,textFeedback.stopped,info.started,textInfo.started,keyRespInfo.started,info.stopped,keyRespInfo.keys,keyRespInfo.rt,keyRespInfo.duration,test_instruction.started,textTestInstr.started,respTestInstr.started,test_instruction.stopped,respTestInstr.keys,respTestInstr.rt,respTestInstr.duration,random_instruction.started,textRandomInstr.started,respRandomInstr.started,random_instruction.stopped,instr_trials.respRandomInstr.keys,instr_trials.respRandomInstr.rt,instr_trials.respRandomInstr.duration,test_trials.respDots.keys,test_trials.respDots.corr,test_trials.respDots.rt,test_trials.respDots.duration,goodbye.started,textGoodbye.started,goodbye.stopped,participant,session,expName,frameRate,Unnamed: 87
,,,,,,,,,,,,,,,,,,,,,,,,,,,0.0236807220007904,0.048797748000652,0.048797748000652,117.15500605100078,space,116.81328642399968,,,,,,,,,,,,,,,,,,,,,,,,,,,,,,,,,,,,,,,,,,,,,,,,sub-134,1,random_dot,73.6426823323414,
left,left,0.0,0.0,0.0,right,0.0,9.01128848999997,,,,,,0.0,0.0,0.0,0.0,,,,,,,,,117.3679150070002,,,,,,,,,117.35418149100042,117.5039331980006,118.31421226900056,118.29357368,118.2939363990008,118.31421226900056,118.31421226900056,118.31421226900056,123.29357855300076,127.32738931100084,right,0.0,9.01128848999997,,127.3352025990007,127.37127019200034,127.82755390200056,,,,,,,,,,,,,,,,,,,,,,,,,,,,,,sub-134,1,random_dot,73.6426823323414,
right,right,1.0,1.0,0.0,left,0.0,5.490661896999882,,,,,,0.0,1.0,1.0,1.0,,,,,,,,,127.84324788400043,,,,,,,,,127.8278240970003,128.62560545200083,129.4235209920007,129.41214735200083,129.41325425100058,129.4235209920007,129.4235209920007,129.4235209920007,134.4099520360005,134.9271861950001,left,0.0,5.490661896999882,,134.92727810400083,134.93712981500084,135.4266699890004,135.4346812370004,,,,,,,,,,,,,,,,,,,,,,,,,,,,,sub-134,1,random_dot,73.6426823323414,
right,right,2.0,0.0,1.0,right,1.0,8.456972996999866,,,,,,1.0,0.0,2.0,1.0,,,,,,,,,135.4346812370004,,,,,,,,,135.42690736200075,136.22785519900026,137.02589007300048,137.0134255790008,137.013745921,137.02589007300048,137.02589007300048,137.02589007300048,142.01763333100007,145.49199583300015,right,1.0,8.456972996999866,,145.498559097,145.51015826800085,146.00808701700043,,,,,,,,,,,,,,,,,,,,,,,,,,,,,,sub-134,1,random_dot,73.6426823323414,
left,left,3.0,1.0,1.0,right,0.0,3.736783153000033,,,,,,1.0,1.0,3.0,0.0,,,,,,,,,146.02467610000076,,,,,,,,,146.00856073400064,147.1930132870002,147.99066785300056,147.978500919,147.97999570000047,147.99066785300056,147.99066785300056,147.99066785300056,,151.7343829650008,right,0.0,3.736783153000033,,151.73655006300032,151.74803575700025,152.23392881100062,152.24578723800005,,,,,,,,,,,,,,,,,,,,,,,,,,,,,sub-134,1,random_dot,73.6426823323414,
right,right,4.0,0.0,2.0,right,1.0,7.435660686999654,,,,,,2.0,0.0,4.0,1.0,,,,,,,,,152.24578723800005,,,,,,,,,152.23490927200055,152.33436403200085,153.13505229600014,153.12302874600027,153.1243224080008,153.13505229600014,153.13505229600014,153.13505229600014,158.1274441100004,160.58327741200085,right,1.0,7.435660686999654,,160.5856713560006,160.5990785620006,161.08496160200048,,,,,,,,,,,,,,,,,,,,,,,,,,,,,,sub-134,1,random_dot,73.6426823323414,
left,left,5.0,1.0,2.0,right,0.0,9.883078304000264,,,,,,2.0,1.0,5.0,0.0,,,,,,,,,161.09807729300064,,,,,,,,,161.08641441500004,162.29229998900064,163.1092440250004,163.09094053800072,163.09121602900086,163.1092440250004,163.1092440250004,163.1092440250004,168.08540097400055,173.00404236400027,right,0.0,9.883078304000264,,173.00813118600036,173.01754656700086,173.50185646000045,173.52404524400026,,,,,,,,,,,,,,,,,,,,,,,,,,,,,sub-134,1,random_dot,73.6426823323414,
left,left,6.0,0.0,3.0,right,0.0,8.447846852999646,,,,,,3.0,0.0,6.0,0.0,,,,,,,,,173.52404524400026,,,,,,,,,173.5027670670006,174.30320385100003,175.1257125460006,175.10761877000004,175.10810012100046,175.1257125460006,175.1257125460006,175.1257125460006,180.1019771070005,183.59147997200037,right,0.0,8.447846852999646,,183.5915741460003,183.60867315700037,184.1077803730004,,,,,,,,,,,,,,,,,,,,,,,,,,,,,,sub-134,1,random_dot,73.6426823323414,
right,right,7.0,1.0,3.0,right,1.0,7.760455303000526,,,,,,3.0,1.0,7.0,1.0,,,,,,,,,184.1266855970007,,,,,,,,,184.1082306620001,184.89189361100037,185.69768685600047,185.68409495500052,185.68495602200076,185.69768685600047,185.69768685600047,185.69768685600047,190.6850464930003,193.460483719,right,1.0,7.760455303000526,,193.46370995800044,193.47352760400008,193.9668615990004,,,,,,,,,,,,,,,,,,,,,,,,,,,,,,sub-134,1,random_dot,73.6426823323414,
left,left,8.0,0.0,4.0,left,1.0,9.317872562000048,,,,,,4.0,0.0,8.0,0.0,,,,,,,,,193.9755178810001,,,,,,,,,193.9671314560001,195.1613263070003,195.97567185000025,195.9571248780003,195.95760799600063,195.97567185000025,195.97567185000025,195.97567185000025,200.96169534300043,205.30582610700003,left,1.0,9.317872562000048,,205.30597067600047,205.3167990080001,205.80152080900007,205.8234590260008,,,,,,,,,,,,,,,,,,,,,,,,,,,,,sub-134,1,random_dot,73.6426823323414,
right,right,9.0,1.0,4.0,right,1.0,7.330789929000275,,,,,,4.0,1.0,9.0,1.0,,,,,,,,,205.8234590260008,,,,,,,,,205.80241641000063,206.1586822400004,206.95372054000015,206.94255465200055,206.9431027870005,206.95372054000015,206.95372054000015,206.95372054000015,211.93421770400076,214.2930197960004,right,1.0,7.330789929000275,,214.2931127190004,214.3024494170004,214.7909342730009,214.80860147800013,,,,,,,,,,,,,,,,,,,,,,,,,,,,,sub-134,1,random_dot,73.6426823323414,
left,left,10.0,0.0,5.0,right,0.0,8.867796673000157,,,,,,5.0,0.0,10.0,0.0,,,,,,,,,214.80860147800013,,,,,,,,,214.7913679990006,215.1420024910003,215.9401143810001,215.9278382080001,215.9291600200004,215.9401143810001,215.9401143810001,215.9401143810001,220.9240847910005,224.8122541120001,right,0.0,8.867796673000157,,224.8158541230005,224.82609174900065,225.31341017400064,,,,,,,,,,,,,,,,,,,,,,,,,,,,,,sub-134,1,random_dot,73.6426823323414,
right,right,11.0,1.0,5.0,right,1.0,5.804918851999901,,,,,,5.0,1.0,11.0,1.0,,,,,,,,,225.32502894700065,,,,,,,,,225.31367919900003,226.5098594820001,227.315181037,227.30372196200005,227.3048109480005,227.315181037,227.315181037,227.315181037,232.310420369,233.12631990200043,right,1.0,5.804918851999901,,233.1285762360003,233.13812778700049,233.6241182620006,233.64163390800056,,,,,,,,,,,,,,,,,,,,,,,,,,,,,sub-134,1,random_dot,73.6426823323414,
left,left,12.0,0.0,6.0,left,1.0,5.5607684659999,,,,,,6.0,0.0,12.0,0.0,,,,,,,,,233.64163390800056,,,,,,,,,233.62441349100027,233.7298625380008,234.5417619760001,234.5235486320007,234.5239159530001,234.5417619760001,234.5417619760001,234.5417619760001,239.52700407400064,240.10810524500084,left,1.0,5.5607684659999,,240.1082499830009,240.12338760700004,240.6141668970004,,,,,,,,,,,,,,,,,,,,,,,,,,,,,,sub-134,1,random_dot,73.6426823323414,
right,right,13.0,1.0,6.0,right,1.0,4.387050728000759,,,,,,6.0,1.0,13.0,1.0,,,,,,,,,240.62541186400085,,,,,,,,,240.61460583400003,240.95110789700084,241.75789024700043,241.74451959200087,241.7447914800005,241.75789024700043,241.75789024700043,241.75789024700043,,246.156443199,right,1.0,4.387050728000759,,246.1567212550008,246.167713201,246.6511580010001,246.66348435200047,,,,,,,,,,,,,,,,,,,,,,,,,,,,,sub-134,1,random_dot,73.6426823323414,
right,right,14.0,0.0,7.0,left,0.0,6.738807992000147,,,,,,7.0,0.0,14.0,1.0,,,,,,,,,246.66348435200047,,,,,,,,,246.6522672650008,246.758113549,247.55466687900025,247.5430289190008,247.54410092500075,247.55466687900025,247.55466687900025,247.55466687900025,252.5474861900002,254.3032923390001,left,0.0,6.738807992000147,,254.30723633700015,254.31676115200025,254.80825688300047,,,,,,,,,,,,,,,,,,,,,,,,,,,,,,sub-134,1,random_dot,73.6426823323414,
left,left,15.0,1.0,7.0,right,0.0,3.178208191999147,,,,,,7.0,1.0,15.0,0.0,,,,,,,,,254.81712086700009,,,,,,,,,254.8086931280004,255.60770290500025,256.41925917500066,256.40836007800044,256.4088348690002,256.41925917500066,256.41925917500066,256.41925917500066,,259.6042507730008,right,0.0,3.178208191999147,,259.60443317500085,259.6150832020003,260.10809539300044,,,,,,,,,,,,,,,,,,,,,,,,,,,,,,sub-134,1,random_dot,73.6426823323414,
right,right,16.0,0.0,8.0,right,1.0,5.471833691999564,,,,,,8.0,0.0,16.0,1.0,,,,,,,,,260.11644018600055,,,,,,,,,260.108410283,260.4746005740008,261.2912653450003,261.2732714410004,261.2737431840005,261.2912653450003,261.2912653450003,261.2912653450003,266.2754054220004,266.77519009800017,right,1.0,5.471833691999564,,266.7774106620009,266.7867465510008,267.27594743400005,,,,,,,,,,,,,,,,,,,,,,,,,,,,,,sub-134,1,random_dot,73.6426823323414,
left,left,17.0,1.0,8.0,right,0.0,5.546889451999959,,,,,,8.0,1.0,17.0,0.0,,,,,,,,,267.29111562600065,,,,,,,,,267.2763667240006,268.47669797600065,269.2763932600001,269.26608162200046,269.2665369710003,269.2763932600001,269.2763932600001,269.2763932600001,274.27467195700046,274.8417697110008,right,0.0,5.546889451999959,,274.8441264980001,274.85558920400035,275.341192119,275.34911327900045,,,,,,,,,,,,,,,,,,,,,,,,,,,,,sub-134,1,random_dot,73.6426823323414,
right,right,18.0,0.0,9.0,right,1.0,5.846543128999656,,,,,,9.0,0.0,18.0,1.0,,,,,,,,,275.34911327900045,,,,,,,,,275.34142861000055,276.533229658,277.3412303520008,277.32703820500046,277.3274000830006,277.3412303520008,277.3412303520008,277.3412303520008,282.3243223120008,283.1985436040004,right,1.0,5.846543128999656,,283.20083560400053,283.21297021600003,283.70787938100057,,,,,,,,,,,,,,,,,,,,,,,,,,,,,,sub-134,1,random_dot,73.6426823323414,
left,left,19.0,1.0,9.0,left,1.0,7.446377551999831,,,,,,9.0,1.0,19.0,0.0,,,,,,,,,283.7163530530006,,,,,,,,,283.70821846800027,283.7928730900003,284.5974045210005,284.5837683310001,284.5850641700008,284.5974045210005,284.5974045210005,284.5974045210005,289.5804981020001,292.0586232570004,left,1.0,7.446377551999831,,292.0587572840004,292.0691235160002,292.5582280190001,292.5689336280002,,,,,,,,,,,,,,,,,,,,,,,,,,,,,sub-134,1,random_dot,73.6426823323414,
,,,,,,,,,,,,,,,,,,,,,,,,,,,,,,,,,,,,,,,,,,,,,,,,,,,,292.5583701760006,292.5689336280002,292.5689336280002,299.65202083700024,space,7.072404911000376,,,,,,,,,,,,,,,,,,,,,,,sub-134,1,random_dot,73.6426823323414,
,,,,,,,,,,,,,,,,,,,,,,,,,,,,,,,,,,,,,,,,,,,,,,,,,,,,,,,,,,,299.65209455400054,299.6652975940005,299.6652975940005,305.3583144240001,space,5.681069854999805,,,,,,,,,,,,,,,,sub-134,1,random_dot,73.6426823323414,
left,left,0.0,0.0,0.0,right,0.0,2.375417485000071,,speed,space,2.914897814000142,,,,,,0.0,0.0,0.0,1.0,0.0,0.0,0.0,0.0,308.335482855,,,,,,,,,308.3248574730005,308.4134238530005,309.2170805570004,309.20707686100013,309.20735848800086,309.2170805570004,309.2170805570004,309.2170805570004,,311.60264081900004,,,,,,,,,,,,,,,,,,,,,,,305.3802963200005,305.3911490980008,305.3911490980008,308.3165740410004,space,2.914897814000142,,right,0.0,2.375417485000071,,,,,sub-134,1,random_dot,73.6426823323414,
right,right,1.0,1.0,0.0,right,1.0,2.985491348999858,,speed,space,2.914897814000142,,,,,,0.0,0.0,0.0,1.0,0.0,1.0,1.0,1.0,311.6135689350004,,,,,,,,,311.60312150200025,311.7156411420001,312.51295950500025,312.5004860380004,312.5014931520009,312.51295950500025,312.51295950500025,312.51295950500025,,315.50308455100003,,,,,,,,,,,,,,,,,,,,,,,,,,,,,,right,1.0,2.985491348999858,,,,,sub-134,1,random_dot,73.6426823323414,
right,right,2.0,0.0,1.0,left,0.0,5.443639598999653,,speed,space,2.914897814000142,,,,,,0.0,0.0,0.0,1.0,1.0,0.0,2.0,1.0,315.51312343800055,,,,,,,,,315.50367245800044,316.69638734100045,317.5008702100004,317.4909330650007,317.4913068160004,317.5008702100004,317.5008702100004,317.5008702100004,322.491984192,322.9481011890002,,,,,,,,,,,,,,,,,,,,,,,,,,,,,,left,0.0,5.443639598999653,,,,,sub-134,1,random_dot,73.6426823323414,
left,left,3.0,1.0,1.0,right,0.0,3.4393893950000347,,speed,space,2.914897814000142,,,,,,0.0,0.0,0.0,1.0,1.0,1.0,3.0,0.0,322.95762524100064,,,,,,,,,322.9485861000003,323.2950423170005,324.09193770600086,324.08104986500075,324.08207709900034,324.09193770600086,324.09193770600086,324.09193770600086,,327.5446425470009,,,,,,,,,,,,,,,,,,,,,,,,,,,,,,right,0.0,3.4393893950000347,,,,,sub-134,1,random_dot,73.6426823323414,
left,left,4.0,0.0,2.0,right,0.0,1.9486130909999704,,speed,space,2.914897814000142,,,,,,0.0,0.0,0.0,1.0,2.0,0.0,4.0,0.0,327.5542456350004,,,,,,,,,327.54512394500034,327.896562336,328.6972980770006,328.68404989400005,328.6853844530005,328.6972980770006,328.6972980770006,328.6972980770006,,330.651012458,,,,,,,,,,,,,,,,,,,,,,,,,,,,,,right,0.0,1.9486130909999704,,,,,sub-134,1,random_dot,73.6426823323414,
right,right,5.0,1.0,2.0,left,0.0,5.155927712000448,,speed,space,2.914897814000142,,,,,,0.0,0.0,0.0,1.0,2.0,1.0,5.0,1.0,330.66166703600084,,,,,,,,,330.6519246150001,330.99440067200067,331.79954066200025,331.7902175040008,331.790489084,331.79954066200025,331.79954066200025,331.79954066200025,336.78281623900057,336.96262192200084,,,,,,,,,,,,,,,,,,,,,,,,,,,,,,left,0.0,5.155927712000448,,,,,sub-134,1,random_dot,73.6426823323414,
right,right,6.0,0.0,3.0,right,1.0,4.087512943999172,,speed,space,2.914897814000142,,,,,,0.0,0.0,0.0,1.0,3.0,0.0,6.0,1.0,336.9732488090003,,,,,,,,,336.96317835900027,338.1657230620003,338.9669679100007,338.9545680600004,338.9558882430001,338.9669679100007,338.9669679100007,338.9669679100007,,343.0668056280001,,,,,,,,,,,,,,,,,,,,,,,,,,,,,,right,1.0,4.087512943999172,,,,,sub-134,1,random_dot,73.6426823323414,
left,left,7.0,1.0,3.0,left,1.0,3.970158037999681,,speed,space,2.914897814000142,,,,,,0.0,0.0,0.0,1.0,3.0,1.0,7.0,0.0,343.0798216840003,,,,,,,,,343.0672421220006,343.86345838000034,344.6594318990001,344.6485467000002,344.6494042920003,344.6594318990001,344.6594318990001,344.6594318990001,,348.6411200880002,,,,,,,,,,,,,,,,,,,,,,,,,,,,,,left,1.0,3.970158037999681,,,,,sub-134,1,random_dot,73.6426823323414,
right,right,8.0,0.0,4.0,left,0.0,5.527520452999852,,speed,space,2.914897814000142,,,,,,0.0,0.0,0.0,1.0,4.0,0.0,8.0,1.0,348.6507783890001,,,,,,,,,348.64158258500083,348.9902596390002,349.78439215900016,349.7738249720005,349.77428309900006,349.78439215900016,349.78439215900016,349.78439215900016,354.7886750590005,355.3186329170003,,,,,,,,,,,,,,,,,,,,,,,,,,,,,,left,0.0,5.527520452999852,,,,,sub-134,1,random_dot,73.6426823323414,
left,left,9.0,1.0,4.0,left,1.0,4.983597923000161,,speed,space,2.914897814000142,,,,,,0.0,0.0,0.0,1.0,4.0,1.0,9.0,0.0,355.3286536140004,,,,,,,,,355.31912641300005,355.6624756010005,356.4564232500006,356.4461969310005,356.4464899880004,356.4564232500006,356.4564232500006,356.4564232500006,361.4418103500002,361.4428672230006,,,,,,,,,,,,,,,,,,,,,,,,,,,,,,left,1.0,4.983597923000161,,,,,sub-134,1,random_dot,73.6426823323414,
right,right,10.0,0.0,5.0,right,1.0,1.0511422330000642,,speed,space,2.914897814000142,,,,,,0.0,0.0,0.0,1.0,5.0,0.0,10.0,1.0,361.45656580600007,,,,,,,,,361.4433031540002,362.6510467340004,363.4495456730001,363.4399929660003,363.44026929200027,363.4495456730001,363.4495456730001,363.4495456730001,,364.5112806250008,,,,,,,,,,,,,,,,,,,,,,,,,,,,,,right,1.0,1.0511422330000642,,,,,sub-134,1,random_dot,73.6426823323414,
left,left,11.0,1.0,5.0,left,1.0,0.8183202949994666,,speed,space,2.914897814000142,,,,,,0.0,0.0,0.0,1.0,5.0,1.0,11.0,0.0,364.5212039400003,,,,,,,,,364.5118618270008,365.708213807,366.5163639520006,366.5067208480005,366.5071393390008,366.5163639520006,366.5163639520006,366.5163639520006,,367.348178659,,,,,,,,,,,,,,,,,,,,,,,,,,,,,,left,1.0,0.8183202949994666,,,,,sub-134,1,random_dot,73.6426823323414,
left,left,12.0,0.0,6.0,right,0.0,0.7793378119995396,,speed,space,2.914897814000142,,,,,,0.0,0.0,0.0,1.0,6.0,0.0,12.0,0.0,367.3577230180008,,,,,,,,,367.348493988,368.5461409470008,369.34746015200017,369.332844517,369.3338719440008,369.34746015200017,369.34746015200017,369.34746015200017,,370.135166219,,,,,,,,,,,,,,,,,,,,,,,,,,,,,,right,0.0,0.7793378119995396,,,,,sub-134,1,random_dot,73.6426823323414,
right,right,13.0,1.0,6.0,left,0.0,1.3559303129995897,,speed,space,2.914897814000142,,,,,,0.0,0.0,0.0,1.0,6.0,1.0,13.0,1.0,370.1459724920005,,,,,,,,,370.13564411100015,370.22958140300034,371.0396602140008,371.0220413920006,371.02250663700033,371.0396602140008,371.0396602140008,371.0396602140008,,372.4061266610006,,,,,,,,,,,,,,,,,,,,,,,,,,,,,,left,0.0,1.3559303129995897,,,,,sub-134,1,random_dot,73.6426823323414,
right,right,14.0,0.0,7.0,right,1.0,0.6732193719999486,,speed,space,2.914897814000142,,,,,,0.0,0.0,0.0,1.0,7.0,0.0,14.0,1.0,372.4165959290003,,,,,,,,,372.4065823690007,373.2155414180006,374.0230287500008,374.0082290250002,374.0085590320005,374.0230287500008,374.0230287500008,374.0230287500008,,374.7086497910004,,,,,,,,,,,,,,,,,,,,,,,,,,,,,,right,1.0,0.6732193719999486,,,,,sub-134,1,random_dot,73.6426823323414,
left,left,15.0,1.0,7.0,right,0.0,2.754011377000097,,speed,space,2.914897814000142,,,,,,0.0,0.0,0.0,1.0,7.0,1.0,15.0,0.0,374.71831181000016,,,,,,,,,374.7091592720008,375.5077460930006,376.3232494860004,376.3051677370004,376.3056393710003,376.3232494860004,376.3232494860004,376.3232494860004,,379.0850905720008,,,,,,,,,,,,,,,,,,,,,,,,,,,,,,right,0.0,2.754011377000097,,,,,sub-134,1,random_dot,73.6426823323414,
left,left,16.0,0.0,8.0,right,0.0,3.743420452999999,,speed,space,2.914897814000142,,,,,,0.0,0.0,0.0,1.0,8.0,0.0,16.0,0.0,379.0958326670007,,,,,,,,,379.0857098890001,380.28386047800086,381.0872629580008,381.0754647880003,381.076758704,381.0872629580008,381.0872629580008,381.0872629580008,,384.8364432190001,,,,,,,,,,,,,,,,,,,,,,,,,,,,,,right,0.0,3.743420452999999,,,,,sub-134,1,random_dot,73.6426823323414,
right,right,17.0,1.0,8.0,right,1.0,1.3596227879997969,,speed,space,2.914897814000142,,,,,,0.0,0.0,0.0,1.0,8.0,1.0,17.0,1.0,384.847224569,,,,,,,,,384.83731194100073,385.6397084070004,386.4375864880003,386.4259063260006,386.42697592700006,386.4375864880003,386.4375864880003,386.4375864880003,,387.8074745140002,,,,,,,,,,,,,,,,,,,,,,,,,,,,,,right,1.0,1.3596227879997969,,,,,sub-134,1,random_dot,73.6426823323414,
left,left,18.0,0.0,9.0,left,1.0,3.853868223999598,,speed,space,2.914897814000142,,,,,,0.0,0.0,0.0,1.0,9.0,0.0,18.0,0.0,387.8178280030006,,,,,,,,,387.8079801210006,387.9090405370007,388.71184120900034,388.698968275,388.6998306690002,388.71184120900034,388.71184120900034,388.71184120900034,,392.5741715450004,,,,,,,,,,,,,,,,,,,,,,,,,,,,,,left,1.0,3.853868223999598,,,,,sub-134,1,random_dot,73.6426823323414,
right,right,19.0,1.0,9.0,left,0.0,4.521733490999395,,speed,space,2.914897814000142,,,,,,0.0,0.0,0.0,1.0,9.0,1.0,19.0,1.0,392.5833886550008,,,,,,,,,392.57463295900016,393.7725526760005,394.56643790900034,394.5560671380008,394.556457353,394.56643790900034,394.56643790900034,394.56643790900034,,399.0942646760004,,,,,,,,,,,,,,,,,,,,,,,,,,,,,,left,0.0,4.521733490999395,,,,,sub-134,1,random_dot,73.6426823323414,
left,left,20.0,0.0,10.0,right,0.0,1.5124712679998993,,speed,space,2.914897814000142,,,,,,0.0,0.0,0.0,1.0,10.0,0.0,20.0,0.0,399.1039338710007,,,,,,,,,399.0947461840005,399.44589304000056,400.2546779460008,400.23141287400085,400.2324101490003,400.2546779460008,400.2546779460008,400.2546779460008,,401.7693231370004,,,,,,,,,,,,,,,,,,,,,,,,,,,,,,right,0.0,1.5124712679998993,,,,,sub-134,1,random_dot,73.6426823323414,
right,right,21.0,1.0,10.0,left,0.0,3.786848732000181,,speed,space,2.914897814000142,,,,,,0.0,0.0,0.0,1.0,10.0,1.0,21.0,1.0,401.7789627320008,,,,,,,,,401.7701004570008,402.1222493150008,402.9181235680008,402.905664336,402.9068946980005,402.9181235680008,402.9181235680008,402.9181235680008,,406.7105817040001,,,,,,,,,,,,,,,,,,,,,,,,,,,,,,left,0.0,3.786848732000181,,,,,sub-134,1,random_dot,73.6426823323414,
left,left,22.0,0.0,11.0,right,0.0,4.86152596500051,,speed,space,2.914897814000142,,,,,,0.0,0.0,0.0,1.0,11.0,0.0,22.0,0.0,406.723593187,,,,,,,,,406.7110484800005,406.80958730900056,407.61695124200014,407.6064039470002,407.60686982600055,407.61695124200014,407.61695124200014,407.61695124200014,,412.4812922580004,,,,,,,,,,,,,,,,,,,,,,,,,,,,,,right,0.0,4.86152596500051,,,,,sub-134,1,random_dot,73.6426823323414,
right,right,23.0,1.0,11.0,left,0.0,0.8794386780000423,,speed,space,2.914897814000142,,,,,,0.0,0.0,0.0,1.0,11.0,1.0,23.0,1.0,412.4902602330003,,,,,,,,,412.4817189560008,413.2821426010005,414.0827559090003,414.072890812,414.0732555060004,414.0827559090003,414.0827559090003,414.0827559090003,,414.9739673610002,,,,,,,,,,,,,,,,,,,,,,,,,,,,,,left,0.0,0.8794386780000423,,,,,sub-134,1,random_dot,73.6426823323414,
left,left,24.0,0.0,12.0,left,1.0,2.6979956719997062,,speed,space,2.914897814000142,,,,,,0.0,0.0,0.0,1.0,12.0,0.0,24.0,0.0,414.984406906,,,,,,,,,414.9744359600009,415.0691559520001,415.8673065390003,415.8561340450005,415.8565973480008,415.8673065390003,415.8673065390003,415.8673065390003,,418.5739296720003,,,,,,,,,,,,,,,,,,,,,,,,,,,,,,left,1.0,2.6979956719997062,,,,,sub-134,1,random_dot,73.6426823323414,
right,right,25.0,1.0,12.0,right,1.0,4.462121138999464,,speed,space,2.914897814000142,,,,,,0.0,0.0,0.0,1.0,12.0,1.0,25.0,1.0,418.5836639060008,,,,,,,,,418.5743912920007,419.36824267800057,420.1738019200002,420.1628453150006,420.1633289760002,420.1738019200002,420.1738019200002,420.1738019200002,,424.6486797360003,,,,,,,,,,,,,,,,,,,,,,,,,,,,,,right,1.0,4.462121138999464,,,,,sub-134,1,random_dot,73.6426823323414,
right,right,26.0,0.0,13.0,right,1.0,6.0572496479999245,,speed,space,2.914897814000142,,,,,,0.0,0.0,0.0,1.0,13.0,0.0,26.0,1.0,424.660688205,,,,,,,,,424.64912313700006,424.7452147800004,425.5557163520007,425.537274284,425.5377090310003,425.5557163520007,425.5557163520007,425.5557163520007,430.5393187340005,431.6160279630003,,,,,,,,,,,,,,,,,,,,,,,,,,,,,,right,1.0,6.0572496479999245,,,,,sub-134,1,random_dot,73.6426823323414,
left,left,27.0,1.0,13.0,left,1.0,3.3701906400001462,,speed,space,2.914897814000142,,,,,,0.0,0.0,0.0,1.0,13.0,1.0,27.0,0.0,431.6282702190001,,,,,,,,,431.6164053800003,432.4224791180004,433.2195233410002,433.2078076270009,433.20939976500085,433.2195233410002,433.2195233410002,433.2195233410002,,436.5916969180007,,,,,,,,,,,,,,,,,,,,,,,,,,,,,,left,1.0,3.3701906400001462,,,,,sub-134,1,random_dot,73.6426823323414,
right,right,28.0,0.0,14.0,right,1.0,3.950149975000386,,speed,space,2.914897814000142,,,,,,0.0,0.0,0.0,1.0,14.0,0.0,28.0,1.0,436.60050022000087,,,,,,,,,436.5921629550003,437.7951819530008,438.6000245470004,438.5894203340004,438.5898831590002,438.6000245470004,438.6000245470004,438.6000245470004,,442.5536114650004,,,,,,,,,,,,,,,,,,,,,,,,,,,,,,right,1.0,3.950149975000386,,,,,sub-134,1,random_dot,73.6426823323414,
left,left,29.0,1.0,14.0,right,0.0,3.499629183000252,,speed,space,2.914897814000142,,,,,,0.0,0.0,0.0,1.0,14.0,1.0,29.0,0.0,442.56288266000047,,,,,,,,,442.554241889,443.3717833220008,444.1886377740002,444.17070361100014,444.171016407,444.1886377740002,444.1886377740002,444.1886377740002,,447.6934047750001,,,,,,,,,,,,,,,,,,,,,,,,,,,,,,right,0.0,3.499629183000252,,,,,sub-134,1,random_dot,73.6426823323414,
left,left,30.0,0.0,15.0,right,0.0,5.310375731000022,,speed,space,2.914897814000142,,,,,,0.0,0.0,0.0,1.0,15.0,0.0,30.0,0.0,447.7052932180004,,,,,,,,,447.6938487410007,448.49120853300064,449.2985958400004,449.2890991260001,449.2893716480002,449.2985958400004,449.2985958400004,449.2985958400004,454.28989086100046,454.618090594,,,,,,,,,,,,,,,,,,,,,,,,,,,,,,right,0.0,5.310375731000022,,,,,sub-134,1,random_dot,73.6426823323414,
right,right,31.0,1.0,15.0,right,1.0,2.7447601229996508,,speed,space,2.914897814000142,,,,,,0.0,0.0,0.0,1.0,15.0,1.0,31.0,1.0,454.6285100720006,,,,,,,,,454.61899262100087,454.9693202430008,455.7726682230005,455.7617207370004,455.762129531,455.7726682230005,455.7726682230005,455.7726682230005,,458.52298051900016,,,,,,,,,,,,,,,,,,,,,,,,,,,,,,right,1.0,2.7447601229996508,,,,,sub-134,1,random_dot,73.6426823323414,
right,right,32.0,0.0,16.0,right,1.0,5.447780722999596,,speed,space,2.914897814000142,,,,,,0.0,0.0,0.0,1.0,16.0,0.0,32.0,1.0,458.53224321200014,,,,,,,,,458.5234969540006,459.7184743380003,460.5385812760005,460.5204150460004,460.5207218360001,460.5385812760005,460.5385812760005,460.5385812760005,465.5286489790005,465.9911806960008,,,,,,,,,,,,,,,,,,,,,,,,,,,,,,right,1.0,5.447780722999596,,,,,sub-134,1,random_dot,73.6426823323414,
left,left,33.0,1.0,16.0,right,0.0,1.5533465829994384,,speed,space,2.914897814000142,,,,,,0.0,0.0,0.0,1.0,16.0,1.0,33.0,0.0,465.9999183440004,,,,,,,,,465.991750483,467.20492696900055,468.0013423250002,467.9882659390005,467.9894918140008,468.0013423250002,468.0013423250002,468.0013423250002,,469.5560821400004,,,,,,,,,,,,,,,,,,,,,,,,,,,,,,right,0.0,1.5533465829994384,,,,,sub-134,1,random_dot,73.6426823323414,
left,left,34.0,0.0,17.0,left,1.0,0.9015034940002806,,speed,space,2.914897814000142,,,,,,0.0,0.0,0.0,1.0,17.0,0.0,34.0,0.0,469.5651614460003,,,,,,,,,469.5568595070008,469.6567202790002,470.4571718800007,470.4458526380004,470.4469695430007,470.4571718800007,470.4571718800007,470.4571718800007,,471.36162081400016,,,,,,,,,,,,,,,,,,,,,,,,,,,,,,left,1.0,0.9015034940002806,,,,,sub-134,1,random_dot,73.6426823323414,
right,right,35.0,1.0,17.0,left,0.0,1.0823803860002954,,speed,space,2.914897814000142,,,,,,0.0,0.0,0.0,1.0,17.0,1.0,35.0,1.0,471.3739124350004,,,,,,,,,471.3619547360004,472.57004019500073,473.3673680510001,473.3549841150007,473.3561966780008,473.3673680510001,473.3673680510001,473.3673680510001,,474.4629236820001,,,,,,,,,,,,,,,,,,,,,,,,,,,,,,left,0.0,1.0823803860002954,,,,,sub-134,1,random_dot,73.6426823323414,
left,left,36.0,0.0,18.0,right,0.0,1.0036920990005456,,speed,space,2.914897814000142,,,,,,0.0,0.0,0.0,1.0,18.0,0.0,36.0,0.0,474.47312290800073,,,,,,,,,474.4633726540005,474.81327846600016,475.6212521970001,475.6036058470008,475.6040092770008,475.6212521970001,475.6212521970001,475.6212521970001,,476.6345373480008,,,,,,,,,,,,,,,,,,,,,,,,,,,,,,right,0.0,1.0036920990005456,,,,,sub-134,1,random_dot,73.6426823323414,
right,right,37.0,1.0,18.0,left,0.0,0.6641783129998657,,speed,space,2.914897814000142,,,,,,0.0,0.0,0.0,1.0,18.0,1.0,37.0,1.0,476.6449938810001,,,,,,,,,476.63506763400073,476.7383895870007,477.5318317990004,477.52200845900006,477.5223820990004,477.5318317990004,477.5318317990004,477.5318317990004,,478.2100141610008,,,,,,,,,,,,,,,,,,,,,,,,,,,,,,left,0.0,0.6641783129998657,,,,,sub-134,1,random_dot,73.6426823323414,
right,right,38.0,0.0,19.0,right,1.0,0.7142164050001156,,speed,space,2.914897814000142,,,,,,0.0,0.0,0.0,1.0,19.0,0.0,38.0,1.0,478.2200303670006,,,,,,,,,478.2105581580008,478.3217427280006,479.13849130000017,479.1203122000006,479.1207811440008,479.13849130000017,479.13849130000017,479.13849130000017,,479.8596445070007,,,,,,,,,,,,,,,,,,,,,,,,,,,,,,right,1.0,0.7142164050001156,,,,,sub-134,1,random_dot,73.6426823323414,
left,left,39.0,1.0,19.0,left,1.0,1.311710148000202,,speed,space,2.914897814000142,,,,,,0.0,0.0,0.0,1.0,19.0,1.0,39.0,0.0,479.8694931710006,,,,,,,,,479.8601025610005,480.66031474100055,481.461807054,481.4494354390008,481.45065722900017,481.461807054,481.461807054,481.461807054,,482.7791727410004,,,,,,,,,,,,,,,,,,,,,,,,,,,,,,left,1.0,1.311710148000202,,,,,sub-134,1,random_dot,73.6426823323414,
left,left,40.0,0.0,20.0,left,1.0,0.94249361600032,,speed,space,2.914897814000142,,,,,,0.0,0.0,0.0,1.0,20.0,0.0,40.0,0.0,482.788775774,,,,,,,,,482.77962863500034,482.8786030540005,483.68205417900026,483.6722041350004,483.6725586900002,483.68205417900026,483.68205417900026,483.68205417900026,,484.63499011300064,,,,,,,,,,,,,,,,,,,,,,,,,,,,,,left,1.0,0.94249361600032,,,,,sub-134,1,random_dot,73.6426823323414,
right,right,41.0,1.0,20.0,right,1.0,3.122626830999252,,speed,space,2.914897814000142,,,,,,0.0,0.0,0.0,1.0,20.0,1.0,41.0,1.0,484.6459687260003,,,,,,,,,484.63589326300007,484.73413414400056,485.5301581220001,485.5186505850006,485.5199700080002,485.5301581220001,485.5301581220001,485.5301581220001,,488.65852531400014,,,,,,,,,,,,,,,,,,,,,,,,,,,,,,right,1.0,3.122626830999252,,,,,sub-134,1,random_dot,73.6426823323414,
right,right,42.0,0.0,21.0,left,0.0,2.3637262940001165,,speed,space,2.914897814000142,,,,,,0.0,0.0,0.0,1.0,21.0,0.0,42.0,1.0,488.6701341800008,,,,,,,,,488.6588432880008,489.0056300920005,489.811001348,489.7970946110008,489.7982356460007,489.811001348,489.811001348,489.811001348,,492.18323862800025,,,,,,,,,,,,,,,,,,,,,,,,,,,,,,left,0.0,2.3637262940001165,,,,,sub-134,1,random_dot,73.6426823323414,
left,left,43.0,1.0,21.0,left,1.0,1.9098057239998525,,speed,space,2.914897814000142,,,,,,0.0,0.0,0.0,1.0,21.0,1.0,43.0,0.0,492.1932958560001,,,,,,,,,492.1835586160005,493.3847723640001,494.1864845980008,494.1740971950003,494.17552158200033,494.1864845980008,494.1864845980008,494.1864845980008,,496.1057173190002,,,,,,,,,,,,,,,,,,,,,,,,,,,,,,left,1.0,1.9098057239998525,,,,,sub-134,1,random_dot,73.6426823323414,
right,right,44.0,0.0,22.0,right,1.0,0.7856054710000535,,speed,space,2.914897814000142,,,,,,0.0,0.0,0.0,1.0,22.0,0.0,44.0,1.0,496.1153209120002,,,,,,,,,496.1060167370006,496.9075111640004,497.7045497710005,497.69096285900014,497.6913561250003,497.7045497710005,497.7045497710005,497.7045497710005,,498.49333563000073,,,,,,,,,,,,,,,,,,,,,,,,,,,,,,right,1.0,0.7856054710000535,,,,,sub-134,1,random_dot,73.6426823323414,
left,left,45.0,1.0,22.0,left,1.0,2.638659008999639,,speed,space,2.914897814000142,,,,,,0.0,0.0,0.0,1.0,22.0,1.0,45.0,0.0,498.50237709200064,,,,,,,,,498.4937698460008,499.6944918130002,500.4948415830004,500.4805144000002,500.4816773660005,500.4948415830004,500.4948415830004,500.4948415830004,,503.1469829530006,,,,,,,,,,,,,,,,,,,,,,,,,,,,,,left,1.0,2.638659008999639,,,,,sub-134,1,random_dot,73.6426823323414,
right,right,46.0,0.0,23.0,right,1.0,1.1533898409998071,,speed,space,2.914897814000142,,,,,,0.0,0.0,0.0,1.0,23.0,0.0,46.0,1.0,503.1582018010004,,,,,,,,,503.14743922600064,503.242459477,504.0476500700006,504.0362442610003,504.0375886520005,504.0476500700006,504.0476500700006,504.0476500700006,,505.2141824600003,,,,,,,,,,,,,,,,,,,,,,,,,,,,,,right,1.0,1.1533898409998071,,,,,sub-134,1,random_dot,73.6426823323414,
left,left,47.0,1.0,23.0,left,1.0,1.185621219000495,,speed,space,2.914897814000142,,,,,,0.0,0.0,0.0,1.0,23.0,1.0,47.0,0.0,505.2270946540002,,,,,,,,,505.2146307850008,505.5677988650005,506.3713755790004,506.3534242760006,506.3540399540007,506.3713755790004,506.3713755790004,506.3713755790004,,507.5681808880008,,,,,,,,,,,,,,,,,,,,,,,,,,,,,,left,1.0,1.185621219000495,,,,,sub-134,1,random_dot,73.6426823323414,
right,right,48.0,0.0,24.0,right,1.0,1.2749095670005772,,speed,space,2.914897814000142,,,,,,0.0,0.0,0.0,1.0,24.0,0.0,48.0,1.0,507.5786138170006,,,,,,,,,507.56863790600073,507.6685215920006,508.4881308060003,508.46983086400087,508.47016023000015,508.4881308060003,508.4881308060003,508.4881308060003,,509.7750370820004,,,,,,,,,,,,,,,,,,,,,,,,,,,,,,right,1.0,1.2749095670005772,,,,,sub-134,1,random_dot,73.6426823323414,
left,left,49.0,1.0,24.0,left,1.0,1.1572961869997016,,speed,space,2.914897814000142,,,,,,0.0,0.0,0.0,1.0,24.0,1.0,49.0,0.0,509.7878937070009,,,,,,,,,509.7754677230005,510.9769773950002,511.77827662800064,511.7653076770002,511.7664624120007,511.77827662800064,511.77827662800064,511.77827662800064,,512.941846314,,,,,,,,,,,,,,,,,,,,,,,,,,,,,,left,1.0,1.1572961869997016,,,,,sub-134,1,random_dot,73.6426823323414,
left,left,50.0,0.0,25.0,right,0.0,2.5837521740004377,,speed,space,2.914897814000142,,,,,,0.0,0.0,0.0,1.0,25.0,0.0,50.0,0.0,512.9505271500002,,,,,,,,,512.9421571700004,514.1436406120001,514.9405603360001,514.9295493870004,514.9304423270005,514.9405603360001,514.9405603360001,514.9405603360001,,517.5321860200002,,,,,,,,,,,,,,,,,,,,,,,,,,,,,,right,0.0,2.5837521740004377,,,,,sub-134,1,random_dot,73.6426823323414,
right,right,51.0,1.0,25.0,right,1.0,2.150761652000256,,speed,space,2.914897814000142,,,,,,0.0,0.0,0.0,1.0,25.0,1.0,51.0,1.0,517.5429995610002,,,,,,,,,517.5327230420007,517.6471207650002,518.4543773790001,518.4414889950003,518.4417660770005,518.4543773790001,518.4543773790001,518.4543773790001,,520.6183323250007,,,,,,,,,,,,,,,,,,,,,,,,,,,,,,right,1.0,2.150761652000256,,,,,sub-134,1,random_dot,73.6426823323414,
right,right,52.0,0.0,26.0,right,1.0,2.882900260000497,,speed,space,2.914897814000142,,,,,,0.0,0.0,0.0,1.0,26.0,0.0,52.0,1.0,520.6294397600004,,,,,,,,,520.6188022290007,521.8178176850006,522.6116456870004,522.6019625270001,522.6026008930003,522.6116456870004,522.6116456870004,522.6116456870004,,525.5078477140005,,,,,,,,,,,,,,,,,,,,,,,,,,,,,,right,1.0,2.882900260000497,,,,,sub-134,1,random_dot,73.6426823323414,
left,left,53.0,1.0,26.0,left,1.0,1.051388918000157,,speed,space,2.914897814000142,,,,,,0.0,0.0,0.0,1.0,26.0,1.0,53.0,0.0,525.5185168580001,,,,,,,,,525.5083808290001,525.6091024200005,526.4090715520006,526.3969950620003,526.3982936120001,526.4090715520006,526.4090715520006,526.4090715520006,,527.4717453980002,,,,,,,,,,,,,,,,,,,,,,,,,,,,,,left,1.0,1.051388918000157,,,,,sub-134,1,random_dot,73.6426823323414,
left,left,54.0,0.0,27.0,left,1.0,2.1206565370002863,,speed,space,2.914897814000142,,,,,,0.0,0.0,0.0,1.0,27.0,0.0,54.0,0.0,527.4810981230003,,,,,,,,,527.4720440830006,528.279293996,529.0770214150007,529.0634049480004,529.0645300530005,529.0770214150007,529.0770214150007,529.0770214150007,,531.2126607460004,,,,,,,,,,,,,,,,,,,,,,,,,,,,,,left,1.0,2.1206565370002863,,,,,sub-134,1,random_dot,73.6426823323414,
right,right,55.0,1.0,27.0,right,1.0,3.255014079999455,,speed,space,2.914897814000142,,,,,,0.0,0.0,0.0,1.0,27.0,1.0,55.0,1.0,531.2375499590007,,,,,,,,,531.2136160370001,532.0209250670005,532.8140718190007,532.8043889930004,532.8047205980001,532.8140718190007,532.8140718190007,532.8140718190007,,536.0755854850004,,,,,,,,,,,,,,,,,,,,,,,,,,,,,,right,1.0,3.255014079999455,,,,,sub-134,1,random_dot,73.6426823323414,
left,left,56.0,0.0,28.0,left,1.0,1.0560268849994827,,speed,space,2.914897814000142,,,,,,0.0,0.0,0.0,1.0,28.0,0.0,56.0,0.0,536.0877101420001,,,,,,,,,536.076039777,537.2736260650008,538.0704892980002,538.0572397770002,538.057618711,538.0704892980002,538.0704892980002,538.0704892980002,,539.1385210380004,,,,,,,,,,,,,,,,,,,,,,,,,,,,,,left,1.0,1.0560268849994827,,,,,sub-134,1,random_dot,73.6426823323414,
right,right,57.0,1.0,28.0,right,1.0,4.5969290919993,,speed,space,2.914897814000142,,,,,,0.0,0.0,0.0,1.0,28.0,1.0,57.0,1.0,539.1478446720002,,,,,,,,,539.1390067500006,539.9461102500009,540.7427177980007,540.7300223070006,540.7304993120006,540.7427177980007,540.7427177980007,540.7427177980007,,545.3451915990008,,,,,,,,,,,,,,,,,,,,,,,,,,,,,,right,1.0,4.5969290919993,,,,,sub-134,1,random_dot,73.6426823323414,
right,right,58.0,0.0,29.0,left,0.0,2.453949368999929,,speed,space,2.914897814000142,,,,,,0.0,0.0,0.0,1.0,29.0,0.0,58.0,1.0,545.3546253030008,,,,,,,,,545.345554044,546.5539967060004,547.3552044050002,547.3448715800005,547.3452064190005,547.3552044050002,547.3552044050002,547.3552044050002,,549.8150572600007,,,,,,,,,,,,,,,,,,,,,,,,,,,,,,left,0.0,2.453949368999929,,,,,sub-134,1,random_dot,73.6426823323414,
left,left,59.0,1.0,29.0,left,1.0,1.171523213999535,,speed,space,2.914897814000142,,,,,,0.0,0.0,0.0,1.0,29.0,1.0,59.0,0.0,549.8256276530001,,,,,,,,,549.8156614740001,550.1706209740005,550.9636781380004,550.9539387060004,550.9542143230001,550.9636781380004,550.9636781380004,550.9636781380004,,552.1419101610009,,,,,,,,,,,,,,,,,,,,,,,,,,,,,,left,1.0,1.171523213999535,,,,,sub-134,1,random_dot,73.6426823323414,
,,0.0,0.0,0.0,,,,,speed,space,2.914897814000142,,,,,,0.0,0.0,0.0,1.0,,,,,,,,,,,,,,,,,,,,,,,,,,,,,,,,,,,,,,,,,,,,,,,,,,,,,,,,,,,,sub-134,1,random_dot,73.6426823323414,
left,left,0.0,0.0,0.0,left,1.0,6.214571995999904,,accuracy,space,21.92788892499993,,,,,,0.0,1.0,1.0,0.0,0.0,0.0,0.0,0.0,574.1370408280009,,,,,,,,,574.1270113310002,574.9213968160002,575.7370374710008,575.7189478180007,575.7194308130001,575.7370374710008,575.7370374710008,575.7370374710008,580.7146585130004,581.953289903,,,,,,,,,,,,,,,,,,,,,,,552.165028939,552.1743065890005,552.1743065890005,574.1215035050009,space,21.92788892499993,,left,1.0,6.214571995999904,,,,,sub-134,1,random_dot,73.6426823323414,
right,right,1.0,1.0,0.0,right,1.0,0.8615209930003402,,accuracy,space,21.92788892499993,,,,,,0.0,1.0,1.0,0.0,0.0,1.0,1.0,1.0,581.9703235040006,,,,,,,,,581.9537120700006,582.3205126380008,583.1154198900003,583.1039794880007,583.1043079880001,583.1154198900003,583.1154198900003,583.1154198900003,,583.9814225010005,,,,,,,,,,,,,,,,,,,,,,,,,,,,,,right,1.0,0.8615209930003402,,,,,sub-134,1,random_dot,73.6426823323414,
right,right,2.0,0.0,1.0,right,1.0,5.508001404000424,,accuracy,space,21.92788892499993,,,,,,0.0,1.0,1.0,0.0,1.0,0.0,2.0,1.0,583.9922826060001,,,,,,,,,583.9819427470002,584.3280555390002,585.1274547530002,585.1125497420007,585.113731122,585.1274547530002,585.1274547530002,585.1274547530002,590.111533669,590.643796761,,,,,,,,,,,,,,,,,,,,,,,,,,,,,,right,1.0,5.508001404000424,,,,,sub-134,1,random_dot,73.6426823323414,
left,left,3.0,1.0,1.0,left,1.0,4.286159893999866,,accuracy,space,21.92788892499993,,,,,,0.0,1.0,1.0,0.0,1.0,1.0,3.0,0.0,590.6557008270001,,,,,,,,,590.6440989040002,591.0018960650004,591.8009182210008,591.7890769240003,591.7905291910001,591.8009182210008,591.8009182210008,591.8009182210008,,596.0907820170005,,,,,,,,,,,,,,,,,,,,,,,,,,,,,,left,1.0,4.286159893999866,,,,,sub-134,1,random_dot,73.6426823323414,
left,left,4.0,0.0,2.0,left,1.0,5.528840790000686,,accuracy,space,21.92788892499993,,,,,,0.0,1.0,1.0,0.0,2.0,0.0,4.0,0.0,596.1031233530002,,,,,,,,,596.0912768960006,596.8866207330002,597.6966212490006,597.6869182190003,597.6872460510003,597.6966212490006,597.6966212490006,597.6966212490006,602.6829996200004,603.2308383920008,,,,,,,,,,,,,,,,,,,,,,,,,,,,,,left,1.0,5.528840790000686,,,,,sub-134,1,random_dot,73.6426823323414,
right,right,5.0,1.0,2.0,right,1.0,3.473196007000297,,accuracy,space,21.92788892499993,,,,,,0.0,1.0,1.0,0.0,2.0,1.0,5.0,1.0,603.2415604070002,,,,,,,,,603.2314706550005,604.4296426610008,605.2283618900001,605.2189432900004,605.2192319820006,605.2283618900001,605.2283618900001,605.2283618900001,,608.7145138180003,,,,,,,,,,,,,,,,,,,,,,,,,,,,,,right,1.0,3.473196007000297,,,,,sub-134,1,random_dot,73.6426823323414,
right,right,6.0,0.0,3.0,right,1.0,2.6770687389998784,,accuracy,space,21.92788892499993,,,,,,0.0,1.0,1.0,0.0,3.0,0.0,6.0,1.0,608.7258977900001,,,,,,,,,608.7149985840006,609.5198781610006,610.3224554580001,610.3092234820006,610.3095587970001,610.3224554580001,610.3224554580001,610.3224554580001,,613.0108775870003,,,,,,,,,,,,,,,,,,,,,,,,,,,,,,right,1.0,2.6770687389998784,,,,,sub-134,1,random_dot,73.6426823323414,
left,left,7.0,1.0,3.0,right,0.0,5.423759615999188,,accuracy,space,21.92788892499993,,,,,,0.0,1.0,1.0,0.0,3.0,1.0,7.0,0.0,613.0206081340002,,,,,,,,,613.0113407170002,613.35472536,614.1482635070006,614.1376100550006,614.1380116520004,614.1482635070006,614.1482635070006,614.1482635070006,619.1423960720003,619.5858672390004,,,,,,,,,,,,,,,,,,,,,,,,,,,,,,right,0.0,5.423759615999188,,,,,sub-134,1,random_dot,73.6426823323414,
right,right,8.0,0.0,4.0,left,0.0,5.84801890000017,,accuracy,space,21.92788892499993,,,,,,0.0,1.0,1.0,0.0,4.0,0.0,8.0,1.0,619.6034071830009,,,,,,,,,619.5861716140007,620.3865408870006,621.1800839890002,621.1704152390002,621.1706893590008,621.1800839890002,621.1800839890002,621.1800839890002,626.1726555100004,627.0374198020008,,,,,,,,,,,,,,,,,,,,,,,,,,,,,,left,0.0,5.84801890000017,,,,,sub-134,1,random_dot,73.6426823323414,
left,left,9.0,1.0,4.0,left,1.0,5.131267213999308,,accuracy,space,21.92788892499993,,,,,,0.0,1.0,1.0,0.0,4.0,1.0,9.0,0.0,627.0466554480008,,,,,,,,,627.037724064,627.1338119870006,627.9365821830006,627.9218879300006,627.9221798810004,627.9365821830006,627.9365821830006,627.9365821830006,632.9360314630003,633.0709029950003,,,,,,,,,,,,,,,,,,,,,,,,,,,,,,left,1.0,5.131267213999308,,,,,sub-134,1,random_dot,73.6426823323414,
right,right,10.0,0.0,5.0,right,1.0,1.40515148600025,,accuracy,space,21.92788892499993,,,,,,0.0,1.0,1.0,0.0,5.0,0.0,10.0,1.0,633.0795606450001,,,,,,,,,633.0712528450003,633.1698634190006,633.9721590020008,633.9594058230005,633.9597507930002,633.9721590020008,633.9721590020008,633.9721590020008,,635.3895810980002,,,,,,,,,,,,,,,,,,,,,,,,,,,,,,right,1.0,1.40515148600025,,,,,sub-134,1,random_dot,73.6426823323414,
left,left,11.0,1.0,5.0,left,1.0,2.5701767079999627,,accuracy,space,21.92788892499993,,,,,,0.0,1.0,1.0,0.0,5.0,1.0,11.0,0.0,635.3990403270009,,,,,,,,,635.3900676720004,635.5031614970003,636.2971179620008,636.2864292510003,636.2868921940008,636.2971179620008,636.2971179620008,636.2971179620008,,638.8752694390005,,,,,,,,,,,,,,,,,,,,,,,,,,,,,,left,1.0,2.5701767079999627,,,,,sub-134,1,random_dot,73.6426823323414,
left,left,12.0,0.0,6.0,right,0.0,1.2478482599999552,,accuracy,space,21.92788892499993,,,,,,0.0,1.0,1.0,0.0,6.0,0.0,12.0,0.0,638.8851692890003,,,,,,,,,638.875843799,640.0734255780008,640.8710520780005,640.8592953000007,640.8607201430004,640.8710520780005,640.8710520780005,640.8710520780005,,642.1234105620006,,,,,,,,,,,,,,,,,,,,,,,,,,,,,,right,0.0,1.2478482599999552,,,,,sub-134,1,random_dot,73.6426823323414,
right,right,13.0,1.0,6.0,left,0.0,3.676840027999788,,accuracy,space,21.92788892499993,,,,,,0.0,1.0,1.0,0.0,6.0,1.0,13.0,1.0,642.133887723,,,,,,,,,642.1239180120001,642.2360485500003,643.0302081140007,643.0196699740009,643.0199418490001,643.0302081140007,643.0302081140007,643.0302081140007,,646.713355455,,,,,,,,,,,,,,,,,,,,,,,,,,,,,,left,0.0,3.676840027999788,,,,,sub-134,1,random_dot,73.6426823323414,
left,left,14.0,0.0,7.0,left,1.0,3.929251127000498,,accuracy,space,21.92788892499993,,,,,,0.0,1.0,1.0,0.0,7.0,0.0,14.0,0.0,646.7247648690009,,,,,,,,,646.7139083960001,647.5116900340008,648.3143955780006,648.3030965170001,648.3035611720006,648.3143955780006,648.3143955780006,648.3143955780006,,652.2482992820005,,,,,,,,,,,,,,,,,,,,,,,,,,,,,,left,1.0,3.929251127000498,,,,,sub-134,1,random_dot,73.6426823323414,
right,right,15.0,1.0,7.0,right,1.0,1.0443850089995976,,accuracy,space,21.92788892499993,,,,,,0.0,1.0,1.0,0.0,7.0,1.0,15.0,1.0,652.2577004940003,,,,,,,,,652.2487736080002,652.60271397,653.4057399350004,653.3913788310001,653.3918544370008,653.4057399350004,653.4057399350004,653.4057399350004,,654.4602937700001,,,,,,,,,,,,,,,,,,,,,,,,,,,,,,right,1.0,1.0443850089995976,,,,,sub-134,1,random_dot,73.6426823323414,
right,right,16.0,0.0,8.0,right,1.0,3.1864799949999,,accuracy,space,21.92788892499993,,,,,,0.0,1.0,1.0,0.0,8.0,0.0,16.0,1.0,654.4703189710008,,,,,,,,,654.4607647160001,655.6599912240008,656.462965447,656.452898556,656.4531735750006,656.462965447,656.462965447,656.462965447,,659.6619805400005,,,,,,,,,,,,,,,,,,,,,,,,,,,,,,right,1.0,3.1864799949999,,,,,sub-134,1,random_dot,73.6426823323414,
left,left,17.0,1.0,8.0,left,1.0,5.410201312999561,,accuracy,space,21.92788892499993,,,,,,0.0,1.0,1.0,0.0,8.0,1.0,17.0,0.0,659.6748795420008,,,,,,,,,659.6624858540008,660.8599717070001,661.6636487570004,661.6528621790003,661.6533234340004,661.6636487570004,661.6636487570004,661.6636487570004,666.6550133630008,667.0778932660005,,,,,,,,,,,,,,,,,,,,,,,,,,,,,,left,1.0,5.410201312999561,,,,,sub-134,1,random_dot,73.6426823323414,
right,right,18.0,0.0,9.0,right,1.0,1.1950785039998664,,accuracy,space,21.92788892499993,,,,,,0.0,1.0,1.0,0.0,9.0,0.0,18.0,1.0,667.1011308010002,,,,,,,,,667.0783248970001,667.8780758110006,668.6841892050006,668.6724889810002,668.6735206120002,668.6841892050006,668.6841892050006,668.6841892050006,,669.886106334,,,,,,,,,,,,,,,,,,,,,,,,,,,,,,right,1.0,1.1950785039998664,,,,,sub-134,1,random_dot,73.6426823323414,
left,left,19.0,1.0,9.0,left,1.0,3.0267185429993333,,accuracy,space,21.92788892499993,,,,,,0.0,1.0,1.0,0.0,9.0,1.0,19.0,0.0,669.8960077220008,,,,,,,,,669.8867668930006,670.6857224310006,671.4858558350006,671.4709806790006,671.4712634430007,671.4858558350006,671.4858558350006,671.4858558350006,,674.5168242180007,,,,,,,,,,,,,,,,,,,,,,,,,,,,,,left,1.0,3.0267185429993333,,,,,sub-134,1,random_dot,73.6426823323414,
left,left,20.0,0.0,10.0,left,1.0,5.438013191999744,,accuracy,space,21.92788892499993,,,,,,0.0,1.0,1.0,0.0,10.0,0.0,20.0,0.0,674.5260582050005,,,,,,,,,674.5175122720002,675.7095302060006,676.5046787260007,676.4933841730008,676.4942678680009,676.5046787260007,676.5046787260007,676.5046787260007,681.4926557380004,681.9513180820004,,,,,,,,,,,,,,,,,,,,,,,,,,,,,,left,1.0,5.438013191999744,,,,,sub-134,1,random_dot,73.6426823323414,
right,right,21.0,1.0,10.0,right,1.0,1.471531617000437,,accuracy,space,21.92788892499993,,,,,,0.0,1.0,1.0,0.0,10.0,1.0,21.0,1.0,681.9676788640008,,,,,,,,,681.9516353770005,682.0533568670007,682.8454651530001,682.8360075560004,682.8363309770002,682.8454651530001,682.8454651530001,682.8454651530001,,684.3307508050002,,,,,,,,,,,,,,,,,,,,,,,,,,,,,,right,1.0,1.471531617000437,,,,,sub-134,1,random_dot,73.6426823323414,
right,right,22.0,0.0,11.0,right,1.0,1.0253421180004807,,accuracy,space,21.92788892499993,,,,,,0.0,1.0,1.0,0.0,11.0,0.0,22.0,1.0,684.341091067,,,,,,,,,684.3311268040006,685.1357216940005,685.9291667510006,685.9192972730007,685.9195719160007,685.9291667510006,685.9291667510006,685.9291667510006,,686.9618635840006,,,,,,,,,,,,,,,,,,,,,,,,,,,,,,right,1.0,1.0253421180004807,,,,,sub-134,1,random_dot,73.6426823323414,
left,left,23.0,1.0,11.0,left,1.0,2.5226480229994195,,accuracy,space,21.92788892499993,,,,,,0.0,1.0,1.0,0.0,11.0,1.0,23.0,0.0,686.9746408660003,,,,,,,,,686.9623321620002,687.7691383910005,688.569266466,688.5537252050008,688.5540915480005,688.569266466,688.569266466,688.569266466,,691.1045611440004,,,,,,,,,,,,,,,,,,,,,,,,,,,,,,left,1.0,2.5226480229994195,,,,,sub-134,1,random_dot,73.6426823323414,
left,left,24.0,0.0,12.0,left,1.0,2.842211854000197,,accuracy,space,21.92788892499993,,,,,,0.0,1.0,1.0,0.0,12.0,0.0,24.0,0.0,691.114505599,,,,,,,,,691.1049870660008,691.9110964130005,692.7068607190004,692.6948155090004,692.6958816100005,692.7068607190004,692.7068607190004,692.7068607190004,,695.5633787280003,,,,,,,,,,,,,,,,,,,,,,,,,,,,,,left,1.0,2.842211854000197,,,,,sub-134,1,random_dot,73.6426823323414,
right,right,25.0,1.0,12.0,right,1.0,3.314482512000722,,accuracy,space,21.92788892499993,,,,,,0.0,1.0,1.0,0.0,12.0,1.0,25.0,1.0,695.5741905150007,,,,,,,,,695.5640457870004,696.3696242460001,697.171593602,697.1575741760007,697.1580444820002,697.171593602,697.171593602,697.171593602,,700.4939108570006,,,,,,,,,,,,,,,,,,,,,,,,,,,,,,right,1.0,3.314482512000722,,,,,sub-134,1,random_dot,73.6426823323414,
right,right,26.0,0.0,13.0,right,1.0,2.054958468000222,,accuracy,space,21.92788892499993,,,,,,0.0,1.0,1.0,0.0,13.0,0.0,26.0,1.0,700.5185567530007,,,,,,,,,700.4943849040001,701.3019356910008,702.1170918970001,702.0936473300007,702.0941846420001,702.1170918970001,702.1170918970001,702.1170918970001,,704.1783470700002,,,,,,,,,,,,,,,,,,,,,,,,,,,,,,right,1.0,2.054958468000222,,,,,sub-134,1,random_dot,73.6426823323414,
left,left,27.0,1.0,13.0,left,1.0,4.7433638559996325,,accuracy,space,21.92788892499993,,,,,,0.0,1.0,1.0,0.0,13.0,1.0,27.0,0.0,704.1905123240003,,,,,,,,,704.1789158910005,705.3820709750007,706.1851797490008,706.1707268650007,706.1710206600001,706.1851797490008,706.1851797490008,706.1851797490008,,710.9362640020008,,,,,,,,,,,,,,,,,,,,,,,,,,,,,,left,1.0,4.7433638559996325,,,,,sub-134,1,random_dot,73.6426823323414,
left,left,28.0,0.0,14.0,right,0.0,0.9281807759998628,,accuracy,space,21.92788892499993,,,,,,0.0,1.0,1.0,0.0,14.0,0.0,28.0,0.0,710.9460328390005,,,,,,,,,710.9368075400007,711.7395009770007,712.5421158600002,712.5282529290007,712.5293251080002,712.5421158600002,712.5421158600002,712.5421158600002,,713.4791160660006,,,,,,,,,,,,,,,,,,,,,,,,,,,,,,right,0.0,0.9281807759998628,,,,,sub-134,1,random_dot,73.6426823323414,
right,right,29.0,1.0,14.0,right,1.0,1.7046532360000128,,accuracy,space,21.92788892499993,,,,,,0.0,1.0,1.0,0.0,14.0,1.0,29.0,1.0,713.4908260020002,,,,,,,,,713.4796017860008,713.828471539,714.6373079740006,714.6220742340001,714.6224913470005,714.6373079740006,714.6373079740006,714.6373079740006,,716.353020949,,,,,,,,,,,,,,,,,,,,,,,,,,,,,,right,1.0,1.7046532360000128,,,,,sub-134,1,random_dot,73.6426823323414,
right,right,30.0,0.0,15.0,right,1.0,3.9720011830004296,,accuracy,space,21.92788892499993,,,,,,0.0,1.0,1.0,0.0,15.0,0.0,30.0,1.0,716.3629166810006,,,,,,,,,716.3533440360006,717.555976349,718.3546234250007,718.3413756320006,718.341663145,718.3546234250007,718.3546234250007,718.3546234250007,,722.3351012850007,,,,,,,,,,,,,,,,,,,,,,,,,,,,,,right,1.0,3.9720011830004296,,,,,sub-134,1,random_dot,73.6426823323414,
left,left,31.0,1.0,15.0,left,1.0,3.74314741499984,,accuracy,space,21.92788892499993,,,,,,0.0,1.0,1.0,0.0,15.0,1.0,31.0,0.0,722.3450379200003,,,,,,,,,722.3357315450003,723.5285053060006,724.3360994120003,724.3251216200006,724.3255994560004,724.3360994120003,724.3360994120003,724.3360994120003,,728.091135785,,,,,,,,,,,,,,,,,,,,,,,,,,,,,,left,1.0,3.74314741499984,,,,,sub-134,1,random_dot,73.6426823323414,
right,right,32.0,0.0,16.0,right,1.0,3.4055161899996165,,accuracy,space,21.92788892499993,,,,,,0.0,1.0,1.0,0.0,16.0,0.0,32.0,1.0,728.1039246790006,,,,,,,,,728.0914535640004,728.8937487990006,729.7016557410006,729.6837862370003,729.6842557610007,729.7016557410006,729.7016557410006,729.7016557410006,,733.1201456250001,,,,,,,,,,,,,,,,,,,,,,,,,,,,,,right,1.0,3.4055161899996165,,,,,sub-134,1,random_dot,73.6426823323414,
left,left,33.0,1.0,16.0,left,1.0,5.769511829000294,,accuracy,space,21.92788892499993,,,,,,0.0,1.0,1.0,0.0,16.0,1.0,33.0,0.0,733.1304731050004,,,,,,,,,733.1206673640008,733.4736661370007,734.2849565610004,734.2673043720006,734.2680020520002,734.2849565610004,734.2849565610004,734.2849565610004,739.2693491620003,740.064185829,,,,,,,,,,,,,,,,,,,,,,,,,,,,,,left,1.0,5.769511829000294,,,,,sub-134,1,random_dot,73.6426823323414,
right,right,34.0,0.0,17.0,right,1.0,1.1017743209995388,,accuracy,space,21.92788892499993,,,,,,0.0,1.0,1.0,0.0,17.0,0.0,34.0,1.0,740.0742146250004,,,,,,,,,740.0645228960002,740.4097063000008,741.2075381780005,741.1944819350001,741.1955307860007,741.2075381780005,741.2075381780005,741.2075381780005,,742.3145648900008,,,,,,,,,,,,,,,,,,,,,,,,,,,,,,right,1.0,1.1017743209995388,,,,,sub-134,1,random_dot,73.6426823323414,
left,left,35.0,1.0,17.0,left,1.0,2.3433728270001666,,accuracy,space,21.92788892499993,,,,,,0.0,1.0,1.0,0.0,17.0,1.0,35.0,0.0,742.3244215120003,,,,,,,,,742.3150042960006,743.5104361080002,744.306998821,744.2937334970002,744.2948371000002,744.306998821,744.306998821,744.306998821,,746.6646050670006,,,,,,,,,,,,,,,,,,,,,,,,,,,,,,left,1.0,2.3433728270001666,,,,,sub-134,1,random_dot,73.6426823323414,
left,left,36.0,0.0,18.0,right,0.0,5.552233377999983,,accuracy,space,21.92788892499993,,,,,,0.0,1.0,1.0,0.0,18.0,0.0,36.0,0.0,746.6753445540007,,,,,,,,,746.6650880040006,747.017393438,747.8125739050001,747.8018712620005,747.8022006170004,747.8125739050001,747.8125739050001,747.8125739050001,752.7950015320002,753.3733977630009,,,,,,,,,,,,,,,,,,,,,,,,,,,,,,right,0.0,5.552233377999983,,,,,sub-134,1,random_dot,73.6426823323414,
right,right,37.0,1.0,18.0,right,1.0,5.649315204000232,,accuracy,space,21.92788892499993,,,,,,0.0,1.0,1.0,0.0,18.0,1.0,37.0,1.0,753.3862235460001,,,,,,,,,753.373844615,754.5787387150003,755.4013832,755.3835648180002,755.3840343780003,755.4013832,755.4013832,755.4013832,760.383666578,761.0549778260001,,,,,,,,,,,,,,,,,,,,,,,,,,,,,,right,1.0,5.649315204000232,,,,,sub-134,1,random_dot,73.6426823323414,
right,right,38.0,0.0,19.0,right,1.0,4.210507642999801,,accuracy,space,21.92788892499993,,,,,,0.0,1.0,1.0,0.0,19.0,0.0,38.0,1.0,761.0678208520003,,,,,,,,,761.0553077870009,761.4184016560002,762.2178136950006,762.2030511960002,762.2033650140002,762.2178136950006,762.2178136950006,762.2178136950006,,766.4310010960007,,,,,,,,,,,,,,,,,,,,,,,,,,,,,,right,1.0,4.210507642999801,,,,,sub-134,1,random_dot,73.6426823323414,
left,left,39.0,1.0,19.0,right,0.0,4.418896514999688,,accuracy,space,21.92788892499993,,,,,,0.0,1.0,1.0,0.0,19.0,1.0,39.0,0.0,766.4408993090001,,,,,,,,,766.4316286700005,767.6342643280004,768.451291802,768.4331763630007,768.4334679040003,768.451291802,768.451291802,768.451291802,,772.8816147800007,,,,,,,,,,,,,,,,,,,,,,,,,,,,,,right,0.0,4.418896514999688,,,,,sub-134,1,random_dot,73.6426823323414,
right,right,40.0,0.0,20.0,right,1.0,5.027906565000194,,accuracy,space,21.92788892499993,,,,,,0.0,1.0,1.0,0.0,20.0,0.0,40.0,1.0,772.8924316790008,,,,,,,,,772.8824818820003,774.0749385820009,774.8785645810003,774.8683271270002,774.8687997420002,774.8785645810003,774.8785645810003,774.8785645810003,779.8641738140004,779.9131822190002,,,,,,,,,,,,,,,,,,,,,,,,,,,,,,right,1.0,5.027906565000194,,,,,sub-134,1,random_dot,73.6426823323414,
left,left,41.0,1.0,20.0,left,1.0,4.046483799999805,,accuracy,space,21.92788892499993,,,,,,0.0,1.0,1.0,0.0,20.0,1.0,41.0,0.0,779.9239984230007,,,,,,,,,779.9136948600008,780.7148278180002,781.5109882010001,781.5011753380004,781.5015064240006,781.5109882010001,781.5109882010001,781.5109882010001,,785.5713597190006,,,,,,,,,,,,,,,,,,,,,,,,,,,,,,left,1.0,4.046483799999805,,,,,sub-134,1,random_dot,73.6426823323414,
right,right,42.0,0.0,21.0,right,1.0,5.875267297999926,,accuracy,space,21.92788892499993,,,,,,0.0,1.0,1.0,0.0,21.0,0.0,42.0,1.0,785.5820409790003,,,,,,,,,785.5717860670002,785.6740916010003,786.4676020680008,786.4571002620005,786.4574994130007,786.4676020680008,786.4676020680008,786.4676020680008,791.4529508450005,792.3555561400008,,,,,,,,,,,,,,,,,,,,,,,,,,,,,,right,1.0,5.875267297999926,,,,,sub-134,1,random_dot,73.6426823323414,
left,left,43.0,1.0,21.0,left,1.0,3.9361964480003735,,accuracy,space,21.92788892499993,,,,,,0.0,1.0,1.0,0.0,21.0,1.0,43.0,0.0,792.3663190280004,,,,,,,,,792.3560280860002,793.1559082870008,793.9678779730002,793.9495874150007,793.9498936660002,793.9678779730002,793.9678779730002,793.9678779730002,,797.9178123490001,,,,,,,,,,,,,,,,,,,,,,,,,,,,,,left,1.0,3.9361964480003735,,,,,sub-134,1,random_dot,73.6426823323414,
right,right,44.0,0.0,22.0,right,1.0,4.138341937000405,,accuracy,space,21.92788892499993,,,,,,0.0,1.0,1.0,0.0,22.0,0.0,44.0,1.0,797.9278100150004,,,,,,,,,797.918309787,799.110101753,799.9180379180007,799.9045056700006,799.9048825660002,799.9180379180007,799.9180379180007,799.9180379180007,,804.0634158350003,,,,,,,,,,,,,,,,,,,,,,,,,,,,,,right,1.0,4.138341937000405,,,,,sub-134,1,random_dot,73.6426823323414,
left,left,45.0,1.0,22.0,left,1.0,1.4851559869994162,,accuracy,space,21.92788892499993,,,,,,0.0,1.0,1.0,0.0,22.0,1.0,45.0,0.0,804.0736033350004,,,,,,,,,804.063868317,804.8675319390004,805.6669318540007,805.6565106730004,805.6568131990007,805.6669318540007,805.6669318540007,805.6669318540007,,807.1633428990008,,,,,,,,,,,,,,,,,,,,,,,,,,,,,,left,1.0,1.4851559869994162,,,,,sub-134,1,random_dot,73.6426823323414,
left,left,46.0,0.0,23.0,right,0.0,5.506636318000346,,accuracy,space,21.92788892499993,,,,,,0.0,1.0,1.0,0.0,23.0,0.0,46.0,0.0,807.1737775690008,,,,,,,,,807.1636802760004,807.2610618920007,808.0617765700008,808.0510464510007,808.0515105800005,808.0617765700008,808.0617765700008,808.0617765700008,813.0658378870003,813.5818758350006,,,,,,,,,,,,,,,,,,,,,,,,,,,,,,right,0.0,5.506636318000346,,,,,sub-134,1,random_dot,73.6426823323414,
right,right,47.0,1.0,23.0,left,0.0,4.263696017000257,,accuracy,space,21.92788892499993,,,,,,0.0,1.0,1.0,0.0,23.0,1.0,47.0,1.0,813.5920453510007,,,,,,,,,813.5824052480002,814.7811442300008,815.5790267990005,815.5687651840008,815.5690602980003,815.5790267990005,815.5790267990005,815.5790267990005,,819.8485982990005,,,,,,,,,,,,,,,,,,,,,,,,,,,,,,left,0.0,4.263696017000257,,,,,sub-134,1,random_dot,73.6426823323414,
right,right,48.0,0.0,24.0,left,0.0,4.837083792000158,,accuracy,space,21.92788892499993,,,,,,0.0,1.0,1.0,0.0,24.0,0.0,48.0,1.0,819.8591620050001,,,,,,,,,819.8496483220006,819.9435079460009,820.7503577370007,820.7361311030008,820.7364320840006,820.7503577370007,820.7503577370007,820.7503577370007,,825.5909415710003,,,,,,,,,,,,,,,,,,,,,,,,,,,,,,left,0.0,4.837083792000158,,,,,sub-134,1,random_dot,73.6426823323414,
left,left,49.0,1.0,24.0,right,0.0,3.862933759000043,,accuracy,space,21.92788892499993,,,,,,0.0,1.0,1.0,0.0,24.0,1.0,49.0,0.0,825.6015212640004,,,,,,,,,825.5913364850003,826.7900633340005,827.594935305,827.5845884180007,827.584917483,827.594935305,827.594935305,827.594935305,,831.4689179730003,,,,,,,,,,,,,,,,,,,,,,,,,,,,,,right,0.0,3.862933759000043,,,,,sub-134,1,random_dot,73.6426823323414,
right,right,50.0,0.0,25.0,left,0.0,0.2326645060002192,,accuracy,space,21.92788892499993,,,,,,0.0,1.0,1.0,0.0,25.0,0.0,50.0,1.0,831.4802076430005,,,,,,,,,831.4694994110005,831.8190581450008,832.6241197810004,832.6108542000002,832.6120976790007,832.6241197810004,832.6241197810004,832.6241197810004,,832.8632758910007,,,,,,,,,,,,,,,,,,,,,,,,,,,,,,left,0.0,0.2326645060002192,,,,,sub-134,1,random_dot,73.6426823323414,
left,left,51.0,1.0,25.0,left,1.0,0.3029974999999467,,accuracy,space,21.92788892499993,,,,,,0.0,1.0,1.0,0.0,25.0,1.0,51.0,0.0,832.8750545050007,,,,,,,,,832.8638835850006,832.9770051680007,833.7738200540007,833.7604721740008,833.7617490910006,833.7738200540007,833.7738200540007,833.7738200540007,,834.0891412860001,,,,,,,,,,,,,,,,,,,,,,,,,,,,,,left,1.0,0.3029974999999467,,,,,sub-134,1,random_dot,73.6426823323414,
right,right,52.0,0.0,26.0,right,1.0,1.2748839169998971,,accuracy,space,21.92788892499993,,,,,,0.0,1.0,1.0,0.0,26.0,0.0,52.0,1.0,834.1028504660007,,,,,,,,,834.0896502850001,834.8909548670008,835.6910864230003,835.6766170300007,835.6778017070001,835.6910864230003,835.6910864230003,835.6910864230003,,836.9684633720008,,,,,,,,,,,,,,,,,,,,,,,,,,,,,,right,1.0,1.2748839169998971,,,,,sub-134,1,random_dot,73.6426823323414,
left,left,53.0,1.0,26.0,right,0.0,4.580343286000243,,accuracy,space,21.92788892499993,,,,,,0.0,1.0,1.0,0.0,26.0,1.0,53.0,0.0,836.9775797210004,,,,,,,,,836.9688533910003,838.1696640300006,838.9732377010005,838.9603752950006,838.9615814000008,838.9732377010005,838.9732377010005,838.9732377010005,,843.5675715870002,,,,,,,,,,,,,,,,,,,,,,,,,,,,,,right,0.0,4.580343286000243,,,,,sub-134,1,random_dot,73.6426823323414,
right,right,54.0,0.0,27.0,right,1.0,2.214006141999562,,accuracy,space,21.92788892499993,,,,,,0.0,1.0,1.0,0.0,27.0,0.0,54.0,1.0,843.579329919,,,,,,,,,843.5682499600007,843.9169735220003,844.7122974740005,844.7018381500002,844.7022496020008,844.7122974740005,844.7122974740005,844.7122974740005,,846.9304721590006,,,,,,,,,,,,,,,,,,,,,,,,,,,,,,right,1.0,2.214006141999562,,,,,sub-134,1,random_dot,73.6426823323414,
left,left,55.0,1.0,27.0,right,0.0,1.3940731760003473,,accuracy,space,21.92788892499993,,,,,,0.0,1.0,1.0,0.0,27.0,1.0,55.0,0.0,846.9409035430008,,,,,,,,,846.931149901,847.2777525310003,848.0792419750005,848.067714197,848.0681804750002,848.0792419750005,848.0792419750005,848.0792419750005,,849.4860464330004,,,,,,,,,,,,,,,,,,,,,,,,,,,,,,right,0.0,1.3940731760003473,,,,,sub-134,1,random_dot,73.6426823323414,
left,left,56.0,0.0,28.0,right,0.0,0.9536323189995528,,accuracy,space,21.92788892499993,,,,,,0.0,1.0,1.0,0.0,28.0,0.0,56.0,0.0,849.4960457480001,,,,,,,,,849.4864159770004,850.6839041950007,851.4849202720006,851.473697163,851.4740308540004,851.4849202720006,851.4849202720006,851.4849202720006,,852.4451397510002,,,,,,,,,,,,,,,,,,,,,,,,,,,,,,right,0.0,0.9536323189995528,,,,,sub-134,1,random_dot,73.6426823323414,
right,right,57.0,1.0,28.0,right,1.0,1.2047102339993216,,accuracy,space,21.92788892499993,,,,,,0.0,1.0,1.0,0.0,28.0,1.0,57.0,1.0,852.4563398390001,,,,,,,,,852.4455240140005,853.649300561,854.4518230400008,854.4372861450001,854.4377631490006,854.4518230400008,854.4518230400008,854.4518230400008,,855.6612243140007,,,,,,,,,,,,,,,,,,,,,,,,,,,,,,right,1.0,1.2047102339993216,,,,,sub-134,1,random_dot,73.6426823323414,
right,right,58.0,0.0,29.0,right,1.0,1.5249364519995652,,accuracy,space,21.92788892499993,,,,,,0.0,1.0,1.0,0.0,29.0,0.0,58.0,1.0,855.6733737260001,,,,,,,,,855.6619672430006,856.4836792880005,857.2782252750003,857.2672351420006,857.2676957470003,857.2782252750003,857.2782252750003,857.2782252750003,,858.8104357460006,,,,,,,,,,,,,,,,,,,,,,,,,,,,,,right,1.0,1.5249364519995652,,,,,sub-134,1,random_dot,73.6426823323414,
left,left,59.0,1.0,29.0,right,0.0,2.2470010280003407,,accuracy,space,21.92788892499993,,,,,,0.0,1.0,1.0,0.0,29.0,1.0,59.0,0.0,858.8228489410003,,,,,,,,,858.8110223180001,859.1655400710006,859.9628445540002,859.9505400340004,859.9510040900004,859.9628445540002,859.9628445540002,859.9628445540002,,862.2183979580004,,,,,,,,,,,,,,,,,,,,,,,,,,,,,,right,0.0,2.2470010280003407,,,,,sub-134,1,random_dot,73.6426823323414,
,,1.0,1.0,0.0,,,,,accuracy,space,21.92788892499993,,,,,,0.0,1.0,1.0,0.0,,,,,,,,,,,,,,,,,,,,,,,,,,,,,,,,,,,,,,,,,,,,,,,,,,,,,,,,,,,,sub-134,1,random_dot,73.6426823323414,
,,,,,,,,,,,,,,,,,,,,,,,,,,,,,,,,,,,,,,,,,,,,,,,,,,,,,,,,,,,,,,,,,,,,,,,,,,,,,862.223651106,862.2370752750003,867.2224945460002,sub-134,1,random_dot,73.6426823323414,
