wordCTK,colorCTK,corrAnsCTK,congruentCTK,thisN,thisTrialN,thisRepN,keyResp_CTK.keys,keyResp_CTK.corr,keyResp_CTK.rt,keyResp_CTK.duration,wordPractice,colorPractice,corrAnsPractice,congruentPractice,respPractice.keys,respPractice.corr,respPractice.rt,respPractice.duration,word,color,corrAns,congruent,keyResp_test_run.keys,keyResp_test_run.corr,keyResp_test_run.rt,keyResp_test_run.duration,trials_CTK.thisRepN,trials_CTK.thisTrialN,trials_CTK.thisN,trials_CTK.thisIndex,trials_practice.thisRepN,trials_practice.thisTrialN,trials_practice.thisN,trials_practice.thisIndex,trials_test.thisRepN,trials_test.thisTrialN,trials_test.thisN,trials_test.thisIndex,thisRow.t,notes,instruction.started,instr_text.started,instr_image.started,instr_resp.started,instruction.stopped,instr_resp.keys,instr_resp.rt,instr_resp.duration,instr_color_to_key.started,instr_ctk.started,resp_ctk.started,instr_color_to_key.stopped,resp_ctk.keys,resp_ctk.rt,resp_ctk.duration,ITI.started,fixcross.started,fixcross.stopped,ITI.stopped,color_to_key_run.started,stimulus_CTK.started,keyResp_CTK.started,color_to_key_run.stopped,trials_CTK.keyResp_CTK.keys,trials_CTK.keyResp_CTK.corr,trials_CTK.keyResp_CTK.rt,trials_CTK.keyResp_CTK.duration,instr_practice.started,instr_practice_text.started,instr_practice_resp.started,instr_practice.stopped,instr_practice_resp.keys,instr_practice_resp.rt,instr_practice_resp.duration,practice_run.started,stimulus_practice.started,respPractice.started,practice_run.stopped,trials_practice.respPractice.keys,trials_practice.respPractice.corr,trials_practice.respPractice.rt,trials_practice.respPractice.duration,feedback.started,textFeedback.started,textFeedback.stopped,feedback.stopped,instr_test.started,instr_test_text.started,instr_test_resp.started,instr_test.stopped,instr_test_resp.keys,instr_test_resp.rt,instr_test_resp.duration,test_run.started,stimulus_test_run.started,keyResp_test_run.started,test_run.stopped,trials_test.keyResp_test_run.keys,trials_test.keyResp_test_run.corr,trials_test.keyResp_test_run.rt,trials_test.keyResp_test_run.duration,goodbye.started,textGoodbye.started,textGoodbye.stopped,goodbye.stopped,participant,session,expName,frameRate,Unnamed: 113
,,,,,,,,,,,,,,,,,,,,,,,,,,,,,,,,,,,,,,,,,0.0136370000000169,0.0635830999999598,0.0635830999999598,0.0635830999999598,50.10054450000007,space,50.03502540000045,,,,,,,,,,,,,,,,,,,,,,,,,,,,,,,,,,,,,,,,,,,,,,,,,,,,,,,,,,,sub-143,1,stroop_test,120.28483448778552,
,,,,,,,,,,,,,,,,,,,,,,,,,,,,,,,,,,,,,,,,,,,,,,,,,50.10061379999934,50.115502799999376,50.115502799999376,59.49955979999959,space,9.375278700000308,,,,,,,,,,,,,,,,,,,,,,,,,,,,,,,,,,,,,,,,,,,,,,,,,,,,sub-143,1,stroop_test,120.28483448778552,
test,yellow,g,1.0,0.0,0.0,0.0,g,1.0,3.4192033999997875,,,,,,,,,,,,,,,,,,0.0,0.0,0.0,1.0,,,,,,,,,59.58054339999944,,,,,,,,,,,,,,,,,59.57625179999923,60.699523399999634,61.49887559999934,61.48293819999981,61.48837849999927,61.49887559999934,61.49887559999934,64.93388349999987,g,1.0,3.4192033999997875,,,,,,,,,,,,,,,,,,,,,,,,,,,,,,,,,,,,,,,,sub-143,1,stroop_test,120.28483448778552,
test,red,r,1.0,1.0,1.0,0.0,r,1.0,1.2610302000002775,,,,,,,,,,,,,,,,,,0.0,1.0,1.0,0.0,,,,,,,,,64.94859189999988,,,,,,,,,,,,,,,,,64.93420759999935,65.03320249999979,65.83199679999962,65.81625600000007,65.8168042999996,65.83199679999962,65.83199679999962,67.10060109999995,r,1.0,1.2610302000002775,,,,,,,,,,,,,,,,,,,,,,,,,,,,,,,,,,,,,,,,sub-143,1,stroop_test,120.28483448778552,
test,blue,b,1.0,2.0,2.0,0.0,b,1.0,0.4961729000006016,,,,,,,,,,,,,,,,,,0.0,2.0,2.0,2.0,,,,,,,,,67.11509509999996,,,,,,,,,,,,,,,,,67.10087649999969,67.46540769999956,68.26610839999921,68.24893519999932,68.24938810000003,68.26610839999921,68.26610839999921,68.76658109999971,b,1.0,0.4961729000006016,,,,,,,,,,,,,,,,,,,,,,,,,,,,,,,,,,,,,,,,sub-143,1,stroop_test,120.28483448778552,
test,red,r,1.0,3.0,0.0,1.0,g,0.0,0.5719496000001527,,,,,,,,,,,,,,,,,,1.0,0.0,3.0,0.0,,,,,,,,,68.78211879999981,,,,,,,,,,,,,,,,,68.76702339999974,69.13170549999995,69.9321674999992,69.91532049999932,69.91570329999922,69.9321674999992,69.9321674999992,70.51636099999996,g,0.0,0.5719496000001527,,,,,,,,,,,,,,,,,,,,,,,,,,,,,,,,,,,,,,,,sub-143,1,stroop_test,120.28483448778552,
test,yellow,g,1.0,4.0,1.0,1.0,g,1.0,0.863700400000198,,,,,,,,,,,,,,,,,,1.0,1.0,4.0,1.0,,,,,,,,,70.53296259999934,,,,,,,,,,,,,,,,,70.5167148999999,70.8822253999997,71.68296279999959,71.66574859999946,71.66614729999947,71.68296279999959,71.68296279999959,72.55011319999994,g,1.0,0.863700400000198,,,,,,,,,,,,,,,,,,,,,,,,,,,,,,,,,,,,,,,,sub-143,1,stroop_test,120.28483448778552,
test,blue,b,1.0,5.0,2.0,1.0,b,1.0,0.8620459999992818,,,,,,,,,,,,,,,,,,1.0,2.0,5.0,2.0,,,,,,,,,72.56508909999957,,,,,,,,,,,,,,,,,72.55047429999922,73.76548719999937,74.56532809999953,74.5500863999996,74.55057080000006,74.56532809999953,74.56532809999953,75.4341930999999,b,1.0,0.8620459999992818,,,,,,,,,,,,,,,,,,,,,,,,,,,,,,,,,,,,,,,,sub-143,1,stroop_test,120.28483448778552,
test,red,r,1.0,6.0,0.0,2.0,r,1.0,0.5403589000006832,,,,,,,,,,,,,,,,,,2.0,0.0,6.0,0.0,,,,,,,,,75.44837649999954,,,,,,,,,,,,,,,,,75.43461869999919,75.79889909999929,76.59845849999965,76.58306360000006,76.58346239999992,76.59845849999965,76.59845849999965,77.14961009999934,r,1.0,0.5403589000006832,,,,,,,,,,,,,,,,,,,,,,,,,,,,,,,,,,,,,,,,sub-143,1,stroop_test,120.28483448778552,
test,yellow,g,1.0,7.0,1.0,2.0,g,1.0,0.3720444000000498,,,,,,,,,,,,,,,,,,2.0,1.0,7.0,1.0,,,,,,,,,77.1650110999999,,,,,,,,,,,,,,,,,77.15006899999935,77.96565779999946,78.76518989999931,78.74970799999937,78.75011240000003,78.76518989999931,78.76518989999931,79.1511117,g,1.0,0.3720444000000498,,,,,,,,,,,,,,,,,,,,,,,,,,,,,,,,,,,,,,,,sub-143,1,stroop_test,120.28483448778552,
test,blue,b,1.0,8.0,2.0,2.0,b,1.0,0.4845942000001741,,,,,,,,,,,,,,,,,,2.0,2.0,8.0,2.0,,,,,,,,,79.16540869999972,,,,,,,,,,,,,,,,,79.15139789999921,80.36518129999968,81.16610419999961,81.14887009999984,81.14938119999988,81.16610419999961,81.16610419999961,81.66622409999945,b,1.0,0.4845942000001741,,,,,,,,,,,,,,,,,,,,,,,,,,,,,,,,,,,,,,,,sub-143,1,stroop_test,120.28483448778552,
test,yellow,g,1.0,9.0,0.0,3.0,g,1.0,0.7227278000000297,,,,,,,,,,,,,,,,,,3.0,0.0,9.0,1.0,,,,,,,,,81.68287509999936,,,,,,,,,,,,,,,,,81.66648669999995,82.88212649999969,83.68211079999946,83.66601480000008,83.66648170000008,83.68211079999946,83.68211079999946,84.41677359999994,g,1.0,0.7227278000000297,,,,,,,,,,,,,,,,,,,,,,,,,,,,,,,,,,,,,,,,sub-143,1,stroop_test,120.28483448778552,
test,red,r,1.0,10.0,1.0,3.0,r,1.0,0.3961418999997477,,,,,,,,,,,,,,,,,,3.0,1.0,10.0,0.0,,,,,,,,,84.43214050000006,,,,,,,,,,,,,,,,,84.41704439999921,84.5324914999992,85.33181399999921,85.31597349999993,85.31641589999981,85.33181399999921,85.33181399999921,85.73510549999992,r,1.0,0.3961418999997477,,,,,,,,,,,,,,,,,,,,,,,,,,,,,,,,,,,,,,,,sub-143,1,stroop_test,120.28483448778552,
test,blue,b,1.0,11.0,2.0,3.0,b,1.0,0.4254170000003796,,,,,,,,,,,,,,,,,,3.0,2.0,11.0,2.0,,,,,,,,,85.74932159999935,,,,,,,,,,,,,,,,,85.7354534999995,86.09831849999955,86.89800179999929,86.88276309999947,86.88315599999987,86.89800179999929,86.89800179999929,87.33411149999938,b,1.0,0.4254170000003796,,,,,,,,,,,,,,,,,,,,,,,,,,,,,,,,,,,,,,,,sub-143,1,stroop_test,120.28483448778552,
,,,,,,,,,,,,,,,,,,,,,,,,,,,,,,,,,,,,,,,,,,,,,,,,,,,,,,,,,,,,,,,,,,,,87.33423789999961,87.34838509999918,87.34838509999918,97.63358489999972,space,10.27570900000046,,,,,,,,,,,,,,,,,,,,,,,,,,,,,,,,,sub-143,1,stroop_test,120.28483448778552,
,,,,0.0,0.0,0.0,,,,,blau,yellow,g,0.0,b,0.0,0.8519676999994772,,,,,,,,,,,,,,0.0,0.0,0.0,7.0,,,,,97.6486262999997,,,,,,,,,,,,,,,,,97.64149039999938,97.99911639999937,98.79880520000006,98.78247009999995,,,,,,,,,,,,,,,,98.78868069999952,98.79880520000006,98.79880520000006,99.66676869999992,b,0.0,0.8519676999994772,,99.67279529999996,99.6823414999999,100.68325219999952,100.66616169999998,,,,,,,,,,,,,,,,,,,,sub-143,1,stroop_test,120.28483448778552,
,,,,1.0,1.0,0.0,,,,,blau,blue,b,1.0,b,1.0,1.6192270999999892,,,,,,,,,,,,,,0.0,1.0,1.0,5.0,,,,,100.68325219999952,,,,,,,,,,,,,,,,,100.66644109999925,101.88180589999956,102.6831534999992,102.66602819999936,,,,,,,,,,,,,,,,102.6664168999996,102.6831534999992,102.6831534999992,104.31724579999992,b,1.0,1.6192270999999892,,104.32399989999976,104.33232559999942,105.33346019999954,105.31666319999933,,,,,,,,,,,,,,,,,,,,sub-143,1,stroop_test,120.28483448778552,
,,,,2.0,2.0,0.0,,,,,gelb,red,r,0.0,g,0.0,0.899868399999832,,,,,,,,,,,,,,0.0,2.0,2.0,8.0,,,,,105.33346019999954,,,,,,,,,,,,,,,,,105.31692359999944,106.53169339999933,107.3318462999996,107.31595339999969,,,,,,,,,,,,,,,,107.3182608999996,107.3318462999996,107.3318462999996,108.2335452999996,g,0.0,0.899868399999832,,108.23631690000002,108.24908509999932,109.24878659999922,109.23256839999976,,,,,,,,,,,,,,,,,,,,sub-143,1,stroop_test,120.28483448778552,
,,,,3.0,3.0,0.0,,,,,gelb,yellow,g,1.0,g,1.0,1.0009564000001774,,,,,,,,,,,,,,0.0,3.0,3.0,10.0,,,,,109.24878659999922,,,,,,,,,,,,,,,,,109.2328396999992,110.0491846999994,110.8502280999992,110.8328692999994,,,,,,,,,,,,,,,,110.83346159999928,110.8502280999992,110.8502280999992,111.86633299999994,g,1.0,1.0009564000001774,,111.8689250999996,111.8820653999992,112.88233929999932,112.8656678999996,,,,,,,,,,,,,,,,,,,,sub-143,1,stroop_test,120.28483448778552,
,,,,4.0,4.0,0.0,,,,,blau,blue,b,1.0,b,1.0,1.564362400000391,,,,,,,,,,,,,,0.0,4.0,4.0,6.0,,,,,112.88233929999932,,,,,,,,,,,,,,,,,112.86594749999948,112.9820336999992,113.78298219999942,113.76623149999978,,,,,,,,,,,,,,,,113.76945929999964,113.78298219999942,113.78298219999942,115.3495327999999,b,1.0,1.564362400000391,,115.3499454999992,115.36521509999966,116.36590780000006,116.3497396999992,,,,,,,,,,,,,,,,,,,,sub-143,1,stroop_test,120.28483448778552,
,,,,5.0,5.0,0.0,,,,,gelb,blue,b,0.0,g,0.0,1.4162958000006256,,,,,,,,,,,,,,0.0,5.0,5.0,9.0,,,,,116.36590780000006,,,,,,,,,,,,,,,,,116.35008019999988,116.44934889999968,117.24845519999964,117.23234729999967,,,,,,,,,,,,,,,,117.23524309999992,117.24845519999964,117.24845519999964,118.66625799999927,g,0.0,1.4162958000006256,,118.66941429999952,118.68168839999998,119.68248640000002,119.6661211999999,,,,,,,,,,,,,,,,,,,,sub-143,1,stroop_test,120.28483448778552,
,,,,6.0,6.0,0.0,,,,,gelb,yellow,g,1.0,g,1.0,1.341701600000306,,,,,,,,,,,,,,0.0,6.0,6.0,11.0,,,,,119.68248640000002,,,,,,,,,,,,,,,,,119.66638919999968,120.86542439999994,121.66662569999971,121.64911479999957,,,,,,,,,,,,,,,,121.6495004999997,121.66662569999971,121.66662569999971,123.01724859999922,g,1.0,1.341701600000306,,123.02061839999988,123.03178320000006,124.03265039999953,124.0165038999994,,,,,,,,,,,,,,,,,,,,sub-143,1,stroop_test,120.28483448778552,
,,,,7.0,7.0,0.0,,,,,blau,red,r,0.0,r,1.0,3.391056400000707,,,,,,,,,,,,,,0.0,7.0,7.0,4.0,,,,,124.03265039999953,,,,,,,,,,,,,,,,,124.01686470000004,124.38203629999953,125.18174779999936,125.16612839999924,,,,,,,,,,,,,,,,125.1685852999999,125.18174779999936,125.18174779999936,128.58411539999997,r,1.0,3.391056400000707,,128.5846535999999,128.59879829999954,129.59895919999963,129.58257520000006,,,,,,,,,,,,,,,,,,,,sub-143,1,stroop_test,120.28483448778552,
,,,,8.0,8.0,0.0,,,,,rot,blue,b,0.0,b,1.0,1.3016795000003183,,,,,,,,,,,,,,0.0,8.0,8.0,2.0,,,,,129.59895919999963,,,,,,,,,,,,,,,,,129.58283729999948,130.79868729999998,131.59833999999955,131.58255740000004,,,,,,,,,,,,,,,,131.58719259999998,131.59833999999955,131.59833999999955,132.9165052999997,b,1.0,1.3016795000003183,,132.91695999999956,132.93187359999956,133.9320805999996,133.91585739999937,,,,,,,,,,,,,,,,,,,,sub-143,1,stroop_test,120.28483448778552,
,,,,9.0,9.0,0.0,,,,,rot,red,r,1.0,r,1.0,1.415109900000061,,,,,,,,,,,,,,0.0,9.0,9.0,0.0,,,,,133.9320805999996,,,,,,,,,,,,,,,,,133.9161755999994,135.11566799999946,135.91495020000002,135.8996950000001,,,,,,,,,,,,,,,,135.90008880000005,135.91495020000002,135.91495020000002,137.33413159999964,r,1.0,1.415109900000061,,137.33477499999935,137.34841599999982,138.35016199999973,138.33361239999977,,,,,,,,,,,,,,,,,,,,sub-143,1,stroop_test,120.28483448778552,
,,,,10.0,10.0,0.0,,,,,rot,red,r,1.0,r,1.0,0.6822155999998358,,,,,,,,,,,,,,0.0,10.0,10.0,1.0,,,,,138.35016199999973,,,,,,,,,,,,,,,,,138.33397909999985,139.54866349999975,140.34833309999976,140.3328262999994,,,,,,,,,,,,,,,,140.33321879999949,140.34833309999976,140.34833309999976,141.03357229999983,r,1.0,0.6822155999998358,,141.03398429999925,141.0487334999998,142.04973419999988,142.03322759999992,,,,,,,,,,,,,,,,,,,,sub-143,1,stroop_test,120.28483448778552,
,,,,11.0,11.0,0.0,,,,,rot,yellow,g,0.0,g,1.0,0.9401742000000012,,,,,,,,,,,,,,0.0,11.0,11.0,3.0,,,,,142.04973419999988,,,,,,,,,,,,,,,,,142.03348839999944,142.14980279999963,142.95038179999938,142.9330117999998,,,,,,,,,,,,,,,,142.9333999999999,142.95038179999938,142.95038179999938,143.90005010000004,g,1.0,0.9401742000000012,,143.90052819999983,143.9152121999996,144.91545039999983,144.89942429999974,,,,,,,,,,,,,,,,,,,,sub-143,1,stroop_test,120.28483448778552,
,,,,12.0,0.0,1.0,,,,,blau,red,r,0.0,r,1.0,0.9122401000004174,,,,,,,,,,,,,,1.0,0.0,12.0,4.0,,,,,144.91545039999983,,,,,,,,,,,,,,,,,144.89969519999977,145.2652597999995,146.06564720000006,146.0497280999998,,,,,,,,,,,,,,,,146.0521601999999,146.06564720000006,146.06564720000006,146.98300219999965,r,1.0,0.9122401000004174,,146.9835594999995,146.9984848999993,147.99913669999933,147.98299019999922,,,,,,,,,,,,,,,,,,,,sub-143,1,stroop_test,120.28483448778552,
,,,,13.0,1.0,1.0,,,,,rot,blue,b,0.0,b,1.0,0.6559026000004451,,,,,,,,,,,,,,1.0,1.0,13.0,2.0,,,,,147.99913669999933,,,,,,,,,,,,,,,,,147.9833340999994,149.18168789999982,149.98226559999966,149.9668941,,,,,,,,,,,,,,,,149.96927219999998,149.98226559999966,149.98226559999966,150.65024859999994,b,1.0,0.6559026000004451,,150.65067589999944,150.66552030000005,151.66578579999987,151.6496170999999,,,,,,,,,,,,,,,,,,,,sub-143,1,stroop_test,120.28483448778552,
,,,,14.0,2.0,1.0,,,,,blau,blue,b,1.0,b,1.0,0.8300072000001819,,,,,,,,,,,,,,1.0,2.0,14.0,6.0,,,,,151.66578579999987,,,,,,,,,,,,,,,,,151.64989119999973,151.7497715999998,152.54849990000002,152.53309179999997,,,,,,,,,,,,,,,,152.5352957999994,152.54849990000002,152.54849990000002,153.38359149999997,b,1.0,0.8300072000001819,,153.38401909999993,153.39847829999962,154.39924809999957,154.38311040000008,,,,,,,,,,,,,,,,,,,,sub-143,1,stroop_test,120.28483448778552,
,,,,15.0,3.0,1.0,,,,,gelb,blue,b,0.0,b,1.0,0.9662856000004468,,,,,,,,,,,,,,1.0,3.0,15.0,9.0,,,,,154.39924809999957,,,,,,,,,,,,,,,,,154.38337509999928,154.74943219999932,155.54907860000003,155.53300839999974,,,,,,,,,,,,,,,,155.53531919999932,155.54907860000003,155.54907860000003,156.51731349999957,b,1.0,0.9662856000004468,,156.5177832999998,156.53233789999922,157.53278299999965,157.51641909999944,,,,,,,,,,,,,,,,,,,,sub-143,1,stroop_test,120.28483448778552,
,,,,16.0,4.0,1.0,,,,,rot,red,r,1.0,r,1.0,0.8782152000003407,,,,,,,,,,,,,,1.0,4.0,16.0,0.0,,,,,157.53278299999965,,,,,,,,,,,,,,,,,157.51672129999952,158.73202969999966,159.53264239999953,159.51620469999943,,,,,,,,,,,,,,,,159.5189034999994,159.53264239999953,159.53264239999953,160.4174521999994,r,1.0,0.8782152000003407,,160.4179652999992,160.43251099999998,161.43295539999963,161.4167620999997,,,,,,,,,,,,,,,,,,,,sub-143,1,stroop_test,120.28483448778552,
,,,,17.0,5.0,1.0,,,,,gelb,yellow,g,1.0,g,1.0,0.6991060000000289,,,,,,,,,,,,,,1.0,5.0,17.0,11.0,,,,,161.43295539999963,,,,,,,,,,,,,,,,,161.41710299999977,161.7832228999996,162.5826477999999,162.56658339999922,,,,,,,,,,,,,,,,162.56912649999958,162.5826477999999,162.5826477999999,163.28453910000007,g,1.0,0.6991060000000289,,163.2850615999996,163.29878569999985,164.29884319999928,164.2826400999993,,,,,,,,,,,,,,,,,,,,sub-143,1,stroop_test,120.28483448778552,
,,,,18.0,6.0,1.0,,,,,rot,red,r,1.0,r,1.0,0.4614830999998958,,,,,,,,,,,,,,1.0,6.0,18.0,1.0,,,,,164.29884319999928,,,,,,,,,,,,,,,,,164.28297099999963,164.64905529999942,165.44907019999937,165.43358979999994,,,,,,,,,,,,,,,,165.4361218999993,165.44907019999937,165.44907019999937,165.91606309999952,r,1.0,0.4614830999998958,,165.9164796999994,165.93217209999966,166.9321158999992,166.9157129999994,,,,,,,,,,,,,,,,,,,,sub-143,1,stroop_test,120.28483448778552,
,,,,19.0,7.0,1.0,,,,,gelb,red,r,0.0,r,1.0,0.849110400000427,,,,,,,,,,,,,,1.0,7.0,19.0,8.0,,,,,166.9321158999992,,,,,,,,,,,,,,,,,166.91603959999975,167.01597999999922,167.81582350000008,167.8002908999997,,,,,,,,,,,,,,,,167.80322979999983,167.81582350000008,167.81582350000008,168.66796149999936,r,1.0,0.849110400000427,,168.66848459999983,168.68273999999928,169.6826013,169.66640499999994,,,,,,,,,,,,,,,,,,,,sub-143,1,stroop_test,120.28483448778552,
,,,,20.0,8.0,1.0,,,,,gelb,yellow,g,1.0,g,1.0,0.7617762999998376,,,,,,,,,,,,,,1.0,8.0,20.0,10.0,,,,,169.6826013,,,,,,,,,,,,,,,,,169.66667289999987,170.4819293999999,171.28237179999996,171.26680419999957,,,,,,,,,,,,,,,,171.2672864999995,171.28237179999996,171.28237179999996,172.05117040000005,g,1.0,0.7617762999998376,,172.0517437999997,172.06561899999997,173.0655552999997,173.0493534999996,,,,,,,,,,,,,,,,,,,,sub-143,1,stroop_test,120.28483448778552,
,,,,21.0,9.0,1.0,,,,,rot,yellow,g,0.0,g,1.0,0.6551073000000542,,,,,,,,,,,,,,1.0,9.0,21.0,3.0,,,,,173.0655552999997,,,,,,,,,,,,,,,,,173.0496037999992,173.16593169999942,173.96583829999963,173.94931539999925,,,,,,,,,,,,,,,,173.95211479999944,173.96583829999963,173.96583829999963,174.63366349999978,g,1.0,0.6551073000000542,,174.63408199999958,174.64917719999994,175.6490758,175.6331109999992,,,,,,,,,,,,,,,,,,,,sub-143,1,stroop_test,120.28483448778552,
,,,,22.0,10.0,1.0,,,,,blau,yellow,g,0.0,g,1.0,0.7003130000002784,,,,,,,,,,,,,,1.0,10.0,22.0,7.0,,,,,175.6490758,,,,,,,,,,,,,,,,,175.63336929999969,175.74878099999933,176.5490381999998,176.53268200000002,,,,,,,,,,,,,,,,176.5346630999993,176.5490381999998,176.5490381999998,177.25078829999984,g,1.0,0.7003130000002784,,177.25129449999986,177.26617149999947,178.26567469999918,178.24959969999964,,,,,,,,,,,,,,,,,,,,sub-143,1,stroop_test,120.28483448778552,
,,,,23.0,11.0,1.0,,,,,blau,blue,b,1.0,b,1.0,0.4769947000004322,,,,,,,,,,,,,,1.0,11.0,23.0,5.0,,,,,178.26567469999918,,,,,,,,,,,,,,,,,178.24985679999918,179.0656687999999,179.8664418999997,179.8496370999992,,,,,,,,,,,,,,,,179.85002480000003,179.8664418999997,179.8664418999997,180.3497987000001,b,1.0,0.4769947000004322,,180.35021249999957,180.3653673999997,181.3667165999996,181.3497657999997,,,,,,,,,,,,,,,,,,,,sub-143,1,stroop_test,120.28483448778552,
,,,,,,,,,,,,,,,,,,,,,,,,,,,,,,,,,,,,,,,,,,,,,,,,,,,,,,,,,,,,,,,,,,,,,,,,,,,,,,,,,,,,,,,181.34987699999965,181.3667165999996,181.3667165999996,191.68289729999924,space,10.311385700000756,,,,,,,,,,,,,,sub-143,1,stroop_test,120.28483448778552,
,,,,0.0,0.0,0.0,,,,,,,,,,,,,gelb,yellow,g,1.0,g,1.0,0.7025577000003977,,,,,,,,,,0.0,0.0,0.0,11.0,191.6982271999996,,,,,,,,,,,,,,,,,191.69272249999997,192.882697,193.68229709999923,193.66686819999995,,,,,,,,,,,,,,,,,,,,,,,,,,,,,,,,,,,193.66921,193.68229709999923,193.68229709999923,194.39988859999997,g,1.0,0.7025577000003977,,,,,,sub-143,1,stroop_test,120.28483448778552,
,,,,1.0,1.0,0.0,,,,,,,,,,,,,rot,red,r,1.0,r,1.0,0.7518767999999909,,,,,,,,,,0.0,1.0,1.0,0.0,194.41620449999937,,,,,,,,,,,,,,,,,194.4002209,195.59900769999967,196.3990508999996,196.3826274999992,,,,,,,,,,,,,,,,,,,,,,,,,,,,,,,,,,,196.3860627999993,196.3990508999996,196.3990508999996,197.16725339999996,r,1.0,0.7518767999999909,,,,,,sub-143,1,stroop_test,120.28483448778552,
,,,,2.0,2.0,0.0,,,,,,,,,,,,,rot,yellow,g,0.0,g,1.0,0.9252231000000392,,,,,,,,,,0.0,2.0,2.0,3.0,197.1823549000001,,,,,,,,,,,,,,,,,197.1676379999999,197.53243999999995,198.33440449999944,198.31681639999988,,,,,,,,,,,,,,,,,,,,,,,,,,,,,,,,,,,198.3172797999996,198.33440449999944,198.33440449999944,199.26782269999967,g,1.0,0.9252231000000392,,,,,,sub-143,1,stroop_test,120.28483448778552,
,,,,3.0,3.0,0.0,,,,,,,,,,,,,blau,blue,b,1.0,b,1.0,0.5493034999999509,,,,,,,,,,0.0,3.0,3.0,5.0,199.2822919,,,,,,,,,,,,,,,,,199.2682368999995,199.38283079999928,200.18182309999972,200.1656998999997,,,,,,,,,,,,,,,,,,,,,,,,,,,,,,,,,,,200.1676183,200.18182309999972,200.18182309999972,200.73476419999952,b,1.0,0.5493034999999509,,,,,,sub-143,1,stroop_test,120.28483448778552,
,,,,4.0,4.0,0.0,,,,,,,,,,,,,blau,yellow,g,0.0,g,1.0,0.9492136999997456,,,,,,,,,,0.0,4.0,4.0,7.0,200.7493416999996,,,,,,,,,,,,,,,,,200.73509359999932,200.84909139999945,201.6498501999995,201.6327713000001,,,,,,,,,,,,,,,,,,,,,,,,,,,,,,,,,,,201.6332309999998,201.6498501999995,201.6498501999995,202.60062759999985,g,1.0,0.9492136999997456,,,,,,sub-143,1,stroop_test,120.28483448778552,
,,,,5.0,5.0,0.0,,,,,,,,,,,,,blau,blue,b,1.0,b,1.0,0.4380503000002136,,,,,,,,,,0.0,5.0,5.0,6.0,202.6158894,,,,,,,,,,,,,,,,,202.6010555999992,203.41552039999988,204.21692799999985,204.1998051999999,,,,,,,,,,,,,,,,,,,,,,,,,,,,,,,,,,,204.20018889999935,204.21692799999985,204.21692799999985,204.66694169999937,b,1.0,0.4380503000002136,,,,,,sub-143,1,stroop_test,120.28483448778552,
,,,,6.0,6.0,0.0,,,,,,,,,,,,,gelb,red,r,0.0,r,1.0,0.886695599999257,,,,,,,,,,0.0,6.0,6.0,8.0,204.6835956999994,,,,,,,,,,,,,,,,,204.66723759999968,205.8668592999993,206.6661368999994,206.649915,,,,,,,,,,,,,,,,,,,,,,,,,,,,,,,,,,,206.65221380000003,206.6661368999994,206.6661368999994,207.56721969999944,r,1.0,0.886695599999257,,,,,,sub-143,1,stroop_test,120.28483448778552,
,,,,7.0,7.0,0.0,,,,,,,,,,,,,gelb,yellow,g,1.0,g,1.0,0.7318597999992562,,,,,,,,,,0.0,7.0,7.0,10.0,207.58358139999928,,,,,,,,,,,,,,,,,207.5675142,208.7665236999992,209.56626899999992,209.55016979999985,,,,,,,,,,,,,,,,,,,,,,,,,,,,,,,,,,,209.55063919999972,209.56626899999992,209.56626899999992,210.301074,g,1.0,0.7318597999992562,,,,,,sub-143,1,stroop_test,120.28483448778552,
,,,,8.0,8.0,0.0,,,,,,,,,,,,,rot,blue,b,0.0,b,1.0,0.5147387999995772,,,,,,,,,,0.0,8.0,8.0,2.0,210.3156315999995,,,,,,,,,,,,,,,,,210.3013745999997,211.1161319999992,211.9158273999992,211.9001292999992,,,,,,,,,,,,,,,,,,,,,,,,,,,,,,,,,,,211.9025855,211.9158273999992,211.9158273999992,212.43365469999932,b,1.0,0.5147387999995772,,,,,,sub-143,1,stroop_test,120.28483448778552,
,,,,9.0,9.0,0.0,,,,,,,,,,,,,gelb,blue,b,0.0,b,1.0,0.5201422999998613,,,,,,,,,,0.0,9.0,9.0,9.0,212.44980570000007,,,,,,,,,,,,,,,,,212.43395689999943,212.5492053999997,213.3488705,213.3330161999993,,,,,,,,,,,,,,,,,,,,,,,,,,,,,,,,,,,213.33531999999923,213.3488705,213.3488705,213.8831051999996,b,1.0,0.5201422999998613,,,,,,sub-143,1,stroop_test,120.28483448778552,
,,,,10.0,10.0,0.0,,,,,,,,,,,,,rot,red,r,1.0,g,0.0,0.5493612999998732,,,,,,,,,,0.0,10.0,10.0,1.0,213.89932270000008,,,,,,,,,,,,,,,,,213.88340889999927,214.2325796999994,215.03247969999936,215.01733729999975,,,,,,,,,,,,,,,,,,,,,,,,,,,,,,,,,,,215.0200823999994,215.03247969999936,215.03247969999936,215.5835952999996,g,0.0,0.5493612999998732,,,,,,sub-143,1,stroop_test,120.28483448778552,
,,,,11.0,11.0,0.0,,,,,,,,,,,,,blau,red,r,0.0,r,1.0,0.5819226000003255,,,,,,,,,,0.0,11.0,11.0,4.0,215.59994209999968,,,,,,,,,,,,,,,,,215.5838900999997,215.94866209999964,216.7486730999999,216.73340519999965,,,,,,,,,,,,,,,,,,,,,,,,,,,,,,,,,,,216.73535249999983,216.7486730999999,216.7486730999999,217.3334507,r,1.0,0.5819226000003255,,,,,,sub-143,1,stroop_test,120.28483448778552,
,,,,12.0,0.0,1.0,,,,,,,,,,,,,blau,blue,b,1.0,b,1.0,0.5691948000003322,,,,,,,,,,1.0,0.0,12.0,5.0,217.3497545,,,,,,,,,,,,,,,,,217.3337840999993,217.69957149999937,218.5005621,218.48291900000004,,,,,,,,,,,,,,,,,,,,,,,,,,,,,,,,,,,218.4833001999996,218.5005621,218.5005621,219.0834865999996,b,1.0,0.5691948000003322,,,,,,sub-143,1,stroop_test,120.28483448778552,
,,,,13.0,1.0,1.0,,,,,,,,,,,,,gelb,red,r,0.0,r,1.0,0.6216482999998334,,,,,,,,,,1.0,1.0,13.0,8.0,219.1003514999993,,,,,,,,,,,,,,,,,219.0838675999994,219.1821003999994,219.98233600000003,219.9663914999992,,,,,,,,,,,,,,,,,,,,,,,,,,,,,,,,,,,219.9693926,219.98233600000003,219.98233600000003,220.61656119999952,r,1.0,0.6216482999998334,,,,,,sub-143,1,stroop_test,120.28483448778552,
,,,,14.0,2.0,1.0,,,,,,,,,,,,,blau,yellow,g,0.0,g,1.0,0.3203150999997888,,,,,,,,,,1.0,2.0,14.0,7.0,220.6329367999997,,,,,,,,,,,,,,,,,220.6168534999997,221.8156530999995,222.6156977999999,222.5995659,,,,,,,,,,,,,,,,,,,,,,,,,,,,,,,,,,,222.6015189,222.6156977999999,222.6156977999999,222.9501318999992,g,1.0,0.3203150999997888,,,,,,sub-143,1,stroop_test,120.28483448778552,
,,,,15.0,3.0,1.0,,,,,,,,,,,,,blau,red,r,0.0,r,1.0,0.4610265000001163,,,,,,,,,,1.0,3.0,15.0,4.0,222.96696109999996,,,,,,,,,,,,,,,,,222.9505122999999,223.31590819999928,224.1164796999992,224.0995245999993,,,,,,,,,,,,,,,,,,,,,,,,,,,,,,,,,,,224.0999265999999,224.1164796999992,224.1164796999992,224.58346600000004,r,1.0,0.4610265000001163,,,,,,sub-143,1,stroop_test,120.28483448778552,
,,,,16.0,4.0,1.0,,,,,,,,,,,,,rot,red,r,1.0,r,1.0,0.4692382000002908,,,,,,,,,,1.0,4.0,16.0,0.0,224.6000545999996,,,,,,,,,,,,,,,,,224.5838488999998,224.9329017,225.73247850000007,225.7167626999999,,,,,,,,,,,,,,,,,,,,,,,,,,,,,,,,,,,225.71946919999937,225.73247850000007,225.73247850000007,226.21677550000004,r,1.0,0.4692382000002908,,,,,,sub-143,1,stroop_test,120.28483448778552,
,,,,17.0,5.0,1.0,,,,,,,,,,,,,gelb,yellow,g,1.0,g,1.0,0.5737402000004295,,,,,,,,,,1.0,5.0,17.0,10.0,226.2334164999993,,,,,,,,,,,,,,,,,226.2170770999992,226.5823793,227.3822757999997,227.36605559999956,,,,,,,,,,,,,,,,,,,,,,,,,,,,,,,,,,,227.3687864999993,227.3822757999997,227.3822757999997,227.96775079999952,g,1.0,0.5737402000004295,,,,,,sub-143,1,stroop_test,120.28483448778552,
,,,,18.0,6.0,1.0,,,,,,,,,,,,,rot,yellow,g,0.0,g,1.0,0.5966702999994595,,,,,,,,,,1.0,6.0,18.0,3.0,227.98230449999937,,,,,,,,,,,,,,,,,227.9680990999996,228.3321034999999,229.1324967999999,229.1161327,,,,,,,,,,,,,,,,,,,,,,,,,,,,,,,,,,,229.11843449999924,229.1324967999999,229.1324967999999,229.7331237999997,g,1.0,0.5966702999994595,,,,,,sub-143,1,stroop_test,120.28483448778552,
,,,,19.0,7.0,1.0,,,,,,,,,,,,,blau,blue,b,1.0,b,1.0,0.6139805000002525,,,,,,,,,,1.0,7.0,19.0,6.0,229.74973409999984,,,,,,,,,,,,,,,,,229.73350799999932,230.5332785999999,231.33265949999983,231.31664499999988,,,,,,,,,,,,,,,,,,,,,,,,,,,,,,,,,,,231.3187578999996,231.33265949999983,231.33265949999983,231.9501811,b,1.0,0.6139805000002525,,,,,,sub-143,1,stroop_test,120.28483448778552,
,,,,20.0,8.0,1.0,,,,,,,,,,,,,gelb,yellow,g,1.0,g,1.0,0.7388944999993328,,,,,,,,,,1.0,8.0,20.0,11.0,231.96664969999983,,,,,,,,,,,,,,,,,231.9504926,232.3153694999992,233.11536979999985,233.0994983999999,,,,,,,,,,,,,,,,,,,,,,,,,,,,,,,,,,,233.10175739999977,233.11536979999985,233.11536979999985,233.86691189999965,g,1.0,0.7388944999993328,,,,,,sub-143,1,stroop_test,120.28483448778552,
,,,,21.0,9.0,1.0,,,,,,,,,,,,,rot,red,r,1.0,r,1.0,0.57469619999938,,,,,,,,,,1.0,9.0,21.0,1.0,233.88312339999996,,,,,,,,,,,,,,,,,233.8672035999998,234.6822061999992,235.48201459999927,235.46613789999992,,,,,,,,,,,,,,,,,,,,,,,,,,,,,,,,,,,235.46878979999929,235.48201459999927,235.48201459999927,236.0669208999998,r,1.0,0.57469619999938,,,,,,sub-143,1,stroop_test,120.28483448778552,
,,,,22.0,10.0,1.0,,,,,,,,,,,,,gelb,blue,b,0.0,b,1.0,0.6644714999993084,,,,,,,,,,1.0,10.0,22.0,9.0,236.08363999999983,,,,,,,,,,,,,,,,,236.0672285999999,237.2660954999992,238.06563689999984,238.0497616999992,,,,,,,,,,,,,,,,,,,,,,,,,,,,,,,,,,,238.05318349999925,238.06563689999984,238.06563689999984,238.73344799999995,b,1.0,0.6644714999993084,,,,,,sub-143,1,stroop_test,120.28483448778552,
,,,,23.0,11.0,1.0,,,,,,,,,,,,,rot,blue,b,0.0,b,1.0,0.5299746000000596,,,,,,,,,,1.0,11.0,23.0,2.0,238.75011939999968,,,,,,,,,,,,,,,,,238.73374459999923,238.83289069999955,239.6323579,239.61584349999976,,,,,,,,,,,,,,,,,,,,,,,,,,,,,,,,,,,239.61809569999969,239.6323579,239.6323579,240.16639299999952,b,1.0,0.5299746000000596,,,,,,sub-143,1,stroop_test,120.28483448778552,
,,,,24.0,0.0,2.0,,,,,,,,,,,,,rot,blue,b,0.0,b,1.0,0.531372200000078,,,,,,,,,,2.0,0.0,24.0,2.0,240.1827915999993,,,,,,,,,,,,,,,,,240.16671289999977,240.96591089999947,241.7671860999999,241.7497926999995,,,,,,,,,,,,,,,,,,,,,,,,,,,,,,,,,,,241.75027189999943,241.7671860999999,241.7671860999999,242.30032649999976,b,1.0,0.531372200000078,,,,,,sub-143,1,stroop_test,120.28483448778552,
,,,,25.0,1.0,2.0,,,,,,,,,,,,,blau,blue,b,1.0,b,1.0,0.4116485000004104,,,,,,,,,,2.0,1.0,25.0,6.0,242.31687449999936,,,,,,,,,,,,,,,,,242.3007003999992,242.66611959999955,243.46652559999984,243.4493543999997,,,,,,,,,,,,,,,,,,,,,,,,,,,,,,,,,,,243.4512836999993,243.46652559999984,243.46652559999984,243.88292099999944,b,1.0,0.4116485000004104,,,,,,sub-143,1,stroop_test,120.28483448778552,
,,,,26.0,2.0,2.0,,,,,,,,,,,,,gelb,blue,b,0.0,b,1.0,0.5212467000001197,,,,,,,,,,2.0,2.0,26.0,9.0,243.89970679999988,,,,,,,,,,,,,,,,,243.88329559999968,244.6825535999997,245.48308389999968,245.46657549999964,,,,,,,,,,,,,,,,,,,,,,,,,,,,,,,,,,,245.4699544999994,245.48308389999968,245.48308389999968,246.0174191999995,b,1.0,0.5212467000001197,,,,,,sub-143,1,stroop_test,120.28483448778552,
,,,,27.0,3.0,2.0,,,,,,,,,,,,,rot,yellow,g,0.0,r,0.0,0.594539600000644,,,,,,,,,,2.0,3.0,27.0,3.0,246.0319473999998,,,,,,,,,,,,,,,,,246.0177111999992,246.3663487999993,247.1661463999999,247.14941289999933,,,,,,,,,,,,,,,,,,,,,,,,,,,,,,,,,,,247.151742,247.1661463999999,247.1661463999999,247.7667156999996,r,0.0,0.594539600000644,,,,,,sub-143,1,stroop_test,120.28483448778552,
,,,,28.0,4.0,2.0,,,,,,,,,,,,,gelb,yellow,g,1.0,g,1.0,0.5236908999995649,,,,,,,,,,2.0,4.0,28.0,11.0,247.78329229999963,,,,,,,,,,,,,,,,,247.7670185999996,248.1159031999996,248.91543269999968,248.89973519999967,,,,,,,,,,,,,,,,,,,,,,,,,,,,,,,,,,,248.9024847999999,248.91543269999968,248.91543269999968,249.45264509999924,g,1.0,0.5236908999995649,,,,,,sub-143,1,stroop_test,120.28483448778552,
,,,,29.0,5.0,2.0,,,,,,,,,,,,,rot,red,r,1.0,r,1.0,0.4380159000002095,,,,,,,,,,2.0,5.0,29.0,1.0,249.46641670000008,,,,,,,,,,,,,,,,,249.45306959999925,250.6662398999997,251.46541369999977,251.4498438999999,,,,,,,,,,,,,,,,,,,,,,,,,,,,,,,,,,,251.45248189999984,251.46541369999977,251.46541369999977,251.9179452999997,r,1.0,0.4380159000002095,,,,,,sub-143,1,stroop_test,120.28483448778552,
,,,,30.0,6.0,2.0,,,,,,,,,,,,,blau,yellow,g,0.0,g,1.0,0.5138483000000633,,,,,,,,,,2.0,6.0,30.0,7.0,251.9326019,,,,,,,,,,,,,,,,,251.9182801999996,252.28260379999935,253.08278359999983,253.06696139999983,,,,,,,,,,,,,,,,,,,,,,,,,,,,,,,,,,,253.06891799999997,253.08278359999983,253.08278359999983,253.6003015999995,g,1.0,0.5138483000000633,,,,,,sub-143,1,stroop_test,120.28483448778552,
,,,,31.0,7.0,2.0,,,,,,,,,,,,,rot,red,r,1.0,r,1.0,0.4997628999999506,,,,,,,,,,2.0,7.0,31.0,0.0,253.6167851,,,,,,,,,,,,,,,,,253.60064949999924,254.4159609999997,255.21546299999957,255.2007168,,,,,,,,,,,,,,,,,,,,,,,,,,,,,,,,,,,255.2035097999997,255.21546299999957,255.21546299999957,255.7169635,r,1.0,0.4997628999999506,,,,,,sub-143,1,stroop_test,120.28483448778552,
,,,,32.0,8.0,2.0,,,,,,,,,,,,,gelb,red,r,0.0,r,1.0,0.4167938000000504,,,,,,,,,,2.0,8.0,32.0,8.0,255.7336777999999,,,,,,,,,,,,,,,,,255.7173114999996,256.0821038999993,256.8825603999994,256.8662029999996,,,,,,,,,,,,,,,,,,,,,,,,,,,,,,,,,,,256.86857429999964,256.8825603999994,256.8825603999994,257.3010650999995,r,1.0,0.4167938000000504,,,,,,sub-143,1,stroop_test,120.28483448778552,
,,,,33.0,9.0,2.0,,,,,,,,,,,,,blau,blue,b,1.0,b,1.0,0.6231909000007363,,,,,,,,,,2.0,9.0,33.0,5.0,257.31583899999987,,,,,,,,,,,,,,,,,257.30137169999944,257.66590629999973,258.4655813999998,258.4502217999998,,,,,,,,,,,,,,,,,,,,,,,,,,,,,,,,,,,258.4525334,258.4655813999998,258.4655813999998,259.09977660000004,b,1.0,0.6231909000007363,,,,,,sub-143,1,stroop_test,120.28483448778552,
,,,,34.0,10.0,2.0,,,,,,,,,,,,,gelb,yellow,g,1.0,g,1.0,1.0988395000003948,,,,,,,,,,2.0,10.0,34.0,10.0,259.1160153999999,,,,,,,,,,,,,,,,,259.1001056999994,259.19958700000007,259.9990111999996,259.9837775999995,,,,,,,,,,,,,,,,,,,,,,,,,,,,,,,,,,,259.98713079999925,259.9990111999996,259.9990111999996,261.1003351999998,g,1.0,1.0988395000003948,,,,,,sub-143,1,stroop_test,120.28483448778552,
,,,,35.0,11.0,2.0,,,,,,,,,,,,,blau,red,r,0.0,r,1.0,0.3813540999999532,,,,,,,,,,2.0,11.0,35.0,4.0,261.1165885999999,,,,,,,,,,,,,,,,,261.1006245999997,261.4659993999994,262.26652769999964,262.25006069999927,,,,,,,,,,,,,,,,,,,,,,,,,,,,,,,,,,,262.2525724999996,262.26652769999964,262.26652769999964,262.6505860999996,r,1.0,0.3813540999999532,,,,,,sub-143,1,stroop_test,120.28483448778552,
,,,,36.0,0.0,3.0,,,,,,,,,,,,,blau,blue,b,1.0,b,1.0,0.5106727000002138,,,,,,,,,,3.0,0.0,36.0,6.0,262.6677028999993,,,,,,,,,,,,,,,,,262.65090340000006,263.00022569999965,263.7991556999996,263.7833621,,,,,,,,,,,,,,,,,,,,,,,,,,,,,,,,,,,263.78391119999924,263.7991556999996,263.7991556999996,264.3164898999994,b,1.0,0.5106727000002138,,,,,,sub-143,1,stroop_test,120.28483448778552,
,,,,37.0,1.0,3.0,,,,,,,,,,,,,rot,red,r,1.0,r,1.0,0.9746055000005072,,,,,,,,,,3.0,1.0,37.0,1.0,264.33350429999973,,,,,,,,,,,,,,,,,264.3167891999992,265.11620330000005,265.91607789999944,265.9000964999996,,,,,,,,,,,,,,,,,,,,,,,,,,,,,,,,,,,265.9029484999992,265.91607789999944,265.91607789999944,266.9007161999998,r,1.0,0.9746055000005072,,,,,,sub-143,1,stroop_test,120.28483448778552,
,,,,38.0,2.0,3.0,,,,,,,,,,,,,gelb,yellow,g,1.0,g,1.0,0.6219201000003522,,,,,,,,,,3.0,2.0,38.0,11.0,266.9155805999999,,,,,,,,,,,,,,,,,266.90109589999975,267.01595219999945,267.81611470000007,267.80023859999983,,,,,,,,,,,,,,,,,,,,,,,,,,,,,,,,,,,267.80253469999934,267.81611470000007,267.81611470000007,268.45009089999985,g,1.0,0.6219201000003522,,,,,,sub-143,1,stroop_test,120.28483448778552,
,,,,39.0,3.0,3.0,,,,,,,,,,,,,rot,red,r,1.0,r,1.0,0.4965484000003926,,,,,,,,,,3.0,3.0,39.0,0.0,268.4669888999997,,,,,,,,,,,,,,,,,268.4503926999996,269.24940459999925,270.04941319999944,270.03323199999977,,,,,,,,,,,,,,,,,,,,,,,,,,,,,,,,,,,270.0354793999996,270.04941319999944,270.04941319999944,270.5507958999997,r,1.0,0.4965484000003926,,,,,,sub-143,1,stroop_test,120.28483448778552,
,,,,40.0,4.0,3.0,,,,,,,,,,,,,gelb,red,r,0.0,r,1.0,0.627036699999735,,,,,,,,,,3.0,4.0,40.0,8.0,270.5672833999997,,,,,,,,,,,,,,,,,270.5512738999996,271.3661355999993,272.1657355999996,272.1504142999993,,,,,,,,,,,,,,,,,,,,,,,,,,,,,,,,,,,272.1535539999996,272.1657355999996,272.1657355999996,272.8001953999992,r,1.0,0.627036699999735,,,,,,sub-143,1,stroop_test,120.28483448778552,
,,,,41.0,5.0,3.0,,,,,,,,,,,,,gelb,blue,b,0.0,b,1.0,0.5758349999996426,,,,,,,,,,3.0,5.0,41.0,9.0,272.8170784999993,,,,,,,,,,,,,,,,,272.80050759999995,272.9157675999995,273.71558839999943,273.69955479999953,,,,,,,,,,,,,,,,,,,,,,,,,,,,,,,,,,,273.70011499999964,273.71558839999943,273.71558839999943,274.2999051999996,b,1.0,0.5758349999996426,,,,,,sub-143,1,stroop_test,120.28483448778552,
,,,,42.0,6.0,3.0,,,,,,,,,,,,,blau,red,r,0.0,r,1.0,0.606903500000044,,,,,,,,,,3.0,6.0,42.0,4.0,274.3167377,,,,,,,,,,,,,,,,,274.30029119999926,275.4989622999992,276.2991730999993,276.28302799999983,,,,,,,,,,,,,,,,,,,,,,,,,,,,,,,,,,,276.2854373,276.2991730999993,276.2991730999993,276.9171512999992,r,1.0,0.606903500000044,,,,,,sub-143,1,stroop_test,120.28483448778552,
,,,,43.0,7.0,3.0,,,,,,,,,,,,,gelb,yellow,g,1.0,g,1.0,0.6291995000001407,,,,,,,,,,3.0,7.0,43.0,10.0,276.93244999999933,,,,,,,,,,,,,,,,,276.91777999999977,278.1158274999998,278.91590649999944,278.9003413999999,,,,,,,,,,,,,,,,,,,,,,,,,,,,,,,,,,,278.9027041999998,278.91590649999944,278.91590649999944,279.55031489999965,g,1.0,0.6291995000001407,,,,,,sub-143,1,stroop_test,120.28483448778552,
,,,,44.0,8.0,3.0,,,,,,,,,,,,,rot,yellow,g,0.0,g,1.0,0.5647242999993978,,,,,,,,,,3.0,8.0,44.0,3.0,279.5673815,,,,,,,,,,,,,,,,,279.55062499999985,280.36635380000007,281.1659444999996,281.15126770000006,,,,,,,,,,,,,,,,,,,,,,,,,,,,,,,,,,,281.1551572999997,281.1659444999996,281.1659444999996,281.7343347999995,g,1.0,0.5647242999993978,,,,,,sub-143,1,stroop_test,120.28483448778552,
,,,,45.0,9.0,3.0,,,,,,,,,,,,,blau,blue,b,1.0,b,1.0,0.5277536000003238,,,,,,,,,,3.0,9.0,45.0,5.0,281.7496302999998,,,,,,,,,,,,,,,,,281.7346443999995,282.54955269999937,283.34909609999977,283.33269479999944,,,,,,,,,,,,,,,,,,,,,,,,,,,,,,,,,,,283.3351266,283.34909609999977,283.34909609999977,283.88375730000007,b,1.0,0.5277536000003238,,,,,,sub-143,1,stroop_test,120.28483448778552,
,,,,46.0,10.0,3.0,,,,,,,,,,,,,blau,yellow,g,0.0,g,1.0,0.681745900000351,,,,,,,,,,3.0,10.0,46.0,7.0,283.9006449999997,,,,,,,,,,,,,,,,,283.8842281999996,284.00057769999967,284.8159292999999,284.79996069999925,,,,,,,,,,,,,,,,,,,,,,,,,,,,,,,,,,,284.80042109999977,284.8159292999999,284.8159292999999,285.5016444999992,g,1.0,0.681745900000351,,,,,,sub-143,1,stroop_test,120.28483448778552,
,,,,47.0,11.0,3.0,,,,,,,,,,,,,rot,blue,b,0.0,b,1.0,0.7205479999993258,,,,,,,,,,3.0,11.0,47.0,2.0,285.5163937999996,,,,,,,,,,,,,,,,,285.5019536,286.71617309999965,287.5158437,287.4994379999998,,,,,,,,,,,,,,,,,,,,,,,,,,,,,,,,,,,287.5022977999997,287.5158437,287.5158437,288.2507769999993,b,1.0,0.7205479999993258,,,,,,sub-143,1,stroop_test,120.28483448778552,
,,,,48.0,0.0,4.0,,,,,,,,,,,,,gelb,blue,b,0.0,b,1.0,0.5954781000000366,,,,,,,,,,4.0,0.0,48.0,9.0,288.26593559999947,,,,,,,,,,,,,,,,,288.25118329999987,288.6160913999993,289.4158359999992,289.3991835999996,,,,,,,,,,,,,,,,,,,,,,,,,,,,,,,,,,,289.40210169999955,289.4158359999992,289.4158359999992,290.01783819999946,b,1.0,0.5954781000000366,,,,,,sub-143,1,stroop_test,120.28483448778552,
,,,,49.0,1.0,4.0,,,,,,,,,,,,,gelb,yellow,g,1.0,g,1.0,0.5403065999998944,,,,,,,,,,4.0,1.0,49.0,11.0,290.0329142999999,,,,,,,,,,,,,,,,,290.01822300000003,290.3824150999999,291.1819969999997,291.16641189999973,,,,,,,,,,,,,,,,,,,,,,,,,,,,,,,,,,,291.1668658999997,291.1819969999997,291.1819969999997,291.73335569999927,g,1.0,0.5403065999998944,,,,,,sub-143,1,stroop_test,120.28483448778552,
,,,,50.0,2.0,4.0,,,,,,,,,,,,,rot,red,r,1.0,r,1.0,0.4561414999998305,,,,,,,,,,4.0,2.0,50.0,0.0,291.7503547999995,,,,,,,,,,,,,,,,,291.7337282999997,292.09875939999984,292.89888429999974,292.8830115999999,,,,,,,,,,,,,,,,,,,,,,,,,,,,,,,,,,,292.8852981,292.89888429999974,292.89888429999974,293.3677589999997,r,1.0,0.4561414999998305,,,,,,sub-143,1,stroop_test,120.28483448778552,
,,,,51.0,3.0,4.0,,,,,,,,,,,,,gelb,red,r,0.0,r,1.0,0.5462489999999889,,,,,,,,,,4.0,3.0,51.0,8.0,293.38260659999924,,,,,,,,,,,,,,,,,293.3680850999999,294.1820906999992,294.9823469999992,294.96663219999937,,,,,,,,,,,,,,,,,,,,,,,,,,,,,,,,,,,294.96950839999954,294.9823469999992,294.9823469999992,295.5340135999995,r,1.0,0.5462489999999889,,,,,,sub-143,1,stroop_test,120.28483448778552,
,,,,52.0,4.0,4.0,,,,,,,,,,,,,blau,yellow,g,0.0,g,1.0,0.5707694000002448,,,,,,,,,,4.0,4.0,52.0,7.0,295.54984179999974,,,,,,,,,,,,,,,,,295.5344269999996,296.3488719999996,297.1489189999993,297.13326229999984,,,,,,,,,,,,,,,,,,,,,,,,,,,,,,,,,,,297.1356855999993,297.1489189999993,297.1489189999993,297.7354087999993,g,1.0,0.5707694000002448,,,,,,sub-143,1,stroop_test,120.28483448778552,
,,,,53.0,5.0,4.0,,,,,,,,,,,,,rot,yellow,g,0.0,g,1.0,0.7356787999997323,,,,,,,,,,4.0,5.0,53.0,3.0,297.7490521,,,,,,,,,,,,,,,,,297.73592089999966,298.9489896999994,299.7486487999995,299.73287619999974,,,,,,,,,,,,,,,,,,,,,,,,,,,,,,,,,,,299.73635039999954,299.7486487999995,299.7486487999995,300.50067129999934,g,1.0,0.7356787999997323,,,,,,sub-143,1,stroop_test,120.28483448778552,
,,,,54.0,6.0,4.0,,,,,,,,,,,,,blau,blue,b,1.0,b,1.0,0.6092216000006374,,,,,,,,,,4.0,6.0,54.0,5.0,300.5170789999993,,,,,,,,,,,,,,,,,300.5010635999997,301.31576139999925,302.1156085999992,302.0996304999999,,,,,,,,,,,,,,,,,,,,,,,,,,,,,,,,,,,302.1015639999996,302.1156085999992,302.1156085999992,302.73396409999987,b,1.0,0.6092216000006374,,,,,,sub-143,1,stroop_test,120.28483448778552,
,,,,55.0,7.0,4.0,,,,,,,,,,,,,rot,blue,b,0.0,b,1.0,0.5418078999991849,,,,,,,,,,4.0,7.0,55.0,2.0,302.7504653999995,,,,,,,,,,,,,,,,,302.73426709999967,303.09938989999955,303.89897799999926,303.8833976999995,,,,,,,,,,,,,,,,,,,,,,,,,,,,,,,,,,,303.88568739999937,303.89897799999926,303.89897799999926,304.45063779999964,b,1.0,0.5418078999991849,,,,,,sub-143,1,stroop_test,120.28483448778552,
,,,,56.0,8.0,4.0,,,,,,,,,,,,,rot,red,r,1.0,r,1.0,0.6253594999998313,,,,,,,,,,4.0,8.0,56.0,1.0,304.4653791999999,,,,,,,,,,,,,,,,,304.4510231999993,304.8160255999992,305.61539730000004,305.5997641999993,,,,,,,,,,,,,,,,,,,,,,,,,,,,,,,,,,,305.60016279999945,305.61539730000004,305.61539730000004,306.2511869,r,1.0,0.6253594999998313,,,,,,sub-143,1,stroop_test,120.28483448778552,
,,,,57.0,9.0,4.0,,,,,,,,,,,,,blau,red,r,0.0,r,1.0,1.35413459999927,,,,,,,,,,4.0,9.0,57.0,4.0,306.2659520999996,,,,,,,,,,,,,,,,,306.2515420999998,307.46578580000005,308.2653309999996,308.2495333999996,,,,,,,,,,,,,,,,,,,,,,,,,,,,,,,,,,,308.2514846999993,308.2653309999996,308.2653309999996,309.63386790000004,r,1.0,1.35413459999927,,,,,,sub-143,1,stroop_test,120.28483448778552,
,,,,58.0,10.0,4.0,,,,,,,,,,,,,blau,blue,b,1.0,b,1.0,0.5108322999994925,,,,,,,,,,4.0,10.0,58.0,6.0,309.6489533999993,,,,,,,,,,,,,,,,,309.6342482,309.99965040000006,310.80071659999976,310.7833260999996,,,,,,,,,,,,,,,,,,,,,,,,,,,,,,,,,,,310.7837009999994,310.80071659999976,310.80071659999976,311.3176735999996,b,1.0,0.5108322999994925,,,,,,sub-143,1,stroop_test,120.28483448778552,
,,,,59.0,11.0,4.0,,,,,,,,,,,,,gelb,yellow,g,1.0,g,1.0,0.5212620000002062,,,,,,,,,,4.0,11.0,59.0,10.0,311.33267609999984,,,,,,,,,,,,,,,,,311.3182195999998,311.43214069999976,312.2333779999999,312.21733700000004,,,,,,,,,,,,,,,,,,,,,,,,,,,,,,,,,,,312.2211078999999,312.2333779999999,312.2333779999999,312.7677359999998,g,1.0,0.5212620000002062,,,,,,sub-143,1,stroop_test,120.28483448778552,
,,,,60.0,0.0,5.0,,,,,,,,,,,,,blau,red,r,0.0,r,1.0,0.6962476999997307,,,,,,,,,,5.0,0.0,60.0,4.0,312.7826892999992,,,,,,,,,,,,,,,,,312.7680662999992,313.1324887999999,313.9323012999994,313.9167244,,,,,,,,,,,,,,,,,,,,,,,,,,,,,,,,,,,313.91870629999994,313.9323012999994,313.9323012999994,314.63496719999966,r,1.0,0.6962476999997307,,,,,,sub-143,1,stroop_test,120.28483448778552,
,,,,61.0,1.0,5.0,,,,,,,,,,,,,rot,yellow,g,0.0,g,1.0,0.9428815000001124,,,,,,,,,,5.0,1.0,61.0,3.0,314.6492782999994,,,,,,,,,,,,,,,,,314.6352834999998,314.7500059999993,315.5493871999997,315.53315739999925,,,,,,,,,,,,,,,,,,,,,,,,,,,,,,,,,,,315.53601419999995,315.5493871999997,315.5493871999997,316.5005449,g,1.0,0.9428815000001124,,,,,,sub-143,1,stroop_test,120.28483448778552,
,,,,62.0,2.0,5.0,,,,,,,,,,,,,blau,yellow,g,0.0,g,1.0,0.4842589999998381,,,,,,,,,,5.0,2.0,62.0,7.0,316.5165803,,,,,,,,,,,,,,,,,316.5008566999996,317.6996971999997,318.4991389999996,318.48318990000007,,,,,,,,,,,,,,,,,,,,,,,,,,,,,,,,,,,318.4860755,318.4991389999996,318.4991389999996,319.0000633999998,g,1.0,0.4842589999998381,,,,,,sub-143,1,stroop_test,120.28483448778552,
,,,,63.0,3.0,5.0,,,,,,,,,,,,,gelb,blue,b,0.0,b,1.0,0.5091818000000785,,,,,,,,,,5.0,3.0,63.0,9.0,319.0164312999996,,,,,,,,,,,,,,,,,319.0003663999996,319.34968519999984,320.1484892999997,320.1329405999996,,,,,,,,,,,,,,,,,,,,,,,,,,,,,,,,,,,320.1352455999995,320.1484892999997,320.1484892999997,320.6673535,b,1.0,0.5091818000000785,,,,,,sub-143,1,stroop_test,120.28483448778552,
,,,,64.0,4.0,5.0,,,,,,,,,,,,,rot,red,r,1.0,r,1.0,0.4659448000002157,,,,,,,,,,5.0,4.0,64.0,0.0,320.6823183999996,,,,,,,,,,,,,,,,,320.6676590999996,321.0330148999992,321.8323289,321.8162900999996,,,,,,,,,,,,,,,,,,,,,,,,,,,,,,,,,,,321.8186605000001,321.8323289,321.8323289,322.3001099999992,r,1.0,0.4659448000002157,,,,,,sub-143,1,stroop_test,120.28483448778552,
,,,,65.0,5.0,5.0,,,,,,,,,,,,,blau,blue,b,1.0,b,1.0,0.5072578999997859,,,,,,,,,,5.0,5.0,65.0,6.0,322.31657579999955,,,,,,,,,,,,,,,,,322.3004412,322.3990903999993,323.1992636999994,323.1832725999993,,,,,,,,,,,,,,,,,,,,,,,,,,,,,,,,,,,323.1857522,323.1992636999994,323.1992636999994,323.716993,b,1.0,0.5072578999997859,,,,,,sub-143,1,stroop_test,120.28483448778552,
,,,,66.0,6.0,5.0,,,,,,,,,,,,,gelb,red,r,0.0,r,1.0,0.6051786000007269,,,,,,,,,,5.0,6.0,66.0,8.0,323.7320218999994,,,,,,,,,,,,,,,,,323.7173730999993,324.5329149999998,325.3323944999993,325.3160988,,,,,,,,,,,,,,,,,,,,,,,,,,,,,,,,,,,325.3197516,325.3323944999993,325.3323944999993,325.9504946999996,r,1.0,0.6051786000007269,,,,,,sub-143,1,stroop_test,120.28483448778552,
,,,,67.0,7.0,5.0,,,,,,,,,,,,,gelb,yellow,g,1.0,g,1.0,0.6423065999997561,,,,,,,,,,5.0,7.0,67.0,11.0,325.96701829999984,,,,,,,,,,,,,,,,,325.9508554999993,327.1493969999992,327.9494077999998,327.9345085999994,,,,,,,,,,,,,,,,,,,,,,,,,,,,,,,,,,,327.93491659999927,327.9494077999998,327.9494077999998,328.6014527999996,g,1.0,0.6423065999997561,,,,,,sub-143,1,stroop_test,120.28483448778552,
,,,,68.0,8.0,5.0,,,,,,,,,,,,,rot,blue,b,0.0,b,1.0,0.6173809000001711,,,,,,,,,,5.0,8.0,68.0,2.0,328.6160409999993,,,,,,,,,,,,,,,,,328.6017919999995,328.71647699999994,329.5158056999999,329.4996395999997,,,,,,,,,,,,,,,,,,,,,,,,,,,,,,,,,,,329.5024481999999,329.5158056999999,329.5158056999999,330.13474979999955,b,1.0,0.6173809000001711,,,,,,sub-143,1,stroop_test,120.28483448778552,
,,,,69.0,9.0,5.0,,,,,,,,,,,,,blau,blue,b,1.0,b,1.0,0.4072516000005635,,,,,,,,,,5.0,9.0,69.0,5.0,330.1490275999995,,,,,,,,,,,,,,,,,330.1351333999992,330.94915239999955,331.7488427999997,331.73327939999945,,,,,,,,,,,,,,,,,,,,,,,,,,,,,,,,,,,331.7361747999994,331.7488427999997,331.7488427999997,332.16770369999995,b,1.0,0.4072516000005635,,,,,,sub-143,1,stroop_test,120.28483448778552,
,,,,70.0,10.0,5.0,,,,,,,,,,,,,gelb,yellow,g,1.0,g,1.0,0.9722240999999484,,,,,,,,,,5.0,10.0,70.0,10.0,332.1823338999993,,,,,,,,,,,,,,,,,332.16825269999936,332.5327279999992,333.3330724999996,333.3172749999994,,,,,,,,,,,,,,,,,,,,,,,,,,,,,,,,,,,333.31957969999985,333.3330724999996,333.3330724999996,334.3167334999998,g,1.0,0.9722240999999484,,,,,,sub-143,1,stroop_test,120.28483448778552,
,,,,71.0,11.0,5.0,,,,,,,,,,,,,rot,red,r,1.0,r,1.0,0.6262560000004669,,,,,,,,,,5.0,11.0,71.0,1.0,334.33321889999934,,,,,,,,,,,,,,,,,334.3171018999992,334.68251749999945,335.48260459999983,335.4664699999994,,,,,,,,,,,,,,,,,,,,,,,,,,,,,,,,,,,335.4693426999993,335.48260459999983,335.48260459999983,336.1169571999999,r,1.0,0.6262560000004669,,,,,,sub-143,1,stroop_test,120.28483448778552,
,,,,72.0,0.0,6.0,,,,,,,,,,,,,blau,yellow,g,0.0,g,1.0,0.6038853000000017,,,,,,,,,,6.0,0.0,72.0,7.0,336.1330774999997,,,,,,,,,,,,,,,,,336.1173001999996,336.23302220000005,337.0323763999995,337.01675069999965,,,,,,,,,,,,,,,,,,,,,,,,,,,,,,,,,,,337.0192068999995,337.0323763999995,337.0323763999995,337.65054919999966,g,1.0,0.6038853000000017,,,,,,sub-143,1,stroop_test,120.28483448778552,
,,,,73.0,1.0,6.0,,,,,,,,,,,,,gelb,yellow,g,1.0,g,1.0,0.6063946999993277,,,,,,,,,,6.0,1.0,73.0,11.0,337.6666803999997,,,,,,,,,,,,,,,,,337.65084279999974,337.7661445999993,338.56595339999967,338.5497218999999,,,,,,,,,,,,,,,,,,,,,,,,,,,,,,,,,,,338.55201379999926,338.56595339999967,338.56595339999967,339.18480289999934,g,1.0,0.6063946999993277,,,,,,sub-143,1,stroop_test,120.28483448778552,
,,,,74.0,2.0,6.0,,,,,,,,,,,,,gelb,red,r,0.0,r,1.0,0.5045979999995325,,,,,,,,,,6.0,2.0,74.0,8.0,339.1995146,,,,,,,,,,,,,,,,,339.18509579999954,340.3998746999996,341.1991386,341.1835345999998,,,,,,,,,,,,,,,,,,,,,,,,,,,,,,,,,,,341.1839233999999,341.1991386,341.1991386,341.7174198999992,r,1.0,0.5045979999995325,,,,,,sub-143,1,stroop_test,120.28483448778552,
,,,,75.0,3.0,6.0,,,,,,,,,,,,,blau,red,r,0.0,r,1.0,0.6368882000006124,,,,,,,,,,6.0,3.0,75.0,4.0,341.7338089999994,,,,,,,,,,,,,,,,,341.7177179999999,342.53299009999955,343.3326164,343.3169954999994,,,,,,,,,,,,,,,,,,,,,,,,,,,,,,,,,,,343.31982379999954,343.3326164,343.3326164,343.9835309,r,1.0,0.6368882000006124,,,,,,sub-143,1,stroop_test,120.28483448778552,
,,,,76.0,4.0,6.0,,,,,,,,,,,,,rot,red,r,1.0,r,1.0,0.455844199999774,,,,,,,,,,6.0,4.0,76.0,0.0,343.9998794999992,,,,,,,,,,,,,,,,,343.98392089999925,344.33284379999986,345.1325939999997,345.1162889999996,,,,,,,,,,,,,,,,,,,,,,,,,,,,,,,,,,,345.11936459999924,345.1325939999997,345.1325939999997,345.6006785999998,r,1.0,0.455844199999774,,,,,,sub-143,1,stroop_test,120.28483448778552,
,,,,77.0,5.0,6.0,,,,,,,,,,,,,rot,yellow,g,0.0,g,1.0,0.6570364999997764,,,,,,,,,,6.0,5.0,77.0,3.0,345.6154004,,,,,,,,,,,,,,,,,345.6010626999996,345.9664759999996,346.7665393999996,346.75085519999993,,,,,,,,,,,,,,,,,,,,,,,,,,,,,,,,,,,346.7514715999996,346.7665393999996,346.7665393999996,347.4336418999992,g,1.0,0.6570364999997764,,,,,,sub-143,1,stroop_test,120.28483448778552,
,,,,78.0,6.0,6.0,,,,,,,,,,,,,blau,blue,b,1.0,b,1.0,0.4222884999999223,,,,,,,,,,6.0,6.0,78.0,6.0,347.4497789999996,,,,,,,,,,,,,,,,,347.4339311999993,347.7833520999993,348.58224189999964,348.56681750000007,,,,,,,,,,,,,,,,,,,,,,,,,,,,,,,,,,,348.5693218999995,348.58224189999964,348.58224189999964,349.0173526999997,b,1.0,0.4222884999999223,,,,,,sub-143,1,stroop_test,120.28483448778552,
,,,,79.0,7.0,6.0,,,,,,,,,,,,,rot,blue,b,0.0,b,1.0,0.6859862000001158,,,,,,,,,,6.0,7.0,79.0,2.0,349.03395249999994,,,,,,,,,,,,,,,,,349.01765609999984,350.23291619999964,351.0326693999996,351.0166715999994,,,,,,,,,,,,,,,,,,,,,,,,,,,,,,,,,,,351.02045610000005,351.0326693999996,351.0326693999996,351.73488180000004,b,1.0,0.6859862000001158,,,,,,sub-143,1,stroop_test,120.28483448778552,
,,,,80.0,8.0,6.0,,,,,,,,,,,,,gelb,yellow,g,1.0,g,1.0,0.4423073999996632,,,,,,,,,,6.0,8.0,80.0,10.0,351.74913599999945,,,,,,,,,,,,,,,,,351.7352842999999,352.9495809,353.7493300999995,353.7336390999999,,,,,,,,,,,,,,,,,,,,,,,,,,,,,,,,,,,353.73636480000005,353.7493300999995,353.7493300999995,354.2001573999996,g,1.0,0.4423073999996632,,,,,,sub-143,1,stroop_test,120.28483448778552,
,,,,81.0,9.0,6.0,,,,,,,,,,,,,blau,blue,b,1.0,b,1.0,0.683062100000825,,,,,,,,,,6.0,9.0,81.0,5.0,354.2167266999995,,,,,,,,,,,,,,,,,354.2004686,354.5492052,355.34931400000005,355.3337124999998,,,,,,,,,,,,,,,,,,,,,,,,,,,,,,,,,,,355.33575759999985,355.34931400000005,355.34931400000005,356.0340833999999,b,1.0,0.683062100000825,,,,,,sub-143,1,stroop_test,120.28483448778552,
,,,,82.0,10.0,6.0,,,,,,,,,,,,,gelb,blue,b,0.0,b,1.0,0.5584658999996464,,,,,,,,,,6.0,10.0,82.0,9.0,356.04968839999947,,,,,,,,,,,,,,,,,356.03449939999973,356.84935210000003,357.64917999999943,357.6334852,,,,,,,,,,,,,,,,,,,,,,,,,,,,,,,,,,,357.6357767999998,357.64917999999943,357.64917999999943,358.21821779999937,b,1.0,0.5584658999996464,,,,,,sub-143,1,stroop_test,120.28483448778552,
,,,,83.0,11.0,6.0,,,,,,,,,,,,,rot,red,r,1.0,r,1.0,0.5397965000001932,,,,,,,,,,6.0,11.0,83.0,1.0,358.2328517999995,,,,,,,,,,,,,,,,,358.2185133999992,358.3331707999996,359.13288509999984,359.11683709999943,,,,,,,,,,,,,,,,,,,,,,,,,,,,,,,,,,,359.1192076999996,359.13288509999984,359.13288509999984,359.68438419999984,r,1.0,0.5397965000001932,,,,,,sub-143,1,stroop_test,120.28483448778552,
,,,,84.0,0.0,7.0,,,,,,,,,,,,,gelb,yellow,g,1.0,g,1.0,0.3863940000001093,,,,,,,,,,7.0,0.0,84.0,10.0,359.6988898999998,,,,,,,,,,,,,,,,,359.68470949999937,360.0495816999992,360.8493861999996,360.8337142999999,,,,,,,,,,,,,,,,,,,,,,,,,,,,,,,,,,,360.83684749999975,360.8493861999996,360.8493861999996,361.2510055999992,g,1.0,0.3863940000001093,,,,,,sub-143,1,stroop_test,120.28483448778552,
,,,,85.0,1.0,7.0,,,,,,,,,,,,,rot,yellow,g,0.0,g,1.0,0.592978900000162,,,,,,,,,,7.0,1.0,85.0,3.0,361.2657483999992,,,,,,,,,,,,,,,,,361.2513039999994,362.46614640000007,363.26576119999936,363.25030739999966,,,,,,,,,,,,,,,,,,,,,,,,,,,,,,,,,,,363.2526823999997,363.26576119999936,363.26576119999936,363.8676261999999,g,1.0,0.592978900000162,,,,,,sub-143,1,stroop_test,120.28483448778552,
,,,,86.0,2.0,7.0,,,,,,,,,,,,,gelb,blue,b,0.0,b,1.0,0.5975725999996939,,,,,,,,,,7.0,2.0,86.0,9.0,363.8825308999994,,,,,,,,,,,,,,,,,363.8679259000001,364.2162632,365.0157565,365.0005063999997,,,,,,,,,,,,,,,,,,,,,,,,,,,,,,,,,,,365.00280479999947,365.0157565,365.0157565,365.6170310999996,b,1.0,0.5975725999996939,,,,,,sub-143,1,stroop_test,120.28483448778552,
,,,,87.0,3.0,7.0,,,,,,,,,,,,,rot,red,r,1.0,r,1.0,0.6501256000001376,,,,,,,,,,7.0,3.0,87.0,0.0,365.6344311999992,,,,,,,,,,,,,,,,,365.6173648999993,365.7170498999994,366.5162861999997,366.49989639999967,,,,,,,,,,,,,,,,,,,,,,,,,,,,,,,,,,,366.5022498999997,366.5162861999997,366.5162861999997,367.1679367999996,r,1.0,0.6501256000001376,,,,,,sub-143,1,stroop_test,120.28483448778552,
,,,,88.0,4.0,7.0,,,,,,,,,,,,,blau,blue,b,1.0,b,1.0,0.536718600000313,,,,,,,,,,7.0,4.0,88.0,5.0,367.1827051999999,,,,,,,,,,,,,,,,,367.1682281999993,367.2832288,368.08333349999975,368.0669438999994,,,,,,,,,,,,,,,,,,,,,,,,,,,,,,,,,,,368.0699181,368.08333349999975,368.08333349999975,368.6334221999996,b,1.0,0.536718600000313,,,,,,sub-143,1,stroop_test,120.28483448778552,
,,,,89.0,5.0,7.0,,,,,,,,,,,,,rot,blue,b,0.0,b,1.0,0.8098544999993464,,,,,,,,,,7.0,5.0,89.0,2.0,368.6501042,,,,,,,,,,,,,,,,,368.63372869999966,368.9830045999997,369.7826043999994,369.7670453999999,,,,,,,,,,,,,,,,,,,,,,,,,,,,,,,,,,,369.76998,369.7826043999994,369.7826043999994,370.6002983999997,b,1.0,0.8098544999993464,,,,,,sub-143,1,stroop_test,120.28483448778552,
,,,,90.0,6.0,7.0,,,,,,,,,,,,,gelb,red,r,0.0,r,1.0,0.6329127999997581,,,,,,,,,,7.0,6.0,90.0,8.0,370.6169667999993,,,,,,,,,,,,,,,,,370.6006473999996,371.7992899999999,372.5991287999996,372.5833671999999,,,,,,,,,,,,,,,,,,,,,,,,,,,,,,,,,,,372.5857798999996,372.5991287999996,372.5991287999996,373.2339271000001,r,1.0,0.6329127999997581,,,,,,sub-143,1,stroop_test,120.28483448778552,
,,,,91.0,7.0,7.0,,,,,,,,,,,,,blau,red,r,0.0,r,1.0,0.6545819000002666,,,,,,,,,,7.0,7.0,91.0,4.0,373.2503966999993,,,,,,,,,,,,,,,,,373.2342194999992,373.3331745999994,374.1330358999994,374.1171832,,,,,,,,,,,,,,,,,,,,,,,,,,,,,,,,,,,374.1193366999996,374.1330358999994,374.1330358999994,374.8019381999993,r,1.0,0.6545819000002666,,,,,,sub-143,1,stroop_test,120.28483448778552,
,,,,92.0,8.0,7.0,,,,,,,,,,,,,gelb,yellow,g,1.0,g,1.0,0.524927999999818,,,,,,,,,,7.0,8.0,92.0,11.0,374.81588740000007,,,,,,,,,,,,,,,,,374.8022837999997,375.6165246999999,376.4163635999994,376.4000100999992,,,,,,,,,,,,,,,,,,,,,,,,,,,,,,,,,,,376.4022603999993,376.4163635999994,376.4163635999994,376.9504767999997,g,1.0,0.524927999999818,,,,,,sub-143,1,stroop_test,120.28483448778552,
,,,,93.0,9.0,7.0,,,,,,,,,,,,,blau,yellow,g,0.0,g,1.0,0.6666945000006308,,,,,,,,,,7.0,9.0,93.0,7.0,376.9682103999994,,,,,,,,,,,,,,,,,376.9508911999992,377.7661389999994,378.5658770999999,378.5500034999996,,,,,,,,,,,,,,,,,,,,,,,,,,,,,,,,,,,378.55203449999954,378.5658770999999,378.5658770999999,379.2349902999995,g,1.0,0.6666945000006308,,,,,,sub-143,1,stroop_test,120.28483448778552,
,,,,94.0,10.0,7.0,,,,,,,,,,,,,blau,blue,b,1.0,b,1.0,0.6303903999996692,,,,,,,,,,7.0,10.0,94.0,6.0,379.2500241999997,,,,,,,,,,,,,,,,,379.2353868,379.34946599999967,380.1497640999996,380.1330294999998,,,,,,,,,,,,,,,,,,,,,,,,,,,,,,,,,,,380.1334000999996,380.1497640999996,380.1497640999996,380.7831163000001,b,1.0,0.6303903999996692,,,,,,sub-143,1,stroop_test,120.28483448778552,
,,,,95.0,11.0,7.0,,,,,,,,,,,,,rot,red,r,1.0,r,1.0,0.5623396000000866,,,,,,,,,,7.0,11.0,95.0,1.0,380.7998456999994,,,,,,,,,,,,,,,,,380.7834370000001,381.9830699999993,382.7827497999997,382.7666165999999,,,,,,,,,,,,,,,,,,,,,,,,,,,,,,,,,,,382.7693307,382.7827497999997,382.7827497999997,383.3507829,r,1.0,0.5623396000000866,,,,,,sub-143,1,stroop_test,120.28483448778552,
,,,,96.0,0.0,8.0,,,,,,,,,,,,,gelb,red,r,0.0,r,1.0,0.4695314000000508,,,,,,,,,,8.0,0.0,96.0,8.0,383.3670727999997,,,,,,,,,,,,,,,,,383.3510845999999,384.1664745999997,384.9663015999995,384.9506173,,,,,,,,,,,,,,,,,,,,,,,,,,,,,,,,,,,384.9535475999992,384.9663015999995,384.9663015999995,385.45013429999926,r,1.0,0.4695314000000508,,,,,,sub-143,1,stroop_test,120.28483448778552,
,,,,97.0,1.0,8.0,,,,,,,,,,,,,blau,red,r,0.0,r,1.0,0.549198200000319,,,,,,,,,,8.0,1.0,97.0,4.0,385.4668505,,,,,,,,,,,,,,,,,385.4504331999997,386.6493934999999,387.4493728999996,387.4334712,,,,,,,,,,,,,,,,,,,,,,,,,,,,,,,,,,,387.4354153999993,387.4493728999996,387.4493728999996,388.0013202999999,r,1.0,0.549198200000319,,,,,,sub-143,1,stroop_test,120.28483448778552,
,,,,98.0,2.0,8.0,,,,,,,,,,,,,rot,red,r,1.0,r,1.0,0.3663776000003054,,,,,,,,,,8.0,2.0,98.0,1.0,388.0182244999996,,,,,,,,,,,,,,,,,388.00161519999983,388.81613560000005,389.6159189999999,389.6002669999998,,,,,,,,,,,,,,,,,,,,,,,,,,,,,,,,,,,389.6024755999997,389.6159189999999,389.6159189999999,389.9840101,r,1.0,0.3663776000003054,,,,,,sub-143,1,stroop_test,120.28483448778552,
,,,,99.0,3.0,8.0,,,,,,,,,,,,,rot,blue,b,0.0,b,1.0,0.9342430999995486,,,,,,,,,,8.0,3.0,99.0,2.0,390.00025899999946,,,,,,,,,,,,,,,,,389.98431489999984,391.19984549999936,391.9997317999996,391.9843107999996,,,,,,,,,,,,,,,,,,,,,,,,,,,,,,,,,,,391.9847175999994,391.9997317999996,391.9997317999996,392.9510479999999,b,1.0,0.9342430999995486,,,,,,sub-143,1,stroop_test,120.28483448778552,
,,,,100.0,4.0,8.0,,,,,,,,,,,,,blau,blue,b,1.0,b,1.0,0.4669312000005448,,,,,,,,,,8.0,4.0,100.0,5.0,392.9661575,,,,,,,,,,,,,,,,,392.95143109999935,394.16654709999966,394.9662688999997,394.9502846999994,,,,,,,,,,,,,,,,,,,,,,,,,,,,,,,,,,,394.9528597999997,394.9662688999997,394.9662688999997,395.4344347999995,b,1.0,0.4669312000005448,,,,,,sub-143,1,stroop_test,120.28483448778552,
,,,,101.0,5.0,8.0,,,,,,,,,,,,,gelb,yellow,g,1.0,g,1.0,0.5518761000002996,,,,,,,,,,8.0,5.0,101.0,10.0,395.4514509999999,,,,,,,,,,,,,,,,,395.4347330999999,396.2498421,397.04945229999976,397.03357139999935,,,,,,,,,,,,,,,,,,,,,,,,,,,,,,,,,,,397.03643419999935,397.04945229999976,397.04945229999976,397.6173419999996,g,1.0,0.5518761000002996,,,,,,sub-143,1,stroop_test,120.28483448778552,
,,,,102.0,6.0,8.0,,,,,,,,,,,,,rot,red,r,1.0,r,1.0,0.520267399999284,,,,,,,,,,8.0,6.0,102.0,0.0,397.6339300999998,,,,,,,,,,,,,,,,,397.6176510999994,398.8175966999997,399.63325149999946,399.61646239999936,,,,,,,,,,,,,,,,,,,,,,,,,,,,,,,,,,,399.6189316999999,399.63325149999946,399.63325149999946,400.16771549999976,r,1.0,0.520267399999284,,,,,,sub-143,1,stroop_test,120.28483448778552,
,,,,103.0,7.0,8.0,,,,,,,,,,,,,rot,yellow,g,0.0,g,1.0,0.8428217000000586,,,,,,,,,,8.0,7.0,103.0,3.0,400.1826785999992,,,,,,,,,,,,,,,,,400.1681073999998,400.53325289999975,401.3326234999995,401.3170911999996,,,,,,,,,,,,,,,,,,,,,,,,,,,,,,,,,,,401.3174799999997,401.3326234999995,401.3326234999995,402.1840539999994,g,1.0,0.8428217000000586,,,,,,sub-143,1,stroop_test,120.28483448778552,
,,,,104.0,8.0,8.0,,,,,,,,,,,,,gelb,yellow,g,1.0,g,1.0,0.4847657999998773,,,,,,,,,,8.0,8.0,104.0,11.0,402.1996153999999,,,,,,,,,,,,,,,,,402.1844242999996,402.9827689999993,403.7835777999999,403.76773259999936,,,,,,,,,,,,,,,,,,,,,,,,,,,,,,,,,,,403.7705258999995,403.7835777999999,403.7835777999999,404.2849841999996,g,1.0,0.4847657999998773,,,,,,sub-143,1,stroop_test,120.28483448778552,
,,,,105.0,9.0,8.0,,,,,,,,,,,,,blau,yellow,g,0.0,g,1.0,0.404569199999969,,,,,,,,,,8.0,9.0,105.0,7.0,404.29959189999954,,,,,,,,,,,,,,,,,404.285288,405.0999398999993,405.89928079999936,405.8830880999994,,,,,,,,,,,,,,,,,,,,,,,,,,,,,,,,,,,405.8850078999994,405.89928079999936,405.89928079999936,406.3177292999999,g,1.0,0.404569199999969,,,,,,sub-143,1,stroop_test,120.28483448778552,
,,,,106.0,10.0,8.0,,,,,,,,,,,,,blau,blue,b,1.0,b,1.0,0.5886315999996441,,,,,,,,,,8.0,10.0,106.0,6.0,406.3342046999997,,,,,,,,,,,,,,,,,406.3181353999999,407.1332767999993,407.9333717,407.9162231999999,,,,,,,,,,,,,,,,,,,,,,,,,,,,,,,,,,,407.9166824999993,407.9333717,407.9333717,408.5339525,b,1.0,0.5886315999996441,,,,,,sub-143,1,stroop_test,120.28483448778552,
,,,,107.0,11.0,8.0,,,,,,,,,,,,,gelb,blue,b,0.0,b,1.0,0.3417698999992353,,,,,,,,,,8.0,11.0,107.0,9.0,408.55045489999975,,,,,,,,,,,,,,,,,408.53428369999983,409.35019419999935,410.16624989999946,410.1504619999996,,,,,,,,,,,,,,,,,,,,,,,,,,,,,,,,,,,410.1527742999997,410.16624989999946,410.16624989999946,410.5172925999996,b,1.0,0.3417698999992353,,,,,,sub-143,1,stroop_test,120.28483448778552,
,,,,108.0,0.0,9.0,,,,,,,,,,,,,rot,yellow,g,0.0,g,1.0,0.3944826999995712,,,,,,,,,,9.0,0.0,108.0,3.0,410.5339115999996,,,,,,,,,,,,,,,,,410.5175989999998,411.3331918999993,412.13266889999977,412.1165734999995,,,,,,,,,,,,,,,,,,,,,,,,,,,,,,,,,,,412.1192531999996,412.13266889999977,412.13266889999977,412.5341775999996,g,1.0,0.3944826999995712,,,,,,sub-143,1,stroop_test,120.28483448778552,
,,,,109.0,1.0,9.0,,,,,,,,,,,,,gelb,yellow,g,1.0,g,1.0,0.5276456999999937,,,,,,,,,,9.0,1.0,109.0,11.0,412.54898159999993,,,,,,,,,,,,,,,,,412.53449159999946,413.7493562999998,414.54954259999977,414.53325289999975,,,,,,,,,,,,,,,,,,,,,,,,,,,,,,,,,,,414.53612259999954,414.54954259999977,414.54954259999977,415.0848499999993,g,1.0,0.5276456999999937,,,,,,sub-143,1,stroop_test,120.28483448778552,
,,,,110.0,2.0,9.0,,,,,,,,,,,,,blau,blue,b,1.0,b,1.0,0.5517945000001419,,,,,,,,,,9.0,2.0,110.0,6.0,415.09979309999926,,,,,,,,,,,,,,,,,415.0853158,415.1998508999996,415.9995239,415.9832136999994,,,,,,,,,,,,,,,,,,,,,,,,,,,,,,,,,,,415.9858331999994,415.9995239,415.9995239,416.5679346999996,b,1.0,0.5517945000001419,,,,,,sub-143,1,stroop_test,120.28483448778552,
,,,,111.0,3.0,9.0,,,,,,,,,,,,,blau,red,r,0.0,r,1.0,0.6038005000000339,,,,,,,,,,9.0,3.0,111.0,4.0,416.58266920000005,,,,,,,,,,,,,,,,,416.5682285999992,417.3829089999999,418.1834020999995,418.1663898999996,,,,,,,,,,,,,,,,,,,,,,,,,,,,,,,,,,,418.1667719999996,418.1834020999995,418.1834020999995,418.8010288999994,r,1.0,0.6038005000000339,,,,,,sub-143,1,stroop_test,120.28483448778552,
,,,,112.0,4.0,9.0,,,,,,,,,,,,,blau,yellow,g,0.0,g,1.0,0.8498515000001134,,,,,,,,,,9.0,4.0,112.0,7.0,418.8171200999996,,,,,,,,,,,,,,,,,418.8013222,420.01705499999935,420.8159040000001,420.8002784,,,,,,,,,,,,,,,,,,,,,,,,,,,,,,,,,,,420.8006869999999,420.8159040000001,420.8159040000001,421.6677181999994,g,1.0,0.8498515000001134,,,,,,sub-143,1,stroop_test,120.28483448778552,
,,,,113.0,5.0,9.0,,,,,,,,,,,,,gelb,red,r,0.0,r,1.0,0.579428399999415,,,,,,,,,,9.0,5.0,113.0,8.0,421.6827688999993,,,,,,,,,,,,,,,,,421.6680185999994,422.0332908999999,422.83309909999934,422.81640809999953,,,,,,,,,,,,,,,,,,,,,,,,,,,,,,,,,,,422.8193254999997,422.83309909999934,422.83309909999934,423.4177145999993,r,1.0,0.579428399999415,,,,,,sub-143,1,stroop_test,120.28483448778552,
,,,,114.0,6.0,9.0,,,,,,,,,,,,,rot,red,r,1.0,r,1.0,0.5124811999994563,,,,,,,,,,9.0,6.0,114.0,1.0,423.4326588999993,,,,,,,,,,,,,,,,,423.4180054999997,423.78278319999936,424.58269909999945,424.56695039999977,,,,,,,,,,,,,,,,,,,,,,,,,,,,,,,,,,,424.5696353999992,424.58269909999945,424.58269909999945,425.10029309999936,r,1.0,0.5124811999994563,,,,,,sub-143,1,stroop_test,120.28483448778552,
,,,,115.0,7.0,9.0,,,,,,,,,,,,,gelb,yellow,g,1.0,g,1.0,0.5053219999999783,,,,,,,,,,9.0,7.0,115.0,10.0,425.11657209999976,,,,,,,,,,,,,,,,,425.1005845,426.3161819999996,427.11602159999984,427.1002353999993,,,,,,,,,,,,,,,,,,,,,,,,,,,,,,,,,,,427.1030063999997,427.11602159999984,427.11602159999984,427.63386589999936,g,1.0,0.5053219999999783,,,,,,sub-143,1,stroop_test,120.28483448778552,
,,,,116.0,8.0,9.0,,,,,,,,,,,,,rot,blue,b,0.0,r,0.0,0.471198799999911,,,,,,,,,,9.0,8.0,116.0,2.0,427.65063949999967,,,,,,,,,,,,,,,,,427.6341893999997,428.8328370999998,429.6330322999993,429.6167099999993,,,,,,,,,,,,,,,,,,,,,,,,,,,,,,,,,,,429.61895229999936,429.6330322999993,429.6330322999993,430.1182484000001,r,0.0,0.471198799999911,,,,,,sub-143,1,stroop_test,120.28483448778552,
,,,,117.0,9.0,9.0,,,,,,,,,,,,,gelb,blue,b,0.0,b,1.0,0.6544499999999971,,,,,,,,,,9.0,9.0,117.0,9.0,430.1327044999998,,,,,,,,,,,,,,,,,430.1186328999993,431.3330782999992,432.1324046,432.1166759999997,,,,,,,,,,,,,,,,,,,,,,,,,,,,,,,,,,,432.1194716999999,432.1324046,432.1324046,432.8002682999995,b,1.0,0.6544499999999971,,,,,,sub-143,1,stroop_test,120.28483448778552,
,,,,118.0,10.0,9.0,,,,,,,,,,,,,rot,red,r,1.0,r,1.0,0.5232043000005433,,,,,,,,,,9.0,10.0,118.0,0.0,432.8169276999997,,,,,,,,,,,,,,,,,432.8005645999992,434.00006849999954,434.7990388999997,434.7833839999994,,,,,,,,,,,,,,,,,,,,,,,,,,,,,,,,,,,434.7855752999994,434.7990388999997,434.7990388999997,435.3336972999996,r,1.0,0.5232043000005433,,,,,,sub-143,1,stroop_test,120.28483448778552,
,,,,119.0,11.0,9.0,,,,,,,,,,,,,blau,blue,b,1.0,b,1.0,0.4888947999997981,,,,,,,,,,9.0,11.0,119.0,5.0,435.3503678999996,,,,,,,,,,,,,,,,,435.3340847999998,435.6831655999995,436.4829878000001,436.4669000999993,,,,,,,,,,,,,,,,,,,,,,,,,,,,,,,,,,,436.46886599999925,436.4829878000001,436.4829878000001,436.9839207999994,b,1.0,0.4888947999997981,,,,,,sub-143,1,stroop_test,120.28483448778552,
,,,,,,,,,,,,,,,,,,,,,,,,,,,,,,,,,,,,,,,,,,,,,,,,,,,,,,,,,,,,,,,,,,,,,,,,,,,,,,,,,,,,,,,,,,,,,,,,,,,,,,436.9841216999994,436.99964399999953,442.0000130999997,441.98401119999926,sub-143,1,stroop_test,120.28483448778552,
