direction,corrAns,thisN,thisTrialN,thisRepN,respDots.keys,respDots.corr,respDots.rt,respDots.duration,randomInstr,respRandomInstr.keys,respRandomInstr.rt,respRandomInstr.duration,practice_trials.thisRepN,practice_trials.thisTrialN,practice_trials.thisN,practice_trials.thisIndex,instr_trials.thisRepN,instr_trials.thisTrialN,instr_trials.thisN,instr_trials.thisIndex,test_trials.thisRepN,test_trials.thisTrialN,test_trials.thisN,test_trials.thisIndex,thisRow.t,notes,general_instruction.started,textGeneralInstr.started,respGeneralInstr.started,general_instruction.stopped,respGeneralInstr.keys,respGeneralInstr.rt,respGeneralInstr.duration,ITI.started,fixcross.started,fixcross.stopped,ITI.stopped,dots.started,backgroundDots.started,stimulusDots.started,respDots.started,stimulusDots.stopped,dots.stopped,practice_trials.respDots.keys,practice_trials.respDots.corr,practice_trials.respDots.rt,practice_trials.respDots.duration,feedback.started,textFeedback.started,feedback.stopped,textFeedback.stopped,info.started,textInfo.started,keyRespInfo.started,info.stopped,keyRespInfo.keys,keyRespInfo.rt,keyRespInfo.duration,test_instruction.started,textTestInstr.started,respTestInstr.started,test_instruction.stopped,respTestInstr.keys,respTestInstr.rt,respTestInstr.duration,random_instruction.started,textRandomInstr.started,respRandomInstr.started,random_instruction.stopped,instr_trials.respRandomInstr.keys,instr_trials.respRandomInstr.rt,instr_trials.respRandomInstr.duration,test_trials.respDots.keys,test_trials.respDots.corr,test_trials.respDots.rt,test_trials.respDots.duration,goodbye.started,textGoodbye.started,textGoodbye.stopped,goodbye.stopped,participant,session,expName,frameRate,Unnamed: 88
,,,,,,,,,,,,,,,,,,,,,,,,,,,0.0085748329875059,0.0169496249873191,0.0169496249873191,28.85195737500908,space,28.662576667033136,,,,,,,,,,,,,,,,,,,,,,,,,,,,,,,,,,,,,,,,,,,,,,,,,sub-021,1,random_dot,120.16378319664408,
left,left,0.0,0.0,0.0,left,1.0,12.91757100005634,,,,,,0.0,0.0,0.0,0.0,,,,,,,,,28.88831474998733,,,,,,,,,28.872135083016477,29.660460708022583,30.693890124966856,30.444867208017968,30.445505457988475,30.693890124966856,30.693890124966856,30.693890124966856,35.43228545796592,43.61332449998008,left,1.0,12.91757100005634,,43.62033570796484,43.631677166966256,44.11762879200978,,,,,,,,,,,,,,,,,,,,,,,,,,,,,,,sub-021,1,random_dot,120.16378319664408,
right,right,1.0,1.0,0.0,left,0.0,1.261619124969002,,,,,,0.0,1.0,1.0,1.0,,,,,,,,,44.12867779197404,,,,,,,,,44.1181676670094,45.3119943329948,46.10484620800708,46.09584691701457,46.09652912500314,46.10484620800708,46.10484620800708,46.10484620800708,,47.36978037498193,left,0.0,1.261619124969002,,47.37565154198092,47.383314416976646,47.869050582987256,47.87888654199196,,,,,,,,,,,,,,,,,,,,,,,,,,,,,,sub-021,1,random_dot,120.16378319664408,
right,right,2.0,0.0,1.0,left,0.0,2.562295000010636,,,,,,1.0,0.0,2.0,1.0,,,,,,,,,47.87888654199196,,,,,,,,,47.8695464580087,48.21966958302073,49.0207914999919,49.01260924997041,49.013212082965765,49.0207914999919,49.0207914999919,49.0207914999919,,51.586857124988455,left,0.0,2.562295000010636,,51.58699425001396,51.59509170800448,52.07926979201147,52.08458729198901,,,,,,,,,,,,,,,,,,,,,,,,,,,,,,sub-021,1,random_dot,120.16378319664408,
left,left,3.0,1.0,1.0,right,0.0,1.6841635419987142,,,,,,1.0,1.0,3.0,0.0,,,,,,,,,52.08458729198901,,,,,,,,,52.07977154199034,53.28595966700232,54.078410124988295,54.06896649999544,54.069547082996,54.078410124988295,54.078410124988295,54.078410124988295,,55.76938258297741,right,0.0,1.6841635419987142,,55.76946004200727,55.778679458017,56.26292645797366,56.26894241699483,,,,,,,,,,,,,,,,,,,,,,,,,,,,,,sub-021,1,random_dot,120.16378319664408,
left,left,4.0,0.0,2.0,left,1.0,4.180249708006159,,,,,,2.0,0.0,4.0,0.0,,,,,,,,,56.26894241699483,,,,,,,,,56.26341924996814,56.61939499998698,57.42107045801822,57.41291245800676,57.41351483296603,57.42107045801822,57.42107045801822,57.42107045801822,,61.60349370801123,left,1.0,4.180249708006159,,61.606571417010855,61.62901591701666,62.112850666977465,,,,,,,,,,,,,,,,,,,,,,,,,,,,,,,sub-021,1,random_dot,120.16378319664408,
right,right,5.0,1.0,2.0,left,0.0,6.5205610420089215,,,,,,2.0,1.0,5.0,1.0,,,,,,,,,62.11875454196706,,,,,,,,,62.11337904201355,62.45270412496757,63.24546470801579,63.23605729197152,63.23662174999481,63.24546470801579,63.24546470801579,63.24546470801579,68.22968420799589,69.77139408298535,left,0.0,6.5205610420089215,,69.77621429198189,69.78389625001,70.26908724999521,70.2796400419902,,,,,,,,,,,,,,,,,,,,,,,,,,,,,,sub-021,1,random_dot,120.16378319664408,
right,right,6.0,0.0,3.0,right,1.0,0.9844718339736572,,,,,,3.0,0.0,6.0,1.0,,,,,,,,,70.2796400419902,,,,,,,,,70.26954620797187,71.46916387497913,72.26245741697494,72.25268983299611,72.25327583297621,72.26245741697494,72.26245741697494,72.26245741697494,,73.25354850001168,right,1.0,0.9844718339736572,,73.25536283297697,73.26176666701213,73.74702987499768,73.75321225001244,,,,,,,,,,,,,,,,,,,,,,,,,,,,,,sub-021,1,random_dot,120.16378319664408,
left,left,7.0,1.0,3.0,left,1.0,0.6807418339885771,,,,,,3.0,1.0,7.0,0.0,,,,,,,,,73.75321225001244,,,,,,,,,73.74769749998813,74.9539688329678,75.74636175000342,75.7366819580202,75.73730566701852,75.74636175000342,75.74636175000342,75.74636175000342,,76.43074999999953,left,1.0,0.6807418339885771,,76.43089316698024,76.43942287500249,76.93018741701962,76.93599437497323,,,,,,,,,,,,,,,,,,,,,,,,,,,,,,sub-021,1,random_dot,120.16378319664408,
right,right,8.0,0.0,4.0,left,0.0,0.6817407510243356,,,,,,4.0,0.0,8.0,1.0,,,,,,,,,76.93599437497323,,,,,,,,,76.93068624997977,77.72086887498153,78.5224403750035,78.51376845798222,78.51437287498266,78.5224403750035,78.5224403750035,78.5224403750035,,79.21445033297641,left,0.0,0.6817407510243356,,79.21810474997619,79.2268387079821,79.71384266699897,79.71930533298291,,,,,,,,,,,,,,,,,,,,,,,,,,,,,,sub-021,1,random_dot,120.16378319664408,
left,left,9.0,1.0,4.0,left,1.0,0.6397568749962375,,,,,,4.0,1.0,9.0,0.0,,,,,,,,,79.71930533298291,,,,,,,,,79.71431895799469,80.50388575001853,81.30543729197234,81.29723049997119,81.29786549997516,81.30543729197234,81.30543729197234,81.30543729197234,,81.94791729201097,left,1.0,0.6397568749962375,,81.95128041697899,81.95831120799994,82.44726295798318,82.45313566701952,,,,,,,,,,,,,,,,,,,,,,,,,,,,,,sub-021,1,random_dot,120.16378319664408,
left,left,10.0,0.0,5.0,left,1.0,0.6634565419517457,,,,,,5.0,0.0,10.0,0.0,,,,,,,,,82.45313566701952,,,,,,,,,82.4477674170048,83.63684583298163,84.4296805000049,84.41993895801716,84.42052908299956,84.4296805000049,84.4296805000049,84.4296805000049,,85.09750395797892,left,1.0,0.6634565419517457,,85.09763199998997,85.1049149580067,85.59697887499351,85.60234941699309,,,,,,,,,,,,,,,,,,,,,,,,,,,,,,sub-021,1,random_dot,120.16378319664408,
right,right,11.0,1.0,5.0,left,0.0,0.6751839169883169,,,,,,5.0,1.0,11.0,1.0,,,,,,,,,85.60234941699309,,,,,,,,,85.5975046249805,85.9367884999956,86.73911695799325,86.73089645797154,86.73136687499937,86.73911695799325,86.73911695799325,86.73911695799325,,87.4217011249857,left,0.0,0.6751839169883169,,87.42486670799553,87.43486016697716,87.91936800000258,87.9305249999743,,,,,,,,,,,,,,,,,,,,,,,,,,,,,,sub-021,1,random_dot,120.16378319664408,
right,right,12.0,0.0,6.0,left,0.0,3.834535084024538,,,,,,6.0,0.0,12.0,1.0,,,,,,,,,87.9305249999743,,,,,,,,,87.91988441697322,88.721524166991,89.52273120800965,89.51426637498662,89.5148566669668,89.52273120800965,89.52273120800965,89.52273120800965,,93.36534641700564,left,0.0,3.834535084024538,,93.36549137497786,93.37273666699184,93.86450145801064,93.87036145798628,,,,,,,,,,,,,,,,,,,,,,,,,,,,,,sub-021,1,random_dot,120.16378319664408,
left,left,13.0,1.0,6.0,left,1.0,2.2027593750390224,,,,,,6.0,1.0,13.0,0.0,,,,,,,,,93.87036145798628,,,,,,,,,93.86499708297195,94.66427912499056,95.4562372919754,95.44782204198418,95.44835845800117,95.4562372919754,95.4562372919754,95.4562372919754,,97.66486775001977,left,1.0,2.2027593750390224,,97.66880245797802,97.67735725000966,98.16473629197571,98.1706940829754,,,,,,,,,,,,,,,,,,,,,,,,,,,,,,sub-021,1,random_dot,120.16378319664408,
left,left,14.0,0.0,7.0,right,0.0,3.447656917036511,,,,,,7.0,0.0,14.0,0.0,,,,,,,,,98.1706940829754,,,,,,,,,98.16521820798516,98.504664957989,99.29635158297606,99.2878634170047,99.28841545799514,99.29635158297606,99.29635158297606,99.29635158297606,,102.74872533301824,right,0.0,3.447656917036511,,102.75224537501344,102.7593024999951,103.24806266697124,103.2535638330155,,,,,,,,,,,,,,,,,,,,,,,,,,,,,,sub-021,1,random_dot,120.16378319664408,
right,right,15.0,1.0,7.0,right,1.0,2.7217272089910693,,,,,,7.0,1.0,15.0,1.0,,,,,,,,,103.2535638330155,,,,,,,,,103.24856062501205,104.43783379200612,105.23052366700722,105.22090758301783,105.22148274997016,105.23052366700722,105.23052366700722,105.23052366700722,,107.95534616697114,right,1.0,2.7217272089910693,,107.9588994999649,107.96911612496478,108.45453862496652,108.4646682079765,,,,,,,,,,,,,,,,,,,,,,,,,,,,,,sub-021,1,random_dot,120.16378319664408,
left,left,16.0,0.0,8.0,left,1.0,4.702818084042519,,,,,,8.0,0.0,16.0,0.0,,,,,,,,,108.4646682079765,,,,,,,,,108.45511716697364,108.80574933299796,109.606629832997,109.59839370800182,109.5990083750221,109.606629832997,109.606629832997,109.606629832997,,114.31529220798984,left,1.0,4.702818084042519,,114.31543099996634,114.32286620797822,114.81524949998128,114.82112687500194,,,,,,,,,,,,,,,,,,,,,,,,,,,,,,sub-021,1,random_dot,120.16378319664408,
right,right,17.0,1.0,8.0,right,1.0,2.4750490830047056,,,,,,8.0,1.0,17.0,1.0,,,,,,,,,114.82112687500194,,,,,,,,,114.81575758301187,115.60532566701296,116.39770320797106,116.38803183299024,116.3885814169771,116.39770320797106,116.39770320797106,116.39770320797106,,118.88266683300026,right,1.0,2.4750490830047056,,118.8827844170155,118.89060333301312,119.3818756249966,119.38760145800188,,,,,,,,,,,,,,,,,,,,,,,,,,,,,,sub-021,1,random_dot,120.16378319664408,
left,left,18.0,0.0,9.0,left,1.0,3.5832271249964838,,,,,,9.0,0.0,18.0,0.0,,,,,,,,,119.38760145800188,,,,,,,,,119.38237708300584,120.17179212498012,120.96457495796494,120.95530520798638,120.9559487500228,120.96457495796494,120.96457495796494,120.96457495796494,,124.54938037501417,left,1.0,3.5832271249964838,,124.54952841700288,124.5553808750119,125.03849933302264,125.04833229200447,,,,,,,,,,,,,,,,,,,,,,,,,,,,,,sub-021,1,random_dot,120.16378319664408,
right,right,19.0,1.0,9.0,left,0.0,3.5999646250274964,,,,,,9.0,1.0,19.0,1.0,,,,,,,,,125.04833229200447,,,,,,,,,125.03902566700708,126.23914595798124,127.03146104200276,127.02181220799685,127.02236529201036,127.03146104200276,127.03146104200276,127.03146104200276,,130.63282545801485,left,0.0,3.5999646250274964,,130.63625491701532,130.64484824996907,131.13264287501806,131.1411193329841,,,,,,,,,,,,,,,,,,,,,,,,,,,,,,sub-021,1,random_dot,120.16378319664408,
,,,,,,,,,,,,,,,,,,,,,,,,,,,,,,,,,,,,,,,,,,,,,,,,,,,,131.132877541997,131.1411193329841,131.1411193329841,138.45103754202137,space,7.300505166989751,,,,,,,,,,,,,,,,,,,,,,,,sub-021,1,random_dot,120.16378319664408,
,,,,,,,,,,,,,,,,,,,,,,,,,,,,,,,,,,,,,,,,,,,,,,,,,,,,,,,,,,,138.45115575002274,138.4652892500162,138.4652892500162,164.234590750013,space,25.7656355840154,,,,,,,,,,,,,,,,,sub-021,1,random_dot,120.16378319664408,
right,right,0.0,0.0,0.0,right,1.0,0.527347584022209,,speed,space,4.883325167000294,,,,,,0.0,0.0,0.0,1.0,0.0,0.0,0.0,1.0,169.17026149999583,,,,,,,,,169.16120020800736,169.50052612501895,170.2929095000145,170.2842004999984,170.28495183301857,170.2929095000145,170.2929095000145,170.2929095000145,,170.82548975001555,,,,,,,,,,,,,,,,,,,,,,,164.25107429199852,164.25893170799827,164.25893170799827,169.15196395799285,space,4.883325167000294,,right,1.0,0.527347584022209,,,,,,sub-021,1,random_dot,120.16378319664408,
left,left,1.0,1.0,0.0,right,0.0,1.310675166954752,,speed,space,4.883325167000294,,,,,,0.0,0.0,0.0,1.0,0.0,1.0,1.0,0.0,170.8334083330119,,,,,,,,,170.8260013749823,170.92404941702262,171.71655970800202,171.70708799996646,171.70772616699105,171.71655970800202,171.71655970800202,171.71655970800202,,173.03519841696834,,,,,,,,,,,,,,,,,,,,,,,,,,,,,,right,0.0,1.310675166954752,,,,,,sub-021,1,random_dot,120.16378319664408,
right,right,2.0,0.0,1.0,left,0.0,1.8648990839719768,,speed,space,4.883325167000294,,,,,,0.0,0.0,0.0,1.0,1.0,0.0,2.0,1.0,173.04252820799593,,,,,,,,,173.0357245419873,173.13410204200773,173.92550283297896,173.91748008300783,173.91810208297102,173.92550283297896,173.92550283297896,173.92550283297896,,175.7918729580124,,,,,,,,,,,,,,,,,,,,,,,,,,,,,,left,0.0,1.8648990839719768,,,,,,sub-021,1,random_dot,120.16378319664408,
left,left,3.0,1.0,1.0,left,1.0,3.0636360829812475,,speed,space,4.883325167000294,,,,,,0.0,0.0,0.0,1.0,1.0,1.0,3.0,0.0,175.80027487501502,,,,,,,,,175.7923228329746,176.5906790830195,177.3834234579699,177.3735192079912,177.37410604197066,177.3834234579699,177.3834234579699,177.3834234579699,,180.45150049997028,,,,,,,,,,,,,,,,,,,,,,,,,,,,,,left,1.0,3.0636360829812475,,,,,,sub-021,1,random_dot,120.16378319664408,
left,left,4.0,0.0,2.0,left,1.0,6.019353999989107,,speed,space,4.883325167000294,,,,,,0.0,0.0,0.0,1.0,2.0,0.0,4.0,0.0,180.46030783298195,,,,,,,,,180.45202470797813,180.542854624975,181.34328425000425,181.3346815829864,181.3353858750197,181.34328425000425,181.34328425000425,181.34328425000425,186.323479957995,187.36974295799155,,,,,,,,,,,,,,,,,,,,,,,,,,,,,,left,1.0,6.019353999989107,,,,,,sub-021,1,random_dot,120.16378319664408,
right,right,5.0,1.0,2.0,right,1.0,3.4965890840394422,,speed,space,4.883325167000294,,,,,,0.0,0.0,0.0,1.0,2.0,1.0,5.0,1.0,187.38000508298865,,,,,,,,,187.37063550000312,187.7174061249825,188.51016820798395,188.50149183301252,188.50207762501668,188.51016820798395,188.51016820798395,188.51016820798395,,192.00867812498475,,,,,,,,,,,,,,,,,,,,,,,,,,,,,,right,1.0,3.4965890840394422,,,,,,sub-021,1,random_dot,120.16378319664408,
right,right,6.0,0.0,3.0,left,0.0,1.232194416981656,,speed,space,4.883325167000294,,,,,,0.0,0.0,0.0,1.0,3.0,0.0,6.0,1.0,192.0174884999869,,,,,,,,,192.00918212498075,192.10873862501467,192.91052766697248,192.901684499986,192.90230679197705,192.91052766697248,192.91052766697248,192.91052766697248,,194.1526034999988,,,,,,,,,,,,,,,,,,,,,,,,,,,,,,left,0.0,1.232194416981656,,,,,,sub-021,1,random_dot,120.16378319664408,
left,left,7.0,1.0,3.0,left,1.0,4.051524500013329,,speed,space,4.883325167000294,,,,,,0.0,0.0,0.0,1.0,3.0,1.0,7.0,0.0,194.1604149579653,,,,,,,,,194.15313300001435,194.9515627080109,195.74328104197048,195.73511591699207,195.73575225000968,195.74328104197048,195.74328104197048,195.74328104197048,,199.80254920799047,,,,,,,,,,,,,,,,,,,,,,,,,,,,,,left,1.0,4.051524500013329,,,,,,sub-021,1,random_dot,120.16378319664408,
right,right,8.0,0.0,4.0,left,0.0,5.62472958402941,,speed,space,4.883325167000294,,,,,,0.0,0.0,0.0,1.0,4.0,0.0,8.0,1.0,199.81055762496544,,,,,,,,,199.8030404999736,200.1424211669946,200.9433679999784,200.935125500022,200.93569916702108,200.9433679999784,200.9433679999784,200.9433679999784,205.923590832972,206.57035704201556,,,,,,,,,,,,,,,,,,,,,,,,,,,,,,left,0.0,5.62472958402941,,,,,,sub-021,1,random_dot,120.16378319664408,
left,left,9.0,1.0,4.0,left,1.0,1.8708762919995932,,speed,space,4.883325167000294,,,,,,0.0,0.0,0.0,1.0,4.0,1.0,9.0,0.0,206.57723008299945,,,,,,,,,206.5710621670005,206.91860916698352,207.7101300000213,207.70195966697065,207.7025887920172,207.7101300000213,207.7101300000213,207.7101300000213,,209.58596879197285,,,,,,,,,,,,,,,,,,,,,,,,,,,,,,left,1.0,1.8708762919995932,,,,,,sub-021,1,random_dot,120.16378319664408,
left,left,10.0,0.0,5.0,left,1.0,5.575625666999258,,speed,space,4.883325167000294,,,,,,0.0,0.0,0.0,1.0,5.0,0.0,10.0,0.0,209.59158224996645,,,,,,,,,209.58646970801053,209.92562295799144,210.72668983298357,210.7188531669672,210.71931504202075,210.72668983298357,210.72668983298357,210.72668983298357,215.70814454200445,216.30953675002087,,,,,,,,,,,,,,,,,,,,,,,,,,,,,,left,1.0,5.575625666999258,,,,,,sub-021,1,random_dot,120.16378319664408,
right,right,11.0,1.0,5.0,right,1.0,4.748209125013091,,speed,space,4.883325167000294,,,,,,0.0,0.0,0.0,1.0,5.0,1.0,11.0,1.0,216.31779208302032,,,,,,,,,216.3101187919965,217.1096351669985,217.91059241699983,217.90262204199095,217.90315670799464,217.91059241699983,217.91059241699983,217.91059241699983,,222.66070987499552,,,,,,,,,,,,,,,,,,,,,,,,,,,,,,right,1.0,4.748209125013091,,,,,,sub-021,1,random_dot,120.16378319664408,
left,left,12.0,0.0,6.0,left,1.0,5.598075457965024,,speed,space,4.883325167000294,,,,,,0.0,0.0,0.0,1.0,6.0,0.0,12.0,0.0,222.6686911249999,,,,,,,,,222.66123016696656,223.85956870799416,224.6519487919868,224.6425611670129,224.64313674997535,224.6519487919868,224.6519487919868,224.6519487919868,229.63623008300783,230.25373424997088,,,,,,,,,,,,,,,,,,,,,,,,,,,,,,left,1.0,5.598075457965024,,,,,,sub-021,1,random_dot,120.16378319664408,
right,right,13.0,1.0,6.0,left,0.0,5.471982042014133,,speed,space,4.883325167000294,,,,,,0.0,0.0,0.0,1.0,6.0,1.0,13.0,1.0,230.26306154200572,,,,,,,,,230.25438116700388,230.342639666982,231.1357119170134,231.12549733300693,231.12598837498808,231.1357119170134,231.1357119170134,231.1357119170134,236.1193795829895,236.61117708298843,,,,,,,,,,,,,,,,,,,,,,,,,,,,,,left,0.0,5.471982042014133,,,,,,sub-021,1,random_dot,120.16378319664408,
left,left,14.0,0.0,7.0,left,1.0,4.671039376000408,,speed,space,4.883325167000294,,,,,,0.0,0.0,0.0,1.0,7.0,0.0,14.0,0.0,236.62177179200808,,,,,,,,,236.61201970797265,236.95980387501183,237.7620438329759,237.7536070829956,237.75423745799344,237.7620438329759,237.7620438329759,237.7620438329759,,242.4375558330212,,,,,,,,,,,,,,,,,,,,,,,,,,,,,,left,1.0,4.671039376000408,,,,,,sub-021,1,random_dot,120.16378319664408,
right,right,15.0,1.0,7.0,left,0.0,5.12468024995178,,speed,space,4.883325167000294,,,,,,0.0,0.0,0.0,1.0,7.0,1.0,15.0,1.0,242.44318904198008,,,,,,,,,242.4380588749773,243.22618683299515,244.0193367920001,244.0099331670208,244.01051325001757,244.0193367920001,244.0193367920001,244.0193367920001,249.00317649997305,249.154936417006,,,,,,,,,,,,,,,,,,,,,,,,,,,,,,left,0.0,5.12468024995178,,,,,,sub-021,1,random_dot,120.16378319664408,
right,right,16.0,0.0,8.0,right,1.0,2.468665875028819,,speed,space,4.883325167000294,,,,,,0.0,0.0,0.0,1.0,8.0,0.0,16.0,1.0,249.16252954199445,,,,,,,,,249.1555849169963,249.5036197919981,250.2965925830067,250.28750983299688,250.2882750419667,250.2965925830067,250.2965925830067,250.2965925830067,,252.7710550829652,,,,,,,,,,,,,,,,,,,,,,,,,,,,,,right,1.0,2.468665875028819,,,,,,sub-021,1,random_dot,120.16378319664408,
left,left,17.0,1.0,8.0,left,1.0,2.442089041986037,,speed,space,4.883325167000294,,,,,,0.0,0.0,0.0,1.0,8.0,1.0,17.0,0.0,252.77905779198045,,,,,,,,,252.77155750000384,253.5601209999877,254.3620873329928,254.35406350000997,254.35458087502047,254.3620873329928,254.3620873329928,254.3620873329928,,256.8118062079884,,,,,,,,,,,,,,,,,,,,,,,,,,,,,,left,1.0,2.442089041986037,,,,,,sub-021,1,random_dot,120.16378319664408,
right,right,18.0,0.0,9.0,right,1.0,1.9219357919646427,,speed,space,4.883325167000294,,,,,,0.0,0.0,0.0,1.0,9.0,0.0,18.0,1.0,256.8193586249836,,,,,,,,,256.8122934999992,257.1606578329811,257.9532705419697,257.9437285829917,257.9443007920054,257.9532705419697,257.9532705419697,257.9532705419697,,259.87847345799673,,,,,,,,,,,,,,,,,,,,,,,,,,,,,,right,1.0,1.9219357919646427,,,,,,sub-021,1,random_dot,120.16378319664408,
left,left,19.0,1.0,9.0,left,1.0,2.796396417019423,,speed,space,4.883325167000294,,,,,,0.0,0.0,0.0,1.0,9.0,1.0,19.0,0.0,259.8857931669918,,,,,,,,,259.87891625001794,259.97677233297145,260.7700993749895,260.7596943330136,260.76036600000225,260.7700993749895,260.7700993749895,260.7700993749895,,263.5716612919932,,,,,,,,,,,,,,,,,,,,,,,,,,,,,,left,1.0,2.796396417019423,,,,,,sub-021,1,random_dot,120.16378319664408,
right,right,20.0,0.0,10.0,left,0.0,3.7797774170176126,,speed,space,4.883325167000294,,,,,,0.0,0.0,0.0,1.0,10.0,0.0,20.0,1.0,263.5770129999728,,,,,,,,,263.5721582080005,263.6606567919953,264.4535564170219,264.4434523329837,264.44401341699995,264.4535564170219,264.4535564170219,264.4535564170219,,268.23765229200944,,,,,,,,,,,,,,,,,,,,,,,,,,,,,,left,0.0,3.7797774170176126,,,,,,sub-021,1,random_dot,120.16378319664408,
left,left,21.0,1.0,10.0,left,1.0,5.5586796249845065,,speed,space,4.883325167000294,,,,,,0.0,0.0,0.0,1.0,10.0,1.0,21.0,0.0,268.24165195797104,,,,,,,,,268.23788525001146,268.3277148749912,269.1203798750066,269.1108173750108,269.1114052080084,269.1203798750066,269.1203798750066,269.1203798750066,274.10422312497394,274.689309999987,,,,,,,,,,,,,,,,,,,,,,,,,,,,,,left,1.0,5.5586796249845065,,,,,,sub-021,1,random_dot,120.16378319664408,
left,left,22.0,0.0,11.0,left,1.0,3.3972019589855336,,speed,space,4.883325167000294,,,,,,0.0,0.0,0.0,1.0,11.0,0.0,22.0,0.0,274.6986141669913,,,,,,,,,274.69000216701534,275.4879948750022,276.2795192080084,276.2715501670027,276.2720850000041,276.2795192080084,276.2795192080084,276.2795192080084,,279.6795722920215,,,,,,,,,,,,,,,,,,,,,,,,,,,,,,left,1.0,3.3972019589855336,,,,,,sub-021,1,random_dot,120.16378319664408,
right,right,23.0,1.0,11.0,left,0.0,5.587321583996527,,speed,space,4.883325167000294,,,,,,0.0,0.0,0.0,1.0,11.0,1.0,23.0,1.0,279.6872698329971,,,,,,,,,279.6800454580225,280.0290605829796,280.82967370800907,280.82151945796795,280.82206870801747,280.82967370800907,280.82967370800907,280.82967370800907,285.8101865419885,286.4233954169904,,,,,,,,,,,,,,,,,,,,,,,,,,,,,,left,0.0,5.587321583996527,,,,,,sub-021,1,random_dot,120.16378319664408,
left,left,24.0,0.0,12.0,left,1.0,5.447111042041797,,speed,space,4.883325167000294,,,,,,0.0,0.0,0.0,1.0,12.0,0.0,24.0,0.0,286.4327472919831,,,,,,,,,286.4242001249804,287.62172941700555,288.4131469579879,288.4051572919707,288.4056969580124,288.4131469579879,288.4131469579879,288.4131469579879,293.3935385000077,293.86342795798555,,,,,,,,,,,,,,,,,,,,,,,,,,,,,,left,1.0,5.447111042041797,,,,,,sub-021,1,random_dot,120.16378319664408,
right,right,25.0,1.0,12.0,left,0.0,2.351988042006269,,speed,space,4.883325167000294,,,,,,0.0,0.0,0.0,1.0,12.0,1.0,25.0,1.0,293.8882864170009,,,,,,,,,293.8640381249716,294.21272920799674,295.0129888749798,295.0053055830067,295.0058301250101,295.0129888749798,295.0129888749798,295.0129888749798,,297.37279720796505,,,,,,,,,,,,,,,,,,,,,,,,,,,,,,left,0.0,2.351988042006269,,,,,,sub-021,1,random_dot,120.16378319664408,
left,left,26.0,0.0,13.0,left,1.0,0.7461689169867896,,speed,space,4.883325167000294,,,,,,0.0,0.0,0.0,1.0,13.0,0.0,26.0,0.0,297.38030083297053,,,,,,,,,297.3733360419865,298.5621956670075,299.3548766669701,299.3453164169914,299.3458820420201,299.3548766669701,299.3548766669701,299.3548766669701,,300.1060376670212,,,,,,,,,,,,,,,,,,,,,,,,,,,,,,left,1.0,0.7461689169867896,,,,,,sub-021,1,random_dot,120.16378319664408,
right,right,27.0,1.0,13.0,left,0.0,3.0473775420105085,,speed,space,4.883325167000294,,,,,,0.0,0.0,0.0,1.0,13.0,1.0,27.0,1.0,300.1134669170133,,,,,,,,,300.1065146669862,300.895279666991,301.6883156669792,301.67915649997303,301.6797349579865,301.6883156669792,301.6883156669792,301.6883156669792,,304.7396623329841,,,,,,,,,,,,,,,,,,,,,,,,,,,,,,left,0.0,3.0473775420105085,,,,,,sub-021,1,random_dot,120.16378319664408,
right,right,28.0,0.0,14.0,right,1.0,3.966446584032383,,speed,space,4.883325167000294,,,,,,0.0,0.0,0.0,1.0,14.0,0.0,28.0,1.0,304.7481733749737,,,,,,,,,304.7401681250194,305.0802208330133,305.88181287498446,305.87269083299907,305.87321504199645,305.88181287498446,305.88181287498446,305.88181287498446,,309.85668704198906,,,,,,,,,,,,,,,,,,,,,,,,,,,,,,right,1.0,3.966446584032383,,,,,,sub-021,1,random_dot,120.16378319664408,
left,left,29.0,1.0,14.0,left,1.0,4.36156829202082,,speed,space,4.883325167000294,,,,,,0.0,0.0,0.0,1.0,14.0,1.0,29.0,0.0,309.8646890000091,,,,,,,,,309.8572322499822,311.0468017079984,311.84793329198146,311.8397662920179,311.84031820797827,311.84793329198146,311.84793329198146,311.84793329198146,,316.2143448750139,,,,,,,,,,,,,,,,,,,,,,,,,,,,,,left,1.0,4.36156829202082,,,,,,sub-021,1,random_dot,120.16378319664408,
left,left,30.0,0.0,15.0,left,1.0,3.65198791702278,,speed,space,4.883325167000294,,,,,,0.0,0.0,0.0,1.0,15.0,0.0,30.0,0.0,316.2216472919681,,,,,,,,,316.2148203329998,317.0130720000016,317.8055815419648,317.7962800419773,317.7968643750064,317.8055815419648,317.8055815419648,317.8055815419648,,321.46487816696754,,,,,,,,,,,,,,,,,,,,,,,,,,,,,,left,1.0,3.65198791702278,,,,,,sub-021,1,random_dot,120.16378319664408,
right,right,31.0,1.0,15.0,left,0.0,3.1369520419975743,,speed,space,4.883325167000294,,,,,,0.0,0.0,0.0,1.0,15.0,1.0,31.0,1.0,321.4721553329728,,,,,,,,,321.4653535829857,322.26373316696845,323.0649987079669,323.05678991699824,323.0574067920097,323.0649987079669,323.0649987079669,323.0649987079669,,326.2074883329915,,,,,,,,,,,,,,,,,,,,,,,,,,,,,,left,0.0,3.1369520419975743,,,,,,sub-021,1,random_dot,120.16378319664408,
right,right,32.0,0.0,16.0,left,0.0,2.23974004201591,,speed,space,4.883325167000294,,,,,,0.0,0.0,0.0,1.0,16.0,0.0,32.0,1.0,326.2148498329916,,,,,,,,,326.20801662496524,326.9965474579949,327.79837937501725,327.7901846669847,327.7908132500015,327.79837937501725,327.79837937501725,327.79837937501725,,330.04093474999536,,,,,,,,,,,,,,,,,,,,,,,,,,,,,,left,0.0,2.23974004201591,,,,,,sub-021,1,random_dot,120.16378319664408,
left,left,33.0,1.0,16.0,left,1.0,2.538392541988287,,speed,space,4.883325167000294,,,,,,0.0,0.0,0.0,1.0,16.0,1.0,33.0,0.0,330.0492546670139,,,,,,,,,330.04145858297125,330.38052020798204,331.17280616698554,331.1634167499724,331.16399341699434,331.17280616698554,331.17280616698554,331.17280616698554,,333.7156907499884,,,,,,,,,,,,,,,,,,,,,,,,,,,,,,left,1.0,2.538392541988287,,,,,,sub-021,1,random_dot,120.16378319664408,
right,right,34.0,0.0,17.0,left,0.0,1.973798417020589,,speed,space,4.883325167000294,,,,,,0.0,0.0,0.0,1.0,17.0,0.0,34.0,1.0,333.7253789579845,,,,,,,,,333.71626037498936,334.0646054579993,334.8653974580229,334.85719800001243,334.85774891701294,334.8653974580229,334.8653974580229,334.8653974580229,,336.8414052919834,,,,,,,,,,,,,,,,,,,,,,,,,,,,,,left,0.0,1.973798417020589,,,,,,sub-021,1,random_dot,120.16378319664408,
left,left,35.0,1.0,17.0,left,1.0,3.949691500980407,,speed,space,4.883325167000294,,,,,,0.0,0.0,0.0,1.0,17.0,1.0,35.0,0.0,336.84737774997484,,,,,,,,,336.84194212500006,337.6404640830005,338.43239433300914,338.4239782500081,338.4246134170098,338.43239433300914,338.43239433300914,338.43239433300914,,342.3914588749758,,,,,,,,,,,,,,,,,,,,,,,,,,,,,,left,1.0,3.949691500980407,,,,,,sub-021,1,random_dot,120.16378319664408,
left,left,36.0,0.0,18.0,left,1.0,5.742658416973427,,speed,space,4.883325167000294,,,,,,0.0,0.0,0.0,1.0,18.0,0.0,36.0,0.0,342.4004621669883,,,,,,,,,342.39202466700226,342.49054812500253,343.28243054199265,343.274227041984,343.2747917500092,343.28243054199265,343.28243054199265,343.28243054199265,348.26303112501046,349.03220029198565,,,,,,,,,,,,,,,,,,,,,,,,,,,,,,left,1.0,5.742658416973427,,,,,,sub-021,1,random_dot,120.16378319664408,
right,right,37.0,1.0,18.0,left,0.0,5.513820834050421,,speed,space,4.883325167000294,,,,,,0.0,0.0,0.0,1.0,18.0,1.0,37.0,1.0,349.05714620801155,,,,,,,,,349.0329091669992,350.23097608296666,351.0235400419915,351.0136416669702,351.0142004999798,351.0235400419915,351.0235400419915,351.0235400419915,356.00768400001107,356.54223633301444,,,,,,,,,,,,,,,,,,,,,,,,,,,,,,left,0.0,5.513820834050421,,,,,,sub-021,1,random_dot,120.16378319664408,
left,left,38.0,0.0,19.0,left,1.0,4.686557208013255,,speed,space,4.883325167000294,,,,,,0.0,0.0,0.0,1.0,19.0,0.0,38.0,0.0,356.55060099996626,,,,,,,,,356.54291366698453,356.8910576669732,357.68320129200583,357.67464812501566,357.6754407080007,357.68320129200583,357.68320129200583,357.68320129200583,,362.37549566698726,,,,,,,,,,,,,,,,,,,,,,,,,,,,,,left,1.0,4.686557208013255,,,,,,sub-021,1,random_dot,120.16378319664408,
right,right,39.0,1.0,19.0,right,1.0,3.4426112920045853,,speed,space,4.883325167000294,,,,,,0.0,0.0,0.0,1.0,19.0,1.0,39.0,1.0,362.3831197079853,,,,,,,,,362.3759624999948,363.1655420419993,363.9663139579934,363.9581190830213,363.9587352499948,363.9663139579934,363.9663139579934,363.9663139579934,,367.4159182080184,,,,,,,,,,,,,,,,,,,,,,,,,,,,,,right,1.0,3.4426112920045853,,,,,,sub-021,1,random_dot,120.16378319664408,
right,right,40.0,0.0,20.0,left,0.0,5.476287624973338,,speed,space,4.883325167000294,,,,,,0.0,0.0,0.0,1.0,20.0,0.0,40.0,1.0,367.42414845799794,,,,,,,,,367.4163810830214,367.7652164580068,368.56687045801664,368.5584241669858,368.5590328329709,368.56687045801664,368.56687045801664,368.56687045801664,373.5471505419701,374.0499099169974,,,,,,,,,,,,,,,,,,,,,,,,,,,,,,left,0.0,5.476287624973338,,,,,,sub-021,1,random_dot,120.16378319664408,
left,left,41.0,1.0,20.0,left,1.0,5.490736000007018,,speed,space,4.883325167000294,,,,,,0.0,0.0,0.0,1.0,20.0,1.0,41.0,0.0,374.0605989579926,,,,,,,,,374.05052787502063,375.2492977919756,376.0500962079968,376.042096249992,376.0426607080153,376.0500962079968,376.0500962079968,376.0500962079968,381.030993458,381.5435271249735,,,,,,,,,,,,,,,,,,,,,,,,,,,,,,left,1.0,5.490736000007018,,,,,,sub-021,1,random_dot,120.16378319664408,
left,left,42.0,0.0,21.0,right,0.0,2.843299084051978,,speed,space,4.883325167000294,,,,,,0.0,0.0,0.0,1.0,21.0,0.0,42.0,0.0,381.55285879201256,,,,,,,,,381.5441989579704,381.6422659999808,382.4344903330202,382.4255317079951,382.42617175000487,382.4344903330202,382.4344903330202,382.4344903330202,,385.2831840419676,,,,,,,,,,,,,,,,,,,,,,,,,,,,,,right,0.0,2.843299084051978,,,,,,sub-021,1,random_dot,120.16378319664408,
right,right,43.0,1.0,21.0,right,1.0,2.683692958031316,,speed,space,4.883325167000294,,,,,,0.0,0.0,0.0,1.0,21.0,1.0,43.0,1.0,385.29165566700976,,,,,,,,,385.2837414169917,385.63316379202297,386.4340608330094,386.42584616696695,386.426408624975,386.4340608330094,386.4340608330094,386.4340608330094,,389.1268120000023,,,,,,,,,,,,,,,,,,,,,,,,,,,,,,right,1.0,2.683692958031316,,,,,,sub-021,1,random_dot,120.16378319664408,
right,right,44.0,0.0,22.0,right,1.0,3.782621417019982,,speed,space,4.883325167000294,,,,,,0.0,0.0,0.0,1.0,22.0,0.0,44.0,1.0,389.13364241697127,,,,,,,,,389.1273371669813,390.3172894580057,391.1172840829822,391.10896954196505,391.1096153749968,391.1172840829822,391.1172840829822,391.1172840829822,,394.90172279201215,,,,,,,,,,,,,,,,,,,,,,,,,,,,,,right,1.0,3.782621417019982,,,,,,sub-021,1,random_dot,120.16378319664408,
left,left,45.0,1.0,22.0,right,0.0,2.009841959050391,,speed,space,4.883325167000294,,,,,,0.0,0.0,0.0,1.0,22.0,1.0,45.0,0.0,394.90887799998745,,,,,,,,,394.90222975000506,396.1004323330126,396.9009923749836,396.8930082920124,396.89358041697415,396.9009923749836,396.9009923749836,396.9009923749836,,398.91632195800776,,,,,,,,,,,,,,,,,,,,,,,,,,,,,,right,0.0,2.009841959050391,,,,,,sub-021,1,random_dot,120.16378319664408,
right,right,46.0,0.0,23.0,right,1.0,2.0511583749903366,,speed,space,4.883325167000294,,,,,,0.0,0.0,0.0,1.0,23.0,0.0,46.0,1.0,398.9254707500222,,,,,,,,,398.9165591669735,399.0160119999782,399.8087038749945,399.79869766702177,399.7992787499679,399.8087038749945,399.8087038749945,399.8087038749945,,401.867413208005,,,,,,,,,,,,,,,,,,,,,,,,,,,,,,right,1.0,2.0511583749903366,,,,,,sub-021,1,random_dot,120.16378319664408,
left,left,47.0,1.0,23.0,right,0.0,3.1226727920002304,,speed,space,4.883325167000294,,,,,,0.0,0.0,0.0,1.0,23.0,1.0,47.0,0.0,401.8755614170223,,,,,,,,,401.8678881669766,402.216227124969,403.0088406249997,402.9996573749813,403.0002349169808,403.0088406249997,403.0088406249997,403.0088406249997,,406.13437441701535,,,,,,,,,,,,,,,,,,,,,,,,,,,,,,right,0.0,3.1226727920002304,,,,,,sub-021,1,random_dot,120.16378319664408,
right,right,48.0,0.0,24.0,right,1.0,2.244670624961145,,speed,space,4.883325167000294,,,,,,0.0,0.0,0.0,1.0,24.0,0.0,48.0,1.0,406.142239207984,,,,,,,,,406.1348754169885,406.2329585420084,407.0258944579982,407.0160794580006,407.0166472499841,407.0258944579982,407.0258944579982,407.0258944579982,,409.2776195000042,,,,,,,,,,,,,,,,,,,,,,,,,,,,,,right,1.0,2.244670624961145,,,,,,sub-021,1,random_dot,120.16378319664408,
left,left,49.0,1.0,24.0,right,0.0,1.6344781250227245,,speed,space,4.883325167000294,,,,,,0.0,0.0,0.0,1.0,24.0,1.0,49.0,0.0,409.2850317499833,,,,,,,,,409.27807645796565,409.626580332988,410.4181088330224,410.4100096669863,410.4106370420195,410.4181088330224,410.4181088330224,410.4181088330224,,412.0606936250115,,,,,,,,,,,,,,,,,,,,,,,,,,,,,,right,0.0,1.6344781250227245,,,,,,sub-021,1,random_dot,120.16378319664408,
right,right,50.0,0.0,25.0,right,1.0,0.8325453760335222,,speed,space,4.883325167000294,,,,,,0.0,0.0,0.0,1.0,25.0,0.0,50.0,1.0,412.0674555419828,,,,,,,,,412.0612162919715,412.39999750000425,413.19216887501534,413.18344083300326,413.1840728329844,413.19216887501534,413.19216887501534,413.19216887501534,,414.02744325000094,,,,,,,,,,,,,,,,,,,,,,,,,,,,,,right,1.0,0.8325453760335222,,,,,,sub-021,1,random_dot,120.16378319664408,
left,left,51.0,1.0,25.0,right,0.0,3.7492665839963593,,speed,space,4.883325167000294,,,,,,0.0,0.0,0.0,1.0,25.0,1.0,51.0,0.0,414.03296891698847,,,,,,,,,414.02795720798895,414.1168132500025,414.90945954201743,414.8997420829837,414.9003466250142,414.90945954201743,414.90945954201743,414.90945954201743,,418.6606852079858,,,,,,,,,,,,,,,,,,,,,,,,,,,,,,right,0.0,3.7492665839963593,,,,,,sub-021,1,random_dot,120.16378319664408,
left,left,52.0,0.0,26.0,right,0.0,0.8644316260470077,,speed,space,4.883325167000294,,,,,,0.0,0.0,0.0,1.0,26.0,0.0,52.0,0.0,418.6661427079816,,,,,,,,,418.66119483299553,419.4505511249881,420.2521439999691,420.24386166699696,420.24447541701375,420.2521439999691,420.2521439999691,420.2521439999691,,421.1282702080207,,,,,,,,,,,,,,,,,,,,,,,,,,,,,,right,0.0,0.8644316260470077,,,,,,sub-021,1,random_dot,120.16378319664408,
right,right,53.0,1.0,26.0,right,1.0,1.233704251004383,,speed,space,4.883325167000294,,,,,,0.0,0.0,0.0,1.0,26.0,1.0,53.0,1.0,421.13656837499,,,,,,,,,421.1287946249941,421.2262848329847,422.01886224997,422.01066804199945,422.0112673330004,422.01886224997,422.01886224997,422.01886224997,,423.2602933750022,,,,,,,,,,,,,,,,,,,,,,,,,,,,,,right,1.0,1.233704251004383,,,,,,sub-021,1,random_dot,120.16378319664408,
right,right,54.0,0.0,27.0,right,1.0,0.7393439169973135,,speed,space,4.883325167000294,,,,,,0.0,0.0,0.0,1.0,27.0,0.0,54.0,1.0,423.2668136669672,,,,,,,,,423.26053916697856,424.45101483300095,425.2523241249728,425.2441111669759,425.2447188330116,425.2523241249728,425.2523241249728,425.2523241249728,,425.9943640420097,,,,,,,,,,,,,,,,,,,,,,,,,,,,,,right,1.0,0.7393439169973135,,,,,,sub-021,1,random_dot,120.16378319664408,
left,left,55.0,1.0,27.0,right,0.0,1.4375352500355802,,speed,space,4.883325167000294,,,,,,0.0,0.0,0.0,1.0,27.0,1.0,55.0,0.0,425.9999203750049,,,,,,,,,425.99485570797697,426.3346314579831,427.1352338750148,427.127343708009,427.12785266700666,427.1352338750148,427.1352338750148,427.1352338750148,,428.57711349998135,,,,,,,,,,,,,,,,,,,,,,,,,,,,,,right,0.0,1.4375352500355802,,,,,,sub-021,1,random_dot,120.16378319664408,
right,right,56.0,0.0,28.0,right,1.0,0.7406448339461349,,speed,space,4.883325167000294,,,,,,0.0,0.0,0.0,1.0,28.0,0.0,56.0,1.0,428.5831014579744,,,,,,,,,428.5773483749945,428.9175471669878,429.7191787919728,429.7107410000172,429.7113563750172,429.7191787919728,429.7191787919728,429.7191787919728,,430.4673577079666,,,,,,,,,,,,,,,,,,,,,,,,,,,,,,right,1.0,0.7406448339461349,,,,,,sub-021,1,random_dot,120.16378319664408,
left,left,57.0,1.0,28.0,right,0.0,0.6176904589519836,,speed,space,4.883325167000294,,,,,,0.0,0.0,0.0,1.0,28.0,1.0,57.0,0.0,430.4766517499811,,,,,,,,,430.46758908301126,430.8171663329704,431.6100398330018,431.6007240000181,431.6013000420062,431.6100398330018,431.6100398330018,431.6100398330018,,432.2350897080032,,,,,,,,,,,,,,,,,,,,,,,,,,,,,,right,0.0,0.6176904589519836,,,,,,sub-021,1,random_dot,120.16378319664408,
left,left,58.0,0.0,29.0,right,0.0,2.2606147920014337,,speed,space,4.883325167000294,,,,,,0.0,0.0,0.0,1.0,29.0,0.0,58.0,0.0,432.2425225420157,,,,,,,,,432.23557108297246,433.4340518329991,434.2267302499968,434.2174217500142,434.2180581249995,434.2267302499968,434.2267302499968,434.2267302499968,,436.4948086250224,,,,,,,,,,,,,,,,,,,,,,,,,,,,,,right,0.0,2.2606147920014337,,,,,,sub-021,1,random_dot,120.16378319664408,
right,right,59.0,1.0,29.0,right,1.0,0.6007986670010723,,speed,space,4.883325167000294,,,,,,0.0,0.0,0.0,1.0,29.0,1.0,59.0,1.0,436.5040043329937,,,,,,,,,436.4953482919954,437.2849970419775,438.0854222920025,438.0774669169914,438.0778578330064,438.0854222920025,438.0854222920025,438.0854222920025,,438.6954520000145,,,,,,,,,,,,,,,,,,,,,,,,,,,,,,right,1.0,0.6007986670010723,,,,,,sub-021,1,random_dot,120.16378319664408,
,,0.0,0.0,0.0,,,,,speed,space,4.883325167000294,,,,,,0.0,0.0,0.0,1.0,,,,,,,,,,,,,,,,,,,,,,,,,,,,,,,,,,,,,,,,,,,,,,,,,,,,,,,,,,,,,sub-021,1,random_dot,120.16378319664408,
left,left,0.0,0.0,0.0,right,0.0,1.9931123760179617,,accuracy,space,3.893546375038568,,,,,,0.0,1.0,1.0,0.0,0.0,0.0,0.0,0.0,442.6275848330115,,,,,,,,,442.6205097499769,443.41059633297846,444.2031531250104,444.1947654999676,444.1953555420041,444.2031531250104,444.2031531250104,444.2031531250104,,446.2030555420206,,,,,,,,,,,,,,,,,,,,,,,438.70755570800975,438.7138906249893,438.7138906249893,442.612575792009,space,3.893546375038568,,right,0.0,1.9931123760179617,,,,,,sub-021,1,random_dot,120.16378319664408,
right,right,1.0,1.0,0.0,right,1.0,5.480784584011417,,accuracy,space,3.893546375038568,,,,,,0.0,1.0,1.0,0.0,0.0,1.0,1.0,1.0,446.2115178749664,,,,,,,,,446.2035538330092,446.3019430830027,447.10287875001086,447.0948816669989,447.0954256670084,447.10287875001086,447.10287875001086,447.10287875001086,452.08307449996937,452.5852579579805,,,,,,,,,,,,,,,,,,,,,,,,,,,,,,right,1.0,5.480784584011417,,,,,,sub-021,1,random_dot,120.16378319664408,
right,right,2.0,0.0,1.0,right,1.0,2.955914792022668,,accuracy,space,3.893546375038568,,,,,,0.0,1.0,1.0,0.0,1.0,0.0,2.0,1.0,452.5943273329758,,,,,,,,,452.58589187497273,453.3845430419897,454.177094292012,454.16813674999867,454.1686876669992,454.177094292012,454.177094292012,454.177094292012,,457.1362032080069,,,,,,,,,,,,,,,,,,,,,,,,,,,,,,right,1.0,2.955914792022668,,,,,,sub-021,1,random_dot,120.16378319664408,
left,left,3.0,1.0,1.0,right,0.0,1.7028529169620017,,accuracy,space,3.893546375038568,,,,,,0.0,1.0,1.0,0.0,1.0,1.0,3.0,0.0,457.1443654170144,,,,,,,,,457.1367162920069,457.4861961670104,458.2871495420113,458.2784731669817,458.27904937497806,458.2871495420113,458.2871495420113,458.2871495420113,,459.9956406669808,,,,,,,,,,,,,,,,,,,,,,,,,,,,,,right,0.0,1.7028529169620017,,,,,,sub-021,1,random_dot,120.16378319664408,
right,right,4.0,0.0,2.0,right,1.0,1.882883416954428,,accuracy,space,3.893546375038568,,,,,,0.0,1.0,1.0,0.0,2.0,0.0,4.0,1.0,460.0027449170011,,,,,,,,,459.9961027079844,460.0849236249924,460.8865194169921,460.8785836250172,460.8791094169719,460.8865194169921,460.8865194169921,460.8865194169921,,462.7796445419663,,,,,,,,,,,,,,,,,,,,,,,,,,,,,,right,1.0,1.882883416954428,,,,,,sub-021,1,random_dot,120.16378319664408,
left,left,5.0,1.0,2.0,right,0.0,0.8906370009644888,,accuracy,space,3.893546375038568,,,,,,0.0,1.0,1.0,0.0,2.0,1.0,5.0,0.0,462.786407208012,,,,,,,,,462.7801777499844,463.1286659999751,463.9195588749717,463.9117840420222,463.9123482080177,463.9195588749717,463.9195588749717,463.9195588749717,,464.8130959999981,,,,,,,,,,,,,,,,,,,,,,,,,,,,,,right,0.0,0.8906370009644888,,,,,,sub-021,1,random_dot,120.16378319664408,
left,left,6.0,0.0,3.0,right,0.0,2.6040091249742545,,accuracy,space,3.893546375038568,,,,,,0.0,1.0,1.0,0.0,3.0,0.0,6.0,0.0,464.8211904999917,,,,,,,,,464.8136596250115,466.01202483300585,466.804076957982,466.7954743329901,466.7960747500183,466.804076957982,466.804076957982,466.804076957982,,469.4129952919902,,,,,,,,,,,,,,,,,,,,,,,,,,,,,,right,0.0,2.6040091249742545,,,,,,sub-021,1,random_dot,120.16378319664408,
right,right,7.0,1.0,3.0,right,1.0,1.7232583750155754,,accuracy,space,3.893546375038568,,,,,,0.0,1.0,1.0,0.0,3.0,1.0,7.0,1.0,469.4196779580088,,,,,,,,,469.41350704198703,470.2120834999951,471.0029644999886,470.9954168329714,470.99592220800696,471.0029644999886,471.0029644999886,471.0029644999886,,472.7297215000144,,,,,,,,,,,,,,,,,,,,,,,,,,,,,,right,1.0,1.7232583750155754,,,,,,sub-021,1,random_dot,120.16378319664408,
left,left,8.0,0.0,4.0,right,0.0,1.6445003330009058,,accuracy,space,3.893546375038568,,,,,,0.0,1.0,1.0,0.0,4.0,0.0,8.0,0.0,472.7373282919871,,,,,,,,,472.7302347079967,473.9193400000222,474.7207181249978,474.7126724579721,474.7131527499878,474.7207181249978,474.7207181249978,474.7207181249978,,476.3703112499789,,,,,,,,,,,,,,,,,,,,,,,,,,,,,,right,0.0,1.6445003330009058,,,,,,sub-021,1,random_dot,120.16378319664408,
right,right,9.0,1.0,4.0,right,1.0,1.9672408750047907,,accuracy,space,3.893546375038568,,,,,,0.0,1.0,1.0,0.0,4.0,1.0,9.0,1.0,476.37834766699234,,,,,,,,,476.3708668749896,476.7198193329969,477.5209596669884,477.512753707997,477.5133078750223,477.5209596669884,477.5209596669884,477.5209596669884,,479.4971952919732,,,,,,,,,,,,,,,,,,,,,,,,,,,,,,right,1.0,1.9672408750047907,,,,,,sub-021,1,random_dot,120.16378319664408,
right,right,10.0,0.0,5.0,right,1.0,0.7819667080184445,,accuracy,space,3.893546375038568,,,,,,0.0,1.0,1.0,0.0,5.0,0.0,10.0,1.0,479.5054125419701,,,,,,,,,479.4977096670191,479.8458538749837,480.63817845797166,480.62957237497903,480.63018987496616,480.63817845797166,480.63817845797166,480.63817845797166,,481.4297042919789,,,,,,,,,,,,,,,,,,,,,,,,,,,,,,right,1.0,0.7819667080184445,,,,,,sub-021,1,random_dot,120.16378319664408,
left,left,11.0,1.0,5.0,right,0.0,0.3908870419836603,,accuracy,space,3.893546375038568,,,,,,0.0,1.0,1.0,0.0,5.0,1.0,11.0,0.0,481.4369023329928,,,,,,,,,481.4301667920081,481.7688085829722,482.571809666988,482.56299975002185,482.563525000005,482.571809666988,482.571809666988,482.571809666988,,482.9694948749966,,,,,,,,,,,,,,,,,,,,,,,,,,,,,,right,0.0,0.3908870419836603,,,,,,sub-021,1,random_dot,120.16378319664408,
left,left,12.0,0.0,6.0,right,0.0,1.3315641669905744,,accuracy,space,3.893546375038568,,,,,,0.0,1.0,1.0,0.0,6.0,0.0,12.0,0.0,482.9786722919671,,,,,,,,,482.96973266697023,484.1695381249883,484.9707581669791,484.9628466250142,484.9633839579765,484.9707581669791,484.9707581669791,484.9707581669791,,486.3037052080035,,,,,,,,,,,,,,,,,,,,,,,,,,,,,,right,0.0,1.3315641669905744,,,,,,sub-021,1,random_dot,120.16378319664408,
right,right,13.0,1.0,6.0,right,1.0,4.501846625003964,,accuracy,space,3.893546375038568,,,,,,0.0,1.0,1.0,0.0,6.0,1.0,13.0,1.0,486.3122032500105,,,,,,,,,486.3042508750223,487.5025942919892,488.2955317919841,488.2854835420149,488.2860749170068,488.2955317919841,488.2955317919841,488.2955317919841,,492.8044817500049,,,,,,,,,,,,,,,,,,,,,,,,,,,,,,right,1.0,4.501846625003964,,,,,,sub-021,1,random_dot,120.16378319664408,
right,right,14.0,0.0,7.0,right,1.0,5.633137417025864,,accuracy,space,3.893546375038568,,,,,,0.0,1.0,1.0,0.0,7.0,0.0,14.0,1.0,492.8113932500128,,,,,,,,,492.8049488749821,493.1529682499822,493.9553786669858,493.9466939169797,493.94733341701794,493.9553786669858,493.9553786669858,493.9553786669858,498.936067749979,499.5983317500213,,,,,,,,,,,,,,,,,,,,,,,,,,,,,,right,1.0,5.633137417025864,,,,,,sub-021,1,random_dot,120.16378319664408,
left,left,15.0,1.0,7.0,right,0.0,5.554077542037703,,accuracy,space,3.893546375038568,,,,,,0.0,1.0,1.0,0.0,7.0,1.0,15.0,0.0,499.60759149998194,,,,,,,,,499.5990260000108,499.6966820000089,500.48858000000473,500.4801310829935,500.48075254197465,500.48858000000473,500.48858000000473,500.48858000000473,505.46948699996574,506.0478987079696,,,,,,,,,,,,,,,,,,,,,,,,,,,,,,right,0.0,5.554077542037703,,,,,,sub-021,1,random_dot,120.16378319664408,
left,left,16.0,0.0,8.0,right,0.0,5.439643041987438,,accuracy,space,3.893546375038568,,,,,,0.0,1.0,1.0,0.0,8.0,0.0,16.0,0.0,506.05767412501154,,,,,,,,,506.0484994580038,507.24643341702176,508.03887904196745,508.030598332989,508.03122358297696,508.03887904196745,508.03887904196745,508.03887904196745,513.0192063329741,513.4816029579961,,,,,,,,,,,,,,,,,,,,,,,,,,,,,,right,0.0,5.439643041987438,,,,,,sub-021,1,random_dot,120.16378319664408,
right,right,17.0,1.0,8.0,right,1.0,3.886644707992673,,accuracy,space,3.893546375038568,,,,,,0.0,1.0,1.0,0.0,8.0,1.0,17.0,1.0,513.4912532080198,,,,,,,,,513.4822650830029,513.820976625022,514.6236074580229,514.6142789580044,514.6150405419758,514.6236074580229,514.6236074580229,514.6236074580229,,518.5149804999819,,,,,,,,,,,,,,,,,,,,,,,,,,,,,,right,1.0,3.886644707992673,,,,,,sub-021,1,random_dot,120.16378319664408,
left,left,18.0,0.0,9.0,right,0.0,1.7715886670048349,,accuracy,space,3.893546375038568,,,,,,0.0,1.0,1.0,0.0,9.0,0.0,18.0,0.0,518.5206277499674,,,,,,,,,518.5154847080121,518.6048818749841,519.4064057919895,519.3977427079808,519.3984261250007,519.4064057919895,519.4064057919895,519.4064057919895,,521.1819215830183,,,,,,,,,,,,,,,,,,,,,,,,,,,,,,right,0.0,1.7715886670048349,,,,,,sub-021,1,random_dot,120.16378319664408,
right,right,19.0,1.0,9.0,right,1.0,5.493879624991678,,accuracy,space,3.893546375038568,,,,,,0.0,1.0,1.0,0.0,9.0,1.0,19.0,1.0,521.1903417499852,,,,,,,,,521.1824307920178,521.5303388329921,522.323768207978,522.3146913329838,522.3154823749792,522.323768207978,522.323768207978,522.323768207978,527.3031595000066,527.8220220420044,,,,,,,,,,,,,,,,,,,,,,,,,,,,,,right,1.0,5.493879624991678,,,,,,sub-021,1,random_dot,120.16378319664408,
left,left,20.0,0.0,10.0,right,0.0,3.7810428340453655,,accuracy,space,3.893546375038568,,,,,,0.0,1.0,1.0,0.0,10.0,0.0,20.0,0.0,527.833043791994,,,,,,,,,527.8227233749931,529.0207675829879,529.8140604579821,529.8039936670102,529.8046857920126,529.8140604579821,529.8140604579821,529.8140604579821,,533.5988513749908,,,,,,,,,,,,,,,,,,,,,,,,,,,,,,right,0.0,3.7810428340453655,,,,,,sub-021,1,random_dot,120.16378319664408,
right,right,21.0,1.0,10.0,left,0.0,4.681633500033058,,accuracy,space,3.893546375038568,,,,,,0.0,1.0,1.0,0.0,10.0,1.0,21.0,1.0,533.6060467080097,,,,,,,,,533.5993637079955,534.7878167500021,535.5893269579974,535.5812604579842,535.5819016249734,535.5893269579974,535.5893269579974,535.5893269579974,,540.2725278749713,,,,,,,,,,,,,,,,,,,,,,,,,,,,,,left,0.0,4.681633500033058,,,,,,sub-021,1,random_dot,120.16378319664408,
left,left,22.0,0.0,11.0,left,1.0,5.490870332985651,,accuracy,space,3.893546375038568,,,,,,0.0,1.0,1.0,0.0,11.0,0.0,22.0,0.0,540.2804626669968,,,,,,,,,540.2730364580057,540.3714926249813,541.1735402499908,541.1650597919943,541.1656744999927,541.1735402499908,541.1735402499908,541.1735402499908,546.1531414170167,546.6657974579721,,,,,,,,,,,,,,,,,,,,,,,,,,,,,,left,1.0,5.490870332985651,,,,,,sub-021,1,random_dot,120.16378319664408,
right,right,23.0,1.0,11.0,right,1.0,3.102679125033319,,accuracy,space,3.893546375038568,,,,,,0.0,1.0,1.0,0.0,11.0,1.0,23.0,1.0,546.6715318330098,,,,,,,,,546.6664028749801,547.0153738330118,547.8068399169715,547.7987284580013,547.7993272920139,547.8068399169715,547.8068399169715,547.8068399169715,,550.9162014999893,,,,,,,,,,,,,,,,,,,,,,,,,,,,,,right,1.0,3.102679125033319,,,,,,sub-021,1,random_dot,120.16378319664408,
left,left,24.0,0.0,12.0,right,0.0,4.95044504199177,,accuracy,space,3.893546375038568,,,,,,0.0,1.0,1.0,0.0,12.0,0.0,24.0,0.0,550.923088792013,,,,,,,,,550.916718582972,551.7150819579838,552.507764458016,552.498883332999,552.4996427919832,552.507764458016,552.507764458016,552.507764458016,,557.4663926250068,,,,,,,,,,,,,,,,,,,,,,,,,,,,,,right,0.0,4.95044504199177,,,,,,sub-021,1,random_dot,120.16378319664408,
right,right,25.0,1.0,12.0,right,1.0,5.488029958039988,,accuracy,space,3.893546375038568,,,,,,0.0,1.0,1.0,0.0,12.0,1.0,25.0,1.0,557.4754856670042,,,,,,,,,557.4669592920109,558.2552892499953,559.0483615829726,559.0387522079982,559.0393250829657,559.0483615829726,559.0483615829726,559.0483615829726,564.0318886669702,564.5401834999793,,,,,,,,,,,,,,,,,,,,,,,,,,,,,,right,1.0,5.488029958039988,,,,,,sub-021,1,random_dot,120.16378319664408,
right,right,26.0,0.0,13.0,right,1.0,3.6174215829814784,,accuracy,space,3.893546375038568,,,,,,0.0,1.0,1.0,0.0,13.0,0.0,26.0,1.0,564.5656085829833,,,,,,,,,564.5410197079764,564.6388562080101,565.4317064170027,565.4222694580094,565.4228473749827,565.4317064170027,565.4317064170027,565.4317064170027,,569.0566488329787,,,,,,,,,,,,,,,,,,,,,,,,,,,,,,right,1.0,3.6174215829814784,,,,,,sub-021,1,random_dot,120.16378319664408,
left,left,27.0,1.0,13.0,right,0.0,1.699194292013999,,accuracy,space,3.893546375038568,,,,,,0.0,1.0,1.0,0.0,13.0,1.0,27.0,0.0,569.0647861249745,,,,,,,,,569.0571391250123,569.4069005419733,570.2078197079827,570.1996169170015,570.2002005419927,570.2078197079827,570.2078197079827,570.2078197079827,,571.9167782919831,,,,,,,,,,,,,,,,,,,,,,,,,,,,,,right,0.0,1.699194292013999,,,,,,sub-021,1,random_dot,120.16378319664408,
right,right,28.0,0.0,14.0,left,0.0,6.252315207966603,,accuracy,space,3.893546375038568,,,,,,0.0,1.0,1.0,0.0,14.0,0.0,28.0,1.0,571.9249582079938,,,,,,,,,571.9173140829662,573.106272917008,573.8988192499964,573.8892094580224,573.889851999993,573.8988192499964,573.8988192499964,573.8988192499964,578.8829192919657,580.1577863330022,,,,,,,,,,,,,,,,,,,,,,,,,,,,,,left,0.0,6.252315207966603,,,,,,sub-021,1,random_dot,120.16378319664408,
left,left,29.0,1.0,14.0,left,1.0,5.483766166958958,,accuracy,space,3.893546375038568,,,,,,0.0,1.0,1.0,0.0,14.0,1.0,29.0,0.0,580.1828226670041,,,,,,,,,580.158358042012,580.9573532079812,581.7583630000008,581.7499669580138,581.7506001250003,581.7583630000008,581.7583630000008,581.7583630000008,586.7384308750043,587.2511120829731,,,,,,,,,,,,,,,,,,,,,,,,,,,,,,left,1.0,5.483766166958958,,,,,,sub-021,1,random_dot,120.16378319664408,
right,right,30.0,0.0,15.0,left,0.0,5.760280166985467,,accuracy,space,3.893546375038568,,,,,,0.0,1.0,1.0,0.0,15.0,0.0,30.0,1.0,587.2588156670099,,,,,,,,,587.2516807920183,588.4500181669719,589.2418464579969,589.2336761669721,589.2342782079941,589.2418464579969,589.2418464579969,589.2418464579969,594.2216164999991,595.0079037079704,,,,,,,,,,,,,,,,,,,,,,,,,,,,,,left,0.0,5.760280166985467,,,,,,sub-021,1,random_dot,120.16378319664408,
left,left,31.0,1.0,15.0,right,0.0,1.4187292090500705,,accuracy,space,3.893546375038568,,,,,,0.0,1.0,1.0,0.0,15.0,1.0,31.0,0.0,595.0165130830137,,,,,,,,,595.0084688750212,596.2070682499907,597.0085914169904,597.0003525419743,597.001007999992,597.0085914169904,597.0085914169904,597.0085914169904,,598.4345217079972,,,,,,,,,,,,,,,,,,,,,,,,,,,,,,right,0.0,1.4187292090500705,,,,,,sub-021,1,random_dot,120.16378319664408,
right,right,32.0,0.0,16.0,right,1.0,2.457814666966442,,accuracy,space,3.893546375038568,,,,,,0.0,1.0,1.0,0.0,16.0,0.0,32.0,1.0,598.4423381249653,,,,,,,,,598.4349942079862,599.2243682919652,600.0263089999789,600.0176805829979,600.0183845830034,600.0263089999789,600.0263089999789,600.0263089999789,,602.4909079999779,,,,,,,,,,,,,,,,,,,,,,,,,,,,,,right,1.0,2.457814666966442,,,,,,sub-021,1,random_dot,120.16378319664408,
left,left,33.0,1.0,16.0,left,1.0,2.7528997090412304,,accuracy,space,3.893546375038568,,,,,,0.0,1.0,1.0,0.0,16.0,1.0,33.0,0.0,602.5000343329739,,,,,,,,,602.4911489170045,602.8395685419673,603.6333901669714,603.6231702920049,603.6239460830111,603.6333901669714,603.6333901669714,603.6333901669714,,606.3920033749891,,,,,,,,,,,,,,,,,,,,,,,,,,,,,,left,1.0,2.7528997090412304,,,,,,sub-021,1,random_dot,120.16378319664408,
right,right,34.0,0.0,17.0,left,0.0,4.446040334005375,,accuracy,space,3.893546375038568,,,,,,0.0,1.0,1.0,0.0,17.0,0.0,34.0,1.0,606.3995235000039,,,,,,,,,606.3924772079918,607.591096292017,608.3938969169976,608.3847767079715,608.3854803749709,608.3938969169976,608.3938969169976,608.3938969169976,,612.8411069579888,,,,,,,,,,,,,,,,,,,,,,,,,,,,,,left,0.0,4.446040334005375,,,,,,sub-021,1,random_dot,120.16378319664408,
left,left,35.0,1.0,17.0,left,1.0,3.986738834006246,,accuracy,space,3.893546375038568,,,,,,0.0,1.0,1.0,0.0,17.0,1.0,35.0,0.0,612.8510806669947,,,,,,,,,612.8413455829723,614.0410284170066,614.8431637079921,614.8345279169735,614.8351796669886,614.8431637079921,614.8431637079921,614.8431637079921,,618.8353393750149,,,,,,,,,,,,,,,,,,,,,,,,,,,,,,left,1.0,3.986738834006246,,,,,,sub-021,1,random_dot,120.16378319664408,
right,right,36.0,0.0,18.0,left,0.0,2.808828834036831,,accuracy,space,3.893546375038568,,,,,,0.0,1.0,1.0,0.0,18.0,0.0,36.0,1.0,618.8433464579866,,,,,,,,,618.8358368750196,620.0254037919804,620.8263413329842,620.818187457975,620.8187500420026,620.8263413329842,620.8263413329842,620.8263413329842,,623.6424174999702,,,,,,,,,,,,,,,,,,,,,,,,,,,,,,left,0.0,2.808828834036831,,,,,,sub-021,1,random_dot,120.16378319664408,
left,left,37.0,1.0,18.0,left,1.0,3.5245113340206444,,accuracy,space,3.893546375038568,,,,,,0.0,1.0,1.0,0.0,18.0,1.0,37.0,0.0,623.6505805419874,,,,,,,,,623.6426591249765,623.9911312080221,624.7839776669862,624.7739138330217,624.7744958749972,624.7839776669862,624.7839776669862,624.7839776669862,,628.3100102919852,,,,,,,,,,,,,,,,,,,,,,,,,,,,,,left,1.0,3.5245113340206444,,,,,,sub-021,1,random_dot,120.16378319664408,
left,left,38.0,0.0,19.0,left,1.0,3.826955042022746,,accuracy,space,3.893546375038568,,,,,,0.0,1.0,1.0,0.0,19.0,0.0,38.0,0.0,628.3179189999937,,,,,,,,,628.310497791972,628.4085505420226,629.2010852500098,629.1916010829736,629.1921912920079,629.2010852500098,629.2010852500098,629.2010852500098,,633.0360163329751,,,,,,,,,,,,,,,,,,,,,,,,,,,,,,left,1.0,3.826955042022746,,,,,,sub-021,1,random_dot,120.16378319664408,
right,right,39.0,1.0,19.0,right,1.0,5.437708084005863,,accuracy,space,3.893546375038568,,,,,,0.0,1.0,1.0,0.0,19.0,1.0,39.0,1.0,633.0429692079779,,,,,,,,,633.0365242919652,633.1349254999659,633.9272127500153,633.9187231250107,633.9193395830225,633.9272127500153,633.9272127500153,633.9272127500153,638.9058677079738,639.3700378329959,,,,,,,,,,,,,,,,,,,,,,,,,,,,,,right,1.0,5.437708084005863,,,,,,sub-021,1,random_dot,120.16378319664408,
left,left,40.0,0.0,20.0,left,1.0,5.406187292013783,,accuracy,space,3.893546375038568,,,,,,0.0,1.0,1.0,0.0,20.0,0.0,40.0,0.0,639.3794499170035,,,,,,,,,639.3706547080074,640.5683834169758,641.3607174999779,641.3522932920023,641.352904542,641.3607174999779,641.3607174999779,641.3607174999779,646.3406353750033,646.770381667011,,,,,,,,,,,,,,,,,,,,,,,,,,,,,,left,1.0,5.406187292013783,,,,,,sub-021,1,random_dot,120.16378319664408,
right,right,41.0,1.0,20.0,left,0.0,4.401697999972384,,accuracy,space,3.893546375038568,,,,,,0.0,1.0,1.0,0.0,20.0,1.0,41.0,1.0,646.7804314169916,,,,,,,,,646.7712362500024,647.9685114999884,648.7617918329779,648.7526518329978,648.7533672919963,648.7617918329779,648.7617918329779,648.7617918329779,,653.169875541993,,,,,,,,,,,,,,,,,,,,,,,,,,,,,,left,0.0,4.401697999972384,,,,,,sub-021,1,random_dot,120.16378319664408,
right,right,42.0,0.0,21.0,left,0.0,3.1637011250131764,,accuracy,space,3.893546375038568,,,,,,0.0,1.0,1.0,0.0,21.0,0.0,42.0,1.0,653.1767267920077,,,,,,,,,653.1704067920218,653.5090658330009,654.3021769999759,654.2919973749667,654.2926885419874,654.3021769999759,654.3021769999759,654.3021769999759,,657.46985545801,,,,,,,,,,,,,,,,,,,,,,,,,,,,,,left,0.0,3.1637011250131764,,,,,,sub-021,1,random_dot,120.16378319664408,
left,left,43.0,1.0,21.0,left,1.0,2.906492626003456,,accuracy,space,3.893546375038568,,,,,,0.0,1.0,1.0,0.0,21.0,1.0,43.0,0.0,657.4772097920068,,,,,,,,,657.4703672080068,657.5591999170138,658.3604682500008,658.3527004579664,658.3532567499788,658.3604682500008,658.3604682500008,658.3604682500008,,661.2702495830017,,,,,,,,,,,,,,,,,,,,,,,,,,,,,,left,1.0,2.906492626003456,,,,,,sub-021,1,random_dot,120.16378319664408,
right,right,44.0,0.0,22.0,left,0.0,5.46845087595284,,accuracy,space,3.893546375038568,,,,,,0.0,1.0,1.0,0.0,22.0,0.0,44.0,1.0,661.275392999989,,,,,,,,,661.2707365420065,662.459362457972,663.252146957966,663.2422880830127,663.2428461670061,663.252146957966,663.252146957966,663.252146957966,668.2360853329883,668.7277262919815,,,,,,,,,,,,,,,,,,,,,,,,,,,,,,left,0.0,5.46845087595284,,,,,,sub-021,1,random_dot,120.16378319664408,
left,left,45.0,1.0,22.0,left,1.0,3.3950197499943897,,accuracy,space,3.893546375038568,,,,,,0.0,1.0,1.0,0.0,22.0,1.0,45.0,0.0,668.7349242920172,,,,,,,,,668.7283040420152,669.0763732499909,669.8691241670167,669.8590537499986,669.8596905000159,669.8691241670167,669.8691241670167,669.8691241670167,,673.2708123329794,,,,,,,,,,,,,,,,,,,,,,,,,,,,,,left,1.0,3.3950197499943897,,,,,,sub-021,1,random_dot,120.16378319664408,
left,left,46.0,0.0,23.0,left,1.0,4.374310958955903,,accuracy,space,3.893546375038568,,,,,,0.0,1.0,1.0,0.0,23.0,0.0,46.0,0.0,673.2793151250225,,,,,,,,,673.2713242919999,674.4602592919837,675.2519355000113,675.2432857499807,675.2439397919807,675.2519355000113,675.2519355000113,675.2519355000113,,679.6288103749976,,,,,,,,,,,,,,,,,,,,,,,,,,,,,,left,1.0,4.374310958955903,,,,,,sub-021,1,random_dot,120.16378319664408,
right,right,47.0,1.0,23.0,left,0.0,2.6869783339789137,,accuracy,space,3.893546375038568,,,,,,0.0,1.0,1.0,0.0,23.0,1.0,47.0,1.0,679.6361837079749,,,,,,,,,679.629325249989,679.7267434169771,680.5194580829702,680.5099251249922,680.5105593330227,680.5194580829702,680.5194580829702,680.5194580829702,,683.2108908329974,,,,,,,,,,,,,,,,,,,,,,,,,,,,,,left,0.0,2.6869783339789137,,,,,,sub-021,1,random_dot,120.16378319664408,
left,left,48.0,0.0,24.0,right,0.0,1.8541296260082163,,accuracy,space,3.893546375038568,,,,,,0.0,1.0,1.0,0.0,24.0,0.0,48.0,0.0,683.2198396250024,,,,,,,,,683.2112804169883,683.3114781670156,684.1122779580182,684.1040834999876,684.1046968330047,684.1122779580182,684.1122779580182,684.1122779580182,,685.9711093750084,,,,,,,,,,,,,,,,,,,,,,,,,,,,,,right,0.0,1.8541296260082163,,,,,,sub-021,1,random_dot,120.16378319664408,
right,right,49.0,1.0,24.0,right,1.0,6.759875499992631,,accuracy,space,3.893546375038568,,,,,,0.0,1.0,1.0,0.0,24.0,1.0,49.0,1.0,685.979118749965,,,,,,,,,685.9716247079778,687.1599054170074,687.9530667919898,687.9431937920162,687.9437659580144,687.9530667919898,687.9530667919898,687.9530667919898,692.9369627920096,694.7221057499992,,,,,,,,,,,,,,,,,,,,,,,,,,,,,,right,1.0,6.759875499992631,,,,,,sub-021,1,random_dot,120.16378319664408,
left,left,50.0,0.0,25.0,right,0.0,4.329459542001132,,accuracy,space,3.893546375038568,,,,,,0.0,1.0,1.0,0.0,25.0,0.0,50.0,0.0,694.7371147499653,,,,,,,,,694.7225907499669,694.8207764580147,695.6119827919756,695.6041483330191,695.60467362497,695.6119827919756,695.6119827919756,695.6119827919756,,699.9449296249659,,,,,,,,,,,,,,,,,,,,,,,,,,,,,,right,0.0,4.329459542001132,,,,,,sub-021,1,random_dot,120.16378319664408,
right,right,51.0,1.0,25.0,left,0.0,4.121735792024992,,accuracy,space,3.893546375038568,,,,,,0.0,1.0,1.0,0.0,25.0,1.0,51.0,1.0,699.9539863750106,,,,,,,,,699.9454249169794,701.1452178750187,701.9460716670146,701.9378768749884,701.9384712079773,701.9460716670146,701.9460716670146,701.9460716670146,,706.0718427919783,,,,,,,,,,,,,,,,,,,,,,,,,,,,,,left,0.0,4.121735792024992,,,,,,sub-021,1,random_dot,120.16378319664408,
left,left,52.0,0.0,26.0,left,1.0,5.551603458006866,,accuracy,space,3.893546375038568,,,,,,0.0,1.0,1.0,0.0,26.0,0.0,52.0,0.0,706.0789285000064,,,,,,,,,706.0723531669937,706.4112068329705,707.2037339999806,707.194156499987,707.1947354580043,707.2037339999806,707.2037339999806,707.2037339999806,712.1879154170165,712.7616738330107,,,,,,,,,,,,,,,,,,,,,,,,,,,,,,left,1.0,5.551603458006866,,,,,,sub-021,1,random_dot,120.16378319664408,
right,right,53.0,1.0,26.0,left,0.0,1.3101751260110177,,accuracy,space,3.893546375038568,,,,,,0.0,1.0,1.0,0.0,26.0,1.0,53.0,1.0,712.7710810829885,,,,,,,,,712.76221299998,713.1122979170177,713.9131885420065,713.9050257079653,713.9056104170159,713.9131885420065,713.9131885420065,713.9131885420065,,715.2292745829909,,,,,,,,,,,,,,,,,,,,,,,,,,,,,,left,0.0,1.3101751260110177,,,,,,sub-021,1,random_dot,120.16378319664408,
right,right,54.0,0.0,27.0,left,0.0,5.539086125034373,,accuracy,space,3.893546375038568,,,,,,0.0,1.0,1.0,0.0,27.0,0.0,54.0,1.0,715.2369224170106,,,,,,,,,715.2297359579825,715.3279906670214,716.1299207920092,716.1217705419986,716.1223382499884,716.1299207920092,716.1299207920092,716.1299207920092,721.1103526250226,721.6730492080096,,,,,,,,,,,,,,,,,,,,,,,,,,,,,,left,0.0,5.539086125034373,,,,,,sub-021,1,random_dot,120.16378319664408,
left,left,55.0,1.0,27.0,left,1.0,3.191155084001366,,accuracy,space,3.893546375038568,,,,,,0.0,1.0,1.0,0.0,27.0,1.0,55.0,0.0,721.6833022499923,,,,,,,,,721.673772707989,722.0214649579721,722.8140432079672,722.8053662080201,722.8060122919851,722.8140432079672,722.8140432079672,722.8140432079672,,726.0133938749786,,,,,,,,,,,,,,,,,,,,,,,,,,,,,,left,1.0,3.191155084001366,,,,,,sub-021,1,random_dot,120.16378319664408,
left,left,56.0,0.0,28.0,left,1.0,3.9580663749948144,,accuracy,space,3.893546375038568,,,,,,0.0,1.0,1.0,0.0,28.0,0.0,56.0,0.0,726.0212251669727,,,,,,,,,726.013870958006,727.2117376669776,728.0045822079992,727.9950266249944,727.9955999170197,728.0045822079992,728.0045822079992,728.0045822079992,,731.9728096249746,,,,,,,,,,,,,,,,,,,,,,,,,,,,,,left,1.0,3.9580663749948144,,,,,,sub-021,1,random_dot,120.16378319664408,
right,right,57.0,1.0,28.0,left,0.0,3.4321430420386605,,accuracy,space,3.893546375038568,,,,,,0.0,1.0,1.0,0.0,28.0,1.0,57.0,1.0,731.9821884999983,,,,,,,,,731.9733692919835,732.0616818749695,732.8540735829738,732.8455070420168,732.8461317080073,732.8540735829738,732.8540735829738,732.8540735829738,,736.2897747079842,,,,,,,,,,,,,,,,,,,,,,,,,,,,,,left,0.0,3.4321430420386605,,,,,,sub-021,1,random_dot,120.16378319664408,
right,right,58.0,0.0,29.0,left,0.0,5.484784792002756,,accuracy,space,3.893546375038568,,,,,,0.0,1.0,1.0,0.0,29.0,0.0,58.0,1.0,736.297148542013,,,,,,,,,736.2902917920146,736.6292243750067,737.4318152919877,737.4227454579668,737.4235219999682,737.4318152919877,737.4318152919877,737.4318152919877,742.4109527500113,742.923680250009,,,,,,,,,,,,,,,,,,,,,,,,,,,,,,left,0.0,5.484784792002756,,,,,,sub-021,1,random_dot,120.16378319664408,
left,left,59.0,1.0,29.0,left,1.0,2.6832447919878177,,accuracy,space,3.893546375038568,,,,,,0.0,1.0,1.0,0.0,29.0,1.0,59.0,0.0,742.9333987080026,,,,,,,,,742.9242199999862,743.7222872499842,744.5148594169877,744.5062058750191,744.506925499998,744.5148594169877,744.5148594169877,744.5148594169877,,747.2066846669768,,,,,,,,,,,,,,,,,,,,,,,,,,,,,,left,1.0,2.6832447919878177,,,,,,sub-021,1,random_dot,120.16378319664408,
,,1.0,1.0,0.0,,,,,accuracy,space,3.893546375038568,,,,,,0.0,1.0,1.0,0.0,,,,,,,,,,,,,,,,,,,,,,,,,,,,,,,,,,,,,,,,,,,,,,,,,,,,,,,,,,,,,sub-021,1,random_dot,120.16378319664408,
,,,,,,,,,,,,,,,,,,,,,,,,,,,,,,,,,,,,,,,,,,,,,,,,,,,,,,,,,,,,,,,,,,,,,,,,,,,,,747.2113716250169,747.2185310000204,752.2111959580216,752.2065139170154,sub-021,1,random_dot,120.16378319664408,
