wordCTK,colorCTK,corrAnsCTK,congruentCTK,thisN,thisTrialN,thisRepN,keyResp_CTK.keys,keyResp_CTK.corr,keyResp_CTK.rt,keyResp_CTK.duration,wordPractice,colorPractice,corrAnsPractice,congruentPractice,respPractice.keys,respPractice.corr,respPractice.rt,respPractice.duration,word,color,corrAns,congruent,keyResp_test_run.keys,keyResp_test_run.corr,keyResp_test_run.rt,keyResp_test_run.duration,trials_CTK.thisRepN,trials_CTK.thisTrialN,trials_CTK.thisN,trials_CTK.thisIndex,trials_practice.thisRepN,trials_practice.thisTrialN,trials_practice.thisN,trials_practice.thisIndex,trials_test.thisRepN,trials_test.thisTrialN,trials_test.thisN,trials_test.thisIndex,thisRow.t,notes,instruction.started,instr_text.started,instr_image.started,instr_resp.started,instruction.stopped,instr_resp.keys,instr_resp.rt,instr_resp.duration,instr_color_to_key.started,instr_ctk.started,resp_ctk.started,instr_color_to_key.stopped,resp_ctk.keys,resp_ctk.rt,resp_ctk.duration,ITI.started,fixcross.started,fixcross.stopped,ITI.stopped,color_to_key_run.started,stimulus_CTK.started,keyResp_CTK.started,color_to_key_run.stopped,trials_CTK.keyResp_CTK.keys,trials_CTK.keyResp_CTK.corr,trials_CTK.keyResp_CTK.rt,trials_CTK.keyResp_CTK.duration,instr_practice.started,instr_practice_text.started,instr_practice_resp.started,instr_practice.stopped,instr_practice_resp.keys,instr_practice_resp.rt,instr_practice_resp.duration,practice_run.started,stimulus_practice.started,respPractice.started,practice_run.stopped,trials_practice.respPractice.keys,trials_practice.respPractice.corr,trials_practice.respPractice.rt,trials_practice.respPractice.duration,feedback.started,textFeedback.started,textFeedback.stopped,feedback.stopped,instr_test.started,instr_test_text.started,instr_test_resp.started,instr_test.stopped,instr_test_resp.keys,instr_test_resp.rt,instr_test_resp.duration,test_run.started,stimulus_test_run.started,keyResp_test_run.started,test_run.stopped,trials_test.keyResp_test_run.keys,trials_test.keyResp_test_run.corr,trials_test.keyResp_test_run.rt,trials_test.keyResp_test_run.duration,goodbye.started,textGoodbye.started,textGoodbye.stopped,goodbye.stopped,participant,session,expName,frameRate,Unnamed: 113
,,,,,,,,,,,,,,,,,,,,,,,,,,,,,,,,,,,,,,,,,0.016358726999897,0.0317433829986839,0.0317433829986839,0.0317433829986839,52.984919859,space,52.951230081000176,,,,,,,,,,,,,,,,,,,,,,,,,,,,,,,,,,,,,,,,,,,,,,,,,,,,,,,,,,,sub-150,1,stroop_test,,
,,,,,,,,,,,,,,,,,,,,,,,,,,,,,,,,,,,,,,,,,,,,,,,,,52.9849818849998,52.99296719300037,52.99296719300037,61.03430680800011,space,8.039425340999514,,,,,,,,,,,,,,,,,,,,,,,,,,,,,,,,,,,,,,,,,,,,,,,,,,,,sub-150,1,stroop_test,,
test,red,r,1.0,0.0,0.0,0.0,r,1.0,3.681460015999619,,,,,,,,,,,,,,,,,,0.0,0.0,0.0,0.0,,,,,,,,,61.05159329399976,,,,,,,,,,,,,,,,,61.04126719499982,61.83333134299937,62.62448840399884,62.61685704299998,62.61935733499922,62.62448840399884,62.62448840399884,66.31818448099875,r,1.0,3.681460015999619,,,,,,,,,,,,,,,,,,,,,,,,,,,,,,,,,,,,,,,,sub-150,1,stroop_test,,
test,blue,b,1.0,1.0,1.0,0.0,b,1.0,0.992872479999278,,,,,,,,,,,,,,,,,,0.0,1.0,1.0,2.0,,,,,,,,,66.32409617399935,,,,,,,,,,,,,,,,,66.31839429699903,66.4168711379989,67.2055759019986,67.20047422799871,67.20075923900004,67.2055759019986,67.2055759019986,68.20110600699991,b,1.0,0.992872479999278,,,,,,,,,,,,,,,,,,,,,,,,,,,,,,,,,,,,,,,,sub-150,1,stroop_test,,
test,yellow,g,1.0,2.0,2.0,0.0,g,1.0,0.3484328470003675,,,,,,,,,,,,,,,,,,0.0,2.0,2.0,1.0,,,,,,,,,68.20682270699945,,,,,,,,,,,,,,,,,68.20130360599978,68.55008950499905,69.33907467999961,69.33385825499863,69.33419200299977,69.33907467999961,69.33907467999961,69.69144403499922,g,1.0,0.3484328470003675,,,,,,,,,,,,,,,,,,,,,,,,,,,,,,,,,,,,,,,,sub-150,1,stroop_test,,
test,blue,b,1.0,3.0,0.0,1.0,b,1.0,0.862185619000229,,,,,,,,,,,,,,,,,,1.0,0.0,3.0,2.0,,,,,,,,,69.70028818599894,,,,,,,,,,,,,,,,,69.69171277299938,70.48800773999938,71.28373227299926,71.27292282399867,71.27339946999928,71.28373227299926,71.28373227299926,72.1518900029987,b,1.0,0.862185619000229,,,,,,,,,,,,,,,,,,,,,,,,,,,,,,,,,,,,,,,,sub-150,1,stroop_test,,
test,yellow,g,1.0,4.0,1.0,1.0,g,1.0,0.5655833889995847,,,,,,,,,,,,,,,,,,1.0,1.0,4.0,1.0,,,,,,,,,72.15854918699915,,,,,,,,,,,,,,,,,72.15218229499988,72.25038781100011,73.0403792069992,73.03436953799974,73.03486366799916,73.0403792069992,73.0403792069992,73.6074854139988,g,1.0,0.5655833889995847,,,,,,,,,,,,,,,,,,,,,,,,,,,,,,,,,,,,,,,,sub-150,1,stroop_test,,
test,red,r,1.0,5.0,2.0,1.0,r,1.0,0.2778838489994086,,,,,,,,,,,,,,,,,,1.0,2.0,5.0,0.0,,,,,,,,,73.61696716799997,,,,,,,,,,,,,,,,,73.60774249499991,74.40556487199865,75.20053840699984,75.18958991399995,75.19007531199895,75.20053840699984,75.20053840699984,75.48522723099995,r,1.0,0.2778838489994086,,,,,,,,,,,,,,,,,,,,,,,,,,,,,,,,,,,,,,,,sub-150,1,stroop_test,,
test,yellow,g,1.0,6.0,0.0,2.0,g,1.0,1.380018335999921,,,,,,,,,,,,,,,,,,2.0,0.0,6.0,1.0,,,,,,,,,75.49182746800034,,,,,,,,,,,,,,,,,75.48551494200001,76.28381381999861,77.07469035000031,77.06820593599878,77.0686878059987,77.07469035000031,77.07469035000031,78.45742013499876,g,1.0,1.380018335999921,,,,,,,,,,,,,,,,,,,,,,,,,,,,,,,,,,,,,,,,sub-150,1,stroop_test,,
test,red,r,1.0,7.0,1.0,2.0,r,1.0,0.7506882340003358,,,,,,,,,,,,,,,,,,2.0,1.0,7.0,0.0,,,,,,,,,78.46706464899944,,,,,,,,,,,,,,,,,78.45767581299879,78.55588251599875,79.350550526,79.33990335599992,79.34038872800011,79.350550526,79.350550526,80.10731752999891,r,1.0,0.7506882340003358,,,,,,,,,,,,,,,,,,,,,,,,,,,,,,,,,,,,,,,,sub-150,1,stroop_test,,
test,blue,b,1.0,8.0,2.0,2.0,b,1.0,0.3453609200005303,,,,,,,,,,,,,,,,,,2.0,2.0,8.0,2.0,,,,,,,,,80.11723608699867,,,,,,,,,,,,,,,,,80.10759126899939,80.20588366399897,81.00048547499864,80.98965908199898,80.99013589399874,81.00048547499864,81.00048547499864,81.35190154500015,b,1.0,0.3453609200005303,,,,,,,,,,,,,,,,,,,,,,,,,,,,,,,,,,,,,,,,sub-150,1,stroop_test,,
test,yellow,g,1.0,9.0,0.0,3.0,g,1.0,0.4250250299992331,,,,,,,,,,,,,,,,,,3.0,0.0,9.0,1.0,,,,,,,,,81.35830798699862,,,,,,,,,,,,,,,,,81.35216811600003,82.15053323999928,82.94118076099949,82.93465584299884,82.93514174499978,82.94118076099949,82.94118076099949,83.3685718809993,g,1.0,0.4250250299992331,,,,,,,,,,,,,,,,,,,,,,,,,,,,,,,,,,,,,,,,sub-150,1,stroop_test,,
test,blue,b,1.0,10.0,1.0,3.0,b,1.0,0.429196277000301,,,,,,,,,,,,,,,,,,3.0,1.0,10.0,2.0,,,,,,,,,83.37506557199958,,,,,,,,,,,,,,,,,83.36884587599889,84.56720931599921,85.35775982099949,85.35117727599936,85.35165811299885,85.35775982099949,85.35775982099949,85.79033978799998,b,1.0,0.429196277000301,,,,,,,,,,,,,,,,,,,,,,,,,,,,,,,,,,,,,,,,sub-150,1,stroop_test,,
test,red,r,1.0,11.0,2.0,3.0,r,1.0,0.4264298449998023,,,,,,,,,,,,,,,,,,3.0,2.0,11.0,0.0,,,,,,,,,85.80050030100028,,,,,,,,,,,,,,,,,85.79054954399908,86.58903997999914,87.38385620000008,87.37327483199988,87.37374936999913,87.38385620000008,87.38385620000008,87.81868595199921,r,1.0,0.4264298449998023,,,,,,,,,,,,,,,,,,,,,,,,,,,,,,,,,,,,,,,,sub-150,1,stroop_test,,
,,,,,,,,,,,,,,,,,,,,,,,,,,,,,,,,,,,,,,,,,,,,,,,,,,,,,,,,,,,,,,,,,,,,87.81881829399936,87.82653962400036,87.82653962400036,93.58561055899918,space,5.749307406998923,,,,,,,,,,,,,,,,,,,,,,,,,,,,,,,,,sub-150,1,stroop_test,,
,,,,0.0,0.0,0.0,,,,,blau,yellow,g,0.0,b,0.0,0.6061512289998063,,,,,,,,,,,,,,0.0,0.0,0.0,7.0,,,,,93.6035322759999,,,,,,,,,,,,,,,,,93.59538389299996,93.68390815899876,94.47795011000017,94.46787979299916,,,,,,,,,,,,,,,,94.47205166099955,94.47795011000017,94.47795011000017,95.08606802199938,b,0.0,0.6061512289998063,,95.09055720299877,95.09890496299886,96.08959126599984,96.08447872099896,,,,,,,,,,,,,,,,,,,,sub-150,1,stroop_test,,
,,,,1.0,1.0,0.0,,,,,blau,blue,b,1.0,b,1.0,1.0128679660010675,,,,,,,,,,,,,,0.0,1.0,1.0,5.0,,,,,96.08959126599984,,,,,,,,,,,,,,,,,96.08477696299995,96.4339466579986,97.22462742799873,97.21802010899955,,,,,,,,,,,,,,,,97.2185011169986,97.22462742799873,97.22462742799873,98.24114060899956,b,1.0,1.0128679660010675,,98.2452100999999,98.2531089109998,99.25061377099884,99.23958667599982,,,,,,,,,,,,,,,,,,,,sub-150,1,stroop_test,,
,,,,2.0,2.0,0.0,,,,,gelb,red,r,0.0,r,1.0,1.7044165989991598,,,,,,,,,,,,,,0.0,2.0,2.0,8.0,,,,,99.25061377099884,,,,,,,,,,,,,,,,,99.23990226299976,100.43926684299912,101.23377292999976,101.2233312569988,,,,,,,,,,,,,,,,101.22624648099918,101.23377292999976,101.23377292999976,102.9413504259992,r,1.0,1.7044165989991598,,102.94176772799985,102.95054436600005,103.93972173899964,103.93456961999982,,,,,,,,,,,,,,,,,,,,sub-150,1,stroop_test,,
,,,,3.0,3.0,0.0,,,,,blau,red,r,0.0,r,1.0,1.169160182998894,,,,,,,,,,,,,,0.0,3.0,3.0,4.0,,,,,103.93972173899964,,,,,,,,,,,,,,,,,103.93489092100026,104.28913038700011,105.08386073600012,105.07290066199856,,,,,,,,,,,,,,,,105.07539062899924,105.08386073600012,105.08386073600012,106.25841296199906,r,1.0,1.169160182998894,,106.25893152599927,106.26728951599944,107.2565480510002,107.25128067599871,,,,,,,,,,,,,,,,,,,,sub-150,1,stroop_test,,
,,,,4.0,4.0,0.0,,,,,blau,blue,b,1.0,b,1.0,0.4796562809988245,,,,,,,,,,,,,,0.0,4.0,4.0,6.0,,,,,107.2565480510002,,,,,,,,,,,,,,,,,107.25160463300016,108.05592505799903,108.8506063299992,108.83999418599888,,,,,,,,,,,,,,,,108.84048149199953,108.8506063299992,108.8506063299992,109.335332957,b,1.0,0.4796562809988245,,109.33575331499924,109.34320963999926,110.33980826599873,110.3346133369996,,,,,,,,,,,,,,,,,,,,sub-150,1,stroop_test,,
,,,,5.0,5.0,0.0,,,,,rot,red,r,1.0,r,1.0,0.7780271339997853,,,,,,,,,,,,,,0.0,5.0,5.0,1.0,,,,,110.33980826599873,,,,,,,,,,,,,,,,,110.33493350800018,110.43396529799976,111.22813318999944,111.217966831,,,,,,,,,,,,,,,,111.22159117599948,111.22813318999944,111.22813318999944,112.0078162539994,r,1.0,0.7780271339997853,,112.00818565099873,112.01711026900011,113.00668867700006,113.00131144199986,,,,,,,,,,,,,,,,,,,,sub-150,1,stroop_test,,
,,,,6.0,6.0,0.0,,,,,rot,red,r,1.0,r,1.0,0.4927038620007806,,,,,,,,,,,,,,0.0,6.0,6.0,0.0,,,,,113.00668867700006,,,,,,,,,,,,,,,,,113.00163497799986,113.80589049799892,114.60066462400027,114.58974379899882,,,,,,,,,,,,,,,,114.59023000799972,114.60066462400027,114.60066462400027,115.10268217699922,r,1.0,0.4927038620007806,,115.1031989309995,115.1108031120002,116.10683073899963,116.10143747099936,,,,,,,,,,,,,,,,,,,,sub-150,1,stroop_test,,
,,,,7.0,7.0,0.0,,,,,gelb,yellow,g,1.0,g,1.0,0.2936662140000408,,,,,,,,,,,,,,0.0,7.0,7.0,11.0,,,,,116.10683073899963,,,,,,,,,,,,,,,,,116.10177923899936,116.90066053400004,117.694807853999,117.68461219799974,,,,,,,,,,,,,,,,117.68753288699918,117.694807853999,117.694807853999,117.99111928599996,g,1.0,0.2936662140000408,,117.99152992199924,118.00050761799866,118.98963633699896,118.98461871299878,,,,,,,,,,,,,,,,,,,,sub-150,1,stroop_test,,
,,,,8.0,8.0,0.0,,,,,rot,blue,b,0.0,b,1.0,0.301665012999365,,,,,,,,,,,,,,0.0,8.0,8.0,2.0,,,,,118.98963633699896,,,,,,,,,,,,,,,,,118.9849414499986,119.33935444899907,120.13377421800033,120.123160748999,,,,,,,,,,,,,,,,120.12600057899908,120.13377421800033,120.13377421800033,120.44068719799908,b,1.0,0.301665012999365,,120.4410935220003,120.4504927449998,121.4397896649989,121.4346567679986,,,,,,,,,,,,,,,,,,,,sub-150,1,stroop_test,,
,,,,9.0,9.0,0.0,,,,,gelb,yellow,g,1.0,g,1.0,0.4828456470004312,,,,,,,,,,,,,,0.0,9.0,9.0,10.0,,,,,121.4397896649989,,,,,,,,,,,,,,,,,121.43498280499988,121.78937074299938,122.58383970399882,122.57305212899882,,,,,,,,,,,,,,,,122.5759848809994,122.58383970399882,122.58383970399882,123.06874473599964,g,1.0,0.4828456470004312,,123.06911362199936,123.07600000799904,124.07334636700034,124.06811752199974,,,,,,,,,,,,,,,,,,,,sub-150,1,stroop_test,,
,,,,10.0,10.0,0.0,,,,,rot,yellow,g,0.0,g,1.0,0.4348068910003348,,,,,,,,,,,,,,0.0,10.0,10.0,3.0,,,,,124.07334636700034,,,,,,,,,,,,,,,,,124.06844153499878,124.16739485699873,124.96130285599976,124.95160208199924,,,,,,,,,,,,,,,,124.95476330499878,124.96130285599976,124.96130285599976,125.40199064399894,g,1.0,0.4348068910003348,,125.40240610099865,125.40969142599896,126.40678458299952,126.40139253099916,,,,,,,,,,,,,,,,,,,,sub-150,1,stroop_test,,
,,,,11.0,11.0,0.0,,,,,gelb,blue,b,0.0,b,1.0,1.080595137000273,,,,,,,,,,,,,,0.0,11.0,11.0,9.0,,,,,126.40678458299952,,,,,,,,,,,,,,,,,126.40171597100016,126.5006585279989,127.29486566800006,127.28484203199878,,,,,,,,,,,,,,,,127.28777955499936,127.29486566800006,127.29486566800006,128.3859611989992,b,1.0,1.080595137000273,,128.38646727099876,128.39407581199885,129.3897520270002,129.38474723699983,,,,,,,,,,,,,,,,,,,,sub-150,1,stroop_test,,
,,,,12.0,0.0,1.0,,,,,rot,red,r,1.0,r,1.0,0.498867918000542,,,,,,,,,,,,,,1.0,0.0,12.0,1.0,,,,,129.3897520270002,,,,,,,,,,,,,,,,,129.38508721799917,129.48411560000022,130.27793978699992,130.26801956899908,,,,,,,,,,,,,,,,130.2713070789996,130.27793978699992,130.27793978699992,130.78593011199882,r,1.0,0.498867918000542,,130.78644848099975,130.7942669189997,131.78962080699966,131.78466400300022,,,,,,,,,,,,,,,,,,,,sub-150,1,stroop_test,,
,,,,13.0,1.0,1.0,,,,,rot,blue,b,0.0,b,1.0,0.4598759339987737,,,,,,,,,,,,,,1.0,1.0,13.0,2.0,,,,,131.78962080699966,,,,,,,,,,,,,,,,,131.78498986799968,132.58405594299984,133.37474630399993,133.3680962489998,,,,,,,,,,,,,,,,133.36858380400008,133.37474630399993,133.37474630399993,133.84287311799926,b,1.0,0.4598759339987737,,133.84325396900022,133.8506889170003,134.84014357199885,134.83488120199945,,,,,,,,,,,,,,,,,,,,sub-150,1,stroop_test,,
,,,,14.0,2.0,1.0,,,,,blau,blue,b,1.0,b,1.0,0.4872562239997933,,,,,,,,,,,,,,1.0,2.0,14.0,6.0,,,,,134.84014357199885,,,,,,,,,,,,,,,,,134.83520007699917,135.63936087399998,136.43400485999882,136.42333823899935,,,,,,,,,,,,,,,,136.42598400799943,136.43400485999882,136.43400485999882,136.92442940900037,b,1.0,0.4872562239997933,,136.92484580400014,136.9340191149986,137.92323047100035,137.9180315779995,,,,,,,,,,,,,,,,,,,,sub-150,1,stroop_test,,
,,,,15.0,3.0,1.0,,,,,rot,red,r,1.0,r,1.0,0.3561836919998313,,,,,,,,,,,,,,1.0,3.0,15.0,0.0,,,,,137.92323047100035,,,,,,,,,,,,,,,,,137.9183675639997,138.27264885899967,139.0673435640001,139.0566038479992,,,,,,,,,,,,,,,,139.05936479699994,139.0673435640001,139.0673435640001,139.43510160699952,r,1.0,0.3561836919998313,,139.43553812699977,139.4414026279992,140.43992120999974,140.43467156099905,,,,,,,,,,,,,,,,,,,,sub-150,1,stroop_test,,
,,,,16.0,4.0,1.0,,,,,gelb,yellow,g,1.0,g,1.0,0.468930012999408,,,,,,,,,,,,,,1.0,4.0,16.0,11.0,,,,,140.43992120999974,,,,,,,,,,,,,,,,,140.43499490999966,140.53406387299947,141.32861331399909,141.3180673199986,,,,,,,,,,,,,,,,141.3222308379991,141.32861331399909,141.32861331399909,141.8021891139997,g,1.0,0.468930012999408,,141.802602931999,141.80975471499914,142.8066501659996,142.8014570439991,,,,,,,,,,,,,,,,,,,,sub-150,1,stroop_test,,
,,,,17.0,5.0,1.0,,,,,blau,blue,b,1.0,b,1.0,0.3154825490000803,,,,,,,,,,,,,,1.0,5.0,17.0,5.0,,,,,142.8066501659996,,,,,,,,,,,,,,,,,142.80178280399923,142.90080264300013,143.69366547999925,143.68476172400003,,,,,,,,,,,,,,,,143.68724737199955,143.69366547999925,143.69366547999925,144.01929375799955,b,1.0,0.3154825490000803,,144.01971961100026,144.02709968199997,145.0234688370001,145.01825032299894,,,,,,,,,,,,,,,,,,,,sub-150,1,stroop_test,,
,,,,18.0,6.0,1.0,,,,,gelb,blue,b,0.0,b,1.0,0.3130896499988012,,,,,,,,,,,,,,1.0,6.0,18.0,9.0,,,,,145.0234688370001,,,,,,,,,,,,,,,,,145.01857207099965,145.11754109100002,145.91113955199944,145.90146088300023,,,,,,,,,,,,,,,,145.90423393399942,145.91113955199944,145.91113955199944,146.2358313320001,b,1.0,0.3130896499988012,,146.23626331099877,146.24387918499997,147.24006455000017,147.23491769999964,,,,,,,,,,,,,,,,,,,,sub-150,1,stroop_test,,
,,,,19.0,7.0,1.0,,,,,blau,yellow,g,0.0,g,1.0,0.2737564660001226,,,,,,,,,,,,,,1.0,7.0,19.0,7.0,,,,,147.24006455000017,,,,,,,,,,,,,,,,,147.23524508599985,148.03414187999988,148.82705925799928,148.81839643899912,,,,,,,,,,,,,,,,148.82089800599897,148.82705925799928,148.82705925799928,149.10258834999877,g,1.0,0.2737564660001226,,149.10300833899964,149.1103255199996,150.10656450699935,150.10147736599902,,,,,,,,,,,,,,,,,,,,sub-150,1,stroop_test,,
,,,,20.0,8.0,1.0,,,,,blau,red,r,0.0,r,1.0,0.3046574460004194,,,,,,,,,,,,,,1.0,8.0,20.0,4.0,,,,,150.10656450699935,,,,,,,,,,,,,,,,,150.10180108900022,150.20088174099874,150.9915428229997,150.98495814799935,,,,,,,,,,,,,,,,150.9854405119986,150.9915428229997,150.9915428229997,151.30237719999968,r,1.0,0.3046574460004194,,151.30279524599973,151.3100634019993,152.3066650769997,152.3016090379988,,,,,,,,,,,,,,,,,,,,sub-150,1,stroop_test,,
,,,,21.0,9.0,1.0,,,,,gelb,red,r,0.0,r,1.0,0.301474378000421,,,,,,,,,,,,,,1.0,9.0,21.0,8.0,,,,,152.3066650769997,,,,,,,,,,,,,,,,,152.30193119499927,152.4009482679994,153.19493408299968,153.18486327999926,,,,,,,,,,,,,,,,153.18817140699866,153.19493408299968,153.19493408299968,153.50267725399863,r,1.0,0.301474378000421,,153.50309881799876,153.51053250199948,154.50659172999983,154.5016600199997,,,,,,,,,,,,,,,,,,,,sub-150,1,stroop_test,,
,,,,22.0,10.0,1.0,,,,,gelb,yellow,g,1.0,g,1.0,0.2840198800004145,,,,,,,,,,,,,,1.0,10.0,22.0,10.0,,,,,154.50659172999983,,,,,,,,,,,,,,,,,154.50200257799952,154.60084672599987,155.39131139500023,155.384821955,,,,,,,,,,,,,,,,155.38530675899892,155.39131139500023,155.39131139500023,155.6855221099995,g,1.0,0.2840198800004145,,155.68595137699958,155.69310175600003,156.690161823999,156.68495792199974,,,,,,,,,,,,,,,,,,,,sub-150,1,stroop_test,,
,,,,23.0,11.0,1.0,,,,,rot,yellow,g,0.0,g,1.0,0.5186492329994508,,,,,,,,,,,,,,1.0,11.0,23.0,3.0,,,,,156.690161823999,,,,,,,,,,,,,,,,,156.68527847599944,157.0341864330003,157.8275986159988,157.81814978299917,,,,,,,,,,,,,,,,157.82113793999997,157.8275986159988,157.8275986159988,158.35275266299868,g,1.0,0.5186492329994508,,158.35327463199974,158.36085241599903,159.35872658199878,159.3516013999997,,,,,,,,,,,,,,,,,,,,sub-150,1,stroop_test,,
,,,,,,,,,,,,,,,,,,,,,,,,,,,,,,,,,,,,,,,,,,,,,,,,,,,,,,,,,,,,,,,,,,,,,,,,,,,,,,,,,,,,,,,159.35179651699946,159.35872658199878,159.35872658199878,169.62490492199868,space,10.26458278499922,,,,,,,,,,,,,,sub-150,1,stroop_test,,
,,,,0.0,0.0,0.0,,,,,,,,,,,,,gelb,yellow,g,1.0,g,1.0,0.5880665049990057,,,,,,,,,,0.0,0.0,0.0,10.0,169.64005705199995,,,,,,,,,,,,,,,,,169.6341527379991,170.42268946999866,171.21746757399887,171.2064969969997,,,,,,,,,,,,,,,,,,,,,,,,,,,,,,,,,,,171.20944693099955,171.21746757399887,171.21746757399887,171.8082833619992,g,1.0,0.5880665049990057,,,,,,sub-150,1,stroop_test,,
,,,,1.0,1.0,0.0,,,,,,,,,,,,,rot,red,r,1.0,r,1.0,0.6151430499994603,,,,,,,,,,0.0,1.0,1.0,0.0,171.817486594,,,,,,,,,,,,,,,,,171.8085914989988,171.90770456099926,172.71132651199878,172.70180104999963,,,,,,,,,,,,,,,,,,,,,,,,,,,,,,,,,,,172.70465720599896,172.71132651199878,172.71132651199878,173.33596569099973,r,1.0,0.6151430499994603,,,,,,sub-150,1,stroop_test,,
,,,,2.0,2.0,0.0,,,,,,,,,,,,,blau,blue,b,1.0,b,1.0,0.5361417320000328,,,,,,,,,,0.0,2.0,2.0,5.0,173.343005748,,,,,,,,,,,,,,,,,173.33633858699977,174.5342724029997,175.32705874400017,175.31829760899927,,,,,,,,,,,,,,,,,,,,,,,,,,,,,,,,,,,175.32087848399897,175.32705874400017,175.32705874400017,175.86906692499906,b,1.0,0.5361417320000328,,,,,,sub-150,1,stroop_test,,
,,,,3.0,3.0,0.0,,,,,,,,,,,,,gelb,blue,b,0.0,b,1.0,0.5246329479996348,,,,,,,,,,0.0,3.0,3.0,9.0,175.87581706899982,,,,,,,,,,,,,,,,,175.8693721419986,177.06773400800012,177.86132961099975,177.85161063699888,,,,,,,,,,,,,,,,,,,,,,,,,,,,,,,,,,,177.85444878700036,177.86132961099975,177.86132961099975,178.39140304399916,b,1.0,0.5246329479996348,,,,,,sub-150,1,stroop_test,,
,,,,4.0,4.0,0.0,,,,,,,,,,,,,blau,yellow,g,0.0,g,1.0,0.6801211220008554,,,,,,,,,,0.0,4.0,4.0,7.0,178.40089781699862,,,,,,,,,,,,,,,,,178.39170776399988,179.18941613899915,179.98426945499887,179.97328668799855,,,,,,,,,,,,,,,,,,,,,,,,,,,,,,,,,,,179.9758649989999,179.98426945499887,179.98426945499887,180.66946907499917,g,1.0,0.6801211220008554,,,,,,sub-150,1,stroop_test,,
,,,,5.0,5.0,0.0,,,,,,,,,,,,,blau,red,r,0.0,r,1.0,0.3042225890003465,,,,,,,,,,0.0,5.0,5.0,4.0,180.67616152399933,,,,,,,,,,,,,,,,,180.6697765159988,181.86778294400028,182.65817273599896,182.651588875,,,,,,,,,,,,,,,,,,,,,,,,,,,,,,,,,,,182.6520654169999,182.65817273599896,182.65817273599896,182.96876673899897,r,1.0,0.3042225890003465,,,,,,sub-150,1,stroop_test,,
,,,,6.0,6.0,0.0,,,,,,,,,,,,,rot,yellow,g,0.0,g,1.0,0.6779913690006651,,,,,,,,,,0.0,6.0,6.0,3.0,182.97533180400023,,,,,,,,,,,,,,,,,182.96907147799905,183.3066037209992,184.1008741939986,184.09016742899985,,,,,,,,,,,,,,,,,,,,,,,,,,,,,,,,,,,184.09297502299887,184.1008741939986,184.1008741939986,184.78585434100023,g,1.0,0.6779913690006651,,,,,,sub-150,1,stroop_test,,
,,,,7.0,7.0,0.0,,,,,,,,,,,,,rot,blue,b,0.0,b,1.0,0.275253645999328,,,,,,,,,,0.0,7.0,7.0,2.0,184.7925550359996,,,,,,,,,,,,,,,,,184.78617042899896,185.58434529700023,186.37491398599923,186.3683335149999,,,,,,,,,,,,,,,,,,,,,,,,,,,,,,,,,,,186.36880735900013,186.37491398599923,186.37491398599923,186.65227984299963,b,1.0,0.275253645999328,,,,,,sub-150,1,stroop_test,,
,,,,8.0,8.0,0.0,,,,,,,,,,,,,blau,blue,b,1.0,b,1.0,0.4858170389998122,,,,,,,,,,0.0,8.0,8.0,6.0,186.6585078219996,,,,,,,,,,,,,,,,,186.65254926099988,187.8510062969999,188.64399318999855,188.63497089500012,,,,,,,,,,,,,,,,,,,,,,,,,,,,,,,,,,,188.6377120979996,188.64399318999855,188.64399318999855,189.13563723100012,b,1.0,0.4858170389998122,,,,,,sub-150,1,stroop_test,,
,,,,9.0,9.0,0.0,,,,,,,,,,,,,gelb,yellow,g,1.0,g,1.0,0.3073932890001742,,,,,,,,,,0.0,9.0,9.0,11.0,189.142222171,,,,,,,,,,,,,,,,,189.13593633599885,190.3343023969992,191.12820594999903,191.11840589999883,,,,,,,,,,,,,,,,,,,,,,,,,,,,,,,,,,,191.1215937409997,191.12820594999903,191.12820594999903,191.44126255899937,g,1.0,0.3073932890001742,,,,,,sub-150,1,stroop_test,,
,,,,10.0,10.0,0.0,,,,,,,,,,,,,gelb,red,r,0.0,r,1.0,0.2955668049999076,,,,,,,,,,0.0,10.0,10.0,8.0,191.45087832199897,,,,,,,,,,,,,,,,,191.4415951779993,192.23959388299957,193.0343303159989,193.0235277829997,,,,,,,,,,,,,,,,,,,,,,,,,,,,,,,,,,,193.02401210099924,193.0343303159989,193.0343303159989,193.33574618199964,r,1.0,0.2955668049999076,,,,,,sub-150,1,stroop_test,,
,,,,11.0,11.0,0.0,,,,,,,,,,,,,rot,red,r,1.0,r,1.0,0.3137967829989065,,,,,,,,,,0.0,11.0,11.0,1.0,193.342373124,,,,,,,,,,,,,,,,,193.3360511209994,193.68434331199933,194.47846150199985,194.46829033999893,,,,,,,,,,,,,,,,,,,,,,,,,,,,,,,,,,,194.4711700409989,194.47846150199985,194.47846150199985,194.8027994690001,r,1.0,0.3137967829989065,,,,,,sub-150,1,stroop_test,,
,,,,12.0,0.0,1.0,,,,,,,,,,,,,blau,yellow,g,0.0,g,1.0,0.3225857470006303,,,,,,,,,,1.0,0.0,12.0,7.0,194.80965707599896,,,,,,,,,,,,,,,,,194.803101902,195.1509675929992,195.9433161629986,195.93500348299855,,,,,,,,,,,,,,,,,,,,,,,,,,,,,,,,,,,195.9374038979986,195.9433161629986,195.9433161629986,196.268911788,g,1.0,0.3225857470006303,,,,,,sub-150,1,stroop_test,,
,,,,13.0,1.0,1.0,,,,,,,,,,,,,rot,red,r,1.0,r,1.0,0.6054635290001897,,,,,,,,,,1.0,1.0,13.0,0.0,196.2753917459995,,,,,,,,,,,,,,,,,196.2692281540003,197.46764832400004,198.26181055300003,198.251772009,,,,,,,,,,,,,,,,,,,,,,,,,,,,,,,,,,,198.2547903249997,198.26181055300003,198.26181055300003,198.8690113209996,r,1.0,0.6054635290001897,,,,,,sub-150,1,stroop_test,,
,,,,14.0,2.0,1.0,,,,,,,,,,,,,rot,yellow,g,0.0,r,0.0,0.516226061999987,,,,,,,,,,1.0,2.0,14.0,3.0,198.875516827,,,,,,,,,,,,,,,,,198.86931313899916,199.6676222850001,200.45808263599972,200.4519214769989,,,,,,,,,,,,,,,,,,,,,,,,,,,,,,,,,,,200.4524021069992,200.45808263599972,200.45808263599972,200.98501749000025,r,0.0,0.516226061999987,,,,,,sub-150,1,stroop_test,,
,,,,15.0,3.0,1.0,,,,,,,,,,,,,rot,blue,b,0.0,b,1.0,0.7039306679998845,,,,,,,,,,1.0,3.0,15.0,2.0,200.9900543669992,,,,,,,,,,,,,,,,,200.9852871129988,201.0730858739989,201.86786335599936,201.8568838659994,,,,,,,,,,,,,,,,,,,,,,,,,,,,,,,,,,,201.85735615699923,201.86786335599936,201.86786335599936,202.5757646869988,b,1.0,0.7039306679998845,,,,,,sub-150,1,stroop_test,,
,,,,16.0,4.0,1.0,,,,,,,,,,,,,blau,blue,b,1.0,b,1.0,0.4666829260004306,,,,,,,,,,1.0,4.0,16.0,5.0,202.5843558220004,,,,,,,,,,,,,,,,,202.5760678129991,203.7729060009988,204.5677078689987,204.556882158,,,,,,,,,,,,,,,,,,,,,,,,,,,,,,,,,,,204.55952993400024,204.5677078689987,204.5677078689987,205.0361707769989,b,1.0,0.4666829260004306,,,,,,sub-150,1,stroop_test,,
,,,,17.0,5.0,1.0,,,,,,,,,,,,,gelb,yellow,g,1.0,g,1.0,0.3593108690001827,,,,,,,,,,1.0,5.0,17.0,10.0,205.04276280900007,,,,,,,,,,,,,,,,,205.03648272399917,205.8343576719999,206.62834602099971,206.61834439599988,,,,,,,,,,,,,,,,,,,,,,,,,,,,,,,,,,,206.6216147949999,206.62834602099971,206.62834602099971,206.99181873999987,g,1.0,0.3593108690001827,,,,,,sub-150,1,stroop_test,,
,,,,18.0,6.0,1.0,,,,,,,,,,,,,gelb,yellow,g,1.0,g,1.0,0.5586666500003048,,,,,,,,,,1.0,6.0,18.0,11.0,207.00112925400023,,,,,,,,,,,,,,,,,206.9921239539999,207.091093391,207.89201438999956,207.8852983079996,,,,,,,,,,,,,,,,,,,,,,,,,,,,,,,,,,,207.88601954600017,207.89201438999956,207.89201438999956,208.45240182999987,g,1.0,0.5586666500003048,,,,,,sub-150,1,stroop_test,,
,,,,19.0,7.0,1.0,,,,,,,,,,,,,blau,blue,b,1.0,b,1.0,0.5243855460012128,,,,,,,,,,1.0,7.0,19.0,6.0,208.4591124409999,,,,,,,,,,,,,,,,,208.45270776699908,208.80134626699876,209.59370693500023,209.585098259,,,,,,,,,,,,,,,,,,,,,,,,,,,,,,,,,,,209.5877271239988,209.59370693500023,209.59370693500023,210.1196638429992,b,1.0,0.5243855460012128,,,,,,sub-150,1,stroop_test,,
,,,,20.0,8.0,1.0,,,,,,,,,,,,,gelb,blue,b,0.0,b,1.0,0.4821633790015767,,,,,,,,,,1.0,8.0,20.0,9.0,210.1262648129996,,,,,,,,,,,,,,,,,210.11997114399853,210.9177292589993,211.71153530300035,211.70188945900009,,,,,,,,,,,,,,,,,,,,,,,,,,,,,,,,,,,211.7048990530002,211.71153530300035,211.71153530300035,212.20261059199947,b,1.0,0.4821633790015767,,,,,,sub-150,1,stroop_test,,
,,,,21.0,9.0,1.0,,,,,,,,,,,,,rot,red,r,1.0,r,1.0,0.515639318000467,,,,,,,,,,1.0,9.0,21.0,1.0,212.2093770829997,,,,,,,,,,,,,,,,,212.2029152029991,213.0010673479992,213.79489466700036,213.78525048499975,,,,,,,,,,,,,,,,,,,,,,,,,,,,,,,,,,,213.7879742789992,213.79489466700036,213.79489466700036,214.3190716939989,r,1.0,0.515639318000467,,,,,,sub-150,1,stroop_test,,
,,,,22.0,10.0,1.0,,,,,,,,,,,,,blau,red,r,0.0,r,1.0,0.4437835739990987,,,,,,,,,,1.0,10.0,22.0,4.0,214.3257665429992,,,,,,,,,,,,,,,,,214.31937486599963,215.51790474900008,216.3105485519991,216.3018027029993,,,,,,,,,,,,,,,,,,,,,,,,,,,,,,,,,,,216.3043358149989,216.3105485519991,216.3105485519991,216.7592919029994,r,1.0,0.4437835739990987,,,,,,sub-150,1,stroop_test,,
,,,,23.0,11.0,1.0,,,,,,,,,,,,,gelb,red,r,0.0,r,1.0,0.486379833000683,,,,,,,,,,1.0,11.0,23.0,8.0,216.76782169000035,,,,,,,,,,,,,,,,,216.7595967010002,217.55638731499857,218.35111505199893,218.34033185999945,,,,,,,,,,,,,,,,,,,,,,,,,,,,,,,,,,,218.3434901799992,218.35111505199893,218.35111505199893,218.84112492299937,r,1.0,0.486379833000683,,,,,,sub-150,1,stroop_test,,
,,,,24.0,0.0,2.0,,,,,,,,,,,,,gelb,blue,b,0.0,b,1.0,0.3711561469990556,,,,,,,,,,2.0,0.0,24.0,9.0,218.8510877739991,,,,,,,,,,,,,,,,,218.84142127700036,219.63949829299963,220.4345099889997,220.42382307299889,,,,,,,,,,,,,,,,,,,,,,,,,,,,,,,,,,,220.4243116489997,220.4345099889997,220.4345099889997,220.80826735299888,b,1.0,0.3711561469990556,,,,,,sub-150,1,stroop_test,,
,,,,25.0,1.0,2.0,,,,,,,,,,,,,rot,blue,b,0.0,b,1.0,0.3970058399991103,,,,,,,,,,2.0,1.0,25.0,2.0,220.81766926899945,,,,,,,,,,,,,,,,,220.80857522099905,220.9061650929998,221.70111433700004,221.6902210729986,,,,,,,,,,,,,,,,,,,,,,,,,,,,,,,,,,,221.6929957140001,221.70111433700004,221.70111433700004,222.10262266799876,b,1.0,0.3970058399991103,,,,,,sub-150,1,stroop_test,,
,,,,26.0,2.0,2.0,,,,,,,,,,,,,rot,red,r,1.0,r,1.0,0.6032211210003879,,,,,,,,,,2.0,2.0,26.0,1.0,222.10938058600004,,,,,,,,,,,,,,,,,222.1029283059997,223.30115467199903,224.09139943300036,224.08535017400027,,,,,,,,,,,,,,,,,,,,,,,,,,,,,,,,,,,224.08579474399997,224.09139943300036,224.09139943300036,224.7029068390002,r,1.0,0.6032211210003879,,,,,,sub-150,1,stroop_test,,
,,,,27.0,3.0,2.0,,,,,,,,,,,,,blau,red,r,0.0,r,1.0,0.358181790999879,,,,,,,,,,2.0,3.0,27.0,4.0,224.7096256219993,,,,,,,,,,,,,,,,,224.70328480900025,224.80133231199943,225.59392255499915,225.58513542999933,,,,,,,,,,,,,,,,,,,,,,,,,,,,,,,,,,,225.58770074199856,225.59392255499915,225.59392255499915,225.957875782,r,1.0,0.358181790999879,,,,,,sub-150,1,stroop_test,,
,,,,28.0,4.0,2.0,,,,,,,,,,,,,blau,blue,b,1.0,b,1.0,0.5416339759995026,,,,,,,,,,2.0,4.0,28.0,5.0,225.96767639799876,,,,,,,,,,,,,,,,,225.95824424799864,226.3062832369997,227.1012186299995,227.0906887029996,,,,,,,,,,,,,,,,,,,,,,,,,,,,,,,,,,,227.09116391299904,227.1012186299995,227.1012186299995,227.6529815140002,b,1.0,0.5416339759995026,,,,,,sub-150,1,stroop_test,,
,,,,29.0,5.0,2.0,,,,,,,,,,,,,gelb,red,r,0.0,b,0.0,0.4098778839997976,,,,,,,,,,2.0,5.0,29.0,8.0,227.6597759819997,,,,,,,,,,,,,,,,,227.65328698899972,228.45111829799865,229.24523014399887,229.23536339099883,,,,,,,,,,,,,,,,,,,,,,,,,,,,,,,,,,,229.2383380329993,229.24523014399887,229.24523014399887,229.6578725719992,b,0.0,0.4098778839997976,,,,,,sub-150,1,stroop_test,,
,,,,30.0,6.0,2.0,,,,,,,,,,,,,gelb,yellow,g,1.0,g,1.0,0.627923138999904,,,,,,,,,,2.0,6.0,30.0,10.0,229.66762010299863,,,,,,,,,,,,,,,,,229.65817655499995,229.75683817000024,230.55120790599904,230.5406184610001,,,,,,,,,,,,,,,,,,,,,,,,,,,,,,,,,,,230.5411236990003,230.55120790599904,230.55120790599904,231.1860489720002,g,1.0,0.627923138999904,,,,,,sub-150,1,stroop_test,,
,,,,31.0,7.0,2.0,,,,,,,,,,,,,blau,blue,b,1.0,b,1.0,0.5128038080001716,,,,,,,,,,2.0,7.0,31.0,6.0,231.19292396499984,,,,,,,,,,,,,,,,,231.1863550879989,232.38460005100023,233.1773219859988,233.1685067649996,,,,,,,,,,,,,,,,,,,,,,,,,,,,,,,,,,,233.17114919899905,233.1773219859988,233.1773219859988,233.69190705799883,b,1.0,0.5128038080001716,,,,,,sub-150,1,stroop_test,,
,,,,32.0,8.0,2.0,,,,,,,,,,,,,rot,red,r,1.0,r,1.0,0.5597930570002063,,,,,,,,,,2.0,8.0,32.0,0.0,233.701081453999,,,,,,,,,,,,,,,,,233.6922208670003,233.7907565829992,234.59535458400023,234.5851683689998,,,,,,,,,,,,,,,,,,,,,,,,,,,,,,,,,,,234.58804038800008,234.59535458400023,234.59535458400023,235.1588488039997,r,1.0,0.5597930570002063,,,,,,sub-150,1,stroop_test,,
,,,,33.0,9.0,2.0,,,,,,,,,,,,,rot,yellow,g,0.0,g,1.0,0.6074663979998149,,,,,,,,,,2.0,9.0,33.0,3.0,235.1677937259992,,,,,,,,,,,,,,,,,235.1591385920001,235.50656119999985,236.3012932089987,236.29041841899925,,,,,,,,,,,,,,,,,,,,,,,,,,,,,,,,,,,236.29090542599988,236.3012932089987,236.3012932089987,236.91950501300016,g,1.0,0.6074663979998149,,,,,,sub-150,1,stroop_test,,
,,,,34.0,10.0,2.0,,,,,,,,,,,,,blau,yellow,g,0.0,g,1.0,0.4263301370010595,,,,,,,,,,2.0,10.0,34.0,7.0,236.926313422,,,,,,,,,,,,,,,,,236.9198867289997,237.01782085999912,237.8110570099998,237.8018787029996,,,,,,,,,,,,,,,,,,,,,,,,,,,,,,,,,,,237.804773595999,237.8110570099998,237.8110570099998,238.2414203619992,g,1.0,0.4263301370010595,,,,,,sub-150,1,stroop_test,,
,,,,35.0,11.0,2.0,,,,,,,,,,,,,gelb,yellow,g,1.0,g,1.0,0.5002312180004083,,,,,,,,,,2.0,11.0,35.0,11.0,238.2512421119991,,,,,,,,,,,,,,,,,238.241706711,238.5895705469993,239.38448779399917,239.37423053899877,,,,,,,,,,,,,,,,,,,,,,,,,,,,,,,,,,,239.37733586600007,239.38448779399917,239.38448779399917,239.88661212399893,g,1.0,0.5002312180004083,,,,,,sub-150,1,stroop_test,,
,,,,36.0,0.0,3.0,,,,,,,,,,,,,gelb,yellow,g,1.0,g,1.0,0.4470051339994825,,,,,,,,,,3.0,0.0,36.0,11.0,239.893225586,,,,,,,,,,,,,,,,,239.8869165420001,239.9844867889988,240.7753677059991,240.76876095199987,,,,,,,,,,,,,,,,,,,,,,,,,,,,,,,,,,,240.7692430070001,240.7753677059991,240.7753677059991,241.2251155140002,g,1.0,0.4470051339994825,,,,,,sub-150,1,stroop_test,,
,,,,37.0,1.0,3.0,,,,,,,,,,,,,rot,red,r,1.0,r,1.0,0.4696140450014354,,,,,,,,,,3.0,1.0,37.0,1.0,241.2344824720003,,,,,,,,,,,,,,,,,241.22540717399897,241.5730245149989,242.3678245459996,242.35703572300008,,,,,,,,,,,,,,,,,,,,,,,,,,,,,,,,,,,242.35980507299973,242.3678245459996,242.3678245459996,242.84147382300037,r,1.0,0.4696140450014354,,,,,,sub-150,1,stroop_test,,
,,,,38.0,2.0,3.0,,,,,,,,,,,,,rot,blue,b,0.0,b,1.0,0.3809627589998854,,,,,,,,,,3.0,2.0,38.0,2.0,242.8511439220001,,,,,,,,,,,,,,,,,242.84176294699864,243.18995518500012,243.9845856259999,243.97381680499893,,,,,,,,,,,,,,,,,,,,,,,,,,,,,,,,,,,243.9743143529995,243.9845856259999,243.9845856259999,244.36951499399947,b,1.0,0.3809627589998854,,,,,,sub-150,1,stroop_test,,
,,,,39.0,3.0,3.0,,,,,,,,,,,,,rot,yellow,g,0.0,g,1.0,0.7544205009999132,,,,,,,,,,3.0,3.0,39.0,3.0,244.3761226429997,,,,,,,,,,,,,,,,,244.36985306499992,244.71782187799909,245.50886359200013,245.50202480400003,,,,,,,,,,,,,,,,,,,,,,,,,,,,,,,,,,,245.50273738899887,245.50886359200013,245.50886359200013,246.26977299699865,g,1.0,0.7544205009999132,,,,,,sub-150,1,stroop_test,,
,,,,40.0,4.0,3.0,,,,,,,,,,,,,blau,red,r,0.0,r,1.0,0.4872334769988811,,,,,,,,,,3.0,4.0,40.0,4.0,246.2763180539987,,,,,,,,,,,,,,,,,246.27008441900037,246.36788890800017,247.160457254,247.1518701169989,,,,,,,,,,,,,,,,,,,,,,,,,,,,,,,,,,,247.15437095800007,247.160457254,247.160457254,247.652728441999,r,1.0,0.4872334769988811,,,,,,sub-150,1,stroop_test,,
,,,,41.0,5.0,3.0,,,,,,,,,,,,,gelb,blue,b,0.0,b,1.0,0.3558983509992686,,,,,,,,,,3.0,5.0,41.0,9.0,247.65933577800024,,,,,,,,,,,,,,,,,247.653033098999,248.00126587699924,248.7947397930002,248.78525477499895,,,,,,,,,,,,,,,,,,,,,,,,,,,,,,,,,,,248.78814863099976,248.7947397930002,248.7947397930002,249.15250393699895,b,1.0,0.3558983509992686,,,,,,sub-150,1,stroop_test,,
,,,,42.0,6.0,3.0,,,,,,,,,,,,,rot,red,r,1.0,r,1.0,0.4909164500004408,,,,,,,,,,3.0,6.0,42.0,0.0,249.1590706909992,,,,,,,,,,,,,,,,,249.1528090829997,249.25122238699987,250.04541967099976,250.03534507699987,,,,,,,,,,,,,,,,,,,,,,,,,,,,,,,,,,,250.038692868,250.04541967099976,250.04541967099976,250.54196272899932,r,1.0,0.4909164500004408,,,,,,sub-150,1,stroop_test,,
,,,,43.0,7.0,3.0,,,,,,,,,,,,,blau,yellow,g,0.0,g,1.0,0.5107485190001171,,,,,,,,,,3.0,7.0,43.0,7.0,250.5512123569988,,,,,,,,,,,,,,,,,250.5422877009987,250.63970879299995,251.43446426899936,251.423646231,,,,,,,,,,,,,,,,,,,,,,,,,,,,,,,,,,,251.4261074469996,251.43446426899936,251.43446426899936,251.95297515399943,g,1.0,0.5107485190001171,,,,,,sub-150,1,stroop_test,,
,,,,44.0,8.0,3.0,,,,,,,,,,,,,blau,blue,b,1.0,b,1.0,0.4354929239998455,,,,,,,,,,3.0,8.0,44.0,6.0,251.9597999149992,,,,,,,,,,,,,,,,,251.95334538499992,252.30131067599905,253.09176968300017,253.0852695049998,,,,,,,,,,,,,,,,,,,,,,,,,,,,,,,,,,,253.08575255100004,253.09176968300017,253.09176968300017,253.53638569299983,b,1.0,0.4354929239998455,,,,,,sub-150,1,stroop_test,,
,,,,45.0,9.0,3.0,,,,,,,,,,,,,gelb,yellow,g,1.0,g,1.0,1.5763442250008666,,,,,,,,,,3.0,9.0,45.0,10.0,253.54302181799903,,,,,,,,,,,,,,,,,253.53668874999855,253.88466891399912,254.67866255300032,254.66869343599865,,,,,,,,,,,,,,,,,,,,,,,,,,,,,,,,,,,254.6716397629989,254.67866255300032,254.67866255300032,256.2695172299991,g,1.0,1.5763442250008666,,,,,,sub-150,1,stroop_test,,
,,,,46.0,10.0,3.0,,,,,,,,,,,,,blau,blue,b,1.0,r,0.0,0.5679901959993003,,,,,,,,,,3.0,10.0,46.0,5.0,256.2810043649988,,,,,,,,,,,,,,,,,256.2698225789991,256.36788210399936,257.1605210990001,257.15177213399875,,,,,,,,,,,,,,,,,,,,,,,,,,,,,,,,,,,257.15443830000004,257.1605210990001,257.1605210990001,257.7362212579992,r,0.0,0.5679901959993003,,,,,,sub-150,1,stroop_test,,
,,,,47.0,11.0,3.0,,,,,,,,,,,,,gelb,red,r,0.0,r,1.0,0.6916917960006685,,,,,,,,,,3.0,11.0,47.0,8.0,257.7428571849996,,,,,,,,,,,,,,,,,257.7365217919996,258.934597391999,259.72796358599953,259.71863118999863,,,,,,,,,,,,,,,,,,,,,,,,,,,,,,,,,,,259.72135992899894,259.72796358599953,259.72796358599953,260.4255325369995,r,1.0,0.6916917960006685,,,,,,sub-150,1,stroop_test,,
,,,,48.0,0.0,4.0,,,,,,,,,,,,,rot,blue,b,0.0,b,1.0,0.5610533020008006,,,,,,,,,,4.0,0.0,48.0,2.0,260.4344641459993,,,,,,,,,,,,,,,,,260.4258467050004,260.77325559699966,261.567750324999,261.55696188,,,,,,,,,,,,,,,,,,,,,,,,,,,,,,,,,,,261.56016935200023,261.567750324999,261.567750324999,262.13618701999985,b,1.0,0.5610533020008006,,,,,,sub-150,1,stroop_test,,
,,,,49.0,1.0,4.0,,,,,,,,,,,,,gelb,red,r,0.0,r,1.0,0.8015262540011463,,,,,,,,,,4.0,1.0,49.0,8.0,262.1427204149986,,,,,,,,,,,,,,,,,262.1364543439995,263.334659058999,264.1284631469989,264.1185928369996,,,,,,,,,,,,,,,,,,,,,,,,,,,,,,,,,,,264.1215092900002,264.1284631469989,264.1284631469989,264.93632816100035,r,1.0,0.8015262540011463,,,,,,sub-150,1,stroop_test,,
,,,,50.0,2.0,4.0,,,,,,,,,,,,,gelb,yellow,g,1.0,g,1.0,0.4266825899994728,,,,,,,,,,4.0,2.0,50.0,11.0,264.9431280230001,,,,,,,,,,,,,,,,,264.93663759399897,265.73466959100006,266.5249609249986,266.518635258999,,,,,,,,,,,,,,,,,,,,,,,,,,,,,,,,,,,266.5191297649999,266.5249609249986,266.5249609249986,266.9597139819998,g,1.0,0.4266825899994728,,,,,,sub-150,1,stroop_test,,
,,,,51.0,3.0,4.0,,,,,,,,,,,,,blau,blue,b,1.0,b,1.0,0.5131009540000377,,,,,,,,,,4.0,3.0,51.0,5.0,266.96795493100035,,,,,,,,,,,,,,,,,266.95998392599904,268.1566211009995,268.9513231669989,268.9403399980001,,,,,,,,,,,,,,,,,,,,,,,,,,,,,,,,,,,268.94287178800005,268.9513231669989,268.9513231669989,269.4694247899988,b,1.0,0.5131009540000377,,,,,,sub-150,1,stroop_test,,
,,,,52.0,4.0,4.0,,,,,,,,,,,,,blau,blue,b,1.0,b,1.0,0.4350470930003212,,,,,,,,,,4.0,4.0,52.0,6.0,269.475937575,,,,,,,,,,,,,,,,,269.46972528900005,270.26814610099973,271.05849467699954,271.05210447399986,,,,,,,,,,,,,,,,,,,,,,,,,,,,,,,,,,,271.052579055,271.05849467699954,271.05849467699954,271.50273056100013,b,1.0,0.4350470930003212,,,,,,sub-150,1,stroop_test,,
,,,,53.0,5.0,4.0,,,,,,,,,,,,,rot,yellow,g,0.0,g,1.0,0.6238049220009998,,,,,,,,,,4.0,5.0,53.0,3.0,271.50954504699985,,,,,,,,,,,,,,,,,271.503093112,271.8513149549999,272.6454584929997,272.6352569999999,,,,,,,,,,,,,,,,,,,,,,,,,,,,,,,,,,,272.6384663209992,272.6454584929997,272.6454584929997,273.2747368,g,1.0,0.6238049220009998,,,,,,sub-150,1,stroop_test,,
,,,,54.0,6.0,4.0,,,,,,,,,,,,,blau,red,r,0.0,r,1.0,0.4781947309984389,,,,,,,,,,4.0,6.0,54.0,4.0,273.2844077739992,,,,,,,,,,,,,,,,,273.27503876399896,273.37337597199985,274.16796359699947,274.1571327109996,,,,,,,,,,,,,,,,,,,,,,,,,,,,,,,,,,,274.15960002799875,274.16796359699947,274.16796359699947,274.65268598999864,r,1.0,0.4781947309984389,,,,,,sub-150,1,stroop_test,,
,,,,55.0,7.0,4.0,,,,,,,,,,,,,gelb,blue,b,0.0,b,1.0,0.5770132079996984,,,,,,,,,,4.0,7.0,55.0,9.0,274.65932530699865,,,,,,,,,,,,,,,,,274.65299727399906,275.8513159289996,276.6453630349988,276.6353315319993,,,,,,,,,,,,,,,,,,,,,,,,,,,,,,,,,,,276.63860345099965,276.6453630349988,276.6453630349988,277.2250742849992,b,1.0,0.5770132079996984,,,,,,sub-150,1,stroop_test,,
,,,,56.0,8.0,4.0,,,,,,,,,,,,,rot,red,r,1.0,r,1.0,0.5260592220001854,,,,,,,,,,4.0,8.0,56.0,1.0,277.2346495459988,,,,,,,,,,,,,,,,,277.225364685999,278.02343027799907,278.8179176430003,278.8070994329992,,,,,,,,,,,,,,,,,,,,,,,,,,,,,,,,,,,278.80997346299955,278.8179176430003,278.8179176430003,279.35302733499884,r,1.0,0.5260592220001854,,,,,,sub-150,1,stroop_test,,
,,,,57.0,9.0,4.0,,,,,,,,,,,,,rot,red,r,1.0,r,1.0,0.4850213999998232,,,,,,,,,,4.0,9.0,57.0,0.0,279.35961302299984,,,,,,,,,,,,,,,,,279.353330811,279.4513025839988,280.2418967430003,280.23532359399906,,,,,,,,,,,,,,,,,,,,,,,,,,,,,,,,,,,280.2358243669987,280.2418967430003,280.2418967430003,280.7364252259995,r,1.0,0.4850213999998232,,,,,,sub-150,1,stroop_test,,
,,,,58.0,10.0,4.0,,,,,,,,,,,,,gelb,yellow,g,1.0,g,1.0,0.5285232170008385,,,,,,,,,,4.0,10.0,58.0,10.0,280.743273271999,,,,,,,,,,,,,,,,,280.73680196500027,281.93471798599967,282.7285354029991,282.7186602389993,,,,,,,,,,,,,,,,,,,,,,,,,,,,,,,,,,,282.7214734549998,282.7285354029991,282.7285354029991,283.2586208339999,g,1.0,0.5285232170008385,,,,,,sub-150,1,stroop_test,,
,,,,59.0,11.0,4.0,,,,,,,,,,,,,blau,yellow,g,0.0,g,1.0,0.3617789450017881,,,,,,,,,,4.0,11.0,59.0,7.0,283.26787282999976,,,,,,,,,,,,,,,,,283.258884769999,284.0565350179986,284.8513781919992,284.84051756999907,,,,,,,,,,,,,,,,,,,,,,,,,,,,,,,,,,,284.84311890699973,284.8513781919992,284.8513781919992,285.2197497340003,g,1.0,0.3617789450017881,,,,,,sub-150,1,stroop_test,,
,,,,60.0,0.0,5.0,,,,,,,,,,,,,rot,red,r,1.0,r,1.0,0.4725750140005402,,,,,,,,,,5.0,0.0,60.0,1.0,285.22640691299966,,,,,,,,,,,,,,,,,285.2200561009995,286.4180528729994,287.2121993719993,287.2021344539989,,,,,,,,,,,,,,,,,,,,,,,,,,,,,,,,,,,287.20547524099857,287.2121993719993,287.2121993719993,287.6866360189997,r,1.0,0.4725750140005402,,,,,,sub-150,1,stroop_test,,
,,,,61.0,1.0,5.0,,,,,,,,,,,,,gelb,yellow,g,1.0,r,0.0,0.4657725649994972,,,,,,,,,,5.0,1.0,61.0,11.0,287.69338073499966,,,,,,,,,,,,,,,,,287.6869369670003,287.78472974299984,288.57906876800007,288.5688873559993,,,,,,,,,,,,,,,,,,,,,,,,,,,,,,,,,,,288.57233713999995,288.57906876800007,288.57906876800007,289.0530967899995,r,0.0,0.4657725649994972,,,,,,sub-150,1,stroop_test,,
,,,,62.0,2.0,5.0,,,,,,,,,,,,,gelb,red,r,0.0,r,1.0,0.5117291120004666,,,,,,,,,,5.0,2.0,62.0,8.0,289.05981471999985,,,,,,,,,,,,,,,,,289.0533969400003,289.1514010949995,289.9418591430004,289.93536379599936,,,,,,,,,,,,,,,,,,,,,,,,,,,,,,,,,,,289.9358425519986,289.9418591430004,289.9418591430004,290.45791081599964,r,1.0,0.5117291120004666,,,,,,sub-150,1,stroop_test,,
,,,,63.0,3.0,5.0,,,,,,,,,,,,,rot,red,r,1.0,r,1.0,0.4768071859998599,,,,,,,,,,5.0,3.0,63.0,0.0,290.4679310949996,,,,,,,,,,,,,,,,,290.4582018639994,291.25655663,292.0513505420004,292.04083189099947,,,,,,,,,,,,,,,,,,,,,,,,,,,,,,,,,,,292.0436241039988,292.0513505420004,292.0513505420004,292.53643926099903,r,1.0,0.4768071859998599,,,,,,sub-150,1,stroop_test,,
,,,,64.0,4.0,5.0,,,,,,,,,,,,,blau,red,r,0.0,b,0.0,0.8216180239996902,,,,,,,,,,5.0,4.0,64.0,4.0,292.54314809599964,,,,,,,,,,,,,,,,,292.5368021020004,293.7347553709988,294.52776678899863,294.5186883299993,,,,,,,,,,,,,,,,,,,,,,,,,,,,,,,,,,,294.5212220960002,294.52776678899863,294.52776678899863,295.35299229999873,b,0.0,0.8216180239996902,,,,,,sub-150,1,stroop_test,,
,,,,65.0,5.0,5.0,,,,,,,,,,,,,gelb,blue,b,0.0,b,1.0,0.5328006740001001,,,,,,,,,,5.0,5.0,65.0,9.0,295.35968239199974,,,,,,,,,,,,,,,,,295.3532967789997,296.5514527989999,297.34476949300006,297.3353055179996,,,,,,,,,,,,,,,,,,,,,,,,,,,,,,,,,,,297.33815361599954,297.34476949300006,297.34476949300006,297.88628421700014,b,1.0,0.5328006740001001,,,,,,sub-150,1,stroop_test,,
,,,,66.0,6.0,5.0,,,,,,,,,,,,,gelb,yellow,g,1.0,g,1.0,0.7139528400002746,,,,,,,,,,5.0,6.0,66.0,10.0,297.8929502800001,,,,,,,,,,,,,,,,,297.8865780899996,298.2346861599999,299.0252042079992,299.0187122159987,,,,,,,,,,,,,,,,,,,,,,,,,,,,,,,,,,,299.01920103999873,299.0252042079992,299.0252042079992,299.7417561410002,g,1.0,0.7139528400002746,,,,,,sub-150,1,stroop_test,,
,,,,67.0,7.0,5.0,,,,,,,,,,,,,blau,yellow,g,0.0,g,1.0,0.9181109319997632,,,,,,,,,,5.0,7.0,67.0,7.0,299.7512414979992,,,,,,,,,,,,,,,,,299.7420529279989,300.9400124570002,301.7347062609988,301.7238647079994,,,,,,,,,,,,,,,,,,,,,,,,,,,,,,,,,,,301.7265305889996,301.7347062609988,301.7347062609988,302.657900102,g,1.0,0.9181109319997632,,,,,,sub-150,1,stroop_test,,
,,,,68.0,8.0,5.0,,,,,,,,,,,,,rot,yellow,g,0.0,g,1.0,0.6001930439997523,,,,,,,,,,5.0,8.0,68.0,3.0,302.6680373649997,,,,,,,,,,,,,,,,,302.658185459999,303.4566011019997,304.2512232779991,304.24076727399915,,,,,,,,,,,,,,,,,,,,,,,,,,,,,,,,,,,304.2448095990003,304.2512232779991,304.2512232779991,304.8533785839991,g,1.0,0.6001930439997523,,,,,,sub-150,1,stroop_test,,
,,,,69.0,9.0,5.0,,,,,,,,,,,,,blau,blue,b,1.0,b,1.0,0.4740101859988499,,,,,,,,,,5.0,9.0,69.0,5.0,304.86021420199904,,,,,,,,,,,,,,,,,304.8537562370002,305.2014148649996,305.9943552179993,305.9856035649991,,,,,,,,,,,,,,,,,,,,,,,,,,,,,,,,,,,305.9881968919999,305.9943552179993,305.9943552179993,306.4698630410003,b,1.0,0.4740101859988499,,,,,,sub-150,1,stroop_test,,
,,,,70.0,10.0,5.0,,,,,,,,,,,,,rot,blue,b,0.0,b,1.0,0.4108297840011801,,,,,,,,,,5.0,10.0,70.0,2.0,306.47628304299906,,,,,,,,,,,,,,,,,306.4701658060003,306.5681159959986,307.3615948609986,307.3520733669993,,,,,,,,,,,,,,,,,,,,,,,,,,,,,,,,,,,307.354889884,307.3615948609986,307.3615948609986,307.7753114440002,b,1.0,0.4108297840011801,,,,,,sub-150,1,stroop_test,,
,,,,71.0,11.0,5.0,,,,,,,,,,,,,blau,blue,b,1.0,b,1.0,0.4033013659991411,,,,,,,,,,5.0,11.0,71.0,6.0,307.78465668100034,,,,,,,,,,,,,,,,,307.7756155469997,308.57326371399904,309.3680590949989,309.35716970499925,,,,,,,,,,,,,,,,,,,,,,,,,,,,,,,,,,,309.3597322879996,309.3680590949989,309.3680590949989,309.7755223389995,b,1.0,0.4033013659991411,,,,,,sub-150,1,stroop_test,,
,,,,72.0,0.0,6.0,,,,,,,,,,,,,rot,yellow,g,0.0,g,1.0,0.6223139190005895,,,,,,,,,,6.0,0.0,72.0,3.0,309.78451729599874,,,,,,,,,,,,,,,,,309.7758200239987,310.9733946969991,311.7680364119988,311.7571238499986,,,,,,,,,,,,,,,,,,,,,,,,,,,,,,,,,,,311.75996864599983,311.7680364119988,311.7680364119988,312.3922676799993,g,1.0,0.6223139190005895,,,,,,sub-150,1,stroop_test,,
,,,,73.0,1.0,6.0,,,,,,,,,,,,,gelb,red,r,0.0,r,1.0,0.5041044219997275,,,,,,,,,,6.0,1.0,73.0,8.0,312.4013065299987,,,,,,,,,,,,,,,,,312.3925758120004,312.7399554179992,313.534783785999,313.52420021800026,,,,,,,,,,,,,,,,,,,,,,,,,,,,,,,,,,,313.527317742999,313.534783785999,313.534783785999,314.04156803299884,r,1.0,0.5041044219997275,,,,,,sub-150,1,stroop_test,,
,,,,74.0,2.0,6.0,,,,,,,,,,,,,gelb,blue,b,0.0,b,1.0,0.4855348919991229,,,,,,,,,,6.0,2.0,74.0,9.0,314.0513207339991,,,,,,,,,,,,,,,,,314.04186698899866,314.84007695699984,315.6349140499988,315.62401601999954,,,,,,,,,,,,,,,,,,,,,,,,,,,,,,,,,,,315.6244942889989,315.6349140499988,315.6349140499988,316.12572119299875,b,1.0,0.4855348919991229,,,,,,sub-150,1,stroop_test,,
,,,,75.0,3.0,6.0,,,,,,,,,,,,,gelb,yellow,g,1.0,g,1.0,0.3431446089998644,,,,,,,,,,6.0,3.0,75.0,11.0,316.13476494399947,,,,,,,,,,,,,,,,,316.12602172900006,316.47313457699966,317.26808933400025,317.2571493699997,,,,,,,,,,,,,,,,,,,,,,,,,,,,,,,,,,,317.25763715299945,317.26808933400025,317.26808933400025,317.6196681379988,g,1.0,0.3431446089998644,,,,,,sub-150,1,stroop_test,,
,,,,76.0,4.0,6.0,,,,,,,,,,,,,rot,red,r,1.0,r,1.0,0.5240208229988639,,,,,,,,,,6.0,4.0,76.0,1.0,317.62623120699936,,,,,,,,,,,,,,,,,317.61998258600033,317.7181266629996,318.5123555600003,318.50227318,,,,,,,,,,,,,,,,,,,,,,,,,,,,,,,,,,,318.50567888299884,318.5123555600003,318.5123555600003,319.0413400589987,r,1.0,0.5240208229988639,,,,,,sub-150,1,stroop_test,,
,,,,77.0,5.0,6.0,,,,,,,,,,,,,blau,yellow,g,0.0,g,1.0,0.5581806099999085,,,,,,,,,,6.0,5.0,77.0,7.0,319.0514598609989,,,,,,,,,,,,,,,,,319.0416306679999,319.38990363099947,320.1846541719988,320.17343081800027,,,,,,,,,,,,,,,,,,,,,,,,,,,,,,,,,,,320.17592002699894,320.1846541719988,320.1846541719988,320.7533941490001,g,1.0,0.5581806099999085,,,,,,sub-150,1,stroop_test,,
,,,,78.0,6.0,6.0,,,,,,,,,,,,,blau,red,r,0.0,r,1.0,0.5676407229984761,,,,,,,,,,6.0,6.0,78.0,4.0,320.7602949859993,,,,,,,,,,,,,,,,,320.7537806540004,321.10147809499904,321.89152149300025,321.885412231999,,,,,,,,,,,,,,,,,,,,,,,,,,,,,,,,,,,321.8858895159992,321.89152149300025,321.89152149300025,322.46998058200006,r,1.0,0.5676407229984761,,,,,,sub-150,1,stroop_test,,
,,,,79.0,7.0,6.0,,,,,,,,,,,,,blau,blue,b,1.0,b,1.0,0.5928279309991922,,,,,,,,,,6.0,7.0,79.0,5.0,322.4766232309994,,,,,,,,,,,,,,,,,322.47031829799926,323.6681271990001,324.4588323609987,324.4522652899996,,,,,,,,,,,,,,,,,,,,,,,,,,,,,,,,,,,324.4527394929992,324.4588323609987,324.4588323609987,325.0532109479991,b,1.0,0.5928279309991922,,,,,,sub-150,1,stroop_test,,
,,,,80.0,8.0,6.0,,,,,,,,,,,,,rot,red,r,1.0,r,1.0,0.5890993159991922,,,,,,,,,,6.0,8.0,80.0,0.0,325.0595699289988,,,,,,,,,,,,,,,,,325.05351374899874,326.25164743999994,327.0457238979998,327.0359455409998,,,,,,,,,,,,,,,,,,,,,,,,,,,,,,,,,,,327.03877136399933,327.0457238979998,327.0457238979998,327.63651427399964,r,1.0,0.5890993159991922,,,,,,sub-150,1,stroop_test,,
,,,,81.0,9.0,6.0,,,,,,,,,,,,,rot,blue,b,0.0,b,1.0,0.5087949299995671,,,,,,,,,,6.0,9.0,81.0,2.0,327.64300052199906,,,,,,,,,,,,,,,,,327.63681100899885,328.83502582099936,329.62542629199925,329.618801179,,,,,,,,,,,,,,,,,,,,,,,,,,,,,,,,,,,329.61927276499955,329.62542629199925,329.62542629199925,330.1361069329996,b,1.0,0.5087949299995671,,,,,,sub-150,1,stroop_test,,
,,,,82.0,10.0,6.0,,,,,,,,,,,,,blau,blue,b,1.0,b,1.0,0.3747918839999329,,,,,,,,,,6.0,10.0,82.0,6.0,330.14262537099967,,,,,,,,,,,,,,,,,330.13641115599967,331.33498874199904,332.1280945429989,332.11882903399965,,,,,,,,,,,,,,,,,,,,,,,,,,,,,,,,,,,332.1216833369999,332.1280945429989,332.1280945429989,332.5083047949993,b,1.0,0.3747918839999329,,,,,,sub-150,1,stroop_test,,
,,,,83.0,11.0,6.0,,,,,,,,,,,,,gelb,yellow,g,1.0,g,1.0,0.363507584999752,,,,,,,,,,6.0,11.0,83.0,10.0,332.5181836009997,,,,,,,,,,,,,,,,,332.5086038769987,333.3069632030001,334.101396909,334.09002558799875,,,,,,,,,,,,,,,,,,,,,,,,,,,,,,,,,,,334.0923021559993,334.101396909,334.101396909,334.46980414300015,g,1.0,0.363507584999752,,,,,,sub-150,1,stroop_test,,
,,,,84.0,0.0,7.0,,,,,,,,,,,,,rot,blue,b,0.0,b,1.0,0.7187572109996836,,,,,,,,,,7.0,0.0,84.0,2.0,334.47657972100023,,,,,,,,,,,,,,,,,334.47010536499874,334.5681100659985,335.36210752399893,335.35223905599923,,,,,,,,,,,,,,,,,,,,,,,,,,,,,,,,,,,335.3554644489996,335.36210752399893,335.36210752399893,336.0864836189994,b,1.0,0.7187572109996836,,,,,,sub-150,1,stroop_test,,
,,,,85.0,1.0,7.0,,,,,,,,,,,,,blau,blue,b,1.0,b,1.0,0.5265528410000115,,,,,,,,,,7.0,1.0,85.0,6.0,336.09342009699867,,,,,,,,,,,,,,,,,336.08682817599947,336.88487019199965,337.67733928899906,337.6690114539997,,,,,,,,,,,,,,,,,,,,,,,,,,,,,,,,,,,337.67134259999875,337.67733928899906,337.67733928899906,338.20876719399894,b,1.0,0.5265528410000115,,,,,,sub-150,1,stroop_test,,
,,,,86.0,2.0,7.0,,,,,,,,,,,,,rot,red,r,1.0,r,1.0,0.370084238000345,,,,,,,,,,7.0,2.0,86.0,0.0,338.2181430719993,,,,,,,,,,,,,,,,,338.209116647,339.00676840599954,339.8015138049996,339.7909786559994,,,,,,,,,,,,,,,,,,,,,,,,,,,,,,,,,,,339.7938383339988,339.8015138049996,339.8015138049996,340.1757388449987,r,1.0,0.370084238000345,,,,,,sub-150,1,stroop_test,,
,,,,87.0,3.0,7.0,,,,,,,,,,,,,blau,red,r,0.0,r,1.0,0.4196437190003053,,,,,,,,,,7.0,3.0,87.0,4.0,340.1849550609986,,,,,,,,,,,,,,,,,340.1760522379991,340.27339995999864,341.06815909299985,341.05747514799987,,,,,,,,,,,,,,,,,,,,,,,,,,,,,,,,,,,341.06013077699936,341.06815909299985,341.06815909299985,341.4928507759996,r,1.0,0.4196437190003053,,,,,,sub-150,1,stroop_test,,
,,,,88.0,4.0,7.0,,,,,,,,,,,,,gelb,yellow,g,1.0,g,1.0,0.6321543300000485,,,,,,,,,,7.0,4.0,88.0,11.0,341.5014886359986,,,,,,,,,,,,,,,,,341.4931487249996,342.29008586799864,343.08473083100034,343.0741252030002,,,,,,,,,,,,,,,,,,,,,,,,,,,,,,,,,,,343.0770550019988,343.08473083100034,343.08473083100034,343.71929730099873,g,1.0,0.6321543300000485,,,,,,sub-150,1,stroop_test,,
,,,,89.0,5.0,7.0,,,,,,,,,,,,,gelb,red,r,0.0,r,1.0,0.3910193069987144,,,,,,,,,,7.0,5.0,89.0,8.0,343.7254096479992,,,,,,,,,,,,,,,,,343.7195491169987,344.9069552250003,345.7015456099998,345.69041454499893,,,,,,,,,,,,,,,,,,,,,,,,,,,,,,,,,,,345.69078923099914,345.7015456099998,345.7015456099998,346.1034258950003,r,1.0,0.3910193069987144,,,,,,sub-150,1,stroop_test,,
,,,,90.0,6.0,7.0,,,,,,,,,,,,,rot,yellow,g,0.0,g,1.0,0.4591916019999189,,,,,,,,,,7.0,6.0,90.0,3.0,346.1101309599999,,,,,,,,,,,,,,,,,346.1037655729997,346.2015406749997,346.9948544279996,346.98553604799963,,,,,,,,,,,,,,,,,,,,,,,,,,,,,,,,,,,346.98831738099943,346.9948544279996,346.9948544279996,347.45927731200027,g,1.0,0.4591916019999189,,,,,,sub-150,1,stroop_test,,
,,,,91.0,7.0,7.0,,,,,,,,,,,,,rot,red,r,1.0,g,0.0,0.393920660000731,,,,,,,,,,7.0,7.0,91.0,1.0,347.4681765819987,,,,,,,,,,,,,,,,,347.4595810809988,348.2567061989994,349.0515624,349.040619555999,,,,,,,,,,,,,,,,,,,,,,,,,,,,,,,,,,,349.0410980509987,349.0515624,349.0515624,349.4529866969988,g,0.0,0.393920660000731,,,,,,sub-150,1,stroop_test,,
,,,,92.0,8.0,7.0,,,,,,,,,,,,,blau,blue,b,1.0,b,1.0,0.5067066320007143,,,,,,,,,,7.0,8.0,92.0,5.0,349.459442895999,,,,,,,,,,,,,,,,,349.453284580999,349.5516047959991,350.34408967799936,350.3356281779997,,,,,,,,,,,,,,,,,,,,,,,,,,,,,,,,,,,350.338225685,350.34408967799936,350.34408967799936,350.8528189919998,b,1.0,0.5067066320007143,,,,,,sub-150,1,stroop_test,,
,,,,93.0,9.0,7.0,,,,,,,,,,,,,gelb,yellow,g,1.0,g,1.0,0.5344935140001326,,,,,,,,,,7.0,9.0,93.0,10.0,350.859220331,,,,,,,,,,,,,,,,,350.85312043500016,352.0515371379988,352.8454644909998,352.8355447689992,,,,,,,,,,,,,,,,,,,,,,,,,,,,,,,,,,,352.8382539129998,352.8454644909998,352.8454644909998,353.38638985000034,g,1.0,0.5344935140001326,,,,,,sub-150,1,stroop_test,,
,,,,94.0,10.0,7.0,,,,,,,,,,,,,gelb,blue,b,0.0,b,1.0,0.54788350400122,,,,,,,,,,7.0,10.0,94.0,9.0,353.3932710459994,,,,,,,,,,,,,,,,,353.38669179499993,354.1849049579996,354.9756361609998,354.96893382300004,,,,,,,,,,,,,,,,,,,,,,,,,,,,,,,,,,,354.96940959600033,354.9756361609998,354.9756361609998,355.5252777529986,b,1.0,0.54788350400122,,,,,,sub-150,1,stroop_test,,
,,,,95.0,11.0,7.0,,,,,,,,,,,,,blau,yellow,g,0.0,g,1.0,0.5839870929994504,,,,,,,,,,7.0,11.0,95.0,7.0,355.5347917679992,,,,,,,,,,,,,,,,,355.5255883829996,356.32341762800024,357.11815562099946,357.1075933760003,,,,,,,,,,,,,,,,,,,,,,,,,,,,,,,,,,,357.1100645280003,357.11815562099946,357.11815562099946,357.7101237229999,g,1.0,0.5839870929994504,,,,,,sub-150,1,stroop_test,,
,,,,96.0,0.0,8.0,,,,,,,,,,,,,gelb,yellow,g,1.0,g,1.0,0.4955696039996837,,,,,,,,,,8.0,0.0,96.0,10.0,357.71810893600014,,,,,,,,,,,,,,,,,357.7103742599993,358.5067926339998,359.3015025799996,359.2907898659996,,,,,,,,,,,,,,,,,,,,,,,,,,,,,,,,,,,359.2937137939989,359.3015025799996,359.3015025799996,359.8031291539992,g,1.0,0.4955696039996837,,,,,,sub-150,1,stroop_test,,
,,,,97.0,1.0,8.0,,,,,,,,,,,,,gelb,blue,b,0.0,b,1.0,0.5067686299989873,,,,,,,,,,8.0,1.0,97.0,9.0,359.8097791879991,,,,,,,,,,,,,,,,,359.80342762599867,361.0017971399993,361.7917701589995,361.7855988819993,,,,,,,,,,,,,,,,,,,,,,,,,,,,,,,,,,,361.7860807159996,361.7917701589995,361.7917701589995,362.3030772860002,b,1.0,0.5067686299989873,,,,,,sub-150,1,stroop_test,,
,,,,98.0,2.0,8.0,,,,,,,,,,,,,gelb,red,r,0.0,r,1.0,0.3335514869995677,,,,,,,,,,8.0,2.0,98.0,8.0,362.30967489199975,,,,,,,,,,,,,,,,,362.3033735569989,362.6517729099997,363.44207665499925,363.4355421700002,,,,,,,,,,,,,,,,,,,,,,,,,,,,,,,,,,,363.4360206349993,363.44207665499925,363.44207665499925,363.7869929930002,r,1.0,0.3335514869995677,,,,,,sub-150,1,stroop_test,,
,,,,99.0,3.0,8.0,,,,,,,,,,,,,rot,red,r,1.0,r,1.0,0.4524842540013196,,,,,,,,,,8.0,3.0,99.0,1.0,363.7937846719997,,,,,,,,,,,,,,,,,363.7873751219995,364.5849155859996,365.3780313299994,365.36889725400033,,,,,,,,,,,,,,,,,,,,,,,,,,,,,,,,,,,365.3714690099987,365.3780313299994,365.3780313299994,365.8368476639989,r,1.0,0.4524842540013196,,,,,,sub-150,1,stroop_test,,
,,,,100.0,4.0,8.0,,,,,,,,,,,,,blau,red,r,0.0,r,1.0,0.4081889169992791,,,,,,,,,,8.0,4.0,100.0,4.0,365.84351479999896,,,,,,,,,,,,,,,,,365.8371527349991,365.93497063299947,366.7281461000002,366.7190824049994,,,,,,,,,,,,,,,,,,,,,,,,,,,,,,,,,,,366.7221031699992,366.7281461000002,366.7281461000002,367.1421224309997,r,1.0,0.4081889169992791,,,,,,sub-150,1,stroop_test,,
,,,,101.0,5.0,8.0,,,,,,,,,,,,,gelb,yellow,g,1.0,g,1.0,0.4389047119984752,,,,,,,,,,8.0,5.0,101.0,11.0,367.1514748009995,,,,,,,,,,,,,,,,,367.1424813009999,368.3401362209988,369.134947134,369.124090665,,,,,,,,,,,,,,,,,,,,,,,,,,,,,,,,,,,369.1269334669996,369.134947134,369.134947134,369.57548656499966,g,1.0,0.4389047119984752,,,,,,sub-150,1,stroop_test,,
,,,,102.0,6.0,8.0,,,,,,,,,,,,,blau,blue,b,1.0,b,1.0,0.4836193849987467,,,,,,,,,,8.0,6.0,102.0,6.0,369.5849377659997,,,,,,,,,,,,,,,,,369.57578482399913,370.7734958469992,371.5683311619996,371.5576264599986,,,,,,,,,,,,,,,,,,,,,,,,,,,,,,,,,,,371.5601283449996,371.5683311619996,371.5683311619996,372.0601112389995,b,1.0,0.4836193849987467,,,,,,sub-150,1,stroop_test,,
,,,,103.0,7.0,8.0,,,,,,,,,,,,,rot,yellow,g,0.0,g,1.0,0.4992198580002878,,,,,,,,,,8.0,7.0,103.0,3.0,372.0681811159993,,,,,,,,,,,,,,,,,372.06038484999954,372.8567846629994,373.6515047499997,373.6407940119989,,,,,,,,,,,,,,,,,,,,,,,,,,,,,,,,,,,373.6437118449994,373.6515047499997,373.6515047499997,374.15311498200026,g,1.0,0.4992198580002878,,,,,,sub-150,1,stroop_test,,
,,,,104.0,8.0,8.0,,,,,,,,,,,,,blau,yellow,g,0.0,g,1.0,0.3657286220004607,,,,,,,,,,8.0,8.0,104.0,7.0,374.1597617449988,,,,,,,,,,,,,,,,,374.15342180100015,374.2518589379997,375.0448164499994,375.0358675539992,,,,,,,,,,,,,,,,,,,,,,,,,,,,,,,,,,,375.0383136789988,375.0448164499994,375.0448164499994,375.42009248199975,g,1.0,0.3657286220004607,,,,,,sub-150,1,stroop_test,,
,,,,105.0,9.0,8.0,,,,,,,,,,,,,rot,blue,b,0.0,b,1.0,0.8071896140008903,,,,,,,,,,8.0,9.0,105.0,2.0,375.427108078,,,,,,,,,,,,,,,,,375.42046933799975,375.51824542899885,376.3116137799989,376.3022742049998,,,,,,,,,,,,,,,,,,,,,,,,,,,,,,,,,,,376.30520901699856,376.3116137799989,376.3116137799989,377.12706081099896,b,1.0,0.8071896140008903,,,,,,sub-150,1,stroop_test,,
,,,,106.0,10.0,8.0,,,,,,,,,,,,,rot,red,r,1.0,r,1.0,0.4686168789994553,,,,,,,,,,8.0,10.0,106.0,0.0,377.1349738629997,,,,,,,,,,,,,,,,,377.1273770919997,377.2234887189989,378.0183151239999,378.0075145779993,,,,,,,,,,,,,,,,,,,,,,,,,,,,,,,,,,,378.0080069889991,378.0183151239999,378.0183151239999,378.4924263419998,r,1.0,0.4686168789994553,,,,,,sub-150,1,stroop_test,,
,,,,107.0,11.0,8.0,,,,,,,,,,,,,blau,blue,b,1.0,b,1.0,0.6493964519995643,,,,,,,,,,8.0,11.0,107.0,5.0,378.50170710400016,,,,,,,,,,,,,,,,,378.4927513219991,378.84021933999975,379.63495378399966,379.6242409289989,,,,,,,,,,,,,,,,,,,,,,,,,,,,,,,,,,,379.6272437970001,379.63495378399966,379.63495378399966,380.286400338,b,1.0,0.6493964519995643,,,,,,sub-150,1,stroop_test,,
,,,,108.0,0.0,9.0,,,,,,,,,,,,,rot,red,r,1.0,r,1.0,0.3777877619995706,,,,,,,,,,9.0,0.0,108.0,1.0,380.29277775399896,,,,,,,,,,,,,,,,,380.2867007999994,380.3850337799995,381.1795300609992,381.1690650130004,,,,,,,,,,,,,,,,,,,,,,,,,,,,,,,,,,,381.17236324700025,381.1795300609992,381.1795300609992,381.5591488999999,r,1.0,0.3777877619995706,,,,,,sub-150,1,stroop_test,,
,,,,109.0,1.0,9.0,,,,,,,,,,,,,blau,blue,b,1.0,b,1.0,0.4454931159998523,,,,,,,,,,9.0,1.0,109.0,6.0,381.56819573699977,,,,,,,,,,,,,,,,,381.5594585529998,382.7568605489996,383.5517372559989,383.5411470439994,,,,,,,,,,,,,,,,,,,,,,,,,,,,,,,,,,,383.5438144319997,383.5517372559989,383.5517372559989,384.0028939240001,b,1.0,0.4454931159998523,,,,,,sub-150,1,stroop_test,,
,,,,110.0,2.0,9.0,,,,,,,,,,,,,rot,yellow,g,0.0,g,1.0,0.506868686999951,,,,,,,,,,9.0,2.0,110.0,3.0,384.0092821589988,,,,,,,,,,,,,,,,,384.00320082299913,385.2016693409987,385.9950303570004,385.9856029169987,,,,,,,,,,,,,,,,,,,,,,,,,,,,,,,,,,,385.9883750509998,385.9950303570004,385.9950303570004,386.5035240479992,g,1.0,0.506868686999951,,,,,,sub-150,1,stroop_test,,
,,,,111.0,3.0,9.0,,,,,,,,,,,,,gelb,blue,b,0.0,b,1.0,0.4894781369985139,,,,,,,,,,9.0,3.0,111.0,9.0,386.5102835709986,,,,,,,,,,,,,,,,,386.503823351999,387.3016707909992,388.09502133599926,388.08567596099965,,,,,,,,,,,,,,,,,,,,,,,,,,,,,,,,,,,388.088477072999,388.09502133599926,388.09502133599926,388.5863769569987,b,1.0,0.4894781369985139,,,,,,sub-150,1,stroop_test,,
,,,,112.0,4.0,9.0,,,,,,,,,,,,,gelb,yellow,g,1.0,g,1.0,0.4683835670002736,,,,,,,,,,9.0,4.0,112.0,11.0,388.5928852469988,,,,,,,,,,,,,,,,,388.5866867879995,388.93500319899977,389.72556897399954,389.7190538529994,,,,,,,,,,,,,,,,,,,,,,,,,,,,,,,,,,,389.7195485459997,389.72556897399954,389.72556897399954,390.20298964,g,1.0,0.4683835670002736,,,,,,sub-150,1,stroop_test,,
,,,,113.0,5.0,9.0,,,,,,,,,,,,,rot,red,r,1.0,r,1.0,0.4729563189994223,,,,,,,,,,9.0,5.0,113.0,0.0,390.2094009609991,,,,,,,,,,,,,,,,,390.2032553509998,390.5516455969992,391.34576704199935,391.3356773989999,,,,,,,,,,,,,,,,,,,,,,,,,,,,,,,,,,,391.3390322340001,391.34576704199935,391.34576704199935,391.82693798499895,r,1.0,0.4729563189994223,,,,,,sub-150,1,stroop_test,,
,,,,114.0,6.0,9.0,,,,,,,,,,,,,blau,blue,b,1.0,b,1.0,0.4055115999999543,,,,,,,,,,9.0,6.0,114.0,5.0,391.8349522059998,,,,,,,,,,,,,,,,,391.8272368460002,392.1736612369986,392.96834856999885,392.9575907919989,,,,,,,,,,,,,,,,,,,,,,,,,,,,,,,,,,,392.96013574300014,392.96834856999885,392.96834856999885,393.3755535469991,b,1.0,0.4055115999999543,,,,,,sub-150,1,stroop_test,,
,,,,115.0,7.0,9.0,,,,,,,,,,,,,rot,blue,b,0.0,b,1.0,0.422449912999582,,,,,,,,,,9.0,7.0,115.0,2.0,393.38492876999953,,,,,,,,,,,,,,,,,393.3758440820002,394.1736641949992,394.9683083049986,394.95761141,,,,,,,,,,,,,,,,,,,,,,,,,,,,,,,,,,,394.9605054989988,394.9683083049986,394.9683083049986,395.3923230499986,b,1.0,0.422449912999582,,,,,,sub-150,1,stroop_test,,
,,,,116.0,8.0,9.0,,,,,,,,,,,,,gelb,red,r,0.0,r,1.0,0.755511559000297,,,,,,,,,,9.0,8.0,116.0,8.0,395.4016025649999,,,,,,,,,,,,,,,,,395.3925839549993,395.73497105599927,396.5290091139996,396.5191187769997,,,,,,,,,,,,,,,,,,,,,,,,,,,,,,,,,,,396.5221261539991,396.5290091139996,396.5290091139996,397.28628391299935,r,1.0,0.755511559000297,,,,,,sub-150,1,stroop_test,,
,,,,117.0,9.0,9.0,,,,,,,,,,,,,gelb,yellow,g,1.0,g,1.0,0.4810888840002008,,,,,,,,,,9.0,9.0,117.0,10.0,397.29277135099983,,,,,,,,,,,,,,,,,397.28658422599983,397.6351128289989,398.42591668599925,398.4191580480001,,,,,,,,,,,,,,,,,,,,,,,,,,,,,,,,,,,398.41965256099866,398.42591668599925,398.42591668599925,398.90859705299954,g,1.0,0.4810888840002008,,,,,,sub-150,1,stroop_test,,
,,,,118.0,10.0,9.0,,,,,,,,,,,,,blau,yellow,g,0.0,g,1.0,0.8811285379997571,,,,,,,,,,9.0,10.0,118.0,7.0,398.918271171,,,,,,,,,,,,,,,,,398.9088872979992,400.1072195359993,400.90167493899935,400.8907255920003,,,,,,,,,,,,,,,,,,,,,,,,,,,,,,,,,,,400.8934330409993,400.90167493899935,400.90167493899935,401.7867365219991,g,1.0,0.8811285379997571,,,,,,sub-150,1,stroop_test,,
,,,,119.0,11.0,9.0,,,,,,,,,,,,,blau,red,r,0.0,r,1.0,0.5091715460002888,,,,,,,,,,9.0,11.0,119.0,4.0,401.7935024979997,,,,,,,,,,,,,,,,,401.7870478699988,402.1350393449993,402.9259228649989,402.91931958500027,,,,,,,,,,,,,,,,,,,,,,,,,,,,,,,,,,,402.9197918589998,402.9259228649989,402.9259228649989,403.436826997,r,1.0,0.5091715460002888,,,,,,sub-150,1,stroop_test,,
,,,,,,,,,,,,,,,,,,,,,,,,,,,,,,,,,,,,,,,,,,,,,,,,,,,,,,,,,,,,,,,,,,,,,,,,,,,,,,,,,,,,,,,,,,,,,,,,,,,,,,403.43696832099886,403.44490167,408.4402889819994,408.43588784799977,sub-150,1,stroop_test,,
