direction,corrAns,thisN,thisTrialN,thisRepN,respDots.keys,respDots.corr,respDots.rt,respDots.duration,randomInstr,respRandomInstr.keys,respRandomInstr.rt,respRandomInstr.duration,practice_trials.thisRepN,practice_trials.thisTrialN,practice_trials.thisN,practice_trials.thisIndex,instr_trials.thisRepN,instr_trials.thisTrialN,instr_trials.thisN,instr_trials.thisIndex,test_trials.thisRepN,test_trials.thisTrialN,test_trials.thisN,test_trials.thisIndex,thisRow.t,notes,general_instruction.started,textGeneralInstr.started,respGeneralInstr.started,general_instruction.stopped,respGeneralInstr.keys,respGeneralInstr.rt,respGeneralInstr.duration,ITI.started,fixcross.started,fixcross.stopped,ITI.stopped,dots.started,backgroundDots.started,stimulusDots.started,respDots.started,dots.stopped,practice_trials.respDots.keys,practice_trials.respDots.corr,practice_trials.respDots.rt,practice_trials.respDots.duration,feedback.started,textFeedback.started,feedback.stopped,textFeedback.stopped,stimulusDots.stopped,info.started,textInfo.started,keyRespInfo.started,info.stopped,keyRespInfo.keys,keyRespInfo.rt,keyRespInfo.duration,test_instruction.started,textTestInstr.started,respTestInstr.started,test_instruction.stopped,respTestInstr.keys,respTestInstr.rt,respTestInstr.duration,random_instruction.started,textRandomInstr.started,respRandomInstr.started,random_instruction.stopped,instr_trials.respRandomInstr.keys,instr_trials.respRandomInstr.rt,instr_trials.respRandomInstr.duration,test_trials.respDots.keys,test_trials.respDots.corr,test_trials.respDots.rt,test_trials.respDots.duration,goodbye.started,textGoodbye.started,textGoodbye.stopped,goodbye.stopped,participant,session,expName,frameRate,Unnamed: 88
,,,,,,,,,,,,,,,,,,,,,,,,,,,0.0157051249989308,0.0224690830073086,0.0224690830073086,2.2566852500021923,space,2.2023020000051474,,,,,,,,,,,,,,,,,,,,,,,,,,,,,,,,,,,,,,,,,,,,,,,,,sub-058,1,random_dot,,
left,left,0.0,0.0,0.0,right,0.0,1.2295032080000965,,,,,,0.0,0.0,0.0,0.0,,,,,,,,,2.285241292003775,,,,,,,,,2.2690998330072034,2.351849625003524,3.1509677080030087,3.139272667001933,3.139716208010213,3.1509677080030087,3.1509677080030087,3.1509677080030087,4.382526208006311,right,0.0,1.2295032080000965,,4.3886252920056,4.4088884579978185,4.884741375004523,,,,,,,,,,,,,,,,,,,,,,,,,,,,,,,,sub-058,1,random_dot,,
right,right,1.0,1.0,0.0,left,0.0,0.7775954579992685,,,,,,0.0,1.0,1.0,1.0,,,,,,,,,4.895919667003909,,,,,,,,,4.885035250001238,4.983264417009195,5.779380167005002,5.771518250010558,5.77194295800291,5.779380167005002,5.779380167005002,5.779380167005002,6.559521957999095,left,0.0,0.7775954579992685,,6.559648082999047,6.566425375000108,7.053873541997746,7.066838250000728,,,,,,,,,,,,,,,,,,,,,,,,,,,,,,,sub-058,1,random_dot,,
right,right,2.0,0.0,1.0,left,0.0,3.583346708008321,,,,,,1.0,0.0,2.0,1.0,,,,,,,,,7.066838250000728,,,,,,,,,7.054222292004852,7.399022500001593,8.206148625002243,8.19959975000529,8.200010708009358,8.206148625002243,8.206148625002243,8.206148625002243,11.792809917009436,left,0.0,3.583346708008321,,11.792919250001432,11.80968625000969,12.296066791997871,,,,,,,,,,,,,,,,,,,,,,,,,,,,,,,,sub-058,1,random_dot,,
left,left,3.0,1.0,1.0,right,0.0,0.9858043750136858,,,,,,1.0,1.0,3.0,0.0,,,,,,,,,12.300058583001372,,,,,,,,,12.296413625008428,12.64121454200358,13.432330333002028,13.425413250006386,13.42585254200094,13.432330333002028,13.432330333002028,13.432330333002028,14.426767791999737,right,0.0,0.9858043750136858,,14.42685495800106,14.431718250008998,14.925472625007387,14.947100042001694,,,,,,,,,,,,,,,,,,,,,,,,,,,,,,,sub-058,1,random_dot,,
left,left,4.0,0.0,2.0,left,1.0,1.6978879169910217,,,,,,2.0,0.0,4.0,0.0,,,,,,,,,14.947100042001694,,,,,,,,,14.925825667000026,15.26942120800959,16.060988958008238,16.05303733299661,16.053448083010153,16.060988958008238,16.060988958008238,16.060988958008238,17.771552749996772,left,1.0,1.6978879169910217,,17.77593220800918,17.783470125010354,18.26741979199869,18.278974917004238,,,,,,,,,,,,,,,,,,,,,,,,,,,,,,,sub-058,1,random_dot,,
right,right,5.0,1.0,2.0,right,1.0,2.4527529170009075,,,,,,2.0,1.0,5.0,1.0,,,,,,,,,18.278974917004238,,,,,,,,,18.267702167009706,18.62362204201054,19.432144542006423,19.425831208005548,19.42626362500596,19.432144542006423,19.432144542006423,19.432144542006423,21.88708245800808,right,1.0,2.4527529170009075,,21.887197542004287,21.895765708002727,22.388016416996837,,,,,,,,,,,,,,,,,,,,,,,,,,,,,,,,sub-058,1,random_dot,,
right,right,6.0,0.0,3.0,left,0.0,2.106868333008606,,,,,,3.0,0.0,6.0,1.0,,,,,,,,,22.395135333004877,,,,,,,,,22.388519833009923,23.201559000008277,24.00329641700955,23.996195958010503,23.99662395800988,24.00329641700955,24.00329641700955,24.00329641700955,26.11760841700016,left,0.0,2.106868333008606,,26.12039166700561,26.12693808300537,26.610558333006335,26.62075270799687,,,,,,,,,,,,,,,,,,,,,,,,,,,,,,,sub-058,1,random_dot,,
left,left,7.0,1.0,3.0,right,0.0,3.5579107079975074,,,,,,3.0,1.0,7.0,0.0,,,,,,,,,26.62075270799687,,,,,,,,,26.61087637500896,26.72398404200794,27.518273167006555,27.51125566700648,27.51167175000592,27.518273167006555,27.518273167006555,27.518273167006555,31.07764499999757,right,0.0,3.5579107079975074,,31.077744958005496,31.08503775000281,31.583771542005707,,,,,,,,,,,,,,,,,,,,,,,,,,,,,,,,sub-058,1,random_dot,,
left,left,8.0,0.0,4.0,left,1.0,2.160728624992771,,,,,,4.0,0.0,8.0,0.0,,,,,,,,,31.58824562499649,,,,,,,,,31.58411770800012,31.91868716700992,32.72920716700901,32.707486166997114,32.70792620800785,32.72920716700901,32.72920716700901,32.72920716700901,34.89249333299813,left,1.0,2.160728624992771,,34.89518995799881,34.903160832996946,35.39368433300115,,,,,,,,,,,,,,,,,,,,,,,,,,,,,,,,sub-058,1,random_dot,,
right,right,9.0,1.0,4.0,left,0.0,3.115912749999552,,,,,,4.0,1.0,9.0,1.0,,,,,,,,,35.3981024579989,,,,,,,,,35.393980292006745,35.73185370799911,36.53909375000512,36.53259362500103,36.53301033300522,36.53909375000512,36.53909375000512,36.53909375000512,39.66309650000767,left,0.0,3.115912749999552,,39.665802500006976,39.67341025000496,40.16275454200513,40.1679516669974,,,,,,,,,,,,,,,,,,,,,,,,,,,,,,,sub-058,1,random_dot,,
right,right,10.0,0.0,5.0,right,1.0,6.095841667003697,,,,,,5.0,0.0,10.0,1.0,,,,,,,,,40.1679516669974,,,,,,,,,40.163107208005385,41.37027641700115,42.16085691700573,42.15440141700674,42.15481520800677,42.16085691700573,42.16085691700573,42.16085691700573,48.25934729199798,right,1.0,6.095841667003697,,48.26270975000807,48.27062737500819,48.75531979200605,48.76292929200281,47.14072491700063,,,,,,,,,,,,,,,,,,,,,,,,,,,,,,sub-058,1,random_dot,,
left,left,11.0,1.0,5.0,left,1.0,5.021765291006886,,,,,,5.0,1.0,11.0,0.0,,,,,,,,,48.76292929200281,,,,,,,,,48.75567300000694,48.85767645800661,49.670614792004926,49.65240895800525,49.65274525000132,49.670614792004926,49.670614792004926,49.670614792004926,54.704811625008006,left,1.0,5.021765291006886,,54.70490433300438,54.71232808299828,55.19687183300266,55.20224004201009,54.64807300000393,,,,,,,,,,,,,,,,,,,,,,,,,,,,,,sub-058,1,random_dot,,
right,right,12.0,0.0,6.0,right,1.0,2.4250705409940565,,,,,,6.0,0.0,12.0,1.0,,,,,,,,,55.20224004201009,,,,,,,,,55.197209457997815,55.30219629200292,56.096162083005765,56.0888968329964,56.089304667009856,56.096162083005765,56.096162083005765,56.096162083005765,58.52720829199825,right,1.0,2.4250705409940565,,58.52734187500028,58.5339978330012,59.02527054199891,59.04712729199673,,,,,,,,,,,,,,,,,,,,,,,,,,,,,,,sub-058,1,random_dot,,
left,left,13.0,1.0,6.0,left,1.0,2.7835028330009663,,,,,,6.0,1.0,13.0,0.0,,,,,,,,,59.04712729199673,,,,,,,,,59.025617167004384,59.135896833002334,59.93633295800828,59.923775125003885,59.92422554201039,59.93633295800828,59.93633295800828,59.93633295800828,62.72320970799774,left,1.0,2.7835028330009663,,62.723302917002,62.7296408330003,63.22229529199831,63.2271575830091,,,,,,,,,,,,,,,,,,,,,,,,,,,,,,,sub-058,1,random_dot,,
right,right,14.0,0.0,7.0,right,1.0,2.251328458005446,,,,,,7.0,0.0,14.0,1.0,,,,,,,,,63.2271575830091,,,,,,,,,63.22261545799847,63.333658500007004,64.12955766700907,64.11940858300659,64.11982550000539,64.12955766700907,64.12955766700907,64.12955766700907,66.3879765830061,right,1.0,2.251328458005446,,66.38806987499993,66.39504970800772,66.882189750002,66.90090995799983,,,,,,,,,,,,,,,,,,,,,,,,,,,,,,,sub-058,1,random_dot,,
left,left,15.0,1.0,7.0,left,1.0,2.180563540998264,,,,,,7.0,1.0,15.0,0.0,,,,,,,,,66.90090995799983,,,,,,,,,66.8825455000042,66.98762920800073,67.77891491699847,67.77195108300657,67.77237145800609,67.77891491699847,67.77891491699847,67.77891491699847,69.96835545799695,left,1.0,2.180563540998264,,69.96847583299677,69.9746963330108,70.47137574999942,,,,,,,,,,,,,,,,,,,,,,,,,,,,,,,,sub-058,1,random_dot,,
right,right,16.0,0.0,8.0,right,1.0,2.048057416002848,,,,,,8.0,0.0,16.0,1.0,,,,,,,,,70.47537549999834,,,,,,,,,70.47173366700008,71.66583245800575,72.45803645800333,72.44957525000791,72.45043833300588,72.45803645800333,72.45803645800333,72.45803645800333,74.51038037500985,right,1.0,2.048057416002848,,74.51048720799736,74.51716816700355,75.00263237500621,75.0148191670014,,,,,,,,,,,,,,,,,,,,,,,,,,,,,,,sub-058,1,random_dot,,
left,left,17.0,1.0,8.0,left,1.0,1.5618573329993524,,,,,,8.0,1.0,17.0,0.0,,,,,,,,,75.0148191670014,,,,,,,,,75.00292345799971,75.35766112500278,76.15341245800664,76.1464042919979,76.14677337500325,76.15341245800664,76.15341245800664,76.15341245800664,77.72116275000735,left,1.0,1.5618573329993524,,77.7212663750106,77.72842225000204,78.21280824999849,78.21778925000399,,,,,,,,,,,,,,,,,,,,,,,,,,,,,,,sub-058,1,random_dot,,
left,left,18.0,0.0,9.0,right,0.0,1.6655427079967922,,,,,,9.0,0.0,18.0,0.0,,,,,,,,,78.21778925000399,,,,,,,,,78.21310616700794,78.56180766700709,79.35625725000864,79.34846512500371,79.34932479199779,79.35625725000864,79.35625725000864,79.35625725000864,81.0312352500041,right,0.0,1.6655427079967922,,81.03371362500184,81.0414220829989,81.5256437920034,81.54717183300818,,,,,,,,,,,,,,,,,,,,,,,,,,,,,,,sub-058,1,random_dot,,
right,right,19.0,1.0,9.0,left,0.0,5.807618542006821,,,,,,9.0,1.0,19.0,1.0,,,,,,,,,81.54717183300818,,,,,,,,,81.5259986250021,82.74085395800648,83.55365229200106,83.53287774999626,83.5332177500095,83.55365229200106,83.55365229200106,83.55365229200106,89.3645263750077,left,0.0,5.807618542006821,,89.36462350000511,89.37444129200594,89.8677325000026,,88.53743195800052,,,,,,,,,,,,,,,,,,,,,,,,,,,,,,sub-058,1,random_dot,,
,,,,,,,,,,,,,,,,,,,,,,,,,,,,,,,,,,,,,,,,,,,,,,,,,,,,89.8678801250062,89.87405154200678,89.87405154200678,94.0263646250096,space,4.1388935829891125,,,,,,,,,,,,,,,,,,,,,,,,sub-058,1,random_dot,,
,,,,,,,,,,,,,,,,,,,,,,,,,,,,,,,,,,,,,,,,,,,,,,,,,,,,,,,,,,,94.02646004200506,94.0371756250097,94.0371756250097,100.6134141250077,space,6.564788374991622,,,,,,,,,,,,,,,,,sub-058,1,random_dot,,
left,left,0.0,0.0,0.0,right,0.0,5.788010875010514,,accuracy,space,3.234437667008024,,,,,,0.0,0.0,0.0,0.0,0.0,0.0,0.0,0.0,103.9059943750035,,,,,,,,,103.89770699999644,104.694476167002,105.49044424999738,105.4842990830075,105.48465641700022,105.49044424999738,105.49044424999738,105.49044424999738,111.2927178329992,,,,,,,,,110.48141083300288,,,,,,,,,,,,,,,100.63329129200427,100.64328866700816,100.64328866700816,103.89051537500929,space,3.234437667008024,,right,0.0,5.788010875010514,,,,,,sub-058,1,random_dot,,
right,right,1.0,1.0,0.0,right,1.0,5.2426678750052815,,accuracy,space,3.234437667008024,,,,,,0.0,0.0,0.0,0.0,0.0,1.0,1.0,1.0,111.2997527080006,,,,,,,,,111.29326566700183,111.39648741700512,112.18997683300404,112.18346700000984,112.18383079199702,112.18997683300404,112.18997683300404,112.18997683300404,117.44534775000648,,,,,,,,,117.17451633300516,,,,,,,,,,,,,,,,,,,,,,right,1.0,5.2426678750052815,,,,,,sub-058,1,random_dot,,
right,right,2.0,0.0,1.0,left,0.0,4.3348203750065295,,accuracy,space,3.234437667008024,,,,,,0.0,0.0,0.0,0.0,1.0,0.0,2.0,1.0,117.4538913330034,,,,,,,,,117.44613900000697,117.78275470800872,118.5846935419977,118.57740070800357,118.57799320800405,118.5846935419977,118.5846935419977,118.5846935419977,122.92595195800824,,,,,,,,,,,,,,,,,,,,,,,,,,,,,,,left,0.0,4.3348203750065295,,,,,,sub-058,1,random_dot,,
left,left,3.0,1.0,1.0,right,0.0,1.5895566670078551,,accuracy,space,3.234437667008024,,,,,,0.0,0.0,0.0,0.0,1.0,1.0,3.0,0.0,122.93305554200197,,,,,,,,,122.9263012080046,123.01528658300232,123.8287766249996,123.80721141700631,123.8075403749972,123.8287766249996,123.8287766249996,123.8287766249996,125.43008754200127,,,,,,,,,,,,,,,,,,,,,,,,,,,,,,,right,0.0,1.5895566670078551,,,,,,sub-058,1,random_dot,,
left,left,4.0,0.0,2.0,left,1.0,2.147034708003048,,accuracy,space,3.234437667008024,,,,,,0.0,0.0,0.0,0.0,2.0,0.0,4.0,0.0,125.43725191699924,,,,,,,,,125.43040316700352,126.6235030000098,127.41677991701,127.41019941700506,127.41064104200632,127.41677991701,127.41677991701,127.41677991701,129.5756307499978,,,,,,,,,,,,,,,,,,,,,,,,,,,,,,,left,1.0,2.147034708003048,,,,,,sub-058,1,random_dot,,
right,right,5.0,1.0,2.0,right,1.0,2.110331041010795,,accuracy,space,3.234437667008024,,,,,,0.0,0.0,0.0,0.0,2.0,1.0,5.0,1.0,129.582304208001,,,,,,,,,129.5761153330095,130.37536179200106,131.1742142919975,131.1632934579975,131.16373945800296,131.1742142919975,131.1742142919975,131.1742142919975,133.28871983299905,,,,,,,,,,,,,,,,,,,,,,,,,,,,,,,right,1.0,2.110331041010795,,,,,,sub-058,1,random_dot,,
left,left,6.0,0.0,3.0,left,1.0,2.271069291004096,,accuracy,space,3.234437667008024,,,,,,0.0,0.0,0.0,0.0,3.0,0.0,6.0,0.0,133.29927362500166,,,,,,,,,133.28904450000846,134.48532420799893,135.28249145799782,135.27567658299813,135.27610770800675,135.28249145799782,135.28249145799782,135.28249145799782,137.5685054170026,,,,,,,,,,,,,,,,,,,,,,,,,,,,,,,left,1.0,2.271069291004096,,,,,,sub-058,1,random_dot,,
right,right,7.0,1.0,3.0,right,1.0,1.56874833299662,,accuracy,space,3.234437667008024,,,,,,0.0,0.0,0.0,0.0,3.0,1.0,7.0,1.0,137.57380808300513,,,,,,,,,137.56884520800668,137.9179217080091,138.7158885000099,138.70902020799986,138.7093997500051,138.7158885000099,138.7158885000099,138.7158885000099,140.28731075000542,,,,,,,,,,,,,,,,,,,,,,,,,,,,,,,right,1.0,1.56874833299662,,,,,,sub-058,1,random_dot,,
left,left,8.0,0.0,4.0,left,1.0,1.393220458005089,,accuracy,space,3.234437667008024,,,,,,0.0,0.0,0.0,0.0,4.0,0.0,8.0,0.0,140.29834904200106,,,,,,,,,140.28776491699682,141.50492700000177,142.2941906670021,142.28829362500983,142.2886434999964,142.2941906670021,142.2941906670021,142.2941906670021,143.68912941700546,,,,,,,,,,,,,,,,,,,,,,,,,,,,,,,left,1.0,1.393220458005089,,,,,,sub-058,1,random_dot,,
right,right,9.0,1.0,4.0,right,1.0,2.247181290993467,,accuracy,space,3.234437667008024,,,,,,0.0,0.0,0.0,0.0,4.0,1.0,9.0,1.0,143.7004294579965,,,,,,,,,143.6893879170093,144.48832375000347,145.28268620799645,145.27344237500802,145.27386183300405,145.28268620799645,145.28268620799645,145.28268620799645,147.5317492500035,,,,,,,,,,,,,,,,,,,,,,,,,,,,,,,right,1.0,2.247181290993467,,,,,,sub-058,1,random_dot,,
left,left,10.0,0.0,5.0,left,1.0,1.0770102910028072,,accuracy,space,3.234437667008024,,,,,,0.0,0.0,0.0,0.0,5.0,0.0,10.0,0.0,147.53851675000624,,,,,,,,,147.53208166699915,148.74850349999906,149.54655320799793,149.5319844170008,149.53241174999857,149.54655320799793,149.54655320799793,149.54655320799793,150.63631862500915,,,,,,,,,,,,,,,,,,,,,,,,,,,,,,,left,1.0,1.0770102910028072,,,,,,sub-058,1,random_dot,,
right,right,11.0,1.0,5.0,right,1.0,1.2808787500107428,,accuracy,space,3.234437667008024,,,,,,0.0,0.0,0.0,0.0,5.0,1.0,11.0,1.0,150.64083941699937,,,,,,,,,150.63660466700094,150.99075541700586,151.7825314170041,151.77486187500472,151.7752821250033,151.7825314170041,151.7825314170041,151.7825314170041,153.06847979199665,,,,,,,,,,,,,,,,,,,,,,,,,,,,,,,right,1.0,1.2808787500107428,,,,,,sub-058,1,random_dot,,
left,left,12.0,0.0,6.0,left,1.0,0.8479154579981696,,accuracy,space,3.234437667008024,,,,,,0.0,0.0,0.0,0.0,6.0,0.0,12.0,0.0,153.07518216699827,,,,,,,,,153.06880212500982,153.1636979580071,153.9655666250037,153.95835658301075,153.95878850000736,153.9655666250037,153.9655666250037,153.9655666250037,154.8247355420026,,,,,,,,,,,,,,,,,,,,,,,,,,,,,,,left,1.0,0.8479154579981696,,,,,,sub-058,1,random_dot,,
right,right,13.0,1.0,6.0,right,1.0,0.9188850410137092,,accuracy,space,3.234437667008024,,,,,,0.0,0.0,0.0,0.0,6.0,1.0,13.0,1.0,154.83202716700907,,,,,,,,,154.82512045800104,155.61686249999912,156.42396041699976,156.41683612500492,156.41725716700603,156.42396041699976,156.42396041699976,156.42396041699976,157.34772887500003,,,,,,,,,,,,,,,,,,,,,,,,,,,,,,,right,1.0,0.9188850410137092,,,,,,sub-058,1,random_dot,,
right,right,14.0,0.0,7.0,left,0.0,0.8126798330049496,,accuracy,space,3.234437667008024,,,,,,0.0,0.0,0.0,0.0,7.0,0.0,14.0,1.0,157.35813175000658,,,,,,,,,157.34809100000712,157.4374533329974,158.2364648750081,158.2293993330095,158.22980908300087,158.2364648750081,158.2364648750081,158.2364648750081,159.0521464170015,,,,,,,,,,,,,,,,,,,,,,,,,,,,,,,left,0.0,0.8126798330049496,,,,,,sub-058,1,random_dot,,
left,left,15.0,1.0,7.0,right,0.0,1.7280112080043182,,accuracy,space,3.234437667008024,,,,,,0.0,0.0,0.0,0.0,7.0,1.0,15.0,0.0,159.05880066700047,,,,,,,,,159.05245862501033,159.41152816700924,160.20596691699757,160.19881741699646,160.1992019169993,160.20596691699757,160.20596691699757,160.20596691699757,161.9368760829966,,,,,,,,,,,,,,,,,,,,,,,,,,,,,,,right,0.0,1.7280112080043182,,,,,,sub-058,1,random_dot,,
left,left,16.0,0.0,8.0,right,0.0,5.682180249990779,,accuracy,space,3.234437667008024,,,,,,0.0,0.0,0.0,0.0,8.0,0.0,16.0,0.0,161.94803712501016,,,,,,,,,161.9372982920031,163.13822320800682,163.92863145800948,163.92134087500744,163.92176908299734,163.92863145800948,163.92863145800948,163.92863145800948,169.6144532920007,,,,,,,,,168.919714750009,,,,,,,,,,,,,,,,,,,,,,right,0.0,5.682180249990779,,,,,,sub-058,1,random_dot,,
right,right,17.0,1.0,8.0,left,0.0,1.229728124992107,,accuracy,space,3.234437667008024,,,,,,0.0,0.0,0.0,0.0,8.0,1.0,17.0,1.0,169.62084904201038,,,,,,,,,169.61479237501044,169.71338887501042,170.51626454200596,170.5089229169971,170.50936362500943,170.51626454200596,170.51626454200596,170.51626454200596,171.7510231250053,,,,,,,,,,,,,,,,,,,,,,,,,,,,,,,left,0.0,1.229728124992107,,,,,,sub-058,1,random_dot,,
right,right,18.0,0.0,9.0,left,0.0,1.7740735830011545,,accuracy,space,3.234437667008024,,,,,,0.0,0.0,0.0,0.0,9.0,0.0,18.0,1.0,171.758050000004,,,,,,,,,171.75133058300707,172.09575283300364,172.88675508300366,172.8809174170019,172.88136104200385,172.88675508300366,172.88675508300366,172.88675508300366,174.66386862500804,,,,,,,,,,,,,,,,,,,,,,,,,,,,,,,left,0.0,1.7740735830011545,,,,,,sub-058,1,random_dot,,
left,left,19.0,1.0,9.0,left,1.0,1.2903323749924311,,accuracy,space,3.234437667008024,,,,,,0.0,0.0,0.0,0.0,9.0,1.0,19.0,0.0,174.67050979200576,,,,,,,,,174.66438058300992,175.47203445799823,176.2751251669979,176.26774466699862,176.26818008300324,176.2751251669979,176.2751251669979,176.2751251669979,177.56853070799843,,,,,,,,,,,,,,,,,,,,,,,,,,,,,,,left,1.0,1.2903323749924311,,,,,,sub-058,1,random_dot,,
right,right,20.0,0.0,10.0,left,0.0,1.276729916993645,,accuracy,space,3.234437667008024,,,,,,0.0,0.0,0.0,0.0,10.0,0.0,20.0,1.0,177.5748917919991,,,,,,,,,177.56890541700704,178.36598537499958,179.1655966249964,179.15346279200458,179.15381816700392,179.1655966249964,179.1655966249964,179.1655966249964,180.45126462500772,,,,,,,,,,,,,,,,,,,,,,,,,,,,,,,left,0.0,1.276729916993645,,,,,,sub-058,1,random_dot,,
left,left,21.0,1.0,10.0,right,0.0,1.4905090000102064,,accuracy,space,3.234437667008024,,,,,,0.0,0.0,0.0,0.0,10.0,1.0,21.0,0.0,180.45883004200005,,,,,,,,,180.4517297499988,181.653768958,182.44834149999951,182.4418203329988,182.4422905829997,182.44834149999951,182.44834149999951,182.44834149999951,183.94174175000808,,,,,,,,,,,,,,,,,,,,,,,,,,,,,,,right,0.0,1.4905090000102064,,,,,,sub-058,1,random_dot,,
right,right,22.0,0.0,11.0,right,1.0,0.9985537500033388,,accuracy,space,3.234437667008024,,,,,,0.0,0.0,0.0,0.0,11.0,0.0,22.0,1.0,183.95271908299765,,,,,,,,,183.94217795800068,184.28910520800852,185.07889529199747,185.0723421669973,185.0727305420005,185.07889529199747,185.07889529199747,185.07889529199747,186.07966925000076,,,,,,,,,,,,,,,,,,,,,,,,,,,,,,,right,1.0,0.9985537500033388,,,,,,sub-058,1,random_dot,,
left,left,23.0,1.0,11.0,right,0.0,1.3139874170010444,,accuracy,space,3.234437667008024,,,,,,0.0,0.0,0.0,0.0,11.0,1.0,23.0,0.0,186.08984987500295,,,,,,,,,186.0800326250028,186.19496945801075,186.99109062500065,186.9843220420007,186.9847780830023,186.99109062500065,186.99109062500065,186.99109062500065,188.3223164579977,,,,,,,,,,,,,,,,,,,,,,,,,,,,,,,right,0.0,1.3139874170010444,,,,,,sub-058,1,random_dot,,
right,right,24.0,0.0,12.0,right,1.0,1.6675130420044295,,accuracy,space,3.234437667008024,,,,,,0.0,0.0,0.0,0.0,12.0,0.0,24.0,1.0,188.32974058300897,,,,,,,,,188.3227146670106,188.6616394169978,189.46105812500173,189.4540848750039,189.4545275420096,189.46105812500173,189.46105812500173,189.46105812500173,191.13428016701076,,,,,,,,,,,,,,,,,,,,,,,,,,,,,,,right,1.0,1.6675130420044295,,,,,,sub-058,1,random_dot,,
left,left,25.0,1.0,12.0,left,1.0,1.099614083999768,,accuracy,space,3.234437667008024,,,,,,0.0,0.0,0.0,0.0,12.0,1.0,25.0,0.0,191.14162979200773,,,,,,,,,191.13475470800768,191.50163479200276,192.2931868330052,192.28683054199792,192.28725212501013,192.2931868330052,192.2931868330052,192.2931868330052,193.4001743330009,,,,,,,,,,,,,,,,,,,,,,,,,,,,,,,left,1.0,1.099614083999768,,,,,,sub-058,1,random_dot,,
left,left,26.0,0.0,13.0,left,1.0,1.161990832988522,,accuracy,space,3.234437667008024,,,,,,0.0,0.0,0.0,0.0,13.0,0.0,26.0,0.0,193.40921250000247,,,,,,,,,193.40044608300377,193.4952912500012,194.29052266699728,194.2841814580024,194.28450091699776,194.29052266699728,194.29052266699728,194.29052266699728,195.45620858299665,,,,,,,,,,,,,,,,,,,,,,,,,,,,,,,left,1.0,1.161990832988522,,,,,,sub-058,1,random_dot,,
right,right,27.0,1.0,13.0,right,1.0,1.0788145830010762,,accuracy,space,3.234437667008024,,,,,,0.0,0.0,0.0,0.0,13.0,1.0,27.0,1.0,195.4626654169988,,,,,,,,,195.45653666699943,196.26234937499976,197.07132562500192,197.06490408300303,197.0653008329973,197.07132562500192,197.07132562500192,197.07132562500192,198.16408562500143,,,,,,,,,,,,,,,,,,,,,,,,,,,,,,,right,1.0,1.0788145830010762,,,,,,sub-058,1,random_dot,,
right,right,28.0,0.0,14.0,left,0.0,1.2077191670105094,,accuracy,space,3.234437667008024,,,,,,0.0,0.0,0.0,0.0,14.0,0.0,28.0,1.0,198.17016333300853,,,,,,,,,198.16446345800068,198.5133716249984,199.3078744170052,199.3011395420035,199.3016050830047,199.3078744170052,199.3078744170052,199.3078744170052,200.5207340830093,,,,,,,,,,,,,,,,,,,,,,,,,,,,,,,left,0.0,1.2077191670105094,,,,,,sub-058,1,random_dot,,
left,left,29.0,1.0,14.0,left,1.0,1.5496707080019403,,accuracy,space,3.234437667008024,,,,,,0.0,0.0,0.0,0.0,14.0,1.0,29.0,0.0,200.5275947080081,,,,,,,,,200.52112012500584,200.8888187920093,201.68209133300115,201.67569066700528,201.67613341700053,201.68209133300115,201.68209133300115,201.68209133300115,203.24429470799805,,,,,,,,,,,,,,,,,,,,,,,,,,,,,,,left,1.0,1.5496707080019403,,,,,,sub-058,1,random_dot,,
right,right,30.0,0.0,15.0,right,1.0,0.9431861250050132,,accuracy,space,3.234437667008024,,,,,,0.0,0.0,0.0,0.0,15.0,0.0,30.0,1.0,203.25042475000373,,,,,,,,,203.24467008300417,204.44169641700864,205.2370116670063,205.22972754199876,205.2301400419965,205.2370116670063,205.2370116670063,205.2370116670063,206.18924950000653,,,,,,,,,,,,,,,,,,,,,,,,,,,,,,,right,1.0,0.9431861250050132,,,,,,sub-058,1,random_dot,,
left,left,31.0,1.0,15.0,left,1.0,1.0166062079952098,,accuracy,space,3.234437667008024,,,,,,0.0,0.0,0.0,0.0,15.0,1.0,31.0,0.0,206.1960122080054,,,,,,,,,206.18966791700225,206.2819075419975,207.0782310000068,207.0706223330053,207.0710772500024,207.0782310000068,207.0782310000068,207.0782310000068,208.10700191700016,,,,,,,,,,,,,,,,,,,,,,,,,,,,,,,left,1.0,1.0166062079952098,,,,,,sub-058,1,random_dot,,
left,left,32.0,0.0,16.0,right,0.0,0.8256255840096856,,accuracy,space,3.234437667008024,,,,,,0.0,0.0,0.0,0.0,16.0,0.0,32.0,0.0,208.11158737500955,,,,,,,,,208.1073122920061,209.3181164580019,210.112106917004,210.1045897080039,210.105526542,210.112106917004,210.112106917004,210.112106917004,210.9463478329999,,,,,,,,,,,,,,,,,,,,,,,,,,,,,,,right,0.0,0.8256255840096856,,,,,,sub-058,1,random_dot,,
right,right,33.0,1.0,16.0,left,0.0,1.600351624991163,,accuracy,space,3.234437667008024,,,,,,0.0,0.0,0.0,0.0,16.0,1.0,33.0,1.0,210.95527725000284,,,,,,,,,210.9466897079983,211.29685291700295,212.0897409169993,212.08346091699784,212.08379583300848,212.0897409169993,212.0897409169993,212.0897409169993,213.69259191700257,,,,,,,,,,,,,,,,,,,,,,,,,,,,,,,left,0.0,1.600351624991163,,,,,,sub-058,1,random_dot,,
left,left,34.0,0.0,17.0,left,1.0,1.6295102089934517,,accuracy,space,3.234437667008024,,,,,,0.0,0.0,0.0,0.0,17.0,0.0,34.0,0.0,213.69920616700256,,,,,,,,,213.6929882920085,213.79447875000187,214.5912271249981,214.5841136250092,214.5845567080105,214.5912271249981,214.5912271249981,214.5912271249981,216.23507579200668,,,,,,,,,,,,,,,,,,,,,,,,,,,,,,,left,1.0,1.6295102089934517,,,,,,sub-058,1,random_dot,,
right,right,35.0,1.0,17.0,right,1.0,0.8149321249948116,,accuracy,space,3.234437667008024,,,,,,0.0,0.0,0.0,0.0,17.0,1.0,35.0,1.0,216.24244887499663,,,,,,,,,216.2354472080042,217.03203295799904,217.82415949999995,217.81548733300588,217.8163046670088,217.82415949999995,217.82415949999995,217.82415949999995,218.64158383299943,,,,,,,,,,,,,,,,,,,,,,,,,,,,,,,right,1.0,0.8149321249948116,,,,,,sub-058,1,random_dot,,
left,left,36.0,0.0,18.0,left,1.0,0.8992434160027187,,accuracy,space,3.234437667008024,,,,,,0.0,0.0,0.0,0.0,18.0,0.0,36.0,0.0,218.65308554199876,,,,,,,,,218.6419042500056,219.4483980829973,220.24991262500407,220.2414713330072,220.24232783300977,220.24991262500407,220.24991262500407,220.24991262500407,221.15458204199967,,,,,,,,,,,,,,,,,,,,,,,,,,,,,,,left,1.0,0.8992434160027187,,,,,,sub-058,1,random_dot,,
right,right,37.0,1.0,18.0,left,0.0,3.1745232079993,,accuracy,space,3.234437667008024,,,,,,0.0,0.0,0.0,0.0,18.0,1.0,37.0,1.0,221.1646389170055,,,,,,,,,221.15495525000733,222.3493194170005,223.14905254200855,223.1417613329977,223.1421910420031,223.14905254200855,223.14905254200855,223.14905254200855,226.3254647499998,,,,,,,,,,,,,,,,,,,,,,,,,,,,,,,left,0.0,3.1745232079993,,,,,,sub-058,1,random_dot,,
left,left,38.0,0.0,19.0,right,0.0,1.5464019999926677,,accuracy,space,3.234437667008024,,,,,,0.0,0.0,0.0,0.0,19.0,0.0,38.0,0.0,226.3365972080064,,,,,,,,,226.32588545800536,227.51837116701063,228.31830795800488,228.3109319580108,228.31137229200976,228.31830795800488,228.31830795800488,228.31830795800488,229.86818591700285,,,,,,,,,,,,,,,,,,,,,,,,,,,,,,,right,0.0,1.5464019999926677,,,,,,sub-058,1,random_dot,,
right,right,39.0,1.0,19.0,right,1.0,1.0118851250008447,,accuracy,space,3.234437667008024,,,,,,0.0,0.0,0.0,0.0,19.0,1.0,39.0,1.0,229.8747638750065,,,,,,,,,229.86851233300692,229.95720241700477,230.7654639579996,230.7563519999967,230.75798329200188,230.7654639579996,230.7654639579996,230.7654639579996,231.77918037500055,,,,,,,,,,,,,,,,,,,,,,,,,,,,,,,right,1.0,1.0118851250008447,,,,,,sub-058,1,random_dot,,
left,left,40.0,0.0,20.0,right,0.0,0.8423029589903308,,accuracy,space,3.234437667008024,,,,,,0.0,0.0,0.0,0.0,20.0,0.0,40.0,0.0,231.78606166700771,,,,,,,,,231.77947150000543,231.8952029580105,232.69525575000443,232.68842649999715,232.68881245800003,232.69525575000443,232.69525575000443,232.69525575000443,233.5470167919993,,,,,,,,,,,,,,,,,,,,,,,,,,,,,,,right,0.0,0.8423029589903308,,,,,,sub-058,1,random_dot,,
right,right,41.0,1.0,20.0,right,1.0,0.9972685410029952,,accuracy,space,3.234437667008024,,,,,,0.0,0.0,0.0,0.0,20.0,1.0,41.0,1.0,233.55133750000093,,,,,,,,,233.5473108330043,234.7465154579986,235.5545967920043,235.54765708300687,235.5480568750063,235.5545967920043,235.5545967920043,235.5545967920043,236.56763125,,,,,,,,,,,,,,,,,,,,,,,,,,,,,,,right,1.0,0.9972685410029952,,,,,,sub-058,1,random_dot,,
right,right,42.0,0.0,21.0,right,1.0,1.027001582988305,,accuracy,space,3.234437667008024,,,,,,0.0,0.0,0.0,0.0,21.0,0.0,42.0,1.0,236.5749287920044,,,,,,,,,236.56794870800516,236.66689600000973,237.474575041997,237.4529951250006,237.45336304200464,237.474575041997,237.474575041997,237.474575041997,238.5060289170069,,,,,,,,,,,,,,,,,,,,,,,,,,,,,,,right,1.0,1.027001582988305,,,,,,sub-058,1,random_dot,,
left,left,43.0,1.0,21.0,left,1.0,2.225331459005247,,accuracy,space,3.234437667008024,,,,,,0.0,0.0,0.0,0.0,21.0,1.0,43.0,0.0,238.5176102920086,,,,,,,,,238.5063327079988,238.85099358300795,239.64398695800628,239.63725887500917,239.6376763750013,239.64398695800628,239.64398695800628,239.64398695800628,241.87784129200736,,,,,,,,,,,,,,,,,,,,,,,,,,,,,,,left,1.0,2.225331459005247,,,,,,sub-058,1,random_dot,,
right,right,44.0,0.0,22.0,right,1.0,1.022645625009318,,accuracy,space,3.234437667008024,,,,,,0.0,0.0,0.0,0.0,22.0,0.0,44.0,1.0,241.8847402920073,,,,,,,,,241.8781184170075,243.07403462500952,243.8683741249988,243.8610639170074,243.8619200420071,243.8683741249988,243.8683741249988,243.8683741249988,244.8970189170068,,,,,,,,,,,,,,,,,,,,,,,,,,,,,,,right,1.0,1.022645625009318,,,,,,sub-058,1,random_dot,,
left,left,45.0,1.0,22.0,left,1.0,0.853640458008158,,accuracy,space,3.234437667008024,,,,,,0.0,0.0,0.0,0.0,22.0,1.0,45.0,0.0,244.9036599999963,,,,,,,,,244.89729041700772,245.70977058300923,246.5184185420076,246.4939605420077,246.4946548330045,246.5184185420076,246.5184185420076,246.5184185420076,247.3746772500017,,,,,,,,,,,,,,,,,,,,,,,,,,,,,,,left,1.0,0.853640458008158,,,,,,sub-058,1,random_dot,,
left,left,46.0,0.0,23.0,left,1.0,1.876250583009096,,accuracy,space,3.234437667008024,,,,,,0.0,0.0,0.0,0.0,23.0,0.0,46.0,0.0,247.387016875,,,,,,,,,247.37499033300264,247.72468691700487,248.5241440829996,248.51148170800295,248.51185237499885,248.5241440829996,248.5241440829996,248.5241440829996,250.40863445799917,,,,,,,,,,,,,,,,,,,,,,,,,,,,,,,left,1.0,1.876250583009096,,,,,,sub-058,1,random_dot,,
right,right,47.0,1.0,23.0,right,1.0,5.443783791997703,,accuracy,space,3.234437667008024,,,,,,0.0,0.0,0.0,0.0,23.0,1.0,47.0,1.0,250.41340237500845,,,,,,,,,250.40895949999685,251.21525129200015,252.00793987500947,252.00118954200295,252.0016130830045,252.00793987500947,252.00793987500947,252.00793987500947,257.4622237500007,,,,,,,,,256.99079629199696,,,,,,,,,,,,,,,,,,,,,,right,1.0,5.443783791997703,,,,,,sub-058,1,random_dot,,
right,right,48.0,0.0,24.0,right,1.0,1.1139009170001373,,accuracy,space,3.234437667008024,,,,,,0.0,0.0,0.0,0.0,24.0,0.0,48.0,1.0,257.46974529200816,,,,,,,,,257.46281291700143,258.27168325000093,259.06426879200444,259.0572574999969,259.05765454200446,259.06426879200444,259.06426879200444,259.06426879200444,260.1797429169965,,,,,,,,,,,,,,,,,,,,,,,,,,,,,,,right,1.0,1.1139009170001373,,,,,,sub-058,1,random_dot,,
left,left,49.0,1.0,24.0,left,1.0,0.7163621669897111,,accuracy,space,3.234437667008024,,,,,,0.0,0.0,0.0,0.0,24.0,1.0,49.0,0.0,260.19011329200293,,,,,,,,,260.18012025000644,260.9720835830085,261.7660710420023,261.758798875002,261.7592006250052,261.7660710420023,261.7660710420023,261.7660710420023,262.48402345800423,,,,,,,,,,,,,,,,,,,,,,,,,,,,,,,left,1.0,0.7163621669897111,,,,,,sub-058,1,random_dot,,
right,right,50.0,0.0,25.0,left,0.0,1.316589791997103,,accuracy,space,3.234437667008024,,,,,,0.0,0.0,0.0,0.0,25.0,0.0,50.0,1.0,262.4909051249997,,,,,,,,,262.484421458008,262.599477708005,263.4002503329976,263.3940481669997,263.3944552500034,263.4002503329976,263.4002503329976,263.4002503329976,264.7262898330082,,,,,,,,,,,,,,,,,,,,,,,,,,,,,,,left,0.0,1.316589791997103,,,,,,sub-058,1,random_dot,,
left,left,51.0,1.0,25.0,left,1.0,1.256740583005012,,accuracy,space,3.234437667008024,,,,,,0.0,0.0,0.0,0.0,25.0,1.0,51.0,0.0,264.73360675000004,,,,,,,,,264.72659791700426,265.0689892079972,265.8782498329965,265.8706627500069,265.87169529200764,265.8782498329965,265.8782498329965,265.8782498329965,267.1461347500008,,,,,,,,,,,,,,,,,,,,,,,,,,,,,,,left,1.0,1.256740583005012,,,,,,sub-058,1,random_dot,,
left,left,52.0,0.0,26.0,left,1.0,1.014510707987938,,accuracy,space,3.234437667008024,,,,,,0.0,0.0,0.0,0.0,26.0,0.0,52.0,0.0,267.15199341700645,,,,,,,,,267.146344000008,268.35142775000713,269.14984600000025,269.1427651670092,269.1431991670106,269.14984600000025,269.14984600000025,269.14984600000025,270.16961450000235,,,,,,,,,,,,,,,,,,,,,,,,,,,,,,,left,1.0,1.014510707987938,,,,,,sub-058,1,random_dot,,
right,right,53.0,1.0,26.0,right,1.0,5.643031165993307,,accuracy,space,3.234437667008024,,,,,,0.0,0.0,0.0,0.0,26.0,1.0,53.0,1.0,270.17561508300423,,,,,,,,,270.1699120830017,271.3664806250017,272.1623249580007,272.1558033750043,272.1562447920005,272.1623249580007,272.1623249580007,272.1623249580007,277.8090620419971,,,,,,,,,277.14656045800075,,,,,,,,,,,,,,,,,,,,,,right,1.0,5.643031165993307,,,,,,sub-058,1,random_dot,,
right,right,54.0,0.0,27.0,right,1.0,3.803708499995992,,accuracy,space,3.234437667008024,,,,,,0.0,0.0,0.0,0.0,27.0,0.0,54.0,1.0,277.81883441700484,,,,,,,,,277.809664875007,277.9116709579976,278.722408792004,278.7000407500018,278.7004003750044,278.722408792004,278.722408792004,278.722408792004,282.53490458300803,,,,,,,,,,,,,,,,,,,,,,,,,,,,,,,right,1.0,3.803708499995992,,,,,,sub-058,1,random_dot,,
left,left,55.0,1.0,27.0,left,1.0,1.6467997919971822,,accuracy,space,3.234437667008024,,,,,,0.0,0.0,0.0,0.0,27.0,1.0,55.0,0.0,282.5449886249989,,,,,,,,,282.53536170799634,283.33766679200926,284.1324276670057,284.12573183300265,284.1261217080028,284.1324276670057,284.1324276670057,284.1324276670057,285.7865971249994,,,,,,,,,,,,,,,,,,,,,,,,,,,,,,,left,1.0,1.6467997919971822,,,,,,sub-058,1,random_dot,,
left,left,56.0,0.0,28.0,left,1.0,1.707626707997406,,accuracy,space,3.234437667008024,,,,,,0.0,0.0,0.0,0.0,28.0,0.0,56.0,0.0,285.80945091700414,,,,,,,,,285.7870777920034,285.8752542919974,286.67503804199805,286.66773591699894,286.6681641250034,286.67503804199805,286.67503804199805,286.67503804199805,288.3935627500032,,,,,,,,,,,,,,,,,,,,,,,,,,,,,,,left,1.0,1.707626707997406,,,,,,sub-058,1,random_dot,,
right,right,57.0,1.0,28.0,left,0.0,2.347282791990437,,accuracy,space,3.234437667008024,,,,,,0.0,0.0,0.0,0.0,28.0,1.0,57.0,1.0,288.3993582920084,,,,,,,,,288.39384099999734,289.5919197080075,290.39958404201025,290.3931499169994,290.39354629200534,290.39958404201025,290.39958404201025,290.39958404201025,292.75023795799643,,,,,,,,,,,,,,,,,,,,,,,,,,,,,,,left,0.0,2.347282791990437,,,,,,sub-058,1,random_dot,,
right,right,58.0,0.0,29.0,right,1.0,0.8745666250033537,,accuracy,space,3.234437667008024,,,,,,0.0,0.0,0.0,0.0,29.0,0.0,58.0,1.0,292.7551318330079,,,,,,,,,292.75051329200505,292.86155133300053,293.6611639170005,293.6537965000025,293.6543592079979,293.6611639170005,293.6611639170005,293.6611639170005,294.54082387500966,,,,,,,,,,,,,,,,,,,,,,,,,,,,,,,right,1.0,0.8745666250033537,,,,,,sub-058,1,random_dot,,
left,left,59.0,1.0,29.0,left,1.0,0.7767920420010341,,accuracy,space,3.234437667008024,,,,,,0.0,0.0,0.0,0.0,29.0,1.0,59.0,0.0,294.55003150000994,,,,,,,,,294.54127724999853,295.74993945800816,296.5494071669964,296.53712812499725,296.5375572080084,296.5494071669964,296.5494071669964,296.5494071669964,297.3308410419995,,,,,,,,,,,,,,,,,,,,,,,,,,,,,,,left,1.0,0.7767920420010341,,,,,,sub-058,1,random_dot,,
,,0.0,0.0,0.0,,,,,accuracy,space,3.234437667008024,,,,,,0.0,0.0,0.0,0.0,,,,,,,,,,,,,,,,,,,,,,,,,,,,,,,,,,,,,,,,,,,,,,,,,,,,,,,,,,,,,sub-058,1,random_dot,,
right,right,0.0,0.0,0.0,right,1.0,0.998041667000507,,speed,space,4.952375292006764,,,,,,0.0,1.0,1.0,1.0,0.0,0.0,0.0,1.0,302.3189510000084,,,,,,,,,302.3103232919966,303.09442704200046,303.8961562080076,303.8897244999971,303.8901987499994,303.8961562080076,303.8961562080076,303.8961562080076,304.89743891700346,,,,,,,,,,,,,,,,,,,,,,,,297.3417200420081,297.3480562920013,297.3480562920013,302.3026328749984,space,4.952375292006764,,right,1.0,0.998041667000507,,,,,,sub-058,1,random_dot,,
left,left,1.0,1.0,0.0,left,1.0,0.5308275830029743,,speed,space,4.952375292006764,,,,,,0.0,1.0,1.0,1.0,0.0,1.0,1.0,0.0,304.9041157920001,,,,,,,,,304.89772737500607,305.6872835420072,306.4787420000066,306.47240554200835,306.4728236670053,306.4787420000066,306.4787420000066,306.4787420000066,307.01115104201017,,,,,,,,,,,,,,,,,,,,,,,,,,,,,,,left,1.0,0.5308275830029743,,,,,,sub-058,1,random_dot,,
left,left,2.0,0.0,1.0,right,0.0,1.3598344170022756,,speed,space,4.952375292006764,,,,,,0.0,1.0,1.0,1.0,1.0,0.0,2.0,0.0,307.0179102920083,,,,,,,,,307.0114686669985,307.35552933299914,308.15074925000954,308.1454037079966,308.1456817080034,308.15074925000954,308.15074925000954,308.15074925000954,309.51546962501016,,,,,,,,,,,,,,,,,,,,,,,,,,,,,,,right,0.0,1.3598344170022756,,,,,,sub-058,1,random_dot,,
right,right,3.0,1.0,1.0,left,0.0,0.7747465420106892,,speed,space,4.952375292006764,,,,,,0.0,1.0,1.0,1.0,1.0,1.0,3.0,1.0,309.5223699580092,,,,,,,,,309.51577458300744,309.610071957999,310.41146329201,310.40475375000096,310.40515479200985,310.41146329201,310.41146329201,310.41146329201,311.1879968330031,,,,,,,,,,,,,,,,,,,,,,,,,,,,,,,left,0.0,0.7747465420106892,,,,,,sub-058,1,random_dot,,
left,left,4.0,0.0,2.0,right,0.0,0.6737531249964377,,speed,space,4.952375292006764,,,,,,0.0,1.0,1.0,1.0,2.0,0.0,4.0,0.0,311.1958447920042,,,,,,,,,311.18843583299895,312.3780427080055,313.1863497919985,313.17981337499805,313.1802074580046,313.1863497919985,313.1863497919985,313.1863497919985,313.86466612500953,,,,,,,,,,,,,,,,,,,,,,,,,,,,,,,right,0.0,0.6737531249964377,,,,,,sub-058,1,random_dot,,
right,right,5.0,1.0,2.0,left,0.0,0.7519281660061097,,speed,space,4.952375292006764,,,,,,0.0,1.0,1.0,1.0,2.0,1.0,5.0,1.0,313.8716550000099,,,,,,,,,313.8650524580007,315.0713916250097,315.8633318330103,315.8574511670013,315.85809787501057,315.8633318330103,315.8633318330103,315.8633318330103,316.6204805830057,,,,,,,,,,,,,,,,,,,,,,,,,,,,,,,left,0.0,0.7519281660061097,,,,,,sub-058,1,random_dot,,
right,right,6.0,0.0,3.0,right,1.0,2.524544375002733,,speed,space,4.952375292006764,,,,,,0.0,1.0,1.0,1.0,3.0,0.0,6.0,1.0,316.62780254200334,,,,,,,,,316.6210681250086,317.8305048330076,318.63194125000155,318.62537929200334,318.62577783300367,318.63194125000155,318.63194125000155,318.63194125000155,321.1591464170051,,,,,,,,,,,,,,,,,,,,,,,,,,,,,,,right,1.0,2.524544375002733,,,,,,sub-058,1,random_dot,,
left,left,7.0,1.0,3.0,right,0.0,1.2633300419984153,,speed,space,4.952375292006764,,,,,,0.0,1.0,1.0,1.0,3.0,1.0,7.0,0.0,321.165876708008,,,,,,,,,321.1595270000107,321.9765751250088,322.7696930000093,322.7635030000092,322.7638424580073,322.7696930000093,322.7696930000093,322.7696930000093,324.0350387080107,,,,,,,,,,,,,,,,,,,,,,,,,,,,,,,right,0.0,1.2633300419984153,,,,,,sub-058,1,random_dot,,
left,left,8.0,0.0,4.0,left,1.0,0.8325127499992959,,speed,space,4.952375292006764,,,,,,0.0,1.0,1.0,1.0,4.0,0.0,8.0,0.0,324.0422944580059,,,,,,,,,324.0354836250044,324.13220283300325,324.9239646250062,324.9174351249967,324.91784337500576,324.9239646250062,324.9239646250062,324.9239646250062,325.76118141700863,,,,,,,,,,,,,,,,,,,,,,,,,,,,,,,left,1.0,0.8325127499992959,,,,,,sub-058,1,random_dot,,
right,right,9.0,1.0,4.0,left,0.0,0.8216684159997385,,speed,space,4.952375292006764,,,,,,0.0,1.0,1.0,1.0,4.0,1.0,9.0,1.0,325.7679681669979,,,,,,,,,325.76153308300127,326.1073806670029,326.89752170800057,326.89176962499914,326.89216016700084,326.89752170800057,326.89752170800057,326.89752170800057,327.72265762501047,,,,,,,,,,,,,,,,,,,,,,,,,,,,,,,left,0.0,0.8216684159997385,,,,,,sub-058,1,random_dot,,
right,right,10.0,0.0,5.0,left,0.0,0.8760460000048624,,speed,space,4.952375292006764,,,,,,0.0,1.0,1.0,1.0,5.0,0.0,10.0,1.0,327.72956204200455,,,,,,,,,327.72295120800845,327.82265016699967,328.6242862920044,328.6175463749969,328.6179122080066,328.6242862920044,328.6242862920044,328.6242862920044,329.5080163329985,,,,,,,,,,,,,,,,,,,,,,,,,,,,,,,left,0.0,0.8760460000048624,,,,,,sub-058,1,random_dot,,
left,left,11.0,1.0,5.0,right,0.0,1.4272852499998407,,speed,space,4.952375292006764,,,,,,0.0,1.0,1.0,1.0,5.0,1.0,11.0,0.0,329.51186470800894,,,,,,,,,329.5082872080093,330.70784066700435,331.5074998330092,331.49473391700303,331.4951513330016,331.5074998330092,331.5074998330092,331.5074998330092,332.95098233300087,,,,,,,,,,,,,,,,,,,,,,,,,,,,,,,right,0.0,1.4272852499998407,,,,,,sub-058,1,random_dot,,
right,right,12.0,0.0,6.0,left,0.0,0.6735495419998188,,speed,space,4.952375292006764,,,,,,0.0,1.0,1.0,1.0,6.0,0.0,12.0,1.0,332.9581916669995,,,,,,,,,332.9514441250067,334.1407445829973,334.93675362500653,334.9241484170052,334.9245050000027,334.93675362500653,334.93675362500653,334.93675362500653,335.6189857499994,,,,,,,,,,,,,,,,,,,,,,,,,,,,,,,left,0.0,0.6735495419998188,,,,,,sub-058,1,random_dot,,
left,left,13.0,1.0,6.0,left,1.0,1.1690984169981675,,speed,space,4.952375292006764,,,,,,0.0,1.0,1.0,1.0,6.0,1.0,13.0,0.0,335.6224408749986,,,,,,,,,335.61926833300095,336.4173361249996,337.2169987500092,337.20968716700736,337.21012520800286,337.2169987500092,337.2169987500092,337.2169987500092,338.3942299170012,,,,,,,,,,,,,,,,,,,,,,,,,,,,,,,left,1.0,1.1690984169981675,,,,,,sub-058,1,random_dot,,
right,right,14.0,0.0,7.0,left,0.0,0.8212595840013819,,speed,space,4.952375292006764,,,,,,0.0,1.0,1.0,1.0,7.0,0.0,14.0,1.0,338.3999731250078,,,,,,,,,338.39460279200284,338.7458283330052,339.5491946670081,339.5287154580001,339.5291402080038,339.5491946670081,339.5491946670081,339.5491946670081,340.37560650000523,,,,,,,,,,,,,,,,,,,,,,,,,,,,,,,left,0.0,0.8212595840013819,,,,,,sub-058,1,random_dot,,
left,left,15.0,1.0,7.0,left,1.0,0.8183412079961272,,speed,space,4.952375292006764,,,,,,0.0,1.0,1.0,1.0,7.0,1.0,15.0,0.0,340.3809501250071,,,,,,,,,340.3759144170035,340.717795250006,341.5163035000005,341.5019309580093,341.5023429580033,341.5163035000005,341.5163035000005,341.5163035000005,342.33905462500115,,,,,,,,,,,,,,,,,,,,,,,,,,,,,,,left,1.0,0.8183412079961272,,,,,,sub-058,1,random_dot,,
left,left,16.0,0.0,8.0,right,0.0,0.541596249997383,,speed,space,4.952375292006764,,,,,,0.0,1.0,1.0,1.0,8.0,0.0,16.0,0.0,342.3456748750032,,,,,,,,,342.33931895800924,343.5338142920082,344.3284421249991,344.3168220420048,344.3172006250097,344.3284421249991,344.3284421249991,344.3284421249991,344.87167658300314,,,,,,,,,,,,,,,,,,,,,,,,,,,,,,,right,0.0,0.541596249997383,,,,,,sub-058,1,random_dot,,
right,right,17.0,1.0,8.0,right,1.0,1.2182354159886015,,speed,space,4.952375292006764,,,,,,0.0,1.0,1.0,1.0,8.0,1.0,17.0,1.0,344.8789515420067,,,,,,,,,344.87210049999703,344.9872102500085,345.782792500002,345.77067300000635,345.771078167003,345.782792500002,345.782792500002,345.782792500002,347.0041499170038,,,,,,,,,,,,,,,,,,,,,,,,,,,,,,,right,1.0,1.2182354159886015,,,,,,sub-058,1,random_dot,,
right,right,18.0,0.0,9.0,left,0.0,0.8768752089963527,,speed,space,4.952375292006764,,,,,,0.0,1.0,1.0,1.0,9.0,0.0,18.0,1.0,347.01148983300664,,,,,,,,,347.0046253330074,348.1993814169982,349.0039357920032,348.9974234580004,348.9978062500013,349.0039357920032,349.0039357920032,349.0039357920032,349.89000875000784,,,,,,,,,,,,,,,,,,,,,,,,,,,,,,,left,0.0,0.8768752089963527,,,,,,sub-058,1,random_dot,,
left,left,19.0,1.0,9.0,left,1.0,0.7792065829999046,,speed,space,4.952375292006764,,,,,,0.0,1.0,1.0,1.0,9.0,1.0,19.0,0.0,349.89477745800104,,,,,,,,,349.8903054580005,350.2284409170097,351.02024666700163,351.0131567500066,351.0135843750031,351.02024666700163,351.02024666700163,351.02024666700163,351.80099637500825,,,,,,,,,,,,,,,,,,,,,,,,,,,,,,,left,1.0,0.7792065829999046,,,,,,sub-058,1,random_dot,,
left,left,20.0,0.0,10.0,left,1.0,0.8447099579934729,,speed,space,4.952375292006764,,,,,,0.0,1.0,1.0,1.0,10.0,0.0,20.0,0.0,351.80766612500884,,,,,,,,,351.8014036670065,352.14926120800374,352.9462502920069,352.93947854200087,352.9398734580027,352.9462502920069,352.9462502920069,352.9462502920069,353.80962533300044,,,,,,,,,,,,,,,,,,,,,,,,,,,,,,,left,1.0,0.8447099579934729,,,,,,sub-058,1,random_dot,,
right,right,21.0,1.0,10.0,left,0.0,0.7744840000086697,,speed,space,4.952375292006764,,,,,,0.0,1.0,1.0,1.0,10.0,1.0,21.0,1.0,353.8170788749994,,,,,,,,,353.81000062500243,353.89675541700854,354.6948005000013,354.68732366700715,354.68773879201035,354.6948005000013,354.6948005000013,354.6948005000013,355.47842908299936,,,,,,,,,,,,,,,,,,,,,,,,,,,,,,,left,0.0,0.7744840000086697,,,,,,sub-058,1,random_dot,,
left,left,22.0,0.0,11.0,left,1.0,2.339969458989799,,speed,space,4.952375292006764,,,,,,0.0,1.0,1.0,1.0,11.0,0.0,22.0,0.0,355.48727541700646,,,,,,,,,355.4786871250108,356.6816306249966,357.48230170800525,357.47514395799953,357.4755860419973,357.48230170800525,357.48230170800525,357.48230170800525,359.8372199169971,,,,,,,,,,,,,,,,,,,,,,,,,,,,,,,left,1.0,2.339969458989799,,,,,,sub-058,1,random_dot,,
right,right,23.0,1.0,11.0,right,1.0,1.0937396670051385,,speed,space,4.952375292006764,,,,,,0.0,1.0,1.0,1.0,11.0,1.0,23.0,1.0,359.84451729200373,,,,,,,,,359.8376024580066,360.1776979580027,360.9835391670058,360.9624567499996,360.96282066700223,360.9835391670058,360.9835391670058,360.9835391670058,362.085439750008,,,,,,,,,,,,,,,,,,,,,,,,,,,,,,,right,1.0,1.0937396670051385,,,,,,sub-058,1,random_dot,,
left,left,24.0,0.0,12.0,left,1.0,0.8262307499971939,,speed,space,4.952375292006764,,,,,,0.0,1.0,1.0,1.0,12.0,0.0,24.0,0.0,362.0917321250017,,,,,,,,,362.08589812500577,362.1730755000026,362.9806518749974,362.97347458300646,362.97391929200967,362.9806518749974,362.9806518749974,362.9806518749974,363.8141723330045,,,,,,,,,,,,,,,,,,,,,,,,,,,,,,,left,1.0,0.8262307499971939,,,,,,sub-058,1,random_dot,,
right,right,25.0,1.0,12.0,left,0.0,2.652917083003558,,speed,space,4.952375292006764,,,,,,0.0,1.0,1.0,1.0,12.0,1.0,25.0,1.0,363.8207913750084,,,,,,,,,363.8144750420033,364.1637918330089,364.95317929200246,364.9468638749968,364.9472447500011,364.95317929200246,364.95317929200246,364.95317929200246,367.61104783300834,,,,,,,,,,,,,,,,,,,,,,,,,,,,,,,left,0.0,2.652917083003558,,,,,,sub-058,1,random_dot,,
left,left,26.0,0.0,13.0,left,1.0,1.3955037090054248,,speed,space,4.952375292006764,,,,,,0.0,1.0,1.0,1.0,13.0,0.0,26.0,0.0,367.62148812500527,,,,,,,,,367.6114018750086,368.8126774170087,369.6087331250019,369.5955325420073,369.5959065420029,369.6087331250019,369.6087331250019,369.6087331250019,371.0097311249992,,,,,,,,,,,,,,,,,,,,,,,,,,,,,,,left,1.0,1.3955037090054248,,,,,,sub-058,1,random_dot,,
right,right,27.0,1.0,13.0,left,0.0,1.0100890000030631,,speed,space,4.952375292006764,,,,,,0.0,1.0,1.0,1.0,13.0,1.0,27.0,1.0,371.0170593329967,,,,,,,,,371.0101116669976,372.2028271669988,372.9945615000033,372.9881528749975,372.98854725000274,372.9945615000033,372.9945615000033,372.9945615000033,374.0135871670064,,,,,,,,,,,,,,,,,,,,,,,,,,,,,,,left,0.0,1.0100890000030631,,,,,,sub-058,1,random_dot,,
right,right,28.0,0.0,14.0,right,1.0,0.6168382499890868,,speed,space,4.952375292006764,,,,,,0.0,1.0,1.0,1.0,14.0,0.0,28.0,1.0,374.0201033330086,,,,,,,,,374.0139751250099,374.81013895799697,375.6100615000032,375.6032643750077,375.6038755000045,375.6100615000032,375.6100615000032,375.6100615000032,376.2310727500008,,,,,,,,,,,,,,,,,,,,,,,,,,,,,,,right,1.0,0.6168382499890868,,,,,,sub-058,1,random_dot,,
left,left,29.0,1.0,14.0,right,0.0,0.5513956659997348,,speed,space,4.952375292006764,,,,,,0.0,1.0,1.0,1.0,14.0,1.0,29.0,0.0,376.23825045800186,,,,,,,,,376.23145074999775,376.5703013330058,377.36787891700806,377.3532552920078,377.353707125003,377.36787891700806,377.36787891700806,377.36787891700806,377.9315520829987,,,,,,,,,,,,,,,,,,,,,,,,,,,,,,,right,0.0,0.5513956659997348,,,,,,sub-058,1,random_dot,,
left,left,30.0,0.0,15.0,left,1.0,0.6792256670014467,,speed,space,4.952375292006764,,,,,,0.0,1.0,1.0,1.0,15.0,0.0,30.0,0.0,377.935968167003,,,,,,,,,377.9318052919989,378.0371985829988,378.8432069999981,378.8352046670043,378.8358831670048,378.8432069999981,378.8432069999981,378.8432069999981,379.52444895800727,,,,,,,,,,,,,,,,,,,,,,,,,,,,,,,left,1.0,0.6792256670014467,,,,,,sub-058,1,random_dot,,
right,right,31.0,1.0,15.0,right,1.0,0.6393522500002291,,speed,space,4.952375292006764,,,,,,0.0,1.0,1.0,1.0,15.0,1.0,31.0,1.0,379.532177208006,,,,,,,,,379.5248425000027,380.73187595800846,381.5420513330028,381.53528520801046,381.5357042079995,381.5420513330028,381.5420513330028,381.5420513330028,382.1912123329967,,,,,,,,,,,,,,,,,,,,,,,,,,,,,,,right,1.0,0.6393522500002291,,,,,,sub-058,1,random_dot,,
right,right,32.0,0.0,16.0,left,0.0,0.8811541670002043,,speed,space,4.952375292006764,,,,,,0.0,1.0,1.0,1.0,16.0,0.0,32.0,1.0,382.1958684170095,,,,,,,,,382.1915066670044,382.53851450000366,383.3312535830046,383.32381191699824,383.3244912920054,383.3312535830046,383.3312535830046,383.3312535830046,384.2143551670015,,,,,,,,,,,,,,,,,,,,,,,,,,,,,,,left,0.0,0.8811541670002043,,,,,,sub-058,1,random_dot,,
left,left,33.0,1.0,16.0,right,0.0,0.9399547079956392,,speed,space,4.952375292006764,,,,,,0.0,1.0,1.0,1.0,16.0,1.0,33.0,0.0,384.2209839580028,,,,,,,,,384.2148340830026,384.5639481249964,385.35412650000944,385.3475963329984,385.348020083009,385.35412650000944,385.35412650000944,385.35412650000944,386.2977109580097,,,,,,,,,,,,,,,,,,,,,,,,,,,,,,,right,0.0,0.9399547079956392,,,,,,sub-058,1,random_dot,,
right,right,34.0,0.0,17.0,right,1.0,4.575489957991522,,speed,space,4.952375292006764,,,,,,0.0,1.0,1.0,1.0,17.0,0.0,34.0,1.0,386.3043975420005,,,,,,,,,386.2980398329965,387.0865120420058,387.8807865420095,387.87444537499687,387.8748410420085,387.8807865420095,387.8807865420095,387.8807865420095,392.46024091700383,,,,,,,,,,,,,,,,,,,,,,,,,,,,,,,right,1.0,4.575489957991522,,,,,,sub-058,1,random_dot,,
left,left,35.0,1.0,17.0,left,1.0,1.3786292909935582,,speed,space,4.952375292006764,,,,,,0.0,1.0,1.0,1.0,17.0,1.0,35.0,0.0,392.46730654200655,,,,,,,,,392.4605272920016,392.5718553750048,393.3696315420093,393.3632123330026,393.3636153749976,393.3696315420093,393.3696315420093,393.3696315420093,394.75144716700015,,,,,,,,,,,,,,,,,,,,,,,,,,,,,,,left,1.0,1.3786292909935582,,,,,,sub-058,1,random_dot,,
left,left,36.0,0.0,18.0,right,0.0,1.2157461250026245,,speed,space,4.952375292006764,,,,,,0.0,1.0,1.0,1.0,18.0,0.0,36.0,0.0,394.7615021670063,,,,,,,,,394.751873125002,395.9400751250069,396.7311264169985,396.7251795000048,396.7255012079986,396.7311264169985,396.7311264169985,396.7311264169985,397.9498169169965,,,,,,,,,,,,,,,,,,,,,,,,,,,,,,,right,0.0,1.2157461250026245,,,,,,sub-058,1,random_dot,,
right,right,37.0,1.0,18.0,right,1.0,0.7871434999979101,,speed,space,4.952375292006764,,,,,,0.0,1.0,1.0,1.0,18.0,1.0,37.0,1.0,397.9601047920005,,,,,,,,,397.95014412500313,399.1588619999966,399.9569767080102,399.9437976250047,399.9442651670106,399.9569767080102,399.9569767080102,399.9569767080102,400.7463162080094,,,,,,,,,,,,,,,,,,,,,,,,,,,,,,,right,1.0,0.7871434999979101,,,,,,sub-058,1,random_dot,,
left,left,38.0,0.0,19.0,left,1.0,5.718783250005799,,speed,space,4.952375292006764,,,,,,0.0,1.0,1.0,1.0,19.0,0.0,38.0,0.0,400.7572682080063,,,,,,,,,400.7466773750057,400.8458013330092,401.6415775830101,401.635515957998,401.6358559579967,401.6415775830101,401.6415775830101,401.6415775830101,407.3625347080088,,,,,,,,,406.6345111249975,,,,,,,,,,,,,,,,,,,,,,left,1.0,5.718783250005799,,,,,,sub-058,1,random_dot,,
right,right,39.0,1.0,19.0,left,0.0,5.807383999999729,,speed,space,4.952375292006764,,,,,,0.0,1.0,1.0,1.0,19.0,1.0,39.0,1.0,407.3701611249999,,,,,,,,,407.3631630000018,408.16315200000827,408.9545434580068,408.9477124580008,408.94812229200033,408.9545434580068,408.9545434580068,408.9545434580068,414.7648245419987,,,,,,,,,413.9398652079981,,,,,,,,,,,,,,,,,,,,,,left,0.0,5.807383999999729,,,,,,sub-058,1,random_dot,,
left,left,40.0,0.0,20.0,right,0.0,3.800622541995836,,speed,space,4.952375292006764,,,,,,0.0,1.0,1.0,1.0,20.0,0.0,40.0,0.0,414.7715272920032,,,,,,,,,414.7654437080055,415.5576558750036,416.357598750008,416.3510725000088,416.351463125,416.357598750008,416.357598750008,416.357598750008,420.1632173329999,,,,,,,,,,,,,,,,,,,,,,,,,,,,,,,right,0.0,3.800622541995836,,,,,,sub-058,1,random_dot,,
right,right,41.0,1.0,20.0,right,1.0,3.7514764579973416,,speed,space,4.952375292006764,,,,,,0.0,1.0,1.0,1.0,20.0,1.0,41.0,1.0,420.1699085419969,,,,,,,,,420.163656417004,420.27879120800935,421.06814725,421.0623547919968,421.06275100000494,421.06814725,421.06814725,421.06814725,424.8269909579976,,,,,,,,,,,,,,,,,,,,,,,,,,,,,,,right,1.0,3.7514764579973416,,,,,,sub-058,1,random_dot,,
left,left,42.0,0.0,21.0,left,1.0,1.6923354169994127,,speed,space,4.952375292006764,,,,,,0.0,1.0,1.0,1.0,21.0,0.0,42.0,0.0,424.8334517500043,,,,,,,,,424.8274303750077,425.1894527080003,425.9858520830021,425.9790836250031,425.9795339170087,425.9858520830021,425.9858520830021,425.9858520830021,427.6856635419972,,,,,,,,,,,,,,,,,,,,,,,,,,,,,,,left,1.0,1.6923354169994127,,,,,,sub-058,1,random_dot,,
right,right,43.0,1.0,21.0,right,1.0,2.1576300839951728,,speed,space,4.952375292006764,,,,,,0.0,1.0,1.0,1.0,21.0,1.0,43.0,1.0,427.6922296249977,,,,,,,,,427.686015542,428.0424753330008,428.8379588750104,428.83128370800114,428.8317135830002,428.8379588750104,428.8379588750104,428.8379588750104,431.0031955000013,,,,,,,,,,,,,,,,,,,,,,,,,,,,,,,right,1.0,2.1576300839951728,,,,,,sub-058,1,random_dot,,
right,right,44.0,0.0,22.0,right,1.0,1.4864337909966707,,speed,space,4.952375292006764,,,,,,0.0,1.0,1.0,1.0,22.0,0.0,44.0,1.0,431.0103529580083,,,,,,,,,431.0035139999964,431.3420514169993,432.1327794170065,432.1256790830085,432.12608441700286,432.1327794170065,432.1327794170065,432.1327794170065,433.6244031670067,,,,,,,,,,,,,,,,,,,,,,,,,,,,,,,right,1.0,1.4864337909966707,,,,,,sub-058,1,random_dot,,
left,left,45.0,1.0,22.0,left,1.0,2.337284624998574,,speed,space,4.952375292006764,,,,,,0.0,1.0,1.0,1.0,22.0,1.0,45.0,0.0,433.6305826250027,,,,,,,,,433.6248289580108,433.7257547920017,434.53468691700255,434.5265163330041,434.5271614170051,434.53468691700255,434.53468691700255,434.53468691700255,436.8765879170096,,,,,,,,,,,,,,,,,,,,,,,,,,,,,,,left,1.0,2.337284624998574,,,,,,sub-058,1,random_dot,,
left,left,46.0,0.0,23.0,left,1.0,1.367638249997981,,speed,space,4.952375292006764,,,,,,0.0,1.0,1.0,1.0,23.0,0.0,46.0,0.0,436.883131583003,,,,,,,,,436.8768610420084,436.9716727920022,437.7840497500001,437.7627727500076,437.76303916701,437.7840497500001,437.7840497500001,437.7840497500001,439.1595337500039,,,,,,,,,,,,,,,,,,,,,,,,,,,,,,,left,1.0,1.367638249997981,,,,,,sub-058,1,random_dot,,
right,right,47.0,1.0,23.0,right,1.0,1.5528475000028266,,speed,space,4.952375292006764,,,,,,0.0,1.0,1.0,1.0,23.0,1.0,47.0,1.0,439.169173458009,,,,,,,,,439.159937000004,439.5262149170012,440.3334788330103,440.31218649999937,440.3125523750059,440.3334788330103,440.3334788330103,440.3334788330103,441.88838408300944,,,,,,,,,,,,,,,,,,,,,,,,,,,,,,,right,1.0,1.5528475000028266,,,,,,sub-058,1,random_dot,,
right,right,48.0,0.0,24.0,right,1.0,1.4798595830070551,,speed,space,4.952375292006764,,,,,,0.0,1.0,1.0,1.0,24.0,0.0,48.0,1.0,441.8986733750062,,,,,,,,,441.888664958009,442.00373029201,442.7958479579975,442.7894860000088,442.789864958002,442.7958479579975,442.7958479579975,442.7958479579975,444.2821327499987,,,,,,,,,,,,,,,,,,,,,,,,,,,,,,,right,1.0,1.4798595830070551,,,,,,sub-058,1,random_dot,,
left,left,49.0,1.0,24.0,right,0.0,1.084068666998064,,speed,space,4.952375292006764,,,,,,0.0,1.0,1.0,1.0,24.0,1.0,49.0,0.0,444.2894700830075,,,,,,,,,444.28260554200097,445.0816102079989,445.871531458004,445.8650244580058,445.8655314170028,445.871531458004,445.871531458004,445.871531458004,446.96579400000337,,,,,,,,,,,,,,,,,,,,,,,,,,,,,,,right,0.0,1.084068666998064,,,,,,sub-058,1,random_dot,,
right,right,50.0,0.0,25.0,left,0.0,0.8763513750018319,,speed,space,4.952375292006764,,,,,,0.0,1.0,1.0,1.0,25.0,0.0,50.0,1.0,446.97201362501073,,,,,,,,,446.9661932500021,447.0529289580009,447.8428111670073,447.83608845800336,447.8364865830081,447.8428111670073,447.8428111670073,447.8428111670073,448.7222009170073,,,,,,,,,,,,,,,,,,,,,,,,,,,,,,,left,0.0,0.8763513750018319,,,,,,sub-058,1,random_dot,,
left,left,51.0,1.0,25.0,left,1.0,0.8720432499976596,,speed,space,4.952375292006764,,,,,,0.0,1.0,1.0,1.0,25.0,1.0,51.0,0.0,448.7285905419994,,,,,,,,,448.7225504170056,448.8215950419981,449.6209107080067,449.6145771250012,449.61501291699824,449.6209107080067,449.6209107080067,449.6209107080067,450.5058436670079,,,,,,,,,,,,,,,,,,,,,,,,,,,,,,,left,1.0,0.8720432499976596,,,,,,sub-058,1,random_dot,,
left,left,52.0,0.0,26.0,left,1.0,0.6831686249934137,,speed,space,4.952375292006764,,,,,,0.0,1.0,1.0,1.0,26.0,0.0,52.0,0.0,450.5131534170068,,,,,,,,,450.5061769580061,450.8465611670108,451.645637833004,451.63173454201024,451.63214079200407,451.645637833004,451.645637833004,451.645637833004,452.331705042001,,,,,,,,,,,,,,,,,,,,,,,,,,,,,,,left,1.0,0.6831686249934137,,,,,,sub-058,1,random_dot,,
right,right,53.0,1.0,26.0,right,1.0,0.7011282079911325,,speed,space,4.952375292006764,,,,,,0.0,1.0,1.0,1.0,26.0,1.0,53.0,1.0,452.3383137080091,,,,,,,,,452.33211187500274,453.13366941700224,453.9250152080058,453.9183062079974,453.918695417,453.9250152080058,453.9250152080058,453.9250152080058,454.6307811669976,,,,,,,,,,,,,,,,,,,,,,,,,,,,,,,right,1.0,0.7011282079911325,,,,,,sub-058,1,random_dot,,
right,right,54.0,0.0,27.0,right,1.0,1.3305650410038652,,speed,space,4.952375292006764,,,,,,0.0,1.0,1.0,1.0,27.0,0.0,54.0,1.0,454.63844350000727,,,,,,,,,454.63128483299806,454.980375833009,455.7846655830072,455.7777553330088,455.77816883299965,455.7846655830072,455.7846655830072,455.7846655830072,457.1186878750013,,,,,,,,,,,,,,,,,,,,,,,,,,,,,,,right,1.0,1.3305650410038652,,,,,,sub-058,1,random_dot,,
left,left,55.0,1.0,27.0,left,1.0,4.378495083001326,,speed,space,4.952375292006764,,,,,,0.0,1.0,1.0,1.0,27.0,1.0,55.0,0.0,457.1254222080024,,,,,,,,,457.11911075000535,457.4674715830042,458.2572395419993,458.2504123749968,458.2508493750065,458.2572395419993,458.2572395419993,458.2572395419993,462.648217791997,,,,,,,,,,,,,,,,,,,,,,,,,,,,,,,left,1.0,4.378495083001326,,,,,,sub-058,1,random_dot,,
left,left,56.0,0.0,28.0,left,1.0,1.593209291997482,,speed,space,4.952375292006764,,,,,,0.0,1.0,1.0,1.0,28.0,0.0,56.0,0.0,462.6541800420091,,,,,,,,,462.6485775000037,463.4597806670063,464.2542597919965,464.24537741699896,464.24579587500193,464.2542597919965,464.2542597919965,464.2542597919965,465.8520009170024,,,,,,,,,,,,,,,,,,,,,,,,,,,,,,,left,1.0,1.593209291997482,,,,,,sub-058,1,random_dot,,
right,right,57.0,1.0,28.0,left,0.0,1.227759999994305,,speed,space,4.952375292006764,,,,,,0.0,1.0,1.0,1.0,28.0,1.0,57.0,1.0,465.8589327500085,,,,,,,,,465.8523070000083,465.9622222920007,466.7529098750092,466.7465761670028,466.7469730830053,466.7529098750092,466.7529098750092,466.7529098750092,467.9889445000008,,,,,,,,,,,,,,,,,,,,,,,,,,,,,,,left,0.0,1.227759999994305,,,,,,sub-058,1,random_dot,,
right,right,58.0,0.0,29.0,right,1.0,1.7221778329985682,,speed,space,4.952375292006764,,,,,,0.0,1.0,1.0,1.0,29.0,0.0,58.0,1.0,467.99507950000407,,,,,,,,,467.9892910830095,468.3463342920004,469.1382837920101,469.1312076250033,469.1316097920062,469.1382837920101,469.1382837920101,469.1382837920101,470.8768825419975,,,,,,,,,,,,,,,,,,,,,,,,,,,,,,,right,1.0,1.7221778329985682,,,,,,sub-058,1,random_dot,,
left,left,59.0,1.0,29.0,right,0.0,0.8458648750092834,,speed,space,4.952375292006764,,,,,,0.0,1.0,1.0,1.0,29.0,1.0,59.0,0.0,470.8841240830079,,,,,,,,,470.8772206669965,470.97652445800486,471.7707425420085,471.7635477080039,471.763955500006,471.7707425420085,471.7707425420085,471.7707425420085,472.63172429200495,,,,,,,,,,,,,,,,,,,,,,,,,,,,,,,right,0.0,0.8458648750092834,,,,,,sub-058,1,random_dot,,
,,1.0,1.0,0.0,,,,,speed,space,4.952375292006764,,,,,,0.0,1.0,1.0,1.0,,,,,,,,,,,,,,,,,,,,,,,,,,,,,,,,,,,,,,,,,,,,,,,,,,,,,,,,,,,,,sub-058,1,random_dot,,
,,,,,,,,,,,,,,,,,,,,,,,,,,,,,,,,,,,,,,,,,,,,,,,,,,,,,,,,,,,,,,,,,,,,,,,,,,,,,472.636083874997,472.6448516250093,477.6344677080051,477.63078225000936,sub-058,1,random_dot,,
