direction,corrAns,thisN,thisTrialN,thisRepN,respDots.keys,respDots.corr,respDots.rt,respDots.duration,randomInstr,respRandomInstr.keys,respRandomInstr.rt,respRandomInstr.duration,practice_trials.thisRepN,practice_trials.thisTrialN,practice_trials.thisN,practice_trials.thisIndex,instr_trials.thisRepN,instr_trials.thisTrialN,instr_trials.thisN,instr_trials.thisIndex,test_trials.thisRepN,test_trials.thisTrialN,test_trials.thisN,test_trials.thisIndex,thisRow.t,notes,general_instruction.started,textGeneralInstr.started,respGeneralInstr.started,general_instruction.stopped,respGeneralInstr.keys,respGeneralInstr.rt,respGeneralInstr.duration,ITI.started,fixcross.started,fixcross.stopped,ITI.stopped,dots.started,backgroundDots.started,stimulusDots.started,respDots.started,dots.stopped,practice_trials.respDots.keys,practice_trials.respDots.corr,practice_trials.respDots.rt,practice_trials.respDots.duration,feedback.started,textFeedback.started,feedback.stopped,textFeedback.stopped,info.started,textInfo.started,keyRespInfo.started,info.stopped,keyRespInfo.keys,keyRespInfo.rt,keyRespInfo.duration,test_instruction.started,textTestInstr.started,respTestInstr.started,test_instruction.stopped,respTestInstr.keys,respTestInstr.rt,respTestInstr.duration,random_instruction.started,textRandomInstr.started,respRandomInstr.started,random_instruction.stopped,instr_trials.respRandomInstr.keys,instr_trials.respRandomInstr.rt,instr_trials.respRandomInstr.duration,test_trials.respDots.keys,test_trials.respDots.corr,test_trials.respDots.rt,test_trials.respDots.duration,goodbye.started,textGoodbye.started,textGoodbye.stopped,goodbye.stopped,participant,session,expName,frameRate,Unnamed: 87
,,,,,,,,,,,,,,,,,,,,,,,,,,,0.0106698020026669,0.0325716930019552,0.0325716930019552,0.5876775340002496,space,0.4397636159992544,,,,,,,,,,,,,,,,,,,,,,,,,,,,,,,,,,,,,,,,,,,,,,,,sub-204,1,random_dot,88.38127867091035,
right,right,0.0,0.0,0.0,left,0.0,0.9072083969949744,,,,,,0.0,0.0,0.0,1.0,,,,,,,,,0.6131906520022312,,,,,,,,,0.5965395509992959,0.9347386060035204,1.7370452570030466,1.71913875300379,1.7196214150026208,1.7370452570030466,1.7370452570030466,1.7370452570030466,2.6532696439971915,left,0.0,0.9072083969949744,,2.6590234789982787,2.6911914060037816,3.1596837760007475,,,,,,,,,,,,,,,,,,,,,,,,,,,,,,,sub-204,1,random_dot,88.38127867091035,
left,left,1.0,1.0,0.0,left,1.0,1.5794444550047049,,,,,,0.0,1.0,1.0,0.0,,,,,,,,,3.1692872760031605,,,,,,,,,3.1603385909984354,3.942631783997058,4.73559110199858,4.726195251998433,4.726822737000475,4.73559110199858,4.73559110199858,4.73559110199858,6.320136709000508,left,1.0,1.5794444550047049,,6.323596895002993,6.334676286001923,6.818931916997826,6.82492528000148,,,,,,,,,,,,,,,,,,,,,,,,,,,,,,sub-204,1,random_dot,88.38127867091035,
left,left,2.0,0.0,1.0,right,0.0,0.8901617900046404,,,,,,1.0,0.0,2.0,0.0,,,,,,,,,6.82492528000148,,,,,,,,,6.819384442002047,8.018553196998255,8.809785557001305,8.802132042997982,8.80254548099765,8.809785557001305,8.809785557001305,8.809785557001305,9.703372668998782,right,0.0,0.8901617900046404,,9.705208339997624,9.712161351999384,10.202310590000709,10.208388937004202,,,,,,,,,,,,,,,,,,,,,,,,,,,,,,sub-204,1,random_dot,88.38127867091035,
right,right,3.0,1.0,1.0,right,1.0,1.5142135139976745,,,,,,1.0,1.0,3.0,1.0,,,,,,,,,10.208388937004202,,,,,,,,,10.202755459999024,11.392705817001117,12.185624304998782,12.17607480600418,12.176707863000049,12.185624304998782,12.185624304998782,12.185624304998782,13.704576762000215,right,1.0,1.5142135139976745,,13.70649276900076,13.714779581001494,14.202868125998066,14.2095597630032,,,,,,,,,,,,,,,,,,,,,,,,,,,,,,sub-204,1,random_dot,88.38127867091035,
right,right,4.0,0.0,2.0,left,0.0,0.9644474849992548,,,,,,2.0,0.0,4.0,1.0,,,,,,,,,14.2095597630032,,,,,,,,,14.203321884997422,15.402521424999575,16.194166966997727,16.185745789000066,16.186278599001525,16.194166966997727,16.194166966997727,16.194166966997727,17.170379298004264,left,0.0,0.9644474849992548,,17.173088319999806,17.182422081001278,17.66952072099957,17.676228422998975,,,,,,,,,,,,,,,,,,,,,,,,,,,,,,sub-204,1,random_dot,88.38127867091035,
left,left,5.0,1.0,2.0,right,0.0,0.7025862380032777,,,,,,2.0,1.0,5.0,0.0,,,,,,,,,17.676228422998975,,,,,,,,,17.669974440999795,18.019148999002937,18.811831783001253,18.80274238700076,18.803269691001333,18.811831783001253,18.811831783001253,18.811831783001253,19.520186793000903,right,0.0,0.7025862380032777,,19.5202721789974,19.52863764700305,20.019420422999247,20.02613920099975,,,,,,,,,,,,,,,,,,,,,,,,,,,,,,sub-204,1,random_dot,88.38127867091035,
left,left,6.0,0.0,3.0,left,1.0,0.7464789570003632,,,,,,3.0,0.0,6.0,0.0,,,,,,,,,20.02613920099975,,,,,,,,,20.01986899199983,20.81897625300189,21.611860791002982,21.602745969998068,21.603273275999527,21.611860791002982,21.611860791002982,21.611860791002982,22.36349434300064,left,1.0,0.7464789570003632,,22.36556384600408,22.37434143700375,22.859869528001585,22.868965544003004,,,,,,,,,,,,,,,,,,,,,,,,,,,,,,sub-204,1,random_dot,88.38127867091035,
right,right,7.0,1.0,3.0,right,1.0,0.6890916420015856,,,,,,3.0,1.0,7.0,1.0,,,,,,,,,22.868965544003004,,,,,,,,,22.860392864997262,24.058945762000803,24.85216738300369,24.84276441600377,24.843393568000465,24.85216738300369,24.85216738300369,24.85216738300369,25.55378133100021,right,1.0,0.6890916420015856,,25.553915866999887,25.56264583399752,26.052774039002543,26.059529780999583,,,,,,,,,,,,,,,,,,,,,,,,,,,,,,sub-204,1,random_dot,88.38127867091035,
left,left,8.0,0.0,4.0,right,0.0,1.298311360005755,,,,,,4.0,0.0,8.0,0.0,,,,,,,,,26.059529780999583,,,,,,,,,26.05322162200173,26.402363474000595,27.19474890999845,27.18595334100246,27.18646917300066,27.19474890999845,27.19474890999845,27.19474890999845,28.50327347100392,right,0.0,1.298311360005755,,28.505523494000958,28.51334684900212,29.002670872003364,29.009169643999485,,,,,,,,,,,,,,,,,,,,,,,,,,,,,,sub-204,1,random_dot,88.38127867091035,
right,right,9.0,1.0,4.0,right,1.0,0.88362801400217,,,,,,4.0,1.0,9.0,1.0,,,,,,,,,29.009169643999485,,,,,,,,,29.003024477002327,29.092664080002574,29.885352785000578,29.87652999800048,29.877032288997725,29.885352785000578,29.885352785000578,29.885352785000578,30.770321344003605,right,1.0,0.88362801400217,,30.772301775003143,30.78107549100241,31.26931022899953,31.27601643699745,,,,,,,,,,,,,,,,,,,,,,,,,,,,,,sub-204,1,random_dot,88.38127867091035,
left,left,10.0,0.0,5.0,left,1.0,0.7027879729939741,,,,,,5.0,0.0,10.0,0.0,,,,,,,,,31.27601643699745,,,,,,,,,31.269757677997404,32.06894226899749,32.86020491999807,32.8521821760005,32.85252864599897,32.86020491999807,32.86020491999807,32.86020491999807,33.56878005999897,left,1.0,0.7027879729939741,,33.56885869299731,33.57592252900213,34.06842163499823,34.07410437199724,,,,,,,,,,,,,,,,,,,,,,,,,,,,,,sub-204,1,random_dot,88.38127867091035,
right,right,11.0,1.0,5.0,left,0.0,0.6762358339983621,,,,,,5.0,1.0,11.0,1.0,,,,,,,,,34.07410437199724,,,,,,,,,34.06877812300081,35.25731028200244,36.05151119200309,36.041221184998,36.04175789299916,36.05151119200309,36.05151119200309,36.05151119200309,36.73564410900144,left,0.0,0.6762358339983621,,36.73820747600257,36.74507411399827,37.235148865001975,37.24114451600326,,,,,,,,,,,,,,,,,,,,,,,,,,,,,,sub-204,1,random_dot,88.38127867091035,
left,left,12.0,0.0,6.0,right,0.0,4.330421952996403,,,,,,6.0,0.0,12.0,0.0,,,,,,,,,37.24114451600326,,,,,,,,,37.23560341499979,37.57439388800413,38.36810257699835,38.35754261400143,38.358068255001854,38.36810257699835,38.36810257699835,38.36810257699835,42.70214115300041,right,0.0,4.330421952996403,,42.70223744100076,42.70934134100389,43.201738540003134,43.2077289029985,,,,,,,,,,,,,,,,,,,,,,,,,,,,,,sub-204,1,random_dot,88.38127867091035,
right,right,13.0,1.0,6.0,left,0.0,1.1513980609961436,,,,,,6.0,1.0,13.0,1.0,,,,,,,,,43.2077289029985,,,,,,,,,43.20221490199765,43.29078790800122,44.084940007000114,44.07494043600309,44.07555505000346,44.084940007000114,44.084940007000114,44.084940007000114,45.2433384840042,left,0.0,1.1513980609961436,,45.24343141000281,45.251572612003656,45.73516604500037,45.7411015300022,,,,,,,,,,,,,,,,,,,,,,,,,,,,,,sub-204,1,random_dot,88.38127867091035,
right,right,14.0,0.0,7.0,right,1.0,0.8966178000046057,,,,,,7.0,0.0,14.0,1.0,,,,,,,,,45.7411015300022,,,,,,,,,45.73561494099704,46.09125732899702,46.88467354600289,46.87519733999943,46.87568580600055,46.88467354600289,46.88467354600289,46.88467354600289,47.78548093000427,right,1.0,0.8966178000046057,,47.78751482900407,47.79424485100026,48.28505940100149,48.29102628600231,,,,,,,,,,,,,,,,,,,,,,,,,,,,,,sub-204,1,random_dot,88.38127867091035,
left,left,15.0,1.0,7.0,right,0.0,1.1310858690048915,,,,,,7.0,1.0,15.0,0.0,,,,,,,,,48.29102628600231,,,,,,,,,48.2855103289985,48.37415668200265,49.16828830399754,49.15819699600252,49.15878350500134,49.16828830399754,49.16828830399754,49.16828830399754,50.30217252799776,right,0.0,1.1310858690048915,,50.304159976003575,50.31154523700389,50.80158421299711,50.80773463300284,,,,,,,,,,,,,,,,,,,,,,,,,,,,,,sub-204,1,random_dot,88.38127867091035,
right,right,16.0,0.0,8.0,left,0.0,0.9732134630030488,,,,,,8.0,0.0,16.0,1.0,,,,,,,,,50.80773463300284,,,,,,,,,50.80203411300317,51.990859915997135,52.78478720699786,52.774469367002894,52.77507514099853,52.78478720699786,52.78478720699786,52.78478720699786,53.75981357300043,left,0.0,0.9732134630030488,,53.75990012200055,53.76746192899736,54.25163025600341,54.2572853840029,,,,,,,,,,,,,,,,,,,,,,,,,,,,,,sub-204,1,random_dot,88.38127867091035,
left,left,17.0,1.0,8.0,right,0.0,1.2768248440042953,,,,,,8.0,1.0,17.0,0.0,,,,,,,,,54.2572853840029,,,,,,,,,54.25198520599952,55.457414409000194,56.25115919199743,56.24096296999778,56.24149697300163,56.25115919199743,56.25115919199743,56.25115919199743,57.53540326000075,right,0.0,1.2768248440042953,,57.53548507000232,57.54234696800268,58.0348822570013,58.04081033699913,,,,,,,,,,,,,,,,,,,,,,,,,,,,,,sub-204,1,random_dot,88.38127867091035,
left,left,18.0,0.0,9.0,right,0.0,1.7789897690017824,,,,,,9.0,0.0,18.0,0.0,,,,,,,,,58.04081033699913,,,,,,,,,58.03533415900165,58.82405764400028,59.61772759199812,59.60757493100391,59.60810140799731,59.61772759199812,59.61772759199812,59.61772759199812,61.40186529699713,right,0.0,1.7789897690017824,,61.40194365400384,61.40948829099944,61.90132663300028,61.90699360799772,,,,,,,,,,,,,,,,,,,,,,,,,,,,,,sub-204,1,random_dot,88.38127867091035,
right,right,19.0,1.0,9.0,left,0.0,1.0470713220056496,,,,,,9.0,1.0,19.0,1.0,,,,,,,,,61.90699360799772,,,,,,,,,61.901700428003096,63.09062192899728,63.88450109399855,63.87457303100382,63.875105448001705,63.88450109399855,63.88450109399855,63.88450109399855,64.93533684700378,left,0.0,1.0470713220056496,,64.93541573399852,64.94245478999801,65.43469118200301,65.44335808300093,,,,,,,,,,,,,,,,,,,,,,,,,,,,,,sub-204,1,random_dot,88.38127867091035,
,,,,,,,,,,,,,,,,,,,,,,,,,,,,,,,,,,,,,,,,,,,,,,,,,,,65.434838717003,65.44335808300093,65.44335808300093,67.27506549700047,space,1.826078496000264,,,,,,,,,,,,,,,,,,,,,,,,sub-204,1,random_dot,88.38127867091035,
,,,,,,,,,,,,,,,,,,,,,,,,,,,,,,,,,,,,,,,,,,,,,,,,,,,,,,,,,,67.275131401002,67.28442618100235,67.28442618100235,69.31819280199852,space,2.0240563140032464,,,,,,,,,,,,,,,,,sub-204,1,random_dot,88.38127867091035,
right,right,0.0,0.0,0.0,left,0.0,0.889748336005141,,speed,space,0.9763283549982588,,,,,,0.0,0.0,0.0,1.0,0.0,0.0,0.0,1.0,70.33845000200381,,,,,,,,,70.32968479600095,70.67539961099828,71.47653337600059,71.46827489700081,71.46875983099744,71.47653337600059,71.47653337600059,71.47653337600059,72.37461525799881,,,,,,,,,,,,,,,,,,,,,,,69.33425682200323,69.34307493900269,69.34307493900269,70.32546952400298,space,0.9763283549982588,,left,0.0,0.889748336005141,,,,,,sub-204,1,random_dot,88.38127867091035,
left,left,1.0,1.0,0.0,left,1.0,0.8588974739977857,,speed,space,0.9763283549982588,,,,,,0.0,0.0,0.0,1.0,0.0,1.0,1.0,0.0,72.38530223999987,,,,,,,,,72.37499702499917,73.56826578600158,74.36125670299953,74.35199740499957,74.35251813600189,74.36125670299953,74.36125670299953,74.36125670299953,75.22959465299937,,,,,,,,,,,,,,,,,,,,,,,,,,,,,,left,1.0,0.8588974739977857,,,,,,sub-204,1,random_dot,88.38127867091035,
right,right,2.0,0.0,1.0,right,1.0,1.049184838993824,,speed,space,0.9763283549982588,,,,,,0.0,0.0,0.0,1.0,1.0,0.0,2.0,1.0,75.2399958370006,,,,,,,,,75.22993253700406,75.57512205200328,76.36891636899963,76.35794342000008,76.35852836100094,76.36891636899963,76.36891636899963,76.36891636899963,77.42513686900202,,,,,,,,,,,,,,,,,,,,,,,,,,,,,,right,1.0,1.049184838993824,,,,,,sub-204,1,random_dot,88.38127867091035,
left,left,3.0,1.0,1.0,right,0.0,2.480712960001256,,speed,space,0.9763283549982588,,,,,,0.0,0.0,0.0,1.0,1.0,1.0,3.0,0.0,77.43531265600177,,,,,,,,,77.42551039400132,78.22423097799765,79.01822684599756,79.00796240100317,79.00858252999751,79.01822684599756,79.01822684599756,79.01822684599756,81.50208479200228,,,,,,,,,,,,,,,,,,,,,,,,,,,,,,right,0.0,2.480712960001256,,,,,,sub-204,1,random_dot,88.38127867091035,
right,right,4.0,0.0,2.0,left,0.0,1.451336481004546,,speed,space,0.9763283549982588,,,,,,0.0,0.0,0.0,1.0,2.0,0.0,4.0,1.0,81.5088419110034,,,,,,,,,81.5023579760018,81.60089908199734,82.39244227499876,82.38457643400034,82.38508806200116,82.39244227499876,82.39244227499876,82.39244227499876,83.85156164500222,,,,,,,,,,,,,,,,,,,,,,,,,,,,,,left,0.0,1.451336481004546,,,,,,sub-204,1,random_dot,88.38127867091035,
left,left,5.0,1.0,2.0,right,0.0,1.447605086999829,,speed,space,0.9763283549982588,,,,,,0.0,0.0,0.0,1.0,2.0,1.0,5.0,0.0,83.85870078000153,,,,,,,,,83.85185605400329,83.94044812399807,84.73413255500054,84.72388886300178,84.72449707699707,84.73413255500054,84.73413255500054,84.73413255500054,86.18511992200365,,,,,,,,,,,,,,,,,,,,,,,,,,,,,,right,0.0,1.447605086999829,,,,,,sub-204,1,random_dot,88.38127867091035,
left,left,6.0,0.0,3.0,right,0.0,1.944183553001494,,speed,space,0.9763283549982588,,,,,,0.0,0.0,0.0,1.0,3.0,0.0,6.0,0.0,86.19223557700025,,,,,,,,,86.18539950500417,86.27361205500347,87.06752629599941,87.05723900200246,87.0578553689993,87.06752629599941,87.06752629599941,87.06752629599941,89.01827330500237,,,,,,,,,,,,,,,,,,,,,,,,,,,,,,right,0.0,1.944183553001494,,,,,,sub-204,1,random_dot,88.38127867091035,
right,right,7.0,1.0,3.0,left,0.0,0.996584485998028,,speed,space,0.9763283549982588,,,,,,0.0,0.0,0.0,1.0,3.0,1.0,7.0,1.0,89.02503719000379,,,,,,,,,89.01856345799752,89.8070643730025,90.6009716730041,90.59068229100376,90.59126351300074,90.6009716730041,90.6009716730041,90.6009716730041,91.60184883599868,,,,,,,,,,,,,,,,,,,,,,,,,,,,,,left,0.0,0.996584485998028,,,,,,sub-204,1,random_dot,88.38127867091035,
right,right,8.0,0.0,4.0,left,0.0,1.3909890389986683,,speed,space,0.9763283549982588,,,,,,0.0,0.0,0.0,1.0,4.0,0.0,8.0,1.0,91.60842219799817,,,,,,,,,91.60214286200062,92.40072835200408,93.19252130699896,93.18440251800348,93.18488346099912,93.19252130699896,93.19252130699896,93.19252130699896,94.58484891000262,,,,,,,,,,,,,,,,,,,,,,,,,,,,,,left,0.0,1.3909890389986683,,,,,,sub-204,1,random_dot,88.38127867091035,
left,left,9.0,1.0,4.0,right,0.0,4.204892134999682,,speed,space,0.9763283549982588,,,,,,0.0,0.0,0.0,1.0,4.0,1.0,9.0,0.0,94.5903313989984,,,,,,,,,94.58512922299995,95.37343290499848,96.1673712260017,96.15661735700267,96.15714976299932,96.1673712260017,96.1673712260017,96.1673712260017,100.37541817199964,,,,,,,,,,,,,,,,,,,,,,,,,,,,,,right,0.0,4.204892134999682,,,,,,sub-204,1,random_dot,88.38127867091035,
left,left,10.0,0.0,5.0,right,0.0,1.478967280992947,,speed,space,0.9763283549982588,,,,,,0.0,0.0,0.0,1.0,5.0,0.0,10.0,0.0,100.38437188300304,,,,,,,,,100.37578408300033,100.47346649300016,101.26717803700012,101.2570534760016,101.25762697299795,101.26717803700012,101.26717803700012,101.26717803700012,102.75130832599824,,,,,,,,,,,,,,,,,,,,,,,,,,,,,,right,0.0,1.478967280992947,,,,,,sub-204,1,random_dot,88.38127867091035,
right,right,11.0,1.0,5.0,left,0.0,0.9592877219984076,,speed,space,0.9763283549982588,,,,,,0.0,0.0,0.0,1.0,5.0,1.0,11.0,1.0,102.75840551299916,,,,,,,,,102.75158938000096,103.09020670600148,103.88372331300344,103.87400011200224,103.8744842649976,103.88372331300344,103.88372331300344,103.88372331300344,104.85150354500364,,,,,,,,,,,,,,,,,,,,,,,,,,,,,,left,0.0,0.9592877219984076,,,,,,sub-204,1,random_dot,88.38127867091035,
left,left,12.0,0.0,6.0,right,0.0,1.2560389080026653,,speed,space,0.9763283549982588,,,,,,0.0,0.0,0.0,1.0,6.0,0.0,12.0,0.0,104.85888009399788,,,,,,,,,104.85183088300256,105.1902154319978,105.9838433650002,105.97301225500269,105.9735441590019,105.9838433650002,105.9838433650002,105.9838433650002,107.2421000050017,,,,,,,,,,,,,,,,,,,,,,,,,,,,,,right,0.0,1.2560389080026653,,,,,,sub-204,1,random_dot,88.38127867091035,
right,right,13.0,1.0,6.0,left,0.0,1.0359955479943892,,speed,space,0.9763283549982588,,,,,,0.0,0.0,0.0,1.0,6.0,1.0,13.0,1.0,107.2501712930025,,,,,,,,,107.2423908569981,107.59016958199936,108.38383651099866,108.37345305000052,108.37402502600162,108.38383651099866,108.38383651099866,108.38383651099866,109.42586506999942,,,,,,,,,,,,,,,,,,,,,,,,,,,,,,left,0.0,1.0359955479943892,,,,,,sub-204,1,random_dot,88.38127867091035,
left,left,14.0,0.0,7.0,right,0.0,1.4146925780005404,,speed,space,0.9763283549982588,,,,,,0.0,0.0,0.0,1.0,7.0,0.0,14.0,0.0,109.43388811500336,,,,,,,,,109.42617475300358,109.52323948000412,110.31708830199932,110.30672643800062,110.30730103600216,110.31708830199932,110.31708830199932,110.31708830199932,111.73466837700109,,,,,,,,,,,,,,,,,,,,,,,,,,,,,,right,0.0,1.4146925780005404,,,,,,sub-204,1,random_dot,88.38127867091035,
right,right,15.0,1.0,7.0,left,0.0,1.1487035359969011,,speed,space,0.9763283549982588,,,,,,0.0,0.0,0.0,1.0,7.0,1.0,15.0,1.0,111.74183671300123,,,,,,,,,111.73495285500394,111.82326275300149,112.61696546799794,112.60668967400125,112.60726800200064,112.61696546799794,112.61696546799794,112.61696546799794,113.7678945660009,,,,,,,,,,,,,,,,,,,,,,,,,,,,,,left,0.0,1.1487035359969011,,,,,,sub-204,1,random_dot,88.38127867091035,
left,left,16.0,0.0,8.0,right,0.0,1.1488746589966468,,speed,space,0.9763283549982588,,,,,,0.0,0.0,0.0,1.0,8.0,0.0,16.0,0.0,113.7753900280004,,,,,,,,,113.76819339599751,114.95652851100022,115.75063569100166,115.74045544199907,115.7410472190022,115.75063569100166,115.75063569100166,115.75063569100166,116.90125676200114,,,,,,,,,,,,,,,,,,,,,,,,,,,,,,right,0.0,1.1488746589966468,,,,,,sub-204,1,random_dot,88.38127867091035,
right,right,17.0,1.0,8.0,right,1.0,0.7607664539973484,,speed,space,0.9763283549982588,,,,,,0.0,0.0,0.0,1.0,8.0,1.0,17.0,1.0,116.90686421900318,,,,,,,,,116.9015592249998,117.69002593799814,118.4837112890018,118.47367730199768,118.47422116400412,118.4837112890018,118.4837112890018,118.4837112890018,119.25226054200176,,,,,,,,,,,,,,,,,,,,,,,,,,,,,,right,1.0,0.7607664539973484,,,,,,sub-204,1,random_dot,88.38127867091035,
right,right,18.0,0.0,9.0,right,1.0,1.0313222559998394,,speed,space,0.9763283549982588,,,,,,0.0,0.0,0.0,1.0,9.0,0.0,18.0,1.0,119.2597930740012,,,,,,,,,119.25263638199976,120.05032246000336,120.84199496600196,120.83393923599942,120.83442351099802,120.84199496600196,120.84199496600196,120.84199496600196,121.87587921399972,,,,,,,,,,,,,,,,,,,,,,,,,,,,,,right,1.0,1.0313222559998394,,,,,,sub-204,1,random_dot,88.38127867091035,
left,left,19.0,1.0,9.0,left,1.0,1.1314031250003609,,speed,space,0.9763283549982588,,,,,,0.0,0.0,0.0,1.0,9.0,1.0,19.0,0.0,121.88353778800229,,,,,,,,,121.87616995700228,122.22305634400254,123.016866320002,123.00666151099722,123.00727032100258,123.016866320002,123.016866320002,123.016866320002,124.15102496100008,,,,,,,,,,,,,,,,,,,,,,,,,,,,,,left,1.0,1.1314031250003609,,,,,,sub-204,1,random_dot,88.38127867091035,
left,left,20.0,0.0,10.0,left,1.0,1.700542354999925,,speed,space,0.9763283549982588,,,,,,0.0,0.0,0.0,1.0,10.0,0.0,20.0,0.0,124.15822964200196,,,,,,,,,124.15131444000144,125.33982587199716,126.13353539400124,126.12306263500068,126.1236696670021,126.13353539400124,126.13353539400124,126.13353539400124,127.84196021700336,,,,,,,,,,,,,,,,,,,,,,,,,,,,,,left,1.0,1.700542354999925,,,,,,sub-204,1,random_dot,88.38127867091035,
right,right,21.0,1.0,10.0,right,1.0,1.5783137580001494,,speed,space,0.9763283549982588,,,,,,0.0,0.0,0.0,1.0,10.0,1.0,21.0,1.0,127.85061602800124,,,,,,,,,127.84237143099745,128.1898853419989,128.98367289100133,128.97352398800285,128.97405551400152,128.98367289100133,128.98367289100133,128.98367289100133,130.56770091900398,,,,,,,,,,,,,,,,,,,,,,,,,,,,,,right,1.0,1.5783137580001494,,,,,,sub-204,1,random_dot,88.38127867091035,
left,left,22.0,0.0,11.0,left,1.0,0.6867173389982781,,speed,space,0.9763283549982588,,,,,,0.0,0.0,0.0,1.0,11.0,0.0,22.0,0.0,130.57476130600116,,,,,,,,,130.567966790004,130.9064919960001,131.7001383489987,131.68955906399788,131.69008594700426,131.7001383489987,131.7001383489987,131.7001383489987,132.39233621099993,,,,,,,,,,,,,,,,,,,,,,,,,,,,,,left,1.0,0.6867173389982781,,,,,,sub-204,1,random_dot,88.38127867091035,
right,right,23.0,1.0,11.0,right,1.0,1.1813077359984163,,speed,space,0.9763283549982588,,,,,,0.0,0.0,0.0,1.0,11.0,1.0,23.0,1.0,132.4003135860039,,,,,,,,,132.39260517100047,132.48966060500243,133.28348591399845,133.27318127200124,133.27378564399987,133.28348591399845,133.28348591399845,133.28348591399845,134.46746997899754,,,,,,,,,,,,,,,,,,,,,,,,,,,,,,right,1.0,1.1813077359984163,,,,,,sub-204,1,random_dot,88.38127867091035,
right,right,24.0,0.0,12.0,right,1.0,1.3635038400025223,,speed,space,0.9763283549982588,,,,,,0.0,0.0,0.0,1.0,12.0,0.0,24.0,1.0,134.47417670400318,,,,,,,,,134.46777704299893,135.2567824450016,136.05024166699877,136.03954245400382,136.04008154499752,136.05024166699877,136.05024166699877,136.05024166699877,137.41772187400056,,,,,,,,,,,,,,,,,,,,,,,,,,,,,,right,1.0,1.3635038400025223,,,,,,sub-204,1,random_dot,88.38127867091035,
left,left,25.0,1.0,12.0,right,0.0,1.554575401998591,,speed,space,0.9763283549982588,,,,,,0.0,0.0,0.0,1.0,12.0,1.0,25.0,0.0,137.42487494200032,,,,,,,,,137.4180026030008,137.5062981450028,138.3000494270018,138.2898000560017,138.29037685000367,138.3000494270018,138.3000494270018,138.3000494270018,139.8584989439987,,,,,,,,,,,,,,,,,,,,,,,,,,,,,,right,0.0,1.554575401998591,,,,,,sub-204,1,random_dot,88.38127867091035,
left,left,26.0,0.0,13.0,left,1.0,0.746486552998249,,speed,space,0.9763283549982588,,,,,,0.0,0.0,0.0,1.0,13.0,0.0,26.0,0.0,139.86670444300398,,,,,,,,,139.85877289799828,140.6566865470013,141.45007430700207,141.44003246800276,141.44062070499783,141.45007430700207,141.45007430700207,141.45007430700207,142.20119275199977,,,,,,,,,,,,,,,,,,,,,,,,,,,,,,left,1.0,0.746486552998249,,,,,,sub-204,1,random_dot,88.38127867091035,
right,right,27.0,1.0,13.0,left,0.0,1.9932801420000037,,speed,space,0.9763283549982588,,,,,,0.0,0.0,0.0,1.0,13.0,1.0,27.0,1.0,142.2080490950029,,,,,,,,,142.20146463700075,142.55002875500213,143.34207480400073,143.33381340900087,143.33433097200032,143.34207480400073,143.34207480400073,143.34207480400073,145.34197524200135,,,,,,,,,,,,,,,,,,,,,,,,,,,,,,left,0.0,1.9932801420000037,,,,,,sub-204,1,random_dot,88.38127867091035,
left,left,28.0,0.0,14.0,right,0.0,2.0740323970021564,,speed,space,0.9763283549982588,,,,,,0.0,0.0,0.0,1.0,14.0,0.0,28.0,0.0,145.3501382109971,,,,,,,,,145.34229518700158,145.43964612200216,146.23326296199957,146.22276145400247,146.22329320300196,146.23326296199957,146.23326296199957,146.23326296199957,148.31706311600283,,,,,,,,,,,,,,,,,,,,,,,,,,,,,,right,0.0,2.0740323970021564,,,,,,sub-204,1,random_dot,88.38127867091035,
right,right,29.0,1.0,14.0,left,0.0,1.2583394300017972,,speed,space,0.9763283549982588,,,,,,0.0,0.0,0.0,1.0,14.0,1.0,29.0,1.0,148.32436476099974,,,,,,,,,148.31739794999885,148.65617554300115,149.4499201439976,149.43941055100004,149.4399470510034,149.4499201439976,149.4499201439976,149.4499201439976,150.7173814159978,,,,,,,,,,,,,,,,,,,,,,,,,,,,,,left,0.0,1.2583394300017972,,,,,,sub-204,1,random_dot,88.38127867091035,
right,right,30.0,0.0,15.0,left,0.0,1.4062380920004216,,speed,space,0.9763283549982588,,,,,,0.0,0.0,0.0,1.0,15.0,0.0,30.0,1.0,150.7241211319997,,,,,,,,,150.71771103799983,151.0562885219988,151.8498934570016,151.83979392400215,151.84039935300098,151.8498934570016,151.8498934570016,151.8498934570016,153.25832308600366,,,,,,,,,,,,,,,,,,,,,,,,,,,,,,left,0.0,1.4062380920004216,,,,,,sub-204,1,random_dot,88.38127867091035,
left,left,31.0,1.0,15.0,left,1.0,0.9339212390041212,,speed,space,0.9763283549982588,,,,,,0.0,0.0,0.0,1.0,15.0,1.0,31.0,0.0,153.2663012749981,,,,,,,,,153.25863277100143,154.05647650299943,154.8500145479993,154.83968524500233,154.8402059029977,154.8500145479993,154.8500145479993,154.8500145479993,155.79159054200136,,,,,,,,,,,,,,,,,,,,,,,,,,,,,,left,1.0,0.9339212390041212,,,,,,sub-204,1,random_dot,88.38127867091035,
left,left,32.0,0.0,16.0,right,0.0,1.6927059660010857,,speed,space,0.9763283549982588,,,,,,0.0,0.0,0.0,1.0,16.0,0.0,32.0,0.0,155.79952495700127,,,,,,,,,155.7920019520025,156.13946374999796,156.9331545879977,156.9231160670024,156.92365830900235,156.9331545879977,156.9331545879977,156.9331545879977,158.6342824290041,,,,,,,,,,,,,,,,,,,,,,,,,,,,,,right,0.0,1.6927059660010857,,,,,,sub-204,1,random_dot,88.38127867091035,
right,right,33.0,1.0,16.0,right,1.0,1.2470188629959011,,speed,space,0.9763283549982588,,,,,,0.0,0.0,0.0,1.0,16.0,1.0,33.0,1.0,158.64137132799806,,,,,,,,,158.6346078159986,159.43327110000246,160.22470836700086,160.2168342570003,160.21735183500277,160.22470836700086,160.22470836700086,160.22470836700086,161.47468251999817,,,,,,,,,,,,,,,,,,,,,,,,,,,,,,right,1.0,1.2470188629959011,,,,,,sub-204,1,random_dot,88.38127867091035,
left,left,34.0,0.0,17.0,left,1.0,1.6032895210009883,,speed,space,0.9763283549982588,,,,,,0.0,0.0,0.0,1.0,17.0,0.0,34.0,0.0,161.48281143799977,,,,,,,,,161.47496623200277,162.27273564300413,163.06641421699896,163.05645973399805,163.0570586440008,163.06641421699896,163.06641421699896,163.06641421699896,164.6762236459981,,,,,,,,,,,,,,,,,,,,,,,,,,,,,,left,1.0,1.6032895210009883,,,,,,sub-204,1,random_dot,88.38127867091035,
right,right,35.0,1.0,17.0,right,1.0,1.398005335999187,,speed,space,0.9763283549982588,,,,,,0.0,0.0,0.0,1.0,17.0,1.0,35.0,1.0,164.68351380799868,,,,,,,,,164.67656012200314,165.47301638600038,166.26646824899944,166.25654976400256,166.25711965600203,166.26646824899944,166.26646824899944,166.26646824899944,167.66747648599994,,,,,,,,,,,,,,,,,,,,,,,,,,,,,,right,1.0,1.398005335999187,,,,,,sub-204,1,random_dot,88.38127867091035,
left,left,36.0,0.0,18.0,left,1.0,1.0114517090041772,,speed,space,0.9763283549982588,,,,,,0.0,0.0,0.0,1.0,18.0,0.0,36.0,0.0,167.67464821400063,,,,,,,,,167.66774916199938,168.4663109289977,169.2578952440017,169.250011969998,169.25053135800408,169.2578952440017,169.2578952440017,169.2578952440017,170.2749382080001,,,,,,,,,,,,,,,,,,,,,,,,,,,,,,left,1.0,1.0114517090041772,,,,,,sub-204,1,random_dot,88.38127867091035,
right,right,37.0,1.0,18.0,left,0.0,2.5286839050022536,,speed,space,0.9763283549982588,,,,,,0.0,0.0,0.0,1.0,18.0,1.0,37.0,1.0,170.28304821799975,,,,,,,,,170.27522746100294,171.47286590500153,172.2665623849971,172.25647903200297,172.25706021099904,172.2665623849971,172.2665623849971,172.2665623849971,174.80021199300245,,,,,,,,,,,,,,,,,,,,,,,,,,,,,,left,0.0,2.5286839050022536,,,,,,sub-204,1,random_dot,88.38127867091035,
right,right,38.0,0.0,19.0,left,0.0,0.9912384940034826,,speed,space,0.9763283549982588,,,,,,0.0,0.0,0.0,1.0,19.0,0.0,38.0,1.0,174.80723289099842,,,,,,,,,174.8004851980004,175.98863668899867,176.78300643499824,176.77278370899876,176.77337945999898,176.78300643499824,176.78300643499824,176.78300643499824,177.7756735639996,,,,,,,,,,,,,,,,,,,,,,,,,,,,,,left,0.0,0.9912384940034826,,,,,,sub-204,1,random_dot,88.38127867091035,
left,left,39.0,1.0,19.0,right,0.0,1.5578844449992175,,speed,space,0.9763283549982588,,,,,,0.0,0.0,0.0,1.0,19.0,1.0,39.0,0.0,177.7828504470017,,,,,,,,,177.77601752999908,177.87265898199985,178.6661277700041,178.65603449100308,178.65656180200313,178.6661277700041,178.6661277700041,178.6661277700041,180.23342446400056,,,,,,,,,,,,,,,,,,,,,,,,,,,,,,right,0.0,1.5578844449992175,,,,,,sub-204,1,random_dot,88.38127867091035,
left,left,40.0,0.0,20.0,left,1.0,0.9588546849990962,,speed,space,0.9763283549982588,,,,,,0.0,0.0,0.0,1.0,20.0,0.0,40.0,0.0,180.24060018199816,,,,,,,,,180.2337089159992,180.32240617099887,181.11621444600317,181.10574777000147,181.1063418920021,181.11621444600317,181.11621444600317,181.11621444600317,182.0841252579994,,,,,,,,,,,,,,,,,,,,,,,,,,,,,,left,1.0,0.9588546849990962,,,,,,sub-204,1,random_dot,88.38127867091035,
right,right,41.0,1.0,20.0,right,1.0,1.2353907930009882,,speed,space,0.9763283549982588,,,,,,0.0,0.0,0.0,1.0,20.0,1.0,41.0,1.0,182.09059045100005,,,,,,,,,182.08446581599856,182.18288885799848,182.97446861599747,182.966555150997,182.96706860799893,182.97446861599747,182.97446861599747,182.97446861599747,184.2171361310029,,,,,,,,,,,,,,,,,,,,,,,,,,,,,,right,1.0,1.2353907930009882,,,,,,sub-204,1,random_dot,88.38127867091035,
right,right,42.0,0.0,21.0,right,1.0,1.2320078979973914,,speed,space,0.9763283549982588,,,,,,0.0,0.0,0.0,1.0,21.0,0.0,42.0,1.0,184.22401799100044,,,,,,,,,184.2174235690036,184.5661691269997,185.35778326199943,185.34985861399764,185.35037816000116,185.35778326199943,185.35778326199943,185.35778326199943,186.5917121599996,,,,,,,,,,,,,,,,,,,,,,,,,,,,,,right,1.0,1.2320078979973914,,,,,,sub-204,1,random_dot,88.38127867091035,
left,left,43.0,1.0,21.0,right,0.0,1.801839394000126,,speed,space,0.9763283549982588,,,,,,0.0,0.0,0.0,1.0,21.0,1.0,43.0,0.0,186.59910472999763,,,,,,,,,186.59201088400005,186.68892798400336,187.4828028260017,187.4726385660033,187.4732042789983,187.4828028260017,187.4828028260017,187.4828028260017,189.29170234600315,,,,,,,,,,,,,,,,,,,,,,,,,,,,,,right,0.0,1.801839394000126,,,,,,sub-204,1,random_dot,88.38127867091035,
left,left,44.0,0.0,22.0,left,1.0,1.0896843890004675,,speed,space,0.9763283549982588,,,,,,0.0,0.0,0.0,1.0,22.0,0.0,44.0,0.0,189.2997812829999,,,,,,,,,189.2919997589997,190.4889608049998,191.28300854800185,191.27278104599827,191.2733752560016,191.28300854800185,191.28300854800185,191.28300854800185,192.38467519100232,,,,,,,,,,,,,,,,,,,,,,,,,,,,,,left,1.0,1.0896843890004675,,,,,,sub-204,1,random_dot,88.38127867091035,
right,right,45.0,1.0,22.0,left,0.0,1.2433782020016224,,speed,space,0.9763283549982588,,,,,,0.0,0.0,0.0,1.0,22.0,1.0,45.0,1.0,192.3941272660013,,,,,,,,,192.38499802500155,192.72428731800028,193.5170598890036,193.5073527880013,193.5079829239985,193.5170598890036,193.5170598890036,193.5170598890036,194.7689318260018,,,,,,,,,,,,,,,,,,,,,,,,,,,,,,left,0.0,1.2433782020016224,,,,,,sub-204,1,random_dot,88.38127867091035,
left,left,46.0,0.0,23.0,right,0.0,1.232560045995342,,speed,space,0.9763283549982588,,,,,,0.0,0.0,0.0,1.0,23.0,0.0,46.0,0.0,194.7779713810014,,,,,,,,,194.76929206200293,195.5667165449995,196.3587463810036,196.35009911400263,196.35057747300016,196.3587463810036,196.3587463810036,196.3587463810036,197.60103974799856,,,,,,,,,,,,,,,,,,,,,,,,,,,,,,right,0.0,1.232560045995342,,,,,,sub-204,1,random_dot,88.38127867091035,
right,right,47.0,1.0,23.0,right,1.0,2.1814142939983867,,speed,space,0.9763283549982588,,,,,,0.0,0.0,0.0,1.0,23.0,1.0,47.0,1.0,197.6094403719981,,,,,,,,,197.6014129489995,197.9499910590021,198.7428382330036,198.73343161700177,198.7339484490003,198.7428382330036,198.7428382330036,198.7428382330036,200.9346051510001,,,,,,,,,,,,,,,,,,,,,,,,,,,,,,right,1.0,2.1814142939983867,,,,,,sub-204,1,random_dot,88.38127867091035,
left,left,48.0,0.0,24.0,right,0.0,1.6972249380050926,,speed,space,0.9763283549982588,,,,,,0.0,0.0,0.0,1.0,24.0,0.0,48.0,0.0,200.94369096700396,,,,,,,,,200.9349265339988,201.2835978200019,202.07586232700123,202.06698147400311,202.0674949000022,202.07586232700123,202.07586232700123,202.07586232700123,203.77800863599987,,,,,,,,,,,,,,,,,,,,,,,,,,,,,,right,0.0,1.6972249380050926,,,,,,sub-204,1,random_dot,88.38127867091035,
right,right,49.0,1.0,24.0,right,1.0,1.91313356700266,,speed,space,0.9763283549982588,,,,,,0.0,0.0,0.0,1.0,24.0,1.0,49.0,1.0,203.78792253400024,,,,,,,,,203.7783038740017,204.12358434899943,204.916791787,204.90717957200104,204.9078104080036,204.916791787,204.916791787,204.916791787,206.83945308600232,,,,,,,,,,,,,,,,,,,,,,,,,,,,,,right,1.0,1.91313356700266,,,,,,sub-204,1,random_dot,88.38127867091035,
right,right,50.0,0.0,25.0,left,0.0,0.8528887159991427,,speed,space,0.9763283549982588,,,,,,0.0,0.0,0.0,1.0,25.0,0.0,50.0,1.0,206.8501709350021,,,,,,,,,206.83974776499963,207.18330006999892,207.97592517299927,207.96687179199944,207.96738427200037,207.97592517299927,207.97592517299927,207.97592517299927,208.8339798579982,,,,,,,,,,,,,,,,,,,,,,,,,,,,,,left,0.0,0.8528887159991427,,,,,,sub-204,1,random_dot,88.38127867091035,
left,left,51.0,1.0,25.0,left,1.0,0.8285981209992315,,speed,space,0.9763283549982588,,,,,,0.0,0.0,0.0,1.0,25.0,1.0,51.0,0.0,208.84074537800188,,,,,,,,,208.8342242159997,208.9324187040038,209.72332741699935,209.7157935029973,209.71620276699832,209.72332741699935,209.72332741699935,209.72332741699935,210.55631213299785,,,,,,,,,,,,,,,,,,,,,,,,,,,,,,left,1.0,0.8285981209992315,,,,,,sub-204,1,random_dot,88.38127867091035,
right,right,52.0,0.0,26.0,right,1.0,0.6895905179990223,,speed,space,0.9763283549982588,,,,,,0.0,0.0,0.0,1.0,26.0,0.0,52.0,1.0,210.5654204349994,,,,,,,,,210.55656261499823,210.90486647400397,211.69910106200405,211.68830871299724,211.6888518350024,211.69910106200405,211.69910106200405,211.69910106200405,212.3909763699994,,,,,,,,,,,,,,,,,,,,,,,,,,,,,,right,1.0,0.6895905179990223,,,,,,sub-204,1,random_dot,88.38127867091035,
left,left,53.0,1.0,26.0,left,1.0,0.7894627220011898,,speed,space,0.9763283549982588,,,,,,0.0,0.0,0.0,1.0,26.0,1.0,53.0,0.0,212.3987393930001,,,,,,,,,212.391254770002,212.48868604000015,213.28237755200095,213.27236885700404,213.27286394999828,213.28237755200095,213.28237755200095,213.28237755200095,214.0753696110041,,,,,,,,,,,,,,,,,,,,,,,,,,,,,,left,1.0,0.7894627220011898,,,,,,sub-204,1,random_dot,88.38127867091035,
right,right,54.0,0.0,27.0,right,1.0,0.6950923030017293,,speed,space,0.9763283549982588,,,,,,0.0,0.0,0.0,1.0,27.0,0.0,54.0,1.0,214.082454661002,,,,,,,,,214.0756698260011,214.87179989300057,215.66569655000055,215.6556552789989,215.6562458440021,215.66569655000055,215.66569655000055,215.66569655000055,216.36638562600277,,,,,,,,,,,,,,,,,,,,,,,,,,,,,,right,1.0,0.6950923030017293,,,,,,sub-204,1,random_dot,88.38127867091035,
left,left,55.0,1.0,27.0,left,1.0,0.7323152019962436,,speed,space,0.9763283549982588,,,,,,0.0,0.0,0.0,1.0,27.0,1.0,55.0,0.0,216.37352455200016,,,,,,,,,216.36665802800417,217.15532899100072,217.9490944560021,217.9389403410023,217.93952799600083,217.9490944560021,217.9490944560021,217.9490944560021,218.6839678550023,,,,,,,,,,,,,,,,,,,,,,,,,,,,,,left,1.0,0.7323152019962436,,,,,,sub-204,1,random_dot,88.38127867091035,
left,left,56.0,0.0,28.0,right,0.0,0.8873007189977216,,speed,space,0.9763283549982588,,,,,,0.0,0.0,0.0,1.0,28.0,0.0,56.0,0.0,218.69147778300248,,,,,,,,,218.68431477800183,218.7823099750021,219.5731699559983,219.56576688800124,219.56616994600336,219.5731699559983,219.5731699559983,219.5731699559983,220.46666653500145,,,,,,,,,,,,,,,,,,,,,,,,,,,,,,right,0.0,0.8873007189977216,,,,,,sub-204,1,random_dot,88.38127867091035,
right,right,57.0,1.0,28.0,right,1.0,0.773849073004385,,speed,space,0.9763283549982588,,,,,,0.0,0.0,0.0,1.0,28.0,1.0,57.0,1.0,220.4736355839996,,,,,,,,,220.46696040600364,220.5655940470024,221.35759905599843,221.3493454490017,221.34986133100028,221.35759905599843,221.35759905599843,221.35759905599843,222.1332929440032,,,,,,,,,,,,,,,,,,,,,,,,,,,,,,right,1.0,0.773849073004385,,,,,,sub-204,1,random_dot,88.38127867091035,
right,right,58.0,0.0,29.0,left,0.0,0.6606044220025069,,speed,space,0.9763283549982588,,,,,,0.0,0.0,0.0,1.0,29.0,0.0,58.0,1.0,222.1394007889976,,,,,,,,,222.1335611120012,222.921579337999,223.71564437999768,223.70531457700417,223.7058401039976,223.71564437999768,223.71564437999768,223.71564437999768,224.3833026069988,,,,,,,,,,,,,,,,,,,,,,,,,,,,,,left,0.0,0.6606044220025069,,,,,,sub-204,1,random_dot,88.38127867091035,
left,left,59.0,1.0,29.0,right,0.0,0.9491721910017076,,speed,space,0.9763283549982588,,,,,,0.0,0.0,0.0,1.0,29.0,1.0,59.0,0.0,224.390932827002,,,,,,,,,224.38362624,225.5822350630042,226.3739490070002,226.36601923200212,226.3665340360021,226.3739490070002,226.3739490070002,226.3739490070002,227.33274060999972,,,,,,,,,,,,,,,,,,,,,,,,,,,,,,right,0.0,0.9491721910017076,,,,,,sub-204,1,random_dot,88.38127867091035,
,,0.0,0.0,0.0,,,,,speed,space,0.9763283549982588,,,,,,0.0,0.0,0.0,1.0,,,,,,,,,,,,,,,,,,,,,,,,,,,,,,,,,,,,,,,,,,,,,,,,,,,,,,,,,,,,sub-204,1,random_dot,88.38127867091035,
left,left,0.0,0.0,0.0,right,0.0,1.316535947000375,,accuracy,space,1.338543894002214,,,,,,0.0,1.0,1.0,0.0,0.0,0.0,0.0,0.0,228.70493792300115,,,,,,,,,228.69559468900115,229.48885431799863,230.2824073180018,230.27251097700355,230.27312089000043,230.2824073180018,230.2824073180018,230.2824073180018,231.6067664689981,,,,,,,,,,,,,,,,,,,,,,,227.34277059900344,227.34957419199785,227.34957419199785,228.68997655100247,space,1.338543894002214,,right,0.0,1.316535947000375,,,,,,sub-204,1,random_dot,88.38127867091035,
right,right,1.0,1.0,0.0,left,0.0,1.671191135996196,,accuracy,space,1.338543894002214,,,,,,0.0,1.0,1.0,0.0,0.0,1.0,1.0,1.0,231.6152575829983,,,,,,,,,231.607062133,231.9550265450016,232.74887872399995,232.73832132000095,232.73885605300163,232.74887872399995,232.74887872399995,232.74887872399995,234.42372309900384,,,,,,,,,,,,,,,,,,,,,,,,,,,,,,left,0.0,1.671191135996196,,,,,,sub-204,1,random_dot,88.38127867091035,
right,right,2.0,0.0,1.0,right,1.0,2.082125141998404,,accuracy,space,1.338543894002214,,,,,,0.0,1.0,1.0,0.0,1.0,0.0,2.0,1.0,234.43216780100192,,,,,,,,,234.42402733500057,235.22185659000388,236.0155689070016,236.00545253699968,236.00604428000224,236.0155689070016,236.0155689070016,236.0155689070016,238.10005430800084,,,,,,,,,,,,,,,,,,,,,,,,,,,,,,right,1.0,2.082125141998404,,,,,,sub-204,1,random_dot,88.38127867091035,
left,left,3.0,1.0,1.0,left,1.0,0.8329358490009326,,accuracy,space,1.338543894002214,,,,,,0.0,1.0,1.0,0.0,1.0,1.0,3.0,0.0,238.10726875699768,,,,,,,,,238.1003340699972,239.29874965300405,240.0906193539995,240.08242358599816,240.08294290499907,240.0906193539995,240.0906193539995,240.0906193539995,240.9325175460035,,,,,,,,,,,,,,,,,,,,,,,,,,,,,,left,1.0,0.8329358490009326,,,,,,sub-204,1,random_dot,88.38127867091035,
left,left,4.0,0.0,2.0,left,1.0,1.3522216080018552,,accuracy,space,1.338543894002214,,,,,,0.0,1.0,1.0,0.0,2.0,0.0,4.0,0.0,240.939734808002,,,,,,,,,240.93279868800164,242.12162672600243,242.91538265300187,242.90527513399863,242.9058005749976,242.91538265300187,242.91538265300187,242.91538265300187,244.2743458900004,,,,,,,,,,,,,,,,,,,,,,,,,,,,,,left,1.0,1.3522216080018552,,,,,,sub-204,1,random_dot,88.38127867091035,
right,right,5.0,1.0,2.0,right,1.0,1.621420716001012,,accuracy,space,1.338543894002214,,,,,,0.0,1.0,1.0,0.0,2.0,1.0,5.0,1.0,244.28255552799965,,,,,,,,,244.2746207320015,244.62163770900224,245.41507915699916,245.4050490869995,245.40558646200225,245.41507915699916,245.41507915699916,245.41507915699916,247.04047652900044,,,,,,,,,,,,,,,,,,,,,,,,,,,,,,right,1.0,1.621420716001012,,,,,,sub-204,1,random_dot,88.38127867091035,
right,right,6.0,0.0,3.0,left,0.0,1.3305183289994602,,accuracy,space,1.338543894002214,,,,,,0.0,1.0,1.0,0.0,3.0,0.0,6.0,1.0,247.048554934001,,,,,,,,,247.0407696320035,248.2381799939976,249.03273771700333,249.02160328599712,249.02207370399992,249.03273771700333,249.03273771700333,249.03273771700333,250.3661264859984,,,,,,,,,,,,,,,,,,,,,,,,,,,,,,left,0.0,1.3305183289994602,,,,,,sub-204,1,random_dot,88.38127867091035,
left,left,7.0,1.0,3.0,right,0.0,1.108810416997585,,accuracy,space,1.338543894002214,,,,,,0.0,1.0,1.0,0.0,3.0,1.0,7.0,0.0,250.37338728999748,,,,,,,,,250.3664316459981,251.55437613800316,252.34846018600365,252.33821960099883,252.33878985499905,252.34846018600365,252.34846018600365,252.34846018600365,253.46580000800168,,,,,,,,,,,,,,,,,,,,,,,,,,,,,,right,0.0,1.108810416997585,,,,,,sub-204,1,random_dot,88.38127867091035,
left,left,8.0,0.0,4.0,right,0.0,1.2515924260005704,,accuracy,space,1.338543894002214,,,,,,0.0,1.0,1.0,0.0,4.0,0.0,8.0,0.0,253.47290097200312,,,,,,,,,253.46609836000425,254.2547485620016,255.0484210939976,255.03839655400225,255.03901159400263,255.0484210939976,255.0484210939976,255.0484210939976,256.3071352609986,,,,,,,,,,,,,,,,,,,,,,,,,,,,,,right,0.0,1.2515924260005704,,,,,,sub-204,1,random_dot,88.38127867091035,
right,right,9.0,1.0,4.0,right,1.0,2.011272904004727,,accuracy,space,1.338543894002214,,,,,,0.0,1.0,1.0,0.0,4.0,1.0,9.0,1.0,256.3154753609997,,,,,,,,,256.3074852810023,257.5049879470025,258.29853653600003,258.28865975199733,258.2892570190015,258.29853653600003,258.29853653600003,258.29853653600003,260.3165244179981,,,,,,,,,,,,,,,,,,,,,,,,,,,,,,right,1.0,2.011272904004727,,,,,,sub-204,1,random_dot,88.38127867091035,
right,right,10.0,0.0,5.0,left,0.0,1.307328563998453,,accuracy,space,1.338543894002214,,,,,,0.0,1.0,1.0,0.0,5.0,0.0,10.0,1.0,260.3234300559998,,,,,,,,,260.3168058040028,261.51507778400264,262.3063339740038,262.2987620019994,262.29916460299864,262.3063339740038,262.3063339740038,262.3063339740038,263.61626137499843,,,,,,,,,,,,,,,,,,,,,,,,,,,,,,left,0.0,1.307328563998453,,,,,,sub-204,1,random_dot,88.38127867091035,
left,left,11.0,1.0,5.0,right,0.0,0.9285992900040584,,accuracy,space,1.338543894002214,,,,,,0.0,1.0,1.0,0.0,5.0,1.0,11.0,0.0,263.6234733370002,,,,,,,,,263.61655723700096,263.96517992100416,264.75697991200286,264.7489221670039,264.749437217004,264.75697991200286,264.75697991200286,264.75697991200286,265.6906165999972,,,,,,,,,,,,,,,,,,,,,,,,,,,,,,right,0.0,0.9285992900040584,,,,,,sub-204,1,random_dot,88.38127867091035,
right,right,12.0,0.0,6.0,right,1.0,3.15585459000431,,accuracy,space,1.338543894002214,,,,,,0.0,1.0,1.0,0.0,6.0,0.0,12.0,1.0,265.69856940500176,,,,,,,,,265.6908816760042,265.7879208720042,266.58161193900014,266.57151572300063,266.57204634400114,266.58161193900014,266.58161193900014,266.58161193900014,269.7404916489977,,,,,,,,,,,,,,,,,,,,,,,,,,,,,,right,1.0,3.15585459000431,,,,,,sub-204,1,random_dot,88.38127867091035,
left,left,13.0,1.0,6.0,left,1.0,0.7887032460057526,,accuracy,space,1.338543894002214,,,,,,0.0,1.0,1.0,0.0,6.0,1.0,13.0,0.0,269.74897775700083,,,,,,,,,269.7407975890019,269.8378338429975,270.6316529160031,270.6214498269983,270.62197559299966,270.6316529160031,270.6316529160031,270.6316529160031,271.4232944960022,,,,,,,,,,,,,,,,,,,,,,,,,,,,,,left,1.0,0.7887032460057526,,,,,,sub-204,1,random_dot,88.38127867091035,
right,right,14.0,0.0,7.0,right,1.0,1.6962533899932168,,accuracy,space,1.338543894002214,,,,,,0.0,1.0,1.0,0.0,7.0,0.0,14.0,1.0,271.431458193998,,,,,,,,,271.42358902200067,272.2211630660022,273.0149415790001,273.0048631739992,273.00537501899817,273.0149415790001,273.0149415790001,273.0149415790001,274.7161340340026,,,,,,,,,,,,,,,,,,,,,,,,,,,,,,right,1.0,1.6962533899932168,,,,,,sub-204,1,random_dot,88.38127867091035,
left,left,15.0,1.0,7.0,left,1.0,2.05366589800542,,accuracy,space,1.338543894002214,,,,,,0.0,1.0,1.0,0.0,7.0,1.0,15.0,0.0,274.72290837699984,,,,,,,,,274.7163943909982,275.0648908930016,275.8565043830022,275.8486162640038,275.849138698999,275.8565043830022,275.8565043830022,275.8565043830022,277.91579068399733,,,,,,,,,,,,,,,,,,,,,,,,,,,,,,left,1.0,2.05366589800542,,,,,,sub-204,1,random_dot,88.38127867091035,
left,left,16.0,0.0,8.0,left,1.0,1.094523697000113,,accuracy,space,1.338543894002214,,,,,,0.0,1.0,1.0,0.0,8.0,0.0,16.0,0.0,277.9225518250023,,,,,,,,,277.9160545720006,278.7148116140015,279.506418899,279.4985255240026,279.49904229200183,279.506418899,279.506418899,279.506418899,280.60697770299885,,,,,,,,,,,,,,,,,,,,,,,,,,,,,,left,1.0,1.094523697000113,,,,,,sub-204,1,random_dot,88.38127867091035,
right,right,17.0,1.0,8.0,right,1.0,1.0947316570018302,,accuracy,space,1.338543894002214,,,,,,0.0,1.0,1.0,0.0,8.0,1.0,17.0,1.0,280.61519535200205,,,,,,,,,280.6072687519991,281.40444082400063,282.19820691800123,282.1878866690022,282.1884142659983,282.19820691800123,282.19820691800123,282.19820691800123,283.29901520600106,,,,,,,,,,,,,,,,,,,,,,,,,,,,,,right,1.0,1.0947316570018302,,,,,,sub-204,1,random_dot,88.38127867091035,
right,right,18.0,0.0,9.0,right,1.0,1.7649105960008455,,accuracy,space,1.338543894002214,,,,,,0.0,1.0,1.0,0.0,9.0,0.0,18.0,1.0,283.30579565800144,,,,,,,,,283.29928518400266,284.4880051450018,285.2819306399979,285.2716327320013,285.2722536680012,285.2819306399979,285.2819306399979,285.2819306399979,287.04893476099824,,,,,,,,,,,,,,,,,,,,,,,,,,,,,,right,1.0,1.7649105960008455,,,,,,sub-204,1,random_dot,88.38127867091035,
left,left,19.0,1.0,9.0,left,1.0,1.8303660379970097,,accuracy,space,1.338543894002214,,,,,,0.0,1.0,1.0,0.0,9.0,1.0,19.0,0.0,287.05441936900024,,,,,,,,,287.0492269099996,287.3875983870021,288.1814834300021,288.1711982179986,288.1717248749992,288.1814834300021,288.1814834300021,288.1814834300021,290.0157917769975,,,,,,,,,,,,,,,,,,,,,,,,,,,,,,left,1.0,1.8303660379970097,,,,,,sub-204,1,random_dot,88.38127867091035,
right,right,20.0,0.0,10.0,left,0.0,1.143233982998936,,accuracy,space,1.338543894002214,,,,,,0.0,1.0,1.0,0.0,10.0,0.0,20.0,1.0,290.02292817200214,,,,,,,,,290.0160622510012,290.364679803999,291.15631507200305,291.1484130320023,291.1489251899984,291.15631507200305,291.15631507200305,291.15631507200305,292.30673496400414,,,,,,,,,,,,,,,,,,,,,,,,,,,,,,left,0.0,1.143233982998936,,,,,,sub-204,1,random_dot,88.38127867091035,
left,left,21.0,1.0,10.0,right,0.0,1.4734287669998594,,accuracy,space,1.338543894002214,,,,,,0.0,1.0,1.0,0.0,10.0,1.0,21.0,0.0,292.315092705001,,,,,,,,,292.30706326400104,292.65427122300025,293.4480374880004,293.43793685600394,293.4385392309996,293.4480374880004,293.4480374880004,293.4480374880004,294.9233294040023,,,,,,,,,,,,,,,,,,,,,,,,,,,,,,right,0.0,1.4734287669998594,,,,,,sub-204,1,random_dot,88.38127867091035,
left,left,22.0,0.0,11.0,left,1.0,1.1578582929942058,,accuracy,space,1.338543894002214,,,,,,0.0,1.0,1.0,0.0,11.0,0.0,22.0,0.0,294.9308977289984,,,,,,,,,294.92363299099816,295.0209504779996,295.8146137419972,295.8044941620028,295.80509550499846,295.8146137419972,295.8146137419972,295.8146137419972,296.9739497920018,,,,,,,,,,,,,,,,,,,,,,,,,,,,,,left,1.0,1.1578582929942058,,,,,,sub-204,1,random_dot,88.38127867091035,
right,right,23.0,1.0,11.0,right,1.0,1.4856457500063698,,accuracy,space,1.338543894002214,,,,,,0.0,1.0,1.0,0.0,11.0,1.0,23.0,1.0,296.9810481489985,,,,,,,,,296.9742319979996,298.1708585840024,298.9645939969996,298.9544353029996,298.9550313509972,298.9645939969996,298.9645939969996,298.9645939969996,300.45671057399886,,,,,,,,,,,,,,,,,,,,,,,,,,,,,,right,1.0,1.4856457500063698,,,,,,sub-204,1,random_dot,88.38127867091035,
right,right,24.0,0.0,12.0,right,1.0,1.5844033230023342,,accuracy,space,1.338543894002214,,,,,,0.0,1.0,1.0,0.0,12.0,0.0,24.0,1.0,300.4647511380026,,,,,,,,,300.45700327600207,301.2537610549989,302.04786167400016,302.03782310800307,302.03835436199734,302.04786167400016,302.04786167400016,302.04786167400016,303.6396446020008,,,,,,,,,,,,,,,,,,,,,,,,,,,,,,right,1.0,1.5844033230023342,,,,,,sub-204,1,random_dot,88.38127867091035,
left,left,25.0,1.0,12.0,left,1.0,1.317723660999036,,accuracy,space,1.338543894002214,,,,,,0.0,1.0,1.0,0.0,12.0,1.0,25.0,0.0,303.64794204800273,,,,,,,,,303.63998865999747,303.7371174360014,304.5311992490024,304.5210290690011,304.52163121099875,304.5311992490024,304.5311992490024,304.5311992490024,305.85622964100185,,,,,,,,,,,,,,,,,,,,,,,,,,,,,,left,1.0,1.317723660999036,,,,,,sub-204,1,random_dot,88.38127867091035,
right,right,26.0,0.0,13.0,right,1.0,1.281105119996937,,accuracy,space,1.338543894002214,,,,,,0.0,1.0,1.0,0.0,13.0,0.0,26.0,1.0,305.8645657779998,,,,,,,,,305.8565572360021,306.6540329700001,307.4478182000021,307.4377909219984,307.4383899989989,307.4478182000021,307.4478182000021,307.4478182000021,308.73226391700155,,,,,,,,,,,,,,,,,,,,,,,,,,,,,,right,1.0,1.281105119996937,,,,,,sub-204,1,random_dot,88.38127867091035,
left,left,27.0,1.0,13.0,left,1.0,1.5286955249976018,,accuracy,space,1.338543894002214,,,,,,0.0,1.0,1.0,0.0,13.0,1.0,27.0,0.0,308.7388312100011,,,,,,,,,308.7325517249992,309.5312129919985,310.3222418869991,310.31472760799807,310.31512962200213,310.3222418869991,310.3222418869991,310.3222418869991,311.8658733620032,,,,,,,,,,,,,,,,,,,,,,,,,,,,,,left,1.0,1.5286955249976018,,,,,,sub-204,1,random_dot,88.38127867091035,
right,right,28.0,0.0,14.0,left,0.0,1.0107951989994035,,accuracy,space,1.338543894002214,,,,,,0.0,1.0,1.0,0.0,14.0,0.0,28.0,1.0,311.87985159600066,,,,,,,,,311.86646105600084,313.05541382400406,313.8489593970007,313.83898169400345,313.83960873499746,313.8489593970007,313.8489593970007,313.8489593970007,314.8707956560029,,,,,,,,,,,,,,,,,,,,,,,,,,,,,,left,0.0,1.0107951989994035,,,,,,sub-204,1,random_dot,88.38127867091035,
left,left,29.0,1.0,14.0,right,0.0,0.8186301169989747,,accuracy,space,1.338543894002214,,,,,,0.0,1.0,1.0,0.0,14.0,1.0,29.0,0.0,314.88175965700066,,,,,,,,,314.87117107000086,315.6650844129981,316.4569130750024,316.4483637750018,316.4488830699993,316.4569130750024,316.4569130750024,316.4569130750024,317.28258485800325,,,,,,,,,,,,,,,,,,,,,,,,,,,,,,right,0.0,0.8186301169989747,,,,,,sub-204,1,random_dot,88.38127867091035,
left,left,30.0,0.0,15.0,right,0.0,2.335086439998122,,accuracy,space,1.338543894002214,,,,,,0.0,1.0,1.0,0.0,15.0,0.0,30.0,0.0,317.2915529550009,,,,,,,,,317.2829155599975,317.3725549430019,318.16528883999854,318.15561045600043,318.1562354380003,318.16528883999854,318.16528883999854,318.16528883999854,320.51008694399934,,,,,,,,,,,,,,,,,,,,,,,,,,,,,,right,0.0,2.335086439998122,,,,,,sub-204,1,random_dot,88.38127867091035,
right,right,31.0,1.0,15.0,left,0.0,1.0597151890033274,,accuracy,space,1.338543894002214,,,,,,0.0,1.0,1.0,0.0,15.0,1.0,31.0,1.0,320.51996698600124,,,,,,,,,320.51064621099795,320.8558852019996,321.648620371001,321.639044141004,321.6396670250033,321.648620371001,321.648620371001,321.648620371001,322.71570490700105,,,,,,,,,,,,,,,,,,,,,,,,,,,,,,left,0.0,1.0597151890033274,,,,,,sub-204,1,random_dot,88.38127867091035,
left,left,32.0,0.0,16.0,right,0.0,0.9817728620037088,,accuracy,space,1.338543894002214,,,,,,0.0,1.0,1.0,0.0,16.0,0.0,32.0,0.0,322.7242172309998,,,,,,,,,322.7159700170014,323.5052988160023,324.2984656839981,324.2888449530001,324.28947555500054,324.2984656839981,324.2984656839981,324.2984656839981,325.28849383500346,,,,,,,,,,,,,,,,,,,,,,,,,,,,,,right,0.0,0.9817728620037088,,,,,,sub-204,1,random_dot,88.38127867091035,
right,right,33.0,1.0,16.0,left,0.0,0.9147641669987934,,accuracy,space,1.338543894002214,,,,,,0.0,1.0,1.0,0.0,16.0,1.0,33.0,1.0,325.2986774910023,,,,,,,,,325.2888735470042,325.63179591899825,326.42434750100074,326.4152843539996,326.4158023330019,326.42434750100074,326.42434750100074,326.42434750100074,327.34267597000144,,,,,,,,,,,,,,,,,,,,,,,,,,,,,,left,0.0,0.9147641669987934,,,,,,sub-204,1,random_dot,88.38127867091035,
right,right,34.0,0.0,17.0,right,1.0,1.2138232860015703,,accuracy,space,1.338543894002214,,,,,,0.0,1.0,1.0,0.0,17.0,0.0,34.0,1.0,327.3527739120036,,,,,,,,,327.3429570820008,328.5386191459984,329.3318386270039,329.3222368229981,329.3228543389996,329.3318386270039,329.3318386270039,329.3318386270039,330.55453059900174,,,,,,,,,,,,,,,,,,,,,,,,,,,,,,right,1.0,1.2138232860015703,,,,,,sub-204,1,random_dot,88.38127867091035,
left,left,35.0,1.0,17.0,left,1.0,0.9149388389996602,,accuracy,space,1.338543894002214,,,,,,0.0,1.0,1.0,0.0,17.0,1.0,35.0,0.0,330.5650384019973,,,,,,,,,330.5548540890013,331.34811154400086,332.14090184600354,332.1319963069982,332.1325187870025,332.14090184600354,332.14090184600354,332.14090184600354,333.0651954310015,,,,,,,,,,,,,,,,,,,,,,,,,,,,,,left,1.0,0.9149388389996602,,,,,,sub-204,1,random_dot,88.38127867091035,
left,left,36.0,0.0,18.0,right,0.0,1.0133498049981426,,accuracy,space,1.338543894002214,,,,,,0.0,1.0,1.0,0.0,18.0,0.0,36.0,0.0,333.074390062,,,,,,,,,333.0655985839985,333.15590760699706,333.94844738100073,333.9388439820032,333.9394490140039,333.94844738100073,333.94844738100073,333.94844738100073,334.9657562150024,,,,,,,,,,,,,,,,,,,,,,,,,,,,,,right,0.0,1.0133498049981426,,,,,,sub-204,1,random_dot,88.38127867091035,
right,right,37.0,1.0,18.0,right,1.0,1.1111231329996372,,accuracy,space,1.338543894002214,,,,,,0.0,1.0,1.0,0.0,18.0,1.0,37.0,1.0,334.97421870499966,,,,,,,,,334.9660464609988,335.0557828070014,335.84864350000134,335.8387858770002,335.83940666400304,335.84864350000134,335.84864350000134,335.84864350000134,336.9654137000034,,,,,,,,,,,,,,,,,,,,,,,,,,,,,,right,1.0,1.1111231329996372,,,,,,sub-204,1,random_dot,88.38127867091035,
left,left,38.0,0.0,19.0,left,1.0,0.8822689519947744,,accuracy,space,1.338543894002214,,,,,,0.0,1.0,1.0,0.0,19.0,0.0,38.0,0.0,336.9750782339979,,,,,,,,,336.965725934002,337.05556787700334,337.84836881400406,337.8387109469986,337.83932705900224,337.84836881400406,337.84836881400406,337.84836881400406,338.7377951469971,,,,,,,,,,,,,,,,,,,,,,,,,,,,,,left,1.0,0.8822689519947744,,,,,,sub-204,1,random_dot,88.38127867091035,
right,right,39.0,1.0,19.0,right,1.0,1.001955571002327,,accuracy,space,1.338543894002214,,,,,,0.0,1.0,1.0,0.0,19.0,1.0,39.0,1.0,338.7485201899981,,,,,,,,,338.7380709420031,339.5314628720007,340.324757057002,340.315148669004,340.3156655999992,340.324757057002,340.324757057002,340.324757057002,341.3324746290018,,,,,,,,,,,,,,,,,,,,,,,,,,,,,,right,1.0,1.001955571002327,,,,,,sub-204,1,random_dot,88.38127867091035,
right,right,40.0,0.0,20.0,right,1.0,3.3373499299996183,,accuracy,space,1.338543894002214,,,,,,0.0,1.0,1.0,0.0,20.0,0.0,40.0,1.0,341.34070147100283,,,,,,,,,341.3327361979973,342.12218989199755,342.9149846569999,342.90534895699966,342.9059475760005,342.9149846569999,342.9149846569999,342.9149846569999,346.2596047490006,,,,,,,,,,,,,,,,,,,,,,,,,,,,,,right,1.0,3.3373499299996183,,,,,,sub-204,1,random_dot,88.38127867091035,
left,left,41.0,1.0,20.0,left,1.0,1.4038522869959706,,accuracy,space,1.338543894002214,,,,,,0.0,1.0,1.0,0.0,20.0,1.0,41.0,0.0,346.26927302200056,,,,,,,,,346.25996348800254,346.35587623299944,347.14838410299853,347.1387560229996,347.1393719300031,347.14838410299853,347.14838410299853,347.14838410299853,348.5534057410041,,,,,,,,,,,,,,,,,,,,,,,,,,,,,,left,1.0,1.4038522869959706,,,,,,sub-204,1,random_dot,88.38127867091035,
right,right,42.0,0.0,21.0,right,1.0,1.2534497649976402,,accuracy,space,1.338543894002214,,,,,,0.0,1.0,1.0,0.0,21.0,0.0,42.0,1.0,348.5648356649981,,,,,,,,,348.55369836700265,349.3480259900025,350.14071078800043,350.1316087660016,350.1321322500007,350.14071078800043,350.14071078800043,350.14071078800043,351.39897024100355,,,,,,,,,,,,,,,,,,,,,,,,,,,,,,right,1.0,1.2534497649976402,,,,,,sub-204,1,random_dot,88.38127867091035,
left,left,43.0,1.0,21.0,right,0.0,2.055353080002533,,accuracy,space,1.338543894002214,,,,,,0.0,1.0,1.0,0.0,21.0,1.0,43.0,0.0,351.4076078670041,,,,,,,,,351.3992368390027,351.4886894849988,352.28199724000297,352.2719024329999,352.27253264799947,352.28199724000297,352.28199724000297,352.28199724000297,354.34209773800103,,,,,,,,,,,,,,,,,,,,,,,,,,,,,,right,0.0,2.055353080002533,,,,,,sub-204,1,random_dot,88.38127867091035,
right,right,44.0,0.0,22.0,left,0.0,2.253898249997292,,accuracy,space,1.338543894002214,,,,,,0.0,1.0,1.0,0.0,22.0,0.0,44.0,1.0,354.35238201299944,,,,,,,,,354.3423780180019,354.4388265899979,355.2399811439973,355.23141244800354,355.2319301440002,355.2399811439973,355.2399811439973,355.2399811439973,357.4990521860018,,,,,,,,,,,,,,,,,,,,,,,,,,,,,,left,0.0,2.253898249997292,,,,,,sub-204,1,random_dot,88.38127867091035,
left,left,45.0,1.0,22.0,right,0.0,0.7793284970030072,,accuracy,space,1.338543894002214,,,,,,0.0,1.0,1.0,0.0,22.0,1.0,45.0,0.0,357.50785445600195,,,,,,,,,357.49934038799984,358.6978940409972,359.4906809430031,359.48154665400216,359.48206795199803,359.4906809430031,359.4906809430031,359.4906809430031,360.2758251159976,,,,,,,,,,,,,,,,,,,,,,,,,,,,,,right,0.0,0.7793284970030072,,,,,,sub-204,1,random_dot,88.38127867091035,
left,left,46.0,0.0,23.0,left,1.0,0.9341054149990669,,accuracy,space,1.338543894002214,,,,,,0.0,1.0,1.0,0.0,23.0,0.0,46.0,0.0,360.28562696299923,,,,,,,,,360.2761357519994,361.4714603520042,362.26470223600336,362.2551121990036,362.2557019140004,362.26470223600336,362.26470223600336,362.26470223600336,363.203589015,,,,,,,,,,,,,,,,,,,,,,,,,,,,,,left,1.0,0.9341054149990669,,,,,,sub-204,1,random_dot,88.38127867091035,
right,right,47.0,1.0,23.0,right,1.0,1.0989451220011688,,accuracy,space,1.338543894002214,,,,,,0.0,1.0,1.0,0.0,23.0,1.0,47.0,1.0,363.21465512300347,,,,,,,,,363.2038502180003,364.3976907960023,365.1905598880039,365.1814405219993,365.181958332003,365.1905598880039,365.1905598880039,365.1905598880039,366.2986193370016,,,,,,,,,,,,,,,,,,,,,,,,,,,,,,right,1.0,1.0989451220011688,,,,,,sub-204,1,random_dot,88.38127867091035,
right,right,48.0,0.0,24.0,right,1.0,4.245935163002287,,accuracy,space,1.338543894002214,,,,,,0.0,1.0,1.0,0.0,24.0,0.0,48.0,1.0,366.3075119959976,,,,,,,,,366.29890519699984,366.3886005640016,367.18135726999753,367.1716505450022,367.1722986340028,367.18135726999753,367.18135726999753,367.18135726999753,371.4323488459995,,,,,,,,,,,,,,,,,,,,,,,,,,,,,,right,1.0,4.245935163002287,,,,,,sub-204,1,random_dot,88.38127867091035,
left,left,49.0,1.0,24.0,right,0.0,2.194896383000014,,accuracy,space,1.338543894002214,,,,,,0.0,1.0,1.0,0.0,24.0,1.0,49.0,0.0,371.4405401650001,,,,,,,,,371.4326067810034,371.53115990899823,372.3233148930012,372.31456530399737,372.3151033660033,372.3233148930012,372.3233148930012,372.3233148930012,374.5254601850029,,,,,,,,,,,,,,,,,,,,,,,,,,,,,,right,0.0,2.194896383000014,,,,,,sub-204,1,random_dot,88.38127867091035,
left,left,50.0,0.0,25.0,left,1.0,0.992839405000268,,accuracy,space,1.338543894002214,,,,,,0.0,1.0,1.0,0.0,25.0,0.0,50.0,0.0,374.5355020060015,,,,,,,,,374.5257308660002,375.32133976500336,376.1224359570042,376.1141863279991,376.1147007390027,376.1224359570042,376.1224359570042,376.1224359570042,377.1202294859977,,,,,,,,,,,,,,,,,,,,,,,,,,,,,,left,1.0,0.992839405000268,,,,,,sub-204,1,random_dot,88.38127867091035,
right,right,51.0,1.0,25.0,left,0.0,2.752196378001827,,accuracy,space,1.338543894002214,,,,,,0.0,1.0,1.0,0.0,25.0,1.0,51.0,1.0,377.1310085820005,,,,,,,,,377.1205202120036,378.314522982997,379.10682392799936,379.0979612680021,379.0984732700017,379.10682392799936,379.10682392799936,379.10682392799936,381.8638323740015,,,,,,,,,,,,,,,,,,,,,,,,,,,,,,left,0.0,2.752196378001827,,,,,,sub-204,1,random_dot,88.38127867091035,
right,right,52.0,0.0,26.0,left,0.0,0.9651888970038272,,accuracy,space,1.338543894002214,,,,,,0.0,1.0,1.0,0.0,26.0,0.0,52.0,1.0,381.8723381739983,,,,,,,,,381.8641254730028,382.204515782003,382.9976549139974,382.9881434339986,382.9887795120012,382.9976549139974,382.9976549139974,382.9976549139974,383.9653575359989,,,,,,,,,,,,,,,,,,,,,,,,,,,,,,left,0.0,0.9651888970038272,,,,,,sub-204,1,random_dot,88.38127867091035,
left,left,53.0,1.0,26.0,right,0.0,0.83721317799791,,accuracy,space,1.338543894002214,,,,,,0.0,1.0,1.0,0.0,26.0,1.0,53.0,0.0,383.97406685999886,,,,,,,,,383.9656333149978,385.1641554710004,385.9573747059985,385.9478942220012,385.9484365410026,385.9573747059985,385.9573747059985,385.9573747059985,386.8041340920026,,,,,,,,,,,,,,,,,,,,,,,,,,,,,,right,0.0,0.83721317799791,,,,,,sub-204,1,random_dot,88.38127867091035,
right,right,54.0,0.0,27.0,right,1.0,3.66850518299907,,accuracy,space,1.338543894002214,,,,,,0.0,1.0,1.0,0.0,27.0,0.0,54.0,1.0,386.8144035009973,,,,,,,,,386.8045063969985,386.8976541290031,387.6900112259973,387.6810958650021,387.6816128339997,387.6900112259973,387.6900112259973,387.6900112259973,391.3646478919982,,,,,,,,,,,,,,,,,,,,,,,,,,,,,,right,1.0,3.66850518299907,,,,,,sub-204,1,random_dot,88.38127867091035,
left,left,55.0,1.0,27.0,right,0.0,1.4976927199968486,,accuracy,space,1.338543894002214,,,,,,0.0,1.0,1.0,0.0,27.0,1.0,55.0,0.0,391.3743229809989,,,,,,,,,391.364965519002,392.5543915540038,393.34767509200174,393.3380320819997,393.3387134520017,393.34767509200174,393.34767509200174,393.34767509200174,394.8535076850021,,,,,,,,,,,,,,,,,,,,,,,,,,,,,,right,0.0,1.4976927199968486,,,,,,sub-204,1,random_dot,88.38127867091035,
right,right,56.0,0.0,28.0,right,1.0,1.9004272610036423,,accuracy,space,1.338543894002214,,,,,,0.0,1.0,1.0,0.0,28.0,0.0,56.0,1.0,394.86428601700027,,,,,,,,,394.8538300509972,396.0476924120012,396.8398089570037,396.8310417160028,396.8315514659989,396.8398089570037,396.8398089570037,396.8398089570037,398.7640228270029,,,,,,,,,,,,,,,,,,,,,,,,,,,,,,right,1.0,1.9004272610036423,,,,,,sub-204,1,random_dot,88.38127867091035,
left,left,57.0,1.0,28.0,left,1.0,0.7577922279961058,,accuracy,space,1.338543894002214,,,,,,0.0,1.0,1.0,0.0,28.0,1.0,57.0,0.0,398.7814159460031,,,,,,,,,398.7646127249973,399.10384838999744,399.8973081290024,399.8868209970024,399.8874739849998,399.8973081290024,399.8973081290024,399.8973081290024,400.6571158959996,,,,,,,,,,,,,,,,,,,,,,,,,,,,,,left,1.0,0.7577922279961058,,,,,,sub-204,1,random_dot,88.38127867091035,
right,right,58.0,0.0,29.0,right,1.0,1.522920396993868,,accuracy,space,1.338543894002214,,,,,,0.0,1.0,1.0,0.0,29.0,0.0,58.0,1.0,400.6638420169984,,,,,,,,,400.6573919779985,401.0037375469983,401.7980654240018,401.7874991650024,401.7881248749982,401.7980654240018,401.7980654240018,401.7980654240018,403.33153166400007,,,,,,,,,,,,,,,,,,,,,,,,,,,,,,right,1.0,1.522920396993868,,,,,,sub-204,1,random_dot,88.38127867091035,
left,left,59.0,1.0,29.0,left,1.0,1.0317415309982607,,accuracy,space,1.338543894002214,,,,,,0.0,1.0,1.0,0.0,29.0,1.0,59.0,0.0,403.3405244090027,,,,,,,,,403.331850569004,403.4214066350032,404.2141872659995,404.20454932199937,404.205180156001,404.2141872659995,404.2141872659995,404.2141872659995,405.2544844340009,,,,,,,,,,,,,,,,,,,,,,,,,,,,,,left,1.0,1.0317415309982607,,,,,,sub-204,1,random_dot,88.38127867091035,
,,1.0,1.0,0.0,,,,,accuracy,space,1.338543894002214,,,,,,0.0,1.0,1.0,0.0,,,,,,,,,,,,,,,,,,,,,,,,,,,,,,,,,,,,,,,,,,,,,,,,,,,,,,,,,,,,sub-204,1,random_dot,88.38127867091035,
,,,,,,,,,,,,,,,,,,,,,,,,,,,,,,,,,,,,,,,,,,,,,,,,,,,,,,,,,,,,,,,,,,,,,,,,,,,,405.25890689699736,405.2695350279973,410.2635618530039,410.2540817429981,sub-204,1,random_dot,88.38127867091035,
