wordCTK,colorCTK,corrAnsCTK,congruentCTK,thisN,thisTrialN,thisRepN,keyResp_CTK.keys,keyResp_CTK.corr,keyResp_CTK.rt,keyResp_CTK.duration,wordPractice,colorPractice,corrAnsPractice,congruentPractice,respPractice.keys,respPractice.corr,respPractice.rt,respPractice.duration,word,color,corrAns,congruent,keyResp_test_run.keys,keyResp_test_run.corr,keyResp_test_run.rt,keyResp_test_run.duration,trials_CTK.thisRepN,trials_CTK.thisTrialN,trials_CTK.thisN,trials_CTK.thisIndex,trials_practice.thisRepN,trials_practice.thisTrialN,trials_practice.thisN,trials_practice.thisIndex,trials_test.thisRepN,trials_test.thisTrialN,trials_test.thisN,trials_test.thisIndex,thisRow.t,notes,instruction.started,instr_text.started,instr_image.started,instr_resp.started,instruction.stopped,instr_resp.keys,instr_resp.rt,instr_resp.duration,instr_color_to_key.started,instr_ctk.started,resp_ctk.started,instr_color_to_key.stopped,resp_ctk.keys,resp_ctk.rt,resp_ctk.duration,ITI.started,fixcross.started,fixcross.stopped,ITI.stopped,color_to_key_run.started,stimulus_CTK.started,keyResp_CTK.started,color_to_key_run.stopped,trials_CTK.keyResp_CTK.keys,trials_CTK.keyResp_CTK.corr,trials_CTK.keyResp_CTK.rt,trials_CTK.keyResp_CTK.duration,instr_practice.started,instr_practice_text.started,instr_practice_resp.started,instr_practice.stopped,instr_practice_resp.keys,instr_practice_resp.rt,instr_practice_resp.duration,practice_run.started,stimulus_practice.started,respPractice.started,practice_run.stopped,trials_practice.respPractice.keys,trials_practice.respPractice.corr,trials_practice.respPractice.rt,trials_practice.respPractice.duration,feedback.started,textFeedback.started,feedback.stopped,textFeedback.stopped,instr_test.started,instr_test_text.started,instr_test_resp.started,instr_test.stopped,instr_test_resp.keys,instr_test_resp.rt,instr_test_resp.duration,test_run.started,stimulus_test_run.started,keyResp_test_run.started,test_run.stopped,trials_test.keyResp_test_run.keys,trials_test.keyResp_test_run.corr,trials_test.keyResp_test_run.rt,trials_test.keyResp_test_run.duration,goodbye.started,textGoodbye.started,textGoodbye.stopped,goodbye.stopped,participant,session,expName,frameRate,Unnamed: 113
,,,,,,,,,,,,,,,,,,,,,,,,,,,,,,,,,,,,,,,,,0.0156370420008897,0.0279254578053951,0.0279254578053951,0.0279254578053951,3.72961708297953,space,3.6907100409734994,,,,,,,,,,,,,,,,,,,,,,,,,,,,,,,,,,,,,,,,,,,,,,,,,,,,,,,,,,,sub-114,1,stroop_test,,
,,,,,,,,,,,,,,,,,,,,,,,,,,,,,,,,,,,,,,,,,,,,,,,,,3.7297143328469247,3.7403597079683095,3.7403597079683095,5.930279666790739,space,2.1831892079208046,,,,,,,,,,,,,,,,,,,,,,,,,,,,,,,,,,,,,,,,,,,,,,,,,,,,sub-114,1,stroop_test,,
test,blue,b,1.0,0.0,0.0,0.0,b,1.0,0.6255829161964357,,,,,,,,,,,,,,,,,,0.0,0.0,0.0,2.0,,,,,,,,,5.972110916860402,,,,,,,,,,,,,,,,,5.953994332812727,7.130132666788995,7.946870291838422,7.92918112478219,7.938548832898959,7.946870291838422,7.946870291838422,8.58040687488392,b,1.0,0.6255829161964357,,,,,,,,,,,,,,,,,,,,,,,,,,,,,,,,,,,,,,,,sub-114,1,stroop_test,,
test,red,r,1.0,1.0,1.0,0.0,r,1.0,0.5554456249810755,,,,,,,,,,,,,,,,,,0.0,1.0,1.0,0.0,,,,,,,,,8.590340707916766,,,,,,,,,,,,,,,,,8.581295916810632,9.777060916880146,10.570814916864038,10.56205829186365,10.563091624993833,10.570814916864038,10.570814916864038,11.129823749884965,r,1.0,0.5554456249810755,,,,,,,,,,,,,,,,,,,,,,,,,,,,,,,,,,,,,,,,sub-114,1,stroop_test,,
test,yellow,g,1.0,2.0,2.0,0.0,g,1.0,0.7838175417855382,,,,,,,,,,,,,,,,,,0.0,2.0,2.0,1.0,,,,,,,,,11.139668832998725,,,,,,,,,,,,,,,,,11.130362832918763,11.228403207845986,12.020516291959211,12.0119611248374,12.013125416822731,12.020516291959211,12.020516291959211,12.813102999934928,g,1.0,0.7838175417855382,,,,,,,,,,,,,,,,,,,,,,,,,,,,,,,,,,,,,,,,sub-114,1,stroop_test,,
test,blue,b,1.0,3.0,0.0,1.0,b,1.0,0.5195897910743952,,,,,,,,,,,,,,,,,,1.0,0.0,3.0,2.0,,,,,,,,,12.822904374916106,,,,,,,,,,,,,,,,,12.813796541886404,12.91179187479429,13.703779332805423,13.695501249982044,13.696637249784544,13.703779332805423,13.703779332805423,14.229459249880165,b,1.0,0.5195897910743952,,,,,,,,,,,,,,,,,,,,,,,,,,,,,,,,,,,,,,,,sub-114,1,stroop_test,,
test,red,r,1.0,4.0,1.0,1.0,r,1.0,0.3969989998731762,,,,,,,,,,,,,,,,,,1.0,1.0,4.0,0.0,,,,,,,,,14.23872770788148,,,,,,,,,,,,,,,,,14.230033374857156,14.578372166957706,15.370122791966423,15.361827291781085,15.36303333286196,15.370122791966423,15.370122791966423,15.769110541790724,r,1.0,0.3969989998731762,,,,,,,,,,,,,,,,,,,,,,,,,,,,,,,,,,,,,,,,sub-114,1,stroop_test,,
test,yellow,g,1.0,5.0,2.0,1.0,g,1.0,0.4204814999829978,,,,,,,,,,,,,,,,,,1.0,2.0,5.0,1.0,,,,,,,,,15.794846957782283,,,,,,,,,,,,,,,,,15.769575582817197,16.567307082936168,17.378705624956638,17.362404291983694,17.363020999822766,17.378705624956638,17.378705624956638,17.80208041681908,g,1.0,0.4204814999829978,,,,,,,,,,,,,,,,,,,,,,,,,,,,,,,,,,,,,,,,sub-114,1,stroop_test,,
test,yellow,g,1.0,6.0,0.0,2.0,g,1.0,0.4328751668799668,,,,,,,,,,,,,,,,,,2.0,0.0,6.0,1.0,,,,,,,,,17.813686250010505,,,,,,,,,,,,,,,,,17.80263974983245,18.15130345779471,18.94328437489457,18.93448904179968,18.935190874850377,18.94328437489457,18.94328437489457,19.379878791980445,g,1.0,0.4328751668799668,,,,,,,,,,,,,,,,,,,,,,,,,,,,,,,,,,,,,,,,sub-114,1,stroop_test,,
test,red,r,1.0,7.0,1.0,2.0,r,1.0,0.3890294169541448,,,,,,,,,,,,,,,,,,2.0,1.0,7.0,0.0,,,,,,,,,19.389855582965534,,,,,,,,,,,,,,,,,19.380548249930143,20.578641332918775,21.370089291827757,21.361972499871623,21.36314395791851,21.370089291827757,21.370089291827757,21.76324379188009,r,1.0,0.3890294169541448,,,,,,,,,,,,,,,,,,,,,,,,,,,,,,,,,,,,,,,,sub-114,1,stroop_test,,
test,blue,b,1.0,8.0,2.0,2.0,b,1.0,0.5283298748545349,,,,,,,,,,,,,,,,,,2.0,2.0,8.0,2.0,,,,,,,,,21.77284499979578,,,,,,,,,,,,,,,,,21.76391016691923,22.561793624889106,23.35367920785211,23.345383499981835,23.34654670790769,23.35367920785211,23.35367920785211,23.886038624914363,b,1.0,0.5283298748545349,,,,,,,,,,,,,,,,,,,,,,,,,,,,,,,,,,,,,,,,sub-114,1,stroop_test,,
test,red,r,1.0,9.0,0.0,3.0,r,1.0,0.5473652498330921,,,,,,,,,,,,,,,,,,3.0,0.0,9.0,0.0,,,,,,,,,23.89660754194483,,,,,,,,,,,,,,,,,23.88653108291328,23.984416582854465,24.77664154185913,24.76787616685033,24.76857995800674,24.77664154185913,24.77664154185913,25.330088874790817,r,1.0,0.5473652498330921,,,,,,,,,,,,,,,,,,,,,,,,,,,,,,,,,,,,,,,,sub-114,1,stroop_test,,
test,blue,b,1.0,10.0,1.0,3.0,b,1.0,0.4774625001009553,,,,,,,,,,,,,,,,,,3.0,1.0,10.0,2.0,,,,,,,,,25.3399971248582,,,,,,,,,,,,,,,,,25.33101404178888,26.52794508286752,27.3203997919336,27.311738749966025,27.312909916974604,27.3203997919336,27.3203997919336,27.8027127077803,b,1.0,0.4774625001009553,,,,,,,,,,,,,,,,,,,,,,,,,,,,,,,,,,,,,,,,sub-114,1,stroop_test,,
test,yellow,g,1.0,11.0,2.0,3.0,g,1.0,0.552624624921009,,,,,,,,,,,,,,,,,,3.0,2.0,11.0,1.0,,,,,,,,,27.81316954200156,,,,,,,,,,,,,,,,,27.803299916908145,28.60108312498778,29.3931989998091,29.38432908290997,29.38514104182832,29.3931989998091,29.3931989998091,29.951807166915387,g,1.0,0.552624624921009,,,,,,,,,,,,,,,,,,,,,,,,,,,,,,,,,,,,,,,,sub-114,1,stroop_test,,
,,,,,,,,,,,,,,,,,,,,,,,,,,,,,,,,,,,,,,,,,,,,,,,,,,,,,,,,,,,,,,,,,,,,29.95205483282916,29.96428308286704,29.96428308286704,31.018608916783705,space,1.050482708029449,,,,,,,,,,,,,,,,,,,,,,,,,,,,,,,,,sub-114,1,stroop_test,,
,,,,0.0,0.0,0.0,,,,,gelb,red,r,0.0,r,1.0,0.6750264167785645,,,,,,,,,,,,,,0.0,0.0,0.0,8.0,,,,,31.042714666808024,,,,,,,,,,,,,,,,,31.03642712486908,32.21853858279064,33.017689999891445,33.00139695778489,,,,,,,,,,,,,,,,33.011160416994244,33.017689999891445,33.017689999891445,33.69644599989988,r,1.0,0.6750264167785645,,33.70719866687432,33.71580454194918,34.70029312488623,,,,,,,,,,,,,,,,,,,,,sub-114,1,stroop_test,,
,,,,1.0,1.0,0.0,,,,,gelb,yellow,g,1.0,g,1.0,0.4429025829304009,,,,,,,,,,,,,,0.0,1.0,1.0,11.0,,,,,34.7113396669738,,,,,,,,,,,,,,,,,34.70082158292644,35.044699707999825,35.83671499998309,35.82857170794159,,,,,,,,,,,,,,,,35.82970591681078,35.83671499998309,35.83671499998309,36.28478779178113,g,1.0,0.4429025829304009,,36.285526166902855,36.311049999902025,37.29480995796621,,,,,,,,,,,,,,,,,,,,,sub-114,1,stroop_test,,
,,,,2.0,2.0,0.0,,,,,blau,yellow,g,0.0,g,1.0,0.4720684161875397,,,,,,,,,,,,,,0.0,2.0,2.0,7.0,,,,,37.30009733280167,,,,,,,,,,,,,,,,,37.29540174989961,38.48436141689308,39.281454582931474,39.26784783299081,,,,,,,,,,,,,,,,39.27497987495735,39.281454582931474,39.281454582931474,39.76279937499203,g,1.0,0.4720684161875397,,39.76382249989547,39.77367787482217,40.761837458005175,40.76754520786926,,,,,,,,,,,,,,,,,,,,sub-114,1,stroop_test,,
,,,,3.0,3.0,0.0,,,,,blau,blue,b,1.0,b,1.0,0.4055559579282999,,,,,,,,,,,,,,0.0,3.0,3.0,6.0,,,,,40.76754520786926,,,,,,,,,,,,,,,,,40.76259904191829,41.96139349997975,42.752811832819134,42.74482424999587,,,,,,,,,,,,,,,,42.74569995794445,42.752811832819134,42.752811832819134,43.16287008300424,b,1.0,0.4055559579282999,,43.163871582830325,43.17340062488802,44.16173266689293,44.16750720795244,,,,,,,,,,,,,,,,,,,,sub-114,1,stroop_test,,
,,,,4.0,4.0,0.0,,,,,gelb,blue,b,0.0,b,1.0,0.419804957928136,,,,,,,,,,,,,,0.0,4.0,4.0,9.0,,,,,44.16750720795244,,,,,,,,,,,,,,,,,44.16253124992363,44.26141024986282,45.05840670783073,45.04504429199733,,,,,,,,,,,,,,,,45.05128541681916,45.05840670783073,45.05840670783073,45.48776145791635,b,1.0,0.419804957928136,,45.48850812483579,45.49635583278723,46.48301158286631,46.49431270780042,,,,,,,,,,,,,,,,,,,,sub-114,1,stroop_test,,
,,,,5.0,5.0,0.0,,,,,rot,red,r,1.0,r,1.0,0.4641012500505894,,,,,,,,,,,,,,0.0,5.0,5.0,1.0,,,,,46.49431270780042,,,,,,,,,,,,,,,,,46.48347166692838,47.28410449996591,48.081046332838014,48.067648166790605,,,,,,,,,,,,,,,,48.074124791892245,48.081046332838014,48.081046332838014,48.55203833291307,r,1.0,0.4641012500505894,,48.5527517918963,48.56325991684571,49.55037958291359,49.5609092079103,,,,,,,,,,,,,,,,,,,,sub-114,1,stroop_test,,
,,,,6.0,6.0,0.0,,,,,rot,red,r,1.0,r,1.0,0.4590835829731077,,,,,,,,,,,,,,0.0,6.0,6.0,0.0,,,,,49.5609092079103,,,,,,,,,,,,,,,,,49.55084583279677,49.65068133291789,50.44307108293288,50.4343920419924,,,,,,,,,,,,,,,,50.43511287495494,50.44307108293288,50.44307108293288,50.91275262483396,r,1.0,0.4590835829731077,,50.91359958285466,50.92348358291201,51.911885749781504,51.917872541816905,,,,,,,,,,,,,,,,,,,,sub-114,1,stroop_test,,
,,,,7.0,7.0,0.0,,,,,gelb,yellow,g,1.0,g,1.0,0.536189500009641,,,,,,,,,,,,,,0.0,7.0,7.0,10.0,,,,,51.917872541816905,,,,,,,,,,,,,,,,,51.91262941691093,52.26139508280903,53.05793479178101,53.0451390419621,,,,,,,,,,,,,,,,53.050958999898285,53.05793479178101,53.05793479178101,53.59623591694981,g,1.0,0.536189500009641,,53.59761654189788,53.60746699990705,54.59488816699013,54.60025199991651,,,,,,,,,,,,,,,,,,,,sub-114,1,stroop_test,,
,,,,8.0,8.0,0.0,,,,,rot,blue,b,0.0,b,1.0,0.55374287487939,,,,,,,,,,,,,,0.0,8.0,8.0,2.0,,,,,54.60025199991651,,,,,,,,,,,,,,,,,54.595461666816846,54.94416549988091,55.74031812488101,55.72827920783311,,,,,,,,,,,,,,,,55.73280920786783,55.74031812488101,55.74031812488101,56.29623791691847,b,1.0,0.55374287487939,,56.29739220789634,56.30726437480189,57.29505666694604,57.30104649998248,,,,,,,,,,,,,,,,,,,,sub-114,1,stroop_test,,
,,,,9.0,9.0,0.0,,,,,blau,blue,b,1.0,b,1.0,0.4921249998733401,,,,,,,,,,,,,,0.0,9.0,9.0,5.0,,,,,57.30104649998248,,,,,,,,,,,,,,,,,57.295813207980245,58.09418091690168,58.89082133281045,58.87826116685756,,,,,,,,,,,,,,,,58.883759832941,58.89082133281045,58.89082133281045,59.38563324999996,b,1.0,0.4921249998733401,,59.38658087491058,59.39681958290748,60.38444404187612,60.394323624903336,,,,,,,,,,,,,,,,,,,,sub-114,1,stroop_test,,
,,,,10.0,10.0,0.0,,,,,blau,red,r,0.0,r,1.0,0.7814867082051933,,,,,,,,,,,,,,0.0,10.0,10.0,4.0,,,,,60.394323624903336,,,,,,,,,,,,,,,,,60.38495954195969,61.1841141670011,61.97628483292647,61.96726441686042,,,,,,,,,,,,,,,,61.96805399982259,61.97628483292647,61.97628483292647,62.76315499981865,r,1.0,0.7814867082051933,,62.76471466687508,62.77472212491557,63.761542291846126,63.76682724989951,,,,,,,,,,,,,,,,,,,,sub-114,1,stroop_test,,
,,,,11.0,11.0,0.0,,,,,rot,yellow,g,0.0,g,1.0,0.3502318749669939,,,,,,,,,,,,,,0.0,11.0,11.0,3.0,,,,,63.76682724989951,,,,,,,,,,,,,,,,,63.76212437497452,64.1110108748544,64.91045454191044,64.89478945778683,,,,,,,,,,,,,,,,64.90295666689053,64.91045454191044,64.91045454191044,65.26255524996668,g,1.0,0.3502318749669939,,65.26363208284602,65.27359066694044,66.26145191700198,66.26740016695112,,,,,,,,,,,,,,,,,,,,sub-114,1,stroop_test,,
,,,,12.0,0.0,1.0,,,,,gelb,red,r,0.0,r,1.0,0.5803437079302967,,,,,,,,,,,,,,1.0,0.0,12.0,8.0,,,,,66.26740016695112,,,,,,,,,,,,,,,,,66.26219866680913,66.36086495779455,67.15723587479442,67.14458449999802,,,,,,,,,,,,,,,,67.15013195783831,67.15723587479442,67.15723587479442,67.7461080418434,r,1.0,0.5803437079302967,,67.7471774998121,67.75710349995643,68.74484920781106,68.75028112484142,,,,,,,,,,,,,,,,,,,,sub-114,1,stroop_test,,
,,,,13.0,1.0,1.0,,,,,rot,red,r,1.0,r,1.0,0.3670747498981654,,,,,,,,,,,,,,1.0,1.0,13.0,1.0,,,,,68.75028112484142,,,,,,,,,,,,,,,,,68.74542012484744,68.84386179200374,69.63943945779465,69.62803062493913,,,,,,,,,,,,,,,,69.63221454177983,69.63943945779465,69.63943945779465,70.01259045791812,r,1.0,0.3670747498981654,,70.01379345799796,70.02548066689633,71.01164991687983,71.01733566680923,,,,,,,,,,,,,,,,,,,,sub-114,1,stroop_test,,
,,,,14.0,2.0,1.0,,,,,gelb,yellow,g,1.0,b,0.0,0.4748250409029424,,,,,,,,,,,,,,1.0,2.0,14.0,11.0,,,,,71.01733566680923,,,,,,,,,,,,,,,,,71.01226208289154,71.11146029178053,71.90755308279768,71.89439358282834,,,,,,,,,,,,,,,,71.9001172077842,71.90755308279768,71.90755308279768,72.38462062482722,b,0.0,0.4748250409029424,,72.39254183298908,72.40219241683371,73.3946410419885,,,,,,,,,,,,,,,,,,,,,sub-114,1,stroop_test,,
,,,,15.0,3.0,1.0,,,,,rot,blue,b,0.0,b,1.0,0.5082638750318438,,,,,,,,,,,,,,1.0,3.0,15.0,2.0,,,,,73.40017766691744,,,,,,,,,,,,,,,,,73.39526087488048,74.18472466687672,74.9801377078984,74.96776799997315,,,,,,,,,,,,,,,,74.97185999993235,74.9801377078984,74.9801377078984,75.49681383278221,b,1.0,0.5082638750318438,,75.50218033278361,75.51353562483564,76.50063033285551,,,,,,,,,,,,,,,,,,,,,sub-114,1,stroop_test,,
,,,,16.0,4.0,1.0,,,,,gelb,blue,b,0.0,b,1.0,0.3456536659505218,,,,,,,,,,,,,,1.0,4.0,16.0,9.0,,,,,76.5110512918327,,,,,,,,,,,,,,,,,76.50124324997887,76.59463420789689,77.3906155419536,77.37764562480152,,,,,,,,,,,,,,,,77.38351654191501,77.3906155419536,77.3906155419536,77.74607041687705,b,1.0,0.3456536659505218,,77.74720687489025,77.75775770796463,78.74508037487976,78.75115120783448,,,,,,,,,,,,,,,,,,,,sub-114,1,stroop_test,,
,,,,17.0,5.0,1.0,,,,,blau,blue,b,1.0,b,1.0,0.4442738341167569,,,,,,,,,,,,,,1.0,5.0,17.0,5.0,,,,,78.75115120783448,,,,,,,,,,,,,,,,,78.74588974984363,79.09418479190208,79.89093991694972,79.8779256248381,,,,,,,,,,,,,,,,79.88366183289327,79.89093991694972,79.89093991694972,80.34574724989943,b,1.0,0.4442738341167569,,80.3468077077996,80.35707666678354,81.34462612494826,81.3501199579332,,,,,,,,,,,,,,,,,,,,sub-114,1,stroop_test,,
,,,,18.0,6.0,1.0,,,,,rot,yellow,g,0.0,g,1.0,0.6026546671055257,,,,,,,,,,,,,,1.0,6.0,18.0,3.0,,,,,81.3501199579332,,,,,,,,,,,,,,,,,81.34537299978547,81.69413629197516,82.49060983280651,82.47794941696338,,,,,,,,,,,,,,,,82.48335320781916,82.49060983280651,82.49060983280651,83.09634054196067,g,1.0,0.6026546671055257,,83.09780266694725,83.10819304198958,84.09454729198478,84.10008099977858,,,,,,,,,,,,,,,,,,,,sub-114,1,stroop_test,,
,,,,19.0,7.0,1.0,,,,,blau,blue,b,1.0,b,1.0,0.7766608339734375,,,,,,,,,,,,,,1.0,7.0,19.0,6.0,,,,,84.10008099977858,,,,,,,,,,,,,,,,,84.09534266684204,85.29411279200576,86.09031020780094,86.07785683288239,,,,,,,,,,,,,,,,86.0832562497817,86.09031020780094,86.09031020780094,86.8789159997832,b,1.0,0.7766608339734375,,86.87997154192999,86.8900029999204,87.87789395800792,87.88370412494987,,,,,,,,,,,,,,,,,,,,sub-114,1,stroop_test,,
,,,,20.0,8.0,1.0,,,,,blau,yellow,g,0.0,r,0.0,0.4458967500831932,,,,,,,,,,,,,,1.0,8.0,20.0,7.0,,,,,87.88370412494987,,,,,,,,,,,,,,,,,87.87866062484682,89.07723495783284,89.86612204182893,89.86030416679569,,,,,,,,,,,,,,,,89.86095145787112,89.86612204182893,89.86612204182893,90.31911074998789,r,0.0,0.4458967500831932,,90.32521674991584,90.33609174983576,91.32772133289836,,,,,,,,,,,,,,,,,,,,,sub-114,1,stroop_test,,
,,,,21.0,9.0,1.0,,,,,gelb,yellow,g,1.0,g,1.0,0.3646936661098152,,,,,,,,,,,,,,1.0,9.0,21.0,10.0,,,,,91.33371599996462,,,,,,,,,,,,,,,,,91.32856662478298,91.66675829188898,92.47721420787276,92.44987616688012,,,,,,,,,,,,,,,,92.453911999939,92.47721420787276,92.47721420787276,92.84527787496336,g,1.0,0.3646936661098152,,92.85128945787436,92.86138999997638,93.84436345798896,93.850376999937,,,,,,,,,,,,,,,,,,,,sub-114,1,stroop_test,,
,,,,22.0,10.0,1.0,,,,,rot,red,r,1.0,r,1.0,0.5683487909846008,,,,,,,,,,,,,,1.0,10.0,22.0,0.0,,,,,93.850376999937,,,,,,,,,,,,,,,,,93.84511916688643,93.94399691699071,94.74154416681267,94.72775633283892,,,,,,,,,,,,,,,,94.73438604199328,94.74154416681267,94.74154416681267,95.3123914578464,r,1.0,0.5683487909846008,,95.3134603749495,95.3241810828913,96.31115595786832,96.3171095829457,,,,,,,,,,,,,,,,,,,,sub-114,1,stroop_test,,
,,,,23.0,11.0,1.0,,,,,blau,red,r,0.0,r,1.0,0.3487950419075787,,,,,,,,,,,,,,1.0,11.0,23.0,4.0,,,,,96.3171095829457,,,,,,,,,,,,,,,,,96.31192866689526,96.6605400419794,97.45601504179648,97.44417179189622,,,,,,,,,,,,,,,,97.44901924999432,97.45601504179648,97.45601504179648,97.81184545787984,r,1.0,0.3487950419075787,,97.81264904187992,97.82309941691346,98.81110929185525,98.8201918748673,,,,,,,,,,,,,,,,,,,,sub-114,1,stroop_test,,
,,,,,,,,,,,,,,,,,,,,,,,,,,,,,,,,,,,,,,,,,,,,,,,,,,,,,,,,,,,,,,,,,,,,,,,,,,,,,,,,,,,,,,,98.81148058292456,98.8201918748673,98.8201918748673,99.78493854193948,space,0.959507499821484,,,,,,,,,,,,,,sub-114,1,stroop_test,,
,,,,0.0,0.0,0.0,,,,,,,,,,,,,gelb,blue,b,0.0,b,1.0,0.6680730420630425,,,,,,,,,,0.0,0.0,0.0,9.0,99.81186124985106,,,,,,,,,,,,,,,,,99.8057975829579,99.88219291693532,100.67950037494302,100.666556666838,,,,,,,,,,,,,,,,,,,,,,,,,,,,,,,,,,,100.67157366685568,100.67950037494302,100.67950037494302,101.34910649992526,b,1.0,0.6680730420630425,,,,,,sub-114,1,stroop_test,,
,,,,1.0,1.0,0.0,,,,,,,,,,,,,gelb,red,r,0.0,r,1.0,0.5471037500537932,,,,,,,,,,0.0,1.0,1.0,8.0,101.3604979168158,,,,,,,,,,,,,,,,,101.34970724978484,102.14396249991842,102.93650224991144,102.9276697919704,,,,,,,,,,,,,,,,,,,,,,,,,,,,,,,,,,,102.92887108284047,102.93650224991144,102.93650224991144,103.48495949991047,r,1.0,0.5471037500537932,,,,,,sub-114,1,stroop_test,,
,,,,2.0,2.0,0.0,,,,,,,,,,,,,gelb,yellow,g,1.0,g,1.0,0.3594865421764552,,,,,,,,,,0.0,2.0,2.0,11.0,103.49586120783351,,,,,,,,,,,,,,,,,103.48563458281568,104.68360079196282,105.47608337481506,105.46670112479478,,,,,,,,,,,,,,,,,,,,,,,,,,,,,,,,,,,105.4674218748696,105.47608337481506,105.47608337481506,105.84569112490864,g,1.0,0.3594865421764552,,,,,,sub-114,1,stroop_test,,
,,,,3.0,3.0,0.0,,,,,,,,,,,,,rot,red,r,1.0,r,1.0,0.487599124899134,,,,,,,,,,0.0,3.0,3.0,1.0,105.8558049579151,,,,,,,,,,,,,,,,,105.84645554190502,106.19382924982348,106.9908421668224,106.97778591699898,,,,,,,,,,,,,,,,,,,,,,,,,,,,,,,,,,,106.98322133300826,106.9908421668224,106.9908421668224,107.48408279195428,r,1.0,0.487599124899134,,,,,,sub-114,1,stroop_test,,
,,,,4.0,4.0,0.0,,,,,,,,,,,,,rot,yellow,g,0.0,g,1.0,0.5495807500556111,,,,,,,,,,0.0,4.0,4.0,3.0,107.49358245800248,,,,,,,,,,,,,,,,,107.48463533283211,108.28378258296289,109.08278499986044,109.07731512491593,,,,,,,,,,,,,,,,,,,,,,,,,,,,,,,,,,,109.07777691679075,109.08278499986044,109.08278499986044,109.63445691694506,g,1.0,0.5495807500556111,,,,,,sub-114,1,stroop_test,,
,,,,5.0,5.0,0.0,,,,,,,,,,,,,rot,red,r,1.0,r,1.0,0.5677287499420345,,,,,,,,,,0.0,5.0,5.0,0.0,109.66042241686957,,,,,,,,,,,,,,,,,109.6350432918407,109.98443462490104,110.77572474977931,110.76744079194032,,,,,,,,,,,,,,,,,,,,,,,,,,,,,,,,,,,110.76811358286068,110.77572474977931,110.77572474977931,111.34565166686662,r,1.0,0.5677287499420345,,,,,,sub-114,1,stroop_test,,
,,,,6.0,6.0,0.0,,,,,,,,,,,,,rot,blue,b,0.0,b,1.0,0.3985700830817222,,,,,,,,,,0.0,6.0,6.0,2.0,111.35584887489676,,,,,,,,,,,,,,,,,111.34670483297668,111.69384874985552,112.4867811249569,112.47762749996036,,,,,,,,,,,,,,,,,,,,,,,,,,,,,,,,,,,112.47976520797238,112.4867811249569,112.4867811249569,112.89552004192956,b,1.0,0.3985700830817222,,,,,,sub-114,1,stroop_test,,
,,,,7.0,7.0,0.0,,,,,,,,,,,,,blau,red,r,0.0,r,1.0,0.8469337918795645,,,,,,,,,,0.0,7.0,7.0,4.0,112.90544487489387,,,,,,,,,,,,,,,,,112.89624774991536,114.09380220784806,114.89020279189572,114.8777040829882,,,,,,,,,,,,,,,,,,,,,,,,,,,,,,,,,,,114.88311033300124,114.89020279189572,114.89020279189572,115.7459919168614,r,1.0,0.8469337918795645,,,,,,sub-114,1,stroop_test,,
,,,,8.0,8.0,0.0,,,,,,,,,,,,,gelb,yellow,g,1.0,g,1.0,0.4938147501088679,,,,,,,,,,0.0,8.0,8.0,10.0,115.75601016683504,,,,,,,,,,,,,,,,,115.74696695781311,116.94372745789587,117.740344916936,117.72763566696084,,,,,,,,,,,,,,,,,,,,,,,,,,,,,,,,,,,117.73329779179768,117.740344916936,117.740344916936,118.24541829200462,g,1.0,0.4938147501088679,,,,,,sub-114,1,stroop_test,,
,,,,9.0,9.0,0.0,,,,,,,,,,,,,blau,blue,b,1.0,b,1.0,0.3640126248355955,,,,,,,,,,0.0,9.0,9.0,5.0,118.25528991688044,,,,,,,,,,,,,,,,,118.24618454184385,119.44420795794576,120.24041649978608,120.2277569579892,,,,,,,,,,,,,,,,,,,,,,,,,,,,,,,,,,,120.23299162485635,120.24041649978608,120.24041649978608,120.61178024997936,b,1.0,0.3640126248355955,,,,,,sub-114,1,stroop_test,,
,,,,10.0,10.0,0.0,,,,,,,,,,,,,blau,blue,b,1.0,b,1.0,0.5421937499195337,,,,,,,,,,0.0,10.0,10.0,6.0,120.62120170798153,,,,,,,,,,,,,,,,,120.6123961249832,120.96054637478665,121.75297370785847,121.74439349980094,,,,,,,,,,,,,,,,,,,,,,,,,,,,,,,,,,,121.7455529998988,121.75297370785847,121.75297370785847,122.30103716696613,b,1.0,0.5421937499195337,,,,,,sub-114,1,stroop_test,,
,,,,11.0,11.0,0.0,,,,,,,,,,,,,blau,yellow,g,0.0,g,1.0,0.5663239168934524,,,,,,,,,,0.0,11.0,11.0,7.0,122.31016774987802,,,,,,,,,,,,,,,,,122.30158624984324,123.11019333289003,123.902526457794,123.89393133297564,,,,,,,,,,,,,,,,,,,,,,,,,,,,,,,,,,,123.89490541699342,123.902526457794,123.902526457794,124.4794376248028,g,1.0,0.5663239168934524,,,,,,sub-114,1,stroop_test,,
,,,,12.0,0.0,1.0,,,,,,,,,,,,,gelb,red,r,0.0,r,1.0,0.4121830831281841,,,,,,,,,,1.0,0.0,12.0,8.0,124.48964904178864,,,,,,,,,,,,,,,,,124.48028879193588,125.27708762488328,126.07275870791636,126.06063629197888,,,,,,,,,,,,,,,,,,,,,,,,,,,,,,,,,,,126.06532829185016,126.07275870791636,126.07275870791636,126.49554174998777,r,1.0,0.4121830831281841,,,,,,sub-114,1,stroop_test,,
,,,,13.0,1.0,1.0,,,,,,,,,,,,,rot,red,r,1.0,r,1.0,0.4110214170068502,,,,,,,,,,1.0,1.0,13.0,0.0,126.5055534169078,,,,,,,,,,,,,,,,,126.4963684999384,126.84371683280916,127.63877870794386,127.62740095797926,,,,,,,,,,,,,,,,,,,,,,,,,,,,,,,,,,,127.631571207894,127.63877870794386,127.63877870794386,128.0616584168747,r,1.0,0.4110214170068502,,,,,,sub-114,1,stroop_test,,
,,,,14.0,2.0,1.0,,,,,,,,,,,,,blau,yellow,g,0.0,g,1.0,0.4813830410130322,,,,,,,,,,1.0,2.0,14.0,7.0,128.07134449994192,,,,,,,,,,,,,,,,,128.06226470787078,128.1605026249308,128.9563267917838,128.94399891700596,,,,,,,,,,,,,,,,,,,,,,,,,,,,,,,,,,,128.94902762491256,128.9563267917838,128.9563267917838,129.44526720792055,g,1.0,0.4813830410130322,,,,,,sub-114,1,stroop_test,,
,,,,15.0,3.0,1.0,,,,,,,,,,,,,blau,red,r,0.0,r,1.0,0.4693050840869546,,,,,,,,,,1.0,3.0,15.0,4.0,129.45486408285797,,,,,,,,,,,,,,,,,129.44587783282623,129.5434231669642,130.33650474995375,130.3277825419791,,,,,,,,,,,,,,,,,,,,,,,,,,,,,,,,,,,130.32870870782062,130.33650474995375,130.33650474995375,130.81240520789288,r,1.0,0.4693050840869546,,,,,,sub-114,1,stroop_test,,
,,,,16.0,4.0,1.0,,,,,,,,,,,,,rot,red,r,1.0,r,1.0,0.4681805828586221,,,,,,,,,,1.0,4.0,16.0,1.0,130.823000166798,,,,,,,,,,,,,,,,,130.81363154179417,132.01012949994765,132.8065734577831,132.794027332915,,,,,,,,,,,,,,,,,,,,,,,,,,,,,,,,,,,132.7992392918095,132.8065734577831,132.8065734577831,133.27797608287074,r,1.0,0.4681805828586221,,,,,,sub-114,1,stroop_test,,
,,,,17.0,5.0,1.0,,,,,,,,,,,,,blau,blue,b,1.0,b,1.0,0.4717642499599606,,,,,,,,,,1.0,5.0,17.0,6.0,133.2878037497867,,,,,,,,,,,,,,,,,133.2785587918479,134.066281999927,134.86287974985316,134.8504304168746,,,,,,,,,,,,,,,,,,,,,,,,,,,,,,,,,,,134.85498816682957,134.86287974985316,134.86287974985316,135.3449874999933,b,1.0,0.4717642499599606,,,,,,sub-114,1,stroop_test,,
,,,,18.0,6.0,1.0,,,,,,,,,,,,,rot,yellow,g,0.0,g,1.0,0.3182119580451399,,,,,,,,,,1.0,6.0,18.0,3.0,135.35430995794013,,,,,,,,,,,,,,,,,135.3455967498012,135.694257624913,136.49032616685145,136.4774834997952,,,,,,,,,,,,,,,,,,,,,,,,,,,,,,,,,,,136.48258045781404,136.49032616685145,136.49032616685145,136.81248337496072,g,1.0,0.3182119580451399,,,,,,sub-114,1,stroop_test,,
,,,,19.0,7.0,1.0,,,,,,,,,,,,,rot,blue,b,0.0,b,1.0,0.5278705419041216,,,,,,,,,,1.0,7.0,19.0,2.0,136.82266849977896,,,,,,,,,,,,,,,,,136.8134707917925,137.16052662488073,137.9526866248343,137.94426645780914,,,,,,,,,,,,,,,,,,,,,,,,,,,,,,,,,,,137.94545320793986,137.9526866248343,137.9526866248343,138.4839587919414,b,1.0,0.5278705419041216,,,,,,sub-114,1,stroop_test,,
,,,,20.0,8.0,1.0,,,,,,,,,,,,,gelb,yellow,g,1.0,b,0.0,0.5679911661427468,,,,,,,,,,1.0,8.0,20.0,11.0,138.49321349989623,,,,,,,,,,,,,,,,,138.48452012497,139.6833204999566,140.4794131249655,140.466863457812,,,,,,,,,,,,,,,,,,,,,,,,,,,,,,,,,,,140.47162129194476,140.4794131249655,140.4794131249655,141.05076029198244,b,0.0,0.5679911661427468,,,,,,sub-114,1,stroop_test,,
,,,,21.0,9.0,1.0,,,,,,,,,,,,,gelb,blue,b,0.0,b,1.0,0.4921127499546855,,,,,,,,,,1.0,9.0,21.0,9.0,141.07675270782784,,,,,,,,,,,,,,,,,141.05146937491372,142.2489412080031,143.0422176248394,143.03280379180796,,,,,,,,,,,,,,,,,,,,,,,,,,,,,,,,,,,143.03368858294562,143.0422176248394,143.0422176248394,143.54492062493227,b,1.0,0.4921127499546855,,,,,,sub-114,1,stroop_test,,
,,,,22.0,10.0,1.0,,,,,,,,,,,,,gelb,yellow,g,1.0,g,1.0,0.6002839170396328,,,,,,,,,,1.0,10.0,22.0,10.0,143.55444045783952,,,,,,,,,,,,,,,,,143.54554866696708,144.343447457999,145.1350749169942,145.12728724977933,,,,,,,,,,,,,,,,,,,,,,,,,,,,,,,,,,,145.1280152918771,145.1350749169942,145.1350749169942,145.74509149999358,g,1.0,0.6002839170396328,,,,,,sub-114,1,stroop_test,,
,,,,23.0,11.0,1.0,,,,,,,,,,,,,blau,blue,b,1.0,b,1.0,0.6068463330157101,,,,,,,,,,1.0,11.0,23.0,5.0,145.75490424991585,,,,,,,,,,,,,,,,,145.74587833299302,146.543465499999,147.33942554192618,147.3274120418355,,,,,,,,,,,,,,,,,,,,,,,,,,,,,,,,,,,147.3323546249885,147.33942554192618,147.33942554192618,147.95003204187378,b,1.0,0.6068463330157101,,,,,,sub-114,1,stroop_test,,
,,,,24.0,0.0,2.0,,,,,,,,,,,,,gelb,yellow,g,1.0,g,1.0,0.5894652919378132,,,,,,,,,,2.0,0.0,24.0,11.0,147.95929099991918,,,,,,,,,,,,,,,,,147.95058741699904,148.04411016684026,148.84083062480204,148.82799483300187,,,,,,,,,,,,,,,,,,,,,,,,,,,,,,,,,,,148.8339121248573,148.84083062480204,148.84083062480204,149.43432724988088,g,1.0,0.5894652919378132,,,,,,sub-114,1,stroop_test,,
,,,,25.0,1.0,2.0,,,,,,,,,,,,,gelb,blue,b,0.0,b,1.0,0.6718017088714987,,,,,,,,,,2.0,1.0,25.0,9.0,149.46013716678135,,,,,,,,,,,,,,,,,149.43488058284856,150.23277416685596,151.0253413747996,151.0171114578843,,,,,,,,,,,,,,,,,,,,,,,,,,,,,,,,,,,151.01781120779924,151.0253413747996,151.0253413747996,151.70161587488838,b,1.0,0.6718017088714987,,,,,,sub-114,1,stroop_test,,
,,,,26.0,2.0,2.0,,,,,,,,,,,,,gelb,yellow,g,1.0,g,1.0,0.6127840408589691,,,,,,,,,,2.0,2.0,26.0,10.0,151.71256608283147,,,,,,,,,,,,,,,,,151.70219529187307,151.8031600418035,152.60227487492375,152.59371499996632,,,,,,,,,,,,,,,,,,,,,,,,,,,,,,,,,,,152.5948475420009,152.60227487492375,152.60227487492375,153.2179147079587,g,1.0,0.6127840408589691,,,,,,sub-114,1,stroop_test,,
,,,,27.0,3.0,2.0,,,,,,,,,,,,,gelb,red,r,0.0,r,1.0,0.453908208059147,,,,,,,,,,2.0,3.0,27.0,8.0,153.228597874986,,,,,,,,,,,,,,,,,153.2184644578956,154.01728416699916,154.8091084167827,154.80053899995983,,,,,,,,,,,,,,,,,,,,,,,,,,,,,,,,,,,154.80127870780416,154.8091084167827,154.8091084167827,155.26650712499395,r,1.0,0.453908208059147,,,,,,sub-114,1,stroop_test,,
,,,,28.0,4.0,2.0,,,,,,,,,,,,,blau,red,r,0.0,r,1.0,0.4310431249905377,,,,,,,,,,2.0,4.0,28.0,4.0,155.27593191689812,,,,,,,,,,,,,,,,,155.267061999999,155.61609191680327,156.41291349986568,156.39962995797396,,,,,,,,,,,,,,,,,,,,,,,,,,,,,,,,,,,156.40559391700663,156.41291349986568,156.41291349986568,156.85515662492253,r,1.0,0.4310431249905377,,,,,,sub-114,1,stroop_test,,
,,,,29.0,5.0,2.0,,,,,,,,,,,,,rot,yellow,g,0.0,g,1.0,0.484982332913205,,,,,,,,,,2.0,5.0,29.0,3.0,156.87682970799506,,,,,,,,,,,,,,,,,156.85569324996322,156.9502084578853,157.74597254185937,157.73320445790887,,,,,,,,,,,,,,,,,,,,,,,,,,,,,,,,,,,157.73747262498364,157.74597254185937,157.74597254185937,158.23394049983472,g,1.0,0.484982332913205,,,,,,sub-114,1,stroop_test,,
,,,,30.0,6.0,2.0,,,,,,,,,,,,,blau,blue,b,1.0,b,1.0,0.2833622088655829,,,,,,,,,,2.0,6.0,30.0,6.0,158.24325737496838,,,,,,,,,,,,,,,,,158.2344922919292,159.03326979186386,159.82860208279453,159.8165249999147,,,,,,,,,,,,,,,,,,,,,,,,,,,,,,,,,,,159.82051483285613,159.82860208279453,159.82860208279453,160.11744641698897,b,1.0,0.2833622088655829,,,,,,sub-114,1,stroop_test,,
,,,,31.0,7.0,2.0,,,,,,,,,,,,,blau,blue,b,1.0,b,1.0,0.4013506670016795,,,,,,,,,,2.0,7.0,31.0,5.0,160.12673608283512,,,,,,,,,,,,,,,,,160.11798991682008,160.91702004196122,161.71841391688213,161.71069824998267,,,,,,,,,,,,,,,,,,,,,,,,,,,,,,,,,,,161.71156779187731,161.71841391688213,161.71841391688213,162.12819420779124,b,1.0,0.4013506670016795,,,,,,sub-114,1,stroop_test,,
,,,,32.0,8.0,2.0,,,,,,,,,,,,,rot,red,r,1.0,r,1.0,0.4423297080211341,,,,,,,,,,2.0,8.0,32.0,0.0,162.13797629182227,,,,,,,,,,,,,,,,,162.12879362492822,162.9270891668275,163.7234514579177,163.7102995829191,,,,,,,,,,,,,,,,,,,,,,,,,,,,,,,,,,,163.71600237488747,163.7234514579177,163.7234514579177,164.17616379191168,r,1.0,0.4423297080211341,,,,,,sub-114,1,stroop_test,,
,,,,33.0,9.0,2.0,,,,,,,,,,,,,blau,yellow,g,0.0,g,1.0,0.4415737499948591,,,,,,,,,,2.0,9.0,33.0,7.0,164.18076237500645,,,,,,,,,,,,,,,,,164.17682829196565,164.96674487483688,165.76218054187484,165.75008508283645,,,,,,,,,,,,,,,,,,,,,,,,,,,,,,,,,,,165.7539823749103,165.76218054187484,165.76218054187484,166.21152091678232,g,1.0,0.4415737499948591,,,,,,sub-114,1,stroop_test,,
,,,,34.0,10.0,2.0,,,,,,,,,,,,,rot,red,r,1.0,r,1.0,0.4929623340722173,,,,,,,,,,2.0,10.0,34.0,1.0,166.22147912485525,,,,,,,,,,,,,,,,,166.21215116698295,166.3104693328496,167.10768929193728,167.09418037487194,,,,,,,,,,,,,,,,,,,,,,,,,,,,,,,,,,,167.1000277919229,167.10768929193728,167.10768929193728,167.6119259998668,r,1.0,0.4929623340722173,,,,,,sub-114,1,stroop_test,,
,,,,35.0,11.0,2.0,,,,,,,,,,,,,rot,blue,b,0.0,b,1.0,1.0291086670476943,,,,,,,,,,2.0,11.0,35.0,2.0,167.62234029197134,,,,,,,,,,,,,,,,,167.6128374999389,167.71007470786572,168.5024955419358,168.493882374838,,,,,,,,,,,,,,,,,,,,,,,,,,,,,,,,,,,168.49505999987014,168.5024955419358,168.5024955419358,169.53390562487766,b,1.0,1.0291086670476943,,,,,,sub-114,1,stroop_test,,
,,,,36.0,0.0,3.0,,,,,,,,,,,,,blau,blue,b,1.0,b,1.0,0.4630276670213789,,,,,,,,,,3.0,0.0,36.0,5.0,169.5601004168857,,,,,,,,,,,,,,,,,169.53445683280006,169.63233258295804,170.42904141684994,170.41687049996108,,,,,,,,,,,,,,,,,,,,,,,,,,,,,,,,,,,170.4209535829723,170.42904141684994,170.42904141684994,170.8954446669668,b,1.0,0.4630276670213789,,,,,,sub-114,1,stroop_test,,
,,,,37.0,1.0,3.0,,,,,,,,,,,,,rot,red,r,1.0,r,1.0,0.7138602500781417,,,,,,,,,,3.0,1.0,37.0,1.0,170.90573333296925,,,,,,,,,,,,,,,,,170.89627166697755,172.09388924995437,172.8896107499022,172.8769984578248,,,,,,,,,,,,,,,,,,,,,,,,,,,,,,,,,,,172.88240733300336,172.8896107499022,172.8896107499022,173.61153895780444,r,1.0,0.7138602500781417,,,,,,sub-114,1,stroop_test,,
,,,,38.0,2.0,3.0,,,,,,,,,,,,,rot,red,r,1.0,r,1.0,0.4464203340467065,,,,,,,,,,3.0,2.0,38.0,0.0,173.6213492078241,,,,,,,,,,,,,,,,,173.612338332925,173.7098929998465,174.50198566680774,174.49386195791885,,,,,,,,,,,,,,,,,,,,,,,,,,,,,,,,,,,174.49478074978106,174.50198566680774,174.50198566680774,174.9500862499699,r,1.0,0.4464203340467065,,,,,,sub-114,1,stroop_test,,
,,,,39.0,3.0,3.0,,,,,,,,,,,,,gelb,red,r,0.0,r,1.0,0.5743937080260366,,,,,,,,,,3.0,3.0,39.0,8.0,174.95987574988976,,,,,,,,,,,,,,,,,174.95079583278857,175.04931629193015,175.84500608290546,175.83276916691102,,,,,,,,,,,,,,,,,,,,,,,,,,,,,,,,,,,175.83680616691709,175.84500608290546,175.84500608290546,176.42865233286284,r,1.0,0.5743937080260366,,,,,,sub-114,1,stroop_test,,
,,,,40.0,4.0,3.0,,,,,,,,,,,,,gelb,yellow,g,1.0,g,1.0,0.3550608749501407,,,,,,,,,,3.0,4.0,40.0,10.0,176.43856229190715,,,,,,,,,,,,,,,,,176.42963108280674,177.22700583282858,178.01928720786236,178.01042166678235,,,,,,,,,,,,,,,,,,,,,,,,,,,,,,,,,,,178.0115819578059,178.01928720786236,178.01928720786236,178.3775568329729,g,1.0,0.3550608749501407,,,,,,sub-114,1,stroop_test,,
,,,,41.0,5.0,3.0,,,,,,,,,,,,,blau,blue,b,1.0,b,1.0,0.3932842081412673,,,,,,,,,,3.0,5.0,41.0,6.0,178.38708675000817,,,,,,,,,,,,,,,,,178.3781161250081,178.7267288749572,179.52286308282055,179.51057374989614,,,,,,,,,,,,,,,,,,,,,,,,,,,,,,,,,,,179.51555479178205,179.52286308282055,179.52286308282055,179.92790599982254,b,1.0,0.3932842081412673,,,,,,sub-114,1,stroop_test,,
,,,,42.0,6.0,3.0,,,,,,,,,,,,,gelb,blue,b,0.0,b,1.0,0.4200490419752896,,,,,,,,,,3.0,6.0,42.0,9.0,179.9376589579042,,,,,,,,,,,,,,,,,179.92865199991502,180.2764893749263,181.07408412499356,181.06089479196817,,,,,,,,,,,,,,,,,,,,,,,,,,,,,,,,,,,181.0669012919534,181.07408412499356,181.07408412499356,181.50029854197052,b,1.0,0.4200490419752896,,,,,,sub-114,1,stroop_test,,
,,,,43.0,7.0,3.0,,,,,,,,,,,,,rot,blue,b,0.0,b,1.0,0.4749523329082876,,,,,,,,,,3.0,7.0,43.0,2.0,181.5098646248225,,,,,,,,,,,,,,,,,181.5008785419632,181.60195604199544,182.4062089577783,182.3939375418704,,,,,,,,,,,,,,,,,,,,,,,,,,,,,,,,,,,182.39882437488995,182.4062089577783,182.4062089577783,182.8834946670104,b,1.0,0.4749523329082876,,,,,,sub-114,1,stroop_test,,
,,,,44.0,8.0,3.0,,,,,,,,,,,,,blau,yellow,g,0.0,r,0.0,0.5281050419434905,,,,,,,,,,3.0,8.0,44.0,7.0,182.89275416685268,,,,,,,,,,,,,,,,,182.8840307497885,183.233080457896,184.0430924999528,184.0157644578721,,,,,,,,,,,,,,,,,,,,,,,,,,,,,,,,,,,184.01983945793472,184.0430924999528,184.0430924999528,184.5782648329623,r,0.0,0.5281050419434905,,,,,,sub-114,1,stroop_test,,
,,,,45.0,9.0,3.0,,,,,,,,,,,,,blau,red,r,0.0,r,1.0,0.5068944999948144,,,,,,,,,,3.0,9.0,45.0,4.0,184.5877450418193,,,,,,,,,,,,,,,,,184.57885287492536,184.67651829193343,185.4691621668171,185.46071679191664,,,,,,,,,,,,,,,,,,,,,,,,,,,,,,,,,,,185.461964166956,185.4691621668171,185.4691621668171,185.9787219578866,r,1.0,0.5068944999948144,,,,,,sub-114,1,stroop_test,,
,,,,46.0,10.0,3.0,,,,,,,,,,,,,gelb,yellow,g,1.0,g,1.0,0.4424826658796519,,,,,,,,,,3.0,10.0,46.0,11.0,185.9890394168906,,,,,,,,,,,,,,,,,185.97992745786905,186.3263179999776,187.1215709168464,187.1101234999951,,,,,,,,,,,,,,,,,,,,,,,,,,,,,,,,,,,187.1144859169144,187.1215709168464,187.1215709168464,187.56720862491056,g,1.0,0.4424826658796519,,,,,,sub-114,1,stroop_test,,
,,,,47.0,11.0,3.0,,,,,,,,,,,,,rot,yellow,g,0.0,g,1.0,0.3770599169656634,,,,,,,,,,3.0,11.0,47.0,3.0,187.59317224984989,,,,,,,,,,,,,,,,,187.5677519168239,188.3669972079806,189.1619553328492,189.14981574984267,,,,,,,,,,,,,,,,,,,,,,,,,,,,,,,,,,,189.15462416689843,189.1619553328492,189.1619553328492,189.54483545781116,g,1.0,0.3770599169656634,,,,,,sub-114,1,stroop_test,,
,,,,48.0,0.0,4.0,,,,,,,,,,,,,rot,blue,b,0.0,r,0.0,0.4821307919919491,,,,,,,,,,4.0,0.0,48.0,2.0,189.55522841680795,,,,,,,,,,,,,,,,,189.54566033300944,190.3434834999498,191.13569162483327,191.1271939999424,,,,,,,,,,,,,,,,,,,,,,,,,,,,,,,,,,,191.12837041681632,191.13569162483327,191.13569162483327,191.62800304195844,r,0.0,0.4821307919919491,,,,,,sub-114,1,stroop_test,,
,,,,49.0,1.0,4.0,,,,,,,,,,,,,gelb,yellow,g,1.0,g,1.0,0.5177425001747906,,,,,,,,,,4.0,1.0,49.0,11.0,191.63786862487905,,,,,,,,,,,,,,,,,191.6287873329129,191.7265351668466,192.52317154197956,192.510417916812,,,,,,,,,,,,,,,,,,,,,,,,,,,,,,,,,,,192.5160211669281,192.52317154197956,192.52317154197956,193.0451660419349,g,1.0,0.5177425001747906,,,,,,sub-114,1,stroop_test,,
,,,,50.0,2.0,4.0,,,,,,,,,,,,,blau,blue,b,1.0,b,1.0,0.5408910419791937,,,,,,,,,,4.0,2.0,50.0,6.0,193.05513829179108,,,,,,,,,,,,,,,,,193.0461112919729,193.14328445796852,193.93994870781896,193.92722341697663,,,,,,,,,,,,,,,,,,,,,,,,,,,,,,,,,,,193.93279529199933,193.93994870781896,193.93994870781896,194.4839991668705,b,1.0,0.5408910419791937,,,,,,sub-114,1,stroop_test,,
,,,,51.0,3.0,4.0,,,,,,,,,,,,,gelb,blue,b,0.0,b,1.0,0.3632616668473929,,,,,,,,,,4.0,3.0,51.0,9.0,194.50971083296463,,,,,,,,,,,,,,,,,194.48454366694205,195.28257766691968,196.07860308280212,196.06684683286585,,,,,,,,,,,,,,,,,,,,,,,,,,,,,,,,,,,196.07084270799533,196.07860308280212,196.07860308280212,196.4446372918319,b,1.0,0.3632616668473929,,,,,,sub-114,1,stroop_test,,
,,,,52.0,4.0,4.0,,,,,,,,,,,,,gelb,red,r,0.0,r,1.0,0.6583825419656932,,,,,,,,,,4.0,4.0,52.0,8.0,196.45473866700195,,,,,,,,,,,,,,,,,196.4454113328829,197.64348120777868,198.4353759170044,198.42697458295152,,,,,,,,,,,,,,,,,,,,,,,,,,,,,,,,,,,198.4281118328217,198.4353759170044,198.4353759170044,199.1051253748592,r,1.0,0.6583825419656932,,,,,,sub-114,1,stroop_test,,
,,,,53.0,5.0,4.0,,,,,,,,,,,,,rot,red,r,1.0,r,1.0,0.4384287919383496,,,,,,,,,,4.0,5.0,53.0,0.0,199.11126216687265,,,,,,,,,,,,,,,,,199.10566037497483,200.2996320829261,201.09521220787428,201.0830951668322,,,,,,,,,,,,,,,,,,,,,,,,,,,,,,,,,,,201.0871909579728,201.09521220787428,201.09521220787428,201.5446052919142,r,1.0,0.4384287919383496,,,,,,sub-114,1,stroop_test,,
,,,,54.0,6.0,4.0,,,,,,,,,,,,,rot,yellow,g,0.0,g,1.0,0.5442080840002745,,,,,,,,,,4.0,6.0,54.0,3.0,201.55430141696704,,,,,,,,,,,,,,,,,201.54534508287907,201.64315333287232,202.43443866679445,202.42715733288787,,,,,,,,,,,,,,,,,,,,,,,,,,,,,,,,,,,202.42783774994317,202.43443866679445,202.43443866679445,202.98403670778495,g,1.0,0.5442080840002745,,,,,,sub-114,1,stroop_test,,
,,,,55.0,7.0,4.0,,,,,,,,,,,,,rot,red,r,1.0,r,1.0,0.4829800419975072,,,,,,,,,,4.0,7.0,55.0,1.0,203.00962349982,,,,,,,,,,,,,,,,,202.9845696669072,204.1821004168596,204.97541899979117,204.96656516683288,,,,,,,,,,,,,,,,,,,,,,,,,,,,,,,,,,,204.96742287487723,204.97541899979117,204.97541899979117,205.4611554997973,r,1.0,0.4829800419975072,,,,,,sub-114,1,stroop_test,,
,,,,56.0,8.0,4.0,,,,,,,,,,,,,blau,blue,b,1.0,b,1.0,0.5068757911212742,,,,,,,,,,4.0,8.0,56.0,5.0,205.4710016248282,,,,,,,,,,,,,,,,,205.46197124989703,205.5598561249208,206.35661437478848,206.34380474989305,,,,,,,,,,,,,,,,,,,,,,,,,,,,,,,,,,,206.3495542078745,206.35661437478848,206.35661437478848,206.86666770791635,b,1.0,0.5068757911212742,,,,,,sub-114,1,stroop_test,,
,,,,57.0,9.0,4.0,,,,,,,,,,,,,blau,red,r,0.0,r,1.0,0.7079205419868231,,,,,,,,,,4.0,9.0,57.0,4.0,206.87573370779864,,,,,,,,,,,,,,,,,206.86721737496555,206.96628920780492,207.75838679191656,207.7502321668435,,,,,,,,,,,,,,,,,,,,,,,,,,,,,,,,,,,207.750948124798,207.75838679191656,207.75838679191656,208.47659562481567,r,1.0,0.7079205419868231,,,,,,sub-114,1,stroop_test,,
,,,,58.0,10.0,4.0,,,,,,,,,,,,,gelb,yellow,g,1.0,g,1.0,0.4572633330244571,,,,,,,,,,4.0,10.0,58.0,10.0,208.4817649580073,,,,,,,,,,,,,,,,,208.4771465829108,208.5663690418005,209.36210366687737,209.34968587500043,,,,,,,,,,,,,,,,,,,,,,,,,,,,,,,,,,,209.3547344999388,209.36210366687737,209.36210366687737,209.8283054579515,g,1.0,0.4572633330244571,,,,,,sub-114,1,stroop_test,,
,,,,59.0,11.0,4.0,,,,,,,,,,,,,blau,yellow,g,0.0,g,1.0,0.5342189171351492,,,,,,,,,,4.0,11.0,59.0,7.0,209.8381887918804,,,,,,,,,,,,,,,,,209.82924412493597,211.02641204185784,211.8220094169956,211.8100551669486,,,,,,,,,,,,,,,,,,,,,,,,,,,,,,,,,,,211.81497541698627,211.8220094169956,211.8220094169956,212.3617630419321,g,1.0,0.5342189171351492,,,,,,sub-114,1,stroop_test,,
,,,,60.0,0.0,5.0,,,,,,,,,,,,,blau,red,r,0.0,r,1.0,0.7887062919326127,,,,,,,,,,5.0,0.0,60.0,4.0,212.37223229184747,,,,,,,,,,,,,,,,,212.36294862488285,212.45981712499636,213.2515352917835,213.24338891683144,,,,,,,,,,,,,,,,,,,,,,,,,,,,,,,,,,,213.2446075829212,213.2515352917835,213.2515352917835,214.04494974995032,r,1.0,0.7887062919326127,,,,,,sub-114,1,stroop_test,,
,,,,61.0,1.0,5.0,,,,,,,,,,,,,blau,blue,b,1.0,b,1.0,0.4513449580408633,,,,,,,,,,5.0,1.0,61.0,6.0,214.0552154169418,,,,,,,,,,,,,,,,,214.0461323747877,214.84318745788187,215.63474212493747,215.62679295800623,,,,,,,,,,,,,,,,,,,,,,,,,,,,,,,,,,,215.6276349578984,215.63474212493747,215.63474212493747,216.0945546249859,b,1.0,0.4513449580408633,,,,,,sub-114,1,stroop_test,,
,,,,62.0,2.0,5.0,,,,,,,,,,,,,blau,yellow,g,0.0,g,1.0,0.4691284159198403,,,,,,,,,,5.0,2.0,62.0,7.0,216.1042416249402,,,,,,,,,,,,,,,,,216.0953971669078,216.89303708286025,217.68503387481903,217.67698758281767,,,,,,,,,,,,,,,,,,,,,,,,,,,,,,,,,,,217.678168916842,217.68503387481903,217.68503387481903,218.16116058290936,g,1.0,0.4691284159198403,,,,,,sub-114,1,stroop_test,,
,,,,63.0,3.0,5.0,,,,,,,,,,,,,gelb,yellow,g,1.0,g,1.0,0.4750055829063058,,,,,,,,,,5.0,3.0,63.0,11.0,218.17059849994257,,,,,,,,,,,,,,,,,218.1617514579557,218.9596963748336,219.7551258329768,219.7432969578076,,,,,,,,,,,,,,,,,,,,,,,,,,,,,,,,,,,219.74812704185024,219.7551258329768,219.7551258329768,220.23311645793729,g,1.0,0.4750055829063058,,,,,,sub-114,1,stroop_test,,
,,,,64.0,4.0,5.0,,,,,,,,,,,,,rot,blue,b,0.0,b,1.0,0.5502194168511778,,,,,,,,,,5.0,4.0,64.0,2.0,220.25974816689268,,,,,,,,,,,,,,,,,220.23369637480937,220.59333362500183,221.38983162492516,221.37668024981397,,,,,,,,,,,,,,,,,,,,,,,,,,,,,,,,,,,221.3825597919058,221.38983162492516,221.38983162492516,221.94482949981463,b,1.0,0.5502194168511778,,,,,,sub-114,1,stroop_test,,
,,,,65.0,5.0,5.0,,,,,,,,,,,,,gelb,red,r,0.0,g,0.0,0.3325874579604715,,,,,,,,,,5.0,5.0,65.0,8.0,221.95525608281605,,,,,,,,,,,,,,,,,221.94603449990973,223.1432766248472,223.93844283279032,223.92698970786296,,,,,,,,,,,,,,,,,,,,,,,,,,,,,,,,,,,223.9313990417868,223.93844283279032,223.93844283279032,224.2777579578105,g,0.0,0.3325874579604715,,,,,,sub-114,1,stroop_test,,
,,,,66.0,6.0,5.0,,,,,,,,,,,,,gelb,blue,b,0.0,b,1.0,0.4767726249992847,,,,,,,,,,5.0,6.0,66.0,9.0,224.28507933299989,,,,,,,,,,,,,,,,,224.2783907498233,224.37628041696732,225.16814279183745,225.16005824995227,,,,,,,,,,,,,,,,,,,,,,,,,,,,,,,,,,,225.1609166248236,225.16814279183745,225.16814279183745,225.65002324990928,b,1.0,0.4767726249992847,,,,,,sub-114,1,stroop_test,,
,,,,67.0,7.0,5.0,,,,,,,,,,,,,rot,yellow,g,0.0,r,0.0,0.6878806250169873,,,,,,,,,,5.0,7.0,67.0,3.0,225.6593392919749,,,,,,,,,,,,,,,,,225.65057462500408,225.99988437490535,226.80593587481417,226.79344429192133,,,,,,,,,,,,,,,,,,,,,,,,,,,,,,,,,,,226.7983329577837,226.80593587481417,226.80593587481417,227.50020824978128,r,0.0,0.6878806250169873,,,,,,sub-114,1,stroop_test,,
,,,,68.0,8.0,5.0,,,,,,,,,,,,,gelb,yellow,g,1.0,g,1.0,0.4231410408392548,,,,,,,,,,5.0,8.0,68.0,10.0,227.52622029185292,,,,,,,,,,,,,,,,,227.50079866684973,228.69981041690332,229.5086775419768,229.493621957954,,,,,,,,,,,,,,,,,,,,,,,,,,,,,,,,,,,229.5012288747821,229.5086775419768,229.5086775419768,229.9332321668044,g,1.0,0.4231410408392548,,,,,,sub-114,1,stroop_test,,
,,,,69.0,9.0,5.0,,,,,,,,,,,,,blau,blue,b,1.0,b,1.0,0.5678529581055045,,,,,,,,,,5.0,9.0,69.0,5.0,229.95938220783137,,,,,,,,,,,,,,,,,229.9337625829503,230.03267791680992,230.83887070789933,230.82664662483148,,,,,,,,,,,,,,,,,,,,,,,,,,,,,,,,,,,230.8317777919583,230.83887070789933,230.83887070789933,231.41119874990545,b,1.0,0.5678529581055045,,,,,,sub-114,1,stroop_test,,
,,,,70.0,10.0,5.0,,,,,,,,,,,,,rot,red,r,1.0,r,1.0,0.33341566612944,,,,,,,,,,5.0,10.0,70.0,0.0,231.421380457934,,,,,,,,,,,,,,,,,231.41234999988228,231.7597724578809,232.55627633281983,232.54346487484872,,,,,,,,,,,,,,,,,,,,,,,,,,,,,,,,,,,232.54881954193115,232.55627633281983,232.55627633281983,232.8943955828436,r,1.0,0.33341566612944,,,,,,sub-114,1,stroop_test,,
,,,,71.0,11.0,5.0,,,,,,,,,,,,,rot,red,r,1.0,r,1.0,0.8972587499301881,,,,,,,,,,5.0,11.0,71.0,1.0,232.9043941670097,,,,,,,,,,,,,,,,,232.8952105417848,234.0928465828765,234.88527745800093,234.87679508281872,,,,,,,,,,,,,,,,,,,,,,,,,,,,,,,,,,,234.87792533286847,234.88527745800093,234.88527745800093,235.79430016689005,r,1.0,0.8972587499301881,,,,,,sub-114,1,stroop_test,,
,,,,72.0,0.0,6.0,,,,,,,,,,,,,gelb,blue,b,0.0,b,1.0,0.4844834171235561,,,,,,,,,,6.0,0.0,72.0,9.0,235.80427612480707,,,,,,,,,,,,,,,,,235.79508216679096,235.89283529180105,236.68916549999267,236.6765518328175,,,,,,,,,,,,,,,,,,,,,,,,,,,,,,,,,,,236.68199337483384,236.68916549999267,236.68916549999267,237.17769470787607,b,1.0,0.4844834171235561,,,,,,sub-114,1,stroop_test,,
,,,,73.0,1.0,6.0,,,,,,,,,,,,,blau,blue,b,1.0,b,1.0,0.6002838329877704,,,,,,,,,,6.0,1.0,73.0,5.0,237.18770304182544,,,,,,,,,,,,,,,,,237.17864695796743,237.27592454198748,238.07311954186295,238.0602649578359,,,,,,,,,,,,,,,,,,,,,,,,,,,,,,,,,,,238.06605029199272,238.07311954186295,238.07311954186295,238.6776762078516,b,1.0,0.6002838329877704,,,,,,sub-114,1,stroop_test,,
,,,,74.0,2.0,6.0,,,,,,,,,,,,,blau,blue,b,1.0,b,1.0,0.5048587499186397,,,,,,,,,,6.0,2.0,74.0,6.0,238.68722320790403,,,,,,,,,,,,,,,,,238.6784187918529,238.776067083003,239.567665749928,239.56000804179348,,,,,,,,,,,,,,,,,,,,,,,,,,,,,,,,,,,239.56091058300808,239.567665749928,239.567665749928,240.07762649981305,b,1.0,0.5048587499186397,,,,,,sub-114,1,stroop_test,,
,,,,75.0,3.0,6.0,,,,,,,,,,,,,gelb,yellow,g,1.0,g,1.0,0.3595575829967856,,,,,,,,,,6.0,3.0,75.0,10.0,240.08756870799695,,,,,,,,,,,,,,,,,240.0784687499981,241.2760939579457,242.07285654195584,242.0600648329128,,,,,,,,,,,,,,,,,,,,,,,,,,,,,,,,,,,242.065651249839,242.07285654195584,242.07285654195584,242.44484516698867,g,1.0,0.3595575829967856,,,,,,sub-114,1,stroop_test,,
,,,,76.0,4.0,6.0,,,,,,,,,,,,,rot,yellow,g,0.0,g,1.0,0.51492083305493,,,,,,,,,,6.0,4.0,76.0,3.0,242.45471770782024,,,,,,,,,,,,,,,,,242.4458070418332,242.79298287490383,243.58981108292937,243.57658633287065,,,,,,,,,,,,,,,,,,,,,,,,,,,,,,,,,,,243.58215595781803,243.58981108292937,243.58981108292937,244.1113436250016,g,1.0,0.51492083305493,,,,,,sub-114,1,stroop_test,,
,,,,77.0,5.0,6.0,,,,,,,,,,,,,blau,yellow,g,0.0,g,1.0,0.5196248749271035,,,,,,,,,,6.0,5.0,77.0,7.0,244.1215128749609,,,,,,,,,,,,,,,,,244.11253341683187,244.45966779184528,245.2575737917796,245.24332937481813,,,,,,,,,,,,,,,,,,,,,,,,,,,,,,,,,,,245.2502641249448,245.2575737917796,245.2575737917796,245.7835787499789,g,1.0,0.5196248749271035,,,,,,sub-114,1,stroop_test,,
,,,,78.0,6.0,6.0,,,,,,,,,,,,,rot,red,r,1.0,r,1.0,0.403044082922861,,,,,,,,,,6.0,6.0,78.0,0.0,245.7944884998724,,,,,,,,,,,,,,,,,245.7842362918891,246.5830165417865,247.3901418747846,247.37662483286115,,,,,,,,,,,,,,,,,,,,,,,,,,,,,,,,,,,247.3823189169634,247.3901418747846,247.3901418747846,247.7993118329905,r,1.0,0.403044082922861,,,,,,sub-114,1,stroop_test,,
,,,,79.0,7.0,6.0,,,,,,,,,,,,,blau,red,r,0.0,r,1.0,0.3408317919820547,,,,,,,,,,6.0,7.0,79.0,4.0,247.80850399984047,,,,,,,,,,,,,,,,,247.7998549998738,247.89912158297372,248.69529549987053,248.6824282079469,,,,,,,,,,,,,,,,,,,,,,,,,,,,,,,,,,,248.6871443327982,248.69529549987053,248.69529549987053,249.0440381669905,r,1.0,0.3408317919820547,,,,,,sub-114,1,stroop_test,,
,,,,80.0,8.0,6.0,,,,,,,,,,,,,rot,blue,b,0.0,b,1.0,0.3635813749860972,,,,,,,,,,6.0,8.0,80.0,2.0,249.05404129181989,,,,,,,,,,,,,,,,,249.0447108328808,249.8424817919731,250.63962224987336,250.62640054197985,,,,,,,,,,,,,,,,,,,,,,,,,,,,,,,,,,,250.63129320787263,250.63962224987336,250.63962224987336,251.01057429192588,b,1.0,0.3635813749860972,,,,,,sub-114,1,stroop_test,,
,,,,81.0,9.0,6.0,,,,,,,,,,,,,rot,red,r,1.0,r,1.0,0.7856913330033422,,,,,,,,,,6.0,9.0,81.0,1.0,251.02052920800637,,,,,,,,,,,,,,,,,251.0113883749582,252.20937620778568,253.00123558286575,252.9929771248717,,,,,,,,,,,,,,,,,,,,,,,,,,,,,,,,,,,252.99386679194868,253.00123558286575,253.00123558286575,253.79453395796008,r,1.0,0.7856913330033422,,,,,,sub-114,1,stroop_test,,
,,,,82.0,10.0,6.0,,,,,,,,,,,,,gelb,yellow,g,1.0,g,1.0,0.4509290000423789,,,,,,,,,,6.0,10.0,82.0,11.0,253.80463858298023,,,,,,,,,,,,,,,,,253.7955821668729,254.5925084578339,255.39015479199588,255.3769229168538,,,,,,,,,,,,,,,,,,,,,,,,,,,,,,,,,,,255.3828625828028,255.39015479199588,255.39015479199588,255.84435179200955,g,1.0,0.4509290000423789,,,,,,sub-114,1,stroop_test,,
,,,,83.0,11.0,6.0,,,,,,,,,,,,,gelb,red,r,0.0,g,0.0,0.6443090829998255,,,,,,,,,,6.0,11.0,83.0,8.0,255.8549357498996,,,,,,,,,,,,,,,,,255.8456296247896,256.19239095784724,256.9845752918627,256.976442999905,,,,,,,,,,,,,,,,,,,,,,,,,,,,,,,,,,,256.9773322499823,256.9845752918627,256.9845752918627,257.6334616248496,g,0.0,0.6443090829998255,,,,,,sub-114,1,stroop_test,,
,,,,84.0,0.0,7.0,,,,,,,,,,,,,rot,red,r,1.0,r,1.0,0.8945767499972135,,,,,,,,,,7.0,0.0,84.0,0.0,257.65913974982686,,,,,,,,,,,,,,,,,257.6340280829463,258.43267054180615,259.2393094578292,259.22652833280154,,,,,,,,,,,,,,,,,,,,,,,,,,,,,,,,,,,259.2317208747845,259.2393094578292,259.2393094578292,260.14417320792563,r,1.0,0.8945767499972135,,,,,,sub-114,1,stroop_test,,
,,,,85.0,1.0,7.0,,,,,,,,,,,,,blau,yellow,g,0.0,g,1.0,0.6140780001878738,,,,,,,,,,7.0,1.0,85.0,7.0,260.1544125829824,,,,,,,,,,,,,,,,,260.1451559579,260.49272716697305,261.2887863328215,261.27633054181933,,,,,,,,,,,,,,,,,,,,,,,,,,,,,,,,,,,261.28159720799886,261.2887863328215,261.2887863328215,261.9109572498128,g,1.0,0.6140780001878738,,,,,,sub-114,1,stroop_test,,
,,,,86.0,2.0,7.0,,,,,,,,,,,,,gelb,yellow,g,1.0,g,1.0,0.6768553329166025,,,,,,,,,,7.0,2.0,86.0,11.0,261.92088599991985,,,,,,,,,,,,,,,,,261.91169558279216,262.7092605829239,263.50886537483893,263.4927981249057,,,,,,,,,,,,,,,,,,,,,,,,,,,,,,,,,,,263.5018383329734,263.50886537483893,263.50886537483893,264.1937949999701,g,1.0,0.6768553329166025,,,,,,sub-114,1,stroop_test,,
,,,,87.0,3.0,7.0,,,,,,,,,,,,,gelb,blue,b,0.0,b,1.0,0.3655972501728683,,,,,,,,,,7.0,3.0,87.0,9.0,264.2037072919775,,,,,,,,,,,,,,,,,264.19443404185586,264.99247158295475,265.7848039998207,265.7763394168578,,,,,,,,,,,,,,,,,,,,,,,,,,,,,,,,,,,265.77745316689834,265.7848039998207,265.7848039998207,266.1606867499649,b,1.0,0.3655972501728683,,,,,,sub-114,1,stroop_test,,
,,,,88.0,4.0,7.0,,,,,,,,,,,,,gelb,red,r,0.0,r,1.0,0.4849087919574231,,,,,,,,,,7.0,4.0,88.0,8.0,266.1704733329825,,,,,,,,,,,,,,,,,266.1614612499252,266.2584394579753,267.0507215829566,267.0427779168822,,,,,,,,,,,,,,,,,,,,,,,,,,,,,,,,,,,267.0439946248662,267.0507215829566,267.0507215829566,267.5440495829098,r,1.0,0.4849087919574231,,,,,,sub-114,1,stroop_test,,
,,,,89.0,5.0,7.0,,,,,,,,,,,,,blau,blue,b,1.0,g,0.0,0.3540661248844117,,,,,,,,,,7.0,5.0,89.0,5.0,267.55401708278805,,,,,,,,,,,,,,,,,267.544961291831,267.64231462497264,268.4385537498165,268.4263296248391,,,,,,,,,,,,,,,,,,,,,,,,,,,,,,,,,,,268.43141366681084,268.4385537498165,268.4385537498165,268.80367137491703,g,0.0,0.3540661248844117,,,,,,sub-114,1,stroop_test,,
,,,,90.0,6.0,7.0,,,,,,,,,,,,,gelb,yellow,g,1.0,b,0.0,0.3926079580560326,,,,,,,,,,7.0,6.0,90.0,10.0,268.808864624938,,,,,,,,,,,,,,,,,268.8042803329881,269.14850879181176,269.9449006249197,269.9327570828609,,,,,,,,,,,,,,,,,,,,,,,,,,,,,,,,,,,269.93702737498097,269.9449006249197,269.9449006249197,270.343565082876,b,0.0,0.3926079580560326,,,,,,sub-114,1,stroop_test,,
,,,,91.0,7.0,7.0,,,,,,,,,,,,,rot,yellow,g,0.0,g,1.0,0.445045999949798,,,,,,,,,,7.0,7.0,91.0,3.0,270.35294433287345,,,,,,,,,,,,,,,,,270.34413899993524,271.1425778749399,271.93952704197727,271.9262002077885,,,,,,,,,,,,,,,,,,,,,,,,,,,,,,,,,,,271.93195612495765,271.93952704197727,271.93952704197727,272.3942128748168,g,1.0,0.445045999949798,,,,,,sub-114,1,stroop_test,,
,,,,92.0,8.0,7.0,,,,,,,,,,,,,blau,red,r,0.0,r,1.0,0.3873475831933319,,,,,,,,,,7.0,8.0,92.0,4.0,272.40456516691484,,,,,,,,,,,,,,,,,272.39532587490976,273.5922406669706,274.38894654181786,274.3763287919573,,,,,,,,,,,,,,,,,,,,,,,,,,,,,,,,,,,274.38184329192154,274.38894654181786,274.38894654181786,274.78703449992463,r,1.0,0.3873475831933319,,,,,,sub-114,1,stroop_test,,
,,,,93.0,9.0,7.0,,,,,,,,,,,,,rot,blue,b,0.0,b,1.0,0.6487268330529332,,,,,,,,,,7.0,9.0,93.0,2.0,274.79221266694367,,,,,,,,,,,,,,,,,274.7875737918075,275.98117874981835,276.7775902918074,276.76457412494346,,,,,,,,,,,,,,,,,,,,,,,,,,,,,,,,,,,276.76905349991284,276.7775902918074,276.7775902918074,277.43264758284204,b,1.0,0.6487268330529332,,,,,,sub-114,1,stroop_test,,
,,,,94.0,10.0,7.0,,,,,,,,,,,,,blau,blue,b,1.0,b,1.0,0.4795794170349836,,,,,,,,,,7.0,10.0,94.0,6.0,277.4418554578442,,,,,,,,,,,,,,,,,277.43321124999784,278.2318477497902,279.0277517079376,279.015131249791,,,,,,,,,,,,,,,,,,,,,,,,,,,,,,,,,,,279.0192464168649,279.0277517079376,279.0277517079376,279.5109714998398,b,1.0,0.4795794170349836,,,,,,sub-114,1,stroop_test,,
,,,,95.0,11.0,7.0,,,,,,,,,,,,,rot,red,r,1.0,r,1.0,0.5650692919734865,,,,,,,,,,7.0,11.0,95.0,1.0,279.5208585828077,,,,,,,,,,,,,,,,,279.51171433296986,279.6088980420027,280.4071811668109,280.39280679193325,,,,,,,,,,,,,,,,,,,,,,,,,,,,,,,,,,,280.3998537918087,280.4071811668109,280.4071811668109,280.9777447078377,r,1.0,0.5650692919734865,,,,,,sub-114,1,stroop_test,,
,,,,96.0,0.0,8.0,,,,,,,,,,,,,gelb,yellow,g,1.0,g,1.0,0.3875662921927869,,,,,,,,,,8.0,0.0,96.0,11.0,280.98805666691624,,,,,,,,,,,,,,,,,280.978620957816,281.77612095791847,282.571650207974,282.55936487484723,,,,,,,,,,,,,,,,,,,,,,,,,,,,,,,,,,,282.5644018747844,282.571650207974,282.571650207974,282.9611887917854,g,1.0,0.3875662921927869,,,,,,sub-114,1,stroop_test,,
,,,,97.0,1.0,8.0,,,,,,,,,,,,,gelb,yellow,g,1.0,g,1.0,0.5317455420736223,,,,,,,,,,8.0,1.0,97.0,10.0,282.97108854190446,,,,,,,,,,,,,,,,,282.96214279183187,283.3092388748192,284.1013917499222,284.09294849983416,,,,,,,,,,,,,,,,,,,,,,,,,,,,,,,,,,,284.0940767079592,284.1013917499222,284.1013917499222,284.643962666858,g,1.0,0.5317455420736223,,,,,,sub-114,1,stroop_test,,
,,,,98.0,2.0,8.0,,,,,,,,,,,,,rot,yellow,g,0.0,g,1.0,0.4403888748493045,,,,,,,,,,8.0,2.0,98.0,3.0,284.6541212918237,,,,,,,,,,,,,,,,,284.6450737498235,284.9921294169035,285.7896554169711,285.776419499889,,,,,,,,,,,,,,,,,,,,,,,,,,,,,,,,,,,285.78225399996154,285.7896554169711,285.7896554169711,286.2326255419757,g,1.0,0.4403888748493045,,,,,,sub-114,1,stroop_test,,
,,,,99.0,3.0,8.0,,,,,,,,,,,,,rot,red,r,1.0,r,1.0,0.5629789580125362,,,,,,,,,,8.0,3.0,99.0,1.0,286.24183024978265,,,,,,,,,,,,,,,,,286.233170916792,287.43123033293523,288.2240589580033,288.21557020791806,,,,,,,,,,,,,,,,,,,,,,,,,,,,,,,,,,,288.2162474577781,288.2240589580033,288.2240589580033,288.79386441688985,r,1.0,0.5629789580125362,,,,,,sub-114,1,stroop_test,,
,,,,100.0,4.0,8.0,,,,,,,,,,,,,rot,red,r,1.0,r,1.0,0.4304584159981459,,,,,,,,,,8.0,4.0,100.0,0.0,288.803465917008,,,,,,,,,,,,,,,,,288.79448070796207,289.142393541988,289.93455045786686,289.9259525418747,,,,,,,,,,,,,,,,,,,,,,,,,,,,,,,,,,,289.92711266689,289.93455045786686,289.93455045786686,290.3770994169172,r,1.0,0.4304584159981459,,,,,,sub-114,1,stroop_test,,
,,,,101.0,5.0,8.0,,,,,,,,,,,,,gelb,red,r,0.0,r,1.0,0.9734094589948654,,,,,,,,,,8.0,5.0,101.0,8.0,290.38692804193124,,,,,,,,,,,,,,,,,290.37786179198883,291.5758422079962,292.3713745828718,292.35923687485047,,,,,,,,,,,,,,,,,,,,,,,,,,,,,,,,,,,292.36429912480526,292.3713745828718,292.3713745828718,293.3500373749994,r,1.0,0.9734094589948654,,,,,,sub-114,1,stroop_test,,
,,,,102.0,6.0,8.0,,,,,,,,,,,,,blau,blue,b,1.0,b,1.0,0.4436984171625227,,,,,,,,,,8.0,6.0,102.0,6.0,293.36090454179794,,,,,,,,,,,,,,,,,293.35062304185703,294.1484246668406,294.95517112500966,294.9426417918876,,,,,,,,,,,,,,,,,,,,,,,,,,,,,,,,,,,294.9480411668774,294.95517112500966,294.95517112500966,295.4108442079741,b,1.0,0.4436984171625227,,,,,,sub-114,1,stroop_test,,
,,,,103.0,7.0,8.0,,,,,,,,,,,,,gelb,blue,b,0.0,b,1.0,0.560170958051458,,,,,,,,,,8.0,7.0,103.0,9.0,295.42115004197694,,,,,,,,,,,,,,,,,295.4120925418101,296.6089409578126,297.40561058279127,297.39258720795624,,,,,,,,,,,,,,,,,,,,,,,,,,,,,,,,,,,297.39821833278984,297.40561058279127,297.40561058279127,297.97738420800306,b,1.0,0.560170958051458,,,,,,sub-114,1,stroop_test,,
,,,,104.0,8.0,8.0,,,,,,,,,,,,,rot,blue,b,0.0,b,1.0,0.4304622919298708,,,,,,,,,,8.0,8.0,104.0,2.0,297.9875210828613,,,,,,,,,,,,,,,,,297.9782127079088,298.07550716679543,298.87325499998406,298.85956016695127,,,,,,,,,,,,,,,,,,,,,,,,,,,,,,,,,,,298.8658365828451,298.87325499998406,298.87325499998406,299.31033462495543,b,1.0,0.4304622919298708,,,,,,sub-114,1,stroop_test,,
,,,,105.0,9.0,8.0,,,,,,,,,,,,,blau,red,r,0.0,r,1.0,0.6130600420292467,,,,,,,,,,8.0,9.0,105.0,4.0,299.319921082817,,,,,,,,,,,,,,,,,299.3110101670027,299.4090494578704,300.2056133749429,300.1926508329343,,,,,,,,,,,,,,,,,,,,,,,,,,,,,,,,,,,300.19850858300924,300.2056133749429,300.2056133749429,300.8271833329927,r,1.0,0.6130600420292467,,,,,,sub-114,1,stroop_test,,
,,,,106.0,10.0,8.0,,,,,,,,,,,,,blau,yellow,g,0.0,g,1.0,0.4546856249216944,,,,,,,,,,8.0,10.0,106.0,7.0,300.83704599994235,,,,,,,,,,,,,,,,,300.82797974999994,301.1756192918401,301.9679575418122,301.9593734578229,,,,,,,,,,,,,,,,,,,,,,,,,,,,,,,,,,,301.96065033297054,301.9679575418122,301.9679575418122,302.42715562484227,g,1.0,0.4546856249216944,,,,,,sub-114,1,stroop_test,,
,,,,107.0,11.0,8.0,,,,,,,,,,,,,blau,blue,b,1.0,b,1.0,0.5981155000627041,,,,,,,,,,8.0,11.0,107.0,5.0,302.4371479169931,,,,,,,,,,,,,,,,,302.4279398748185,302.77534462488256,303.5674177079927,303.55915787490085,,,,,,,,,,,,,,,,,,,,,,,,,,,,,,,,,,,303.5603043748997,303.5674177079927,303.5674177079927,304.17625470785424,b,1.0,0.5981155000627041,,,,,,sub-114,1,stroop_test,,
,,,,108.0,0.0,9.0,,,,,,,,,,,,,rot,red,r,1.0,r,1.0,0.4827634999528527,,,,,,,,,,9.0,0.0,108.0,0.0,304.1922125827987,,,,,,,,,,,,,,,,,304.1768677078653,304.9757512079086,305.7717637498863,305.7593046668917,,,,,,,,,,,,,,,,,,,,,,,,,,,,,,,,,,,305.7644150829874,305.7717637498863,305.7717637498863,306.25996112497523,r,1.0,0.4827634999528527,,,,,,sub-114,1,stroop_test,,
,,,,109.0,1.0,9.0,,,,,,,,,,,,,blau,blue,b,1.0,b,1.0,0.562860667007044,,,,,,,,,,9.0,1.0,109.0,6.0,306.2697755829431,,,,,,,,,,,,,,,,,306.26056937500834,307.4493152499199,308.25559341697954,308.24256779183634,,,,,,,,,,,,,,,,,,,,,,,,,,,,,,,,,,,308.2482642917894,308.25559341697954,308.25559341697954,308.8269473328255,b,1.0,0.562860667007044,,,,,,sub-114,1,stroop_test,,
,,,,110.0,2.0,9.0,,,,,,,,,,,,,gelb,blue,b,0.0,b,1.0,0.6377467080019414,,,,,,,,,,9.0,2.0,110.0,9.0,308.8371537919156,,,,,,,,,,,,,,,,,308.8277815419715,309.1752975420095,309.97248633299023,309.959603499854,,,,,,,,,,,,,,,,,,,,,,,,,,,,,,,,,,,309.96454820781946,309.97248633299023,309.97248633299023,310.61572449980304,b,1.0,0.6377467080019414,,,,,,sub-114,1,stroop_test,,
,,,,111.0,3.0,9.0,,,,,,,,,,,,,gelb,yellow,g,1.0,g,1.0,0.523062749998644,,,,,,,,,,9.0,3.0,111.0,11.0,310.62443004199304,,,,,,,,,,,,,,,,,310.6160984579474,310.7124297497794,311.507266207831,311.4978337918874,,,,,,,,,,,,,,,,,,,,,,,,,,,,,,,,,,,311.4988015829585,311.507266207831,311.507266207831,312.0334921667818,g,1.0,0.523062749998644,,,,,,sub-114,1,stroop_test,,
,,,,112.0,4.0,9.0,,,,,,,,,,,,,blau,blue,b,1.0,b,1.0,0.4980386248789727,,,,,,,,,,9.0,4.0,112.0,5.0,312.0455398748163,,,,,,,,,,,,,,,,,312.0342663328629,313.231464457931,314.028079582844,314.0152610419318,,,,,,,,,,,,,,,,,,,,,,,,,,,,,,,,,,,314.020597249968,314.028079582844,314.028079582844,314.53270504181273,b,1.0,0.4980386248789727,,,,,,sub-114,1,stroop_test,,
,,,,113.0,5.0,9.0,,,,,,,,,,,,,rot,blue,b,0.0,b,1.0,0.3720203749835491,,,,,,,,,,9.0,5.0,113.0,2.0,314.5588282919489,,,,,,,,,,,,,,,,,314.533256374998,314.8814625418745,315.67820537486114,315.6652611249592,,,,,,,,,,,,,,,,,,,,,,,,,,,,,,,,,,,315.670901541831,315.67820537486114,315.67820537486114,316.0600107079372,b,1.0,0.3720203749835491,,,,,,sub-114,1,stroop_test,,
,,,,114.0,6.0,9.0,,,,,,,,,,,,,rot,red,r,1.0,r,1.0,0.5014166249893606,,,,,,,,,,9.0,6.0,114.0,1.0,316.0704999999143,,,,,,,,,,,,,,,,,316.0607880828902,316.15767512493767,316.9506884168368,316.9425735829864,,,,,,,,,,,,,,,,,,,,,,,,,,,,,,,,,,,316.94348966679536,316.9506884168368,316.9506884168368,317.4604172499385,r,1.0,0.5014166249893606,,,,,,sub-114,1,stroop_test,,
,,,,115.0,7.0,9.0,,,,,,,,,,,,,gelb,red,r,0.0,r,1.0,0.3101047500967979,,,,,,,,,,9.0,7.0,115.0,8.0,317.4707540827804,,,,,,,,,,,,,,,,,317.46125349984504,317.80848141689785,318.6050102498848,318.5924851668533,,,,,,,,,,,,,,,,,,,,,,,,,,,,,,,,,,,318.59762999997474,318.6050102498848,318.6050102498848,318.92705854191445,r,1.0,0.3101047500967979,,,,,,sub-114,1,stroop_test,,
,,,,116.0,8.0,9.0,,,,,,,,,,,,,blau,yellow,g,0.0,g,1.0,0.4303620001301169,,,,,,,,,,9.0,8.0,116.0,7.0,318.9373551248573,,,,,,,,,,,,,,,,,318.92795816692524,319.2754906248301,320.0718211249914,320.05913245794363,,,,,,,,,,,,,,,,,,,,,,,,,,,,,,,,,,,320.06448666681536,320.0718211249914,320.0718211249914,320.51023229188286,g,1.0,0.4303620001301169,,,,,,sub-114,1,stroop_test,,
,,,,117.0,9.0,9.0,,,,,,,,,,,,,blau,red,r,0.0,r,1.0,0.3232260420918464,,,,,,,,,,9.0,9.0,117.0,4.0,320.5202691250015,,,,,,,,,,,,,,,,,320.5110198329203,320.85866495780647,321.6508383329492,321.6424462918658,,,,,,,,,,,,,,,,,,,,,,,,,,,,,,,,,,,321.6433254999574,321.6508383329492,321.6508383329492,321.976988832932,r,1.0,0.3232260420918464,,,,,,sub-114,1,stroop_test,,
,,,,118.0,10.0,9.0,,,,,,,,,,,,,rot,yellow,g,0.0,g,1.0,0.4105281250085681,,,,,,,,,,9.0,10.0,118.0,3.0,321.9873884997796,,,,,,,,,,,,,,,,,321.9778774168808,322.77534212497994,323.5734368329868,323.5595136249904,,,,,,,,,,,,,,,,,,,,,,,,,,,,,,,,,,,323.56536191678606,323.5734368329868,323.5734368329868,323.99388462491333,g,1.0,0.4105281250085681,,,,,,sub-114,1,stroop_test,,
,,,,119.0,11.0,9.0,,,,,,,,,,,,,gelb,yellow,g,1.0,g,1.0,0.3985724579542875,,,,,,,,,,9.0,11.0,119.0,10.0,324.00438279192895,,,,,,,,,,,,,,,,,323.99513091682456,325.1919834169093,325.98828183300793,325.9756074578036,,,,,,,,,,,,,,,,,,,,,,,,,,,,,,,,,,,325.9810962919146,325.98828183300793,325.98828183300793,326.3931498748716,g,1.0,0.3985724579542875,,,,,,sub-114,1,stroop_test,,
,,,,,,,,,,,,,,,,,,,,,,,,,,,,,,,,,,,,,,,,,,,,,,,,,,,,,,,,,,,,,,,,,,,,,,,,,,,,,,,,,,,,,,,,,,,,,,,,,,,,,,326.3934648327995,326.4049249999225,331.39787608291954,331.3927654169965,sub-114,1,stroop_test,,
