direction,corrAns,thisN,thisTrialN,thisRepN,respDots.keys,respDots.corr,respDots.rt,respDots.duration,randomInstr,respRandomInstr.keys,respRandomInstr.rt,respRandomInstr.duration,practice_trials.thisRepN,practice_trials.thisTrialN,practice_trials.thisN,practice_trials.thisIndex,instr_trials.thisRepN,instr_trials.thisTrialN,instr_trials.thisN,instr_trials.thisIndex,test_trials.thisRepN,test_trials.thisTrialN,test_trials.thisN,test_trials.thisIndex,thisRow.t,notes,general_instruction.started,textGeneralInstr.started,respGeneralInstr.started,general_instruction.stopped,respGeneralInstr.keys,respGeneralInstr.rt,respGeneralInstr.duration,ITI.started,fixcross.started,fixcross.stopped,ITI.stopped,dots.started,backgroundDots.started,stimulusDots.started,respDots.started,stimulusDots.stopped,dots.stopped,practice_trials.respDots.keys,practice_trials.respDots.corr,practice_trials.respDots.rt,practice_trials.respDots.duration,feedback.started,textFeedback.started,feedback.stopped,textFeedback.stopped,info.started,textInfo.started,keyRespInfo.started,info.stopped,keyRespInfo.keys,keyRespInfo.rt,keyRespInfo.duration,test_instruction.started,textTestInstr.started,respTestInstr.started,test_instruction.stopped,respTestInstr.keys,respTestInstr.rt,respTestInstr.duration,random_instruction.started,textRandomInstr.started,respRandomInstr.started,random_instruction.stopped,instr_trials.respRandomInstr.keys,instr_trials.respRandomInstr.rt,instr_trials.respRandomInstr.duration,test_trials.respDots.keys,test_trials.respDots.corr,test_trials.respDots.rt,test_trials.respDots.duration,goodbye.started,textGoodbye.started,textGoodbye.stopped,goodbye.stopped,participant,session,expName,frameRate,Unnamed: 88
,,,,,,,,,,,,,,,,,,,,,,,,,,,0.0113700829970184,0.0191124999983003,0.0191124999983003,44.14477633299248,space,44.092858749994775,,,,,,,,,,,,,,,,,,,,,,,,,,,,,,,,,,,,,,,,,,,,,,,,,sub-093,1,random_dot,,
left,left,0.0,0.0,0.0,left,1.0,17.207001665999996,,,,,,0.0,0.0,0.0,0.0,,,,,,,,,44.17532662500162,,,,,,,,,44.15626770799281,45.338511041001766,46.1497753750009,46.13828908299911,46.13871933300106,46.1497753750009,46.1497753750009,46.1497753750009,51.13076120799815,63.35967399999208,left,1.0,17.207001665999996,,63.36859129100048,63.39799854099692,63.86996841599466,,,,,,,,,,,,,,,,,,,,,,,,,,,,,,,sub-093,1,random_dot,,
right,right,1.0,1.0,0.0,left,0.0,10.541039457995794,,,,,,0.0,1.0,1.0,1.0,,,,,,,,,63.89045566599816,,,,,,,,,63.87026624999999,65.07263720799529,65.87064549999195,65.86315812499379,65.8639454160002,65.87064549999195,65.87064549999195,65.87064549999195,70.85917300000438,76.4152538329945,left,0.0,10.541039457995794,,76.42140679099248,76.42914362499141,76.91708241599554,,,,,,,,,,,,,,,,,,,,,,,,,,,,,,,sub-093,1,random_dot,,
right,right,2.0,0.0,1.0,left,0.0,11.46434533399588,,,,,,1.0,0.0,2.0,1.0,,,,,,,,,76.92431462499371,,,,,,,,,76.91772029099229,78.1215713749989,78.91927025000041,78.91257395799039,78.91295470799378,78.91927025000041,78.91927025000041,78.91927025000041,83.91143604100216,90.38634133299638,left,0.0,11.46434533399588,,90.38646383299783,90.39421379099076,90.87875441600043,90.88242174999324,,,,,,,,,,,,,,,,,,,,,,,,,,,,,,sub-093,1,random_dot,,
left,left,3.0,1.0,1.0,left,1.0,7.291733666002983,,,,,,1.0,1.0,3.0,0.0,,,,,,,,,90.88242174999324,,,,,,,,,90.87908199999949,92.08073420799336,92.87768045799749,92.87001299999248,92.87124379099988,92.87768045799749,92.87768045799749,92.87768045799749,97.88259791600284,100.17191574999016,left,1.0,7.291733666002983,,100.17550112499156,100.18318683299005,100.67300345799596,,,,,,,,,,,,,,,,,,,,,,,,,,,,,,,sub-093,1,random_dot,,
left,left,4.0,0.0,2.0,left,1.0,6.725912209003582,,,,,,2.0,0.0,4.0,0.0,,,,,,,,,100.67672933299036,,,,,,,,,100.67333304099157,101.87389679100306,102.68054595799184,102.67353133299912,102.67416675000275,102.68054595799184,102.68054595799184,102.68054595799184,107.67019725000137,109.41798395800288,left,1.0,6.725912209003582,,109.4181322499935,109.42409108299762,109.91002783300064,109.92395458299144,,,,,,,,,,,,,,,,,,,,,,,,,,,,,,sub-093,1,random_dot,,
right,right,5.0,1.0,2.0,left,0.0,5.660053915999015,,,,,,2.0,1.0,5.0,1.0,,,,,,,,,109.92395458299144,,,,,,,,,109.9103268750041,110.2775586659991,111.07507920799252,111.06467062499723,111.0649382499978,111.07507920799252,111.07507920799252,111.07507920799252,116.06103329100006,116.7428841660003,left,0.0,5.660053915999015,,116.74641037499532,116.7538002079964,117.2418968330021,117.264011457999,,,,,,,,,,,,,,,,,,,,,,,,,,,,,,sub-093,1,random_dot,,
left,left,6.0,0.0,3.0,left,1.0,6.335888125002384,,,,,,3.0,0.0,6.0,0.0,,,,,,,,,117.264011457999,,,,,,,,,117.24227975000396,117.59133179100172,118.390735915993,118.38436075000207,118.38476449999143,118.390735915993,118.390735915993,118.390735915993,123.3828800409974,124.73332029099402,left,1.0,6.335888125002384,,124.73668420799368,124.7447677500022,125.23832045799644,,,,,,,,,,,,,,,,,,,,,,,,,,,,,,,sub-093,1,random_dot,,
right,right,7.0,1.0,3.0,left,0.0,3.261193540995009,,,,,,3.0,1.0,7.0,1.0,,,,,,,,,125.24188037500426,,,,,,,,,125.23870637499203,125.33678862499072,126.14445066599,126.13739216599788,126.13813295800357,126.14445066599,126.14445066599,126.14445066599,,129.41777087499213,left,0.0,3.261193540995009,,129.4210083749931,129.42862612499448,129.91665633299272,129.9202409999998,,,,,,,,,,,,,,,,,,,,,,,,,,,,,,sub-093,1,random_dot,,
right,right,8.0,0.0,4.0,left,0.0,0.8698369170015212,,,,,,4.0,0.0,8.0,1.0,,,,,,,,,129.9202409999998,,,,,,,,,129.9170136659959,130.00730895799643,130.79758404099266,130.791179790991,130.79158754099626,130.79758404099266,130.79758404099266,130.79758404099266,,131.67007795799873,left,0.0,0.8698369170015212,,131.67017912499432,131.68160704099864,132.16619791599803,132.18833099999756,,,,,,,,,,,,,,,,,,,,,,,,,,,,,,sub-093,1,random_dot,,
left,left,9.0,1.0,4.0,left,1.0,0.4456094999914057,,,,,,4.0,1.0,9.0,0.0,,,,,,,,,132.18833099999756,,,,,,,,,132.16657087499334,132.2672179999936,133.0653308750043,133.05867650000437,133.0590793750016,133.0653308750043,133.0653308750043,133.0653308750043,,133.51267699999153,left,1.0,0.4456094999914057,,133.51574970799263,133.5223448750039,134.01528054100345,,,,,,,,,,,,,,,,,,,,,,,,,,,,,,,sub-093,1,random_dot,,
right,right,10.0,0.0,5.0,left,0.0,0.4083443330018781,,,,,,5.0,0.0,10.0,1.0,,,,,,,,,134.01985562499613,,,,,,,,,134.01560670799518,135.21143479099555,136.01134158299828,136.0051175830013,136.00552941599744,136.01134158299828,136.01134158299828,136.01134158299828,,136.42633512499742,left,0.0,0.4083443330018781,,136.42883312499907,136.43491895799525,136.92635458300356,136.93229966599029,,,,,,,,,,,,,,,,,,,,,,,,,,,,,,sub-093,1,random_dot,,
left,left,11.0,1.0,5.0,left,1.0,0.4273817500070436,,,,,,5.0,1.0,11.0,0.0,,,,,,,,,136.93229966599029,,,,,,,,,136.926920124999,137.03357695799787,137.83535279099306,137.8273289159988,137.82815379099338,137.83535279099306,137.83535279099306,137.83535279099306,,138.26469108299352,left,1.0,0.4273817500070436,,138.26743920799345,138.27489274999243,138.75820429099258,138.7644747079903,,,,,,,,,,,,,,,,,,,,,,,,,,,,,,sub-093,1,random_dot,,
right,right,12.0,0.0,6.0,left,0.0,0.4150109170004725,,,,,,6.0,0.0,12.0,1.0,,,,,,,,,138.7644747079903,,,,,,,,,138.75877154098998,138.8569414579979,139.65264537499752,139.6461101659952,139.64647145799245,139.65264537499752,139.65264537499752,139.65264537499752,,140.0701102079911,left,0.0,0.4150109170004725,,140.07253433299775,140.08125454100082,140.56733462499687,140.57274383299227,,,,,,,,,,,,,,,,,,,,,,,,,,,,,,sub-093,1,random_dot,,
left,left,13.0,1.0,6.0,left,1.0,0.4235271250072401,,,,,,6.0,1.0,13.0,0.0,,,,,,,,,140.57274383299227,,,,,,,,,140.56767645799846,141.37332324999443,142.175473041003,142.1690793329908,142.16947204100143,142.175473041003,142.175473041003,142.175473041003,,142.6076334160025,left,1.0,0.4235271250072401,,142.60988958299276,142.6146959579928,143.10626495799806,143.11114312500283,,,,,,,,,,,,,,,,,,,,,,,,,,,,,,sub-093,1,random_dot,,
right,right,14.0,0.0,7.0,left,0.0,0.9715986660012276,,,,,,7.0,0.0,14.0,1.0,,,,,,,,,143.11114312500283,,,,,,,,,143.10681470799318,143.45887391599535,144.25431304099038,144.24806225000066,144.24849095799436,144.25431304099038,144.25431304099038,144.25431304099038,,145.23333558299055,left,0.0,0.9715986660012276,,145.23564800000167,145.24242524999136,145.7284565000009,145.74177399999462,,,,,,,,,,,,,,,,,,,,,,,,,,,,,,sub-093,1,random_dot,,
left,left,15.0,1.0,7.0,left,1.0,13.539326250000158,,,,,,7.0,1.0,15.0,0.0,,,,,,,,,145.74177399999462,,,,,,,,,145.72879999999714,146.5421911250014,147.33402424999804,147.3276814580022,147.3281138750026,147.33402424999804,147.33402424999804,147.33402424999804,152.31638833299803,160.87788324999565,left,1.0,13.539326250000158,,160.88155120800366,160.8903164999938,161.3748737499991,161.39397120800277,,,,,,,,,,,,,,,,,,,,,,,,,,,,,,sub-093,1,random_dot,,
right,right,16.0,0.0,8.0,left,0.0,5.638965999998618,,,,,,8.0,0.0,16.0,1.0,,,,,,,,,161.39397120800277,,,,,,,,,161.37524137498986,161.46842545799154,162.27965695799503,162.2724687079899,162.2732809579902,162.27965695799503,162.27965695799503,162.27965695799503,167.266052166,167.9250624159904,left,0.0,5.638965999998618,,167.9280454999971,167.9353719579958,168.4201140410005,168.42481191600382,,,,,,,,,,,,,,,,,,,,,,,,,,,,,,sub-093,1,random_dot,,
left,left,17.0,1.0,8.0,left,1.0,5.592585999998846,,,,,,8.0,1.0,17.0,0.0,,,,,,,,,168.42481191600382,,,,,,,,,168.42048916599015,168.7836045409931,169.5820898749953,169.57551595800032,169.57595187499828,169.5820898749953,169.5820898749953,169.5820898749953,174.5791694579966,175.17809612500423,left,1.0,5.592585999998846,,175.18138083300437,175.18916125000396,175.67341262499394,175.67783091599995,,,,,,,,,,,,,,,,,,,,,,,,,,,,,,sub-093,1,random_dot,,
left,left,18.0,0.0,9.0,left,1.0,5.64946954100742,,,,,,9.0,0.0,18.0,0.0,,,,,,,,,175.67783091599995,,,,,,,,,175.67374695799663,175.77977100000135,176.5800376249972,176.5693497500033,176.56978841600358,176.5800376249972,176.5800376249972,176.5800376249972,181.56562962499447,182.24668983300216,left,1.0,5.64946954100742,,182.24682437499,182.2543259160011,182.74173945799703,182.74531141600164,,,,,,,,,,,,,,,,,,,,,,,,,,,,,,sub-093,1,random_dot,,
right,right,19.0,1.0,9.0,left,0.0,5.4759452089929255,,,,,,9.0,1.0,19.0,1.0,,,,,,,,,182.74531141600164,,,,,,,,,182.742090957996,182.85349641599169,183.64826058299516,183.64166320799268,183.6423589999904,183.64826058299516,183.64826058299516,183.64826058299516,188.6322029159928,189.1388993330038,left,0.0,5.4759452089929255,,189.1424209160032,189.150401040999,189.63908904099665,189.64539879099172,,,,,,,,,,,,,,,,,,,,,,,,,,,,,,sub-093,1,random_dot,,
,,,,,,,,,,,,,,,,,,,,,,,,,,,,,,,,,,,,,,,,,,,,,,,,,,,,189.63921808300077,189.64539879099172,189.64539879099172,196.70189633299012,space,7.05388849999872,,,,,,,,,,,,,,,,,,,,,,,,sub-093,1,random_dot,,
,,,,,,,,,,,,,,,,,,,,,,,,,,,,,,,,,,,,,,,,,,,,,,,,,,,,,,,,,,,196.7020309579966,196.71201429099887,196.71201429099887,198.90009408300105,space,2.172084959005588,,,,,,,,,,,,,,,,,sub-093,1,random_dot,,
right,right,0.0,0.0,0.0,left,0.0,5.806249333007145,,accuracy,space,3.3761138749978272,,,,,,0.0,0.0,0.0,0.0,0.0,0.0,0.0,1.0,202.32516070800196,,,,,,,,,202.3176478329988,202.4246059159923,203.22464670799675,203.2106816250016,203.2111295829964,203.22464670799675,203.22464670799675,203.22464670799675,208.2024295829906,209.03484908299288,,,,,,,,,,,,,,,,,,,,,,,198.9208821249922,198.92984266599524,198.92984266599524,202.3092735829996,space,3.3761138749978272,,left,0.0,5.806249333007145,,,,,,sub-093,1,random_dot,,
left,left,1.0,1.0,0.0,left,1.0,2.9904545830067946,,accuracy,space,3.3761138749978272,,,,,,0.0,0.0,0.0,0.0,0.0,1.0,1.0,0.0,209.04238470799464,,,,,,,,,209.03530333300296,209.38263445800112,210.18250941600127,210.17655333300357,210.1769835409941,210.18250941600127,210.18250941600127,210.18250941600127,,213.1760855409957,,,,,,,,,,,,,,,,,,,,,,,,,,,,,,left,1.0,2.9904545830067946,,,,,,sub-093,1,random_dot,,
left,left,2.0,0.0,1.0,left,1.0,5.392601542000193,,accuracy,space,3.3761138749978272,,,,,,0.0,0.0,0.0,0.0,1.0,0.0,2.0,0.0,213.1826370829949,,,,,,,,,213.17643679099277,214.37630550000176,215.1729252499936,215.16700124999625,215.167413749994,215.1729252499936,215.1729252499936,215.1729252499936,220.15737812498992,220.56988862500293,,,,,,,,,,,,,,,,,,,,,,,,,,,,,,left,1.0,5.392601542000193,,,,,,sub-093,1,random_dot,,
right,right,3.0,1.0,1.0,left,0.0,4.968486208003014,,accuracy,space,3.3761138749978272,,,,,,0.0,0.0,0.0,0.0,1.0,1.0,3.0,1.0,220.57785141599012,,,,,,,,,220.57055341599332,221.77620362499147,222.5776906249957,222.57145545798997,222.57182104099772,222.5776906249957,222.5776906249957,222.5776906249957,,227.55071058300385,,,,,,,,,,,,,,,,,,,,,,,,,,,,,,left,0.0,4.968486208003014,,,,,,sub-093,1,random_dot,,
left,left,4.0,0.0,2.0,left,1.0,4.039758291997714,,accuracy,space,3.3761138749978272,,,,,,0.0,0.0,0.0,0.0,2.0,0.0,4.0,0.0,227.5572099580022,,,,,,,,,227.55102791599347,227.89935112500095,228.7119193749968,228.69041137499156,228.6908015829977,228.7119193749968,228.7119193749968,228.7119193749968,,232.75932908299728,,,,,,,,,,,,,,,,,,,,,,,,,,,,,,left,1.0,4.039758291997714,,,,,,sub-093,1,random_dot,,
right,right,5.0,1.0,2.0,left,0.0,5.401600249999319,,accuracy,space,3.3761138749978272,,,,,,0.0,0.0,0.0,0.0,2.0,1.0,5.0,1.0,232.76363341599065,,,,,,,,,232.75961666599324,233.54791883299183,234.3387320000038,234.33243170799688,234.3328288749908,234.3387320000038,234.3387320000038,234.3387320000038,239.3214669579902,239.7598217909981,,,,,,,,,,,,,,,,,,,,,,,,,,,,,,left,0.0,5.401600249999319,,,,,,sub-093,1,random_dot,,
right,right,6.0,0.0,3.0,right,1.0,5.40524729200115,,accuracy,space,3.3761138749978272,,,,,,0.0,0.0,0.0,0.0,3.0,0.0,6.0,1.0,239.76713816600383,,,,,,,,,239.7603432909964,240.1258247079968,240.9278373330017,240.92139591599695,240.9218239579932,240.9278373330017,240.9278373330017,240.9278373330017,245.911201875002,246.33658379099504,,,,,,,,,,,,,,,,,,,,,,,,,,,,,,right,1.0,5.40524729200115,,,,,,sub-093,1,random_dot,,
left,left,7.0,1.0,3.0,right,0.0,5.568261874999735,,accuracy,space,3.3761138749978272,,,,,,0.0,0.0,0.0,0.0,3.0,1.0,7.0,0.0,246.34421383299923,,,,,,,,,246.33734391599137,246.4443472909916,247.23818420799216,247.2301435830013,247.23054733299068,247.23818420799216,247.23818420799216,247.23818420799216,252.2171577499976,252.8183493749966,,,,,,,,,,,,,,,,,,,,,,,,,,,,,,right,0.0,5.568261874999735,,,,,,sub-093,1,random_dot,,
right,right,8.0,0.0,4.0,right,1.0,4.803723834003904,,accuracy,space,3.3761138749978272,,,,,,0.0,0.0,0.0,0.0,4.0,0.0,8.0,1.0,252.824651582996,,,,,,,,,252.8188772499998,254.01905966599588,254.83568816600015,254.8115278329933,254.811958708,254.83568816600015,254.83568816600015,254.83568816600015,,259.6554977079941,,,,,,,,,,,,,,,,,,,,,,,,,,,,,,right,1.0,4.803723834003904,,,,,,sub-093,1,random_dot,,
left,left,9.0,1.0,4.0,right,0.0,4.4744168749894015,,accuracy,space,3.3761138749978272,,,,,,0.0,0.0,0.0,0.0,4.0,1.0,9.0,0.0,259.6618649579905,,,,,,,,,259.6558462910034,260.8560412499937,261.6560359159921,261.64970995800104,261.6501209999988,261.6560359159921,261.6560359159921,261.6560359159921,,266.1373252499907,,,,,,,,,,,,,,,,,,,,,,,,,,,,,,right,0.0,4.4744168749894015,,,,,,sub-093,1,random_dot,,
right,right,10.0,0.0,5.0,right,1.0,0.9563862500071992,,accuracy,space,3.3761138749978272,,,,,,0.0,0.0,0.0,0.0,5.0,0.0,10.0,1.0,266.1473906659958,,,,,,,,,266.13776666599733,266.95288579099,267.75637341599213,267.749228582994,267.7498671659996,267.75637341599213,267.75637341599213,267.75637341599213,,268.71485037499224,,,,,,,,,,,,,,,,,,,,,,,,,,,,,,right,1.0,0.9563862500071992,,,,,,sub-093,1,random_dot,,
left,left,11.0,1.0,5.0,right,0.0,1.4622864160046447,,accuracy,space,3.3761138749978272,,,,,,0.0,0.0,0.0,0.0,5.0,1.0,11.0,0.0,268.72010612499435,,,,,,,,,268.71517316599784,269.9040977499972,270.69496712500404,270.6895599999989,270.6899693329906,270.69496712500404,270.69496712500404,270.69496712500404,,272.1713088749966,,,,,,,,,,,,,,,,,,,,,,,,,,,,,,right,0.0,1.4622864160046447,,,,,,sub-093,1,random_dot,,
left,left,12.0,0.0,6.0,left,1.0,1.2334998750011437,,accuracy,space,3.3761138749978272,,,,,,0.0,0.0,0.0,0.0,6.0,0.0,12.0,0.0,272.19071650000114,,,,,,,,,272.1717443749949,272.52391541599354,273.3147118329944,273.30791104100354,273.3083389999956,273.3147118329944,273.3147118329944,273.3147118329944,,274.5603680829954,,,,,,,,,,,,,,,,,,,,,,,,,,,,,,left,1.0,1.2334998750011437,,,,,,sub-093,1,random_dot,,
right,right,13.0,1.0,6.0,right,1.0,1.813936708000256,,accuracy,space,3.3761138749978272,,,,,,0.0,0.0,0.0,0.0,6.0,1.0,13.0,1.0,274.56609608299914,,,,,,,,,274.5608717909927,275.7494529999967,276.5437669999956,276.53687999999966,276.5373219579924,276.5437669999956,276.5437669999956,276.5437669999956,,278.36778729099024,,,,,,,,,,,,,,,,,,,,,,,,,,,,,,right,1.0,1.813936708000256,,,,,,sub-093,1,random_dot,,
left,left,14.0,0.0,7.0,left,1.0,1.8945866670110263,,accuracy,space,3.3761138749978272,,,,,,0.0,0.0,0.0,0.0,7.0,0.0,14.0,0.0,278.3742693749955,,,,,,,,,278.3681585000013,279.1610217080015,279.9613209579984,279.9551283750043,279.9555325830006,279.9613209579984,279.9613209579984,279.9613209579984,,281.8590510409995,,,,,,,,,,,,,,,,,,,,,,,,,,,,,,left,1.0,1.8945866670110263,,,,,,sub-093,1,random_dot,,
right,right,15.0,1.0,7.0,left,0.0,0.8297525829984806,,accuracy,space,3.3761138749978272,,,,,,0.0,0.0,0.0,0.0,7.0,1.0,15.0,1.0,281.86561612499645,,,,,,,,,281.8594944999932,283.0588882500015,283.8557041659951,283.84841304099245,283.84926175000146,283.8557041659951,283.8557041659951,283.8557041659951,,284.6991284160031,,,,,,,,,,,,,,,,,,,,,,,,,,,,,,left,0.0,0.8297525829984806,,,,,,sub-093,1,random_dot,,
right,right,16.0,0.0,8.0,left,0.0,0.8430264170019655,,accuracy,space,3.3761138749978272,,,,,,0.0,0.0,0.0,0.0,8.0,0.0,16.0,1.0,284.70343524999043,,,,,,,,,284.69943420799973,285.03634029100067,285.8304712079989,285.82285304099787,285.82347441599995,285.8304712079989,285.8304712079989,285.8304712079989,,286.67989816599584,,,,,,,,,,,,,,,,,,,,,,,,,,,,,,left,0.0,0.8430264170019655,,,,,,sub-093,1,random_dot,,
left,left,17.0,1.0,8.0,left,1.0,0.739508124999702,,accuracy,space,3.3761138749978272,,,,,,0.0,0.0,0.0,0.0,8.0,1.0,17.0,0.0,286.686405415996,,,,,,,,,286.6802037909947,287.0383369159972,287.841074750002,287.83373904100154,287.83451729099033,287.841074750002,287.841074750002,287.841074750002,,288.585348624998,,,,,,,,,,,,,,,,,,,,,,,,,,,,,,left,1.0,0.739508124999702,,,,,,sub-093,1,random_dot,,
left,left,18.0,0.0,9.0,left,1.0,1.0749583329888992,,accuracy,space,3.3761138749978272,,,,,,0.0,0.0,0.0,0.0,9.0,0.0,18.0,0.0,288.5913807909965,,,,,,,,,288.5857284579979,288.699400707992,289.498837207997,289.49261354099144,289.4929662499926,289.498837207997,289.498837207997,289.498837207997,,290.57851995799865,,,,,,,,,,,,,,,,,,,,,,,,,,,,,,left,1.0,1.0749583329888992,,,,,,sub-093,1,random_dot,,
right,right,19.0,1.0,9.0,left,0.0,0.7173466249951161,,accuracy,space,3.3761138749978272,,,,,,0.0,0.0,0.0,0.0,9.0,1.0,19.0,1.0,290.5903800829983,,,,,,,,,290.5788670829934,291.3770511250041,292.1692757080018,292.1623482080031,292.16270649999205,292.1692757080018,292.1692757080018,292.1692757080018,,292.88844587499625,,,,,,,,,,,,,,,,,,,,,,,,,,,,,,left,0.0,0.7173466249951161,,,,,,sub-093,1,random_dot,,
right,right,20.0,0.0,10.0,left,0.0,0.9184882499976084,,accuracy,space,3.3761138749978272,,,,,,0.0,0.0,0.0,0.0,10.0,0.0,20.0,1.0,292.89503512499505,,,,,,,,,292.8888185410033,293.6913484160032,294.49116812499415,294.4849890829937,294.48541241599014,294.49116812499415,294.49116812499415,294.49116812499415,,295.4174883329979,,,,,,,,,,,,,,,,,,,,,,,,,,,,,,left,0.0,0.9184882499976084,,,,,,sub-093,1,random_dot,,
left,left,21.0,1.0,10.0,left,1.0,3.640468540994334,,accuracy,space,3.3761138749978272,,,,,,0.0,0.0,0.0,0.0,10.0,1.0,21.0,0.0,295.42381133299205,,,,,,,,,295.41786216599576,295.5059019999899,296.3154868749989,296.3089614579949,296.30967699999746,296.3154868749989,296.3154868749989,296.3154868749989,,299.95882479099964,,,,,,,,,,,,,,,,,,,,,,,,,,,,,,left,1.0,3.640468540994334,,,,,,sub-093,1,random_dot,,
right,right,22.0,0.0,11.0,left,0.0,1.2525399590085726,,accuracy,space,3.3761138749978272,,,,,,0.0,0.0,0.0,0.0,11.0,0.0,22.0,1.0,299.9650047500036,,,,,,,,,299.95924899999227,300.30678258299304,301.1079900409968,301.101228790998,301.1016753750009,301.1079900409968,301.1079900409968,301.1079900409968,,302.3631597079948,,,,,,,,,,,,,,,,,,,,,,,,,,,,,,left,0.0,1.2525399590085726,,,,,,sub-093,1,random_dot,,
left,left,23.0,1.0,11.0,right,0.0,1.6779475410003215,,accuracy,space,3.3761138749978272,,,,,,0.0,0.0,0.0,0.0,11.0,1.0,23.0,0.0,302.3741968329996,,,,,,,,,302.3634698329988,303.56936024999595,304.36973595799645,304.3562447500008,304.35662199999206,304.36973595799645,304.36973595799645,304.36973595799645,,306.0504036249913,,,,,,,,,,,,,,,,,,,,,,,,,,,,,,right,0.0,1.6779475410003215,,,,,,sub-093,1,random_dot,,
right,right,24.0,0.0,12.0,right,1.0,1.2893814999988535,,accuracy,space,3.3761138749978272,,,,,,0.0,0.0,0.0,0.0,12.0,0.0,24.0,1.0,306.0554479999992,,,,,,,,,306.05062237499806,306.8566867909976,307.65768166599446,307.6519557909924,307.6523757499963,307.65768166599446,307.65768166599446,307.65768166599446,,308.9598091249936,,,,,,,,,,,,,,,,,,,,,,,,,,,,,,right,1.0,1.2893814999988535,,,,,,sub-093,1,random_dot,,
left,left,25.0,1.0,12.0,right,0.0,5.5710282910004025,,accuracy,space,3.3761138749978272,,,,,,0.0,0.0,0.0,0.0,12.0,1.0,25.0,0.0,308.9654802909936,,,,,,,,,308.9603152079944,309.7572879579966,310.55847983299464,310.5518409579963,310.5522550829919,310.55847983299464,310.55847983299464,310.55847983299464,315.53979629099194,316.1420272499963,,,,,,,,,,,,,,,,,,,,,,,,,,,,,,right,0.0,5.5710282910004025,,,,,,sub-093,1,random_dot,,
left,left,26.0,0.0,13.0,right,0.0,1.3957669170049485,,accuracy,space,3.3761138749978272,,,,,,0.0,0.0,0.0,0.0,13.0,0.0,26.0,0.0,316.1495636250038,,,,,,,,,316.142685208004,316.4913577499974,317.2873472499923,317.27989766599785,317.28030816599494,317.2873472499923,317.2873472499923,317.2873472499923,,318.687120290997,,,,,,,,,,,,,,,,,,,,,,,,,,,,,,right,0.0,1.3957669170049485,,,,,,sub-093,1,random_dot,,
right,right,27.0,1.0,13.0,right,1.0,0.8166170839976985,,accuracy,space,3.3761138749978272,,,,,,0.0,0.0,0.0,0.0,13.0,1.0,27.0,1.0,318.69387350000034,,,,,,,,,318.68749616599234,319.8902847909921,320.6883059999964,320.6821371249971,320.682530791004,320.6883059999964,320.6883059999964,320.6883059999964,,321.5260330000019,,,,,,,,,,,,,,,,,,,,,,,,,,,,,,right,1.0,0.8166170839976985,,,,,,sub-093,1,random_dot,,
left,left,28.0,0.0,14.0,left,1.0,2.2851925419963663,,accuracy,space,3.3761138749978272,,,,,,0.0,0.0,0.0,0.0,14.0,0.0,28.0,0.0,321.5328309159959,,,,,,,,,321.5264639160014,322.73230641600094,323.5358644579974,323.5277416659956,323.5284147499915,323.5358644579974,323.5358644579974,323.5358644579974,,325.8230628329911,,,,,,,,,,,,,,,,,,,,,,,,,,,,,,left,1.0,2.2851925419963663,,,,,,sub-093,1,random_dot,,
right,right,29.0,1.0,14.0,right,1.0,0.9433770829928108,,accuracy,space,3.3761138749978272,,,,,,0.0,0.0,0.0,0.0,14.0,1.0,29.0,1.0,325.8372566659964,,,,,,,,,325.82335295800294,326.1654908329947,326.9664639160037,326.9594784999936,326.9598919580021,326.9664639160037,326.9664639160037,326.9664639160037,,327.91471899999306,,,,,,,,,,,,,,,,,,,,,,,,,,,,,,right,1.0,0.9433770829928108,,,,,,sub-093,1,random_dot,,
left,left,30.0,0.0,15.0,right,0.0,1.1020267499989131,,accuracy,space,3.3761138749978272,,,,,,0.0,0.0,0.0,0.0,15.0,0.0,30.0,0.0,327.9212346659915,,,,,,,,,327.9150379579951,328.0241475829971,328.8157111250039,328.8072884580033,328.80770320800366,328.8157111250039,328.8157111250039,328.8157111250039,,329.9204222499975,,,,,,,,,,,,,,,,,,,,,,,,,,,,,,right,0.0,1.1020267499989131,,,,,,sub-093,1,random_dot,,
right,right,31.0,1.0,15.0,right,1.0,1.423404874993139,,accuracy,space,3.3761138749978272,,,,,,0.0,0.0,0.0,0.0,15.0,1.0,31.0,1.0,329.9278254160017,,,,,,,,,329.9207874999993,330.28678170799685,331.09370683299494,331.0871566249989,331.08783137499995,331.09370683299494,331.09370683299494,331.09370683299494,,332.52565570799925,,,,,,,,,,,,,,,,,,,,,,,,,,,,,,right,1.0,1.423404874993139,,,,,,sub-093,1,random_dot,,
right,right,32.0,0.0,16.0,right,1.0,5.578873125006794,,accuracy,space,3.3761138749978272,,,,,,0.0,0.0,0.0,0.0,16.0,0.0,32.0,1.0,332.53222354099853,,,,,,,,,332.52603799999633,332.6147024160018,333.41464804099815,333.4042138329969,333.4045781659952,333.41464804099815,333.41464804099815,333.41464804099815,338.3979699999909,339.0131013749924,,,,,,,,,,,,,,,,,,,,,,,,,,,,,,right,1.0,5.578873125006794,,,,,,sub-093,1,random_dot,,
left,left,33.0,1.0,16.0,left,1.0,4.696271541004535,,accuracy,space,3.3761138749978272,,,,,,0.0,0.0,0.0,0.0,16.0,1.0,33.0,0.0,339.02096333299414,,,,,,,,,339.01377845800016,339.35127945800195,340.1486942499905,340.13609099999303,340.136463582996,340.1486942499905,340.1486942499905,340.1486942499905,,344.8518004159996,,,,,,,,,,,,,,,,,,,,,,,,,,,,,,left,1.0,4.696271541004535,,,,,,sub-093,1,random_dot,,
left,left,34.0,0.0,17.0,right,0.0,3.329264999993029,,accuracy,space,3.3761138749978272,,,,,,0.0,0.0,0.0,0.0,17.0,0.0,34.0,0.0,344.85825241600105,,,,,,,,,344.852116790993,346.0460448329977,346.8478975409962,346.84051570799784,346.84149925000384,346.8478975409962,346.8478975409962,346.8478975409962,,350.1892090409965,,,,,,,,,,,,,,,,,,,,,,,,,,,,,,right,0.0,3.329264999993029,,,,,,sub-093,1,random_dot,,
right,right,35.0,1.0,17.0,left,0.0,2.32806304100086,,accuracy,space,3.3761138749978272,,,,,,0.0,0.0,0.0,0.0,17.0,1.0,35.0,1.0,350.19420025,,,,,,,,,350.1896189580002,350.27682362499763,351.0808262079954,351.07285137499275,351.07394862499496,351.0808262079954,351.0808262079954,351.0808262079954,,353.4128177499952,,,,,,,,,,,,,,,,,,,,,,,,,,,,,,left,0.0,2.32806304100086,,,,,,sub-093,1,random_dot,,
left,left,36.0,0.0,18.0,right,0.0,1.864020667009754,,accuracy,space,3.3761138749978272,,,,,,0.0,0.0,0.0,0.0,18.0,0.0,36.0,0.0,353.42496499999834,,,,,,,,,353.4130978329922,353.51062775000173,354.31007137500274,354.2955591659993,354.2959626660013,354.31007137500274,354.31007137500274,354.31007137500274,,356.177929707992,,,,,,,,,,,,,,,,,,,,,,,,,,,,,,right,0.0,1.864020667009754,,,,,,sub-093,1,random_dot,,
right,right,37.0,1.0,18.0,right,1.0,1.2220740420016227,,accuracy,space,3.3761138749978272,,,,,,0.0,0.0,0.0,0.0,18.0,1.0,37.0,1.0,356.1822624579945,,,,,,,,,356.1782028329908,356.2645422909991,357.06806304099155,357.06142787499994,357.06183654099004,357.06806304099155,357.06806304099155,357.06806304099155,,358.2941392079956,,,,,,,,,,,,,,,,,,,,,,,,,,,,,,right,1.0,1.2220740420016227,,,,,,sub-093,1,random_dot,,
right,right,38.0,0.0,19.0,right,1.0,0.9875653329945636,,accuracy,space,3.3761138749978272,,,,,,0.0,0.0,0.0,0.0,19.0,0.0,38.0,1.0,358.3039417079999,,,,,,,,,358.2944369159959,358.39015904099506,359.1799777499982,359.1737173750007,359.1742216249986,359.1799777499982,359.1799777499982,359.1799777499982,,360.1720347910013,,,,,,,,,,,,,,,,,,,,,,,,,,,,,,right,1.0,0.9875653329945636,,,,,,sub-093,1,random_dot,,
left,left,39.0,1.0,19.0,right,0.0,0.708888916997239,,accuracy,space,3.3761138749978272,,,,,,0.0,0.0,0.0,0.0,19.0,1.0,39.0,0.0,360.17842587499763,,,,,,,,,360.1723435409949,360.5242938329902,361.3163021660002,361.3096178330016,361.3100588329981,361.3163021660002,361.3163021660002,361.3163021660002,,362.0268384999945,,,,,,,,,,,,,,,,,,,,,,,,,,,,,,right,0.0,0.708888916997239,,,,,,sub-093,1,random_dot,,
right,right,40.0,0.0,20.0,right,1.0,0.7094347090023803,,accuracy,space,3.3761138749978272,,,,,,0.0,0.0,0.0,0.0,20.0,0.0,40.0,1.0,362.03795566599,,,,,,,,,362.02715233300114,362.1230228329951,362.9377867909934,362.91471924999496,362.9151338329975,362.9377867909934,362.9377867909934,362.9377867909934,,363.6514239579992,,,,,,,,,,,,,,,,,,,,,,,,,,,,,,right,1.0,0.7094347090023803,,,,,,sub-093,1,random_dot,,
left,left,41.0,1.0,20.0,left,1.0,0.7819141669897363,,accuracy,space,3.3761138749978272,,,,,,0.0,0.0,0.0,0.0,20.0,1.0,41.0,0.0,363.6576864160015,,,,,,,,,363.65169966599206,363.739590415993,364.5303022080043,364.5231290829979,364.5238916660019,364.5303022080043,364.5303022080043,364.5303022080043,,365.3179441249959,,,,,,,,,,,,,,,,,,,,,,,,,,,,,,left,1.0,0.7819141669897363,,,,,,sub-093,1,random_dot,,
right,right,42.0,0.0,21.0,right,1.0,3.054466000001412,,accuracy,space,3.3761138749978272,,,,,,0.0,0.0,0.0,0.0,21.0,0.0,42.0,1.0,365.3245621660026,,,,,,,,,365.3183509160008,366.1346768749936,366.9331983329903,366.9195170409948,366.9198603330005,366.9331983329903,366.9331983329903,366.9331983329903,,369.9962852079916,,,,,,,,,,,,,,,,,,,,,,,,,,,,,,right,1.0,3.054466000001412,,,,,,sub-093,1,random_dot,,
left,left,43.0,1.0,21.0,left,1.0,2.3039728330040816,,accuracy,space,3.3761138749978272,,,,,,0.0,0.0,0.0,0.0,21.0,1.0,43.0,0.0,370.00537345799967,,,,,,,,,369.996646457992,371.1959445829998,371.99005158299406,371.983637790996,371.9840712909936,371.99005158299406,371.99005158299406,371.99005158299406,,374.2976819159958,,,,,,,,,,,,,,,,,,,,,,,,,,,,,,left,1.0,2.3039728330040816,,,,,,sub-093,1,random_dot,,
left,left,44.0,0.0,22.0,right,0.0,1.3115685829980066,,accuracy,space,3.3761138749978272,,,,,,0.0,0.0,0.0,0.0,22.0,0.0,44.0,0.0,374.30394749999687,,,,,,,,,374.2979534999904,375.10407449999184,375.8934953749995,375.8870660829998,375.8875174159912,375.8934953749995,375.8934953749995,375.8934953749995,,377.2077668749989,,,,,,,,,,,,,,,,,,,,,,,,,,,,,,right,0.0,1.3115685829980066,,,,,,sub-093,1,random_dot,,
right,right,45.0,1.0,22.0,right,1.0,1.1979873329983093,,accuracy,space,3.3761138749978272,,,,,,0.0,0.0,0.0,0.0,22.0,1.0,45.0,1.0,377.2149823329965,,,,,,,,,377.20818091600086,378.39965379099885,379.2036044999986,379.1967299160024,379.19715087499935,379.2036044999986,379.2036044999986,379.2036044999986,,380.4136660829972,,,,,,,,,,,,,,,,,,,,,,,,,,,,,,right,1.0,1.1979873329983093,,,,,,sub-093,1,random_dot,,
left,left,46.0,0.0,23.0,left,1.0,1.0771236659929857,,accuracy,space,3.3761138749978272,,,,,,0.0,0.0,0.0,0.0,23.0,0.0,46.0,0.0,380.4195284159941,,,,,,,,,380.4140751249943,381.20253833300376,381.9950203749904,381.9877214579901,381.9881563329982,381.9950203749904,381.9950203749904,381.9950203749904,,383.0791532909934,,,,,,,,,,,,,,,,,,,,,,,,,,,,,,left,1.0,1.0771236659929857,,,,,,sub-093,1,random_dot,,
right,right,47.0,1.0,23.0,left,0.0,2.617717583998456,,accuracy,space,3.3761138749978272,,,,,,0.0,0.0,0.0,0.0,23.0,1.0,47.0,1.0,383.0853192909999,,,,,,,,,383.0796489579952,383.8886236660037,384.6875739579991,384.6732843749924,384.6736284579965,384.6875739579991,384.6875739579991,384.6875739579991,,387.308145707997,,,,,,,,,,,,,,,,,,,,,,,,,,,,,,left,0.0,2.617717583998456,,,,,,sub-093,1,random_dot,,
right,right,48.0,0.0,24.0,right,1.0,1.475279167003464,,accuracy,space,3.3761138749978272,,,,,,0.0,0.0,0.0,0.0,24.0,0.0,48.0,1.0,387.3198934999964,,,,,,,,,387.3084732499992,387.6496261249995,388.4383748330001,388.4326052499964,388.4329485409981,388.4383748330001,388.4383748330001,388.4383748330001,,389.9304021249991,,,,,,,,,,,,,,,,,,,,,,,,,,,,,,right,1.0,1.475279167003464,,,,,,sub-093,1,random_dot,,
left,left,49.0,1.0,24.0,right,0.0,2.0571414589940105,,accuracy,space,3.3761138749978272,,,,,,0.0,0.0,0.0,0.0,24.0,1.0,49.0,0.0,389.9369772499922,,,,,,,,,389.93072704099177,390.2756171660003,391.070008374998,391.0628556250013,391.06330495799193,391.070008374998,391.070008374998,391.070008374998,,393.1307608749921,,,,,,,,,,,,,,,,,,,,,,,,,,,,,,right,0.0,2.0571414589940105,,,,,,sub-093,1,random_dot,,
right,right,50.0,0.0,25.0,left,0.0,5.715839625001536,,accuracy,space,3.3761138749978272,,,,,,0.0,0.0,0.0,0.0,25.0,0.0,50.0,1.0,393.14601866599696,,,,,,,,,393.1310297909949,393.9393072499952,394.7316958329902,394.7246162079973,394.7249913749984,394.7316958329902,394.7316958329902,394.7316958329902,399.71199708299537,400.45163870799297,,,,,,,,,,,,,,,,,,,,,,,,,,,,,,left,0.0,5.715839625001536,,,,,,sub-093,1,random_dot,,
left,left,51.0,1.0,25.0,left,1.0,5.656427291003638,,accuracy,space,3.3761138749978272,,,,,,0.0,0.0,0.0,0.0,25.0,1.0,51.0,0.0,400.4615455409949,,,,,,,,,400.45214933299576,400.54250508299447,401.3485390830028,401.3420837909944,401.3424775829917,401.3485390830028,401.3485390830028,401.3485390830028,406.3400149160007,407.009793499994,,,,,,,,,,,,,,,,,,,,,,,,,,,,,,left,1.0,5.656427291003638,,,,,,sub-093,1,random_dot,,
right,right,52.0,0.0,26.0,right,1.0,4.306607083010022,,accuracy,space,3.3761138749978272,,,,,,0.0,0.0,0.0,0.0,26.0,0.0,52.0,1.0,407.0166448329983,,,,,,,,,407.0101656249899,407.1024127499986,407.91247904099873,407.8910296660033,407.8913888329989,407.91247904099873,407.91247904099873,407.91247904099873,,412.2210109159933,,,,,,,,,,,,,,,,,,,,,,,,,,,,,,right,1.0,4.306607083010022,,,,,,sub-093,1,random_dot,,
left,left,53.0,1.0,26.0,left,1.0,2.552447374997428,,accuracy,space,3.3761138749978272,,,,,,0.0,0.0,0.0,0.0,26.0,1.0,53.0,0.0,412.22740508300194,,,,,,,,,412.22134124999866,412.3109938749985,413.107218707999,413.10048879099486,413.1009066249972,413.107218707999,413.107218707999,413.107218707999,,415.6670202910027,,,,,,,,,,,,,,,,,,,,,,,,,,,,,,left,1.0,2.552447374997428,,,,,,sub-093,1,random_dot,,
left,left,54.0,0.0,27.0,right,0.0,2.4444887499994365,,accuracy,space,3.3761138749978272,,,,,,0.0,0.0,0.0,0.0,27.0,0.0,54.0,0.0,415.6762503749924,,,,,,,,,415.6673045829957,415.7625088749919,416.5677621659997,416.5619719999959,416.562335249997,416.5677621659997,416.5677621659997,416.5677621659997,,419.0233223749965,,,,,,,,,,,,,,,,,,,,,,,,,,,,,,right,0.0,2.4444887499994365,,,,,,sub-093,1,random_dot,,
right,right,55.0,1.0,27.0,left,0.0,3.1406570830004057,,accuracy,space,3.3761138749978272,,,,,,0.0,0.0,0.0,0.0,27.0,1.0,55.0,1.0,419.0301386249921,,,,,,,,,419.0237390830007,419.1205969159928,419.9201874159917,419.90634108299855,419.9067460410006,419.9201874159917,419.9201874159917,419.9201874159917,,423.0633194999973,,,,,,,,,,,,,,,,,,,,,,,,,,,,,,left,0.0,3.1406570830004057,,,,,,sub-093,1,random_dot,,
left,left,56.0,0.0,28.0,right,0.0,1.9163711669971235,,accuracy,space,3.3761138749978272,,,,,,0.0,0.0,0.0,0.0,28.0,0.0,56.0,0.0,423.0695258329943,,,,,,,,,423.0636940830009,423.4161433749978,424.2279133330012,424.22015058300167,424.2207824159996,424.2279133330012,424.2279133330012,424.2279133330012,,426.1488170410012,,,,,,,,,,,,,,,,,,,,,,,,,,,,,,right,0.0,1.9163711669971235,,,,,,sub-093,1,random_dot,,
right,right,57.0,1.0,28.0,right,1.0,1.182339958002558,,accuracy,space,3.3761138749978272,,,,,,0.0,0.0,0.0,0.0,28.0,1.0,57.0,1.0,426.1587385829917,,,,,,,,,426.1491619159933,426.2444370000012,427.0452572499926,427.0390418329917,427.03943424999306,427.0452572499926,427.0452572499926,427.0452572499926,,428.23060237499885,,,,,,,,,,,,,,,,,,,,,,,,,,,,,,right,1.0,1.182339958002558,,,,,,sub-093,1,random_dot,,
left,left,58.0,0.0,29.0,left,1.0,1.915448917003232,,accuracy,space,3.3761138749978272,,,,,,0.0,0.0,0.0,0.0,29.0,0.0,58.0,0.0,428.23686270799953,,,,,,,,,428.23102995799854,429.4201686659944,430.23705633300415,430.2163569580007,430.21671916599735,430.23705633300415,430.23705633300415,430.23705633300415,,432.1575541659986,,,,,,,,,,,,,,,,,,,,,,,,,,,,,,left,1.0,1.915448917003232,,,,,,sub-093,1,random_dot,,
right,right,59.0,1.0,29.0,left,0.0,5.383366374997422,,accuracy,space,3.3761138749978272,,,,,,0.0,0.0,0.0,0.0,29.0,1.0,59.0,1.0,432.1631156249932,,,,,,,,,432.1578192500019,432.25770812499104,433.0504986659944,433.0439468330005,433.0443629579968,433.0504986659944,433.0504986659944,433.0504986659944,438.03350958299416,438.45076479099225,,,,,,,,,,,,,,,,,,,,,,,,,,,,,,left,0.0,5.383366374997422,,,,,,sub-093,1,random_dot,,
,,0.0,0.0,0.0,,,,,accuracy,space,3.3761138749978272,,,,,,0.0,0.0,0.0,0.0,,,,,,,,,,,,,,,,,,,,,,,,,,,,,,,,,,,,,,,,,,,,,,,,,,,,,,,,,,,,,sub-093,1,random_dot,,
left,left,0.0,0.0,0.0,left,1.0,2.62343000000692,,speed,space,5.655300917002023,,,,,,0.0,1.0,1.0,1.0,0.0,0.0,0.0,0.0,444.15345099999104,,,,,,,,,444.14516050000384,444.4873430829903,445.2776642079989,445.2702533330012,445.2707034999912,445.2776642079989,445.2776642079989,445.2776642079989,,447.90379562499584,,,,,,,,,,,,,,,,,,,,,,,438.4645569999993,438.4718701249949,438.4718701249949,444.13783041600254,space,5.655300917002023,,left,1.0,2.62343000000692,,,,,,sub-093,1,random_dot,,
right,right,1.0,1.0,0.0,right,1.0,1.4697925420041429,,speed,space,5.655300917002023,,,,,,0.0,1.0,1.0,1.0,0.0,1.0,1.0,1.0,447.9146857079904,,,,,,,,,447.9041812079959,448.2538650409988,449.0489447909931,449.0420308750036,449.0423984160007,449.0489447909931,449.0489447909931,449.0489447909931,,450.5216466659913,,,,,,,,,,,,,,,,,,,,,,,,,,,,,,right,1.0,1.4697925420041429,,,,,,sub-093,1,random_dot,,
left,left,2.0,0.0,1.0,left,1.0,1.361985083000036,,speed,space,5.655300917002023,,,,,,0.0,1.0,1.0,1.0,1.0,0.0,2.0,0.0,450.5282060000027,,,,,,,,,450.52199641599145,451.3080915829924,452.0987676249933,452.0915835829946,452.0920036659954,452.0987676249933,452.0987676249933,452.0987676249933,,453.4687529160001,,,,,,,,,,,,,,,,,,,,,,,,,,,,,,left,1.0,1.361985083000036,,,,,,sub-093,1,random_dot,,
right,right,3.0,1.0,1.0,right,1.0,0.9973420000023908,,speed,space,5.655300917002023,,,,,,0.0,1.0,1.0,1.0,1.0,1.0,3.0,1.0,453.475266458001,,,,,,,,,453.4690595830034,454.2570232080034,455.0626539160003,455.0563449159963,455.0567624999967,455.0626539160003,455.0626539160003,455.0626539160003,,456.06412070800434,,,,,,,,,,,,,,,,,,,,,,,,,,,,,,right,1.0,0.9973420000023908,,,,,,sub-093,1,random_dot,,
right,right,4.0,0.0,2.0,right,1.0,0.7026338750001742,,speed,space,5.655300917002023,,,,,,0.0,1.0,1.0,1.0,2.0,0.0,4.0,1.0,456.0763529579999,,,,,,,,,456.0643913329986,457.2707371659926,458.062496707993,458.0554169579991,458.0560276659962,458.062496707993,458.062496707993,458.062496707993,,458.7769957499986,,,,,,,,,,,,,,,,,,,,,,,,,,,,,,right,1.0,0.7026338750001742,,,,,,sub-093,1,random_dot,,
left,left,5.0,1.0,2.0,left,1.0,1.0840217920049326,,speed,space,5.655300917002023,,,,,,0.0,1.0,1.0,1.0,2.0,1.0,5.0,0.0,458.7830619159941,,,,,,,,,458.7773952499992,459.9750903749955,460.7647333749919,460.7588429579919,460.7591802499956,460.7647333749919,460.7647333749919,460.7647333749919,,461.8555064579996,,,,,,,,,,,,,,,,,,,,,,,,,,,,,,left,1.0,1.0840217920049326,,,,,,sub-093,1,random_dot,,
left,left,6.0,0.0,3.0,left,1.0,0.9509116660046856,,speed,space,5.655300917002023,,,,,,0.0,1.0,1.0,1.0,3.0,0.0,6.0,0.0,461.86139874999935,,,,,,,,,461.855889915998,462.66015470799175,463.4629636659956,463.4469662909978,463.44740395799454,463.4629636659956,463.4629636659956,463.4629636659956,,464.426630832997,,,,,,,,,,,,,,,,,,,,,,,,,,,,,,left,1.0,0.9509116660046856,,,,,,sub-093,1,random_dot,,
right,right,7.0,1.0,3.0,right,1.0,1.1169757500028936,,speed,space,5.655300917002023,,,,,,0.0,1.0,1.0,1.0,3.0,1.0,7.0,1.0,464.4325650829997,,,,,,,,,464.4270315000031,464.7873850829928,465.5765823749971,465.5705387909984,465.5709326659999,465.5765823749971,465.5765823749971,465.5765823749971,,466.7088877909992,,,,,,,,,,,,,,,,,,,,,,,,,,,,,,right,1.0,1.1169757500028936,,,,,,sub-093,1,random_dot,,
left,left,8.0,0.0,4.0,right,0.0,0.7763032499933615,,speed,space,5.655300917002023,,,,,,0.0,1.0,1.0,1.0,4.0,0.0,8.0,0.0,466.7157667499996,,,,,,,,,466.70928970800014,466.79814133299806,467.5908656249958,467.584854582994,467.585283249995,467.5908656249958,467.5908656249958,467.5908656249958,,468.3689898750017,,,,,,,,,,,,,,,,,,,,,,,,,,,,,,right,0.0,0.7763032499933615,,,,,,sub-093,1,random_dot,,
right,right,9.0,1.0,4.0,right,1.0,1.166063999990001,,speed,space,5.655300917002023,,,,,,0.0,1.0,1.0,1.0,4.0,1.0,9.0,1.0,468.3758365410031,,,,,,,,,468.3694824999984,469.5652877079992,470.36593795799126,470.35892766599136,470.35937183299393,470.36593795799126,470.36593795799126,470.36593795799126,,471.5364301660011,,,,,,,,,,,,,,,,,,,,,,,,,,,,,,right,1.0,1.166063999990001,,,,,,sub-093,1,random_dot,,
right,right,10.0,0.0,5.0,right,1.0,0.7592837079864694,,speed,space,5.655300917002023,,,,,,0.0,1.0,1.0,1.0,5.0,0.0,10.0,1.0,471.542250582992,,,,,,,,,471.5367312500021,472.7280823329929,473.529251874992,473.5153364580037,473.5156891660008,473.529251874992,473.529251874992,473.529251874992,,474.297070332992,,,,,,,,,,,,,,,,,,,,,,,,,,,,,,right,1.0,0.7592837079864694,,,,,,sub-093,1,random_dot,,
left,left,11.0,1.0,5.0,left,1.0,1.077963917006855,,speed,space,5.655300917002023,,,,,,0.0,1.0,1.0,1.0,5.0,1.0,11.0,0.0,474.3074617499951,,,,,,,,,474.2973520829983,475.1060617079929,475.9118707909947,475.905349875,475.9057694160001,475.9118707909947,475.9118707909947,475.9118707909947,,477.0032970829925,,,,,,,,,,,,,,,,,,,,,,,,,,,,,,left,1.0,1.077963917006855,,,,,,sub-093,1,random_dot,,
right,right,12.0,0.0,6.0,left,0.0,0.7487565000046743,,speed,space,5.655300917002023,,,,,,0.0,1.0,1.0,1.0,6.0,0.0,12.0,1.0,477.0070747909922,,,,,,,,,477.0035841249919,477.799021999992,478.61002812499646,478.6027865829965,478.6035038749978,478.61002812499646,478.61002812499646,478.61002812499646,,479.3609491249954,,,,,,,,,,,,,,,,,,,,,,,,,,,,,,left,0.0,0.7487565000046743,,,,,,sub-093,1,random_dot,,
left,left,13.0,1.0,6.0,left,1.0,0.954213625009288,,speed,space,5.655300917002023,,,,,,0.0,1.0,1.0,1.0,6.0,1.0,13.0,0.0,479.36639216599,,,,,,,,,479.36123241599125,479.7082122909924,480.5022404999909,480.4957111249969,480.496089207998,480.5022404999909,480.5022404999909,480.5022404999909,,481.4586689159914,,,,,,,,,,,,,,,,,,,,,,,,,,,,,,left,1.0,0.954213625009288,,,,,,sub-093,1,random_dot,,
right,right,14.0,0.0,7.0,right,1.0,0.9823246250016382,,speed,space,5.655300917002023,,,,,,0.0,1.0,1.0,1.0,7.0,0.0,14.0,1.0,481.4655149159953,,,,,,,,,481.4589662079961,481.8244112499961,482.620355291001,482.607460040992,482.6078212909924,482.620355291001,482.620355291001,482.620355291001,,483.606670166002,,,,,,,,,,,,,,,,,,,,,,,,,,,,,,right,1.0,0.9823246250016382,,,,,,sub-093,1,random_dot,,
left,left,15.0,1.0,7.0,right,0.0,1.4532596659992123,,speed,space,5.655300917002023,,,,,,0.0,1.0,1.0,1.0,7.0,1.0,15.0,0.0,483.6131902909983,,,,,,,,,483.60697645800246,484.4075116659951,485.2238252499956,485.2020646659949,485.2024695,485.2238252499956,485.2238252499956,485.2238252499956,,486.6846921660035,,,,,,,,,,,,,,,,,,,,,,,,,,,,,,right,0.0,1.4532596659992123,,,,,,sub-093,1,random_dot,,
right,right,16.0,0.0,8.0,right,1.0,1.0993758749973497,,speed,space,5.655300917002023,,,,,,0.0,1.0,1.0,1.0,8.0,0.0,16.0,1.0,486.6911134160037,,,,,,,,,486.6850449999911,487.4738887909916,488.2741015829961,488.2672511659912,488.2677099159919,488.2741015829961,488.2741015829961,488.2741015829961,,489.3764852909953,,,,,,,,,,,,,,,,,,,,,,,,,,,,,,right,1.0,1.0993758749973497,,,,,,sub-093,1,random_dot,,
left,left,17.0,1.0,8.0,right,0.0,1.4007428329932736,,speed,space,5.655300917002023,,,,,,0.0,1.0,1.0,1.0,8.0,1.0,17.0,0.0,489.3830617499916,,,,,,,,,489.37679675000254,490.165309707998,490.9613254159922,490.952718332992,490.9534194579901,490.9613254159922,490.9613254159922,490.9613254159922,,492.3667179579934,,,,,,,,,,,,,,,,,,,,,,,,,,,,,,right,0.0,1.4007428329932736,,,,,,sub-093,1,random_dot,,
right,right,18.0,0.0,9.0,left,0.0,1.2269957079988671,,speed,space,5.655300917002023,,,,,,0.0,1.0,1.0,1.0,9.0,0.0,18.0,1.0,492.3734362499963,,,,,,,,,492.3670946659986,493.57070662500337,494.3666974160005,494.35672845799127,494.35715991599136,494.3666974160005,494.3666974160005,494.3666974160005,,495.5956508329982,,,,,,,,,,,,,,,,,,,,,,,,,,,,,,left,0.0,1.2269957079988671,,,,,,sub-093,1,random_dot,,
left,left,19.0,1.0,9.0,right,0.0,1.0531006669916678,,speed,space,5.655300917002023,,,,,,0.0,1.0,1.0,1.0,9.0,1.0,19.0,0.0,495.60816145800345,,,,,,,,,495.5961268749961,495.6951239579939,496.4945842909947,496.4834275829926,496.4838771659997,496.4945842909947,496.4945842909947,496.4945842909947,,497.5495768330002,,,,,,,,,,,,,,,,,,,,,,,,,,,,,,right,0.0,1.0531006669916678,,,,,,sub-093,1,random_dot,,
left,left,20.0,0.0,10.0,right,0.0,0.7244640829885611,,speed,space,5.655300917002023,,,,,,0.0,1.0,1.0,1.0,10.0,0.0,20.0,0.0,497.5568687499908,,,,,,,,,497.5499972910038,498.3391991660028,499.1477538329928,499.123855333004,499.1243249580002,499.1477538329928,499.1477538329928,499.1477538329928,,499.87978541599296,,,,,,,,,,,,,,,,,,,,,,,,,,,,,,right,0.0,0.7244640829885611,,,,,,sub-093,1,random_dot,,
right,right,21.0,1.0,10.0,right,1.0,0.702015916001983,,speed,space,5.655300917002023,,,,,,0.0,1.0,1.0,1.0,10.0,1.0,21.0,1.0,499.8879240829992,,,,,,,,,499.8800986659917,499.9747797079908,500.7699266659911,500.7622914579988,500.7626893749984,500.7699266659911,500.7699266659911,500.7699266659911,,501.473934833004,,,,,,,,,,,,,,,,,,,,,,,,,,,,,,right,1.0,0.702015916001983,,,,,,sub-093,1,random_dot,,
right,right,22.0,0.0,11.0,right,1.0,0.6676786669995636,,speed,space,5.655300917002023,,,,,,0.0,1.0,1.0,1.0,11.0,0.0,22.0,1.0,501.4805737080024,,,,,,,,,501.4743888749945,502.670813040997,503.46071316600137,503.4554587079911,503.4557348329981,503.46071316600137,503.46071316600137,503.46071316600137,,504.1359714999999,,,,,,,,,,,,,,,,,,,,,,,,,,,,,,right,1.0,0.6676786669995636,,,,,,sub-093,1,random_dot,,
left,left,23.0,1.0,11.0,right,0.0,0.8291072499996517,,speed,space,5.655300917002023,,,,,,0.0,1.0,1.0,1.0,11.0,1.0,23.0,0.0,504.1425620410009,,,,,,,,,504.13631037499,504.2243042079936,505.0160228750028,505.0095129580004,505.0099211659981,505.0160228750028,505.0160228750028,505.0160228750028,,505.84728991599695,,,,,,,,,,,,,,,,,,,,,,,,,,,,,,right,0.0,0.8291072499996517,,,,,,sub-093,1,random_dot,,
left,left,24.0,0.0,12.0,right,0.0,0.9752277500083436,,speed,space,5.655300917002023,,,,,,0.0,1.0,1.0,1.0,12.0,0.0,24.0,0.0,505.8539936659945,,,,,,,,,505.847584749994,505.9448635829904,506.7583654999908,506.7372938749904,506.7376774580043,506.7583654999908,506.7583654999908,506.7583654999908,,507.7350869579968,,,,,,,,,,,,,,,,,,,,,,,,,,,,,,right,0.0,0.9752277500083436,,,,,,sub-093,1,random_dot,,
right,right,25.0,1.0,12.0,right,1.0,0.7365211249998538,,speed,space,5.655300917002023,,,,,,0.0,1.0,1.0,1.0,12.0,1.0,25.0,1.0,507.7417592499987,,,,,,,,,507.735374625001,508.9421832499938,509.7322124579951,509.7253869159904,509.7258076659928,509.7322124579951,509.7322124579951,509.7322124579951,,510.4871827909956,,,,,,,,,,,,,,,,,,,,,,,,,,,,,,right,1.0,0.7365211249998538,,,,,,sub-093,1,random_dot,,
left,left,26.0,0.0,13.0,left,1.0,1.2235944590065628,,speed,space,5.655300917002023,,,,,,0.0,1.0,1.0,1.0,13.0,0.0,26.0,0.0,510.4938412079937,,,,,,,,,510.4875160410011,511.2816817909916,512.0757007909997,512.0693907499954,512.0698264999955,512.0757007909997,512.0757007909997,512.0757007909997,,513.3012617499917,,,,,,,,,,,,,,,,,,,,,,,,,,,,,,left,1.0,1.2235944590065628,,,,,,sub-093,1,random_dot,,
right,right,27.0,1.0,13.0,right,1.0,0.750839125001221,,speed,space,5.655300917002023,,,,,,0.0,1.0,1.0,1.0,13.0,1.0,27.0,1.0,513.3080360000022,,,,,,,,,513.3016439159983,513.6498571249977,514.4430197079928,514.4365747499978,514.4369629580033,514.4430197079928,514.4430197079928,514.4430197079928,,515.197800540991,,,,,,,,,,,,,,,,,,,,,,,,,,,,,,right,1.0,0.750839125001221,,,,,,sub-093,1,random_dot,,
right,right,28.0,0.0,14.0,left,0.0,1.365030916989781,,speed,space,5.655300917002023,,,,,,0.0,1.0,1.0,1.0,14.0,0.0,28.0,1.0,515.204685165998,,,,,,,,,515.1981927909947,515.9875457909948,516.7820934999909,516.7751405000017,516.7756529579929,516.7820934999909,516.7820934999909,516.7820934999909,,518.1677145830035,,,,,,,,,,,,,,,,,,,,,,,,,,,,,,left,0.0,1.365030916989781,,,,,,sub-093,1,random_dot,,
left,left,29.0,1.0,14.0,left,1.0,1.4166850000037812,,speed,space,5.655300917002023,,,,,,0.0,1.0,1.0,1.0,14.0,1.0,29.0,0.0,518.1742887080036,,,,,,,,,518.1680622080021,519.3587954579998,520.1526119999908,520.1460384579987,520.1464752079919,520.1526119999908,520.1526119999908,520.1526119999908,,521.5745137079939,,,,,,,,,,,,,,,,,,,,,,,,,,,,,,left,1.0,1.4166850000037812,,,,,,sub-093,1,random_dot,,
left,left,30.0,0.0,15.0,left,1.0,1.5002186250058005,,speed,space,5.655300917002023,,,,,,0.0,1.0,1.0,1.0,15.0,0.0,30.0,0.0,521.5812633750029,,,,,,,,,521.5748362079903,521.9368152499956,522.7338347909972,522.7203573330044,522.7207482499944,522.7338347909972,522.7338347909972,522.7338347909972,,524.2424122079974,,,,,,,,,,,,,,,,,,,,,,,,,,,,,,left,1.0,1.5002186250058005,,,,,,sub-093,1,random_dot,,
right,right,31.0,1.0,15.0,left,0.0,1.1426238330022898,,speed,space,5.655300917002023,,,,,,0.0,1.0,1.0,1.0,15.0,1.0,31.0,1.0,524.249120249995,,,,,,,,,524.2428522499977,525.4468468330015,526.240535207995,526.2333620830032,526.2337602079933,526.240535207995,526.240535207995,526.240535207995,,527.3886678749986,,,,,,,,,,,,,,,,,,,,,,,,,,,,,,left,0.0,1.1426238330022898,,,,,,sub-093,1,random_dot,,
left,left,32.0,0.0,16.0,left,1.0,1.4567339170025662,,speed,space,5.655300917002023,,,,,,0.0,1.0,1.0,1.0,16.0,0.0,32.0,0.0,527.3953118749923,,,,,,,,,527.3889732499956,527.5031734160002,528.2952734159917,528.2886884159961,528.2890665000014,528.2952734159917,528.2952734159917,528.2952734159917,,529.7563075409998,,,,,,,,,,,,,,,,,,,,,,,,,,,,,,left,1.0,1.4567339170025662,,,,,,sub-093,1,random_dot,,
right,right,33.0,1.0,16.0,left,0.0,0.8078754580055829,,speed,space,5.655300917002023,,,,,,0.0,1.0,1.0,1.0,16.0,1.0,33.0,1.0,529.7673252499953,,,,,,,,,529.7565784579929,530.5568685409962,531.3631273329956,531.356654999996,531.357048291,531.3631273329956,531.3631273329956,531.3631273329956,,532.1844394159998,,,,,,,,,,,,,,,,,,,,,,,,,,,,,,left,0.0,0.8078754580055829,,,,,,sub-093,1,random_dot,,
left,left,34.0,0.0,17.0,left,1.0,0.814592624999932,,speed,space,5.655300917002023,,,,,,0.0,1.0,1.0,1.0,17.0,0.0,34.0,0.0,532.2051781659975,,,,,,,,,532.1847258749913,533.3827603329992,534.1821253329981,534.1753204999986,534.1756837080029,534.1821253329981,534.1821253329981,534.1821253329981,,535.0045252499986,,,,,,,,,,,,,,,,,,,,,,,,,,,,,,left,1.0,0.814592624999932,,,,,,sub-093,1,random_dot,,
right,right,35.0,1.0,17.0,left,0.0,2.332114290999016,,speed,space,5.655300917002023,,,,,,0.0,1.0,1.0,1.0,17.0,1.0,35.0,1.0,535.0134240829939,,,,,,,,,535.0048161250015,535.0986767499999,535.8952560409962,535.8827633750043,535.8831715409906,535.8952560409962,535.8952560409962,535.8952560409962,,538.2342723750044,,,,,,,,,,,,,,,,,,,,,,,,,,,,,,left,0.0,2.332114290999016,,,,,,sub-093,1,random_dot,,
left,left,36.0,0.0,18.0,right,0.0,1.3183745830028784,,speed,space,5.655300917002023,,,,,,0.0,1.0,1.0,1.0,18.0,0.0,36.0,0.0,538.2436661249958,,,,,,,,,538.234717290994,538.3332620000001,539.132969415994,539.1262561659969,539.1267017909995,539.132969415994,539.132969415994,539.132969415994,,540.4669335409999,,,,,,,,,,,,,,,,,,,,,,,,,,,,,,right,0.0,1.3183745830028784,,,,,,sub-093,1,random_dot,,
right,right,37.0,1.0,18.0,right,1.0,1.0985419579956217,,speed,space,5.655300917002023,,,,,,0.0,1.0,1.0,1.0,18.0,1.0,37.0,1.0,540.471935583002,,,,,,,,,540.4672648749984,540.557015665996,541.3485004160029,541.3421600000001,541.3425996659935,541.3485004160029,541.3485004160029,541.3485004160029,,542.450001249992,,,,,,,,,,,,,,,,,,,,,,,,,,,,,,right,1.0,1.0985419579956217,,,,,,sub-093,1,random_dot,,
right,right,38.0,0.0,19.0,right,1.0,0.7988757910061395,,speed,space,5.655300917002023,,,,,,0.0,1.0,1.0,1.0,19.0,0.0,38.0,1.0,542.4572185409925,,,,,,,,,542.4503540409933,542.7953390000039,543.5953974580043,543.5890150409978,543.5896066659916,543.5953974580043,543.5953974580043,543.5953974580043,,544.3975944580015,,,,,,,,,,,,,,,,,,,,,,,,,,,,,,right,1.0,0.7988757910061395,,,,,,sub-093,1,random_dot,,
left,left,39.0,1.0,19.0,right,0.0,0.839317417005077,,speed,space,5.655300917002023,,,,,,0.0,1.0,1.0,1.0,19.0,1.0,39.0,0.0,544.4037775409961,,,,,,,,,544.3980083749921,544.5129506249941,545.3038358329941,545.2966841659945,545.2971262909996,545.3038358329941,545.3038358329941,545.3038358329941,,546.1609433749982,,,,,,,,,,,,,,,,,,,,,,,,,,,,,,right,0.0,0.839317417005077,,,,,,sub-093,1,random_dot,,
right,right,40.0,0.0,20.0,right,1.0,0.6138969580060802,,speed,space,5.655300917002023,,,,,,0.0,1.0,1.0,1.0,20.0,0.0,40.0,1.0,546.1677120829991,,,,,,,,,546.1612491659907,547.3580709999951,548.1554650409962,548.1441591659968,548.144568165997,548.1554650409962,548.1554650409962,548.1554650409962,,548.7842406659911,,,,,,,,,,,,,,,,,,,,,,,,,,,,,,right,1.0,0.6138969580060802,,,,,,sub-093,1,random_dot,,
left,left,41.0,1.0,20.0,right,0.0,0.9972278330096742,,speed,space,5.655300917002023,,,,,,0.0,1.0,1.0,1.0,20.0,1.0,41.0,0.0,548.7910505409964,,,,,,,,,548.7845942499989,549.5808793329925,550.3736514159973,550.3667630830023,550.367135499997,550.3736514159973,550.3736514159973,550.3736514159973,,551.3740894999937,,,,,,,,,,,,,,,,,,,,,,,,,,,,,,right,0.0,0.9972278330096742,,,,,,sub-093,1,random_dot,,
right,right,42.0,0.0,21.0,right,1.0,0.761412375009968,,speed,space,5.655300917002023,,,,,,0.0,1.0,1.0,1.0,21.0,0.0,42.0,1.0,551.3877396250027,,,,,,,,,551.3743885829899,552.1791585409956,552.9818037910009,552.9755353749933,552.9759029159904,552.9818037910009,552.9818037910009,552.9818037910009,,553.7594887079904,,,,,,,,,,,,,,,,,,,,,,,,,,,,,,right,1.0,0.761412375009968,,,,,,sub-093,1,random_dot,,
left,left,43.0,1.0,21.0,right,0.0,0.7952416659973096,,speed,space,5.655300917002023,,,,,,0.0,1.0,1.0,1.0,21.0,1.0,43.0,0.0,553.7658187079942,,,,,,,,,553.7597767909901,553.8488491250027,554.6496930830035,554.6444310829975,554.6448297079914,554.6496930830035,554.6496930830035,554.6496930830035,,555.4479576250014,,,,,,,,,,,,,,,,,,,,,,,,,,,,,,right,0.0,0.7952416659973096,,,,,,sub-093,1,random_dot,,
left,left,44.0,0.0,22.0,right,0.0,0.7510326670017093,,speed,space,5.655300917002023,,,,,,0.0,1.0,1.0,1.0,22.0,0.0,44.0,0.0,555.4536461660027,,,,,,,,,555.4482650830032,555.7932863329916,556.5903070829954,556.5788622079999,556.5794927910028,556.5903070829954,556.5903070829954,556.5903070829954,,557.3437281249935,,,,,,,,,,,,,,,,,,,,,,,,,,,,,,right,0.0,0.7510326670017093,,,,,,sub-093,1,random_dot,,
right,right,45.0,1.0,22.0,right,1.0,0.5743775830051163,,speed,space,5.655300917002023,,,,,,0.0,1.0,1.0,1.0,22.0,1.0,45.0,1.0,557.3500508750003,,,,,,,,,557.3440648749965,557.6873602080013,558.4795246659924,558.4730799160025,558.4734806249908,558.4795246659924,558.4795246659924,558.4795246659924,,559.0630324999947,,,,,,,,,,,,,,,,,,,,,,,,,,,,,,right,1.0,0.5743775830051163,,,,,,sub-093,1,random_dot,,
left,left,46.0,0.0,23.0,right,0.0,0.5868804590136278,,speed,space,5.655300917002023,,,,,,0.0,1.0,1.0,1.0,23.0,0.0,46.0,0.0,559.0692819579999,,,,,,,,,559.0634487909992,559.41621979099,560.2153594580013,560.2085858749924,560.2090207500005,560.2153594580013,560.2153594580013,560.2153594580013,,560.8044604579918,,,,,,,,,,,,,,,,,,,,,,,,,,,,,,right,0.0,0.5868804590136278,,,,,,sub-093,1,random_dot,,
right,right,47.0,1.0,23.0,right,1.0,0.7685225830064155,,speed,space,5.655300917002023,,,,,,0.0,1.0,1.0,1.0,23.0,1.0,47.0,1.0,560.8112505829922,,,,,,,,,560.8048785409919,561.5989453749935,562.411324916,562.3872101659945,562.3876270000037,562.411324916,562.411324916,562.411324916,,563.188747207998,,,,,,,,,,,,,,,,,,,,,,,,,,,,,,right,1.0,0.7685225830064155,,,,,,sub-093,1,random_dot,,
left,left,48.0,0.0,24.0,right,0.0,0.830667916990933,,speed,space,5.655300917002023,,,,,,0.0,1.0,1.0,1.0,24.0,0.0,48.0,0.0,563.1932007909927,,,,,,,,,563.1890734999906,563.2892423750018,564.0873275409976,564.0801316659927,564.0808759999927,564.0873275409976,564.0873275409976,564.0873275409976,,564.9207767499902,,,,,,,,,,,,,,,,,,,,,,,,,,,,,,right,0.0,0.830667916990933,,,,,,sub-093,1,random_dot,,
right,right,49.0,1.0,24.0,right,1.0,0.7633623340079794,,speed,space,5.655300917002023,,,,,,0.0,1.0,1.0,1.0,24.0,1.0,49.0,1.0,564.9325761660002,,,,,,,,,564.9211514579947,566.1173928329954,566.9161592500022,566.9028772909951,566.9031744999957,566.9161592500022,566.9161592500022,566.9161592500022,,567.6885949580028,,,,,,,,,,,,,,,,,,,,,,,,,,,,,,right,1.0,0.7633623340079794,,,,,,sub-093,1,random_dot,,
right,right,50.0,0.0,25.0,right,1.0,1.0098877499985974,,speed,space,5.655300917002023,,,,,,0.0,1.0,1.0,1.0,25.0,0.0,50.0,1.0,567.6951651249983,,,,,,,,,567.6890206660028,568.9035707080038,569.6980119579966,569.6912794579985,569.691726582998,569.6980119579966,569.6980119579966,569.6980119579966,,570.713777625002,,,,,,,,,,,,,,,,,,,,,,,,,,,,,,right,1.0,1.0098877499985974,,,,,,sub-093,1,random_dot,,
left,left,51.0,1.0,25.0,left,1.0,1.7326251250051428,,speed,space,5.655300917002023,,,,,,0.0,1.0,1.0,1.0,25.0,1.0,51.0,0.0,570.7205338749918,,,,,,,,,570.7141783330007,570.8026775409962,571.5958277500031,571.5882143749914,571.5886963329976,571.5958277500031,571.5958277500031,571.5958277500031,,573.339441374992,,,,,,,,,,,,,,,,,,,,,,,,,,,,,,left,1.0,1.7326251250051428,,,,,,sub-093,1,random_dot,,
left,left,52.0,0.0,26.0,right,0.0,0.8230700419953791,,speed,space,5.655300917002023,,,,,,0.0,1.0,1.0,1.0,26.0,0.0,52.0,0.0,573.3451923329994,,,,,,,,,573.3398584999959,574.138225207993,574.9282130409993,574.9218907079921,574.9222548749967,574.9282130409993,574.9282130409993,574.9282130409993,,575.7644038750004,,,,,,,,,,,,,,,,,,,,,,,,,,,,,,right,0.0,0.8230700419953791,,,,,,sub-093,1,random_dot,,
right,right,53.0,1.0,26.0,right,1.0,0.8380867910018424,,speed,space,5.655300917002023,,,,,,0.0,1.0,1.0,1.0,26.0,1.0,53.0,1.0,575.7708644999948,,,,,,,,,575.7646975410025,575.8569052499952,576.6542017079919,576.6408282499906,576.6412150830001,576.6542017079919,576.6542017079919,576.6542017079919,,577.4971050000022,,,,,,,,,,,,,,,,,,,,,,,,,,,,,,right,1.0,0.8380867910018424,,,,,,sub-093,1,random_dot,,
left,left,54.0,0.0,27.0,left,1.0,2.8071214169904124,,speed,space,5.655300917002023,,,,,,0.0,1.0,1.0,1.0,27.0,0.0,54.0,0.0,577.5037348749902,,,,,,,,,577.4974280000024,577.5858043749904,578.3873212079925,578.3807832909952,578.3812001249898,578.3873212079925,578.3873212079925,578.3873212079925,,581.1980502079969,,,,,,,,,,,,,,,,,,,,,,,,,,,,,,left,1.0,2.8071214169904124,,,,,,sub-093,1,random_dot,,
right,right,55.0,1.0,27.0,left,0.0,1.5039747499977238,,speed,space,5.655300917002023,,,,,,0.0,1.0,1.0,1.0,27.0,1.0,55.0,1.0,581.2042385829991,,,,,,,,,581.1984378329944,581.987183374993,582.7794627080002,582.7730517909949,582.7734727499919,582.7794627080002,582.7794627080002,582.7794627080002,,584.2878656660032,,,,,,,,,,,,,,,,,,,,,,,,,,,,,,left,0.0,1.5039747499977238,,,,,,sub-093,1,random_dot,,
right,right,56.0,0.0,28.0,right,1.0,1.205638291008654,,speed,space,5.655300917002023,,,,,,0.0,1.0,1.0,1.0,28.0,0.0,56.0,1.0,584.2937455409992,,,,,,,,,584.2881398750033,584.3776993329957,585.1697272500023,585.1633722909901,585.1637857909955,585.1697272500023,585.1697272500023,585.1697272500023,,586.3881298329943,,,,,,,,,,,,,,,,,,,,,,,,,,,,,,right,1.0,1.205638291008654,,,,,,sub-093,1,random_dot,,
left,left,57.0,1.0,28.0,right,0.0,0.7947072919923812,,speed,space,5.655300917002023,,,,,,0.0,1.0,1.0,1.0,28.0,1.0,57.0,0.0,586.3943261249951,,,,,,,,,586.3885285409924,587.5876842500002,588.378766875001,588.3723770829965,588.3727963749989,588.378766875001,588.378766875001,588.378766875001,,589.1780564579967,,,,,,,,,,,,,,,,,,,,,,,,,,,,,,right,0.0,0.7947072919923812,,,,,,sub-093,1,random_dot,,
left,left,58.0,0.0,29.0,left,1.0,6.0933066660072654,,speed,space,5.655300917002023,,,,,,0.0,1.0,1.0,1.0,29.0,0.0,58.0,0.0,589.1846181250003,,,,,,,,,589.1783549579995,589.5457109159906,590.3356028749986,590.32885562499,590.3292624579917,590.3356028749986,590.3356028749986,590.3356028749986,595.3244570829993,596.4449666250002,,,,,,,,,,,,,,,,,,,,,,,,,,,,,,left,1.0,6.0933066660072654,,,,,,sub-093,1,random_dot,,
right,right,59.0,1.0,29.0,left,0.0,2.343503750002128,,speed,space,5.655300917002023,,,,,,0.0,1.0,1.0,1.0,29.0,1.0,59.0,1.0,596.4527377499908,,,,,,,,,596.4456768329983,597.6495102909976,598.4413105830026,598.435877625001,598.4362150410016,598.4413105830026,598.4413105830026,598.4413105830026,,600.7878471659933,,,,,,,,,,,,,,,,,,,,,,,,,,,,,,left,0.0,2.343503750002128,,,,,,sub-093,1,random_dot,,
,,1.0,1.0,0.0,,,,,speed,space,5.655300917002023,,,,,,0.0,1.0,1.0,1.0,,,,,,,,,,,,,,,,,,,,,,,,,,,,,,,,,,,,,,,,,,,,,,,,,,,,,,,,,,,,,sub-093,1,random_dot,,
,,,,,,,,,,,,,,,,,,,,,,,,,,,,,,,,,,,,,,,,,,,,,,,,,,,,,,,,,,,,,,,,,,,,,,,,,,,,,600.7919171660033,600.7993212500005,605.8040011249977,605.7836724579975,sub-093,1,random_dot,,
