wordCTK,colorCTK,corrAnsCTK,congruentCTK,thisN,thisTrialN,thisRepN,keyResp_CTK.keys,keyResp_CTK.corr,keyResp_CTK.rt,keyResp_CTK.duration,wordPractice,colorPractice,corrAnsPractice,congruentPractice,respPractice.keys,respPractice.corr,respPractice.rt,respPractice.duration,word,color,corrAns,congruent,keyResp_test_run.keys,keyResp_test_run.corr,keyResp_test_run.rt,keyResp_test_run.duration,trials_CTK.thisRepN,trials_CTK.thisTrialN,trials_CTK.thisN,trials_CTK.thisIndex,trials_practice.thisRepN,trials_practice.thisTrialN,trials_practice.thisN,trials_practice.thisIndex,trials_test.thisRepN,trials_test.thisTrialN,trials_test.thisN,trials_test.thisIndex,thisRow.t,notes,instruction.started,instr_text.started,instr_image.started,instr_resp.started,instruction.stopped,instr_resp.keys,instr_resp.rt,instr_resp.duration,instr_color_to_key.started,instr_ctk.started,resp_ctk.started,instr_color_to_key.stopped,resp_ctk.keys,resp_ctk.rt,resp_ctk.duration,ITI.started,fixcross.started,fixcross.stopped,ITI.stopped,color_to_key_run.started,stimulus_CTK.started,keyResp_CTK.started,color_to_key_run.stopped,trials_CTK.keyResp_CTK.keys,trials_CTK.keyResp_CTK.corr,trials_CTK.keyResp_CTK.rt,trials_CTK.keyResp_CTK.duration,instr_practice.started,instr_practice_text.started,instr_practice_resp.started,instr_practice.stopped,instr_practice_resp.keys,instr_practice_resp.rt,instr_practice_resp.duration,practice_run.started,stimulus_practice.started,respPractice.started,practice_run.stopped,trials_practice.respPractice.keys,trials_practice.respPractice.corr,trials_practice.respPractice.rt,trials_practice.respPractice.duration,feedback.started,textFeedback.started,feedback.stopped,textFeedback.stopped,instr_test.started,instr_test_text.started,instr_test_resp.started,instr_test.stopped,instr_test_resp.keys,instr_test_resp.rt,instr_test_resp.duration,test_run.started,stimulus_test_run.started,keyResp_test_run.started,test_run.stopped,trials_test.keyResp_test_run.keys,trials_test.keyResp_test_run.corr,trials_test.keyResp_test_run.rt,trials_test.keyResp_test_run.duration,goodbye.started,textGoodbye.started,goodbye.stopped,participant,session,expName,frameRate,Unnamed: 112
,,,,,,,,,,,,,,,,,,,,,,,,,,,,,,,,,,,,,,,,,0.0036102000001392,0.0410890000000563,0.0410890000000563,0.0410890000000563,43.551079800000025,space,43.442235900000014,,,,,,,,,,,,,,,,,,,,,,,,,,,,,,,,,,,,,,,,,,,,,,,,,,,,,,,,,,sub-043,1,stroop_test,60.11226566738586,
,,,,,,,,,,,,,,,,,,,,,,,,,,,,,,,,,,,,,,,,,,,,,,,,,43.55112710000003,43.55532220000009,43.55532220000009,50.92445380000004,space,7.364266499999985,,,,,,,,,,,,,,,,,,,,,,,,,,,,,,,,,,,,,,,,,,,,,,,,,,,sub-043,1,stroop_test,60.11226566738586,
test,blue,b,1.0,0.0,0.0,0.0,b,1.0,0.8273159999998825,,,,,,,,,,,,,,,,,,0.0,0.0,0.0,2.0,,,,,,,,,50.965710899999976,,,,,,,,,,,,,,,,,50.96280610000008,51.02382699999998,51.82344869999997,51.80890380000005,51.81681219999996,51.82344869999997,51.82344869999997,52.65788090000001,b,1.0,0.8273159999998825,,,,,,,,,,,,,,,,,,,,,,,,,,,,,,,,,,,,,,,sub-043,1,stroop_test,60.11226566738586,
test,yellow,g,1.0,1.0,1.0,0.0,g,1.0,27.412854599999942,,,,,,,,,,,,,,,,,,0.0,1.0,1.0,1.0,,,,,,,,,52.67388249999999,,,,,,,,,,,,,,,,,52.65834640000003,53.45767909999995,54.2573569000001,54.24184070000001,54.2428946,54.2573569000001,54.2573569000001,81.67087170000013,g,1.0,27.412854599999942,,,,,,,,,,,,,,,,,,,,,,,,,,,,,,,,,,,,,,,sub-043,1,stroop_test,60.11226566738586,
test,red,r,1.0,2.0,2.0,0.0,r,1.0,1.3665654999999788,,,,,,,,,,,,,,,,,,0.0,2.0,2.0,0.0,,,,,,,,,81.68639180000014,,,,,,,,,,,,,,,,,81.67137580000008,82.02022780000016,82.82064060000016,82.80468680000013,82.80679350000014,82.82064060000016,82.82064060000016,84.18817490000015,r,1.0,1.3665654999999788,,,,,,,,,,,,,,,,,,,,,,,,,,,,,,,,,,,,,,,sub-043,1,stroop_test,60.11226566738586,
test,yellow,g,1.0,3.0,0.0,1.0,g,1.0,3.515549000000192,,,,,,,,,,,,,,,,,,1.0,0.0,3.0,1.0,,,,,,,,,84.20369030000006,,,,,,,,,,,,,,,,,84.18897860000015,85.40365380000003,86.20343820000016,86.18712400000004,86.18795670000009,86.20343820000016,86.20343820000016,89.72272640000006,g,1.0,3.515549000000192,,,,,,,,,,,,,,,,,,,,,,,,,,,,,,,,,,,,,,,sub-043,1,stroop_test,60.11226566738586,
test,red,r,1.0,4.0,1.0,1.0,r,1.0,2.1134104999998726,,,,,,,,,,,,,,,,,,1.0,1.0,4.0,0.0,,,,,,,,,89.73631100000011,,,,,,,,,,,,,,,,,89.72352160000014,89.83815770000001,90.65119230000003,90.63752610000006,90.6388300000001,90.65119230000003,90.65119230000003,92.77094380000015,r,1.0,2.1134104999998726,,,,,,,,,,,,,,,,,,,,,,,,,,,,,,,,,,,,,,,sub-043,1,stroop_test,60.11226566738586,
test,blue,b,1.0,5.0,2.0,1.0,b,1.0,0.4796031999999286,,,,,,,,,,,,,,,,,,1.0,2.0,5.0,2.0,,,,,,,,,92.78609760000018,,,,,,,,,,,,,,,,,92.77168150000011,93.11883009999995,93.9186327,93.90289789999996,93.90407440000013,93.9186327,93.9186327,94.4019307000001,b,1.0,0.4796031999999286,,,,,,,,,,,,,,,,,,,,,,,,,,,,,,,,,,,,,,,sub-043,1,stroop_test,60.11226566738586,
test,red,r,1.0,6.0,0.0,2.0,r,1.0,1.0144992999998976,,,,,,,,,,,,,,,,,,2.0,0.0,6.0,0.0,,,,,,,,,94.41979790000003,,,,,,,,,,,,,,,,,94.40243210000015,95.60222290000002,96.40129640000008,96.386614,96.38758700000017,96.40129640000008,96.40129640000008,97.41939730000011,r,1.0,1.0144992999998976,,,,,,,,,,,,,,,,,,,,,,,,,,,,,,,,,,,,,,,sub-043,1,stroop_test,60.11226566738586,
test,blue,b,1.0,7.0,1.0,2.0,b,1.0,0.8713470000000143,,,,,,,,,,,,,,,,,,2.0,1.0,7.0,2.0,,,,,,,,,97.43450750000012,,,,,,,,,,,,,,,,,97.42016409999997,97.51829859999998,98.31793270000004,98.30200860000014,98.30273690000011,98.31793270000004,98.31793270000004,99.20071759999996,b,1.0,0.8713470000000143,,,,,,,,,,,,,,,,,,,,,,,,,,,,,,,,,,,,,,,sub-043,1,stroop_test,60.11226566738586,
test,yellow,g,1.0,8.0,2.0,2.0,g,1.0,0.5938083999999435,,,,,,,,,,,,,,,,,,2.0,2.0,8.0,1.0,,,,,,,,,99.2177239,,,,,,,,,,,,,,,,,99.201102,100.41629409999996,101.21745420000002,101.20227450000016,101.20328630000016,101.21745420000002,101.21745420000002,101.81926930000007,g,1.0,0.5938083999999435,,,,,,,,,,,,,,,,,,,,,,,,,,,,,,,,,,,,,,,sub-043,1,stroop_test,60.11226566738586,
test,red,r,1.0,9.0,0.0,3.0,b,0.0,0.7164036000001488,,,,,,,,,,,,,,,,,,3.0,0.0,9.0,0.0,,,,,,,,,101.83351130000004,,,,,,,,,,,,,,,,,101.8197814,101.93298640000012,102.7335031,102.71698020000008,102.71734360000004,102.7335031,102.7335031,103.4503069,b,0.0,0.7164036000001488,,,,,,,,,,,,,,,,,,,,,,,,,,,,,,,,,,,,,,,sub-043,1,stroop_test,60.11226566738586,
test,blue,b,1.0,10.0,1.0,3.0,b,1.0,0.6991370999999162,,,,,,,,,,,,,,,,,,3.0,1.0,10.0,2.0,,,,,,,,,103.46581979999996,,,,,,,,,,,,,,,,,103.4505388,104.65102360000014,105.46659210000008,105.45003040000006,105.45045440000013,105.46659210000008,105.46659210000008,106.1684719,b,1.0,0.6991370999999162,,,,,,,,,,,,,,,,,,,,,,,,,,,,,,,,,,,,,,,sub-043,1,stroop_test,60.11226566738586,
test,yellow,g,1.0,11.0,2.0,3.0,g,1.0,0.7800705000001926,,,,,,,,,,,,,,,,,,3.0,2.0,11.0,1.0,,,,,,,,,106.18380019999996,,,,,,,,,,,,,,,,,106.16894320000006,106.53400290000012,107.33349790000013,107.3186822,107.31993580000017,107.33349790000013,107.33349790000013,108.11870580000004,g,1.0,0.7800705000001926,,,,,,,,,,,,,,,,,,,,,,,,,,,,,,,,,,,,,,,sub-043,1,stroop_test,60.11226566738586,
,,,,,,,,,,,,,,,,,,,,,,,,,,,,,,,,,,,,,,,,,,,,,,,,,,,,,,,,,,,,,,,,,,,,108.11905640000008,108.13419999999996,108.13419999999996,113.78315240000006,space,5.6333700000000135,,,,,,,,,,,,,,,,,,,,,,,,,,,,,,,,sub-043,1,stroop_test,60.11226566738586,
,,,,0.0,0.0,0.0,,,,,blau,blue,b,1.0,b,1.0,1.2977453999999398,,,,,,,,,,,,,,0.0,0.0,0.0,6.0,,,,,113.82431670000004,,,,,,,,,,,,,,,,,113.82179429999997,114.13286689999995,114.93334010000012,114.91602420000004,,,,,,,,,,,,,,,,114.92830219999996,114.93334010000012,114.93334010000012,116.23390800000016,b,1.0,1.2977453999999398,,116.24934950000012,116.254281,117.25019229999998,,,,,,,,,,,,,,,,,,,,sub-043,1,stroop_test,60.11226566738586,
,,,,1.0,1.0,0.0,,,,,rot,yellow,g,0.0,g,1.0,1.1069597999999132,,,,,,,,,,,,,,0.0,1.0,1.0,3.0,,,,,117.26728550000009,,,,,,,,,,,,,,,,,117.25095310000006,117.59906760000013,118.39925059999996,118.3836060000001,,,,,,,,,,,,,,,,118.39293829999995,118.39925059999996,118.39925059999996,119.5178949000001,g,1.0,1.1069597999999132,,119.51921830000016,119.5317281,120.5166153,120.53287350000004,,,,,,,,,,,,,,,,,,,sub-043,1,stroop_test,60.11226566738586,
,,,,2.0,2.0,0.0,,,,,blau,blue,b,1.0,b,1.0,0.503866300000027,,,,,,,,,,,,,,0.0,2.0,2.0,5.0,,,,,120.53287350000004,,,,,,,,,,,,,,,,,120.51743250000004,121.31570800000009,122.1148243,122.0993145,,,,,,,,,,,,,,,,122.10682429999996,122.1148243,122.1148243,122.63328930000011,b,1.0,0.503866300000027,,122.63412590000009,122.64734940000017,123.6335868000001,123.64917790000004,,,,,,,,,,,,,,,,,,,sub-043,1,stroop_test,60.11226566738586,
,,,,3.0,3.0,0.0,,,,,rot,red,r,1.0,r,1.0,0.7200037000000066,,,,,,,,,,,,,,0.0,3.0,3.0,1.0,,,,,123.64917790000004,,,,,,,,,,,,,,,,,123.63452490000007,123.9827322000001,124.78054999999996,124.76640930000008,,,,,,,,,,,,,,,,124.7712345,124.78054999999996,124.78054999999996,125.51509869999995,r,1.0,0.7200037000000066,,125.51594880000016,125.53174250000006,126.5155823,126.53202800000008,,,,,,,,,,,,,,,,,,,sub-043,1,stroop_test,60.11226566738586,
,,,,4.0,4.0,0.0,,,,,gelb,yellow,g,1.0,g,1.0,0.821237900000142,,,,,,,,,,,,,,0.0,4.0,4.0,10.0,,,,,126.53202800000008,,,,,,,,,,,,,,,,,126.5163364,127.7148777,128.51364320000016,128.49885600000016,,,,,,,,,,,,,,,,128.50388139999995,128.51364320000016,128.51364320000016,129.34778389999997,g,1.0,0.821237900000142,,129.3485541,129.36366810000004,130.34913200000005,,,,,,,,,,,,,,,,,,,,sub-043,1,stroop_test,60.11226566738586,
,,,,5.0,5.0,0.0,,,,,rot,blue,b,0.0,b,1.0,0.6882884999999987,,,,,,,,,,,,,,0.0,5.0,5.0,2.0,,,,,130.3645173,,,,,,,,,,,,,,,,,130.35003159999997,131.54938919999995,132.36293780000003,132.34911080000006,,,,,,,,,,,,,,,,132.35552589999998,132.36293780000003,132.36293780000003,133.06431050000015,b,1.0,0.6882884999999987,,133.06523930000003,133.0810004,134.0647927,,,,,,,,,,,,,,,,,,,,sub-043,1,stroop_test,60.11226566738586,
,,,,6.0,6.0,0.0,,,,,blau,yellow,g,0.0,g,1.0,0.5998005999999805,,,,,,,,,,,,,,0.0,6.0,6.0,7.0,,,,,134.08027470000002,,,,,,,,,,,,,,,,,134.06546390000017,134.41247510000017,135.21174050000013,135.19648359999997,,,,,,,,,,,,,,,,135.1994532000001,135.21174050000013,135.21174050000013,135.81199149999998,g,1.0,0.5998005999999805,,135.8123197,135.82829070000005,136.81214850000015,136.82838590000006,,,,,,,,,,,,,,,,,,,sub-043,1,stroop_test,60.11226566738586,
,,,,7.0,7.0,0.0,,,,,gelb,blue,b,0.0,b,1.0,0.8846238000000994,,,,,,,,,,,,,,0.0,7.0,7.0,9.0,,,,,136.82838590000006,,,,,,,,,,,,,,,,,136.8124573,136.91220339999995,137.71250050000003,137.69710069999996,,,,,,,,,,,,,,,,137.70348850000005,137.71250050000003,137.71250050000003,138.6122934,b,1.0,0.8846238000000994,,138.6126200000001,138.62912600000004,139.627921,,,,,,,,,,,,,,,,,,,,sub-043,1,stroop_test,60.11226566738586,
,,,,8.0,8.0,0.0,,,,,rot,red,r,1.0,r,1.0,0.7772946000000047,,,,,,,,,,,,,,0.0,8.0,8.0,0.0,,,,,139.6452127,,,,,,,,,,,,,,,,,139.6281332000001,140.41303970000013,141.2128166,141.19795590000012,,,,,,,,,,,,,,,,141.20636660000014,141.2128166,141.2128166,141.99720810000008,r,1.0,0.7772946000000047,,141.99804280000012,142.0116501,142.9976411,143.01270250000016,,,,,,,,,,,,,,,,,,,sub-043,1,stroop_test,60.11226566738586,
,,,,9.0,9.0,0.0,,,,,blau,red,r,0.0,b,0.0,0.9807859000000008,,,,,,,,,,,,,,0.0,9.0,9.0,4.0,,,,,143.01270250000016,,,,,,,,,,,,,,,,,142.99838780000005,144.19656729999997,144.9950424000001,144.97939870000005,,,,,,,,,,,,,,,,144.98464809999996,144.9950424000001,144.9950424000001,145.97996650000005,b,0.0,0.9807859000000008,,145.99031119999995,145.9965009,146.97940160000007,146.9955328000001,,,,,,,,,,,,,,,,,,,sub-043,1,stroop_test,60.11226566738586,
,,,,10.0,10.0,0.0,,,,,gelb,red,r,0.0,r,1.0,1.2854094000001623,,,,,,,,,,,,,,0.0,10.0,10.0,8.0,,,,,146.9955328000001,,,,,,,,,,,,,,,,,146.98014869999997,148.1783458,148.97728210000014,148.96295880000002,,,,,,,,,,,,,,,,148.9688053,148.97728210000014,148.97728210000014,150.2634008,r,1.0,1.2854094000001623,,150.26981090000004,150.2777916,151.26275009999995,151.27920960000006,,,,,,,,,,,,,,,,,,,sub-043,1,stroop_test,60.11226566738586,
,,,,11.0,11.0,0.0,,,,,gelb,yellow,g,1.0,g,1.0,0.8377347999999074,,,,,,,,,,,,,,0.0,11.0,11.0,11.0,,,,,151.27920960000006,,,,,,,,,,,,,,,,,151.26343070000007,151.36215630000015,152.17828750000012,152.16181470000015,,,,,,,,,,,,,,,,152.16260510000006,152.17828750000012,152.17828750000012,153.02921830000014,g,1.0,0.8377347999999074,,153.03054180000004,153.04385980000006,154.02961210000012,154.04522710000015,,,,,,,,,,,,,,,,,,,sub-043,1,stroop_test,60.11226566738586,
,,,,12.0,0.0,1.0,,,,,blau,blue,b,1.0,b,1.0,0.9785357000000658,,,,,,,,,,,,,,1.0,0.0,12.0,6.0,,,,,154.04522710000015,,,,,,,,,,,,,,,,,154.03034249999996,154.37779360000013,155.17671689999997,155.1622506000001,,,,,,,,,,,,,,,,155.16818000000012,155.17671689999997,155.17671689999997,156.16146279999998,b,1.0,0.9785357000000658,,156.16230130000008,156.1783871,157.16173019999997,,,,,,,,,,,,,,,,,,,,sub-043,1,stroop_test,60.11226566738586,
,,,,13.0,1.0,1.0,,,,,gelb,yellow,g,1.0,g,1.0,1.3033265999999912,,,,,,,,,,,,,,1.0,1.0,13.0,11.0,,,,,157.17769670000007,,,,,,,,,,,,,,,,,157.16252680000002,157.26093360000004,158.05943939999997,158.04397689999996,,,,,,,,,,,,,,,,158.0491571,158.05943939999997,158.05943939999997,159.3785845,g,1.0,1.3033265999999912,,159.37982550000015,159.3929074,160.37819550000015,160.39364339999997,,,,,,,,,,,,,,,,,,,sub-043,1,stroop_test,60.11226566738586,
,,,,14.0,2.0,1.0,,,,,rot,blue,b,0.0,b,1.0,0.7471717000000808,,,,,,,,,,,,,,1.0,2.0,14.0,2.0,,,,,160.39364339999997,,,,,,,,,,,,,,,,,160.37893970000005,161.59442260000014,162.39277040000002,162.37757420000003,,,,,,,,,,,,,,,,162.38479010000017,162.39277040000002,162.39277040000002,163.1429134,b,1.0,0.7471717000000808,,163.14355780000005,163.15882720000013,164.1444689,,,,,,,,,,,,,,,,,,,,sub-043,1,stroop_test,60.11226566738586,
,,,,15.0,3.0,1.0,,,,,gelb,red,r,0.0,r,1.0,0.6543179000000237,,,,,,,,,,,,,,1.0,3.0,15.0,8.0,,,,,164.16050059999998,,,,,,,,,,,,,,,,,164.14520650000009,164.49456039999995,165.3102189000001,165.29471579999995,,,,,,,,,,,,,,,,165.30237460000012,165.3102189000001,165.3102189000001,165.97801100000015,r,1.0,0.6543179000000237,,165.97941720000017,165.9933364000001,166.97643549999998,166.99355790000004,,,,,,,,,,,,,,,,,,,sub-043,1,stroop_test,60.11226566738586,
,,,,16.0,4.0,1.0,,,,,blau,yellow,g,0.0,g,1.0,0.7474004999999124,,,,,,,,,,,,,,1.0,4.0,16.0,7.0,,,,,166.99355790000004,,,,,,,,,,,,,,,,,166.977077,167.0939939,167.90841760000012,167.89289900000017,,,,,,,,,,,,,,,,167.89877660000002,167.90841760000012,167.90841760000012,168.6604824000001,g,1.0,0.7474004999999124,,168.66177800000014,168.67561180000007,169.6596340000001,169.67707710000013,,,,,,,,,,,,,,,,,,,sub-043,1,stroop_test,60.11226566738586,
,,,,17.0,5.0,1.0,,,,,gelb,yellow,g,1.0,g,1.0,0.9027338000000782,,,,,,,,,,,,,,1.0,5.0,17.0,10.0,,,,,169.67707710000013,,,,,,,,,,,,,,,,,169.66014600000017,170.0102925000001,170.82387570000014,170.8073796000001,,,,,,,,,,,,,,,,170.80960330000016,170.82387570000014,170.82387570000014,171.74055250000015,g,1.0,0.9027338000000782,,171.7409086,171.75698669999997,172.7425697000001,,,,,,,,,,,,,,,,,,,,sub-043,1,stroop_test,60.11226566738586,
,,,,18.0,6.0,1.0,,,,,rot,yellow,g,0.0,g,1.0,1.0431498999998894,,,,,,,,,,,,,,1.0,6.0,18.0,3.0,,,,,172.75974800000017,,,,,,,,,,,,,,,,,172.7432599000001,173.942765,174.74194690000013,174.72682670000015,,,,,,,,,,,,,,,,174.73430140000005,174.74194690000013,174.74194690000013,175.79236960000003,g,1.0,1.0431498999998894,,175.79323980000004,175.80725580000012,176.79278320000003,176.80877929999997,,,,,,,,,,,,,,,,,,,sub-043,1,stroop_test,60.11226566738586,
,,,,19.0,7.0,1.0,,,,,blau,red,r,0.0,r,1.0,1.4947664000001168,,,,,,,,,,,,,,1.0,7.0,19.0,4.0,,,,,176.80877929999997,,,,,,,,,,,,,,,,,176.79354460000013,176.89203110000017,177.69045189999997,177.6754704,,,,,,,,,,,,,,,,177.68062780000014,177.69045189999997,177.69045189999997,179.19096609999997,r,1.0,1.4947664000001168,,179.1917860000001,179.20673190000002,180.19295490000013,,,,,,,,,,,,,,,,,,,,sub-043,1,stroop_test,60.11226566738586,
,,,,20.0,8.0,1.0,,,,,gelb,blue,b,0.0,b,1.0,1.0628202000000329,,,,,,,,,,,,,,1.0,8.0,20.0,9.0,,,,,180.2083546000001,,,,,,,,,,,,,,,,,180.1937287000001,180.54057850000004,181.34064020000005,181.32572530000016,,,,,,,,,,,,,,,,181.3327729,181.34064020000005,181.34064020000005,182.4085411000001,b,1.0,1.0628202000000329,,182.40967780000005,182.4234817000001,183.4089494,183.42462870000008,,,,,,,,,,,,,,,,,,,sub-043,1,stroop_test,60.11226566738586,
,,,,21.0,9.0,1.0,,,,,rot,red,r,1.0,r,1.0,0.7310059999999794,,,,,,,,,,,,,,1.0,9.0,21.0,1.0,,,,,183.42462870000008,,,,,,,,,,,,,,,,,183.4096978,183.7582169,184.5565411,184.541837,,,,,,,,,,,,,,,,184.54785660000016,184.5565411,184.5565411,185.2916463000001,r,1.0,0.7310059999999794,,185.29295220000017,185.3067707,186.2908917,186.30810710000011,,,,,,,,,,,,,,,,,,,sub-043,1,stroop_test,60.11226566738586,
,,,,22.0,10.0,1.0,,,,,rot,red,r,1.0,r,1.0,1.7674764999999295,,,,,,,,,,,,,,1.0,10.0,22.0,0.0,,,,,186.30810710000011,,,,,,,,,,,,,,,,,186.29149310000005,186.39062590000003,187.19056840000007,187.17362660000003,,,,,,,,,,,,,,,,187.1746860000001,187.19056840000007,187.19056840000007,188.96043480000003,r,1.0,1.7674764999999295,,188.96173780000004,188.97270960000012,189.9574465000001,189.97378430000003,,,,,,,,,,,,,,,,,,,sub-043,1,stroop_test,60.11226566738586,
,,,,23.0,11.0,1.0,,,,,blau,blue,b,1.0,b,1.0,1.0066852999998446,,,,,,,,,,,,,,1.0,11.0,23.0,5.0,,,,,189.97378430000003,,,,,,,,,,,,,,,,,189.95802700000013,190.07449340000016,190.8920091,190.87510310000016,,,,,,,,,,,,,,,,190.88465330000008,190.8920091,190.8920091,191.90643190000011,b,1.0,1.0066852999998446,,191.90727220000008,191.92213570000013,192.90726010000003,,,,,,,,,,,,,,,,,,,,sub-043,1,stroop_test,60.11226566738586,
,,,,,,,,,,,,,,,,,,,,,,,,,,,,,,,,,,,,,,,,,,,,,,,,,,,,,,,,,,,,,,,,,,,,,,,,,,,,,,,,,,,,,,,192.90757430000008,192.9222407,192.9222407,213.0390601000001,space,20.107573499999944,,,,,,,,,,,,,sub-043,1,stroop_test,60.11226566738586,
,,,,0.0,0.0,0.0,,,,,,,,,,,,,gelb,yellow,g,1.0,g,1.0,0.7255360999999994,,,,,,,,,,0.0,0.0,0.0,11.0,213.0917284,,,,,,,,,,,,,,,,,213.08842890000005,214.2543739,215.05317630000013,215.03785850000008,,,,,,,,,,,,,,,,,,,,,,,,,,,,,,,,,,,215.0455641000001,215.05317630000013,215.05317630000013,215.7865674,g,1.0,0.7255360999999994,,,,,sub-043,1,stroop_test,60.11226566738586,
,,,,1.0,1.0,0.0,,,,,,,,,,,,,rot,yellow,g,0.0,g,1.0,1.0501656999999796,,,,,,,,,,0.0,1.0,1.0,3.0,215.80430750000005,,,,,,,,,,,,,,,,,215.7871599,216.9863149,217.78727490000009,217.7704016,,,,,,,,,,,,,,,,,,,,,,,,,,,,,,,,,,,217.7792953000001,217.78727490000009,217.78727490000009,218.85290010000017,g,1.0,1.0501656999999796,,,,,sub-043,1,stroop_test,60.11226566738586,
,,,,2.0,2.0,0.0,,,,,,,,,,,,,gelb,yellow,g,1.0,g,1.0,0.8382934000001114,,,,,,,,,,0.0,2.0,2.0,10.0,218.86999260000016,,,,,,,,,,,,,,,,,218.85348350000004,218.95347570000013,219.7541672,219.7378328,,,,,,,,,,,,,,,,,,,,,,,,,,,,,,,,,,,219.7475038,219.7541672,219.7541672,220.60345610000013,g,1.0,0.8382934000001114,,,,,sub-043,1,stroop_test,60.11226566738586,
,,,,3.0,3.0,0.0,,,,,,,,,,,,,gelb,blue,b,0.0,b,1.0,1.1567555000001448,,,,,,,,,,0.0,3.0,3.0,9.0,220.6192549,,,,,,,,,,,,,,,,,220.60424420000004,220.9529755000001,221.75186630000007,221.7374753000001,,,,,,,,,,,,,,,,,,,,,,,,,,,,,,,,,,,221.7386765000001,221.75186630000007,221.75186630000007,222.92018210000012,b,1.0,1.1567555000001448,,,,,sub-043,1,stroop_test,60.11226566738586,
,,,,4.0,4.0,0.0,,,,,,,,,,,,,rot,red,r,1.0,r,1.0,0.7523595000000114,,,,,,,,,,0.0,4.0,4.0,1.0,222.9357404,,,,,,,,,,,,,,,,,222.92106080000008,224.1197734,224.93426640000007,224.9041714,,,,,,,,,,,,,,,,,,,,,,,,,,,,,,,,,,,224.91327450000017,224.93426640000007,224.93426640000007,225.7017356000001,r,1.0,0.7523595000000114,,,,,sub-043,1,stroop_test,60.11226566738586,
,,,,5.0,5.0,0.0,,,,,,,,,,,,,blau,yellow,g,0.0,g,1.0,1.0013778000000002,,,,,,,,,,0.0,5.0,5.0,7.0,225.71859010000003,,,,,,,,,,,,,,,,,225.70218150000005,226.90204590000008,227.7004432000001,227.68702040000016,,,,,,,,,,,,,,,,,,,,,,,,,,,,,,,,,,,227.69338130000008,227.7004432000001,227.7004432000001,228.7055139000001,g,1.0,1.0013778000000002,,,,,sub-043,1,stroop_test,60.11226566738586,
,,,,6.0,6.0,0.0,,,,,,,,,,,,,gelb,red,r,0.0,r,1.0,1.1555256000001464,,,,,,,,,,0.0,6.0,6.0,8.0,228.7172965,,,,,,,,,,,,,,,,,228.70624580000003,229.51954650000016,230.33407380000017,230.31961390000012,,,,,,,,,,,,,,,,,,,,,,,,,,,,,,,,,,,230.32602700000007,230.33407380000017,230.33407380000017,231.5028201,r,1.0,1.1555256000001464,,,,,sub-043,1,stroop_test,60.11226566738586,
,,,,7.0,7.0,0.0,,,,,,,,,,,,,rot,blue,b,0.0,b,1.0,1.0096618999998557,,,,,,,,,,0.0,7.0,7.0,2.0,231.51814650000009,,,,,,,,,,,,,,,,,231.50382779999995,231.85152100000005,232.6501524,232.6360635000001,,,,,,,,,,,,,,,,,,,,,,,,,,,,,,,,,,,232.6418139,232.6501524,232.6501524,233.6696836000001,b,1.0,1.0096618999998557,,,,,sub-043,1,stroop_test,60.11226566738586,
,,,,8.0,8.0,0.0,,,,,,,,,,,,,blau,blue,b,1.0,b,1.0,0.8178717000000688,,,,,,,,,,0.0,8.0,8.0,5.0,233.6848295,,,,,,,,,,,,,,,,,233.6705749,234.03424050000007,234.8331048,234.8180222000001,,,,,,,,,,,,,,,,,,,,,,,,,,,,,,,,,,,234.8229851000001,234.8331048,234.8331048,235.66876449999995,b,1.0,0.8178717000000688,,,,,sub-043,1,stroop_test,60.11226566738586,
,,,,9.0,9.0,0.0,,,,,,,,,,,,,blau,blue,b,1.0,b,1.0,0.8365555000000313,,,,,,,,,,0.0,9.0,9.0,6.0,235.68410430000017,,,,,,,,,,,,,,,,,235.66975220000015,236.4826773,237.2822027,237.26623140000012,,,,,,,,,,,,,,,,,,,,,,,,,,,,,,,,,,,237.266566,237.2822027,237.2822027,238.13290170000005,b,1.0,0.8365555000000313,,,,,sub-043,1,stroop_test,60.11226566738586,
,,,,10.0,10.0,0.0,,,,,,,,,,,,,rot,red,r,1.0,r,1.0,0.7084601999999904,,,,,,,,,,0.0,10.0,10.0,0.0,238.1494067000001,,,,,,,,,,,,,,,,,238.13314820000005,239.3322772000001,240.13200670000012,240.11544619999995,,,,,,,,,,,,,,,,,,,,,,,,,,,,,,,,,,,240.11830310000005,240.13200670000012,240.13200670000012,240.8520742000001,r,1.0,0.7084601999999904,,,,,sub-043,1,stroop_test,60.11226566738586,
,,,,11.0,11.0,0.0,,,,,,,,,,,,,blau,red,r,0.0,r,1.0,0.9750182999998742,,,,,,,,,,0.0,11.0,11.0,4.0,240.86605440000017,,,,,,,,,,,,,,,,,240.85264400000003,242.0676472,242.8829055000001,242.8677335,,,,,,,,,,,,,,,,,,,,,,,,,,,,,,,,,,,242.87477220000005,242.8829055000001,242.8829055000001,243.86838580000017,r,1.0,0.9750182999998742,,,,,sub-043,1,stroop_test,60.11226566738586,
,,,,12.0,0.0,1.0,,,,,,,,,,,,,blau,yellow,g,0.0,g,1.0,0.7211881000000631,,,,,,,,,,1.0,0.0,12.0,7.0,243.88364960000013,,,,,,,,,,,,,,,,,243.8692833,244.68397960000016,245.48236870000005,245.4675152,,,,,,,,,,,,,,,,,,,,,,,,,,,,,,,,,,,245.4685839000001,245.48236870000005,245.48236870000005,246.21623939999995,g,1.0,0.7211881000000631,,,,,sub-043,1,stroop_test,60.11226566738586,
,,,,13.0,1.0,1.0,,,,,,,,,,,,,rot,red,r,1.0,r,1.0,0.780946700000186,,,,,,,,,,1.0,1.0,13.0,1.0,246.23343550000004,,,,,,,,,,,,,,,,,246.2167952,247.4163089000001,248.21606270000007,248.20105310000008,,,,,,,,,,,,,,,,,,,,,,,,,,,,,,,,,,,248.20843790000004,248.21606270000007,248.21606270000007,249.0009445000001,r,1.0,0.780946700000186,,,,,sub-043,1,stroop_test,60.11226566738586,
,,,,14.0,2.0,1.0,,,,,,,,,,,,,gelb,yellow,g,1.0,g,1.0,0.7714625000000979,,,,,,,,,,1.0,2.0,14.0,11.0,249.016631,,,,,,,,,,,,,,,,,249.00228420000008,249.36561800000004,250.1654072000001,250.15063410000016,,,,,,,,,,,,,,,,,,,,,,,,,,,,,,,,,,,250.1579375000001,250.1654072000001,250.1654072000001,250.94814640000004,g,1.0,0.7714625000000979,,,,,sub-043,1,stroop_test,60.11226566738586,
,,,,15.0,3.0,1.0,,,,,,,,,,,,,rot,blue,b,0.0,b,1.0,0.8754143999999542,,,,,,,,,,1.0,3.0,15.0,2.0,250.9657775000001,,,,,,,,,,,,,,,,,250.94858150000005,251.0488130000001,251.84766790000003,251.83386540000012,,,,,,,,,,,,,,,,,,,,,,,,,,,,,,,,,,,251.8397640000001,251.84766790000003,251.84766790000003,252.73200710000012,b,1.0,0.8754143999999542,,,,,sub-043,1,stroop_test,60.11226566738586,
,,,,16.0,4.0,1.0,,,,,,,,,,,,,blau,blue,b,1.0,b,1.0,0.9774886000000153,,,,,,,,,,1.0,4.0,16.0,6.0,252.7481266,,,,,,,,,,,,,,,,,252.7325797000001,252.8333149,253.6487779000001,253.6325151000001,,,,,,,,,,,,,,,,,,,,,,,,,,,,,,,,,,,253.6392541,253.6487779000001,253.6487779000001,254.63347820000013,b,1.0,0.9774886000000153,,,,,sub-043,1,stroop_test,60.11226566738586,
,,,,17.0,5.0,1.0,,,,,,,,,,,,,gelb,red,r,0.0,r,1.0,1.1057303000000047,,,,,,,,,,1.0,5.0,17.0,8.0,254.6484629000001,,,,,,,,,,,,,,,,,254.63453040000013,255.44825450000008,256.2479119,256.2333207000001,,,,,,,,,,,,,,,,,,,,,,,,,,,,,,,,,,,256.24001,256.2479119,256.2479119,257.3653584000001,r,1.0,1.1057303000000047,,,,,sub-043,1,stroop_test,60.11226566738586,
,,,,18.0,6.0,1.0,,,,,,,,,,,,,blau,red,r,0.0,r,1.0,0.7321552000000793,,,,,,,,,,1.0,6.0,18.0,4.0,257.38149780000003,,,,,,,,,,,,,,,,,257.3659193000001,258.1655975000001,258.9632892,258.9484758000001,,,,,,,,,,,,,,,,,,,,,,,,,,,,,,,,,,,258.9530351000001,258.9632892,258.9632892,259.6989575,r,1.0,0.7321552000000793,,,,,sub-043,1,stroop_test,60.11226566738586,
,,,,19.0,7.0,1.0,,,,,,,,,,,,,rot,yellow,g,0.0,g,1.0,0.8254821000000447,,,,,,,,,,1.0,7.0,19.0,3.0,259.71403680000003,,,,,,,,,,,,,,,,,259.6999604,260.49801530000013,261.29699330000017,261.2821742000001,,,,,,,,,,,,,,,,,,,,,,,,,,,,,,,,,,,261.28891440000007,261.29699330000017,261.29699330000017,262.1299842000001,g,1.0,0.8254821000000447,,,,,sub-043,1,stroop_test,60.11226566738586,
,,,,20.0,8.0,1.0,,,,,,,,,,,,,gelb,blue,b,0.0,b,1.0,0.5330977000000985,,,,,,,,,,1.0,8.0,20.0,9.0,262.14711850000003,,,,,,,,,,,,,,,,,262.1303937,263.3310157000001,264.1306124,264.11490860000004,,,,,,,,,,,,,,,,,,,,,,,,,,,,,,,,,,,264.1234343000001,264.1306124,264.1306124,264.6674651000001,b,1.0,0.5330977000000985,,,,,sub-043,1,stroop_test,60.11226566738586,
,,,,21.0,9.0,1.0,,,,,,,,,,,,,blau,blue,b,1.0,b,1.0,0.6018962000000556,,,,,,,,,,1.0,9.0,21.0,5.0,264.6810259000001,,,,,,,,,,,,,,,,,264.6684253000001,264.7809817,265.5795015000001,265.5642285000001,,,,,,,,,,,,,,,,,,,,,,,,,,,,,,,,,,,265.56751350000013,265.5795015000001,265.5795015000001,266.1827326,b,1.0,0.6018962000000556,,,,,sub-043,1,stroop_test,60.11226566738586,
,,,,22.0,10.0,1.0,,,,,,,,,,,,,gelb,yellow,g,1.0,g,1.0,0.7701352000001407,,,,,,,,,,1.0,10.0,22.0,10.0,266.19651280000016,,,,,,,,,,,,,,,,,266.1833602000001,266.99796530000003,267.79627100000016,267.78157090000013,,,,,,,,,,,,,,,,,,,,,,,,,,,,,,,,,,,267.78862520000007,267.79627100000016,267.79627100000016,268.5816618000001,g,1.0,0.7701352000001407,,,,,sub-043,1,stroop_test,60.11226566738586,
,,,,23.0,11.0,1.0,,,,,,,,,,,,,rot,red,r,1.0,r,1.0,0.6206818000000567,,,,,,,,,,1.0,11.0,23.0,0.0,268.5972855,,,,,,,,,,,,,,,,,268.5825529000001,269.7951158000001,270.5949416000001,270.579121,,,,,,,,,,,,,,,,,,,,,,,,,,,,,,,,,,,270.5815815000001,270.5949416000001,270.5949416000001,271.2311029,r,1.0,0.6206818000000567,,,,,sub-043,1,stroop_test,60.11226566738586,
,,,,24.0,0.0,2.0,,,,,,,,,,,,,gelb,red,r,0.0,r,1.0,1.0101927000000614,,,,,,,,,,2.0,0.0,24.0,8.0,271.2470466,,,,,,,,,,,,,,,,,271.2318966,272.0302829,272.84526359999995,272.8288220000002,,,,,,,,,,,,,,,,,,,,,,,,,,,,,,,,,,,272.8315676,272.84526359999995,272.84526359999995,273.8641961000001,r,1.0,1.0101927000000614,,,,,sub-043,1,stroop_test,60.11226566738586,
,,,,25.0,1.0,2.0,,,,,,,,,,,,,blau,blue,b,1.0,b,1.0,0.5980239999998958,,,,,,,,,,2.0,1.0,25.0,6.0,273.88024140000016,,,,,,,,,,,,,,,,,273.8650798000001,273.9796924,274.7800704000001,274.7636321,,,,,,,,,,,,,,,,,,,,,,,,,,,,,,,,,,,274.77230050000003,274.7800704000001,274.7800704000001,275.38106200000016,b,1.0,0.5980239999998958,,,,,sub-043,1,stroop_test,60.11226566738586,
,,,,26.0,2.0,2.0,,,,,,,,,,,,,gelb,yellow,g,1.0,g,1.0,1.026844100000062,,,,,,,,,,2.0,2.0,26.0,10.0,275.3952671,,,,,,,,,,,,,,,,,275.38180520000014,276.5952401,277.3941636,277.37956310000004,,,,,,,,,,,,,,,,,,,,,,,,,,,,,,,,,,,277.384562,277.3941636,277.3941636,278.4302897,g,1.0,1.026844100000062,,,,,sub-043,1,stroop_test,60.11226566738586,
,,,,27.0,3.0,2.0,,,,,,,,,,,,,rot,blue,b,0.0,b,1.0,1.0580004999999346,,,,,,,,,,2.0,3.0,27.0,2.0,278.44602640000016,,,,,,,,,,,,,,,,,278.4310441,279.6302803000001,280.4448255,280.4301631000001,,,,,,,,,,,,,,,,,,,,,,,,,,,,,,,,,,,280.4371363,280.4448255,280.4448255,281.5124191,b,1.0,1.0580004999999346,,,,,sub-043,1,stroop_test,60.11226566738586,
,,,,28.0,4.0,2.0,,,,,,,,,,,,,rot,yellow,g,0.0,g,1.0,0.920785300000034,,,,,,,,,,2.0,4.0,28.0,3.0,281.5282899000001,,,,,,,,,,,,,,,,,281.51329780000015,281.86218340000005,282.6614538000001,282.64582040000005,,,,,,,,,,,,,,,,,,,,,,,,,,,,,,,,,,,282.6470544000001,282.6614538000001,282.6614538000001,283.59488810000016,g,1.0,0.920785300000034,,,,,sub-043,1,stroop_test,60.11226566738586,
,,,,29.0,5.0,2.0,,,,,,,,,,,,,blau,blue,b,1.0,b,1.0,0.649779399999943,,,,,,,,,,2.0,5.0,29.0,5.0,283.6102208,,,,,,,,,,,,,,,,,283.5954594,284.3947935000001,285.19381080000016,285.1785457000001,,,,,,,,,,,,,,,,,,,,,,,,,,,,,,,,,,,285.18549310000003,285.19381080000016,285.19381080000016,285.8467213000001,b,1.0,0.649779399999943,,,,,sub-043,1,stroop_test,60.11226566738586,
,,,,30.0,6.0,2.0,,,,,,,,,,,,,rot,red,r,1.0,r,1.0,0.8256847000000107,,,,,,,,,,2.0,6.0,30.0,1.0,285.8605110000001,,,,,,,,,,,,,,,,,285.84752500000013,286.6446774000001,287.44427800000017,287.42890580000017,,,,,,,,,,,,,,,,,,,,,,,,,,,,,,,,,,,287.4374500000001,287.44427800000017,287.44427800000017,288.2785789,r,1.0,0.8256847000000107,,,,,sub-043,1,stroop_test,60.11226566738586,
,,,,31.0,7.0,2.0,,,,,,,,,,,,,gelb,blue,b,0.0,b,1.0,0.927299400000038,,,,,,,,,,2.0,7.0,31.0,9.0,288.29442630000017,,,,,,,,,,,,,,,,,288.2794775,289.477848,290.2767573000001,290.2615647,,,,,,,,,,,,,,,,,,,,,,,,,,,,,,,,,,,290.27027150000004,290.2767573000001,290.2767573000001,291.2118484,b,1.0,0.927299400000038,,,,,sub-043,1,stroop_test,60.11226566738586,
,,,,32.0,8.0,2.0,,,,,,,,,,,,,gelb,yellow,g,1.0,r,0.0,0.9709702999998626,,,,,,,,,,2.0,8.0,32.0,11.0,291.2267451,,,,,,,,,,,,,,,,,291.2127508000001,291.3104111,292.10950100000014,292.0947042,,,,,,,,,,,,,,,,,,,,,,,,,,,,,,,,,,,292.095791,292.10950100000014,292.10950100000014,293.0946521000001,r,0.0,0.9709702999998626,,,,,sub-043,1,stroop_test,60.11226566738586,
,,,,33.0,9.0,2.0,,,,,,,,,,,,,rot,red,r,1.0,r,1.0,0.8291205999998965,,,,,,,,,,2.0,9.0,33.0,0.0,293.10989930000005,,,,,,,,,,,,,,,,,293.0955417,293.44382710000014,294.2584336,294.2416998000001,,,,,,,,,,,,,,,,,,,,,,,,,,,,,,,,,,,294.2446698000001,294.2584336,294.2584336,295.09467870000003,r,1.0,0.8291205999998965,,,,,sub-043,1,stroop_test,60.11226566738586,
,,,,34.0,10.0,2.0,,,,,,,,,,,,,blau,red,r,0.0,r,1.0,1.0475713000000724,,,,,,,,,,2.0,10.0,34.0,4.0,295.1099677,,,,,,,,,,,,,,,,,295.0955583,295.2098857000001,296.0094948000001,295.9948710000001,,,,,,,,,,,,,,,,,,,,,,,,,,,,,,,,,,,296.00248540000007,296.0094948000001,296.0094948000001,297.0603786000001,r,1.0,1.0475713000000724,,,,,sub-043,1,stroop_test,60.11226566738586,
,,,,35.0,11.0,2.0,,,,,,,,,,,,,blau,yellow,g,0.0,g,1.0,0.7270912000001317,,,,,,,,,,2.0,11.0,35.0,7.0,297.0750779,,,,,,,,,,,,,,,,,297.0608096000001,297.1598607000001,297.9585595000001,297.9438894,,,,,,,,,,,,,,,,,,,,,,,,,,,,,,,,,,,297.9449360000001,297.9585595000001,297.9585595000001,298.6935294,g,1.0,0.7270912000001317,,,,,sub-043,1,stroop_test,60.11226566738586,
,,,,36.0,0.0,3.0,,,,,,,,,,,,,blau,yellow,g,0.0,g,1.0,0.7600254000001314,,,,,,,,,,3.0,0.0,36.0,7.0,298.70795580000004,,,,,,,,,,,,,,,,,298.6940721000001,299.49160570000004,300.2911902000001,300.27597220000007,,,,,,,,,,,,,,,,,,,,,,,,,,,,,,,,,,,300.2767465000002,300.2911902000001,300.2911902000001,301.06116110000016,g,1.0,0.7600254000001314,,,,,sub-043,1,stroop_test,60.11226566738586,
,,,,37.0,1.0,3.0,,,,,,,,,,,,,gelb,red,r,0.0,r,1.0,0.6896094000001085,,,,,,,,,,3.0,1.0,37.0,8.0,301.07614250000006,,,,,,,,,,,,,,,,,301.0620722000001,301.42603240000017,302.2405470000001,302.2251539000001,,,,,,,,,,,,,,,,,,,,,,,,,,,,,,,,,,,302.22867840000004,302.2405470000001,302.2405470000001,302.9410882,r,1.0,0.6896094000001085,,,,,sub-043,1,stroop_test,60.11226566738586,
,,,,38.0,2.0,3.0,,,,,,,,,,,,,blau,blue,b,1.0,b,1.0,0.4787573000000975,,,,,,,,,,3.0,2.0,38.0,5.0,302.95697540000015,,,,,,,,,,,,,,,,,302.94132230000014,304.1400840000001,304.9420471000001,304.9262964,,,,,,,,,,,,,,,,,,,,,,,,,,,,,,,,,,,304.932202,304.9420471000001,304.9420471000001,305.4237792000001,b,1.0,0.4787573000000975,,,,,sub-043,1,stroop_test,60.11226566738586,
,,,,39.0,3.0,3.0,,,,,,,,,,,,,rot,red,r,1.0,r,1.0,0.6638975999999275,,,,,,,,,,3.0,3.0,39.0,0.0,305.44066970000017,,,,,,,,,,,,,,,,,305.4240331000001,306.6243009,307.42401670000004,307.40906270000005,,,,,,,,,,,,,,,,,,,,,,,,,,,,,,,,,,,307.4160489000001,307.42401670000004,307.42401670000004,308.0932885,r,1.0,0.6638975999999275,,,,,sub-043,1,stroop_test,60.11226566738586,
,,,,40.0,4.0,3.0,,,,,,,,,,,,,rot,blue,b,0.0,b,1.0,0.8777898000000732,,,,,,,,,,3.0,4.0,40.0,2.0,308.1085143,,,,,,,,,,,,,,,,,308.0942139000001,309.30829570000014,310.10715860000005,310.09169450000013,,,,,,,,,,,,,,,,,,,,,,,,,,,,,,,,,,,310.0928914000001,310.10715860000005,310.10715860000005,310.9927624000002,b,1.0,0.8777898000000732,,,,,sub-043,1,stroop_test,60.11226566738586,
,,,,41.0,5.0,3.0,,,,,,,,,,,,,blau,blue,b,1.0,b,1.0,0.8509414000000106,,,,,,,,,,3.0,5.0,41.0,6.0,311.0079168,,,,,,,,,,,,,,,,,310.99363340000014,311.10766090000016,311.90667940000003,311.89208940000003,,,,,,,,,,,,,,,,,,,,,,,,,,,,,,,,,,,311.898739,311.90667940000003,311.90667940000003,312.7586403,b,1.0,0.8509414000000106,,,,,sub-043,1,stroop_test,60.11226566738586,
,,,,42.0,6.0,3.0,,,,,,,,,,,,,gelb,yellow,g,1.0,g,1.0,0.8974617999999737,,,,,,,,,,3.0,6.0,42.0,11.0,312.7740143000001,,,,,,,,,,,,,,,,,312.7591785,313.55818120000004,314.3722852000001,314.35587970000006,,,,,,,,,,,,,,,,,,,,,,,,,,,,,,,,,,,314.3594657000001,314.3722852000001,314.3722852000001,315.2753938000001,g,1.0,0.8974617999999737,,,,,sub-043,1,stroop_test,60.11226566738586,
,,,,43.0,7.0,3.0,,,,,,,,,,,,,gelb,yellow,g,1.0,g,1.0,0.5494644000000335,,,,,,,,,,3.0,7.0,43.0,10.0,315.29014770000003,,,,,,,,,,,,,,,,,315.2761065,316.07449710000014,316.891075,316.8752807000001,,,,,,,,,,,,,,,,,,,,,,,,,,,,,,,,,,,316.8763444000001,316.891075,316.891075,317.4429861000001,g,1.0,0.5494644000000335,,,,,sub-043,1,stroop_test,60.11226566738586,
,,,,44.0,8.0,3.0,,,,,,,,,,,,,rot,red,r,1.0,r,1.0,1.434155800000099,,,,,,,,,,3.0,8.0,44.0,1.0,317.4564454000001,,,,,,,,,,,,,,,,,317.44386640000016,318.6582032000001,319.4596435000001,319.4419769000001,,,,,,,,,,,,,,,,,,,,,,,,,,,,,,,,,,,319.4505971000001,319.4596435000001,319.4596435000001,320.9085557000001,r,1.0,1.434155800000099,,,,,sub-043,1,stroop_test,60.11226566738586,
,,,,45.0,9.0,3.0,,,,,,,,,,,,,blau,red,r,0.0,r,1.0,1.0119190999998864,,,,,,,,,,3.0,9.0,45.0,4.0,320.92425660000004,,,,,,,,,,,,,,,,,320.9094890000001,321.25753110000005,322.05673420000016,322.0418873000001,,,,,,,,,,,,,,,,,,,,,,,,,,,,,,,,,,,322.04823750000014,322.05673420000016,322.05673420000016,323.0737583,r,1.0,1.0119190999998864,,,,,sub-043,1,stroop_test,60.11226566738586,
,,,,46.0,10.0,3.0,,,,,,,,,,,,,rot,yellow,g,0.0,g,1.0,1.217476399999896,,,,,,,,,,3.0,10.0,46.0,3.0,323.0902472,,,,,,,,,,,,,,,,,323.0745386000001,323.87424340000007,324.67408279999995,324.6576858000001,,,,,,,,,,,,,,,,,,,,,,,,,,,,,,,,,,,324.66586870000015,324.67408279999995,324.67408279999995,325.9068009,g,1.0,1.217476399999896,,,,,sub-043,1,stroop_test,60.11226566738586,
,,,,47.0,11.0,3.0,,,,,,,,,,,,,gelb,blue,b,0.0,b,1.0,0.7803691999999955,,,,,,,,,,3.0,11.0,47.0,9.0,325.92195830000014,,,,,,,,,,,,,,,,,325.90773090000016,326.2729707000001,327.07193170000005,327.0567301000001,,,,,,,,,,,,,,,,,,,,,,,,,,,,,,,,,,,327.0624256000001,327.07193170000005,327.07193170000005,327.85618980000004,b,1.0,0.7803691999999955,,,,,sub-043,1,stroop_test,60.11226566738586,
,,,,48.0,0.0,4.0,,,,,,,,,,,,,rot,red,r,1.0,r,1.0,0.7725834999998824,,,,,,,,,,4.0,0.0,48.0,0.0,327.87170890000016,,,,,,,,,,,,,,,,,327.85676250000006,328.6552428,329.45414370000003,329.4398297,,,,,,,,,,,,,,,,,,,,,,,,,,,,,,,,,,,329.44722420000016,329.45414370000003,329.45414370000003,330.2393532000001,r,1.0,0.7725834999998824,,,,,sub-043,1,stroop_test,60.11226566738586,
,,,,49.0,1.0,4.0,,,,,,,,,,,,,rot,red,r,1.0,r,1.0,0.6768579000001864,,,,,,,,,,4.0,1.0,49.0,1.0,330.25495150000006,,,,,,,,,,,,,,,,,330.2399551000001,331.038624,331.8379371000001,331.8236909,,,,,,,,,,,,,,,,,,,,,,,,,,,,,,,,,,,331.8248813,331.8379371000001,331.8379371000001,332.5220375000001,r,1.0,0.6768579000001864,,,,,sub-043,1,stroop_test,60.11226566738586,
,,,,50.0,2.0,4.0,,,,,,,,,,,,,rot,blue,b,0.0,b,1.0,1.0178613999999016,,,,,,,,,,4.0,2.0,50.0,2.0,332.53768450000007,,,,,,,,,,,,,,,,,332.5226206,332.6370723,333.4386041,333.42123690000017,,,,,,,,,,,,,,,,,,,,,,,,,,,,,,,,,,,333.4219315,333.4386041,333.4386041,334.472481,b,1.0,1.0178613999999016,,,,,sub-043,1,stroop_test,60.11226566738586,
,,,,51.0,3.0,4.0,,,,,,,,,,,,,blau,red,r,0.0,r,1.0,0.7523791999999503,,,,,,,,,,4.0,3.0,51.0,4.0,334.48818240000014,,,,,,,,,,,,,,,,,334.47335840000005,334.5712897000001,335.37107200000014,335.35496030000013,,,,,,,,,,,,,,,,,,,,,,,,,,,,,,,,,,,335.3629898000001,335.37107200000014,335.37107200000014,336.1394979000001,r,1.0,0.7523791999999503,,,,,sub-043,1,stroop_test,60.11226566738586,
,,,,52.0,4.0,4.0,,,,,,,,,,,,,gelb,blue,b,0.0,b,1.0,0.8821007999999892,,,,,,,,,,4.0,4.0,52.0,9.0,336.1552164,,,,,,,,,,,,,,,,,336.1404871,336.48831100000007,337.28763130000016,337.27283480000006,,,,,,,,,,,,,,,,,,,,,,,,,,,,,,,,,,,337.2798226,337.28763130000016,337.28763130000016,338.17259650000005,b,1.0,0.8821007999999892,,,,,sub-043,1,stroop_test,60.11226566738586,
,,,,53.0,5.0,4.0,,,,,,,,,,,,,blau,blue,b,1.0,b,1.0,0.6672347000001082,,,,,,,,,,4.0,5.0,53.0,6.0,338.1878141,,,,,,,,,,,,,,,,,338.1735304000001,338.2879955000001,339.08764110000016,339.07219940000004,,,,,,,,,,,,,,,,,,,,,,,,,,,,,,,,,,,339.0798692000001,339.08764110000016,339.08764110000016,339.75587199999995,b,1.0,0.6672347000001082,,,,,sub-043,1,stroop_test,60.11226566738586,
,,,,54.0,6.0,4.0,,,,,,,,,,,,,gelb,red,r,0.0,r,1.0,0.9783517999999276,,,,,,,,,,4.0,6.0,54.0,8.0,339.7705022,,,,,,,,,,,,,,,,,339.7566494,339.8711716,340.6694650000002,340.6550787000001,,,,,,,,,,,,,,,,,,,,,,,,,,,,,,,,,,,340.6620313000001,340.6694650000002,340.6694650000002,341.65502089999995,r,1.0,0.9783517999999276,,,,,sub-043,1,stroop_test,60.11226566738586,
,,,,55.0,7.0,4.0,,,,,,,,,,,,,gelb,yellow,g,1.0,g,1.0,0.728313000000071,,,,,,,,,,4.0,7.0,55.0,11.0,341.67072340000004,,,,,,,,,,,,,,,,,341.65588230000003,341.7707296000001,342.5699893000001,342.55401500000016,,,,,,,,,,,,,,,,,,,,,,,,,,,,,,,,,,,342.555063,342.5699893000001,342.5699893000001,343.3052023,g,1.0,0.728313000000071,,,,,sub-043,1,stroop_test,60.11226566738586,
,,,,56.0,8.0,4.0,,,,,,,,,,,,,blau,yellow,g,0.0,g,1.0,0.8779892000000018,,,,,,,,,,4.0,8.0,56.0,7.0,343.3196206,,,,,,,,,,,,,,,,,343.30604130000006,344.5204268,345.31983430000014,345.30344520000017,,,,,,,,,,,,,,,,,,,,,,,,,,,,,,,,,,,345.3088948,345.31983430000014,345.31983430000014,346.2050263000001,g,1.0,0.8779892000000018,,,,,sub-043,1,stroop_test,60.11226566738586,
,,,,57.0,9.0,4.0,,,,,,,,,,,,,blau,blue,b,1.0,b,1.0,0.6006095000000187,,,,,,,,,,4.0,9.0,57.0,5.0,346.2206001,,,,,,,,,,,,,,,,,346.2059534,346.3209084,347.11953000000017,347.10425320000013,,,,,,,,,,,,,,,,,,,,,,,,,,,,,,,,,,,347.1054487000001,347.11953000000017,347.11953000000017,347.7219146,b,1.0,0.6006095000000187,,,,,sub-043,1,stroop_test,60.11226566738586,
,,,,58.0,10.0,4.0,,,,,,,,,,,,,rot,yellow,g,0.0,g,1.0,0.8958076000001256,,,,,,,,,,4.0,10.0,58.0,3.0,347.7360625000001,,,,,,,,,,,,,,,,,347.7227908,348.9370503,349.7365397000001,349.7208244000001,,,,,,,,,,,,,,,,,,,,,,,,,,,,,,,,,,,349.7278749,349.7365397000001,349.7365397000001,350.63625530000013,g,1.0,0.8958076000001256,,,,,sub-043,1,stroop_test,60.11226566738586,
,,,,59.0,11.0,4.0,,,,,,,,,,,,,gelb,yellow,g,1.0,g,1.0,0.6579034000001229,,,,,,,,,,4.0,11.0,59.0,10.0,350.6533796000001,,,,,,,,,,,,,,,,,350.6368523000001,350.9872055000001,351.8015865,351.77098810000007,,,,,,,,,,,,,,,,,,,,,,,,,,,,,,,,,,,351.7801522,351.8015865,351.8015865,352.470992,g,1.0,0.6579034000001229,,,,,sub-043,1,stroop_test,60.11226566738586,
,,,,60.0,0.0,5.0,,,,,,,,,,,,,rot,blue,b,0.0,b,1.0,0.8474518000000444,,,,,,,,,,5.0,0.0,60.0,2.0,352.486977,,,,,,,,,,,,,,,,,352.4718709000001,352.82053900000005,353.6404166,353.62133200000017,,,,,,,,,,,,,,,,,,,,,,,,,,,,,,,,,,,353.6310426,353.6404166,353.6404166,354.50194880000004,b,1.0,0.8474518000000444,,,,,sub-043,1,stroop_test,60.11226566738586,
,,,,61.0,1.0,5.0,,,,,,,,,,,,,rot,red,r,1.0,r,1.0,0.7004790999999386,,,,,,,,,,5.0,1.0,61.0,0.0,354.519468,,,,,,,,,,,,,,,,,354.50250260000007,354.6031594000001,355.4026997000001,355.3866035000001,,,,,,,,,,,,,,,,,,,,,,,,,,,,,,,,,,,355.3878668,355.4026997000001,355.4026997000001,356.1041004000001,r,1.0,0.7004790999999386,,,,,sub-043,1,stroop_test,60.11226566738586,
,,,,62.0,2.0,5.0,,,,,,,,,,,,,blau,blue,b,1.0,b,1.0,0.8850624000001517,,,,,,,,,,5.0,2.0,62.0,6.0,356.1181693000001,,,,,,,,,,,,,,,,,356.10495200000014,356.2200719,357.01874220000013,357.00295570000003,,,,,,,,,,,,,,,,,,,,,,,,,,,,,,,,,,,357.0104954000001,357.01874220000013,357.01874220000013,357.91822780000007,b,1.0,0.8850624000001517,,,,,sub-043,1,stroop_test,60.11226566738586,
,,,,63.0,3.0,5.0,,,,,,,,,,,,,blau,red,r,0.0,r,1.0,1.0109910999999556,,,,,,,,,,5.0,3.0,63.0,4.0,357.93440970000006,,,,,,,,,,,,,,,,,357.918848,358.0185001,358.8185740000001,358.80316760000005,,,,,,,,,,,,,,,,,,,,,,,,,,,,,,,,,,,358.8043507,358.8185740000001,358.8185740000001,359.8343966,r,1.0,1.0109910999999556,,,,,sub-043,1,stroop_test,60.11226566738586,
,,,,64.0,4.0,5.0,,,,,,,,,,,,,rot,red,r,1.0,r,1.0,0.8532635999999911,,,,,,,,,,5.0,4.0,64.0,1.0,359.8517670000001,,,,,,,,,,,,,,,,,359.8349438,360.1854598,360.9838572000001,360.9691899000002,,,,,,,,,,,,,,,,,,,,,,,,,,,,,,,,,,,360.9757837,360.9838572000001,360.9838572000001,361.8528309000001,r,1.0,0.8532635999999911,,,,,sub-043,1,stroop_test,60.11226566738586,
,,,,65.0,5.0,5.0,,,,,,,,,,,,,gelb,blue,b,0.0,b,1.0,0.8172062000001006,,,,,,,,,,5.0,5.0,65.0,9.0,361.8680975,,,,,,,,,,,,,,,,,361.8537187000002,361.9689996,362.76742460000014,362.7527075,,,,,,,,,,,,,,,,,,,,,,,,,,,,,,,,,,,362.7601422,362.76742460000014,362.76742460000014,363.585227,b,1.0,0.8172062000001006,,,,,sub-043,1,stroop_test,60.11226566738586,
,,,,66.0,6.0,5.0,,,,,,,,,,,,,blau,blue,b,1.0,b,1.0,0.4474261000000297,,,,,,,,,,5.0,6.0,66.0,5.0,363.6001517,,,,,,,,,,,,,,,,,363.5859302000001,364.3855410000001,365.1832926,365.16899910000006,,,,,,,,,,,,,,,,,,,,,,,,,,,,,,,,,,,365.1739087000001,365.1832926,365.1832926,365.6353825000001,b,1.0,0.4474261000000297,,,,,sub-043,1,stroop_test,60.11226566738586,
,,,,67.0,7.0,5.0,,,,,,,,,,,,,gelb,yellow,g,1.0,g,1.0,0.8633217999999943,,,,,,,,,,5.0,7.0,67.0,11.0,365.6510042,,,,,,,,,,,,,,,,,365.6362805000001,365.7335528000001,366.5328353,366.5186127,,,,,,,,,,,,,,,,,,,,,,,,,,,,,,,,,,,366.5244522,366.5328353,366.5328353,367.4012273000001,g,1.0,0.8633217999999943,,,,,sub-043,1,stroop_test,60.11226566738586,
,,,,68.0,8.0,5.0,,,,,,,,,,,,,rot,yellow,g,0.0,g,1.0,0.6710654000000886,,,,,,,,,,5.0,8.0,68.0,3.0,367.4162165,,,,,,,,,,,,,,,,,367.40178190000006,368.6007406000001,369.39903490000006,369.3836683,,,,,,,,,,,,,,,,,,,,,,,,,,,,,,,,,,,369.3884186,369.39903490000006,369.39903490000006,370.08189600000014,g,1.0,0.6710654000000886,,,,,sub-043,1,stroop_test,60.11226566738586,
,,,,69.0,9.0,5.0,,,,,,,,,,,,,gelb,red,r,0.0,r,1.0,0.8312349000000268,,,,,,,,,,5.0,9.0,69.0,8.0,370.0982917000001,,,,,,,,,,,,,,,,,370.08213220000016,370.1821956000001,370.98153790000015,370.9654795000001,,,,,,,,,,,,,,,,,,,,,,,,,,,,,,,,,,,370.9678936,370.98153790000015,370.98153790000015,371.8170397000001,r,1.0,0.8312349000000268,,,,,sub-043,1,stroop_test,60.11226566738586,
,,,,70.0,10.0,5.0,,,,,,,,,,,,,blau,yellow,g,0.0,g,1.0,0.7146754000000328,,,,,,,,,,5.0,10.0,70.0,7.0,371.8330780000001,,,,,,,,,,,,,,,,,371.81782840000005,372.6328160000001,373.432493,373.4179515000001,,,,,,,,,,,,,,,,,,,,,,,,,,,,,,,,,,,373.4237254,373.432493,373.432493,374.15109860000007,g,1.0,0.7146754000000328,,,,,sub-043,1,stroop_test,60.11226566738586,
,,,,71.0,11.0,5.0,,,,,,,,,,,,,gelb,yellow,g,1.0,g,1.0,0.5803007000001799,,,,,,,,,,5.0,11.0,71.0,10.0,374.1652715,,,,,,,,,,,,,,,,,374.1516866000002,374.26643450000006,375.0672637,375.0504567,,,,,,,,,,,,,,,,,,,,,,,,,,,,,,,,,,,375.05895350000014,375.0672637,375.0672637,375.6504461,g,1.0,0.5803007000001799,,,,,sub-043,1,stroop_test,60.11226566738586,
,,,,72.0,0.0,6.0,,,,,,,,,,,,,blau,blue,b,1.0,b,1.0,0.5179924999999912,,,,,,,,,,6.0,0.0,72.0,5.0,375.6654328,,,,,,,,,,,,,,,,,375.6513337000001,376.8502796,377.65123990000006,377.6345119,,,,,,,,,,,,,,,,,,,,,,,,,,,,,,,,,,,377.6435827,377.65123990000006,377.65123990000006,378.18293630000016,b,1.0,0.5179924999999912,,,,,sub-043,1,stroop_test,60.11226566738586,
,,,,73.0,1.0,6.0,,,,,,,,,,,,,blau,red,r,0.0,r,1.0,0.7102689999999257,,,,,,,,,,6.0,1.0,73.0,4.0,378.19898250000006,,,,,,,,,,,,,,,,,378.1837167000001,378.9822336,379.78161610000006,379.76778950000016,,,,,,,,,,,,,,,,,,,,,,,,,,,,,,,,,,,379.76894990000005,379.78161610000006,379.78161610000006,380.4990508000001,r,1.0,0.7102689999999257,,,,,sub-043,1,stroop_test,60.11226566738586,
,,,,74.0,2.0,6.0,,,,,,,,,,,,,gelb,blue,b,0.0,b,1.0,0.6728421999998773,,,,,,,,,,6.0,2.0,74.0,9.0,380.5164181,,,,,,,,,,,,,,,,,380.4996044,381.2993282,382.1015804000001,382.0837951000001,,,,,,,,,,,,,,,,,,,,,,,,,,,,,,,,,,,382.0951912,382.1015804000001,382.1015804000001,382.7836393,b,1.0,0.6728421999998773,,,,,sub-043,1,stroop_test,60.11226566738586,
,,,,75.0,3.0,6.0,,,,,,,,,,,,,rot,yellow,g,0.0,r,0.0,1.0399641999999858,,,,,,,,,,6.0,3.0,75.0,3.0,382.79787610000017,,,,,,,,,,,,,,,,,382.7845436,383.5987223,384.4134568,384.3983553000001,,,,,,,,,,,,,,,,,,,,,,,,,,,,,,,,,,,384.4024343000001,384.4134568,384.4134568,385.46637550000014,r,0.0,1.0399641999999858,,,,,sub-043,1,stroop_test,60.11226566738586,
,,,,76.0,4.0,6.0,,,,,,,,,,,,,blau,yellow,g,0.0,g,1.0,0.993337899999915,,,,,,,,,,6.0,4.0,76.0,7.0,385.4818683000001,,,,,,,,,,,,,,,,,385.46725420000007,386.681513,387.4802118,387.4642725000001,,,,,,,,,,,,,,,,,,,,,,,,,,,,,,,,,,,387.4691543000001,387.4802118,387.4802118,388.4824963000001,g,1.0,0.993337899999915,,,,,sub-043,1,stroop_test,60.11226566738586,
,,,,77.0,5.0,6.0,,,,,,,,,,,,,rot,red,r,1.0,r,1.0,0.8513336000000891,,,,,,,,,,6.0,5.0,77.0,1.0,388.4984214000001,,,,,,,,,,,,,,,,,388.483193,388.59801430000016,389.4138125,389.3981710000001,,,,,,,,,,,,,,,,,,,,,,,,,,,,,,,,,,,389.4037979,389.4138125,389.4138125,390.28113040000017,r,1.0,0.8513336000000891,,,,,sub-043,1,stroop_test,60.11226566738586,
,,,,78.0,6.0,6.0,,,,,,,,,,,,,gelb,red,r,0.0,r,1.0,1.1851442000001953,,,,,,,,,,6.0,6.0,78.0,8.0,390.2973674,,,,,,,,,,,,,,,,,390.2821255000001,390.3809903000001,391.1808906000001,391.1655077,,,,,,,,,,,,,,,,,,,,,,,,,,,,,,,,,,,391.1741368,391.1808906000001,391.1808906000001,392.3800997000001,r,1.0,1.1851442000001953,,,,,sub-043,1,stroop_test,60.11226566738586,
,,,,79.0,7.0,6.0,,,,,,,,,,,,,blau,blue,b,1.0,b,1.0,0.7180686000001515,,,,,,,,,,6.0,7.0,79.0,6.0,392.3964374,,,,,,,,,,,,,,,,,392.38029530000017,392.4803446000001,393.28164620000007,393.2650791000001,,,,,,,,,,,,,,,,,,,,,,,,,,,,,,,,,,,393.2714337,393.28164620000007,393.28164620000007,394.0152065,b,1.0,0.7180686000001515,,,,,sub-043,1,stroop_test,60.11226566738586,
,,,,80.0,8.0,6.0,,,,,,,,,,,,,gelb,yellow,g,1.0,g,1.0,0.888284399999975,,,,,,,,,,6.0,8.0,80.0,11.0,394.03173360000005,,,,,,,,,,,,,,,,,394.0160667,395.2138850000001,396.0125892000001,395.9982514000001,,,,,,,,,,,,,,,,,,,,,,,,,,,,,,,,,,,396.0046089,396.0125892000001,396.0125892000001,396.9147995000001,g,1.0,0.888284399999975,,,,,sub-043,1,stroop_test,60.11226566738586,
,,,,81.0,9.0,6.0,,,,,,,,,,,,,rot,red,r,1.0,r,1.0,0.6852934999999434,,,,,,,,,,6.0,9.0,81.0,0.0,396.93096850000006,,,,,,,,,,,,,,,,,396.9157043,398.11357440000006,398.91331260000015,398.8979094000001,,,,,,,,,,,,,,,,,,,,,,,,,,,,,,,,,,,398.9068917,398.91331260000015,398.91331260000015,399.6118381000001,r,1.0,0.6852934999999434,,,,,sub-043,1,stroop_test,60.11226566738586,
,,,,82.0,10.0,6.0,,,,,,,,,,,,,rot,blue,b,0.0,b,1.0,0.7131025000001046,,,,,,,,,,6.0,10.0,82.0,2.0,399.62889080000014,,,,,,,,,,,,,,,,,399.6121255000001,400.8124332,401.6130920000001,401.5973123000001,,,,,,,,,,,,,,,,,,,,,,,,,,,,,,,,,,,401.598538,401.6130920000001,401.6130920000001,402.3279011,b,1.0,0.7131025000001046,,,,,sub-043,1,stroop_test,60.11226566738586,
,,,,83.0,11.0,6.0,,,,,,,,,,,,,gelb,yellow,g,1.0,g,1.0,0.7580722000000151,,,,,,,,,,6.0,11.0,83.0,10.0,402.3442436,,,,,,,,,,,,,,,,,402.32818280000015,402.4280698,403.22740940000017,403.210977,,,,,,,,,,,,,,,,,,,,,,,,,,,,,,,,,,,403.2131286000001,403.22740940000017,403.22740940000017,403.9943166000001,g,1.0,0.7580722000000151,,,,,sub-043,1,stroop_test,60.11226566738586,
,,,,84.0,0.0,7.0,,,,,,,,,,,,,blau,yellow,g,0.0,g,1.0,0.8486864999999852,,,,,,,,,,7.0,0.0,84.0,7.0,404.0108095000001,,,,,,,,,,,,,,,,,403.9945452000002,404.3462459,405.1609219,405.1445940000001,,,,,,,,,,,,,,,,,,,,,,,,,,,,,,,,,,,405.14697650000016,405.1609219,405.1609219,406.0134868,g,1.0,0.8486864999999852,,,,,sub-043,1,stroop_test,60.11226566738586,
,,,,85.0,1.0,7.0,,,,,,,,,,,,,gelb,yellow,g,1.0,g,1.0,0.6360948000001372,,,,,,,,,,7.0,1.0,85.0,10.0,406.0286823000001,,,,,,,,,,,,,,,,,406.01427020000006,406.37717040000007,407.1783514000001,407.16246120000005,,,,,,,,,,,,,,,,,,,,,,,,,,,,,,,,,,,407.1687118,407.1783514000001,407.1783514000001,407.8294461,g,1.0,0.6360948000001372,,,,,sub-043,1,stroop_test,60.11226566738586,
,,,,86.0,2.0,7.0,,,,,,,,,,,,,rot,yellow,g,0.0,g,1.0,0.5855524999999489,,,,,,,,,,7.0,2.0,86.0,3.0,407.8460050000001,,,,,,,,,,,,,,,,,407.83032590000016,409.029166,409.8280923,409.8137073,,,,,,,,,,,,,,,,,,,,,,,,,,,,,,,,,,,409.8201532000001,409.8280923,409.8280923,410.4285719,g,1.0,0.5855524999999489,,,,,sub-043,1,stroop_test,60.11226566738586,
,,,,87.0,3.0,7.0,,,,,,,,,,,,,rot,blue,b,0.0,b,1.0,0.6978429999999207,,,,,,,,,,7.0,3.0,87.0,2.0,410.44432270000016,,,,,,,,,,,,,,,,,410.42926120000016,410.5287899,411.32753620000017,411.3129034000001,,,,,,,,,,,,,,,,,,,,,,,,,,,,,,,,,,,411.31408120000015,411.32753620000017,411.32753620000017,412.0290652000001,b,1.0,0.6978429999999207,,,,,sub-043,1,stroop_test,60.11226566738586,
,,,,88.0,4.0,7.0,,,,,,,,,,,,,gelb,blue,b,0.0,b,1.0,0.4566881000000649,,,,,,,,,,7.0,4.0,88.0,9.0,412.0446152,,,,,,,,,,,,,,,,,412.0299400000001,412.82827710000015,413.6277928,413.6126153,,,,,,,,,,,,,,,,,,,,,,,,,,,,,,,,,,,413.6211332,413.6277928,413.6277928,414.0960592000001,b,1.0,0.4566881000000649,,,,,sub-043,1,stroop_test,60.11226566738586,
,,,,89.0,5.0,7.0,,,,,,,,,,,,,blau,blue,b,1.0,b,1.0,0.6241665000000012,,,,,,,,,,7.0,5.0,89.0,5.0,414.1122156000001,,,,,,,,,,,,,,,,,414.0970184,415.3112996,416.1099098,416.09431110000014,,,,,,,,,,,,,,,,,,,,,,,,,,,,,,,,,,,416.09727040000007,416.1099098,416.1099098,416.7460219,b,1.0,0.6241665000000012,,,,,sub-043,1,stroop_test,60.11226566738586,
,,,,90.0,6.0,7.0,,,,,,,,,,,,,gelb,yellow,g,1.0,g,1.0,0.6949853999999505,,,,,,,,,,7.0,6.0,90.0,11.0,416.7610318,,,,,,,,,,,,,,,,,416.74681780000014,416.8611208,417.6602765,417.6451899000001,,,,,,,,,,,,,,,,,,,,,,,,,,,,,,,,,,,417.6524944,417.6602765,417.6602765,418.36136520000014,g,1.0,0.6949853999999505,,,,,sub-043,1,stroop_test,60.11226566738586,
,,,,91.0,7.0,7.0,,,,,,,,,,,,,blau,red,r,0.0,r,1.0,0.6697658000000501,,,,,,,,,,7.0,7.0,91.0,4.0,418.3774742000001,,,,,,,,,,,,,,,,,418.3623213000001,418.46117560000016,419.2593730000001,419.2451993,,,,,,,,,,,,,,,,,,,,,,,,,,,,,,,,,,,419.24957100000006,419.2593730000001,419.2593730000001,419.94367150000016,r,1.0,0.6697658000000501,,,,,sub-043,1,stroop_test,60.11226566738586,
,,,,92.0,8.0,7.0,,,,,,,,,,,,,blau,blue,b,1.0,b,1.0,0.572873300000083,,,,,,,,,,7.0,8.0,92.0,6.0,419.9608676,,,,,,,,,,,,,,,,,419.9442262,420.7451612,421.5430662000001,421.5287330000001,,,,,,,,,,,,,,,,,,,,,,,,,,,,,,,,,,,421.53008880000016,421.5430662000001,421.5430662000001,422.12876530000017,b,1.0,0.572873300000083,,,,,sub-043,1,stroop_test,60.11226566738586,
,,,,93.0,9.0,7.0,,,,,,,,,,,,,rot,red,r,1.0,r,1.0,0.6976763000000119,,,,,,,,,,7.0,9.0,93.0,1.0,422.1448666000001,,,,,,,,,,,,,,,,,422.1297985000001,422.2262568000001,423.0254838000001,423.0105303,,,,,,,,,,,,,,,,,,,,,,,,,,,,,,,,,,,423.0163894,423.0254838000001,423.0254838000001,423.72760770000014,r,1.0,0.6976763000000119,,,,,sub-043,1,stroop_test,60.11226566738586,
,,,,94.0,10.0,7.0,,,,,,,,,,,,,rot,red,r,1.0,r,1.0,0.7174858000000768,,,,,,,,,,7.0,10.0,94.0,0.0,423.7433349,,,,,,,,,,,,,,,,,423.7284674,424.9444559000001,425.7425957,425.72793160000015,,,,,,,,,,,,,,,,,,,,,,,,,,,,,,,,,,,425.7291671,425.7425957,425.7425957,426.47796140000014,r,1.0,0.7174858000000768,,,,,sub-043,1,stroop_test,60.11226566738586,
,,,,95.0,11.0,7.0,,,,,,,,,,,,,gelb,red,r,0.0,r,1.0,0.7695826000001489,,,,,,,,,,7.0,11.0,95.0,8.0,426.49308800000017,,,,,,,,,,,,,,,,,426.47881860000007,426.57605280000007,427.37540490000015,427.36023610000007,,,,,,,,,,,,,,,,,,,,,,,,,,,,,,,,,,,427.3671838,427.37540490000015,427.37540490000015,428.16004480000015,r,1.0,0.7695826000001489,,,,,sub-043,1,stroop_test,60.11226566738586,
,,,,96.0,0.0,8.0,,,,,,,,,,,,,blau,blue,b,1.0,b,1.0,0.573621600000024,,,,,,,,,,8.0,0.0,96.0,6.0,428.1759773000001,,,,,,,,,,,,,,,,,428.1608016,428.95998570000006,429.7591159000001,429.7440015,,,,,,,,,,,,,,,,,,,,,,,,,,,,,,,,,,,429.7527562,429.7591159000001,429.7591159000001,430.3424308000001,b,1.0,0.573621600000024,,,,,sub-043,1,stroop_test,60.11226566738586,
,,,,97.0,1.0,8.0,,,,,,,,,,,,,rot,red,r,1.0,r,1.0,0.7462031000000025,,,,,,,,,,8.0,1.0,97.0,0.0,430.35980970000014,,,,,,,,,,,,,,,,,430.3429936,431.1425792,431.94269340000005,431.9262682000001,,,,,,,,,,,,,,,,,,,,,,,,,,,,,,,,,,,431.9350429000001,431.94269340000005,431.94269340000005,432.69314410000015,r,1.0,0.7462031000000025,,,,,sub-043,1,stroop_test,60.11226566738586,
,,,,98.0,2.0,8.0,,,,,,,,,,,,,gelb,red,r,0.0,r,1.0,0.8410158000001502,,,,,,,,,,8.0,2.0,98.0,8.0,432.70916510000006,,,,,,,,,,,,,,,,,432.69402860000014,432.7927770000001,433.5917858,433.5779034,,,,,,,,,,,,,,,,,,,,,,,,,,,,,,,,,,,433.5845386000001,433.5917858,433.5917858,434.4431956000001,r,1.0,0.8410158000001502,,,,,sub-043,1,stroop_test,60.11226566738586,
,,,,99.0,3.0,8.0,,,,,,,,,,,,,gelb,yellow,g,1.0,g,1.0,0.7724754999999277,,,,,,,,,,8.0,3.0,99.0,11.0,434.4587597,,,,,,,,,,,,,,,,,434.44405470000015,435.6565833,436.4575185000001,436.44018430000006,,,,,,,,,,,,,,,,,,,,,,,,,,,,,,,,,,,436.4405198000002,436.4575185000001,436.4575185000001,437.240413,g,1.0,0.7724754999999277,,,,,sub-043,1,stroop_test,60.11226566738586,
,,,,100.0,4.0,8.0,,,,,,,,,,,,,blau,blue,b,1.0,b,1.0,0.5658905000000232,,,,,,,,,,8.0,4.0,100.0,5.0,437.2575319,,,,,,,,,,,,,,,,,437.2407232000001,438.43956950000006,439.2413528,439.22507970000015,,,,,,,,,,,,,,,,,,,,,,,,,,,,,,,,,,,439.23105210000017,439.2413528,439.2413528,439.81083980000017,b,1.0,0.5658905000000232,,,,,sub-043,1,stroop_test,60.11226566738586,
,,,,101.0,5.0,8.0,,,,,,,,,,,,,rot,blue,b,0.0,b,1.0,0.684153699999797,,,,,,,,,,8.0,5.0,101.0,2.0,439.82474620000016,,,,,,,,,,,,,,,,,439.8116934,440.1746243,440.97372310000014,440.957854,,,,,,,,,,,,,,,,,,,,,,,,,,,,,,,,,,,440.96463530000005,440.97372310000014,440.97372310000014,441.6614379,b,1.0,0.684153699999797,,,,,sub-043,1,stroop_test,60.11226566738586,
,,,,102.0,6.0,8.0,,,,,,,,,,,,,blau,red,r,0.0,r,1.0,0.7954795999999078,,,,,,,,,,8.0,6.0,102.0,4.0,441.6739752000001,,,,,,,,,,,,,,,,,441.6623134000001,441.7738219,442.57291140000007,442.5580861000001,,,,,,,,,,,,,,,,,,,,,,,,,,,,,,,,,,,442.5640043000001,442.57291140000007,442.57291140000007,443.37416200000007,r,1.0,0.7954795999999078,,,,,sub-043,1,stroop_test,60.11226566738586,
,,,,103.0,7.0,8.0,,,,,,,,,,,,,gelb,yellow,g,1.0,g,1.0,0.6839037000002008,,,,,,,,,,8.0,7.0,103.0,10.0,443.39203710000015,,,,,,,,,,,,,,,,,443.3748694000001,443.72436660000017,444.5229174000001,444.5070949000001,,,,,,,,,,,,,,,,,,,,,,,,,,,,,,,,,,,444.5129872,444.5229174000001,444.5229174000001,445.20954000000006,g,1.0,0.6839037000002008,,,,,sub-043,1,stroop_test,60.11226566738586,
,,,,104.0,8.0,8.0,,,,,,,,,,,,,rot,yellow,g,0.0,g,1.0,0.9975085999999465,,,,,,,,,,8.0,8.0,104.0,3.0,445.22298590000014,,,,,,,,,,,,,,,,,445.2101427,445.5579789000001,446.35891620000007,446.3420900000001,,,,,,,,,,,,,,,,,,,,,,,,,,,,,,,,,,,446.3506625,446.35891620000007,446.35891620000007,447.35702630000014,g,1.0,0.9975085999999465,,,,,sub-043,1,stroop_test,60.11226566738586,
,,,,105.0,9.0,8.0,,,,,,,,,,,,,gelb,blue,b,0.0,b,1.0,0.6041540999999597,,,,,,,,,,8.0,9.0,105.0,9.0,447.3732909,,,,,,,,,,,,,,,,,447.3576277,447.45709540000007,448.2570489,448.2413325,,,,,,,,,,,,,,,,,,,,,,,,,,,,,,,,,,,448.24887550000017,448.2570489,448.2570489,448.8747629,b,1.0,0.6041540999999597,,,,,sub-043,1,stroop_test,60.11226566738586,
,,,,106.0,10.0,8.0,,,,,,,,,,,,,rot,red,r,1.0,r,1.0,0.6530138000000534,,,,,,,,,,8.0,10.0,106.0,1.0,448.8897200000001,,,,,,,,,,,,,,,,,448.8756181000001,449.67397300000016,450.4741294,450.45746770000005,,,,,,,,,,,,,,,,,,,,,,,,,,,,,,,,,,,450.4661096,450.4741294,450.4741294,451.1397479,r,1.0,0.6530138000000534,,,,,sub-043,1,stroop_test,60.11226566738586,
,,,,107.0,11.0,8.0,,,,,,,,,,,,,blau,yellow,g,0.0,g,1.0,0.6611384000000271,,,,,,,,,,8.0,11.0,107.0,7.0,451.15534120000007,,,,,,,,,,,,,,,,,451.14015540000014,452.34078280000017,453.1391341000001,453.1238092000001,,,,,,,,,,,,,,,,,,,,,,,,,,,,,,,,,,,453.1311999,453.1391341000001,453.1391341000001,453.80877350000014,g,1.0,0.6611384000000271,,,,,sub-043,1,stroop_test,60.11226566738586,
,,,,108.0,0.0,9.0,,,,,,,,,,,,,rot,red,r,1.0,r,1.0,0.5743416000000252,,,,,,,,,,9.0,0.0,108.0,1.0,453.8243671,,,,,,,,,,,,,,,,,453.8098024000001,454.6232461,455.4222023,455.4062635,,,,,,,,,,,,,,,,,,,,,,,,,,,,,,,,,,,455.4119205,455.4222023,455.4222023,456.0073440000001,r,1.0,0.5743416000000252,,,,,sub-043,1,stroop_test,60.11226566738586,
,,,,109.0,1.0,9.0,,,,,,,,,,,,,gelb,yellow,g,1.0,g,1.0,1.0474633999999696,,,,,,,,,,9.0,1.0,109.0,10.0,456.02174090000017,,,,,,,,,,,,,,,,,456.0079581,456.3560144000001,457.1578876000001,457.1409635,,,,,,,,,,,,,,,,,,,,,,,,,,,,,,,,,,,457.15085010000007,457.1578876000001,457.1578876000001,458.2233276000002,g,1.0,1.0474633999999696,,,,,sub-043,1,stroop_test,60.11226566738586,
,,,,110.0,2.0,9.0,,,,,,,,,,,,,rot,yellow,g,0.0,g,1.0,0.635701600000175,,,,,,,,,,9.0,2.0,110.0,3.0,458.2388078000001,,,,,,,,,,,,,,,,,458.2238657,458.5733662,459.3871843000002,459.3711013,,,,,,,,,,,,,,,,,,,,,,,,,,,,,,,,,,,459.3748032000001,459.3871843000002,459.3871843000002,460.02381220000007,g,1.0,0.635701600000175,,,,,sub-043,1,stroop_test,60.11226566738586,
,,,,111.0,3.0,9.0,,,,,,,,,,,,,blau,red,r,0.0,b,0.0,0.6897348999998485,,,,,,,,,,9.0,3.0,111.0,4.0,460.03875370000014,,,,,,,,,,,,,,,,,460.0246906,460.12265090000005,460.9212242000001,460.9058387,,,,,,,,,,,,,,,,,,,,,,,,,,,,,,,,,,,460.91204800000014,460.9212242000001,460.9212242000001,461.6238006000001,b,0.0,0.6897348999998485,,,,,sub-043,1,stroop_test,60.11226566738586,
,,,,112.0,4.0,9.0,,,,,,,,,,,,,rot,blue,b,0.0,b,1.0,1.417625100000123,,,,,,,,,,9.0,4.0,112.0,2.0,461.6377869,,,,,,,,,,,,,,,,,461.6244093,461.7397657000001,462.55412120000005,462.53879000000006,,,,,,,,,,,,,,,,,,,,,,,,,,,,,,,,,,,462.5439209000001,462.55412120000005,462.55412120000005,463.9736025,b,1.0,1.417625100000123,,,,,sub-043,1,stroop_test,60.11226566738586,
,,,,113.0,5.0,9.0,,,,,,,,,,,,,blau,yellow,g,0.0,g,1.0,0.8524995000000217,,,,,,,,,,9.0,5.0,113.0,7.0,463.98796990000005,,,,,,,,,,,,,,,,,463.9744912000001,465.1887326000001,465.9875602,465.9732441000001,,,,,,,,,,,,,,,,,,,,,,,,,,,,,,,,,,,465.9800455,465.9875602,465.9875602,466.8554569,g,1.0,0.8524995000000217,,,,,sub-043,1,stroop_test,60.11226566738586,
,,,,114.0,6.0,9.0,,,,,,,,,,,,,gelb,blue,b,0.0,b,1.0,0.9965678999999454,,,,,,,,,,9.0,6.0,114.0,9.0,466.8703958000001,,,,,,,,,,,,,,,,,466.8560097,467.2041801,468.003972,467.9891783000001,,,,,,,,,,,,,,,,,,,,,,,,,,,,,,,,,,,467.9964556,468.003972,468.003972,469.0038387,b,1.0,0.9965678999999454,,,,,sub-043,1,stroop_test,60.11226566738586,
,,,,115.0,7.0,9.0,,,,,,,,,,,,,gelb,red,r,0.0,r,1.0,0.913079899999957,,,,,,,,,,9.0,7.0,115.0,8.0,469.01924010000016,,,,,,,,,,,,,,,,,469.00407700000005,469.3689322,470.16907830000014,470.1526982,,,,,,,,,,,,,,,,,,,,,,,,,,,,,,,,,,,470.1530471000001,470.16907830000014,470.16907830000014,471.0866877000001,r,1.0,0.913079899999957,,,,,sub-043,1,stroop_test,60.11226566738586,
,,,,116.0,8.0,9.0,,,,,,,,,,,,,blau,blue,b,1.0,b,1.0,0.9915344000000914,,,,,,,,,,9.0,8.0,116.0,5.0,471.1022359000001,,,,,,,,,,,,,,,,,471.0870397000001,471.8864423,472.6859559,472.67187290000015,,,,,,,,,,,,,,,,,,,,,,,,,,,,,,,,,,,472.6777314000001,472.6859559,472.6859559,473.6870317,b,1.0,0.9915344000000914,,,,,sub-043,1,stroop_test,60.11226566738586,
,,,,117.0,9.0,9.0,,,,,,,,,,,,,blau,blue,b,1.0,b,1.0,1.2519115999998576,,,,,,,,,,9.0,9.0,117.0,6.0,473.704475,,,,,,,,,,,,,,,,,473.6876212,474.48732370000016,475.2866738,475.2711263000001,,,,,,,,,,,,,,,,,,,,,,,,,,,,,,,,,,,475.2721513000001,475.2866738,475.2866738,476.5537139000001,b,1.0,1.2519115999998576,,,,,sub-043,1,stroop_test,60.11226566738586,
,,,,118.0,10.0,9.0,,,,,,,,,,,,,rot,red,r,1.0,r,1.0,0.6531772999999248,,,,,,,,,,9.0,10.0,118.0,0.0,476.5709518000001,,,,,,,,,,,,,,,,,476.55447790000017,477.7536026,478.5525557000001,478.5377567000001,,,,,,,,,,,,,,,,,,,,,,,,,,,,,,,,,,,478.54486540000016,478.5525557000001,478.5525557000001,479.2209324,r,1.0,0.6531772999999248,,,,,sub-043,1,stroop_test,60.11226566738586,
,,,,119.0,11.0,9.0,,,,,,,,,,,,,gelb,yellow,g,1.0,g,1.0,0.6560549999999239,,,,,,,,,,9.0,11.0,119.0,11.0,479.2354742,,,,,,,,,,,,,,,,,479.2217425000001,479.5689318,480.36865480000006,480.35476370000015,,,,,,,,,,,,,,,,,,,,,,,,,,,,,,,,,,,480.36105900000007,480.36865480000006,480.36865480000006,481.03440020000016,g,1.0,0.6560549999999239,,,,,sub-043,1,stroop_test,60.11226566738586,
,,,,,,,,,,,,,,,,,,,,,,,,,,,,,,,,,,,,,,,,,,,,,,,,,,,,,,,,,,,,,,,,,,,,,,,,,,,,,,,,,,,,,,,,,,,,,,,,,,,,,,481.0345009,481.0506659,486.0359443,sub-043,1,stroop_test,60.11226566738586,
