direction,corrAns,thisN,thisTrialN,thisRepN,respDots.keys,respDots.corr,respDots.rt,respDots.duration,randomInstr,respRandomInstr.keys,respRandomInstr.rt,respRandomInstr.duration,practice_trials.thisRepN,practice_trials.thisTrialN,practice_trials.thisN,practice_trials.thisIndex,instr_trials.thisRepN,instr_trials.thisTrialN,instr_trials.thisN,instr_trials.thisIndex,test_trials.thisRepN,test_trials.thisTrialN,test_trials.thisN,test_trials.thisIndex,thisRow.t,notes,general_instruction.started,textGeneralInstr.started,respGeneralInstr.started,general_instruction.stopped,respGeneralInstr.keys,respGeneralInstr.rt,respGeneralInstr.duration,ITI.started,fixcross.started,fixcross.stopped,ITI.stopped,dots.started,backgroundDots.started,stimulusDots.started,respDots.started,dots.stopped,practice_trials.respDots.keys,practice_trials.respDots.corr,practice_trials.respDots.rt,practice_trials.respDots.duration,feedback.started,textFeedback.started,feedback.stopped,textFeedback.stopped,stimulusDots.stopped,info.started,textInfo.started,keyRespInfo.started,info.stopped,keyRespInfo.keys,keyRespInfo.rt,keyRespInfo.duration,test_instruction.started,textTestInstr.started,respTestInstr.started,test_instruction.stopped,respTestInstr.keys,respTestInstr.rt,respTestInstr.duration,random_instruction.started,textRandomInstr.started,respRandomInstr.started,random_instruction.stopped,instr_trials.respRandomInstr.keys,instr_trials.respRandomInstr.rt,instr_trials.respRandomInstr.duration,test_trials.respDots.keys,test_trials.respDots.corr,test_trials.respDots.rt,test_trials.respDots.duration,goodbye.started,textGoodbye.started,goodbye.stopped,participant,session,expName,frameRate,Unnamed: 87
,,,,,,,,,,,,,,,,,,,,,,,,,,,0.0124434600002132,0.0357298179878853,0.0357298179878853,13.690710595998098,space,13.513067193998722,,,,,,,,,,,,,,,,,,,,,,,,,,,,,,,,,,,,,,,,,,,,,,,,sub-223,1,random_dot,61.09310632686622,
right,right,0.0,0.0,0.0,right,1.0,4.406617139989976,,,,,,0.0,0.0,0.0,1.0,,,,,,,,,13.72120139299659,,,,,,,,,13.708569196998724,13.794226429992705,14.599982003986952,14.57831482499023,14.578784203986288,14.599982003986952,14.599982003986952,14.599982003986952,19.01222135599528,right,1.0,4.406617139989976,,19.01732817098673,19.05520470699412,19.527598307991862,,,,,,,,,,,,,,,,,,,,,,,,,,,,,,,sub-223,1,random_dot,61.09310632686622,
left,left,1.0,1.0,0.0,left,1.0,1.1195090699911816,,,,,,0.0,1.0,1.0,0.0,,,,,,,,,19.54426103598962,,,,,,,,,19.527941251988523,19.627662836996024,20.42761417599104,20.4110533669882,20.41152903198963,20.42761417599104,20.42761417599104,20.42761417599104,21.561714255993135,left,1.0,1.1195090699911816,,21.561814829998184,21.5771167089988,22.06123368800036,22.077508667993243,,,,,,,,,,,,,,,,,,,,,,,,,,,,,,sub-223,1,random_dot,61.09310632686622,
right,right,2.0,0.0,1.0,right,1.0,1.160170121002011,,,,,,1.0,0.0,2.0,1.0,,,,,,,,,22.077508667993243,,,,,,,,,22.06162997499632,22.86081574499258,23.66088414199476,23.644557883992093,23.64499279599113,23.66088414199476,23.66088414199476,23.66088414199476,24.828952184994705,right,1.0,1.160170121002011,,24.82905560299696,24.844214287993964,25.327725286988425,25.344086640994647,,,,,,,,,,,,,,,,,,,,,,,,,,,,,,sub-223,1,random_dot,61.09310632686622,
left,left,3.0,1.0,1.0,left,1.0,1.4673281840077834,,,,,,1.0,1.0,3.0,0.0,,,,,,,,,25.344086640994647,,,,,,,,,25.32812029198976,26.144947417997173,26.944051089987624,26.927768626992474,26.92821581898897,26.944051089987624,26.944051089987624,26.944051089987624,28.428270156000508,left,1.0,1.4673281840077834,,28.42836274899309,28.443765223986706,28.92771048899158,28.94404226599727,,,,,,,,,,,,,,,,,,,,,,,,,,,,,,sub-223,1,random_dot,61.09310632686622,
right,right,4.0,0.0,2.0,right,1.0,1.0592474850127471,,,,,,2.0,0.0,4.0,1.0,,,,,,,,,28.94404226599727,,,,,,,,,28.928112000998222,29.0274198249972,29.82727362899459,29.81101510899316,29.81158204098756,29.82727362899459,29.82727362899459,29.82727362899459,30.895123522990616,right,1.0,1.0592474850127471,,30.895215191994797,30.91030862698972,31.39438521399279,31.410656986990944,,,,,,,,,,,,,,,,,,,,,,,,,,,,,,sub-223,1,random_dot,61.09310632686622,
left,left,5.0,1.0,2.0,left,1.0,0.8136015400086762,,,,,,2.0,1.0,5.0,0.0,,,,,,,,,31.410656986990944,,,,,,,,,31.39478682499612,32.21037675499974,33.0107530719979,32.99444163199223,32.99477629798639,33.0107530719979,33.0107530719979,33.0107530719979,33.82841982699756,left,1.0,0.8136015400086762,,33.828518733993405,33.84367625598679,34.327522898995085,34.343959938996704,,,,,,,,,,,,,,,,,,,,,,,,,,,,,,sub-223,1,random_dot,61.09310632686622,
left,left,6.0,0.0,3.0,right,0.0,0.8922826810012339,,,,,,3.0,0.0,6.0,0.0,,,,,,,,,34.343959938996704,,,,,,,,,34.3278141089977,34.694055669999216,35.494070452987216,35.4774758029962,35.47781190898968,35.494070452987216,35.494070452987216,35.494070452987216,36.39484547299799,right,0.0,0.8922826810012339,,36.39918972599844,36.41291089898732,36.910842610988766,,,,,,,,,,,,,,,,,,,,,,,,,,,,,,,sub-223,1,random_dot,61.09310632686622,
right,right,7.0,1.0,3.0,left,0.0,2.087798342006863,,,,,,3.0,1.0,7.0,1.0,,,,,,,,,36.92733260999376,,,,,,,,,36.91129610699136,36.99388474899752,37.79409404798935,37.777497016999405,37.77783229899069,37.79409404798935,37.79409404798935,37.79409404798935,39.89513127898681,left,0.0,2.087798342006863,,39.895230444992194,39.91029776199139,40.394237034997786,40.41064975698828,,,,,,,,,,,,,,,,,,,,,,,,,,,,,,sub-223,1,random_dot,61.09310632686622,
left,left,8.0,0.0,4.0,right,0.0,1.4206615009898087,,,,,,4.0,0.0,8.0,0.0,,,,,,,,,40.41064975698828,,,,,,,,,40.39464060899627,40.51062424799602,41.31109567399835,41.294145016989205,41.294579014997,41.31109567399835,41.31109567399835,41.31109567399835,42.74531573599961,right,0.0,1.4206615009898087,,42.74545088398736,42.76021775598929,43.2440818920004,43.26062833999458,,,,,,,,,,,,,,,,,,,,,,,,,,,,,,sub-223,1,random_dot,61.09310632686622,
right,right,9.0,1.0,4.0,left,0.0,0.9823932330036768,,,,,,4.0,1.0,9.0,1.0,,,,,,,,,43.26062833999458,,,,,,,,,43.24447543898714,44.460613987990655,45.260569207996014,45.24416856799508,45.2446000839991,45.260569207996014,45.260569207996014,45.260569207996014,46.24507079499017,left,0.0,0.9823932330036768,,46.24516624199168,46.260412393996376,46.74418218299979,46.76031610398786,,,,,,,,,,,,,,,,,,,,,,,,,,,,,,sub-223,1,random_dot,61.09310632686622,
left,left,10.0,0.0,5.0,right,0.0,2.6945349509915104,,,,,,5.0,0.0,10.0,0.0,,,,,,,,,46.76031610398786,,,,,,,,,46.74458804298774,46.86027914499573,47.66062668399536,47.644230191988754,47.64466509399063,47.66062668399536,47.66062668399536,47.66062668399536,50.361725571987336,right,0.0,2.6945349509915104,,50.36181989699253,50.376721196997096,50.860844382987125,50.87715582799865,,,,,,,,,,,,,,,,,,,,,,,,,,,,,,sub-223,1,random_dot,61.09310632686622,
right,right,11.0,1.0,5.0,left,0.0,1.3111505410051905,,,,,,5.0,1.0,11.0,1.0,,,,,,,,,50.87715582799865,,,,,,,,,50.86124961999303,52.07698498399986,52.87711246300023,52.86087839699758,52.86138834099984,52.87711246300023,52.87711246300023,52.87711246300023,54.19499526399886,left,0.0,1.3111505410051905,,54.195092514986754,54.21011670799635,54.69388294499368,54.71046408799885,,,,,,,,,,,,,,,,,,,,,,,,,,,,,,sub-223,1,random_dot,61.09310632686622,
left,left,12.0,0.0,6.0,left,1.0,5.137129466005717,,,,,,6.0,0.0,12.0,0.0,,,,,,,,,54.71046408799885,,,,,,,,,54.69417660399631,55.06041979099973,55.86006668600021,55.84405074598908,55.84449726699677,55.86006668600021,55.86006668600021,55.86006668600021,61.01130920099968,left,1.0,5.137129466005717,,61.01484870399872,61.02908025299257,61.52702416198736,,60.843628464994254,,,,,,,,,,,,,,,,,,,,,,,,,,,,,sub-223,1,random_dot,61.09310632686622,
right,right,13.0,1.0,6.0,right,1.0,1.0996473490085918,,,,,,6.0,1.0,13.0,1.0,,,,,,,,,61.54362568999932,,,,,,,,,61.52748631499708,62.32698842599348,63.12697888899129,63.1105688619864,63.11109499599843,63.12697888899129,63.12697888899129,63.12697888899129,64.22811590399942,right,1.0,1.0996473490085918,,64.22824977998971,64.24325740899076,64.72731293398829,64.7436571589933,,,,,,,,,,,,,,,,,,,,,,,,,,,,,,sub-223,1,random_dot,61.09310632686622,
right,right,14.0,0.0,7.0,right,1.0,1.9337446590070613,,,,,,7.0,0.0,14.0,1.0,,,,,,,,,64.7436571589933,,,,,,,,,64.7277325259929,65.9434932909935,66.74365638499148,66.72719870599394,66.72763325998676,66.74365638499148,66.74365638499148,66.74365638499148,68.69456788399839,right,1.0,1.9337446590070613,,68.69465759999002,68.71013300299819,69.19412989998818,69.21014349898905,,,,,,,,,,,,,,,,,,,,,,,,,,,,,,sub-223,1,random_dot,61.09310632686622,
left,left,15.0,1.0,7.0,left,1.0,1.5971375219960464,,,,,,7.0,1.0,15.0,0.0,,,,,,,,,69.21014349898905,,,,,,,,,69.19439381899429,70.01006405899534,70.81024427499506,70.79385273899243,70.79430193699955,70.81024427499506,70.81024427499506,70.81024427499506,72.41139812598703,left,1.0,1.5971375219960464,,72.41152094899735,72.42649224399065,72.91044695199525,72.92688989199814,,,,,,,,,,,,,,,,,,,,,,,,,,,,,,sub-223,1,random_dot,61.09310632686622,
left,left,16.0,0.0,8.0,right,0.0,1.213436821999494,,,,,,8.0,0.0,16.0,0.0,,,,,,,,,72.92688989199814,,,,,,,,,72.91084143299668,73.2767897189915,74.07667982699058,74.06117259999155,74.0614631799981,74.07667982699058,74.07667982699058,74.07667982699058,75.29484958598914,right,0.0,1.213436821999494,,75.29735633099335,75.31083045399282,75.79377503698925,75.81005153698788,,,,,,,,,,,,,,,,,,,,,,,,,,,,,,sub-223,1,random_dot,61.09310632686622,
right,right,17.0,1.0,8.0,right,1.0,2.7189643640012946,,,,,,8.0,1.0,17.0,1.0,,,,,,,,,75.81005153698788,,,,,,,,,75.7941700819938,76.16016602299351,76.96018930799619,76.94377833198814,76.94422068899439,76.96018930799619,76.96018930799619,76.96018930799619,79.69462906698755,right,1.0,2.7189643640012946,,79.69688033299462,79.71051234399783,80.19374557299307,80.2100038399949,,,,,,,,,,,,,,,,,,,,,,,,,,,,,,sub-223,1,random_dot,61.09310632686622,
left,left,18.0,0.0,9.0,left,1.0,0.8958857059915317,,,,,,9.0,0.0,18.0,0.0,,,,,,,,,80.2100038399949,,,,,,,,,80.19414829899324,80.5600812779885,81.36010788400017,81.34370651099016,81.34415786298632,81.36010788400017,81.36010788400017,81.36010788400017,82.26093013299396,left,1.0,0.8958857059915317,,82.26103323999268,82.27640004799468,82.76037486699352,82.77665984499617,,,,,,,,,,,,,,,,,,,,,,,,,,,,,,sub-223,1,random_dot,61.09310632686622,
right,right,19.0,1.0,9.0,right,1.0,4.172871009010123,,,,,,9.0,1.0,19.0,1.0,,,,,,,,,82.77665984499617,,,,,,,,,82.76077293998969,83.56010932099889,84.36006983899279,84.34350951798842,84.34394320199499,84.36006983899279,84.36006983899279,84.36006983899279,88.54436918899592,right,1.0,4.172871009010123,,88.54446807698696,88.5598315899988,89.04362285499519,89.05980787999579,,,,,,,,,,,,,,,,,,,,,,,,,,,,,,sub-223,1,random_dot,61.09310632686622,
,,,,,,,,,,,,,,,,,,,,,,,,,,,,,,,,,,,,,,,,,,,,,,,,,,,,89.04378413599625,89.05980787999579,89.05980787999579,91.12753044099372,space,2.0637742819963023,,,,,,,,,,,,,,,,,,,,,,,sub-223,1,random_dot,61.09310632686622,
,,,,,,,,,,,,,,,,,,,,,,,,,,,,,,,,,,,,,,,,,,,,,,,,,,,,,,,,,,,91.12763245499808,91.1441505249968,91.1441505249968,94.6943547619885,space,3.5463208250002936,,,,,,,,,,,,,,,,sub-223,1,random_dot,61.09310632686622,
right,right,0.0,0.0,0.0,right,1.0,1.62203790100466,,accuracy,space,2.801858581005945,,,,,,0.0,0.0,0.0,0.0,0.0,0.0,0.0,1.0,97.56434840599832,,,,,,,,,97.5515224289993,98.34330035399762,99.14355375099694,99.12707751798736,99.12752819398884,99.14355375099694,99.14355375099694,99.14355375099694,100.77767318498807,,,,,,,,,,,,,,,,,,,,,,,,94.7146084929991,94.72626841199236,94.72626841199236,97.544170861991,space,2.801858581005945,,right,1.0,1.62203790100466,,,,,sub-223,1,random_dot,61.09310632686622,
left,left,1.0,1.0,0.0,left,1.0,0.918288576998748,,accuracy,space,2.801858581005945,,,,,,0.0,0.0,0.0,0.0,0.0,1.0,1.0,0.0,100.79346134199297,,,,,,,,,100.77810418998706,101.97666277099052,102.77667442298844,102.76035591399705,102.76081993799016,102.77667442298844,102.77667442298844,102.77667442298844,103.71071291298722,,,,,,,,,,,,,,,,,,,,,,,,,,,,,,,left,1.0,0.918288576998748,,,,,sub-223,1,random_dot,61.09310632686622,
right,right,2.0,0.0,1.0,right,1.0,0.7367391239968129,,accuracy,space,2.801858581005945,,,,,,0.0,0.0,0.0,0.0,1.0,0.0,2.0,1.0,103.72610159000033,,,,,,,,,103.71107934598696,104.07635868398938,104.87628929899074,104.85988293398988,104.8603030559898,104.87628929899074,104.87628929899074,104.87628929899074,105.62742950799291,,,,,,,,,,,,,,,,,,,,,,,,,,,,,,,right,1.0,0.7367391239968129,,,,,sub-223,1,random_dot,61.09310632686622,
left,left,3.0,1.0,1.0,left,1.0,1.6231951099907749,,accuracy,space,2.801858581005945,,,,,,0.0,0.0,0.0,0.0,1.0,1.0,3.0,0.0,105.64273555499676,,,,,,,,,105.62775243799842,105.99282466799195,106.79297317199234,106.7768137709936,106.77714843499416,106.79297317199234,106.79297317199234,106.79297317199234,108.42754423999575,,,,,,,,,,,,,,,,,,,,,,,,,,,,,,,left,1.0,1.6231951099907749,,,,,sub-223,1,random_dot,61.09310632686622,
right,right,4.0,0.0,2.0,right,1.0,0.7677037369867321,,accuracy,space,2.801858581005945,,,,,,0.0,0.0,0.0,0.0,2.0,0.0,4.0,1.0,108.44274597299228,,,,,,,,,108.42791849999048,108.7929434189864,109.59309984098944,109.5765663159982,109.57700600099632,109.59309984098944,109.59309984098944,109.59309984098944,110.37665265699616,,,,,,,,,,,,,,,,,,,,,,,,,,,,,,,right,1.0,0.7677037369867321,,,,,sub-223,1,random_dot,61.09310632686622,
left,left,5.0,1.0,2.0,left,1.0,0.8898578810039908,,accuracy,space,2.801858581005945,,,,,,0.0,0.0,0.0,0.0,2.0,1.0,5.0,0.0,110.39303886299604,,,,,,,,,110.37696411499928,111.1761462949944,111.97622054799284,111.959801562989,111.96023346598668,111.97622054799284,111.97622054799284,111.97622054799284,112.8769404689956,,,,,,,,,,,,,,,,,,,,,,,,,,,,,,,left,1.0,0.8898578810039908,,,,,sub-223,1,random_dot,61.09310632686622,
left,left,6.0,0.0,3.0,left,1.0,1.5287827419961104,,accuracy,space,2.801858581005945,,,,,,0.0,0.0,0.0,0.0,3.0,0.0,6.0,0.0,112.89265609899304,,,,,,,,,112.877253706989,113.6759061539924,114.4760996279947,114.45965673698812,114.45999374099485,114.4760996279947,114.4760996279947,114.4760996279947,116.01067375999992,,,,,,,,,,,,,,,,,,,,,,,,,,,,,,,left,1.0,1.5287827419961104,,,,,sub-223,1,random_dot,61.09310632686622,
right,right,7.0,1.0,3.0,right,1.0,1.3296142960025463,,accuracy,space,2.801858581005945,,,,,,0.0,0.0,0.0,0.0,3.0,1.0,7.0,1.0,116.02581091299362,,,,,,,,,116.0109720499895,116.82600510399789,117.626108447992,117.60972893500002,117.61016403399115,117.626108447992,117.626108447992,117.626108447992,118.96074317699822,,,,,,,,,,,,,,,,,,,,,,,,,,,,,,,right,1.0,1.3296142960025463,,,,,sub-223,1,random_dot,61.09310632686622,
right,right,8.0,0.0,4.0,right,1.0,0.7003421839908697,,accuracy,space,2.801858581005945,,,,,,0.0,0.0,0.0,0.0,4.0,0.0,8.0,1.0,118.9756005199888,,,,,,,,,118.9611795519886,120.17603349398996,120.97604505599884,120.9597056109924,120.9601306909899,120.97604505599884,120.97604505599884,120.97604505599884,121.69396065999172,,,,,,,,,,,,,,,,,,,,,,,,,,,,,,,right,1.0,0.7003421839908697,,,,,sub-223,1,random_dot,61.09310632686622,
left,left,9.0,1.0,4.0,left,1.0,0.8624322749965359,,accuracy,space,2.801858581005945,,,,,,0.0,0.0,0.0,0.0,4.0,1.0,9.0,0.0,121.7093564609968,,,,,,,,,121.69440460299666,122.05938382798922,122.859200728999,122.84297324898944,122.84341091998796,122.859200728999,122.859200728999,122.859200728999,123.72718543399242,,,,,,,,,,,,,,,,,,,,,,,,,,,,,,,left,1.0,0.8624322749965359,,,,,sub-223,1,random_dot,61.09310632686622,
left,left,10.0,0.0,5.0,left,1.0,1.146098853001604,,accuracy,space,2.801858581005945,,,,,,0.0,0.0,0.0,0.0,5.0,0.0,10.0,0.0,123.74235155999486,,,,,,,,,123.72750491599436,123.84219531899726,124.6424671769928,124.62609427698771,124.62650966498768,124.6424671769928,124.6424671769928,124.6424671769928,125.79400946998794,,,,,,,,,,,,,,,,,,,,,,,,,,,,,,,left,1.0,1.146098853001604,,,,,sub-223,1,random_dot,61.09310632686622,
right,right,11.0,1.0,5.0,right,1.0,0.7791885990009177,,accuracy,space,2.801858581005945,,,,,,0.0,0.0,0.0,0.0,5.0,1.0,11.0,1.0,125.80897630799154,,,,,,,,,125.79432499199174,127.009201310997,127.80929449399991,127.79292852198704,127.79337368099368,127.80929449399991,127.80929449399991,127.80929449399991,128.5940221419878,,,,,,,,,,,,,,,,,,,,,,,,,,,,,,,right,1.0,0.7791885990009177,,,,,sub-223,1,random_dot,61.09310632686622,
left,left,12.0,0.0,6.0,left,1.0,0.8469933339947602,,accuracy,space,2.801858581005945,,,,,,0.0,0.0,0.0,0.0,6.0,0.0,12.0,0.0,128.60882677799964,,,,,,,,,128.5943306429981,129.4092012829933,130.209310826991,130.19297822899534,130.19340285898943,130.209310826991,130.209310826991,130.209310826991,131.0606860849948,,,,,,,,,,,,,,,,,,,,,,,,,,,,,,,left,1.0,0.8469933339947602,,,,,sub-223,1,random_dot,61.09310632686622,
right,right,13.0,1.0,6.0,right,1.0,1.4833484400005543,,accuracy,space,2.801858581005945,,,,,,0.0,0.0,0.0,0.0,6.0,1.0,13.0,1.0,131.0755709889927,,,,,,,,,131.0610485179932,131.42582481399586,132.22586441198655,132.20956255598867,132.2099962559878,132.22586441198655,132.22586441198655,132.22586441198655,133.71054823399754,,,,,,,,,,,,,,,,,,,,,,,,,,,,,,,right,1.0,1.4833484400005543,,,,,sub-223,1,random_dot,61.09310632686622,
left,left,14.0,0.0,7.0,left,1.0,2.0468491009960417,,accuracy,space,2.801858581005945,,,,,,0.0,0.0,0.0,0.0,7.0,0.0,14.0,0.0,133.72551614399708,,,,,,,,,133.7109449339914,134.9257850189897,135.7260052519996,135.7095648760005,135.70989407198795,135.7260052519996,135.7260052519996,135.7260052519996,137.77709412699917,,,,,,,,,,,,,,,,,,,,,,,,,,,,,,,left,1.0,2.0468491009960417,,,,,sub-223,1,random_dot,61.09310632686622,
right,right,15.0,1.0,7.0,right,1.0,10.980006576995947,,accuracy,space,2.801858581005945,,,,,,0.0,0.0,0.0,0.0,7.0,1.0,15.0,1.0,137.7925510379864,,,,,,,,,137.77743942999223,138.9756688179914,139.77603904699208,139.7595293679915,139.75996676599607,139.77603904699208,139.77603904699208,139.77603904699208,150.76037580099364,,,,,,,,,144.7597058639949,,,,,,,,,,,,,,,,,,,,,,right,1.0,10.980006576995947,,,,,sub-223,1,random_dot,61.09310632686622,
right,right,16.0,0.0,8.0,right,1.0,2.7174504790018545,,accuracy,space,2.801858581005945,,,,,,0.0,0.0,0.0,0.0,8.0,0.0,16.0,1.0,150.7757165239891,,,,,,,,,150.76085255599173,151.12596433999715,151.925664452996,151.9091666489985,151.90950511398842,151.925664452996,151.925664452996,151.925664452996,154.66026161899208,,,,,,,,,,,,,,,,,,,,,,,,,,,,,,,right,1.0,2.7174504790018545,,,,,sub-223,1,random_dot,61.09310632686622,
left,left,17.0,1.0,8.0,left,1.0,1.025947231988539,,accuracy,space,2.801858581005945,,,,,,0.0,0.0,0.0,0.0,8.0,1.0,17.0,0.0,154.67581663299643,,,,,,,,,154.66065419498773,155.47577228498994,156.27614849299425,156.25939577799,156.25983765299316,156.27614849299425,156.27614849299425,156.27614849299425,157.31012389999523,,,,,,,,,,,,,,,,,,,,,,,,,,,,,,,left,1.0,1.025947231988539,,,,,sub-223,1,random_dot,61.09310632686622,
right,right,18.0,0.0,9.0,right,1.0,1.2971608900115823,,accuracy,space,2.801858581005945,,,,,,0.0,0.0,0.0,0.0,9.0,0.0,18.0,1.0,157.32563970898627,,,,,,,,,157.3104299189872,157.40892962898943,158.20900156399875,158.1925664839946,158.1930072469986,158.20900156399875,158.20900156399875,158.20900156399875,159.51030439398892,,,,,,,,,,,,,,,,,,,,,,,,,,,,,,,right,1.0,1.2971608900115823,,,,,sub-223,1,random_dot,61.09310632686622,
left,left,19.0,1.0,9.0,left,1.0,0.8644890889991075,,accuracy,space,2.801858581005945,,,,,,0.0,0.0,0.0,0.0,9.0,1.0,19.0,0.0,159.5259109569888,,,,,,,,,159.5106527189928,160.72563350899145,161.52543100899493,161.50938257799135,161.5097177360003,161.52543100899493,161.52543100899493,161.52543100899493,162.39332922799804,,,,,,,,,,,,,,,,,,,,,,,,,,,,,,,left,1.0,0.8644890889991075,,,,,sub-223,1,random_dot,61.09310632686622,
left,left,20.0,0.0,10.0,left,1.0,1.0622020199953113,,accuracy,space,2.801858581005945,,,,,,0.0,0.0,0.0,0.0,10.0,0.0,20.0,0.0,162.4086957299878,,,,,,,,,162.39365919599368,162.50889410299715,163.30895607899583,163.29256887699012,163.2930061389925,163.30895607899583,163.30895607899583,163.30895607899583,164.3769172339962,,,,,,,,,,,,,,,,,,,,,,,,,,,,,,,left,1.0,1.0622020199953113,,,,,sub-223,1,random_dot,61.09310632686622,
right,right,21.0,1.0,10.0,right,1.0,0.7558325690042693,,accuracy,space,2.801858581005945,,,,,,0.0,0.0,0.0,0.0,10.0,1.0,21.0,1.0,164.3920061969984,,,,,,,,,164.37722218799172,165.59229763399344,166.39228503398772,166.37584602399147,166.37628840099205,166.39228503398772,166.39228503398772,166.39228503398772,167.16013307399407,,,,,,,,,,,,,,,,,,,,,,,,,,,,,,,right,1.0,0.7558325690042693,,,,,sub-223,1,random_dot,61.09310632686622,
left,left,22.0,0.0,11.0,left,1.0,0.9963349549943814,,accuracy,space,2.801858581005945,,,,,,0.0,0.0,0.0,0.0,11.0,0.0,22.0,0.0,167.1751941149996,,,,,,,,,167.16046271499363,168.37557624498731,169.17556390499522,169.15929163098917,169.15963475398894,169.17556390499522,169.17556390499522,169.17556390499522,170.1765229629964,,,,,,,,,,,,,,,,,,,,,,,,,,,,,,,left,1.0,0.9963349549943814,,,,,sub-223,1,random_dot,61.09310632686622,
right,right,23.0,1.0,11.0,right,1.0,0.8206029599969042,,accuracy,space,2.801858581005945,,,,,,0.0,0.0,0.0,0.0,11.0,1.0,23.0,1.0,170.1918599109922,,,,,,,,,170.1768456229911,171.39222185999097,172.19215270598943,172.17591865599388,172.17636842498905,172.19215270598943,172.19215270598943,172.19215270598943,173.0268300829921,,,,,,,,,,,,,,,,,,,,,,,,,,,,,,,right,1.0,0.8206029599969042,,,,,sub-223,1,random_dot,61.09310632686622,
left,left,24.0,0.0,12.0,left,1.0,1.2744684990029782,,accuracy,space,2.801858581005945,,,,,,0.0,0.0,0.0,0.0,12.0,0.0,24.0,0.0,173.04177869499836,,,,,,,,,173.0272602999903,174.24215486898902,175.04216929199174,175.02574526199896,175.0260842879943,175.04216929199174,175.04216929199174,175.04216929199174,176.32641110599798,,,,,,,,,,,,,,,,,,,,,,,,,,,,,,,left,1.0,1.2744684990029782,,,,,sub-223,1,random_dot,61.09310632686622,
right,right,25.0,1.0,12.0,right,1.0,0.9235652530041988,,accuracy,space,2.801858581005945,,,,,,0.0,0.0,0.0,0.0,12.0,1.0,25.0,1.0,176.3417027569958,,,,,,,,,176.3268777560006,177.14201402298931,177.94215474498924,177.92572994499642,177.92617517299368,177.94215474498924,177.94215474498924,177.94215474498924,178.87634175199491,,,,,,,,,,,,,,,,,,,,,,,,,,,,,,,right,1.0,0.9235652530041988,,,,,sub-223,1,random_dot,61.09310632686622,
right,right,26.0,0.0,13.0,right,1.0,0.8332555619999766,,accuracy,space,2.801858581005945,,,,,,0.0,0.0,0.0,0.0,13.0,0.0,26.0,1.0,178.89171114699275,,,,,,,,,178.87666670999897,179.22576334699988,180.02529585699085,180.00888600999315,180.00921738099714,180.02529585699085,180.02529585699085,180.02529585699085,180.8599467199965,,,,,,,,,,,,,,,,,,,,,,,,,,,,,,,right,1.0,0.8332555619999766,,,,,sub-223,1,random_dot,61.09310632686622,
left,left,27.0,1.0,13.0,left,1.0,1.0215225139982067,,accuracy,space,2.801858581005945,,,,,,0.0,0.0,0.0,0.0,13.0,1.0,27.0,0.0,180.8751400689944,,,,,,,,,180.86035895498932,181.22549204199456,182.02518061798764,182.0091118389973,182.00954508699945,182.02518061798764,182.02518061798764,182.02518061798764,183.05956757398965,,,,,,,,,,,,,,,,,,,,,,,,,,,,,,,left,1.0,1.0215225139982067,,,,,sub-223,1,random_dot,61.09310632686622,
right,right,28.0,0.0,14.0,right,1.0,0.6735900320054498,,accuracy,space,2.801858581005945,,,,,,0.0,0.0,0.0,0.0,14.0,0.0,28.0,1.0,183.0749760839972,,,,,,,,,183.059934178993,184.2754650049901,185.0757476039871,185.05915626398928,185.05959489700035,185.0757476039871,185.0757476039871,185.0757476039871,185.7591245169897,,,,,,,,,,,,,,,,,,,,,,,,,,,,,,,right,1.0,0.6735900320054498,,,,,sub-223,1,random_dot,61.09310632686622,
left,left,29.0,1.0,14.0,left,1.0,0.7414191179996124,,accuracy,space,2.801858581005945,,,,,,0.0,0.0,0.0,0.0,14.0,1.0,29.0,0.0,185.77495866498796,,,,,,,,,185.75945610499184,186.5586796179996,187.3587635629956,187.34218596099527,187.34251894899356,187.3587635629956,187.3587635629956,187.3587635629956,188.10972274799133,,,,,,,,,,,,,,,,,,,,,,,,,,,,,,,left,1.0,0.7414191179996124,,,,,sub-223,1,random_dot,61.09310632686622,
right,right,30.0,0.0,15.0,right,1.0,0.5838842609955464,,accuracy,space,2.801858581005945,,,,,,0.0,0.0,0.0,0.0,15.0,0.0,30.0,1.0,188.1249323269876,,,,,,,,,188.11002714099595,188.22520462099052,189.0252692389913,189.0089766329911,189.00943591899704,189.0252692389913,189.0252692389913,189.0252692389913,189.62604628899132,,,,,,,,,,,,,,,,,,,,,,,,,,,,,,,right,1.0,0.5838842609955464,,,,,sub-223,1,random_dot,61.09310632686622,
left,left,31.0,1.0,15.0,left,1.0,1.1747150139999576,,accuracy,space,2.801858581005945,,,,,,0.0,0.0,0.0,0.0,15.0,1.0,31.0,0.0,189.64153976298985,,,,,,,,,189.6264347039978,190.8251948979887,191.62529425999676,191.6088524779916,191.60929409098756,191.62529425999676,191.62529425999676,191.62529425999676,192.80980601499323,,,,,,,,,,,,,,,,,,,,,,,,,,,,,,,left,1.0,1.1747150139999576,,,,,sub-223,1,random_dot,61.09310632686622,
left,left,32.0,0.0,16.0,left,1.0,0.5920467050018487,,accuracy,space,2.801858581005945,,,,,,0.0,0.0,0.0,0.0,16.0,0.0,32.0,0.0,192.82484247798857,,,,,,,,,192.8101758119883,193.17514588798804,193.9752639599901,193.9587478209869,193.95908200799025,193.9752639599901,193.9752639599901,193.9752639599901,194.5759423809941,,,,,,,,,,,,,,,,,,,,,,,,,,,,,,,left,1.0,0.5920467050018487,,,,,sub-223,1,random_dot,61.09310632686622,
right,right,33.0,1.0,16.0,right,1.0,0.6248517829953926,,accuracy,space,2.801858581005945,,,,,,0.0,0.0,0.0,0.0,16.0,1.0,33.0,1.0,194.5917847709934,,,,,,,,,194.5762472429924,195.77522335200047,196.57531512199785,196.5587183549942,196.5591503429896,196.57531512199785,196.57531512199785,196.57531512199785,197.2092261559883,,,,,,,,,,,,,,,,,,,,,,,,,,,,,,,right,1.0,0.6248517829953926,,,,,sub-223,1,random_dot,61.09310632686622,
right,right,34.0,0.0,17.0,right,1.0,0.836680073000025,,accuracy,space,2.801858581005945,,,,,,0.0,0.0,0.0,0.0,17.0,0.0,34.0,1.0,197.22499011299809,,,,,,,,,197.20953665398704,198.00843724999868,198.81081630798872,198.79642067599343,198.7967466859991,198.81081630798872,198.81081630798872,198.81081630798872,199.6589204599877,,,,,,,,,,,,,,,,,,,,,,,,,,,,,,,right,1.0,0.836680073000025,,,,,sub-223,1,random_dot,61.09310632686622,
left,left,35.0,1.0,17.0,left,1.0,0.9247508510015904,,accuracy,space,2.801858581005945,,,,,,0.0,0.0,0.0,0.0,17.0,1.0,35.0,0.0,199.6747508029948,,,,,,,,,199.6592344159872,199.7584793149872,200.5583045549865,200.5419458169927,200.5423798589909,200.5583045549865,200.5583045549865,200.5583045549865,201.49237320599784,,,,,,,,,,,,,,,,,,,,,,,,,,,,,,,left,1.0,0.9247508510015904,,,,,sub-223,1,random_dot,61.09310632686622,
left,left,36.0,0.0,18.0,left,1.0,2.9664500749931904,,accuracy,space,2.801858581005945,,,,,,0.0,0.0,0.0,0.0,18.0,0.0,36.0,0.0,201.50807650499337,,,,,,,,,201.4927109329874,202.6915943819913,203.49137355398847,203.47522872099944,203.47556064599485,203.49137355398847,203.49137355398847,203.49137355398847,206.4597019199864,,,,,,,,,,,,,,,,,,,,,,,,,,,,,,,left,1.0,2.9664500749931904,,,,,sub-223,1,random_dot,61.09310632686622,
right,right,37.0,1.0,18.0,right,1.0,0.7322820319968741,,accuracy,space,2.801858581005945,,,,,,0.0,0.0,0.0,0.0,18.0,1.0,37.0,1.0,206.4743852939864,,,,,,,,,206.4600532919867,206.57472588498783,207.3748776269931,207.35848963799071,207.3589241279988,207.3748776269931,207.3748776269931,207.3748776269931,208.1095397409954,,,,,,,,,,,,,,,,,,,,,,,,,,,,,,,right,1.0,0.7322820319968741,,,,,sub-223,1,random_dot,61.09310632686622,
left,left,38.0,0.0,19.0,left,1.0,0.7510354569967603,,accuracy,space,2.801858581005945,,,,,,0.0,0.0,0.0,0.0,19.0,0.0,38.0,0.0,208.12483970199537,,,,,,,,,208.1099998389982,209.3248425149941,210.12468253499537,210.10852116599565,210.1088913809945,210.12468253499537,210.12468253499537,210.12468253499537,210.8923293209955,,,,,,,,,,,,,,,,,,,,,,,,,,,,,,,left,1.0,0.7510354569967603,,,,,sub-223,1,random_dot,61.09310632686622,
right,right,39.0,1.0,19.0,right,1.0,0.7093533199949889,,accuracy,space,2.801858581005945,,,,,,0.0,0.0,0.0,0.0,19.0,1.0,39.0,1.0,210.90782949799905,,,,,,,,,210.89269073899777,211.2413195339905,212.04148023299055,212.02517297299343,212.02558564698847,212.04148023299055,212.04148023299055,212.04148023299055,212.7589229859877,,,,,,,,,,,,,,,,,,,,,,,,,,,,,,,right,1.0,0.7093533199949889,,,,,sub-223,1,random_dot,61.09310632686622,
left,left,40.0,0.0,20.0,left,1.0,0.7057925429980969,,accuracy,space,2.801858581005945,,,,,,0.0,0.0,0.0,0.0,20.0,0.0,40.0,0.0,212.774571662987,,,,,,,,,212.75922626299143,213.1082081059867,213.9082235879905,213.8918778919906,213.89232086999985,213.9082235879905,213.9082235879905,213.9082235879905,214.6262400009873,,,,,,,,,,,,,,,,,,,,,,,,,,,,,,,left,1.0,0.7057925429980969,,,,,sub-223,1,random_dot,61.09310632686622,
right,right,41.0,1.0,20.0,right,1.0,0.8062812510033837,,accuracy,space,2.801858581005945,,,,,,0.0,0.0,0.0,0.0,20.0,1.0,41.0,1.0,214.6413074999873,,,,,,,,,214.62659615199664,215.4415619079955,216.24165873099992,216.2252055429999,216.22564521498865,216.24165873099992,216.24165873099992,216.24165873099992,217.0594131909893,,,,,,,,,,,,,,,,,,,,,,,,,,,,,,,right,1.0,0.8062812510033837,,,,,sub-223,1,random_dot,61.09310632686622,
right,right,42.0,0.0,21.0,right,1.0,0.6916160269902321,,accuracy,space,2.801858581005945,,,,,,0.0,0.0,0.0,0.0,21.0,0.0,42.0,1.0,217.07454300898823,,,,,,,,,217.059729828994,217.4248664439947,218.22479925600052,218.2085473499901,218.2090081169881,218.22479925600052,218.22479925600052,218.22479925600052,218.92589945999495,,,,,,,,,,,,,,,,,,,,,,,,,,,,,,,right,1.0,0.6916160269902321,,,,,sub-223,1,random_dot,61.09310632686622,
left,left,43.0,1.0,21.0,left,1.0,0.7592836270050611,,accuracy,space,2.801858581005945,,,,,,0.0,0.0,0.0,0.0,21.0,1.0,43.0,0.0,218.94113164900045,,,,,,,,,218.9262195899937,219.04139687599672,219.8413098989986,219.82482876499125,219.8251627559948,219.8413098989986,219.8413098989986,219.8413098989986,220.60924932098715,,,,,,,,,,,,,,,,,,,,,,,,,,,,,,,left,1.0,0.7592836270050611,,,,,sub-223,1,random_dot,61.09310632686622,
right,right,44.0,0.0,22.0,right,1.0,0.6185304079990601,,accuracy,space,2.801858581005945,,,,,,0.0,0.0,0.0,0.0,22.0,0.0,44.0,1.0,220.6235072309937,,,,,,,,,220.6095536520006,221.82458094299363,222.62477161099375,222.6085059659963,222.60894422199635,222.62477161099375,222.62477161099375,222.62477161099375,223.25900072298828,,,,,,,,,,,,,,,,,,,,,,,,,,,,,,,right,1.0,0.6185304079990601,,,,,sub-223,1,random_dot,61.09310632686622,
left,left,45.0,1.0,22.0,left,1.0,0.9938201589975506,,accuracy,space,2.801858581005945,,,,,,0.0,0.0,0.0,0.0,22.0,1.0,45.0,0.0,223.27462865399136,,,,,,,,,223.2593245689932,223.35805307400005,224.15853406199312,224.14219970999693,224.1426321449981,224.15853406199312,224.15853406199312,224.15853406199312,225.15946580799937,,,,,,,,,,,,,,,,,,,,,,,,,,,,,,,left,1.0,0.9938201589975506,,,,,sub-223,1,random_dot,61.09310632686622,
left,left,46.0,0.0,23.0,left,1.0,0.7849805309961084,,accuracy,space,2.801858581005945,,,,,,0.0,0.0,0.0,0.0,23.0,0.0,46.0,0.0,225.1750366599881,,,,,,,,,225.15976900598616,225.97510874799627,226.7751796429948,226.75875618399004,226.75919565100048,226.7751796429948,226.7751796429948,226.7751796429948,227.5761977499933,,,,,,,,,,,,,,,,,,,,,,,,,,,,,,,left,1.0,0.7849805309961084,,,,,sub-223,1,random_dot,61.09310632686622,
right,right,47.0,1.0,23.0,right,1.0,0.8522613609966356,,accuracy,space,2.801858581005945,,,,,,0.0,0.0,0.0,0.0,23.0,1.0,47.0,1.0,227.5914536939963,,,,,,,,,227.5765572629898,227.6915130790003,228.49185449499052,228.4753782259941,228.47583140200004,228.49185449499052,228.49185449499052,228.49185449499052,229.3592759699968,,,,,,,,,,,,,,,,,,,,,,,,,,,,,,,right,1.0,0.8522613609966356,,,,,sub-223,1,random_dot,61.09310632686622,
left,left,48.0,0.0,24.0,left,1.0,0.6160087150055915,,accuracy,space,2.801858581005945,,,,,,0.0,0.0,0.0,0.0,24.0,0.0,48.0,0.0,229.3745765979984,,,,,,,,,229.35958321498765,229.4584333189996,230.25846890699177,230.24208358199397,230.24254685099004,230.25846890699177,230.25846890699177,230.25846890699177,230.8761856939964,,,,,,,,,,,,,,,,,,,,,,,,,,,,,,,left,1.0,0.6160087150055915,,,,,sub-223,1,random_dot,61.09310632686622,
right,right,49.0,1.0,24.0,right,1.0,0.5735444329911843,,accuracy,space,2.801858581005945,,,,,,0.0,0.0,0.0,0.0,24.0,1.0,49.0,1.0,230.89159275699055,,,,,,,,,230.87653893498648,230.991733693998,231.79178157598653,231.77538522898976,231.7758178529912,231.79178157598653,231.79178157598653,231.79178157598653,232.3762914139952,,,,,,,,,,,,,,,,,,,,,,,,,,,,,,,right,1.0,0.5735444329911843,,,,,sub-223,1,random_dot,61.09310632686622,
left,left,50.0,0.0,25.0,left,1.0,0.5603937870037043,,accuracy,space,2.801858581005945,,,,,,0.0,0.0,0.0,0.0,25.0,0.0,50.0,0.0,232.39158647799923,,,,,,,,,232.37661289799144,232.49166652398708,233.29162173799705,233.27531741399437,233.27576650898845,233.29162173799705,233.29162173799705,233.29162173799705,233.85953053399865,,,,,,,,,,,,,,,,,,,,,,,,,,,,,,,left,1.0,0.5603937870037043,,,,,sub-223,1,random_dot,61.09310632686622,
right,right,51.0,1.0,25.0,right,1.0,0.7188606190029532,,accuracy,space,2.801858581005945,,,,,,0.0,0.0,0.0,0.0,25.0,1.0,51.0,1.0,233.87470346299236,,,,,,,,,233.8598311829992,234.2249563029909,235.02506995399017,235.0084976979997,235.00893074199848,235.02506995399017,235.02506995399017,235.02506995399017,235.7592398189881,,,,,,,,,,,,,,,,,,,,,,,,,,,,,,,right,1.0,0.7188606190029532,,,,,sub-223,1,random_dot,61.09310632686622,
left,left,52.0,0.0,26.0,left,1.0,0.5876878810086055,,accuracy,space,2.801858581005945,,,,,,0.0,0.0,0.0,0.0,26.0,0.0,52.0,0.0,235.7745511539979,,,,,,,,,235.7595545679942,236.55829202198947,237.35836142499463,237.34183018999465,237.34226843499343,237.35836142499463,237.35836142499463,237.35836142499463,237.95938573598687,,,,,,,,,,,,,,,,,,,,,,,,,,,,,,,left,1.0,0.5876878810086055,,,,,sub-223,1,random_dot,61.09310632686622,
right,right,53.0,1.0,26.0,right,1.0,0.5174267030088231,,accuracy,space,2.801858581005945,,,,,,0.0,0.0,0.0,0.0,26.0,1.0,53.0,1.0,237.97458038799232,,,,,,,,,237.9597192419897,238.32491923599449,239.12432821998664,239.1085990599968,239.1091816239932,239.12432821998664,239.12432821998664,239.12432821998664,239.65887125099837,,,,,,,,,,,,,,,,,,,,,,,,,,,,,,,right,1.0,0.5174267030088231,,,,,sub-223,1,random_dot,61.09310632686622,
left,left,54.0,0.0,27.0,left,1.0,0.6135526730067795,,accuracy,space,2.801858581005945,,,,,,0.0,0.0,0.0,0.0,27.0,0.0,54.0,0.0,239.6742930249893,,,,,,,,,239.65949602398905,239.7580395289988,240.55833119899037,240.54196410998705,240.5423376859981,240.55833119899037,240.55833119899037,240.55833119899037,241.1758315389889,,,,,,,,,,,,,,,,,,,,,,,,,,,,,,,left,1.0,0.6135526730067795,,,,,sub-223,1,random_dot,61.09310632686622,
right,right,55.0,1.0,27.0,right,1.0,0.5078950689930934,,accuracy,space,2.801858581005945,,,,,,0.0,0.0,0.0,0.0,27.0,1.0,55.0,1.0,241.19149383298645,,,,,,,,,241.17620069198887,241.97487594099948,242.7749880689953,242.75850964798883,242.75896202398872,242.7749880689953,242.7749880689953,242.7749880689953,243.2928727889957,,,,,,,,,,,,,,,,,,,,,,,,,,,,,,,right,1.0,0.5078950689930934,,,,,sub-223,1,random_dot,61.09310632686622,
right,right,56.0,0.0,28.0,right,1.0,0.9914544530038256,,accuracy,space,2.801858581005945,,,,,,0.0,0.0,0.0,0.0,28.0,0.0,56.0,1.0,243.30801030399743,,,,,,,,,243.2931705189985,244.5082980179868,245.3083229259937,245.29188059899025,245.2923304529977,245.3083229259937,245.3083229259937,245.3083229259937,246.30890374699084,,,,,,,,,,,,,,,,,,,,,,,,,,,,,,,right,1.0,0.9914544530038256,,,,,sub-223,1,random_dot,61.09310632686622,
left,left,57.0,1.0,28.0,left,1.0,0.7332420199963963,,accuracy,space,2.801858581005945,,,,,,0.0,0.0,0.0,0.0,28.0,1.0,57.0,0.0,246.32430942199423,,,,,,,,,246.30933937599184,247.52446523799156,248.32440445999964,248.3080639779946,248.30850467398704,248.32440445999964,248.32440445999964,248.32440445999964,249.05889608399596,,,,,,,,,,,,,,,,,,,,,,,,,,,,,,,left,1.0,0.7332420199963963,,,,,sub-223,1,random_dot,61.09310632686622,
right,right,58.0,0.0,29.0,right,1.0,0.4971946909936378,,accuracy,space,2.801858581005945,,,,,,0.0,0.0,0.0,0.0,29.0,0.0,58.0,1.0,249.07420934399124,,,,,,,,,249.0593202739983,249.8744180969952,250.67437445299583,250.6581393439992,250.65857901598795,250.67437445299583,250.67437445299583,250.67437445299583,251.1755062529992,,,,,,,,,,,,,,,,,,,,,,,,,,,,,,,right,1.0,0.4971946909936378,,,,,sub-223,1,random_dot,61.09310632686622,
left,left,59.0,1.0,29.0,left,1.0,0.8164367849967675,,accuracy,space,2.801858581005945,,,,,,0.0,0.0,0.0,0.0,29.0,1.0,59.0,0.0,251.19121582098887,,,,,,,,,251.17583411399391,251.2912671029917,252.0911288709904,252.0747498479905,252.07519445299116,252.0911288709904,252.0911288709904,252.0911288709904,252.90877422199992,,,,,,,,,,,,,,,,,,,,,,,,,,,,,,,left,1.0,0.8164367849967675,,,,,sub-223,1,random_dot,61.09310632686622,
,,0.0,0.0,0.0,,,,,accuracy,space,2.801858581005945,,,,,,0.0,0.0,0.0,0.0,,,,,,,,,,,,,,,,,,,,,,,,,,,,,,,,,,,,,,,,,,,,,,,,,,,,,,,,,,,,sub-223,1,random_dot,61.09310632686622,
right,right,0.0,0.0,0.0,right,1.0,0.5551210010016803,,speed,space,3.718207723999512,,,,,,0.0,1.0,1.0,1.0,0.0,0.0,0.0,1.0,256.6768912359985,,,,,,,,,256.66488656,257.0074628079892,257.8075944939919,257.79116622499714,257.7915971669863,257.8075944939919,257.8075944939919,257.8075944939919,258.37481257999025,,,,,,,,,,,,,,,,,,,,,,,,252.92047810999796,252.93096975398657,252.93096975398657,256.6582928289863,space,3.718207723999512,,right,1.0,0.5551210010016803,,,,,sub-223,1,random_dot,61.09310632686622,
left,left,1.0,1.0,0.0,left,1.0,0.4294220779993338,,speed,space,3.718207723999512,,,,,,0.0,1.0,1.0,1.0,0.0,1.0,1.0,0.0,258.39044904199545,,,,,,,,,258.3751198690006,258.7240344329912,259.52432639298786,259.5078086369904,259.5081420679926,259.52432639298786,259.52432639298786,259.52432639298786,259.95910388199263,,,,,,,,,,,,,,,,,,,,,,,,,,,,,,,left,1.0,0.4294220779993338,,,,,sub-223,1,random_dot,61.09310632686622,
left,left,2.0,0.0,1.0,left,1.0,0.5838259470037883,,speed,space,3.718207723999512,,,,,,0.0,1.0,1.0,1.0,1.0,0.0,2.0,0.0,259.97400709599606,,,,,,,,,259.9594434219907,260.7743238119874,261.5743200069992,261.5579541319894,261.55839635498705,261.5743200069992,261.5743200069992,261.5743200069992,262.17535837298783,,,,,,,,,,,,,,,,,,,,,,,,,,,,,,,left,1.0,0.5838259470037883,,,,,sub-223,1,random_dot,61.09310632686622,
right,right,3.0,1.0,1.0,left,0.0,0.4452099629997974,,speed,space,3.718207723999512,,,,,,0.0,1.0,1.0,1.0,1.0,1.0,3.0,1.0,262.1905560489977,,,,,,,,,262.17571326499456,263.3908775669988,264.19103390300006,264.17462254999555,264.1750633169868,264.19103390300006,264.19103390300006,264.19103390300006,264.642205295997,,,,,,,,,,,,,,,,,,,,,,,,,,,,,,,left,0.0,0.4452099629997974,,,,,sub-223,1,random_dot,61.09310632686622,
left,left,4.0,0.0,2.0,left,1.0,0.4795598700002301,,speed,space,3.718207723999512,,,,,,0.0,1.0,1.0,1.0,2.0,0.0,4.0,0.0,264.65727821199107,,,,,,,,,264.6425051769911,265.85758515998896,266.6576166929881,266.6410471889976,266.64137817498704,266.6576166929881,266.6576166929881,266.6576166929881,267.1419715279917,,,,,,,,,,,,,,,,,,,,,,,,,,,,,,,left,1.0,0.4795598700002301,,,,,sub-223,1,random_dot,61.09310632686622,
right,right,5.0,1.0,2.0,right,1.0,0.6219351990002906,,speed,space,3.718207723999512,,,,,,0.0,1.0,1.0,1.0,2.0,1.0,5.0,1.0,267.1573312010005,,,,,,,,,267.1423468099965,267.5075893139874,268.3073977329914,268.2911259699904,268.29156121698907,268.3073977329914,268.3073977329914,268.3073977329914,268.9418651689921,,,,,,,,,,,,,,,,,,,,,,,,,,,,,,,right,1.0,0.6219351990002906,,,,,sub-223,1,random_dot,61.09310632686622,
left,left,6.0,0.0,3.0,left,1.0,0.4842358590103686,,speed,space,3.718207723999512,,,,,,0.0,1.0,1.0,1.0,3.0,0.0,6.0,0.0,268.9572992449976,,,,,,,,,268.94219019998854,270.1576381169871,270.95761305499764,270.9410848159896,270.9415273619961,270.95761305499764,270.95761305499764,270.95761305499764,271.45811083599983,,,,,,,,,,,,,,,,,,,,,,,,,,,,,,,left,1.0,0.4842358590103686,,,,,sub-223,1,random_dot,61.09310632686622,
right,right,7.0,1.0,3.0,right,1.0,0.5771698839962482,,speed,space,3.718207723999512,,,,,,0.0,1.0,1.0,1.0,3.0,1.0,7.0,1.0,271.4740134429885,,,,,,,,,271.4584173029871,271.5574477229966,272.3575762429973,272.34105576398724,272.3413876329869,272.3575762429973,272.3575762429973,272.3575762429973,272.9420510209893,,,,,,,,,,,,,,,,,,,,,,,,,,,,,,,right,1.0,0.5771698839962482,,,,,sub-223,1,random_dot,61.09310632686622,
right,right,8.0,0.0,4.0,left,0.0,0.5312266539986013,,speed,space,3.718207723999512,,,,,,0.0,1.0,1.0,1.0,4.0,0.0,8.0,1.0,272.95714526200027,,,,,,,,,272.94234638298803,274.1574893129873,274.9574571019912,274.9410428229894,274.941481722999,274.9574571019912,274.9574571019912,274.9574571019912,275.4919564169977,,,,,,,,,,,,,,,,,,,,,,,,,,,,,,,left,0.0,0.5312266539986013,,,,,sub-223,1,random_dot,61.09310632686622,
left,left,9.0,1.0,4.0,left,1.0,0.4313401770050404,,speed,space,3.718207723999512,,,,,,0.0,1.0,1.0,1.0,4.0,1.0,9.0,0.0,275.5070804739953,,,,,,,,,275.49230026498844,276.7073427689902,277.50728249199165,277.491198290998,277.49163614299323,277.50728249199165,277.50728249199165,277.50728249199165,277.94198910699924,,,,,,,,,,,,,,,,,,,,,,,,,,,,,,,left,1.0,0.4313401770050404,,,,,sub-223,1,random_dot,61.09310632686622,
right,right,10.0,0.0,5.0,right,1.0,0.5640888219932094,,speed,space,3.718207723999512,,,,,,0.0,1.0,1.0,1.0,5.0,0.0,10.0,1.0,277.9573362999945,,,,,,,,,277.9423390979937,279.15741037699627,279.9574938329897,279.94100492399593,279.9414463110006,279.9574938329897,279.9574938329897,279.9574938329897,280.5252748799976,,,,,,,,,,,,,,,,,,,,,,,,,,,,,,,right,1.0,0.5640888219932094,,,,,sub-223,1,random_dot,61.09310632686622,
left,left,11.0,1.0,5.0,left,1.0,0.5222640580032021,,speed,space,3.718207723999512,,,,,,0.0,1.0,1.0,1.0,5.0,1.0,11.0,0.0,280.5407141629985,,,,,,,,,280.5256344629888,280.6408575279929,281.4406588849961,281.42428454299807,281.4246198139881,281.4406588849961,281.4406588849961,281.4406588849961,281.97539304799284,,,,,,,,,,,,,,,,,,,,,,,,,,,,,,,left,1.0,0.5222640580032021,,,,,sub-223,1,random_dot,61.09310632686622,
right,right,12.0,0.0,6.0,right,1.0,0.5392410170024959,,speed,space,3.718207723999512,,,,,,0.0,1.0,1.0,1.0,6.0,0.0,12.0,1.0,281.9903001319908,,,,,,,,,281.9756985899876,282.09061503599514,282.89057018198946,282.87432759499643,282.8747665529954,282.89057018198946,282.89057018198946,282.89057018198946,283.4420360649965,,,,,,,,,,,,,,,,,,,,,,,,,,,,,,,right,1.0,0.5392410170024959,,,,,sub-223,1,random_dot,61.09310632686622,
left,left,13.0,1.0,6.0,left,1.0,0.3768550579989096,,speed,space,3.718207723999512,,,,,,0.0,1.0,1.0,1.0,6.0,1.0,13.0,0.0,283.45744963298785,,,,,,,,,283.44245335899177,284.6573684699979,285.45752618699044,285.4409309449984,285.4413719699951,285.45752618699044,285.45752618699044,285.45752618699044,285.84193151799263,,,,,,,,,,,,,,,,,,,,,,,,,,,,,,,left,1.0,0.3768550579989096,,,,,sub-223,1,random_dot,61.09310632686622,
left,left,14.0,0.0,7.0,left,1.0,0.5492044139973586,,speed,space,3.718207723999512,,,,,,0.0,1.0,1.0,1.0,7.0,0.0,14.0,0.0,285.85700635598914,,,,,,,,,285.8422343369893,285.9573616509879,286.7572756439913,286.740901925994,286.74133790699125,286.7572756439913,286.7572756439913,286.7572756439913,287.3084801019868,,,,,,,,,,,,,,,,,,,,,,,,,,,,,,,left,1.0,0.5492044139973586,,,,,sub-223,1,random_dot,61.09310632686622,
right,right,15.0,1.0,7.0,right,1.0,0.5773268909979379,,speed,space,3.718207723999512,,,,,,0.0,1.0,1.0,1.0,7.0,1.0,15.0,1.0,287.3237114309886,,,,,,,,,287.30882790598844,288.5239811139909,289.32391218199336,289.3075784609973,289.30802575899,289.32391218199336,289.32391218199336,289.32391218199336,289.9084334309882,,,,,,,,,,,,,,,,,,,,,,,,,,,,,,,right,1.0,0.5773268909979379,,,,,sub-223,1,random_dot,61.09310632686622,
left,left,16.0,0.0,8.0,left,1.0,0.4495016440050676,,speed,space,3.718207723999512,,,,,,0.0,1.0,1.0,1.0,8.0,0.0,16.0,0.0,289.9236950919876,,,,,,,,,289.9087398999982,291.1238441829919,291.9238233379874,291.9075614329922,291.907996814989,291.9238233379874,291.9238233379874,291.9238233379874,292.3747596119938,,,,,,,,,,,,,,,,,,,,,,,,,,,,,,,left,1.0,0.4495016440050676,,,,,sub-223,1,random_dot,61.09310632686622,
right,right,17.0,1.0,8.0,right,1.0,0.5463732819916913,,speed,space,3.718207723999512,,,,,,0.0,1.0,1.0,1.0,8.0,1.0,17.0,1.0,292.39038940799946,,,,,,,,,292.37515192299907,292.723908267988,293.5239552999992,293.5074872279947,293.50792551098857,293.5239552999992,293.5239552999992,293.5239552999992,294.0750122299942,,,,,,,,,,,,,,,,,,,,,,,,,,,,,,,right,1.0,0.5463732819916913,,,,,sub-223,1,random_dot,61.09310632686622,
right,right,18.0,0.0,9.0,right,1.0,0.5607360290014185,,speed,space,3.718207723999512,,,,,,0.0,1.0,1.0,1.0,9.0,0.0,18.0,1.0,294.0901555949968,,,,,,,,,294.07530713999586,294.4403084109945,295.2403315319971,295.224210032,295.22454386699246,295.2403315319971,295.2403315319971,295.2403315319971,295.8083020789927,,,,,,,,,,,,,,,,,,,,,,,,,,,,,,,right,1.0,0.5607360290014185,,,,,sub-223,1,random_dot,61.09310632686622,
left,left,19.0,1.0,9.0,left,1.0,0.5067937929998152,,speed,space,3.718207723999512,,,,,,0.0,1.0,1.0,1.0,9.0,1.0,19.0,0.0,295.8234477599908,,,,,,,,,295.8085935909912,297.023979872989,297.8235842409922,297.80739409399393,297.80783414100006,297.8235842409922,297.8235842409922,297.8235842409922,298.34162863298843,,,,,,,,,,,,,,,,,,,,,,,,,,,,,,,left,1.0,0.5067937929998152,,,,,sub-223,1,random_dot,61.09310632686622,
left,left,20.0,0.0,10.0,left,1.0,0.4138709260005271,,speed,space,3.718207723999512,,,,,,0.0,1.0,1.0,1.0,10.0,0.0,20.0,0.0,298.3569556049915,,,,,,,,,298.3419906700001,298.7071791139897,299.5071602879907,299.4906050099962,299.4910373449966,299.5071602879907,299.5071602879907,299.5071602879907,299.92486189698684,,,,,,,,,,,,,,,,,,,,,,,,,,,,,,,left,1.0,0.4138709260005271,,,,,sub-223,1,random_dot,61.09310632686622,
right,right,21.0,1.0,10.0,right,1.0,0.6933440560096642,,speed,space,3.718207723999512,,,,,,0.0,1.0,1.0,1.0,10.0,1.0,21.0,1.0,299.94009191599616,,,,,,,,,299.9252154579881,300.29036127099243,301.09054082699004,301.07397015999595,301.0744001359999,301.09054082699004,301.09054082699004,301.09054082699004,301.7915801909985,,,,,,,,,,,,,,,,,,,,,,,,,,,,,,,right,1.0,0.6933440560096642,,,,,sub-223,1,random_dot,61.09310632686622,
right,right,22.0,0.0,11.0,right,1.0,0.4450000720098614,,speed,space,3.718207723999512,,,,,,0.0,1.0,1.0,1.0,11.0,0.0,22.0,1.0,301.806802993,,,,,,,,,301.7918789769901,302.1570814109873,302.95711341999413,302.9406544129888,302.94098464799754,302.95711341999413,302.95711341999413,302.95711341999413,303.40828189499734,,,,,,,,,,,,,,,,,,,,,,,,,,,,,,,right,1.0,0.4450000720098614,,,,,sub-223,1,random_dot,61.09310632686622,
left,left,23.0,1.0,11.0,left,1.0,0.4241950349969556,,speed,space,3.718207723999512,,,,,,0.0,1.0,1.0,1.0,11.0,1.0,23.0,0.0,303.42339053899923,,,,,,,,,303.40857994998805,304.2237472589913,305.02370856999187,305.00723187599215,305.0076654149889,305.02370856999187,305.02370856999187,305.02370856999187,305.4581215609942,,,,,,,,,,,,,,,,,,,,,,,,,,,,,,,left,1.0,0.4241950349969556,,,,,sub-223,1,random_dot,61.09310632686622,
left,left,24.0,0.0,12.0,right,0.0,0.9633878979948348,,speed,space,3.718207723999512,,,,,,0.0,1.0,1.0,1.0,12.0,0.0,24.0,0.0,305.4733731549932,,,,,,,,,305.4584277489921,306.273655647994,307.0735613629949,307.0574156419898,307.05785118399945,307.0735613629949,307.0735613629949,307.0735613629949,308.041703882991,,,,,,,,,,,,,,,,,,,,,,,,,,,,,,,right,0.0,0.9633878979948348,,,,,sub-223,1,random_dot,61.09310632686622,
right,right,25.0,1.0,12.0,right,1.0,0.4837804819981102,,speed,space,3.718207723999512,,,,,,0.0,1.0,1.0,1.0,12.0,1.0,25.0,1.0,308.0567439019942,,,,,,,,,308.0420226099959,309.257231177995,310.0568868970004,310.0403994419903,310.0408212679904,310.0568868970004,310.0568868970004,310.0568868970004,310.55843700999685,,,,,,,,,,,,,,,,,,,,,,,,,,,,,,,right,1.0,0.4837804819981102,,,,,sub-223,1,random_dot,61.09310632686622,
right,right,26.0,0.0,13.0,right,1.0,0.5590979510016041,,speed,space,3.718207723999512,,,,,,0.0,1.0,1.0,1.0,13.0,0.0,26.0,1.0,310.5734681319882,,,,,,,,,310.5587357409968,311.77373619198625,312.5736835719872,312.5571221709979,312.5575559269928,312.5736835719872,312.5736835719872,312.5736835719872,313.14105597398884,,,,,,,,,,,,,,,,,,,,,,,,,,,,,,,right,1.0,0.5590979510016041,,,,,sub-223,1,random_dot,61.09310632686622,
left,left,27.0,1.0,13.0,left,1.0,0.6056130299984943,,speed,space,3.718207723999512,,,,,,0.0,1.0,1.0,1.0,13.0,1.0,27.0,0.0,313.1567833559966,,,,,,,,,313.1413636629877,313.9402247769904,314.7402689179871,314.7237779709976,314.72412748998613,314.7402689179871,314.7402689179871,314.7402689179871,315.35811343799287,,,,,,,,,,,,,,,,,,,,,,,,,,,,,,,left,1.0,0.6056130299984943,,,,,sub-223,1,random_dot,61.09310632686622,
right,right,28.0,0.0,14.0,right,1.0,0.5052186190005159,,speed,space,3.718207723999512,,,,,,0.0,1.0,1.0,1.0,14.0,0.0,28.0,1.0,315.3732010459935,,,,,,,,,315.35842144799244,316.5735091999959,317.3735979369958,317.35732760999235,317.35775794299843,317.3735979369958,317.3735979369958,317.3735979369958,317.8913868050004,,,,,,,,,,,,,,,,,,,,,,,,,,,,,,,right,1.0,0.5052186190005159,,,,,sub-223,1,random_dot,61.09310632686622,
left,left,29.0,1.0,14.0,left,1.0,0.749950790006551,,speed,space,3.718207723999512,,,,,,0.0,1.0,1.0,1.0,14.0,1.0,29.0,0.0,317.9065062899899,,,,,,,,,317.89168796499143,318.0067045429896,318.8083455909946,318.79432149700006,318.794727400993,318.8083455909946,318.8083455909946,318.8083455909946,319.5743079370004,,,,,,,,,,,,,,,,,,,,,,,,,,,,,,,left,1.0,0.749950790006551,,,,,sub-223,1,random_dot,61.09310632686622,
left,left,30.0,0.0,15.0,left,1.0,0.5189656750007998,,speed,space,3.718207723999512,,,,,,0.0,1.0,1.0,1.0,15.0,0.0,30.0,0.0,319.58985167399806,,,,,,,,,319.574668538,320.7736105649965,321.57333908899454,321.5570463339973,321.55750488099875,321.57333908899454,321.57333908899454,321.57333908899454,322.1077687789948,,,,,,,,,,,,,,,,,,,,,,,,,,,,,,,left,1.0,0.5189656750007998,,,,,sub-223,1,random_dot,61.09310632686622,
right,right,31.0,1.0,15.0,right,1.0,0.5605947080039186,,speed,space,3.718207723999512,,,,,,0.0,1.0,1.0,1.0,15.0,1.0,31.0,1.0,322.123352080991,,,,,,,,,322.10807614999067,322.9068243669899,323.70657792799466,323.6904412149888,323.6907738949958,323.70657792799466,323.70657792799466,323.70657792799466,324.27466664099484,,,,,,,,,,,,,,,,,,,,,,,,,,,,,,,right,1.0,0.5605947080039186,,,,,sub-223,1,random_dot,61.09310632686622,
right,right,32.0,0.0,16.0,left,0.0,0.4250593439937802,,speed,space,3.718207723999512,,,,,,0.0,1.0,1.0,1.0,16.0,0.0,32.0,1.0,324.2900395219913,,,,,,,,,324.27496856199286,324.64013014499506,325.44013236298633,325.42382881099184,325.42425110600016,325.44013236298633,325.44013236298633,325.44013236298633,325.8740999199945,,,,,,,,,,,,,,,,,,,,,,,,,,,,,,,left,0.0,0.4250593439937802,,,,,sub-223,1,random_dot,61.09310632686622,
left,left,33.0,1.0,16.0,left,1.0,0.5391859490046045,,speed,space,3.718207723999512,,,,,,0.0,1.0,1.0,1.0,16.0,1.0,33.0,0.0,325.8909101289901,,,,,,,,,325.8743981729931,326.67334014699736,327.4732613649976,327.4569036049943,327.4572337360005,327.4732613649976,327.4732613649976,327.4732613649976,328.0249472249998,,,,,,,,,,,,,,,,,,,,,,,,,,,,,,,left,1.0,0.5391859490046045,,,,,sub-223,1,random_dot,61.09310632686622,
right,right,34.0,0.0,17.0,right,1.0,0.7599173470080132,,speed,space,3.718207723999512,,,,,,0.0,1.0,1.0,1.0,17.0,0.0,34.0,1.0,328.0398982810002,,,,,,,,,328.0253062929987,328.8398834779946,329.64005392800027,329.6236070909945,329.6239347469964,329.64005392800027,329.64005392800027,329.64005392800027,330.4077877559903,,,,,,,,,,,,,,,,,,,,,,,,,,,,,,,right,1.0,0.7599173470080132,,,,,sub-223,1,random_dot,61.09310632686622,
left,left,35.0,1.0,17.0,left,1.0,0.5205753249902045,,speed,space,3.718207723999512,,,,,,0.0,1.0,1.0,1.0,17.0,1.0,35.0,0.0,330.4230194739939,,,,,,,,,330.40808173098776,331.223407130994,332.0234591139888,332.0069430799922,332.0072796109889,332.0234591139888,332.0234591139888,332.0234591139888,332.557438799995,,,,,,,,,,,,,,,,,,,,,,,,,,,,,,,left,1.0,0.5205753249902045,,,,,sub-223,1,random_dot,61.09310632686622,
right,right,36.0,0.0,18.0,left,0.0,0.4422175969957607,,speed,space,3.718207723999512,,,,,,0.0,1.0,1.0,1.0,18.0,0.0,36.0,1.0,332.5729265489936,,,,,,,,,332.5577419889887,333.35659902099,334.1568629979884,334.14003105399024,334.1404673509969,334.1568629979884,334.1568629979884,334.1568629979884,334.6073693019862,,,,,,,,,,,,,,,,,,,,,,,,,,,,,,,left,0.0,0.4422175969957607,,,,,sub-223,1,random_dot,61.09310632686622,
left,left,37.0,1.0,18.0,right,0.0,0.8055106450046878,,speed,space,3.718207723999512,,,,,,0.0,1.0,1.0,1.0,18.0,1.0,37.0,0.0,334.62318321698694,,,,,,,,,334.6076660349936,335.40677277299983,336.2066803219932,336.1901634159876,336.1905134229892,336.2066803219932,336.2066803219932,336.2066803219932,337.0244183479954,,,,,,,,,,,,,,,,,,,,,,,,,,,,,,,right,0.0,0.8055106450046878,,,,,sub-223,1,random_dot,61.09310632686622,
right,right,38.0,0.0,19.0,right,1.0,0.7381778519920772,,speed,space,3.718207723999512,,,,,,0.0,1.0,1.0,1.0,19.0,0.0,38.0,1.0,337.0396209409955,,,,,,,,,337.02472218898765,337.39012728499074,338.18992216399056,338.17357006898965,338.1740133419953,338.18992216399056,338.18992216399056,338.18992216399056,338.9411280919885,,,,,,,,,,,,,,,,,,,,,,,,,,,,,,,right,1.0,0.7381778519920772,,,,,sub-223,1,random_dot,61.09310632686622,
left,left,39.0,1.0,19.0,left,1.0,0.7532581970008323,,speed,space,3.718207723999512,,,,,,0.0,1.0,1.0,1.0,19.0,1.0,39.0,0.0,338.9569716179976,,,,,,,,,338.9415734309878,339.756386559995,340.55643824998697,340.54001911499654,340.54044894099934,340.55643824998697,340.55643824998697,340.55643824998697,341.3238516559941,,,,,,,,,,,,,,,,,,,,,,,,,,,,,,,left,1.0,0.7532581970008323,,,,,sub-223,1,random_dot,61.09310632686622,
right,right,40.0,0.0,20.0,right,1.0,0.5569422609987669,,speed,space,3.718207723999512,,,,,,0.0,1.0,1.0,1.0,20.0,0.0,40.0,1.0,341.33985925698653,,,,,,,,,341.3241549039958,342.52289837198623,343.3230230029876,343.3066213729908,343.30705686500005,343.3230230029876,343.3230230029876,343.3230230029876,343.890440801988,,,,,,,,,,,,,,,,,,,,,,,,,,,,,,,right,1.0,0.5569422609987669,,,,,sub-223,1,random_dot,61.09310632686622,
left,left,41.0,1.0,20.0,left,1.0,0.6489572020072956,,speed,space,3.718207723999512,,,,,,0.0,1.0,1.0,1.0,20.0,1.0,41.0,0.0,343.90624246899097,,,,,,,,,343.890756599998,343.98962490698614,344.78957868900034,344.77293620898854,344.7732718599873,344.78957868900034,344.78957868900034,344.78957868900034,345.440948997988,,,,,,,,,,,,,,,,,,,,,,,,,,,,,,,left,1.0,0.6489572020072956,,,,,sub-223,1,random_dot,61.09310632686622,
left,left,42.0,0.0,21.0,right,0.0,0.7543915470014326,,speed,space,3.718207723999512,,,,,,0.0,1.0,1.0,1.0,21.0,0.0,42.0,0.0,345.4562708359881,,,,,,,,,345.4412885419879,345.55638500099303,346.3563026799966,346.3398943749926,346.34033570399333,346.3563026799966,346.3563026799966,346.3563026799966,347.12361936998786,,,,,,,,,,,,,,,,,,,,,,,,,,,,,,,right,0.0,0.7543915470014326,,,,,sub-223,1,random_dot,61.09310632686622,
right,right,43.0,1.0,21.0,right,1.0,0.9756849669938674,,speed,space,3.718207723999512,,,,,,0.0,1.0,1.0,1.0,21.0,1.0,43.0,1.0,347.13944104999246,,,,,,,,,347.1239968879963,347.92286649699963,348.7228797179996,348.70642918099475,348.7067633849947,348.7228797179996,348.7228797179996,348.7228797179996,349.7069539879885,,,,,,,,,,,,,,,,,,,,,,,,,,,,,,,right,1.0,0.9756849669938674,,,,,sub-223,1,random_dot,61.09310632686622,
left,left,44.0,0.0,22.0,left,1.0,1.1360270099976333,,speed,space,3.718207723999512,,,,,,0.0,1.0,1.0,1.0,22.0,0.0,44.0,0.0,349.7226646079944,,,,,,,,,349.7072537869972,349.8059008919954,350.60631079098675,350.58990197499224,350.59035037898866,350.60631079098675,350.60631079098675,350.60631079098675,351.75698035399546,,,,,,,,,,,,,,,,,,,,,,,,,,,,,,,left,1.0,1.1360270099976333,,,,,sub-223,1,random_dot,61.09310632686622,
right,right,45.0,1.0,22.0,right,1.0,0.8542367000045488,,speed,space,3.718207723999512,,,,,,0.0,1.0,1.0,1.0,22.0,1.0,45.0,1.0,351.7726988719951,,,,,,,,,351.75735915299447,352.1062309629924,352.90622926398646,352.8898906429968,352.8903211889992,352.90622926398646,352.90622926398646,352.90622926398646,353.7734675769898,,,,,,,,,,,,,,,,,,,,,,,,,,,,,,,right,1.0,0.8542367000045488,,,,,sub-223,1,random_dot,61.09310632686622,
left,left,46.0,0.0,23.0,left,1.0,0.6386871489958139,,speed,space,3.718207723999512,,,,,,0.0,1.0,1.0,1.0,23.0,0.0,46.0,0.0,353.7893863939971,,,,,,,,,353.77378072199645,354.9727588589885,355.7729249099939,355.7565109819989,355.7569425039983,355.7729249099939,355.7729249099939,355.7729249099939,356.4234875639959,,,,,,,,,,,,,,,,,,,,,,,,,,,,,,,left,1.0,0.6386871489958139,,,,,sub-223,1,random_dot,61.09310632686622,
right,right,47.0,1.0,23.0,right,1.0,0.5454588319989853,,speed,space,3.718207723999512,,,,,,0.0,1.0,1.0,1.0,23.0,1.0,47.0,1.0,356.4394564760005,,,,,,,,,356.4237874389946,356.77287101899856,357.5728945199953,357.5564929760003,357.556926070989,357.5728945199953,357.5728945199953,357.5728945199953,358.1239873529994,,,,,,,,,,,,,,,,,,,,,,,,,,,,,,,right,1.0,0.5454588319989853,,,,,sub-223,1,random_dot,61.09310632686622,
right,right,48.0,0.0,24.0,right,1.0,0.533392928991816,,speed,space,3.718207723999512,,,,,,0.0,1.0,1.0,1.0,24.0,0.0,48.0,1.0,358.13904448298854,,,,,,,,,358.12429796399374,359.3393966250005,360.1396029799944,360.123208413992,360.1235412709939,360.1396029799944,360.1396029799944,360.1396029799944,360.68979338899953,,,,,,,,,,,,,,,,,,,,,,,,,,,,,,,right,1.0,0.533392928991816,,,,,sub-223,1,random_dot,61.09310632686622,
left,left,49.0,1.0,24.0,left,1.0,0.587526406001416,,speed,space,3.718207723999512,,,,,,0.0,1.0,1.0,1.0,24.0,1.0,49.0,0.0,360.7054840199999,,,,,,,,,360.6900942909997,361.0394392509916,361.8395678419911,361.8231419609947,361.823576484996,361.8395678419911,361.8395678419911,361.8395678419911,362.4400187779975,,,,,,,,,,,,,,,,,,,,,,,,,,,,,,,left,1.0,0.587526406001416,,,,,sub-223,1,random_dot,61.09310632686622,
right,right,50.0,0.0,25.0,right,1.0,0.5063277449953603,,speed,space,3.718207723999512,,,,,,0.0,1.0,1.0,1.0,25.0,0.0,50.0,1.0,362.4559802929871,,,,,,,,,362.4403252489865,362.5392211819999,363.3394874859951,363.3230842259945,363.3235177399911,363.3394874859951,363.3394874859951,363.3394874859951,363.8567072809965,,,,,,,,,,,,,,,,,,,,,,,,,,,,,,,right,1.0,0.5063277449953603,,,,,sub-223,1,random_dot,61.09310632686622,
left,left,51.0,1.0,25.0,left,1.0,0.563880619010888,,speed,space,3.718207723999512,,,,,,0.0,1.0,1.0,1.0,25.0,1.0,51.0,0.0,363.8723928669933,,,,,,,,,363.85701494599925,363.95574014799786,364.7561204609956,364.7395549079956,364.7399944949866,364.7561204609956,364.7561204609956,364.7561204609956,365.3238984399941,,,,,,,,,,,,,,,,,,,,,,,,,,,,,,,left,1.0,0.563880619010888,,,,,sub-223,1,random_dot,61.09310632686622,
right,right,52.0,0.0,26.0,right,1.0,0.4745232459972612,,speed,space,3.718207723999512,,,,,,0.0,1.0,1.0,1.0,26.0,0.0,52.0,1.0,365.3391491929942,,,,,,,,,365.3242265359877,366.5394380969956,367.33935602499696,367.3230162799882,367.3234492769989,367.33935602499696,367.33935602499696,367.33935602499696,367.8233722339937,,,,,,,,,,,,,,,,,,,,,,,,,,,,,,,right,1.0,0.4745232459972612,,,,,sub-223,1,random_dot,61.09310632686622,
left,left,53.0,1.0,26.0,left,1.0,0.4183538399956887,,speed,space,3.718207723999512,,,,,,0.0,1.0,1.0,1.0,26.0,1.0,53.0,0.0,367.83938297799614,,,,,,,,,367.8236745329923,368.6393654519925,369.4393749649898,369.4229620900005,369.4233955379896,369.4393749649898,369.4393749649898,369.4393749649898,369.873218763998,,,,,,,,,,,,,,,,,,,,,,,,,,,,,,,left,1.0,0.4183538399956887,,,,,sub-223,1,random_dot,61.09310632686622,
right,right,54.0,0.0,27.0,left,0.0,0.7934657980076736,,speed,space,3.718207723999512,,,,,,0.0,1.0,1.0,1.0,27.0,0.0,54.0,1.0,369.889044096999,,,,,,,,,369.8735148909909,370.6887891869992,371.4892409729946,371.4730069159996,371.4734375909902,371.4892409729946,371.4892409729946,371.4892409729946,372.29086752999865,,,,,,,,,,,,,,,,,,,,,,,,,,,,,,,left,0.0,0.7934657980076736,,,,,sub-223,1,random_dot,61.09310632686622,
left,left,55.0,1.0,27.0,left,1.0,0.5235854200000176,,speed,space,3.718207723999512,,,,,,0.0,1.0,1.0,1.0,27.0,1.0,55.0,0.0,372.3057645399968,,,,,,,,,372.29132224099885,372.6561169509951,373.4563903189992,373.4399578070006,373.4403107389953,373.4563903189992,373.4563903189992,373.4563903189992,373.99074527098855,,,,,,,,,,,,,,,,,,,,,,,,,,,,,,,left,1.0,0.5235854200000176,,,,,sub-223,1,random_dot,61.09310632686622,
left,left,56.0,0.0,28.0,left,1.0,0.9805394319992048,,speed,space,3.718207723999512,,,,,,0.0,1.0,1.0,1.0,28.0,0.0,56.0,0.0,374.00585180398775,,,,,,,,,373.991051576988,374.106128096988,374.9061411649891,374.8896601469896,374.88999118898937,374.9061411649891,374.9061411649891,374.9061411649891,375.89061788299296,,,,,,,,,,,,,,,,,,,,,,,,,,,,,,,left,1.0,0.9805394319992048,,,,,sub-223,1,random_dot,61.09310632686622,
right,right,57.0,1.0,28.0,right,1.0,0.5013360260054469,,speed,space,3.718207723999512,,,,,,0.0,1.0,1.0,1.0,28.0,1.0,57.0,1.0,375.90569407299336,,,,,,,,,375.8910014079884,376.7060488509888,377.50617228099145,377.4897170359909,377.4900865279924,377.50617228099145,377.50617228099145,377.50617228099145,378.0234981209942,,,,,,,,,,,,,,,,,,,,,,,,,,,,,,,right,1.0,0.5013360260054469,,,,,sub-223,1,random_dot,61.09310632686622,
right,right,58.0,0.0,29.0,left,0.0,0.4259084369987249,,speed,space,3.718207723999512,,,,,,0.0,1.0,1.0,1.0,29.0,0.0,58.0,1.0,378.0393908459955,,,,,,,,,378.02385613298975,379.2226985559973,380.02270564698847,380.0062905599916,380.0067282029922,380.02270564698847,380.02270564698847,380.02270564698847,380.4568639349891,,,,,,,,,,,,,,,,,,,,,,,,,,,,,,,left,0.0,0.4259084369987249,,,,,sub-223,1,random_dot,61.09310632686622,
left,left,59.0,1.0,29.0,left,1.0,0.4616511029889807,,speed,space,3.718207723999512,,,,,,0.0,1.0,1.0,1.0,29.0,1.0,59.0,0.0,380.4722930279968,,,,,,,,,380.4571572739951,380.80597863398725,381.6059766589897,381.5896028219868,381.59004108799854,381.6059766589897,381.6059766589897,381.6059766589897,382.0737718899909,,,,,,,,,,,,,,,,,,,,,,,,,,,,,,,left,1.0,0.4616511029889807,,,,,sub-223,1,random_dot,61.09310632686622,
,,1.0,1.0,0.0,,,,,speed,space,3.718207723999512,,,,,,0.0,1.0,1.0,1.0,,,,,,,,,,,,,,,,,,,,,,,,,,,,,,,,,,,,,,,,,,,,,,,,,,,,,,,,,,,,sub-223,1,random_dot,61.09310632686622,
,,,,,,,,,,,,,,,,,,,,,,,,,,,,,,,,,,,,,,,,,,,,,,,,,,,,,,,,,,,,,,,,,,,,,,,,,,,,,382.0775282849936,382.0925292819884,387.0895825379994,sub-223,1,random_dot,61.09310632686622,
