wordCTK,colorCTK,corrAnsCTK,congruentCTK,thisN,thisTrialN,thisRepN,keyResp_CTK.keys,keyResp_CTK.corr,keyResp_CTK.rt,keyResp_CTK.duration,wordPractice,colorPractice,corrAnsPractice,congruentPractice,respPractice.keys,respPractice.corr,respPractice.rt,respPractice.duration,word,color,corrAns,congruent,keyResp_test_run.keys,keyResp_test_run.corr,keyResp_test_run.rt,keyResp_test_run.duration,trials_CTK.thisRepN,trials_CTK.thisTrialN,trials_CTK.thisN,trials_CTK.thisIndex,trials_practice.thisRepN,trials_practice.thisTrialN,trials_practice.thisN,trials_practice.thisIndex,trials_test.thisRepN,trials_test.thisTrialN,trials_test.thisN,trials_test.thisIndex,thisRow.t,notes,instruction.started,instr_text.started,instr_image.started,instr_resp.started,instruction.stopped,instr_resp.keys,instr_resp.rt,instr_resp.duration,instr_color_to_key.started,instr_ctk.started,resp_ctk.started,instr_color_to_key.stopped,resp_ctk.keys,resp_ctk.rt,resp_ctk.duration,ITI.started,fixcross.started,fixcross.stopped,ITI.stopped,color_to_key_run.started,stimulus_CTK.started,keyResp_CTK.started,color_to_key_run.stopped,trials_CTK.keyResp_CTK.keys,trials_CTK.keyResp_CTK.corr,trials_CTK.keyResp_CTK.rt,trials_CTK.keyResp_CTK.duration,instr_practice.started,instr_practice_text.started,instr_practice_resp.started,instr_practice.stopped,instr_practice_resp.keys,instr_practice_resp.rt,instr_practice_resp.duration,practice_run.started,stimulus_practice.started,respPractice.started,practice_run.stopped,trials_practice.respPractice.keys,trials_practice.respPractice.corr,trials_practice.respPractice.rt,trials_practice.respPractice.duration,feedback.started,textFeedback.started,textFeedback.stopped,feedback.stopped,instr_test.started,instr_test_text.started,instr_test_resp.started,instr_test.stopped,instr_test_resp.keys,instr_test_resp.rt,instr_test_resp.duration,test_run.started,stimulus_test_run.started,keyResp_test_run.started,test_run.stopped,trials_test.keyResp_test_run.keys,trials_test.keyResp_test_run.corr,trials_test.keyResp_test_run.rt,trials_test.keyResp_test_run.duration,goodbye.started,textGoodbye.started,goodbye.stopped,participant,session,expName,frameRate,Unnamed: 112
,,,,,,,,,,,,,,,,,,,,,,,,,,,,,,,,,,,,,,,,,0.0029513000044971,0.0372556000947952,0.0372556000947952,0.0372556000947952,46.81946030003019,space,46.76707379985601,,,,,,,,,,,,,,,,,,,,,,,,,,,,,,,,,,,,,,,,,,,,,,,,,,,,,,,,,,sub-218,1,stroop_test,60.124553994552215,
,,,,,,,,,,,,,,,,,,,,,,,,,,,,,,,,,,,,,,,,,,,,,,,,,46.81955110002309,46.82798500009813,46.82798500009813,50.377000000095,space,3.5375379999168217,,,,,,,,,,,,,,,,,,,,,,,,,,,,,,,,,,,,,,,,,,,,,,,,,,,sub-218,1,stroop_test,60.124553994552215,
test,blue,b,1.0,0.0,0.0,0.0,b,1.0,2.573175099911168,,,,,,,,,,,,,,,,,,0.0,0.0,0.0,2.0,,,,,,,,,50.392000700114295,,,,,,,,,,,,,,,,,50.38806080003269,50.74186070007272,51.54155530012213,51.5253159001004,51.531041300157085,51.54155530012213,51.54155530012213,54.124823899939656,b,1.0,2.573175099911168,,,,,,,,,,,,,,,,,,,,,,,,,,,,,,,,,,,,,,,sub-218,1,stroop_test,60.124553994552215,
test,yellow,g,1.0,1.0,1.0,0.0,g,1.0,1.2001147998962551,,,,,,,,,,,,,,,,,,0.0,1.0,1.0,1.0,,,,,,,,,54.14003739994951,,,,,,,,,,,,,,,,,54.125254299957305,54.48965040012263,55.28914800006896,55.27330460003577,55.27392309997231,55.28914800006896,55.28914800006896,56.50572629994713,g,1.0,1.2001147998962551,,,,,,,,,,,,,,,,,,,,,,,,,,,,,,,,,,,,,,,sub-218,1,stroop_test,60.124553994552215,
test,red,r,1.0,2.0,2.0,0.0,r,1.0,0.7119292998686433,,,,,,,,,,,,,,,,,,0.0,2.0,2.0,0.0,,,,,,,,,56.52156369993463,,,,,,,,,,,,,,,,,56.50591760012321,56.85481970012188,57.65435130009428,57.638262799941,57.63868380011991,57.65435130009428,57.65435130009428,58.37152280006558,r,1.0,0.7119292998686433,,,,,,,,,,,,,,,,,,,,,,,,,,,,,,,,,,,,,,,sub-218,1,stroop_test,60.124553994552215,
test,red,r,1.0,3.0,0.0,1.0,r,1.0,0.6762518000323325,,,,,,,,,,,,,,,,,,1.0,0.0,3.0,0.0,,,,,,,,,58.38798010000028,,,,,,,,,,,,,,,,,58.37170940008946,59.18684620014392,59.98623979999684,59.97022769995965,59.970724900020286,59.98623979999684,59.98623979999684,60.67052490008064,r,1.0,0.6762518000323325,,,,,,,,,,,,,,,,,,,,,,,,,,,,,,,,,,,,,,,sub-218,1,stroop_test,60.124553994552215,
test,blue,b,1.0,4.0,1.0,1.0,b,1.0,0.6924141000490636,,,,,,,,,,,,,,,,,,1.0,1.0,4.0,2.0,,,,,,,,,60.68577410001308,,,,,,,,,,,,,,,,,60.670881800120696,61.48529650014825,62.284838899970055,62.2688728000503,62.26936209993437,62.284838899970055,62.284838899970055,62.985631900141016,b,1.0,0.6924141000490636,,,,,,,,,,,,,,,,,,,,,,,,,,,,,,,,,,,,,,,sub-218,1,stroop_test,60.124553994552215,
test,yellow,g,1.0,5.0,2.0,1.0,g,1.0,0.4648522001225501,,,,,,,,,,,,,,,,,,1.0,2.0,5.0,1.0,,,,,,,,,63.00121679995209,,,,,,,,,,,,,,,,,62.98596110008657,64.20054770004936,65.00008610007353,64.98405490000732,64.98462849995121,65.00008610007353,65.00008610007353,65.46775900013745,g,1.0,0.4648522001225501,,,,,,,,,,,,,,,,,,,,,,,,,,,,,,,,,,,,,,,sub-218,1,stroop_test,60.124553994552215,
test,yellow,g,1.0,6.0,0.0,2.0,g,1.0,0.4449163000099361,,,,,,,,,,,,,,,,,,2.0,0.0,6.0,1.0,,,,,,,,,65.48288369993679,,,,,,,,,,,,,,,,,65.46811860008165,66.28265790012665,67.08199330000207,67.06584780011326,67.06614580005407,67.08199330000207,67.08199330000207,67.53336829994805,g,1.0,0.4449163000099361,,,,,,,,,,,,,,,,,,,,,,,,,,,,,,,,,,,,,,,sub-218,1,stroop_test,60.124553994552215,
test,red,r,1.0,7.0,1.0,2.0,r,1.0,0.6673890000674874,,,,,,,,,,,,,,,,,,2.0,1.0,7.0,0.0,,,,,,,,,67.54831010010093,,,,,,,,,,,,,,,,,67.53386460011825,67.6484449999407,68.44774989993311,68.43193960003555,68.43249749997631,68.44774989993311,68.44774989993311,69.13168930006213,r,1.0,0.6673890000674874,,,,,,,,,,,,,,,,,,,,,,,,,,,,,,,,,,,,,,,sub-218,1,stroop_test,60.124553994552215,
test,blue,b,1.0,8.0,2.0,2.0,b,1.0,0.6764672000426799,,,,,,,,,,,,,,,,,,2.0,2.0,8.0,2.0,,,,,,,,,69.14726100000553,,,,,,,,,,,,,,,,,69.13198129995726,69.49705659993924,70.29663949995302,70.28082230011933,70.28132500010543,70.29663949995302,70.29663949995302,70.9807649999857,b,1.0,0.6764672000426799,,,,,,,,,,,,,,,,,,,,,,,,,,,,,,,,,,,,,,,sub-218,1,stroop_test,60.124553994552215,
test,yellow,g,1.0,9.0,0.0,3.0,g,1.0,0.575933099957183,,,,,,,,,,,,,,,,,,3.0,0.0,9.0,1.0,,,,,,,,,70.99614359997213,,,,,,,,,,,,,,,,,70.98109340015799,72.19540940015577,72.99496549996547,72.97909560007975,72.97962930006906,72.99496549996547,72.99496549996547,73.57939329999499,g,1.0,0.575933099957183,,,,,,,,,,,,,,,,,,,,,,,,,,,,,,,,,,,,,,,sub-218,1,stroop_test,60.124553994552215,
test,red,r,1.0,10.0,1.0,3.0,r,1.0,0.6383328998927027,,,,,,,,,,,,,,,,,,3.0,1.0,10.0,0.0,,,,,,,,,73.59476840007119,,,,,,,,,,,,,,,,,73.57973679993302,73.69473180011846,74.49423960014246,74.47808609995991,74.4786547999829,74.49423960014246,74.49423960014246,75.14475420000963,r,1.0,0.6383328998927027,,,,,,,,,,,,,,,,,,,,,,,,,,,,,,,,,,,,,,,sub-218,1,stroop_test,60.124553994552215,
test,blue,b,1.0,11.0,2.0,3.0,b,1.0,0.6082932001445442,,,,,,,,,,,,,,,,,,3.0,2.0,11.0,2.0,,,,,,,,,75.16027560015209,,,,,,,,,,,,,,,,,75.14505370007828,75.51030550012365,76.30963260005228,76.2935129001271,76.29398810002021,76.30963260005228,76.30963260005228,76.92733700014651,b,1.0,0.6082932001445442,,,,,,,,,,,,,,,,,,,,,,,,,,,,,,,,,,,,,,,sub-218,1,stroop_test,60.124553994552215,
,,,,,,,,,,,,,,,,,,,,,,,,,,,,,,,,,,,,,,,,,,,,,,,,,,,,,,,,,,,,,,,,,,,,76.92748089996167,76.94291190011427,76.94291190011427,81.27502810000442,space,4.329798200167716,,,,,,,,,,,,,,,,,,,,,,,,,,,,,,,,sub-218,1,stroop_test,60.124553994552215,
,,,,0.0,0.0,0.0,,,,,blau,yellow,g,0.0,g,1.0,0.9037846999708564,,,,,,,,,,,,,,0.0,0.0,0.0,7.0,,,,,81.29084020014852,,,,,,,,,,,,,,,,,81.28702830011025,81.38977270014584,82.18935619993135,82.17346990015358,,,,,,,,,,,,,,,,82.17945370008238,82.18935619993135,82.18935619993135,83.10652250004932,g,1.0,0.9037846999708564,,83.11424589995295,83.12229840015061,84.12143560010009,84.10553380008787,,,,,,,,,,,,,,,,,,,sub-218,1,stroop_test,60.124553994552215,
,,,,1.0,1.0,0.0,,,,,rot,red,r,1.0,r,1.0,0.7819546000100672,,,,,,,,,,,,,,0.0,1.0,1.0,1.0,,,,,84.12143560010009,,,,,,,,,,,,,,,,,84.10582219995558,84.47126389993355,85.27087490004487,85.25498870015144,,,,,,,,,,,,,,,,85.26000480004586,85.27087490004487,85.27087490004487,86.05467690015212,r,1.0,0.7819546000100672,,86.05513520003296,86.07069650013,87.06962880003266,87.0538811001461,,,,,,,,,,,,,,,,,,,sub-218,1,stroop_test,60.124553994552215,
,,,,2.0,2.0,0.0,,,,,gelb,yellow,g,1.0,g,1.0,0.5484150999691337,,,,,,,,,,,,,,0.0,2.0,2.0,10.0,,,,,87.06962880003266,,,,,,,,,,,,,,,,,87.05422800011002,87.16969250002876,87.96911980002187,87.95324030006304,,,,,,,,,,,,,,,,87.95697790011764,87.96911980002187,87.96911980002187,88.52006280003116,g,1.0,0.5484150999691337,,88.52056600013748,88.53566509997472,89.53494020015933,89.51902230014093,,,,,,,,,,,,,,,,,,,sub-218,1,stroop_test,60.124553994552215,
,,,,3.0,3.0,0.0,,,,,rot,blue,b,0.0,b,1.0,1.6093685000669211,,,,,,,,,,,,,,0.0,3.0,3.0,2.0,,,,,89.53494020015933,,,,,,,,,,,,,,,,,89.51932379999198,89.88470440008678,90.684144299943,90.66839220002294,,,,,,,,,,,,,,,,90.67187259998173,90.684144299943,90.684144299943,92.30097420001402,b,1.0,1.6093685000669211,,92.30149420001544,92.31677330005914,93.3159610000439,93.3001831001602,,,,,,,,,,,,,,,,,,,sub-218,1,stroop_test,60.124553994552215,
,,,,4.0,4.0,0.0,,,,,blau,blue,b,1.0,b,1.0,0.6426749001257122,,,,,,,,,,,,,,0.0,4.0,4.0,5.0,,,,,93.3159610000439,,,,,,,,,,,,,,,,,93.30048640002497,93.66559550003149,94.4651647999417,94.44910820014776,,,,,,,,,,,,,,,,94.45197040005588,94.4651647999417,94.4651647999417,95.11567920004018,b,1.0,0.6426749001257122,,95.11620240006596,95.13172050006688,96.13097589998506,96.11480200011285,,,,,,,,,,,,,,,,,,,sub-218,1,stroop_test,60.124553994552215,
,,,,5.0,5.0,0.0,,,,,blau,red,r,0.0,b,0.0,0.9006997998803854,,,,,,,,,,,,,,0.0,5.0,5.0,4.0,,,,,96.13097589998506,,,,,,,,,,,,,,,,,96.11512250010855,96.9305583999958,97.73002130002716,97.7135169999674,,,,,,,,,,,,,,,,97.71384800015947,97.73002130002716,97.73002130002716,98.64774679997936,b,0.0,0.9006997998803854,,98.6554270000197,98.66274549998344,99.66219460009596,99.64655199996196,,,,,,,,,,,,,,,,,,,sub-218,1,stroop_test,60.124553994552215,
,,,,6.0,6.0,0.0,,,,,blau,blue,b,1.0,b,1.0,1.0480863999109715,,,,,,,,,,,,,,0.0,6.0,6.0,6.0,,,,,99.66219460009596,,,,,,,,,,,,,,,,,99.64703979995102,100.01170999999158,100.8115612999536,100.79527360014616,,,,,,,,,,,,,,,,100.79573340015486,100.8115612999536,100.8115612999536,101.86242470005529,b,1.0,1.0480863999109715,,101.86785729997791,101.87739900010638,102.87670559994876,102.86115460004658,,,,,,,,,,,,,,,,,,,sub-218,1,stroop_test,60.124553994552215,
,,,,7.0,7.0,0.0,,,,,gelb,blue,b,0.0,b,1.0,1.4734879999887198,,,,,,,,,,,,,,0.0,7.0,7.0,9.0,,,,,102.87670559994876,,,,,,,,,,,,,,,,,102.86158960009924,103.67619050014764,104.47583790007047,104.45966370007956,,,,,,,,,,,,,,,,104.46161140012556,104.47583790007047,104.47583790007047,105.95976980007254,b,1.0,1.4734879999887198,,105.96039170003496,105.97481080004944,106.97416750015692,106.95834599994124,,,,,,,,,,,,,,,,,,,sub-218,1,stroop_test,60.124553994552215,
,,,,8.0,8.0,0.0,,,,,gelb,yellow,g,1.0,g,1.0,0.6592287998646498,,,,,,,,,,,,,,0.0,8.0,8.0,11.0,,,,,106.97416750015692,,,,,,,,,,,,,,,,,106.95869290013798,107.07410730002448,107.87358770007268,107.85779560008086,,,,,,,,,,,,,,,,107.85834560007788,107.87358770007268,107.87358770007268,108.54111150000244,g,1.0,0.6592287998646498,,108.54162889998406,108.55675430013798,109.55605489993468,109.53994020004755,,,,,,,,,,,,,,,,,,,sub-218,1,stroop_test,60.124553994552215,
,,,,9.0,9.0,0.0,,,,,rot,red,r,1.0,r,1.0,0.7522668000310659,,,,,,,,,,,,,,0.0,9.0,9.0,0.0,,,,,109.55605489993468,,,,,,,,,,,,,,,,,109.54024400003254,109.65584470005706,110.45555069996044,110.43968820013106,,,,,,,,,,,,,,,,110.44353910000063,110.45555069996044,110.45555069996044,111.22298660012892,r,1.0,0.7522668000310659,,111.22350209997968,111.23850600002334,112.23774280003272,112.22162650013342,,,,,,,,,,,,,,,,,,,sub-218,1,stroop_test,60.124553994552215,
,,,,10.0,10.0,0.0,,,,,rot,yellow,g,0.0,g,1.0,1.5692408001050353,,,,,,,,,,,,,,0.0,10.0,10.0,3.0,,,,,112.23774280003272,,,,,,,,,,,,,,,,,112.22194040007888,113.436905000126,114.23665160010567,114.22053020005114,,,,,,,,,,,,,,,,114.2211140000727,114.23665160010567,114.23665160010567,115.82035870011896,g,1.0,1.5692408001050353,,115.82095470000058,115.83549219998532,116.83482809993438,116.81905069993807,,,,,,,,,,,,,,,,,,,sub-218,1,stroop_test,60.124553994552215,
,,,,11.0,11.0,0.0,,,,,gelb,red,r,0.0,r,1.0,1.0220911998767406,,,,,,,,,,,,,,0.0,11.0,11.0,8.0,,,,,116.83482809993438,,,,,,,,,,,,,,,,,116.81939320010132,117.18461850006132,117.98433060012758,117.96838059998116,,,,,,,,,,,,,,,,117.97218940011226,117.98433060012758,117.98433060012758,119.01814729999752,r,1.0,1.0220911998767406,,119.01873290003276,119.03358769998886,120.03284440003335,120.01720919995569,,,,,,,,,,,,,,,,,,,sub-218,1,stroop_test,60.124553994552215,
,,,,12.0,0.0,1.0,,,,,rot,red,r,1.0,r,1.0,0.830579400062561,,,,,,,,,,,,,,1.0,0.0,12.0,0.0,,,,,120.03284440003335,,,,,,,,,,,,,,,,,120.0175867001526,120.83238880010322,121.63195990002714,121.61604840005748,,,,,,,,,,,,,,,,121.61978109995836,121.63195990002714,121.63195990002714,122.46612660004756,r,1.0,0.830579400062561,,122.46668529999442,122.48140470008366,123.48073980002664,123.46492790011688,,,,,,,,,,,,,,,,,,,sub-218,1,stroop_test,60.124553994552215,
,,,,13.0,1.0,1.0,,,,,gelb,yellow,g,1.0,g,1.0,1.1586063001304865,,,,,,,,,,,,,,1.0,1.0,13.0,11.0,,,,,123.48073980002664,,,,,,,,,,,,,,,,,123.46527189994232,124.28026779997164,125.0797832000535,125.06392570002936,,,,,,,,,,,,,,,,125.06783409998752,125.0797832000535,125.0797832000535,126.24712130008264,g,1.0,1.1586063001304865,,126.24770550010726,126.2626181000378,127.2617039999459,127.24594700010492,,,,,,,,,,,,,,,,,,,sub-218,1,stroop_test,60.124553994552215,
,,,,14.0,2.0,1.0,,,,,gelb,yellow,g,1.0,g,1.0,0.7346063998993486,,,,,,,,,,,,,,1.0,2.0,14.0,10.0,,,,,127.2617039999459,,,,,,,,,,,,,,,,,127.24624660005792,128.06153480010107,128.8610881001223,128.8450184999965,,,,,,,,,,,,,,,,128.84568300005049,128.8610881001223,128.8610881001223,129.61213700007647,g,1.0,0.7346063998993486,,129.61290830001235,129.62733640009537,130.62640150007792,130.61044450011104,,,,,,,,,,,,,,,,,,,sub-218,1,stroop_test,60.124553994552215,
,,,,15.0,3.0,1.0,,,,,blau,yellow,g,0.0,g,1.0,0.8842751001939178,,,,,,,,,,,,,,1.0,3.0,15.0,7.0,,,,,130.62640150007792,,,,,,,,,,,,,,,,,130.6107225001324,131.8256371000316,132.62517290003598,132.6092987000011,,,,,,,,,,,,,,,,132.61230390006676,132.62517290003598,132.62517290003598,133.52607020013966,g,1.0,0.8842751001939178,,133.52660600002855,133.54128809995018,134.54076300002637,134.5249189999886,,,,,,,,,,,,,,,,,,,sub-218,1,stroop_test,60.124553994552215,
,,,,16.0,4.0,1.0,,,,,blau,red,r,0.0,r,1.0,1.1304111999925226,,,,,,,,,,,,,,1.0,4.0,16.0,4.0,,,,,134.54076300002637,,,,,,,,,,,,,,,,,134.5252362000756,135.34012690000236,136.13967720000073,136.1236288000364,,,,,,,,,,,,,,,,136.12411630013958,136.13967720000073,136.13967720000073,137.27375570009465,r,1.0,1.1304111999925226,,137.2742668001447,137.28926690015942,138.28854280011728,138.27269310015254,,,,,,,,,,,,,,,,,,,sub-218,1,stroop_test,60.124553994552215,
,,,,17.0,5.0,1.0,,,,,blau,blue,b,1.0,b,1.0,0.8425232002045959,,,,,,,,,,,,,,1.0,5.0,17.0,6.0,,,,,138.28854280011728,,,,,,,,,,,,,,,,,138.27306980011053,139.08786570001394,139.88767460011877,139.8718819001224,,,,,,,,,,,,,,,,139.87255239998922,139.88767460011877,139.88767460011877,140.73832170013338,b,1.0,0.8425232002045959,,140.7389084000606,140.7537769000046,141.75291209993884,141.73708630003966,,,,,,,,,,,,,,,,,,,sub-218,1,stroop_test,60.124553994552215,
,,,,18.0,6.0,1.0,,,,,gelb,red,r,0.0,r,1.0,0.8918757999781519,,,,,,,,,,,,,,1.0,6.0,18.0,8.0,,,,,141.75291209993884,,,,,,,,,,,,,,,,,141.7374315999914,141.8528337001335,142.65236390009522,142.636478099972,,,,,,,,,,,,,,,,142.64021169999614,142.65236390009522,142.65236390009522,143.55328640015796,r,1.0,0.8918757999781519,,143.55387439997867,143.56853760010563,144.56786960014142,144.55205520009622,,,,,,,,,,,,,,,,,,,sub-218,1,stroop_test,60.124553994552215,
,,,,19.0,7.0,1.0,,,,,rot,red,r,1.0,r,1.0,0.6097241998650134,,,,,,,,,,,,,,1.0,7.0,19.0,1.0,,,,,144.56786960014142,,,,,,,,,,,,,,,,,144.5524039999582,145.76725440006703,146.5667598999571,146.5507674999535,,,,,,,,,,,,,,,,146.5550981000997,146.5667598999571,146.5667598999571,147.18436680012385,r,1.0,0.6097241998650134,,147.18519950006157,147.19987100013532,148.1989862001501,148.1831402000971,,,,,,,,,,,,,,,,,,,sub-218,1,stroop_test,60.124553994552215,
,,,,20.0,8.0,1.0,,,,,blau,blue,b,1.0,b,1.0,0.6736920000985265,,,,,,,,,,,,,,1.0,8.0,20.0,5.0,,,,,148.1989862001501,,,,,,,,,,,,,,,,,148.1835074000992,149.398245499935,150.19804219994694,150.1817274999339,,,,,,,,,,,,,,,,150.1850517001003,150.19804219994694,150.19804219994694,150.88193550007418,b,1.0,0.6736920000985265,,150.8824106999673,150.89762840000913,151.89668530016206,151.8810485000722,,,,,,,,,,,,,,,,,,,sub-218,1,stroop_test,60.124553994552215,
,,,,21.0,9.0,1.0,,,,,gelb,blue,b,0.0,b,1.0,0.9113036999478936,,,,,,,,,,,,,,1.0,9.0,21.0,9.0,,,,,151.89668530016206,,,,,,,,,,,,,,,,,151.88136490015313,152.69618820003234,153.49575929995626,153.47978750010952,,,,,,,,,,,,,,,,153.4833244001493,153.49575929995626,153.49575929995626,154.41331800003536,b,1.0,0.9113036999478936,,154.41384840011597,154.42856710008346,155.42809020006098,155.4121255001519,,,,,,,,,,,,,,,,,,,sub-218,1,stroop_test,60.124553994552215,
,,,,22.0,10.0,1.0,,,,,rot,yellow,g,0.0,g,1.0,0.8622604000847787,,,,,,,,,,,,,,1.0,10.0,22.0,3.0,,,,,155.42809020006098,,,,,,,,,,,,,,,,,155.41244939994067,156.62719510006718,157.42670350009575,157.41094400011934,,,,,,,,,,,,,,,,157.41484380001202,157.42670350009575,157.42670350009575,158.29430860001594,g,1.0,0.8622604000847787,,158.29489369993098,158.3094693000894,159.30900779995136,159.29323619999923,,,,,,,,,,,,,,,,,,,sub-218,1,stroop_test,60.124553994552215,
,,,,23.0,11.0,1.0,,,,,rot,blue,b,0.0,b,1.0,1.0374922000337392,,,,,,,,,,,,,,1.0,11.0,23.0,2.0,,,,,159.30900779995136,,,,,,,,,,,,,,,,,159.29362060013227,160.1083989001345,160.9081520999316,160.8924607001245,,,,,,,,,,,,,,,,160.89329700008966,160.9081520999316,160.9081520999316,161.95841920003295,b,1.0,1.0374922000337392,,161.9588636001572,161.97397839999758,162.97339270007797,162.95760140009224,,,,,,,,,,,,,,,,,,,sub-218,1,stroop_test,60.124553994552215,
,,,,,,,,,,,,,,,,,,,,,,,,,,,,,,,,,,,,,,,,,,,,,,,,,,,,,,,,,,,,,,,,,,,,,,,,,,,,,,,,,,,,,,,162.9577270001173,162.97339270007797,162.97339270007797,171.5025516001042,space,8.512149499962106,,,,,,,,,,,,,sub-218,1,stroop_test,60.124553994552215,
,,,,0.0,0.0,0.0,,,,,,,,,,,,,gelb,yellow,g,1.0,g,1.0,1.062374599976465,,,,,,,,,,0.0,0.0,0.0,10.0,171.5180097001139,,,,,,,,,,,,,,,,,171.51410020003095,172.3178143000696,173.1173042000737,173.10128469998017,,,,,,,,,,,,,,,,,,,,,,,,,,,,,,,,,,,173.1050975001417,173.1173042000737,173.1173042000737,174.18453070009127,g,1.0,1.062374599976465,,,,,sub-218,1,stroop_test,60.124553994552215,
,,,,1.0,1.0,0.0,,,,,,,,,,,,,blau,yellow,g,0.0,g,1.0,1.5911183999851346,,,,,,,,,,0.0,1.0,1.0,7.0,174.19973240001127,,,,,,,,,,,,,,,,,174.1849406999536,175.39903780003078,176.1987767000683,176.18279600003734,,,,,,,,,,,,,,,,,,,,,,,,,,,,,,,,,,,176.18758390005678,176.1987767000683,176.1987767000683,177.7990610001143,g,1.0,1.5911183999851346,,,,,sub-218,1,stroop_test,60.124553994552215,
,,,,2.0,2.0,0.0,,,,,,,,,,,,,gelb,red,r,0.0,r,1.0,0.9091235999949276,,,,,,,,,,0.0,2.0,2.0,8.0,177.81423230003566,,,,,,,,,,,,,,,,,177.79946939996444,179.0136520001106,179.81301259994507,179.7971226000227,,,,,,,,,,,,,,,,,,,,,,,,,,,,,,,,,,,179.8008761999663,179.81301259994507,179.81301259994507,180.7304319001269,r,1.0,0.9091235999949276,,,,,sub-218,1,stroop_test,60.124553994552215,
,,,,3.0,3.0,0.0,,,,,,,,,,,,,gelb,yellow,g,1.0,g,1.0,0.6094311999622732,,,,,,,,,,0.0,3.0,3.0,11.0,180.74570540012792,,,,,,,,,,,,,,,,,180.73074889997952,181.94523239997216,182.74463590001687,182.728662900161,,,,,,,,,,,,,,,,,,,,,,,,,,,,,,,,,,,182.7290918000508,182.74463590001687,182.74463590001687,183.3621986999642,g,1.0,0.6094311999622732,,,,,sub-218,1,stroop_test,60.124553994552215,
,,,,4.0,4.0,0.0,,,,,,,,,,,,,rot,yellow,g,0.0,g,1.0,0.965365800075233,,,,,,,,,,0.0,4.0,4.0,3.0,183.3774564999621,,,,,,,,,,,,,,,,,183.36252980004065,183.47744420007805,184.27696510008536,184.26109610009007,,,,,,,,,,,,,,,,,,,,,,,,,,,,,,,,,,,184.26528379996307,184.27696510008536,184.27696510008536,185.2445845999755,g,1.0,0.965365800075233,,,,,sub-218,1,stroop_test,60.124553994552215,
,,,,5.0,5.0,0.0,,,,,,,,,,,,,blau,blue,b,1.0,b,1.0,0.6561539000831544,,,,,,,,,,0.0,5.0,5.0,6.0,185.25962730008175,,,,,,,,,,,,,,,,,185.24501430010423,186.05921970005147,186.8585463000927,186.84262940008196,,,,,,,,,,,,,,,,,,,,,,,,,,,,,,,,,,,186.84539699996824,186.8585463000927,186.8585463000927,187.52611270011403,b,1.0,0.6561539000831544,,,,,sub-218,1,stroop_test,60.124553994552215,
,,,,6.0,6.0,0.0,,,,,,,,,,,,,blau,red,r,0.0,r,1.0,0.9036805999930948,,,,,,,,,,0.0,6.0,6.0,4.0,187.5417719001416,,,,,,,,,,,,,,,,,187.52650379994884,188.3411656001117,189.14069220004603,189.12509580003095,,,,,,,,,,,,,,,,,,,,,,,,,,,,,,,,,,,189.12577990000136,189.14069220004603,189.14069220004603,190.05810309993103,r,1.0,0.9036805999930948,,,,,sub-218,1,stroop_test,60.124553994552215,
,,,,7.0,7.0,0.0,,,,,,,,,,,,,gelb,blue,b,0.0,b,1.0,0.973360399948433,,,,,,,,,,0.0,7.0,7.0,9.0,190.07359090005048,,,,,,,,,,,,,,,,,190.05853800009936,191.27289819996804,192.07221510005184,192.056197399972,,,,,,,,,,,,,,,,,,,,,,,,,,,,,,,,,,,192.0605140000116,192.07221510005184,192.07221510005184,193.05655680014752,b,1.0,0.973360399948433,,,,,sub-218,1,stroop_test,60.124553994552215,
,,,,8.0,8.0,0.0,,,,,,,,,,,,,rot,blue,b,0.0,b,1.0,1.2583939000032842,,,,,,,,,,0.0,8.0,8.0,2.0,193.07166499993764,,,,,,,,,,,,,,,,,193.05698839994147,193.42134040012024,194.22086780006063,194.20492910011671,,,,,,,,,,,,,,,,,,,,,,,,,,,,,,,,,,,194.2080651000142,194.22086780006063,194.22086780006063,195.4877669000998,b,1.0,1.2583939000032842,,,,,sub-218,1,stroop_test,60.124553994552215,
,,,,9.0,9.0,0.0,,,,,,,,,,,,,blau,blue,b,1.0,b,1.0,0.9593764001037924,,,,,,,,,,0.0,9.0,9.0,5.0,195.50335370004177,,,,,,,,,,,,,,,,,195.4881085001398,195.8532287999988,196.65267640003003,196.6366562000476,,,,,,,,,,,,,,,,,,,,,,,,,,,,,,,,,,,196.64020660007367,196.65267640003003,196.65267640003003,197.6202380999457,b,1.0,0.9593764001037924,,,,,sub-218,1,stroop_test,60.124553994552215,
,,,,10.0,10.0,0.0,,,,,,,,,,,,,rot,red,r,1.0,g,0.0,0.7367686000652611,,,,,,,,,,0.0,10.0,10.0,0.0,197.63545659999363,,,,,,,,,,,,,,,,,197.6206110001076,198.8346564001404,199.6344074001536,199.61839670012705,,,,,,,,,,,,,,,,,,,,,,,,,,,,,,,,,,,199.62205839995292,199.6344074001536,199.6344074001536,200.38497840007767,g,0.0,0.7367686000652611,,,,,sub-218,1,stroop_test,60.124553994552215,
,,,,11.0,11.0,0.0,,,,,,,,,,,,,rot,red,r,1.0,r,1.0,0.7712360001169145,,,,,,,,,,0.0,11.0,11.0,1.0,200.40060700010508,,,,,,,,,,,,,,,,,200.3853726000525,200.5002596999984,201.29984450014308,201.2839592001401,,,,,,,,,,,,,,,,,,,,,,,,,,,,,,,,,,,201.28450209996663,201.29984450014308,201.29984450014308,202.0841628999915,r,1.0,0.7712360001169145,,,,,sub-218,1,stroop_test,60.124553994552215,
,,,,12.0,0.0,1.0,,,,,,,,,,,,,gelb,yellow,g,1.0,g,1.0,0.6721264999359846,,,,,,,,,,1.0,0.0,12.0,11.0,202.09932169993408,,,,,,,,,,,,,,,,,202.08457030006684,202.19932759995567,202.99908170010892,202.9829657999799,,,,,,,,,,,,,,,,,,,,,,,,,,,,,,,,,,,202.986837600125,202.99908170010892,202.99908170010892,203.6833105001133,g,1.0,0.6721264999359846,,,,,sub-218,1,stroop_test,60.124553994552215,
,,,,13.0,1.0,1.0,,,,,,,,,,,,,gelb,blue,b,0.0,b,1.0,0.7745755000505596,,,,,,,,,,1.0,1.0,13.0,9.0,203.69850519998,,,,,,,,,,,,,,,,,203.6837174999528,204.0481958000455,204.8477467999328,204.83200659998693,,,,,,,,,,,,,,,,,,,,,,,,,,,,,,,,,,,204.83263990003616,204.8477467999328,204.8477467999328,205.63171310001053,b,1.0,0.7745755000505596,,,,,sub-218,1,stroop_test,60.124553994552215,
,,,,14.0,2.0,1.0,,,,,,,,,,,,,blau,blue,b,1.0,b,1.0,0.700222099898383,,,,,,,,,,1.0,2.0,14.0,5.0,205.64716450008564,,,,,,,,,,,,,,,,,205.63206980004907,206.84660700010136,207.64604440005496,207.62991260015409,,,,,,,,,,,,,,,,,,,,,,,,,,,,,,,,,,,207.6329096001573,207.64604440005496,207.64604440005496,208.3634585000109,b,1.0,0.700222099898383,,,,,sub-218,1,stroop_test,60.124553994552215,
,,,,15.0,3.0,1.0,,,,,,,,,,,,,rot,red,r,1.0,r,1.0,0.654785200022161,,,,,,,,,,1.0,3.0,15.0,1.0,208.37888530013151,,,,,,,,,,,,,,,,,208.36384290014396,209.5783228999935,210.37785049993545,210.3620394000318,,,,,,,,,,,,,,,,,,,,,,,,,,,,,,,,,,,210.36803800007328,210.37785049993545,210.37785049993545,211.04503350006416,r,1.0,0.654785200022161,,,,,sub-218,1,stroop_test,60.124553994552215,
,,,,16.0,4.0,1.0,,,,,,,,,,,,,rot,red,r,1.0,r,1.0,0.593172200024128,,,,,,,,,,1.0,4.0,16.0,0.0,211.0607853999827,,,,,,,,,,,,,,,,,211.04539879993536,211.41033720015548,212.20984970009889,212.1937820999883,,,,,,,,,,,,,,,,,,,,,,,,,,,,,,,,,,,212.1942684000824,212.20984970009889,212.20984970009889,212.81050899997356,r,1.0,0.593172200024128,,,,,sub-218,1,stroop_test,60.124553994552215,
,,,,17.0,5.0,1.0,,,,,,,,,,,,,rot,yellow,g,0.0,g,1.0,0.697409600019455,,,,,,,,,,1.0,5.0,17.0,3.0,212.82616399996917,,,,,,,,,,,,,,,,,212.8108431999572,213.6259409999475,214.42525700014085,214.4094392999541,,,,,,,,,,,,,,,,,,,,,,,,,,,,,,,,,,,214.4100886001252,214.42525700014085,214.42525700014085,215.1264838001225,g,1.0,0.697409600019455,,,,,sub-218,1,stroop_test,60.124553994552215,
,,,,18.0,6.0,1.0,,,,,,,,,,,,,rot,blue,b,0.0,b,1.0,0.8260566000826657,,,,,,,,,,1.0,6.0,18.0,2.0,215.14160380000249,,,,,,,,,,,,,,,,,215.12696649995632,215.9411011999473,216.74051090003923,216.72492860001512,,,,,,,,,,,,,,,,,,,,,,,,,,,,,,,,,,,216.7255681999959,216.74051090003923,216.74051090003923,217.57427920005284,b,1.0,0.8260566000826657,,,,,sub-218,1,stroop_test,60.124553994552215,
,,,,19.0,7.0,1.0,,,,,,,,,,,,,gelb,red,r,0.0,r,1.0,0.9815018998924644,,,,,,,,,,1.0,7.0,19.0,8.0,217.58984340005557,,,,,,,,,,,,,,,,,217.5746063999832,217.6733550000936,218.4727285001427,218.4567005999852,,,,,,,,,,,,,,,,,,,,,,,,,,,,,,,,,,,218.46040800004263,218.4727285001427,218.4727285001427,219.4569087000564,r,1.0,0.9815018998924644,,,,,sub-218,1,stroop_test,60.124553994552215,
,,,,20.0,8.0,1.0,,,,,,,,,,,,,blau,blue,b,1.0,b,1.0,0.6786361001431942,,,,,,,,,,1.0,8.0,20.0,6.0,219.47230529994704,,,,,,,,,,,,,,,,,219.4572654999793,219.5719775999896,220.3715634001419,220.35574240004644,,,,,,,,,,,,,,,,,,,,,,,,,,,,,,,,,,,220.3587573000696,220.3715634001419,220.3715634001419,221.055589399999,b,1.0,0.6786361001431942,,,,,sub-218,1,stroop_test,60.124553994552215,
,,,,21.0,9.0,1.0,,,,,,,,,,,,,blau,red,r,0.0,r,1.0,0.8582659000530839,,,,,,,,,,1.0,9.0,21.0,4.0,221.07108080014584,,,,,,,,,,,,,,,,,221.05595359997824,221.4210135000758,222.22043710015717,222.2045291999821,,,,,,,,,,,,,,,,,,,,,,,,,,,,,,,,,,,222.20509249996397,222.22043710015717,222.22043710015717,223.0880919999909,r,1.0,0.8582659000530839,,,,,sub-218,1,stroop_test,60.124553994552215,
,,,,22.0,10.0,1.0,,,,,,,,,,,,,gelb,yellow,g,1.0,g,1.0,0.5276186000555754,,,,,,,,,,1.0,10.0,22.0,10.0,223.103248400148,,,,,,,,,,,,,,,,,223.0884976000525,224.30245449999347,225.10197159997188,225.08623780007477,,,,,,,,,,,,,,,,,,,,,,,,,,,,,,,,,,,225.09036729997024,225.10197159997188,225.10197159997188,225.63635100005197,g,1.0,0.5276186000555754,,,,,sub-218,1,stroop_test,60.124553994552215,
,,,,23.0,11.0,1.0,,,,,,,,,,,,,blau,yellow,g,0.0,b,0.0,0.6165668000467122,,,,,,,,,,1.0,11.0,23.0,7.0,225.65166890015823,,,,,,,,,,,,,,,,,225.6367568001151,226.45127920014784,227.25094530009665,227.23467040015385,,,,,,,,,,,,,,,,,,,,,,,,,,,,,,,,,,,227.23820090014488,227.25094530009665,227.25094530009665,227.86890020011924,b,0.0,0.6165668000467122,,,,,sub-218,1,stroop_test,60.124553994552215,
,,,,24.0,0.0,2.0,,,,,,,,,,,,,rot,blue,b,0.0,b,1.0,1.4521261998452246,,,,,,,,,,2.0,0.0,24.0,2.0,227.8838641000912,,,,,,,,,,,,,,,,,227.86931050010023,227.98368089995347,228.78322140011005,228.76717420015484,,,,,,,,,,,,,,,,,,,,,,,,,,,,,,,,,,,228.77090290002525,228.78322140011005,228.78322140011005,230.2501880000345,b,1.0,1.4521261998452246,,,,,sub-218,1,stroop_test,60.124553994552215,
,,,,25.0,1.0,2.0,,,,,,,,,,,,,blau,blue,b,1.0,b,1.0,0.6962798999156803,,,,,,,,,,2.0,1.0,25.0,6.0,230.2657244000584,,,,,,,,,,,,,,,,,230.25059740012512,231.06499660015103,231.8645467001479,231.84868089994416,,,,,,,,,,,,,,,,,,,,,,,,,,,,,,,,,,,231.8519731000997,231.8645467001479,231.8645467001479,232.5650665999856,b,1.0,0.6962798999156803,,,,,sub-218,1,stroop_test,60.124553994552215,
,,,,26.0,2.0,2.0,,,,,,,,,,,,,blau,yellow,g,0.0,g,1.0,0.8812045000959188,,,,,,,,,,2.0,2.0,26.0,7.0,232.58125420007852,,,,,,,,,,,,,,,,,232.5652759000659,232.93056430015716,233.73011390003376,233.7141074000392,,,,,,,,,,,,,,,,,,,,,,,,,,,,,,,,,,,233.71460360009223,233.73011390003376,233.73011390003376,234.61433240002955,g,1.0,0.8812045000959188,,,,,sub-218,1,stroop_test,60.124553994552215,
,,,,27.0,3.0,2.0,,,,,,,,,,,,,gelb,blue,b,0.0,b,1.0,1.0163024000357836,,,,,,,,,,2.0,3.0,27.0,9.0,234.62966580013745,,,,,,,,,,,,,,,,,234.61473869998008,234.72940460010432,235.5289638999384,235.51305310009047,,,,,,,,,,,,,,,,,,,,,,,,,,,,,,,,,,,235.5172703000717,235.5289638999384,235.5289638999384,236.5465168999508,b,1.0,1.0163024000357836,,,,,sub-218,1,stroop_test,60.124553994552215,
,,,,28.0,4.0,2.0,,,,,,,,,,,,,rot,red,r,1.0,r,1.0,0.9545685001648962,,,,,,,,,,2.0,4.0,28.0,1.0,236.5616119999904,,,,,,,,,,,,,,,,,236.5468916001264,237.7609056001529,238.5604222000111,238.5444205000531,,,,,,,,,,,,,,,,,,,,,,,,,,,,,,,,,,,238.54786280007104,238.5604222000111,238.5604222000111,239.52795580006205,r,1.0,0.9545685001648962,,,,,sub-218,1,stroop_test,60.124553994552215,
,,,,29.0,5.0,2.0,,,,,,,,,,,,,gelb,yellow,g,1.0,g,1.0,0.6622579998802394,,,,,,,,,,2.0,5.0,29.0,11.0,239.5431025000289,,,,,,,,,,,,,,,,,239.5283290001098,240.3426300000865,241.14247349998917,241.12638440006413,,,,,,,,,,,,,,,,,,,,,,,,,,,,,,,,,,,241.1293860001024,241.14247349998917,241.14247349998917,241.8098437001463,g,1.0,0.6622579998802394,,,,,sub-218,1,stroop_test,60.124553994552215,
,,,,30.0,6.0,2.0,,,,,,,,,,,,,gelb,red,r,0.0,r,1.0,0.9319940998684616,,,,,,,,,,2.0,6.0,30.0,8.0,241.82510170014572,,,,,,,,,,,,,,,,,241.81017290009183,241.9250858000014,242.7245732001029,242.7084321000148,,,,,,,,,,,,,,,,,,,,,,,,,,,,,,,,,,,242.7087407000363,242.7245732001029,242.7245732001029,243.6584348001052,r,1.0,0.9319940998684616,,,,,sub-218,1,stroop_test,60.124553994552215,
,,,,31.0,7.0,2.0,,,,,,,,,,,,,blau,blue,b,1.0,b,1.0,1.0829755999147892,,,,,,,,,,2.0,7.0,31.0,5.0,243.6739044999704,,,,,,,,,,,,,,,,,243.6587809999473,244.02369219996035,244.8234801001381,244.80724200000984,,,,,,,,,,,,,,,,,,,,,,,,,,,,,,,,,,,244.81006029993296,244.8234801001381,244.8234801001381,245.90770850004628,b,1.0,1.0829755999147892,,,,,sub-218,1,stroop_test,60.124553994552215,
,,,,32.0,8.0,2.0,,,,,,,,,,,,,gelb,yellow,g,1.0,g,1.0,0.6235286998562515,,,,,,,,,,2.0,8.0,32.0,10.0,245.92260950012133,,,,,,,,,,,,,,,,,245.9080646999646,246.2723390001338,247.07198350015096,247.05612120009027,,,,,,,,,,,,,,,,,,,,,,,,,,,,,,,,,,,247.05802810005844,247.07198350015096,247.07198350015096,247.7058649000246,g,1.0,0.6235286998562515,,,,,sub-218,1,stroop_test,60.124553994552215,
,,,,33.0,9.0,2.0,,,,,,,,,,,,,rot,red,r,1.0,r,1.0,0.6635187000501901,,,,,,,,,,2.0,9.0,33.0,0.0,247.7214657000732,,,,,,,,,,,,,,,,,247.70619720011015,247.8213848001324,248.6209106000606,248.60501120006663,,,,,,,,,,,,,,,,,,,,,,,,,,,,,,,,,,,248.6088607001584,248.6209106000606,248.6209106000606,249.28865640005097,r,1.0,0.6635187000501901,,,,,sub-218,1,stroop_test,60.124553994552215,
,,,,34.0,10.0,2.0,,,,,,,,,,,,,rot,yellow,g,0.0,g,1.0,0.9299023000057788,,,,,,,,,,2.0,10.0,34.0,3.0,249.3038107000757,,,,,,,,,,,,,,,,,249.289080100134,250.10335310013036,250.90309270005676,250.8869811000768,,,,,,,,,,,,,,,,,,,,,,,,,,,,,,,,,,,250.8875710000284,250.90309270005676,250.90309270005676,251.8364860999864,g,1.0,0.9299023000057788,,,,,sub-218,1,stroop_test,60.124553994552215,
,,,,35.0,11.0,2.0,,,,,,,,,,,,,blau,red,r,0.0,r,1.0,0.8394375999923795,,,,,,,,,,2.0,11.0,35.0,4.0,251.8525133000221,,,,,,,,,,,,,,,,,251.83670990006067,252.65203190012835,253.4513578999322,253.43531000008807,,,,,,,,,,,,,,,,,,,,,,,,,,,,,,,,,,,253.43878610013053,253.4513578999322,253.4513578999322,254.30210840003565,r,1.0,0.8394375999923795,,,,,sub-218,1,stroop_test,60.124553994552215,
,,,,36.0,0.0,3.0,,,,,,,,,,,,,blau,blue,b,1.0,b,1.0,0.5847988000605255,,,,,,,,,,3.0,0.0,36.0,5.0,254.31740460009317,,,,,,,,,,,,,,,,,254.302464599954,254.66735640005209,255.46692589996383,255.45075069996528,,,,,,,,,,,,,,,,,,,,,,,,,,,,,,,,,,,255.4512465000153,255.46692589996383,255.46692589996383,256.0677871000953,b,1.0,0.5847988000605255,,,,,sub-218,1,stroop_test,60.124553994552215,
,,,,37.0,1.0,3.0,,,,,,,,,,,,,rot,red,r,1.0,r,1.0,0.6068312998395413,,,,,,,,,,3.0,1.0,37.0,1.0,256.0830481001176,,,,,,,,,,,,,,,,,256.06813829997554,257.28228170005605,258.08182210009545,258.0660021000076,,,,,,,,,,,,,,,,,,,,,,,,,,,,,,,,,,,258.0698287000414,258.08182210009545,258.08182210009545,258.6994058000855,r,1.0,0.6068312998395413,,,,,sub-218,1,stroop_test,60.124553994552215,
,,,,38.0,2.0,3.0,,,,,,,,,,,,,gelb,blue,b,0.0,b,1.0,0.8248797999694943,,,,,,,,,,3.0,2.0,38.0,9.0,258.7147254999727,,,,,,,,,,,,,,,,,258.69981739996,259.0645606000908,259.8640940999612,259.8484022000339,,,,,,,,,,,,,,,,,,,,,,,,,,,,,,,,,,,259.8522058001254,259.8640940999612,259.8640940999612,260.6983696001116,b,1.0,0.8248797999694943,,,,,sub-218,1,stroop_test,60.124553994552215,
,,,,39.0,3.0,3.0,,,,,,,,,,,,,blau,red,r,0.0,r,1.0,0.8124930998310447,,,,,,,,,,3.0,3.0,39.0,4.0,260.71355470013805,,,,,,,,,,,,,,,,,260.6987730001565,260.81365590007044,261.6130842999555,261.59689159994014,,,,,,,,,,,,,,,,,,,,,,,,,,,,,,,,,,,261.599483900005,261.6130842999555,261.6130842999555,262.43080590013415,r,1.0,0.8124930998310447,,,,,sub-218,1,stroop_test,60.124553994552215,
,,,,40.0,4.0,3.0,,,,,,,,,,,,,rot,red,r,1.0,r,1.0,0.6032111998647451,,,,,,,,,,3.0,4.0,40.0,0.0,262.4458421000745,,,,,,,,,,,,,,,,,262.43125370005146,263.6450545999687,264.444575099973,264.4286305999849,,,,,,,,,,,,,,,,,,,,,,,,,,,,,,,,,,,264.43203050014563,264.444575099973,264.444575099973,265.0620246999897,r,1.0,0.6032111998647451,,,,,sub-218,1,stroop_test,60.124553994552215,
,,,,41.0,5.0,3.0,,,,,,,,,,,,,gelb,yellow,g,1.0,g,1.0,0.6999643000308424,,,,,,,,,,3.0,5.0,41.0,11.0,265.07749620010145,,,,,,,,,,,,,,,,,265.0623511001468,265.1776531001087,265.9770458999556,265.9611365001183,,,,,,,,,,,,,,,,,,,,,,,,,,,,,,,,,,,265.9654939000029,265.9770458999556,265.9770458999556,266.67855910002254,g,1.0,0.6999643000308424,,,,,sub-218,1,stroop_test,60.124553994552215,
,,,,42.0,6.0,3.0,,,,,,,,,,,,,blau,blue,b,1.0,b,1.0,0.6256364998407662,,,,,,,,,,3.0,6.0,42.0,6.0,266.6934877000749,,,,,,,,,,,,,,,,,266.67901340010576,266.79322759993374,267.5926894999575,267.5766599001363,,,,,,,,,,,,,,,,,,,,,,,,,,,,,,,,,,,267.5797781001311,267.5926894999575,267.5926894999575,268.2266298001632,b,1.0,0.6256364998407662,,,,,sub-218,1,stroop_test,60.124553994552215,
,,,,43.0,7.0,3.0,,,,,,,,,,,,,gelb,yellow,g,1.0,g,1.0,0.6097331999335438,,,,,,,,,,3.0,7.0,43.0,10.0,268.24245489994064,,,,,,,,,,,,,,,,,268.226957899984,269.4415432999376,270.241116899997,270.22552620014176,,,,,,,,,,,,,,,,,,,,,,,,,,,,,,,,,,,270.23026450001635,270.241116899997,270.241116899997,270.8589642001316,g,1.0,0.6097331999335438,,,,,sub-218,1,stroop_test,60.124553994552215,
,,,,44.0,8.0,3.0,,,,,,,,,,,,,blau,yellow,g,0.0,g,1.0,0.8768192001152784,,,,,,,,,,3.0,8.0,44.0,7.0,270.8740163000766,,,,,,,,,,,,,,,,,270.8594440999441,272.07322719995864,272.87275600014254,272.8569479000289,,,,,,,,,,,,,,,,,,,,,,,,,,,,,,,,,,,272.85990320006385,272.87275600014254,272.87275600014254,273.756867100019,g,1.0,0.8768192001152784,,,,,sub-218,1,stroop_test,60.124553994552215,
,,,,45.0,9.0,3.0,,,,,,,,,,,,,rot,blue,b,0.0,b,1.0,0.8959560999646783,,,,,,,,,,3.0,9.0,45.0,2.0,273.77238179999404,,,,,,,,,,,,,,,,,273.75722040003166,274.12203540001065,274.92155300010927,274.9057029001415,,,,,,,,,,,,,,,,,,,,,,,,,,,,,,,,,,,274.90906070009805,274.92155300010927,274.92155300010927,275.82234600000083,b,1.0,0.8959560999646783,,,,,sub-218,1,stroop_test,60.124553994552215,
,,,,46.0,10.0,3.0,,,,,,,,,,,,,gelb,red,r,0.0,r,1.0,0.8484241000842303,,,,,,,,,,3.0,10.0,46.0,8.0,275.8377280000132,,,,,,,,,,,,,,,,,275.8226827001199,277.03695169999264,277.8364222999662,277.8204642001074,,,,,,,,,,,,,,,,,,,,,,,,,,,,,,,,,,,277.82389420014806,277.8364222999662,277.8364222999662,278.6870876001194,r,1.0,0.8484241000842303,,,,,sub-218,1,stroop_test,60.124553994552215,
,,,,47.0,11.0,3.0,,,,,,,,,,,,,rot,yellow,g,0.0,g,1.0,0.8484485999215394,,,,,,,,,,3.0,11.0,47.0,3.0,278.7025121001061,,,,,,,,,,,,,,,,,278.68746210006066,279.5021130000241,280.3017474000808,280.28577450010926,,,,,,,,,,,,,,,,,,,,,,,,,,,,,,,,,,,280.2892631001305,280.3017474000808,280.3017474000808,281.15225000004284,g,1.0,0.8484485999215394,,,,,sub-218,1,stroop_test,60.124553994552215,
,,,,48.0,0.0,4.0,,,,,,,,,,,,,gelb,yellow,g,1.0,g,1.0,0.7948129000142217,,,,,,,,,,4.0,0.0,48.0,10.0,281.1678251000121,,,,,,,,,,,,,,,,,281.15262349997647,281.26760240015574,282.06717510009184,282.0513262001332,,,,,,,,,,,,,,,,,,,,,,,,,,,,,,,,,,,282.0552445000503,282.06717510009184,282.06717510009184,282.8687174001243,g,1.0,0.7948129000142217,,,,,sub-218,1,stroop_test,60.124553994552215,
,,,,49.0,1.0,4.0,,,,,,,,,,,,,rot,red,r,1.0,r,1.0,0.7164598999079317,,,,,,,,,,4.0,1.0,49.0,0.0,282.8833413000684,,,,,,,,,,,,,,,,,282.869095900096,282.9832693999633,283.7828278001398,283.7669830999803,,,,,,,,,,,,,,,,,,,,,,,,,,,,,,,,,,,283.7704924000427,283.7828278001398,283.7828278001398,284.500629800139,r,1.0,0.7164598999079317,,,,,sub-218,1,stroop_test,60.124553994552215,
,,,,50.0,2.0,4.0,,,,,,,,,,,,,gelb,red,r,0.0,r,1.0,0.9419798001181334,,,,,,,,,,4.0,2.0,50.0,8.0,284.51573670003563,,,,,,,,,,,,,,,,,284.5010011000559,284.8656403000932,285.66491460008547,285.6491364999674,,,,,,,,,,,,,,,,,,,,,,,,,,,,,,,,,,,285.6526812999509,285.66491460008547,285.66491460008547,286.6156171001494,r,1.0,0.9419798001181334,,,,,sub-218,1,stroop_test,60.124553994552215,
,,,,51.0,3.0,4.0,,,,,,,,,,,,,rot,blue,b,0.0,b,1.0,0.945458099944517,,,,,,,,,,4.0,3.0,51.0,2.0,286.6310562000144,,,,,,,,,,,,,,,,,286.61599160009064,286.98085719998926,287.78033840004355,287.764267800143,,,,,,,,,,,,,,,,,,,,,,,,,,,,,,,,,,,287.7675658001099,287.78033840004355,287.78033840004355,288.73113310011104,b,1.0,0.945458099944517,,,,,sub-218,1,stroop_test,60.124553994552215,
,,,,52.0,4.0,4.0,,,,,,,,,,,,,blau,blue,b,1.0,b,1.0,0.7319368999451399,,,,,,,,,,4.0,4.0,52.0,6.0,288.74639969994314,,,,,,,,,,,,,,,,,288.73148309998214,289.0961794999894,289.8957225999329,289.8797047000844,,,,,,,,,,,,,,,,,,,,,,,,,,,,,,,,,,,289.8825650000945,289.8957225999329,289.8957225999329,290.6296628001146,b,1.0,0.7319368999451399,,,,,sub-218,1,stroop_test,60.124553994552215,
,,,,53.0,5.0,4.0,,,,,,,,,,,,,blau,red,r,0.0,r,1.0,0.9595850000623614,,,,,,,,,,4.0,5.0,53.0,4.0,290.64543720008805,,,,,,,,,,,,,,,,,290.6300145999994,290.99500819994137,291.7945481999777,291.77868750016205,,,,,,,,,,,,,,,,,,,,,,,,,,,,,,,,,,,291.7791518000886,291.7945481999777,291.7945481999777,292.7617367999628,r,1.0,0.9595850000623614,,,,,sub-218,1,stroop_test,60.124553994552215,
,,,,54.0,6.0,4.0,,,,,,,,,,,,,rot,red,r,1.0,r,1.0,1.2420988001395017,,,,,,,,,,4.0,6.0,54.0,1.0,292.7774668999482,,,,,,,,,,,,,,,,,292.762093400117,293.1270507001318,293.92677800008096,293.9104999001138,,,,,,,,,,,,,,,,,,,,,,,,,,,,,,,,,,,293.9139684999828,293.92677800008096,293.92677800008096,295.1770802000537,r,1.0,1.2420988001395017,,,,,sub-218,1,stroop_test,60.124553994552215,
,,,,55.0,7.0,4.0,,,,,,,,,,,,,gelb,blue,b,0.0,b,1.0,0.9449404999613762,,,,,,,,,,4.0,7.0,55.0,9.0,295.1925701999571,,,,,,,,,,,,,,,,,295.1774367000908,295.99212529999204,296.79167339997366,296.77580780000426,,,,,,,,,,,,,,,,,,,,,,,,,,,,,,,,,,,296.78086520009674,296.79167339997366,296.79167339997366,297.7421317000408,b,1.0,0.9449404999613762,,,,,sub-218,1,stroop_test,60.124553994552215,
,,,,56.0,8.0,4.0,,,,,,,,,,,,,gelb,yellow,g,1.0,g,1.0,0.8605553000234067,,,,,,,,,,4.0,8.0,56.0,11.0,297.7575112001505,,,,,,,,,,,,,,,,,297.7424995000474,298.10750170005485,298.9069719000254,298.89078729995526,,,,,,,,,,,,,,,,,,,,,,,,,,,,,,,,,,,298.8912837000098,298.9069719000254,298.9069719000254,299.7744569000788,g,1.0,0.8605553000234067,,,,,sub-218,1,stroop_test,60.124553994552215,
,,,,57.0,9.0,4.0,,,,,,,,,,,,,blau,yellow,g,0.0,g,1.0,0.9389933000784368,,,,,,,,,,4.0,9.0,57.0,7.0,299.7896436001174,,,,,,,,,,,,,,,,,299.7748128999956,300.1394199000206,300.9389544001315,300.9230727001559,,,,,,,,,,,,,,,,,,,,,,,,,,,,,,,,,,,300.9255782000255,300.9389544001315,300.9389544001315,301.8894708000589,g,1.0,0.9389933000784368,,,,,sub-218,1,stroop_test,60.124553994552215,
,,,,58.0,10.0,4.0,,,,,,,,,,,,,blau,blue,b,1.0,b,1.0,0.9668163999449462,,,,,,,,,,4.0,10.0,58.0,5.0,301.9049933999777,,,,,,,,,,,,,,,,,301.8898202001583,302.2548005999997,303.05431200005114,303.03854700014926,,,,,,,,,,,,,,,,,,,,,,,,,,,,,,,,,,,303.03903910005465,303.05431200005114,303.05431200005114,304.0380524999928,b,1.0,0.9668163999449462,,,,,sub-218,1,stroop_test,60.124553994552215,
,,,,59.0,11.0,4.0,,,,,,,,,,,,,rot,yellow,g,0.0,r,0.0,0.8584490001667291,,,,,,,,,,4.0,11.0,59.0,3.0,304.053810399957,,,,,,,,,,,,,,,,,304.03843259997666,304.40371540002525,305.20300330012105,305.18699960014783,,,,,,,,,,,,,,,,,,,,,,,,,,,,,,,,,,,305.1904339999892,305.20300330012105,305.20300330012105,306.0704952001106,r,0.0,0.8584490001667291,,,,,sub-218,1,stroop_test,60.124553994552215,
,,,,60.0,0.0,5.0,,,,,,,,,,,,,blau,blue,b,1.0,b,1.0,0.5942540999967605,,,,,,,,,,5.0,0.0,60.0,6.0,306.08599189994857,,,,,,,,,,,,,,,,,306.0708743999712,306.4355582999997,307.2351699001156,307.2192871000152,,,,,,,,,,,,,,,,,,,,,,,,,,,,,,,,,,,307.222844599979,307.2351699001156,307.2351699001156,307.8361525000073,b,1.0,0.5942540999967605,,,,,sub-218,1,stroop_test,60.124553994552215,
,,,,61.0,1.0,5.0,,,,,,,,,,,,,rot,yellow,g,0.0,g,1.0,0.5725962000433356,,,,,,,,,,5.0,1.0,61.0,3.0,307.8515538999345,,,,,,,,,,,,,,,,,307.8365923999809,308.6509301001206,309.45046880003065,309.4343834000174,,,,,,,,,,,,,,,,,,,,,,,,,,,,,,,,,,,309.4376507999841,309.45046880003065,309.45046880003065,310.0345002000686,g,1.0,0.5725962000433356,,,,,sub-218,1,stroop_test,60.124553994552215,
,,,,62.0,2.0,5.0,,,,,,,,,,,,,gelb,blue,b,0.0,b,1.0,0.9176614999305456,,,,,,,,,,5.0,2.0,62.0,9.0,310.0502365999855,,,,,,,,,,,,,,,,,310.0348565999884,310.1333298000973,310.93299340014346,310.91705920011736,,,,,,,,,,,,,,,,,,,,,,,,,,,,,,,,,,,310.92024830006994,310.93299340014346,310.93299340014346,311.86671860003844,b,1.0,0.9176614999305456,,,,,sub-218,1,stroop_test,60.124553994552215,
,,,,63.0,3.0,5.0,,,,,,,,,,,,,blau,red,r,0.0,r,1.0,0.9359550999943168,,,,,,,,,,5.0,3.0,63.0,4.0,311.88228980009444,,,,,,,,,,,,,,,,,311.86707020015456,312.23225260013714,313.03169600013644,313.0156584000215,,,,,,,,,,,,,,,,,,,,,,,,,,,,,,,,,,,313.0195043000858,313.03169600013644,313.03169600013644,313.98233040003106,r,1.0,0.9359550999943168,,,,,sub-218,1,stroop_test,60.124553994552215,
,,,,64.0,4.0,5.0,,,,,,,,,,,,,gelb,red,r,0.0,r,1.0,1.044507300015539,,,,,,,,,,5.0,4.0,64.0,8.0,313.9977717001457,,,,,,,,,,,,,,,,,313.9827322999481,315.1968734001275,315.99664580007084,315.98068589996547,,,,,,,,,,,,,,,,,,,,,,,,,,,,,,,,,,,315.98566180001944,315.99664580007084,315.99664580007084,317.04708270006813,r,1.0,1.044507300015539,,,,,sub-218,1,stroop_test,60.124553994552215,
,,,,65.0,5.0,5.0,,,,,,,,,,,,,blau,blue,b,1.0,b,1.0,0.7815940000582486,,,,,,,,,,5.0,5.0,65.0,5.0,317.06240750011057,,,,,,,,,,,,,,,,,317.04743300005794,317.8621012000367,318.6614564000629,318.6455491001252,,,,,,,,,,,,,,,,,,,,,,,,,,,,,,,,,,,318.64879240002483,318.6614564000629,318.6614564000629,319.4457126001362,b,1.0,0.7815940000582486,,,,,sub-218,1,stroop_test,60.124553994552215,
,,,,66.0,6.0,5.0,,,,,,,,,,,,,rot,blue,b,0.0,r,0.0,0.7907899999991059,,,,,,,,,,5.0,6.0,66.0,2.0,319.46114640007727,,,,,,,,,,,,,,,,,319.4460620000027,320.6605078999419,321.459711200092,321.44367290008813,,,,,,,,,,,,,,,,,,,,,,,,,,,,,,,,,,,321.44706339994445,321.459711200092,321.459711200092,322.2606109001208,r,0.0,0.7907899999991059,,,,,sub-218,1,stroop_test,60.124553994552215,
,,,,67.0,7.0,5.0,,,,,,,,,,,,,blau,yellow,g,0.0,g,1.0,0.9423116999678314,,,,,,,,,,5.0,7.0,67.0,7.0,322.2759076000657,,,,,,,,,,,,,,,,,322.26097690011375,322.6258358999621,323.42538970010355,323.4091922000516,,,,,,,,,,,,,,,,,,,,,,,,,,,,,,,,,,,323.41234600008465,323.42538970010355,323.42538970010355,324.3759930001106,g,1.0,0.9423116999678314,,,,,sub-218,1,stroop_test,60.124553994552215,
,,,,68.0,8.0,5.0,,,,,,,,,,,,,rot,red,r,1.0,r,1.0,0.6452617000322789,,,,,,,,,,5.0,8.0,68.0,1.0,324.39110999996774,,,,,,,,,,,,,,,,,324.3763421000913,324.7411224001553,325.54072450008243,325.5246542999521,,,,,,,,,,,,,,,,,,,,,,,,,,,,,,,,,,,325.52859609993175,325.54072450008243,325.54072450008243,326.19068869994953,r,1.0,0.6452617000322789,,,,,sub-218,1,stroop_test,60.124553994552215,
,,,,69.0,9.0,5.0,,,,,,,,,,,,,gelb,yellow,g,1.0,g,1.0,0.599809099920094,,,,,,,,,,5.0,9.0,69.0,10.0,326.20656329998747,,,,,,,,,,,,,,,,,326.19102840009145,326.2903422000818,327.0916200000793,327.0745040001348,,,,,,,,,,,,,,,,,,,,,,,,,,,,,,,,,,,327.08303970005363,327.0916200000793,327.0916200000793,327.7077422000002,g,1.0,0.599809099920094,,,,,sub-218,1,stroop_test,60.124553994552215,
,,,,70.0,10.0,5.0,,,,,,,,,,,,,gelb,yellow,g,1.0,g,1.0,0.7424840999301523,,,,,,,,,,5.0,10.0,70.0,11.0,327.72264549997635,,,,,,,,,,,,,,,,,327.708284100052,327.82275220006704,328.6220227000304,328.6059882999398,,,,,,,,,,,,,,,,,,,,,,,,,,,,,,,,,,,328.60649040015414,328.6220227000304,328.6220227000304,329.3729851001408,g,1.0,0.7424840999301523,,,,,sub-218,1,stroop_test,60.124553994552215,
,,,,71.0,11.0,5.0,,,,,,,,,,,,,rot,red,r,1.0,r,1.0,0.6839433999266475,,,,,,,,,,5.0,11.0,71.0,0.0,329.3882872001268,,,,,,,,,,,,,,,,,329.373350400012,330.1878112000413,330.9872161000967,330.97149799996987,,,,,,,,,,,,,,,,,,,,,,,,,,,,,,,,,,,330.9748601000756,330.9872161000967,330.9872161000967,331.68829830014147,r,1.0,0.6839433999266475,,,,,sub-218,1,stroop_test,60.124553994552215,
,,,,72.0,0.0,6.0,,,,,,,,,,,,,blau,red,r,0.0,b,0.0,0.8213461001869291,,,,,,,,,,6.0,0.0,72.0,4.0,331.7035610000603,,,,,,,,,,,,,,,,,331.688666400034,331.8033980000764,332.60309360013343,332.58691850001924,,,,,,,,,,,,,,,,,,,,,,,,,,,,,,,,,,,332.5900230000261,332.60309360013343,332.60309360013343,333.4370105001144,b,0.0,0.8213461001869291,,,,,sub-218,1,stroop_test,60.124553994552215,
,,,,73.0,1.0,6.0,,,,,,,,,,,,,rot,red,r,1.0,r,1.0,0.7486660000868142,,,,,,,,,,6.0,1.0,73.0,0.0,333.452368499944,,,,,,,,,,,,,,,,,333.4373808000237,334.65185050014406,335.451203700155,335.4353177000303,,,,,,,,,,,,,,,,,,,,,,,,,,,,,,,,,,,335.43931460008025,335.451203700155,335.451203700155,336.20171639998443,r,1.0,0.7486660000868142,,,,,sub-218,1,stroop_test,60.124553994552215,
,,,,74.0,2.0,6.0,,,,,,,,,,,,,gelb,yellow,g,1.0,g,1.0,0.6317143999040127,,,,,,,,,,6.0,2.0,74.0,10.0,336.2173914001323,,,,,,,,,,,,,,,,,336.20203000004403,336.5674018000718,337.3667466000188,337.35081860004,,,,,,,,,,,,,,,,,,,,,,,,,,,,,,,,,,,337.3545405000914,337.3667466000188,337.3667466000188,338.0010697999969,g,1.0,0.6317143999040127,,,,,sub-218,1,stroop_test,60.124553994552215,
,,,,75.0,3.0,6.0,,,,,,,,,,,,,rot,yellow,g,0.0,g,1.0,0.7964297998696566,,,,,,,,,,6.0,3.0,75.0,3.0,338.016256300034,,,,,,,,,,,,,,,,,338.00147180003114,338.8158148000948,339.61536880000494,339.5993457001168,,,,,,,,,,,,,,,,,,,,,,,,,,,,,,,,,,,339.60313439997844,339.61536880000494,339.61536880000494,340.4163164999336,g,1.0,0.7964297998696566,,,,,sub-218,1,stroop_test,60.124553994552215,
,,,,76.0,4.0,6.0,,,,,,,,,,,,,gelb,blue,b,0.0,b,1.0,1.0165228000842037,,,,,,,,,,6.0,4.0,76.0,9.0,340.4314339000266,,,,,,,,,,,,,,,,,340.4167170000728,340.7814323999919,341.5809112000279,341.5648601001594,,,,,,,,,,,,,,,,,,,,,,,,,,,,,,,,,,,341.5690987999551,341.5809112000279,341.5809112000279,342.59896320011467,b,1.0,1.0165228000842037,,,,,sub-218,1,stroop_test,60.124553994552215,
,,,,77.0,5.0,6.0,,,,,,,,,,,,,gelb,red,r,0.0,r,1.0,1.3404743999708444,,,,,,,,,,6.0,5.0,77.0,8.0,342.61342029995285,,,,,,,,,,,,,,,,,342.599368999945,342.71339610009454,343.5131433999632,343.49704569997266,,,,,,,,,,,,,,,,,,,,,,,,,,,,,,,,,,,343.4975908000488,343.5131433999632,343.5131433999632,344.8633497999981,r,1.0,1.3404743999708444,,,,,sub-218,1,stroop_test,60.124553994552215,
,,,,78.0,6.0,6.0,,,,,,,,,,,,,blau,blue,b,1.0,b,1.0,0.7548887999728322,,,,,,,,,,6.0,6.0,78.0,6.0,344.8789671000559,,,,,,,,,,,,,,,,,344.86366900010034,345.2287735999562,346.028263400076,346.01223640004173,,,,,,,,,,,,,,,,,,,,,,,,,,,,,,,,,,,346.0152488001622,346.028263400076,346.028263400076,346.795654800022,b,1.0,0.7548887999728322,,,,,sub-218,1,stroop_test,60.124553994552215,
,,,,79.0,7.0,6.0,,,,,,,,,,,,,blau,blue,b,1.0,b,1.0,0.7033186999615282,,,,,,,,,,6.0,7.0,79.0,5.0,346.810855000047,,,,,,,,,,,,,,,,,346.79607359995134,347.6103966999799,348.40993930003606,348.3940568000544,,,,,,,,,,,,,,,,,,,,,,,,,,,,,,,,,,,348.3945913000498,348.40993930003606,348.40993930003606,349.1277509999927,b,1.0,0.7033186999615282,,,,,sub-218,1,stroop_test,60.124553994552215,
,,,,80.0,8.0,6.0,,,,,,,,,,,,,blau,yellow,g,0.0,g,1.0,0.928133700042963,,,,,,,,,,6.0,8.0,80.0,7.0,349.1429270999506,,,,,,,,,,,,,,,,,349.1281526000239,349.9423533999361,350.74207430006936,350.72609470016323,,,,,,,,,,,,,,,,,,,,,,,,,,,,,,,,,,,350.7266462999396,350.74207430006936,350.74207430006936,351.6760331001133,g,1.0,0.928133700042963,,,,,sub-218,1,stroop_test,60.124553994552215,
,,,,81.0,9.0,6.0,,,,,,,,,,,,,rot,blue,b,0.0,b,1.0,1.0733763000462204,,,,,,,,,,6.0,9.0,81.0,2.0,351.6912247999571,,,,,,,,,,,,,,,,,351.67643160000443,352.4905829001218,353.2903347001411,353.2744962000288,,,,,,,,,,,,,,,,,,,,,,,,,,,,,,,,,,,353.27824200014584,353.2903347001411,353.2903347001411,354.3743221999612,b,1.0,1.0733763000462204,,,,,sub-218,1,stroop_test,60.124553994552215,
,,,,82.0,10.0,6.0,,,,,,,,,,,,,gelb,yellow,g,1.0,g,1.0,0.5519250999204814,,,,,,,,,,6.0,10.0,82.0,11.0,354.38959460007027,,,,,,,,,,,,,,,,,354.3747268000152,354.7393772001378,355.5390938001219,355.5232867000159,,,,,,,,,,,,,,,,,,,,,,,,,,,,,,,,,,,355.52721690014005,355.5390938001219,355.5390938001219,356.1067016001325,g,1.0,0.5519250999204814,,,,,sub-218,1,stroop_test,60.124553994552215,
,,,,83.0,11.0,6.0,,,,,,,,,,,,,rot,red,r,1.0,r,1.0,0.6699738998431712,,,,,,,,,,6.0,11.0,83.0,1.0,356.1218364001252,,,,,,,,,,,,,,,,,356.1071202000603,356.221831999952,357.02139210002497,357.0054578999989,,,,,,,,,,,,,,,,,,,,,,,,,,,,,,,,,,,357.0083683000412,357.02139210002497,357.02139210002497,357.70585190015845,r,1.0,0.6699738998431712,,,,,sub-218,1,stroop_test,60.124553994552215,
,,,,84.0,0.0,7.0,,,,,,,,,,,,,gelb,red,r,0.0,r,1.0,0.7454408998601139,,,,,,,,,,7.0,0.0,84.0,8.0,357.72111460007727,,,,,,,,,,,,,,,,,357.70627750013955,358.5205346001312,359.32013799995184,359.3039917999413,,,,,,,,,,,,,,,,,,,,,,,,,,,,,,,,,,,359.3086564000696,359.32013799995184,359.32013799995184,360.0708107999526,r,1.0,0.7454408998601139,,,,,sub-218,1,stroop_test,60.124553994552215,
,,,,85.0,1.0,7.0,,,,,,,,,,,,,gelb,yellow,g,1.0,g,1.0,0.5957163998391479,,,,,,,,,,7.0,1.0,85.0,10.0,360.0862090000883,,,,,,,,,,,,,,,,,360.0711193999741,361.2855676000472,362.0849085999653,362.06888810009696,,,,,,,,,,,,,,,,,,,,,,,,,,,,,,,,,,,362.06935380003415,362.0849085999653,362.0849085999653,362.6857730001211,g,1.0,0.5957163998391479,,,,,sub-218,1,stroop_test,60.124553994552215,
,,,,86.0,2.0,7.0,,,,,,,,,,,,,gelb,blue,b,0.0,b,1.0,0.8988020000979304,,,,,,,,,,7.0,2.0,86.0,9.0,362.7013978001196,,,,,,,,,,,,,,,,,362.68611410004087,363.9006900000386,364.700067800004,364.6840197001584,,,,,,,,,,,,,,,,,,,,,,,,,,,,,,,,,,,364.6844637999311,364.700067800004,364.700067800004,365.60068270005286,b,1.0,0.8988020000979304,,,,,sub-218,1,stroop_test,60.124553994552215,
,,,,87.0,3.0,7.0,,,,,,,,,,,,,blau,blue,b,1.0,b,1.0,1.1124027001205832,,,,,,,,,,7.0,3.0,87.0,6.0,365.61609120015055,,,,,,,,,,,,,,,,,365.6010271999985,365.7160557999741,366.5158806000836,366.4996609999798,,,,,,,,,,,,,,,,,,,,,,,,,,,,,,,,,,,366.5021421001293,366.5158806000836,366.5158806000836,367.63282299996354,b,1.0,1.1124027001205832,,,,,sub-218,1,stroop_test,60.124553994552215,
,,,,88.0,4.0,7.0,,,,,,,,,,,,,blau,blue,b,1.0,b,1.0,0.8726377000566572,,,,,,,,,,7.0,4.0,88.0,5.0,367.6481321000029,,,,,,,,,,,,,,,,,367.6331931001041,368.84759479993954,369.64700679993257,369.6310334000737,,,,,,,,,,,,,,,,,,,,,,,,,,,,,,,,,,,369.6315663000569,369.64700679993257,369.64700679993257,370.53131640004,b,1.0,0.8726377000566572,,,,,sub-218,1,stroop_test,60.124553994552215,
,,,,89.0,5.0,7.0,,,,,,,,,,,,,rot,red,r,1.0,r,1.0,0.5011358000338078,,,,,,,,,,7.0,5.0,89.0,1.0,370.5462460999843,,,,,,,,,,,,,,,,,370.531717200065,371.3458974999376,372.1454111000057,372.1294927001,,,,,,,,,,,,,,,,,,,,,,,,,,,,,,,,,,,372.13316420000046,372.1454111000057,372.1454111000057,372.6630695001222,r,1.0,0.5011358000338078,,,,,sub-218,1,stroop_test,60.124553994552215,
,,,,90.0,6.0,7.0,,,,,,,,,,,,,rot,yellow,g,0.0,g,1.0,1.0220852000638845,,,,,,,,,,7.0,6.0,90.0,3.0,372.6786032000091,,,,,,,,,,,,,,,,,372.6634802001063,373.4781150000636,374.277462300146,374.26170210004784,,,,,,,,,,,,,,,,,,,,,,,,,,,,,,,,,,,374.2622380999383,374.277462300146,374.277462300146,375.3115147000645,g,1.0,1.0220852000638845,,,,,sub-218,1,stroop_test,60.124553994552215,
,,,,91.0,7.0,7.0,,,,,,,,,,,,,rot,blue,b,0.0,b,1.0,1.0081668000202626,,,,,,,,,,7.0,7.0,91.0,2.0,375.3268425001297,,,,,,,,,,,,,,,,,375.31187710003,375.42674769996665,376.2266371999867,376.211048200028,,,,,,,,,,,,,,,,,,,,,,,,,,,,,,,,,,,376.2122009999584,376.2266371999867,376.2266371999867,377.2436095001176,b,1.0,1.0081668000202626,,,,,sub-218,1,stroop_test,60.124553994552215,
,,,,92.0,8.0,7.0,,,,,,,,,,,,,rot,red,r,1.0,r,1.0,0.5349306000862271,,,,,,,,,,7.0,8.0,92.0,0.0,377.2589432001114,,,,,,,,,,,,,,,,,377.24401060002856,377.6087106000632,378.4082297000568,378.3923363999929,,,,,,,,,,,,,,,,,,,,,,,,,,,,,,,,,,,378.3928660999518,378.4082297000568,378.4082297000568,378.95930610015057,r,1.0,0.5349306000862271,,,,,sub-218,1,stroop_test,60.124553994552215,
,,,,93.0,9.0,7.0,,,,,,,,,,,,,blau,red,r,0.0,r,1.0,0.1153805998619645,,,,,,,,,,7.0,9.0,93.0,4.0,378.974588900106,,,,,,,,,,,,,,,,,378.95970150013454,380.17395350011066,380.9733864001464,380.9575561999809,,,,,,,,,,,,,,,,,,,,,,,,,,,,,,,,,,,380.9610238999594,380.9733864001464,380.9733864001464,381.0915051000193,r,1.0,0.1153805998619645,,,,,sub-218,1,stroop_test,60.124553994552215,
,,,,94.0,10.0,7.0,,,,,,,,,,,,,blau,yellow,g,0.0,g,1.0,1.154804800171405,,,,,,,,,,7.0,10.0,94.0,7.0,381.1065950000193,,,,,,,,,,,,,,,,,381.0919347000308,382.3059278000146,383.1056437999941,383.0893860999495,,,,,,,,,,,,,,,,,,,,,,,,,,,,,,,,,,,383.089870300144,383.1056437999941,383.1056437999941,384.2729513000231,g,1.0,1.154804800171405,,,,,sub-218,1,stroop_test,60.124553994552215,
,,,,95.0,11.0,7.0,,,,,,,,,,,,,gelb,yellow,g,1.0,g,1.0,1.599481699988246,,,,,,,,,,7.0,11.0,95.0,11.0,384.2879826000426,,,,,,,,,,,,,,,,,384.2733498001471,385.4872394001577,386.28688340005465,386.27104260004126,,,,,,,,,,,,,,,,,,,,,,,,,,,,,,,,,,,386.27429770003073,386.28688340005465,386.28688340005465,387.8879122999497,g,1.0,1.599481699988246,,,,,sub-218,1,stroop_test,60.124553994552215,
,,,,96.0,0.0,8.0,,,,,,,,,,,,,gelb,red,r,0.0,r,1.0,1.0259006000123918,,,,,,,,,,8.0,0.0,96.0,8.0,387.9024235999677,,,,,,,,,,,,,,,,,387.8883318000008,388.2522189000156,389.05180509993806,389.0358349999879,,,,,,,,,,,,,,,,,,,,,,,,,,,,,,,,,,,389.0363386000972,389.05180509993806,389.05180509993806,390.085831400007,r,1.0,1.0259006000123918,,,,,sub-218,1,stroop_test,60.124553994552215,
,,,,97.0,1.0,8.0,,,,,,,,,,,,,gelb,yellow,g,1.0,g,1.0,0.9643888999707996,,,,,,,,,,8.0,1.0,97.0,10.0,390.1010803999379,,,,,,,,,,,,,,,,,390.0861961999908,390.2010528999381,391.0007132000756,390.9845141000114,,,,,,,,,,,,,,,,,,,,,,,,,,,,,,,,,,,390.9850227001589,391.0007132000756,391.0007132000756,391.9681392000057,g,1.0,0.9643888999707996,,,,,sub-218,1,stroop_test,60.124553994552215,
,,,,98.0,2.0,8.0,,,,,,,,,,,,,blau,yellow,g,0.0,b,0.0,0.6172964000143111,,,,,,,,,,8.0,2.0,98.0,7.0,391.98333660000935,,,,,,,,,,,,,,,,,391.9685033999849,392.33307479997166,393.1327611999586,393.11676130001433,,,,,,,,,,,,,,,,,,,,,,,,,,,,,,,,,,,393.11985510005616,393.1327611999586,393.1327611999586,393.7670339001343,b,0.0,0.6172964000143111,,,,,sub-218,1,stroop_test,60.124553994552215,
,,,,99.0,3.0,8.0,,,,,,,,,,,,,rot,red,r,1.0,r,1.0,0.6686329999938607,,,,,,,,,,8.0,3.0,99.0,0.0,393.7821752999444,,,,,,,,,,,,,,,,,393.7673967001029,393.882127400022,394.6816636000294,394.66570240003057,,,,,,,,,,,,,,,,,,,,,,,,,,,,,,,,,,,394.6690671001561,394.6816636000294,394.6816636000294,395.3657855000347,r,1.0,0.6686329999938607,,,,,sub-218,1,stroop_test,60.124553994552215,
,,,,100.0,4.0,8.0,,,,,,,,,,,,,gelb,yellow,g,1.0,g,1.0,1.003454100107774,,,,,,,,,,8.0,4.0,100.0,11.0,395.3811844000593,,,,,,,,,,,,,,,,,395.3661527000368,395.7311966000125,396.5306418000255,396.5146619000007,,,,,,,,,,,,,,,,,,,,,,,,,,,,,,,,,,,396.5176123999991,396.5306418000255,396.5306418000255,397.5480045999866,g,1.0,1.003454100107774,,,,,sub-218,1,stroop_test,60.124553994552215,
,,,,101.0,5.0,8.0,,,,,,,,,,,,,rot,red,r,1.0,r,1.0,0.8315967998933047,,,,,,,,,,8.0,5.0,101.0,1.0,397.5631925000344,,,,,,,,,,,,,,,,,397.5483677999582,398.3629934000783,399.1622436000034,399.1462874000426,,,,,,,,,,,,,,,,,,,,,,,,,,,,,,,,,,,399.1497859000228,399.1622436000034,399.1622436000034,399.9964391000103,r,1.0,0.8315967998933047,,,,,sub-218,1,stroop_test,60.124553994552215,
,,,,102.0,6.0,8.0,,,,,,,,,,,,,blau,blue,b,1.0,b,1.0,0.7511625001206994,,,,,,,,,,8.0,6.0,102.0,6.0,400.0119157000445,,,,,,,,,,,,,,,,,399.9968223001342,401.2111998000182,402.0105219001416,401.99459040001966,,,,,,,,,,,,,,,,,,,,,,,,,,,,,,,,,,,401.9978299001232,402.0105219001416,402.0105219001416,402.7779584000818,b,1.0,0.7511625001206994,,,,,sub-218,1,stroop_test,60.124553994552215,
,,,,103.0,7.0,8.0,,,,,,,,,,,,,rot,yellow,g,0.0,r,0.0,0.8175210000481457,,,,,,,,,,8.0,7.0,103.0,3.0,402.7933490001597,,,,,,,,,,,,,,,,,402.778346600011,403.143195600016,403.942639300134,403.926821900066,,,,,,,,,,,,,,,,,,,,,,,,,,,,,,,,,,,403.9305819000583,403.942639300134,403.942639300134,404.7766869000625,r,0.0,0.8175210000481457,,,,,sub-218,1,stroop_test,60.124553994552215,
,,,,104.0,8.0,8.0,,,,,,,,,,,,,rot,blue,b,0.0,b,1.0,1.3720660000108182,,,,,,,,,,8.0,8.0,104.0,2.0,404.79222039994784,,,,,,,,,,,,,,,,,404.7770975001622,404.8920513000339,405.6917771000881,405.6756319999695,,,,,,,,,,,,,,,,,,,,,,,,,,,,,,,,,,,405.6761777999345,405.6917771000881,405.6917771000881,407.075115500018,b,1.0,1.3720660000108182,,,,,sub-218,1,stroop_test,60.124553994552215,
,,,,105.0,9.0,8.0,,,,,,,,,,,,,blau,blue,b,1.0,b,1.0,0.7106210999190807,,,,,,,,,,8.0,9.0,105.0,5.0,407.0907032999676,,,,,,,,,,,,,,,,,407.0754412000533,407.8902140001301,408.68975550006144,408.6741420000326,,,,,,,,,,,,,,,,,,,,,,,,,,,,,,,,,,,408.6788811001461,408.68975550006144,408.68975550006144,409.4078150000423,b,1.0,0.7106210999190807,,,,,sub-218,1,stroop_test,60.124553994552215,
,,,,106.0,10.0,8.0,,,,,,,,,,,,,blau,red,r,0.0,r,1.0,0.9389571999199688,,,,,,,,,,8.0,10.0,106.0,4.0,409.42263990012,,,,,,,,,,,,,,,,,409.40829070005566,410.2221458000131,411.02182959998026,411.0059790001251,,,,,,,,,,,,,,,,,,,,,,,,,,,,,,,,,,,411.0065459001344,411.02182959998026,411.02182959998026,411.9725117001217,r,1.0,0.9389571999199688,,,,,sub-218,1,stroop_test,60.124553994552215,
,,,,107.0,11.0,8.0,,,,,,,,,,,,,gelb,blue,b,0.0,b,1.0,1.106912299990654,,,,,,,,,,8.0,11.0,107.0,9.0,411.98758310009725,,,,,,,,,,,,,,,,,411.9729329999536,412.3375083999708,413.1372817000374,413.1211248000618,,,,,,,,,,,,,,,,,,,,,,,,,,,,,,,,,,,413.1252554999664,413.1372817000374,413.1372817000374,414.2542936000973,b,1.0,1.106912299990654,,,,,sub-218,1,stroop_test,60.124553994552215,
,,,,108.0,0.0,9.0,,,,,,,,,,,,,gelb,yellow,g,1.0,g,1.0,1.202720200177282,,,,,,,,,,9.0,0.0,108.0,11.0,414.2697763999458,,,,,,,,,,,,,,,,,414.2546111999545,415.46891749999486,416.2684333000798,416.2527064001188,,,,,,,,,,,,,,,,,,,,,,,,,,,,,,,,,,,416.25324740004726,416.2684333000798,416.2684333000798,417.4858240999747,g,1.0,1.202720200177282,,,,,sub-218,1,stroop_test,60.124553994552215,
,,,,109.0,1.0,9.0,,,,,,,,,,,,,rot,blue,b,0.0,b,1.0,0.889705799985677,,,,,,,,,,9.0,1.0,109.0,2.0,417.5010395001154,,,,,,,,,,,,,,,,,417.48623799998313,418.7005072000902,419.49987019994296,419.4841797000263,,,,,,,,,,,,,,,,,,,,,,,,,,,,,,,,,,,419.48837679997087,419.49987019994296,419.49987019994296,420.4005434999708,b,1.0,0.889705799985677,,,,,sub-218,1,stroop_test,60.124553994552215,
,,,,110.0,2.0,9.0,,,,,,,,,,,,,rot,red,r,1.0,r,1.0,0.6872831999789923,,,,,,,,,,9.0,2.0,110.0,1.0,420.41615890013054,,,,,,,,,,,,,,,,,420.4008220001124,420.7659462001175,421.5654347001109,421.5491474000737,,,,,,,,,,,,,,,,,,,,,,,,,,,,,,,,,,,421.5496297001373,421.5654347001109,421.5654347001109,422.2660110001452,r,1.0,0.6872831999789923,,,,,sub-218,1,stroop_test,60.124553994552215,
,,,,111.0,3.0,9.0,,,,,,,,,,,,,blau,blue,b,1.0,b,1.0,0.7034449998755008,,,,,,,,,,9.0,3.0,111.0,6.0,422.2814043001272,,,,,,,,,,,,,,,,,422.2663748001214,423.4806963000447,424.2803220001515,424.2645763999317,,,,,,,,,,,,,,,,,,,,,,,,,,,,,,,,,,,424.2681267999578,424.2803220001515,424.2803220001515,424.9978906000033,b,1.0,0.7034449998755008,,,,,sub-218,1,stroop_test,60.124553994552215,
,,,,112.0,4.0,9.0,,,,,,,,,,,,,rot,red,r,1.0,r,1.0,0.5536966999061406,,,,,,,,,,9.0,4.0,112.0,0.0,425.0133100000676,,,,,,,,,,,,,,,,,424.9982892000117,425.1130818999373,425.912532000104,425.8965382000897,,,,,,,,,,,,,,,,,,,,,,,,,,,,,,,,,,,425.89957060012966,425.912532000104,425.912532000104,426.479972400004,r,1.0,0.5536966999061406,,,,,sub-218,1,stroop_test,60.124553994552215,
,,,,113.0,5.0,9.0,,,,,,,,,,,,,gelb,red,r,0.0,r,1.0,1.2372495997697115,,,,,,,,,,9.0,5.0,113.0,8.0,426.4954824999441,,,,,,,,,,,,,,,,,426.4803210000973,427.2953723999672,428.0945968001615,428.0786497001536,,,,,,,,,,,,,,,,,,,,,,,,,,,,,,,,,,,428.0830685000401,428.0945968001615,428.0945968001615,429.3448423000518,r,1.0,1.2372495997697115,,,,,sub-218,1,stroop_test,60.124553994552215,
,,,,114.0,6.0,9.0,,,,,,,,,,,,,blau,red,r,0.0,r,1.0,0.990825899876654,,,,,,,,,,9.0,6.0,114.0,4.0,429.3606221000664,,,,,,,,,,,,,,,,,429.3450597000774,430.16003839997575,430.9594744001515,430.9436570999678,,,,,,,,,,,,,,,,,,,,,,,,,,,,,,,,,,,430.9472362999804,430.9594744001515,430.9594744001515,431.96040810015984,r,1.0,0.990825899876654,,,,,sub-218,1,stroop_test,60.124553994552215,
,,,,115.0,7.0,9.0,,,,,,,,,,,,,rot,yellow,g,0.0,g,1.0,1.0776434999424964,,,,,,,,,,9.0,7.0,115.0,3.0,431.9755889000371,,,,,,,,,,,,,,,,,431.9608289001044,433.1748828999698,433.97431330010295,433.9585221000016,,,,,,,,,,,,,,,,,,,,,,,,,,,,,,,,,,,433.96248039999045,433.97431330010295,433.97431330010295,435.0585314999335,g,1.0,1.0776434999424964,,,,,sub-218,1,stroop_test,60.124553994552215,
,,,,116.0,8.0,9.0,,,,,,,,,,,,,gelb,blue,b,0.0,b,1.0,0.745156800141558,,,,,,,,,,9.0,8.0,116.0,9.0,435.0736549999565,,,,,,,,,,,,,,,,,435.0589578000363,435.1735402999912,435.9732516999357,435.9574627000839,,,,,,,,,,,,,,,,,,,,,,,,,,,,,,,,,,,435.9614643999376,435.9732516999357,435.9732516999357,436.7240096000023,b,1.0,0.745156800141558,,,,,sub-218,1,stroop_test,60.124553994552215,
,,,,117.0,9.0,9.0,,,,,,,,,,,,,blau,blue,b,1.0,b,1.0,0.8010565000586212,,,,,,,,,,9.0,9.0,117.0,5.0,436.7392559000291,,,,,,,,,,,,,,,,,436.7244335000869,437.08905840013176,437.8888209001161,437.8725850000046,,,,,,,,,,,,,,,,,,,,,,,,,,,,,,,,,,,437.8754339001607,437.8888209001161,437.8888209001161,438.70595640013926,b,1.0,0.8010565000586212,,,,,sub-218,1,stroop_test,60.124553994552215,
,,,,118.0,10.0,9.0,,,,,,,,,,,,,blau,yellow,g,0.0,g,1.0,0.8518374001141638,,,,,,,,,,9.0,10.0,118.0,7.0,438.7215134999715,,,,,,,,,,,,,,,,,438.7063200999983,439.92092690011486,440.7202759999782,440.7046415000223,,,,,,,,,,,,,,,,,,,,,,,,,,,,,,,,,,,440.7053569999989,440.7202759999782,440.7202759999782,441.5874608999584,g,1.0,0.8518374001141638,,,,,sub-218,1,stroop_test,60.124553994552215,
,,,,119.0,11.0,9.0,,,,,,,,,,,,,gelb,yellow,g,1.0,g,1.0,0.5933853001333773,,,,,,,,,,9.0,11.0,119.0,10.0,441.6029151999392,,,,,,,,,,,,,,,,,441.58780620014295,442.8023711000569,443.6017436999828,443.5859181000851,,,,,,,,,,,,,,,,,,,,,,,,,,,,,,,,,,,443.5894518999849,443.6017436999828,443.6017436999828,444.2025520000607,g,1.0,0.5933853001333773,,,,,sub-218,1,stroop_test,60.124553994552215,
,,,,,,,,,,,,,,,,,,,,,,,,,,,,,,,,,,,,,,,,,,,,,,,,,,,,,,,,,,,,,,,,,,,,,,,,,,,,,,,,,,,,,,,,,,,,,,,,,,,,,,444.20273829996586,444.2182788001373,449.2153529000934,sub-218,1,stroop_test,60.124553994552215,
