wordCTK,colorCTK,corrAnsCTK,congruentCTK,thisN,thisTrialN,thisRepN,keyResp_CTK.keys,keyResp_CTK.corr,keyResp_CTK.rt,keyResp_CTK.duration,wordPractice,colorPractice,corrAnsPractice,congruentPractice,respPractice.keys,respPractice.corr,respPractice.rt,respPractice.duration,word,color,corrAns,congruent,keyResp_test_run.keys,keyResp_test_run.corr,keyResp_test_run.rt,keyResp_test_run.duration,trials_CTK.thisRepN,trials_CTK.thisTrialN,trials_CTK.thisN,trials_CTK.thisIndex,trials_practice.thisRepN,trials_practice.thisTrialN,trials_practice.thisN,trials_practice.thisIndex,trials_test.thisRepN,trials_test.thisTrialN,trials_test.thisN,trials_test.thisIndex,thisRow.t,notes,instruction.started,instr_text.started,instr_image.started,instr_resp.started,instruction.stopped,instr_resp.keys,instr_resp.rt,instr_resp.duration,instr_color_to_key.started,instr_ctk.started,resp_ctk.started,instr_color_to_key.stopped,resp_ctk.keys,resp_ctk.rt,resp_ctk.duration,ITI.started,fixcross.started,fixcross.stopped,ITI.stopped,color_to_key_run.started,stimulus_CTK.started,keyResp_CTK.started,color_to_key_run.stopped,trials_CTK.keyResp_CTK.keys,trials_CTK.keyResp_CTK.corr,trials_CTK.keyResp_CTK.rt,trials_CTK.keyResp_CTK.duration,instr_practice.started,instr_practice_text.started,instr_practice_resp.started,instr_practice.stopped,instr_practice_resp.keys,instr_practice_resp.rt,instr_practice_resp.duration,practice_run.started,stimulus_practice.started,respPractice.started,practice_run.stopped,trials_practice.respPractice.keys,trials_practice.respPractice.corr,trials_practice.respPractice.rt,trials_practice.respPractice.duration,feedback.started,textFeedback.started,feedback.stopped,textFeedback.stopped,instr_test.started,instr_test_text.started,instr_test_resp.started,instr_test.stopped,instr_test_resp.keys,instr_test_resp.rt,instr_test_resp.duration,test_run.started,stimulus_test_run.started,keyResp_test_run.started,test_run.stopped,trials_test.keyResp_test_run.keys,trials_test.keyResp_test_run.corr,trials_test.keyResp_test_run.rt,trials_test.keyResp_test_run.duration,goodbye.started,textGoodbye.started,textGoodbye.stopped,goodbye.stopped,participant,session,expName,frameRate,Unnamed: 113
,,,,,,,,,,,,,,,,,,,,,,,,,,,,,,,,,,,,,,,,,0.0089032909891102,0.0301847080118022,0.0301847080118022,0.0301847080118022,28.31513945799088,space,28.279282708012037,,,,,,,,,,,,,,,,,,,,,,,,,,,,,,,,,,,,,,,,,,,,,,,,,,,,,,,,,,,sub-221,1,stroop_test,119.94374737839232,
,,,,,,,,,,,,,,,,,,,,,,,,,,,,,,,,,,,,,,,,,,,,,,,,,28.31520704101422,28.32600845801062,28.32600845801062,33.75570450001396,space,5.426060957979644,,,,,,,,,,,,,,,,,,,,,,,,,,,,,,,,,,,,,,,,,,,,,,,,,,,,sub-221,1,stroop_test,119.94374737839232,
test,yellow,g,1.0,0.0,0.0,0.0,g,1.0,3.094322041986743,,,,,,,,,,,,,,,,,,0.0,0.0,0.0,1.0,,,,,,,,,33.78633249999257,,,,,,,,,,,,,,,,,33.770537833013805,34.95995325001422,35.76261979099945,35.747886375000235,35.7549996250018,35.76261979099945,35.76261979099945,38.86562979099108,g,1.0,3.094322041986743,,,,,,,,,,,,,,,,,,,,,,,,,,,,,,,,,,,,,,,,sub-221,1,stroop_test,119.94374737839232,
test,blue,b,1.0,1.0,1.0,0.0,b,1.0,0.6126760829938576,,,,,,,,,,,,,,,,,,0.0,1.0,1.0,2.0,,,,,,,,,38.87503424999886,,,,,,,,,,,,,,,,,38.86603370800731,39.21347449999303,40.005589875014266,39.99766991601791,39.99836379100452,40.005589875014266,40.005589875014266,40.621354708011495,b,1.0,0.6126760829938576,,,,,,,,,,,,,,,,,,,,,,,,,,,,,,,,,,,,,,,,sub-221,1,stroop_test,119.94374737839232,
test,red,r,1.0,2.0,2.0,0.0,r,1.0,0.4317710830073338,,,,,,,,,,,,,,,,,,0.0,2.0,2.0,0.0,,,,,,,,,40.63060029101325,,,,,,,,,,,,,,,,,40.62172558301245,41.4207223750127,42.22309554100502,42.21428558300249,42.21495779100224,42.22309554100502,42.22309554100502,42.66574662501807,r,1.0,0.4317710830073338,,,,,,,,,,,,,,,,,,,,,,,,,,,,,,,,,,,,,,,,sub-221,1,stroop_test,119.94374737839232,
test,red,r,1.0,3.0,0.0,1.0,r,1.0,0.5176246660121251,,,,,,,,,,,,,,,,,,1.0,0.0,3.0,0.0,,,,,,,,,42.675176415999886,,,,,,,,,,,,,,,,,42.66625179100083,42.7637236250157,43.5558234580094,43.54765820800094,43.54836587500176,43.5558234580094,43.5558234580094,44.08227662500576,r,1.0,0.5176246660121251,,,,,,,,,,,,,,,,,,,,,,,,,,,,,,,,,,,,,,,,sub-221,1,stroop_test,119.94374737839232,
test,blue,b,1.0,4.0,1.0,1.0,b,1.0,0.5214735000045039,,,,,,,,,,,,,,,,,,1.0,1.0,4.0,2.0,,,,,,,,,44.09190229099477,,,,,,,,,,,,,,,,,44.082771832996514,44.180538332992,44.97306262500933,44.96472766599618,44.96547329099849,44.97306262500933,44.97306262500933,45.49908029101789,b,1.0,0.5214735000045039,,,,,,,,,,,,,,,,,,,,,,,,,,,,,,,,,,,,,,,,sub-221,1,stroop_test,119.94374737839232,
test,yellow,g,1.0,5.0,2.0,1.0,g,1.0,0.3984872500004712,,,,,,,,,,,,,,,,,,1.0,2.0,5.0,1.0,,,,,,,,,45.50819920800859,,,,,,,,,,,,,,,,,45.49946166601149,46.29682166600833,47.09025358301005,47.081272375013214,47.08191825001268,47.09025358301005,47.09025358301005,47.49796500001685,g,1.0,0.3984872500004712,,,,,,,,,,,,,,,,,,,,,,,,,,,,,,,,,,,,,,,,sub-221,1,stroop_test,119.94374737839232,
test,red,r,1.0,6.0,0.0,2.0,r,1.0,0.4093013749807141,,,,,,,,,,,,,,,,,,2.0,0.0,6.0,0.0,,,,,,,,,47.50701495801332,,,,,,,,,,,,,,,,,47.498331125010736,47.586638790991856,48.38005337500363,48.36988137499429,48.37051987499581,48.38005337500363,48.38005337500363,48.79893895800342,r,1.0,0.4093013749807141,,,,,,,,,,,,,,,,,,,,,,,,,,,,,,,,,,,,,,,,sub-221,1,stroop_test,119.94374737839232,
test,yellow,g,1.0,7.0,1.0,2.0,g,1.0,1.0314134579966776,,,,,,,,,,,,,,,,,,2.0,1.0,7.0,1.0,,,,,,,,,48.80789579098928,,,,,,,,,,,,,,,,,48.7993246249971,49.99737658299273,50.78926166601013,50.7812875410018,50.78197529099998,50.78926166601013,50.78926166601013,51.83292695801356,g,1.0,1.0314134579966776,,,,,,,,,,,,,,,,,,,,,,,,,,,,,,,,,,,,,,,,sub-221,1,stroop_test,119.94374737839232,
test,blue,b,1.0,8.0,2.0,2.0,b,1.0,0.6705901249952149,,,,,,,,,,,,,,,,,,2.0,2.0,8.0,2.0,,,,,,,,,51.84217445799732,,,,,,,,,,,,,,,,,51.83331637500669,51.93076129100518,52.72228149999864,52.71463583299192,52.7152846660174,52.72228149999864,52.72228149999864,53.39918083301745,b,1.0,0.6705901249952149,,,,,,,,,,,,,,,,,,,,,,,,,,,,,,,,,,,,,,,,sub-221,1,stroop_test,119.94374737839232,
test,yellow,g,1.0,9.0,0.0,3.0,g,1.0,0.8046030410041567,,,,,,,,,,,,,,,,,,3.0,0.0,9.0,1.0,,,,,,,,,53.40873529101373,,,,,,,,,,,,,,,,,53.39965700000175,53.49731370800873,54.2890919999918,54.28129779099254,54.281931208010064,54.2890919999918,54.2890919999918,55.099407375004375,g,1.0,0.8046030410041567,,,,,,,,,,,,,,,,,,,,,,,,,,,,,,,,,,,,,,,,sub-221,1,stroop_test,119.94374737839232,
test,blue,b,1.0,10.0,1.0,3.0,b,1.0,0.8032214999839198,,,,,,,,,,,,,,,,,,3.0,1.0,10.0,2.0,,,,,,,,,55.108488875004696,,,,,,,,,,,,,,,,,55.0998079580022,55.44739445799496,56.23975108299055,56.23136608299683,56.23205212500761,56.23975108299055,56.23975108299055,57.05008083299617,b,1.0,0.8032214999839198,,,,,,,,,,,,,,,,,,,,,,,,,,,,,,,,,,,,,,,,sub-221,1,stroop_test,119.94374737839232,
test,red,r,1.0,11.0,2.0,3.0,r,1.0,0.4925159580016043,,,,,,,,,,,,,,,,,,3.0,2.0,11.0,0.0,,,,,,,,,57.05974187501124,,,,,,,,,,,,,,,,,57.05059737499687,57.14743116599857,57.93931162499939,57.93160475001787,57.93225516600069,57.93931162499939,57.93931162499939,58.43853833299363,r,1.0,0.4925159580016043,,,,,,,,,,,,,,,,,,,,,,,,,,,,,,,,,,,,,,,,sub-221,1,stroop_test,119.94374737839232,
,,,,,,,,,,,,,,,,,,,,,,,,,,,,,,,,,,,,,,,,,,,,,,,,,,,,,,,,,,,,,,,,,,,,58.43872450001072,58.44935404098942,58.44935404098942,63.06607800000347,space,4.606482833012706,,,,,,,,,,,,,,,,,,,,,,,,,,,,,,,,,sub-221,1,stroop_test,119.94374737839232,
,,,,0.0,0.0,0.0,,,,,blau,blue,b,1.0,b,1.0,0.7221063749748282,,,,,,,,,,,,,,0.0,0.0,0.0,6.0,,,,,63.08742329099914,,,,,,,,,,,,,,,,,63.0788957499899,63.41433654099819,64.21309212499182,64.19820466599776,,,,,,,,,,,,,,,,64.20535716600716,64.21309212499182,64.21309212499182,64.93960899999365,b,1.0,0.7221063749748282,,64.94752429099753,64.95733416601433,65.94776979100425,,,,,,,,,,,,,,,,,,,,,sub-221,1,stroop_test,119.94374737839232,
,,,,1.0,1.0,0.0,,,,,blau,blue,b,1.0,b,1.0,0.62841845798539,,,,,,,,,,,,,,0.0,1.0,1.0,5.0,,,,,65.95374383300077,,,,,,,,,,,,,,,,,65.94821345800301,66.73748820798937,67.53964791601175,67.53168091599946,,,,,,,,,,,,,,,,67.53232808300527,67.53964791601175,67.53964791601175,68.17233608299284,b,1.0,0.62841845798539,,68.1728874160035,68.18321933300467,69.17125308301183,69.18089395799325,,,,,,,,,,,,,,,,,,,,sub-221,1,stroop_test,119.94374737839232,
,,,,2.0,2.0,0.0,,,,,gelb,yellow,g,1.0,g,1.0,0.745216209004866,,,,,,,,,,,,,,0.0,2.0,2.0,10.0,,,,,69.18089395799325,,,,,,,,,,,,,,,,,69.17172370801563,69.52104658301687,70.32729204100906,70.31514975000755,,,,,,,,,,,,,,,,70.31974191599875,70.32729204100906,70.32729204100906,71.08290912499069,g,1.0,0.745216209004866,,71.08351679099724,71.0932963330124,72.08204391601612,72.08806804099004,,,,,,,,,,,,,,,,,,,,sub-221,1,stroop_test,119.94374737839232,
,,,,3.0,3.0,0.0,,,,,rot,yellow,g,0.0,g,1.0,0.7045740000030492,,,,,,,,,,,,,,0.0,3.0,3.0,3.0,,,,,72.08806804099004,,,,,,,,,,,,,,,,,72.08262100000866,72.88125570799457,73.677543333004,73.66502675000811,,,,,,,,,,,,,,,,73.67012741600047,73.677543333004,73.677543333004,74.38857087501674,g,1.0,0.7045740000030492,,74.38912949999212,74.39990437499364,75.38696429101401,75.3979577080172,,,,,,,,,,,,,,,,,,,,sub-221,1,stroop_test,119.94374737839232,
,,,,4.0,4.0,0.0,,,,,gelb,blue,b,0.0,b,1.0,1.0057117090036627,,,,,,,,,,,,,,0.0,4.0,4.0,9.0,,,,,75.3979577080172,,,,,,,,,,,,,,,,,75.38740741601214,75.48848941599135,76.28390149999177,76.2721864579944,,,,,,,,,,,,,,,,76.27623083299841,76.28390149999177,76.28390149999177,77.30032425001264,b,1.0,1.0057117090036627,,77.30104391599889,77.31137029099045,78.29860120799276,78.3044243750046,,,,,,,,,,,,,,,,,,,,sub-221,1,stroop_test,119.94374737839232,
,,,,5.0,5.0,0.0,,,,,gelb,red,r,0.0,r,1.0,0.5579709169978742,,,,,,,,,,,,,,0.0,5.0,5.0,8.0,,,,,78.3044243750046,,,,,,,,,,,,,,,,,78.29906662501162,79.49781583299045,80.29027137500816,80.28209183301078,,,,,,,,,,,,,,,,80.2827506250178,80.29027137500816,80.29027137500816,80.85130554100033,r,1.0,0.5579709169978742,,80.85199991599075,80.86263787499047,81.84876208301284,81.85426895800629,,,,,,,,,,,,,,,,,,,,sub-221,1,stroop_test,119.94374737839232,
,,,,6.0,6.0,0.0,,,,,gelb,yellow,g,1.0,g,1.0,0.6687353749875911,,,,,,,,,,,,,,0.0,6.0,6.0,11.0,,,,,81.85426895800629,,,,,,,,,,,,,,,,,81.84923566601356,83.04805700000725,83.83981533299084,83.83178808301454,,,,,,,,,,,,,,,,83.83244129101513,83.83981533299084,83.83981533299084,84.5165484159952,g,1.0,0.6687353749875911,,84.51713829100481,84.52711262501543,85.5156878750131,85.52180254101404,,,,,,,,,,,,,,,,,,,,sub-221,1,stroop_test,119.94374737839232,
,,,,7.0,7.0,0.0,,,,,rot,red,r,1.0,r,1.0,0.6925728330097627,,,,,,,,,,,,,,0.0,7.0,7.0,0.0,,,,,85.52180254101404,,,,,,,,,,,,,,,,,85.51617541600717,86.71477520800545,87.51046466600383,87.49896379100392,,,,,,,,,,,,,,,,87.50334483300685,87.51046466600383,87.51046466600383,88.20602320801117,r,1.0,0.6925728330097627,,88.2065944999922,88.21711283299373,89.2037973330007,89.21498041599989,,,,,,,,,,,,,,,,,,,,sub-221,1,stroop_test,119.94374737839232,
,,,,8.0,8.0,0.0,,,,,rot,blue,b,0.0,b,1.0,0.6198212500021327,,,,,,,,,,,,,,0.0,8.0,8.0,2.0,,,,,89.21498041599989,,,,,,,,,,,,,,,,,89.20417604100658,89.55426999999327,90.35632700001588,90.34875066601673,,,,,,,,,,,,,,,,90.3493963330111,90.35632700001588,90.35632700001588,90.98374016600428,b,1.0,0.6198212500021327,,90.98436950001631,90.99459695801488,91.98223558301106,91.98802816600072,,,,,,,,,,,,,,,,,,,,sub-221,1,stroop_test,119.94374737839232,
,,,,9.0,9.0,0.0,,,,,blau,red,r,0.0,r,1.0,1.888535750011215,,,,,,,,,,,,,,0.0,9.0,9.0,4.0,,,,,91.98802816600072,,,,,,,,,,,,,,,,,91.98269079101738,92.33145575001254,93.12676291601385,93.11562587501248,,,,,,,,,,,,,,,,93.11947887501448,93.12676291601385,93.12676291601385,95.01818383301725,r,1.0,1.888535750011215,,95.01898654099205,95.02968500001587,96.0154332910024,96.0215632499894,,,,,,,,,,,,,,,,,,,,sub-221,1,stroop_test,119.94374737839232,
,,,,10.0,10.0,0.0,,,,,rot,red,r,1.0,r,1.0,0.6151926659804303,,,,,,,,,,,,,,0.0,10.0,10.0,1.0,,,,,96.0215632499894,,,,,,,,,,,,,,,,,96.01595691600232,96.11516179100728,96.90981558299973,96.89888829100528,,,,,,,,,,,,,,,,96.90256545800366,96.90981558299973,96.90981558299973,97.53365820800536,r,1.0,0.6151926659804303,,97.53424999999696,97.5446399160137,98.53244920799624,98.53787349999766,,,,,,,,,,,,,,,,,,,,sub-221,1,stroop_test,119.94374737839232,
,,,,11.0,11.0,0.0,,,,,blau,yellow,g,0.0,g,1.0,1.0457787920022383,,,,,,,,,,,,,,0.0,11.0,11.0,7.0,,,,,98.53787349999766,,,,,,,,,,,,,,,,,98.532893333002,99.73179445799906,100.52732304099482,100.51592999999411,,,,,,,,,,,,,,,,100.52013533300487,100.52732304099482,100.52732304099482,101.5841021249944,g,1.0,1.0457787920022383,,101.5848286249966,101.5952467909956,102.58241420800914,102.58838487500908,,,,,,,,,,,,,,,,,,,,sub-221,1,stroop_test,119.94374737839232,
,,,,12.0,0.0,1.0,,,,,blau,blue,b,1.0,b,1.0,0.6083849999995437,,,,,,,,,,,,,,1.0,0.0,12.0,5.0,,,,,102.58838487500908,,,,,,,,,,,,,,,,,102.5828723750019,102.68181558299692,103.47351866599638,103.465936624998,,,,,,,,,,,,,,,,103.46658387500791,103.47351866599638,103.47351866599638,104.08424950001064,b,1.0,0.6083849999995437,,104.08480779099044,104.09460341601516,105.08268516600948,105.08844841600512,,,,,,,,,,,,,,,,,,,,sub-221,1,stroop_test,119.94374737839232,
,,,,13.0,1.0,1.0,,,,,blau,red,r,0.0,r,1.0,0.6148118750134017,,,,,,,,,,,,,,1.0,1.0,13.0,4.0,,,,,105.08844841600512,,,,,,,,,,,,,,,,,105.08312150000712,105.18187008300448,105.9742734580068,105.96583999998984,,,,,,,,,,,,,,,,105.96661370800577,105.9742734580068,105.9742734580068,106.59146291599608,r,1.0,0.6148118750134017,,106.59205674999976,106.60380820799035,107.5877058749902,107.59763266600204,,,,,,,,,,,,,,,,,,,,sub-221,1,stroop_test,119.94374737839232,
,,,,14.0,2.0,1.0,,,,,gelb,yellow,g,1.0,g,1.0,0.8345362080144696,,,,,,,,,,,,,,1.0,2.0,14.0,11.0,,,,,107.59763266600204,,,,,,,,,,,,,,,,,107.58817274999456,108.7882513749937,109.58453887500218,109.5724997500074,,,,,,,,,,,,,,,,109.5760400829895,109.58453887500218,109.58453887500218,110.42328000001726,g,1.0,0.8345362080144696,,110.42385950000607,110.43444504099898,111.42281362501672,111.4318520000088,,,,,,,,,,,,,,,,,,,,sub-221,1,stroop_test,119.94374737839232,
,,,,15.0,3.0,1.0,,,,,blau,yellow,g,0.0,g,1.0,0.7876105420000385,,,,,,,,,,,,,,1.0,3.0,15.0,7.0,,,,,111.4318520000088,,,,,,,,,,,,,,,,,111.42330595801468,111.52223266600048,112.32782816601684,112.3160388749966,,,,,,,,,,,,,,,,112.32063649999328,112.32782816601684,112.32782816601684,113.11793479099288,g,1.0,0.7876105420000385,,113.11858212499646,113.1289827080036,114.11606833300904,114.1230554160138,,,,,,,,,,,,,,,,,,,,sub-221,1,stroop_test,119.94374737839232,
,,,,16.0,4.0,1.0,,,,,gelb,yellow,g,1.0,g,1.0,0.5503310830099508,,,,,,,,,,,,,,1.0,4.0,16.0,10.0,,,,,114.1230554160138,,,,,,,,,,,,,,,,,114.11651258301572,115.31562479099377,116.11080612501246,116.09953816601774,,,,,,,,,,,,,,,,116.10344537501804,116.11080612501246,116.11080612501246,116.66744712501531,g,1.0,0.5503310830099508,,116.66800725000212,116.6780517080042,117.66610045800915,117.671894375002,,,,,,,,,,,,,,,,,,,,sub-221,1,stroop_test,119.94374737839232,
,,,,17.0,5.0,1.0,,,,,blau,blue,b,1.0,b,1.0,0.6116125410189852,,,,,,,,,,,,,,1.0,5.0,17.0,6.0,,,,,117.671894375002,,,,,,,,,,,,,,,,,117.66658862499752,117.76554658301755,118.55985279098968,118.54948025001796,,,,,,,,,,,,,,,,118.55279383299056,118.55985279098968,118.55985279098968,119.17408287498984,b,1.0,0.6116125410189852,,119.17478391600888,119.18803266601752,120.1727775830077,120.18213837500662,,,,,,,,,,,,,,,,,,,,sub-221,1,stroop_test,119.94374737839232,
,,,,18.0,6.0,1.0,,,,,gelb,red,r,0.0,r,1.0,0.7537686249997932,,,,,,,,,,,,,,1.0,6.0,18.0,8.0,,,,,120.18213837500662,,,,,,,,,,,,,,,,,120.1732489580172,120.27256937499624,121.0819935000036,121.05600691601283,,,,,,,,,,,,,,,,121.05935008300004,121.0819935000036,121.0819935000036,121.8406169580121,r,1.0,0.7537686249997932,,121.84116820798954,121.85143395801424,122.83832270800484,122.84924387501088,,,,,,,,,,,,,,,,,,,,sub-221,1,stroop_test,119.94374737839232,
,,,,19.0,7.0,1.0,,,,,rot,yellow,g,0.0,g,1.0,1.0367279170022812,,,,,,,,,,,,,,1.0,7.0,19.0,3.0,,,,,122.84924387501088,,,,,,,,,,,,,,,,,122.83875975001138,123.63899570799548,124.43467200000303,124.42272916599175,,,,,,,,,,,,,,,,124.42715820801097,124.43467200000303,124.43467200000303,125.4737385000044,g,1.0,1.0367279170022812,,125.4742901250138,125.48484983301024,126.4715208330017,126.48250141600148,,,,,,,,,,,,,,,,,,,,sub-221,1,stroop_test,119.94374737839232,
,,,,20.0,8.0,1.0,,,,,rot,blue,b,0.0,b,1.0,0.8496429999941029,,,,,,,,,,,,,,1.0,8.0,20.0,2.0,,,,,126.48250141600148,,,,,,,,,,,,,,,,,126.4719708749908,126.57228604101692,127.37455329101068,127.36670370801583,,,,,,,,,,,,,,,,127.36735495799805,127.37455329101068,127.37455329101068,128.23432408299414,b,1.0,0.8496429999941029,,128.23504558301647,128.24524012499023,129.23325275001116,129.2392126659979,,,,,,,,,,,,,,,,,,,,sub-221,1,stroop_test,119.94374737839232,
,,,,21.0,9.0,1.0,,,,,rot,red,r,1.0,r,1.0,1.0036638340097852,,,,,,,,,,,,,,1.0,9.0,21.0,1.0,,,,,129.2392126659979,,,,,,,,,,,,,,,,,129.2336997500097,130.4322795830085,131.22461050000857,131.216598583007,,,,,,,,,,,,,,,,131.21724391600583,131.22461050000857,131.22461050000857,132.234808875015,r,1.0,1.0036638340097852,,132.23538674999145,132.2456187909993,133.23325362501782,133.2391243329912,,,,,,,,,,,,,,,,,,,,sub-221,1,stroop_test,119.94374737839232,
,,,,22.0,10.0,1.0,,,,,rot,red,r,1.0,r,1.0,0.4984754580073058,,,,,,,,,,,,,,1.0,10.0,22.0,0.0,,,,,133.2391243329912,,,,,,,,,,,,,,,,,133.2337068330089,133.33251295800437,134.12457474999246,134.1166167499905,,,,,,,,,,,,,,,,134.11725829099305,134.12457474999246,134.12457474999246,134.63498249999247,r,1.0,0.4984754580073058,,134.63562062499113,134.64551762500196,135.63306854100665,135.63887562500895,,,,,,,,,,,,,,,,,,,,sub-221,1,stroop_test,119.94374737839232,
,,,,23.0,11.0,1.0,,,,,gelb,blue,b,0.0,b,1.0,2.3343241660040803,,,,,,,,,,,,,,1.0,11.0,23.0,9.0,,,,,135.63887562500895,,,,,,,,,,,,,,,,,135.63351908299956,135.73270191601478,136.52812266600083,136.51655095801107,,,,,,,,,,,,,,,,136.5209102499939,136.52812266600083,136.52812266600083,138.86788649999653,b,1.0,2.3343241660040803,,138.8684731250105,138.87883891598904,139.86666654099827,139.87503566601663,,,,,,,,,,,,,,,,,,,,sub-221,1,stroop_test,119.94374737839232,
,,,,,,,,,,,,,,,,,,,,,,,,,,,,,,,,,,,,,,,,,,,,,,,,,,,,,,,,,,,,,,,,,,,,,,,,,,,,,,,,,,,,,,,139.86688962500193,139.87503566601663,139.87503566601663,160.08566054099356,space,20.205812875006814,,,,,,,,,,,,,,sub-221,1,stroop_test,119.94374737839232,
,,,,0.0,0.0,0.0,,,,,,,,,,,,,blau,blue,b,1.0,b,1.0,0.3959577499772422,,,,,,,,,,0.0,0.0,0.0,6.0,160.10903987500933,,,,,,,,,,,,,,,,,160.10038754099514,160.18219799999497,160.97855387500022,160.96726666600443,,,,,,,,,,,,,,,,,,,,,,,,,,,,,,,,,,,160.97121912500006,160.97855387500022,160.97855387500022,161.3855516249896,b,1.0,0.3959577499772422,,,,,,sub-221,1,stroop_test,119.94374737839232,
,,,,1.0,1.0,0.0,,,,,,,,,,,,,blau,blue,b,1.0,b,1.0,0.4752885409980081,,,,,,,,,,0.0,1.0,1.0,5.0,161.39473108301172,,,,,,,,,,,,,,,,,161.3860730410088,161.48328183300328,162.2753046659927,162.26751895798952,,,,,,,,,,,,,,,,,,,,,,,,,,,,,,,,,,,162.2681680000096,162.2753046659927,162.2753046659927,162.76239358299063,b,1.0,0.4752885409980081,,,,,,sub-221,1,stroop_test,119.94374737839232,
,,,,2.0,2.0,0.0,,,,,,,,,,,,,gelb,yellow,g,1.0,g,1.0,0.4790962919942103,,,,,,,,,,0.0,2.0,2.0,11.0,162.7684614160098,,,,,,,,,,,,,,,,,162.76286499999696,162.85606966601335,163.6504970829992,163.64005854100105,,,,,,,,,,,,,,,,,,,,,,,,,,,,,,,,,,,163.64336429099785,163.6504970829992,163.6504970829992,164.134697875008,g,1.0,0.4790962919942103,,,,,,sub-221,1,stroop_test,119.94374737839232,
,,,,3.0,3.0,0.0,,,,,,,,,,,,,rot,blue,b,0.0,b,1.0,1.1416742500150576,,,,,,,,,,0.0,3.0,3.0,2.0,164.14364416600438,,,,,,,,,,,,,,,,,164.13514329100144,164.48349295801015,165.27810562500963,165.26755720798974,,,,,,,,,,,,,,,,,,,,,,,,,,,,,,,,,,,165.27074395801174,165.27810562500963,165.27810562500963,166.4245633330138,b,1.0,1.1416742500150576,,,,,,sub-221,1,stroop_test,119.94374737839232,
,,,,4.0,4.0,0.0,,,,,,,,,,,,,gelb,yellow,g,1.0,g,1.0,0.5883966249821242,,,,,,,,,,0.0,4.0,4.0,10.0,166.43340841599274,,,,,,,,,,,,,,,,,166.42499133301317,166.77413583299494,167.5778774160135,167.56725091600674,,,,,,,,,,,,,,,,,,,,,,,,,,,,,,,,,,,167.57078162499238,167.5778774160135,167.5778774160135,168.1689687909966,g,1.0,0.5883966249821242,,,,,,sub-221,1,stroop_test,119.94374737839232,
,,,,5.0,5.0,0.0,,,,,,,,,,,,,rot,red,r,1.0,r,1.0,0.5713486669992562,,,,,,,,,,0.0,5.0,5.0,1.0,168.178340457991,,,,,,,,,,,,,,,,,168.1694336660148,168.9667609159951,169.76274816601654,169.75080045801587,,,,,,,,,,,,,,,,,,,,,,,,,,,,,,,,,,,169.75543525000103,169.76274816601654,169.76274816601654,170.34679174999474,r,1.0,0.5713486669992562,,,,,,sub-221,1,stroop_test,119.94374737839232,
,,,,6.0,6.0,0.0,,,,,,,,,,,,,blau,red,r,0.0,r,1.0,0.4492628329899162,,,,,,,,,,0.0,6.0,6.0,4.0,170.3516454579949,,,,,,,,,,,,,,,,,170.34723487499286,170.69038920800085,171.49505250001675,171.48428750000312,,,,,,,,,,,,,,,,,,,,,,,,,,,,,,,,,,,171.48773129101028,171.49505250001675,171.49505250001675,171.9521206660138,r,1.0,0.4492628329899162,,,,,,sub-221,1,stroop_test,119.94374737839232,
,,,,7.0,7.0,0.0,,,,,,,,,,,,,blau,yellow,g,0.0,g,1.0,0.4247904999938328,,,,,,,,,,0.0,7.0,7.0,7.0,171.9614645410038,,,,,,,,,,,,,,,,,171.9525904160109,172.75041350000538,173.54213062499184,173.53400408299058,,,,,,,,,,,,,,,,,,,,,,,,,,,,,,,,,,,173.53470433299665,173.54213062499184,173.54213062499184,173.96953495801426,g,1.0,0.4247904999938328,,,,,,sub-221,1,stroop_test,119.94374737839232,
,,,,8.0,8.0,0.0,,,,,,,,,,,,,gelb,red,r,0.0,r,1.0,0.5605821250064764,,,,,,,,,,0.0,8.0,8.0,8.0,173.97848412499297,,,,,,,,,,,,,,,,,173.9700024999911,174.0669620000117,174.86262500000885,174.85125016601523,,,,,,,,,,,,,,,,,,,,,,,,,,,,,,,,,,,174.8551483330084,174.86262500000885,174.86262500000885,175.42598308299785,r,1.0,0.5605821250064764,,,,,,sub-221,1,stroop_test,119.94374737839232,
,,,,9.0,9.0,0.0,,,,,,,,,,,,,rot,red,r,1.0,r,1.0,0.4695577079837676,,,,,,,,,,0.0,9.0,9.0,0.0,175.43557062500622,,,,,,,,,,,,,,,,,175.42654079099884,176.22374362501432,177.0197546250129,177.0076942910091,,,,,,,,,,,,,,,,,,,,,,,,,,,,,,,,,,,177.0115154160012,177.0197546250129,177.0197546250129,177.49184191599488,r,1.0,0.4695577079837676,,,,,,sub-221,1,stroop_test,119.94374737839232,
,,,,10.0,10.0,0.0,,,,,,,,,,,,,gelb,blue,b,0.0,b,1.0,0.4453130410111043,,,,,,,,,,0.0,10.0,10.0,9.0,177.51665729100932,,,,,,,,,,,,,,,,,177.4922726660152,178.29046991601354,179.0950475409918,179.08455458300887,,,,,,,,,,,,,,,,,,,,,,,,,,,,,,,,,,,179.0878246659995,179.0950475409918,179.0950475409918,179.56767583300825,b,1.0,0.4453130410111043,,,,,,sub-221,1,stroop_test,119.94374737839232,
,,,,11.0,11.0,0.0,,,,,,,,,,,,,rot,yellow,g,0.0,g,1.0,0.6390343339880928,,,,,,,,,,0.0,11.0,11.0,3.0,179.58375241601607,,,,,,,,,,,,,,,,,179.5681632499909,180.35789408299024,181.16204116601148,181.15103375000763,,,,,,,,,,,,,,,,,,,,,,,,,,,,,,,,,,,181.1547725830169,181.16204116601148,181.16204116601148,181.8128979160101,g,1.0,0.6390343339880928,,,,,,sub-221,1,stroop_test,119.94374737839232,
,,,,12.0,0.0,1.0,,,,,,,,,,,,,rot,red,r,1.0,r,1.0,0.6031202079902869,,,,,,,,,,1.0,0.0,12.0,1.0,181.81896775000496,,,,,,,,,,,,,,,,,181.81333408301,182.1572889999952,182.9491764160048,182.9410497079953,,,,,,,,,,,,,,,,,,,,,,,,,,,,,,,,,,,182.9417572079983,182.9491764160048,182.9491764160048,183.5574878329935,r,1.0,0.6031202079902869,,,,,,sub-221,1,stroop_test,119.94374737839232,
,,,,13.0,1.0,1.0,,,,,,,,,,,,,blau,blue,b,1.0,b,1.0,0.6599155839940067,,,,,,,,,,1.0,1.0,13.0,5.0,183.5664569580113,,,,,,,,,,,,,,,,,183.557939374994,184.75683387499885,185.5535191250092,185.54170579099448,,,,,,,,,,,,,,,,,,,,,,,,,,,,,,,,,,,185.5464126250008,185.5535191250092,185.5535191250092,186.2188935829909,b,1.0,0.6599155839940067,,,,,,sub-221,1,stroop_test,119.94374737839232,
,,,,14.0,2.0,1.0,,,,,,,,,,,,,rot,red,r,1.0,r,1.0,0.4319184169871732,,,,,,,,,,1.0,2.0,14.0,0.0,186.22821462500724,,,,,,,,,,,,,,,,,186.21934479099585,187.417387583002,188.2133160410158,188.20134154098923,,,,,,,,,,,,,,,,,,,,,,,,,,,,,,,,,,,188.2057287080097,188.2133160410158,188.2133160410158,188.65226745800464,r,1.0,0.4319184169871732,,,,,,sub-221,1,stroop_test,119.94374737839232,
,,,,15.0,3.0,1.0,,,,,,,,,,,,,gelb,yellow,g,1.0,g,1.0,0.7353096659935545,,,,,,,,,,1.0,3.0,15.0,11.0,188.66169283300405,,,,,,,,,,,,,,,,,188.6527181249985,188.7505516250094,189.54536191601076,189.53477883301093,,,,,,,,,,,,,,,,,,,,,,,,,,,,,,,,,,,189.53813025000272,189.54536191601076,189.54536191601076,190.28643400000877,g,1.0,0.7353096659935545,,,,,,sub-221,1,stroop_test,119.94374737839232,
,,,,16.0,4.0,1.0,,,,,,,,,,,,,gelb,red,r,0.0,g,0.0,0.6025654170080088,,,,,,,,,,1.0,4.0,16.0,8.0,190.2961110410106,,,,,,,,,,,,,,,,,190.2870435410005,191.08374641599949,191.87601079099116,191.86806916599744,,,,,,,,,,,,,,,,,,,,,,,,,,,,,,,,,,,191.8687268329959,191.87601079099116,191.87601079099116,192.4862529160164,g,0.0,0.6025654170080088,,,,,,sub-221,1,stroop_test,119.94374737839232,
,,,,17.0,5.0,1.0,,,,,,,,,,,,,blau,yellow,g,0.0,g,1.0,0.821641707996605,,,,,,,,,,1.0,5.0,17.0,7.0,192.4955644159927,,,,,,,,,,,,,,,,,192.486694332998,192.8340139159991,193.6295287910034,193.61784275001264,,,,,,,,,,,,,,,,,,,,,,,,,,,,,,,,,,,193.6221206659975,193.6295287910034,193.6295287910034,194.4537272079906,g,1.0,0.821641707996605,,,,,,sub-221,1,stroop_test,119.94374737839232,
,,,,18.0,6.0,1.0,,,,,,,,,,,,,gelb,blue,b,0.0,b,1.0,0.9769547909963876,,,,,,,,,,1.0,6.0,18.0,9.0,194.4631999580015,,,,,,,,,,,,,,,,,194.45428120801807,195.65052399999692,196.44508679100545,196.4345168750151,,,,,,,,,,,,,,,,,,,,,,,,,,,,,,,,,,,196.43793937499868,196.44508679100545,196.44508679100545,197.42600850001327,b,1.0,0.9769547909963876,,,,,,sub-221,1,stroop_test,119.94374737839232,
,,,,19.0,7.0,1.0,,,,,,,,,,,,,blau,blue,b,1.0,b,1.0,0.5505738329957239,,,,,,,,,,1.0,7.0,19.0,6.0,197.43603874999096,,,,,,,,,,,,,,,,,197.42645445800736,198.62445679100347,199.43370799999684,199.407713624998,,,,,,,,,,,,,,,,,,,,,,,,,,,,,,,,,,,199.41118429100607,199.43370799999684,199.43370799999684,199.98666858300567,b,1.0,0.5505738329957239,,,,,,sub-221,1,stroop_test,119.94374737839232,
,,,,20.0,8.0,1.0,,,,,,,,,,,,,blau,red,r,0.0,r,1.0,0.8417011660058051,,,,,,,,,,1.0,8.0,20.0,4.0,199.99607354099865,,,,,,,,,,,,,,,,,199.98712541599525,200.0837943330116,200.8760147500143,200.8679290410073,,,,,,,,,,,,,,,,,,,,,,,,,,,,,,,,,,,200.8685706249962,200.8760147500143,200.8760147500143,201.7203260000097,r,1.0,0.8417011660058051,,,,,,sub-221,1,stroop_test,119.94374737839232,
,,,,21.0,9.0,1.0,,,,,,,,,,,,,rot,yellow,g,0.0,g,1.0,0.5567322920251172,,,,,,,,,,1.0,9.0,21.0,3.0,201.72974154099936,,,,,,,,,,,,,,,,,201.72088587499456,202.9175641660113,203.713523250015,203.7015952499933,,,,,,,,,,,,,,,,,,,,,,,,,,,,,,,,,,,203.70606395800127,203.713523250015,203.713523250015,204.27552641599323,g,1.0,0.5567322920251172,,,,,,sub-221,1,stroop_test,119.94374737839232,
,,,,22.0,10.0,1.0,,,,,,,,,,,,,gelb,yellow,g,1.0,g,1.0,0.506399291974958,,,,,,,,,,1.0,10.0,22.0,10.0,204.3006447500084,,,,,,,,,,,,,,,,,204.27596804100904,205.47460370798944,206.27883516601287,206.2682964999985,,,,,,,,,,,,,,,,,,,,,,,,,,,,,,,,,,,206.2716924159904,206.27883516601287,206.27883516601287,206.79707170801703,g,1.0,0.506399291974958,,,,,,sub-221,1,stroop_test,119.94374737839232,
,,,,23.0,11.0,1.0,,,,,,,,,,,,,rot,blue,b,0.0,b,1.0,0.4654123340151272,,,,,,,,,,1.0,11.0,23.0,2.0,206.802500040998,,,,,,,,,,,,,,,,,206.79751945799217,207.9916559580015,208.796352416015,208.78507825001725,,,,,,,,,,,,,,,,,,,,,,,,,,,,,,,,,,,208.78886375,208.796352416015,208.796352416015,209.2696935000131,b,1.0,0.4654123340151272,,,,,,sub-221,1,stroop_test,119.94374737839232,
,,,,24.0,0.0,2.0,,,,,,,,,,,,,blau,blue,b,1.0,b,1.0,0.4325087080069352,,,,,,,,,,2.0,0.0,24.0,6.0,209.2798315830005,,,,,,,,,,,,,,,,,209.27034683301463,209.6177613750042,210.41420487500727,210.40171174998977,,,,,,,,,,,,,,,,,,,,,,,,,,,,,,,,,,,210.4066511249985,210.41420487500727,210.41420487500727,210.853072583006,b,1.0,0.4325087080069352,,,,,,sub-221,1,stroop_test,119.94374737839232,
,,,,25.0,1.0,2.0,,,,,,,,,,,,,gelb,red,r,0.0,r,1.0,0.5565915839979425,,,,,,,,,,2.0,1.0,25.0,8.0,210.86227604100716,,,,,,,,,,,,,,,,,210.85352229099956,211.2012383750116,211.9955648329924,211.98482949999743,,,,,,,,,,,,,,,,,,,,,,,,,,,,,,,,,,,211.9881853749976,211.9955648329924,211.9955648329924,212.55922833300428,r,1.0,0.5565915839979425,,,,,,sub-221,1,stroop_test,119.94374737839232,
,,,,26.0,2.0,2.0,,,,,,,,,,,,,blau,blue,b,1.0,b,1.0,0.5287063749856316,,,,,,,,,,2.0,2.0,26.0,5.0,212.5842556660064,,,,,,,,,,,,,,,,,212.5597316249914,212.65786412500893,213.45322029100495,213.4417612499965,,,,,,,,,,,,,,,,,,,,,,,,,,,,,,,,,,,213.44516079101595,213.45322029100495,213.45322029100495,213.98601604101717,b,1.0,0.5287063749856316,,,,,,sub-221,1,stroop_test,119.94374737839232,
,,,,27.0,3.0,2.0,,,,,,,,,,,,,gelb,yellow,g,1.0,g,1.0,0.6719539169862401,,,,,,,,,,2.0,3.0,27.0,11.0,213.9955041249923,,,,,,,,,,,,,,,,,213.9864513750072,214.08386037501623,214.8812146660057,214.86897916599992,,,,,,,,,,,,,,,,,,,,,,,,,,,,,,,,,,,214.87358275000588,214.8812146660057,214.8812146660057,215.55940633299176,g,1.0,0.6719539169862401,,,,,,sub-221,1,stroop_test,119.94374737839232,
,,,,28.0,4.0,2.0,,,,,,,,,,,,,gelb,yellow,g,1.0,g,1.0,0.5423177919874433,,,,,,,,,,2.0,4.0,28.0,10.0,215.5842451660137,,,,,,,,,,,,,,,,,215.5598293330113,216.35754433300465,217.14990929100892,217.14219524999496,,,,,,,,,,,,,,,,,,,,,,,,,,,,,,,,,,,217.14287962499657,217.14990929100892,217.14990929100892,217.70312874999945,g,1.0,0.5423177919874433,,,,,,sub-221,1,stroop_test,119.94374737839232,
,,,,29.0,5.0,2.0,,,,,,,,,,,,,gelb,blue,b,0.0,b,1.0,0.6687739169865381,,,,,,,,,,2.0,5.0,29.0,9.0,217.71256883299796,,,,,,,,,,,,,,,,,217.7035867079976,218.05141520799955,218.842769165989,218.83519233300467,,,,,,,,,,,,,,,,,,,,,,,,,,,,,,,,,,,218.83583566601737,218.842769165989,218.842769165989,219.52018808299908,b,1.0,0.6687739169865381,,,,,,sub-221,1,stroop_test,119.94374737839232,
,,,,30.0,6.0,2.0,,,,,,,,,,,,,rot,yellow,g,0.0,g,1.0,0.806355375010753,,,,,,,,,,2.0,6.0,30.0,3.0,219.5300036249973,,,,,,,,,,,,,,,,,219.52073233301053,219.8681101250113,220.6633410410141,220.6517293750076,,,,,,,,,,,,,,,,,,,,,,,,,,,,,,,,,,,220.656303249998,220.6633410410141,220.6633410410141,221.4757846250141,g,1.0,0.806355375010753,,,,,,sub-221,1,stroop_test,119.94374737839232,
,,,,31.0,7.0,2.0,,,,,,,,,,,,,rot,red,r,1.0,r,1.0,0.5439783330075443,,,,,,,,,,2.0,7.0,31.0,0.0,221.50097070800257,,,,,,,,,,,,,,,,,221.47622687500552,221.5754197910137,222.37658641600865,222.36878112499835,,,,,,,,,,,,,,,,,,,,,,,,,,,,,,,,,,,222.36943754099772,222.37658641600865,222.37658641600865,222.9244281660067,r,1.0,0.5439783330075443,,,,,,sub-221,1,stroop_test,119.94374737839232,
,,,,32.0,8.0,2.0,,,,,,,,,,,,,rot,red,r,1.0,r,1.0,0.4372606660181191,,,,,,,,,,2.0,8.0,32.0,1.0,222.93367100000611,,,,,,,,,,,,,,,,,222.9248537500098,223.724294500018,224.5174997080176,224.50729000000865,,,,,,,,,,,,,,,,,,,,,,,,,,,,,,,,,,,224.5079562079918,224.5174997080176,224.5174997080176,224.9595471660141,r,1.0,0.4372606660181191,,,,,,sub-221,1,stroop_test,119.94374737839232,
,,,,33.0,9.0,2.0,,,,,,,,,,,,,blau,red,r,0.0,r,1.0,0.424627500004135,,,,,,,,,,2.0,9.0,33.0,4.0,224.98442716599675,,,,,,,,,,,,,,,,,224.95998520799915,225.05802020800184,225.85378879099156,225.84197670800492,,,,,,,,,,,,,,,,,,,,,,,,,,,,,,,,,,,225.8456984999939,225.85378879099156,225.85378879099156,226.28684479100048,r,1.0,0.424627500004135,,,,,,sub-221,1,stroop_test,119.94374737839232,
,,,,34.0,10.0,2.0,,,,,,,,,,,,,blau,yellow,g,0.0,g,1.0,0.8967915000102948,,,,,,,,,,2.0,10.0,34.0,7.0,226.2957845829951,,,,,,,,,,,,,,,,,226.2873316250043,227.4846183329937,228.27679800000624,228.26877699999025,,,,,,,,,,,,,,,,,,,,,,,,,,,,,,,,,,,228.26945399999383,228.27679800000624,228.27679800000624,229.17633887499687,g,1.0,0.8967915000102948,,,,,,sub-221,1,stroop_test,119.94374737839232,
,,,,35.0,11.0,2.0,,,,,,,,,,,,,rot,blue,b,0.0,b,1.0,0.6458383749995846,,,,,,,,,,2.0,11.0,35.0,2.0,229.20122687501132,,,,,,,,,,,,,,,,,229.1767738749913,229.5254482080054,230.32958616601536,230.3189139580063,,,,,,,,,,,,,,,,,,,,,,,,,,,,,,,,,,,230.3222964160086,230.32958616601536,230.32958616601536,230.98709041599068,b,1.0,0.6458383749995846,,,,,,sub-221,1,stroop_test,119.94374737839232,
,,,,36.0,0.0,3.0,,,,,,,,,,,,,rot,yellow,g,0.0,g,1.0,0.6505927089892793,,,,,,,,,,3.0,0.0,36.0,3.0,230.9962037499936,,,,,,,,,,,,,,,,,230.9875868750096,231.33503695801485,232.1268602909986,232.11891204101263,,,,,,,,,,,,,,,,,,,,,,,,,,,,,,,,,,,232.1195636249904,232.1268602909986,232.1268602909986,232.78745954099577,g,1.0,0.6505927089892793,,,,,,sub-221,1,stroop_test,119.94374737839232,
,,,,37.0,1.0,3.0,,,,,,,,,,,,,rot,red,r,1.0,r,1.0,0.5941205419949256,,,,,,,,,,3.0,1.0,37.0,1.0,232.79702291599824,,,,,,,,,,,,,,,,,232.78802174999143,232.8849824159988,233.6764980829903,233.6688677080092,,,,,,,,,,,,,,,,,,,,,,,,,,,,,,,,,,,233.6695455409936,233.6764980829903,233.6764980829903,234.27701354099557,r,1.0,0.5941205419949256,,,,,,sub-221,1,stroop_test,119.94374737839232,
,,,,38.0,2.0,3.0,,,,,,,,,,,,,gelb,red,r,0.0,r,1.0,1.290299790998688,,,,,,,,,,3.0,2.0,38.0,8.0,234.28691362499376,,,,,,,,,,,,,,,,,234.2774760829925,235.0746239160071,235.87956825000583,235.8688805830025,,,,,,,,,,,,,,,,,,,,,,,,,,,,,,,,,,,235.8723864160129,235.87956825000583,235.87956825000583,237.17546875000696,r,1.0,1.290299790998688,,,,,,sub-221,1,stroop_test,119.94374737839232,
,,,,39.0,3.0,3.0,,,,,,,,,,,,,blau,red,r,0.0,r,1.0,0.5454346670012455,,,,,,,,,,3.0,3.0,39.0,4.0,237.18452974999676,,,,,,,,,,,,,,,,,237.1758949579962,238.37551137499395,239.18061470799148,239.16912558299373,,,,,,,,,,,,,,,,,,,,,,,,,,,,,,,,,,,239.1730864160054,239.18061470799148,239.18061470799148,239.73739349999232,r,1.0,0.5454346670012455,,,,,,sub-221,1,stroop_test,119.94374737839232,
,,,,40.0,4.0,3.0,,,,,,,,,,,,,gelb,blue,b,0.0,b,1.0,0.6404380830063019,,,,,,,,,,3.0,4.0,40.0,9.0,239.7467471660057,,,,,,,,,,,,,,,,,239.7379356250167,239.8349355829996,240.63029308299883,240.61902825001744,,,,,,,,,,,,,,,,,,,,,,,,,,,,,,,,,,,240.62290558300447,240.63029308299883,240.63029308299883,241.27604708299623,b,1.0,0.6404380830063019,,,,,,sub-221,1,stroop_test,119.94374737839232,
,,,,41.0,5.0,3.0,,,,,,,,,,,,,blau,blue,b,1.0,b,1.0,0.549137875001179,,,,,,,,,,3.0,5.0,41.0,6.0,241.28556445799768,,,,,,,,,,,,,,,,,241.2764637910004,242.07504208301543,242.8815437080048,242.86909970801207,,,,,,,,,,,,,,,,,,,,,,,,,,,,,,,,,,,242.87414258299395,242.8815437080048,242.8815437080048,243.4371150000079,b,1.0,0.549137875001179,,,,,,sub-221,1,stroop_test,119.94374737839232,
,,,,42.0,6.0,3.0,,,,,,,,,,,,,rot,red,r,1.0,r,1.0,0.6063940830063075,,,,,,,,,,3.0,6.0,42.0,0.0,243.4467327909952,,,,,,,,,,,,,,,,,243.4375577500032,243.53477241599467,244.32954554099703,244.31890754099004,,,,,,,,,,,,,,,,,,,,,,,,,,,,,,,,,,,244.3221850830014,244.32954554099703,244.32954554099703,244.94297587499025,r,1.0,0.6063940830063075,,,,,,sub-221,1,stroop_test,119.94374737839232,
,,,,43.0,7.0,3.0,,,,,,,,,,,,,gelb,yellow,g,1.0,g,1.0,0.4396725840051658,,,,,,,,,,3.0,7.0,43.0,11.0,244.96822312500444,,,,,,,,,,,,,,,,,244.94351700000695,245.0418775000144,245.8463500830112,245.83580000000077,,,,,,,,,,,,,,,,,,,,,,,,,,,,,,,,,,,245.839156416012,245.8463500830112,245.8463500830112,246.2981295410136,g,1.0,0.4396725840051658,,,,,,sub-221,1,stroop_test,119.94374737839232,
,,,,44.0,8.0,3.0,,,,,,,,,,,,,blau,blue,b,1.0,b,1.0,0.5242709169979207,,,,,,,,,,3.0,8.0,44.0,5.0,246.30349679099163,,,,,,,,,,,,,,,,,246.2985732910165,247.09225104100187,247.88730999999095,247.8757557499921,,,,,,,,,,,,,,,,,,,,,,,,,,,,,,,,,,,247.8792077079997,247.88730999999095,247.88730999999095,248.4210308750044,b,1.0,0.5242709169979207,,,,,,sub-221,1,stroop_test,119.94374737839232,
,,,,45.0,9.0,3.0,,,,,,,,,,,,,gelb,yellow,g,1.0,g,1.0,0.4962698330054991,,,,,,,,,,3.0,9.0,45.0,10.0,248.43039550000685,,,,,,,,,,,,,,,,,248.4214649159985,249.61871587499627,250.4148011250072,250.4025529579958,,,,,,,,,,,,,,,,,,,,,,,,,,,,,,,,,,,250.40723091599648,250.4148011250072,250.4148011250072,250.92028891600785,g,1.0,0.4962698330054991,,,,,,sub-221,1,stroop_test,119.94374737839232,
,,,,46.0,10.0,3.0,,,,,,,,,,,,,rot,blue,b,0.0,r,0.0,0.8044352919969242,,,,,,,,,,3.0,10.0,46.0,2.0,250.92948962500668,,,,,,,,,,,,,,,,,250.9207250000036,251.01871445801223,251.81410754099488,251.8028431250132,,,,,,,,,,,,,,,,,,,,,,,,,,,,,,,,,,,251.80665074998976,251.81410754099488,251.81410754099488,252.62095937499544,r,0.0,0.8044352919969242,,,,,,sub-221,1,stroop_test,119.94374737839232,
,,,,47.0,11.0,3.0,,,,,,,,,,,,,blau,yellow,g,0.0,g,1.0,0.8041331660060678,,,,,,,,,,3.0,11.0,47.0,7.0,252.63014975000988,,,,,,,,,,,,,,,,,252.62139712501084,253.41878070801613,254.2153064160084,254.20294200000356,,,,,,,,,,,,,,,,,,,,,,,,,,,,,,,,,,,254.20758379099425,254.2153064160084,254.2153064160084,255.02237991601575,g,1.0,0.8041331660060678,,,,,,sub-221,1,stroop_test,119.94374737839232,
,,,,48.0,0.0,4.0,,,,,,,,,,,,,blau,blue,b,1.0,b,1.0,0.6484848749823868,,,,,,,,,,4.0,0.0,48.0,5.0,255.0322077500168,,,,,,,,,,,,,,,,,255.02300308301344,255.8185364580131,256.6112398749974,256.60298150000744,,,,,,,,,,,,,,,,,,,,,,,,,,,,,,,,,,,256.603673708014,256.6112398749974,256.6112398749974,257.27068429099745,b,1.0,0.6484848749823868,,,,,,sub-221,1,stroop_test,119.94374737839232,
,,,,49.0,1.0,4.0,,,,,,,,,,,,,gelb,yellow,g,1.0,g,1.0,0.7581131250190083,,,,,,,,,,4.0,1.0,49.0,10.0,257.27972070800024,,,,,,,,,,,,,,,,,257.2711148330127,258.4690764580155,259.2646043749992,259.2528494159924,,,,,,,,,,,,,,,,,,,,,,,,,,,,,,,,,,,259.2573807500012,259.2646043749992,259.2646043749992,260.02692283299984,g,1.0,0.7581131250190083,,,,,,sub-221,1,stroop_test,119.94374737839232,
,,,,50.0,2.0,4.0,,,,,,,,,,,,,rot,red,r,1.0,r,1.0,0.4307087920024059,,,,,,,,,,4.0,2.0,50.0,1.0,260.05202008300694,,,,,,,,,,,,,,,,,260.0273420829908,260.8252920410014,261.6216090829985,261.60915870801546,,,,,,,,,,,,,,,,,,,,,,,,,,,,,,,,,,,261.6126670000085,261.6216090829985,261.6216090829985,262.05488641600823,r,1.0,0.4307087920024059,,,,,,sub-221,1,stroop_test,119.94374737839232,
,,,,51.0,3.0,4.0,,,,,,,,,,,,,gelb,yellow,g,1.0,g,1.0,0.7234962499933317,,,,,,,,,,4.0,3.0,51.0,11.0,262.06479983299505,,,,,,,,,,,,,,,,,262.05542820799747,263.2524109160004,264.0477187910001,264.0363739159948,,,,,,,,,,,,,,,,,,,,,,,,,,,,,,,,,,,264.0402535829926,264.0477187910001,264.0477187910001,264.7766508329951,g,1.0,0.7234962499933317,,,,,,sub-221,1,stroop_test,119.94374737839232,
,,,,52.0,4.0,4.0,,,,,,,,,,,,,gelb,blue,b,0.0,b,1.0,0.5251043750031386,,,,,,,,,,4.0,4.0,52.0,9.0,264.78549166599987,,,,,,,,,,,,,,,,,264.7770623750112,265.5755307500076,266.37803283301764,266.3698887079954,,,,,,,,,,,,,,,,,,,,,,,,,,,,,,,,,,,266.370529250009,266.37803283301764,266.37803283301764,266.91460491600446,b,1.0,0.5251043750031386,,,,,,sub-221,1,stroop_test,119.94374737839232,
,,,,53.0,5.0,4.0,,,,,,,,,,,,,gelb,red,r,0.0,r,1.0,0.9079117919900456,,,,,,,,,,4.0,5.0,53.0,8.0,266.9212038330152,,,,,,,,,,,,,,,,,266.915042291017,267.00921849999577,267.81105541600846,267.8031198749959,,,,,,,,,,,,,,,,,,,,,,,,,,,,,,,,,,,267.8037624580029,267.81105541600846,267.81105541600846,268.72140179100097,r,1.0,0.9079117919900456,,,,,,sub-221,1,stroop_test,119.94374737839232,
,,,,54.0,6.0,4.0,,,,,,,,,,,,,blau,blue,b,1.0,b,1.0,0.7662581670156214,,,,,,,,,,4.0,6.0,54.0,6.0,268.7306905410078,,,,,,,,,,,,,,,,,268.7218514159904,269.0690014580032,269.864999500016,269.8529770000023,,,,,,,,,,,,,,,,,,,,,,,,,,,,,,,,,,,269.8575649159902,269.864999500016,269.864999500016,270.6375035410165,b,1.0,0.7662581670156214,,,,,,sub-221,1,stroop_test,119.94374737839232,
,,,,55.0,7.0,4.0,,,,,,,,,,,,,rot,red,r,1.0,r,1.0,0.8809355410048738,,,,,,,,,,4.0,7.0,55.0,0.0,270.6467180410109,,,,,,,,,,,,,,,,,270.63794400001643,270.9855535000097,271.7807481659984,271.76951587499934,,,,,,,,,,,,,,,,,,,,,,,,,,,,,,,,,,,271.7733812080114,271.7807481659984,271.7807481659984,272.67156820799573,r,1.0,0.8809355410048738,,,,,,sub-221,1,stroop_test,119.94374737839232,
,,,,56.0,8.0,4.0,,,,,,,,,,,,,rot,yellow,g,0.0,g,1.0,1.0122218749893364,,,,,,,,,,4.0,8.0,56.0,3.0,272.680809625017,,,,,,,,,,,,,,,,,272.6720138330129,273.0193141250056,273.8115848329908,273.80351150000934,,,,,,,,,,,,,,,,,,,,,,,,,,,,,,,,,,,273.8042379580147,273.8115848329908,273.8115848329908,274.8278953749977,g,1.0,1.0122218749893364,,,,,,sub-221,1,stroop_test,119.94374737839232,
,,,,57.0,9.0,4.0,,,,,,,,,,,,,blau,red,r,0.0,r,1.0,1.3380802079918794,,,,,,,,,,4.0,9.0,57.0,4.0,274.8376957910077,,,,,,,,,,,,,,,,,274.8283220829908,275.6248975410126,276.4191621250065,276.4086597909918,,,,,,,,,,,,,,,,,,,,,,,,,,,,,,,,,,,276.4121894580021,276.4191621250065,276.4191621250065,277.7606497910165,r,1.0,1.3380802079918794,,,,,,sub-221,1,stroop_test,119.94374737839232,
,,,,58.0,10.0,4.0,,,,,,,,,,,,,blau,yellow,g,0.0,g,1.0,0.8074448749830481,,,,,,,,,,4.0,10.0,58.0,7.0,277.7856953330047,,,,,,,,,,,,,,,,,277.76110245799646,278.1093800830131,278.91233883300447,278.9042436660093,,,,,,,,,,,,,,,,,,,,,,,,,,,,,,,,,,,278.90497416601283,278.91233883300447,278.91233883300447,279.7302095830091,g,1.0,0.8074448749830481,,,,,,sub-221,1,stroop_test,119.94374737839232,
,,,,59.0,11.0,4.0,,,,,,,,,,,,,rot,blue,b,0.0,b,1.0,0.7466626249952242,,,,,,,,,,4.0,11.0,59.0,2.0,279.7350124999939,,,,,,,,,,,,,,,,,279.73060112498933,279.8364461250021,280.6315370830125,280.6200672080158,,,,,,,,,,,,,,,,,,,,,,,,,,,,,,,,,,,280.62407870800234,280.6315370830125,280.6315370830125,281.387807541003,b,1.0,0.7466626249952242,,,,,,sub-221,1,stroop_test,119.94374737839232,
,,,,60.0,0.0,5.0,,,,,,,,,,,,,rot,yellow,g,0.0,g,1.0,0.8616567919962108,,,,,,,,,,5.0,0.0,60.0,3.0,281.39709420799045,,,,,,,,,,,,,,,,,281.3882516660087,281.48615204100497,282.2778639580065,282.2700533750176,,,,,,,,,,,,,,,,,,,,,,,,,,,,,,,,,,,282.27069750000373,282.2778639580065,282.2778639580065,283.1443406250037,g,1.0,0.8616567919962108,,,,,,sub-221,1,stroop_test,119.94374737839232,
,,,,61.0,1.0,5.0,,,,,,,,,,,,,gelb,yellow,g,1.0,g,1.0,0.5837566670088563,,,,,,,,,,5.0,1.0,61.0,11.0,283.1548616249929,,,,,,,,,,,,,,,,,283.1447793330008,283.24244758300483,284.0524454580154,284.02536145801423,,,,,,,,,,,,,,,,,,,,,,,,,,,,,,,,,,,284.0292372080148,284.0524454580154,284.0524454580154,284.63862945800065,g,1.0,0.5837566670088563,,,,,,sub-221,1,stroop_test,119.94374737839232,
,,,,62.0,2.0,5.0,,,,,,,,,,,,,blau,blue,b,1.0,b,1.0,0.6330217920185532,,,,,,,,,,5.0,2.0,62.0,6.0,284.6477409579966,,,,,,,,,,,,,,,,,284.6390682909987,284.7362804579898,285.5322720409895,285.52017858301406,,,,,,,,,,,,,,,,,,,,,,,,,,,,,,,,,,,285.52471916601644,285.5322720409895,285.5322720409895,286.1711374160077,b,1.0,0.6330217920185532,,,,,,sub-221,1,stroop_test,119.94374737839232,
,,,,63.0,3.0,5.0,,,,,,,,,,,,,gelb,red,r,0.0,g,0.0,0.9553463750053196,,,,,,,,,,5.0,3.0,63.0,8.0,286.18010558301467,,,,,,,,,,,,,,,,,286.1715621660114,286.2680799580121,287.06558024999686,287.05367312501767,,,,,,,,,,,,,,,,,,,,,,,,,,,,,,,,,,,287.0580842499912,287.06558024999686,287.06558024999686,288.02757995799766,g,0.0,0.9553463750053196,,,,,,sub-221,1,stroop_test,119.94374737839232,
,,,,64.0,4.0,5.0,,,,,,,,,,,,,gelb,yellow,g,1.0,g,1.0,0.7086173339921515,,,,,,,,,,5.0,4.0,64.0,10.0,288.03863675001776,,,,,,,,,,,,,,,,,288.02812062500743,288.37640716601163,289.1780997500173,289.17024995799875,,,,,,,,,,,,,,,,,,,,,,,,,,,,,,,,,,,289.17094625000027,289.1780997500173,289.1780997500173,289.88923316600267,g,1.0,0.7086173339921515,,,,,,sub-221,1,stroop_test,119.94374737839232,
,,,,65.0,5.0,5.0,,,,,,,,,,,,,rot,blue,b,0.0,b,1.0,0.6906668749870732,,,,,,,,,,5.0,5.0,65.0,2.0,289.8985563330061,,,,,,,,,,,,,,,,,289.8896830829908,290.6863488329982,291.48268200000166,291.47019708299194,,,,,,,,,,,,,,,,,,,,,,,,,,,,,,,,,,,291.47482887501246,291.48268200000166,291.48268200000166,292.175609124999,b,1.0,0.6906668749870732,,,,,,sub-221,1,stroop_test,119.94374737839232,
,,,,66.0,6.0,5.0,,,,,,,,,,,,,blau,blue,b,1.0,b,1.0,0.6005034999980126,,,,,,,,,,5.0,6.0,66.0,5.0,292.18596883301507,,,,,,,,,,,,,,,,,292.1760286249919,292.9698056660127,293.76397145801457,293.7535734999983,,,,,,,,,,,,,,,,,,,,,,,,,,,,,,,,,,,293.7571028750099,293.76397145801457,293.76397145801457,294.37174495801446,b,1.0,0.6005034999980126,,,,,,sub-221,1,stroop_test,119.94374737839232,
,,,,67.0,7.0,5.0,,,,,,,,,,,,,rot,red,r,1.0,r,1.0,0.60889041700284,,,,,,,,,,5.0,7.0,67.0,1.0,294.38149095801055,,,,,,,,,,,,,,,,,294.3722197909956,295.56982216599863,296.36811262500123,296.3542208329891,,,,,,,,,,,,,,,,,,,,,,,,,,,,,,,,,,,296.3600390829961,296.36811262500123,296.36811262500123,296.98837141599506,r,1.0,0.60889041700284,,,,,,sub-221,1,stroop_test,119.94374737839232,
,,,,68.0,8.0,5.0,,,,,,,,,,,,,blau,red,r,0.0,r,1.0,0.5158485830179416,,,,,,,,,,5.0,8.0,68.0,4.0,296.99773791601183,,,,,,,,,,,,,,,,,296.98882216599304,297.7862893330166,298.5808176250139,298.57029350000084,,,,,,,,,,,,,,,,,,,,,,,,,,,,,,,,,,,298.5737329580006,298.5808176250139,298.5808176250139,299.1049538330117,r,1.0,0.5158485830179416,,,,,,sub-221,1,stroop_test,119.94374737839232,
,,,,69.0,9.0,5.0,,,,,,,,,,,,,gelb,blue,b,0.0,b,1.0,0.7933532499882858,,,,,,,,,,5.0,9.0,69.0,9.0,299.1143277079973,,,,,,,,,,,,,,,,,299.1054087500088,299.902954374993,300.69829583299,300.6870757500001,,,,,,,,,,,,,,,,,,,,,,,,,,,,,,,,,,,300.69097883300856,300.69829583299,300.69829583299,301.4946653750085,b,1.0,0.7933532499882858,,,,,,sub-221,1,stroop_test,119.94374737839232,
,,,,70.0,10.0,5.0,,,,,,,,,,,,,blau,yellow,g,0.0,g,1.0,0.7381639170052949,,,,,,,,,,5.0,10.0,70.0,7.0,301.51943254101207,,,,,,,,,,,,,,,,,301.49509945799946,302.6935503749992,303.4982926660159,303.48703379099607,,,,,,,,,,,,,,,,,,,,,,,,,,,,,,,,,,,303.4909127909923,303.4982926660159,303.4982926660159,304.23909874999663,g,1.0,0.7381639170052949,,,,,,sub-221,1,stroop_test,119.94374737839232,
,,,,71.0,11.0,5.0,,,,,,,,,,,,,rot,red,r,1.0,r,1.0,0.8771664579981007,,,,,,,,,,5.0,11.0,71.0,0.0,304.2487690830021,,,,,,,,,,,,,,,,,304.23965291600325,305.43675424999674,306.2318300830084,306.2205761660007,,,,,,,,,,,,,,,,,,,,,,,,,,,,,,,,,,,306.224435540993,306.2318300830084,306.2318300830084,307.1126923330012,r,1.0,0.8771664579981007,,,,,,sub-221,1,stroop_test,119.94374737839232,
,,,,72.0,0.0,6.0,,,,,,,,,,,,,rot,blue,b,0.0,b,1.0,0.9152572920138482,,,,,,,,,,6.0,0.0,72.0,2.0,307.1225065829931,,,,,,,,,,,,,,,,,307.1132585000014,308.3106271249999,309.1120621250011,309.1040890410077,,,,,,,,,,,,,,,,,,,,,,,,,,,,,,,,,,,309.10474216600414,309.1120621250011,309.1120621250011,310.03850208301446,b,1.0,0.9152572920138482,,,,,,sub-221,1,stroop_test,119.94374737839232,
,,,,73.0,1.0,6.0,,,,,,,,,,,,,blau,red,r,0.0,r,1.0,0.8131914580008015,,,,,,,,,,6.0,1.0,73.0,4.0,310.0474987080088,,,,,,,,,,,,,,,,,310.0389430409996,310.8363897080126,311.6329798329971,311.62074370801565,,,,,,,,,,,,,,,,,,,,,,,,,,,,,,,,,,,311.62534741600393,311.6329798329971,311.6329798329971,312.4551203750016,r,1.0,0.8131914580008015,,,,,,sub-221,1,stroop_test,119.94374737839232,
,,,,74.0,2.0,6.0,,,,,,,,,,,,,gelb,blue,b,0.0,b,1.0,0.6744051669957116,,,,,,,,,,6.0,2.0,74.0,9.0,312.4644541660091,,,,,,,,,,,,,,,,,312.45562895800686,313.25352812500205,314.048591416009,314.0373434580106,,,,,,,,,,,,,,,,,,,,,,,,,,,,,,,,,,,314.0412719160085,314.048591416009,314.048591416009,314.72773270800826,b,1.0,0.6744051669957116,,,,,,sub-221,1,stroop_test,119.94374737839232,
,,,,75.0,3.0,6.0,,,,,,,,,,,,,gelb,red,r,0.0,r,1.0,1.031960791995516,,,,,,,,,,6.0,3.0,75.0,8.0,314.7365707080171,,,,,,,,,,,,,,,,,314.72815329101286,315.0770829160174,315.8785246660118,315.8707776250085,,,,,,,,,,,,,,,,,,,,,,,,,,,,,,,,,,,315.87143829101115,315.8785246660118,315.8785246660118,316.9217235830147,r,1.0,1.031960791995516,,,,,,sub-221,1,stroop_test,119.94374737839232,
,,,,76.0,4.0,6.0,,,,,,,,,,,,,gelb,yellow,g,1.0,g,1.0,0.3495014579966664,,,,,,,,,,6.0,4.0,76.0,11.0,316.93093220799346,,,,,,,,,,,,,,,,,316.9221676659945,317.7203122909996,318.51226570800645,318.5039778329956,,,,,,,,,,,,,,,,,,,,,,,,,,,,,,,,,,,318.5046284160053,318.51226570800645,318.51226570800645,318.8725160830072,g,1.0,0.3495014579966664,,,,,,sub-221,1,stroop_test,119.94374737839232,
,,,,77.0,5.0,6.0,,,,,,,,,,,,,rot,red,r,1.0,r,1.0,0.9407661670120432,,,,,,,,,,6.0,5.0,77.0,0.0,318.8818044580112,,,,,,,,,,,,,,,,,318.8729663749982,318.9703533330176,319.7658523750142,319.7540240829985,,,,,,,,,,,,,,,,,,,,,,,,,,,,,,,,,,,319.7581837910111,319.7658523750142,319.7658523750142,320.71128849999513,r,1.0,0.9407661670120432,,,,,,sub-221,1,stroop_test,119.94374737839232,
,,,,78.0,6.0,6.0,,,,,,,,,,,,,blau,yellow,g,0.0,g,1.0,0.78333358297823,,,,,,,,,,6.0,6.0,78.0,7.0,320.72054149999167,,,,,,,,,,,,,,,,,320.7117073330155,321.9101591660001,322.7199637909944,322.69328458301607,,,,,,,,,,,,,,,,,,,,,,,,,,,,,,,,,,,322.6968327909999,322.7199637909944,322.7199637909944,323.50594387500314,g,1.0,0.78333358297823,,,,,,sub-221,1,stroop_test,119.94374737839232,
,,,,79.0,7.0,6.0,,,,,,,,,,,,,gelb,yellow,g,1.0,g,1.0,0.6614179169991985,,,,,,,,,,6.0,7.0,79.0,10.0,323.5153328750166,,,,,,,,,,,,,,,,,323.5063810000138,324.70375391599373,325.4993328330165,325.4877112079994,,,,,,,,,,,,,,,,,,,,,,,,,,,,,,,,,,,325.4918520000065,325.4993328330165,325.4993328330165,326.1633051249956,g,1.0,0.6614179169991985,,,,,,sub-221,1,stroop_test,119.94374737839232,
,,,,80.0,8.0,6.0,,,,,,,,,,,,,blau,blue,b,1.0,b,1.0,0.4717117079999298,,,,,,,,,,6.0,8.0,80.0,5.0,326.17277266600286,,,,,,,,,,,,,,,,,326.1638594160031,326.96055770799285,327.766783708008,327.75473816599697,,,,,,,,,,,,,,,,,,,,,,,,,,,,,,,,,,,327.75929708301555,327.766783708008,327.766783708008,328.2460404160083,b,1.0,0.4717117079999298,,,,,,sub-221,1,stroop_test,119.94374737839232,
,,,,81.0,9.0,6.0,,,,,,,,,,,,,blau,blue,b,1.0,b,1.0,0.7756437920033932,,,,,,,,,,6.0,9.0,81.0,6.0,328.2557686250075,,,,,,,,,,,,,,,,,328.2465864580008,329.04368891599006,329.8453474580019,329.8377780409937,,,,,,,,,,,,,,,,,,,,,,,,,,,,,,,,,,,329.8384302080085,329.8453474580019,329.8453474580019,330.6338476660021,b,1.0,0.7756437920033932,,,,,,sub-221,1,stroop_test,119.94374737839232,
,,,,82.0,10.0,6.0,,,,,,,,,,,,,rot,red,r,1.0,r,1.0,0.6652953750162851,,,,,,,,,,6.0,10.0,82.0,1.0,330.638698499999,,,,,,,,,,,,,,,,,330.6342916249996,331.8269220830116,332.62265908299014,332.61098575001233,,,,,,,,,,,,,,,,,,,,,,,,,,,,,,,,,,,332.61475904099643,332.62265908299014,332.62265908299014,333.29520833300194,r,1.0,0.6652953750162851,,,,,,sub-221,1,stroop_test,119.94374737839232,
,,,,83.0,11.0,6.0,,,,,,,,,,,,,rot,yellow,g,0.0,g,1.0,0.9521275000006426,,,,,,,,,,6.0,11.0,83.0,3.0,333.3202514160075,,,,,,,,,,,,,,,,,333.29565062499023,333.3937874159892,334.195799832989,334.18793395799,,,,,,,,,,,,,,,,,,,,,,,,,,,,,,,,,,,334.1885769999936,334.195799832989,334.195799832989,335.156238208001,g,1.0,0.9521275000006426,,,,,,sub-221,1,stroop_test,119.94374737839232,
,,,,84.0,0.0,7.0,,,,,,,,,,,,,blau,yellow,g,0.0,g,1.0,1.2759950420004316,,,,,,,,,,7.0,0.0,84.0,7.0,335.1658047910023,,,,,,,,,,,,,,,,,335.156778915989,335.2541598750104,336.0488145830168,336.0379713329894,,,,,,,,,,,,,,,,,,,,,,,,,,,,,,,,,,,336.0417217909999,336.0488145830168,336.0488145830168,337.32946300000185,g,1.0,1.2759950420004316,,,,,,sub-221,1,stroop_test,119.94374737839232,
,,,,85.0,1.0,7.0,,,,,,,,,,,,,blau,blue,b,1.0,b,1.0,0.503540375008015,,,,,,,,,,7.0,1.0,85.0,5.0,337.3392889999959,,,,,,,,,,,,,,,,,337.3300169580034,337.4276083330042,338.22012208300293,338.2106738750008,,,,,,,,,,,,,,,,,,,,,,,,,,,,,,,,,,,338.2113549160131,338.22012208300293,338.22012208300293,338.72805629100185,b,1.0,0.503540375008015,,,,,,sub-221,1,stroop_test,119.94374737839232,
,,,,86.0,2.0,7.0,,,,,,,,,,,,,blau,red,r,0.0,r,1.0,1.0509397910209373,,,,,,,,,,7.0,2.0,86.0,4.0,338.7368072910176,,,,,,,,,,,,,,,,,338.72848145800526,339.9273552079976,340.7290495829948,340.7213085000112,,,,,,,,,,,,,,,,,,,,,,,,,,,,,,,,,,,340.7219454580045,340.7290495829948,340.7290495829948,341.78959666599985,r,1.0,1.0509397910209373,,,,,,sub-221,1,stroop_test,119.94374737839232,
,,,,87.0,3.0,7.0,,,,,,,,,,,,,rot,blue,b,0.0,b,1.0,1.1722276670043357,,,,,,,,,,7.0,3.0,87.0,2.0,341.7989414999902,,,,,,,,,,,,,,,,,341.79017125000246,341.88761129099294,342.68258354099817,342.67134912501206,,,,,,,,,,,,,,,,,,,,,,,,,,,,,,,,,,,342.67526770799304,342.68258354099817,342.68258354099817,343.8674057080061,b,1.0,1.1722276670043357,,,,,,sub-221,1,stroop_test,119.94374737839232,
,,,,88.0,4.0,7.0,,,,,,,,,,,,,gelb,red,r,0.0,r,1.0,1.041308542015031,,,,,,,,,,7.0,4.0,88.0,8.0,343.87257979100104,,,,,,,,,,,,,,,,,343.8678388330154,344.21064233299694,345.0069421250082,344.994591708004,,,,,,,,,,,,,,,,,,,,,,,,,,,,,,,,,,,344.99823637501686,345.0069421250082,345.0069421250082,346.05609825000283,r,1.0,1.041308542015031,,,,,,sub-221,1,stroop_test,119.94374737839232,
,,,,89.0,5.0,7.0,,,,,,,,,,,,,gelb,yellow,g,1.0,g,1.0,0.4433802920102607,,,,,,,,,,7.0,5.0,89.0,11.0,346.06583149998914,,,,,,,,,,,,,,,,,346.0566405830032,346.85432116599986,347.64679816600983,347.6384694580047,,,,,,,,,,,,,,,,,,,,,,,,,,,,,,,,,,,347.639183583,347.64679816600983,347.64679816600983,348.09554654100793,g,1.0,0.4433802920102607,,,,,,sub-221,1,stroop_test,119.94374737839232,
,,,,90.0,6.0,7.0,,,,,,,,,,,,,gelb,blue,b,0.0,b,1.0,0.9771461249911226,,,,,,,,,,7.0,6.0,90.0,9.0,348.1204864580068,,,,,,,,,,,,,,,,,348.095979833015,348.8943358329998,349.6963539159915,349.6881607079995,,,,,,,,,,,,,,,,,,,,,,,,,,,,,,,,,,,349.68883054101025,349.6963539159915,349.6963539159915,350.6774226659909,b,1.0,0.9771461249911226,,,,,,sub-221,1,stroop_test,119.94374737839232,
,,,,91.0,7.0,7.0,,,,,,,,,,,,,gelb,yellow,g,1.0,g,1.0,0.6097386670007836,,,,,,,,,,7.0,7.0,91.0,10.0,350.6866151659924,,,,,,,,,,,,,,,,,350.6778363749909,351.87750800000504,352.67048841601354,352.6614370000025,,,,,,,,,,,,,,,,,,,,,,,,,,,,,,,,,,,352.662110166013,352.67048841601354,352.67048841601354,353.28999591601314,g,1.0,0.6097386670007836,,,,,,sub-221,1,stroop_test,119.94374737839232,
,,,,92.0,8.0,7.0,,,,,,,,,,,,,rot,yellow,g,0.0,g,1.0,0.8927354170009494,,,,,,,,,,7.0,8.0,92.0,3.0,353.2995563750155,,,,,,,,,,,,,,,,,353.29055141599383,353.6377368750109,354.43377041601343,354.42180766598904,,,,,,,,,,,,,,,,,,,,,,,,,,,,,,,,,,,354.42617337501724,354.43377041601343,354.43377041601343,355.328893916012,g,1.0,0.8927354170009494,,,,,,sub-221,1,stroop_test,119.94374737839232,
,,,,93.0,9.0,7.0,,,,,,,,,,,,,blau,blue,b,1.0,b,1.0,0.9581104159879033,,,,,,,,,,7.0,9.0,93.0,6.0,355.3540647499904,,,,,,,,,,,,,,,,,355.3293172080012,356.5277116660145,357.3323340410134,357.3218322500179,,,,,,,,,,,,,,,,,,,,,,,,,,,,,,,,,,,357.3251309579937,357.3323340410134,357.3323340410134,358.29564024999854,b,1.0,0.9581104159879033,,,,,,sub-221,1,stroop_test,119.94374737839232,
,,,,94.0,10.0,7.0,,,,,,,,,,,,,rot,red,r,1.0,r,1.0,1.211056792002637,,,,,,,,,,7.0,10.0,94.0,1.0,358.3207460830163,,,,,,,,,,,,,,,,,358.2961580000119,358.6442585409968,359.43968012501136,359.428153957997,,,,,,,,,,,,,,,,,,,,,,,,,,,,,,,,,,,359.4315237500123,359.43968012501136,359.43968012501136,360.6569030410028,r,1.0,1.211056792002637,,,,,,sub-221,1,stroop_test,119.94374737839232,
,,,,95.0,11.0,7.0,,,,,,,,,,,,,rot,red,r,1.0,r,1.0,0.5945294590201229,,,,,,,,,,7.0,11.0,95.0,0.0,360.6663203749922,,,,,,,,,,,,,,,,,360.6574462910066,360.7546480410092,361.5457565410179,361.5381352909899,,,,,,,,,,,,,,,,,,,,,,,,,,,,,,,,,,,361.5388049999892,361.5457565410179,361.5457565410179,362.14461820799625,r,1.0,0.5945294590201229,,,,,,sub-221,1,stroop_test,119.94374737839232,
,,,,96.0,0.0,8.0,,,,,,,,,,,,,blau,blue,b,1.0,b,1.0,0.5554949590004981,,,,,,,,,,8.0,0.0,96.0,5.0,362.1540271250124,,,,,,,,,,,,,,,,,362.14504920798936,362.4876291250112,363.28227970801527,363.2715925830125,,,,,,,,,,,,,,,,,,,,,,,,,,,,,,,,,,,363.2749328750069,363.28227970801527,363.28227970801527,363.84031891601626,b,1.0,0.5554949590004981,,,,,,sub-221,1,stroop_test,119.94374737839232,
,,,,97.0,1.0,8.0,,,,,,,,,,,,,blau,yellow,g,0.0,g,1.0,1.1828993340022862,,,,,,,,,,8.0,1.0,97.0,7.0,363.8494745409989,,,,,,,,,,,,,,,,,363.8408527499996,365.03797725000186,365.8300363330054,365.82198695800616,,,,,,,,,,,,,,,,,,,,,,,,,,,,,,,,,,,365.822634665994,365.8300363330054,365.8300363330054,367.0233778330148,g,1.0,1.1828993340022862,,,,,,sub-221,1,stroop_test,119.94374737839232,
,,,,98.0,2.0,8.0,,,,,,,,,,,,,blau,red,r,0.0,r,1.0,0.610987332998775,,,,,,,,,,8.0,2.0,98.0,4.0,367.0327347500133,,,,,,,,,,,,,,,,,367.0239166250103,368.2210588330054,369.0135966660164,369.0053810410027,,,,,,,,,,,,,,,,,,,,,,,,,,,,,,,,,,,369.00603700001375,369.0135966660164,369.0135966660164,369.629423041013,r,1.0,0.610987332998775,,,,,,sub-221,1,stroop_test,119.94374737839232,
,,,,99.0,3.0,8.0,,,,,,,,,,,,,gelb,blue,b,0.0,b,1.0,1.0704618339950684,,,,,,,,,,8.0,3.0,99.0,9.0,369.6399717500026,,,,,,,,,,,,,,,,,369.6299660000077,369.9786551659927,370.773153999995,370.7619845409936,,,,,,,,,,,,,,,,,,,,,,,,,,,,,,,,,,,370.76572191601736,370.773153999995,370.773153999995,371.8458968329942,b,1.0,1.0704618339950684,,,,,,sub-221,1,stroop_test,119.94374737839232,
,,,,100.0,4.0,8.0,,,,,,,,,,,,,blau,blue,b,1.0,b,1.0,0.5230504590144847,,,,,,,,,,8.0,4.0,100.0,6.0,371.8709485,,,,,,,,,,,,,,,,,371.8463424160145,373.04429562500445,373.854451791005,373.8275155829906,,,,,,,,,,,,,,,,,,,,,,,,,,,,,,,,,,,373.8314271660056,373.854451791005,373.854451791005,374.3801721660129,b,1.0,0.5230504590144847,,,,,,sub-221,1,stroop_test,119.94374737839232,
,,,,101.0,5.0,8.0,,,,,,,,,,,,,rot,blue,b,0.0,b,1.0,0.4309669170179404,,,,,,,,,,8.0,5.0,101.0,2.0,374.3899340000062,,,,,,,,,,,,,,,,,374.3806137909996,374.4785071249935,375.2738614160044,375.2621600830171,,,,,,,,,,,,,,,,,,,,,,,,,,,,,,,,,,,375.2659025000176,375.2738614160044,375.2738614160044,375.7073103750008,b,1.0,0.4309669170179404,,,,,,sub-221,1,stroop_test,119.94374737839232,
,,,,102.0,6.0,8.0,,,,,,,,,,,,,gelb,yellow,g,1.0,g,1.0,0.6276080000097863,,,,,,,,,,8.0,6.0,102.0,10.0,375.7166452080128,,,,,,,,,,,,,,,,,375.7077642079967,375.80461316599394,376.5998422499979,376.5888991249958,,,,,,,,,,,,,,,,,,,,,,,,,,,,,,,,,,,376.5924698330055,376.5998422499979,376.5998422499979,377.2297183329938,g,1.0,0.6276080000097863,,,,,,sub-221,1,stroop_test,119.94374737839232,
,,,,103.0,7.0,8.0,,,,,,,,,,,,,rot,red,r,1.0,r,1.0,0.3502874170080758,,,,,,,,,,8.0,7.0,103.0,0.0,377.2544429159898,,,,,,,,,,,,,,,,,377.2301478750014,377.3274261250044,378.12175849999767,378.11087870801566,,,,,,,,,,,,,,,,,,,,,,,,,,,,,,,,,,,378.1143466659996,378.12175849999767,378.12175849999767,378.474673040997,r,1.0,0.3502874170080758,,,,,,sub-221,1,stroop_test,119.94374737839232,
,,,,104.0,8.0,8.0,,,,,,,,,,,,,rot,yellow,g,0.0,g,1.0,0.4710724169854074,,,,,,,,,,8.0,8.0,104.0,3.0,378.48384166599135,,,,,,,,,,,,,,,,,378.4751097080007,378.82158304098994,379.6135623329901,379.6054020000156,,,,,,,,,,,,,,,,,,,,,,,,,,,,,,,,,,,379.6061172909976,379.6135623329901,379.6135623329901,380.0902650830103,g,1.0,0.4710724169854074,,,,,,sub-221,1,stroop_test,119.94374737839232,
,,,,105.0,9.0,8.0,,,,,,,,,,,,,gelb,yellow,g,1.0,g,1.0,0.5734303749923129,,,,,,,,,,8.0,9.0,105.0,11.0,380.09986195800593,,,,,,,,,,,,,,,,,380.0908145410067,380.1882802080072,380.9835288329923,380.9722686659952,,,,,,,,,,,,,,,,,,,,,,,,,,,,,,,,,,,380.9762014159933,380.9835288329923,380.9835288329923,381.56305691599846,g,1.0,0.5734303749923129,,,,,,sub-221,1,stroop_test,119.94374737839232,
,,,,106.0,10.0,8.0,,,,,,,,,,,,,gelb,red,r,0.0,b,0.0,0.5240556669887155,,,,,,,,,,8.0,10.0,106.0,8.0,381.5741134580167,,,,,,,,,,,,,,,,,381.563498375006,381.9119603750005,382.7137953749916,382.7056928749953,,,,,,,,,,,,,,,,,,,,,,,,,,,,,,,,,,,382.7063467499975,382.7137953749916,382.7137953749916,383.2401383329998,b,0.0,0.5240556669887155,,,,,,sub-221,1,stroop_test,119.94374737839232,
,,,,107.0,11.0,8.0,,,,,,,,,,,,,rot,red,r,1.0,r,1.0,0.9120182500046212,,,,,,,,,,8.0,11.0,107.0,1.0,383.2495608330064,,,,,,,,,,,,,,,,,383.2405857080012,383.58831791600096,384.38502620800864,384.3724084160058,,,,,,,,,,,,,,,,,,,,,,,,,,,,,,,,,,,384.3774439159897,384.38502620800864,384.38502620800864,385.30695662499056,r,1.0,0.9120182500046212,,,,,,sub-221,1,stroop_test,119.94374737839232,
,,,,108.0,0.0,9.0,,,,,,,,,,,,,blau,blue,b,1.0,b,1.0,0.6216292500030249,,,,,,,,,,9.0,0.0,108.0,5.0,385.3164853749913,,,,,,,,,,,,,,,,,385.3075132910162,385.404980916006,386.1999707079958,386.189138457994,,,,,,,,,,,,,,,,,,,,,,,,,,,,,,,,,,,386.19274425000185,386.1999707079958,386.1999707079958,386.8240355000016,b,1.0,0.6216292500030249,,,,,,sub-221,1,stroop_test,119.94374737839232,
,,,,109.0,1.0,9.0,,,,,,,,,,,,,gelb,yellow,g,1.0,g,1.0,0.6838874579989351,,,,,,,,,,9.0,1.0,109.0,10.0,386.8334760410071,,,,,,,,,,,,,,,,,386.8244839580148,386.921678957995,387.7164735830156,387.70571695800754,,,,,,,,,,,,,,,,,,,,,,,,,,,,,,,,,,,387.7096632500179,387.7164735830156,387.7164735830156,388.4066194159968,g,1.0,0.6838874579989351,,,,,,sub-221,1,stroop_test,119.94374737839232,
,,,,110.0,2.0,9.0,,,,,,,,,,,,,rot,red,r,1.0,r,1.0,0.8833206669951323,,,,,,,,,,9.0,2.0,110.0,1.0,388.4157793330087,,,,,,,,,,,,,,,,,388.407065041014,389.6052705000038,390.40231179099646,390.3896013330086,,,,,,,,,,,,,,,,,,,,,,,,,,,,,,,,,,,390.39447649999056,390.40231179099646,390.40231179099646,391.29096520799794,r,1.0,0.8833206669951323,,,,,,sub-221,1,stroop_test,119.94374737839232,
,,,,111.0,3.0,9.0,,,,,,,,,,,,,rot,yellow,g,0.0,g,1.0,0.842672082973877,,,,,,,,,,9.0,3.0,111.0,3.0,391.3003137499909,,,,,,,,,,,,,,,,,391.2914119999914,392.0885757500073,392.8805761249969,392.872460625018,,,,,,,,,,,,,,,,,,,,,,,,,,,,,,,,,,,392.8730967910087,392.8805761249969,392.8805761249969,393.729238083004,g,1.0,0.842672082973877,,,,,,sub-221,1,stroop_test,119.94374737839232,
,,,,112.0,4.0,9.0,,,,,,,,,,,,,gelb,yellow,g,1.0,g,1.0,0.5553485839918721,,,,,,,,,,9.0,4.0,112.0,11.0,393.73823304098914,,,,,,,,,,,,,,,,,393.7296627080068,394.9285547499894,395.73335358299664,395.72249754099175,,,,,,,,,,,,,,,,,,,,,,,,,,,,,,,,,,,395.7260926660092,395.73335358299664,395.73335358299664,396.29158820799785,g,1.0,0.5553485839918721,,,,,,sub-221,1,stroop_test,119.94374737839232,
,,,,113.0,5.0,9.0,,,,,,,,,,,,,gelb,red,r,0.0,r,1.0,1.1411993330111727,,,,,,,,,,9.0,5.0,113.0,8.0,396.3012581249932,,,,,,,,,,,,,,,,,396.2921680000145,396.6385684580018,397.43054108301294,397.4224405830028,,,,,,,,,,,,,,,,,,,,,,,,,,,,,,,,,,,397.42309966598987,397.43054108301294,397.43054108301294,398.5744170830003,r,1.0,1.1411993330111727,,,,,,sub-221,1,stroop_test,119.94374737839232,
,,,,114.0,6.0,9.0,,,,,,,,,,,,,rot,blue,b,0.0,b,1.0,0.3576449170068372,,,,,,,,,,9.0,6.0,114.0,2.0,398.58475237499806,,,,,,,,,,,,,,,,,398.57513620800455,399.7720087500056,400.5670290830021,400.55594816600205,,,,,,,,,,,,,,,,,,,,,,,,,,,,,,,,,,,400.55963987499126,400.5670290830021,400.5670290830021,400.9298507079948,b,1.0,0.3576449170068372,,,,,,sub-221,1,stroop_test,119.94374737839232,
,,,,115.0,7.0,9.0,,,,,,,,,,,,,blau,red,r,0.0,r,1.0,1.0321944590250496,,,,,,,,,,9.0,7.0,115.0,4.0,400.9390132499975,,,,,,,,,,,,,,,,,400.9302807080094,401.2785363750008,402.07468462499673,402.0625955830037,,,,,,,,,,,,,,,,,,,,,,,,,,,,,,,,,,,402.0668254159973,402.07468462499673,402.07468462499673,403.1131846249919,r,1.0,1.0321944590250496,,,,,,sub-221,1,stroop_test,119.94374737839232,
,,,,116.0,8.0,9.0,,,,,,,,,,,,,gelb,blue,b,0.0,b,1.0,0.7857440419902559,,,,,,,,,,9.0,8.0,116.0,9.0,403.1384314580064,,,,,,,,,,,,,,,,,403.11372487500194,404.3125522909977,405.1163613749959,405.1061829160026,,,,,,,,,,,,,,,,,,,,,,,,,,,,,,,,,,,405.1094057910086,405.1163613749959,405.1163613749959,405.9076128329907,b,1.0,0.7857440419902559,,,,,,sub-221,1,stroop_test,119.94374737839232,
,,,,117.0,9.0,9.0,,,,,,,,,,,,,blau,blue,b,1.0,b,1.0,0.4814817080041393,,,,,,,,,,9.0,9.0,117.0,6.0,405.9168207499897,,,,,,,,,,,,,,,,,405.9080685410008,406.0057240000169,406.80176450000727,406.7893764580076,,,,,,,,,,,,,,,,,,,,,,,,,,,,,,,,,,,406.7941637499898,406.80176450000727,406.80176450000727,407.2905153330066,b,1.0,0.4814817080041393,,,,,,sub-221,1,stroop_test,119.94374737839232,
,,,,118.0,10.0,9.0,,,,,,,,,,,,,blau,yellow,g,0.0,g,1.0,0.8183490000083111,,,,,,,,,,9.0,10.0,118.0,7.0,407.29989916601335,,,,,,,,,,,,,,,,,407.2909717079892,408.4890580410138,409.279822875018,409.2726647079981,,,,,,,,,,,,,,,,,,,,,,,,,,,,,,,,,,,409.2733388330089,409.279822875018,409.279822875018,410.1075299580116,g,1.0,0.8183490000083111,,,,,,sub-221,1,stroop_test,119.94374737839232,
,,,,119.0,11.0,9.0,,,,,,,,,,,,,rot,red,r,1.0,r,1.0,0.5731699590105563,,,,,,,,,,9.0,11.0,119.0,0.0,410.1171852080152,,,,,,,,,,,,,,,,,410.1079919580079,411.3055247500015,412.1003535409982,412.0897177080042,,,,,,,,,,,,,,,,,,,,,,,,,,,,,,,,,,,412.0930280410103,412.1003535409982,412.1003535409982,412.6802095409949,r,1.0,0.5731699590105563,,,,,,sub-221,1,stroop_test,119.94374737839232,
,,,,,,,,,,,,,,,,,,,,,,,,,,,,,,,,,,,,,,,,,,,,,,,,,,,,,,,,,,,,,,,,,,,,,,,,,,,,,,,,,,,,,,,,,,,,,,,,,,,,,,412.6804127499927,412.6912854159891,417.6892959999968,417.678395875002,sub-221,1,stroop_test,119.94374737839232,
