direction,corrAns,randomInstr,practice_trials.thisRepN,practice_trials.thisTrialN,practice_trials.thisN,practice_trials.thisIndex,instr_trials.thisRepN,instr_trials.thisTrialN,instr_trials.thisN,instr_trials.thisIndex,test_trials.thisRepN,test_trials.thisTrialN,test_trials.thisN,test_trials.thisIndex,thisRow.t,notes,general_instruction.started,textGeneralInstr.started,respGeneralInstr.started,general_instruction.stopped,respGeneralInstr.keys,respGeneralInstr.rt,respGeneralInstr.duration,ITI.started,fixcross.started,fixcross.stopped,ITI.stopped,dots.started,backgroundDots.started,stimulusDots.started,respDots.started,stimulusDots.stopped,dots.stopped,respDots.keys,respDots.corr,respDots.rt,respDots.duration,feedback.started,textFeedback.started,textFeedback.stopped,feedback.stopped,info.started,textInfo.started,keyRespInfo.started,info.stopped,keyRespInfo.keys,keyRespInfo.rt,keyRespInfo.duration,test_instruction.started,textTestInstr.started,respTestInstr.started,test_instruction.stopped,respTestInstr.keys,respTestInstr.rt,respTestInstr.duration,random_instruction.started,textRandomInstr.started,respRandomInstr.started,random_instruction.stopped,respRandomInstr.keys,respRandomInstr.rt,respRandomInstr.duration,goodbye.started,textGoodbye.started,goodbye.stopped,participant,session,expName,frameRate,Unnamed: 73
,,,,,,,,,,,,,,,,,0.0054412998724728,0.0105814000125974,0.0105814000125974,32.14346589986235,space,48.16944320034236,,,,,,,,,,,,,,,,,,,,,,,,,,,,,,,,,,,,,,,,,,,,sub-186,1.0,random_dot,59.86808664311518,
left,left,,0.0,0.0,0.0,0.0,,,,,,,,,32.15996930003166,,,,,,,,,32.15551419998519,32.25830619991757,33.05847249994986,33.04166129999794,33.041681999806315,33.05847249994986,33.05847249994986,33.05847249994986,38.055341499857605,40.20508300000802,right,0.0,23.1819424002897,,40.20587049983442,40.219831299968064,40.71950599993579,40.70354969985783,,,,,,,,,,,,,,,,,,,,,,,,,sub-186,1.0,random_dot,59.86808664311518,
right,right,,0.0,1.0,1.0,1.0,,,,,,,,,40.71950599993579,,,,,,,,,40.70395269989967,41.5192495000083,42.31948139984161,42.30254149995744,42.302564800018445,42.31948139984161,42.31948139984161,42.31948139984161,,44.33626959985122,left,0.0,18.05272310017608,,44.33690839982592,44.35073779989034,44.85039209993556,44.83453909982927,,,,,,,,,,,,,,,,,,,,,,,,,sub-186,1.0,random_dot,59.86808664311518,
left,left,,1.0,0.0,2.0,0.0,,,,,,,,,44.85039209993556,,,,,,,,,44.83499150001444,46.04961239988916,46.85004359995946,46.83308779983781,46.83310980000533,46.85004359995946,46.85004359995946,46.85004359995946,,47.70080659980886,right,0.0,16.878456000238657,,47.70144209987484,47.71550129982643,48.21493359981105,48.199005499947816,,,,,,,,,,,,,,,,,,,,,,,,,sub-186,1.0,random_dot,59.86808664311518,
right,right,,1.0,1.0,3.0,1.0,,,,,,,,,48.21493359981105,,,,,,,,,48.19945229985751,49.01447089994326,49.81496530002914,49.79811099986546,49.79813649994321,49.81496530002914,49.81496530002914,49.81496530002914,,50.915475599933416,right,1.0,17.1270978001412,,50.91620199987665,50.930090699810535,51.42958809994161,51.41366439987905,,,,,,,,,,,,,,,,,,,,,,,,,sub-186,1.0,random_dot,59.86808664311518,
left,left,,2.0,0.0,4.0,0.0,,,,,,,,,51.42958809994161,,,,,,,,,51.41409579990432,52.229171299841255,53.0296833999455,53.01276919990778,53.01278639980592,53.0296833999455,53.0296833999455,53.0296833999455,,54.64649249985814,right,0.0,17.642554900143296,,54.64710669987835,54.66104059992358,55.160959699889645,55.14484669989906,,,,,,,,,,,,,,,,,,,,,,,,,sub-186,1.0,random_dot,59.86808664311518,
right,right,,2.0,1.0,5.0,1.0,,,,,,,,,55.160959699889645,,,,,,,,,55.14523179992102,55.510664799949154,56.310915199806914,56.29398959991522,56.29400989995338,56.310915199806914,56.310915199806914,56.310915199806914,,58.91028239997104,right,1.0,18.63721890002489,,58.91077299998142,58.9253586998675,59.42471089982428,59.40884619997814,,,,,,,,,,,,,,,,,,,,,,,,,sub-186,1.0,random_dot,59.86808664311518,
right,right,,3.0,0.0,6.0,1.0,,,,,,,,,59.42471089982428,,,,,,,,,59.40924669988453,59.52478039986454,60.3251128999982,60.3082130998373,60.308234999887645,60.3251128999982,60.3251128999982,60.3251128999982,,61.32582809985615,left,0.0,17.03281220025383,,61.3264664998278,61.34025529981591,61.83991129999049,61.82397069991566,,,,,,,,,,,,,,,,,,,,,,,,,sub-186,1.0,random_dot,59.86808664311518,
left,left,,3.0,1.0,7.0,0.0,,,,,,,,,61.83991129999049,,,,,,,,,61.82441979995929,62.18978409981355,62.9901344999671,62.973324599908665,62.97334969998337,62.9901344999671,62.9901344999671,62.9901344999671,,64.57389669981785,left,1.0,17.624582400312647,,64.57463019993156,64.58848709985614,65.08803939982317,65.07198360003531,,,,,,,,,,,,,,,,,,,,,,,,,sub-186,1.0,random_dot,59.86808664311518,
right,right,,4.0,0.0,8.0,1.0,,,,,,,,,65.08803939982317,,,,,,,,,65.07251659990288,65.88746039988473,66.68800539989024,66.67122979997657,66.6712552998215,66.68800539989024,66.68800539989024,66.68800539989024,,68.63766609993763,left,0.0,17.977210800163448,,68.63816479989327,68.65248629986309,69.1522062998265,69.136453300016,,,,,,,,,,,,,,,,,,,,,,,,,sub-186,1.0,random_dot,59.86808664311518,
left,left,,4.0,1.0,9.0,0.0,,,,,,,,,69.1522062998265,,,,,,,,,69.13709979993291,69.50221899989992,70.30260689998977,70.28560359985568,70.28562229988165,70.30260689998977,70.30260689998977,70.30260689998977,,72.26892159995623,left,1.0,17.993223499972373,,72.26947829988785,72.28363219997846,72.7834546000231,72.76750129996799,,,,,,,,,,,,,,,,,,,,,,,,,sub-186,1.0,random_dot,59.86808664311518,
left,left,,5.0,0.0,10.0,0.0,,,,,,,,,72.7834546000231,,,,,,,,,72.7680450999178,72.88318439992145,73.68389260000549,73.66682789986953,73.66685269982554,73.68389260000549,73.68389260000549,73.68389260000549,,76.38300179992802,right,0.0,18.72555960016325,,76.38344679982401,76.39779639989138,76.89739339984953,76.88154929992743,,,,,,,,,,,,,,,,,,,,,,,,,sub-186,1.0,random_dot,59.86808664311518,
right,right,,5.0,1.0,11.0,1.0,,,,,,,,,76.89739339984953,,,,,,,,,76.8820936998818,78.09677909989841,78.89720160001889,78.88033009995706,78.88035029987805,78.89720160001889,78.89720160001889,78.89720160001889,,79.89763959986158,left,0.0,17.03606880013831,,79.89813639991917,79.91250099986792,80.41198989981785,80.39614659990184,,,,,,,,,,,,,,,,,,,,,,,,,sub-186,1.0,random_dot,59.86808664311518,
right,right,,6.0,0.0,12.0,1.0,,,,,,,,,80.41198989981785,,,,,,,,,80.39656199980527,81.61150669981726,82.41160420002416,82.39465719996952,82.39467839989811,82.41160420002416,82.41160420002416,82.41160420002416,,85.11118539981544,left,0.0,18.73849280015565,,85.11162330000661,85.12580589996651,85.6255771999713,85.60961109981872,,,,,,,,,,,,,,,,,,,,,,,,,sub-186,1.0,random_dot,59.86808664311518,
left,left,,6.0,1.0,13.0,0.0,,,,,,,,,85.6255771999713,,,,,,,,,85.61013960000128,85.72542429994792,86.52596619981341,86.50882439990528,86.50884729996324,86.52596619981341,86.52596619981341,86.52596619981341,,90.15816470002756,left,1.0,19.663226100150496,,90.15870849997737,90.1728971998673,90.67234719987027,90.6563442000188,,,,,,,,,,,,,,,,,,,,,,,,,sub-186,1.0,random_dot,59.86808664311518,
left,left,,7.0,0.0,14.0,0.0,,,,,,,,,90.67234719987027,,,,,,,,,90.65673589985818,91.4722150999587,92.27229839982463,92.2555195998866,92.2555397998076,92.27229839982463,92.27229839982463,92.27229839982463,,94.37211499991828,left,1.0,18.127521500224248,,94.3727227000054,94.3866275998298,94.88637749990448,94.87060459982604,,,,,,,,,,,,,,,,,,,,,,,,,sub-186,1.0,random_dot,59.86808664311518,
right,right,,7.0,1.0,15.0,1.0,,,,,,,,,94.88637749990448,,,,,,,,,94.87107170000672,94.986550899921,95.78710039984436,95.77025910001248,95.77031479985452,95.78710039984436,95.78710039984436,95.78710039984436,,97.08816259982996,right,1.0,17.342400500318035,,97.08897039992736,97.10194219998084,97.60139709990472,97.58553299983032,,,,,,,,,,,,,,,,,,,,,,,,,sub-186,1.0,random_dot,59.86808664311518,
left,left,,8.0,0.0,16.0,0.0,,,,,,,,,97.60139709990472,,,,,,,,,97.58612099988386,98.40102949994616,99.20146429981104,99.1847351999022,99.18476979993284,99.20146429981104,99.20146429981104,99.20146429981104,,99.73553139995784,right,0.0,16.563355500344187,,99.73598390002736,99.75041069998406,100.25005389982834,100.23435819987208,,,,,,,,,,,,,,,,,,,,,,,,,sub-186,1.0,random_dot,59.86808664311518,
right,right,,8.0,1.0,17.0,1.0,,,,,,,,,100.25005389982834,,,,,,,,,100.23499859985895,101.04935400001705,101.84978209994732,101.83283129986376,101.83284939988516,101.84978209994732,101.84978209994732,101.84978209994732,,102.93351769982836,right,1.0,17.116035600192845,,102.9341809998732,102.94818839989604,103.44824069994502,103.43185089994222,,,,,,,,,,,,,,,,,,,,,,,,,sub-186,1.0,random_dot,59.86808664311518,
left,left,,9.0,0.0,18.0,0.0,,,,,,,,,103.44824069994502,,,,,,,,,103.43212300003506,104.64723100000992,105.44752919999884,105.43069919990376,105.43072649999522,105.44752919999884,105.44752919999884,105.44752919999884,,106.66507610003464,left,1.0,17.24812320014462,,106.66593090002424,106.6791544998996,107.1788971000351,107.1631161000114,,,,,,,,,,,,,,,,,,,,,,,,,sub-186,1.0,random_dot,59.86808664311518,
right,right,,9.0,1.0,19.0,1.0,,,,,,,,,107.1788971000351,,,,,,,,,107.163687299937,107.27889689989388,108.07934499997646,108.0629133998882,108.06295309984124,108.07934499997646,108.07934499997646,108.07934499997646,,109.28024069988167,right,1.0,17.232229199958965,,109.28108239988796,109.29434129991569,109.79412839980796,109.77844029990956,,,,,,,,,,,,,,,,,,,,,,,,,sub-186,1.0,random_dot,59.86808664311518,
,,,,,,,,,,,,,,,,,,,,,,,,,,,,,,,,,,,,,,,,,,109.77853069989942,109.79412839980796,109.79412839980796,117.92338089994156,space,24.16192930028774,,,,,,,,,,,,,,,,,,,sub-186,1.0,random_dot,59.86808664311518,
,,,,,,,,,,,,,,,,,,,,,,,,,,,,,,,,,,,,,,,,,,,,,,,,,117.92341689998284,117.93957789987326,117.93957789987326,125.10300350002944,space,23.19826370012015,,,,,,,,,,,,sub-186,1.0,random_dot,59.86808664311518,
left,left,accuracy,,,,,0.0,0.0,0.0,0.0,0.0,0.0,0.0,0.0,127.96658779983407,,,,,,,,,127.95877379993908,129.16544599994086,129.96591269993223,129.9492581000086,129.9492881000042,129.96591269993223,129.96591269993223,129.96591269993223,,131.10014169989154,right,0.0,17.166920400224626,,,,,,,,,,,,,,,,,,,,125.1088248998858,125.12855469994248,125.12855469994248,127.95121530001052,space,18.850055400282145,,,,,sub-186,1.0,random_dot,59.86808664311518,
right,right,accuracy,,,,,0.0,0.0,0.0,0.0,0.0,1.0,1.0,1.0,131.11430669995025,,,,,,,,,131.1019409999717,131.2142125000246,132.0147082998883,131.99791909987107,131.9979510998819,132.0147082998883,132.0147082998883,132.0147082998883,,133.18210119986907,right,1.0,17.194628400029615,,,,,,,,,,,,,,,,,,,,,,,,,,,,,,sub-186,1.0,random_dot,59.86808664311518,
left,left,accuracy,,,,,0.0,0.0,0.0,0.0,1.0,0.0,2.0,0.0,133.19634109991603,,,,,,,,,133.18372610001825,133.9957917998545,134.79629580001347,134.7794843998272,134.7795125998091,134.79629580001347,134.79629580001347,134.79629580001347,,135.66392960003577,right,0.0,16.895824000239372,,,,,,,,,,,,,,,,,,,,,,,,,,,,,,sub-186,1.0,random_dot,59.86808664311518,
right,right,accuracy,,,,,0.0,0.0,0.0,0.0,1.0,1.0,3.0,1.0,135.6781901998911,,,,,,,,,135.665448699845,136.47772630001418,137.27831560000777,137.26131449989043,137.26133819995448,137.27831560000777,137.27831560000777,137.27831560000777,,137.89610489993356,left,0.0,16.655912700109184,,,,,,,,,,,,,,,,,,,,,,,,,,,,,,sub-186,1.0,random_dot,59.86808664311518,
left,left,accuracy,,,,,0.0,0.0,0.0,0.0,2.0,0.0,4.0,0.0,137.9101491998881,,,,,,,,,137.89796199998818,139.1094468999654,139.9098185999319,139.89297929988243,139.89300079992972,139.9098185999319,139.9098185999319,139.9098185999319,,140.99330400000326,left,1.0,17.124977300176397,,,,,,,,,,,,,,,,,,,,,,,,,,,,,,sub-186,1.0,random_dot,59.86808664311518,
right,right,accuracy,,,,,0.0,0.0,0.0,0.0,2.0,1.0,5.0,1.0,141.00850669993088,,,,,,,,,140.9941622999031,141.10832270001993,141.9087712999899,141.89218580001034,141.89222009992227,141.9087712999899,141.9087712999899,141.9087712999899,,142.80895299999975,right,1.0,16.935499700251967,,,,,,,,,,,,,,,,,,,,,,,,,,,,,,sub-186,1.0,random_dot,59.86808664311518,
left,left,accuracy,,,,,0.0,0.0,0.0,0.0,3.0,0.0,6.0,0.0,142.82408569986,,,,,,,,,142.80969859985635,143.62352559994906,144.42383059998974,144.40700939996168,144.40703479992226,144.42383059998974,144.42383059998974,144.42383059998974,,145.4579154998064,left,1.0,17.066085500176996,,,,,,,,,,,,,,,,,,,,,,,,,,,,,,sub-186,1.0,random_dot,59.86808664311518,
right,right,accuracy,,,,,0.0,0.0,0.0,0.0,3.0,1.0,7.0,1.0,145.47223309986293,,,,,,,,,145.45938929985277,145.8219659999013,146.62259970000014,146.6054275999777,146.60545339994133,146.62259970000014,146.62259970000014,146.62259970000014,,150.12119770003483,right,1.0,19.524742500158027,,,,,,,,,,,,,,,,,,,,,,,,,,,,,,sub-186,1.0,random_dot,59.86808664311518,
right,right,accuracy,,,,,0.0,0.0,0.0,0.0,4.0,0.0,8.0,1.0,150.1361300998833,,,,,,,,,150.12219449994154,151.3353050998412,152.13587479991838,152.11884999996985,152.11887679994106,152.13587479991838,152.13587479991838,152.13587479991838,,153.16977269994095,left,0.0,17.061117800185457,,,,,,,,,,,,,,,,,,,,,,,,,,,,,,sub-186,1.0,random_dot,59.86808664311518,
left,left,accuracy,,,,,0.0,0.0,0.0,0.0,4.0,1.0,9.0,0.0,153.18428989988752,,,,,,,,,153.17128569982015,153.98363899998367,154.7840614998713,154.76728409994394,154.76731049991213,154.7840614998713,154.7840614998713,154.7840614998713,,155.4179598998744,right,0.0,16.67436180030927,,,,,,,,,,,,,,,,,,,,,,,,,,,,,,sub-186,1.0,random_dot,59.86808664311518,
left,left,accuracy,,,,,0.0,0.0,0.0,0.0,5.0,0.0,10.0,0.0,155.43274570000358,,,,,,,,,155.41887929989025,156.6322361000348,157.4326557999011,157.41545740002766,157.415480799973,157.4326557999011,157.4326557999011,157.4326557999011,,158.29987019998953,left,1.0,16.893119200132787,,,,,,,,,,,,,,,,,,,,,,,,,,,,,,sub-186,1.0,random_dot,59.86808664311518,
right,right,accuracy,,,,,0.0,0.0,0.0,0.0,5.0,1.0,11.0,1.0,158.3143340998795,,,,,,,,,158.30115419998765,159.51363729988225,160.31411819998175,160.29758249991573,160.29761709994636,160.31411819998175,160.31411819998175,160.31411819998175,,161.19791889982298,right,1.0,16.912999200168997,,,,,,,,,,,,,,,,,,,,,,,,,,,,,,sub-186,1.0,random_dot,59.86808664311518,
right,right,accuracy,,,,,0.0,0.0,0.0,0.0,6.0,0.0,12.0,1.0,161.21249119983986,,,,,,,,,161.19898749981076,161.5623053999152,162.36286919983104,162.34588069980964,162.34590509999543,162.36286919983104,162.36286919983104,162.36286919983104,,163.2801099999342,left,0.0,16.957575400127098,,,,,,,,,,,,,,,,,,,,,,,,,,,,,,sub-186,1.0,random_dot,59.86808664311518,
left,left,accuracy,,,,,0.0,0.0,0.0,0.0,6.0,1.0,13.0,0.0,163.29449169989675,,,,,,,,,163.28145299991593,163.39458369999193,164.19503099983558,164.1783539999742,164.17837789980695,164.19503099983558,164.19503099983558,164.19503099983558,,164.96248249989003,right,0.0,16.799801900051534,,,,,,,,,,,,,,,,,,,,,,,,,,,,,,sub-186,1.0,random_dot,59.86808664311518,
left,left,accuracy,,,,,0.0,0.0,0.0,0.0,7.0,0.0,14.0,0.0,164.97713109990582,,,,,,,,,164.96384959993884,165.77644459996372,166.57684209989384,166.55996089987457,166.55998519994318,166.57684209989384,166.57684209989384,166.57684209989384,,167.29444999992847,left,1.0,16.745639400091022,,,,,,,,,,,,,,,,,,,,,,,,,,,,,,sub-186,1.0,random_dot,59.86808664311518,
right,right,accuracy,,,,,0.0,0.0,0.0,0.0,7.0,1.0,15.0,1.0,167.30878339987248,,,,,,,,,167.29594159987755,167.65866289986295,168.45909819984809,168.4421520999167,168.44217639998533,168.45909819984809,168.45909819984809,168.45909819984809,,169.79312469996512,left,0.0,17.370701200095937,,,,,,,,,,,,,,,,,,,,,,,,,,,,,,sub-186,1.0,random_dot,59.86808664311518,
left,left,accuracy,,,,,0.0,0.0,0.0,0.0,8.0,0.0,16.0,0.0,169.80728009995073,,,,,,,,,169.79449759982526,170.60687429993413,171.40734739997424,171.39048129995354,171.3904999999795,171.40734739997424,171.40734739997424,171.40734739997424,,173.07421209989116,left,1.0,17.699926500208676,,,,,,,,,,,,,,,,,,,,,,,,,,,,,,sub-186,1.0,random_dot,59.86808664311518,
right,right,accuracy,,,,,0.0,0.0,0.0,0.0,8.0,1.0,17.0,1.0,173.08859369996935,,,,,,,,,173.07550829998218,174.2881056999322,175.08849349990487,175.07176949991845,175.07180339982733,175.08849349990487,175.08849349990487,175.08849349990487,,175.95575580000877,right,1.0,16.90286650019698,,,,,,,,,,,,,,,,,,,,,,,,,,,,,,sub-186,1.0,random_dot,59.86808664311518,
right,right,accuracy,,,,,0.0,0.0,0.0,0.0,9.0,0.0,18.0,1.0,175.97021479997784,,,,,,,,,175.95726109994575,176.07014680001885,176.87083919998258,176.85384859982878,176.8538754999172,176.87083919998258,176.87083919998258,176.87083919998258,,177.72160769999027,left,0.0,16.877343900268897,,,,,,,,,,,,,,,,,,,,,,,,,,,,,,sub-186,1.0,random_dot,59.86808664311518,
left,left,accuracy,,,,,0.0,0.0,0.0,0.0,9.0,1.0,19.0,0.0,177.73575280001387,,,,,,,,,177.7231159999501,177.83571659983136,178.63602949981578,178.61934159998782,178.61936839995906,178.63602949981578,178.63602949981578,178.63602949981578,,179.70353629998863,left,1.0,17.10847570002079,,,,,,,,,,,,,,,,,,,,,,,,,,,,,,sub-186,1.0,random_dot,59.86808664311518,
right,right,accuracy,,,,,0.0,0.0,0.0,0.0,10.0,0.0,20.0,1.0,179.71820040000603,,,,,,,,,179.70423149992712,179.8181034999434,180.618332099868,180.6015397999436,180.6015699999407,180.618332099868,180.618332099868,180.618332099868,,181.35223349998705,left,0.0,16.769441100070253,,,,,,,,,,,,,,,,,,,,,,,,,,,,,,sub-186,1.0,random_dot,59.86808664311518,
left,left,accuracy,,,,,0.0,0.0,0.0,0.0,10.0,1.0,21.0,0.0,181.3671346998308,,,,,,,,,181.35304709989575,181.4670129998121,182.2673633999657,182.2505100998096,182.2505336999893,182.2673633999657,182.2673633999657,182.2673633999657,,183.8338175998069,left,1.0,17.596685900120065,,,,,,,,,,,,,,,,,,,,,,,,,,,,,,sub-186,1.0,random_dot,59.86808664311518,
left,left,accuracy,,,,,0.0,0.0,0.0,0.0,11.0,0.0,22.0,0.0,183.84901569993235,,,,,,,,,183.8346220999956,183.94878729991612,184.7490540998988,184.7322184999939,184.7322407998145,184.7490540998988,184.7490540998988,184.7490540998988,,187.8647999998648,left,1.0,19.14869450032711,,,,,,,,,,,,,,,,,,,,,,,,,,,,,,sub-186,1.0,random_dot,59.86808664311518,
right,right,accuracy,,,,,0.0,0.0,0.0,0.0,11.0,1.0,23.0,1.0,187.87946289987303,,,,,,,,,187.8657568998169,188.22954109986316,189.0298796999268,189.0128458000254,189.01287089986727,189.0298796999268,189.0298796999268,189.0298796999268,,189.76388360001147,right,1.0,16.76086370018311,,,,,,,,,,,,,,,,,,,,,,,,,,,,,,sub-186,1.0,random_dot,59.86808664311518,
right,right,accuracy,,,,,0.0,0.0,0.0,0.0,12.0,0.0,24.0,1.0,189.77862429991364,,,,,,,,,189.76472219987767,189.87890649982728,190.6790258998517,190.6621787999757,190.6622142000124,190.6790258998517,190.6790258998517,190.6790258998517,,191.49589619995092,right,1.0,16.857335600070655,,,,,,,,,,,,,,,,,,,,,,,,,,,,,,sub-186,1.0,random_dot,59.86808664311518,
left,left,accuracy,,,,,0.0,0.0,0.0,0.0,12.0,1.0,25.0,0.0,191.51067169988528,,,,,,,,,191.49676320003343,191.8605098000262,192.66110259993,192.64431159989908,192.64433989999816,192.66110259993,192.66110259993,192.66110259993,,194.3111748998053,left,1.0,17.688592500053346,,,,,,,,,,,,,,,,,,,,,,,,,,,,,,sub-186,1.0,random_dot,59.86808664311518,
left,left,accuracy,,,,,0.0,0.0,0.0,0.0,13.0,0.0,26.0,0.0,194.32574559981003,,,,,,,,,194.3119864999317,195.52504709991624,196.32531560002823,196.30842119990848,196.30844239983708,196.32531560002823,196.32531560002823,196.32531560002823,,197.20915169990624,left,1.0,16.918061800068244,,,,,,,,,,,,,,,,,,,,,,,,,,,,,,sub-186,1.0,random_dot,59.86808664311518,
right,right,accuracy,,,,,0.0,0.0,0.0,0.0,13.0,1.0,27.0,1.0,197.22405770001933,,,,,,,,,197.20998059981503,198.02351259998977,198.82398729980923,198.8071090998128,198.80714109982364,198.82398729980923,198.82398729980923,198.82398729980923,,199.57465409999716,right,1.0,16.78884270018898,,,,,,,,,,,,,,,,,,,,,,,,,,,,,,sub-186,1.0,random_dot,59.86808664311518,
right,right,accuracy,,,,,0.0,0.0,0.0,0.0,14.0,0.0,28.0,1.0,199.5892382999882,,,,,,,,,199.5753327999264,200.3886406999081,201.1890159000177,201.1720511999447,201.1720703998581,201.1890159000177,201.1890159000177,201.1890159000177,,201.9567640000023,right,1.0,16.794715100200847,,,,,,,,,,,,,,,,,,,,,,,,,,,,,,sub-186,1.0,random_dot,59.86808664311518,
left,left,accuracy,,,,,0.0,0.0,0.0,0.0,14.0,1.0,29.0,0.0,201.97116689989343,,,,,,,,,201.9582699998282,202.7707197999116,203.5710203999188,203.5544351998251,203.55446459981613,203.5710203999188,203.5710203999188,203.5710203999188,,205.30453239986676,left,1.0,17.767373600276187,,,,,,,,,,,,,,,,,,,,,,,,,,,,,,sub-186,1.0,random_dot,59.86808664311518,
right,right,accuracy,,,,,0.0,0.0,0.0,0.0,15.0,0.0,30.0,1.0,205.3191095998045,,,,,,,,,205.3060059999116,206.11870099999945,206.9190063998103,206.9021612999495,206.9021936999634,206.9190063998103,206.9190063998103,206.9190063998103,,207.6199327998329,right,1.0,16.74062480032444,,,,,,,,,,,,,,,,,,,,,,,,,,,,,,sub-186,1.0,random_dot,59.86808664311518,
left,left,accuracy,,,,,0.0,0.0,0.0,0.0,15.0,1.0,31.0,0.0,207.6342323999852,,,,,,,,,207.62170229991895,208.8336391998455,209.6341378998477,209.61757029988803,209.61762099992484,209.6341378998477,209.6341378998477,209.6341378998477,,212.36648259987123,right,0.0,18.76817880012095,,,,,,,,,,,,,,,,,,,,,,,,,,,,,,sub-186,1.0,random_dot,59.86808664311518,
right,right,accuracy,,,,,0.0,0.0,0.0,0.0,16.0,0.0,32.0,1.0,212.3815806999337,,,,,,,,,212.36742799985225,213.1810627998784,213.98143109981905,213.9644210999832,213.9644477998372,213.98143109981905,213.98143109981905,213.98143109981905,,214.7320578999352,left,0.0,16.78778970031999,,,,,,,,,,,,,,,,,,,,,,,,,,,,,,sub-186,1.0,random_dot,59.86808664311518,
left,left,accuracy,,,,,0.0,0.0,0.0,0.0,16.0,1.0,33.0,0.0,214.74650239991024,,,,,,,,,214.7335557998158,215.9457743000239,216.74614889989607,216.729590700008,216.72961769998076,216.74614889989607,216.74614889989607,216.74614889989607,,217.6303626999725,left,1.0,16.920200600055978,,,,,,,,,,,,,,,,,,,,,,,,,,,,,,sub-186,1.0,random_dot,59.86808664311518,
right,right,accuracy,,,,,0.0,0.0,0.0,0.0,17.0,0.0,34.0,1.0,217.64485269994475,,,,,,,,,217.631698000012,218.44441749993712,219.2446371999104,219.22781409998424,219.22783829993568,219.2446371999104,219.2446371999104,219.2446371999104,,220.04492269991897,left,0.0,16.83875280013308,,,,,,,,,,,,,,,,,,,,,,,,,,,,,,sub-186,1.0,random_dot,59.86808664311518,
left,left,accuracy,,,,,0.0,0.0,0.0,0.0,17.0,1.0,35.0,0.0,220.05989559995945,,,,,,,,,220.045993299922,220.8596463999711,221.65984809980728,221.64299930003472,221.6430230999831,221.65984809980728,221.65984809980728,221.65984809980728,,223.4435562998988,right,0.0,17.823763400083408,,,,,,,,,,,,,,,,,,,,,,,,,,,,,,sub-186,1.0,random_dot,59.86808664311518,
left,left,accuracy,,,,,0.0,0.0,0.0,0.0,18.0,0.0,36.0,0.0,223.45785769983195,,,,,,,,,223.44490069989115,223.55776280001737,224.35817799996585,224.3412239998579,224.3412485998124,224.35817799996585,224.35817799996585,224.35817799996585,,225.39191589993425,left,1.0,17.061039100168273,,,,,,,,,,,,,,,,,,,,,,,,,,,,,,sub-186,1.0,random_dot,59.86808664311518,
right,right,accuracy,,,,,0.0,0.0,0.0,0.0,18.0,1.0,37.0,1.0,225.4067985999864,,,,,,,,,225.39326039981097,225.7566501998808,226.5569194999989,226.53987959981896,226.5399025999941,226.5569194999989,226.5569194999989,226.5569194999989,,228.00700749992396,right,1.0,17.48461760021746,,,,,,,,,,,,,,,,,,,,,,,,,,,,,,sub-186,1.0,random_dot,59.86808664311518,
left,left,accuracy,,,,,0.0,0.0,0.0,0.0,19.0,0.0,38.0,0.0,228.02171679981984,,,,,,,,,228.0081642998848,229.22104989993383,230.0215302000288,230.0045268998947,230.00454609980807,230.0215302000288,230.0215302000288,230.0215302000288,,230.8219476998784,left,1.0,16.826954600168392,,,,,,,,,,,,,,,,,,,,,,,,,,,,,,sub-186,1.0,random_dot,59.86808664311518,
right,right,accuracy,,,,,0.0,0.0,0.0,0.0,19.0,1.0,39.0,1.0,230.8366429999005,,,,,,,,,230.8230134998448,231.18642819998783,231.98687199992128,231.9700459998567,231.97007079981267,231.98687199992128,231.98687199992128,231.98687199992128,,233.52075119991787,right,1.0,17.57069560023956,,,,,,,,,,,,,,,,,,,,,,,,,,,,,,sub-186,1.0,random_dot,59.86808664311518,
left,left,accuracy,,,,,0.0,0.0,0.0,0.0,20.0,0.0,40.0,0.0,233.53511970001276,,,,,,,,,233.52209059987217,234.3345278999768,235.1351668999996,235.1181842000224,235.1182088998612,235.1351668999996,235.1351668999996,235.1351668999996,,237.3682295999024,left,1.0,18.27132040029392,,,,,,,,,,,,,,,,,,,,,,,,,,,,,,sub-186,1.0,random_dot,59.86808664311518,
right,right,accuracy,,,,,0.0,0.0,0.0,0.0,20.0,1.0,41.0,1.0,237.3827019999735,,,,,,,,,237.3695850998629,237.482607799815,238.2832488999702,238.26628619991243,238.26631099986844,238.2832488999702,238.2832488999702,238.2832488999702,,239.16692229988985,left,0.0,16.910502100130543,,,,,,,,,,,,,,,,,,,,,,,,,,,,,,sub-186,1.0,random_dot,59.86808664311518,
left,left,accuracy,,,,,0.0,0.0,0.0,0.0,21.0,0.0,42.0,0.0,239.18151749996468,,,,,,,,,239.16793989995492,240.3810705000069,241.1812762999907,241.1643323998433,241.16435729991645,241.1812762999907,241.1812762999907,241.1812762999907,,242.29846339998767,left,1.0,17.15255710016936,,,,,,,,,,,,,,,,,,,,,,,,,,,,,,sub-186,1.0,random_dot,59.86808664311518,
right,right,accuracy,,,,,0.0,0.0,0.0,0.0,21.0,1.0,43.0,1.0,242.31318019982427,,,,,,,,,242.29984540003352,242.6628717998974,243.4632047000341,243.44622389995493,243.4462441999931,243.4632047000341,243.4632047000341,243.4632047000341,,244.0970658999868,right,1.0,16.663688800064847,,,,,,,,,,,,,,,,,,,,,,,,,,,,,,sub-186,1.0,random_dot,59.86808664311518,
right,right,accuracy,,,,,0.0,0.0,0.0,0.0,22.0,0.0,44.0,1.0,244.1121787999291,,,,,,,,,244.09796659997664,245.3111834998708,246.11160869989544,246.0948528998997,246.09487859997895,246.11160869989544,246.11160869989544,246.11160869989544,,246.762519299984,right,1.0,16.67968269996345,,,,,,,,,,,,,,,,,,,,,,,,,,,,,,sub-186,1.0,random_dot,59.86808664311518,
left,left,accuracy,,,,,0.0,0.0,0.0,0.0,22.0,1.0,45.0,0.0,246.77700629993345,,,,,,,,,246.7639370998368,247.9763399998192,248.77662479993887,248.75968929985535,248.759714699816,248.77662479993887,248.77662479993887,248.77662479993887,,249.3777949998621,left,1.0,16.636590200243518,,,,,,,,,,,,,,,,,,,,,,,,,,,,,,sub-186,1.0,random_dot,59.86808664311518,
right,right,accuracy,,,,,0.0,0.0,0.0,0.0,23.0,0.0,46.0,1.0,249.39194100000896,,,,,,,,,249.37934280000627,249.4918990000151,250.2924724998884,250.27568059996705,250.27570199989717,250.2924724998884,250.2924724998884,250.2924724998884,,251.3263415999245,left,0.0,17.074831900186837,,,,,,,,,,,,,,,,,,,,,,,,,,,,,,sub-186,1.0,random_dot,59.86808664311518,
left,left,accuracy,,,,,0.0,0.0,0.0,0.0,23.0,1.0,47.0,0.0,251.34101359988563,,,,,,,,,251.3276426999364,251.6905668999534,252.49101089988835,252.4741756999865,252.4742035998497,252.49101089988835,252.49101089988835,252.49101089988835,,253.34189709997736,left,1.0,16.88803380005993,,,,,,,,,,,,,,,,,,,,,,,,,,,,,,sub-186,1.0,random_dot,59.86808664311518,
left,left,accuracy,,,,,0.0,0.0,0.0,0.0,24.0,0.0,48.0,0.0,253.3561876998283,,,,,,,,,253.34348129993305,253.4561641998589,254.25658990000372,254.23962279991247,254.2396433998365,254.25658990000372,254.25658990000372,254.25658990000372,,255.49027629988268,right,0.0,17.26154900016263,,,,,,,,,,,,,,,,,,,,,,,,,,,,,,sub-186,1.0,random_dot,59.86808664311518,
right,right,accuracy,,,,,0.0,0.0,0.0,0.0,24.0,1.0,49.0,1.0,255.5048691998236,,,,,,,,,255.49142229999416,256.30449639982544,257.1049168999307,257.0884353998117,257.08846919983625,257.1049168999307,257.1049168999307,257.1049168999307,,257.705879899906,right,1.0,16.62675329996273,,,,,,,,,,,,,,,,,,,,,,,,,,,,,,sub-186,1.0,random_dot,59.86808664311518,
right,right,accuracy,,,,,0.0,0.0,0.0,0.0,25.0,0.0,50.0,1.0,257.7204746999778,,,,,,,,,257.70735109993257,257.82017289986834,258.6206314000301,258.6037855998147,258.6038124000188,258.6206314000301,258.6206314000301,258.6206314000301,,259.2889167999383,right,1.0,16.709670800017193,,,,,,,,,,,,,,,,,,,,,,,,,,,,,,sub-186,1.0,random_dot,59.86808664311518,
left,left,accuracy,,,,,0.0,0.0,0.0,0.0,25.0,1.0,51.0,0.0,259.3025773998816,,,,,,,,,259.290613199817,260.10210299980827,260.9025210000109,260.8855373999104,260.8855577998329,260.9025210000109,260.9025210000109,260.9025210000109,,262.51921519986354,left,1.0,17.644356300123036,,,,,,,,,,,,,,,,,,,,,,,,,,,,,,sub-186,1.0,random_dot,59.86808664311518,
left,left,accuracy,,,,,0.0,0.0,0.0,0.0,26.0,0.0,52.0,0.0,262.5341158998199,,,,,,,,,262.52020019991323,263.3334570999723,264.13388139987364,264.11718319985084,264.1172102999408,264.13388139987364,264.13388139987364,264.13388139987364,,265.0013015998993,left,1.0,16.907425800105557,,,,,,,,,,,,,,,,,,,,,,,,,,,,,,sub-186,1.0,random_dot,59.86808664311518,
right,right,accuracy,,,,,0.0,0.0,0.0,0.0,26.0,1.0,53.0,1.0,265.01575469993986,,,,,,,,,265.00279999990016,265.11574179981835,265.91616679984145,265.899375599809,265.89940140000544,265.91616679984145,265.91616679984145,265.91616679984145,,267.0998788999859,left,0.0,17.22335570002906,,,,,,,,,,,,,,,,,,,,,,,,,,,,,,sub-186,1.0,random_dot,59.86808664311518,
left,left,accuracy,,,,,0.0,0.0,0.0,0.0,27.0,0.0,54.0,0.0,267.11447799997404,,,,,,,,,267.10130879981443,267.91405169991776,268.71467589982785,268.6980792998802,268.69811569992453,268.71467589982785,268.71467589982785,268.71467589982785,,269.3981980998069,left,1.0,16.715475200209767,,,,,,,,,,,,,,,,,,,,,,,,,,,,,,sub-186,1.0,random_dot,59.86808664311518,
right,right,accuracy,,,,,0.0,0.0,0.0,0.0,27.0,1.0,55.0,1.0,269.4130428000353,,,,,,,,,269.3991103000008,270.21282679983415,271.01310739992186,270.99617969989777,270.99619790003635,271.01310739992186,271.01310739992186,271.01310739992186,,271.9639399999287,left,0.0,16.992653200170025,,,,,,,,,,,,,,,,,,,,,,,,,,,,,,sub-186,1.0,random_dot,59.86808664311518,
right,right,accuracy,,,,,0.0,0.0,0.0,0.0,28.0,0.0,56.0,1.0,271.97846649982966,,,,,,,,,271.96495069982484,272.32802309980616,273.12857439997606,273.11150669981726,273.111532199895,273.12857439997606,273.12857439997606,273.12857439997606,,274.7784875999205,right,1.0,17.682121500140056,,,,,,,,,,,,,,,,,,,,,,,,,,,,,,sub-186,1.0,random_dot,59.86808664311518,
left,left,accuracy,,,,,0.0,0.0,0.0,0.0,28.0,1.0,57.0,0.0,274.7930928999558,,,,,,,,,274.7796189999208,275.5926304999739,276.3929959998932,276.376260999823,276.37628780002706,276.3929959998932,276.3929959998932,276.3929959998932,,277.12707639997825,left,1.0,16.769498200155795,,,,,,,,,,,,,,,,,,,,,,,,,,,,,,sub-186,1.0,random_dot,59.86808664311518,
left,left,accuracy,,,,,0.0,0.0,0.0,0.0,29.0,0.0,58.0,0.0,277.1419249000028,,,,,,,,,277.12835250003263,277.2417819998227,278.04219469986856,278.02553349989466,278.025569899939,278.04219469986856,278.04219469986856,278.04219469986856,,278.9425267998595,left,1.0,16.930238300235942,,,,,,,,,,,,,,,,,,,,,,,,,,,,,,sub-186,1.0,random_dot,59.86808664311518,
right,right,accuracy,,,,,0.0,0.0,0.0,0.0,29.0,1.0,59.0,1.0,278.95751470001414,,,,,,,,,278.9434493998997,279.0571900999639,279.85761269996874,279.84084960003383,279.8408721999731,279.85761269996874,279.85761269996874,279.85761269996874,,280.67489959998056,left,0.0,16.845296000363305,,,,,,,,,,,,,,,,,,,,,,,,,,,,,,sub-186,1.0,random_dot,59.86808664311518,
,,accuracy,,,,,0.0,0.0,0.0,0.0,,,,,,,,,,,,,,,,,,,,,,,,,,,,,,,,,,,,,,,,,,,,,,,,,,,,,,,,sub-186,1.0,random_dot,59.86808664311518,
right,right,speed,,,,,0.0,1.0,1.0,1.0,0.0,0.0,0.0,1.0,284.5872938998509,,,,,,,,,284.5802703998052,285.3868467998691,286.1871334000025,286.1702522998676,286.1702782998327,286.1871334000025,286.1871334000025,286.1871334000025,,286.7878386999946,left,0.0,16.626798400189728,,,,,,,,,,,,,,,,,,,,280.67606669990346,280.68965770001523,280.68965770001523,284.57189359981567,space,19.915840100031343,,,,,sub-186,1.0,random_dot,59.86808664311518,
left,left,speed,,,,,0.0,1.0,1.0,1.0,0.0,1.0,1.0,0.0,286.8024533998687,,,,,,,,,286.7894923998974,287.1524545999709,287.95264829997905,287.93575969990343,287.9357834998518,287.95264829997905,287.95264829997905,287.95264829997905,,288.35357009992003,left,1.0,16.43534200033173,,,,,,,,,,,,,,,,,,,,,,,,,,,,,,sub-186,1.0,random_dot,59.86808664311518,
left,left,speed,,,,,0.0,1.0,1.0,1.0,1.0,0.0,2.0,0.0,288.3681459999643,,,,,,,,,288.3548547998071,289.5674007998314,290.3678277998697,290.3511053000111,290.35112849995494,290.3678277998697,290.3678277998697,290.3678277998697,,290.81901099998504,left,1.0,16.481375200208277,,,,,,,,,,,,,,,,,,,,,,,,,,,,,,sub-186,1.0,random_dot,59.86808664311518,
right,right,speed,,,,,0.0,1.0,1.0,1.0,1.0,1.0,3.0,1.0,290.8334841998294,,,,,,,,,290.8202935999725,290.9335042999592,291.7338598999195,291.7167038999032,291.71672789985314,291.7338598999195,291.7338598999195,291.7338598999195,,292.20111239980906,left,0.0,16.505096400156617,,,,,,,,,,,,,,,,,,,,,,,,,,,,,,sub-186,1.0,random_dot,59.86808664311518,
right,right,speed,,,,,0.0,1.0,1.0,1.0,2.0,0.0,4.0,1.0,292.21582189993933,,,,,,,,,292.2023975998163,293.0153045000043,293.81571169989184,293.79887509997934,293.79889889992774,293.81571169989184,293.81571169989184,293.81571169989184,,294.30020159995183,left,0.0,16.51927710021846,,,,,,,,,,,,,,,,,,,,,,,,,,,,,,sub-186,1.0,random_dot,59.86808664311518,
left,left,speed,,,,,0.0,1.0,1.0,1.0,2.0,1.0,5.0,0.0,294.31451269984245,,,,,,,,,294.3015580000356,294.66434019990265,295.4648773998488,295.44802529993467,295.44805120001547,295.4648773998488,295.4648773998488,295.4648773998488,,295.8491870998405,right,0.0,16.423971800133586,,,,,,,,,,,,,,,,,,,,,,,,,,,,,,sub-186,1.0,random_dot,59.86808664311518,
right,right,speed,,,,,0.0,1.0,1.0,1.0,3.0,0.0,6.0,1.0,295.86377419997007,,,,,,,,,295.8505213998724,296.66313069988973,297.4636033999268,297.4472784998361,297.44732189993374,297.4636033999268,297.4636033999268,297.4636033999268,,298.1149170999415,left,0.0,16.692089200019836,,,,,,,,,,,,,,,,,,,,,,,,,,,,,,sub-186,1.0,random_dot,59.86808664311518,
left,left,speed,,,,,0.0,1.0,1.0,1.0,3.0,1.0,7.0,0.0,298.12895859987475,,,,,,,,,298.11668849992566,299.32814450003207,300.1287822998129,300.1122335998807,300.11227019992657,300.1287822998129,300.1287822998129,300.1287822998129,,300.61323659983464,left,1.0,16.519267400028184,,,,,,,,,,,,,,,,,,,,,,,,,,,,,,sub-186,1.0,random_dot,59.86808664311518,
right,right,speed,,,,,0.0,1.0,1.0,1.0,4.0,0.0,8.0,1.0,300.6273041998502,,,,,,,,,300.6148278999608,300.9771222998388,301.77767729992047,301.76119799981825,301.7612346999813,301.77767729992047,301.77767729992047,301.77767729992047,,302.2785618000198,left,0.0,16.538746300153434,,,,,,,,,,,,,,,,,,,,,,,,,,,,,,sub-186,1.0,random_dot,59.86808664311518,
left,left,speed,,,,,0.0,1.0,1.0,1.0,4.0,1.0,9.0,0.0,302.2929868998472,,,,,,,,,302.28014019993134,302.6427770999726,303.44350299984217,303.42652669991367,303.4265534998849,303.44350299984217,303.44350299984217,303.44350299984217,,303.92760919989087,right,0.0,16.511301700025797,,,,,,,,,,,,,,,,,,,,,,,,,,,,,,sub-186,1.0,random_dot,59.86808664311518,
left,left,speed,,,,,0.0,1.0,1.0,1.0,5.0,0.0,10.0,0.0,303.9419386999216,,,,,,,,,303.9289448999334,304.29200299992226,305.0922187999822,305.07516529993154,305.0751857999712,305.0922187999822,305.0922187999822,305.0922187999822,,305.82643279992044,left,1.0,16.76529649994336,,,,,,,,,,,,,,,,,,,,,,,,,,,,,,sub-186,1.0,random_dot,59.86808664311518,
right,right,speed,,,,,0.0,1.0,1.0,1.0,5.0,1.0,11.0,1.0,305.84078620001674,,,,,,,,,305.82790649984963,306.19083019997925,306.9910233998671,306.9745045998134,306.974533099914,306.9910233998671,306.9910233998671,306.9910233998671,,307.7254284999799,right,1.0,16.76563630020246,,,,,,,,,,,,,,,,,,,,,,,,,,,,,,sub-186,1.0,random_dot,59.86808664311518,
left,left,speed,,,,,0.0,1.0,1.0,1.0,6.0,0.0,12.0,0.0,307.7397213999648,,,,,,,,,307.7269965999294,308.9389408000279,309.7395781998057,309.7227003998123,309.72273239982314,309.7395781998057,309.7395781998057,309.7395781998057,,310.373804199975,left,1.0,16.67221500026062,,,,,,,,,,,,,,,,,,,,,,,,,,,,,,sub-186,1.0,random_dot,59.86808664311518,
right,right,speed,,,,,0.0,1.0,1.0,1.0,6.0,1.0,13.0,1.0,310.38807430001907,,,,,,,,,310.37576829991303,311.5874695000239,312.38786399993114,312.37111629988067,312.37114769988693,312.38786399993114,312.38786399993114,312.38786399993114,,312.9554568999447,left,0.0,16.60743880015798,,,,,,,,,,,,,,,,,,,,,,,,,,,,,,sub-186,1.0,random_dot,59.86808664311518,
left,left,speed,,,,,0.0,1.0,1.0,1.0,7.0,0.0,14.0,0.0,312.9697477999144,,,,,,,,,312.9569530999288,313.0697153999936,313.870207299944,313.8534676998388,313.8534945999272,313.870207299944,313.870207299944,313.870207299944,,314.7542089999188,left,1.0,16.92206330015324,,,,,,,,,,,,,,,,,,,,,,,,,,,,,,sub-186,1.0,random_dot,59.86808664311518,
right,right,speed,,,,,0.0,1.0,1.0,1.0,7.0,1.0,15.0,1.0,314.76873809983954,,,,,,,,,314.7555486999918,315.5682720998302,316.3688409000169,316.3522445999552,316.3522806998808,316.3688409000169,316.3688409000169,316.3688409000169,,317.0031999999192,left,0.0,16.675787600222975,,,,,,,,,,,,,,,,,,,,,,,,,,,,,,sub-186,1.0,random_dot,59.86808664311518,
left,left,speed,,,,,0.0,1.0,1.0,1.0,8.0,0.0,16.0,0.0,317.01727029983886,,,,,,,,,317.0047695999965,317.1173906000331,317.91767779993825,317.9009351998102,317.9009632000234,317.91767779993825,317.91767779993825,317.91767779993825,,318.502088499954,left,1.0,16.618832600070164,,,,,,,,,,,,,,,,,,,,,,,,,,,,,,sub-186,1.0,random_dot,59.86808664311518,
right,right,speed,,,,,0.0,1.0,1.0,1.0,8.0,1.0,17.0,1.0,318.5162608998362,,,,,,,,,318.50366129982285,318.86630719993263,319.6668683998287,319.64968389994465,319.64969739993103,319.6668683998287,319.6668683998287,319.6668683998287,,320.4172049998306,left,0.0,16.77721259999089,,,,,,,,,,,,,,,,,,,,,,,,,,,,,,sub-186,1.0,random_dot,59.86808664311518,
right,right,speed,,,,,0.0,1.0,1.0,1.0,9.0,0.0,18.0,1.0,320.43213879992254,,,,,,,,,320.41825170000084,320.78192520001903,321.5823349999264,321.56487759994343,321.56489199982025,321.5823349999264,321.5823349999264,321.5823349999264,,322.6658532000147,right,1.0,17.11326300003566,,,,,,,,,,,,,,,,,,,,,,,,,,,,,,sub-186,1.0,random_dot,59.86808664311518,
left,left,speed,,,,,0.0,1.0,1.0,1.0,9.0,1.0,19.0,0.0,322.6807236999739,,,,,,,,,322.66713549988344,323.4799817998428,324.28049489995465,324.26393799996004,324.2639703999739,324.28049489995465,324.28049489995465,324.28049489995465,,324.99840609985404,left,1.0,16.75694050011225,,,,,,,,,,,,,,,,,,,,,,,,,,,,,,sub-186,1.0,random_dot,59.86808664311518,
right,right,speed,,,,,0.0,1.0,1.0,1.0,10.0,0.0,20.0,1.0,325.0126461000182,,,,,,,,,325.00020709983073,325.112577999942,325.91275170003064,325.8958546000067,325.8958762998227,325.91275170003064,325.91275170003064,325.91275170003064,,326.6304236999713,left,0.0,16.75420740013942,,,,,,,,,,,,,,,,,,,,,,,,,,,,,,sub-186,1.0,random_dot,59.86808664311518,
left,left,speed,,,,,0.0,1.0,1.0,1.0,10.0,1.0,21.0,0.0,326.6448408998549,,,,,,,,,326.63159449980594,326.9945203999523,327.7950840999838,327.7780070998706,327.7780303999316,327.7950840999838,327.7950840999838,327.7950840999838,,328.3961151998956,left,1.0,16.631518500158563,,,,,,,,,,,,,,,,,,,,,,,,,,,,,,sub-186,1.0,random_dot,59.86808664311518,
right,right,speed,,,,,0.0,1.0,1.0,1.0,11.0,0.0,22.0,1.0,328.41052989987656,,,,,,,,,328.3975872998126,329.6096864999272,330.41006629983895,330.39343429985456,330.39346149982885,330.41006629983895,330.41006629983895,330.41006629983895,,330.77780129993334,right,1.0,16.396362700033933,,,,,,,,,,,,,,,,,,,,,,,,,,,,,,sub-186,1.0,random_dot,59.86808664311518,
left,left,speed,,,,,0.0,1.0,1.0,1.0,11.0,1.0,23.0,0.0,330.79237429983914,,,,,,,,,330.77930990001187,330.89213579986244,331.6926581999287,331.6759291999042,331.6759563998785,331.6926581999287,331.6926581999287,331.6926581999287,,332.21034999983385,right,0.0,16.55669270013459,,,,,,,,,,,,,,,,,,,,,,,,,,,,,,sub-186,1.0,random_dot,59.86808664311518,
right,right,speed,,,,,0.0,1.0,1.0,1.0,12.0,0.0,24.0,1.0,332.2246879998129,,,,,,,,,332.21184519981034,332.5744796998333,333.3751377998851,333.35837729997,333.35841179988347,333.3751377998851,333.3751377998851,333.3751377998851,,334.3090410998557,left,0.0,16.9753238002304,,,,,,,,,,,,,,,,,,,,,,,,,,,,,,sub-186,1.0,random_dot,59.86808664311518,
left,left,speed,,,,,0.0,1.0,1.0,1.0,12.0,1.0,25.0,0.0,334.3235630998388,,,,,,,,,334.3104558000341,334.4235639998224,335.22382289986126,335.2068013998214,335.20682700001635,335.22382289986126,335.22382289986126,335.22382289986126,,335.89122709981166,left,1.0,16.698927100049332,,,,,,,,,,,,,,,,,,,,,,,,,,,,,,sub-186,1.0,random_dot,59.86808664311518,
right,right,speed,,,,,0.0,1.0,1.0,1.0,13.0,0.0,26.0,1.0,335.905903799925,,,,,,,,,335.89259770000353,336.7053443000186,337.5057534999214,337.4892535000108,337.4892851999029,337.5057534999214,337.5057534999214,337.5057534999214,,338.0236135998275,left,0.0,16.556979900225997,,,,,,,,,,,,,,,,,,,,,,,,,,,,,,sub-186,1.0,random_dot,59.86808664311518,
left,left,speed,,,,,0.0,1.0,1.0,1.0,13.0,1.0,27.0,0.0,338.037919000024,,,,,,,,,338.02500259992667,339.23709980002604,340.03762069996446,340.02111430000514,340.02115169982426,340.03762069996446,340.03762069996446,340.03762069996446,,340.8384298000019,right,0.0,16.831293300027028,,,,,,,,,,,,,,,,,,,,,,,,,,,,,,sub-186,1.0,random_dot,59.86808664311518,
left,left,speed,,,,,0.0,1.0,1.0,1.0,14.0,0.0,28.0,0.0,340.8529481999576,,,,,,,,,340.8399573999923,341.20251449989155,342.0029757998418,341.98636909993365,341.98639729991555,342.0029757998418,342.0029757998418,342.0029757998418,,344.18635319988243,right,0.0,18.21855000010692,,,,,,,,,,,,,,,,,,,,,,,,,,,,,,sub-186,1.0,random_dot,59.86808664311518,
right,right,speed,,,,,0.0,1.0,1.0,1.0,14.0,1.0,29.0,1.0,344.20070839999244,,,,,,,,,344.18793140002526,344.5504768998362,345.3509039999917,345.3340910000261,345.33411880000494,345.3509039999917,345.3509039999917,345.3509039999917,,346.4353506998159,left,0.0,17.11672220006585,,,,,,,,,,,,,,,,,,,,,,,,,,,,,,sub-186,1.0,random_dot,59.86808664311518,
left,left,speed,,,,,0.0,1.0,1.0,1.0,15.0,0.0,30.0,0.0,346.4492895998992,,,,,,,,,346.4369293998461,347.24883019994013,348.0492624999024,348.03256940003484,348.0325972000137,348.0492624999024,348.0492624999024,348.0492624999024,,348.8336743998807,left,1.0,16.81127590010874,,,,,,,,,,,,,,,,,,,,,,,,,,,,,,sub-186,1.0,random_dot,59.86808664311518,
right,right,speed,,,,,0.0,1.0,1.0,1.0,15.0,1.0,31.0,1.0,348.8480012998916,,,,,,,,,348.8352561998181,348.9477949999273,349.748210699996,349.7315281999763,349.73155679996125,349.748210699996,349.748210699996,349.748210699996,,350.29957209993154,right,1.0,16.58171570021659,,,,,,,,,,,,,,,,,,,,,,,,,,,,,,sub-186,1.0,random_dot,59.86808664311518,
right,right,speed,,,,,0.0,1.0,1.0,1.0,16.0,0.0,32.0,1.0,350.31387309986167,,,,,,,,,350.3011570998933,350.4135876998771,351.2142172998283,351.1976787999738,351.19771929993294,351.2142172998283,351.2142172998283,351.2142172998283,,351.8484769000206,right,1.0,16.662825100123882,,,,,,,,,,,,,,,,,,,,,,,,,,,,,,sub-186,1.0,random_dot,59.86808664311518,
left,left,speed,,,,,0.0,1.0,1.0,1.0,16.0,1.0,33.0,0.0,351.862697100034,,,,,,,,,351.85009219986387,352.21249309997074,353.01310889981687,352.99600479984656,352.99602009984665,353.01310889981687,353.01310889981687,353.01310889981687,,353.3643673998304,right,0.0,16.38656480028294,,,,,,,,,,,,,,,,,,,,,,,,,,,,,,sub-186,1.0,random_dot,59.86808664311518,
right,right,speed,,,,,0.0,1.0,1.0,1.0,17.0,0.0,34.0,1.0,353.3786438999232,,,,,,,,,353.3661713998299,354.1779991998337,354.9784470999148,354.9616249999963,354.96165609988384,354.9784470999148,354.9784470999148,354.9784470999148,,355.57936539989896,left,0.0,16.640414600027725,,,,,,,,,,,,,,,,,,,,,,,,,,,,,,sub-186,1.0,random_dot,59.86808664311518,
left,left,speed,,,,,0.0,1.0,1.0,1.0,17.0,1.0,35.0,0.0,355.5939894998446,,,,,,,,,355.5805128000211,356.39348969981074,357.1939041998703,357.1769017998595,357.17693189997226,357.1939041998703,357.1939041998703,357.1939041998703,,357.9943760000169,left,1.0,16.836594400228932,,,,,,,,,,,,,,,,,,,,,,,,,,,,,,sub-186,1.0,random_dot,59.86808664311518,
left,left,speed,,,,,0.0,1.0,1.0,1.0,18.0,0.0,36.0,0.0,358.009179599816,,,,,,,,,357.9950953000225,359.2082751998678,360.0087893998716,359.9919635998085,359.99198940000497,360.0087893998716,360.0087893998716,360.0087893998716,,360.4431455999147,right,0.0,16.461170700145885,,,,,,,,,,,,,,,,,,,,,,,,,,,,,,sub-186,1.0,random_dot,59.86808664311518,
right,right,speed,,,,,0.0,1.0,1.0,1.0,18.0,1.0,37.0,1.0,360.4575868998654,,,,,,,,,360.44455059990287,360.5574623998255,361.3579937999602,361.34106009989046,361.3410853999667,361.3579937999602,361.3579937999602,361.3579937999602,,361.841937799938,right,1.0,16.514663300244138,,,,,,,,,,,,,,,,,,,,,,,,,,,,,,sub-186,1.0,random_dot,59.86808664311518,
left,left,speed,,,,,0.0,1.0,1.0,1.0,19.0,0.0,38.0,0.0,361.8567411999684,,,,,,,,,361.8436133998912,362.20634439983405,363.006849099882,362.9900348999072,362.99006139999256,363.006849099882,363.006849099882,363.006849099882,,363.47460459987633,right,0.0,16.49463040032424,,,,,,,,,,,,,,,,,,,,,,,,,,,,,,sub-186,1.0,random_dot,59.86808664311518,
right,right,speed,,,,,0.0,1.0,1.0,1.0,19.0,1.0,39.0,1.0,363.48886869987473,,,,,,,,,363.4760109998752,364.28839250002056,365.0890746000223,365.07215889985673,365.07218909985386,365.0890746000223,365.0890746000223,365.0890746000223,,365.5735338998493,right,1.0,16.524048400111496,,,,,,,,,,,,,,,,,,,,,,,,,,,,,,sub-186,1.0,random_dot,59.86808664311518,
left,left,speed,,,,,0.0,1.0,1.0,1.0,20.0,0.0,40.0,0.0,365.58787149982527,,,,,,,,,365.57532099983655,365.9375238998328,366.7380201998167,366.7214520999696,366.7214852999896,366.7380201998167,366.7380201998167,366.7380201998167,,367.4058353998698,left,1.0,16.709460400044918,,,,,,,,,,,,,,,,,,,,,,,,,,,,,,sub-186,1.0,random_dot,59.86808664311518,
right,right,speed,,,,,0.0,1.0,1.0,1.0,20.0,1.0,41.0,1.0,367.4200587999076,,,,,,,,,367.4069596999325,368.2193473998923,369.0197778998409,369.0030278998893,369.0030556998681,369.0197778998409,369.0197778998409,369.0197778998409,,369.7867640999612,left,0.0,16.79878680012189,,,,,,,,,,,,,,,,,,,,,,,,,,,,,,sub-186,1.0,random_dot,59.86808664311518,
right,right,speed,,,,,0.0,1.0,1.0,1.0,21.0,0.0,42.0,1.0,369.8018222998362,,,,,,,,,369.7875981000252,370.6014538998716,371.4018019998912,371.38496669987217,371.38499759999104,371.4018019998912,371.4018019998912,371.4018019998912,,372.1528081998695,right,1.0,16.786839400185272,,,,,,,,,,,,,,,,,,,,,,,,,,,,,,sub-186,1.0,random_dot,59.86808664311518,
left,left,speed,,,,,0.0,1.0,1.0,1.0,21.0,1.0,43.0,0.0,372.16703039989807,,,,,,,,,372.154591599945,372.96670309989713,373.7670708999504,373.7504209999461,373.7504547999706,373.7670708999504,373.7670708999504,373.7670708999504,,374.1511349999346,right,0.0,16.415064600063488,,,,,,,,,,,,,,,,,,,,,,,,,,,,,,sub-186,1.0,random_dot,59.86808664311518,
left,left,speed,,,,,0.0,1.0,1.0,1.0,22.0,0.0,44.0,0.0,374.1658661998808,,,,,,,,,374.151906499872,374.26565929991193,375.0661316998303,375.0493713000324,375.04939999990165,375.0661316998303,375.0661316998303,375.0661316998303,,375.5006464999169,right,0.0,16.47082110028714,,,,,,,,,,,,,,,,,,,,,,,,,,,,,,sub-186,1.0,random_dot,59.86808664311518,
right,right,speed,,,,,0.0,1.0,1.0,1.0,22.0,1.0,45.0,1.0,375.5150383999571,,,,,,,,,375.5023058999796,375.6148457999807,376.4152670998592,376.3984146998264,376.3984883998055,376.4152670998592,376.4152670998592,376.4152670998592,,377.4326737998053,right,1.0,17.047728800214827,,,,,,,,,,,,,,,,,,,,,,,,,,,,,,sub-186,1.0,random_dot,59.86808664311518,
left,left,speed,,,,,0.0,1.0,1.0,1.0,23.0,0.0,46.0,0.0,377.44705590000376,,,,,,,,,377.4342477000319,377.797102799872,378.5974057998974,378.5805352998432,378.5805662998464,378.5974057998974,378.5974057998974,378.5974057998974,,379.415047199931,left,1.0,16.85467700031586,,,,,,,,,,,,,,,,,,,,,,,,,,,,,,sub-186,1.0,random_dot,59.86808664311518,
right,right,speed,,,,,0.0,1.0,1.0,1.0,23.0,1.0,47.0,1.0,379.4294219999574,,,,,,,,,379.4168803000357,379.5290470998734,380.3299660999328,380.3129083998501,380.312921699835,380.3299660999328,380.3299660999328,380.3299660999328,,380.91440130001865,right,1.0,16.61869250005111,,,,,,,,,,,,,,,,,,,,,,,,,,,,,,sub-186,1.0,random_dot,59.86808664311518,
right,right,speed,,,,,0.0,1.0,1.0,1.0,24.0,0.0,48.0,1.0,380.92836060002446,,,,,,,,,380.91646099998616,381.2782774998341,382.0784288998693,382.0615330999717,382.0615534000098,382.0784288998693,382.0784288998693,382.0784288998693,,382.9631537999958,right,1.0,16.92588200024329,,,,,,,,,,,,,,,,,,,,,,,,,,,,,,sub-186,1.0,random_dot,59.86808664311518,
left,left,speed,,,,,0.0,1.0,1.0,1.0,24.0,1.0,49.0,0.0,382.9771251999773,,,,,,,,,382.96479959995486,383.0770307998173,383.8773727999069,383.8605255999137,383.8605547999032,383.8773727999069,383.8773727999069,383.8773727999069,,384.8611397999339,right,0.0,17.014519300078973,,,,,,,,,,,,,,,,,,,,,,,,,,,,,,sub-186,1.0,random_dot,59.86808664311518,
left,left,speed,,,,,0.0,1.0,1.0,1.0,25.0,0.0,50.0,0.0,384.8759551998228,,,,,,,,,384.8622708998155,384.9757496998645,385.7761941999197,385.75941589986905,385.7594416998327,385.7761941999197,385.7761941999197,385.7761941999197,,386.427412699908,left,1.0,16.680735300062224,,,,,,,,,,,,,,,,,,,,,,,,,,,,,,sub-186,1.0,random_dot,59.86808664311518,
right,right,speed,,,,,0.0,1.0,1.0,1.0,25.0,1.0,51.0,1.0,386.4415122999344,,,,,,,,,386.4288719999604,387.2411904998589,388.0416947000194,388.02469759993255,388.02472319989465,388.0416947000194,388.0416947000194,388.0416947000194,,388.99239020003006,right,1.0,16.992632400244474,,,,,,,,,,,,,,,,,,,,,,,,,,,,,,sub-186,1.0,random_dot,59.86808664311518,
left,left,speed,,,,,0.0,1.0,1.0,1.0,26.0,0.0,52.0,0.0,389.0069289000239,,,,,,,,,388.99319069995545,390.20609889994375,391.006288500037,390.989550499944,390.9895742998924,391.006288500037,391.006288500037,391.006288500037,,391.3075659999158,left,1.0,16.331503299996257,,,,,,,,,,,,,,,,,,,,,,,,,,,,,,sub-186,1.0,random_dot,59.86808664311518,
right,right,speed,,,,,0.0,1.0,1.0,1.0,26.0,1.0,53.0,1.0,391.32194779999554,,,,,,,,,391.3089574999176,392.12157139997,392.9218565998599,392.9051580999512,392.90518539980985,392.9218565998599,392.9218565998599,392.9218565998599,,394.0395743998233,right,1.0,17.151055100141093,,,,,,,,,,,,,,,,,,,,,,,,,,,,,,sub-186,1.0,random_dot,59.86808664311518,
left,left,speed,,,,,0.0,1.0,1.0,1.0,27.0,0.0,54.0,0.0,394.0535631999373,,,,,,,,,394.0411580998916,395.2531975000165,396.05322549981065,396.0363351998385,396.0363578998949,396.05322549981065,396.05322549981065,396.05322549981065,,397.1374076998327,left,1.0,17.12585460022092,,,,,,,,,,,,,,,,,,,,,,,,,,,,,,sub-186,1.0,random_dot,59.86808664311518,
right,right,speed,,,,,0.0,1.0,1.0,1.0,27.0,1.0,55.0,1.0,397.151678299997,,,,,,,,,397.1386068998836,397.9513805999886,398.75173239992,398.73480949993245,398.734825699823,398.75173239992,398.75173239992,398.75173239992,,399.90195810003206,right,1.0,17.18776290025562,,,,,,,,,,,,,,,,,,,,,,,,,,,,,,sub-186,1.0,random_dot,59.86808664311518,
left,left,speed,,,,,0.0,1.0,1.0,1.0,28.0,0.0,56.0,0.0,399.9165794998408,,,,,,,,,399.9029896999709,400.26640409999527,401.0669916998595,401.0498654998373,401.0498865998816,401.0669916998595,401.0669916998595,401.0669916998595,,401.950738399988,left,1.0,16.924033200135455,,,,,,,,,,,,,,,,,,,,,,,,,,,,,,sub-186,1.0,random_dot,59.86808664311518,
right,right,speed,,,,,0.0,1.0,1.0,1.0,28.0,1.0,57.0,1.0,401.9655416999012,,,,,,,,,401.95190229988657,402.0655121000018,402.8657613999676,402.8490567000117,402.849084299989,402.8657613999676,402.8657613999676,402.8657613999676,,404.0331298999954,right,1.0,17.20441640005447,,,,,,,,,,,,,,,,,,,,,,,,,,,,,,sub-186,1.0,random_dot,59.86808664311518,
right,right,speed,,,,,0.0,1.0,1.0,1.0,29.0,0.0,58.0,1.0,404.0473960998934,,,,,,,,,404.03470620000735,404.8471631999128,405.6473665998783,405.63058929983526,405.6306166998111,405.6473665998783,405.6473665998783,405.6473665998783,,407.73080539982766,left,0.0,18.12314330018125,,,,,,,,,,,,,,,,,,,,,,,,,,,,,,sub-186,1.0,random_dot,59.86808664311518,
left,left,speed,,,,,0.0,1.0,1.0,1.0,29.0,1.0,59.0,0.0,407.7454013999086,,,,,,,,,407.73237350001,408.5448584998958,409.3451276998967,409.3283982998692,409.32842129981145,409.3451276998967,409.3451276998967,409.3451276998967,,410.14589779987,left,1.0,16.835455800173804,,,,,,,,,,,,,,,,,,,,,,,,,,,,,,sub-186,1.0,random_dot,59.86808664311518,
,,speed,,,,,0.0,1.0,1.0,1.0,,,,,,,,,,,,,,,,,,,,,,,,,,,,,,,,,,,,,,,,,,,,,,,,,,,,,,,,sub-186,1.0,random_dot,59.86808664311518,
,,,,,,,,,,,,,,,,,,,,,,,,,,,,,,,,,,,,,,,,,,,,,,,,,,,,,,,,,,,,,,,410.1468396999408,410.1606657998637,415.1577037998941,sub-186,,,,
