wordCTK,colorCTK,corrAnsCTK,congruentCTK,thisN,thisTrialN,thisRepN,keyResp_CTK.keys,keyResp_CTK.corr,keyResp_CTK.rt,keyResp_CTK.duration,wordPractice,colorPractice,corrAnsPractice,congruentPractice,respPractice.keys,respPractice.corr,respPractice.rt,respPractice.duration,word,color,corrAns,congruent,keyResp_test_run.keys,keyResp_test_run.corr,keyResp_test_run.rt,keyResp_test_run.duration,trials_CTK.thisRepN,trials_CTK.thisTrialN,trials_CTK.thisN,trials_CTK.thisIndex,trials_practice.thisRepN,trials_practice.thisTrialN,trials_practice.thisN,trials_practice.thisIndex,trials_test.thisRepN,trials_test.thisTrialN,trials_test.thisN,trials_test.thisIndex,thisRow.t,notes,instruction.started,instr_text.started,instr_image.started,instr_resp.started,instruction.stopped,instr_resp.keys,instr_resp.rt,instr_resp.duration,instr_color_to_key.started,instr_ctk.started,resp_ctk.started,instr_color_to_key.stopped,resp_ctk.keys,resp_ctk.rt,resp_ctk.duration,ITI.started,fixcross.started,fixcross.stopped,ITI.stopped,color_to_key_run.started,stimulus_CTK.started,keyResp_CTK.started,color_to_key_run.stopped,trials_CTK.keyResp_CTK.keys,trials_CTK.keyResp_CTK.corr,trials_CTK.keyResp_CTK.rt,trials_CTK.keyResp_CTK.duration,instr_practice.started,instr_practice_text.started,instr_practice_resp.started,instr_practice.stopped,instr_practice_resp.keys,instr_practice_resp.rt,instr_practice_resp.duration,practice_run.started,stimulus_practice.started,respPractice.started,practice_run.stopped,trials_practice.respPractice.keys,trials_practice.respPractice.corr,trials_practice.respPractice.rt,trials_practice.respPractice.duration,feedback.started,textFeedback.started,feedback.stopped,textFeedback.stopped,instr_test.started,instr_test_text.started,instr_test_resp.started,instr_test.stopped,instr_test_resp.keys,instr_test_resp.rt,instr_test_resp.duration,test_run.started,stimulus_test_run.started,keyResp_test_run.started,test_run.stopped,trials_test.keyResp_test_run.keys,trials_test.keyResp_test_run.corr,trials_test.keyResp_test_run.rt,trials_test.keyResp_test_run.duration,goodbye.started,textGoodbye.started,goodbye.stopped,participant,session,expName,frameRate,Unnamed: 112
,,,,,,,,,,,,,,,,,,,,,,,,,,,,,,,,,,,,,,,,,0.0049301999970339,0.112779600021895,0.112779600021895,0.112779600021895,71.2421663000132,space,71.08326980000129,,,,,,,,,,,,,,,,,,,,,,,,,,,,,,,,,,,,,,,,,,,,,,,,,,,,,,,,,,sub-235,1,stroop_test,137.86238853402975,
,,,,,,,,,,,,,,,,,,,,,,,,,,,,,,,,,,,,,,,,,,,,,,,,,71.24240040004952,71.25529790000292,71.25529790000292,75.72309430001769,space,4.463791800022591,,,,,,,,,,,,,,,,,,,,,,,,,,,,,,,,,,,,,,,,,,,,,,,,,,,sub-235,1,stroop_test,137.86238853402975,
test,yellow,g,1.0,0.0,0.0,0.0,g,1.0,23.49678009998752,,,,,,,,,,,,,,,,,,0.0,0.0,0.0,1.0,,,,,,,,,75.76955140003702,,,,,,,,,,,,,,,,,75.76356420002412,76.91974760004086,77.7333220000146,77.71037050004816,77.72535630001221,77.7333220000146,77.7333220000146,101.24380779999774,g,1.0,23.49678009998752,,,,,,,,,,,,,,,,,,,,,,,,,,,,,,,,,,,,,,,sub-235,1,stroop_test,137.86238853402975,
test,blue,b,1.0,1.0,1.0,0.0,b,1.0,3.1159488999983296,,,,,,,,,,,,,,,,,,0.0,1.0,1.0,2.0,,,,,,,,,101.25077700003747,,,,,,,,,,,,,,,,,101.24511690001236,102.0359516000026,102.82718420005403,102.81954740005312,102.82022110000251,102.82718420005403,102.82718420005403,105.94697500002805,b,1.0,3.1159488999983296,,,,,,,,,,,,,,,,,,,,,,,,,,,,,,,,,,,,,,,sub-235,1,stroop_test,137.86238853402975,
test,red,r,1.0,2.0,2.0,0.0,r,1.0,1.2556486999965273,,,,,,,,,,,,,,,,,,0.0,2.0,2.0,0.0,,,,,,,,,105.95780960004775,,,,,,,,,,,,,,,,,105.94785740005318,106.2930513000465,107.08668200002283,107.07776320003904,107.07885430002352,107.08668200002283,107.08668200002283,108.34628930001054,r,1.0,1.2556486999965273,,,,,,,,,,,,,,,,,,,,,,,,,,,,,,,,,,,,,,,sub-235,1,stroop_test,137.86238853402975,
test,yellow,g,1.0,3.0,0.0,1.0,g,1.0,1.41105900000548,,,,,,,,,,,,,,,,,,1.0,0.0,3.0,1.0,,,,,,,,,108.35387440002523,,,,,,,,,,,,,,,,,108.34704200003762,108.6923493000213,109.48615150002296,109.47687210002914,109.47804150002776,109.48615150002296,109.48615150002296,110.90336500003468,g,1.0,1.41105900000548,,,,,,,,,,,,,,,,,,,,,,,,,,,,,,,,,,,,,,,sub-235,1,stroop_test,137.86238853402975,
test,blue,b,1.0,4.0,1.0,1.0,b,1.0,2.4854282999876887,,,,,,,,,,,,,,,,,,1.0,1.0,4.0,2.0,,,,,,,,,110.91069090005476,,,,,,,,,,,,,,,,,110.9041207000264,110.99996060004923,111.79578400001628,111.78518810000968,111.78677000000609,111.79578400001628,111.79578400001628,114.28571790002752,b,1.0,2.4854282999876887,,,,,,,,,,,,,,,,,,,,,,,,,,,,,,,,,,,,,,,sub-235,1,stroop_test,137.86238853402975,
test,red,r,1.0,5.0,2.0,1.0,r,1.0,1.0632407999946736,,,,,,,,,,,,,,,,,,1.0,2.0,5.0,0.0,,,,,,,,,114.2952334000147,,,,,,,,,,,,,,,,,114.28689630003646,114.63267870002892,115.42747740005144,115.41732010000852,115.41866140003548,115.42747740005144,115.42747740005144,116.50038179999684,r,1.0,1.0632407999946736,,,,,,,,,,,,,,,,,,,,,,,,,,,,,,,,,,,,,,,sub-235,1,stroop_test,137.86238853402975,
test,yellow,g,1.0,6.0,0.0,2.0,g,1.0,1.2058170000091195,,,,,,,,,,,,,,,,,,2.0,0.0,6.0,1.0,,,,,,,,,116.50599740003236,,,,,,,,,,,,,,,,,116.50116230000276,117.69814180000684,118.48948840005323,118.48213050002232,118.4831492000376,118.48948840005323,118.48948840005323,119.70191170001635,g,1.0,1.2058170000091195,,,,,,,,,,,,,,,,,,,,,,,,,,,,,,,,,,,,,,,sub-235,1,stroop_test,137.86238853402975,
test,red,r,1.0,7.0,1.0,2.0,r,1.0,1.0387599000241607,,,,,,,,,,,,,,,,,,2.0,1.0,7.0,0.0,,,,,,,,,119.70945540000685,,,,,,,,,,,,,,,,,119.70268450002186,120.04757210001117,120.8428041000152,120.8319935000036,120.8333642000216,120.8428041000152,120.8428041000152,121.89404480002122,r,1.0,1.0387599000241607,,,,,,,,,,,,,,,,,,,,,,,,,,,,,,,,,,,,,,,sub-235,1,stroop_test,137.86238853402975,
test,blue,b,1.0,8.0,2.0,2.0,b,1.0,1.1846368999686092,,,,,,,,,,,,,,,,,,2.0,2.0,8.0,2.0,,,,,,,,,121.90157680003904,,,,,,,,,,,,,,,,,121.8954350000131,122.68841890001204,123.48258560005344,123.47373140003764,123.47486830002164,123.48258560005344,123.48258560005344,124.67402390000645,b,1.0,1.1846368999686092,,,,,,,,,,,,,,,,,,,,,,,,,,,,,,,,,,,,,,,sub-235,1,stroop_test,137.86238853402975,
test,red,r,1.0,9.0,0.0,3.0,r,1.0,1.0142091000452638,,,,,,,,,,,,,,,,,,3.0,0.0,9.0,0.0,,,,,,,,,124.68019090004964,,,,,,,,,,,,,,,,,124.67474190000212,125.87094960000832,126.66557230002944,126.65556820004711,126.65688360005151,126.66557230002944,126.66557230002944,127.68441170000006,r,1.0,1.0142091000452638,,,,,,,,,,,,,,,,,,,,,,,,,,,,,,,,,,,,,,,sub-235,1,stroop_test,137.86238853402975,
test,blue,b,1.0,10.0,1.0,3.0,b,1.0,1.3705624000285752,,,,,,,,,,,,,,,,,,3.0,1.0,10.0,2.0,,,,,,,,,127.691478200024,,,,,,,,,,,,,,,,,127.68524370004889,128.47844130004523,129.27177140000276,129.26318010000978,129.26426040002843,129.27177140000276,129.27177140000276,130.64809900004184,b,1.0,1.3705624000285752,,,,,,,,,,,,,,,,,,,,,,,,,,,,,,,,,,,,,,,sub-235,1,stroop_test,137.86238853402975,
test,yellow,g,1.0,11.0,2.0,3.0,g,1.0,1.0740090000326743,,,,,,,,,,,,,,,,,,3.0,2.0,11.0,1.0,,,,,,,,,130.65633320005145,,,,,,,,,,,,,,,,,130.64920390001498,130.99484600004507,131.78936789999716,131.77955980005208,131.78080970002338,131.78936789999716,131.78936789999716,132.87945230002515,g,1.0,1.0740090000326743,,,,,,,,,,,,,,,,,,,,,,,,,,,,,,,,,,,,,,,sub-235,1,stroop_test,137.86238853402975,
,,,,,,,,,,,,,,,,,,,,,,,,,,,,,,,,,,,,,,,,,,,,,,,,,,,,,,,,,,,,,,,,,,,,132.87999139999738,132.89244580001105,132.89244580001105,140.0106355000171,space,7.115116100001615,,,,,,,,,,,,,,,,,,,,,,,,,,,,,,,,sub-235,1,stroop_test,137.86238853402975,
,,,,0.0,0.0,0.0,,,,,rot,yellow,g,0.0,g,1.0,1.8915577000007036,,,,,,,,,,,,,,0.0,0.0,0.0,3.0,,,,,140.05590680002933,,,,,,,,,,,,,,,,,140.0472434000112,140.1086772000417,140.91862830001628,140.8933869000175,,,,,,,,,,,,,,,,140.90874920005444,140.91862830001628,140.91862830001628,142.81927180005005,g,1.0,1.8915577000007036,,142.84159280004678,142.85416640003675,143.82429400004912,,,,,,,,,,,,,,,,,,,,sub-235,1,stroop_test,137.86238853402975,
,,,,1.0,1.0,0.0,,,,,gelb,yellow,g,1.0,g,1.0,1.2448001999873668,,,,,,,,,,,,,,0.0,1.0,1.0,10.0,,,,,143.8322447000537,,,,,,,,,,,,,,,,,143.82481970003573,144.6157102000434,145.4194422000437,145.39959929999895,,,,,,,,,,,,,,,,145.41121670004213,145.4194422000437,145.4194422000437,146.66985210002167,g,1.0,1.2448001999873668,,146.67160920001334,146.6838447000482,147.67326609999873,,,,,,,,,,,,,,,,,,,,sub-235,1,stroop_test,137.86238853402975,
,,,,2.0,2.0,0.0,,,,,rot,blue,b,0.0,b,1.0,1.1601133000222037,,,,,,,,,,,,,,0.0,2.0,2.0,2.0,,,,,147.6811995000462,,,,,,,,,,,,,,,,,147.67388910002774,147.76448900002288,148.55975220003165,148.5484892000095,,,,,,,,,,,,,,,,148.5534236000385,148.55975220003165,148.55975220003165,149.72377900005085,b,1.0,1.1601133000222037,,149.724517500028,149.73260580003262,150.72375260002443,150.73058890004177,,,,,,,,,,,,,,,,,,,sub-235,1,stroop_test,137.86238853402975,
,,,,3.0,3.0,0.0,,,,,gelb,yellow,g,1.0,g,1.0,1.1754935999633744,,,,,,,,,,,,,,0.0,3.0,3.0,11.0,,,,,150.73058890004177,,,,,,,,,,,,,,,,,150.7245882000425,150.8225572000374,151.61752390000038,151.60615190002136,,,,,,,,,,,,,,,,151.6117747000535,151.61752390000038,151.61752390000038,152.79799620003905,g,1.0,1.1754935999633744,,152.79862050001975,152.80490650003776,153.7897378000198,153.7965032000211,,,,,,,,,,,,,,,,,,,sub-235,1,stroop_test,137.86238853402975,
,,,,4.0,4.0,0.0,,,,,blau,yellow,g,0.0,g,1.0,1.1876356999855489,,,,,,,,,,,,,,0.0,4.0,4.0,7.0,,,,,153.7965032000211,,,,,,,,,,,,,,,,,153.79047810001066,154.9962203000323,155.80562390002888,155.78062330000105,,,,,,,,,,,,,,,,155.7951450000401,155.80562390002888,155.80562390002888,156.9986637000111,g,1.0,1.1876356999855489,,156.9998331000097,157.0086417000275,157.99704980000388,158.00372950005112,,,,,,,,,,,,,,,,,,,sub-235,1,stroop_test,137.86238853402975,
,,,,5.0,5.0,0.0,,,,,gelb,blue,b,0.0,b,1.0,1.4099376000231132,,,,,,,,,,,,,,0.0,5.0,5.0,9.0,,,,,158.00372950005112,,,,,,,,,,,,,,,,,157.99782060005236,158.3453055000282,159.15208600001642,159.13018630002625,,,,,,,,,,,,,,,,159.1411127000465,159.15208600001642,159.15208600001642,160.56579990003956,b,1.0,1.4099376000231132,,160.56703120004386,160.58005650003906,161.569968900003,,,,,,,,,,,,,,,,,,,,sub-235,1,stroop_test,137.86238853402975,
,,,,6.0,6.0,0.0,,,,,blau,blue,b,1.0,b,1.0,1.464821400004439,,,,,,,,,,,,,,0.0,6.0,6.0,6.0,,,,,161.57782430003863,,,,,,,,,,,,,,,,,161.57073700003093,161.91104790003735,162.71269690000918,162.69572090002475,,,,,,,,,,,,,,,,162.70388370001456,162.71269690000918,162.71269690000918,164.18146930000512,b,1.0,1.464821400004439,,164.18289370002458,164.19324880000204,165.17813070002012,165.18504400004167,,,,,,,,,,,,,,,,,,,sub-235,1,stroop_test,137.86238853402975,
,,,,7.0,7.0,0.0,,,,,blau,red,r,0.0,r,1.0,1.3714175999630245,,,,,,,,,,,,,,0.0,7.0,7.0,4.0,,,,,165.18504400004167,,,,,,,,,,,,,,,,,165.17883250000887,165.97616350004682,166.7704404000542,166.76123810000718,,,,,,,,,,,,,,,,166.76241090003168,166.7704404000542,166.7704404000542,168.14694370003417,r,1.0,1.3714175999630245,,168.14901150000514,168.16282510000747,169.1512350999983,,,,,,,,,,,,,,,,,,,,sub-235,1,stroop_test,137.86238853402975,
,,,,8.0,8.0,0.0,,,,,rot,red,r,1.0,r,1.0,1.041797799989581,,,,,,,,,,,,,,0.0,8.0,8.0,0.0,,,,,169.15882160002366,,,,,,,,,,,,,,,,,169.15196820005076,169.24262950004777,170.03590870002515,170.02605000004405,,,,,,,,,,,,,,,,170.0302066000295,170.03590870002515,170.03590870002515,171.0841699000448,r,1.0,1.041797799989581,,171.0858881000313,171.10140890005275,172.09223250002833,,,,,,,,,,,,,,,,,,,,sub-235,1,stroop_test,137.86238853402975,
,,,,9.0,9.0,0.0,,,,,blau,blue,b,1.0,b,1.0,1.834339799999725,,,,,,,,,,,,,,0.0,9.0,9.0,5.0,,,,,172.09985590004362,,,,,,,,,,,,,,,,,172.09352220001165,173.28273180004908,174.08426360000158,174.0675170000177,,,,,,,,,,,,,,,,174.07509290002054,174.08426360000158,174.08426360000158,175.92701220000163,b,1.0,1.834339799999725,,175.9283035999979,175.9384591000271,176.92514070001198,176.9318044000538,,,,,,,,,,,,,,,,,,,sub-235,1,stroop_test,137.86238853402975,
,,,,10.0,10.0,0.0,,,,,rot,red,r,1.0,r,1.0,1.2833867999725044,,,,,,,,,,,,,,0.0,10.0,10.0,1.0,,,,,176.9318044000538,,,,,,,,,,,,,,,,,176.92592970002443,178.12321670004167,178.9259313000366,178.90808610001113,,,,,,,,,,,,,,,,178.91619860002538,178.9259313000366,178.9259313000366,180.2202610000386,r,1.0,1.2833867999725044,,180.2220045000431,180.2338701999979,181.222736500029,,,,,,,,,,,,,,,,,,,,sub-235,1,stroop_test,137.86238853402975,
,,,,11.0,11.0,0.0,,,,,gelb,red,r,0.0,r,1.0,1.0848545000189915,,,,,,,,,,,,,,0.0,11.0,11.0,8.0,,,,,181.2306336000329,,,,,,,,,,,,,,,,,181.22349570004732,182.0138466000208,182.81206530000784,182.7974340000073,,,,,,,,,,,,,,,,182.8047834000317,182.81206530000784,182.81206530000784,183.9014964000089,r,1.0,1.0848545000189915,,183.90312080003787,183.91390949999916,184.89763770002173,184.90457850001985,,,,,,,,,,,,,,,,,,,sub-235,1,stroop_test,137.86238853402975,
,,,,12.0,0.0,1.0,,,,,rot,red,r,1.0,r,1.0,1.082586699980311,,,,,,,,,,,,,,1.0,0.0,12.0,1.0,,,,,184.90457850001985,,,,,,,,,,,,,,,,,184.89831830002367,186.0959890000522,186.8891513000126,186.87958710000385,,,,,,,,,,,,,,,,186.88369770004647,186.8891513000126,186.8891513000126,187.98382140003375,r,1.0,1.082586699980311,,187.9855757000041,187.99604370002635,188.98054650000995,188.9868257000344,,,,,,,,,,,,,,,,,,,sub-235,1,stroop_test,137.86238853402975,
,,,,13.0,1.0,1.0,,,,,blau,blue,b,1.0,b,1.0,1.6164791000192054,,,,,,,,,,,,,,1.0,1.0,13.0,5.0,,,,,188.9868257000344,,,,,,,,,,,,,,,,,188.98211390001237,189.32841509999707,190.13060440000845,190.11327960004564,,,,,,,,,,,,,,,,190.121313700045,190.13060440000845,190.13060440000845,191.76178310002436,b,1.0,1.6164791000192054,,191.76345389999915,191.77723780000812,192.762981900014,192.7694236000534,,,,,,,,,,,,,,,,,,,sub-235,1,stroop_test,137.86238853402975,
,,,,14.0,2.0,1.0,,,,,gelb,red,r,0.0,r,1.0,1.535988499992527,,,,,,,,,,,,,,1.0,2.0,14.0,8.0,,,,,192.7694236000534,,,,,,,,,,,,,,,,,192.7642623000429,193.56054960004985,194.36743440001737,194.34596450004028,,,,,,,,,,,,,,,,194.3559458000236,194.36743440001737,194.36743440001737,195.9099363000132,r,1.0,1.535988499992527,,195.91180570004508,195.92580680001996,196.9110566000454,196.91782430000603,,,,,,,,,,,,,,,,,,,sub-235,1,stroop_test,137.86238853402975,
,,,,15.0,3.0,1.0,,,,,blau,yellow,g,0.0,g,1.0,1.423579599999357,,,,,,,,,,,,,,1.0,3.0,15.0,7.0,,,,,196.91782430000603,,,,,,,,,,,,,,,,,196.9118910999969,197.70101290004092,198.5055177000468,198.4859804000007,,,,,,,,,,,,,,,,198.4955656000529,198.5055177000468,198.5055177000468,199.9350012000068,g,1.0,1.423579599999357,,199.93649890000236,199.95076269999845,200.9350917999982,200.94215360004452,,,,,,,,,,,,,,,,,,,sub-235,1,stroop_test,137.86238853402975,
,,,,16.0,4.0,1.0,,,,,blau,blue,b,1.0,b,1.0,1.3422470999648797,,,,,,,,,,,,,,1.0,4.0,16.0,6.0,,,,,200.94215360004452,,,,,,,,,,,,,,,,,200.9357946000528,201.03346510004485,201.8285277000396,201.81834820000225,,,,,,,,,,,,,,,,201.8200022000237,201.8285277000396,201.8285277000396,203.17784970003413,b,1.0,1.3422470999648797,,203.1792598000029,203.1917434000061,204.17580389999785,204.1826657000347,,,,,,,,,,,,,,,,,,,sub-235,1,stroop_test,137.86238853402975,
,,,,17.0,5.0,1.0,,,,,rot,red,r,1.0,r,1.0,1.123176799970679,,,,,,,,,,,,,,1.0,5.0,17.0,0.0,,,,,204.1826657000347,,,,,,,,,,,,,,,,,204.17650870000944,205.37386350001907,206.1744147000136,206.15879710001167,,,,,,,,,,,,,,,,206.16584400000283,206.1744147000136,206.1744147000136,207.3014648000244,r,1.0,1.123176799970679,,207.30264870001704,207.31224170001224,208.29977360001067,208.306408000004,,,,,,,,,,,,,,,,,,,sub-235,1,stroop_test,137.86238853402975,
,,,,18.0,6.0,1.0,,,,,gelb,yellow,g,1.0,g,1.0,1.1718128999928012,,,,,,,,,,,,,,1.0,6.0,18.0,10.0,,,,,208.306408000004,,,,,,,,,,,,,,,,,208.3007414000458,208.64798460004383,209.44069800002035,209.43149300001096,,,,,,,,,,,,,,,,209.43543340003816,209.44069800002035,209.44069800002035,210.6195185999968,g,1.0,1.1718128999928012,,210.62171200005105,210.63128790003248,211.61538040003504,211.62238240003356,,,,,,,,,,,,,,,,,,,sub-235,1,stroop_test,137.86238853402975,
,,,,19.0,7.0,1.0,,,,,blau,red,r,0.0,r,1.0,1.2718618999933824,,,,,,,,,,,,,,1.0,7.0,19.0,4.0,,,,,211.62238240003356,,,,,,,,,,,,,,,,,211.616162899998,212.81350060005207,213.61667590000437,213.59805270005015,,,,,,,,,,,,,,,,213.60793040000132,213.61667590000437,213.61667590000437,214.893317900016,r,1.0,1.2718618999933824,,214.89517440000785,214.90667450003093,215.89628240000457,,,,,,,,,,,,,,,,,,,,sub-235,1,stroop_test,137.86238853402975,
,,,,20.0,8.0,1.0,,,,,gelb,blue,b,0.0,b,1.0,1.2959324999828823,,,,,,,,,,,,,,1.0,8.0,20.0,9.0,,,,,215.9042695000535,,,,,,,,,,,,,,,,,215.8970432000351,216.23759390000487,217.04495030001272,217.0220983000472,,,,,,,,,,,,,,,,217.0337268000003,217.04495030001272,217.04495030001272,218.34811620000983,b,1.0,1.2959324999828823,,218.34935510001375,218.36145810002927,219.34548260003797,219.35305160004648,,,,,,,,,,,,,,,,,,,sub-235,1,stroop_test,137.86238853402975,
,,,,21.0,9.0,1.0,,,,,rot,yellow,g,0.0,g,1.0,3.020196900004521,,,,,,,,,,,,,,1.0,9.0,21.0,3.0,,,,,219.35305160004648,,,,,,,,,,,,,,,,,219.34583930001827,220.54478960001143,221.34566550003365,221.32923170004503,,,,,,,,,,,,,,,,221.3363709000405,221.34566550003365,221.34566550003365,224.3723034000141,g,1.0,3.020196900004521,,224.37362440000288,224.38401860004524,225.3702384000062,225.37671630003024,,,,,,,,,,,,,,,,,,,sub-235,1,stroop_test,137.86238853402975,
,,,,22.0,10.0,1.0,,,,,rot,blue,b,0.0,b,1.0,1.1699026999995112,,,,,,,,,,,,,,1.0,10.0,22.0,2.0,,,,,225.37671630003024,,,,,,,,,,,,,,,,,225.3710676000337,226.1683612000197,226.9634011000162,226.9529351000092,,,,,,,,,,,,,,,,226.95461870002327,226.9634011000162,226.9634011000162,228.1392232000362,b,1.0,1.1699026999995112,,228.1405963000143,228.15000740002145,229.13547830004245,229.1424097000272,,,,,,,,,,,,,,,,,,,sub-235,1,stroop_test,137.86238853402975,
,,,,23.0,11.0,1.0,,,,,gelb,yellow,g,1.0,g,1.0,1.528165200026706,,,,,,,,,,,,,,1.0,11.0,23.0,11.0,,,,,229.1424097000272,,,,,,,,,,,,,,,,,229.1361838000012,229.4839024000103,230.28661320003448,230.2684534,,,,,,,,,,,,,,,,230.27716950001195,230.28661320003448,230.28661320003448,231.83064880000893,g,1.0,1.528165200026706,,231.83189530001252,231.8415486000013,232.82674230000703,232.83939259999897,,,,,,,,,,,,,,,,,,,sub-235,1,stroop_test,137.86238853402975,
,,,,,,,,,,,,,,,,,,,,,,,,,,,,,,,,,,,,,,,,,,,,,,,,,,,,,,,,,,,,,,,,,,,,,,,,,,,,,,,,,,,,,,,232.8270776999998,232.83939259999897,232.83939259999897,235.75935639999807,space,2.914474500052165,,,,,,,,,,,,,sub-235,1,stroop_test,137.86238853402975,
,,,,0.0,0.0,0.0,,,,,,,,,,,,,blau,red,r,0.0,r,1.0,1.5251240999787117,,,,,,,,,,0.0,0.0,0.0,4.0,235.80075580003904,,,,,,,,,,,,,,,,,235.79370800004108,235.8571092000348,236.6625805000076,236.64181950001512,,,,,,,,,,,,,,,,,,,,,,,,,,,,,,,,,,,236.6533016000176,236.6625805000076,236.6625805000076,238.19287460000487,r,1.0,1.5251240999787117,,,,,sub-235,1,stroop_test,137.86238853402975,
,,,,1.0,1.0,0.0,,,,,,,,,,,,,gelb,yellow,g,1.0,g,1.0,1.0384359000017866,,,,,,,,,,0.0,1.0,1.0,10.0,238.20097510004416,,,,,,,,,,,,,,,,,238.1937625000137,238.5398607000243,239.3443342000246,239.32425430003784,,,,,,,,,,,,,,,,,,,,,,,,,,,,,,,,,,,239.3356019000057,239.3443342000246,239.3443342000246,240.39041940000607,g,1.0,1.0384359000017866,,,,,sub-235,1,stroop_test,137.86238853402975,
,,,,2.0,2.0,0.0,,,,,,,,,,,,,rot,blue,b,0.0,b,1.0,1.016823799989652,,,,,,,,,,0.0,2.0,2.0,2.0,240.3972176000243,,,,,,,,,,,,,,,,,240.39103290002092,240.4892184000346,241.2947701000376,241.27444720000491,,,,,,,,,,,,,,,,,,,,,,,,,,,,,,,,,,,241.28369530005148,241.2947701000376,241.2947701000376,242.3168956000009,b,1.0,1.016823799989652,,,,,sub-235,1,stroop_test,137.86238853402975,
,,,,3.0,3.0,0.0,,,,,,,,,,,,,gelb,blue,b,0.0,b,1.0,1.0385417999932542,,,,,,,,,,0.0,3.0,3.0,9.0,242.32634570001392,,,,,,,,,,,,,,,,,242.3178678000113,242.4137893000152,243.21521950000897,243.1981850000448,,,,,,,,,,,,,,,,,,,,,,,,,,,,,,,,,,,243.2062587000546,243.21521950000897,243.21521950000897,244.2645521000377,b,1.0,1.0385417999932542,,,,,sub-235,1,stroop_test,137.86238853402975,
,,,,4.0,4.0,0.0,,,,,,,,,,,,,rot,yellow,g,0.0,g,1.0,1.3943728999583982,,,,,,,,,,0.0,4.0,4.0,3.0,244.27101320005025,,,,,,,,,,,,,,,,,244.2654017000459,245.46309880004264,246.2663670000038,246.24792520003396,,,,,,,,,,,,,,,,,,,,,,,,,,,,,,,,,,,246.25680620002092,246.2663670000038,246.2663670000038,247.6662789999973,g,1.0,1.3943728999583982,,,,,sub-235,1,stroop_test,137.86238853402975,
,,,,5.0,5.0,0.0,,,,,,,,,,,,,gelb,yellow,g,1.0,g,1.0,0.8628769000060856,,,,,,,,,,0.0,5.0,5.0,11.0,247.67324230005036,,,,,,,,,,,,,,,,,247.66711740003663,248.4619349000277,249.26412710000292,249.2465877000359,,,,,,,,,,,,,,,,,,,,,,,,,,,,,,,,,,,249.25525410001865,249.26412710000292,249.26412710000292,250.13221930002328,g,1.0,0.8628769000060856,,,,,sub-235,1,stroop_test,137.86238853402975,
,,,,6.0,6.0,0.0,,,,,,,,,,,,,rot,red,r,1.0,r,1.0,0.9081450999947264,,,,,,,,,,0.0,6.0,6.0,1.0,250.141626800003,,,,,,,,,,,,,,,,,250.13313090003797,250.4781151000061,251.49320570001143,251.474735900003,,,,,,,,,,,,,,,,,,,,,,,,,,,,,,,,,,,251.4842948000296,251.49320570001143,251.49320570001143,252.40440290002152,r,1.0,0.9081450999947264,,,,,sub-235,1,stroop_test,137.86238853402975,
,,,,7.0,7.0,0.0,,,,,,,,,,,,,blau,blue,b,1.0,b,1.0,0.9678202000213788,,,,,,,,,,0.0,7.0,7.0,6.0,252.4105536999996,,,,,,,,,,,,,,,,,252.405063000042,252.50220630003605,253.2997374000261,253.28646890004163,,,,,,,,,,,,,,,,,,,,,,,,,,,,,,,,,,,253.2936381000327,253.2997374000261,253.2997374000261,254.27107310004067,b,1.0,0.9678202000213788,,,,,sub-235,1,stroop_test,137.86238853402975,
,,,,8.0,8.0,0.0,,,,,,,,,,,,,blau,blue,b,1.0,b,1.0,0.7920398999704048,,,,,,,,,,0.0,8.0,8.0,5.0,254.27843000000576,,,,,,,,,,,,,,,,,254.27201180002885,255.46842859999745,256.26288940000813,256.2528998000198,,,,,,,,,,,,,,,,,,,,,,,,,,,,,,,,,,,256.25432370003546,256.26288940000813,256.26288940000813,257.0630477000377,b,1.0,0.7920398999704048,,,,,sub-235,1,stroop_test,137.86238853402975,
,,,,9.0,9.0,0.0,,,,,,,,,,,,,gelb,red,r,0.0,r,1.0,0.959310199948959,,,,,,,,,,0.0,9.0,9.0,8.0,257.06963120005094,,,,,,,,,,,,,,,,,257.06392000004416,257.409407500003,258.20481460000155,258.1931294000242,,,,,,,,,,,,,,,,,,,,,,,,,,,,,,,,,,,258.19849500001874,258.20481460000155,258.20481460000155,259.17047960002674,r,1.0,0.959310199948959,,,,,sub-235,1,stroop_test,137.86238853402975,
,,,,10.0,10.0,0.0,,,,,,,,,,,,,blau,yellow,g,0.0,g,1.0,0.9448849000036716,,,,,,,,,,0.0,10.0,10.0,7.0,259.17740900005447,,,,,,,,,,,,,,,,,259.1713348000194,259.5173277000431,260.319652300037,260.30197540001245,,,,,,,,,,,,,,,,,,,,,,,,,,,,,,,,,,,260.31094450003,260.319652300037,260.319652300037,261.2701207000064,g,1.0,0.9448849000036716,,,,,sub-235,1,stroop_test,137.86238853402975,
,,,,11.0,11.0,0.0,,,,,,,,,,,,,rot,red,r,1.0,r,1.0,0.9772665000054984,,,,,,,,,,0.0,11.0,11.0,0.0,261.27952310000546,,,,,,,,,,,,,,,,,261.2714244000381,261.3667284999974,262.16837090003537,262.1519373000483,,,,,,,,,,,,,,,,,,,,,,,,,,,,,,,,,,,262.1596031000372,262.16837090003537,262.16837090003537,263.15276900003664,r,1.0,0.9772665000054984,,,,,sub-235,1,stroop_test,137.86238853402975,
,,,,12.0,0.0,1.0,,,,,,,,,,,,,gelb,red,r,0.0,r,1.0,1.230075899977237,,,,,,,,,,1.0,0.0,12.0,8.0,263.1598484000424,,,,,,,,,,,,,,,,,263.15358550002566,263.2495539000374,264.0542730000452,264.0342155000544,,,,,,,,,,,,,,,,,,,,,,,,,,,,,,,,,,,264.04410600004485,264.0542730000452,264.0542730000452,265.29280560003826,r,1.0,1.230075899977237,,,,,sub-235,1,stroop_test,137.86238853402975,
,,,,13.0,1.0,1.0,,,,,,,,,,,,,rot,yellow,g,0.0,g,1.0,1.2511776000028476,,,,,,,,,,1.0,1.0,13.0,3.0,265.2987070000381,,,,,,,,,,,,,,,,,265.2936270000064,266.4903930000146,267.2922917000251,267.275251700019,,,,,,,,,,,,,,,,,,,,,,,,,,,,,,,,,,,267.28297660005046,267.2922917000251,267.2922917000251,268.5508260000497,g,1.0,1.2511776000028476,,,,,sub-235,1,stroop_test,137.86238853402975,
,,,,14.0,2.0,1.0,,,,,,,,,,,,,rot,blue,b,0.0,b,1.0,0.8227630000328645,,,,,,,,,,1.0,2.0,14.0,2.0,268.560842100007,,,,,,,,,,,,,,,,,268.55165180005133,268.6480888000224,269.4434575000196,269.4329915000126,,,,,,,,,,,,,,,,,,,,,,,,,,,,,,,,,,,269.4346812000149,269.4434575000196,269.4434575000196,270.27476880000904,b,1.0,0.8227630000328645,,,,,sub-235,1,stroop_test,137.86238853402975,
,,,,15.0,3.0,1.0,,,,,,,,,,,,,gelb,blue,b,0.0,b,1.0,0.7091104999999516,,,,,,,,,,1.0,3.0,15.0,9.0,270.2805527000455,,,,,,,,,,,,,,,,,270.27523600001587,270.6226094000158,271.42898370005423,271.40725270000985,,,,,,,,,,,,,,,,,,,,,,,,,,,,,,,,,,,271.41815080004744,271.42898370005423,271.42898370005423,272.14083630003734,b,1.0,0.7091104999999516,,,,,sub-235,1,stroop_test,137.86238853402975,
,,,,16.0,4.0,1.0,,,,,,,,,,,,,rot,red,r,1.0,r,1.0,0.8810232999967411,,,,,,,,,,1.0,4.0,16.0,1.0,272.1467947000056,,,,,,,,,,,,,,,,,272.1414883999969,272.4886795000057,273.2934901000117,273.2735221000039,,,,,,,,,,,,,,,,,,,,,,,,,,,,,,,,,,,273.28310749999946,273.2934901000117,273.2934901000117,274.19054330000654,r,1.0,0.8810232999967411,,,,,sub-235,1,stroop_test,137.86238853402975,
,,,,17.0,5.0,1.0,,,,,,,,,,,,,blau,red,r,0.0,r,1.0,1.2594648000085726,,,,,,,,,,1.0,5.0,17.0,4.0,274.19779950001976,,,,,,,,,,,,,,,,,274.1914559000288,274.53798170003574,275.3479843000532,275.32312830002047,,,,,,,,,,,,,,,,,,,,,,,,,,,,,,,,,,,275.33943430002546,275.3479843000532,275.3479843000532,276.6180571000441,r,1.0,1.2594648000085726,,,,,sub-235,1,stroop_test,137.86238853402975,
,,,,18.0,6.0,1.0,,,,,,,,,,,,,gelb,yellow,g,1.0,g,1.0,0.8485647999914363,,,,,,,,,,1.0,6.0,18.0,10.0,276.6238999000052,,,,,,,,,,,,,,,,,276.6192925000214,276.96257850003894,277.7660371000529,277.7472441000282,,,,,,,,,,,,,,,,,,,,,,,,,,,,,,,,,,,277.75525980000384,277.7660371000529,277.7660371000529,278.6292260000482,g,1.0,0.8485647999914363,,,,,sub-235,1,stroop_test,137.86238853402975,
,,,,19.0,7.0,1.0,,,,,,,,,,,,,blau,yellow,g,0.0,g,1.0,1.0760303999995813,,,,,,,,,,1.0,7.0,19.0,7.0,278.63712720002513,,,,,,,,,,,,,,,,,278.6300292000524,278.72360360005405,279.5345477000228,279.51374500000384,,,,,,,,,,,,,,,,,,,,,,,,,,,,,,,,,,,279.52390000002924,279.5345477000228,279.5345477000228,280.6132137000095,g,1.0,1.0760303999995813,,,,,sub-235,1,stroop_test,137.86238853402975,
,,,,20.0,8.0,1.0,,,,,,,,,,,,,blau,blue,b,1.0,b,1.0,1.0008440000237897,,,,,,,,,,1.0,8.0,20.0,6.0,280.619468400022,,,,,,,,,,,,,,,,,280.6137133000302,280.71114850003505,281.506735700008,281.49615550000453,,,,,,,,,,,,,,,,,,,,,,,,,,,,,,,,,,,281.497422000044,281.506735700008,281.506735700008,282.5114419000456,b,1.0,1.0008440000237897,,,,,sub-235,1,stroop_test,137.86238853402975,
,,,,21.0,9.0,1.0,,,,,,,,,,,,,blau,blue,b,1.0,b,1.0,0.7380825000000186,,,,,,,,,,1.0,9.0,21.0,5.0,282.51801090000663,,,,,,,,,,,,,,,,,282.5121188000194,282.60239190002903,283.4009220000007,283.38783580000745,,,,,,,,,,,,,,,,,,,,,,,,,,,,,,,,,,,283.38914260000456,283.4009220000007,283.4009220000007,284.14490190002834,b,1.0,0.7380825000000186,,,,,sub-235,1,stroop_test,137.86238853402975,
,,,,22.0,10.0,1.0,,,,,,,,,,,,,gelb,yellow,g,1.0,g,1.0,0.99767349998001,,,,,,,,,,1.0,10.0,22.0,11.0,284.1553957000142,,,,,,,,,,,,,,,,,284.1457134000375,284.94357090000995,285.749433500052,285.7280818000436,,,,,,,,,,,,,,,,,,,,,,,,,,,,,,,,,,,285.73738280002726,285.749433500052,285.749433500052,286.75421250000363,g,1.0,0.99767349998001,,,,,sub-235,1,stroop_test,137.86238853402975,
,,,,23.0,11.0,1.0,,,,,,,,,,,,,rot,red,r,1.0,r,1.0,0.9381317000370472,,,,,,,,,,1.0,11.0,23.0,0.0,286.7611250000191,,,,,,,,,,,,,,,,,286.7550270000356,286.8514311000472,287.6519119000295,287.6360437000403,,,,,,,,,,,,,,,,,,,,,,,,,,,,,,,,,,,287.6438296000124,287.6519119000295,287.6519119000295,288.59555680002086,r,1.0,0.9381317000370472,,,,,sub-235,1,stroop_test,137.86238853402975,
,,,,24.0,0.0,2.0,,,,,,,,,,,,,gelb,blue,b,0.0,b,1.0,0.8382936000125483,,,,,,,,,,2.0,0.0,24.0,9.0,288.602724700002,,,,,,,,,,,,,,,,,288.59644970000954,288.9425600999966,289.7466377000092,289.7271156000206,,,,,,,,,,,,,,,,,,,,,,,,,,,,,,,,,,,289.73687439999776,289.7466377000092,289.7466377000092,290.5968134000432,b,1.0,0.8382936000125483,,,,,sub-235,1,stroop_test,137.86238853402975,
,,,,25.0,1.0,2.0,,,,,,,,,,,,,gelb,yellow,g,1.0,g,1.0,0.9776283000246622,,,,,,,,,,2.0,1.0,25.0,10.0,290.6029707000125,,,,,,,,,,,,,,,,,290.5978001000476,290.69194530003006,291.4861499000108,291.4766759000486,,,,,,,,,,,,,,,,,,,,,,,,,,,,,,,,,,,291.4778057000367,291.4861499000108,291.4861499000108,292.46916750003584,g,1.0,0.9776283000246622,,,,,sub-235,1,stroop_test,137.86238853402975,
,,,,26.0,2.0,2.0,,,,,,,,,,,,,rot,red,r,1.0,r,1.0,0.9729045000276528,,,,,,,,,,2.0,2.0,26.0,0.0,292.47545760002686,,,,,,,,,,,,,,,,,292.4700012000394,292.81607450003503,293.6193820000044,293.6010476000374,,,,,,,,,,,,,,,,,,,,,,,,,,,,,,,,,,,293.6086987000308,293.6193820000044,293.6193820000044,294.6036013000412,r,1.0,0.9729045000276528,,,,,sub-235,1,stroop_test,137.86238853402975,
,,,,27.0,3.0,2.0,,,,,,,,,,,,,rot,yellow,g,0.0,g,1.0,1.2715270000044256,,,,,,,,,,2.0,3.0,27.0,3.0,294.61006880004425,,,,,,,,,,,,,,,,,294.6045970999985,295.7989767000545,296.5967681000475,296.5840726000024,,,,,,,,,,,,,,,,,,,,,,,,,,,,,,,,,,,296.58571670000674,296.5967681000475,296.5967681000475,297.8828268000507,g,1.0,1.2715270000044256,,,,,sub-235,1,stroop_test,137.86238853402975,
,,,,28.0,4.0,2.0,,,,,,,,,,,,,blau,yellow,g,0.0,g,1.0,0.9608645999687724,,,,,,,,,,2.0,4.0,28.0,7.0,297.89051180001115,,,,,,,,,,,,,,,,,297.88383100001374,298.23159200005466,299.0250893000048,299.0153226000257,,,,,,,,,,,,,,,,,,,,,,,,,,,,,,,,,,,299.019284900045,299.0250893000048,299.0250893000048,299.9924051000271,g,1.0,0.9608645999687724,,,,,sub-235,1,stroop_test,137.86238853402975,
,,,,29.0,5.0,2.0,,,,,,,,,,,,,blau,blue,b,1.0,b,1.0,0.8825580999837257,,,,,,,,,,2.0,5.0,29.0,5.0,300.0031394000398,,,,,,,,,,,,,,,,,299.9932918000268,300.08947050001007,300.880667200021,300.8728404000285,,,,,,,,,,,,,,,,,,,,,,,,,,,,,,,,,,,300.8733864000533,300.880667200021,300.880667200021,301.77179190004244,b,1.0,0.8825580999837257,,,,,sub-235,1,stroop_test,137.86238853402975,
,,,,30.0,6.0,2.0,,,,,,,,,,,,,blau,blue,b,1.0,b,1.0,0.7979764999472536,,,,,,,,,,2.0,6.0,30.0,6.0,301.785380300018,,,,,,,,,,,,,,,,,301.7731782000046,302.9634050000459,303.7589475000277,303.74881440005265,,,,,,,,,,,,,,,,,,,,,,,,,,,,,,,,,,,303.7501517000492,303.7589475000277,303.7589475000277,304.5622361000278,b,1.0,0.7979764999472536,,,,,sub-235,1,stroop_test,137.86238853402975,
,,,,31.0,7.0,2.0,,,,,,,,,,,,,gelb,red,r,0.0,r,1.0,0.9822908000205643,,,,,,,,,,2.0,7.0,31.0,8.0,304.56821130000753,,,,,,,,,,,,,,,,,304.5629885000526,305.35413880000124,306.1602729000151,306.13924350001616,,,,,,,,,,,,,,,,,,,,,,,,,,,,,,,,,,,306.14994840003783,306.1602729000151,306.1602729000151,307.14755180000793,r,1.0,0.9822908000205643,,,,,sub-235,1,stroop_test,137.86238853402975,
,,,,32.0,8.0,2.0,,,,,,,,,,,,,blau,red,r,0.0,r,1.0,0.9210135000175796,,,,,,,,,,2.0,8.0,32.0,4.0,307.1537153000245,,,,,,,,,,,,,,,,,307.1482916000532,307.9455404000473,308.7457644000533,308.7300725000096,,,,,,,,,,,,,,,,,,,,,,,,,,,,,,,,,,,308.7371731000021,308.7457644000533,308.7457644000533,309.68996170000173,r,1.0,0.9210135000175796,,,,,sub-235,1,stroop_test,137.86238853402975,
,,,,33.0,9.0,2.0,,,,,,,,,,,,,gelb,yellow,g,1.0,g,1.0,0.8837179000256583,,,,,,,,,,2.0,9.0,33.0,11.0,309.6983293000376,,,,,,,,,,,,,,,,,309.6908500000136,310.8864093000302,311.6939508000505,311.67199550004443,,,,,,,,,,,,,,,,,,,,,,,,,,,,,,,,,,,311.6838138000457,311.6939508000505,311.6939508000505,312.58287660003407,g,1.0,0.8837179000256583,,,,,sub-235,1,stroop_test,137.86238853402975,
,,,,34.0,10.0,2.0,,,,,,,,,,,,,rot,red,r,1.0,r,1.0,0.9509482000139542,,,,,,,,,,2.0,10.0,34.0,1.0,312.59127210004954,,,,,,,,,,,,,,,,,312.58385019999696,313.3773823000374,314.183053500019,314.162344100012,,,,,,,,,,,,,,,,,,,,,,,,,,,,,,,,,,,314.1737836000393,314.183053500019,314.183053500019,315.13641620002454,r,1.0,0.9509482000139542,,,,,sub-235,1,stroop_test,137.86238853402975,
,,,,35.0,11.0,2.0,,,,,,,,,,,,,rot,blue,b,0.0,b,1.0,0.8532162999617867,,,,,,,,,,2.0,11.0,35.0,2.0,315.14314200001536,,,,,,,,,,,,,,,,,315.1368210000219,315.48512260004645,316.2817908000434,316.2702047000057,,,,,,,,,,,,,,,,,,,,,,,,,,,,,,,,,,,316.27186120004626,316.2817908000434,316.2817908000434,317.14074180001626,b,1.0,0.8532162999617867,,,,,sub-235,1,stroop_test,137.86238853402975,
,,,,36.0,0.0,3.0,,,,,,,,,,,,,rot,blue,b,0.0,b,1.0,0.6938915000064299,,,,,,,,,,3.0,0.0,36.0,2.0,317.148977200035,,,,,,,,,,,,,,,,,317.14189190004254,317.2346147000208,318.03057850000914,318.01938240003074,,,,,,,,,,,,,,,,,,,,,,,,,,,,,,,,,,,318.0206045000232,318.03057850000914,318.03057850000914,318.7313058000291,b,1.0,0.6938915000064299,,,,,sub-235,1,stroop_test,137.86238853402975,
,,,,37.0,1.0,3.0,,,,,,,,,,,,,gelb,blue,b,0.0,b,1.0,0.5874557999777608,,,,,,,,,,3.0,1.0,37.0,9.0,318.7402931000106,,,,,,,,,,,,,,,,,318.73280930001056,319.5256801000214,320.3399878000492,320.31128620001255,,,,,,,,,,,,,,,,,,,,,,,,,,,,,,,,,,,320.3258118000231,320.3399878000492,320.3399878000492,320.93998419999843,b,1.0,0.5874557999777608,,,,,sub-235,1,stroop_test,137.86238853402975,
,,,,38.0,2.0,3.0,,,,,,,,,,,,,rot,yellow,g,0.0,g,1.0,0.9080216000438668,,,,,,,,,,3.0,2.0,38.0,3.0,320.947628599999,,,,,,,,,,,,,,,,,320.940890900034,321.0336464000284,321.84080190001987,321.81817530002445,,,,,,,,,,,,,,,,,,,,,,,,,,,,,,,,,,,321.82959310000297,321.84080190001987,321.84080190001987,322.75162620004267,g,1.0,0.9080216000438668,,,,,sub-235,1,stroop_test,137.86238853402975,
,,,,39.0,3.0,3.0,,,,,,,,,,,,,rot,red,r,1.0,r,1.0,0.7820647999760695,,,,,,,,,,3.0,3.0,39.0,1.0,322.7578209000057,,,,,,,,,,,,,,,,,322.7524365000427,323.0993788000196,323.8943833000376,323.8844603000325,,,,,,,,,,,,,,,,,,,,,,,,,,,,,,,,,,,323.8861480000196,323.8943833000376,323.8943833000376,324.69120920001296,r,1.0,0.7820647999760695,,,,,sub-235,1,stroop_test,137.86238853402975,
,,,,40.0,4.0,3.0,,,,,,,,,,,,,gelb,red,r,0.0,r,1.0,0.7696351000340655,,,,,,,,,,3.0,4.0,40.0,8.0,324.697943200008,,,,,,,,,,,,,,,,,324.69200590002583,325.03259140002774,325.8357965000323,325.817073800019,,,,,,,,,,,,,,,,,,,,,,,,,,,,,,,,,,,325.82664420001674,325.8357965000323,325.8357965000323,326.6104205000447,r,1.0,0.7696351000340655,,,,,sub-235,1,stroop_test,137.86238853402975,
,,,,41.0,5.0,3.0,,,,,,,,,,,,,gelb,yellow,g,1.0,g,1.0,0.7941787000163458,,,,,,,,,,3.0,5.0,41.0,10.0,326.61811520002084,,,,,,,,,,,,,,,,,326.6113449000404,326.9566898000194,327.7509192000143,327.74161310005,,,,,,,,,,,,,,,,,,,,,,,,,,,,,,,,,,,327.74275970004965,327.7509192000143,327.7509192000143,328.5511829000316,g,1.0,0.7941787000163458,,,,,sub-235,1,stroop_test,137.86238853402975,
,,,,42.0,6.0,3.0,,,,,,,,,,,,,blau,blue,b,1.0,b,1.0,0.7513357000425458,,,,,,,,,,3.0,6.0,42.0,6.0,328.5650052000419,,,,,,,,,,,,,,,,,328.55198830005247,329.34779920004075,330.1509425000404,330.1330810000072,,,,,,,,,,,,,,,,,,,,,,,,,,,,,,,,,,,330.1412798000383,330.1509425000404,330.1509425000404,330.9074559000437,b,1.0,0.7513357000425458,,,,,sub-235,1,stroop_test,137.86238853402975,
,,,,43.0,7.0,3.0,,,,,,,,,,,,,blau,yellow,g,0.0,g,1.0,0.948095999949146,,,,,,,,,,3.0,7.0,43.0,7.0,330.9138810000149,,,,,,,,,,,,,,,,,330.9079427000252,331.00592880003387,331.8000356000266,331.7903877000208,,,,,,,,,,,,,,,,,,,,,,,,,,,,,,,,,,,331.79149030003464,331.8000356000266,331.8000356000266,332.7594365000259,g,1.0,0.948095999949146,,,,,sub-235,1,stroop_test,137.86238853402975,
,,,,44.0,8.0,3.0,,,,,,,,,,,,,rot,red,r,1.0,r,1.0,1.0332984999986363,,,,,,,,,,3.0,8.0,44.0,0.0,332.766500000027,,,,,,,,,,,,,,,,,332.7613294000039,333.95495300000766,334.75906440004474,334.73981330002425,,,,,,,,,,,,,,,,,,,,,,,,,,,,,,,,,,,334.7479188000434,334.75906440004474,334.75906440004474,335.799180800037,r,1.0,1.0332984999986363,,,,,sub-235,1,stroop_test,137.86238853402975,
,,,,45.0,9.0,3.0,,,,,,,,,,,,,blau,red,r,0.0,r,1.0,0.9985651999595576,,,,,,,,,,3.0,9.0,45.0,4.0,335.8065293999971,,,,,,,,,,,,,,,,,335.799986900005,335.89612250000937,336.6997381999972,336.6816570000374,,,,,,,,,,,,,,,,,,,,,,,,,,,,,,,,,,,336.69092210003873,336.6997381999972,336.6997381999972,337.7072786000208,r,1.0,0.9985651999595576,,,,,sub-235,1,stroop_test,137.86238853402975,
,,,,46.0,10.0,3.0,,,,,,,,,,,,,blau,blue,b,1.0,b,1.0,0.9950801000231876,,,,,,,,,,3.0,10.0,46.0,5.0,337.7148190000444,,,,,,,,,,,,,,,,,337.7082255000132,338.50371050002286,339.2968515000539,339.28824740002165,,,,,,,,,,,,,,,,,,,,,,,,,,,,,,,,,,,339.2893324000179,339.2968515000539,339.2968515000539,340.29926530004013,b,1.0,0.9950801000231876,,,,,sub-235,1,stroop_test,137.86238853402975,
,,,,47.0,11.0,3.0,,,,,,,,,,,,,gelb,yellow,g,1.0,g,1.0,0.8501591000240296,,,,,,,,,,3.0,11.0,47.0,11.0,340.3056536000222,,,,,,,,,,,,,,,,,340.30006239999784,341.0947450000094,341.9013789000456,341.88002120004967,,,,,,,,,,,,,,,,,,,,,,,,,,,,,,,,,,,341.8888990000123,341.9013789000456,341.9013789000456,342.7565657000523,g,1.0,0.8501591000240296,,,,,sub-235,1,stroop_test,137.86238853402975,
,,,,48.0,0.0,4.0,,,,,,,,,,,,,blau,blue,b,1.0,b,1.0,0.9358273000107148,,,,,,,,,,4.0,0.0,48.0,6.0,342.7677297000191,,,,,,,,,,,,,,,,,342.75769620004576,343.95205400005216,344.75554390001344,344.7371719000512,,,,,,,,,,,,,,,,,,,,,,,,,,,,,,,,,,,344.7454450000077,344.75554390001344,344.75554390001344,345.69867920002434,b,1.0,0.9358273000107148,,,,,sub-235,1,stroop_test,137.86238853402975,
,,,,49.0,1.0,4.0,,,,,,,,,,,,,gelb,red,r,0.0,r,1.0,1.243813900044188,,,,,,,,,,4.0,1.0,49.0,8.0,345.7065629000426,,,,,,,,,,,,,,,,,345.6997854000074,346.04335079999873,346.8460297000129,346.8279222000274,,,,,,,,,,,,,,,,,,,,,,,,,,,,,,,,,,,346.8369347000262,346.8460297000129,346.8460297000129,348.0940496000112,r,1.0,1.243813900044188,,,,,sub-235,1,stroop_test,137.86238853402975,
,,,,50.0,2.0,4.0,,,,,,,,,,,,,rot,blue,b,0.0,b,1.0,0.9418362000142224,,,,,,,,,,4.0,2.0,50.0,2.0,348.1006758000003,,,,,,,,,,,,,,,,,348.09454060002463,348.1924081000034,348.9867393000168,348.9764600000344,,,,,,,,,,,,,,,,,,,,,,,,,,,,,,,,,,,348.980215800053,348.9867393000168,348.9867393000168,349.9373004000517,b,1.0,0.9418362000142224,,,,,sub-235,1,stroop_test,137.86238853402975,
,,,,51.0,3.0,4.0,,,,,,,,,,,,,gelb,yellow,g,1.0,g,1.0,0.8437515000114217,,,,,,,,,,4.0,3.0,51.0,11.0,349.944133800047,,,,,,,,,,,,,,,,,349.93814250000287,351.13347830000566,351.9465934000327,351.91899060003925,,,,,,,,,,,,,,,,,,,,,,,,,,,,,,,,,,,351.93579230003525,351.9465934000327,351.9465934000327,352.79560250003124,g,1.0,0.8437515000114217,,,,,sub-235,1,stroop_test,137.86238853402975,
,,,,52.0,4.0,4.0,,,,,,,,,,,,,gelb,yellow,g,1.0,g,1.0,0.8498795999912545,,,,,,,,,,4.0,4.0,52.0,10.0,352.8032821000088,,,,,,,,,,,,,,,,,352.79673520004144,353.9910885000136,354.78563680005027,354.7755541000515,,,,,,,,,,,,,,,,,,,,,,,,,,,,,,,,,,,354.77667510003084,354.78563680005027,354.78563680005027,355.64346410002327,g,1.0,0.8498795999912545,,,,,sub-235,1,stroop_test,137.86238853402975,
,,,,53.0,5.0,4.0,,,,,,,,,,,,,rot,red,r,1.0,r,1.0,0.8236445999937132,,,,,,,,,,4.0,5.0,53.0,1.0,355.65159429999767,,,,,,,,,,,,,,,,,355.644257500011,355.99035710003227,356.79193810001016,356.77501400001347,,,,,,,,,,,,,,,,,,,,,,,,,,,,,,,,,,,356.7835105000413,356.79193810001016,356.79193810001016,357.61984860000666,r,1.0,0.8236445999937132,,,,,sub-235,1,stroop_test,137.86238853402975,
,,,,54.0,6.0,4.0,,,,,,,,,,,,,gelb,blue,b,0.0,b,1.0,0.6787570000160486,,,,,,,,,,4.0,6.0,54.0,9.0,357.63039200002095,,,,,,,,,,,,,,,,,357.620650900004,358.4148350000032,359.2215360000264,359.19996920000995,,,,,,,,,,,,,,,,,,,,,,,,,,,,,,,,,,,359.2111210000003,359.2215360000264,359.2215360000264,359.9142297000508,b,1.0,0.6787570000160486,,,,,sub-235,1,stroop_test,137.86238853402975,
,,,,55.0,7.0,4.0,,,,,,,,,,,,,blau,blue,b,1.0,b,1.0,0.6471520999912173,,,,,,,,,,4.0,7.0,55.0,5.0,359.92251990002114,,,,,,,,,,,,,,,,,359.9153517000377,361.1059762000223,361.9094963000389,361.89100880001206,,,,,,,,,,,,,,,,,,,,,,,,,,,,,,,,,,,361.8999598000082,361.9094963000389,361.9094963000389,362.5688829999999,b,1.0,0.6471520999912173,,,,,sub-235,1,stroop_test,137.86238853402975,
,,,,56.0,8.0,4.0,,,,,,,,,,,,,blau,yellow,g,0.0,g,1.0,0.8334229000029154,,,,,,,,,,4.0,8.0,56.0,7.0,362.5749594000517,,,,,,,,,,,,,,,,,362.5700080000097,362.9135572000523,363.7112370000104,363.7007610000437,,,,,,,,,,,,,,,,,,,,,,,,,,,,,,,,,,,363.7020782000036,363.7112370000104,363.7112370000104,364.5567712000338,g,1.0,0.8334229000029154,,,,,sub-235,1,stroop_test,137.86238853402975,
,,,,57.0,9.0,4.0,,,,,,,,,,,,,rot,yellow,g,0.0,g,1.0,0.7530786000424996,,,,,,,,,,4.0,9.0,57.0,3.0,364.56413320003776,,,,,,,,,,,,,,,,,364.5580743000028,364.6547644000384,365.4568734000204,365.4393530000234,,,,,,,,,,,,,,,,,,,,,,,,,,,,,,,,,,,365.4472769999993,365.4568734000204,365.4568734000204,366.2157162000076,g,1.0,0.7530786000424996,,,,,sub-235,1,stroop_test,137.86238853402975,
,,,,58.0,10.0,4.0,,,,,,,,,,,,,blau,red,r,0.0,r,1.0,0.9270707999821752,,,,,,,,,,4.0,10.0,58.0,4.0,366.2220311000128,,,,,,,,,,,,,,,,,366.2165083000437,367.4123912000214,368.2058773000026,368.1963061999995,,,,,,,,,,,,,,,,,,,,,,,,,,,,,,,,,,,368.199844900053,368.2058773000026,368.2058773000026,369.1396484000143,r,1.0,0.9270707999821752,,,,,sub-235,1,stroop_test,137.86238853402975,
,,,,59.0,11.0,4.0,,,,,,,,,,,,,rot,red,r,1.0,r,1.0,0.7420560999889858,,,,,,,,,,4.0,11.0,59.0,0.0,369.1475403000368,,,,,,,,,,,,,,,,,369.14087460003793,369.4868360999972,370.2895719000371,370.2712848000229,,,,,,,,,,,,,,,,,,,,,,,,,,,,,,,,,,,370.27820860000793,370.2895719000371,370.2895719000371,371.04212440003175,r,1.0,0.7420560999889858,,,,,sub-235,1,stroop_test,137.86238853402975,
,,,,60.0,0.0,5.0,,,,,,,,,,,,,rot,yellow,g,0.0,g,1.0,0.8594586999970488,,,,,,,,,,5.0,0.0,60.0,3.0,371.0482256000396,,,,,,,,,,,,,,,,,371.0430852000136,372.23579040000914,373.0319368000492,373.02073500002734,,,,,,,,,,,,,,,,,,,,,,,,,,,,,,,,,,,373.0221716000233,373.0319368000492,373.0319368000492,373.8965613000328,g,1.0,0.8594586999970488,,,,,sub-235,1,stroop_test,137.86238853402975,
,,,,61.0,1.0,5.0,,,,,,,,,,,,,rot,red,r,1.0,r,1.0,0.7693126000231132,,,,,,,,,,5.0,1.0,61.0,1.0,373.9056834000512,,,,,,,,,,,,,,,,,373.8973441999988,375.0935911000124,375.8863813000498,375.8780197000015,,,,,,,,,,,,,,,,,,,,,,,,,,,,,,,,,,,375.8790904000052,375.8863813000498,375.8863813000498,376.6624257000512,r,1.0,0.7693126000231132,,,,,sub-235,1,stroop_test,137.86238853402975,
,,,,62.0,2.0,5.0,,,,,,,,,,,,,blau,yellow,g,0.0,g,1.0,0.7092466999893077,,,,,,,,,,5.0,2.0,62.0,7.0,376.6702233999968,,,,,,,,,,,,,,,,,376.6633851000224,377.4596641000244,378.2660128000425,378.24466880003456,,,,,,,,,,,,,,,,,,,,,,,,,,,,,,,,,,,378.2545602000319,378.2660128000425,378.2660128000425,378.9798292000196,g,1.0,0.7092466999893077,,,,,sub-235,1,stroop_test,137.86238853402975,
,,,,63.0,3.0,5.0,,,,,,,,,,,,,gelb,blue,b,0.0,b,1.0,0.7866410999558866,,,,,,,,,,5.0,3.0,63.0,9.0,378.9861355000176,,,,,,,,,,,,,,,,,378.9806566000334,379.32568710000487,380.13466950005386,380.11047940002754,,,,,,,,,,,,,,,,,,,,,,,,,,,,,,,,,,,380.1236380000482,380.13466950005386,380.13466950005386,380.9299364000326,b,1.0,0.7866410999558866,,,,,sub-235,1,stroop_test,137.86238853402975,
,,,,64.0,4.0,5.0,,,,,,,,,,,,,blau,blue,b,1.0,b,1.0,0.3732272000052035,,,,,,,,,,5.0,4.0,64.0,5.0,380.9380392000312,,,,,,,,,,,,,,,,,380.93138620001264,382.12497480004095,382.9275760000455,382.9096368000028,,,,,,,,,,,,,,,,,,,,,,,,,,,,,,,,,,,382.9182284999988,382.9275760000455,382.9275760000455,383.3142730999971,b,1.0,0.3732272000052035,,,,,sub-235,1,stroop_test,137.86238853402975,
,,,,65.0,5.0,5.0,,,,,,,,,,,,,rot,red,r,1.0,r,1.0,0.7333926999708638,,,,,,,,,,5.0,5.0,65.0,0.0,383.3198196000303,,,,,,,,,,,,,,,,,383.315074400045,383.65761210001074,384.463647000026,384.4425645000301,,,,,,,,,,,,,,,,,,,,,,,,,,,,,,,,,,,384.4535542000085,384.463647000026,384.463647000026,385.2023103000247,r,1.0,0.7333926999708638,,,,,sub-235,1,stroop_test,137.86238853402975,
,,,,66.0,6.0,5.0,,,,,,,,,,,,,gelb,yellow,g,1.0,g,1.0,0.8091403999715112,,,,,,,,,,5.0,6.0,66.0,11.0,385.2094472000026,,,,,,,,,,,,,,,,,385.2031192000141,386.3988216000144,387.202004700026,387.1832480000448,,,,,,,,,,,,,,,,,,,,,,,,,,,,,,,,,,,387.1923995000543,387.202004700026,387.202004700026,388.0180521000293,g,1.0,0.8091403999715112,,,,,sub-235,1,stroop_test,137.86238853402975,
,,,,67.0,7.0,5.0,,,,,,,,,,,,,gelb,red,r,0.0,r,1.0,0.76528590003727,,,,,,,,,,5.0,7.0,67.0,8.0,388.0255561000085,,,,,,,,,,,,,,,,,388.0189402000397,388.1151894000359,388.9061580999987,388.8990401000483,,,,,,,,,,,,,,,,,,,,,,,,,,,,,,,,,,,388.8998196000466,388.9061580999987,388.9061580999987,389.6764022000134,r,1.0,0.76528590003727,,,,,sub-235,1,stroop_test,137.86238853402975,
,,,,68.0,8.0,5.0,,,,,,,,,,,,,blau,red,r,0.0,r,1.0,2.633329299977049,,,,,,,,,,5.0,8.0,68.0,4.0,389.6847565000062,,,,,,,,,,,,,,,,,389.6772919000359,389.7728880000068,390.5691741000046,390.5566765000112,,,,,,,,,,,,,,,,,,,,,,,,,,,,,,,,,,,390.5617763000191,390.5691741000046,390.5691741000046,393.2081799000152,r,1.0,2.633329299977049,,,,,sub-235,1,stroop_test,137.86238853402975,
,,,,69.0,9.0,5.0,,,,,,,,,,,,,gelb,yellow,g,1.0,g,1.0,0.5678246999741532,,,,,,,,,,5.0,9.0,69.0,10.0,393.21828260004986,,,,,,,,,,,,,,,,,393.2090005000355,394.40490140003385,395.21419520000927,395.1894827000215,,,,,,,,,,,,,,,,,,,,,,,,,,,,,,,,,,,395.20133160002297,395.21419520000927,395.21419520000927,395.7940103000146,g,1.0,0.5678246999741532,,,,,sub-235,1,stroop_test,137.86238853402975,
,,,,70.0,10.0,5.0,,,,,,,,,,,,,blau,blue,b,1.0,b,1.0,0.4030309000518173,,,,,,,,,,5.0,10.0,70.0,6.0,395.80077210004674,,,,,,,,,,,,,,,,,395.795383800054,396.1377852000296,396.93983950000256,396.9224902000278,,,,,,,,,,,,,,,,,,,,,,,,,,,,,,,,,,,396.9294676000136,396.93983950000256,396.93983950000256,397.3486466000322,b,1.0,0.4030309000518173,,,,,sub-235,1,stroop_test,137.86238853402975,
,,,,71.0,11.0,5.0,,,,,,,,,,,,,rot,blue,b,0.0,b,1.0,0.6725550999981351,,,,,,,,,,5.0,11.0,71.0,2.0,397.35795990005136,,,,,,,,,,,,,,,,,397.3494602999999,398.5456760000088,399.3432563000242,399.32938930002274,,,,,,,,,,,,,,,,,,,,,,,,,,,,,,,,,,,399.3369720000192,399.3432563000242,399.3432563000242,400.02371450001374,b,1.0,0.6725550999981351,,,,,sub-235,1,stroop_test,137.86238853402975,
,,,,72.0,0.0,6.0,,,,,,,,,,,,,blau,red,r,0.0,r,1.0,0.6358380000456236,,,,,,,,,,6.0,0.0,72.0,4.0,400.0312393000349,,,,,,,,,,,,,,,,,400.0249147000141,400.81990750000114,401.62296890001744,401.6045207999996,,,,,,,,,,,,,,,,,,,,,,,,,,,,,,,,,,,401.61339060001774,401.62296890001744,401.62296890001744,402.2645653000218,r,1.0,0.6358380000456236,,,,,sub-235,1,stroop_test,137.86238853402975,
,,,,73.0,1.0,6.0,,,,,,,,,,,,,gelb,red,r,0.0,r,1.0,0.4809208000078797,,,,,,,,,,6.0,1.0,73.0,8.0,402.2717878000112,,,,,,,,,,,,,,,,,402.2653564000502,403.0608348000096,403.8671549000428,403.84561680001207,,,,,,,,,,,,,,,,,,,,,,,,,,,,,,,,,,,403.8561201000121,403.8671549000428,403.8671549000428,404.3547596000135,r,1.0,0.4809208000078797,,,,,sub-235,1,stroop_test,137.86238853402975,
,,,,74.0,2.0,6.0,,,,,,,,,,,,,rot,red,r,1.0,r,1.0,0.4609240000136196,,,,,,,,,,6.0,2.0,74.0,0.0,404.36130700004287,,,,,,,,,,,,,,,,,404.3555813000421,404.4523139000521,405.2550537000061,405.2367556000245,,,,,,,,,,,,,,,,,,,,,,,,,,,,,,,,,,,405.2452470000135,405.2550537000061,405.2550537000061,405.7212866000482,r,1.0,0.4609240000136196,,,,,sub-235,1,stroop_test,137.86238853402975,
,,,,75.0,3.0,6.0,,,,,,,,,,,,,blau,blue,b,1.0,b,1.0,0.4173972999560646,,,,,,,,,,6.0,3.0,75.0,6.0,405.7302878000192,,,,,,,,,,,,,,,,,405.7221099000308,406.5181367000332,407.3156398000429,407.3022026000544,,,,,,,,,,,,,,,,,,,,,,,,,,,,,,,,,,,407.3080519000068,407.3156398000429,407.3156398000429,407.73862110002665,b,1.0,0.4173972999560646,,,,,sub-235,1,stroop_test,137.86238853402975,
,,,,76.0,4.0,6.0,,,,,,,,,,,,,gelb,yellow,g,1.0,g,1.0,0.3811927000060677,,,,,,,,,,6.0,4.0,76.0,10.0,407.7492934000329,,,,,,,,,,,,,,,,,407.7395307000261,407.83476540003903,408.6327351000509,408.6185986000346,,,,,,,,,,,,,,,,,,,,,,,,,,,,,,,,,,,408.6267871000455,408.6327351000509,408.6327351000509,409.020530000038,g,1.0,0.3811927000060677,,,,,sub-235,1,stroop_test,137.86238853402975,
,,,,77.0,5.0,6.0,,,,,,,,,,,,,blau,blue,b,1.0,b,1.0,0.6320689000422135,,,,,,,,,,6.0,5.0,77.0,5.0,409.02820290002273,,,,,,,,,,,,,,,,,409.02133130002767,409.8174701000098,410.6191347000422,410.6018452999997,,,,,,,,,,,,,,,,,,,,,,,,,,,,,,,,,,,410.609089500038,410.6191347000422,410.6191347000422,411.25437310000416,b,1.0,0.6320689000422135,,,,,sub-235,1,stroop_test,137.86238853402975,
,,,,78.0,6.0,6.0,,,,,,,,,,,,,rot,yellow,g,0.0,r,0.0,0.4500304999528453,,,,,,,,,,6.0,6.0,78.0,3.0,411.26000740000745,,,,,,,,,,,,,,,,,411.25490900001023,411.3499203000101,412.1586680000182,412.1354597000173,,,,,,,,,,,,,,,,,,,,,,,,,,,,,,,,,,,412.14810490002856,412.1586680000182,412.1586680000182,412.61846630001673,r,0.0,0.4500304999528453,,,,,sub-235,1,stroop_test,137.86238853402975,
,,,,79.0,7.0,6.0,,,,,,,,,,,,,gelb,blue,b,0.0,b,1.0,1.745280399976764,,,,,,,,,,6.0,7.0,79.0,9.0,412.62450670002727,,,,,,,,,,,,,,,,,412.6191278000479,413.41638830001466,414.2219447000534,414.2008097000071,,,,,,,,,,,,,,,,,,,,,,,,,,,,,,,,,,,414.21050530002685,414.2219447000534,414.2219447000534,415.9719631000189,b,1.0,1.745280399976764,,,,,sub-235,1,stroop_test,137.86238853402975,
,,,,80.0,8.0,6.0,,,,,,,,,,,,,rot,blue,b,0.0,b,1.0,0.9534961000317708,,,,,,,,,,6.0,8.0,80.0,2.0,415.9798625000403,,,,,,,,,,,,,,,,,415.9729504000279,416.0655858000391,416.8694835000206,416.8505672000465,,,,,,,,,,,,,,,,,,,,,,,,,,,,,,,,,,,416.85967420000816,416.8694835000206,416.8694835000206,417.82750160002615,b,1.0,0.9534961000317708,,,,,sub-235,1,stroop_test,137.86238853402975,
,,,,81.0,9.0,6.0,,,,,,,,,,,,,gelb,yellow,g,1.0,g,1.0,1.0304084999952463,,,,,,,,,,6.0,9.0,81.0,11.0,417.8344020000077,,,,,,,,,,,,,,,,,417.8283760000486,418.17338610003935,418.9787176000536,418.9579081000411,,,,,,,,,,,,,,,,,,,,,,,,,,,,,,,,,,,418.9689853000455,418.9787176000536,418.9787176000536,420.0172942000208,g,1.0,1.0304084999952463,,,,,sub-235,1,stroop_test,137.86238853402975,
,,,,82.0,10.0,6.0,,,,,,,,,,,,,blau,yellow,g,0.0,g,1.0,0.5781717000063509,,,,,,,,,,6.0,10.0,82.0,7.0,420.02353050000966,,,,,,,,,,,,,,,,,420.01812060002703,420.1145236000302,420.9241003000061,420.8992382000433,,,,,,,,,,,,,,,,,,,,,,,,,,,,,,,,,,,420.9122009000275,420.9241003000061,420.9241003000061,421.51001460000407,g,1.0,0.5781717000063509,,,,,sub-235,1,stroop_test,137.86238853402975,
,,,,83.0,11.0,6.0,,,,,,,,,,,,,rot,red,r,1.0,r,1.0,0.7451699000084773,,,,,,,,,,6.0,11.0,83.0,1.0,421.518143000023,,,,,,,,,,,,,,,,,421.51098690001527,422.3056978000095,423.11376080004266,423.0906774000032,,,,,,,,,,,,,,,,,,,,,,,,,,,,,,,,,,,423.101337900036,423.11376080004266,423.11376080004266,423.8660027000005,r,1.0,0.7451699000084773,,,,,sub-235,1,stroop_test,137.86238853402975,
,,,,84.0,0.0,7.0,,,,,,,,,,,,,gelb,yellow,g,1.0,g,1.0,0.8265001000254415,,,,,,,,,,7.0,0.0,84.0,10.0,423.8763532000012,,,,,,,,,,,,,,,,,423.8667847000179,425.0631849000347,425.8667678000056,425.8479167000041,,,,,,,,,,,,,,,,,,,,,,,,,,,,,,,,,,,425.85825560003286,425.8667678000056,425.8667678000056,426.6994806000148,g,1.0,0.8265001000254415,,,,,sub-235,1,stroop_test,137.86238853402975,
,,,,85.0,1.0,7.0,,,,,,,,,,,,,blau,red,r,0.0,r,1.0,0.7215629999991506,,,,,,,,,,7.0,1.0,85.0,4.0,426.7059332000208,,,,,,,,,,,,,,,,,426.7003002000274,427.4959372000303,428.29926660005,428.28048200003104,,,,,,,,,,,,,,,,,,,,,,,,,,,,,,,,,,,428.2907465000171,428.29926660005,428.29926660005,429.0249399000313,r,1.0,0.7215629999991506,,,,,sub-235,1,stroop_test,137.86238853402975,
,,,,86.0,2.0,7.0,,,,,,,,,,,,,blau,blue,b,1.0,b,1.0,0.6452611000277102,,,,,,,,,,7.0,2.0,86.0,6.0,429.03607560001547,,,,,,,,,,,,,,,,,429.0257324000122,430.22006910003256,431.01721290004207,431.0052824000013,,,,,,,,,,,,,,,,,,,,,,,,,,,,,,,,,,,431.0067810000037,431.01721290004207,431.01721290004207,431.6764822000405,b,1.0,0.6452611000277102,,,,,sub-235,1,stroop_test,137.86238853402975,
,,,,87.0,3.0,7.0,,,,,,,,,,,,,gelb,blue,b,0.0,b,1.0,0.7177254999987781,,,,,,,,,,7.0,3.0,87.0,9.0,431.6843635000405,,,,,,,,,,,,,,,,,431.6777488000225,432.8693550000317,433.6863996000029,433.6543663000338,,,,,,,,,,,,,,,,,,,,,,,,,,,,,,,,,,,433.6722868000506,433.6863996000029,433.6863996000029,434.4108066000044,b,1.0,0.7177254999987781,,,,,sub-235,1,stroop_test,137.86238853402975,
,,,,88.0,4.0,7.0,,,,,,,,,,,,,rot,yellow,g,0.0,r,0.0,0.7943023000261746,,,,,,,,,,7.0,4.0,88.0,3.0,434.4184271999984,,,,,,,,,,,,,,,,,434.41160910000326,435.2020124000264,436.0084156000521,435.9869636000367,,,,,,,,,,,,,,,,,,,,,,,,,,,,,,,,,,,435.99600230000215,436.0084156000521,436.0084156000521,436.8186685000546,r,0.0,0.7943023000261746,,,,,sub-235,1,stroop_test,137.86238853402975,
,,,,89.0,5.0,7.0,,,,,,,,,,,,,blau,yellow,g,0.0,g,1.0,0.905167699966114,,,,,,,,,,7.0,5.0,89.0,7.0,436.8251026000362,,,,,,,,,,,,,,,,,436.8199452999979,437.15972690004855,437.95689890004,437.9438252000255,,,,,,,,,,,,,,,,,,,,,,,,,,,,,,,,,,,437.9502651000512,437.95689890004,437.95689890004,438.87233340000967,g,1.0,0.905167699966114,,,,,sub-235,1,stroop_test,137.86238853402975,
,,,,90.0,6.0,7.0,,,,,,,,,,,,,rot,red,r,1.0,r,1.0,0.6585465999669395,,,,,,,,,,7.0,6.0,90.0,1.0,438.8790161000216,,,,,,,,,,,,,,,,,438.8731737000053,438.9675991000258,439.7709447000525,439.7520290000248,,,,,,,,,,,,,,,,,,,,,,,,,,,,,,,,,,,439.7599959000363,439.7709447000525,439.7709447000525,440.4364835000015,r,1.0,0.6585465999669395,,,,,sub-235,1,stroop_test,137.86238853402975,
,,,,91.0,7.0,7.0,,,,,,,,,,,,,rot,blue,b,0.0,b,1.0,0.5991473000030965,,,,,,,,,,7.0,7.0,91.0,2.0,440.4475526000024,,,,,,,,,,,,,,,,,440.4382405000506,440.5336719000479,441.32704750000266,441.3183317000512,,,,,,,,,,,,,,,,,,,,,,,,,,,,,,,,,,,441.3194061000249,441.32704750000266,441.32704750000266,441.9363541000057,b,1.0,0.5991473000030965,,,,,sub-235,1,stroop_test,137.86238853402975,
,,,,92.0,8.0,7.0,,,,,,,,,,,,,gelb,yellow,g,1.0,g,1.0,0.750351499998942,,,,,,,,,,7.0,8.0,92.0,11.0,441.9414410000318,,,,,,,,,,,,,,,,,441.9371631999966,442.03311840002425,442.844616700022,442.81827150000026,,,,,,,,,,,,,,,,,,,,,,,,,,,,,,,,,,,442.8318566000089,442.844616700022,442.844616700022,443.602197500004,g,1.0,0.750351499998942,,,,,sub-235,1,stroop_test,137.86238853402975,
,,,,93.0,9.0,7.0,,,,,,,,,,,,,gelb,red,r,0.0,r,1.0,0.6776190999662504,,,,,,,,,,7.0,9.0,93.0,8.0,443.61237790004816,,,,,,,,,,,,,,,,,443.6033370000077,444.3990647000028,445.1932110000053,445.184109600028,,,,,,,,,,,,,,,,,,,,,,,,,,,,,,,,,,,445.1852020000224,445.1932110000053,445.1932110000053,445.8770836000331,r,1.0,0.6776190999662504,,,,,sub-235,1,stroop_test,137.86238853402975,
,,,,94.0,10.0,7.0,,,,,,,,,,,,,rot,red,r,1.0,r,1.0,0.571341399976518,,,,,,,,,,7.0,10.0,94.0,0.0,445.88384750002297,,,,,,,,,,,,,,,,,445.8780967000057,446.2238841000362,447.0331845000037,447.0096567000146,,,,,,,,,,,,,,,,,,,,,,,,,,,,,,,,,,,447.0251917000278,447.0331845000037,447.0331845000037,447.6101727000205,r,1.0,0.571341399976518,,,,,sub-235,1,stroop_test,137.86238853402975,
,,,,95.0,11.0,7.0,,,,,,,,,,,,,blau,blue,b,1.0,b,1.0,0.5027007999597117,,,,,,,,,,7.0,11.0,95.0,5.0,447.6167885000468,,,,,,,,,,,,,,,,,447.6110685000313,448.8065771000111,449.6145889000036,449.59154270001454,,,,,,,,,,,,,,,,,,,,,,,,,,,,,,,,,,,449.60221360001015,449.6145889000036,449.6145889000036,450.1265092000249,b,1.0,0.5027007999597117,,,,,sub-235,1,stroop_test,137.86238853402975,
,,,,96.0,0.0,8.0,,,,,,,,,,,,,gelb,red,r,0.0,r,1.0,0.7001777999685146,,,,,,,,,,8.0,0.0,96.0,8.0,450.13326490001054,,,,,,,,,,,,,,,,,450.127382900042,450.92267380002886,451.73502330004703,451.70752009999705,,,,,,,,,,,,,,,,,,,,,,,,,,,,,,,,,,,451.7233268000418,451.73502330004703,451.73502330004703,452.4404152000207,r,1.0,0.7001777999685146,,,,,sub-235,1,stroop_test,137.86238853402975,
,,,,97.0,1.0,8.0,,,,,,,,,,,,,rot,blue,b,0.0,b,1.0,0.7272369000129402,,,,,,,,,,8.0,1.0,97.0,2.0,452.446951800026,,,,,,,,,,,,,,,,,452.44089310005074,453.6385192000307,454.4405565000488,454.42337730003055,,,,,,,,,,,,,,,,,,,,,,,,,,,,,,,,,,,454.4310124000185,454.4405565000488,454.4405565000488,455.1751980000408,b,1.0,0.7272369000129402,,,,,sub-235,1,stroop_test,137.86238853402975,
,,,,98.0,2.0,8.0,,,,,,,,,,,,,blau,blue,b,1.0,b,1.0,0.4903577999793924,,,,,,,,,,8.0,2.0,98.0,5.0,455.1854429000523,,,,,,,,,,,,,,,,,455.17611250001937,456.37078260001726,457.1757943000412,457.1555420000223,,,,,,,,,,,,,,,,,,,,,,,,,,,,,,,,,,,457.167180700053,457.1757943000412,457.1757943000412,457.67335090000415,b,1.0,0.4903577999793924,,,,,sub-235,1,stroop_test,137.86238853402975,
,,,,99.0,3.0,8.0,,,,,,,,,,,,,gelb,blue,b,0.0,b,1.0,0.3674198999651707,,,,,,,,,,8.0,3.0,99.0,9.0,457.6796166000422,,,,,,,,,,,,,,,,,457.6742024000269,458.470774400048,459.2765451000305,459.2556172000477,,,,,,,,,,,,,,,,,,,,,,,,,,,,,,,,,,,459.26579299999867,459.2765451000305,459.2765451000305,459.6501218000194,b,1.0,0.3674198999651707,,,,,sub-235,1,stroop_test,137.86238853402975,
,,,,100.0,4.0,8.0,,,,,,,,,,,,,rot,red,r,1.0,r,1.0,0.7634228999959305,,,,,,,,,,8.0,4.0,100.0,0.0,459.65750490000937,,,,,,,,,,,,,,,,,459.6513469000347,459.9951409000205,460.7961778000463,460.7801809000084,,,,,,,,,,,,,,,,,,,,,,,,,,,,,,,,,,,460.7874178000493,460.7961778000463,460.7961778000463,461.5650055000442,r,1.0,0.7634228999959305,,,,,sub-235,1,stroop_test,137.86238853402975,
,,,,101.0,5.0,8.0,,,,,,,,,,,,,rot,yellow,g,0.0,g,1.0,1.2562101000221446,,,,,,,,,,8.0,5.0,101.0,3.0,461.5730164000415,,,,,,,,,,,,,,,,,461.56582350004464,462.7609143000445,463.5552709000185,463.5455948000308,,,,,,,,,,,,,,,,,,,,,,,,,,,,,,,,,,,463.5468406000291,463.5552709000185,463.5552709000185,464.822649400041,g,1.0,1.2562101000221446,,,,,sub-235,1,stroop_test,137.86238853402975,
,,,,102.0,6.0,8.0,,,,,,,,,,,,,blau,yellow,g,0.0,g,1.0,0.6554504999658093,,,,,,,,,,8.0,6.0,102.0,7.0,464.8283636000124,,,,,,,,,,,,,,,,,464.8234515000368,465.1687657000148,465.9743162000086,465.9536702000187,,,,,,,,,,,,,,,,,,,,,,,,,,,,,,,,,,,465.9647728000418,465.9743162000086,465.9743162000086,466.636307400011,g,1.0,0.6554504999658093,,,,,sub-235,1,stroop_test,137.86238853402975,
,,,,103.0,7.0,8.0,,,,,,,,,,,,,blau,blue,b,1.0,b,1.0,0.6246076000388712,,,,,,,,,,8.0,7.0,103.0,6.0,466.642868200026,,,,,,,,,,,,,,,,,466.6368398000486,466.7350883000181,467.5306656000321,467.52000850002514,,,,,,,,,,,,,,,,,,,,,,,,,,,,,,,,,,,467.52117710001767,467.5306656000321,467.5306656000321,468.1636366000166,b,1.0,0.6246076000388712,,,,,sub-235,1,stroop_test,137.86238853402975,
,,,,104.0,8.0,8.0,,,,,,,,,,,,,rot,red,r,1.0,r,1.0,0.7244930000160821,,,,,,,,,,8.0,8.0,104.0,1.0,468.172970500018,,,,,,,,,,,,,,,,,468.1645606000093,468.9593562000082,469.7611641000258,469.744099500007,,,,,,,,,,,,,,,,,,,,,,,,,,,,,,,,,,,469.7516280999989,469.7611641000258,469.7611641000258,470.4936281000264,r,1.0,0.7244930000160821,,,,,sub-235,1,stroop_test,137.86238853402975,
,,,,105.0,9.0,8.0,,,,,,,,,,,,,gelb,yellow,g,1.0,g,1.0,0.6044830000028014,,,,,,,,,,8.0,9.0,105.0,11.0,470.5001151000033,,,,,,,,,,,,,,,,,470.4941603000043,470.59186820004834,471.3998316000216,471.3769637000514,,,,,,,,,,,,,,,,,,,,,,,,,,,,,,,,,,,471.3887049000477,471.3998316000216,471.3998316000216,472.01147720002336,g,1.0,0.6044830000028014,,,,,sub-235,1,stroop_test,137.86238853402975,
,,,,106.0,10.0,8.0,,,,,,,,,,,,,blau,red,r,0.0,r,1.0,0.3813655999838374,,,,,,,,,,8.0,10.0,106.0,4.0,472.0192090000492,,,,,,,,,,,,,,,,,472.012298900052,472.1084515000112,472.9078418000136,472.8927608000231,,,,,,,,,,,,,,,,,,,,,,,,,,,,,,,,,,,472.899802000029,472.9078418000136,472.9078418000136,473.29476470005466,r,1.0,0.3813655999838374,,,,,sub-235,1,stroop_test,137.86238853402975,
,,,,107.0,11.0,8.0,,,,,,,,,,,,,gelb,yellow,g,1.0,g,1.0,0.2907028999761678,,,,,,,,,,8.0,11.0,107.0,10.0,473.3022647000034,,,,,,,,,,,,,,,,,473.2957068000105,473.64125230000354,474.45494680001866,474.4264867000165,,,,,,,,,,,,,,,,,,,,,,,,,,,,,,,,,,,474.4426530000055,474.45494680001866,474.45494680001866,474.7523418000201,g,1.0,0.2907028999761678,,,,,sub-235,1,stroop_test,137.86238853402975,
,,,,108.0,0.0,9.0,,,,,,,,,,,,,gelb,yellow,g,1.0,g,1.0,0.5768625999917276,,,,,,,,,,9.0,0.0,108.0,10.0,474.7586214000476,,,,,,,,,,,,,,,,,474.7531769000343,475.0995352000464,475.8950496000471,475.8842568000546,,,,,,,,,,,,,,,,,,,,,,,,,,,,,,,,,,,475.8853975000093,475.8950496000471,475.8950496000471,476.4898413000046,g,1.0,0.5768625999917276,,,,,sub-235,1,stroop_test,137.86238853402975,
,,,,109.0,1.0,9.0,,,,,,,,,,,,,rot,blue,b,0.0,b,1.0,0.5822925000102259,,,,,,,,,,9.0,1.0,109.0,2.0,476.49771220004186,,,,,,,,,,,,,,,,,476.4909444000223,477.2823022000375,478.0837138000061,478.0668180000503,,,,,,,,,,,,,,,,,,,,,,,,,,,,,,,,,,,478.0748194000335,478.0837138000061,478.0837138000061,478.6745524000144,b,1.0,0.5822925000102259,,,,,sub-235,1,stroop_test,137.86238853402975,
,,,,110.0,2.0,9.0,,,,,,,,,,,,,rot,red,r,1.0,r,1.0,0.7694868999533355,,,,,,,,,,9.0,2.0,110.0,0.0,478.6812494000187,,,,,,,,,,,,,,,,,478.6750362000312,479.0236084000208,479.8208364000311,479.8084476000513,,,,,,,,,,,,,,,,,,,,,,,,,,,,,,,,,,,479.8099083999987,479.8208364000311,479.8208364000311,480.59423650003737,r,1.0,0.7694868999533355,,,,,sub-235,1,stroop_test,137.86238853402975,
,,,,111.0,3.0,9.0,,,,,,,,,,,,,rot,red,r,1.0,r,1.0,0.5919103000196628,,,,,,,,,,9.0,3.0,111.0,1.0,480.6038774000481,,,,,,,,,,,,,,,,,480.5950782000437,481.7890979000367,482.5845666000386,482.5739174000337,,,,,,,,,,,,,,,,,,,,,,,,,,,,,,,,,,,482.575182200002,482.5845666000386,482.5845666000386,483.1907248000498,r,1.0,0.5919103000196628,,,,,sub-235,1,stroop_test,137.86238853402975,
,,,,112.0,4.0,9.0,,,,,,,,,,,,,gelb,blue,b,0.0,b,1.0,0.4114711000001989,,,,,,,,,,9.0,4.0,112.0,9.0,483.1974695000099,,,,,,,,,,,,,,,,,483.1916971000028,484.38840029999847,485.20055570005206,485.1727649000241,,,,,,,,,,,,,,,,,,,,,,,,,,,,,,,,,,,485.1888534000027,485.20055570005206,485.20055570005206,485.61658820003504,b,1.0,0.4114711000001989,,,,,sub-235,1,stroop_test,137.86238853402975,
,,,,113.0,5.0,9.0,,,,,,,,,,,,,blau,blue,b,1.0,b,1.0,0.7534317999961786,,,,,,,,,,9.0,5.0,113.0,6.0,485.6283264000085,,,,,,,,,,,,,,,,,485.61752550001256,486.81261010002345,487.618341399997,487.5978311000508,,,,,,,,,,,,,,,,,,,,,,,,,,,,,,,,,,,487.6076842000475,487.618341399997,487.618341399997,488.3842223000247,b,1.0,0.7534317999961786,,,,,sub-235,1,stroop_test,137.86238853402975,
,,,,114.0,6.0,9.0,,,,,,,,,,,,,blau,blue,b,1.0,b,1.0,0.5787843999569304,,,,,,,,,,9.0,6.0,114.0,5.0,488.3908324000077,,,,,,,,,,,,,,,,,488.3852438000031,488.4788595000282,489.27541300002486,489.2639222000144,,,,,,,,,,,,,,,,,,,,,,,,,,,,,,,,,,,489.2651673000073,489.27541300002486,489.27541300002486,489.86112620000495,b,1.0,0.5787843999569304,,,,,sub-235,1,stroop_test,137.86238853402975,
,,,,115.0,7.0,9.0,,,,,,,,,,,,,gelb,red,r,0.0,r,1.0,0.6010290999547578,,,,,,,,,,9.0,7.0,115.0,8.0,489.8681709000375,,,,,,,,,,,,,,,,,489.8620333000436,490.2034379999968,491.0118394000456,490.9882153000217,,,,,,,,,,,,,,,,,,,,,,,,,,,,,,,,,,,491.0004362000036,491.0118394000456,491.0118394000456,491.62618900003145,r,1.0,0.6010290999547578,,,,,sub-235,1,stroop_test,137.86238853402975,
,,,,116.0,8.0,9.0,,,,,,,,,,,,,gelb,yellow,g,1.0,g,1.0,0.5338623999850824,,,,,,,,,,9.0,8.0,116.0,11.0,491.6323381999973,,,,,,,,,,,,,,,,,491.6273723000195,492.4195167000289,493.2105788000045,493.2033702000044,,,,,,,,,,,,,,,,,,,,,,,,,,,,,,,,,,,493.20418620004784,493.2105788000045,493.2105788000045,493.74828220001655,g,1.0,0.5338623999850824,,,,,sub-235,1,stroop_test,137.86238853402975,
,,,,117.0,9.0,9.0,,,,,,,,,,,,,blau,yellow,g,0.0,g,1.0,0.633143899962306,,,,,,,,,,9.0,9.0,117.0,7.0,493.7557853000472,,,,,,,,,,,,,,,,,493.74909560004016,494.0940423000138,494.90204890002497,494.8784933999996,,,,,,,,,,,,,,,,,,,,,,,,,,,,,,,,,,,494.8935232000076,494.90204890002497,494.90204890002497,495.5394007000141,g,1.0,0.633143899962306,,,,,sub-235,1,stroop_test,137.86238853402975,
,,,,118.0,10.0,9.0,,,,,,,,,,,,,blau,red,r,0.0,r,1.0,0.5660116999642923,,,,,,,,,,9.0,10.0,118.0,4.0,495.5497409000527,,,,,,,,,,,,,,,,,495.5402549999999,496.3350248000352,497.13342140003806,497.1202792000258,,,,,,,,,,,,,,,,,,,,,,,,,,,,,,,,,,,497.1223440000322,497.13342140003806,497.13342140003806,497.7058084000018,r,1.0,0.5660116999642923,,,,,sub-235,1,stroop_test,137.86238853402975,
,,,,119.0,11.0,9.0,,,,,,,,,,,,,rot,yellow,g,0.0,g,1.0,0.695242399990093,,,,,,,,,,9.0,11.0,119.0,3.0,497.7131835000473,,,,,,,,,,,,,,,,,497.7066524000256,498.9009750999976,499.7051848000265,499.6856897000107,,,,,,,,,,,,,,,,,,,,,,,,,,,,,,,,,,,499.6954141000169,499.7051848000265,499.7051848000265,500.4060375000117,g,1.0,0.695242399990093,,,,,sub-235,1,stroop_test,137.86238853402975,
,,,,,,,,,,,,,,,,,,,,,,,,,,,,,,,,,,,,,,,,,,,,,,,,,,,,,,,,,,,,,,,,,,,,,,,,,,,,,,,,,,,,,,,,,,,,,,,,,,,,,,500.40663020004285,500.4173278000089,505.4078958000173,sub-235,1,stroop_test,137.86238853402975,
