direction,corrAns,thisN,thisTrialN,thisRepN,respDots.keys,respDots.corr,respDots.rt,respDots.duration,randomInstr,respRandomInstr.keys,respRandomInstr.rt,respRandomInstr.duration,practice_trials.thisRepN,practice_trials.thisTrialN,practice_trials.thisN,practice_trials.thisIndex,instr_trials.thisRepN,instr_trials.thisTrialN,instr_trials.thisN,instr_trials.thisIndex,test_trials.thisRepN,test_trials.thisTrialN,test_trials.thisN,test_trials.thisIndex,thisRow.t,notes,general_instruction.started,textGeneralInstr.started,respGeneralInstr.started,general_instruction.stopped,respGeneralInstr.keys,respGeneralInstr.rt,respGeneralInstr.duration,ITI.started,fixcross.started,fixcross.stopped,ITI.stopped,dots.started,backgroundDots.started,stimulusDots.started,respDots.started,dots.stopped,practice_trials.respDots.keys,practice_trials.respDots.corr,practice_trials.respDots.rt,practice_trials.respDots.duration,feedback.started,textFeedback.started,feedback.stopped,textFeedback.stopped,stimulusDots.stopped,info.started,textInfo.started,keyRespInfo.started,info.stopped,keyRespInfo.keys,keyRespInfo.rt,keyRespInfo.duration,test_instruction.started,textTestInstr.started,respTestInstr.started,test_instruction.stopped,respTestInstr.keys,respTestInstr.rt,respTestInstr.duration,random_instruction.started,textRandomInstr.started,respRandomInstr.started,random_instruction.stopped,instr_trials.respRandomInstr.keys,instr_trials.respRandomInstr.rt,instr_trials.respRandomInstr.duration,test_trials.respDots.keys,test_trials.respDots.corr,test_trials.respDots.rt,test_trials.respDots.duration,goodbye.started,textGoodbye.started,goodbye.stopped,participant,session,expName,frameRate,Unnamed: 87
,,,,,,,,,,,,,,,,,,,,,,,,,,,0.0093086999986553,0.0340446999980486,0.0340446999980486,1.4214737999973297,space,1.2409947999985889,,,,,,,,,,,,,,,,,,,,,,,,,,,,,,,,,,,,,,,,,,,,,,,,sub-165,1,random_dot,,
right,right,0.0,0.0,0.0,left,0.0,0.9054915999986406,,,,,,0.0,0.0,0.0,1.0,,,,,,,,,1.4860270999997738,,,,,,,,,1.4703607999981614,1.7722281999995175,2.6088485999971454,2.572069999998348,2.572999999996682,2.6088485999971454,2.6088485999971454,2.6088485999971454,3.5320563999994192,left,0.0,0.9054915999986406,,3.560034399997676,3.575453199999174,4.037530799996603,,,,,,,,,,,,,,,,,,,,,,,,,,,,,,,sub-165,1,random_dot,,
left,left,1.0,1.0,0.0,right,0.0,1.6196276000009675,,,,,,0.0,1.0,1.0,0.0,,,,,,,,,4.053939199999149,,,,,,,,,4.038234799998463,5.237533899999107,6.042039500000101,6.021977199998219,6.022986699998,6.042039500000101,6.042039500000101,6.042039500000101,7.678698799998529,right,0.0,1.6196276000009675,,7.6789702999994915,7.690704699998605,8.187644499997987,,,,,,,,,,,,,,,,,,,,,,,,,,,,,,,sub-165,1,random_dot,,
left,left,2.0,0.0,1.0,right,0.0,1.834100700001727,,,,,,1.0,0.0,2.0,0.0,,,,,,,,,8.20442749999711,,,,,,,,,8.18849009999758,9.387955899997904,10.193145299999742,10.172746099997312,10.173593499999695,10.193145299999742,10.193145299999742,10.193145299999742,12.03540399999838,right,0.0,1.834100700001727,,12.035656500000186,12.04762579999806,12.537619999999151,,,,,,,,,,,,,,,,,,,,,,,,,,,,,,,sub-165,1,random_dot,,
right,right,3.0,1.0,1.0,left,0.0,3.263689899999008,,,,,,1.0,1.0,3.0,1.0,,,,,,,,,12.554139799998666,,,,,,,,,12.53830519999974,13.7380471999968,14.544160099998408,14.523157899999203,14.524100299997372,14.544160099998408,14.544160099998408,14.544160099998408,17.812716599997657,left,0.0,3.263689899999008,,17.812965999997687,17.824746199999936,18.321359499997925,,,,,,,,,,,,,,,,,,,,,,,,,,,,,,,sub-165,1,random_dot,,
right,right,4.0,0.0,2.0,left,0.0,3.12356440000076,,,,,,2.0,0.0,4.0,1.0,,,,,,,,,18.33741379999992,,,,,,,,,18.322060299997247,18.67141119999724,19.47798509999848,19.456561299997706,19.45747889999984,19.47798509999848,19.47798509999848,19.47798509999848,22.614570799996727,left,0.0,3.12356440000076,,22.61485189999803,22.62812269999995,23.12228909999976,,,,,,,,,,,,,,,,,,,,,,,,,,,,,,,sub-165,1,random_dot,,
left,left,5.0,1.0,2.0,right,0.0,2.591087900000275,,,,,,2.0,1.0,5.0,0.0,,,,,,,,,23.138148099998944,,,,,,,,,23.12308779999876,24.32160149999981,25.12815819999741,25.107237699998223,25.10821119999673,25.12815819999741,25.12815819999741,25.12815819999741,27.738538799996604,right,0.0,2.591087900000275,,27.73878109999714,27.75322799999776,28.240085599998565,28.255352399999538,,,,,,,,,,,,,,,,,,,,,,,,,,,,,,sub-165,1,random_dot,,
left,left,6.0,0.0,3.0,right,0.0,1.941519400003017,,,,,,3.0,0.0,6.0,0.0,,,,,,,,,28.255352399999538,,,,,,,,,28.24088909999773,28.33873919999678,29.151303599999665,29.134998800000176,29.13535619999675,29.151303599999665,29.151303599999665,29.151303599999665,31.113228099999105,right,0.0,1.941519400003017,,31.11348050000015,31.12470199999734,31.609976499999902,31.624915799999144,,,,,,,,,,,,,,,,,,,,,,,,,,,,,,sub-165,1,random_dot,,
right,right,7.0,1.0,3.0,left,0.0,1.0766623000017717,,,,,,3.0,1.0,7.0,1.0,,,,,,,,,31.624915799999144,,,,,,,,,31.611120800000208,31.971588199998223,32.77877979999903,32.757099699996616,32.75810019999699,32.77877979999903,32.77877979999903,32.77877979999903,33.86586129999705,left,0.0,1.0766623000017717,,33.86630719999812,33.88261809999676,34.37200229999871,,,,,,,,,,,,,,,,,,,,,,,,,,,,,,,sub-165,1,random_dot,,
right,right,8.0,0.0,4.0,left,0.0,0.7993573999992805,,,,,,4.0,0.0,8.0,1.0,,,,,,,,,34.38885519999894,,,,,,,,,34.37282789999881,34.72200469999734,35.528136999997514,35.50687469999684,35.50778939999873,35.528136999997514,35.528136999997514,35.528136999997514,36.33571729999676,left,0.0,0.7993573999992805,,36.336001899999246,36.348435199997766,36.83937309999965,,,,,,,,,,,,,,,,,,,,,,,,,,,,,,,sub-165,1,random_dot,,
left,left,9.0,1.0,4.0,left,1.0,1.201312200002576,,,,,,4.0,1.0,9.0,0.0,,,,,,,,,36.85557629999676,,,,,,,,,36.84023249999882,38.03832679999687,38.84650279999914,38.823470599996654,38.8244537999999,38.84650279999914,38.84650279999914,38.84650279999914,40.0527071999968,left,1.0,1.201312200002576,,40.07658439999796,40.08953979999933,40.554752399999416,,,,,,,,,,,,,,,,,,,,,,,,,,,,,,,sub-165,1,random_dot,,
left,left,10.0,0.0,5.0,right,0.0,5.316322700000455,,,,,,5.0,0.0,10.0,0.0,,,,,,,,,40.5709715999983,,,,,,,,,40.5554839999968,40.905383399996936,41.71125159999792,41.69023759999982,41.69117719999849,41.71125159999792,41.71125159999792,41.71125159999792,47.04317249999804,right,0.0,5.316322700000455,,47.0527669999974,47.06565289999708,47.55615019999823,,46.69341299999724,,,,,,,,,,,,,,,,,,,,,,,,,,,,,sub-165,1,random_dot,,
right,right,11.0,1.0,5.0,left,0.0,1.5850463999995554,,,,,,5.0,1.0,11.0,1.0,,,,,,,,,47.57258269999875,,,,,,,,,47.556982699999935,48.75523949999842,49.5620173999996,49.54054349999933,49.54150709999885,49.5620173999996,49.5620173999996,49.5620173999996,51.16191369999797,left,0.0,1.5850463999995554,,51.162240999998176,51.17885829999796,51.672346199997264,,,,,,,,,,,,,,,,,,,,,,,,,,,,,,,sub-165,1,random_dot,,
left,left,12.0,0.0,6.0,left,1.0,2.6381086000001237,,,,,,6.0,0.0,12.0,0.0,,,,,,,,,51.68853329999911,,,,,,,,,51.6731437999988,52.472182699999394,53.27878269999928,53.25732439999774,53.25834509999913,53.27878269999928,53.27878269999928,53.27878269999928,55.94121219999943,left,1.0,2.6381086000001237,,55.95173089999662,55.96772549999878,56.45642210000005,,,,,,,,,,,,,,,,,,,,,,,,,,,,,,,sub-165,1,random_dot,,
right,right,13.0,1.0,6.0,left,0.0,2.586812400000781,,,,,,6.0,1.0,13.0,1.0,,,,,,,,,56.47255729999961,,,,,,,,,56.45724499999778,57.65615399999661,58.46308849999696,58.44064439999784,58.441580599999725,58.46308849999696,58.46308849999696,58.46308849999696,61.06424960000004,left,0.0,2.586812400000781,,61.0730233999966,61.08959109999705,61.57244889999856,,,,,,,,,,,,,,,,,,,,,,,,,,,,,,,sub-165,1,random_dot,,
right,right,14.0,0.0,7.0,left,0.0,1.4184440999997605,,,,,,7.0,0.0,14.0,1.0,,,,,,,,,61.58891919999951,,,,,,,,,61.57327099999748,61.92231059999904,62.72898039999927,62.70773039999767,62.70866579999711,62.72898039999927,62.72898039999927,62.72898039999927,64.15277389999756,left,0.0,1.4184440999997605,,64.15305859999717,64.16495609999765,64.6565159999991,,,,,,,,,,,,,,,,,,,,,,,,,,,,,,,sub-165,1,random_dot,,
left,left,15.0,1.0,7.0,right,0.0,0.9675978999985092,,,,,,7.0,1.0,15.0,0.0,,,,,,,,,64.67282489999707,,,,,,,,,64.65734169999996,65.00601229999666,65.81257339999866,65.79132879999815,65.79228729999886,65.81257339999866,65.81257339999866,65.81257339999866,66.78373819999979,right,0.0,0.9675978999985092,,66.78411869999763,66.7981362999999,67.28952199999912,,,,,,,,,,,,,,,,,,,,,,,,,,,,,,,sub-165,1,random_dot,,
left,left,16.0,0.0,8.0,right,0.0,0.9113225000000966,,,,,,8.0,0.0,16.0,0.0,,,,,,,,,67.30600429999686,,,,,,,,,67.29037369999787,67.3891982999994,68.19668519999686,68.17402359999687,68.17500469999868,68.19668519999686,68.19668519999686,68.19668519999686,69.11269119999997,right,0.0,0.9113225000000966,,69.1129383999978,69.1376436999999,69.62284589999763,,,,,,,,,,,,,,,,,,,,,,,,,,,,,,,sub-165,1,random_dot,,
right,right,17.0,1.0,8.0,left,0.0,1.6547696000016003,,,,,,8.0,1.0,17.0,1.0,,,,,,,,,69.63935949999723,,,,,,,,,69.62371659999917,70.81907039999714,71.62804549999782,71.60765869999886,71.60850339999888,71.62804549999782,71.62804549999782,71.62804549999782,73.28880029999709,left,0.0,1.6547696000016003,,73.28908229999797,73.30390589999661,73.78925849999723,,,,,,,,,,,,,,,,,,,,,,,,,,,,,,,sub-165,1,random_dot,,
left,left,18.0,0.0,9.0,left,1.0,1.8785537000003387,,,,,,9.0,0.0,18.0,0.0,,,,,,,,,73.80528989999948,,,,,,,,,73.79009219999716,74.58886739999798,75.39638909999849,75.37427109999771,75.3751900999996,75.39638909999849,75.39638909999849,75.39638909999849,77.29128529999798,left,1.0,1.8785537000003387,,77.30155299999751,77.31535789999907,77.80656829999862,,,,,,,,,,,,,,,,,,,,,,,,,,,,,,,sub-165,1,random_dot,,
right,right,19.0,1.0,9.0,left,0.0,0.9880474999990838,,,,,,9.0,1.0,19.0,1.0,,,,,,,,,77.82296839999981,,,,,,,,,77.80745199999728,78.60587979999764,79.41241929999887,79.3909124999991,79.39188039999863,79.41241929999887,79.41241929999887,79.41241929999887,80.4166026999992,left,0.0,0.9880474999990838,,80.42473039999823,80.43989729999885,80.9231022999993,,,,,,,,,,,,,,,,,,,,,,,,,,,,,,,sub-165,1,random_dot,,
,,,,,,,,,,,,,,,,,,,,,,,,,,,,,,,,,,,,,,,,,,,,,,,,,,,,80.92349509999985,80.94350369999665,80.94350369999665,83.34355589999905,space,2.3898570999990625,,,,,,,,,,,,,,,,,,,,,,,sub-165,1,random_dot,,
,,,,,,,,,,,,,,,,,,,,,,,,,,,,,,,,,,,,,,,,,,,,,,,,,,,,,,,,,,,83.34385609999663,83.36171919999833,83.36171919999833,85.0128186999973,space,1.6321909999969648,,,,,,,,,,,,,,,,sub-165,1,random_dot,,
left,left,0.0,0.0,0.0,right,0.0,0.497968600000604,,speed,space,4.858222500002739,,,,,,0.0,0.0,0.0,1.0,0.0,0.0,0.0,0.0,90.07149279999794,,,,,,,,,90.0596403999989,91.27314439999827,92.07921329999954,92.05807389999973,92.0590427999996,92.07921329999954,92.07921329999954,92.07921329999954,92.58141259999684,,,,,,,,,,,,,,,,,,,,,,,,85.13980289999745,85.15764039999704,85.15764039999704,90.04183789999661,space,4.858222500002739,,right,0.0,0.497968600000604,,,,,sub-165,1,random_dot,,
right,right,1.0,1.0,0.0,left,0.0,0.6205333999969298,,speed,space,4.858222500002739,,,,,,0.0,0.0,0.0,1.0,0.0,1.0,1.0,1.0,92.59400099999766,,,,,,,,,92.58228069999676,93.38859799999771,94.19616049999968,94.174751999999,94.1756639999985,94.19616049999968,94.19616049999968,94.19616049999968,94.83476099999824,,,,,,,,,,,,,,,,,,,,,,,,,,,,,,,left,0.0,0.6205333999969298,,,,,sub-165,1,random_dot,,
left,left,2.0,0.0,1.0,left,1.0,0.6623975999973482,,speed,space,4.858222500002739,,,,,,0.0,0.0,0.0,1.0,1.0,0.0,2.0,0.0,94.84764229999928,,,,,,,,,94.83582699999896,95.18923240000004,95.9956988999984,95.9745015999979,95.97546239999792,95.9956988999984,95.9956988999984,95.9956988999984,96.6756069999974,,,,,,,,,,,,,,,,,,,,,,,,,,,,,,,left,1.0,0.6623975999973482,,,,,sub-165,1,random_dot,,
right,right,3.0,1.0,1.0,right,1.0,0.5324398999982805,,speed,space,4.858222500002739,,,,,,0.0,0.0,0.0,1.0,1.0,1.0,3.0,1.0,96.69170829999712,,,,,,,,,96.67680519999703,97.04002859999672,97.84626449999996,97.8251289999971,97.82609169999704,97.84626449999996,97.84626449999996,97.84626449999996,98.3837112000001,,,,,,,,,,,,,,,,,,,,,,,,,,,,,,,right,1.0,0.5324398999982805,,,,,sub-165,1,random_dot,,
right,right,4.0,0.0,2.0,left,0.0,0.5969177999977546,,speed,space,4.858222500002739,,,,,,0.0,0.0,0.0,1.0,2.0,0.0,4.0,1.0,98.39603429999988,,,,,,,,,98.38463279999996,99.19000529999904,99.99580069999864,99.97469379999892,99.97563439999794,99.99580069999864,99.99580069999864,99.99580069999864,100.60123069999828,,,,,,,,,,,,,,,,,,,,,,,,,,,,,,,left,0.0,0.5969177999977546,,,,,sub-165,1,random_dot,,
left,left,5.0,1.0,2.0,right,0.0,0.7418006000007153,,speed,space,4.858222500002739,,,,,,0.0,0.0,0.0,1.0,2.0,1.0,5.0,0.0,100.61426649999704,,,,,,,,,100.60239719999664,100.70567039999878,101.51309279999988,101.49188279999726,101.4928351999988,101.51309279999988,101.51309279999988,101.51309279999988,102.26802609999868,,,,,,,,,,,,,,,,,,,,,,,,,,,,,,,right,0.0,0.7418006000007153,,,,,sub-165,1,random_dot,,
right,right,6.0,0.0,3.0,right,1.0,0.6101030000027095,,speed,space,4.858222500002739,,,,,,0.0,0.0,0.0,1.0,3.0,0.0,6.0,1.0,102.28078789999928,,,,,,,,,102.26937839999664,102.62337109999862,103.42923840000005,103.40803819999928,103.40895799999998,103.42923840000005,103.42923840000005,103.42923840000005,104.0498400999968,,,,,,,,,,,,,,,,,,,,,,,,,,,,,,,right,1.0,0.6101030000027095,,,,,sub-165,1,random_dot,,
left,left,7.0,1.0,3.0,right,0.0,0.7000991000022623,,speed,space,4.858222500002739,,,,,,0.0,0.0,0.0,1.0,3.0,1.0,7.0,0.0,104.0626663999974,,,,,,,,,104.05110889999924,104.4065746999986,105.21306689999984,105.19162069999948,105.19257079999808,105.21306689999984,105.21306689999984,105.21306689999984,105.91660619999676,,,,,,,,,,,,,,,,,,,,,,,,,,,,,,,right,0.0,0.7000991000022623,,,,,sub-165,1,random_dot,,
right,right,8.0,0.0,4.0,right,1.0,0.5539037999988068,,speed,space,4.858222500002739,,,,,,0.0,0.0,0.0,1.0,4.0,0.0,8.0,1.0,105.92937539999912,,,,,,,,,105.91786049999791,106.27364939999823,107.07944759999737,107.0579994999971,107.05891209999754,107.07944759999737,107.07944759999737,107.07944759999737,107.63791759999732,,,,,,,,,,,,,,,,,,,,,,,,,,,,,,,right,1.0,0.5539037999988068,,,,,sub-165,1,random_dot,,
left,left,9.0,1.0,4.0,right,0.0,0.8699145999999018,,speed,space,4.858222500002739,,,,,,0.0,0.0,0.0,1.0,4.0,1.0,9.0,0.0,107.6501212999974,,,,,,,,,107.6388995999987,107.9895566999985,108.79592649999904,108.77491729999748,108.77583389999928,108.79592649999904,108.79592649999904,108.79592649999904,109.68187679999755,,,,,,,,,,,,,,,,,,,,,,,,,,,,,,,right,0.0,0.8699145999999018,,,,,sub-165,1,random_dot,,
right,right,10.0,0.0,5.0,right,1.0,0.6421348000003491,,speed,space,4.858222500002739,,,,,,0.0,0.0,0.0,1.0,5.0,0.0,10.0,1.0,109.69414939999842,,,,,,,,,109.68271699999968,110.48885759999756,111.29780380000012,111.2746195999971,111.27556120000008,111.29780380000012,111.29780380000012,111.29780380000012,111.95968639999774,,,,,,,,,,,,,,,,,,,,,,,,,,,,,,,right,1.0,0.6421348000003491,,,,,sub-165,1,random_dot,,
left,left,11.0,1.0,5.0,right,0.0,0.5530706999998074,,speed,space,4.858222500002739,,,,,,0.0,0.0,0.0,1.0,5.0,1.0,11.0,0.0,111.97407249999742,,,,,,,,,111.96082889999887,113.1732383999988,113.9795987999969,113.95825530000002,113.95920159999878,113.9795987999969,113.9795987999969,113.9795987999969,114.54950370000006,,,,,,,,,,,,,,,,,,,,,,,,,,,,,,,right,0.0,0.5530706999998074,,,,,sub-165,1,random_dot,,
right,right,12.0,0.0,6.0,left,0.0,0.4146036999991338,,speed,space,4.858222500002739,,,,,,0.0,0.0,0.0,1.0,6.0,0.0,12.0,1.0,114.5618951999968,,,,,,,,,114.55069439999716,114.6558232999996,115.46295589999863,115.44175269999688,115.44266069999868,115.46295589999863,115.46295589999863,115.46295589999863,115.89903619999676,,,,,,,,,,,,,,,,,,,,,,,,,,,,,,,left,0.0,0.4146036999991338,,,,,sub-165,1,random_dot,,
left,left,13.0,1.0,6.0,left,1.0,0.3137112000003981,,speed,space,4.858222500002739,,,,,,0.0,0.0,0.0,1.0,6.0,1.0,13.0,0.0,115.9104367,,,,,,,,,115.89992979999806,116.00542289999794,116.81412599999749,116.7918116999972,116.79280589999688,116.81412599999749,116.81412599999749,116.81412599999749,117.13424870000016,,,,,,,,,,,,,,,,,,,,,,,,,,,,,,,left,1.0,0.3137112000003981,,,,,sub-165,1,random_dot,,
left,left,14.0,0.0,7.0,right,0.0,0.2801411000000371,,speed,space,4.858222500002739,,,,,,0.0,0.0,0.0,1.0,7.0,0.0,14.0,0.0,117.1465943999974,,,,,,,,,117.13541189999889,118.33919129999776,119.14369349999834,119.12396779999835,119.12478899999768,119.14369349999834,119.14369349999834,119.14369349999834,119.4271848999997,,,,,,,,,,,,,,,,,,,,,,,,,,,,,,,right,0.0,0.2801411000000371,,,,,sub-165,1,random_dot,,
right,right,15.0,1.0,7.0,right,1.0,0.2871200999979919,,speed,space,4.858222500002739,,,,,,0.0,0.0,0.0,1.0,7.0,1.0,15.0,1.0,119.44233689999965,,,,,,,,,119.42839449999884,120.63995679999788,121.4467975999978,121.4254254999978,121.42647109999962,121.4467975999978,121.4467975999978,121.4467975999978,121.73769489999904,,,,,,,,,,,,,,,,,,,,,,,,,,,,,,,right,1.0,0.2871200999979919,,,,,sub-165,1,random_dot,,
left,left,16.0,0.0,8.0,right,0.0,0.3242922999997972,,speed,space,4.858222500002739,,,,,,0.0,0.0,0.0,1.0,8.0,0.0,16.0,0.0,121.74952779999876,,,,,,,,,121.73858130000008,122.54001929999868,123.34794249999686,123.32495980000022,123.32587429999694,123.34794249999686,123.34794249999686,123.34794249999686,123.68173099999694,,,,,,,,,,,,,,,,,,,,,,,,,,,,,,,right,0.0,0.3242922999997972,,,,,sub-165,1,random_dot,,
right,right,17.0,1.0,8.0,right,1.0,0.4125419000010879,,speed,space,4.858222500002739,,,,,,0.0,0.0,0.0,1.0,8.0,1.0,17.0,1.0,123.69536999999764,,,,,,,,,123.68336559999808,124.04025049999836,124.84716429999752,124.82583899999736,124.82679999999893,124.84716429999752,124.84716429999752,124.84716429999752,125.27788429999782,,,,,,,,,,,,,,,,,,,,,,,,,,,,,,,right,1.0,0.4125419000010879,,,,,sub-165,1,random_dot,,
left,left,18.0,0.0,9.0,left,1.0,0.628583300000173,,speed,space,4.858222500002739,,,,,,0.0,0.0,0.0,1.0,9.0,0.0,18.0,0.0,125.29252769999948,,,,,,,,,125.2787447999981,125.6400842999974,126.44622659999732,126.4249499999969,126.42587549999736,126.44622659999732,126.44622659999732,126.44622659999732,127.09215889999903,,,,,,,,,,,,,,,,,,,,,,,,,,,,,,,left,1.0,0.628583300000173,,,,,sub-165,1,random_dot,,
right,right,19.0,1.0,9.0,left,0.0,0.3395845000013651,,speed,space,4.858222500002739,,,,,,0.0,0.0,0.0,1.0,9.0,1.0,19.0,1.0,127.10766899999726,,,,,,,,,127.0931395999978,127.90650099999766,128.71284599999854,128.69155820000017,128.69250499999907,128.71284599999854,128.71284599999854,128.71284599999854,129.07404039999892,,,,,,,,,,,,,,,,,,,,,,,,,,,,,,,left,0.0,0.3395845000013651,,,,,sub-165,1,random_dot,,
left,left,20.0,0.0,10.0,right,0.0,0.3940867999990587,,speed,space,4.858222500002739,,,,,,0.0,0.0,0.0,1.0,10.0,0.0,20.0,0.0,129.08922339999845,,,,,,,,,129.07488969999758,130.2865729999976,131.09414419999666,131.0739801999989,131.0748120999997,131.09414419999666,131.09414419999666,131.09414419999666,131.50218309999764,,,,,,,,,,,,,,,,,,,,,,,,,,,,,,,right,0.0,0.3940867999990587,,,,,sub-165,1,random_dot,,
right,right,21.0,1.0,10.0,right,1.0,0.4345345000001543,,speed,space,4.858222500002739,,,,,,0.0,0.0,0.0,1.0,10.0,1.0,21.0,1.0,131.51490889999695,,,,,,,,,131.50328949999675,131.8557845999967,132.66051139999763,132.64097299999776,132.64176149999912,132.66051139999763,132.66051139999763,132.66051139999763,133.11398719999852,,,,,,,,,,,,,,,,,,,,,,,,,,,,,,,right,1.0,0.4345345000001543,,,,,sub-165,1,random_dot,,
right,right,22.0,0.0,11.0,right,1.0,0.6178819999986445,,speed,space,4.858222500002739,,,,,,0.0,0.0,0.0,1.0,11.0,0.0,22.0,1.0,133.12504799999806,,,,,,,,,133.1148194999987,133.22278099999676,134.02931089999765,134.00844329999745,134.00939440000002,134.02931089999765,134.02931089999765,134.02931089999765,134.65014119999978,,,,,,,,,,,,,,,,,,,,,,,,,,,,,,,right,1.0,0.6178819999986445,,,,,sub-165,1,random_dot,,
left,left,23.0,1.0,11.0,left,1.0,1.7589616000004753,,speed,space,4.858222500002739,,,,,,0.0,0.0,0.0,1.0,11.0,1.0,23.0,0.0,134.66325399999914,,,,,,,,,134.65143179999723,135.85624379999717,136.66284139999698,136.6419743999977,136.64292639999985,136.66284139999698,136.66284139999698,136.66284139999698,138.4313865999975,,,,,,,,,,,,,,,,,,,,,,,,,,,,,,,left,1.0,1.7589616000004753,,,,,sub-165,1,random_dot,,
right,right,24.0,0.0,12.0,right,1.0,2.5482870000014373,,speed,space,4.858222500002739,,,,,,0.0,0.0,0.0,1.0,12.0,0.0,24.0,1.0,138.44298759999947,,,,,,,,,138.43237859999863,138.54172729999846,139.3631878999986,139.3420284999993,139.34294739999677,139.3631878999986,139.3631878999986,139.3631878999986,141.91886799999702,,,,,,,,,,,,,,,,,,,,,,,,,,,,,,,right,1.0,2.5482870000014373,,,,,sub-165,1,random_dot,,
left,left,25.0,1.0,12.0,left,1.0,0.8596834999989369,,speed,space,4.858222500002739,,,,,,0.0,0.0,0.0,1.0,12.0,1.0,25.0,0.0,141.93074389999674,,,,,,,,,141.91985179999756,143.12399989999903,143.9282149999999,143.90799719999995,143.90879139999743,143.9282149999999,143.9282149999999,143.9282149999999,144.7953385999972,,,,,,,,,,,,,,,,,,,,,,,,,,,,,,,left,1.0,0.8596834999989369,,,,,sub-165,1,random_dot,,
left,left,26.0,0.0,13.0,left,1.0,0.499739300001238,,speed,space,4.858222500002739,,,,,,0.0,0.0,0.0,1.0,13.0,0.0,26.0,0.0,144.8114117999976,,,,,,,,,144.7969071999978,144.90626469999916,145.71375389999957,145.69227729999693,145.69323379999696,145.71375389999957,145.71375389999957,145.71375389999957,146.23086879999755,,,,,,,,,,,,,,,,,,,,,,,,,,,,,,,left,1.0,0.499739300001238,,,,,sub-165,1,random_dot,,
right,right,27.0,1.0,13.0,right,1.0,0.649906299997383,,speed,space,4.858222500002739,,,,,,0.0,0.0,0.0,1.0,13.0,1.0,27.0,1.0,146.24310819999664,,,,,,,,,146.23177479999868,147.04047309999805,147.8483527999997,147.82518969999728,147.8261919999968,147.8483527999997,147.8483527999997,147.8483527999997,148.51579799999672,,,,,,,,,,,,,,,,,,,,,,,,,,,,,,,right,1.0,0.649906299997383,,,,,sub-165,1,random_dot,,
left,left,28.0,0.0,14.0,right,0.0,0.3001670999983616,,speed,space,4.858222500002739,,,,,,0.0,0.0,0.0,1.0,14.0,0.0,28.0,0.0,148.52702999999747,,,,,,,,,148.51669129999937,149.32350289999886,150.1301276999984,150.1088146000002,150.10977329999878,150.1301276999984,150.1301276999984,150.1301276999984,150.44865749999735,,,,,,,,,,,,,,,,,,,,,,,,,,,,,,,right,0.0,0.3001670999983616,,,,,sub-165,1,random_dot,,
right,right,29.0,1.0,14.0,right,1.0,0.5666624999976193,,speed,space,4.858222500002739,,,,,,0.0,0.0,0.0,1.0,14.0,1.0,29.0,1.0,150.46142559999862,,,,,,,,,150.44961989999865,150.55739649999668,151.37777060000008,151.35761799999818,151.35839510000005,151.37777060000008,151.37777060000008,151.37777060000008,151.9528978999988,,,,,,,,,,,,,,,,,,,,,,,,,,,,,,,right,1.0,0.5666624999976193,,,,,sub-165,1,random_dot,,
left,left,30.0,0.0,15.0,left,1.0,1.1618379999999888,,speed,space,4.858222500002739,,,,,,0.0,0.0,0.0,1.0,15.0,0.0,30.0,0.0,151.9649019999997,,,,,,,,,151.9537526999993,152.790133399998,153.59672879999923,153.57529169999907,153.57624719999876,153.59672879999923,153.59672879999923,153.59672879999923,154.77467780000006,,,,,,,,,,,,,,,,,,,,,,,,,,,,,,,left,1.0,1.1618379999999888,,,,,sub-165,1,random_dot,,
right,right,31.0,1.0,15.0,left,0.0,0.510770600001706,,speed,space,4.858222500002739,,,,,,0.0,0.0,0.0,1.0,15.0,1.0,31.0,1.0,154.7916082999982,,,,,,,,,154.77559939999992,155.1414506000001,155.96340009999767,155.94233679999888,155.94328109999697,155.96340009999767,155.96340009999767,155.96340009999767,156.48097349999807,,,,,,,,,,,,,,,,,,,,,,,,,,,,,,,left,0.0,0.510770600001706,,,,,sub-165,1,random_dot,,
right,right,32.0,0.0,16.0,left,0.0,0.3956954999994195,,speed,space,4.858222500002739,,,,,,0.0,0.0,0.0,1.0,16.0,0.0,32.0,1.0,156.49279709999973,,,,,,,,,156.48194379999768,156.58905219999724,157.39672979999887,157.37565849999737,157.37656939999945,157.39672979999887,157.39672979999887,157.39672979999887,157.79756209999687,,,,,,,,,,,,,,,,,,,,,,,,,,,,,,,left,0.0,0.3956954999994195,,,,,sub-165,1,random_dot,,
left,left,33.0,1.0,16.0,right,0.0,0.5261807999995654,,speed,space,4.858222500002739,,,,,,0.0,0.0,0.0,1.0,16.0,1.0,33.0,0.0,157.81000969999877,,,,,,,,,157.79838569999993,159.00704570000016,159.81131539999842,159.79113359999974,159.79195809999874,159.81131539999842,159.81131539999842,159.81131539999842,160.34086169999864,,,,,,,,,,,,,,,,,,,,,,,,,,,,,,,right,0.0,0.5261807999995654,,,,,sub-165,1,random_dot,,
right,right,34.0,0.0,17.0,left,0.0,0.2863388000005216,,speed,space,4.858222500002739,,,,,,0.0,0.0,0.0,1.0,17.0,0.0,34.0,1.0,160.35590579999916,,,,,,,,,160.34171619999688,160.70629109999936,161.5155711999978,161.49314869999944,161.4941149999977,161.5155711999978,161.5155711999978,161.5155711999978,161.81668079999872,,,,,,,,,,,,,,,,,,,,,,,,,,,,,,,left,0.0,0.2863388000005216,,,,,sub-165,1,random_dot,,
left,left,35.0,1.0,17.0,left,1.0,0.5518440999985614,,speed,space,4.858222500002739,,,,,,0.0,0.0,0.0,1.0,17.0,1.0,35.0,0.0,161.8288950999995,,,,,,,,,161.81761639999968,162.62427229999955,163.4302863999983,163.40906079999695,163.41001379999943,163.4302863999983,163.4302863999983,163.4302863999983,164.00274079999872,,,,,,,,,,,,,,,,,,,,,,,,,,,,,,,left,1.0,0.5518440999985614,,,,,sub-165,1,random_dot,,
right,right,36.0,0.0,18.0,right,1.0,0.4719531000009738,,speed,space,4.858222500002739,,,,,,0.0,0.0,0.0,1.0,18.0,0.0,36.0,1.0,164.0144911999996,,,,,,,,,164.0038930999981,164.3572052999989,165.16640799999732,165.14264509999705,165.14358399999765,165.16640799999732,165.16640799999732,165.16640799999732,165.65698839999823,,,,,,,,,,,,,,,,,,,,,,,,,,,,,,,right,1.0,0.4719531000009738,,,,,sub-165,1,random_dot,,
left,left,37.0,1.0,18.0,right,0.0,0.6842996000013954,,speed,space,4.858222500002739,,,,,,0.0,0.0,0.0,1.0,18.0,1.0,37.0,0.0,165.67101939999702,,,,,,,,,165.65782259999833,165.7724574999993,166.58071089999794,166.55928789999962,166.56025469999804,166.58071089999794,166.58071089999794,166.58071089999794,167.28145819999918,,,,,,,,,,,,,,,,,,,,,,,,,,,,,,,right,0.0,0.6842996000013954,,,,,sub-165,1,random_dot,,
left,left,38.0,0.0,19.0,right,0.0,0.9323299000025144,,speed,space,4.858222500002739,,,,,,0.0,0.0,0.0,1.0,19.0,0.0,38.0,0.0,167.2946142999972,,,,,,,,,167.28241799999887,167.38660989999698,168.1967502999978,168.17582559999937,168.17675119999694,168.1967502999978,168.1967502999978,168.1967502999978,169.14757729999835,,,,,,,,,,,,,,,,,,,,,,,,,,,,,,,right,0.0,0.9323299000025144,,,,,sub-165,1,random_dot,,
right,right,39.0,1.0,19.0,left,0.0,0.6583093000008375,,speed,space,4.858222500002739,,,,,,0.0,0.0,0.0,1.0,19.0,1.0,39.0,1.0,169.1722222999997,,,,,,,,,169.1484090999984,169.50731109999833,170.31480190000002,170.2928226999975,170.29380689999743,170.31480190000002,170.31480190000002,170.31480190000002,170.98177049999867,,,,,,,,,,,,,,,,,,,,,,,,,,,,,,,left,0.0,0.6583093000008375,,,,,sub-165,1,random_dot,,
left,left,40.0,0.0,20.0,left,1.0,0.7714388000022154,,speed,space,4.858222500002739,,,,,,0.0,0.0,0.0,1.0,20.0,0.0,40.0,0.0,170.9945673000002,,,,,,,,,170.98266129999683,171.34129839999878,172.1470152999973,172.12557169999857,172.1266313999986,172.1470152999973,172.1470152999973,172.1470152999973,172.9248523999995,,,,,,,,,,,,,,,,,,,,,,,,,,,,,,,left,1.0,0.7714388000022154,,,,,sub-165,1,random_dot,,
right,right,41.0,1.0,20.0,left,0.0,1.2486262999991595,,speed,space,4.858222500002739,,,,,,0.0,0.0,0.0,1.0,20.0,1.0,41.0,1.0,172.94248739999966,,,,,,,,,172.9259196999992,173.72423809999964,174.5304707999967,174.5092706999967,174.51018399999884,174.5304707999967,174.5304707999967,174.5304707999967,175.78199839999797,,,,,,,,,,,,,,,,,,,,,,,,,,,,,,,left,0.0,1.2486262999991595,,,,,sub-165,1,random_dot,,
right,right,42.0,0.0,21.0,right,1.0,0.3653629999971599,,speed,space,4.858222500002739,,,,,,0.0,0.0,0.0,1.0,21.0,0.0,42.0,1.0,175.79360599999927,,,,,,,,,175.78282599999875,176.59121499999674,177.39937969999664,177.37617239999963,177.37712999999712,177.39937969999664,177.39937969999664,177.39937969999664,177.7855684999995,,,,,,,,,,,,,,,,,,,,,,,,,,,,,,,right,1.0,0.3653629999971599,,,,,sub-165,1,random_dot,,
left,left,43.0,1.0,21.0,right,0.0,0.5804143000023032,,speed,space,4.858222500002739,,,,,,0.0,0.0,0.0,1.0,21.0,1.0,43.0,0.0,177.79757609999797,,,,,,,,,177.78664690000005,177.89055879999796,178.6986388999976,178.6771434000002,178.6781661999994,178.6986388999976,178.6986388999976,178.6986388999976,179.2843894999969,,,,,,,,,,,,,,,,,,,,,,,,,,,,,,,right,0.0,0.5804143000023032,,,,,sub-165,1,random_dot,,
left,left,44.0,0.0,22.0,right,0.0,0.4016664999981003,,speed,space,4.858222500002739,,,,,,0.0,0.0,0.0,1.0,22.0,0.0,44.0,0.0,179.2974265999983,,,,,,,,,179.28574619999927,179.64073149999967,180.44798929999888,180.4256762999976,180.42652989999988,180.44798929999888,180.44798929999888,180.44798929999888,180.85314229999855,,,,,,,,,,,,,,,,,,,,,,,,,,,,,,,right,0.0,0.4016664999981003,,,,,sub-165,1,random_dot,,
right,right,45.0,1.0,22.0,right,1.0,0.3882449000011547,,speed,space,4.858222500002739,,,,,,0.0,0.0,0.0,1.0,22.0,1.0,45.0,1.0,180.86503359999915,,,,,,,,,180.853997299997,182.0571319999981,182.87183229999937,182.8542813999993,182.85458449999717,182.87183229999937,182.87183229999937,182.87183229999937,183.27465309999752,,,,,,,,,,,,,,,,,,,,,,,,,,,,,,,right,1.0,0.3882449000011547,,,,,sub-165,1,random_dot,,
right,right,46.0,0.0,23.0,left,0.0,1.86063600000125,,speed,space,4.858222500002739,,,,,,0.0,0.0,0.0,1.0,23.0,0.0,46.0,1.0,183.2900852999992,,,,,,,,,183.27547929999852,183.6243151999988,184.43038589999924,184.40895309999905,184.4099325999996,184.43038589999924,184.43038589999924,184.43038589999924,186.2971800999985,,,,,,,,,,,,,,,,,,,,,,,,,,,,,,,left,0.0,1.86063600000125,,,,,sub-165,1,random_dot,,
left,left,47.0,1.0,23.0,left,1.0,0.3200108999990334,,speed,space,4.858222500002739,,,,,,0.0,0.0,0.0,1.0,23.0,1.0,47.0,0.0,186.3132507999981,,,,,,,,,186.2982697999978,187.50676419999945,188.31378219999897,188.29229419999683,188.29321609999897,188.31378219999897,188.31378219999897,188.31378219999897,188.65113759999804,,,,,,,,,,,,,,,,,,,,,,,,,,,,,,,left,1.0,0.3200108999990334,,,,,sub-165,1,random_dot,,
left,left,48.0,0.0,24.0,right,0.0,0.3665424999999231,,speed,space,4.858222500002739,,,,,,0.0,0.0,0.0,1.0,24.0,0.0,48.0,0.0,188.66317379999964,,,,,,,,,188.65240459999768,188.7564386999984,189.56124259999703,189.5415283000002,189.5423207999993,189.56124259999703,189.56124259999703,189.56124259999703,189.9319249,,,,,,,,,,,,,,,,,,,,,,,,,,,,,,,right,0.0,0.3665424999999231,,,,,sub-165,1,random_dot,,
right,right,49.0,1.0,24.0,right,1.0,0.3099746999978379,,speed,space,4.858222500002739,,,,,,0.0,0.0,0.0,1.0,24.0,1.0,49.0,1.0,189.94510739999896,,,,,,,,,189.9333306999979,190.29023739999684,191.09980399999768,191.0763985999984,191.07731029999923,191.09980399999768,191.09980399999768,191.09980399999768,191.4186190999972,,,,,,,,,,,,,,,,,,,,,,,,,,,,,,,right,1.0,0.3099746999978379,,,,,sub-165,1,random_dot,,
right,right,50.0,0.0,25.0,right,1.0,0.5319405999980518,,speed,space,4.858222500002739,,,,,,0.0,0.0,0.0,1.0,25.0,0.0,50.0,1.0,191.43133419999867,,,,,,,,,191.41974130000017,192.22442389999924,193.0326368999995,193.0111786999987,193.01255329999915,193.0326368999995,193.0326368999995,193.0326368999995,193.57612419999717,,,,,,,,,,,,,,,,,,,,,,,,,,,,,,,right,1.0,0.5319405999980518,,,,,sub-165,1,random_dot,,
left,left,51.0,1.0,25.0,left,1.0,0.6416205000023183,,speed,space,4.858222500002739,,,,,,0.0,0.0,0.0,1.0,25.0,1.0,51.0,0.0,193.5907483999981,,,,,,,,,193.57698549999984,194.7908998999992,195.59736329999944,195.575958999998,195.57687629999785,195.59736329999944,195.59736329999944,195.59736329999944,196.2475545999987,,,,,,,,,,,,,,,,,,,,,,,,,,,,,,,left,1.0,0.6416205000023183,,,,,sub-165,1,random_dot,,
left,left,52.0,0.0,26.0,left,1.0,1.2672824000001128,,speed,space,4.858222500002739,,,,,,0.0,0.0,0.0,1.0,26.0,0.0,52.0,0.0,196.260710999999,,,,,,,,,196.24837409999964,197.0578771999972,197.8644209999984,197.84325739999983,197.844205399997,197.8644209999984,197.8644209999984,197.8644209999984,199.13783859999967,,,,,,,,,,,,,,,,,,,,,,,,,,,,,,,left,1.0,1.2672824000001128,,,,,sub-165,1,random_dot,,
right,right,53.0,1.0,26.0,right,1.0,1.4314504000030863,,speed,space,4.858222500002739,,,,,,0.0,0.0,0.0,1.0,26.0,1.0,53.0,1.0,199.14948769999685,,,,,,,,,199.1386840999985,199.2399512999982,200.047604899999,200.02627500000017,200.0272248000001,200.047604899999,200.047604899999,200.047604899999,201.4994130999985,,,,,,,,,,,,,,,,,,,,,,,,,,,,,,,right,1.0,1.4314504000030863,,,,,sub-165,1,random_dot,,
left,left,54.0,0.0,27.0,right,0.0,0.7599412999988999,,speed,space,4.858222500002739,,,,,,0.0,0.0,0.0,1.0,27.0,0.0,54.0,0.0,201.51030089999767,,,,,,,,,201.50029299999733,201.60641479999688,202.414507999998,202.392799199999,202.3937162999973,202.414507999998,202.414507999998,202.414507999998,203.17790590000004,,,,,,,,,,,,,,,,,,,,,,,,,,,,,,,right,0.0,0.7599412999988999,,,,,sub-165,1,random_dot,,
right,right,55.0,1.0,27.0,left,0.0,0.6350284000000102,,speed,space,4.858222500002739,,,,,,0.0,0.0,0.0,1.0,27.0,1.0,55.0,1.0,203.1927039000002,,,,,,,,,203.1790473000001,204.39124019999872,205.19733989999804,205.1759074999973,205.17682179999971,205.19733989999804,205.19733989999804,205.19733989999804,205.84775009999797,,,,,,,,,,,,,,,,,,,,,,,,,,,,,,,left,0.0,0.6350284000000102,,,,,sub-165,1,random_dot,,
left,left,56.0,0.0,28.0,left,1.0,0.6619883999992453,,speed,space,4.858222500002739,,,,,,0.0,0.0,0.0,1.0,28.0,0.0,56.0,0.0,205.8619039999976,,,,,,,,,205.848723799998,206.657807399999,207.4641660999987,207.44282849999945,207.4437756999978,207.4641660999987,207.4641660999987,207.4641660999987,208.1367003999985,,,,,,,,,,,,,,,,,,,,,,,,,,,,,,,left,1.0,0.6619883999992453,,,,,sub-165,1,random_dot,,
right,right,57.0,1.0,28.0,left,0.0,2.4996432999978424,,speed,space,4.858222500002739,,,,,,0.0,0.0,0.0,1.0,28.0,1.0,57.0,1.0,208.14872269999975,,,,,,,,,208.137863699998,208.23988019999888,209.04917099999875,209.02610019999705,209.02705079999944,209.04917099999875,209.04917099999875,209.04917099999875,211.56155599999693,,,,,,,,,,,,,,,,,,,,,,,,,,,,,,,left,0.0,2.4996432999978424,,,,,sub-165,1,random_dot,,
left,left,58.0,0.0,29.0,right,0.0,0.6945844000001671,,speed,space,4.858222500002739,,,,,,0.0,0.0,0.0,1.0,29.0,0.0,58.0,0.0,211.5766109999968,,,,,,,,,211.56251869999687,211.92445609999777,212.73083819999735,212.70961749999697,212.7105328999969,212.73083819999735,212.73083819999735,212.73083819999735,213.4321628999969,,,,,,,,,,,,,,,,,,,,,,,,,,,,,,,right,0.0,0.6945844000001671,,,,,sub-165,1,random_dot,,
right,right,59.0,1.0,29.0,left,0.0,0.4205914000012853,,speed,space,4.858222500002739,,,,,,0.0,0.0,0.0,1.0,29.0,1.0,59.0,1.0,213.4446199999984,,,,,,,,,213.4330130999988,214.24094209999748,215.04866149999725,215.0273583999988,215.02835349999805,215.04866149999725,215.04866149999725,215.04866149999725,215.48163199999908,,,,,,,,,,,,,,,,,,,,,,,,,,,,,,,left,0.0,0.4205914000012853,,,,,sub-165,1,random_dot,,
,,0.0,0.0,0.0,,,,,speed,space,4.858222500002739,,,,,,0.0,0.0,0.0,1.0,,,,,,,,,,,,,,,,,,,,,,,,,,,,,,,,,,,,,,,,,,,,,,,,,,,,,,,,,,,,sub-165,1,random_dot,,
left,left,0.0,0.0,0.0,left,1.0,3.4935757999992347,,accuracy,space,2.3291430000026594,,,,,,0.0,1.0,1.0,0.0,0.0,0.0,0.0,0.0,217.92904959999944,,,,,,,,,217.91742519999752,218.25790679999773,219.0642976999989,219.04282779999997,219.04381569999896,219.0642976999989,219.0642976999989,219.0642976999989,222.5654743999985,,,,,,,,,,,,,,,,,,,,,,,,215.53510370000004,215.5507112999985,215.5507112999985,217.8965532000002,space,2.3291430000026594,,left,1.0,3.4935757999992347,,,,,sub-165,1,random_dot,,
right,right,1.0,1.0,0.0,right,1.0,1.8841977999982191,,accuracy,space,2.3291430000026594,,,,,,0.0,1.0,1.0,0.0,0.0,1.0,1.0,1.0,222.5779384999987,,,,,,,,,222.56633239999792,223.3750998999967,224.19057199999952,224.16460240000012,224.16545699999915,224.19057199999952,224.19057199999952,224.19057199999952,226.08300579999923,,,,,,,,,,,,,,,,,,,,,,,,,,,,,,,right,1.0,1.8841977999982191,,,,,sub-165,1,random_dot,,
left,left,2.0,0.0,1.0,left,1.0,1.5629698999982793,,accuracy,space,2.3291430000026594,,,,,,0.0,1.0,1.0,0.0,1.0,0.0,2.0,0.0,226.0953163999984,,,,,,,,,226.08386029999747,227.29112349999923,228.09788829999889,228.07662179999895,228.07758699999977,228.09788829999889,228.09788829999889,228.09788829999889,229.68225399999935,,,,,,,,,,,,,,,,,,,,,,,,,,,,,,,left,1.0,1.5629698999982793,,,,,sub-165,1,random_dot,,
right,right,3.0,1.0,1.0,right,1.0,1.9034609000009368,,accuracy,space,2.3291430000026594,,,,,,0.0,1.0,1.0,0.0,1.0,1.0,3.0,1.0,229.69309179999985,,,,,,,,,229.68306929999744,230.89114269999845,231.69758589999765,231.6766538999982,231.67756139999983,231.69758589999765,231.69758589999765,231.69758589999765,233.61517569999705,,,,,,,,,,,,,,,,,,,,,,,,,,,,,,,right,1.0,1.9034609000009368,,,,,sub-165,1,random_dot,,
right,right,4.0,0.0,2.0,right,1.0,5.489062500000728,,accuracy,space,2.3291430000026594,,,,,,0.0,1.0,1.0,0.0,2.0,0.0,4.0,1.0,233.628486499998,,,,,,,,,233.61605639999837,233.9750705999977,234.7959648999968,234.77580589999707,234.7765935999996,234.7959648999968,234.7959648999968,234.7959648999968,240.2929456999991,,,,,,,,,239.79437719999987,,,,,,,,,,,,,,,,,,,,,,right,1.0,5.489062500000728,,,,,sub-165,1,random_dot,,
left,left,5.0,1.0,2.0,left,1.0,2.0612535000000207,,accuracy,space,2.3291430000026594,,,,,,0.0,1.0,1.0,0.0,2.0,1.0,5.0,0.0,240.3080894999985,,,,,,,,,240.29377419999943,240.40700819999984,241.2144984999977,241.1932115999989,241.19412819999707,241.2144984999977,241.2144984999977,241.2144984999977,243.28411119999876,,,,,,,,,,,,,,,,,,,,,,,,,,,,,,,left,1.0,2.0612535000000207,,,,,sub-165,1,random_dot,,
right,right,6.0,0.0,3.0,right,1.0,1.0468919999984792,,accuracy,space,2.3291430000026594,,,,,,0.0,1.0,1.0,0.0,3.0,0.0,6.0,1.0,243.2969830999973,,,,,,,,,243.2850722999974,243.6413652999981,244.4479117999981,244.4267516999971,244.42769449999832,244.4479117999981,244.4479117999981,244.4479117999981,245.50385359999927,,,,,,,,,,,,,,,,,,,,,,,,,,,,,,,right,1.0,1.0468919999984792,,,,,sub-165,1,random_dot,,
left,left,7.0,1.0,3.0,left,1.0,1.394631200000731,,accuracy,space,2.3291430000026594,,,,,,0.0,1.0,1.0,0.0,3.0,1.0,7.0,0.0,245.5162243999985,,,,,,,,,245.50502739999865,245.85811489999836,246.66530339999736,246.64430569999968,246.64523329999795,246.66530339999736,246.66530339999736,246.66530339999736,248.06292589999796,,,,,,,,,,,,,,,,,,,,,,,,,,,,,,,left,1.0,1.394631200000731,,,,,sub-165,1,random_dot,,
right,right,8.0,0.0,4.0,right,1.0,1.8284127000006265,,accuracy,space,2.3291430000026594,,,,,,0.0,1.0,1.0,0.0,4.0,0.0,8.0,1.0,248.07879069999765,,,,,,,,,248.06392309999865,248.4253783999993,249.23134579999896,249.21006799999668,249.210977499999,249.23134579999896,249.23134579999896,249.23134579999896,251.06784100000004,,,,,,,,,,,,,,,,,,,,,,,,,,,,,,,right,1.0,1.8284127000006265,,,,,sub-165,1,random_dot,,
left,left,9.0,1.0,4.0,right,0.0,1.2698922999989009,,accuracy,space,2.3291430000026594,,,,,,0.0,1.0,1.0,0.0,4.0,1.0,9.0,0.0,251.08019409999903,,,,,,,,,251.0688130999988,252.2752146999992,253.08170299999983,253.0601291999992,253.06107469999915,253.08170299999983,253.08170299999983,253.08170299999983,254.3633553999971,,,,,,,,,,,,,,,,,,,,,,,,,,,,,,,right,0.0,1.2698922999989009,,,,,sub-165,1,random_dot,,
right,right,10.0,0.0,5.0,right,1.0,1.5055299999985436,,accuracy,space,2.3291430000026594,,,,,,0.0,1.0,1.0,0.0,5.0,0.0,10.0,1.0,254.3780420999974,,,,,,,,,254.3643280999968,254.47382399999697,255.28332079999743,255.26048119999905,255.2614016999978,255.28332079999743,255.28332079999743,255.28332079999743,256.81425209999725,,,,,,,,,,,,,,,,,,,,,,,,,,,,,,,right,1.0,1.5055299999985436,,,,,sub-165,1,random_dot,,
left,left,11.0,1.0,5.0,left,1.0,2.42754590000186,,accuracy,space,2.3291430000026594,,,,,,0.0,1.0,1.0,0.0,5.0,1.0,11.0,0.0,256.8303121999997,,,,,,,,,256.81533419999687,257.1752400999976,257.98159809999925,257.960492299997,257.9614054999984,257.98159809999925,257.98159809999925,257.98159809999925,260.4221108999991,,,,,,,,,,,,,,,,,,,,,,,,,,,,,,,left,1.0,2.42754590000186,,,,,sub-165,1,random_dot,,
left,left,12.0,0.0,6.0,right,0.0,2.1851046000010683,,accuracy,space,2.3291430000026594,,,,,,0.0,1.0,1.0,0.0,6.0,0.0,12.0,0.0,260.4339581999993,,,,,,,,,260.4229678999982,260.52381929999683,261.3316191999984,261.31022349999694,261.3111793999997,261.3316191999984,261.3316191999984,261.3316191999984,263.5246466999997,,,,,,,,,,,,,,,,,,,,,,,,,,,,,,,right,0.0,2.1851046000010683,,,,,sub-165,1,random_dot,,
right,right,13.0,1.0,6.0,left,0.0,2.8908866999991005,,accuracy,space,2.3291430000026594,,,,,,0.0,1.0,1.0,0.0,6.0,1.0,13.0,1.0,263.5393669999976,,,,,,,,,263.5254840999987,263.64059389999966,264.44843059999766,264.4268295999973,264.42778069999986,264.44843059999766,264.44843059999766,264.44843059999766,267.3595953999975,,,,,,,,,,,,,,,,,,,,,,,,,,,,,,,left,0.0,2.8908866999991005,,,,,sub-165,1,random_dot,,
right,right,14.0,0.0,7.0,right,1.0,0.8743588999968779,,accuracy,space,2.3291430000026594,,,,,,0.0,1.0,1.0,0.0,7.0,0.0,14.0,1.0,267.3744035999989,,,,,,,,,267.3603872999993,267.725094999998,268.53008679999766,268.50956419999784,268.51035649999903,268.53008679999766,268.53008679999766,268.53008679999766,269.4188213999987,,,,,,,,,,,,,,,,,,,,,,,,,,,,,,,right,1.0,0.8743588999968779,,,,,sub-165,1,random_dot,,
left,left,15.0,1.0,7.0,left,1.0,3.0471193000012136,,accuracy,space,2.3291430000026594,,,,,,0.0,1.0,1.0,0.0,7.0,1.0,15.0,0.0,269.43188389999705,,,,,,,,,269.4198854999995,270.22579659999974,271.03266449999865,271.0114165999985,271.01233539999885,271.03266449999865,271.03266449999865,271.03266449999865,274.08498079999845,,,,,,,,,,,,,,,,,,,,,,,,,,,,,,,left,1.0,3.0471193000012136,,,,,sub-165,1,random_dot,,
left,left,16.0,0.0,8.0,right,0.0,3.0711133999975573,,accuracy,space,2.3291430000026594,,,,,,0.0,1.0,1.0,0.0,8.0,0.0,16.0,0.0,274.097616199997,,,,,,,,,274.08601719999933,274.4416377999987,275.2487594999984,275.2276757999971,275.2286219999987,275.2487594999984,275.2487594999984,275.2487594999984,278.3351395999998,,,,,,,,,,,,,,,,,,,,,,,,,,,,,,,right,0.0,3.0711133999975573,,,,,sub-165,1,random_dot,,
right,right,17.0,1.0,8.0,right,1.0,2.419272800001636,,accuracy,space,2.3291430000026594,,,,,,0.0,1.0,1.0,0.0,8.0,1.0,17.0,1.0,278.3477088,,,,,,,,,278.3362460999997,279.5418273999967,280.3464118999982,280.32611279999765,280.32692269999825,280.3464118999982,280.3464118999982,280.3464118999982,282.7682418999975,,,,,,,,,,,,,,,,,,,,,,,,,,,,,,,right,1.0,2.419272800001636,,,,,sub-165,1,random_dot,,
left,left,18.0,0.0,9.0,left,1.0,2.9254115000003367,,accuracy,space,2.3291430000026594,,,,,,0.0,1.0,1.0,0.0,9.0,0.0,18.0,0.0,282.7807906999988,,,,,,,,,282.76923159999933,283.97610859999986,284.7797348999993,284.7599620000001,284.760758299999,284.7797348999993,284.7797348999993,284.7797348999993,287.7117925999992,,,,,,,,,,,,,,,,,,,,,,,,,,,,,,,left,1.0,2.9254115000003367,,,,,sub-165,1,random_dot,,
right,right,19.0,1.0,9.0,right,1.0,3.1127745999983745,,accuracy,space,2.3291430000026594,,,,,,0.0,1.0,1.0,0.0,9.0,1.0,19.0,1.0,287.7274922999968,,,,,,,,,287.7127213999993,287.8254316999992,288.6342268999979,288.61062479999964,288.61153959999865,288.6342268999979,288.6342268999979,288.6342268999979,291.75326940000014,,,,,,,,,,,,,,,,,,,,,,,,,,,,,,,right,1.0,3.1127745999983745,,,,,sub-165,1,random_dot,,
right,right,20.0,0.0,10.0,right,1.0,1.747635600000649,,accuracy,space,2.3291430000026594,,,,,,0.0,1.0,1.0,0.0,10.0,0.0,20.0,1.0,291.7656836999995,,,,,,,,,291.7544969999981,292.95906079999986,293.7663330999967,293.7459604999967,293.7470136999982,293.7663330999967,293.7663330999967,293.7663330999967,295.5232741999971,,,,,,,,,,,,,,,,,,,,,,,,,,,,,,,right,1.0,1.747635600000649,,,,,sub-165,1,random_dot,,
left,left,21.0,1.0,10.0,left,1.0,1.311650899999222,,accuracy,space,2.3291430000026594,,,,,,0.0,1.0,1.0,0.0,10.0,1.0,21.0,0.0,295.53610449999906,,,,,,,,,295.52428079999663,296.3260850999977,297.1463143999972,297.1263997999995,297.1272018999989,297.1463143999972,297.1463143999972,297.1463143999972,298.46039579999706,,,,,,,,,,,,,,,,,,,,,,,,,,,,,,,left,1.0,1.311650899999222,,,,,sub-165,1,random_dot,,
left,left,22.0,0.0,11.0,right,0.0,1.8000741999967431,,accuracy,space,2.3291430000026594,,,,,,0.0,1.0,1.0,0.0,11.0,0.0,22.0,0.0,298.47524839999824,,,,,,,,,298.46124639999834,298.5748746999998,299.37965659999827,299.3601049999997,299.3608929999973,299.37965659999827,299.37965659999827,299.37965659999827,301.205455299998,,,,,,,,,,,,,,,,,,,,,,,,,,,,,,,right,0.0,1.8000741999967431,,,,,sub-165,1,random_dot,,
right,right,23.0,1.0,11.0,right,1.0,1.251388799999404,,accuracy,space,2.3291430000026594,,,,,,0.0,1.0,1.0,0.0,11.0,1.0,23.0,1.0,301.2166873999995,,,,,,,,,301.2064000999999,301.55856589999894,302.36596689999715,302.34434919999694,302.3453174999995,302.36596689999715,302.36596689999715,302.36596689999715,303.63434549999874,,,,,,,,,,,,,,,,,,,,,,,,,,,,,,,right,1.0,1.251388799999404,,,,,sub-165,1,random_dot,,
left,left,24.0,0.0,12.0,right,0.0,1.7147600000025705,,accuracy,space,2.3291430000026594,,,,,,0.0,1.0,1.0,0.0,12.0,0.0,24.0,0.0,303.64582789999986,,,,,,,,,303.6351634999992,303.74235319999934,304.5488693999978,304.52744379999785,304.5283548999978,304.5488693999978,304.5488693999978,304.5488693999978,306.27711019999697,,,,,,,,,,,,,,,,,,,,,,,,,,,,,,,right,0.0,1.7147600000025705,,,,,sub-165,1,random_dot,,
right,right,25.0,1.0,12.0,right,1.0,1.913062899999204,,accuracy,space,2.3291430000026594,,,,,,0.0,1.0,1.0,0.0,12.0,1.0,25.0,1.0,306.2931305999992,,,,,,,,,306.27802059999885,307.49272089999795,308.2969383999989,308.2766649999976,308.2774823999971,308.2969383999989,308.2969383999989,308.2969383999989,310.2216211999985,,,,,,,,,,,,,,,,,,,,,,,,,,,,,,,right,1.0,1.913062899999204,,,,,sub-165,1,random_dot,,
left,left,26.0,0.0,13.0,right,0.0,1.267530799999804,,accuracy,space,2.3291430000026594,,,,,,0.0,1.0,1.0,0.0,13.0,0.0,26.0,0.0,310.2345647999973,,,,,,,,,310.2229645999978,311.4261314999967,312.2325839999976,312.2114411999973,312.2123861,312.2325839999976,312.2325839999976,312.2325839999976,313.50352569999814,,,,,,,,,,,,,,,,,,,,,,,,,,,,,,,right,0.0,1.267530799999804,,,,,sub-165,1,random_dot,,
right,right,27.0,1.0,13.0,right,1.0,1.710666199996922,,accuracy,space,2.3291430000026594,,,,,,0.0,1.0,1.0,0.0,13.0,1.0,27.0,1.0,313.51588059999995,,,,,,,,,313.50461639999776,313.60792969999966,314.41570149999825,314.3943376999996,314.3953183999984,314.41570149999825,314.41570149999825,314.41570149999825,316.13554069999736,,,,,,,,,,,,,,,,,,,,,,,,,,,,,,,right,1.0,1.710666199996922,,,,,sub-165,1,random_dot,,
left,left,28.0,0.0,14.0,left,1.0,1.5411870999996609,,accuracy,space,2.3291430000026594,,,,,,0.0,1.0,1.0,0.0,14.0,0.0,28.0,0.0,316.14818000000014,,,,,,,,,316.1366160999969,316.24138689999745,317.0481344999971,317.0272015999981,317.0281095999999,317.0481344999971,317.0481344999971,317.0481344999971,318.60155609999856,,,,,,,,,,,,,,,,,,,,,,,,,,,,,,,left,1.0,1.5411870999996609,,,,,sub-165,1,random_dot,,
right,right,29.0,1.0,14.0,right,1.0,1.2086777000004076,,accuracy,space,2.3291430000026594,,,,,,0.0,1.0,1.0,0.0,14.0,1.0,29.0,1.0,318.6137787999978,,,,,,,,,318.6023991000002,318.7089959999976,319.5156074999977,319.49451359999875,319.4954422999981,319.5156074999977,319.5156074999977,319.5156074999977,320.7363430999976,,,,,,,,,,,,,,,,,,,,,,,,,,,,,,,right,1.0,1.2086777000004076,,,,,sub-165,1,random_dot,,
left,left,30.0,0.0,15.0,left,1.0,1.5362727000028826,,accuracy,space,2.3291430000026594,,,,,,0.0,1.0,1.0,0.0,15.0,0.0,30.0,0.0,320.7494427999991,,,,,,,,,320.73746949999986,321.5422112999986,322.34951569999976,322.3280199999972,322.3289469999981,322.34951569999976,322.34951569999976,322.34951569999976,323.9005846999971,,,,,,,,,,,,,,,,,,,,,,,,,,,,,,,left,1.0,1.5362727000028826,,,,,sub-165,1,random_dot,,
right,right,31.0,1.0,15.0,left,0.0,1.5170591000023703,,accuracy,space,2.3291430000026594,,,,,,0.0,1.0,1.0,0.0,15.0,1.0,31.0,1.0,323.9120649999968,,,,,,,,,323.9013978999974,324.0080764999984,324.8154923999973,324.7950772999975,324.7960127999977,324.8154923999973,324.8154923999973,324.8154923999973,326.33632699999725,,,,,,,,,,,,,,,,,,,,,,,,,,,,,,,left,0.0,1.5170591000023703,,,,,sub-165,1,random_dot,,
left,left,32.0,0.0,16.0,right,0.0,2.124175599998125,,accuracy,space,2.3291430000026594,,,,,,0.0,1.0,1.0,0.0,16.0,0.0,32.0,0.0,326.34955369999807,,,,,,,,,326.33743369999866,327.5431068999969,328.3497467999987,328.3286659999976,328.3296730999973,328.3497467999987,328.3497467999987,328.3497467999987,330.48139119999905,,,,,,,,,,,,,,,,,,,,,,,,,,,,,,,right,0.0,2.124175599998125,,,,,sub-165,1,random_dot,,
right,right,33.0,1.0,16.0,right,1.0,1.4184316999999282,,accuracy,space,2.3291430000026594,,,,,,0.0,1.0,1.0,0.0,16.0,1.0,33.0,1.0,330.49625000000015,,,,,,,,,330.48234839999714,331.6932089000002,332.4986837999968,332.4778617999982,332.4787699999979,332.4986837999968,332.4986837999968,332.4986837999968,333.9222062999979,,,,,,,,,,,,,,,,,,,,,,,,,,,,,,,right,1.0,1.4184316999999282,,,,,sub-165,1,random_dot,,
left,left,34.0,0.0,17.0,left,1.0,1.850677900001756,,accuracy,space,2.3291430000026594,,,,,,0.0,1.0,1.0,0.0,17.0,0.0,34.0,0.0,333.93624779999664,,,,,,,,,333.923472399998,334.2762100999971,335.0825303999991,335.06140719999894,335.06239549999736,335.0825303999991,335.0825303999991,335.0825303999991,336.9538014999998,,,,,,,,,,,,,,,,,,,,,,,,,,,,,,,left,1.0,1.850677900001756,,,,,sub-165,1,random_dot,,
right,right,35.0,1.0,17.0,right,1.0,2.184007399999245,,accuracy,space,2.3291430000026594,,,,,,0.0,1.0,1.0,0.0,17.0,1.0,35.0,1.0,336.9663740999968,,,,,,,,,336.95511689999694,337.30905059999714,338.11580409999806,338.094575799998,338.0954782999979,338.11580409999806,338.11580409999806,338.11580409999806,340.31263399999807,,,,,,,,,,,,,,,,,,,,,,,,,,,,,,,right,1.0,2.184007399999245,,,,,sub-165,1,random_dot,,
left,left,36.0,0.0,18.0,right,0.0,2.1985359999998764,,accuracy,space,2.3291430000026594,,,,,,0.0,1.0,1.0,0.0,18.0,0.0,36.0,0.0,340.3279728999987,,,,,,,,,340.31349729999783,340.42620949999764,341.23264740000013,341.2111345999984,341.2120897999994,341.23264740000013,341.23264740000013,341.23264740000013,343.4355602999967,,,,,,,,,,,,,,,,,,,,,,,,,,,,,,,right,0.0,2.1985359999998764,,,,,sub-165,1,random_dot,,
right,right,37.0,1.0,18.0,right,1.0,1.9680082999984732,,accuracy,space,2.3291430000026594,,,,,,0.0,1.0,1.0,0.0,18.0,1.0,37.0,1.0,343.44820439999967,,,,,,,,,343.43647299999793,343.5423338999972,344.34840829999666,344.3282570999981,344.32904229999986,344.34840829999666,344.34840829999666,344.34840829999666,346.3333191999991,,,,,,,,,,,,,,,,,,,,,,,,,,,,,,,right,1.0,1.9680082999984732,,,,,sub-165,1,random_dot,,
left,left,38.0,0.0,19.0,right,0.0,2.3899351000000024,,accuracy,space,2.3291430000026594,,,,,,0.0,1.0,1.0,0.0,19.0,0.0,38.0,0.0,346.34484579999844,,,,,,,,,346.3341674999974,346.4425514999966,347.251812399998,347.2280909000001,347.22906579999835,347.251812399998,347.251812399998,347.251812399998,349.6504607999996,,,,,,,,,,,,,,,,,,,,,,,,,,,,,,,right,0.0,2.3899351000000024,,,,,sub-165,1,random_dot,,
right,right,39.0,1.0,19.0,left,0.0,2.383026499999687,,accuracy,space,2.3291430000026594,,,,,,0.0,1.0,1.0,0.0,19.0,1.0,39.0,1.0,349.6622846999999,,,,,,,,,349.651391899999,350.8600624999999,351.6663223999967,351.6443901999992,351.6454786999966,351.6663223999967,351.6663223999967,351.6663223999967,354.0547007999994,,,,,,,,,,,,,,,,,,,,,,,,,,,,,,,left,0.0,2.383026499999687,,,,,sub-165,1,random_dot,,
right,right,40.0,0.0,20.0,right,1.0,1.243760100001964,,accuracy,space,2.3291430000026594,,,,,,0.0,1.0,1.0,0.0,20.0,0.0,40.0,1.0,354.0669655999991,,,,,,,,,354.0560028999971,354.8593015999977,355.66653759999826,355.64530039999954,355.6462517999971,355.66653759999826,355.66653759999826,355.66653759999826,356.927443499997,,,,,,,,,,,,,,,,,,,,,,,,,,,,,,,right,1.0,1.243760100001964,,,,,sub-165,1,random_dot,,
left,left,41.0,1.0,20.0,right,0.0,2.331297500000801,,accuracy,space,2.3291430000026594,,,,,,0.0,1.0,1.0,0.0,20.0,1.0,41.0,0.0,356.94228959999964,,,,,,,,,356.92827509999915,358.143208999998,358.94960009999704,358.92831939999814,358.92925919999834,358.94960009999704,358.94960009999704,358.94960009999704,361.2963049999999,,,,,,,,,,,,,,,,,,,,,,,,,,,,,,,right,0.0,2.331297500000801,,,,,sub-165,1,random_dot,,
right,right,42.0,0.0,21.0,right,1.0,1.1393443000015395,,accuracy,space,2.3291430000026594,,,,,,0.0,1.0,1.0,0.0,21.0,0.0,42.0,1.0,361.3165010999983,,,,,,,,,361.2974071999997,361.6596952999971,362.4664499999999,362.4449852999969,362.4460478000001,362.4664499999999,362.4664499999999,362.4664499999999,363.6201946999972,,,,,,,,,,,,,,,,,,,,,,,,,,,,,,,right,1.0,1.1393443000015395,,,,,sub-165,1,random_dot,,
left,left,43.0,1.0,21.0,left,1.0,2.291005299997778,,accuracy,space,2.3291430000026594,,,,,,0.0,1.0,1.0,0.0,21.0,1.0,43.0,0.0,363.6334207,,,,,,,,,363.621381099998,363.97591589999865,364.7832072999991,364.76168849999885,364.7626703999995,364.7832072999991,364.7832072999991,364.7832072999991,367.0771202999968,,,,,,,,,,,,,,,,,,,,,,,,,,,,,,,left,1.0,2.291005299997778,,,,,sub-165,1,random_dot,,
left,left,44.0,0.0,22.0,right,0.0,1.5547796999999264,,accuracy,space,2.3291430000026594,,,,,,0.0,1.0,1.0,0.0,22.0,0.0,44.0,0.0,367.09345539999777,,,,,,,,,367.0780417999995,367.8762717999998,368.6828890999968,368.6616690999981,368.662599299998,368.6828890999968,368.6828890999968,368.6828890999968,370.2582638999993,,,,,,,,,,,,,,,,,,,,,,,,,,,,,,,right,0.0,1.5547796999999264,,,,,sub-165,1,random_dot,,
right,right,45.0,1.0,22.0,right,1.0,2.533015299999533,,accuracy,space,2.3291430000026594,,,,,,0.0,1.0,1.0,0.0,22.0,1.0,45.0,1.0,370.2711503999999,,,,,,,,,370.2587668999986,370.3769605999987,371.1820076999975,371.1611939999966,371.1621132,371.1820076999975,371.1820076999975,371.1820076999975,373.71917159999794,,,,,,,,,,,,,,,,,,,,,,,,,,,,,,,right,1.0,2.533015299999533,,,,,sub-165,1,random_dot,,
right,right,46.0,0.0,23.0,right,1.0,2.571323100000882,,accuracy,space,2.3291430000026594,,,,,,0.0,1.0,1.0,0.0,23.0,0.0,46.0,1.0,373.7316852999975,,,,,,,,,373.7200668999976,374.0768642999974,374.8824682999984,374.8614045999966,374.8623513999992,374.8824682999984,374.8824682999984,374.8824682999984,377.467662199997,,,,,,,,,,,,,,,,,,,,,,,,,,,,,,,right,1.0,2.571323100000882,,,,,sub-165,1,random_dot,,
left,left,47.0,1.0,23.0,left,1.0,2.456777899998997,,accuracy,space,2.3291430000026594,,,,,,0.0,1.0,1.0,0.0,23.0,1.0,47.0,0.0,377.4792705999971,,,,,,,,,377.4685944999983,377.57566679999945,378.3831013999989,378.36195459999726,378.3628662999981,378.3831013999989,378.3831013999989,378.3831013999989,380.84470879999935,,,,,,,,,,,,,,,,,,,,,,,,,,,,,,,left,1.0,2.456777899998997,,,,,sub-165,1,random_dot,,
left,left,48.0,0.0,24.0,right,0.0,1.763292999999976,,accuracy,space,2.3291430000026594,,,,,,0.0,1.0,1.0,0.0,24.0,0.0,48.0,0.0,380.86124319999726,,,,,,,,,380.8456381999968,381.6601626999982,382.4666780999978,382.4452199999978,382.4461245999992,382.4666780999978,382.4666780999978,382.4666780999978,384.24490539999897,,,,,,,,,,,,,,,,,,,,,,,,,,,,,,,right,0.0,1.763292999999976,,,,,sub-165,1,random_dot,,
right,right,49.0,1.0,24.0,right,1.0,4.612466200000199,,accuracy,space,2.3291430000026594,,,,,,0.0,1.0,1.0,0.0,24.0,1.0,49.0,1.0,384.2611090999999,,,,,,,,,384.2459858000002,384.6102379999975,385.4166530000002,385.395622,385.396627099999,385.4166530000002,385.4166530000002,385.4166530000002,390.0357939999994,,,,,,,,,,,,,,,,,,,,,,,,,,,,,,,right,1.0,4.612466200000199,,,,,sub-165,1,random_dot,,
right,right,50.0,0.0,25.0,right,1.0,1.6201871000012034,,accuracy,space,2.3291430000026594,,,,,,0.0,1.0,1.0,0.0,25.0,0.0,50.0,1.0,390.0487125999971,,,,,,,,,390.0367442999996,391.2502170999978,392.0667184999984,392.0453654999983,392.0462867999995,392.0667184999984,392.0667184999984,392.0667184999984,393.6936914999969,,,,,,,,,,,,,,,,,,,,,,,,,,,,,,,right,1.0,1.6201871000012034,,,,,sub-165,1,random_dot,,
left,left,51.0,1.0,25.0,right,0.0,1.6791738000029,,accuracy,space,2.3291430000026594,,,,,,0.0,1.0,1.0,0.0,25.0,1.0,51.0,0.0,393.708278099999,,,,,,,,,393.6945498999994,394.89320959999895,395.6979421999968,395.6780347999993,395.6788143999984,395.6979421999968,395.6979421999968,395.6979421999968,397.38791149999815,,,,,,,,,,,,,,,,,,,,,,,,,,,,,,,right,0.0,1.6791738000029,,,,,sub-165,1,random_dot,,
left,left,52.0,0.0,26.0,left,1.0,1.7127380999991146,,accuracy,space,2.3291430000026594,,,,,,0.0,1.0,1.0,0.0,26.0,0.0,52.0,0.0,397.400292899998,,,,,,,,,397.3890634999989,398.1930752999979,399.0002273999999,398.9786653999981,398.9796236000002,399.0002273999999,399.0002273999999,399.0002273999999,400.7228978999992,,,,,,,,,,,,,,,,,,,,,,,,,,,,,,,left,1.0,1.7127380999991146,,,,,sub-165,1,random_dot,,
right,right,53.0,1.0,26.0,right,1.0,0.9698883999990358,,accuracy,space,2.3291430000026594,,,,,,0.0,1.0,1.0,0.0,26.0,1.0,53.0,1.0,400.7350875999982,,,,,,,,,400.7238430999969,401.9273272999999,402.7341502999989,402.7125251999969,402.7135262999982,402.7341502999989,402.7341502999989,402.7341502999989,403.7255551999988,,,,,,,,,,,,,,,,,,,,,,,,,,,,,,,right,1.0,0.9698883999990358,,,,,sub-165,1,random_dot,,
right,right,54.0,0.0,27.0,right,1.0,1.5220936999976402,,accuracy,space,2.3291430000026594,,,,,,0.0,1.0,1.0,0.0,27.0,0.0,54.0,1.0,403.7368405999987,,,,,,,,,403.726512899997,404.5271556999978,405.3331756999978,405.3118166999993,405.3127220999995,405.3331756999978,405.3331756999978,405.3331756999978,406.86884019999707,,,,,,,,,,,,,,,,,,,,,,,,,,,,,,,right,1.0,1.5220936999976402,,,,,sub-165,1,random_dot,,
left,left,55.0,1.0,27.0,left,1.0,0.8119284999993397,,accuracy,space,2.3291430000026594,,,,,,0.0,1.0,1.0,0.0,27.0,1.0,55.0,0.0,406.8805657999983,,,,,,,,,406.8697743999983,407.6769320999993,408.4835458999987,408.4620326999975,408.4629348999988,408.4835458999987,408.4835458999987,408.4835458999987,409.30552589999934,,,,,,,,,,,,,,,,,,,,,,,,,,,,,,,left,1.0,0.8119284999993397,,,,,sub-165,1,random_dot,,
right,right,56.0,0.0,28.0,right,1.0,1.1735048000009556,,accuracy,space,2.3291430000026594,,,,,,0.0,1.0,1.0,0.0,28.0,0.0,56.0,1.0,409.3174884,,,,,,,,,409.3066470999984,410.510486799998,411.3164881999983,411.2954389999977,411.29636539999774,411.3164881999983,411.3164881999983,411.3164881999983,412.4988524,,,,,,,,,,,,,,,,,,,,,,,,,,,,,,,right,1.0,1.1735048000009556,,,,,sub-165,1,random_dot,,
left,left,57.0,1.0,28.0,right,0.0,1.1982534999988277,,accuracy,space,2.3291430000026594,,,,,,0.0,1.0,1.0,0.0,28.0,1.0,57.0,0.0,412.5145381999973,,,,,,,,,412.49979539999913,412.6094760999986,413.41716149999775,413.39636139999857,413.3972689000002,413.41716149999775,413.41716149999775,413.41716149999775,414.6365679999981,,,,,,,,,,,,,,,,,,,,,,,,,,,,,,,right,0.0,1.1982534999988277,,,,,sub-165,1,random_dot,,
right,right,58.0,0.0,29.0,right,1.0,2.0408342000009725,,accuracy,space,2.3291430000026594,,,,,,0.0,1.0,1.0,0.0,29.0,0.0,58.0,1.0,414.64807239999936,,,,,,,,,414.6374935999993,415.4438734999967,416.2505942999997,416.2292955999983,416.23019289999866,416.2505942999997,416.2505942999997,416.2505942999997,418.3039099999987,,,,,,,,,,,,,,,,,,,,,,,,,,,,,,,right,1.0,2.0408342000009725,,,,,sub-165,1,random_dot,,
left,left,59.0,1.0,29.0,left,1.0,2.2890908000008494,,accuracy,space,2.3291430000026594,,,,,,0.0,1.0,1.0,0.0,29.0,1.0,59.0,0.0,418.317073299997,,,,,,,,,418.30499869999767,418.6601529,419.4688236999973,419.4455686999973,419.4465754999983,419.4688236999973,419.4688236999973,419.4688236999973,421.77329279999685,,,,,,,,,,,,,,,,,,,,,,,,,,,,,,,left,1.0,2.2890908000008494,,,,,sub-165,1,random_dot,,
,,1.0,1.0,0.0,,,,,accuracy,space,2.3291430000026594,,,,,,0.0,1.0,1.0,0.0,,,,,,,,,,,,,,,,,,,,,,,,,,,,,,,,,,,,,,,,,,,,,,,,,,,,,,,,,,,,sub-165,1,random_dot,,
,,,,,,,,,,,,,,,,,,,,,,,,,,,,,,,,,,,,,,,,,,,,,,,,,,,,,,,,,,,,,,,,,,,,,,,,,,,,,421.7864703999985,421.8024869999972,426.7775658999999,sub-165,1,random_dot,,
