direction,corrAns,randomInstr,practice_trials.thisRepN,practice_trials.thisTrialN,practice_trials.thisN,practice_trials.thisIndex,instr_trials.thisRepN,instr_trials.thisTrialN,instr_trials.thisN,instr_trials.thisIndex,test_trials.thisRepN,test_trials.thisTrialN,test_trials.thisN,test_trials.thisIndex,thisRow.t,notes,general_instruction.started,textGeneralInstr.started,respGeneralInstr.started,general_instruction.stopped,respGeneralInstr.keys,respGeneralInstr.rt,respGeneralInstr.duration,ITI.started,fixcross.started,fixcross.stopped,ITI.stopped,dots.started,backgroundDots.started,stimulusDots.started,respDots.started,stimulusDots.stopped,dots.stopped,respDots.keys,respDots.corr,respDots.rt,respDots.duration,feedback.started,textFeedback.started,feedback.stopped,textFeedback.stopped,info.started,textInfo.started,keyRespInfo.started,info.stopped,keyRespInfo.keys,keyRespInfo.rt,keyRespInfo.duration,test_instruction.started,textTestInstr.started,respTestInstr.started,test_instruction.stopped,respTestInstr.keys,respTestInstr.rt,respTestInstr.duration,random_instruction.started,textRandomInstr.started,respRandomInstr.started,random_instruction.stopped,respRandomInstr.keys,respRandomInstr.rt,respRandomInstr.duration,goodbye.started,textGoodbye.started,goodbye.stopped,participant,session,expName,frameRate,Unnamed: 73
,,,,,,,,,,,,,,,,,0.0042143000173382,0.0132841000449843,0.0132841000449843,99.21401049999986,space,165.98656259995187,,,,,,,,,,,,,,,,,,,,,,,,,,,,,,,,,,,,,,,,,,,,sub-086,1.0,random_dot,60.06817738299456,
right,right,,0.0,0.0,0.0,1.0,,,,,,,,,99.23802240000803,,,,,,,,,99.23332480003592,99.32829510001466,100.14549210004044,100.11313840001822,100.11320030002388,100.14549210004044,100.14549210004044,100.14549210004044,105.12678410002265,105.42985900002532,left,0.0,72.07130799995502,,105.43207030004125,105.4619398000068,105.94334350002464,,,,,,,,,,,,,,,,,,,,,,,,,,sub-086,1.0,random_dot,60.06817738299456,
left,left,,0.0,1.0,1.0,0.0,,,,,,,,,105.95952730003046,,,,,,,,,105.94479080004383,106.74269020004432,107.5428332000156,107.52737390005495,107.52743420004845,107.5428332000156,107.5428332000156,107.5428332000156,,108.4106106000254,left,1.0,67.65446919994429,,108.41151440003888,108.42482820001896,108.90978600003292,108.92534800001886,,,,,,,,,,,,,,,,,,,,,,,,,sub-086,1.0,random_dot,60.06817738299456,
left,left,,1.0,0.0,2.0,0.0,,,,,,,,,108.92534800001886,,,,,,,,,108.9107464000117,110.1247113000136,110.9250105000101,110.90998850000324,110.91005010000664,110.9250105000101,110.9250105000101,110.9250105000101,,111.89352680003503,right,0.0,67.75900439993711,,111.89473370002815,111.90760900004534,112.39196530001936,112.40745040000184,,,,,,,,,,,,,,,,,,,,,,,,,sub-086,1.0,random_dot,60.06817738299456,
right,right,,1.0,1.0,3.0,1.0,,,,,,,,,112.40745040000184,,,,,,,,,112.39298750000307,112.50753400003305,113.30766070005484,113.2917295000516,113.29177380003966,113.30766070005484,113.30766070005484,113.30766070005484,,114.6586898000096,right,1.0,68.1431596999173,,114.65963030001149,114.6732364000054,115.15827260003424,115.17343000002438,,,,,,,,,,,,,,,,,,,,,,,,,sub-086,1.0,random_dot,60.06817738299456,
right,right,,2.0,0.0,4.0,1.0,,,,,,,,,115.17343000002438,,,,,,,,,115.15939570002956,115.273418900033,116.07381060003536,116.05787020002026,116.0579231000156,116.07381060003536,116.07381060003536,116.07381060003536,,117.07508370000868,left,0.0,67.78663779993076,,117.07626910001272,117.08920560003024,117.57362980005564,117.58905380003851,,,,,,,,,,,,,,,,,,,,,,,,,sub-086,1.0,random_dot,60.06817738299456,
left,left,,2.0,1.0,5.0,0.0,,,,,,,,,117.58905380003851,,,,,,,,,117.57446380000329,117.9389427000424,118.73937170003774,118.72374210000272,118.72379660001025,118.73937170003774,118.73937170003774,118.73937170003774,,119.77425900002709,right,0.0,67.82145519996993,,119.77545990003271,119.78833800001304,120.2729578000144,120.28824140003417,,,,,,,,,,,,,,,,,,,,,,,,,sub-086,1.0,random_dot,60.06817738299456,
right,right,,3.0,0.0,6.0,1.0,,,,,,,,,120.28824140003417,,,,,,,,,120.273902200046,121.48802160000196,122.28849170001922,122.2730944000068,122.27315080002882,122.28849170001922,122.28849170001922,122.28849170001922,,123.8054986000061,left,0.0,68.29628979996778,,123.80603540001904,123.8201035000384,124.30397740000626,124.31994380004473,,,,,,,,,,,,,,,,,,,,,,,,,sub-086,1.0,random_dot,60.06817738299456,
left,left,,3.0,1.0,7.0,0.0,,,,,,,,,124.31994380004473,,,,,,,,,124.30430120002713,124.41997450002236,125.22023230005288,125.20370640000328,125.20372480002698,125.22023230005288,125.22023230005288,125.22023230005288,,126.18947750004008,left,1.0,67.76004519994603,,126.19065560004674,126.20292240002892,126.68651640001916,126.70244020002428,,,,,,,,,,,,,,,,,,,,,,,,,sub-086,1.0,random_dot,60.06817738299456,
right,right,,4.0,0.0,8.0,1.0,,,,,,,,,126.70244020002428,,,,,,,,,126.68696970003656,126.80252530000872,127.60301460005576,127.58629390003624,127.58636350004237,127.60301460005576,127.60301460005576,127.60301460005576,,128.80366650002543,right,1.0,67.98935709998477,,128.80415070004528,128.81861490005394,129.30313370004296,129.31873440003255,,,,,,,,,,,,,,,,,,,,,,,,,sub-086,1.0,random_dot,60.06817738299456,
left,left,,4.0,1.0,9.0,0.0,,,,,,,,,129.31873440003255,,,,,,,,,129.30404320004163,130.11850090004737,130.91928329999791,130.9035023000324,130.9035621000221,130.91928329999791,130.91928329999791,130.91928329999791,,132.436985700042,right,0.0,68.29845079994993,,132.4380821000086,132.45126330002677,132.93503790005343,132.95120850001695,,,,,,,,,,,,,,,,,,,,,,,,,sub-086,1.0,random_dot,60.06817738299456,
left,left,,5.0,0.0,10.0,0.0,,,,,,,,,132.95120850001695,,,,,,,,,132.93569010001374,133.0512149000424,133.8514011000516,133.83561740000732,133.83567040000344,133.8514011000516,133.8514011000516,133.8514011000516,,135.95245610002894,right,0.0,68.88590919994749,,135.9534945000196,135.96658100001514,136.45189070003107,136.46681660000468,,,,,,,,,,,,,,,,,,,,,,,,,sub-086,1.0,random_dot,60.06817738299456,
right,right,,5.0,1.0,11.0,1.0,,,,,,,,,136.46681660000468,,,,,,,,,136.45322520000627,137.66649130004225,138.4665345000103,138.450556900003,138.45060650003143,138.4665345000103,138.4665345000103,138.4665345000103,,139.2856253000209,left,0.0,67.6029168999521,,139.2871138000046,139.29913460003445,139.78387760004262,139.79891910002334,,,,,,,,,,,,,,,,,,,,,,,,,sub-086,1.0,random_dot,60.06817738299456,
left,left,,6.0,0.0,12.0,0.0,,,,,,,,,139.79891910002334,,,,,,,,,139.7848978000111,140.14860820001925,140.9493713999982,140.9339586000424,140.9340194000397,140.9493713999982,140.9493713999982,140.9493713999982,,142.6494044000283,left,1.0,68.47931569995126,,142.6500147000188,142.6641965000308,143.14859400002751,143.16433240001788,,,,,,,,,,,,,,,,,,,,,,,,,sub-086,1.0,random_dot,60.06817738299456,
right,right,,6.0,1.0,13.0,1.0,,,,,,,,,143.16433240001788,,,,,,,,,143.14930050005205,143.26462670002363,144.0651279000449,144.04927870002575,144.04933350003557,144.0651279000449,144.0651279000449,144.0651279000449,,145.46626980003202,right,1.0,68.17941279994557,,145.4675322000403,145.48024950001854,145.9653496000101,145.9802959000226,,,,,,,,,,,,,,,,,,,,,,,,,sub-086,1.0,random_dot,60.06817738299456,
left,left,,7.0,0.0,14.0,0.0,,,,,,,,,145.9802959000226,,,,,,,,,145.96646480000345,146.08026770001743,146.8807461000397,146.86476460000267,146.86482620000606,146.8807461000397,146.8807461000397,146.8807461000397,,148.88302550005028,right,0.0,68.78779769997345,,148.884618400014,148.90118860005168,149.39590780000435,,,,,,,,,,,,,,,,,,,,,,,,,,sub-086,1.0,random_dot,60.06817738299456,
right,right,,7.0,1.0,15.0,1.0,,,,,,,,,149.41257680003764,,,,,,,,,149.39663740003016,150.59529610001482,151.39606950001323,151.3802664000541,151.38032130000647,151.39606950001323,151.39606950001323,151.39606950001323,,153.4479026000481,right,1.0,68.83789929992054,,153.44923310005106,153.4643923000549,153.96084830001928,,,,,,,,,,,,,,,,,,,,,,,,,,sub-086,1.0,random_dot,60.06817738299456,
left,left,,8.0,0.0,16.0,0.0,,,,,,,,,153.9775348000112,,,,,,,,,153.9616958000115,154.06100030004745,154.8617825000547,154.8463885000092,154.8464519000263,154.8617825000547,154.8617825000547,154.8617825000547,,156.64651290001348,left,1.0,68.575783499924,,156.64766690001125,156.66031669999938,157.14475370000582,157.16003460000502,,,,,,,,,,,,,,,,,,,,,,,,,sub-086,1.0,random_dot,60.06817738299456,
right,right,,8.0,1.0,17.0,1.0,,,,,,,,,157.16003460000502,,,,,,,,,157.1458518000436,157.95987850002712,158.76032620004844,158.74488470004871,158.74494330002926,158.76032620004844,158.76032620004844,158.76032620004844,,160.32975440000882,right,1.0,68.35339069989277,,160.33161200000905,160.3427167000482,160.82744340004865,160.84233690000838,,,,,,,,,,,,,,,,,,,,,,,,,sub-086,1.0,random_dot,60.06817738299456,
left,left,,9.0,0.0,18.0,0.0,,,,,,,,,160.84233690000838,,,,,,,,,160.82874180004,162.04207000002498,162.84184300003108,162.82526100001996,162.82527890003985,162.84184300003108,162.84184300003108,162.84184300003108,,164.9448975000414,right,0.0,68.881943699962,,164.94668020005338,164.97717870003544,165.45787250000285,,,,,,,,,,,,,,,,,,,,,,,,,,sub-086,1.0,random_dot,60.06817738299456,
right,right,,9.0,1.0,19.0,1.0,,,,,,,,,165.4742230999982,,,,,,,,,165.45928850001656,165.55725320003694,166.35749680001754,166.34117460000562,166.3412065000157,166.35749680001754,166.35749680001754,166.35749680001754,,168.02728460001526,right,1.0,68.45621379994554,,168.02863860002253,168.0418295999989,168.54034360003425,,,,,,,,,,,,,,,,,,,,,,,,,,sub-086,1.0,random_dot,60.06817738299456,
,,,,,,,,,,,,,,,,,,,,,,,,,,,,,,,,,,,,,,,,,,168.5404793000198,168.5565529000014,168.5565529000014,202.1317411000491,space,100.35377589991548,,,,,,,,,,,,,,,,,,,sub-086,1.0,random_dot,60.06817738299456,
,,,,,,,,,,,,,,,,,,,,,,,,,,,,,,,,,,,,,,,,,,,,,,,,,202.13182690000397,202.146263200033,202.146263200033,211.49604690005071,space,76.14080329996068,,,,,,,,,,,,sub-086,1.0,random_dot,60.06817738299456,
left,left,speed,,,,,0.0,0.0,0.0,1.0,0.0,0.0,0.0,0.0,220.7202672000276,,,,,,,,,220.71544590004487,220.8069274000009,221.6073057000176,221.5912689000252,221.59131710004291,221.6073057000176,221.6073057000176,221.6073057000176,,222.3603217000491,right,0.0,67.54133329994511,,,,,,,,,,,,,,,,,,,,211.50421350001125,211.53737030003688,211.53737030003688,220.6938360000495,space,75.94193849992007,,,,,sub-086,1.0,random_dot,60.06817738299456,
right,right,speed,,,,,0.0,0.0,0.0,1.0,0.0,1.0,1.0,1.0,222.3730495000491,,,,,,,,,222.36351130000548,222.4730907000485,223.2735027000308,223.2584118000232,223.25847360002808,223.2735027000308,223.2735027000308,223.2735027000308,,224.54095220001184,right,1.0,68.05771709990222,,,,,,,,,,,,,,,,,,,,,,,,,,,,,,sub-086,1.0,random_dot,60.06817738299456,
right,right,speed,,,,,0.0,0.0,0.0,1.0,1.0,0.0,2.0,1.0,224.55565780005415,,,,,,,,,224.54245380003704,224.9058033000329,225.70630880002864,225.69015330000548,225.69020390004152,225.70630880002864,225.70630880002864,225.70630880002864,,226.65718720003497,left,0.0,67.74020809994545,,,,,,,,,,,,,,,,,,,,,,,,,,,,,,sub-086,1.0,random_dot,60.06817738299456,
left,left,speed,,,,,0.0,0.0,0.0,1.0,1.0,1.0,3.0,0.0,226.67162470001492,,,,,,,,,226.65917600004468,227.02167590003228,227.8225148000056,227.806901700038,227.8069627000368,227.8225148000056,227.8225148000056,227.8225148000056,,229.2399502000189,right,0.0,68.20275349996518,,,,,,,,,,,,,,,,,,,,,,,,,,,,,,sub-086,1.0,random_dot,60.06817738299456,
left,left,speed,,,,,0.0,0.0,0.0,1.0,2.0,0.0,4.0,0.0,229.2542113000527,,,,,,,,,229.2423552000546,230.45403449999867,231.2543154000305,231.2381545000244,231.2381941000349,231.2543154000305,231.2543154000305,231.2543154000305,,233.45608780003383,left,1.0,68.9884043999482,,,,,,,,,,,,,,,,,,,,,,,,,,,,,,sub-086,1.0,random_dot,60.06817738299456,
right,right,speed,,,,,0.0,0.0,0.0,1.0,2.0,1.0,5.0,1.0,233.4696615000139,,,,,,,,,233.45844040001973,233.56959760002792,234.36976270005107,234.3536437000148,234.35367820004467,234.36976270005107,234.36976270005107,234.36976270005107,,236.1546306000091,left,0.0,68.56254279991845,,,,,,,,,,,,,,,,,,,,,,,,,,,,,,sub-086,1.0,random_dot,60.06817738299456,
left,left,speed,,,,,0.0,0.0,0.0,1.0,3.0,0.0,6.0,0.0,236.1688081000466,,,,,,,,,236.15683020005235,236.51904260000447,237.31899210001572,237.303056600038,237.3030996000161,237.31899210001572,237.31899210001572,237.31899210001572,,238.587391500012,right,0.0,68.05337179993512,,,,,,,,,,,,,,,,,,,,,,,,,,,,,,sub-086,1.0,random_dot,60.06817738299456,
right,right,speed,,,,,0.0,0.0,0.0,1.0,3.0,1.0,7.0,1.0,238.6013339000056,,,,,,,,,238.5899594000075,238.70151480002096,239.5014812000445,239.48522460000825,239.48526130005484,239.5014812000445,239.5014812000445,239.5014812000445,,241.26974050002173,left,0.0,68.54860969993751,,,,,,,,,,,,,,,,,,,,,,,,,,,,,,sub-086,1.0,random_dot,60.06817738299456,
left,left,speed,,,,,0.0,0.0,0.0,1.0,4.0,0.0,8.0,0.0,241.28379990003305,,,,,,,,,241.2729010000476,241.6336820000433,242.43435590004083,242.41837930004112,242.41843200003493,242.43435590004083,242.43435590004083,242.43435590004083,,244.1518108000164,right,0.0,68.50912069994956,,,,,,,,,,,,,,,,,,,,,,,,,,,,,,sub-086,1.0,random_dot,60.06817738299456,
right,right,speed,,,,,0.0,0.0,0.0,1.0,4.0,1.0,9.0,1.0,244.16608360002283,,,,,,,,,244.15356410003733,244.9663675000193,245.76608960004523,245.74939190002624,245.74941050005145,245.76608960004523,245.76608960004523,245.76608960004523,,247.76802890002728,right,1.0,68.78496669995366,,,,,,,,,,,,,,,,,,,,,,,,,,,,,,sub-086,1.0,random_dot,60.06817738299456,
left,left,speed,,,,,0.0,0.0,0.0,1.0,5.0,0.0,10.0,0.0,247.7817297000438,,,,,,,,,247.7702073000255,248.98109350004236,249.78180799999973,249.76474470004905,249.76476080005523,249.78180799999973,249.78180799999973,249.78180799999973,,251.98322360002203,left,1.0,68.98863659997005,,,,,,,,,,,,,,,,,,,,,,,,,,,,,,sub-086,1.0,random_dot,60.06817738299456,
right,right,speed,,,,,0.0,0.0,0.0,1.0,5.0,1.0,11.0,1.0,251.99719550000736,,,,,,,,,251.98572720005177,252.3474806000013,253.14719190000324,253.1307805000106,253.1308209000272,253.14719190000324,253.14719190000324,253.14719190000324,,254.84902660001532,right,1.0,68.49272989993915,,,,,,,,,,,,,,,,,,,,,,,,,,,,,,sub-086,1.0,random_dot,60.06817738299456,
left,left,speed,,,,,0.0,0.0,0.0,1.0,6.0,0.0,12.0,0.0,254.8629490000312,,,,,,,,,254.85156320000533,255.21317709999855,256.01349810004467,255.99772000004305,255.9977730000392,256.01349810004467,256.01349810004467,256.01349810004467,,258.1976455000113,right,0.0,68.963580099924,,,,,,,,,,,,,,,,,,,,,,,,,,,,,,sub-086,1.0,random_dot,60.06817738299456,
right,right,speed,,,,,0.0,0.0,0.0,1.0,6.0,1.0,13.0,1.0,258.2117740000249,,,,,,,,,258.1997649000259,259.01154610002413,259.8122227000422,259.79606820002664,259.79611210001167,259.8122227000422,259.8122227000422,259.8122227000422,,261.8631746000028,left,0.0,68.83321089996025,,,,,,,,,,,,,,,,,,,,,,,,,,,,,,sub-086,1.0,random_dot,60.06817738299456,
left,left,speed,,,,,0.0,0.0,0.0,1.0,7.0,0.0,14.0,0.0,261.87745130003896,,,,,,,,,261.8655560000334,262.2274481000495,263.02728750003735,263.0105127000133,263.01052980002714,263.02728750003735,263.02728750003735,263.02728750003735,,264.945656200056,left,1.0,68.70344439998735,,,,,,,,,,,,,,,,,,,,,,,,,,,,,,sub-086,1.0,random_dot,60.06817738299456,
right,right,speed,,,,,0.0,0.0,0.0,1.0,7.0,1.0,15.0,1.0,264.95975530002033,,,,,,,,,264.9478157000267,266.1594543000101,266.95987350004725,266.9439820999978,266.9440476000309,266.95987350004725,266.95987350004725,266.95987350004725,,267.7461670000339,right,1.0,67.56363699998474,,,,,,,,,,,,,,,,,,,,,,,,,,,,,,sub-086,1.0,random_dot,60.06817738299456,
left,left,speed,,,,,0.0,0.0,0.0,1.0,8.0,0.0,16.0,0.0,267.7591481000418,,,,,,,,,267.7499425000278,268.1089241000009,268.90964100003475,268.8940885000047,268.8941545000416,268.90964100003475,268.90964100003475,268.90964100003475,,270.0117896000156,left,1.0,67.88684879994253,,,,,,,,,,,,,,,,,,,,,,,,,,,,,,sub-086,1.0,random_dot,60.06817738299456,
right,right,speed,,,,,0.0,0.0,0.0,1.0,8.0,1.0,17.0,1.0,270.0250134000089,,,,,,,,,270.01520500000333,270.8250413000351,271.62521800003015,271.61037120001856,271.6104360000463,271.62521800003015,271.62521800003015,271.62521800003015,,272.6768785000313,right,1.0,67.83162959996844,,,,,,,,,,,,,,,,,,,,,,,,,,,,,,sub-086,1.0,random_dot,60.06817738299456,
right,right,speed,,,,,0.0,0.0,0.0,1.0,9.0,0.0,18.0,1.0,272.6907882000087,,,,,,,,,272.67945120000513,273.4907252000412,274.29097750002984,274.2754324999987,274.2755101000075,274.29097750002984,274.29097750002984,274.29097750002984,,275.6255638000439,left,0.0,68.12360659992555,,,,,,,,,,,,,,,,,,,,,,,,,,,,,,sub-086,1.0,random_dot,60.06817738299456,
left,left,speed,,,,,0.0,0.0,0.0,1.0,9.0,1.0,19.0,0.0,275.63965930003906,,,,,,,,,275.6275658000377,276.4396995000425,277.2397938000504,277.2236216000165,277.22366210003383,277.2397938000504,277.2397938000504,277.2397938000504,,278.9078146000393,right,0.0,68.45257849991322,,,,,,,,,,,,,,,,,,,,,,,,,,,,,,sub-086,1.0,random_dot,60.06817738299456,
left,left,speed,,,,,0.0,0.0,0.0,1.0,10.0,0.0,20.0,0.0,278.9220615000231,,,,,,,,,278.91019160003634,279.7218481000164,280.52232540003024,280.5060694999993,280.5061098000151,280.52232540003024,280.52232540003024,280.52232540003024,,281.9416887999978,right,0.0,68.20035019994248,,,,,,,,,,,,,,,,,,,,,,,,,,,,,,sub-086,1.0,random_dot,60.06817738299456,
right,right,speed,,,,,0.0,0.0,0.0,1.0,10.0,1.0,21.0,1.0,281.95475670002634,,,,,,,,,281.9463484000298,282.3046371000237,283.10488470003475,283.0891527000349,283.089216100052,283.10488470003475,283.10488470003475,283.10488470003475,,285.30583380005555,right,1.0,68.98707019997528,,,,,,,,,,,,,,,,,,,,,,,,,,,,,,sub-086,1.0,random_dot,60.06817738299456,
right,right,speed,,,,,0.0,0.0,0.0,1.0,11.0,0.0,22.0,1.0,285.3199356000405,,,,,,,,,285.3081524000154,285.419896300009,286.2205453000497,286.20487640000647,286.2049312000163,286.2205453000497,286.2205453000497,286.2205453000497,,287.3882261000108,left,0.0,67.95963449991541,,,,,,,,,,,,,,,,,,,,,,,,,,,,,,sub-086,1.0,random_dot,60.06817738299456,
left,left,speed,,,,,0.0,0.0,0.0,1.0,11.0,1.0,23.0,0.0,287.40267890004907,,,,,,,,,287.39019000000553,287.5027070000069,288.30373500002315,288.28781270002946,288.28787460003514,288.30373500002315,288.30373500002315,288.30373500002315,,289.7547911000438,right,0.0,68.23215269995853,,,,,,,,,,,,,,,,,,,,,,,,,,,,,,sub-086,1.0,random_dot,60.06817738299456,
left,left,speed,,,,,0.0,0.0,0.0,1.0,12.0,0.0,24.0,0.0,289.76863800000865,,,,,,,,,289.7576324000256,290.5686945000198,291.36925330001395,291.35343350004405,291.35349610005505,291.36925330001395,291.36925330001395,291.36925330001395,,292.9692312999978,left,1.0,68.38637079991167,,,,,,,,,,,,,,,,,,,,,,,,,,,,,,sub-086,1.0,random_dot,60.06817738299456,
right,right,speed,,,,,0.0,0.0,0.0,1.0,12.0,1.0,25.0,1.0,292.98400830000173,,,,,,,,,292.9702152000391,294.1839918000041,294.9843807000434,294.96876230003545,294.9688238000381,294.9843807000434,294.9843807000434,294.9843807000434,,296.90235940000275,right,1.0,68.70791069994448,,,,,,,,,,,,,,,,,,,,,,,,,,,,,,sub-086,1.0,random_dot,60.06817738299456,
right,right,speed,,,,,0.0,0.0,0.0,1.0,13.0,0.0,26.0,1.0,296.9166267000255,,,,,,,,,296.904750100046,298.1162288000341,298.9163320000516,298.9003793000011,298.9004233000451,298.9163320000516,298.9163320000516,298.9163320000516,,300.50136900000507,right,1.0,68.36298709997209,,,,,,,,,,,,,,,,,,,,,,,,,,,,,,sub-086,1.0,random_dot,60.06817738299456,
left,left,speed,,,,,0.0,0.0,0.0,1.0,13.0,1.0,27.0,0.0,300.5155228000367,,,,,,,,,300.5040110000409,301.71498800005065,302.5154287000187,302.4992975000059,302.4993409000453,302.5154287000187,302.5154287000187,302.5154287000187,,304.8168790000491,right,0.0,69.08673329994781,,,,,,,,,,,,,,,,,,,,,,,,,,,,,,sub-086,1.0,random_dot,60.06817738299456,
right,right,speed,,,,,0.0,0.0,0.0,1.0,14.0,0.0,28.0,1.0,304.8306690000463,,,,,,,,,304.8191286000074,304.93080380000174,305.7311934000463,305.7151245000423,305.7151780000422,305.7311934000463,305.7311934000463,305.7311934000463,,307.4811840000329,left,0.0,68.5293480999535,,,,,,,,,,,,,,,,,,,,,,,,,,,,,,sub-086,1.0,random_dot,60.06817738299456,
left,left,speed,,,,,0.0,0.0,0.0,1.0,14.0,1.0,29.0,0.0,307.4960778000532,,,,,,,,,307.48215220001293,307.5960695000249,308.39659210003447,308.379878000007,308.3798975000391,308.39659210003447,308.39659210003447,308.39659210003447,,309.5804145000293,right,0.0,67.97346179990564,,,,,,,,,,,,,,,,,,,,,,,,,,,,,,sub-086,1.0,random_dot,60.06817738299456,
right,right,speed,,,,,0.0,0.0,0.0,1.0,15.0,0.0,30.0,1.0,309.59551000001375,,,,,,,,,309.58143970003584,310.7950644000084,311.5956006000051,311.5789213000098,311.57899110001745,311.5956006000051,311.5956006000051,311.5956006000051,,314.2467196000507,left,0.0,69.4350513999816,,,,,,,,,,,,,,,,,,,,,,,,,,,,,,sub-086,1.0,random_dot,60.06817738299456,
left,left,speed,,,,,0.0,0.0,0.0,1.0,15.0,1.0,31.0,0.0,314.26094890001696,,,,,,,,,314.2489767000079,315.46095630002674,316.261309500027,316.2454834000091,316.24553870002273,316.261309500027,316.261309500027,316.261309500027,,317.26398350001546,right,0.0,67.78500029997667,,,,,,,,,,,,,,,,,,,,,,,,,,,,,,sub-086,1.0,random_dot,60.06817738299456,
left,left,speed,,,,,0.0,0.0,0.0,1.0,16.0,0.0,32.0,0.0,317.2769016000093,,,,,,,,,317.26705720002064,317.3766946000396,318.17718320002314,318.16134990000864,318.16142030002084,318.17718320002314,318.17718320002314,318.17718320002314,,320.2284212000086,right,0.0,68.83046889991965,,,,,,,,,,,,,,,,,,,,,,,,,,,,,,sub-086,1.0,random_dot,60.06817738299456,
right,right,speed,,,,,0.0,0.0,0.0,1.0,16.0,1.0,33.0,1.0,320.2425539000542,,,,,,,,,320.230755400029,320.3424496000516,321.1427802000544,321.1268714000471,321.12691960000666,321.1427802000544,321.1427802000544,321.1427802000544,,322.49463160004234,left,0.0,68.1439790999284,,,,,,,,,,,,,,,,,,,,,,,,,,,,,,sub-086,1.0,random_dot,60.06817738299456,
left,left,speed,,,,,0.0,0.0,0.0,1.0,17.0,0.0,34.0,0.0,322.5084233000525,,,,,,,,,322.4970560000511,322.6085152000305,323.40909130004,323.3936910000048,323.3937502000481,323.40909130004,323.40909130004,323.40909130004,,324.6446456000558,right,0.0,68.02748659992358,,,,,,,,,,,,,,,,,,,,,,,,,,,,,,sub-086,1.0,random_dot,60.06817738299456,
right,right,speed,,,,,0.0,0.0,0.0,1.0,17.0,1.0,35.0,1.0,324.6577232000418,,,,,,,,,324.6466504000128,324.75792440003715,325.5583925000392,325.5425306000397,325.54258290003054,325.5583925000392,325.5583925000392,325.5583925000392,,327.3098580000224,left,0.0,68.53120449994458,,,,,,,,,,,,,,,,,,,,,,,,,,,,,,sub-086,1.0,random_dot,60.06817738299456,
right,right,speed,,,,,0.0,0.0,0.0,1.0,18.0,0.0,36.0,1.0,327.32363210001495,,,,,,,,,327.312645500002,328.5233219000511,329.3234138000407,329.3068500000518,329.30687310005305,329.3234138000407,329.3234138000407,329.3234138000407,,330.6580384000554,right,1.0,68.12260929995682,,,,,,,,,,,,,,,,,,,,,,,,,,,,,,sub-086,1.0,random_dot,60.06817738299456,
left,left,speed,,,,,0.0,0.0,0.0,1.0,18.0,1.0,37.0,0.0,330.67256460001227,,,,,,,,,330.66021820000606,330.7725428999984,331.5731109000044,331.55702520004706,331.55707229999825,331.5731109000044,331.5731109000044,331.5731109000044,,333.8907728000195,left,1.0,69.10592929995619,,,,,,,,,,,,,,,,,,,,,,,,,,,,,,sub-086,1.0,random_dot,60.06817738299456,
right,right,speed,,,,,0.0,0.0,0.0,1.0,19.0,0.0,38.0,1.0,333.90486830001464,,,,,,,,,333.8929158000392,335.1046986000147,335.9049178000423,335.8887488000328,335.88878770003794,335.9049178000423,335.9049178000423,335.9049178000423,,338.87288530002115,left,0.0,69.76114109990885,,,,,,,,,,,,,,,,,,,,,,,,,,,,,,sub-086,1.0,random_dot,60.06817738299456,
left,left,speed,,,,,0.0,0.0,0.0,1.0,19.0,1.0,39.0,0.0,338.8865045999992,,,,,,,,,338.87515380000696,338.9867581000435,339.78729610005394,339.77154500002507,339.7715995000326,339.78729610005394,339.78729610005394,339.78729610005394,,340.6894180000527,left,1.0,67.68175239994889,,,,,,,,,,,,,,,,,,,,,,,,,,,,,,sub-086,1.0,random_dot,60.06817738299456,
left,left,speed,,,,,0.0,0.0,0.0,1.0,20.0,0.0,40.0,0.0,340.702904500009,,,,,,,,,340.6928458000184,340.80311850004364,341.6033244000282,341.58725200005574,341.58730290003587,341.6033244000282,341.6033244000282,341.6033244000282,,342.2728460000362,left,1.0,67.45893479994265,,,,,,,,,,,,,,,,,,,,,,,,,,,,,,sub-086,1.0,random_dot,60.06817738299456,
right,right,speed,,,,,0.0,0.0,0.0,1.0,20.0,1.0,41.0,1.0,342.2857622000156,,,,,,,,,342.27580060000764,342.3856742000208,343.1856124000042,343.1692109000287,343.1692327000201,343.1856124000042,343.1856124000042,343.1856124000042,,343.5704535000259,right,1.0,67.17134760000044,,,,,,,,,,,,,,,,,,,,,,,,,,,,,,sub-086,1.0,random_dot,60.06817738299456,
left,left,speed,,,,,0.0,0.0,0.0,1.0,21.0,0.0,42.0,0.0,343.585079600045,,,,,,,,,343.5719955000095,344.3853190000518,345.1855246000341,345.16933370003244,345.1693768000114,345.1855246000341,345.1855246000341,345.1855246000341,,345.82087039999897,right,0.0,67.42398609989323,,,,,,,,,,,,,,,,,,,,,,,,,,,,,,sub-086,1.0,random_dot,60.06817738299456,
right,right,speed,,,,,0.0,0.0,0.0,1.0,21.0,1.0,43.0,1.0,345.8344485000125,,,,,,,,,345.82343730004504,346.1844343999983,346.98489570000675,346.96870020002825,346.96874390001176,346.98489570000675,346.98489570000675,346.98489570000675,,347.8550399000524,right,1.0,67.65825499995844,,,,,,,,,,,,,,,,,,,,,,,,,,,,,,sub-086,1.0,random_dot,60.06817738299456,
left,left,speed,,,,,0.0,0.0,0.0,1.0,22.0,0.0,44.0,0.0,347.86774910002714,,,,,,,,,347.8587613000418,347.96752430003835,348.7674767000135,348.75075610005297,348.75077740004053,348.7674767000135,348.7674767000135,348.7674767000135,,350.06899860000703,left,1.0,68.09354209998855,,,,,,,,,,,,,,,,,,,,,,,,,,,,,,sub-086,1.0,random_dot,60.06817738299456,
right,right,speed,,,,,0.0,0.0,0.0,1.0,22.0,1.0,45.0,1.0,350.0830282000243,,,,,,,,,350.07035250001354,350.18309250002494,350.9833996000234,350.967185800022,350.96722600003704,350.9833996000234,350.9833996000234,350.9833996000234,,352.65206500003114,right,1.0,68.45484819990816,,,,,,,,,,,,,,,,,,,,,,,,,,,,,,sub-086,1.0,random_dot,60.06817738299456,
left,left,speed,,,,,0.0,0.0,0.0,1.0,23.0,0.0,46.0,0.0,352.6659512000042,,,,,,,,,352.6545013000141,352.76582490000874,353.5659897000296,353.54993150004884,353.5499715000042,353.5659897000296,353.5659897000296,353.5659897000296,,355.51731510000536,left,1.0,68.7338057999732,,,,,,,,,,,,,,,,,,,,,,,,,,,,,,sub-086,1.0,random_dot,60.06817738299456,
right,right,speed,,,,,0.0,0.0,0.0,1.0,23.0,1.0,47.0,1.0,355.5313680000254,,,,,,,,,355.5194691000506,356.7311818000162,357.5315362000256,357.5151934000314,357.51522950001527,357.5315362000256,357.5315362000256,357.5315362000256,,360.2146549000172,left,0.0,69.47312249994138,,,,,,,,,,,,,,,,,,,,,,,,,,,,,,sub-086,1.0,random_dot,60.06817738299456,
left,left,speed,,,,,0.0,0.0,0.0,1.0,24.0,0.0,48.0,0.0,360.22960420005256,,,,,,,,,360.2155667000334,360.3299821000546,361.1301331000286,361.11353930004407,361.1135601000278,361.1301331000286,361.1301331000286,361.1301331000286,,364.0981878000312,left,1.0,69.75007619993994,,,,,,,,,,,,,,,,,,,,,,,,,,,,,,sub-086,1.0,random_dot,60.06817738299456,
right,right,speed,,,,,0.0,0.0,0.0,1.0,24.0,1.0,49.0,1.0,364.11207180004567,,,,,,,,,364.1004354000325,365.31203750002896,366.11239140003454,366.0966831000405,366.0967449000455,366.11239140003454,366.11239140003454,366.11239140003454,,368.51194610004313,right,1.0,69.18804729991825,,,,,,,,,,,,,,,,,,,,,,,,,,,,,,sub-086,1.0,random_dot,60.06817738299456,
left,left,speed,,,,,0.0,0.0,0.0,1.0,25.0,0.0,50.0,0.0,368.52715170005104,,,,,,,,,368.5128658000031,368.627174800029,369.427548800013,369.4106719000265,369.4106965000392,369.427548800013,369.427548800013,369.427548800013,,372.1950889000436,left,1.0,69.55241919995751,,,,,,,,,,,,,,,,,,,,,,,,,,,,,,sub-086,1.0,random_dot,60.06817738299456,
right,right,speed,,,,,0.0,0.0,0.0,1.0,25.0,1.0,51.0,1.0,372.2095255000168,,,,,,,,,372.1968450000277,372.5596315000439,373.3596492000506,373.3436396000325,373.3436794000445,373.3596492000506,373.3596492000506,373.3596492000506,,375.1276799000334,right,1.0,68.54589999996824,,,,,,,,,,,,,,,,,,,,,,,,,,,,,,sub-086,1.0,random_dot,60.06817738299456,
right,right,speed,,,,,0.0,0.0,0.0,1.0,26.0,0.0,52.0,1.0,375.1421392000048,,,,,,,,,375.1298516000388,375.4922137000249,376.2920202000532,376.2766768000438,376.2767251000041,376.2920202000532,376.2920202000532,376.2920202000532,,379.12645130004967,left,0.0,69.62417649995768,,,,,,,,,,,,,,,,,,,,,,,,,,,,,,sub-086,1.0,random_dot,60.06817738299456,
left,left,speed,,,,,0.0,0.0,0.0,1.0,26.0,1.0,53.0,0.0,379.1407179000089,,,,,,,,,379.1286527000484,379.4907619000296,380.2913607000373,380.2756028000149,380.2756585000316,380.2913607000373,380.2913607000373,380.2913607000373,,381.4257247000351,right,0.0,67.9256422999897,,,,,,,,,,,,,,,,,,,,,,,,,,,,,,sub-086,1.0,random_dot,60.06817738299456,
right,right,speed,,,,,0.0,0.0,0.0,1.0,27.0,0.0,54.0,1.0,381.4399737000349,,,,,,,,,381.4276882000268,381.7901194000151,382.5901522000204,382.5748886000365,382.57498810003744,382.5901522000204,382.5901522000204,382.5901522000204,,383.4434579000226,right,1.0,67.63967929995852,,,,,,,,,,,,,,,,,,,,,,,,,,,,,,sub-086,1.0,random_dot,60.06817738299456,
left,left,speed,,,,,0.0,0.0,0.0,1.0,27.0,1.0,55.0,0.0,383.4564527000184,,,,,,,,,383.4470933999983,383.80632770003285,384.60678370000096,384.59108959999867,384.5911505000549,384.60678370000096,384.60678370000096,384.60678370000096,,385.7084267000319,right,0.0,67.88824319990817,,,,,,,,,,,,,,,,,,,,,,,,,,,,,,sub-086,1.0,random_dot,60.06817738299456,
left,left,speed,,,,,0.0,0.0,0.0,1.0,28.0,0.0,56.0,0.0,385.7221740000532,,,,,,,,,385.7113210000098,386.52193490002537,387.3225359000498,387.3064366000472,387.3064836000558,387.3225359000498,387.3225359000498,387.3225359000498,,389.3407784000156,right,0.0,68.80959179997444,,,,,,,,,,,,,,,,,,,,,,,,,,,,,,sub-086,1.0,random_dot,60.06817738299456,
right,right,speed,,,,,0.0,0.0,0.0,1.0,28.0,1.0,57.0,1.0,389.35426790005295,,,,,,,,,389.3436075000209,390.1539991000318,390.9543910000357,390.93799659999786,390.93803160003154,390.9543910000357,390.9543910000357,390.9543910000357,,392.3221900000353,right,1.0,68.15602289995877,,,,,,,,,,,,,,,,,,,,,,,,,,,,,,sub-086,1.0,random_dot,60.06817738299456,
right,right,speed,,,,,0.0,0.0,0.0,1.0,29.0,0.0,58.0,1.0,392.336604000011,,,,,,,,,392.32417800003896,393.1363722000388,393.9367683000164,393.920679300034,393.9207223000121,393.9367683000164,393.9367683000164,393.9367683000164,,395.07152710005175,right,1.0,67.92543629993452,,,,,,,,,,,,,,,,,,,,,,,,,,,,,,sub-086,1.0,random_dot,60.06817738299456,
left,left,speed,,,,,0.0,0.0,0.0,1.0,29.0,1.0,59.0,0.0,395.0857597000431,,,,,,,,,395.0739643000416,395.4358672000235,396.2364057000377,396.2208391000168,396.2208926000167,396.2364057000377,396.2364057000377,396.2364057000377,,398.3204889000044,right,0.0,68.86257949995343,,,,,,,,,,,,,,,,,,,,,,,,,,,,,,sub-086,1.0,random_dot,60.06817738299456,
,,speed,,,,,0.0,0.0,0.0,1.0,,,,,,,,,,,,,,,,,,,,,,,,,,,,,,,,,,,,,,,,,,,,,,,,,,,,,,,,sub-086,1.0,random_dot,60.06817738299456,
left,left,accuracy,,,,,0.0,1.0,1.0,0.0,0.0,0.0,0.0,0.0,402.1112695000484,,,,,,,,,402.1031617000117,402.20034229999874,403.0007006000378,402.9836120000109,402.9836309000384,403.0007006000378,403.0007006000378,403.0007006000378,407.9990126000485,411.2840756000369,right,0.0,75.07125329994597,,,,,,,,,,,,,,,,,,,,398.32256430003326,398.3407108000247,398.3407108000247,402.0861288000015,space,70.53784849995282,,,,,sub-086,1.0,random_dot,60.06817738299456,
right,right,accuracy,,,,,0.0,1.0,1.0,0.0,0.0,1.0,1.0,1.0,411.29738170001656,,,,,,,,,411.2875886000111,412.097180700046,412.89770390000194,412.8817259000498,412.8817774000345,412.89770390000194,412.89770390000194,412.89770390000194,417.8957946000155,418.9326845000032,left,0.0,72.82647349993931,,,,,,,,,,,,,,,,,,,,,,,,,,,,,,sub-086,1.0,random_dot,60.06817738299456,
right,right,accuracy,,,,,0.0,1.0,1.0,0.0,1.0,0.0,2.0,1.0,418.9450230000075,,,,,,,,,418.9353691000142,420.1447419000324,420.9451858000248,420.9293079000199,420.9293554000324,420.9451858000248,420.9451858000248,420.9451858000248,425.9433185000089,426.3283707000082,right,1.0,72.17200029990636,,,,,,,,,,,,,,,,,,,,,,,,,,,,,,sub-086,1.0,random_dot,60.06817738299456,
left,left,accuracy,,,,,0.0,1.0,1.0,0.0,1.0,1.0,3.0,0.0,426.3426853000419,,,,,,,,,426.3307136000367,427.1427880000556,427.9431143000256,427.9273096000543,427.9273625000496,427.9431143000256,427.9431143000256,427.9431143000256,432.9410603000433,433.3608536000247,left,1.0,72.19846419995883,,,,,,,,,,,,,,,,,,,,,,,,,,,,,,sub-086,1.0,random_dot,60.06817738299456,
right,right,accuracy,,,,,0.0,1.0,1.0,0.0,2.0,0.0,4.0,1.0,433.3741280000541,,,,,,,,,433.36445829999866,433.4741602000431,434.273854500032,434.25745870004175,434.2574974000454,434.273854500032,434.273854500032,434.273854500032,439.27223510004114,439.95772140001645,left,0.0,72.47115519992076,,,,,,,,,,,,,,,,,,,,,,,,,,,,,,sub-086,1.0,random_dot,60.06817738299456,
left,left,accuracy,,,,,0.0,1.0,1.0,0.0,2.0,1.0,5.0,0.0,439.9717740000342,,,,,,,,,439.9600779000321,440.7719238999998,441.5723011000082,441.5572782000527,441.5573377000401,441.5723011000082,441.5723011000082,441.5723011000082,446.57031630002894,447.0888974000118,left,1.0,72.30353259993717,,,,,,,,,,,,,,,,,,,,,,,,,,,,,,sub-086,1.0,random_dot,60.06817738299456,
left,left,accuracy,,,,,0.0,1.0,1.0,0.0,3.0,0.0,6.0,0.0,447.1030000000028,,,,,,,,,447.0910168000264,448.3027885000338,449.1031031000312,449.0868675000384,449.0869114000234,449.1031031000312,449.1031031000312,449.1031031000312,454.10121460002847,454.93758220004383,left,1.0,72.61954749998404,,,,,,,,,,,,,,,,,,,,,,,,,,,,,,sub-086,1.0,random_dot,60.06817738299456,
right,right,accuracy,,,,,0.0,1.0,1.0,0.0,3.0,1.0,7.0,1.0,454.95069490000606,,,,,,,,,454.9412161000073,455.0507095000357,455.85113940003794,455.8346930000116,455.83473350002896,455.85113940003794,455.85113940003794,455.85113940003794,460.8493602000526,461.4847102000495,left,0.0,72.4269229999627,,,,,,,,,,,,,,,,,,,,,,,,,,,,,,sub-086,1.0,random_dot,60.06817738299456,
right,right,accuracy,,,,,0.0,1.0,1.0,0.0,4.0,0.0,8.0,1.0,461.4985602000379,,,,,,,,,461.4872319000424,462.2983635000419,463.0981480000192,463.08148750005057,463.0815057000145,463.0981480000192,463.0981480000192,463.0981480000192,468.0970050000469,469.4652955000056,left,0.0,73.16022289992543,,,,,,,,,,,,,,,,,,,,,,,,,,,,,,sub-086,1.0,random_dot,60.06817738299456,
left,left,accuracy,,,,,0.0,1.0,1.0,0.0,4.0,1.0,9.0,0.0,469.4791523000458,,,,,,,,,469.46703890000936,470.67902450001566,471.4794043000438,471.4635230000131,471.4635764000122,471.4794043000438,471.4794043000438,471.4794043000438,476.47796960000414,477.86392050003633,right,0.0,73.16503329999978,,,,,,,,,,,,,,,,,,,,,,,,,,,,,,sub-086,1.0,random_dot,60.06817738299456,
left,left,accuracy,,,,,0.0,1.0,1.0,0.0,5.0,0.0,10.0,0.0,477.8769339999999,,,,,,,,,477.86778630001936,478.2263042000122,479.02666520001367,479.0100726000383,479.0100931000197,479.02666520001367,479.02666520001367,479.02666520001367,484.0251505000051,484.1101703000022,right,0.0,71.87155899993377,,,,,,,,,,,,,,,,,,,,,,,,,,,,,,sub-086,1.0,random_dot,60.06817738299456,
right,right,accuracy,,,,,0.0,1.0,1.0,0.0,5.0,1.0,11.0,1.0,484.12463150004623,,,,,,,,,484.1120412000455,484.2247165000299,485.0252318000421,485.0092363000149,485.0092799999984,485.0252318000421,485.0252318000421,485.0252318000421,,487.8431099000154,right,1.0,69.59774669999024,,,,,,,,,,,,,,,,,,,,,,,,,,,,,,sub-086,1.0,random_dot,60.06817738299456,
right,right,accuracy,,,,,0.0,1.0,1.0,0.0,6.0,0.0,12.0,1.0,487.8569315000205,,,,,,,,,487.8457117000362,489.0568034000462,489.85669939999934,489.8398538000183,489.8398732000496,489.85669939999934,489.85669939999934,489.85669939999934,,491.6246350000147,right,1.0,68.56072189996485,,,,,,,,,,,,,,,,,,,,,,,,,,,,,,sub-086,1.0,random_dot,60.06817738299456,
left,left,accuracy,,,,,0.0,1.0,1.0,0.0,6.0,1.0,13.0,0.0,491.63903600000776,,,,,,,,,491.6261873000185,492.8384189000353,493.6388267000439,493.6219848000328,493.6220022000489,493.6388267000439,493.6388267000439,493.6388267000439,,495.53885540005285,right,0.0,68.68336429999908,,,,,,,,,,,,,,,,,,,,,,,,,,,,,,sub-086,1.0,random_dot,60.06817738299456,
right,right,accuracy,,,,,0.0,1.0,1.0,0.0,7.0,0.0,14.0,1.0,495.5541486000293,,,,,,,,,495.53985230001854,496.75419070001226,497.5548418000108,497.53906420001294,497.539125100011,497.5548418000108,497.5548418000108,497.5548418000108,,500.0055623000371,right,1.0,69.24040369997965,,,,,,,,,,,,,,,,,,,,,,,,,,,,,,sub-086,1.0,random_dot,60.06817738299456,
left,left,accuracy,,,,,0.0,1.0,1.0,0.0,7.0,1.0,15.0,0.0,500.0197711000219,,,,,,,,,500.007914900023,501.21980370004894,502.0201191000524,502.0051218000008,502.0051852000179,502.0201191000524,502.0201191000524,502.0201191000524,,504.20429460000014,right,0.0,68.96521319990279,,,,,,,,,,,,,,,,,,,,,,,,,,,,,,sub-086,1.0,random_dot,60.06817738299456,
left,left,accuracy,,,,,0.0,1.0,1.0,0.0,8.0,0.0,16.0,0.0,504.21853990003,,,,,,,,,504.2066387000377,504.3181282000151,505.1191090000211,505.103461700026,505.1035230000271,505.1191090000211,505.1191090000211,505.1191090000211,,508.38622210000176,right,0.0,70.05628049996449,,,,,,,,,,,,,,,,,,,,,,,,,,,,,,sub-086,1.0,random_dot,60.06817738299456,
right,right,accuracy,,,,,0.0,1.0,1.0,0.0,8.0,1.0,17.0,1.0,508.4004004000453,,,,,,,,,508.3885474000126,508.5004848000244,509.3010079000378,509.2846166000236,509.2846582000493,509.3010079000378,509.3010079000378,509.3010079000378,,511.8855446000234,right,1.0,69.36837229994126,,,,,,,,,,,,,,,,,,,,,,,,,,,,,,sub-086,1.0,random_dot,60.06817738299456,
left,left,accuracy,,,,,0.0,1.0,1.0,0.0,9.0,0.0,18.0,0.0,511.8993632000056,,,,,,,,,511.8877004000242,511.9998126000282,512.7997335000546,512.7835271000513,512.7835669000051,512.7997335000546,512.7997335000546,512.7997335000546,,516.7509158000466,right,0.0,70.72860059997765,,,,,,,,,,,,,,,,,,,,,,,,,,,,,,sub-086,1.0,random_dot,60.06817738299456,
right,right,accuracy,,,,,0.0,1.0,1.0,0.0,9.0,1.0,19.0,1.0,516.7646756000468,,,,,,,,,516.7534920000471,517.9642058000318,518.7643984000315,518.7492289000074,518.7492920000223,518.7643984000315,518.7643984000315,518.7643984000315,,520.8181070000282,right,1.0,68.83751159993699,,,,,,,,,,,,,,,,,,,,,,,,,,,,,,sub-086,1.0,random_dot,60.06817738299456,
right,right,accuracy,,,,,0.0,1.0,1.0,0.0,10.0,0.0,20.0,1.0,520.8301985000144,,,,,,,,,520.8212612000061,521.6294908000273,522.4298752000323,522.4136187000549,522.4136555000441,522.4298752000323,522.4298752000323,522.4298752000323,,525.180564600043,right,1.0,69.54415869992226,,,,,,,,,,,,,,,,,,,,,,,,,,,,,,sub-086,1.0,random_dot,60.06817738299456,
left,left,accuracy,,,,,0.0,1.0,1.0,0.0,10.0,1.0,21.0,0.0,525.1949023000197,,,,,,,,,525.1815126000438,525.5448306000326,526.3456758000539,526.329901500023,526.3299612000119,526.3456758000539,526.3456758000539,526.3456758000539,,530.063054200029,right,0.0,70.50942859990755,,,,,,,,,,,,,,,,,,,,,,,,,,,,,,sub-086,1.0,random_dot,60.06817738299456,
left,left,accuracy,,,,,0.0,1.0,1.0,0.0,11.0,0.0,22.0,0.0,530.0770007000538,,,,,,,,,530.0654335000436,531.276794800011,532.077139800007,532.0609115000116,532.060954500048,532.077139800007,532.077139800007,532.077139800007,,533.3110660000239,left,1.0,68.01485239993781,,,,,,,,,,,,,,,,,,,,,,,,,,,,,,sub-086,1.0,random_dot,60.06817738299456,
right,right,accuracy,,,,,0.0,1.0,1.0,0.0,11.0,1.0,23.0,1.0,533.3257800000138,,,,,,,,,533.3122624000534,534.1258900000248,534.9261996000423,534.9104170000064,534.9104721000185,534.9261996000423,534.9261996000423,534.9261996000423,,537.0612030000193,left,0.0,68.92090519994963,,,,,,,,,,,,,,,,,,,,,,,,,,,,,,sub-086,1.0,random_dot,60.06817738299456,
right,right,accuracy,,,,,0.0,1.0,1.0,0.0,12.0,0.0,24.0,1.0,537.0750031000352,,,,,,,,,537.063637400046,537.4250542000518,538.2253014000016,538.209825900034,538.2098858000245,538.2253014000016,538.2253014000016,538.2253014000016,,540.1599061000161,right,1.0,68.71269909990951,,,,,,,,,,,,,,,,,,,,,,,,,,,,,,sub-086,1.0,random_dot,60.06817738299456,
left,left,accuracy,,,,,0.0,1.0,1.0,0.0,12.0,1.0,25.0,0.0,540.1738540000515,,,,,,,,,540.1622155000223,540.9737414000556,541.774039400043,541.7572929000016,541.7573169000098,541.774039400043,541.774039400043,541.774039400043,,544.6411056000507,left,1.0,69.65971619990887,,,,,,,,,,,,,,,,,,,,,,,,,,,,,,sub-086,1.0,random_dot,60.06817738299456,
left,left,accuracy,,,,,0.0,1.0,1.0,0.0,13.0,0.0,26.0,0.0,544.6558216000558,,,,,,,,,544.6428679000237,544.755853300041,545.5561365000322,545.5405381000019,545.5405867000227,545.5561365000322,545.5561365000322,545.5561365000322,,546.8083621000405,left,1.0,68.03415409993613,,,,,,,,,,,,,,,,,,,,,,,,,,,,,,sub-086,1.0,random_dot,60.06817738299456,
right,right,accuracy,,,,,0.0,1.0,1.0,0.0,13.0,1.0,27.0,1.0,546.8219504000153,,,,,,,,,546.8112181000179,548.021646600042,548.8220537000452,548.805999400036,548.8060471000499,548.8220537000452,548.8220537000452,548.8220537000452,,550.0393872000277,right,1.0,67.99705709994305,,,,,,,,,,,,,,,,,,,,,,,,,,,,,,sub-086,1.0,random_dot,60.06817738299456,
left,left,accuracy,,,,,0.0,1.0,1.0,0.0,14.0,0.0,28.0,0.0,550.054054200009,,,,,,,,,550.0410986000206,550.8536491000559,551.6538113999995,551.6371552000055,551.6371738000307,551.6538113999995,551.6538113999995,551.6538113999995,,552.9220772000263,left,1.0,68.0585988999228,,,,,,,,,,,,,,,,,,,,,,,,,,,,,,sub-086,1.0,random_dot,60.06817738299456,
right,right,accuracy,,,,,0.0,1.0,1.0,0.0,14.0,1.0,29.0,1.0,552.9364634000231,,,,,,,,,552.9239462000551,553.2862700000405,554.0865322000463,554.0698077999987,554.0698239000048,554.0865322000463,554.0865322000463,554.0865322000463,,556.4367405000376,right,1.0,69.13130109995836,,,,,,,,,,,,,,,,,,,,,,,,,,,,,,sub-086,1.0,random_dot,60.06817738299456,
right,right,accuracy,,,,,0.0,1.0,1.0,0.0,15.0,0.0,30.0,1.0,556.4517156000366,,,,,,,,,556.4378072000109,557.6520954000298,558.452162600006,558.43658160005,558.4366412000381,558.452162600006,558.452162600006,558.452162600006,,559.9537117000436,left,0.0,68.27971809997689,,,,,,,,,,,,,,,,,,,,,,,,,,,,,,sub-086,1.0,random_dot,60.06817738299456,
left,left,accuracy,,,,,0.0,1.0,1.0,0.0,15.0,1.0,31.0,0.0,559.9676461000345,,,,,,,,,559.956128400052,560.3176119000418,561.1183126000105,561.1023900000146,561.1024438000168,561.1183126000105,561.1183126000105,561.1183126000105,,563.051688400039,left,1.0,68.72500669996953,,,,,,,,,,,,,,,,,,,,,,,,,,,,,,sub-086,1.0,random_dot,60.06817738299456,
right,right,accuracy,,,,,0.0,1.0,1.0,0.0,16.0,0.0,32.0,1.0,563.0664400000242,,,,,,,,,563.05268600001,563.8666426000418,564.6670802000444,564.6510446000029,564.6510853000218,564.6670802000444,564.6670802000444,564.6670802000444,,565.4852145000477,right,1.0,67.59657959995093,,,,,,,,,,,,,,,,,,,,,,,,,,,,,,sub-086,1.0,random_dot,60.06817738299456,
left,left,accuracy,,,,,0.0,1.0,1.0,0.0,16.0,1.0,33.0,0.0,565.4992826000089,,,,,,,,,565.4875669000321,565.8492901000427,566.6498032000381,566.6339614000171,566.6340158000239,566.6498032000381,566.6498032000381,566.6498032000381,,567.5522973000188,left,1.0,67.69026339991251,,,,,,,,,,,,,,,,,,,,,,,,,,,,,,sub-086,1.0,random_dot,60.06817738299456,
right,right,accuracy,,,,,0.0,1.0,1.0,0.0,17.0,0.0,34.0,1.0,567.565430800023,,,,,,,,,567.556395200023,567.9153381000506,568.7152950000018,568.6987510000472,568.6987710000249,568.7152950000018,568.7152950000018,568.7152950000018,,569.7012282000505,right,1.0,67.774615699891,,,,,,,,,,,,,,,,,,,,,,,,,,,,,,sub-086,1.0,random_dot,60.06817738299456,
left,left,accuracy,,,,,0.0,1.0,1.0,0.0,17.0,1.0,35.0,0.0,569.7146752000554,,,,,,,,,569.7045005000546,570.0648304000497,570.8648433000199,570.8487061000196,570.8487496000016,570.8648433000199,570.8648433000199,570.8648433000199,,572.1063028000062,left,1.0,68.03314009989845,,,,,,,,,,,,,,,,,,,,,,,,,,,,,,sub-086,1.0,random_dot,60.06817738299456,
right,right,accuracy,,,,,0.0,1.0,1.0,0.0,18.0,0.0,36.0,1.0,572.1146016000421,,,,,,,,,572.1107430000557,573.3137448000489,574.113688100013,574.0977044000174,574.0977463000454,574.113688100013,574.113688100013,574.113688100013,,574.8321814000374,right,1.0,67.50990049995016,,,,,,,,,,,,,,,,,,,,,,,,,,,,,,sub-086,1.0,random_dot,60.06817738299456,
left,left,accuracy,,,,,0.0,1.0,1.0,0.0,18.0,1.0,37.0,0.0,574.8463381000329,,,,,,,,,574.8344188000192,576.0462492000079,576.8465903000324,576.8301251000375,576.8301651000511,576.8465903000324,576.8465903000324,576.8465903000324,,577.8814698000206,left,1.0,67.81979439995484,,,,,,,,,,,,,,,,,,,,,,,,,,,,,,sub-086,1.0,random_dot,60.06817738299456,
right,right,accuracy,,,,,0.0,1.0,1.0,0.0,19.0,0.0,38.0,1.0,577.8956354000256,,,,,,,,,577.883868200006,579.0952511000214,579.8957404000103,579.880011500034,579.8800649000332,579.8957404000103,579.8957404000103,579.8957404000103,,580.9795898000011,right,1.0,67.8735042999615,,,,,,,,,,,,,,,,,,,,,,,,,,,,,,sub-086,1.0,random_dot,60.06817738299456,
left,left,accuracy,,,,,0.0,1.0,1.0,0.0,19.0,1.0,39.0,0.0,580.994149300037,,,,,,,,,580.9806560000288,581.7945642000413,582.5944740000414,582.5785357000423,582.578574800049,582.5944740000414,582.5944740000414,582.5944740000414,,583.8956138000358,left,1.0,68.08018149994314,,,,,,,,,,,,,,,,,,,,,,,,,,,,,,sub-086,1.0,random_dot,60.06817738299456,
left,left,accuracy,,,,,0.0,1.0,1.0,0.0,20.0,0.0,40.0,0.0,583.9102087000501,,,,,,,,,583.8977982000215,584.7099849000224,585.5106531000347,585.4948753000353,585.4949269000208,585.5106531000347,585.5106531000347,585.5106531000347,,586.5121640000143,right,0.0,67.78047699993476,,,,,,,,,,,,,,,,,,,,,,,,,,,,,,sub-086,1.0,random_dot,60.06817738299456,
right,right,accuracy,,,,,0.0,1.0,1.0,0.0,20.0,1.0,41.0,1.0,586.5261005000211,,,,,,,,,586.5141893000109,587.3258907000418,588.126192100055,588.1111657000147,588.111226900015,588.126192100055,588.126192100055,588.126192100055,,589.3107814000105,left,0.0,67.96607049991144,,,,,,,,,,,,,,,,,,,,,,,,,,,,,,sub-086,1.0,random_dot,60.06817738299456,
left,left,accuracy,,,,,0.0,1.0,1.0,0.0,21.0,0.0,42.0,0.0,589.3251730000484,,,,,,,,,589.3126298999996,589.4252350000315,590.2258119000471,590.2097104000277,590.2097626000177,590.2258119000471,590.2258119000471,590.2258119000471,,591.4767125000362,right,0.0,68.03812979994109,,,,,,,,,,,,,,,,,,,,,,,,,,,,,,sub-086,1.0,random_dot,60.06817738299456,
right,right,accuracy,,,,,0.0,1.0,1.0,0.0,21.0,1.0,43.0,1.0,591.4910505000153,,,,,,,,,591.4784473000327,592.6909824000322,593.4916030000313,593.4758889000514,593.4759502000525,593.4916030000313,593.4916030000313,593.4916030000313,,594.6595984000014,left,0.0,67.95983690000139,,,,,,,,,,,,,,,,,,,,,,,,,,,,,,sub-086,1.0,random_dot,60.06817738299456,
left,left,accuracy,,,,,0.0,1.0,1.0,0.0,22.0,0.0,44.0,0.0,594.6732674000086,,,,,,,,,594.6621496000444,595.8736019000062,596.6738813000266,596.6581411000225,596.6581946000224,596.6738813000266,596.6738813000266,596.6738813000266,,598.5597858000547,right,0.0,68.66719109989936,,,,,,,,,,,,,,,,,,,,,,,,,,,,,,sub-086,1.0,random_dot,60.06817738299456,
right,right,accuracy,,,,,0.0,1.0,1.0,0.0,22.0,1.0,45.0,1.0,598.5725341000361,,,,,,,,,598.5637053000391,598.6725025000051,599.472809800005,599.4572375999996,599.4572984000552,599.472809800005,599.472809800005,599.472809800005,,600.5578440000536,right,1.0,67.87102789996425,,,,,,,,,,,,,,,,,,,,,,,,,,,,,,sub-086,1.0,random_dot,60.06817738299456,
right,right,accuracy,,,,,0.0,1.0,1.0,0.0,23.0,0.0,46.0,1.0,600.5716286000097,,,,,,,,,600.5598661000258,600.9213280000258,601.7225268000038,601.7066476000473,601.7067089000484,601.7225268000038,601.7225268000038,601.7225268000038,,604.3732623000396,right,1.0,69.42956839990802,,,,,,,,,,,,,,,,,,,,,,,,,,,,,,sub-086,1.0,random_dot,60.06817738299456,
left,left,accuracy,,,,,0.0,1.0,1.0,0.0,23.0,1.0,47.0,0.0,604.3872098000138,,,,,,,,,604.3753936000285,604.4874669000274,605.2878580000252,605.2723465000163,605.272410900041,605.2878580000252,605.2878580000252,605.2878580000252,,606.5568604000146,left,1.0,68.06140119995689,,,,,,,,,,,,,,,,,,,,,,,,,,,,,,sub-086,1.0,random_dot,60.06817738299456,
left,left,accuracy,,,,,0.0,1.0,1.0,0.0,24.0,0.0,48.0,0.0,606.5699242000119,,,,,,,,,606.5590043000411,607.3697482999996,608.1702790000127,608.1546691000112,608.1547237000195,608.1702790000127,608.1702790000127,608.1702790000127,,609.4392698000302,right,0.0,68.0516057999339,,,,,,,,,,,,,,,,,,,,,,,,,,,,,,sub-086,1.0,random_dot,60.06817738299456,
right,right,accuracy,,,,,0.0,1.0,1.0,0.0,24.0,1.0,49.0,1.0,609.4524289000547,,,,,,,,,609.4420143000316,609.8024487000075,610.6028464999981,610.5861649000435,610.5862008000258,610.6028464999981,610.6028464999981,610.6028464999981,,612.1026125000208,left,0.0,68.28367609996349,,,,,,,,,,,,,,,,,,,,,,,,,,,,,,sub-086,1.0,random_dot,60.06817738299456,
right,right,accuracy,,,,,0.0,1.0,1.0,0.0,25.0,0.0,50.0,1.0,612.1177273000358,,,,,,,,,612.1036394000403,612.4676137000206,613.2680516000255,613.2512634000159,613.2512830000487,613.2680516000255,613.2680516000255,613.2680516000255,,614.9351754000527,right,1.0,68.44829859992024,,,,,,,,,,,,,,,,,,,,,,,,,,,,,,sub-086,1.0,random_dot,60.06817738299456,
left,left,accuracy,,,,,0.0,1.0,1.0,0.0,25.0,1.0,51.0,0.0,614.9501326000318,,,,,,,,,614.9362140000449,616.1499293000088,616.9503317000344,616.9336068000412,616.9336242999998,616.9503317000344,616.9503317000344,616.9503317000344,,618.135548899998,left,1.0,67.97566529992037,,,,,,,,,,,,,,,,,,,,,,,,,,,,,,sub-086,1.0,random_dot,60.06817738299456,
right,right,accuracy,,,,,0.0,1.0,1.0,0.0,26.0,0.0,52.0,1.0,618.1495133000426,,,,,,,,,618.1378999000299,619.3493578000343,620.1495121000335,620.1335754000465,620.133621200046,620.1495121000335,620.1495121000335,620.1495121000335,,621.3011977000278,right,1.0,67.93401979992632,,,,,,,,,,,,,,,,,,,,,,,,,,,,,,sub-086,1.0,random_dot,60.06817738299456,
left,left,accuracy,,,,,0.0,1.0,1.0,0.0,26.0,1.0,53.0,0.0,621.3152342000394,,,,,,,,,621.3035870000022,622.1152083000052,622.9153969000326,622.8996089000138,622.899658600043,622.9153969000326,622.9153969000326,622.9153969000326,,624.4167654000339,left,1.0,68.29279339994537,,,,,,,,,,,,,,,,,,,,,,,,,,,,,,sub-086,1.0,random_dot,60.06817738299456,
left,left,accuracy,,,,,0.0,1.0,1.0,0.0,27.0,0.0,54.0,0.0,624.430783400021,,,,,,,,,624.4185782000422,625.2310641000513,626.0312030000496,626.0151852000272,626.0152390000294,626.0312030000496,626.0312030000496,626.0312030000496,,627.3830081000342,right,0.0,68.12922749994323,,,,,,,,,,,,,,,,,,,,,,,,,,,,,,sub-086,1.0,random_dot,60.06817738299456,
right,right,accuracy,,,,,0.0,1.0,1.0,0.0,27.0,1.0,55.0,1.0,627.396828100027,,,,,,,,,627.3859138000407,627.7462400000077,628.547229000018,628.531718800019,628.5317772999988,628.547229000018,628.547229000018,628.547229000018,,630.7974298000336,left,0.0,69.03071619995171,,,,,,,,,,,,,,,,,,,,,,,,,,,,,,sub-086,1.0,random_dot,60.06817738299456,
right,right,accuracy,,,,,0.0,1.0,1.0,0.0,28.0,0.0,56.0,1.0,630.8121411000029,,,,,,,,,630.799160100054,632.0120621000533,632.8122882000171,632.7973904000246,632.797449900012,632.8122882000171,632.8122882000171,632.8122882000171,,634.9967144000111,right,1.0,68.97334809997119,,,,,,,,,,,,,,,,,,,,,,,,,,,,,,sub-086,1.0,random_dot,60.06817738299456,
left,left,accuracy,,,,,0.0,1.0,1.0,0.0,28.0,1.0,57.0,0.0,635.0108925000532,,,,,,,,,634.9985626999987,635.8108302000328,636.6113586000283,636.5956348000327,636.595689800044,636.6113586000283,636.6113586000283,636.6113586000283,,638.2632296000374,left,1.0,68.43662499991478,,,,,,,,,,,,,,,,,,,,,,,,,,,,,,sub-086,1.0,random_dot,60.06817738299456,
left,left,accuracy,,,,,0.0,1.0,1.0,0.0,29.0,0.0,58.0,0.0,638.2765482000541,,,,,,,,,638.2658917000517,639.4764157000463,640.2769190000254,640.2609958000248,640.2610416000243,640.2769190000254,640.2769190000254,640.2769190000254,,643.560869900044,right,0.0,70.06367109989515,,,,,,,,,,,,,,,,,,,,,,,,,,,,,,sub-086,1.0,random_dot,60.06817738299456,
right,right,accuracy,,,,,0.0,1.0,1.0,0.0,29.0,1.0,59.0,1.0,643.5747559000156,,,,,,,,,643.5625933000119,643.674886599998,644.4750707000494,644.4585553000215,644.4585799000342,644.4750707000494,644.4750707000494,644.4750707000494,,645.2625096000265,right,1.0,67.56584269995801,,,,,,,,,,,,,,,,,,,,,,,,,,,,,,sub-086,1.0,random_dot,60.06817738299456,
,,accuracy,,,,,0.0,1.0,1.0,0.0,,,,,,,,,,,,,,,,,,,,,,,,,,,,,,,,,,,,,,,,,,,,,,,,,,,,,,,,sub-086,1.0,random_dot,60.06817738299456,
,,,,,,,,,,,,,,,,,,,,,,,,,,,,,,,,,,,,,,,,,,,,,,,,,,,,,,,,,,,,,,,645.2650960000465,645.2762661000015,650.2732826000429,sub-086,,,,
