direction,corrAns,thisN,thisTrialN,thisRepN,respDots.keys,respDots.corr,respDots.rt,respDots.duration,randomInstr,respRandomInstr.keys,respRandomInstr.rt,respRandomInstr.duration,practice_trials.thisRepN,practice_trials.thisTrialN,practice_trials.thisN,practice_trials.thisIndex,instr_trials.thisRepN,instr_trials.thisTrialN,instr_trials.thisN,instr_trials.thisIndex,test_trials.thisRepN,test_trials.thisTrialN,test_trials.thisN,test_trials.thisIndex,thisRow.t,notes,general_instruction.started,textGeneralInstr.started,respGeneralInstr.started,general_instruction.stopped,respGeneralInstr.keys,respGeneralInstr.rt,respGeneralInstr.duration,ITI.started,fixcross.started,fixcross.stopped,ITI.stopped,dots.started,backgroundDots.started,stimulusDots.started,respDots.started,stimulusDots.stopped,dots.stopped,practice_trials.respDots.keys,practice_trials.respDots.corr,practice_trials.respDots.rt,practice_trials.respDots.duration,feedback.started,textFeedback.started,feedback.stopped,textFeedback.stopped,info.started,textInfo.started,keyRespInfo.started,info.stopped,keyRespInfo.keys,keyRespInfo.rt,keyRespInfo.duration,test_instruction.started,textTestInstr.started,respTestInstr.started,test_instruction.stopped,respTestInstr.keys,respTestInstr.rt,respTestInstr.duration,random_instruction.started,textRandomInstr.started,respRandomInstr.started,random_instruction.stopped,instr_trials.respRandomInstr.keys,instr_trials.respRandomInstr.rt,instr_trials.respRandomInstr.duration,test_trials.respDots.keys,test_trials.respDots.corr,test_trials.respDots.rt,test_trials.respDots.duration,goodbye.started,textGoodbye.started,textGoodbye.stopped,goodbye.stopped,participant,session,expName,frameRate,Unnamed: 88
,,,,,,,,,,,,,,,,,,,,,,,,,,,0.0092054169508628,0.0168912499793805,0.0168912499793805,5.134032833972015,space,4.949519958987366,,,,,,,,,,,,,,,,,,,,,,,,,,,,,,,,,,,,,,,,,,,,,,,,,sub-022,1,random_dot,118.6209719267599,
left,left,0.0,0.0,0.0,right,0.0,7.928779918001965,,,,,,0.0,0.0,0.0,0.0,,,,,,,,,5.169822208990809,,,,,,,,,5.152176584000699,5.487548749952111,6.286388499953318,6.271582833956927,6.27222633396741,6.286388499953318,6.286388499953318,6.286388499953318,11.258738584001549,14.222894124977756,right,0.0,7.928779918001965,,14.230685249960516,14.357302416989114,14.72791429195786,,,,,,,,,,,,,,,,,,,,,,,,,,,,,,,sub-022,1,random_dot,118.6209719267599,
right,right,1.0,1.0,0.0,left,0.0,5.846883792022709,,,,,,0.0,1.0,1.0,1.0,,,,,,,,,14.738214334007353,,,,,,,,,14.72844283399172,14.821307834004983,15.613520874991082,15.605285833997186,15.6059192919638,15.613520874991082,15.613520874991082,15.613520874991082,20.593180875002872,21.46323900000425,left,0.0,5.846883792022709,,21.463421208958607,21.47501299995929,21.96159179200185,21.9718576669693,,,,,,,,,,,,,,,,,,,,,,,,,,,,,,sub-022,1,random_dot,118.6209719267599,
left,left,2.0,0.0,1.0,right,0.0,5.622341084002983,,,,,,1.0,0.0,2.0,0.0,,,,,,,,,21.9718576669693,,,,,,,,,21.962134875007905,22.312225958972704,23.10481162497308,23.095345124951564,23.095835916989017,23.10481162497308,23.10481162497308,23.10481162497308,28.08872233395232,28.73028512496967,right,0.0,5.622341084002983,,28.730459874961525,28.740527124959044,29.228975916979834,29.238442333997227,,,,,,,,,,,,,,,,,,,,,,,,,,,,,,sub-022,1,random_dot,118.6209719267599,
right,right,3.0,1.0,1.0,right,1.0,1.517576126032509,,,,,,1.0,1.0,3.0,1.0,,,,,,,,,29.238442333997227,,,,,,,,,29.22950995899737,30.029168874956667,30.83074495900655,30.822497249988373,30.823132749996148,30.83074495900655,30.83074495900655,30.83074495900655,,32.35686874995008,right,1.0,1.517576126032509,,32.36277508398052,32.369872999959625,32.85568916698685,32.86156229197513,,,,,,,,,,,,,,,,,,,,,,,,,,,,,,sub-022,1,random_dot,118.6209719267599,
left,left,4.0,0.0,2.0,right,0.0,1.7408039169968106,,,,,,2.0,0.0,4.0,0.0,,,,,,,,,32.86156229197513,,,,,,,,,32.85619724995922,34.05539749999298,34.8481790839578,34.83914920897223,34.83979466697201,34.8481790839578,34.8481790839578,34.8481790839578,,36.59742958395509,right,0.0,1.7408039169968106,,36.60099024994997,36.60969841695624,37.09499454195611,37.1058189169853,,,,,,,,,,,,,,,,,,,,,,,,,,,,,,sub-022,1,random_dot,118.6209719267599,
right,right,5.0,1.0,2.0,right,1.0,5.513533793040551,,,,,,2.0,1.0,5.0,1.0,,,,,,,,,37.1058189169853,,,,,,,,,37.09560895897448,37.44537758396473,38.238512541982345,38.22877091699047,38.22936170897447,38.238512541982345,38.238512541982345,38.238512541982345,43.22228058398469,43.75717924995115,right,1.0,5.513533793040551,,43.76208191696787,43.76916954200715,44.25653133395826,44.26223112497246,,,,,,,,,,,,,,,,,,,,,,,,,,,,,,sub-022,1,random_dot,118.6209719267599,
right,right,6.0,0.0,3.0,right,1.0,3.0622309589525685,,,,,,3.0,0.0,6.0,1.0,,,,,,,,,44.26223112497246,,,,,,,,,44.25705529196421,44.60569179197773,45.39817787497304,45.38972379197367,45.39031349995639,45.39817787497304,45.39817787497304,45.39817787497304,,48.46357741695829,right,1.0,3.0622309589525685,,48.463692166958936,48.47149283398176,48.95644033397548,48.96193304198096,,,,,,,,,,,,,,,,,,,,,,,,,,,,,,sub-022,1,random_dot,118.6209719267599,
left,left,7.0,1.0,3.0,left,1.0,2.766696167003829,,,,,,3.0,1.0,7.0,0.0,,,,,,,,,48.96193304198096,,,,,,,,,48.956938833987806,49.06361749995267,49.8670484169852,49.856726708996575,49.85750108398497,49.8670484169852,49.8670484169852,49.8670484169852,,52.64052812498994,left,1.0,2.766696167003829,,52.64067799999612,52.64835891698021,53.13985541695729,53.14584108395502,,,,,,,,,,,,,,,,,,,,,,,,,,,,,,sub-022,1,random_dot,118.6209719267599,
right,right,8.0,0.0,4.0,right,1.0,4.030608834000304,,,,,,4.0,0.0,8.0,1.0,,,,,,,,,53.14584108395502,,,,,,,,,53.14036987500731,53.479417374997865,54.27250508399448,54.26297974999761,54.26353341696085,54.27250508399448,54.27250508399448,54.27250508399448,,58.3073443339672,right,1.0,4.030608834000304,,58.30748108396074,58.31281608395511,58.7959376249928,58.80668445897754,,,,,,,,,,,,,,,,,,,,,,,,,,,,,,sub-022,1,random_dot,118.6209719267599,
left,left,9.0,1.0,4.0,left,1.0,4.037882501026616,,,,,,4.0,1.0,9.0,0.0,,,,,,,,,58.80668445897754,,,,,,,,,58.7963598750066,58.89745975000551,59.69899924995843,59.690469624998514,59.69115804199828,59.69899924995843,59.69899924995843,59.69899924995843,,63.74092433397891,left,1.0,4.037882501026616,,63.74106691696216,63.74978533398826,64.24043199996231,64.24628687498625,,,,,,,,,,,,,,,,,,,,,,,,,,,,,,sub-022,1,random_dot,118.6209719267599,
left,left,10.0,0.0,5.0,right,0.0,3.250446334015578,,,,,,5.0,0.0,10.0,0.0,,,,,,,,,64.24628687498625,,,,,,,,,64.24089920899132,64.3304299589945,65.13157008396229,65.12370841699885,65.12430616695201,65.13157008396229,65.13157008396229,65.13157008396229,,68.39110545895528,right,0.0,3.250446334015578,,68.39462454197928,68.40298991696909,68.89087233395549,68.89669637498446,,,,,,,,,,,,,,,,,,,,,,,,,,,,,,sub-022,1,random_dot,118.6209719267599,
right,right,11.0,1.0,5.0,right,1.0,4.398514333995991,,,,,,5.0,1.0,11.0,1.0,,,,,,,,,68.89669637498446,,,,,,,,,68.89144066697918,69.23116991698043,70.03231399995275,70.02410350000719,70.02471374999732,70.03231399995275,70.03231399995275,70.03231399995275,,74.44152774999384,right,1.0,4.398514333995991,,74.4451311249868,74.4524540840066,74.94062779197702,74.94570124999154,,,,,,,,,,,,,,,,,,,,,,,,,,,,,,sub-022,1,random_dot,118.6209719267599,
left,left,12.0,0.0,6.0,right,0.0,5.651025834027678,,,,,,6.0,0.0,12.0,0.0,,,,,,,,,74.94570124999154,,,,,,,,,74.94105999998283,75.29016558395233,76.08259095897665,76.07417295896448,76.07468774996232,76.08259095897665,76.08259095897665,76.08259095897665,81.06297308398644,81.74210479197791,right,0.0,5.651025834027678,,81.74659687496023,81.75364295899635,82.24136966699734,82.24721695896005,,,,,,,,,,,,,,,,,,,,,,,,,,,,,,sub-022,1,random_dot,118.6209719267599,
right,right,13.0,1.0,6.0,right,1.0,3.51046304195188,,,,,,6.0,1.0,13.0,1.0,,,,,,,,,82.24721695896005,,,,,,,,,82.24187074997462,82.59112395899137,83.38384133396903,83.37506900000153,83.37566066696309,83.38384133396903,83.38384133396903,83.38384133396903,,86.89882654196117,right,1.0,3.51046304195188,,86.90243349998491,86.91224095900543,87.3969772499986,87.40783904195996,,,,,,,,,,,,,,,,,,,,,,,,,,,,,,sub-022,1,random_dot,118.6209719267599,
right,right,14.0,0.0,7.0,left,0.0,3.756094249954913,,,,,,7.0,0.0,14.0,1.0,,,,,,,,,87.40783904195996,,,,,,,,,87.39745104196481,87.74890341697028,88.55004829197424,88.54155500000343,88.54214295896236,88.55004829197424,88.55004829197424,88.55004829197424,,92.30886304198066,left,0.0,3.756094249954913,,92.3122482089675,92.31878804200096,92.8079915419803,92.81325170898344,,,,,,,,,,,,,,,,,,,,,,,,,,,,,,sub-022,1,random_dot,118.6209719267599,
left,left,15.0,1.0,7.0,left,1.0,3.965122291992884,,,,,,7.0,1.0,15.0,0.0,,,,,,,,,92.81325170898344,,,,,,,,,92.8084892089828,93.59820529195711,94.40008187497732,94.39181224995993,94.39245729200776,94.40008187497732,94.40008187497732,94.40008187497732,,98.37565112498125,left,1.0,3.965122291992884,,98.37961595895467,98.38813983398722,98.8751090419828,98.88082633400336,,,,,,,,,,,,,,,,,,,,,,,,,,,,,,sub-022,1,random_dot,118.6209719267599,
right,right,16.0,0.0,8.0,left,0.0,5.135112042014953,,,,,,8.0,0.0,16.0,1.0,,,,,,,,,98.88082633400336,,,,,,,,,98.87557712499984,99.21554187498988,100.00768370897276,99.99824937497031,99.99886266695104,100.00768370897276,100.00768370897276,100.00768370897276,104.99178004194982,105.15037449996451,left,0.0,5.135112042014953,,105.15451008395758,105.1614754999755,105.64876537496455,105.65822549996663,,,,,,,,,,,,,,,,,,,,,,,,,,,,,,sub-022,1,random_dot,118.6209719267599,
left,left,17.0,1.0,8.0,left,1.0,7.109195958997589,,,,,,8.0,1.0,17.0,0.0,,,,,,,,,105.65822549996663,,,,,,,,,105.6492873749812,106.84735766699303,107.6414174590027,107.63125424995089,107.63191166700562,107.6414174590027,107.6414174590027,107.6414174590027,112.62516666698502,114.7600921249832,left,1.0,7.109195958997589,,114.76424945896724,114.77181770897003,115.25913670897717,115.26507387496532,,,,,,,,,,,,,,,,,,,,,,,,,,,,,,sub-022,1,random_dot,118.6209719267599,
left,left,18.0,0.0,9.0,left,1.0,5.465090751007665,,,,,,9.0,0.0,18.0,0.0,,,,,,,,,115.26507387496532,,,,,,,,,115.25964216695866,116.45910370897036,117.25001404195793,117.24253362498712,117.2429857919924,117.25001404195793,117.25001404195793,117.25001404195793,122.2306752089644,122.71737891697558,left,1.0,5.465090751007665,,122.71756354195531,122.72551904199644,123.20921287499368,123.2147280839854,,,,,,,,,,,,,,,,,,,,,,,,,,,,,,sub-022,1,random_dot,118.6209719267599,
right,right,19.0,1.0,9.0,left,0.0,2.764818416966591,,,,,,9.0,1.0,19.0,1.0,,,,,,,,,123.2147280839854,,,,,,,,,123.20972179196542,124.41634954197798,125.20896687498316,125.19919929199386,125.19985058397288,125.20896687498316,125.20896687498316,125.20896687498316,,127.97702470899094,left,0.0,2.764818416966591,,127.98067654197804,127.98925016698196,128.4764703339897,128.48455091699725,,,,,,,,,,,,,,,,,,,,,,,,,,,,,,sub-022,1,random_dot,118.6209719267599,
,,,,,,,,,,,,,,,,,,,,,,,,,,,,,,,,,,,,,,,,,,,,,,,,,,,,128.47667099995306,128.48455091699725,128.48455091699725,132.85011845896952,space,4.358722334029153,,,,,,,,,,,,,,,,,,,,,,,,sub-022,1,random_dot,118.6209719267599,
,,,,,,,,,,,,,,,,,,,,,,,,,,,,,,,,,,,,,,,,,,,,,,,,,,,,,,,,,,,132.85022791696247,132.85878766700625,132.85878766700625,139.1778373749694,space,6.316657250979915,,,,,,,,,,,,,,,,,sub-022,1,random_dot,118.6209719267599,
right,right,0.0,0.0,0.0,left,0.0,2.787488000991289,,speed,space,2.145245999970939,,,,,,0.0,0.0,0.0,1.0,0.0,0.0,0.0,1.0,141.37990637496114,,,,,,,,,141.3716141670011,142.56013449997408,143.3525896249921,143.34370254195528,143.3443477919791,143.3525896249921,143.3525896249921,143.3525896249921,,146.14338641695213,,,,,,,,,,,,,,,,,,,,,,,139.20321549999062,139.2123295419733,139.2123295419733,141.36156912497245,space,2.145245999970939,,left,0.0,2.787488000991289,,,,,,sub-022,1,random_dot,118.6209719267599,
left,left,1.0,1.0,0.0,right,0.0,1.5453219169867225,,speed,space,2.145245999970939,,,,,,0.0,0.0,0.0,1.0,0.0,1.0,1.0,0.0,146.147433333972,,,,,,,,,146.14362708397675,146.93328724999446,147.72672862495529,147.71686054195743,147.71722620900255,147.72672862495529,147.72672862495529,147.72672862495529,,149.27771599998232,,,,,,,,,,,,,,,,,,,,,,,,,,,,,,right,0.0,1.5453219169867225,,,,,,sub-022,1,random_dot,118.6209719267599,
right,right,2.0,0.0,1.0,left,0.0,2.3509089589933865,,speed,space,2.145245999970939,,,,,,0.0,0.0,0.0,1.0,1.0,0.0,2.0,1.0,149.28327991697006,,,,,,,,,149.27822229196315,150.46781145897694,151.26949508395046,151.26057137496537,151.26112008397467,151.26949508395046,151.26949508395046,151.26949508395046,,153.62780049996218,,,,,,,,,,,,,,,,,,,,,,,,,,,,,,left,0.0,2.3509089589933865,,,,,,sub-022,1,random_dot,118.6209719267599,
left,left,3.0,1.0,1.0,left,1.0,4.303546417038888,,speed,space,2.145245999970939,,,,,,0.0,0.0,0.0,1.0,1.0,1.0,3.0,0.0,153.6340610839543,,,,,,,,,153.62807012500707,153.967345833953,154.75977462495212,154.7501840419718,154.75073670898564,154.75977462495212,154.75977462495212,154.75977462495212,,159.06806691695238,,,,,,,,,,,,,,,,,,,,,,,,,,,,,,left,1.0,4.303546417038888,,,,,,sub-022,1,random_dot,118.6209719267599,
left,left,4.0,0.0,2.0,left,1.0,4.375972541980445,,speed,space,2.145245999970939,,,,,,0.0,0.0,0.0,1.0,2.0,0.0,4.0,0.0,159.07599533395842,,,,,,,,,159.0686077499995,159.41723583400017,160.2101776250056,160.20057637500577,160.2011554169585,160.2101776250056,160.2101776250056,160.2101776250056,,164.59547341696452,,,,,,,,,,,,,,,,,,,,,,,,,,,,,,left,1.0,4.375972541980445,,,,,,sub-022,1,random_dot,118.6209719267599,
right,right,5.0,1.0,2.0,left,0.0,5.228870709019247,,speed,space,2.145245999970939,,,,,,0.0,0.0,0.0,1.0,2.0,1.0,5.0,1.0,164.602904208994,,,,,,,,,164.59603199997218,164.6943823749898,165.4864387919661,165.47787704196526,165.47849424998276,165.4864387919661,165.4864387919661,165.4864387919661,170.46574091695948,170.7184829589678,,,,,,,,,,,,,,,,,,,,,,,,,,,,,,left,0.0,5.228870709019247,,,,,,sub-022,1,random_dot,118.6209719267599,
left,left,6.0,0.0,3.0,left,1.0,3.0118751680129208,,speed,space,2.145245999970939,,,,,,0.0,0.0,0.0,1.0,3.0,0.0,6.0,0.0,170.72790558397537,,,,,,,,,170.71906304196455,170.81725749996258,171.6105696669547,171.60022587497951,171.6008144170046,171.6105696669547,171.6105696669547,171.6105696669547,,174.62930966698332,,,,,,,,,,,,,,,,,,,,,,,,,,,,,,left,1.0,3.0118751680129208,,,,,,sub-022,1,random_dot,118.6209719267599,
right,right,7.0,1.0,3.0,left,0.0,4.584868834004737,,speed,space,2.145245999970939,,,,,,0.0,0.0,0.0,1.0,3.0,1.0,7.0,1.0,174.6372285420075,,,,,,,,,174.62982879200715,175.42813033395214,176.22111479198793,176.21160629199585,176.21238554199226,176.22111479198793,176.22111479198793,176.22111479198793,,180.81256549997488,,,,,,,,,,,,,,,,,,,,,,,,,,,,,,left,0.0,4.584868834004737,,,,,,sub-022,1,random_dot,118.6209719267599,
right,right,8.0,0.0,4.0,left,0.0,3.239353625045624,,speed,space,2.145245999970939,,,,,,0.0,0.0,0.0,1.0,4.0,0.0,8.0,1.0,180.82193062495207,,,,,,,,,180.81314483395545,180.9115400419687,181.7037457919796,181.69505508395375,181.6957123339525,181.7037457919796,181.7037457919796,181.7037457919796,,184.9456587089808,,,,,,,,,,,,,,,,,,,,,,,,,,,,,,left,0.0,3.239353625045624,,,,,,sub-022,1,random_dot,118.6209719267599,
left,left,9.0,1.0,4.0,left,1.0,5.4306228759814985,,speed,space,2.145245999970939,,,,,,0.0,0.0,0.0,1.0,4.0,1.0,9.0,0.0,184.9531837090035,,,,,,,,,184.94617570895932,186.1351743749692,186.93724470899903,186.92888474999927,186.92951716698008,186.93724470899903,186.93724470899903,186.93724470899903,191.91715220897456,192.37002279196167,,,,,,,,,,,,,,,,,,,,,,,,,,,,,,left,1.0,5.4306228759814985,,,,,,sub-022,1,random_dot,118.6209719267599,
right,right,10.0,0.0,5.0,left,0.0,5.508361792948563,,speed,space,2.145245999970939,,,,,,0.0,0.0,0.0,1.0,5.0,0.0,10.0,1.0,192.37809112499235,,,,,,,,,192.3706158749992,193.56924537499435,194.3708239999833,194.36238408397185,194.36301608395297,194.3708239999833,194.3708239999833,194.3708239999833,199.35070162499323,199.8868657499552,,,,,,,,,,,,,,,,,,,,,,,,,,,,,,left,0.0,5.508361792948563,,,,,,sub-022,1,random_dot,118.6209719267599,
left,left,11.0,1.0,5.0,left,1.0,3.0074858340085484,,speed,space,2.145245999970939,,,,,,0.0,0.0,0.0,1.0,5.0,1.0,11.0,0.0,199.91188883397265,,,,,,,,,199.887513374968,200.2362496669521,201.0381851669517,201.02939691697247,201.03003141697263,201.0381851669517,201.0381851669517,201.0381851669517,,204.05242466699565,,,,,,,,,,,,,,,,,,,,,,,,,,,,,,left,1.0,3.0074858340085484,,,,,,sub-022,1,random_dot,118.6209719267599,
right,right,12.0,0.0,6.0,left,0.0,5.49841400096193,,speed,space,2.145245999970939,,,,,,0.0,0.0,0.0,1.0,6.0,0.0,12.0,1.0,204.0619646249688,,,,,,,,,204.052668083983,204.8523515840061,205.64507279195823,205.6355735840043,205.6361474999576,205.64507279195823,205.64507279195823,205.64507279195823,210.62897620897277,211.1475924589904,,,,,,,,,,,,,,,,,,,,,,,,,,,,,,left,0.0,5.49841400096193,,,,,,sub-022,1,random_dot,118.6209719267599,
left,left,13.0,1.0,6.0,left,1.0,5.445148918021005,,speed,space,2.145245999970939,,,,,,0.0,0.0,0.0,1.0,6.0,1.0,13.0,0.0,211.15763537498424,,,,,,,,,211.14835062500788,211.49607354198812,212.2876846669824,212.27968616696307,212.28026145900367,212.2876846669824,212.2876846669824,212.2876846669824,217.26835916697743,217.73716812499333,,,,,,,,,,,,,,,,,,,,,,,,,,,,,,left,1.0,5.445148918021005,,,,,,sub-022,1,random_dot,118.6209719267599,
right,right,14.0,0.0,7.0,right,1.0,4.923387876013294,,speed,space,2.145245999970939,,,,,,0.0,0.0,0.0,1.0,7.0,0.0,14.0,1.0,217.74561445898144,,,,,,,,,217.73772149998692,218.08603379200213,218.88862258399604,218.8799352920032,218.88046387495703,218.88862258399604,218.88862258399604,218.88862258399604,,223.813767249987,,,,,,,,,,,,,,,,,,,,,,,,,,,,,,right,1.0,4.923387876013294,,,,,,sub-022,1,random_dot,118.6209719267599,
left,left,15.0,1.0,7.0,left,1.0,5.412340543000028,,speed,space,2.145245999970939,,,,,,0.0,0.0,0.0,1.0,7.0,1.0,15.0,0.0,223.81931499997157,,,,,,,,,223.81422320898852,223.9030915419571,224.70517208398087,224.6967814170057,224.69737429195084,224.70517208398087,224.70517208398087,224.70517208398087,229.6848472499987,230.12111991696293,,,,,,,,,,,,,,,,,,,,,,,,,,,,,,left,1.0,5.412340543000028,,,,,,sub-022,1,random_dot,118.6209719267599,
right,right,16.0,0.0,8.0,right,1.0,5.3889259999850765,,speed,space,2.145245999970939,,,,,,0.0,0.0,0.0,1.0,8.0,0.0,16.0,1.0,230.1464094169787,,,,,,,,,230.12175045895856,230.4697732499917,231.2628151669633,231.25307633396005,231.25368724996224,231.2628151669633,231.2628151669633,231.2628151669633,236.24655970896129,236.65404312498868,,,,,,,,,,,,,,,,,,,,,,,,,,,,,,right,1.0,5.3889259999850765,,,,,,sub-022,1,random_dot,118.6209719267599,
left,left,17.0,1.0,8.0,right,0.0,4.052735416975338,,speed,space,2.145245999970939,,,,,,0.0,0.0,0.0,1.0,8.0,1.0,17.0,0.0,236.663468291983,,,,,,,,,236.65454762498848,237.00381229195045,237.79637141700368,237.78648024995343,237.78704787499737,237.79637141700368,237.79637141700368,237.79637141700368,,241.8553144589532,,,,,,,,,,,,,,,,,,,,,,,,,,,,,,right,0.0,4.052735416975338,,,,,,sub-022,1,random_dot,118.6209719267599,
right,right,18.0,0.0,9.0,right,1.0,6.087720500014257,,speed,space,2.145245999970939,,,,,,0.0,0.0,0.0,1.0,9.0,0.0,18.0,1.0,241.8630299170036,,,,,,,,,241.85573833395028,242.65490520896856,243.45557983400067,243.4473644589889,243.44791891699424,243.45557983400067,243.45557983400067,243.45557983400067,248.43605987500632,249.54878862499027,,,,,,,,,,,,,,,,,,,,,,,,,,,,,,right,1.0,6.087720500014257,,,,,,sub-022,1,random_dot,118.6209719267599,
left,left,19.0,1.0,9.0,right,0.0,5.267579542996828,,speed,space,2.145245999970939,,,,,,0.0,0.0,0.0,1.0,9.0,1.0,19.0,0.0,249.5575537089608,,,,,,,,,249.5494716669782,249.6475969589665,250.43986462499012,250.43122104200305,250.4319367919816,250.43986462499012,250.43986462499012,250.43986462499012,255.4196582500008,255.7155858339975,,,,,,,,,,,,,,,,,,,,,,,,,,,,,,right,0.0,5.267579542996828,,,,,,sub-022,1,random_dot,118.6209719267599,
right,right,20.0,0.0,10.0,right,1.0,3.5752793760038912,,speed,space,2.145245999970939,,,,,,0.0,0.0,0.0,1.0,10.0,0.0,20.0,1.0,255.72194683400448,,,,,,,,,255.71586804196704,255.8144425000064,256.60665704199346,256.5980432499782,256.5986393339699,256.60665704199346,256.60665704199346,256.60665704199346,,260.1884650840075,,,,,,,,,,,,,,,,,,,,,,,,,,,,,,right,1.0,3.5752793760038912,,,,,,sub-022,1,random_dot,118.6209719267599,
left,left,21.0,1.0,10.0,right,0.0,4.170257708989084,,speed,space,2.145245999970939,,,,,,0.0,0.0,0.0,1.0,10.0,1.0,21.0,0.0,260.197645541979,,,,,,,,,260.18870524998056,260.28770854196046,261.0806240839884,261.07046204200014,261.07117799995467,261.0806240839884,261.0806240839884,261.0806240839884,,265.2562057089526,,,,,,,,,,,,,,,,,,,,,,,,,,,,,,right,0.0,4.170257708989084,,,,,,sub-022,1,random_dot,118.6209719267599,
left,left,22.0,0.0,11.0,right,0.0,3.004962083999999,,speed,space,2.145245999970939,,,,,,0.0,0.0,0.0,1.0,11.0,0.0,22.0,0.0,265.26381558395224,,,,,,,,,265.2568139169598,265.3549559999956,266.1568947089836,266.148441708996,266.14903837500606,266.1568947089836,266.1568947089836,266.1568947089836,,269.1654280839721,,,,,,,,,,,,,,,,,,,,,,,,,,,,,,right,0.0,3.004962083999999,,,,,,sub-022,1,random_dot,118.6209719267599,
right,right,23.0,1.0,11.0,left,0.0,5.11663970904192,,speed,space,2.145245999970939,,,,,,0.0,0.0,0.0,1.0,11.0,1.0,23.0,1.0,269.17234358395217,,,,,,,,,269.16588508395944,270.3651116669644,271.1575029169908,271.1488572499948,271.1495678749634,271.1575029169908,271.1575029169908,271.1575029169908,276.1369492499507,276.28319666697644,,,,,,,,,,,,,,,,,,,,,,,,,,,,,,left,0.0,5.11663970904192,,,,,,sub-022,1,random_dot,118.6209719267599,
left,left,24.0,0.0,12.0,left,1.0,1.6911300430074334,,speed,space,2.145245999970939,,,,,,0.0,0.0,0.0,1.0,12.0,0.0,24.0,0.0,276.2924587499583,,,,,,,,,276.2838873749715,277.08194379199995,277.87393445899943,277.8652718749945,277.8658969589742,277.87393445899943,277.87393445899943,277.87393445899943,,279.5725748339901,,,,,,,,,,,,,,,,,,,,,,,,,,,,,,left,1.0,1.6911300430074334,,,,,,sub-022,1,random_dot,118.6209719267599,
right,right,25.0,1.0,12.0,right,1.0,2.019555374979973,,speed,space,2.145245999970939,,,,,,0.0,0.0,0.0,1.0,12.0,1.0,25.0,1.0,279.5812595419702,,,,,,,,,279.5728387499694,279.92297666700324,280.72474949999014,280.7157644169638,280.7165023749694,280.72474949999014,280.72474949999014,280.72474949999014,,282.7495964169502,,,,,,,,,,,,,,,,,,,,,,,,,,,,,,right,1.0,2.019555374979973,,,,,,sub-022,1,random_dot,118.6209719267599,
left,left,26.0,0.0,13.0,right,0.0,2.845108875015285,,speed,space,2.145245999970939,,,,,,0.0,0.0,0.0,1.0,13.0,0.0,26.0,0.0,282.7551952920039,,,,,,,,,282.7500971669797,283.9395808749832,284.74066399998264,284.7322312499746,284.73284012498334,284.74066399998264,284.74066399998264,284.74066399998264,,287.5900274589658,,,,,,,,,,,,,,,,,,,,,,,,,,,,,,right,0.0,2.845108875015285,,,,,,sub-022,1,random_dot,118.6209719267599,
right,right,27.0,1.0,13.0,right,1.0,2.041743666981347,,speed,space,2.145245999970939,,,,,,0.0,0.0,0.0,1.0,13.0,1.0,27.0,1.0,287.5974434999516,,,,,,,,,287.59050212497823,288.3890592089738,289.19216520898044,289.1828347919509,289.18357008398743,289.19216520898044,289.19216520898044,289.19216520898044,,291.2403400839539,,,,,,,,,,,,,,,,,,,,,,,,,,,,,,right,1.0,2.041743666981347,,,,,,sub-022,1,random_dot,118.6209719267599,
left,left,28.0,0.0,14.0,left,1.0,1.0136693340027705,,speed,space,2.145245999970939,,,,,,0.0,0.0,0.0,1.0,14.0,0.0,28.0,0.0,291.24810841697035,,,,,,,,,291.24085487495176,291.33996024995577,292.14139895897824,292.13275091699325,292.13341883395333,292.14139895897824,292.14139895897824,292.14139895897824,,293.1563830419909,,,,,,,,,,,,,,,,,,,,,,,,,,,,,,left,1.0,1.0136693340027705,,,,,,sub-022,1,random_dot,118.6209719267599,
right,right,29.0,1.0,14.0,right,1.0,0.853067708958406,,speed,space,2.145245999970939,,,,,,0.0,0.0,0.0,1.0,14.0,1.0,29.0,1.0,293.165454958973,,,,,,,,,293.1568706249818,294.35685220896266,295.1577273749863,295.1494754169835,295.1500821670052,295.1577273749863,295.1577273749863,295.1577273749863,,296.0158930000034,,,,,,,,,,,,,,,,,,,,,,,,,,,,,,right,1.0,0.853067708958406,,,,,,sub-022,1,random_dot,118.6209719267599,
left,left,30.0,0.0,15.0,right,0.0,3.333658916992136,,speed,space,2.145245999970939,,,,,,0.0,0.0,0.0,1.0,15.0,0.0,30.0,0.0,296.021961041959,,,,,,,,,296.01614341698587,296.8058471669792,297.60791749996133,297.5995391669567,297.60015383397695,297.60791749996133,297.60791749996133,297.60791749996133,,300.95065295899985,,,,,,,,,,,,,,,,,,,,,,,,,,,,,,right,0.0,3.333658916992136,,,,,,sub-022,1,random_dot,118.6209719267599,
right,right,31.0,1.0,15.0,left,0.0,5.264207917032763,,speed,space,2.145245999970939,,,,,,0.0,0.0,0.0,1.0,15.0,1.0,31.0,1.0,300.95850829198025,,,,,,,,,300.95114220899995,302.14905304199783,302.9413578339736,302.93314954196103,302.9337317919708,302.9413578339736,302.9413578339736,302.9413578339736,307.9217345839716,308.2077647499973,,,,,,,,,,,,,,,,,,,,,,,,,,,,,,left,0.0,5.264207917032763,,,,,,sub-022,1,random_dot,118.6209719267599,
right,right,32.0,0.0,16.0,left,0.0,4.560893668036442,,speed,space,2.145245999970939,,,,,,0.0,0.0,0.0,1.0,16.0,0.0,32.0,1.0,308.2159607919748,,,,,,,,,308.2084225839935,309.00654870900325,309.79906404198846,309.7892241249792,309.789803291962,309.79906404198846,309.79906404198846,309.79906404198846,,314.36716629198054,,,,,,,,,,,,,,,,,,,,,,,,,,,,,,left,0.0,4.560893668036442,,,,,,sub-022,1,random_dot,118.6209719267599,
left,left,33.0,1.0,16.0,left,1.0,5.008305084018502,,speed,space,2.145245999970939,,,,,,0.0,0.0,0.0,1.0,16.0,1.0,33.0,0.0,314.3754662919673,,,,,,,,,314.3676950419904,314.7081119169597,315.508298583969,315.4999944589799,315.5006079589948,315.508298583969,315.508298583969,315.508298583969,320.48767649999354,320.5243030419806,,,,,,,,,,,,,,,,,,,,,,,,,,,,,,left,1.0,5.008305084018502,,,,,,sub-022,1,random_dot,118.6209719267599,
right,right,34.0,0.0,17.0,left,0.0,4.911472084000707,,speed,space,2.145245999970939,,,,,,0.0,0.0,0.0,1.0,17.0,0.0,34.0,1.0,320.5330932919751,,,,,,,,,320.52484583400656,320.8734030419728,321.67475229199044,321.6670500839828,321.66762345895404,321.67475229199044,321.67475229199044,321.67475229199044,,326.5916467089555,,,,,,,,,,,,,,,,,,,,,,,,,,,,,,left,0.0,4.911472084000707,,,,,,sub-022,1,random_dot,118.6209719267599,
left,left,35.0,1.0,17.0,right,0.0,5.359100333997048,,speed,space,2.145245999970939,,,,,,0.0,0.0,0.0,1.0,17.0,1.0,35.0,0.0,326.59875025000656,,,,,,,,,326.59215199999744,327.3902865419513,328.1829644999816,328.1743076669518,328.174969124957,328.1829644999816,328.1829644999816,328.1829644999816,333.1671292089741,333.55196229199646,,,,,,,,,,,,,,,,,,,,,,,,,,,,,,right,0.0,5.359100333997048,,,,,,sub-022,1,random_dot,118.6209719267599,
left,left,36.0,0.0,18.0,left,1.0,5.486380459042266,,speed,space,2.145245999970939,,,,,,0.0,0.0,0.0,1.0,18.0,0.0,36.0,0.0,333.56159924995154,,,,,,,,,333.5525690839859,333.6503253339906,334.4432812499581,334.4343879169901,334.43508749996545,334.4432812499581,334.4432812499581,334.4432812499581,339.4229108339641,339.93607037496986,,,,,,,,,,,,,,,,,,,,,,,,,,,,,,left,1.0,5.486380459042266,,,,,,sub-022,1,random_dot,118.6209719267599,
right,right,37.0,1.0,18.0,right,1.0,6.005977458960842,,speed,space,2.145245999970939,,,,,,0.0,0.0,0.0,1.0,18.0,1.0,37.0,1.0,339.9462849169504,,,,,,,,,339.9368800839875,340.03440320899244,340.82632845896296,340.8176603339962,340.8182504999568,340.82632845896296,340.82632845896296,340.82632845896296,345.80608733400004,346.83561837498564,,,,,,,,,,,,,,,,,,,,,,,,,,,,,,right,1.0,6.005977458960842,,,,,,sub-022,1,random_dot,118.6209719267599,
right,right,38.0,0.0,19.0,right,1.0,4.266278833965771,,speed,space,2.145245999970939,,,,,,0.0,0.0,0.0,1.0,19.0,0.0,38.0,1.0,346.8450322499848,,,,,,,,,346.83629554195795,348.0343165840022,348.82547183398856,348.8177987499512,348.81824241694994,348.82547183398856,348.82547183398856,348.82547183398856,,353.1020254169707,,,,,,,,,,,,,,,,,,,,,,,,,,,,,,right,1.0,4.266278833965771,,,,,,sub-022,1,random_dot,118.6209719267599,
left,left,39.0,1.0,19.0,left,1.0,3.4552590000093915,,speed,space,2.145245999970939,,,,,,0.0,0.0,0.0,1.0,19.0,1.0,39.0,0.0,353.11017462500604,,,,,,,,,353.10252662497805,353.44196837500203,354.2432639589533,354.2350584589876,354.2356354589574,354.2432639589533,354.2432639589533,354.2432639589533,,357.7021938749822,,,,,,,,,,,,,,,,,,,,,,,,,,,,,,left,1.0,3.4552590000093915,,,,,,sub-022,1,random_dot,118.6209719267599,
left,left,40.0,0.0,20.0,right,0.0,1.290331292024348,,speed,space,2.145245999970939,,,,,,0.0,0.0,0.0,1.0,20.0,0.0,40.0,0.0,357.70897066697944,,,,,,,,,357.7027037089574,357.7915940419771,358.58373399998527,358.57520074996864,358.5758596669766,358.58373399998527,358.58373399998527,358.58373399998527,,359.8758337919717,,,,,,,,,,,,,,,,,,,,,,,,,,,,,,right,0.0,1.290331292024348,,,,,,sub-022,1,random_dot,118.6209719267599,
right,right,41.0,1.0,20.0,left,0.0,3.759328749962151,,speed,space,2.145245999970939,,,,,,0.0,0.0,0.0,1.0,20.0,1.0,41.0,1.0,359.88442229200155,,,,,,,,,359.8762695000041,360.6751253340044,361.475975334004,361.4681784169516,361.468719958968,361.475975334004,361.475975334004,361.475975334004,,365.2425603339798,,,,,,,,,,,,,,,,,,,,,,,,,,,,,,left,0.0,3.759328749962151,,,,,,sub-022,1,random_dot,118.6209719267599,
right,right,42.0,0.0,21.0,left,0.0,5.332635166996624,,speed,space,2.145245999970939,,,,,,0.0,0.0,0.0,1.0,21.0,0.0,42.0,1.0,365.25045837496873,,,,,,,,,365.24295370897744,366.0428169170045,366.8453149590059,366.8354656249867,366.83623554196674,366.8453149590059,366.8453149590059,366.8453149590059,371.8241111249663,372.1866947090021,,,,,,,,,,,,,,,,,,,,,,,,,,,,,,left,0.0,5.332635166996624,,,,,,sub-022,1,random_dot,118.6209719267599,
left,left,43.0,1.0,21.0,left,1.0,1.405721209011972,,speed,space,2.145245999970939,,,,,,0.0,0.0,0.0,1.0,21.0,1.0,43.0,0.0,372.1934097500052,,,,,,,,,372.1870016249595,372.98534320900217,373.7772977089626,373.76915049995296,373.7697631249903,373.7772977089626,373.7772977089626,373.7772977089626,,375.1864472919842,,,,,,,,,,,,,,,,,,,,,,,,,,,,,,left,1.0,1.405721209011972,,,,,,sub-022,1,random_dot,118.6209719267599,
right,right,44.0,0.0,22.0,right,1.0,1.7191905420040712,,speed,space,2.145245999970939,,,,,,0.0,0.0,0.0,1.0,22.0,0.0,44.0,1.0,375.19157733395696,,,,,,,,,375.18696708395146,376.3752780839568,377.167692499992,377.15898249996826,377.15961995895486,377.167692499992,377.167692499992,377.167692499992,,378.89320679195225,,,,,,,,,,,,,,,,,,,,,,,,,,,,,,right,1.0,1.7191905420040712,,,,,,sub-022,1,random_dot,118.6209719267599,
left,left,45.0,1.0,22.0,left,1.0,0.9789086669916288,,speed,space,2.145245999970939,,,,,,0.0,0.0,0.0,1.0,22.0,1.0,45.0,0.0,378.90070704196114,,,,,,,,,378.8936976669938,380.09248283400666,380.8850334169693,380.8753621249925,380.8760130839655,380.8850334169693,380.8850334169693,380.8850334169693,,381.86995387496427,,,,,,,,,,,,,,,,,,,,,,,,,,,,,,left,1.0,0.9789086669916288,,,,,,sub-022,1,random_dot,118.6209719267599,
right,right,46.0,0.0,23.0,left,0.0,5.3490775839891285,,speed,space,2.145245999970939,,,,,,0.0,0.0,0.0,1.0,23.0,0.0,46.0,1.0,381.8763403749908,,,,,,,,,381.87051587499445,383.05849733395735,383.851161958999,383.84175762499217,383.8424507919699,383.851161958999,383.851161958999,383.851161958999,388.8357204169733,389.2039424589602,,,,,,,,,,,,,,,,,,,,,,,,,,,,,,left,0.0,5.3490775839891285,,,,,,sub-022,1,random_dot,118.6209719267599,
left,left,47.0,1.0,23.0,right,0.0,1.2436792500084266,,speed,space,2.145245999970939,,,,,,0.0,0.0,0.0,1.0,23.0,1.0,47.0,0.0,389.2137069589808,,,,,,,,,389.2046097089769,390.4029068339733,391.1946679590037,391.1862807499711,391.1869142499636,391.1946679590037,391.1946679590037,391.1946679590037,,392.4441240419983,,,,,,,,,,,,,,,,,,,,,,,,,,,,,,right,0.0,1.2436792500084266,,,,,,sub-022,1,random_dot,118.6209719267599,
right,right,48.0,0.0,24.0,right,1.0,2.7479284169967286,,speed,space,2.145245999970939,,,,,,0.0,0.0,0.0,1.0,24.0,0.0,48.0,1.0,392.4514042089577,,,,,,,,,392.44465187500464,392.79294879199006,393.5945465419791,393.58654433395714,393.5871492919978,393.5945465419791,393.5945465419791,393.5945465419791,,396.3441309589544,,,,,,,,,,,,,,,,,,,,,,,,,,,,,,right,1.0,2.7479284169967286,,,,,,sub-022,1,random_dot,118.6209719267599,
left,left,49.0,1.0,24.0,left,1.0,2.7062817090190947,,speed,space,2.145245999970939,,,,,,0.0,0.0,0.0,1.0,24.0,1.0,49.0,0.0,396.3526316249626,,,,,,,,,396.3446140419692,397.5428532499936,398.3357120839646,398.3263203749666,398.3268971669604,398.3357120839646,398.3357120839646,398.3357120839646,,401.0440364999813,,,,,,,,,,,,,,,,,,,,,,,,,,,,,,left,1.0,2.7062817090190947,,,,,,sub-022,1,random_dot,118.6209719267599,
left,left,50.0,0.0,25.0,left,1.0,4.585176459047943,,speed,space,2.145245999970939,,,,,,0.0,0.0,0.0,1.0,25.0,0.0,50.0,0.0,401.0529115839745,,,,,,,,,401.0444751249743,401.3932935000048,402.1952721249545,402.186663208995,402.1874057499808,402.1952721249545,402.1952721249545,402.1952721249545,,406.7877193749882,,,,,,,,,,,,,,,,,,,,,,,,,,,,,,left,1.0,4.585176459047943,,,,,,sub-022,1,random_dot,118.6209719267599,
right,right,51.0,1.0,25.0,left,0.0,5.170111542975064,,speed,space,2.145245999970939,,,,,,0.0,0.0,0.0,1.0,25.0,1.0,51.0,1.0,406.7965971249505,,,,,,,,,406.7882506249589,407.1362512919586,407.9279300839989,407.9202312089619,407.9207438749727,407.9279300839989,407.9279300839989,407.9279300839989,412.9089497919777,413.1054936669534,,,,,,,,,,,,,,,,,,,,,,,,,,,,,,left,0.0,5.170111542975064,,,,,,sub-022,1,random_dot,118.6209719267599,
right,right,52.0,0.0,26.0,left,0.0,5.059587542957161,,speed,space,2.145245999970939,,,,,,0.0,0.0,0.0,1.0,26.0,0.0,52.0,1.0,413.11487779195886,,,,,,,,,413.1062701669871,413.2033927919693,413.9956502089626,413.98726324999006,413.9878605839913,413.9956502089626,413.9956502089626,413.9956502089626,418.975612124952,419.0621392089524,,,,,,,,,,,,,,,,,,,,,,,,,,,,,,left,0.0,5.059587542957161,,,,,,sub-022,1,random_dot,118.6209719267599,
left,left,53.0,1.0,26.0,left,1.0,5.372007708996534,,speed,space,2.145245999970939,,,,,,0.0,0.0,0.0,1.0,26.0,1.0,53.0,0.0,419.0697434169706,,,,,,,,,419.0627304589725,419.4106548749842,420.2128214169643,420.2041960000061,420.2048297919682,420.2128214169643,420.2128214169643,420.2128214169643,425.1935993339866,425.5889607089921,,,,,,,,,,,,,,,,,,,,,,,,,,,,,,left,1.0,5.372007708996534,,,,,,sub-022,1,random_dot,118.6209719267599,
right,right,54.0,0.0,27.0,right,1.0,4.142015541961882,,speed,space,2.145245999970939,,,,,,0.0,0.0,0.0,1.0,27.0,0.0,54.0,1.0,425.5995421669795,,,,,,,,,425.5897312089801,426.38710537500447,427.179218833975,427.1711757089943,427.1717696669512,427.179218833975,427.179218833975,427.179218833975,,431.3281913339743,,,,,,,,,,,,,,,,,,,,,,,,,,,,,,right,1.0,4.142015541961882,,,,,,sub-022,1,random_dot,118.6209719267599,
left,left,55.0,1.0,27.0,left,1.0,4.695437500020489,,speed,space,2.145245999970939,,,,,,0.0,0.0,0.0,1.0,27.0,1.0,55.0,0.0,431.3369240419706,,,,,,,,,431.32864874997176,432.127725458995,432.9291283749626,432.921007625002,432.9216152500012,432.9291283749626,432.9291283749626,432.9291283749626,,437.6293706249562,,,,,,,,,,,,,,,,,,,,,,,,,,,,,,left,1.0,4.695437500020489,,,,,,sub-022,1,random_dot,118.6209719267599,
right,right,56.0,0.0,28.0,right,1.0,5.390894084004685,,speed,space,2.145245999970939,,,,,,0.0,0.0,0.0,1.0,28.0,0.0,56.0,1.0,437.6374261669698,,,,,,,,,437.62986741698114,438.4279068339965,439.23034987499705,439.2215477499994,439.2221806249581,439.23034987499705,439.23034987499705,439.23034987499705,444.2107249170076,444.6226511669811,,,,,,,,,,,,,,,,,,,,,,,,,,,,,,right,1.0,5.390894084004685,,,,,,sub-022,1,random_dot,118.6209719267599,
left,left,57.0,1.0,28.0,left,1.0,2.9003623760072514,,speed,space,2.145245999970939,,,,,,0.0,0.0,0.0,1.0,28.0,1.0,57.0,0.0,444.62894912500633,,,,,,,,,444.6232946669916,445.4214925419656,446.2133896669839,446.2051709590014,446.2057398749748,446.2133896669839,446.2133896669839,446.2133896669839,,449.12154587497935,,,,,,,,,,,,,,,,,,,,,,,,,,,,,,left,1.0,2.9003623760072514,,,,,,sub-022,1,random_dot,118.6209719267599,
left,left,58.0,0.0,29.0,left,1.0,3.921306000032928,,speed,space,2.145245999970939,,,,,,0.0,0.0,0.0,1.0,29.0,0.0,58.0,0.0,449.12757166696247,,,,,,,,,449.12178520899033,449.2116024589632,450.0042479590047,449.9945967089734,449.9951740420074,450.0042479590047,450.0042479590047,450.0042479590047,,453.92998924996937,,,,,,,,,,,,,,,,,,,,,,,,,,,,,,left,1.0,3.921306000032928,,,,,,sub-022,1,random_dot,118.6209719267599,
right,right,59.0,1.0,29.0,right,1.0,4.264477209013421,,speed,space,2.145245999970939,,,,,,0.0,0.0,0.0,1.0,29.0,1.0,59.0,1.0,453.9376167089795,,,,,,,,,453.930457459006,454.2782124169753,455.0712653339724,455.0612158749718,455.06187137495726,455.0712653339724,455.0712653339724,455.0712653339724,,459.3390522089903,,,,,,,,,,,,,,,,,,,,,,,,,,,,,,right,1.0,4.264477209013421,,,,,,sub-022,1,random_dot,118.6209719267599,
,,0.0,0.0,0.0,,,,,speed,space,2.145245999970939,,,,,,0.0,0.0,0.0,1.0,,,,,,,,,,,,,,,,,,,,,,,,,,,,,,,,,,,,,,,,,,,,,,,,,,,,,,,,,,,,,sub-022,1,random_dot,118.6209719267599,
left,left,0.0,0.0,0.0,left,1.0,1.0315459170378745,,accuracy,space,2.364228624966927,,,,,,0.0,1.0,1.0,0.0,0.0,0.0,0.0,0.0,461.7377511669765,,,,,,,,,461.73054116696585,461.8218660840066,462.61329295899486,462.6055523749674,462.6060849169735,462.61329295899486,462.61329295899486,462.61329295899486,,463.6459979999927,,,,,,,,,,,,,,,,,,,,,,,459.3507492499775,459.3566483749892,459.3566483749892,461.7235682089813,space,2.364228624966927,,left,1.0,1.0315459170378745,,,,,,sub-022,1,random_dot,118.6209719267599,
right,right,1.0,1.0,0.0,right,1.0,4.367936833994463,,accuracy,space,2.364228624966927,,,,,,0.0,1.0,1.0,0.0,0.0,1.0,1.0,1.0,463.6551338749705,,,,,,,,,463.64624795899726,464.8450742089772,465.63862799998606,465.6293143339572,465.63004883396206,465.63862799998606,465.63862799998606,465.63862799998606,,470.0143436669605,,,,,,,,,,,,,,,,,,,,,,,,,,,,,,right,1.0,4.367936833994463,,,,,,sub-022,1,random_dot,118.6209719267599,
right,right,2.0,0.0,1.0,right,1.0,4.418422625982203,,accuracy,space,2.364228624966927,,,,,,0.0,1.0,1.0,0.0,1.0,0.0,2.0,1.0,470.0214814170031,,,,,,,,,470.0147611669963,470.81245074997423,471.61479308397975,471.6060990419937,471.60671145899687,471.61479308397975,471.61479308397975,471.61479308397975,,476.0402916249586,,,,,,,,,,,,,,,,,,,,,,,,,,,,,,right,1.0,4.418422625982203,,,,,,sub-022,1,random_dot,118.6209719267599,
left,left,3.0,1.0,1.0,left,1.0,4.9640790009871125,,accuracy,space,2.364228624966927,,,,,,0.0,1.0,1.0,0.0,1.0,1.0,3.0,0.0,476.0488382089534,,,,,,,,,476.0407799999812,476.38933220895706,477.18118166696513,477.1729467919795,477.1735285839532,477.18118166696513,477.18118166696513,477.18118166696513,482.1658277499955,482.1575334169902,,,,,,,,,,,,,,,,,,,,,,,,,,,,,,left,1.0,4.9640790009871125,,,,,,sub-022,1,random_dot,118.6209719267599,
right,right,4.0,0.0,2.0,left,0.0,5.946204584033694,,accuracy,space,2.364228624966927,,,,,,0.0,1.0,1.0,0.0,2.0,0.0,4.0,1.0,482.1658277499955,,,,,,,,,482.158049708989,482.95631387498,483.74856233398896,483.73992820899,483.74054429196985,483.74856233398896,483.74856233398896,483.74856233398896,488.7279877499677,489.6971736669657,,,,,,,,,,,,,,,,,,,,,,,,,,,,,,left,0.0,5.946204584033694,,,,,,sub-022,1,random_dot,118.6209719267599,
left,left,5.0,1.0,2.0,right,0.0,4.15869950101478,,accuracy,space,2.364228624966927,,,,,,0.0,1.0,1.0,0.0,2.0,1.0,5.0,0.0,489.7055914999801,,,,,,,,,489.6977018339676,490.04677404195536,490.838721291977,490.8301913339528,490.8308564169565,490.838721291977,490.838721291977,490.838721291977,,495.0076435839874,,,,,,,,,,,,,,,,,,,,,,,,,,,,,,right,0.0,4.15869950101478,,,,,,sub-022,1,random_dot,118.6209719267599,
right,right,6.0,0.0,3.0,left,0.0,5.367209624964744,,accuracy,space,2.364228624966927,,,,,,0.0,1.0,1.0,0.0,3.0,0.0,6.0,1.0,495.01544058398576,,,,,,,,,495.0080935839797,495.3566012089723,496.1491442089901,496.1403764999704,496.14106816699496,496.1491442089901,496.1491442089901,496.1491442089901,501.1287015840062,501.52471362496726,,,,,,,,,,,,,,,,,,,,,,,,,,,,,,left,0.0,5.367209624964744,,,,,,sub-022,1,random_dot,118.6209719267599,
left,left,7.0,1.0,3.0,left,1.0,6.067837917013094,,accuracy,space,2.364228624966927,,,,,,0.0,1.0,1.0,0.0,3.0,1.0,7.0,0.0,501.5340025419719,,,,,,,,,501.5252619169769,502.7136088749976,503.5062899169861,503.49677854200127,503.49738479196094,503.5062899169861,503.5062899169861,503.5062899169861,508.4902733339695,509.5825186249567,,,,,,,,,,,,,,,,,,,,,,,,,,,,,,left,1.0,6.067837917013094,,,,,,sub-022,1,random_dot,118.6209719267599,
left,left,8.0,0.0,4.0,left,1.0,5.597696958982851,,accuracy,space,2.364228624966927,,,,,,0.0,1.0,1.0,0.0,4.0,0.0,8.0,0.0,509.591665874992,,,,,,,,,509.583210458979,510.380527500005,511.1732915419853,511.16379054199206,511.1644562499714,511.1732915419853,511.1732915419853,511.1732915419853,516.1574312089942,516.775530291954,,,,,,,,,,,,,,,,,,,,,,,,,,,,,,left,1.0,5.597696958982851,,,,,,sub-022,1,random_dot,118.6209719267599,
right,right,9.0,1.0,4.0,right,1.0,5.37683470902266,,accuracy,space,2.364228624966927,,,,,,0.0,1.0,1.0,0.0,4.0,1.0,9.0,1.0,516.785353958956,,,,,,,,,516.77615112497,517.9742241670028,518.7667645000038,518.7579506249749,518.7585892499774,518.7667645000038,518.7667645000038,518.7667645000038,523.7462267919909,524.1485082919826,,,,,,,,,,,,,,,,,,,,,,,,,,,,,,right,1.0,5.37683470902266,,,,,,sub-022,1,random_dot,118.6209719267599,
left,left,10.0,0.0,5.0,right,0.0,5.324817625980359,,accuracy,space,2.364228624966927,,,,,,0.0,1.0,1.0,0.0,5.0,0.0,10.0,0.0,524.1564718749723,,,,,,,,,524.149118500005,525.3478707500035,526.1494560840074,526.1413093750016,526.1418522919994,526.1494560840074,526.1494560840074,526.1494560840074,531.1286156249698,531.4763762920047,,,,,,,,,,,,,,,,,,,,,,,,,,,,,,right,0.0,5.324817625980359,,,,,,sub-022,1,random_dot,118.6209719267599,
right,right,11.0,1.0,5.0,right,1.0,3.388438417983707,,accuracy,space,2.364228624966927,,,,,,0.0,1.0,1.0,0.0,5.0,1.0,11.0,1.0,531.4828930840013,,,,,,,,,531.4772315419978,531.5746488749865,532.3671789999935,532.3585107499966,532.3592857499607,532.3671789999935,532.3671789999935,532.3671789999935,,535.7590902919765,,,,,,,,,,,,,,,,,,,,,,,,,,,,,,right,1.0,3.388438417983707,,,,,,sub-022,1,random_dot,118.6209719267599,
left,left,12.0,0.0,6.0,right,0.0,5.269421250966843,,accuracy,space,2.364228624966927,,,,,,0.0,1.0,1.0,0.0,6.0,0.0,12.0,0.0,535.7673413750017,,,,,,,,,535.7596074589528,536.9489474169677,537.7501062499941,537.7418812499964,537.742489333963,537.7501062499941,537.7501062499941,537.7501062499941,542.730121999979,543.0266206669621,,,,,,,,,,,,,,,,,,,,,,,,,,,,,,right,0.0,5.269421250966843,,,,,,sub-022,1,random_dot,118.6209719267599,
right,right,13.0,1.0,6.0,right,1.0,5.531337000953499,,accuracy,space,2.364228624966927,,,,,,0.0,1.0,1.0,0.0,6.0,1.0,13.0,1.0,543.0359628750011,,,,,,,,,543.0272669999977,544.2252041669562,545.0171874589869,545.0085464589647,545.0091571669909,545.0171874589869,545.0171874589869,545.0171874589869,549.9976346250041,550.5501929169986,,,,,,,,,,,,,,,,,,,,,,,,,,,,,,right,1.0,5.531337000953499,,,,,,sub-022,1,random_dot,118.6209719267599,
right,right,14.0,0.0,7.0,right,1.0,5.369526874972507,,accuracy,space,2.364228624966927,,,,,,0.0,1.0,1.0,0.0,7.0,0.0,14.0,1.0,550.5582960419706,,,,,,,,,550.5508235419984,550.8988679999602,551.6912995000021,551.6826547499513,551.6833083749516,551.6912995000021,551.6912995000021,551.6912995000021,556.6755826249719,557.0675644169678,,,,,,,,,,,,,,,,,,,,,,,,,,,,,,right,1.0,5.369526874972507,,,,,,sub-022,1,random_dot,118.6209719267599,
left,left,15.0,1.0,7.0,right,0.0,5.351767126005143,,accuracy,space,2.364228624966927,,,,,,0.0,1.0,1.0,0.0,7.0,1.0,15.0,0.0,557.0921370419674,,,,,,,,,557.068165374978,557.8669249999803,558.6675757089979,558.6593554589781,558.6599407919566,558.6675757089979,558.6675757089979,558.6675757089979,563.6472316669533,564.0277122089756,,,,,,,,,,,,,,,,,,,,,,,,,,,,,,right,0.0,5.351767126005143,,,,,,sub-022,1,random_dot,118.6209719267599,
right,right,16.0,0.0,8.0,right,1.0,3.832834417989943,,accuracy,space,2.364228624966927,,,,,,0.0,1.0,1.0,0.0,8.0,0.0,16.0,1.0,564.0380287919543,,,,,,,,,564.0285888339859,564.8258233749657,565.617465458985,565.6095256249537,565.6100464169867,565.617465458985,565.617465458985,565.617465458985,,569.4604677919997,,,,,,,,,,,,,,,,,,,,,,,,,,,,,,right,1.0,3.832834417989943,,,,,,sub-022,1,random_dot,118.6209719267599,
left,left,17.0,1.0,8.0,right,0.0,5.288236125023104,,accuracy,space,2.364228624966927,,,,,,0.0,1.0,1.0,0.0,8.0,1.0,17.0,0.0,569.4691247500014,,,,,,,,,569.4610002499539,569.5594412089558,570.3508714999771,570.3429279999691,570.3434839589754,570.3508714999771,570.3508714999771,570.3508714999771,575.331594291958,575.6441516669584,,,,,,,,,,,,,,,,,,,,,,,,,,,,,,right,0.0,5.288236125023104,,,,,,sub-022,1,random_dot,118.6209719267599,
right,right,18.0,0.0,9.0,right,1.0,3.841086501022801,,accuracy,space,2.364228624966927,,,,,,0.0,1.0,1.0,0.0,9.0,0.0,18.0,1.0,575.6532244589762,,,,,,,,,575.6448078340036,576.4432574999519,577.2351429589908,577.2265334999538,577.2271285419702,577.2351429589908,577.2351429589908,577.2351429589908,,581.0841158749536,,,,,,,,,,,,,,,,,,,,,,,,,,,,,,right,1.0,3.841086501022801,,,,,,sub-022,1,random_dot,118.6209719267599,
left,left,19.0,1.0,9.0,left,1.0,5.678472209023312,,accuracy,space,2.364228624966927,,,,,,0.0,1.0,1.0,0.0,9.0,1.0,19.0,0.0,581.0921773339505,,,,,,,,,581.0846128749545,581.182487583952,581.9758728339802,581.9656300839852,581.9661842499627,581.9758728339802,581.9758728339802,581.9758728339802,586.9596810420044,587.6615935419686,,,,,,,,,,,,,,,,,,,,,,,,,,,,,,left,1.0,5.678472209023312,,,,,,sub-022,1,random_dot,118.6209719267599,
right,right,20.0,0.0,10.0,right,1.0,2.3260448339860886,,accuracy,space,2.364228624966927,,,,,,0.0,1.0,1.0,0.0,10.0,0.0,20.0,1.0,587.6724567919737,,,,,,,,,587.662367916957,588.8596694169682,589.6519509589998,589.6435853339499,589.6441899169586,589.6519509589998,589.6519509589998,589.6519509589998,,591.9825945000048,,,,,,,,,,,,,,,,,,,,,,,,,,,,,,right,1.0,2.3260448339860886,,,,,,sub-022,1,random_dot,118.6209719267599,
left,left,21.0,1.0,10.0,left,1.0,5.377437376009766,,accuracy,space,2.364228624966927,,,,,,0.0,1.0,1.0,0.0,10.0,1.0,21.0,0.0,591.9929211249691,,,,,,,,,591.9830448749708,592.0767050419818,592.8694262919598,592.8605334169697,592.8611724589719,592.8694262919598,592.8694262919598,592.8694262919598,597.8509869169793,598.2512274589972,,,,,,,,,,,,,,,,,,,,,,,,,,,,,,left,1.0,5.377437376009766,,,,,,sub-022,1,random_dot,118.6209719267599,
left,left,22.0,0.0,11.0,right,0.0,5.470785917947069,,accuracy,space,2.364228624966927,,,,,,0.0,1.0,1.0,0.0,11.0,0.0,22.0,0.0,598.2605960419751,,,,,,,,,598.2518019999843,599.4515476249508,600.2525156249758,600.2442945420044,600.2448702919646,600.2525156249758,600.2525156249758,600.2525156249758,605.2326457919553,605.7287685839692,,,,,,,,,,,,,,,,,,,,,,,,,,,,,,right,0.0,5.470785917947069,,,,,,sub-022,1,random_dot,118.6209719267599,
right,right,23.0,1.0,11.0,right,1.0,3.302582749980502,,accuracy,space,2.364228624966927,,,,,,0.0,1.0,1.0,0.0,11.0,1.0,23.0,1.0,605.7375247919699,,,,,,,,,605.7294494169764,606.9269679589779,607.7197662499966,607.7111216670019,607.7116935419617,607.7197662499966,607.7197662499966,607.7197662499966,,611.0290448339656,,,,,,,,,,,,,,,,,,,,,,,,,,,,,,right,1.0,3.302582749980502,,,,,,sub-022,1,random_dot,118.6209719267599,
right,right,24.0,0.0,12.0,left,0.0,3.217572876019404,,accuracy,space,2.364228624966927,,,,,,0.0,1.0,1.0,0.0,12.0,0.0,24.0,1.0,611.0383246249985,,,,,,,,,611.0296051249607,611.8275288749719,612.6190947919968,612.6112895419938,612.6118208749685,612.6190947919968,612.6190947919968,612.6190947919968,,615.8448678340064,,,,,,,,,,,,,,,,,,,,,,,,,,,,,,left,0.0,3.217572876019404,,,,,,sub-022,1,random_dot,118.6209719267599,
left,left,25.0,1.0,12.0,right,0.0,1.6311953749973327,,accuracy,space,2.364228624966927,,,,,,0.0,1.0,1.0,0.0,12.0,1.0,25.0,0.0,615.8519845419796,,,,,,,,,615.8453270839527,617.0341208750033,617.8275772919878,617.8174858340062,617.8180897089769,617.8275772919878,617.8275772919878,617.8275772919878,,619.4620823339792,,,,,,,,,,,,,,,,,,,,,,,,,,,,,,right,0.0,1.6311953749973327,,,,,,sub-022,1,random_dot,118.6209719267599,
right,right,26.0,0.0,13.0,right,1.0,2.92383066698676,,accuracy,space,2.364228624966927,,,,,,0.0,1.0,1.0,0.0,13.0,0.0,26.0,1.0,619.467196749989,,,,,,,,,619.4625714169815,619.5510529589956,620.3440220839693,620.3342214169679,620.3348109999788,620.3440220839693,620.3440220839693,620.3440220839693,,623.26923979196,,,,,,,,,,,,,,,,,,,,,,,,,,,,,,right,1.0,2.92383066698676,,,,,,sub-022,1,random_dot,118.6209719267599,
left,left,27.0,1.0,13.0,left,1.0,0.9455604589893484,,accuracy,space,2.364228624966927,,,,,,0.0,1.0,1.0,0.0,13.0,1.0,27.0,0.0,623.2776273749769,,,,,,,,,623.269681292004,623.3680658749654,624.1702217499842,624.161810791993,624.1624223339604,624.1702217499842,624.1702217499842,624.1702217499842,,625.1182631669799,,,,,,,,,,,,,,,,,,,,,,,,,,,,,,left,1.0,0.9455604589893484,,,,,,sub-022,1,random_dot,118.6209719267599,
left,left,28.0,0.0,14.0,right,0.0,5.3516583340242505,,accuracy,space,2.364228624966927,,,,,,0.0,1.0,1.0,0.0,14.0,0.0,28.0,0.0,625.128209708957,,,,,,,,,625.1184918750077,626.318216249987,627.1108796669869,627.1012729589711,627.1018406249932,627.1108796669869,627.1108796669869,627.1108796669869,632.0949828749872,632.4698947090073,,,,,,,,,,,,,,,,,,,,,,,,,,,,,,right,0.0,5.3516583340242505,,,,,,sub-022,1,random_dot,118.6209719267599,
right,right,29.0,1.0,14.0,left,0.0,1.629964375984855,,accuracy,space,2.364228624966927,,,,,,0.0,1.0,1.0,0.0,14.0,1.0,29.0,1.0,632.4772411249578,,,,,,,,,632.4704814169672,632.5685784589732,633.3701431249501,633.3618983339984,633.362509708968,633.3701431249501,633.3701431249501,633.3701431249501,,635.0030427500024,,,,,,,,,,,,,,,,,,,,,,,,,,,,,,left,0.0,1.629964375984855,,,,,,sub-022,1,random_dot,118.6209719267599,
right,right,30.0,0.0,15.0,left,0.0,1.8976826669531877,,accuracy,space,2.364228624966927,,,,,,0.0,1.0,1.0,0.0,15.0,0.0,30.0,1.0,635.0106016669888,,,,,,,,,635.0034754999797,635.1018030419946,635.8944995839847,635.8845867089694,635.8852383339545,635.8944995839847,635.8944995839847,635.8944995839847,,637.7957544169622,,,,,,,,,,,,,,,,,,,,,,,,,,,,,,left,0.0,1.8976826669531877,,,,,,sub-022,1,random_dot,118.6209719267599,
left,left,31.0,1.0,15.0,left,1.0,2.921269209007733,,accuracy,space,2.364228624966927,,,,,,0.0,1.0,1.0,0.0,15.0,1.0,31.0,0.0,637.8029920419795,,,,,,,,,637.7961964999558,638.986395541986,639.7871198749635,639.7791289999732,639.7797250419972,639.7871198749635,639.7871198749635,639.7871198749635,,642.7129111670074,,,,,,,,,,,,,,,,,,,,,,,,,,,,,,left,1.0,2.921269209007733,,,,,,sub-022,1,random_dot,118.6209719267599,
left,left,32.0,0.0,16.0,left,1.0,4.36542633397039,,accuracy,space,2.364228624966927,,,,,,0.0,1.0,1.0,0.0,16.0,0.0,32.0,0.0,642.721017083968,,,,,,,,,642.7134231670061,643.9022812089534,644.7043813749915,644.6957687090035,644.6963944589952,644.7043813749915,644.7043813749915,644.7043813749915,,649.0799032089999,,,,,,,,,,,,,,,,,,,,,,,,,,,,,,left,1.0,4.36542633397039,,,,,,sub-022,1,random_dot,118.6209719267599,
right,right,33.0,1.0,16.0,right,1.0,5.227708959020674,,accuracy,space,2.364228624966927,,,,,,0.0,1.0,1.0,0.0,16.0,1.0,33.0,1.0,649.0880153339822,,,,,,,,,649.0804101249669,649.869711834006,650.6617682499927,650.6525514170062,650.6531673339778,650.6617682499927,650.6617682499927,650.6617682499927,655.6458805839648,655.8976567089558,,,,,,,,,,,,,,,,,,,,,,,,,,,,,,right,1.0,5.227708959020674,,,,,,sub-022,1,random_dot,118.6209719267599,
right,right,34.0,0.0,17.0,right,1.0,5.381598750012927,,accuracy,space,2.364228624966927,,,,,,0.0,1.0,1.0,0.0,17.0,0.0,34.0,1.0,655.9069216669886,,,,,,,,,655.8984053339809,656.6961813749513,657.4879836670007,657.4795726249577,657.4801732919877,657.4879836670007,657.4879836670007,657.4879836670007,662.4676044999505,662.8809986669803,,,,,,,,,,,,,,,,,,,,,,,,,,,,,,right,1.0,5.381598750012927,,,,,,sub-022,1,random_dot,118.6209719267599,
left,left,35.0,1.0,17.0,left,1.0,5.629705834027845,,accuracy,space,2.364228624966927,,,,,,0.0,1.0,1.0,0.0,17.0,1.0,35.0,0.0,662.8903885419713,,,,,,,,,662.8816133749788,664.0795947919833,664.8715588339837,664.8631450840039,664.8637454590062,664.8715588339837,664.8715588339837,664.8715588339837,669.8514711249736,670.5044162090053,,,,,,,,,,,,,,,,,,,,,,,,,,,,,,left,1.0,5.629705834027845,,,,,,sub-022,1,random_dot,118.6209719267599,
left,left,36.0,0.0,18.0,left,1.0,1.6142161680036224,,accuracy,space,2.364228624966927,,,,,,0.0,1.0,1.0,0.0,18.0,0.0,36.0,0.0,670.5294822090073,,,,,,,,,670.5049927919754,670.6039099170011,671.4053603339707,671.396685124957,671.3973228340037,671.4053603339707,671.4053603339707,671.4053603339707,,673.0309155840077,,,,,,,,,,,,,,,,,,,,,,,,,,,,,,left,1.0,1.6142161680036224,,,,,,sub-022,1,random_dot,118.6209719267599,
right,right,37.0,1.0,18.0,left,0.0,3.0938908340176567,,accuracy,space,2.364228624966927,,,,,,0.0,1.0,1.0,0.0,18.0,1.0,37.0,1.0,673.0394349999842,,,,,,,,,673.0314330839901,673.1207077919971,673.9213758339756,673.9135397499776,673.9140462499927,673.9213758339756,673.9213758339756,673.9213758339756,,677.0215186249698,,,,,,,,,,,,,,,,,,,,,,,,,,,,,,left,0.0,3.0938908340176567,,,,,,sub-022,1,random_dot,118.6209719267599,
left,left,38.0,0.0,19.0,right,0.0,4.218476292036939,,accuracy,space,2.364228624966927,,,,,,0.0,1.0,1.0,0.0,19.0,0.0,38.0,0.0,677.0294343339629,,,,,,,,,677.0219855839969,677.8202354169916,678.6127355839708,678.6032039169804,678.6037673339597,678.6127355839708,678.6127355839708,678.6127355839708,,682.8377248339821,,,,,,,,,,,,,,,,,,,,,,,,,,,,,,right,0.0,4.218476292036939,,,,,,sub-022,1,random_dot,118.6209719267599,
right,right,39.0,1.0,19.0,right,1.0,5.344406333984807,,accuracy,space,2.364228624966927,,,,,,0.0,1.0,1.0,0.0,19.0,1.0,39.0,1.0,682.8455409589806,,,,,,,,,682.838231999951,684.0377315839869,684.8390460420051,684.830593333987,684.8312145840027,684.8390460420051,684.8390460420051,684.8390460420051,689.8195598339662,690.1884607090033,,,,,,,,,,,,,,,,,,,,,,,,,,,,,,right,1.0,5.344406333984807,,,,,,sub-022,1,random_dot,118.6209719267599,
right,right,40.0,0.0,20.0,right,1.0,2.644452416978311,,accuracy,space,2.364228624966927,,,,,,0.0,1.0,1.0,0.0,20.0,0.0,40.0,1.0,690.2135433749645,,,,,,,,,690.1891157089849,690.9882308749948,691.7898975419812,691.7809526249766,691.7816450839746,691.7898975419812,691.7898975419812,691.7898975419812,,694.4383257500012,,,,,,,,,,,,,,,,,,,,,,,,,,,,,,right,1.0,2.644452416978311,,,,,,sub-022,1,random_dot,118.6209719267599,
left,left,41.0,1.0,20.0,right,0.0,5.0621065010200255,,accuracy,space,2.364228624966927,,,,,,0.0,1.0,1.0,0.0,20.0,1.0,41.0,0.0,694.4458927089581,,,,,,,,,694.4387946249917,695.2373072089977,696.0296556249959,696.0208661250072,696.0215274170041,696.0296556249959,696.0296556249959,696.0296556249959,701.0139015839668,701.099221124954,,,,,,,,,,,,,,,,,,,,,,,,,,,,,,right,0.0,5.0621065010200255,,,,,,sub-022,1,random_dot,118.6209719267599,
left,left,42.0,0.0,21.0,left,1.0,3.545535042998381,,accuracy,space,2.364228624966927,,,,,,0.0,1.0,1.0,0.0,21.0,0.0,42.0,0.0,701.1089519999805,,,,,,,,,701.099887874967,701.197209874983,701.9892002919805,701.9810413749656,701.9815826249542,701.9892002919805,701.9892002919805,701.9892002919805,,705.5388245419599,,,,,,,,,,,,,,,,,,,,,,,,,,,,,,left,1.0,3.545535042998381,,,,,,sub-022,1,random_dot,118.6209719267599,
right,right,43.0,1.0,21.0,left,0.0,5.721486667986028,,accuracy,space,2.364228624966927,,,,,,0.0,1.0,1.0,0.0,21.0,1.0,43.0,1.0,705.547048916982,,,,,,,,,705.53928954195,706.7377479169518,707.5305312919663,707.5205893339589,707.5211553749978,707.5305312919663,707.5305312919663,707.5305312919663,712.5149316669558,713.2559224169818,,,,,,,,,,,,,,,,,,,,,,,,,,,,,,left,0.0,5.721486667986028,,,,,,sub-022,1,random_dot,118.6209719267599,
left,left,44.0,0.0,22.0,left,1.0,3.814556709025055,,accuracy,space,2.364228624966927,,,,,,0.0,1.0,1.0,0.0,22.0,0.0,44.0,0.0,713.2810137919732,,,,,,,,,713.2565038339817,714.0553819999914,714.8568659169832,714.8482602919685,714.848879291967,714.8568659169832,714.8568659169832,714.8568659169832,,718.6808779590065,,,,,,,,,,,,,,,,,,,,,,,,,,,,,,left,1.0,3.814556709025055,,,,,,sub-022,1,random_dot,118.6209719267599,
right,right,45.0,1.0,22.0,right,1.0,5.43164716695901,,accuracy,space,2.364228624966927,,,,,,0.0,1.0,1.0,0.0,22.0,1.0,45.0,1.0,718.6864459170029,,,,,,,,,718.6811365419999,719.0215764999739,719.8142365840031,719.8042234589811,719.8047686250065,719.8142365840031,719.8142365840031,719.8142365840031,724.7981272089528,725.2498479170026,,,,,,,,,,,,,,,,,,,,,,,,,,,,,,right,1.0,5.43164716695901,,,,,,sub-022,1,random_dot,118.6209719267599,
left,left,46.0,0.0,23.0,right,0.0,3.1360736250062478,,accuracy,space,2.364228624966927,,,,,,0.0,1.0,1.0,0.0,23.0,0.0,46.0,0.0,725.2585904999869,,,,,,,,,725.2504858339671,726.4483053339645,727.2402369169868,727.2322467920021,727.2327953339554,727.2402369169868,727.2402369169868,727.2402369169868,,730.3830899169552,,,,,,,,,,,,,,,,,,,,,,,,,,,,,,right,0.0,3.1360736250062478,,,,,,sub-022,1,random_dot,118.6209719267599,
right,right,47.0,1.0,23.0,left,0.0,6.584881333983503,,accuracy,space,2.364228624966927,,,,,,0.0,1.0,1.0,0.0,23.0,1.0,47.0,1.0,730.3907947089756,,,,,,,,,730.3836113750003,731.5723472499521,732.3648200419848,732.355565166974,732.356245959003,732.3648200419848,732.3648200419848,732.3648200419848,737.3485403339728,738.9568355419906,,,,,,,,,,,,,,,,,,,,,,,,,,,,,,left,0.0,6.584881333983503,,,,,,sub-022,1,random_dot,118.6209719267599,
right,right,48.0,0.0,24.0,left,0.0,3.699116334028077,,accuracy,space,2.364228624966927,,,,,,0.0,1.0,1.0,0.0,24.0,0.0,48.0,1.0,738.982121167006,,,,,,,,,738.9575481250067,739.305884499976,740.1075178339961,740.0992202499765,740.0997267919593,740.1075178339961,740.1075178339961,740.1075178339961,,743.8168591249851,,,,,,,,,,,,,,,,,,,,,,,,,,,,,,left,0.0,3.699116334028077,,,,,,sub-022,1,random_dot,118.6209719267599,
left,left,49.0,1.0,24.0,right,0.0,1.073784959036857,,accuracy,space,2.364228624966927,,,,,,0.0,1.0,1.0,0.0,24.0,1.0,49.0,0.0,743.8254614589969,,,,,,,,,743.8173581669689,744.1566574169556,744.957942167006,744.949465291982,744.9500694999588,744.957942167006,744.957942167006,744.957942167006,,746.0334161669598,,,,,,,,,,,,,,,,,,,,,,,,,,,,,,right,0.0,1.073784959036857,,,,,,sub-022,1,random_dot,118.6209719267599,
right,right,50.0,0.0,25.0,right,1.0,5.578304834023584,,accuracy,space,2.364228624966927,,,,,,0.0,1.0,1.0,0.0,25.0,0.0,50.0,1.0,746.0383861250011,,,,,,,,,746.0339159999858,746.1227681249729,746.9243859589915,746.9161987919942,746.9168112089974,746.9243859589915,746.9243859589915,746.9243859589915,751.9045109999715,752.5071522920043,,,,,,,,,,,,,,,,,,,,,,,,,,,,,,right,1.0,5.578304834023584,,,,,,sub-022,1,random_dot,118.6209719267599,
left,left,51.0,1.0,25.0,right,0.0,5.628652625950053,,accuracy,space,2.364228624966927,,,,,,0.0,1.0,1.0,0.0,25.0,1.0,51.0,0.0,752.5325445419876,,,,,,,,,752.5077515839948,753.3072084999876,754.1092417089967,754.099872833991,754.1005015840055,754.1092417089967,754.1092417089967,754.1092417089967,759.0883207499865,759.7412383749615,,,,,,,,,,,,,,,,,,,,,,,,,,,,,,right,0.0,5.628652625950053,,,,,,sub-022,1,random_dot,118.6209719267599,
left,left,52.0,0.0,26.0,left,1.0,2.5639211669913493,,accuracy,space,2.364228624966927,,,,,,0.0,1.0,1.0,0.0,26.0,0.0,52.0,0.0,759.7662092919927,,,,,,,,,759.741871709004,760.5398834589869,761.34218370897,761.3335577090038,761.3341512089828,761.34218370897,761.34218370897,761.34218370897,,763.9078652919852,,,,,,,,,,,,,,,,,,,,,,,,,,,,,,left,1.0,2.5639211669913493,,,,,,sub-022,1,random_dot,118.6209719267599,
right,right,53.0,1.0,26.0,left,0.0,3.4712331669870764,,accuracy,space,2.364228624966927,,,,,,0.0,1.0,1.0,0.0,26.0,1.0,53.0,1.0,763.9160703749512,,,,,,,,,763.9083513749647,765.1078307499993,765.9089205839555,765.9002597089857,765.9008705839515,765.9089205839555,765.9089205839555,765.9089205839555,,769.3838905839948,,,,,,,,,,,,,,,,,,,,,,,,,,,,,,left,0.0,3.4712331669870764,,,,,,sub-022,1,random_dot,118.6209719267599,
left,left,54.0,0.0,27.0,left,1.0,5.357668666983955,,accuracy,space,2.364228624966927,,,,,,0.0,1.0,1.0,0.0,27.0,0.0,54.0,0.0,769.3910299999989,,,,,,,,,769.3843318749568,769.722927625,770.5246329999645,770.5166542499792,770.5172902499908,770.5246329999645,770.5246329999645,770.5246329999645,775.5055374169606,775.8854132919805,,,,,,,,,,,,,,,,,,,,,,,,,,,,,,left,1.0,5.357668666983955,,,,,,sub-022,1,random_dot,118.6209719267599,
right,right,55.0,1.0,27.0,right,1.0,2.9164145010290667,,accuracy,space,2.364228624966927,,,,,,0.0,1.0,1.0,0.0,27.0,1.0,55.0,1.0,775.895087791956,,,,,,,,,775.8861750419601,776.6835634589661,777.4760873749619,777.46710179199,777.4677401669906,777.4760873749619,777.4760873749619,777.4760873749619,,780.4014148339629,,,,,,,,,,,,,,,,,,,,,,,,,,,,,,right,1.0,2.9164145010290667,,,,,,sub-022,1,random_dot,118.6209719267599,
left,left,56.0,0.0,28.0,left,1.0,5.465600751049351,,accuracy,space,2.364228624966927,,,,,,0.0,1.0,1.0,0.0,28.0,0.0,56.0,0.0,780.4089767090045,,,,,,,,,780.40194625,780.490490583994,781.2831932089757,781.273261958966,781.273835,781.2831932089757,781.2831932089757,781.2831932089757,786.2670084999991,786.7515822919668,,,,,,,,,,,,,,,,,,,,,,,,,,,,,,left,1.0,5.465600751049351,,,,,,sub-022,1,random_dot,118.6209719267599,
right,right,57.0,1.0,28.0,right,1.0,1.6113657499663532,,accuracy,space,2.364228624966927,,,,,,0.0,1.0,1.0,0.0,28.0,1.0,57.0,1.0,786.76019570895,,,,,,,,,786.7521139589953,787.09060424997,787.8833359589917,787.8740818749648,787.8747105840011,787.8833359589917,787.8833359589917,787.8833359589917,,789.501795166987,,,,,,,,,,,,,,,,,,,,,,,,,,,,,,right,1.0,1.6113657499663532,,,,,,sub-022,1,random_dot,118.6209719267599,
right,right,58.0,0.0,29.0,left,0.0,3.1150016249739565,,accuracy,space,2.364228624966927,,,,,,0.0,1.0,1.0,0.0,29.0,0.0,58.0,1.0,789.5088222500053,,,,,,,,,789.5023074169876,790.2908328750054,791.0929171249736,791.0846390840015,791.0852229589946,791.0929171249736,791.0929171249736,791.0929171249736,,794.2184080839506,,,,,,,,,,,,,,,,,,,,,,,,,,,,,,left,0.0,3.1150016249739565,,,,,,sub-022,1,random_dot,118.6209719267599,
left,left,59.0,1.0,29.0,left,1.0,5.384357083996292,,accuracy,space,2.364228624966927,,,,,,0.0,1.0,1.0,0.0,29.0,1.0,59.0,0.0,794.2263743339572,,,,,,,,,794.2188979589846,795.0067277089693,795.8004584999871,795.7902007499943,795.7907920419821,795.8004584999871,795.8004584999871,795.8004584999871,800.7842127089971,801.1917098339763,,,,,,,,,,,,,,,,,,,,,,,,,,,,,,left,1.0,5.384357083996292,,,,,,sub-022,1,random_dot,118.6209719267599,
,,1.0,1.0,0.0,,,,,accuracy,space,2.364228624966927,,,,,,0.0,1.0,1.0,0.0,,,,,,,,,,,,,,,,,,,,,,,,,,,,,,,,,,,,,,,,,,,,,,,,,,,,,,,,,,,,,sub-022,1,random_dot,118.6209719267599,
,,,,,,,,,,,,,,,,,,,,,,,,,,,,,,,,,,,,,,,,,,,,,,,,,,,,,,,,,,,,,,,,,,,,,,,,,,,,,801.196513791976,801.2038962089573,806.2014497499913,806.1908429169562,sub-022,1,random_dot,118.6209719267599,
