direction,corrAns,thisN,thisTrialN,thisRepN,respDots.keys,respDots.corr,respDots.rt,respDots.duration,randomInstr,respRandomInstr.keys,respRandomInstr.rt,respRandomInstr.duration,practice_trials.thisRepN,practice_trials.thisTrialN,practice_trials.thisN,practice_trials.thisIndex,instr_trials.thisRepN,instr_trials.thisTrialN,instr_trials.thisN,instr_trials.thisIndex,test_trials.thisRepN,test_trials.thisTrialN,test_trials.thisN,test_trials.thisIndex,thisRow.t,notes,general_instruction.started,textGeneralInstr.started,respGeneralInstr.started,general_instruction.stopped,respGeneralInstr.keys,respGeneralInstr.rt,respGeneralInstr.duration,ITI.started,fixcross.started,fixcross.stopped,ITI.stopped,dots.started,backgroundDots.started,stimulusDots.started,respDots.started,dots.stopped,practice_trials.respDots.keys,practice_trials.respDots.corr,practice_trials.respDots.rt,practice_trials.respDots.duration,feedback.started,textFeedback.started,feedback.stopped,textFeedback.stopped,info.started,textInfo.started,keyRespInfo.started,info.stopped,keyRespInfo.keys,keyRespInfo.rt,keyRespInfo.duration,test_instruction.started,textTestInstr.started,respTestInstr.started,test_instruction.stopped,respTestInstr.keys,respTestInstr.rt,respTestInstr.duration,random_instruction.started,textRandomInstr.started,respRandomInstr.started,random_instruction.stopped,instr_trials.respRandomInstr.keys,instr_trials.respRandomInstr.rt,instr_trials.respRandomInstr.duration,test_trials.respDots.keys,test_trials.respDots.corr,test_trials.respDots.rt,test_trials.respDots.duration,goodbye.started,textGoodbye.started,participant,session,expName,frameRate
,,,,,,,,,,,,,,,,,,,,,,,,,,,0.0030211,0.0097316,0.0097316,19.0153384,space,18.9779036,None,,,,,,,,,,,,,,,,,,,,,,,,,,,,,,,,,,,,,,,,,,,,,sub-182,1,random_dot,60.04743747
left,left,0,0,0,left,1,1.7654143,None,,,,,0,0,0,0,,,,,,,,,19.0368734,,,,,,,,,19.0316061,19.1312144,19.9424723,19.915139,19.9155875,19.9424723,19.9424723,19.9424723,21.7177915,left,1,1.7654143,None,21.7331954,21.7371054,22.2336285,,,,,,,,,,,,,,,,,,,,,,,,,,,,,sub-182,1,random_dot,60.04743747
right,right,1,1,0,right,1,2.2088454,None,,,,,0,1,1,1,,,,,,,,,22.2498916,,,,,,,,,22.2340671,23.0172441,23.8188365,23.8013852,23.801827,23.8188365,23.8188365,23.8188365,26.0375198,right,1,2.2088454,None,26.0376512,26.0525386,26.536662,26.5526129,,,,,,,,,,,,,,,,,,,,,,,,,,,,sub-182,1,random_dot,60.04743747
left,left,2,0,1,left,1,3.29268,None,,,,,1,0,2,0,,,,,,,,,26.5526129,,,,,,,,,26.537037,26.903084,27.7050167,27.6871072,27.6875964,27.7050167,27.7050167,27.7050167,31.00764,left,1,3.29268,None,31.0077756,31.0226639,31.5066696,31.5229283,,,,,,,,,,,,,,,,,,,,,,,,,,,,sub-182,1,random_dot,60.04743747
right,right,3,1,1,left,0,2.5428672,None,,,,,1,1,3,1,,,,,,,,,31.5229283,,,,,,,,,31.5071018,32.3233363,33.1249559,33.1074981,33.1081217,33.1249559,33.1249559,33.1249559,35.6775757,left,0,2.5428672,None,35.6921283,35.6955647,36.1928697,,,,,,,,,,,,,,,,,,,,,,,,,,,,,sub-182,1,random_dot,60.04743747
left,left,4,0,2,left,1,1.6230761,None,,,,,2,0,4,0,,,,,,,,,36.2094976,,,,,,,,,36.1932751,36.2929164,37.0946512,37.0771249,37.0775532,37.0946512,37.0946512,37.0946512,38.7294607,left,1,1.6230761,None,38.7348292,38.7446542,39.228646,39.2446553,,,,,,,,,,,,,,,,,,,,,,,,,,,,sub-182,1,random_dot,60.04743747
right,right,5,1,2,right,1,1.1512858,None,,,,,2,1,5,1,,,,,,,,,39.2446553,,,,,,,,,39.2290298,39.5947723,40.3968048,40.379462,40.3798994,40.3968048,40.3968048,40.3968048,41.5650672,right,1,1.1512858,None,41.565204,41.579841,42.0639012,42.080048,,,,,,,,,,,,,,,,,,,,,,,,,,,,sub-182,1,random_dot,60.04743747
right,right,6,0,3,left,0,2.7618835,None,,,,,3,0,6,1,,,,,,,,,42.080048,,,,,,,,,42.0643261,43.2642326,44.0660244,44.0486706,44.0491015,44.0660244,44.0660244,44.0660244,46.8351499,left,0,2.7618835,None,46.8406362,46.8502584,47.3342534,47.3503719,,,,,,,,,,,,,,,,,,,,,,,,,,,,sub-182,1,random_dot,60.04743747
left,left,7,1,3,left,1,1.424881,None,,,,,3,1,7,0,,,,,,,,,47.3503719,,,,,,,,,47.3346399,48.1507835,48.9526904,48.9350287,48.9354684,48.9526904,48.9526904,48.9526904,50.3875531,left,1,1.424881,None,50.3918364,50.4023866,50.8864552,50.9029248,,,,,,,,,,,,,,,,,,,,,,,,,,,,sub-182,1,random_dot,60.04743747
right,right,8,0,4,right,1,1.2135823,None,,,,,4,0,8,1,,,,,,,,,50.9029248,,,,,,,,,50.8868299,51.0028296,51.804694,51.7872811,51.7877035,51.804694,51.804694,51.804694,53.0226149,right,1,1.2135823,None,53.022746,53.037445,53.5217976,53.5381875,,,,,,,,,,,,,,,,,,,,,,,,,,,,sub-182,1,random_dot,60.04743747
left,left,9,1,4,left,1,1.1666051,None,,,,,4,1,9,0,,,,,,,,,53.5381875,,,,,,,,,53.5222098,54.7381147,55.5399707,55.5221568,55.5223672,55.5399707,55.5399707,55.5399707,56.7077512,left,1,1.1666051,None,56.7078145,56.7229122,57.2066801,57.2232509,,,,,,,,,,,,,,,,,,,,,,,,,,,,sub-182,1,random_dot,60.04743747
right,right,10,0,5,right,1,0.9089191,None,,,,,5,0,10,1,,,,,,,,,57.2232509,,,,,,,,,57.2068627,57.5575706,58.3591353,58.3415084,58.3419347,58.3591353,58.3591353,58.3591353,59.2769859,right,1,0.9089191,None,59.2771163,59.291736,59.7758732,59.792332,,,,,,,,,,,,,,,,,,,,,,,,,,,,sub-182,1,random_dot,60.04743747
left,left,11,1,5,left,1,0.8932341,None,,,,,5,1,11,0,,,,,,,,,59.792332,,,,,,,,,59.7762475,60.142425,60.9443236,60.9266128,60.9270728,60.9443236,60.9443236,60.9443236,61.8454306,left,1,0.8932341,None,61.8455613,61.8604644,62.344426,62.3608184,,,,,,,,,,,,,,,,,,,,,,,,,,,,sub-182,1,random_dot,60.04743747
right,right,12,0,6,right,1,1.0013727,None,,,,,6,0,12,1,,,,,,,,,62.3608184,,,,,,,,,62.3448502,63.1447223,63.946794,63.9289036,63.929345,63.946794,63.946794,63.946794,64.9642376,right,1,1.0013727,None,64.9643915,64.9793172,65.4630976,65.4796168,,,,,,,,,,,,,,,,,,,,,,,,,,,,sub-182,1,random_dot,60.04743747
left,left,13,1,6,left,1,1.0358622,None,,,,,6,1,13,0,,,,,,,,,65.4796168,,,,,,,,,65.4634691,66.2803056,67.0814702,67.0637133,67.0641124,67.0814702,67.0814702,67.0814702,68.1327583,left,1,1.0358622,None,68.1328691,68.1476514,68.6318559,68.647925,,,,,,,,,,,,,,,,,,,,,,,,,,,,sub-182,1,random_dot,60.04743747
left,left,14,0,7,left,1,1.1541255,None,,,,,7,0,14,0,,,,,,,,,68.647925,,,,,,,,,68.6321955,69.4324103,70.2342123,70.2161605,70.2165635,70.2342123,70.2342123,70.2342123,71.4020793,left,1,1.1541255,None,71.4022137,71.416809,71.9010839,71.9170634,,,,,,,,,,,,,,,,,,,,,,,,,,,,sub-182,1,random_dot,60.04743747
right,right,15,1,7,right,1,2.6087659,None,,,,,7,1,15,1,,,,,,,,,71.9170634,,,,,,,,,71.901483,72.0174841,72.8190488,72.8016634,72.8020896,72.8190488,72.8190488,72.8190488,75.4382424,right,1,2.6087659,None,75.4383796,75.4531261,75.9369302,75.9534886,,,,,,,,,,,,,,,,,,,,,,,,,,,,sub-182,1,random_dot,60.04743747
left,left,16,0,8,left,1,1.7218504,None,,,,,8,0,16,0,,,,,,,,,75.9534886,,,,,,,,,75.937307,76.7541525,77.5557039,77.5381644,77.5386218,77.5557039,77.5557039,77.5557039,79.2907883,left,1,1.7218504,None,79.2909224,79.305814,79.7898868,79.8058673,,,,,,,,,,,,,,,,,,,,,,,,,,,,sub-182,1,random_dot,60.04743747
right,right,17,1,8,right,1,1.356018,None,,,,,8,1,17,1,,,,,,,,,79.8058673,,,,,,,,,79.790262,80.5898088,81.391875,81.374077,81.3745799,81.391875,81.391875,81.391875,82.7598605,right,1,1.356018,None,82.7599949,82.7753299,83.2586205,83.2751342,,,,,,,,,,,,,,,,,,,,,,,,,,,,sub-182,1,random_dot,60.04743747
right,right,18,0,9,left,0,1.3768715,None,,,,,9,0,18,1,,,,,,,,,83.2751342,,,,,,,,,83.2590357,84.0588587,84.8608315,84.8433285,84.8437602,84.8608315,84.8608315,84.8608315,86.2453502,left,0,1.3768715,None,86.2503763,86.2607356,86.7445456,86.7607746,,,,,,,,,,,,,,,,,,,,,,,,,,,,sub-182,1,random_dot,60.04743747
left,left,19,1,9,left,1,1.1613007,None,,,,,9,1,19,0,,,,,,,,,86.7607746,,,,,,,,,86.7449233,87.945133,88.7465871,88.7290474,88.7294899,88.7465871,88.7465871,88.7465871,89.9147425,left,1,1.1613007,None,89.9200822,89.9294822,90.4132197,90.4297469,,,,,,,,,,,,,,,,,,,,,,,,,,,,sub-182,1,random_dot,60.04743747
,,,,,,,,,,,,,,,,,,,,,,,,,,,,,,,,,,,,,,,,,,,,,,,,,,,90.4133086,90.4297469,90.4297469,93.9828647,space,3.5490756,None,,,,,,,,,,,,,,,,,,,,,sub-182,1,random_dot,60.04743747
,,,,,,,,,,,,,,,,,,,,,,,,,,,,,,,,,,,,,,,,,,,,,,,,,,,,,,,,,,93.9829511,93.999352,93.999352,99.9038783,space,5.8998374,None,,,,,,,,,,,,,,sub-182,1,random_dot,60.04743747
right,right,0,0,0,right,1,1.9310069,None,speed,space,3.4960484,None,,,,,0,0,0,1,0,0,0,1,103.4724154,,,,,,,,,103.465758,104.6563362,105.4581795,105.4408588,105.4413059,105.4581795,105.4581795,105.4581795,107.3933067,,,,,,,,,,,,,,,,,,,,,,,99.9487789,99.9529758,99.9529758,103.4564131,space,3.4960484,None,right,1,1.9310069,None,,,sub-182,1,random_dot,60.04743747
left,left,1,1,0,left,1,1.0285061,None,speed,space,3.4960484,None,,,,,0,0,0,1,0,1,1,0,107.4084222,,,,,,,,,107.3937757,107.5085129,108.310467,108.2925192,108.2929486,108.310467,108.310467,108.310467,109.3447504,,,,,,,,,,,,,,,,,,,,,,,,,,,,,,left,1,1.0285061,None,,,sub-182,1,random_dot,60.04743747
left,left,2,0,1,right,0,2.9272266,None,speed,space,3.4960484,None,,,,,0,0,0,1,1,0,2,0,109.3597912,,,,,,,,,109.3452784,110.1602913,110.9618482,110.9446368,110.9450972,110.9618482,110.9618482,110.9618482,113.8979185,,,,,,,,,,,,,,,,,,,,,,,,,,,,,,right,0,2.9272266,None,,,sub-182,1,random_dot,60.04743747
right,right,3,1,1,right,1,3.9536958,None,speed,space,3.4960484,None,,,,,0,0,0,1,1,1,3,1,113.9129163,,,,,,,,,113.8984263,115.1136729,115.9152865,115.8979705,115.8984079,115.9152865,115.9152865,115.9152865,119.8851328,,,,,,,,,,,,,,,,,,,,,,,,,,,,,,right,1,3.9536958,None,,,sub-182,1,random_dot,60.04743747
left,left,4,0,2,left,1,0.8964022,None,speed,space,3.4960484,None,,,,,0,0,0,1,2,0,4,0,119.9003788,,,,,,,,,119.8856382,120.7006686,121.50236,121.4844014,121.4846178,121.50236,121.50236,121.50236,122.4035701,,,,,,,,,,,,,,,,,,,,,,,,,,,,,,left,1,0.8964022,None,,,sub-182,1,random_dot,60.04743747
right,right,5,1,2,right,1,3.0381954,None,speed,space,3.4960484,None,,,,,0,0,0,1,2,1,5,1,122.4187088,,,,,,,,,122.4041054,122.5189028,123.3205605,123.3030997,123.3035214,123.3205605,123.3205605,123.3205605,126.3734267,,,,,,,,,,,,,,,,,,,,,,,,,,,,,,right,1,3.0381954,None,,,sub-182,1,random_dot,60.04743747
right,right,6,0,3,left,0,1.8784381,None,speed,space,3.4960484,None,,,,,0,0,0,1,3,0,6,1,126.388007,,,,,,,,,126.373962,126.7384257,127.5403137,127.5226487,127.5230797,127.5403137,127.5403137,127.5403137,129.4254516,,,,,,,,,,,,,,,,,,,,,,,,,,,,,,left,0,1.8784381,None,,,sub-182,1,random_dot,60.04743747
left,left,7,1,3,left,1,1.1766445,None,speed,space,3.4960484,None,,,,,0,0,0,1,3,1,7,0,129.4400541,,,,,,,,,129.4259358,129.5400742,130.3421375,130.3242755,130.324748,130.3421375,130.3421375,130.3421375,131.5264154,,,,,,,,,,,,,,,,,,,,,,,,,,,,,,left,1,1.1766445,None,,,sub-182,1,random_dot,60.04743747
left,left,8,0,4,left,1,1.3115412,None,speed,space,3.4960484,None,,,,,0,0,0,1,4,0,8,0,131.5413174,,,,,,,,,131.5267322,132.3253678,133.1272471,133.1095254,133.1099613,133.1272471,133.1272471,133.1272471,134.445296,,,,,,,,,,,,,,,,,,,,,,,,,,,,,,left,1,1.3115412,None,,,sub-182,1,random_dot,60.04743747
right,right,9,1,4,right,1,1.4462861,None,speed,space,3.4960484,None,,,,,0,0,0,1,4,1,9,1,134.4603556,,,,,,,,,134.4458059,135.2611234,136.0625972,136.0452191,136.045674,136.0625972,136.0625972,136.0625972,137.5140741,,,,,,,,,,,,,,,,,,,,,,,,,,,,,,right,1,1.4462861,None,,,sub-182,1,random_dot,60.04743747
right,right,10,0,5,left,0,3.8679303,None,speed,space,3.4960484,None,,,,,0,0,0,1,5,0,10,1,137.5288905,,,,,,,,,137.5145517,137.8792178,138.6810154,138.6633988,138.6638502,138.6810154,138.6810154,138.6810154,142.5512085,,,,,,,,,,,,,,,,,,,,,,,,,,,,,,left,0,3.8679303,None,,,sub-182,1,random_dot,60.04743747
left,left,11,1,5,left,1,2.4812563,None,speed,space,3.4960484,None,,,,,0,0,0,1,5,1,11,0,142.5658776,,,,,,,,,142.5516772,142.6657514,143.4678193,143.4501163,143.4506046,143.4678193,143.4678193,143.4678193,145.9531163,,,,,,,,,,,,,,,,,,,,,,,,,,,,,,left,1,2.4812563,None,,,sub-182,1,random_dot,60.04743747
left,left,12,0,6,left,1,0.8279121,None,speed,space,3.4960484,None,,,,,0,0,0,1,6,0,12,0,145.96827,,,,,,,,,145.9536071,146.3185316,147.120527,147.1028072,147.1032995,147.120527,147.120527,147.120527,147.9546011,,,,,,,,,,,,,,,,,,,,,,,,,,,,,,left,1,0.8279121,None,,,sub-182,1,random_dot,60.04743747
right,right,13,1,6,right,1,0.6665105,None,speed,space,3.4960484,None,,,,,0,0,0,1,6,1,13,1,147.9696805,,,,,,,,,147.9550874,149.1702224,149.9723945,149.9545248,149.9549965,149.9723945,149.9723945,149.9723945,150.6563174,,,,,,,,,,,,,,,,,,,,,,,,,,,,,,right,1,0.6665105,None,,,sub-182,1,random_dot,60.04743747
right,right,14,0,7,right,1,1.0650664,None,speed,space,3.4960484,None,,,,,0,0,0,1,7,0,14,1,150.6716037,,,,,,,,,150.6568564,151.021505,151.823468,151.805814,151.8062594,151.823468,151.823468,151.823468,152.8912939,,,,,,,,,,,,,,,,,,,,,,,,,,,,,,right,1,1.0650664,None,,,sub-182,1,random_dot,60.04743747
left,left,15,1,7,left,1,0.7706547,None,speed,space,3.4960484,None,,,,,0,0,0,1,7,1,15,0,152.9061131,,,,,,,,,152.8917584,153.0063214,153.8081469,153.7906804,153.7911445,153.8081469,153.8081469,153.8081469,154.5927289,,,,,,,,,,,,,,,,,,,,,,,,,,,,,,left,1,0.7706547,None,,,sub-182,1,random_dot,60.04743747
right,right,16,0,8,left,0,1.4190238,None,speed,space,3.4960484,None,,,,,0,0,0,1,8,0,16,1,154.6076348,,,,,,,,,154.5932007,155.8084256,156.6099829,156.5926574,156.5930904,156.6099829,156.6099829,156.6099829,158.0451751,,,,,,,,,,,,,,,,,,,,,,,,,,,,,,left,0,1.4190238,None,,,sub-182,1,random_dot,60.04743747
left,left,17,1,8,left,1,0.8560946,None,speed,space,3.4960484,None,,,,,0,0,0,1,8,1,17,0,158.0597201,,,,,,,,,158.0456795,159.2607115,160.0626546,160.0450229,160.0455402,160.0626546,160.0626546,160.0626546,160.9306623,,,,,,,,,,,,,,,,,,,,,,,,,,,,,,left,1,0.8560946,None,,,sub-182,1,random_dot,60.04743747
left,left,18,0,9,left,1,1.6914504,None,speed,space,3.4960484,None,,,,,0,0,0,1,9,0,18,0,160.9452864,,,,,,,,,160.9311614,161.7457148,162.5475106,162.5300822,162.5305526,162.5475106,162.5475106,162.5475106,164.249215,,,,,,,,,,,,,,,,,,,,,,,,,,,,,,left,1,1.6914504,None,,,sub-182,1,random_dot,60.04743747
right,right,19,1,9,right,1,0.8127584,None,speed,space,3.4960484,None,,,,,0,0,0,1,9,1,19,1,164.2643059,,,,,,,,,164.2497151,164.3642873,165.1662053,165.1483181,165.1487431,165.1662053,165.1662053,165.1662053,165.9831212,,,,,,,,,,,,,,,,,,,,,,,,,,,,,,right,1,0.8127584,None,,,sub-182,1,random_dot,60.04743747
right,right,20,0,10,left,0,1.9281211,None,speed,space,3.4960484,None,,,,,0,0,0,1,10,0,20,1,165.9981969,,,,,,,,,165.9833586,166.0982146,166.900467,166.8830142,166.8834855,166.900467,166.900467,166.900467,168.8355698,,,,,,,,,,,,,,,,,,,,,,,,,,,,,,left,0,1.9281211,None,,,sub-182,1,random_dot,60.04743747
left,left,21,1,10,left,1,0.6522389,None,speed,space,3.4960484,None,,,,,0,0,0,1,10,1,21,0,168.8506312,,,,,,,,,168.8361372,170.0348798,170.8365819,170.8191351,170.819634,170.8365819,170.8365819,170.8365819,171.50404,,,,,,,,,,,,,,,,,,,,,,,,,,,,,,left,1,0.6522389,None,,,sub-182,1,random_dot,60.04743747
left,left,22,0,11,left,1,2.3177609,None,speed,space,3.4960484,None,,,,,0,0,0,1,11,0,22,0,171.5189496,,,,,,,,,171.5045232,171.8694303,172.6710218,172.6536083,172.6540481,172.6710218,172.6710218,172.6710218,175.0064414,,,,,,,,,,,,,,,,,,,,,,,,,,,,,,left,1,2.3177609,None,,,sub-182,1,random_dot,60.04743747
right,right,23,1,11,right,1,1.2855086,None,speed,space,3.4960484,None,,,,,0,0,0,1,11,1,23,1,175.0213917,,,,,,,,,175.0069127,175.3718841,176.1736434,176.1559226,176.1563788,176.1736434,176.1736434,176.1736434,177.4751672,,,,,,,,,,,,,,,,,,,,,,,,,,,,,,right,1,1.2855086,None,,,sub-182,1,random_dot,60.04743747
right,right,24,0,12,right,1,0.956779,None,speed,space,3.4960484,None,,,,,0,0,0,1,12,0,24,1,177.4901124,,,,,,,,,177.4756877,177.5899784,178.3917085,178.373931,178.3743618,178.3917085,178.3917085,178.3917085,179.3597167,,,,,,,,,,,,,,,,,,,,,,,,,,,,,,right,1,0.956779,None,,,sub-182,1,random_dot,60.04743747
left,left,25,1,12,left,1,0.632376,None,speed,space,3.4960484,None,,,,,0,0,0,1,12,1,25,0,179.3745683,,,,,,,,,179.3602051,179.7248629,180.5266978,180.5091023,180.5095758,180.5266978,180.5266978,180.5266978,181.161017,,,,,,,,,,,,,,,,,,,,,,,,,,,,,,left,1,0.632376,None,,,sub-182,1,random_dot,60.04743747
left,left,26,0,13,left,1,0.740859,None,speed,space,3.4960484,None,,,,,0,0,0,1,13,0,26,0,181.1758824,,,,,,,,,181.1615099,181.9763886,182.7781575,182.76027,182.760709,182.7781575,182.7781575,182.7781575,183.5292758,,,,,,,,,,,,,,,,,,,,,,,,,,,,,,left,1,0.740859,None,,,sub-182,1,random_dot,60.04743747
right,right,27,1,13,right,1,0.5510311,None,speed,space,3.4960484,None,,,,,0,0,0,1,13,1,27,1,183.5441251,,,,,,,,,183.5297678,184.3447182,185.1464553,185.1286687,185.1290943,185.1464553,185.1464553,185.1464553,185.7130729,,,,,,,,,,,,,,,,,,,,,,,,,,,,,,right,1,0.5510311,None,,,sub-182,1,random_dot,60.04743747
right,right,28,0,14,left,0,0.5986286,None,speed,space,3.4960484,None,,,,,0,0,0,1,14,0,28,1,185.7281808,,,,,,,,,185.7132971,185.8288724,186.6308232,186.6132836,186.6136824,186.6308232,186.6308232,186.6308232,187.2313084,,,,,,,,,,,,,,,,,,,,,,,,,,,,,,left,0,0.5986286,None,,,sub-182,1,random_dot,60.04743747
left,left,29,1,14,left,1,0.6967465,None,speed,space,3.4960484,None,,,,,0,0,0,1,14,1,29,0,187.2463933,,,,,,,,,187.2317799,188.4308867,189.2324404,189.2150413,189.2155266,189.2324404,189.2324404,189.2324404,189.9333663,,,,,,,,,,,,,,,,,,,,,,,,,,,,,,left,1,0.6967465,None,,,sub-182,1,random_dot,60.04743747
left,left,30,0,15,left,1,0.6541595,None,speed,space,3.4960484,None,,,,,0,0,0,1,15,0,30,0,189.9485874,,,,,,,,,189.933864,191.1324765,191.9342429,191.9166681,191.9170945,191.9342429,191.9342429,191.9342429,192.6020585,,,,,,,,,,,,,,,,,,,,,,,,,,,,,,left,1,0.6541595,None,,,sub-182,1,random_dot,60.04743747
right,right,31,1,15,right,1,0.5603379,None,speed,space,3.4960484,None,,,,,0,0,0,1,15,1,31,1,192.6170146,,,,,,,,,192.6025378,192.9672831,193.7688181,193.751585,193.7520546,193.7688181,193.7688181,193.7688181,194.3360594,,,,,,,,,,,,,,,,,,,,,,,,,,,,,,right,1,0.5603379,None,,,sub-182,1,random_dot,60.04743747
left,left,32,0,16,left,1,0.6818956,None,speed,space,3.4960484,None,,,,,0,0,0,1,16,0,32,0,194.3515602,,,,,,,,,194.3365301,195.535433,196.3375093,196.3197926,196.3202339,196.3375093,196.3375093,196.3375093,197.0385847,,,,,,,,,,,,,,,,,,,,,,,,,,,,,,left,1,0.6818956,None,,,sub-182,1,random_dot,60.04743747
right,right,33,1,16,right,1,0.6527374,None,speed,space,3.4960484,None,,,,,0,0,0,1,16,1,33,1,197.053204,,,,,,,,,197.0390563,198.2542333,199.0564654,199.0380389,199.0385127,199.0564654,199.0564654,199.0564654,199.7243194,,,,,,,,,,,,,,,,,,,,,,,,,,,,,,right,1,0.6527374,None,,,sub-182,1,random_dot,60.04743747
right,right,34,0,17,left,0,1.3183074,None,speed,space,3.4960484,None,,,,,0,0,0,1,17,0,34,1,199.7384439,,,,,,,,,199.724866,200.088806,200.8907353,200.8730736,200.8736537,200.8907353,200.8907353,200.8907353,202.2256197,,,,,,,,,,,,,,,,,,,,,,,,,,,,,,left,0,1.3183074,None,,,sub-182,1,random_dot,60.04743747
left,left,35,1,17,left,1,0.8773555,None,speed,space,3.4960484,None,,,,,0,0,0,1,17,1,35,0,202.2402937,,,,,,,,,202.2261722,203.4408832,204.2428015,204.2254609,204.2259564,204.2428015,204.2428015,204.2428015,205.1272967,,,,,,,,,,,,,,,,,,,,,,,,,,,,,,left,1,0.8773555,None,,,sub-182,1,random_dot,60.04743747
right,right,36,0,18,right,1,0.5853611,None,speed,space,3.4960484,None,,,,,0,0,0,1,18,0,36,1,205.1422409,,,,,,,,,205.127796,205.2421552,206.0442467,206.026469,206.0269159,206.0442467,206.0442467,206.0442467,206.6450178,,,,,,,,,,,,,,,,,,,,,,,,,,,,,,right,1,0.5853611,None,,,sub-182,1,random_dot,60.04743747
left,left,37,1,18,left,1,0.6580678,None,speed,space,3.4960484,None,,,,,0,0,0,1,18,1,37,0,206.6601,,,,,,,,,206.6455666,206.7598029,207.5619127,207.5439082,207.544342,207.5619127,207.5619127,207.5619127,208.2294541,,,,,,,,,,,,,,,,,,,,,,,,,,,,,,left,1,0.6580678,None,,,sub-182,1,random_dot,60.04743747
left,left,38,0,19,right,0,1.2928562,None,speed,space,3.4960484,None,,,,,0,0,0,1,19,0,38,0,208.2444173,,,,,,,,,208.2299834,209.0448301,209.8468795,209.8291816,209.8298246,209.8468795,209.8468795,209.8468795,211.1480507,,,,,,,,,,,,,,,,,,,,,,,,,,,,,,right,0,1.2928562,None,,,sub-182,1,random_dot,60.04743747
right,right,39,1,19,right,1,0.7243953,None,speed,space,3.4960484,None,,,,,0,0,0,1,19,1,39,1,211.1632466,,,,,,,,,211.1485475,211.9635203,212.7653586,212.7478195,212.7482835,212.7653586,212.7653586,212.7653586,213.4995121,,,,,,,,,,,,,,,,,,,,,,,,,,,,,,right,1,0.7243953,None,,,sub-182,1,random_dot,60.04743747
left,left,40,0,20,left,1,0.7635497,None,speed,space,3.4960484,None,,,,,0,0,0,1,20,0,40,0,213.5147067,,,,,,,,,213.5000165,214.3152754,215.1171038,215.0992884,215.0997509,215.1171038,215.1171038,215.1171038,215.8846704,,,,,,,,,,,,,,,,,,,,,,,,,,,,,,left,1,0.7635497,None,,,sub-182,1,random_dot,60.04743747
right,right,41,1,20,right,1,1.1486449,None,speed,space,3.4960484,None,,,,,0,0,0,1,20,1,41,1,215.8997075,,,,,,,,,215.885185,216.2497643,217.0518109,217.0340287,217.0344958,217.0518109,217.0518109,217.0518109,218.2027747,,,,,,,,,,,,,,,,,,,,,,,,,,,,,,right,1,1.1486449,None,,,sub-182,1,random_dot,60.04743747
left,left,42,0,21,right,0,1.4098401,None,speed,space,3.4960484,None,,,,,0,0,0,1,21,0,42,0,218.2177322,,,,,,,,,218.2033418,218.3179392,219.1197029,219.1022652,219.1026982,219.1197029,219.1197029,219.1197029,220.5376214,,,,,,,,,,,,,,,,,,,,,,,,,,,,,,right,0,1.4098401,None,,,sub-182,1,random_dot,60.04743747
right,right,43,1,21,right,1,2.2057661,None,speed,space,3.4960484,None,,,,,0,0,0,1,21,1,43,1,220.5528659,,,,,,,,,220.5380963,220.9028682,221.7047539,221.6874494,221.6878713,221.7047539,221.7047539,221.7047539,223.9238156,,,,,,,,,,,,,,,,,,,,,,,,,,,,,,right,1,2.2057661,None,,,sub-182,1,random_dot,60.04743747
left,left,44,0,22,left,1,1.7088424,None,speed,space,3.4960484,None,,,,,0,0,0,1,22,0,44,0,223.9384818,,,,,,,,,223.9243737,224.7392243,225.5409163,225.5231507,225.5236127,225.5409163,225.5409163,225.5409163,227.2590949,,,,,,,,,,,,,,,,,,,,,,,,,,,,,,left,1,1.7088424,None,,,sub-182,1,random_dot,60.04743747
right,right,45,1,22,right,1,4.4939619,None,speed,space,3.4960484,None,,,,,0,0,0,1,22,1,45,1,227.2742707,,,,,,,,,227.2596076,227.374037,228.1761212,228.1585761,228.1590004,228.1761212,228.1761212,228.1761212,232.6798884,,,,,,,,,,,,,,,,,,,,,,,,,,,,,,right,1,4.4939619,None,,,sub-182,1,random_dot,60.04743747
right,right,46,0,23,right,1,1.1336032,None,speed,space,3.4960484,None,,,,,0,0,0,1,23,0,46,1,232.6946568,,,,,,,,,232.6804003,232.794466,233.5962386,233.5788515,233.5792796,233.5962386,233.5962386,233.5962386,234.730881,,,,,,,,,,,,,,,,,,,,,,,,,,,,,,right,1,1.1336032,None,,,sub-182,1,random_dot,60.04743747
left,left,47,1,23,left,1,0.8015561,None,speed,space,3.4960484,None,,,,,0,0,0,1,23,1,47,0,234.7459945,,,,,,,,,234.7314067,235.5465862,236.3484543,236.3306056,236.3310321,236.3484543,236.3484543,236.3484543,237.1661021,,,,,,,,,,,,,,,,,,,,,,,,,,,,,,left,1,0.8015561,None,,,sub-182,1,random_dot,60.04743747
left,left,48,0,24,left,1,0.8064762,None,speed,space,3.4960484,None,,,,,0,0,0,1,24,0,48,0,237.1808911,,,,,,,,,237.1666001,237.5311047,238.3331194,238.3155744,238.3159994,238.3331194,238.3331194,238.3331194,239.1507581,,,,,,,,,,,,,,,,,,,,,,,,,,,,,,left,1,0.8064762,None,,,sub-182,1,random_dot,60.04743747
right,right,49,1,24,right,1,0.7327458,None,speed,space,3.4960484,None,,,,,0,0,0,1,24,1,49,1,239.1656874,,,,,,,,,239.1512576,239.2655261,240.067326,240.0499712,240.0504269,240.067326,240.067326,240.067326,240.8184344,,,,,,,,,,,,,,,,,,,,,,,,,,,,,,right,1,0.7327458,None,,,sub-182,1,random_dot,60.04743747
right,right,50,0,25,left,0,3.094421,None,speed,space,3.4960484,None,,,,,0,0,0,1,25,0,50,1,240.8335543,,,,,,,,,240.8189614,240.9336194,241.7355325,241.7175109,241.7179918,241.7355325,241.7355325,241.7355325,244.8380432,,,,,,,,,,,,,,,,,,,,,,,,,,,,,,left,0,3.094421,None,,,sub-182,1,random_dot,60.04743747
left,left,51,1,25,left,1,0.8942525,None,speed,space,3.4960484,None,,,,,0,0,0,1,25,1,51,0,244.8529194,,,,,,,,,244.8385403,246.0537416,246.8553871,246.8379956,246.8384529,246.8553871,246.8553871,246.8553871,247.756637,,,,,,,,,,,,,,,,,,,,,,,,,,,,,,left,1,0.8942525,None,,,sub-182,1,random_dot,60.04743747
right,right,52,0,26,right,1,1.0162635,None,speed,space,3.4960484,None,,,,,0,0,0,1,26,0,52,1,247.7715856,,,,,,,,,247.757133,248.5718091,249.3737322,249.3561983,249.3566227,249.3737322,249.3737322,249.3737322,250.3917176,,,,,,,,,,,,,,,,,,,,,,,,,,,,,,right,1,1.0162635,None,,,sub-182,1,random_dot,60.04743747
left,left,53,1,26,left,1,0.930852,None,speed,space,3.4960484,None,,,,,0,0,0,1,26,1,53,0,250.4065907,,,,,,,,,250.3922214,250.7570386,251.5588609,251.5404121,251.5406264,251.5588609,251.5588609,251.5588609,252.4927557,,,,,,,,,,,,,,,,,,,,,,,,,,,,,,left,1,0.930852,None,,,sub-182,1,random_dot,60.04743747
right,right,54,0,27,left,0,4.6304855,None,speed,space,3.4960484,None,,,,,0,0,0,1,27,0,54,1,252.5082285,,,,,,,,,252.4931686,253.308412,254.1098347,254.0920561,254.092277,254.1098347,254.1098347,254.1098347,258.7476687,,,,,,,,,,,,,,,,,,,,,,,,,,,,,,left,0,4.6304855,None,,,sub-182,1,random_dot,60.04743747
left,left,55,1,27,left,1,2.9048587,None,speed,space,3.4960484,None,,,,,0,0,0,1,27,1,55,0,258.7626125,,,,,,,,,258.7481423,259.9633278,260.7651541,260.7477157,260.7482068,260.7651541,260.7651541,260.7651541,263.6844728,,,,,,,,,,,,,,,,,,,,,,,,,,,,,,left,1,2.9048587,None,,,sub-182,1,random_dot,60.04743747
left,left,56,0,28,left,1,1.0490855,None,speed,space,3.4960484,None,,,,,0,0,0,1,28,0,56,0,263.6992928,,,,,,,,,263.6849609,264.0492387,264.8513013,264.8334243,264.8339033,264.8513013,264.8513013,264.8513013,265.9189796,,,,,,,,,,,,,,,,,,,,,,,,,,,,,,left,1,1.0490855,None,,,sub-182,1,random_dot,60.04743747
right,right,57,1,28,right,1,0.8030726,None,speed,space,3.4960484,None,,,,,0,0,0,1,28,1,57,1,265.9337615,,,,,,,,,265.9195058,266.2841567,267.0854033,267.0678662,267.0680817,267.0854033,267.0854033,267.0854033,267.9030769,,,,,,,,,,,,,,,,,,,,,,,,,,,,,,right,1,0.8030726,None,,,sub-182,1,random_dot,60.04743747
left,left,58,0,29,left,1,4.7292549,None,speed,space,3.4960484,None,,,,,0,0,0,1,29,0,58,0,267.918138,,,,,,,,,267.9034124,268.7186669,269.5206765,269.5028263,269.5030601,269.5206765,269.5206765,269.5206765,274.2581023,,,,,,,,,,,,,,,,,,,,,,,,,,,,,,left,1,4.7292549,None,,,sub-182,1,random_dot,60.04743747
right,right,59,1,29,right,1,1.5944799,None,speed,space,3.4960484,None,,,,,0,0,0,1,29,1,59,1,274.2728342,,,,,,,,,274.2586406,274.6234383,275.4254022,275.4073769,275.4078105,275.4254022,275.4254022,275.4254022,277.0267398,,,,,,,,,,,,,,,,,,,,,,,,,,,,,,right,1,1.5944799,None,,,sub-182,1,random_dot,60.04743747
,,0,0,0,,,,,speed,space,3.4960484,None,,,,,0,0,0,1,,,,,,,,,,,,,,,,,,,,,,,,,,,,,,,,,,,,,,,,,,,,,,,,,,,,,,,,,,sub-182,1,random_dot,60.04743747
left,left,0,0,0,left,1,0.9404707,None,accuracy,space,2.7005379,None,,,,,0,1,1,0,0,0,0,0,279.7933025,,,,,,,,,279.7871915,280.5775124,281.3786889,281.3609196,281.3611752,281.3786889,281.3786889,281.3786889,282.3298635,,,,,,,,,,,,,,,,,,,,,,,277.0542951,277.0594823,277.0594823,279.7776227,space,2.7005379,None,left,1,0.9404707,None,,,sub-182,1,random_dot,60.04743747
right,right,1,1,0,right,1,0.9187235,None,accuracy,space,2.7005379,None,,,,,0,1,1,0,0,1,1,1,282.344937,,,,,,,,,282.3303561,283.5291981,284.3315468,284.3135424,284.313996,284.3315468,284.3315468,284.3315468,285.2653765,,,,,,,,,,,,,,,,,,,,,,,,,,,,,,right,1,0.9187235,None,,,sub-182,1,random_dot,60.04743747
right,right,2,0,1,right,1,1.1868745,None,accuracy,space,2.7005379,None,,,,,0,1,1,0,1,0,2,1,285.2802673,,,,,,,,,285.2659486,285.6309057,286.432294,286.4159826,286.4168811,286.432294,286.432294,286.432294,287.6336221,,,,,,,,,,,,,,,,,,,,,,,,,,,,,,right,1,1.1868745,None,,,sub-182,1,random_dot,60.04743747
left,left,3,1,1,left,1,1.070031,None,accuracy,space,2.7005379,None,,,,,0,1,1,0,1,1,3,0,287.6484804,,,,,,,,,287.6340678,287.7485704,288.5502927,288.53251,288.5327317,288.5502927,288.5502927,288.5502927,289.6357343,,,,,,,,,,,,,,,,,,,,,,,,,,,,,,left,1,1.070031,None,,,sub-182,1,random_dot,60.04743747
left,left,4,0,2,left,1,0.8977465,None,accuracy,space,2.7005379,None,,,,,0,1,1,0,2,0,4,0,289.650074,,,,,,,,,289.6362345,290.4507485,291.2527462,291.2348767,291.2353032,291.2527462,291.2527462,291.2527462,292.153698,,,,,,,,,,,,,,,,,,,,,,,,,,,,,,left,1,0.8977465,None,,,sub-182,1,random_dot,60.04743747
right,right,5,1,2,right,1,1.7181418,None,accuracy,space,2.7005379,None,,,,,0,1,1,0,2,1,5,1,292.1687119,,,,,,,,,292.1541749,293.3692972,294.1713749,294.1536277,294.1540557,294.1713749,294.1713749,294.1713749,295.90661,,,,,,,,,,,,,,,,,,,,,,,,,,,,,,right,1,1.7181418,None,,,sub-182,1,random_dot,60.04743747
left,left,6,0,3,left,1,1.9263811,None,accuracy,space,2.7005379,None,,,,,0,1,1,0,3,0,6,0,295.9210972,,,,,,,,,295.9071198,296.0212356,296.8233419,296.8054274,296.8059476,296.8233419,296.8233419,296.8233419,298.7584359,,,,,,,,,,,,,,,,,,,,,,,,,,,,,,left,1,1.9263811,None,,,sub-182,1,random_dot,60.04743747
right,right,7,1,3,right,1,0.8141539,None,accuracy,space,2.7005379,None,,,,,0,1,1,0,3,1,7,1,298.7730451,,,,,,,,,298.7589151,299.9742576,300.7757488,300.7581721,300.7586073,300.7757488,300.7757488,300.7757488,301.5935684,,,,,,,,,,,,,,,,,,,,,,,,,,,,,,right,1,0.8141539,None,,,sub-182,1,random_dot,60.04743747
left,left,8,0,4,left,1,0.6790227,None,accuracy,space,2.7005379,None,,,,,0,1,1,0,4,0,8,0,301.6083578,,,,,,,,,301.5940209,302.809225,303.6110265,303.5932118,303.5934818,303.6110265,303.6110265,303.6110265,304.2953952,,,,,,,,,,,,,,,,,,,,,,,,,,,,,,left,1,0.6790227,None,,,sub-182,1,random_dot,60.04743747
right,right,9,1,4,right,1,0.8437285,None,accuracy,space,2.7005379,None,,,,,0,1,1,0,4,1,9,1,304.3103504,,,,,,,,,304.2959435,305.4943701,306.2962967,306.2787999,306.2792241,306.2962967,306.2962967,306.2962967,307.1473462,,,,,,,,,,,,,,,,,,,,,,,,,,,,,,right,1,0.8437285,None,,,sub-182,1,random_dot,60.04743747
right,right,10,0,5,right,1,0.8929521,None,accuracy,space,2.7005379,None,,,,,0,1,1,0,5,0,10,1,307.1621429,,,,,,,,,307.1478078,308.3463424,309.1481519,309.1305348,309.1309881,309.1481519,309.1481519,309.1481519,310.0495166,,,,,,,,,,,,,,,,,,,,,,,,,,,,,,right,1,0.8929521,None,,,sub-182,1,random_dot,60.04743747
left,left,11,1,5,left,1,0.6742408,None,accuracy,space,2.7005379,None,,,,,0,1,1,0,5,1,11,0,310.064446,,,,,,,,,310.0500079,310.8652101,311.6668353,311.6490285,311.6495213,311.6668353,311.6668353,311.6668353,312.3511125,,,,,,,,,,,,,,,,,,,,,,,,,,,,,,left,1,0.6742408,None,,,sub-182,1,random_dot,60.04743747
right,right,12,0,6,right,1,2.0218436,None,accuracy,space,2.7005379,None,,,,,0,1,1,0,6,0,12,1,312.3656989,,,,,,,,,312.3515784,313.5668367,314.3686561,314.3507862,314.3513026,314.3686561,314.3686561,314.3686561,316.4043495,,,,,,,,,,,,,,,,,,,,,,,,,,,,,,right,1,2.0218436,None,,,sub-182,1,random_dot,60.04743747
left,left,13,1,6,left,1,0.9502726,None,accuracy,space,2.7005379,None,,,,,0,1,1,0,6,1,13,0,316.4186783,,,,,,,,,316.4048724,316.5188178,317.3207296,317.3030384,317.3034999,317.3207296,317.3207296,317.3207296,318.2885739,,,,,,,,,,,,,,,,,,,,,,,,,,,,,,left,1,0.9502726,None,,,sub-182,1,random_dot,60.04743747
left,left,14,0,7,left,1,0.945158,None,accuracy,space,2.7005379,None,,,,,0,1,1,0,7,0,14,0,318.3033605,,,,,,,,,318.2890517,318.6534196,319.4557388,319.4378453,319.4382994,319.4557388,319.4557388,319.4557388,320.4065721,,,,,,,,,,,,,,,,,,,,,,,,,,,,,,left,1,0.945158,None,,,sub-182,1,random_dot,60.04743747
right,right,15,1,7,right,1,0.6476957,None,accuracy,space,2.7005379,None,,,,,0,1,1,0,7,1,15,1,320.4215221,,,,,,,,,320.4070407,320.7718013,321.5734569,321.5553373,321.5555462,321.5734569,321.5734569,321.5734569,322.2243381,,,,,,,,,,,,,,,,,,,,,,,,,,,,,,right,1,0.6476957,None,,,sub-182,1,random_dot,60.04743747
right,right,16,0,8,right,1,0.9257305,None,accuracy,space,2.7005379,None,,,,,0,1,1,0,8,0,16,1,322.2391586,,,,,,,,,322.2248234,323.4233215,324.2251243,324.2075291,324.2080084,324.2251243,324.2251243,324.2251243,325.160079,,,,,,,,,,,,,,,,,,,,,,,,,,,,,,right,1,0.9257305,None,,,sub-182,1,random_dot,60.04743747
left,left,17,1,8,left,1,0.7530988,None,accuracy,space,2.7005379,None,,,,,0,1,1,0,8,1,17,0,325.1746636,,,,,,,,,325.1605444,325.9750028,326.7769601,326.7593042,326.7597456,326.7769601,326.7769601,326.7769601,327.5446717,,,,,,,,,,,,,,,,,,,,,,,,,,,,,,left,1,0.7530988,None,,,sub-182,1,random_dot,60.04743747
right,right,18,0,9,right,1,0.5889746,None,accuracy,space,2.7005379,None,,,,,0,1,1,0,9,0,18,1,327.5594546,,,,,,,,,327.54515,328.3603398,329.1620128,329.1442769,329.1447628,329.1620128,329.1620128,329.1620128,329.7630182,,,,,,,,,,,,,,,,,,,,,,,,,,,,,,right,1,0.5889746,None,,,sub-182,1,random_dot,60.04743747
left,left,19,1,9,left,1,0.6802539,None,accuracy,space,2.7005379,None,,,,,0,1,1,0,9,1,19,0,329.7780729,,,,,,,,,329.7635227,330.9785066,331.7804721,331.7629742,331.7634118,331.7804721,331.7804721,331.7804721,332.4646665,,,,,,,,,,,,,,,,,,,,,,,,,,,,,,left,1,0.6802539,None,,,sub-182,1,random_dot,60.04743747
right,right,20,0,10,right,1,0.7582953,None,accuracy,space,2.7005379,None,,,,,0,1,1,0,10,0,20,1,332.4795942,,,,,,,,,332.4651393,333.6805788,334.4823421,334.4646536,334.4652217,334.4823421,334.4823421,334.4823421,335.2501286,,,,,,,,,,,,,,,,,,,,,,,,,,,,,,right,1,0.7582953,None,,,sub-182,1,random_dot,60.04743747
left,left,21,1,10,left,1,0.664144,None,accuracy,space,2.7005379,None,,,,,0,1,1,0,10,1,21,0,335.2652114,,,,,,,,,335.2506753,336.0656425,336.8673109,336.8498077,336.8502997,336.8673109,336.8673109,336.8673109,337.5349803,,,,,,,,,,,,,,,,,,,,,,,,,,,,,,left,1,0.664144,None,,,sub-182,1,random_dot,60.04743747
right,right,22,0,11,right,1,1.454687,None,accuracy,space,2.7005379,None,,,,,0,1,1,0,11,0,22,1,337.5497216,,,,,,,,,337.5354709,338.733915,339.5357579,339.5183907,339.5188233,339.5357579,339.5357579,339.5357579,341.0037847,,,,,,,,,,,,,,,,,,,,,,,,,,,,,,right,1,1.454687,None,,,sub-182,1,random_dot,60.04743747
left,left,23,1,11,left,1,0.8194712,None,accuracy,space,2.7005379,None,,,,,0,1,1,0,11,1,23,0,341.0187638,,,,,,,,,341.004252,341.3689577,342.1710111,342.1534645,342.1539128,342.1710111,342.1710111,342.1710111,343.0056567,,,,,,,,,,,,,,,,,,,,,,,,,,,,,,left,1,0.8194712,None,,,sub-182,1,random_dot,60.04743747
left,left,24,0,12,left,1,2.7284332,None,accuracy,space,2.7005379,None,,,,,0,1,1,0,12,0,24,0,343.0204044,,,,,,,,,343.0061512,343.1203924,343.9223583,343.9046898,343.905131,343.9223583,343.9223583,343.9223583,346.6579454,,,,,,,,,,,,,,,,,,,,,,,,,,,,,,left,1,2.7284332,None,,,sub-182,1,random_dot,60.04743747
right,right,25,1,12,right,1,0.9456698,None,accuracy,space,2.7005379,None,,,,,0,1,1,0,12,1,25,1,346.6725806,,,,,,,,,346.6584327,347.4731061,348.275435,348.2574988,348.2579577,348.275435,348.275435,348.275435,349.2261477,,,,,,,,,,,,,,,,,,,,,,,,,,,,,,right,1,0.9456698,None,,,sub-182,1,random_dot,60.04743747
left,left,26,0,13,left,1,0.6771644,None,accuracy,space,2.7005379,None,,,,,0,1,1,0,13,0,26,0,349.241088,,,,,,,,,349.2266256,350.4423289,351.2440111,351.2264198,351.2268458,351.2440111,351.2440111,351.2440111,351.928147,,,,,,,,,,,,,,,,,,,,,,,,,,,,,,left,1,0.6771644,None,,,sub-182,1,random_dot,60.04743747
right,right,27,1,13,right,1,2.235521,None,accuracy,space,2.7005379,None,,,,,0,1,1,0,13,1,27,1,351.9432449,,,,,,,,,351.9286388,352.7435686,353.545265,353.5278063,353.5282845,353.545265,353.545265,353.545265,355.7974806,,,,,,,,,,,,,,,,,,,,,,,,,,,,,,right,1,2.235521,None,,,sub-182,1,random_dot,60.04743747
left,left,28,0,14,left,1,1.1265007,None,accuracy,space,2.7005379,None,,,,,0,1,1,0,14,0,28,0,355.8122569,,,,,,,,,355.7979479,355.9126456,356.7142583,356.696613,356.6970357,356.7142583,356.7142583,356.7142583,357.8490685,,,,,,,,,,,,,,,,,,,,,,,,,,,,,,left,1,1.1265007,None,,,sub-182,1,random_dot,60.04743747
right,right,29,1,14,left,0,0.9753764,None,accuracy,space,2.7005379,None,,,,,0,1,1,0,14,1,29,1,357.8637065,,,,,,,,,357.8496044,357.9639379,358.7656798,358.7483174,358.7488089,358.7656798,358.7656798,358.7656798,359.7503682,,,,,,,,,,,,,,,,,,,,,,,,,,,,,,left,0,0.9753764,None,,,sub-182,1,random_dot,60.04743747
left,left,30,0,15,left,1,1.1336573,None,accuracy,space,2.7005379,None,,,,,0,1,1,0,15,0,30,0,359.7653536,,,,,,,,,359.7508472,360.565834,361.3675756,361.3497523,361.3502098,361.3675756,361.3675756,361.3675756,362.5187809,,,,,,,,,,,,,,,,,,,,,,,,,,,,,,left,1,1.1336573,None,,,sub-182,1,random_dot,60.04743747
right,right,31,1,15,right,1,1.755024,None,accuracy,space,2.7005379,None,,,,,0,1,1,0,15,1,31,1,362.5337959,,,,,,,,,362.5192507,363.3344015,364.1360503,364.1183875,364.1188191,364.1360503,364.1360503,364.1360503,365.9044612,,,,,,,,,,,,,,,,,,,,,,,,,,,,,,right,1,1.755024,None,,,sub-182,1,random_dot,60.04743747
left,left,32,0,16,left,1,1.5190943,None,accuracy,space,2.7005379,None,,,,,0,1,1,0,16,0,32,0,365.9194842,,,,,,,,,365.9049728,366.7201187,367.5218979,367.504181,367.5046404,367.5218979,367.5218979,367.5218979,369.0564211,,,,,,,,,,,,,,,,,,,,,,,,,,,,,,left,1,1.5190943,None,,,sub-182,1,random_dot,60.04743747
right,right,33,1,16,right,1,1.5476675,None,accuracy,space,2.7005379,None,,,,,0,1,1,0,16,1,33,1,369.0716444,,,,,,,,,369.0568762,369.1715144,369.9733394,369.955783,369.9561954,369.9733394,369.9733394,369.9733394,371.5249276,,,,,,,,,,,,,,,,,,,,,,,,,,,,,,right,1,1.5476675,None,,,sub-182,1,random_dot,60.04743747
left,left,34,0,17,right,0,1.5592698,None,accuracy,space,2.7005379,None,,,,,0,1,1,0,17,0,34,0,371.5397833,,,,,,,,,371.5254068,371.640198,372.4416295,372.4242281,372.424667,372.4416295,372.4416295,372.4416295,374.0101487,,,,,,,,,,,,,,,,,,,,,,,,,,,,,,right,0,1.5592698,None,,,sub-182,1,random_dot,60.04743747
right,right,35,1,17,right,1,2.8504903,None,accuracy,space,2.7005379,None,,,,,0,1,1,0,17,1,35,1,374.0252679,,,,,,,,,374.0106167,374.8086902,375.610687,375.593114,375.5935485,375.610687,375.610687,375.610687,378.4629964,,,,,,,,,,,,,,,,,,,,,,,,,,,,,,right,1,2.8504903,None,,,sub-182,1,random_dot,60.04743747
left,left,36,0,18,left,1,0.9707781,None,accuracy,space,2.7005379,None,,,,,0,1,1,0,18,0,36,0,378.4779044,,,,,,,,,378.4634666,379.2786199,380.0802763,380.0629537,380.0634105,380.0802763,380.0802763,380.0802763,381.0648589,,,,,,,,,,,,,,,,,,,,,,,,,,,,,,left,1,0.9707781,None,,,sub-182,1,random_dot,60.04743747
right,right,37,1,18,right,1,1.7788135,None,accuracy,space,2.7005379,None,,,,,0,1,1,0,18,1,37,1,381.0799747,,,,,,,,,381.0653116,382.2807144,383.0818495,383.064128,383.0643861,383.0818495,383.0818495,383.0818495,384.8669927,,,,,,,,,,,,,,,,,,,,,,,,,,,,,,right,1,1.7788135,None,,,sub-182,1,random_dot,60.04743747
left,left,38,0,19,left,1,1.096515,None,accuracy,space,2.7005379,None,,,,,0,1,1,0,19,0,38,0,384.8822484,,,,,,,,,384.8672325,385.6823261,386.4845257,386.4668036,386.4671997,386.4845257,386.4845257,386.4845257,387.58592,,,,,,,,,,,,,,,,,,,,,,,,,,,,,,left,1,1.096515,None,,,sub-182,1,random_dot,60.04743747
right,right,39,1,19,right,1,1.4173625,None,accuracy,space,2.7005379,None,,,,,0,1,1,0,19,1,39,1,387.6011076,,,,,,,,,387.586394,388.8013975,389.6032923,389.5857951,389.5862505,389.6032923,389.6032923,389.6032923,391.0394893,,,,,,,,,,,,,,,,,,,,,,,,,,,,,,right,1,1.4173625,None,,,sub-182,1,random_dot,60.04743747
right,right,40,0,20,right,1,2.1753862,None,accuracy,space,2.7005379,None,,,,,0,1,1,0,20,0,40,1,391.0532516,,,,,,,,,391.0399715,391.4037945,392.2056033,392.1875512,392.1880129,392.2056033,392.2056033,392.2056033,394.3908026,,,,,,,,,,,,,,,,,,,,,,,,,,,,,,right,1,2.1753862,None,,,sub-182,1,random_dot,60.04743747
left,left,41,1,20,left,1,0.8920382,None,accuracy,space,2.7005379,None,,,,,0,1,1,0,20,1,41,0,394.4057102,,,,,,,,,394.391299,395.6064201,396.408481,396.3905838,396.3910167,396.408481,396.408481,396.408481,397.309271,,,,,,,,,,,,,,,,,,,,,,,,,,,,,,left,1,0.8920382,None,,,sub-182,1,random_dot,60.04743747
right,right,42,0,21,right,1,3.1939956,None,accuracy,space,2.7005379,None,,,,,0,1,1,0,21,0,42,1,397.3244283,,,,,,,,,397.309734,398.5253296,399.3268519,399.3094135,399.3098352,399.3268519,399.3268519,399.3268519,402.5294434,,,,,,,,,,,,,,,,,,,,,,,,,,,,,,right,1,3.1939956,None,,,sub-182,1,random_dot,60.04743747
left,left,43,1,21,left,1,0.7343855,None,accuracy,space,2.7005379,None,,,,,0,1,1,0,21,1,43,0,402.5445817,,,,,,,,,402.529927,402.6446445,403.446564,403.4286183,403.4290396,403.446564,403.446564,403.446564,404.1975345,,,,,,,,,,,,,,,,,,,,,,,,,,,,,,left,1,0.7343855,None,,,sub-182,1,random_dot,60.04743747
left,left,44,0,22,left,1,0.7662743,None,accuracy,space,2.7005379,None,,,,,0,1,1,0,22,0,44,0,404.2130031,,,,,,,,,404.1980664,404.5627444,405.3645241,405.3469395,405.3474378,405.3645241,405.3645241,405.3645241,406.1320853,,,,,,,,,,,,,,,,,,,,,,,,,,,,,,left,1,0.7662743,None,,,sub-182,1,random_dot,60.04743747
right,right,45,1,22,right,1,0.6023328,None,accuracy,space,2.7005379,None,,,,,0,1,1,0,22,1,45,1,406.1470928,,,,,,,,,406.1325455,406.2469539,407.0488337,407.0311243,407.031583,407.0488337,407.0488337,407.0488337,407.6667421,,,,,,,,,,,,,,,,,,,,,,,,,,,,,,right,1,0.6023328,None,,,sub-182,1,random_dot,60.04743747
left,left,46,0,23,left,1,1.0166491,None,accuracy,space,2.7005379,None,,,,,0,1,1,0,23,0,46,0,407.6812009,,,,,,,,,407.6672741,408.8821282,409.6841036,409.6665934,409.6670768,409.6841036,409.6841036,409.6841036,410.7186375,,,,,,,,,,,,,,,,,,,,,,,,,,,,,,left,1,1.0166491,None,,,sub-182,1,random_dot,60.04743747
right,right,47,1,23,right,1,0.5154654,None,accuracy,space,2.7005379,None,,,,,0,1,1,0,23,1,47,1,410.7341632,,,,,,,,,410.7191165,410.8334316,411.6355064,411.6179023,411.6183639,411.6355064,411.6355064,411.6355064,412.1696056,,,,,,,,,,,,,,,,,,,,,,,,,,,,,,right,1,0.5154654,None,,,sub-182,1,random_dot,60.04743747
left,left,48,0,24,left,1,1.0804215,None,accuracy,space,2.7005379,None,,,,,0,1,1,0,24,0,48,0,412.1847347,,,,,,,,,412.1701041,413.3685536,414.1703265,414.1528704,414.1533037,414.1703265,414.1703265,414.1703265,415.2548091,,,,,,,,,,,,,,,,,,,,,,,,,,,,,,left,1,1.0804215,None,,,sub-182,1,random_dot,60.04743747
right,right,49,1,24,right,1,0.8094184,None,accuracy,space,2.7005379,None,,,,,0,1,1,0,24,1,49,1,415.2696758,,,,,,,,,415.2552304,415.3699956,416.171998,416.1544308,416.1548821,416.171998,416.171998,416.171998,416.989533,,,,,,,,,,,,,,,,,,,,,,,,,,,,,,right,1,0.8094184,None,,,sub-182,1,random_dot,60.04743747
left,left,50,0,25,right,0,2.3037432,None,accuracy,space,2.7005379,None,,,,,0,1,1,0,25,0,50,0,417.0045714,,,,,,,,,416.9901531,418.2052229,419.0071853,418.9894372,418.9898687,419.0071853,419.0071853,419.0071853,421.326069,,,,,,,,,,,,,,,,,,,,,,,,,,,,,,right,0,2.3037432,None,,,sub-182,1,random_dot,60.04743747
right,right,51,1,25,right,1,1.2390364,None,accuracy,space,2.7005379,None,,,,,0,1,1,0,25,1,51,1,421.340617,,,,,,,,,421.3265412,421.4409339,422.2427928,422.2251017,422.2255469,422.2427928,422.2427928,422.2427928,423.4941396,,,,,,,,,,,,,,,,,,,,,,,,,,,,,,right,1,1.2390364,None,,,sub-182,1,random_dot,60.04743747
right,right,52,0,26,right,1,3.7208108,None,accuracy,space,2.7005379,None,,,,,0,1,1,0,26,0,52,1,423.5090694,,,,,,,,,423.4946007,423.6091097,424.4109693,424.3931807,424.3936041,424.4109693,424.4109693,424.4109693,428.1472559,,,,,,,,,,,,,,,,,,,,,,,,,,,,,,right,1,3.7208108,None,,,sub-182,1,random_dot,60.04743747
left,left,53,1,26,left,1,0.7577604,None,accuracy,space,2.7005379,None,,,,,0,1,1,0,26,1,53,0,428.1620468,,,,,,,,,428.1477681,428.5125433,429.3143602,429.296501,429.29693,429.3143602,429.3143602,429.3143602,430.0820615,,,,,,,,,,,,,,,,,,,,,,,,,,,,,,left,1,0.7577604,None,,,sub-182,1,random_dot,60.04743747
left,left,54,0,27,left,1,1.9132364,None,accuracy,space,2.7005379,None,,,,,0,1,1,0,27,0,54,0,430.096706,,,,,,,,,430.0825374,430.447123,431.2490359,431.231395,431.2318666,431.2490359,431.2490359,431.2490359,433.1673788,,,,,,,,,,,,,,,,,,,,,,,,,,,,,,left,1,1.9132364,None,,,sub-182,1,random_dot,60.04743747
right,right,55,1,27,left,0,3.3565988,None,accuracy,space,2.7005379,None,,,,,0,1,1,0,27,1,55,1,433.1821831,,,,,,,,,433.1678725,434.3829388,435.185095,435.1674667,435.1678893,435.185095,435.185095,435.185095,438.5543585,,,,,,,,,,,,,,,,,,,,,,,,,,,,,,left,0,3.3565988,None,,,sub-182,1,random_dot,60.04743747
right,right,56,0,28,left,0,2.6968515,None,accuracy,space,2.7005379,None,,,,,0,1,1,0,28,0,56,1,438.5694169,,,,,,,,,438.554834,439.7533281,440.5553419,440.5375215,440.5379587,440.5553419,440.5553419,440.5553419,443.2576756,,,,,,,,,,,,,,,,,,,,,,,,,,,,,,left,0,2.6968515,None,,,sub-182,1,random_dot,60.04743747
left,left,57,1,28,left,1,2.7772146,None,accuracy,space,2.7005379,None,,,,,0,1,1,0,28,1,57,0,443.2726504,,,,,,,,,443.2581566,443.6226948,444.4247514,444.4071352,444.4075819,444.4247514,444.4247514,444.4247514,447.2104281,,,,,,,,,,,,,,,,,,,,,,,,,,,,,,left,1,2.7772146,None,,,sub-182,1,random_dot,60.04743747
left,left,58,0,29,left,1,1.8226115,None,accuracy,space,2.7005379,None,,,,,0,1,1,0,29,0,58,0,447.2252937,,,,,,,,,447.2109129,448.0257143,448.827771,448.8101573,448.810611,448.827771,448.827771,448.827771,450.6618427,,,,,,,,,,,,,,,,,,,,,,,,,,,,,,left,1,1.8226115,None,,,sub-182,1,random_dot,60.04743747
right,right,59,1,29,right,1,1.5782573,None,accuracy,space,2.7005379,None,,,,,0,1,1,0,29,1,59,1,450.6769773,,,,,,,,,450.6620803,451.8619536,452.6634914,452.6461088,452.6465318,452.6634914,452.6634914,452.6634914,454.2485677,,,,,,,,,,,,,,,,,,,,,,,,,,,,,,right,1,1.5782573,None,,,sub-182,1,random_dot,60.04743747
,,1,1,0,,,,,accuracy,space,2.7005379,None,,,,,0,1,1,0,,,,,,,,,,,,,,,,,,,,,,,,,,,,,,,,,,,,,,,,,,,,,,,,,,,,,,,,,,sub-182,1,random_dot,60.04743747
,,,,,,,,,,,,,,,,,,,,,,,,,,,,,,,,,,,,,,,,,,,,,,,,,,,,,,,,,,,,,,,,,,,,,,,,,,,,454.2550536,454.2636095,,,,
