wordCTK,colorCTK,corrAnsCTK,congruentCTK,thisN,thisTrialN,thisRepN,keyResp_CTK.keys,keyResp_CTK.corr,keyResp_CTK.rt,keyResp_CTK.duration,wordPractice,colorPractice,corrAnsPractice,congruentPractice,respPractice.keys,respPractice.corr,respPractice.rt,respPractice.duration,word,color,corrAns,congruent,keyResp_test_run.keys,keyResp_test_run.corr,keyResp_test_run.rt,keyResp_test_run.duration,trials_CTK.thisRepN,trials_CTK.thisTrialN,trials_CTK.thisN,trials_CTK.thisIndex,trials_practice.thisRepN,trials_practice.thisTrialN,trials_practice.thisN,trials_practice.thisIndex,trials_test.thisRepN,trials_test.thisTrialN,trials_test.thisN,trials_test.thisIndex,thisRow.t,notes,instruction.started,instr_text.started,instr_image.started,instr_resp.started,instruction.stopped,instr_resp.keys,instr_resp.rt,instr_resp.duration,instr_color_to_key.started,instr_ctk.started,resp_ctk.started,instr_color_to_key.stopped,resp_ctk.keys,resp_ctk.rt,resp_ctk.duration,ITI.started,fixcross.started,fixcross.stopped,ITI.stopped,color_to_key_run.started,stimulus_CTK.started,keyResp_CTK.started,color_to_key_run.stopped,trials_CTK.keyResp_CTK.keys,trials_CTK.keyResp_CTK.corr,trials_CTK.keyResp_CTK.rt,trials_CTK.keyResp_CTK.duration,instr_practice.started,instr_practice_text.started,instr_practice_resp.started,instr_practice.stopped,instr_practice_resp.keys,instr_practice_resp.rt,instr_practice_resp.duration,practice_run.started,stimulus_practice.started,respPractice.started,practice_run.stopped,trials_practice.respPractice.keys,trials_practice.respPractice.corr,trials_practice.respPractice.rt,trials_practice.respPractice.duration,feedback.started,textFeedback.started,feedback.stopped,textFeedback.stopped,instr_test.started,instr_test_text.started,instr_test_resp.started,instr_test.stopped,instr_test_resp.keys,instr_test_resp.rt,instr_test_resp.duration,test_run.started,stimulus_test_run.started,keyResp_test_run.started,test_run.stopped,trials_test.keyResp_test_run.keys,trials_test.keyResp_test_run.corr,trials_test.keyResp_test_run.rt,trials_test.keyResp_test_run.duration,goodbye.started,textGoodbye.started,textGoodbye.stopped,goodbye.stopped,participant,session,expName,frameRate,Unnamed: 113
,,,,,,,,,,,,,,,,,,,,,,,,,,,,,,,,,,,,,,,,,0.0035873000000208,0.0293465999999966,0.0293465999999966,0.0293465999999966,25.97057900000001,space,25.84773419999999,,,,,,,,,,,,,,,,,,,,,,,,,,,,,,,,,,,,,,,,,,,,,,,,,,,,,,,,,,,sub-175,1,stroop_test,59.853681689748655,
,,,,,,,,,,,,,,,,,,,,,,,,,,,,,,,,,,,,,,,,,,,,,,,,,25.9706405,25.97566760000001,25.97566760000001,29.72759860000002,space,3.745046599999995,,,,,,,,,,,,,,,,,,,,,,,,,,,,,,,,,,,,,,,,,,,,,,,,,,,,sub-175,1,stroop_test,59.853681689748655,
test,yellow,g,1.0,0.0,0.0,0.0,g,1.0,1.770035299999989,,,,,,,,,,,,,,,,,,0.0,0.0,0.0,1.0,,,,,,,,,29.784104100000008,,,,,,,,,,,,,,,,,29.78049670000001,30.941692700000004,31.7433643,31.727801400000004,31.738407600000016,31.7433643,31.7433643,33.52871330000002,g,1.0,1.770035299999989,,,,,,,,,,,,,,,,,,,,,,,,,,,,,,,,,,,,,,,,sub-175,1,stroop_test,59.853681689748655,
test,blue,b,1.0,1.0,1.0,0.0,b,1.0,1.002513399999998,,,,,,,,,,,,,,,,,,0.0,1.0,1.0,2.0,,,,,,,,,33.54205280000002,,,,,,,,,,,,,,,,,33.529317100000014,34.342221800000004,35.1427224,35.12733420000001,35.1286552,35.1427224,35.1427224,36.1619011,b,1.0,1.002513399999998,,,,,,,,,,,,,,,,,,,,,,,,,,,,,,,,,,,,,,,,sub-175,1,stroop_test,59.853681689748655,
test,red,r,1.0,2.0,2.0,0.0,r,1.0,0.774485900000002,,,,,,,,,,,,,,,,,,0.0,2.0,2.0,0.0,,,,,,,,,36.1755071,,,,,,,,,,,,,,,,,36.16232630000002,37.37675570000002,38.176534,38.1607027,38.1614773,38.176534,38.176534,38.96209440000001,r,1.0,0.774485900000002,,,,,,,,,,,,,,,,,,,,,,,,,,,,,,,,,,,,,,,,sub-175,1,stroop_test,59.853681689748655,
test,yellow,g,1.0,3.0,0.0,1.0,g,1.0,0.917059800000004,,,,,,,,,,,,,,,,,,1.0,0.0,3.0,1.0,,,,,,,,,38.976352100000014,,,,,,,,,,,,,,,,,38.962703000000005,39.0763791,39.87623350000001,39.86118050000002,39.861960100000005,39.87623350000001,39.87623350000001,40.795986700000014,g,1.0,0.917059800000004,,,,,,,,,,,,,,,,,,,,,,,,,,,,,,,,,,,,,,,,sub-175,1,stroop_test,59.853681689748655,
test,red,r,1.0,4.0,1.0,1.0,r,1.0,0.4596944999999834,,,,,,,,,,,,,,,,,,1.0,1.0,4.0,0.0,,,,,,,,,40.8100182,,,,,,,,,,,,,,,,,40.796406700000006,41.1598888,41.95999140000001,41.9448361,41.94550410000002,41.95999140000001,41.95999140000001,42.4308921,r,1.0,0.4596944999999834,,,,,,,,,,,,,,,,,,,,,,,,,,,,,,,,,,,,,,,,sub-175,1,stroop_test,59.853681689748655,
test,blue,b,1.0,5.0,2.0,1.0,b,1.0,0.292646000000019,,,,,,,,,,,,,,,,,,1.0,2.0,5.0,2.0,,,,,,,,,42.4438892,,,,,,,,,,,,,,,,,42.43146350000001,43.2438784,44.0439308,44.0293039,44.03020090000001,44.0439308,44.0439308,44.34627640000002,b,1.0,0.292646000000019,,,,,,,,,,,,,,,,,,,,,,,,,,,,,,,,,,,,,,,,sub-175,1,stroop_test,59.853681689748655,
test,blue,b,1.0,6.0,0.0,2.0,b,1.0,0.5291804000000013,,,,,,,,,,,,,,,,,,2.0,0.0,6.0,2.0,,,,,,,,,44.36035240000001,,,,,,,,,,,,,,,,,44.34692390000001,45.16115400000001,45.9605952,45.94498870000001,45.94566560000001,45.9605952,45.9605952,46.49733180000001,b,1.0,0.5291804000000013,,,,,,,,,,,,,,,,,,,,,,,,,,,,,,,,,,,,,,,,sub-175,1,stroop_test,59.853681689748655,
test,red,r,1.0,7.0,1.0,2.0,r,1.0,0.5808341999999982,,,,,,,,,,,,,,,,,,2.0,1.0,7.0,0.0,,,,,,,,,46.51096370000002,,,,,,,,,,,,,,,,,46.4978586,46.61118830000001,47.41112630000001,47.39677710000001,47.39759140000001,47.41112630000001,47.41112630000001,47.9971985,r,1.0,0.5808341999999982,,,,,,,,,,,,,,,,,,,,,,,,,,,,,,,,,,,,,,,,sub-175,1,stroop_test,59.853681689748655,
test,yellow,g,1.0,8.0,2.0,2.0,g,1.0,0.3832064000000059,,,,,,,,,,,,,,,,,,2.0,2.0,8.0,1.0,,,,,,,,,48.0111727,,,,,,,,,,,,,,,,,47.9976336,49.21156380000002,50.0116036,49.9966962,49.99778950000001,50.0116036,50.0116036,50.3994443,g,1.0,0.3832064000000059,,,,,,,,,,,,,,,,,,,,,,,,,,,,,,,,,,,,,,,,sub-175,1,stroop_test,59.853681689748655,
test,yellow,g,1.0,9.0,0.0,3.0,g,1.0,0.3616618000000073,,,,,,,,,,,,,,,,,,3.0,0.0,9.0,1.0,,,,,,,,,50.4118612,,,,,,,,,,,,,,,,,50.39995810000002,50.5119105,51.31139060000001,51.29708740000001,51.2978139,51.31139060000001,51.31139060000001,51.68077,g,1.0,0.3616618000000073,,,,,,,,,,,,,,,,,,,,,,,,,,,,,,,,,,,,,,,,sub-175,1,stroop_test,59.853681689748655,
test,blue,b,1.0,10.0,1.0,3.0,b,1.0,0.3898341999999957,,,,,,,,,,,,,,,,,,3.0,1.0,10.0,2.0,,,,,,,,,51.6951972,,,,,,,,,,,,,,,,,51.681286400000005,52.896176800000006,53.69558190000001,53.6815762,53.682573700000006,53.69558190000001,53.69558190000001,54.098491,b,1.0,0.3898341999999957,,,,,,,,,,,,,,,,,,,,,,,,,,,,,,,,,,,,,,,,sub-175,1,stroop_test,59.853681689748655,
test,red,r,1.0,11.0,2.0,3.0,r,1.0,0.3225074000000063,,,,,,,,,,,,,,,,,,3.0,2.0,11.0,0.0,,,,,,,,,54.11207140000002,,,,,,,,,,,,,,,,,54.09909970000001,54.91254240000001,55.71275970000002,55.6977876,55.69857620000002,55.71275970000002,55.71275970000002,56.05015370000001,r,1.0,0.3225074000000063,,,,,,,,,,,,,,,,,,,,,,,,,,,,,,,,,,,,,,,,sub-175,1,stroop_test,59.853681689748655,
,,,,,,,,,,,,,,,,,,,,,,,,,,,,,,,,,,,,,,,,,,,,,,,,,,,,,,,,,,,,,,,,,,,,56.0504225,56.062813800000015,56.062813800000015,66.41670680000001,space,10.347519699999992,,,,,,,,,,,,,,,,,,,,,,,,,,,,,,,,,sub-175,1,stroop_test,59.853681689748655,
,,,,0.0,0.0,0.0,,,,,gelb,red,r,0.0,r,1.0,0.8960641999999837,,,,,,,,,,,,,,0.0,0.0,0.0,8.0,,,,,66.4605382,,,,,,,,,,,,,,,,,66.4563837,66.53148670000002,67.33114130000001,67.31571400000001,,,,,,,,,,,,,,,,67.32487020000002,67.33114130000001,67.33114130000001,68.2343248,r,1.0,0.8960641999999837,,68.2486275,68.2565644,69.2485327,,,,,,,,,,,,,,,,,,,,,sub-175,1,stroop_test,59.853681689748655,
,,,,1.0,1.0,0.0,,,,,gelb,blue,b,0.0,b,1.0,0.7253331000000003,,,,,,,,,,,,,,0.0,1.0,1.0,9.0,,,,,69.2649169,,,,,,,,,,,,,,,,,69.2489349,69.34826240000001,70.14843200000001,70.1347337,,,,,,,,,,,,,,,,70.13563340000002,70.14843200000001,70.14843200000001,70.8843823,b,1.0,0.7253331000000003,,70.88500590000001,70.89870000000002,71.88296310000001,71.89891890000001,,,,,,,,,,,,,,,,,,,,sub-175,1,stroop_test,59.853681689748655,
,,,,2.0,2.0,0.0,,,,,blau,blue,b,1.0,b,1.0,0.5749088000000029,,,,,,,,,,,,,,0.0,2.0,2.0,5.0,,,,,71.89891890000001,,,,,,,,,,,,,,,,,71.883441,73.09886020000002,73.8995037,73.8836977,,,,,,,,,,,,,,,,73.89417700000001,73.8995037,73.8995037,74.48573100000002,b,1.0,0.5749088000000029,,74.4868016,74.4990617,75.4851721,75.49980120000001,,,,,,,,,,,,,,,,,,,,sub-175,1,stroop_test,59.853681689748655,
,,,,3.0,3.0,0.0,,,,,rot,yellow,g,0.0,g,1.0,0.5850508000000048,,,,,,,,,,,,,,0.0,3.0,3.0,3.0,,,,,75.49980120000001,,,,,,,,,,,,,,,,,75.48581620000002,75.59981340000002,76.39922090000002,76.3850325,,,,,,,,,,,,,,,,76.39164150000002,76.39922090000002,76.39922090000002,77.00191560000002,g,1.0,0.5850508000000048,,77.00242639999999,77.01650469999998,78.00312380000003,78.01693440000003,,,,,,,,,,,,,,,,,,,,sub-175,1,stroop_test,59.853681689748655,
,,,,4.0,4.0,0.0,,,,,rot,blue,b,0.0,b,1.0,0.517362300000002,,,,,,,,,,,,,,0.0,4.0,4.0,2.0,,,,,78.01693440000003,,,,,,,,,,,,,,,,,78.0035054,78.81689399999999,79.61717170000003,79.6027302,,,,,,,,,,,,,,,,79.6036972,79.61717170000003,79.61717170000003,80.13819340000003,b,1.0,0.517362300000002,,80.1390978,80.15034800000001,81.13467159999999,81.1502165,,,,,,,,,,,,,,,,,,,,sub-175,1,stroop_test,59.853681689748655,
,,,,5.0,5.0,0.0,,,,,rot,red,r,1.0,r,1.0,0.3233081999999854,,,,,,,,,,,,,,0.0,5.0,5.0,0.0,,,,,81.1502165,,,,,,,,,,,,,,,,,81.13504490000003,82.35109390000002,83.1512813,83.1374619,,,,,,,,,,,,,,,,83.13926980000002,83.1512813,83.1512813,83.48809900000003,r,1.0,0.3233081999999854,,83.4889675,83.5012635,84.48511880000001,84.50091100000003,,,,,,,,,,,,,,,,,,,,sub-175,1,stroop_test,59.853681689748655,
,,,,6.0,6.0,0.0,,,,,blau,blue,b,1.0,b,1.0,0.5478074999999762,,,,,,,,,,,,,,0.0,6.0,6.0,6.0,,,,,84.50091100000003,,,,,,,,,,,,,,,,,84.48566210000001,85.70154009999999,86.50121100000001,86.48681349999998,,,,,,,,,,,,,,,,86.49104110000002,86.50121100000001,86.50121100000001,87.0545856,b,1.0,0.5478074999999762,,87.05520089999999,87.06841059999999,88.05353480000002,88.06868270000001,,,,,,,,,,,,,,,,,,,,sub-175,1,stroop_test,59.853681689748655,
,,,,7.0,7.0,0.0,,,,,gelb,yellow,g,1.0,g,1.0,0.5105424999999855,,,,,,,,,,,,,,0.0,7.0,7.0,10.0,,,,,88.06868270000001,,,,,,,,,,,,,,,,,88.05404650000003,89.26886150000001,90.06866660000003,90.05388920000001,,,,,,,,,,,,,,,,90.05814079999999,90.06866660000003,90.06866660000003,90.58777279999998,g,1.0,0.5105424999999855,,90.5888162,90.60215879999998,91.58770880000004,91.602599,,,,,,,,,,,,,,,,,,,,sub-175,1,stroop_test,59.853681689748655,
,,,,8.0,8.0,0.0,,,,,blau,yellow,g,0.0,g,1.0,0.7823505000000068,,,,,,,,,,,,,,0.0,8.0,8.0,7.0,,,,,91.602599,,,,,,,,,,,,,,,,,91.58835290000002,92.80279560000002,93.60242490000002,93.58754270000004,,,,,,,,,,,,,,,,93.5915281,93.60242490000002,93.60242490000002,94.38928950000002,g,1.0,0.7823505000000068,,94.390672,94.4027026,95.38866610000002,95.40296,,,,,,,,,,,,,,,,,,,,sub-175,1,stroop_test,59.853681689748655,
,,,,9.0,9.0,0.0,,,,,blau,red,r,0.0,r,1.0,0.3970719000000144,,,,,,,,,,,,,,0.0,9.0,9.0,4.0,,,,,95.40296,,,,,,,,,,,,,,,,,95.38919750000002,95.75360790000002,96.55318370000003,96.538427,,,,,,,,,,,,,,,,96.53941220000002,96.55318370000003,96.55318370000003,96.95526510000002,r,1.0,0.3970719000000144,,96.9559208,96.9702418,97.9563296,97.97032030000004,,,,,,,,,,,,,,,,,,,,sub-175,1,stroop_test,59.853681689748655,
,,,,10.0,10.0,0.0,,,,,rot,red,r,1.0,r,1.0,0.4121996000000081,,,,,,,,,,,,,,0.0,10.0,10.0,1.0,,,,,97.97032030000004,,,,,,,,,,,,,,,,,97.95698099999998,98.0703893,98.8701229,98.8560675,,,,,,,,,,,,,,,,98.8608709,98.8701229,98.8701229,99.2891004,r,1.0,0.4121996000000081,,99.2898053,99.3038459,100.2886813,100.3035297,,,,,,,,,,,,,,,,,,,,sub-175,1,stroop_test,59.853681689748655,
,,,,11.0,11.0,0.0,,,,,gelb,yellow,g,1.0,g,1.0,0.5424170000000004,,,,,,,,,,,,,,0.0,11.0,11.0,11.0,,,,,100.3035297,,,,,,,,,,,,,,,,,100.28934809999998,101.5041796,102.30422600000004,102.2896955,,,,,,,,,,,,,,,,102.29553579999998,102.30422600000004,102.30422600000004,102.8568725,g,1.0,0.5424170000000004,,102.85755360000002,102.8706257,103.85686020000004,103.8717625,,,,,,,,,,,,,,,,,,,,sub-175,1,stroop_test,59.853681689748655,
,,,,12.0,0.0,1.0,,,,,blau,blue,b,1.0,b,1.0,0.4814644999999586,,,,,,,,,,,,,,1.0,0.0,12.0,5.0,,,,,103.8717625,,,,,,,,,,,,,,,,,103.8573589,104.22118620000003,105.02123790000002,105.00678950000002,,,,,,,,,,,,,,,,105.0133829,105.02123790000002,105.02123790000002,105.507537,b,1.0,0.4814644999999586,,105.508125,105.5218744,106.50738060000003,106.52204690000002,,,,,,,,,,,,,,,,,,,,sub-175,1,stroop_test,59.853681689748655,
,,,,13.0,1.0,1.0,,,,,gelb,red,r,0.0,g,0.0,0.4293925000000058,,,,,,,,,,,,,,1.0,1.0,13.0,8.0,,,,,106.52204690000002,,,,,,,,,,,,,,,,,106.5079468,107.7221722,108.5223064,108.5081525,,,,,,,,,,,,,,,,108.51430750000004,108.5223064,108.5223064,108.9587234,g,0.0,0.4293925000000058,,108.9659848,108.9721672,109.95881300000002,109.97284910000002,,,,,,,,,,,,,,,,,,,,sub-175,1,stroop_test,59.853681689748655,
,,,,14.0,2.0,1.0,,,,,blau,yellow,g,0.0,b,0.0,0.8037070999999969,,,,,,,,,,,,,,1.0,2.0,14.0,7.0,,,,,109.97284910000002,,,,,,,,,,,,,,,,,109.9594293,110.07282960000003,110.87267380000004,110.85797560000005,,,,,,,,,,,,,,,,110.8627838,110.87267380000004,110.87267380000004,111.6922672,b,0.0,0.8037070999999969,,111.69292410000004,111.70629309999998,112.6915055,112.70624650000002,,,,,,,,,,,,,,,,,,,,sub-175,1,stroop_test,59.853681689748655,
,,,,15.0,3.0,1.0,,,,,blau,red,r,0.0,r,1.0,1.0156651000000352,,,,,,,,,,,,,,1.0,3.0,15.0,4.0,,,,,112.70624650000002,,,,,,,,,,,,,,,,,112.6923815,112.806601,113.6063218,113.59143140000003,,,,,,,,,,,,,,,,113.59229720000002,113.6063218,113.6063218,114.6260327,r,1.0,1.0156651000000352,,114.63073280000005,114.6400311,115.62418739999998,115.63967200000002,,,,,,,,,,,,,,,,,,,,sub-175,1,stroop_test,59.853681689748655,
,,,,16.0,4.0,1.0,,,,,blau,blue,b,1.0,b,1.0,0.3413388999999824,,,,,,,,,,,,,,1.0,4.0,16.0,6.0,,,,,115.63967200000002,,,,,,,,,,,,,,,,,115.62457690000002,116.440249,117.2401784,117.22457760000005,,,,,,,,,,,,,,,,117.22521469999998,117.2401784,117.2401784,117.59418600000004,b,1.0,0.3413388999999824,,117.59494590000004,117.6072982,118.5928551,118.60749270000002,,,,,,,,,,,,,,,,,,,,sub-175,1,stroop_test,59.853681689748655,
,,,,17.0,5.0,1.0,,,,,gelb,blue,b,0.0,b,1.0,1.077789800000005,,,,,,,,,,,,,,1.0,5.0,17.0,9.0,,,,,118.60749270000002,,,,,,,,,,,,,,,,,118.5934974,118.957655,119.7570657,119.7420201,,,,,,,,,,,,,,,,119.7481361,119.7570657,119.7570657,120.84375740000002,b,1.0,1.077789800000005,,120.84456,120.85782469999998,121.84353830000003,121.85784230000002,,,,,,,,,,,,,,,,,,,,sub-175,1,stroop_test,59.853681689748655,
,,,,18.0,6.0,1.0,,,,,gelb,yellow,g,1.0,g,1.0,0.5062106999999969,,,,,,,,,,,,,,1.0,6.0,18.0,10.0,,,,,121.85784230000002,,,,,,,,,,,,,,,,,121.8440695,121.95831099999998,122.75786340000002,122.7434326,,,,,,,,,,,,,,,,122.7445452,122.75786340000002,122.75786340000002,123.27800639999998,g,1.0,0.5062106999999969,,123.2787869,123.29123830000005,124.2772461,124.2918095,,,,,,,,,,,,,,,,,,,,sub-175,1,stroop_test,59.853681689748655,
,,,,19.0,7.0,1.0,,,,,rot,red,r,1.0,r,1.0,0.526898000000017,,,,,,,,,,,,,,1.0,7.0,19.0,1.0,,,,,124.2918095,,,,,,,,,,,,,,,,,124.27784180000005,124.64216190000002,125.44167729999998,125.4272229,,,,,,,,,,,,,,,,125.43213079999998,125.44167729999998,125.44167729999998,125.9771945,r,1.0,0.526898000000017,,125.9780007,125.99167119999998,126.9771609,126.9920869,,,,,,,,,,,,,,,,,,,,sub-175,1,stroop_test,59.853681689748655,
,,,,20.0,8.0,1.0,,,,,rot,blue,b,0.0,b,1.0,0.9101848000000246,,,,,,,,,,,,,,1.0,8.0,20.0,2.0,,,,,126.9920869,,,,,,,,,,,,,,,,,126.97778979999998,127.34228389999998,128.1419217,128.12707849999998,,,,,,,,,,,,,,,,128.1281538,128.1419217,128.1419217,129.06264170000003,b,1.0,0.9101848000000246,,129.06348409999998,129.0759987,130.06110820000004,130.07612269999998,,,,,,,,,,,,,,,,,,,,sub-175,1,stroop_test,59.853681689748655,
,,,,21.0,9.0,1.0,,,,,rot,yellow,g,0.0,g,1.0,1.4092853999999877,,,,,,,,,,,,,,1.0,9.0,21.0,3.0,,,,,130.07612269999998,,,,,,,,,,,,,,,,,130.06175050000002,131.2762174,132.0764886,132.06178540000002,,,,,,,,,,,,,,,,132.06250570000003,132.0764886,132.0764886,133.49590310000002,g,1.0,1.4092853999999877,,133.49681379999998,133.5098984,134.4953243,134.5101735,,,,,,,,,,,,,,,,,,,,sub-175,1,stroop_test,59.853681689748655,
,,,,22.0,10.0,1.0,,,,,gelb,yellow,g,1.0,g,1.0,0.697520499999996,,,,,,,,,,,,,,1.0,10.0,22.0,11.0,,,,,134.5101735,,,,,,,,,,,,,,,,,134.495898,135.3096685,136.1099249,136.09453059999998,,,,,,,,,,,,,,,,136.0982495,136.1099249,136.1099249,136.81327570000002,g,1.0,0.697520499999996,,136.8139954,136.8276935,137.8122593,137.82756440000003,,,,,,,,,,,,,,,,,,,,sub-175,1,stroop_test,59.853681689748655,
,,,,23.0,11.0,1.0,,,,,rot,red,r,1.0,r,1.0,0.5780220999999983,,,,,,,,,,,,,,1.0,11.0,23.0,0.0,,,,,137.82756440000003,,,,,,,,,,,,,,,,,137.81283690000004,137.9273109,138.7271409,138.7139955,,,,,,,,,,,,,,,,138.720508,138.7271409,138.7271409,139.3122641,r,1.0,0.5780220999999983,,139.31269960000003,139.3277256,140.3120042,140.32815,,,,,,,,,,,,,,,,,,,,sub-175,1,stroop_test,59.853681689748655,
,,,,,,,,,,,,,,,,,,,,,,,,,,,,,,,,,,,,,,,,,,,,,,,,,,,,,,,,,,,,,,,,,,,,,,,,,,,,,,,,,,,,,,,140.31216039999998,140.32815,140.32815,146.8807974,space,6.542879099999993,,,,,,,,,,,,,,sub-175,1,stroop_test,59.853681689748655,
,,,,0.0,0.0,0.0,,,,,,,,,,,,,gelb,blue,b,0.0,b,1.0,0.6756588999999735,,,,,,,,,,0.0,0.0,0.0,9.0,146.9252179,,,,,,,,,,,,,,,,,146.9214108,148.0960225,148.89572429999998,148.88117800000003,,,,,,,,,,,,,,,,,,,,,,,,,,,,,,,,,,,148.8862348,148.89572429999998,148.89572429999998,149.5812059,b,1.0,0.6756588999999735,,,,,,sub-175,1,stroop_test,59.853681689748655,
,,,,1.0,1.0,0.0,,,,,,,,,,,,,rot,red,r,1.0,r,1.0,0.3691718000000037,,,,,,,,,,0.0,1.0,1.0,1.0,149.59589340000002,,,,,,,,,,,,,,,,,149.58184720000003,150.39597120000002,151.19629250000003,151.1821645,,,,,,,,,,,,,,,,,,,,,,,,,,,,,,,,,,,151.1877621,151.19629250000003,151.19629250000003,151.58311250000003,r,1.0,0.3691718000000037,,,,,,sub-175,1,stroop_test,59.853681689748655,
,,,,2.0,2.0,0.0,,,,,,,,,,,,,gelb,yellow,g,1.0,g,1.0,0.4280271000000084,,,,,,,,,,0.0,2.0,2.0,11.0,151.59658560000003,,,,,,,,,,,,,,,,,151.5837487,151.9468258,152.7466758,152.7316073,,,,,,,,,,,,,,,,,,,,,,,,,,,,,,,,,,,152.7377151,152.7466758,152.7466758,153.18283000000002,g,1.0,0.4280271000000084,,,,,,sub-175,1,stroop_test,59.853681689748655,
,,,,3.0,3.0,0.0,,,,,,,,,,,,,blau,red,r,0.0,r,1.0,0.6713843999999654,,,,,,,,,,0.0,3.0,3.0,4.0,153.19669070000003,,,,,,,,,,,,,,,,,153.1833209,153.9967403,154.7988237,154.78241810000003,,,,,,,,,,,,,,,,,,,,,,,,,,,,,,,,,,,154.7899703,154.7988237,154.7988237,155.48279660000003,r,1.0,0.6713843999999654,,,,,,sub-175,1,stroop_test,59.853681689748655,
,,,,4.0,4.0,0.0,,,,,,,,,,,,,blau,yellow,g,0.0,g,1.0,1.0686081000000058,,,,,,,,,,0.0,4.0,4.0,7.0,155.4971595,,,,,,,,,,,,,,,,,155.4832763,156.29737900000003,157.09738320000002,157.0824247,,,,,,,,,,,,,,,,,,,,,,,,,,,,,,,,,,,157.0830591,157.09738320000002,157.09738320000002,158.1828951,g,1.0,1.0686081000000058,,,,,,sub-175,1,stroop_test,59.853681689748655,
,,,,5.0,5.0,0.0,,,,,,,,,,,,,gelb,yellow,g,1.0,g,1.0,0.9487080000000104,,,,,,,,,,0.0,5.0,5.0,10.0,158.1974113,,,,,,,,,,,,,,,,,158.1832672,158.2974079,159.09764540000003,159.08308720000002,,,,,,,,,,,,,,,,,,,,,,,,,,,,,,,,,,,159.0870595,159.09764540000003,159.09764540000003,160.05212060000002,g,1.0,0.9487080000000104,,,,,,sub-175,1,stroop_test,59.853681689748655,
,,,,6.0,6.0,0.0,,,,,,,,,,,,,rot,yellow,g,0.0,g,1.0,0.516624400000012,,,,,,,,,,0.0,6.0,6.0,3.0,160.0646309,,,,,,,,,,,,,,,,,160.0528329,161.26477590000002,162.06452660000002,162.0506984,,,,,,,,,,,,,,,,,,,,,,,,,,,,,,,,,,,162.05669570000003,162.06452660000002,162.06452660000002,162.58440110000004,g,1.0,0.516624400000012,,,,,,sub-175,1,stroop_test,59.853681689748655,
,,,,7.0,7.0,0.0,,,,,,,,,,,,,blau,blue,b,1.0,b,1.0,0.4318750000000477,,,,,,,,,,0.0,7.0,7.0,5.0,162.59824150000003,,,,,,,,,,,,,,,,,162.5851305,163.79836319999998,164.59867610000003,164.5846593,,,,,,,,,,,,,,,,,,,,,,,,,,,,,,,,,,,164.59050810000002,164.59867610000003,164.59867610000003,165.03526190000002,b,1.0,0.4318750000000477,,,,,,sub-175,1,stroop_test,59.853681689748655,
,,,,8.0,8.0,0.0,,,,,,,,,,,,,rot,blue,b,0.0,b,1.0,0.9436800999999946,,,,,,,,,,0.0,8.0,8.0,2.0,165.0489622,,,,,,,,,,,,,,,,,165.0358309,166.2490593,167.0490913,167.03500330000003,,,,,,,,,,,,,,,,,,,,,,,,,,,,,,,,,,,167.0401112,167.0490913,167.0490913,168.0017949,b,1.0,0.9436800999999946,,,,,,sub-175,1,stroop_test,59.853681689748655,
,,,,9.0,9.0,0.0,,,,,,,,,,,,,gelb,red,r,0.0,g,0.0,1.080598000000009,,,,,,,,,,0.0,9.0,9.0,8.0,168.0162868,,,,,,,,,,,,,,,,,168.0024601,168.1163188,168.9162607,168.9009532,,,,,,,,,,,,,,,,,,,,,,,,,,,,,,,,,,,168.9053753,168.9162607,168.9162607,170.0015826,g,0.0,1.080598000000009,,,,,,sub-175,1,stroop_test,59.853681689748655,
,,,,10.0,10.0,0.0,,,,,,,,,,,,,blau,blue,b,1.0,b,1.0,0.5502111999999784,,,,,,,,,,0.0,10.0,10.0,6.0,170.0164079,,,,,,,,,,,,,,,,,170.00205570000003,170.1166525,170.9165253,170.9018946,,,,,,,,,,,,,,,,,,,,,,,,,,,,,,,,,,,170.90787670000003,170.9165253,170.9165253,171.46922920000003,b,1.0,0.5502111999999784,,,,,,sub-175,1,stroop_test,59.853681689748655,
,,,,11.0,11.0,0.0,,,,,,,,,,,,,rot,red,r,1.0,r,1.0,0.4490030999999703,,,,,,,,,,0.0,11.0,11.0,0.0,171.48340610000002,,,,,,,,,,,,,,,,,171.469783,171.83385020000003,172.63343830000002,172.61843700000003,,,,,,,,,,,,,,,,,,,,,,,,,,,,,,,,,,,172.62451700000005,172.63343830000002,172.63343830000002,173.0864294,r,1.0,0.4490030999999703,,,,,,sub-175,1,stroop_test,59.853681689748655,
,,,,12.0,0.0,1.0,,,,,,,,,,,,,blau,yellow,g,0.0,g,1.0,1.449045299999966,,,,,,,,,,1.0,0.0,12.0,7.0,173.09994840000002,,,,,,,,,,,,,,,,,173.0871082,173.1998992,174.0000488,173.9859444,,,,,,,,,,,,,,,,,,,,,,,,,,,,,,,,,,,173.99168860000003,174.0000488,174.0000488,175.45300280000004,g,1.0,1.449045299999966,,,,,,sub-175,1,stroop_test,59.853681689748655,
,,,,13.0,1.0,1.0,,,,,,,,,,,,,gelb,yellow,g,1.0,g,1.0,0.5625696000000175,,,,,,,,,,1.0,1.0,13.0,11.0,175.4677198,,,,,,,,,,,,,,,,,175.45349470000002,175.81773250000003,176.6174117,176.601625,,,,,,,,,,,,,,,,,,,,,,,,,,,,,,,,,,,176.6058519,176.6174117,176.6174117,177.1880241,g,1.0,0.5625696000000175,,,,,,sub-175,1,stroop_test,59.853681689748655,
,,,,14.0,2.0,1.0,,,,,,,,,,,,,blau,blue,b,1.0,b,1.0,0.5447500000000218,,,,,,,,,,1.0,2.0,14.0,5.0,177.20130369999998,,,,,,,,,,,,,,,,,177.18870170000002,178.4009911,179.2010568,179.18702460000003,,,,,,,,,,,,,,,,,,,,,,,,,,,,,,,,,,,179.1926593,179.2010568,179.2010568,179.75516420000002,b,1.0,0.5447500000000218,,,,,,sub-175,1,stroop_test,59.853681689748655,
,,,,15.0,3.0,1.0,,,,,,,,,,,,,rot,red,r,1.0,r,1.0,0.6172048000000245,,,,,,,,,,1.0,3.0,15.0,0.0,179.76843560000003,,,,,,,,,,,,,,,,,179.75585940000002,180.1188727,180.9188914,180.90329080000004,,,,,,,,,,,,,,,,,,,,,,,,,,,,,,,,,,,180.9114477,180.9188914,180.9188914,181.55384350000003,r,1.0,0.6172048000000245,,,,,,sub-175,1,stroop_test,59.853681689748655,
,,,,16.0,4.0,1.0,,,,,,,,,,,,,rot,yellow,g,0.0,g,1.0,1.2757854999999836,,,,,,,,,,1.0,4.0,16.0,3.0,181.5682994,,,,,,,,,,,,,,,,,181.5542418,182.76879030000003,183.56883420000003,183.5537847,,,,,,,,,,,,,,,,,,,,,,,,,,,,,,,,,,,183.5544904,183.56883420000003,183.56883420000003,184.8551789,g,1.0,1.2757854999999836,,,,,,sub-175,1,stroop_test,59.853681689748655,
,,,,17.0,5.0,1.0,,,,,,,,,,,,,gelb,yellow,g,1.0,g,1.0,1.0401120999999875,,,,,,,,,,1.0,5.0,17.0,10.0,184.86911430000004,,,,,,,,,,,,,,,,,184.8557141,186.0698339,186.8698661,186.854573,,,,,,,,,,,,,,,,,,,,,,,,,,,,,,,,,,,186.8591763,186.8698661,186.8698661,187.9220719,g,1.0,1.0401120999999875,,,,,,sub-175,1,stroop_test,59.853681689748655,
,,,,18.0,6.0,1.0,,,,,,,,,,,,,blau,blue,b,1.0,b,1.0,0.5883820999999898,,,,,,,,,,1.0,6.0,18.0,6.0,187.9361434,,,,,,,,,,,,,,,,,187.92262220000003,188.03682350000005,188.8363517,188.82196370000003,,,,,,,,,,,,,,,,,,,,,,,,,,,,,,,,,,,188.8266889,188.8363517,188.8363517,189.4401565,b,1.0,0.5883820999999898,,,,,,sub-175,1,stroop_test,59.853681689748655,
,,,,19.0,7.0,1.0,,,,,,,,,,,,,blau,red,r,0.0,r,1.0,0.3962862999999856,,,,,,,,,,1.0,7.0,19.0,4.0,189.4533687,,,,,,,,,,,,,,,,,189.4407962,190.2532939,191.0534957,191.0385676,,,,,,,,,,,,,,,,,,,,,,,,,,,,,,,,,,,191.03950430000003,191.0534957,191.0534957,191.4564426,r,1.0,0.3962862999999856,,,,,,sub-175,1,stroop_test,59.853681689748655,
,,,,20.0,8.0,1.0,,,,,,,,,,,,,rot,red,r,1.0,r,1.0,0.4207894999999553,,,,,,,,,,1.0,8.0,20.0,1.0,191.4706359,,,,,,,,,,,,,,,,,191.4568695,192.6708257,193.4703875,193.45646220000003,,,,,,,,,,,,,,,,,,,,,,,,,,,,,,,,,,,193.4614274,193.4703875,193.4703875,193.9073065,r,1.0,0.4207894999999553,,,,,,sub-175,1,stroop_test,59.853681689748655,
,,,,21.0,9.0,1.0,,,,,,,,,,,,,rot,blue,b,0.0,b,1.0,0.8342686000000299,,,,,,,,,,1.0,9.0,21.0,2.0,193.9207735,,,,,,,,,,,,,,,,,193.9081249,194.7205646,195.5211389,195.5060233,,,,,,,,,,,,,,,,,,,,,,,,,,,,,,,,,,,195.5067768,195.5211389,195.5211389,196.3581011,b,1.0,0.8342686000000299,,,,,,sub-175,1,stroop_test,59.853681689748655,
,,,,22.0,10.0,1.0,,,,,,,,,,,,,gelb,red,r,0.0,r,1.0,0.8156821000000036,,,,,,,,,,1.0,10.0,22.0,8.0,196.3713605,,,,,,,,,,,,,,,,,196.3588208,197.1717599,197.9714374,197.9566214,,,,,,,,,,,,,,,,,,,,,,,,,,,,,,,,,,,197.9622151,197.9714374,197.9714374,198.7908787,r,1.0,0.8156821000000036,,,,,,sub-175,1,stroop_test,59.853681689748655,
,,,,23.0,11.0,1.0,,,,,,,,,,,,,gelb,blue,b,0.0,b,1.0,0.4486122999999793,,,,,,,,,,1.0,11.0,23.0,9.0,198.8047662,,,,,,,,,,,,,,,,,198.7915084,199.6053498,200.4052171,200.3910211,,,,,,,,,,,,,,,,,,,,,,,,,,,,,,,,,,,200.39172230000003,200.4052171,200.4052171,200.8589091,b,1.0,0.4486122999999793,,,,,,sub-175,1,stroop_test,59.853681689748655,
,,,,24.0,0.0,2.0,,,,,,,,,,,,,gelb,blue,b,0.0,r,0.0,0.4077971000000389,,,,,,,,,,2.0,0.0,24.0,9.0,200.8716622,,,,,,,,,,,,,,,,,200.8597019,201.672274,202.5570224,202.4573504,,,,,,,,,,,,,,,,,,,,,,,,,,,,,,,,,,,202.5519622,202.5570224,202.5570224,202.97545230000003,r,0.0,0.4077971000000389,,,,,,sub-175,1,stroop_test,59.853681689748655,
,,,,25.0,1.0,2.0,,,,,,,,,,,,,rot,blue,b,0.0,b,1.0,0.8949587999999835,,,,,,,,,,2.0,1.0,25.0,2.0,202.98956680000003,,,,,,,,,,,,,,,,,202.9759752,203.0893345,203.8890363,203.8735228,,,,,,,,,,,,,,,,,,,,,,,,,,,,,,,,,,,203.87853690000003,203.8890363,203.8890363,204.79209480000003,b,1.0,0.8949587999999835,,,,,,sub-175,1,stroop_test,59.853681689748655,
,,,,26.0,2.0,2.0,,,,,,,,,,,,,gelb,yellow,g,1.0,g,1.0,0.6860494999999673,,,,,,,,,,2.0,2.0,26.0,11.0,204.8063376,,,,,,,,,,,,,,,,,204.7926235,204.90628200000003,205.7059143,205.69046910000003,,,,,,,,,,,,,,,,,,,,,,,,,,,,,,,,,,,205.6941288,205.7059143,205.7059143,206.3973955,g,1.0,0.6860494999999673,,,,,,sub-175,1,stroop_test,59.853681689748655,
,,,,27.0,3.0,2.0,,,,,,,,,,,,,blau,blue,b,1.0,b,1.0,0.6718007999999713,,,,,,,,,,2.0,3.0,27.0,5.0,206.4073551,,,,,,,,,,,,,,,,,206.3980471,206.5065191,207.3063252,207.2918269,,,,,,,,,,,,,,,,,,,,,,,,,,,,,,,,,,,207.2969517,207.3063252,207.3063252,207.992703,b,1.0,0.6718007999999713,,,,,,sub-175,1,stroop_test,59.853681689748655,
,,,,28.0,4.0,2.0,,,,,,,,,,,,,blau,blue,b,1.0,b,1.0,0.5190723000000048,,,,,,,,,,2.0,4.0,28.0,6.0,208.00665880000005,,,,,,,,,,,,,,,,,207.9932601,208.3566849,209.1569414,209.1418914,,,,,,,,,,,,,,,,,,,,,,,,,,,,,,,,,,,209.1427463,209.1569414,209.1569414,209.6926652,b,1.0,0.5190723000000048,,,,,,sub-175,1,stroop_test,59.853681689748655,
,,,,29.0,5.0,2.0,,,,,,,,,,,,,gelb,red,r,0.0,r,1.0,0.6895987000000332,,,,,,,,,,2.0,5.0,29.0,8.0,209.7066466,,,,,,,,,,,,,,,,,209.69331700000004,210.90762240000004,211.7072408,211.6927432,,,,,,,,,,,,,,,,,,,,,,,,,,,,,,,,,,,211.6982627,211.7072408,211.7072408,212.40906010000003,r,1.0,0.6895987000000332,,,,,,sub-175,1,stroop_test,59.853681689748655,
,,,,30.0,6.0,2.0,,,,,,,,,,,,,blau,red,r,0.0,r,1.0,0.5260739000000285,,,,,,,,,,2.0,6.0,30.0,4.0,212.4240856,,,,,,,,,,,,,,,,,212.4094285,213.2239859,214.0239148,214.0098508,,,,,,,,,,,,,,,,,,,,,,,,,,,,,,,,,,,214.0154337,214.0239148,214.0239148,214.56035710000003,r,1.0,0.5260739000000285,,,,,,sub-175,1,stroop_test,59.853681689748655,
,,,,31.0,7.0,2.0,,,,,,,,,,,,,rot,red,r,1.0,r,1.0,0.4388749999999959,,,,,,,,,,2.0,7.0,31.0,1.0,214.5747948,,,,,,,,,,,,,,,,,214.56108490000005,215.7748347,216.5743849,216.559821,,,,,,,,,,,,,,,,,,,,,,,,,,,,,,,,,,,216.5638285,216.5743849,216.5743849,217.0280229,r,1.0,0.4388749999999959,,,,,,sub-175,1,stroop_test,59.853681689748655,
,,,,32.0,8.0,2.0,,,,,,,,,,,,,rot,red,r,1.0,r,1.0,0.5155043000000319,,,,,,,,,,2.0,8.0,32.0,0.0,217.0417769,,,,,,,,,,,,,,,,,217.0285814,217.3920531,218.1916193,218.1768584,,,,,,,,,,,,,,,,,,,,,,,,,,,,,,,,,,,218.17807,218.1916193,218.1916193,218.71142150000003,r,1.0,0.5155043000000319,,,,,,sub-175,1,stroop_test,59.853681689748655,
,,,,33.0,9.0,2.0,,,,,,,,,,,,,gelb,yellow,g,1.0,g,1.0,0.532336799999996,,,,,,,,,,2.0,9.0,33.0,10.0,218.72543260000003,,,,,,,,,,,,,,,,,218.7119487,219.5253589,220.3250332,220.30984770000003,,,,,,,,,,,,,,,,,,,,,,,,,,,,,,,,,,,220.3144395,220.3250332,220.3250332,220.86232970000003,g,1.0,0.532336799999996,,,,,,sub-175,1,stroop_test,59.853681689748655,
,,,,34.0,10.0,2.0,,,,,,,,,,,,,rot,yellow,g,0.0,g,1.0,0.477467200000035,,,,,,,,,,2.0,10.0,34.0,3.0,220.8755119,,,,,,,,,,,,,,,,,220.8628478,221.2259732,222.02544240000003,222.0107551,,,,,,,,,,,,,,,,,,,,,,,,,,,,,,,,,,,222.016228,222.02544240000003,222.02544240000003,222.5118854,g,1.0,0.477467200000035,,,,,,sub-175,1,stroop_test,59.853681689748655,
,,,,35.0,11.0,2.0,,,,,,,,,,,,,blau,yellow,g,0.0,g,1.0,0.4443944999999871,,,,,,,,,,2.0,11.0,35.0,7.0,222.5255988,,,,,,,,,,,,,,,,,222.5124516,223.7260582,224.5258908,224.5115586,,,,,,,,,,,,,,,,,,,,,,,,,,,,,,,,,,,224.5175344,224.5258908,224.5258908,224.9787375,g,1.0,0.4443944999999871,,,,,,sub-175,1,stroop_test,59.853681689748655,
,,,,36.0,0.0,3.0,,,,,,,,,,,,,rot,yellow,g,0.0,g,1.0,0.4096612000000164,,,,,,,,,,3.0,0.0,36.0,3.0,224.9930855,,,,,,,,,,,,,,,,,224.9795861,225.79328730000003,226.59323290000003,226.5788481,,,,,,,,,,,,,,,,,,,,,,,,,,,,,,,,,,,226.58298990000003,226.59323290000003,226.59323290000003,227.0128173,g,1.0,0.4096612000000164,,,,,,sub-175,1,stroop_test,59.853681689748655,
,,,,37.0,1.0,3.0,,,,,,,,,,,,,blau,red,r,0.0,r,1.0,0.6938010999999733,,,,,,,,,,3.0,1.0,37.0,4.0,227.02690920000003,,,,,,,,,,,,,,,,,227.0133417,227.3771807,228.17703390000003,228.16145520000003,,,,,,,,,,,,,,,,,,,,,,,,,,,,,,,,,,,228.16570590000003,228.17703390000003,228.17703390000003,228.8786721,r,1.0,0.6938010999999733,,,,,,sub-175,1,stroop_test,59.853681689748655,
,,,,38.0,2.0,3.0,,,,,,,,,,,,,gelb,yellow,g,1.0,g,1.0,0.6369035999999824,,,,,,,,,,3.0,2.0,38.0,11.0,228.8942367,,,,,,,,,,,,,,,,,228.879082,228.9937432,229.7939756,229.7782275,,,,,,,,,,,,,,,,,,,,,,,,,,,,,,,,,,,229.782302,229.7939756,229.7939756,230.4474225,g,1.0,0.6369035999999824,,,,,,sub-175,1,stroop_test,59.853681689748655,
,,,,39.0,3.0,3.0,,,,,,,,,,,,,rot,red,r,1.0,r,1.0,0.4371021000000041,,,,,,,,,,3.0,3.0,39.0,0.0,230.4605632,,,,,,,,,,,,,,,,,230.4479471,231.66073090000003,232.4606389,232.4461164,,,,,,,,,,,,,,,,,,,,,,,,,,,,,,,,,,,232.452983,232.4606389,232.4606389,232.9147012,r,1.0,0.4371021000000041,,,,,,sub-175,1,stroop_test,59.853681689748655,
,,,,40.0,4.0,3.0,,,,,,,,,,,,,blau,yellow,g,0.0,g,1.0,0.6100626999999577,,,,,,,,,,3.0,4.0,40.0,7.0,232.92719520000003,,,,,,,,,,,,,,,,,232.9153011,233.0272153,233.8275181,233.81374700000003,,,,,,,,,,,,,,,,,,,,,,,,,,,,,,,,,,,233.8192469,233.8275181,233.8275181,234.4483607,g,1.0,0.6100626999999577,,,,,,sub-175,1,stroop_test,59.853681689748655,
,,,,41.0,5.0,3.0,,,,,,,,,,,,,blau,blue,b,1.0,b,1.0,0.508176600000013,,,,,,,,,,3.0,5.0,41.0,6.0,234.46164930000003,,,,,,,,,,,,,,,,,234.4489847,234.5611972,235.3618307,235.34633890000003,,,,,,,,,,,,,,,,,,,,,,,,,,,,,,,,,,,235.3470358,235.3618307,235.3618307,235.880311,b,1.0,0.508176600000013,,,,,,sub-175,1,stroop_test,59.853681689748655,
,,,,42.0,6.0,3.0,,,,,,,,,,,,,blau,blue,b,1.0,b,1.0,0.350755300000003,,,,,,,,,,3.0,6.0,42.0,5.0,235.8955111,,,,,,,,,,,,,,,,,235.8807272,236.6948375,237.4953253,237.4801747,,,,,,,,,,,,,,,,,,,,,,,,,,,,,,,,,,,237.4810048,237.4953253,237.4953253,237.8486347,b,1.0,0.350755300000003,,,,,,sub-175,1,stroop_test,59.853681689748655,
,,,,43.0,7.0,3.0,,,,,,,,,,,,,rot,blue,b,0.0,b,1.0,0.4088894999999866,,,,,,,,,,3.0,7.0,43.0,2.0,237.8619368,,,,,,,,,,,,,,,,,237.84917260000003,238.212607,239.01225140000005,238.997659,,,,,,,,,,,,,,,,,,,,,,,,,,,,,,,,,,,239.0032555,239.01225140000005,239.01225140000005,239.4312111,b,1.0,0.4088894999999866,,,,,,sub-175,1,stroop_test,59.853681689748655,
,,,,44.0,8.0,3.0,,,,,,,,,,,,,rot,red,r,1.0,r,1.0,0.6572332000000074,,,,,,,,,,3.0,8.0,44.0,1.0,239.4454323,,,,,,,,,,,,,,,,,239.4316397,239.54548720000005,240.3456887,240.331059,,,,,,,,,,,,,,,,,,,,,,,,,,,,,,,,,,,240.33199410000003,240.3456887,240.3456887,241.0158659,r,1.0,0.6572332000000074,,,,,,sub-175,1,stroop_test,59.853681689748655,
,,,,45.0,9.0,3.0,,,,,,,,,,,,,gelb,yellow,g,1.0,g,1.0,0.5270218,,,,,,,,,,3.0,9.0,45.0,10.0,241.0291797,,,,,,,,,,,,,,,,,241.0165505,241.1293621,241.9289954,241.91464890000003,,,,,,,,,,,,,,,,,,,,,,,,,,,,,,,,,,,241.9198893,241.9289954,241.9289954,242.4660879,g,1.0,0.5270218,,,,,,sub-175,1,stroop_test,59.853681689748655,
,,,,46.0,10.0,3.0,,,,,,,,,,,,,gelb,blue,b,0.0,b,1.0,0.7233401000000299,,,,,,,,,,3.0,10.0,46.0,9.0,242.4795836,,,,,,,,,,,,,,,,,242.4668921,242.8291156,243.6297441,243.614731,,,,,,,,,,,,,,,,,,,,,,,,,,,,,,,,,,,243.6153528,243.6297441,243.6297441,244.36595750000004,b,1.0,0.7233401000000299,,,,,,sub-175,1,stroop_test,59.853681689748655,
,,,,47.0,11.0,3.0,,,,,,,,,,,,,gelb,red,r,0.0,r,1.0,0.7110217999999691,,,,,,,,,,3.0,11.0,47.0,8.0,244.3795248,,,,,,,,,,,,,,,,,244.3664971,244.730095,245.5299081,245.5152905,,,,,,,,,,,,,,,,,,,,,,,,,,,,,,,,,,,245.5160321,245.5299081,245.5299081,246.249728,r,1.0,0.7110217999999691,,,,,,sub-175,1,stroop_test,59.853681689748655,
,,,,48.0,0.0,4.0,,,,,,,,,,,,,gelb,yellow,g,1.0,g,1.0,0.4204048999999941,,,,,,,,,,4.0,0.0,48.0,11.0,246.2637666,,,,,,,,,,,,,,,,,246.2502688,246.3636657,247.1639002,247.1488154,,,,,,,,,,,,,,,,,,,,,,,,,,,,,,,,,,,247.1495066,247.1639002,247.1639002,247.5997871,g,1.0,0.4204048999999941,,,,,,sub-175,1,stroop_test,59.853681689748655,
,,,,49.0,1.0,4.0,,,,,,,,,,,,,gelb,blue,b,0.0,b,1.0,0.3754768000000013,,,,,,,,,,4.0,1.0,49.0,9.0,247.6140656,,,,,,,,,,,,,,,,,247.6002901,248.41355880000003,249.2135978,249.1983756,,,,,,,,,,,,,,,,,,,,,,,,,,,,,,,,,,,249.1991382,249.2135978,249.2135978,249.5999092,b,1.0,0.3754768000000013,,,,,,sub-175,1,stroop_test,59.853681689748655,
,,,,50.0,2.0,4.0,,,,,,,,,,,,,gelb,yellow,g,1.0,g,1.0,0.6514684999999645,,,,,,,,,,4.0,2.0,50.0,10.0,249.6140485,,,,,,,,,,,,,,,,,249.6003983,249.9645623,250.7641557,250.74913780000003,,,,,,,,,,,,,,,,,,,,,,,,,,,,,,,,,,,250.7502409,250.7641557,250.7641557,251.4336743,g,1.0,0.6514684999999645,,,,,,sub-175,1,stroop_test,59.853681689748655,
,,,,51.0,3.0,4.0,,,,,,,,,,,,,blau,yellow,g,0.0,g,1.0,0.6181427000000213,,,,,,,,,,4.0,3.0,51.0,7.0,251.4478375,,,,,,,,,,,,,,,,,251.43434460000003,251.5479432,252.3473166,252.3332849,,,,,,,,,,,,,,,,,,,,,,,,,,,,,,,,,,,252.3393795,252.3473166,252.3473166,252.9683403,g,1.0,0.6181427000000213,,,,,,sub-175,1,stroop_test,59.853681689748655,
,,,,52.0,4.0,4.0,,,,,,,,,,,,,blau,red,r,0.0,r,1.0,0.4246777999999835,,,,,,,,,,4.0,4.0,52.0,4.0,252.981109,,,,,,,,,,,,,,,,,252.968981,254.18169720000003,254.9820264,254.9668977,,,,,,,,,,,,,,,,,,,,,,,,,,,,,,,,,,,254.9679118,254.9820264,254.9820264,255.41870720000003,r,1.0,0.4246777999999835,,,,,,sub-175,1,stroop_test,59.853681689748655,
,,,,53.0,5.0,4.0,,,,,,,,,,,,,gelb,red,r,0.0,r,1.0,0.6005758000000014,,,,,,,,,,4.0,5.0,53.0,8.0,255.4317625,,,,,,,,,,,,,,,,,255.4193037,256.6316949,257.4317851,257.4159224,,,,,,,,,,,,,,,,,,,,,,,,,,,,,,,,,,,257.4194839,257.4317851,257.4317851,258.0356933,r,1.0,0.6005758000000014,,,,,,sub-175,1,stroop_test,59.853681689748655,
,,,,54.0,6.0,4.0,,,,,,,,,,,,,rot,blue,b,0.0,b,1.0,0.7701954999999998,,,,,,,,,,4.0,6.0,54.0,2.0,258.0488423,,,,,,,,,,,,,,,,,258.0362155,259.24948570000004,260.0491019,260.0338376,,,,,,,,,,,,,,,,,,,,,,,,,,,,,,,,,,,260.03777660000003,260.0491019,260.0491019,260.8356313,b,1.0,0.7701954999999998,,,,,,sub-175,1,stroop_test,59.853681689748655,
,,,,55.0,7.0,4.0,,,,,,,,,,,,,rot,yellow,g,0.0,g,1.0,0.768389099999979,,,,,,,,,,4.0,7.0,55.0,3.0,260.8497741,,,,,,,,,,,,,,,,,260.8361521,261.1998203,261.99953550000004,261.9852399,,,,,,,,,,,,,,,,,,,,,,,,,,,,,,,,,,,261.9860963,261.99953550000004,261.99953550000004,262.7853368,g,1.0,0.768389099999979,,,,,,sub-175,1,stroop_test,59.853681689748655,
,,,,56.0,8.0,4.0,,,,,,,,,,,,,rot,red,r,1.0,r,1.0,0.5016704999999888,,,,,,,,,,4.0,8.0,56.0,1.0,262.7995381,,,,,,,,,,,,,,,,,262.78582090000003,264.0004224,264.79977080000003,264.7855601,,,,,,,,,,,,,,,,,,,,,,,,,,,,,,,,,,,264.78636140000003,264.79977080000003,264.79977080000003,265.3051676,r,1.0,0.5016704999999888,,,,,,sub-175,1,stroop_test,59.853681689748655,
,,,,57.0,9.0,4.0,,,,,,,,,,,,,blau,blue,b,1.0,b,1.0,0.6041839000000095,,,,,,,,,,4.0,9.0,57.0,5.0,265.3167214,,,,,,,,,,,,,,,,,265.3058071,266.11684560000003,266.9173999,266.9023954,,,,,,,,,,,,,,,,,,,,,,,,,,,,,,,,,,,266.9078837,266.9173999,266.9173999,267.53571700000003,b,1.0,0.6041839000000095,,,,,,sub-175,1,stroop_test,59.853681689748655,
,,,,58.0,10.0,4.0,,,,,,,,,,,,,blau,blue,b,1.0,b,1.0,0.5199609999999666,,,,,,,,,,4.0,10.0,58.0,6.0,267.5508767,,,,,,,,,,,,,,,,,267.5361371,267.9009281,268.7007789,268.68476200000003,,,,,,,,,,,,,,,,,,,,,,,,,,,,,,,,,,,268.6855059,268.7007789,268.7007789,269.23715,b,1.0,0.5199609999999666,,,,,,sub-175,1,stroop_test,59.853681689748655,
,,,,59.0,11.0,4.0,,,,,,,,,,,,,rot,red,r,1.0,r,1.0,0.5500523000000044,,,,,,,,,,4.0,11.0,59.0,0.0,269.2508539,,,,,,,,,,,,,,,,,269.237754,270.0507337,270.8513691,270.8357779,,,,,,,,,,,,,,,,,,,,,,,,,,,,,,,,,,,270.8410963,270.8513691,270.8513691,271.4049249,r,1.0,0.5500523000000044,,,,,,sub-175,1,stroop_test,59.853681689748655,
,,,,60.0,0.0,5.0,,,,,,,,,,,,,blau,blue,b,1.0,b,1.0,0.6446664999999712,,,,,,,,,,5.0,0.0,60.0,5.0,271.41791620000004,,,,,,,,,,,,,,,,,271.4055111,272.6182569,273.41794880000003,273.403655,,,,,,,,,,,,,,,,,,,,,,,,,,,,,,,,,,,273.4097817,273.41794880000003,273.41794880000003,274.0710869,b,1.0,0.6446664999999712,,,,,,sub-175,1,stroop_test,59.853681689748655,
,,,,61.0,1.0,5.0,,,,,,,,,,,,,gelb,yellow,g,1.0,g,1.0,0.5780834999999911,,,,,,,,,,5.0,1.0,61.0,11.0,274.0850762,,,,,,,,,,,,,,,,,274.0715388,274.1854387,274.9848632,274.9694062,,,,,,,,,,,,,,,,,,,,,,,,,,,,,,,,,,,274.9736156,274.9848632,274.9848632,275.5707949,g,1.0,0.5780834999999911,,,,,,sub-175,1,stroop_test,59.853681689748655,
,,,,62.0,2.0,5.0,,,,,,,,,,,,,gelb,red,r,0.0,r,1.0,0.5578130000000101,,,,,,,,,,5.0,2.0,62.0,8.0,275.5852444,,,,,,,,,,,,,,,,,275.5713971,275.9353713,276.73550470000004,276.7212935,,,,,,,,,,,,,,,,,,,,,,,,,,,,,,,,,,,276.72227050000004,276.73550470000004,276.73550470000004,277.3059104,r,1.0,0.5578130000000101,,,,,,sub-175,1,stroop_test,59.853681689748655,
,,,,63.0,3.0,5.0,,,,,,,,,,,,,blau,yellow,g,0.0,g,1.0,0.9288995,,,,,,,,,,5.0,3.0,63.0,7.0,277.3186799,,,,,,,,,,,,,,,,,277.3066601,278.1190811,278.919426,278.9044879,,,,,,,,,,,,,,,,,,,,,,,,,,,,,,,,,,,278.9097678,278.919426,278.919426,279.8555552,g,1.0,0.9288995,,,,,,sub-175,1,stroop_test,59.853681689748655,
,,,,64.0,4.0,5.0,,,,,,,,,,,,,rot,yellow,g,0.0,g,1.0,0.6101590999999758,,,,,,,,,,5.0,4.0,64.0,3.0,279.8694419,,,,,,,,,,,,,,,,,279.8560875,280.2199476,281.0198188,281.005145,,,,,,,,,,,,,,,,,,,,,,,,,,,,,,,,,,,281.0101052,281.0198188,281.0198188,281.6381326,g,1.0,0.6101590999999758,,,,,,sub-175,1,stroop_test,59.853681689748655,
,,,,65.0,5.0,5.0,,,,,,,,,,,,,rot,red,r,1.0,r,1.0,0.8807509000000096,,,,,,,,,,5.0,5.0,65.0,1.0,281.653091,,,,,,,,,,,,,,,,,281.6384497,282.8535738,283.6532769,283.63884210000003,,,,,,,,,,,,,,,,,,,,,,,,,,,,,,,,,,,283.6398899,283.6532769,283.6532769,284.5393598,r,1.0,0.8807509000000096,,,,,,sub-175,1,stroop_test,59.853681689748655,
,,,,66.0,6.0,5.0,,,,,,,,,,,,,blau,blue,b,1.0,b,1.0,0.4934219999999527,,,,,,,,,,5.0,6.0,66.0,6.0,284.5538872,,,,,,,,,,,,,,,,,284.5399671,285.3537045,286.1536478,286.1387143,,,,,,,,,,,,,,,,,,,,,,,,,,,,,,,,,,,286.1452678,286.1536478,286.1536478,286.6561884,b,1.0,0.4934219999999527,,,,,,sub-175,1,stroop_test,59.853681689748655,
,,,,67.0,7.0,5.0,,,,,,,,,,,,,gelb,yellow,g,1.0,g,1.0,0.6340145000000348,,,,,,,,,,5.0,7.0,67.0,10.0,286.6709552,,,,,,,,,,,,,,,,,286.6568789,286.7713264,287.5706425,287.5558384,,,,,,,,,,,,,,,,,,,,,,,,,,,,,,,,,,,287.5610363,287.5706425,287.5706425,288.2076163,g,1.0,0.6340145000000348,,,,,,sub-175,1,stroop_test,59.853681689748655,
,,,,68.0,8.0,5.0,,,,,,,,,,,,,blau,red,r,0.0,r,1.0,1.009797999999989,,,,,,,,,,5.0,8.0,68.0,4.0,288.2208696,,,,,,,,,,,,,,,,,288.20811630000003,288.5714519,289.371012,289.3566002,,,,,,,,,,,,,,,,,,,,,,,,,,,,,,,,,,,289.3624359,289.371012,289.371012,290.3911978,r,1.0,1.009797999999989,,,,,,sub-175,1,stroop_test,59.853681689748655,
,,,,69.0,9.0,5.0,,,,,,,,,,,,,rot,blue,b,0.0,b,1.0,0.7357446999999979,,,,,,,,,,5.0,9.0,69.0,2.0,290.4047233,,,,,,,,,,,,,,,,,290.3918975,291.20439120000003,292.0046905,291.9895875,,,,,,,,,,,,,,,,,,,,,,,,,,,,,,,,,,,291.9943712,292.0046905,292.0046905,292.7588074,b,1.0,0.7357446999999979,,,,,,sub-175,1,stroop_test,59.853681689748655,
,,,,70.0,10.0,5.0,,,,,,,,,,,,,gelb,blue,b,0.0,b,1.0,0.6820950000000039,,,,,,,,,,5.0,10.0,70.0,9.0,292.7718349,,,,,,,,,,,,,,,,,292.7593688,293.9725547,294.7721959,294.7577663,,,,,,,,,,,,,,,,,,,,,,,,,,,,,,,,,,,294.7626514,294.7721959,294.7721959,295.4584304,b,1.0,0.6820950000000039,,,,,,sub-175,1,stroop_test,59.853681689748655,
,,,,71.0,11.0,5.0,,,,,,,,,,,,,rot,red,r,1.0,r,1.0,0.8020284000000402,,,,,,,,,,5.0,11.0,71.0,0.0,295.4725936,,,,,,,,,,,,,,,,,295.4589008,295.82248400000003,296.6221906,296.60771700000004,,,,,,,,,,,,,,,,,,,,,,,,,,,,,,,,,,,296.61488330000003,296.6221906,296.6221906,297.4411458,r,1.0,0.8020284000000402,,,,,,sub-175,1,stroop_test,59.853681689748655,
,,,,72.0,0.0,6.0,,,,,,,,,,,,,blau,red,r,0.0,r,1.0,0.6050604000000135,,,,,,,,,,6.0,0.0,72.0,4.0,297.4561861,,,,,,,,,,,,,,,,,297.4416968,297.5561909,298.3560288,298.3421028,,,,,,,,,,,,,,,,,,,,,,,,,,,,,,,,,,,298.347933,298.3560288,298.3560288,298.9753719,r,1.0,0.6050604000000135,,,,,,sub-175,1,stroop_test,59.853681689748655,
,,,,73.0,1.0,6.0,,,,,,,,,,,,,gelb,red,r,0.0,r,1.0,0.3630856999999992,,,,,,,,,,6.0,1.0,73.0,8.0,298.9894989,,,,,,,,,,,,,,,,,298.9759212,299.3396999,300.1395783,300.1254668,,,,,,,,,,,,,,,,,,,,,,,,,,,,,,,,,,,300.1302032,300.1395783,300.1395783,300.5092704,r,1.0,0.3630856999999992,,,,,,sub-175,1,stroop_test,59.853681689748655,
,,,,74.0,2.0,6.0,,,,,,,,,,,,,rot,blue,b,0.0,b,1.0,0.5241822000000411,,,,,,,,,,6.0,2.0,74.0,2.0,300.5236488,,,,,,,,,,,,,,,,,300.5097483,301.7236143,302.5232265,302.5085618,,,,,,,,,,,,,,,,,,,,,,,,,,,,,,,,,,,302.5146704,302.5232265,302.5232265,303.0587274,b,1.0,0.5241822000000411,,,,,,sub-175,1,stroop_test,59.853681689748655,
,,,,75.0,3.0,6.0,,,,,,,,,,,,,gelb,yellow,g,1.0,g,1.0,0.6560852000000068,,,,,,,,,,6.0,3.0,75.0,11.0,303.0732443,,,,,,,,,,,,,,,,,303.0594127,304.2737856,305.0739351,305.05906650000003,,,,,,,,,,,,,,,,,,,,,,,,,,,,,,,,,,,305.0654112,305.0739351,305.0739351,305.7430234,g,1.0,0.6560852000000068,,,,,,sub-175,1,stroop_test,59.853681689748655,
,,,,76.0,4.0,6.0,,,,,,,,,,,,,blau,blue,b,1.0,b,1.0,0.984507600000029,,,,,,,,,,6.0,4.0,76.0,6.0,305.7573183,,,,,,,,,,,,,,,,,305.743523,306.5578224,307.3575753,307.3432283,,,,,,,,,,,,,,,,,,,,,,,,,,,,,,,,,,,307.3488096,307.3575753,307.3575753,308.3611498,b,1.0,0.984507600000029,,,,,,sub-175,1,stroop_test,59.853681689748655,
,,,,77.0,5.0,6.0,,,,,,,,,,,,,blau,yellow,g,0.0,g,1.0,0.8703732999999829,,,,,,,,,,6.0,5.0,77.0,7.0,308.3748963,,,,,,,,,,,,,,,,,308.3617578,309.5749796,310.3750565,310.36073450000004,,,,,,,,,,,,,,,,,,,,,,,,,,,,,,,,,,,310.3616965,310.3750565,310.3750565,311.2612904,g,1.0,0.8703732999999829,,,,,,sub-175,1,stroop_test,59.853681689748655,
,,,,78.0,6.0,6.0,,,,,,,,,,,,,gelb,yellow,g,1.0,g,1.0,0.607184400000051,,,,,,,,,,6.0,6.0,78.0,10.0,311.27521690000003,,,,,,,,,,,,,,,,,311.2617434,312.0756555,312.8754649,312.8608875,,,,,,,,,,,,,,,,,,,,,,,,,,,,,,,,,,,312.8655698,312.8754649,312.8754649,313.4948324,g,1.0,0.607184400000051,,,,,,sub-175,1,stroop_test,59.853681689748655,
,,,,79.0,7.0,6.0,,,,,,,,,,,,,rot,yellow,g,0.0,g,1.0,0.981960000000015,,,,,,,,,,6.0,7.0,79.0,3.0,313.5086848,,,,,,,,,,,,,,,,,313.4953848,313.60943810000003,314.4090374,314.3942986,,,,,,,,,,,,,,,,,,,,,,,,,,,,,,,,,,,314.3993284,314.4090374,314.4090374,315.395391,g,1.0,0.981960000000015,,,,,,sub-175,1,stroop_test,59.853681689748655,
,,,,80.0,8.0,6.0,,,,,,,,,,,,,rot,red,r,1.0,r,1.0,0.459471399999984,,,,,,,,,,6.0,8.0,80.0,0.0,315.4091568,,,,,,,,,,,,,,,,,315.3957789,316.6096981,317.4095477,317.3936595,,,,,,,,,,,,,,,,,,,,,,,,,,,,,,,,,,,317.39421120000003,317.4095477,317.4095477,317.8788406,r,1.0,0.459471399999984,,,,,,sub-175,1,stroop_test,59.853681689748655,
,,,,81.0,9.0,6.0,,,,,,,,,,,,,gelb,blue,b,0.0,b,1.0,0.5980624000000034,,,,,,,,,,6.0,9.0,81.0,9.0,317.892942,,,,,,,,,,,,,,,,,317.87937270000003,317.9926606,318.7928139,318.778795,,,,,,,,,,,,,,,,,,,,,,,,,,,,,,,,,,,318.7840584,318.7928139,318.7928139,319.3962416,b,1.0,0.5980624000000034,,,,,,sub-175,1,stroop_test,59.853681689748655,
,,,,82.0,10.0,6.0,,,,,,,,,,,,,rot,red,r,1.0,r,1.0,0.5075674999999933,,,,,,,,,,6.0,10.0,82.0,1.0,319.40962890000003,,,,,,,,,,,,,,,,,319.3968929,320.2103643,321.0100873,320.9959913,,,,,,,,,,,,,,,,,,,,,,,,,,,,,,,,,,,321.00102580000004,321.0100873,321.0100873,321.5295552,r,1.0,0.5075674999999933,,,,,,sub-175,1,stroop_test,59.853681689748655,
,,,,83.0,11.0,6.0,,,,,,,,,,,,,blau,blue,b,1.0,b,1.0,1.0250254999999695,,,,,,,,,,6.0,11.0,83.0,5.0,321.54355780000003,,,,,,,,,,,,,,,,,321.53005890000003,321.6437681,322.4436706,322.42854090000003,,,,,,,,,,,,,,,,,,,,,,,,,,,,,,,,,,,322.4332256,322.4436706,322.4436706,323.4800503,b,1.0,1.0250254999999695,,,,,,sub-175,1,stroop_test,59.853681689748655,
,,,,84.0,0.0,7.0,,,,,,,,,,,,,rot,blue,b,0.0,b,1.0,0.812896999999964,,,,,,,,,,7.0,0.0,84.0,2.0,323.4941344,,,,,,,,,,,,,,,,,323.4805883,324.29422040000003,325.0938466,325.0791742,,,,,,,,,,,,,,,,,,,,,,,,,,,,,,,,,,,325.0845135,325.0938466,325.0938466,325.9123589,b,1.0,0.812896999999964,,,,,,sub-175,1,stroop_test,59.853681689748655,
,,,,85.0,1.0,7.0,,,,,,,,,,,,,rot,red,r,1.0,r,1.0,0.7680483999999979,,,,,,,,,,7.0,1.0,85.0,0.0,325.9273872,,,,,,,,,,,,,,,,,325.91276170000003,326.2778035,327.0778719,327.0638276,,,,,,,,,,,,,,,,,,,,,,,,,,,,,,,,,,,327.0646382,327.0778719,327.0778719,327.8493414,r,1.0,0.7680483999999979,,,,,,sub-175,1,stroop_test,59.853681689748655,
,,,,86.0,2.0,7.0,,,,,,,,,,,,,gelb,yellow,g,1.0,g,1.0,0.7014343999999824,,,,,,,,,,7.0,2.0,86.0,10.0,327.8613881,,,,,,,,,,,,,,,,,327.84990930000004,327.96136,328.7613597,328.7475342,,,,,,,,,,,,,,,,,,,,,,,,,,,,,,,,,,,328.7533,328.7613597,328.7613597,329.46563760000004,g,1.0,0.7014343999999824,,,,,,sub-175,1,stroop_test,59.853681689748655,
,,,,87.0,3.0,7.0,,,,,,,,,,,,,blau,blue,b,1.0,b,1.0,0.8316868,,,,,,,,,,7.0,3.0,87.0,5.0,329.4786385,,,,,,,,,,,,,,,,,329.4662674,330.6789423,331.4790822,331.463472,,,,,,,,,,,,,,,,,,,,,,,,,,,,,,,,,,,331.4677751,331.4790822,331.4790822,332.3138626,b,1.0,0.8316868,,,,,,sub-175,1,stroop_test,59.853681689748655,
,,,,88.0,4.0,7.0,,,,,,,,,,,,,rot,red,r,1.0,r,1.0,0.8815947000000506,,,,,,,,,,7.0,4.0,88.0,1.0,332.3287816,,,,,,,,,,,,,,,,,332.3142345,332.6793742,333.47881340000004,333.4647886,,,,,,,,,,,,,,,,,,,,,,,,,,,,,,,,,,,333.47147340000004,333.47881340000004,333.47881340000004,334.36517160000005,r,1.0,0.8815947000000506,,,,,,sub-175,1,stroop_test,59.853681689748655,
,,,,89.0,5.0,7.0,,,,,,,,,,,,,gelb,blue,b,0.0,b,1.0,0.914164899999946,,,,,,,,,,7.0,5.0,89.0,9.0,334.37925270000005,,,,,,,,,,,,,,,,,334.365722,334.72966900000006,335.5291652,335.51666680000005,,,,,,,,,,,,,,,,,,,,,,,,,,,,,,,,,,,335.52273119999995,335.5291652,335.5291652,336.44842170000004,b,1.0,0.914164899999946,,,,,,sub-175,1,stroop_test,59.853681689748655,
,,,,90.0,6.0,7.0,,,,,,,,,,,,,blau,red,r,0.0,r,1.0,0.5404612999999472,,,,,,,,,,7.0,6.0,90.0,4.0,336.4629364,,,,,,,,,,,,,,,,,336.4490258,337.66321460000006,338.4631694,338.4475858,,,,,,,,,,,,,,,,,,,,,,,,,,,,,,,,,,,338.4523818,338.4631694,338.4631694,339.0165439,r,1.0,0.5404612999999472,,,,,,sub-175,1,stroop_test,59.853681689748655,
,,,,91.0,7.0,7.0,,,,,,,,,,,,,gelb,yellow,g,1.0,g,1.0,0.5223942000000079,,,,,,,,,,7.0,7.0,91.0,11.0,339.0301415,,,,,,,,,,,,,,,,,339.01718070000004,339.8304809,340.6301066,340.6159236,,,,,,,,,,,,,,,,,,,,,,,,,,,,,,,,,,,340.6210811,340.6301066,340.6301066,341.1670164,g,1.0,0.5223942000000079,,,,,,sub-175,1,stroop_test,59.853681689748655,
,,,,92.0,8.0,7.0,,,,,,,,,,,,,gelb,red,r,0.0,r,1.0,0.857832300000041,,,,,,,,,,7.0,8.0,92.0,8.0,341.18067010000004,,,,,,,,,,,,,,,,,341.16767200000004,341.2807692,342.0810434,342.0658101,,,,,,,,,,,,,,,,,,,,,,,,,,,,,,,,,,,342.06667600000003,342.0810434,342.0810434,342.9494925,r,1.0,0.857832300000041,,,,,,sub-175,1,stroop_test,59.853681689748655,
,,,,93.0,9.0,7.0,,,,,,,,,,,,,rot,yellow,g,0.0,g,1.0,1.009334200000012,,,,,,,,,,7.0,9.0,93.0,3.0,342.9644213,,,,,,,,,,,,,,,,,342.95004670000003,344.1644252,344.96419490000005,344.94882730000006,,,,,,,,,,,,,,,,,,,,,,,,,,,,,,,,,,,344.95281520000003,344.96419490000005,344.96419490000005,345.9841781,g,1.0,1.009334200000012,,,,,,sub-175,1,stroop_test,59.853681689748655,
,,,,94.0,10.0,7.0,,,,,,,,,,,,,blau,yellow,g,0.0,g,1.0,0.7661701000000676,,,,,,,,,,7.0,10.0,94.0,7.0,345.9981587,,,,,,,,,,,,,,,,,345.98465439999995,347.19792770000004,347.9980538,347.9828685,,,,,,,,,,,,,,,,,,,,,,,,,,,,,,,,,,,347.9878645,347.9980538,347.9980538,348.7679495,g,1.0,0.7661701000000676,,,,,,sub-175,1,stroop_test,59.853681689748655,
,,,,95.0,11.0,7.0,,,,,,,,,,,,,blau,blue,b,1.0,b,1.0,0.6873433000000659,,,,,,,,,,7.0,11.0,95.0,6.0,348.78226970000003,,,,,,,,,,,,,,,,,348.768434,348.8816184,349.68185530000005,349.66786880000006,,,,,,,,,,,,,,,,,,,,,,,,,,,,,,,,,,,349.6687489,349.68185530000005,349.68185530000005,350.3835114,b,1.0,0.6873433000000659,,,,,,sub-175,1,stroop_test,59.853681689748655,
,,,,96.0,0.0,8.0,,,,,,,,,,,,,blau,blue,b,1.0,b,1.0,0.6277417000000014,,,,,,,,,,8.0,0.0,96.0,5.0,350.3984117,,,,,,,,,,,,,,,,,350.38397469999995,351.59888220000005,352.3991307,352.38418190000004,,,,,,,,,,,,,,,,,,,,,,,,,,,,,,,,,,,352.3849129,352.3991307,352.3991307,353.0360461,b,1.0,0.6277417000000014,,,,,,sub-175,1,stroop_test,59.853681689748655,
,,,,97.0,1.0,8.0,,,,,,,,,,,,,rot,red,r,1.0,r,1.0,1.4553809000000228,,,,,,,,,,8.0,1.0,97.0,1.0,353.04914410000003,,,,,,,,,,,,,,,,,353.03666740000006,354.24934600000006,355.0493589,355.03437610000003,,,,,,,,,,,,,,,,,,,,,,,,,,,,,,,,,,,355.0400055,355.0493589,355.0493589,356.51822990000005,r,1.0,1.4553809000000228,,,,,,sub-175,1,stroop_test,59.853681689748655,
,,,,98.0,2.0,8.0,,,,,,,,,,,,,gelb,yellow,g,1.0,g,1.0,0.7554138000000421,,,,,,,,,,8.0,2.0,98.0,10.0,356.5327797,,,,,,,,,,,,,,,,,356.5189246,356.6327681,357.433593,357.4180629,,,,,,,,,,,,,,,,,,,,,,,,,,,,,,,,,,,357.4221096,357.433593,357.433593,358.20267160000003,g,1.0,0.7554138000000421,,,,,,sub-175,1,stroop_test,59.853681689748655,
,,,,99.0,3.0,8.0,,,,,,,,,,,,,blau,blue,b,1.0,b,1.0,0.488022899999919,,,,,,,,,,8.0,3.0,99.0,6.0,358.2168801,,,,,,,,,,,,,,,,,358.2032905,359.01717929999995,359.8172551,359.8021335,,,,,,,,,,,,,,,,,,,,,,,,,,,,,,,,,,,359.8066767,359.8172551,359.8172551,360.3192659,b,1.0,0.488022899999919,,,,,,sub-175,1,stroop_test,59.853681689748655,
,,,,100.0,4.0,8.0,,,,,,,,,,,,,rot,red,r,1.0,r,1.0,1.287470199999916,,,,,,,,,,8.0,4.0,100.0,0.0,360.3340343,,,,,,,,,,,,,,,,,360.3197066,360.43395640000006,361.2336483,361.21945460000006,,,,,,,,,,,,,,,,,,,,,,,,,,,,,,,,,,,361.2254424,361.2336483,361.2336483,362.5379574,r,1.0,1.287470199999916,,,,,,sub-175,1,stroop_test,59.853681689748655,
,,,,101.0,5.0,8.0,,,,,,,,,,,,,blau,red,r,0.0,r,1.0,0.7207130999998981,,,,,,,,,,8.0,5.0,101.0,4.0,362.5511139,,,,,,,,,,,,,,,,,362.5387922,362.9008,363.7008589,363.6858979,,,,,,,,,,,,,,,,,,,,,,,,,,,,,,,,,,,363.6898263000001,363.7008589,363.7008589,364.4374982000001,r,1.0,0.7207130999998981,,,,,,sub-175,1,stroop_test,59.853681689748655,
,,,,102.0,6.0,8.0,,,,,,,,,,,,,gelb,blue,b,0.0,b,1.0,0.6611803999999211,,,,,,,,,,8.0,6.0,102.0,9.0,364.4509257,,,,,,,,,,,,,,,,,364.4381231,364.8012483,365.6011111,365.5867788000001,,,,,,,,,,,,,,,,,,,,,,,,,,,,,,,,,,,365.59372700000006,365.6011111,365.6011111,366.2704207000001,b,1.0,0.6611803999999211,,,,,,sub-175,1,stroop_test,59.853681689748655,
,,,,103.0,7.0,8.0,,,,,,,,,,,,,blau,yellow,g,0.0,g,1.0,0.7906626000000188,,,,,,,,,,8.0,7.0,103.0,7.0,366.2847144,,,,,,,,,,,,,,,,,366.2709046,366.6351177,367.4348083,367.42067440000005,,,,,,,,,,,,,,,,,,,,,,,,,,,,,,,,,,,367.4265162,367.4348083,367.4348083,368.2378876,g,1.0,0.7906626000000188,,,,,,sub-175,1,stroop_test,59.853681689748655,
,,,,104.0,8.0,8.0,,,,,,,,,,,,,rot,blue,b,0.0,r,0.0,0.4742004000000861,,,,,,,,,,8.0,8.0,104.0,2.0,368.2517053,,,,,,,,,,,,,,,,,368.23868160000006,369.4521101,370.2522467,370.23849700000005,,,,,,,,,,,,,,,,,,,,,,,,,,,,,,,,,,,370.2443409,370.2522467,370.2522467,370.7386232,r,0.0,0.4742004000000861,,,,,,sub-175,1,stroop_test,59.853681689748655,
,,,,105.0,9.0,8.0,,,,,,,,,,,,,rot,yellow,g,0.0,g,1.0,0.6786157999999887,,,,,,,,,,8.0,9.0,105.0,3.0,370.7524489,,,,,,,,,,,,,,,,,370.7393806,371.9519211000001,372.7525489,372.7380252,,,,,,,,,,,,,,,,,,,,,,,,,,,,,,,,,,,372.7396277,372.7525489,372.7525489,373.4388728,g,1.0,0.6786157999999887,,,,,,sub-175,1,stroop_test,59.853681689748655,
,,,,106.0,10.0,8.0,,,,,,,,,,,,,gelb,red,r,0.0,r,1.0,0.6875701000000163,,,,,,,,,,8.0,10.0,106.0,8.0,373.4526723,,,,,,,,,,,,,,,,,373.4397182,374.6526578,375.4531502,375.438492,,,,,,,,,,,,,,,,,,,,,,,,,,,,,,,,,,,375.4424221,375.4531502,375.4531502,376.1560188,r,1.0,0.6875701000000163,,,,,,sub-175,1,stroop_test,59.853681689748655,
,,,,107.0,11.0,8.0,,,,,,,,,,,,,gelb,yellow,g,1.0,g,1.0,0.5586938000000146,,,,,,,,,,8.0,11.0,107.0,11.0,376.1699338,,,,,,,,,,,,,,,,,376.1566125000001,377.370515,378.1702242,378.155628,,,,,,,,,,,,,,,,,,,,,,,,,,,,,,,,,,,378.1565125,378.1702242,378.1702242,378.7400941,g,1.0,0.5586938000000146,,,,,,sub-175,1,stroop_test,59.853681689748655,
,,,,108.0,0.0,9.0,,,,,,,,,,,,,blau,blue,b,1.0,b,1.0,0.4063609999999471,,,,,,,,,,9.0,0.0,108.0,6.0,378.75377620000006,,,,,,,,,,,,,,,,,378.7406992,379.9543899,380.7540788,380.7398601,,,,,,,,,,,,,,,,,,,,,,,,,,,,,,,,,,,380.7450611,380.7540788,380.7540788,381.1741209000001,b,1.0,0.4063609999999471,,,,,,sub-175,1,stroop_test,59.853681689748655,
,,,,109.0,1.0,9.0,,,,,,,,,,,,,blau,red,r,0.0,r,1.0,0.6372255999999652,,,,,,,,,,9.0,1.0,109.0,4.0,381.1878964,,,,,,,,,,,,,,,,,381.1749849,381.2877686000001,382.0877842,382.0729923,,,,,,,,,,,,,,,,,,,,,,,,,,,,,,,,,,,382.07396330000006,382.0877842,382.0877842,382.74140480000005,r,1.0,0.6372255999999652,,,,,,sub-175,1,stroop_test,59.853681689748655,
,,,,110.0,2.0,9.0,,,,,,,,,,,,,blau,yellow,g,0.0,g,1.0,0.7252460999999357,,,,,,,,,,9.0,2.0,110.0,7.0,382.7546188,,,,,,,,,,,,,,,,,382.7421019,383.9549466,384.7547061,384.7404731,,,,,,,,,,,,,,,,,,,,,,,,,,,,,,,,,,,384.7422967,384.7547061,384.7547061,385.4909557,g,1.0,0.7252460999999357,,,,,,sub-175,1,stroop_test,59.853681689748655,
,,,,111.0,3.0,9.0,,,,,,,,,,,,,gelb,yellow,g,1.0,g,1.0,0.5809540000000197,,,,,,,,,,9.0,3.0,111.0,11.0,385.5048618,,,,,,,,,,,,,,,,,385.4914533,386.3054681,387.1050256,387.0902875,,,,,,,,,,,,,,,,,,,,,,,,,,,,,,,,,,,387.0948795000001,387.1050256,387.1050256,387.6909191,g,1.0,0.5809540000000197,,,,,,sub-175,1,stroop_test,59.853681689748655,
,,,,112.0,4.0,9.0,,,,,,,,,,,,,rot,yellow,g,0.0,r,0.0,1.022505600000045,,,,,,,,,,9.0,4.0,112.0,3.0,387.7054895,,,,,,,,,,,,,,,,,387.6915565000001,387.8055224,388.60539530000005,388.5908047,,,,,,,,,,,,,,,,,,,,,,,,,,,,,,,,,,,388.5970786,388.60539530000005,388.60539530000005,389.64182660000006,r,0.0,1.022505600000045,,,,,,sub-175,1,stroop_test,59.853681689748655,
,,,,113.0,5.0,9.0,,,,,,,,,,,,,rot,blue,b,0.0,b,1.0,0.7982183999999961,,,,,,,,,,9.0,5.0,113.0,2.0,389.6556117,,,,,,,,,,,,,,,,,389.6424815,390.8560839,391.655701,391.6401496,,,,,,,,,,,,,,,,,,,,,,,,,,,,,,,,,,,391.6406467000001,391.655701,391.655701,392.4591354,b,1.0,0.7982183999999961,,,,,,sub-175,1,stroop_test,59.853681689748655,
,,,,114.0,6.0,9.0,,,,,,,,,,,,,gelb,red,r,0.0,r,1.0,0.7110517999999502,,,,,,,,,,9.0,6.0,114.0,8.0,392.4732831,,,,,,,,,,,,,,,,,392.45960090000005,393.2733094,394.073032,394.0582946,,,,,,,,,,,,,,,,,,,,,,,,,,,,,,,,,,,394.0643076,394.073032,394.073032,394.79257630000006,r,1.0,0.7110517999999502,,,,,,sub-175,1,stroop_test,59.853681689748655,
,,,,115.0,7.0,9.0,,,,,,,,,,,,,gelb,blue,b,0.0,b,1.0,0.8710863999999674,,,,,,,,,,9.0,7.0,115.0,9.0,394.80671530000006,,,,,,,,,,,,,,,,,394.7930997,394.9067944,395.7068464,395.6922534,,,,,,,,,,,,,,,,,,,,,,,,,,,,,,,,,,,395.693185,395.7068464,395.7068464,396.5932002,b,1.0,0.8710863999999674,,,,,,sub-175,1,stroop_test,59.853681689748655,
,,,,116.0,8.0,9.0,,,,,,,,,,,,,rot,red,r,1.0,r,1.0,1.292845400000033,,,,,,,,,,9.0,8.0,116.0,0.0,396.6068599,,,,,,,,,,,,,,,,,396.5937283,396.7071155,397.5067829,397.4920096,,,,,,,,,,,,,,,,,,,,,,,,,,,,,,,,,,,397.4971692,397.5067829,397.5067829,398.8101846,r,1.0,1.292845400000033,,,,,,sub-175,1,stroop_test,59.853681689748655,
,,,,117.0,9.0,9.0,,,,,,,,,,,,,blau,blue,b,1.0,b,1.0,0.7615531000000146,,,,,,,,,,9.0,9.0,117.0,5.0,398.8240203,,,,,,,,,,,,,,,,,398.81071770000005,400.0242932,400.8241075,400.8100448,,,,,,,,,,,,,,,,,,,,,,,,,,,,,,,,,,,400.8172432,400.8241075,400.8241075,401.5945228000001,b,1.0,0.7615531000000146,,,,,,sub-175,1,stroop_test,59.853681689748655,
,,,,118.0,10.0,9.0,,,,,,,,,,,,,rot,red,r,1.0,r,1.0,1.0526347999999643,,,,,,,,,,9.0,10.0,118.0,1.0,401.6075832,,,,,,,,,,,,,,,,,401.5952106,401.9574526,402.757699,402.7425075,,,,,,,,,,,,,,,,,,,,,,,,,,,,,,,,,,,402.7488582,402.757699,402.757699,403.8271561,r,1.0,1.0526347999999643,,,,,,sub-175,1,stroop_test,59.853681689748655,
,,,,119.0,11.0,9.0,,,,,,,,,,,,,gelb,yellow,g,1.0,g,1.0,0.7013267000000951,,,,,,,,,,9.0,11.0,119.0,10.0,403.8414134,,,,,,,,,,,,,,,,,403.8276163000001,404.6420893,405.4416976,405.4273758000001,,,,,,,,,,,,,,,,,,,,,,,,,,,,,,,,,,,405.43218750000005,405.4416976,405.4416976,406.1459707,g,1.0,0.7013267000000951,,,,,,sub-175,1,stroop_test,59.853681689748655,
,,,,,,,,,,,,,,,,,,,,,,,,,,,,,,,,,,,,,,,,,,,,,,,,,,,,,,,,,,,,,,,,,,,,,,,,,,,,,,,,,,,,,,,,,,,,,,,,,,,,,,406.1462016,406.1585506,411.1598874,411.1453724,sub-175,1,stroop_test,59.853681689748655,
