direction,corrAns,randomInstr,practice_trials.thisRepN,practice_trials.thisTrialN,practice_trials.thisN,practice_trials.thisIndex,instr_trials.thisRepN,instr_trials.thisTrialN,instr_trials.thisN,instr_trials.thisIndex,test_trials.thisRepN,test_trials.thisTrialN,test_trials.thisN,test_trials.thisIndex,thisRow.t,notes,general_instruction.started,textGeneralInstr.started,respGeneralInstr.started,general_instruction.stopped,respGeneralInstr.keys,respGeneralInstr.rt,respGeneralInstr.duration,ITI.started,fixcross.started,fixcross.stopped,ITI.stopped,dots.started,backgroundDots.started,stimulusDots.started,respDots.started,stimulusDots.stopped,dots.stopped,respDots.keys,respDots.corr,respDots.rt,respDots.duration,feedback.started,textFeedback.started,textFeedback.stopped,feedback.stopped,info.started,textInfo.started,keyRespInfo.started,info.stopped,keyRespInfo.keys,keyRespInfo.rt,keyRespInfo.duration,test_instruction.started,textTestInstr.started,respTestInstr.started,test_instruction.stopped,respTestInstr.keys,respTestInstr.rt,respTestInstr.duration,random_instruction.started,textRandomInstr.started,respRandomInstr.started,random_instruction.stopped,respRandomInstr.keys,respRandomInstr.rt,respRandomInstr.duration,goodbye.started,textGoodbye.started,textGoodbye.stopped,goodbye.stopped,participant,session,expName,frameRate,Unnamed: 74
,,,,,,,,,,,,,,,,,0.0064721999224275,0.0158836999908089,0.0158836999908089,44.52713340008631,space,64.19829480000772,,,,,,,,,,,,,,,,,,,,,,,,,,,,,,,,,,,,,,,,,,,,,sub-053,1.0,random_dot,60.05775158213808,
right,right,,0.0,0.0,0.0,1.0,,,,,,,,,44.58826279989444,,,,,,,,,44.58248810004443,44.64277229993604,45.442593900021166,45.42626160010696,45.426281299907714,45.442593900021166,45.442593900021166,45.442593900021166,50.42511019995436,60.29170989990234,left,0.0,34.538541099987924,,60.292409900110215,60.30713999993168,60.80711840000004,60.79106270009652,,,,,,,,,,,,,,,,,,,,,,,,,,sub-053,1.0,random_dot,60.05775158213808,
left,left,,0.0,1.0,1.0,0.0,,,,,,,,,60.80711840000004,,,,,,,,,60.791373200016096,61.99180689989589,62.80694400006905,62.7907626000233,62.79078199993819,62.80694400006905,62.80694400006905,62.80694400006905,,67.15723280003294,right,0.0,24.035506500164047,,67.15774940000847,67.1731821000576,67.67316349991597,67.65681899990886,,,,,,,,,,,,,,,,,,,,,,,,,,sub-053,1.0,random_dot,60.05775158213808,
left,left,,1.0,0.0,2.0,0.0,,,,,,,,,67.67316349991597,,,,,,,,,67.65717140003107,67.77283610007726,68.57271669991314,68.55690720002167,68.55692530004308,68.57271669991314,68.57271669991314,68.57271669991314,73.57239219988696,73.87386980000883,right,0.0,24.996916899923235,,73.8743426001165,73.88872070005164,74.38875670009293,74.37271960009821,,,,,,,,,,,,,,,,,,,,,,,,,,sub-053,1.0,random_dot,60.05775158213808,
right,right,,1.0,1.0,3.0,1.0,,,,,,,,,74.38875670009293,,,,,,,,,74.37309179990552,74.48894910002127,75.28879230003804,75.27277479995973,75.27279990003444,75.28879230003804,75.28879230003804,75.28879230003804,80.28815190005116,81.17227929993533,right,1.0,25.572450899984688,,81.17278930009343,81.18771869991906,81.68772629997693,81.67191009991802,,,,,,,,,,,,,,,,,,,,,,,,,,sub-053,1.0,random_dot,60.05775158213808,
right,right,,2.0,0.0,4.0,1.0,,,,,,,,,81.68772629997693,,,,,,,,,81.67228769999929,82.88758530002087,83.68800690001808,83.67175070010126,83.67177779995836,83.68800690001808,83.68800690001808,83.68800690001808,88.68714140006341,89.30472310003825,left,0.0,25.303592800162733,,89.30537620000541,89.320375100011,89.82021980010904,89.80437100003473,,,,,,,,,,,,,,,,,,,,,,,,,,sub-053,1.0,random_dot,60.05775158213808,
left,left,,2.0,1.0,5.0,0.0,,,,,,,,,89.82021980010904,,,,,,,,,89.80483200005256,90.1701783000026,90.97018559998833,90.95421090000308,90.95423669996671,90.97018559998833,90.97018559998833,90.97018559998833,95.96938630007207,98.3869507999625,right,0.0,27.100857800105587,,98.38755599991418,98.40254910010844,98.9024980000686,98.88631669990718,,,,,,,,,,,,,,,,,,,,,,,,,,sub-053,1.0,random_dot,60.05775158213808,
right,right,,3.0,0.0,6.0,1.0,,,,,,,,,98.9024980000686,,,,,,,,,98.88677620003,99.25241410010494,100.0523947000038,100.03661759989336,100.03664629999548,100.0523947000038,100.0523947000038,100.0523947000038,105.05162329995072,106.28537519997916,right,1.0,25.916184100089595,,106.28587009990588,106.30131149990484,106.80131069989876,106.78536699991672,,,,,,,,,,,,,,,,,,,,,,,,,,sub-053,1.0,random_dot,60.05775158213808,
left,left,,3.0,1.0,7.0,0.0,,,,,,,,,106.80131069989876,,,,,,,,,106.78575529996306,107.15103340009227,107.9513769999612,107.9353598000016,107.93538519996218,107.9513769999612,107.9513769999612,107.9513769999612,,112.25185290002264,left,1.0,23.99530189996585,,112.2524776000064,112.26747449999677,112.76707349997014,112.75116349989548,,,,,,,,,,,,,,,,,,,,,,,,,,sub-053,1.0,random_dot,60.05775158213808,
right,right,,4.0,0.0,8.0,1.0,,,,,,,,,112.76707349997014,,,,,,,,,112.751576700015,112.86732499999924,113.66728119994514,113.65110670006834,113.65113059990108,113.66728119994514,113.66728119994514,113.66728119994514,,117.35126219992526,left,0.0,23.375898800091814,,117.35184079990722,117.36658610007726,117.86666520009749,117.85067000007255,,,,,,,,,,,,,,,,,,,,,,,,,,sub-053,1.0,random_dot,60.05775158213808,
left,left,,4.0,1.0,9.0,0.0,,,,,,,,,117.86666520009749,,,,,,,,,117.85108199995013,117.96646660007536,118.76668959995732,118.75055030011572,118.75057890010066,118.76668959995732,118.76668959995732,118.76668959995732,123.7657602999825,124.2502039000392,right,0.0,25.167854799889028,,124.2506979999598,124.26565570011736,124.7657073000446,124.74992379988544,,,,,,,,,,,,,,,,,,,,,,,,,,sub-053,1.0,random_dot,60.05775158213808,
right,right,,5.0,0.0,10.0,1.0,,,,,,,,,124.7657073000446,,,,,,,,,124.75034789997152,125.96571739995852,126.76556070009246,126.74949220009148,126.74951649992728,126.76556070009246,126.76556070009246,126.76556070009246,131.7650266001001,133.6823744000867,right,1.0,26.60701039992273,,133.6829991999548,133.69808820006438,134.19791109999642,134.18194080004469,,,,,,,,,,,,,,,,,,,,,,,,,,sub-053,1.0,random_dot,60.05775158213808,
left,left,,5.0,1.0,11.0,0.0,,,,,,,,,134.19791109999642,,,,,,,,,134.18240990000777,134.54799650004134,135.34774139989167,135.33186240005307,135.3318851001095,135.34774139989167,135.34774139989167,135.34774139989167,140.34730640007183,141.08206059993245,right,0.0,25.42208340018988,,141.08276770007797,141.09718809998594,141.5972335000988,141.5812063999474,,,,,,,,,,,,,,,,,,,,,,,,,,sub-053,1.0,random_dot,60.05775158213808,
left,left,,6.0,0.0,12.0,0.0,,,,,,,,,141.5972335000988,,,,,,,,,141.58170700003393,141.94719560001977,142.74672980001196,142.7306445001159,142.73066179989837,142.74672980001196,142.74672980001196,142.74672980001196,,146.69739239988849,left,1.0,23.63363100006245,,146.69797590002418,146.71309389988892,147.21302850008942,147.1970355999656,,,,,,,,,,,,,,,,,,,,,,,,,,sub-053,1.0,random_dot,60.05775158213808,
right,right,,6.0,1.0,13.0,1.0,,,,,,,,,147.21302850008942,,,,,,,,,147.19744720007293,148.41285769990645,149.21247170004062,149.1967523000203,149.196774299955,149.21247170004062,149.21247170004062,149.21247170004062,,153.07997220009565,right,1.0,23.555088500259444,,153.08062810008414,153.0955360000953,153.59559489996172,153.57947909994982,,,,,,,,,,,,,,,,,,,,,,,,,,sub-053,1.0,random_dot,60.05775158213808,
right,right,,7.0,0.0,14.0,1.0,,,,,,,,,153.59559489996172,,,,,,,,,153.57997009996325,154.39530929992907,155.19533260003664,155.17897669994272,155.1789965000935,155.19533260003664,155.19533260003664,155.19533260003664,,158.5121607000474,right,1.0,23.006242000032216,,158.51262570009567,158.52813500002958,159.02820249996148,159.01227489998564,,,,,,,,,,,,,,,,,,,,,,,,,,sub-053,1.0,random_dot,60.05775158213808,
left,left,,7.0,1.0,15.0,0.0,,,,,,,,,159.02820249996148,,,,,,,,,159.01271350006573,159.12826059991494,159.92799389990978,159.91190510010347,159.91192839993164,159.92799389990978,159.92799389990978,159.92799389990978,164.9274665999692,165.82851559994742,right,0.0,25.583366699982435,,165.82915619993582,165.84401999996044,166.34436560003087,166.3278218000196,,,,,,,,,,,,,,,,,,,,,,,,,,sub-053,1.0,random_dot,60.05775158213808,
right,right,,8.0,0.0,16.0,1.0,,,,,,,,,166.34436560003087,,,,,,,,,166.3283037999645,167.54399239993654,168.34364220011048,168.32796170003712,168.3279893998988,168.34364220011048,168.34364220011048,168.34364220011048,,171.96138109988533,right,1.0,23.304509800160304,,171.9621133999899,171.97666719998233,172.47671249997802,172.46077680005692,,,,,,,,,,,,,,,,,,,,,,,,,,sub-053,1.0,random_dot,60.05775158213808,
left,left,,8.0,1.0,17.0,0.0,,,,,,,,,172.47671249997802,,,,,,,,,172.46130810002796,173.67629220010713,174.4760050000623,174.46019120002163,174.46022520004772,174.4760050000623,174.4760050000623,174.4760050000623,,176.74298399989493,left,1.0,21.950882600154728,,176.7434745999053,176.75904530007392,177.25911509990692,177.24302719999105,,,,,,,,,,,,,,,,,,,,,,,,,,sub-053,1.0,random_dot,60.05775158213808,
right,right,,9.0,0.0,18.0,1.0,,,,,,,,,177.25911509990692,,,,,,,,,177.24341950006783,177.60918139992282,178.40914919995703,178.3935551000759,178.3935855999589,178.40914919995703,178.40914919995703,178.40914919995703,,181.32738150004295,right,1.0,22.60441659996286,,181.3282820000313,181.3425628999248,181.841811100021,181.82572340010665,,,,,,,,,,,,,,,,,,,,,,,,,,sub-053,1.0,random_dot,60.05775158213808,
left,left,,9.0,1.0,19.0,0.0,,,,,,,,,181.841811100021,,,,,,,,,181.82614920008928,182.6418687000405,183.44156239996664,183.4254940999672,183.4255154998973,183.44156239996664,183.44156239996664,183.44156239996664,,185.9093770999461,left,1.0,22.16221039998345,,185.9101102000568,185.92496820003728,186.42470919992772,186.40897070011124,,,,,,,,,,,,,,,,,,,,,,,,,,sub-053,1.0,random_dot,60.05775158213808,
,,,,,,,,,,,,,,,,,,,,,,,,,,,,,,,,,,,,,,,,,,186.40904830000363,186.42470919992772,186.42470919992772,197.17471730010584,space,30.441873900126662,,,,,,,,,,,,,,,,,,,,sub-053,1.0,random_dot,60.05775158213808,
,,,,,,,,,,,,,,,,,,,,,,,,,,,,,,,,,,,,,,,,,,,,,,,,,197.17475549993105,197.189838899998,197.189838899998,201.9734811999369,space,24.4765598999802,,,,,,,,,,,,,sub-053,1.0,random_dot,60.05775158213808,
right,right,speed,,,,,0.0,0.0,0.0,1.0,0.0,0.0,0.0,1.0,204.77241360000332,,,,,,,,,204.7644817000255,205.571913599968,206.37211430002932,206.3561960000079,206.35622039996088,206.37211430002932,206.37211430002932,206.37211430002932,,207.0900357000064,left,0.0,20.40990049997345,,,,,,,,,,,,,,,,,,,,201.97815639991316,201.99601170001552,201.99601170001552,204.75669090007432,space,22.441465800162405,,,,,,sub-053,1.0,random_dot,60.05775158213808,
left,left,speed,,,,,0.0,0.0,0.0,1.0,0.0,1.0,1.0,0.0,207.1052931000013,,,,,,,,,207.0914735000115,207.20544299995527,208.00538580003197,207.98937009996732,207.98939309990965,208.00538580003197,208.00538580003197,208.00538580003197,,209.12261419999413,right,0.0,20.802919200155884,,,,,,,,,,,,,,,,,,,,,,,,,,,,,,,sub-053,1.0,random_dot,60.05775158213808,
left,left,speed,,,,,0.0,0.0,0.0,1.0,1.0,0.0,2.0,0.0,209.13827580004,,,,,,,,,209.123670599889,209.4883729000576,210.28816980007105,210.27233680011705,210.2723624999635,210.28816980007105,210.28816980007105,210.28816980007105,,211.28929929994047,left,1.0,20.69016220001504,,,,,,,,,,,,,,,,,,,,,,,,,,,,,,,sub-053,1.0,random_dot,60.05775158213808,
right,right,speed,,,,,0.0,0.0,0.0,1.0,1.0,1.0,3.0,1.0,211.3048799999524,,,,,,,,,211.2904207999818,211.65465670009144,212.45492619997825,212.4391471999697,212.4391773000825,212.45492619997825,212.45492619997825,212.45492619997825,,214.7888915000949,right,1.0,22.028904400067404,,,,,,,,,,,,,,,,,,,,,,,,,,,,,,,sub-053,1.0,random_dot,60.05775158213808,
left,left,speed,,,,,0.0,0.0,0.0,1.0,2.0,0.0,4.0,0.0,214.80448379996236,,,,,,,,,214.79012260003947,215.6042039000895,216.40400510001928,216.38803829997775,216.3880561001133,216.40400510001928,216.40400510001928,216.40400510001928,,218.4388455001172,left,1.0,21.730249600019302,,,,,,,,,,,,,,,,,,,,,,,,,,,,,,,sub-053,1.0,random_dot,60.05775158213808,
right,right,speed,,,,,0.0,0.0,0.0,1.0,2.0,1.0,5.0,1.0,218.45391630008817,,,,,,,,,218.44010889995843,218.80355650000277,219.60386150004345,219.58777379989624,219.58779560006224,219.60386150004345,219.60386150004345,219.60386150004345,,222.4544589999132,left,0.0,22.544578300090507,,,,,,,,,,,,,,,,,,,,,,,,,,,,,,,sub-053,1.0,random_dot,60.05775158213808,
right,right,speed,,,,,0.0,0.0,0.0,1.0,3.0,0.0,6.0,1.0,222.4700581999496,,,,,,,,,222.45562210003845,223.26997609995303,224.06993509992023,224.05383080011237,224.05385380005464,224.06993509992023,224.06993509992023,224.06993509992023,,226.8709368999116,right,1.0,22.496866200119257,,,,,,,,,,,,,,,,,,,,,,,,,,,,,,,sub-053,1.0,random_dot,60.05775158213808,
left,left,speed,,,,,0.0,0.0,0.0,1.0,3.0,1.0,7.0,0.0,226.88610469992275,,,,,,,,,226.87191269989123,227.23601859994235,228.0359817000572,228.02015460003167,228.02017710008656,228.0359817000572,228.0359817000572,228.0359817000572,,232.81936029996723,left,1.0,24.46451730025001,,,,,,,,,,,,,,,,,,,,,,,,,,,,,,,sub-053,1.0,random_dot,60.05775158213808,
left,left,speed,,,,,0.0,0.0,0.0,1.0,4.0,0.0,8.0,0.0,232.83540680003352,,,,,,,,,232.82024260004985,233.1852800000925,233.98497830005363,233.96919739991424,233.9692152000498,233.98497830005363,233.98497830005363,233.98497830005363,,236.73625730001368,right,0.0,22.443200800102204,,,,,,,,,,,,,,,,,,,,,,,,,,,,,,,sub-053,1.0,random_dot,60.05775158213808,
right,right,speed,,,,,0.0,0.0,0.0,1.0,4.0,1.0,9.0,1.0,236.75179370003752,,,,,,,,,236.7375427000225,237.55148479994384,238.35122839990072,238.33527659997344,238.33529830002223,238.35122839990072,238.35122839990072,238.35122839990072,,241.0018625000957,left,0.0,22.33152710017748,,,,,,,,,,,,,,,,,,,,,,,,,,,,,,,sub-053,1.0,random_dot,60.05775158213808,
left,left,speed,,,,,0.0,0.0,0.0,1.0,5.0,0.0,10.0,0.0,241.01770749990828,,,,,,,,,241.0029635999817,241.3677584999241,242.16760509996675,242.1514852999244,242.15150590008125,242.16760509996675,242.16760509996675,242.16760509996675,,244.68977560009807,left,1.0,22.21487669995986,,,,,,,,,,,,,,,,,,,,,,,,,,,,,,,sub-053,1.0,random_dot,60.05775158213808,
right,right,speed,,,,,0.0,0.0,0.0,1.0,5.0,1.0,11.0,1.0,244.70142910000868,,,,,,,,,244.6928991000168,245.5004815000575,246.30041870009157,246.2845995998941,246.28462440008295,246.30041870009157,246.30041870009157,246.30041870009157,,248.61794280004688,right,1.0,22.01105780014768,,,,,,,,,,,,,,,,,,,,,,,,,,,,,,,sub-053,1.0,random_dot,60.05775158213808,
left,left,speed,,,,,0.0,0.0,0.0,1.0,6.0,0.0,12.0,0.0,248.63350989995524,,,,,,,,,248.6191124001052,249.43340669991449,250.23318340000696,250.21722130011767,250.21724410005845,250.23318340000696,250.23318340000696,250.23318340000696,,253.8673819999676,left,1.0,23.327156600309536,,,,,,,,,,,,,,,,,,,,,,,,,,,,,,,sub-053,1.0,random_dot,60.05775158213808,
right,right,speed,,,,,0.0,0.0,0.0,1.0,6.0,1.0,13.0,1.0,253.88284080009907,,,,,,,,,253.86858380003832,255.082821500022,255.8828891001176,255.8670934000984,255.86712480010465,255.8828891001176,255.8828891001176,255.8828891001176,260.88202330004424,261.1996208999772,left,0.0,24.999985800124705,,,,,,,,,,,,,,,,,,,,,,,,,,,,,,,sub-053,1.0,random_dot,60.05775158213808,
right,right,speed,,,,,0.0,0.0,0.0,1.0,7.0,0.0,14.0,1.0,261.2149426001124,,,,,,,,,261.2005511999596,261.5480547999032,262.34844599990174,262.33225050009787,262.3322829001117,262.34844599990174,262.34844599990174,262.34844599990174,,266.13212079997174,right,1.0,23.4684274001047,,,,,,,,,,,,,,,,,,,,,,,,,,,,,,,sub-053,1.0,random_dot,60.05775158213808,
left,left,speed,,,,,0.0,0.0,0.0,1.0,7.0,1.0,15.0,0.0,266.1478170999326,,,,,,,,,266.13324730005115,266.94785719993524,267.7478396000806,267.73174569988623,267.73177159996703,267.7478396000806,267.7478396000806,267.7478396000806,,270.4487685000058,left,1.0,22.39329480007291,,,,,,,,,,,,,,,,,,,,,,,,,,,,,,,sub-053,1.0,random_dot,60.05775158213808,
right,right,speed,,,,,0.0,0.0,0.0,1.0,8.0,0.0,16.0,1.0,270.4641978999134,,,,,,,,,270.45024790009484,271.2637034000363,272.0634822999127,272.0475598999765,272.0475767001044,272.0634822999127,272.0634822999127,272.0634822999127,,275.1976805001032,right,1.0,22.826917600119486,,,,,,,,,,,,,,,,,,,,,,,,,,,,,,,sub-053,1.0,random_dot,60.05775158213808,
left,left,speed,,,,,0.0,0.0,0.0,1.0,8.0,1.0,17.0,0.0,275.2132250999566,,,,,,,,,275.1988119999878,275.31336740008555,276.1131748999469,276.0972615999636,276.0972845000215,276.1131748999469,276.1131748999469,276.1131748999469,,279.79703889996745,left,1.0,23.37168180011213,,,,,,,,,,,,,,,,,,,,,,,,,,,,,,,sub-053,1.0,random_dot,60.05775158213808,
right,right,speed,,,,,0.0,0.0,0.0,1.0,9.0,0.0,18.0,1.0,279.812754600076,,,,,,,,,279.7982548000291,280.6127019999549,281.41266970010474,281.3963434000034,281.3963625999168,281.41266970010474,281.41266970010474,281.41266970010474,,285.89651939994656,right,1.0,24.175901500042528,,,,,,,,,,,,,,,,,,,,,,,,,,,,,,,sub-053,1.0,random_dot,60.05775158213808,
left,left,speed,,,,,0.0,0.0,0.0,1.0,9.0,1.0,19.0,0.0,285.912012899993,,,,,,,,,285.8976924000308,286.2619515999686,287.06171309994534,287.0456731999293,287.0456912000664,287.06171309994534,287.06171309994534,287.06171309994534,,288.1959128000308,left,1.0,20.82854719995521,,,,,,,,,,,,,,,,,,,,,,,,,,,,,,,sub-053,1.0,random_dot,60.05775158213808,
right,right,speed,,,,,0.0,0.0,0.0,1.0,10.0,0.0,20.0,1.0,288.2116904000286,,,,,,,,,288.19685439998284,289.0116063999012,289.8114312000107,289.7956101000309,289.7956322000828,289.8114312000107,289.8114312000107,289.8114312000107,,293.06380750006065,right,1.0,22.94067470007576,,,,,,,,,,,,,,,,,,,,,,,,,,,,,,,sub-053,1.0,random_dot,60.05775158213808,
left,left,speed,,,,,0.0,0.0,0.0,1.0,10.0,1.0,21.0,0.0,293.07888919999823,,,,,,,,,293.0654899000656,293.1789667999837,293.99496480007656,293.97901410004124,293.9790294999257,293.99496480007656,293.99496480007656,293.99496480007656,,295.34806880005635,left,1.0,21.04638559999876,,,,,,,,,,,,,,,,,,,,,,,,,,,,,,,sub-053,1.0,random_dot,60.05775158213808,
left,left,speed,,,,,0.0,0.0,0.0,1.0,11.0,0.0,22.0,0.0,295.36182240000926,,,,,,,,,295.34991790005006,296.5620110000018,297.3635001000948,297.34597470005974,297.3460089999717,297.3635001000948,297.3635001000948,297.3635001000948,,299.2940819999203,left,1.0,21.62107270024717,,,,,,,,,,,,,,,,,,,,,,,,,,,,,,,sub-053,1.0,random_dot,60.05775158213808,
right,right,speed,,,,,0.0,0.0,0.0,1.0,11.0,1.0,23.0,1.0,299.31008620001376,,,,,,,,,299.29484570003115,299.6605732999742,300.4599087999668,300.4440365000628,300.4440554000903,300.4599087999668,300.4599087999668,300.4599087999668,,302.4455625999253,right,1.0,21.67908799997531,,,,,,,,,,,,,,,,,,,,,,,,,,,,,,,sub-053,1.0,random_dot,60.05775158213808,
left,left,speed,,,,,0.0,0.0,0.0,1.0,12.0,0.0,24.0,0.0,302.46024710009806,,,,,,,,,302.4471084000543,302.55978840007447,303.359655499924,303.3439521000255,303.3439750999678,303.359655499924,303.359655499924,303.359655499924,,306.0767896000761,left,1.0,22.39822839992121,,,,,,,,,,,,,,,,,,,,,,,,,,,,,,,sub-053,1.0,random_dot,60.05775158213808,
right,right,speed,,,,,0.0,0.0,0.0,1.0,12.0,1.0,25.0,1.0,306.0928799000103,,,,,,,,,306.0776523000095,307.2927095999476,308.0926614000928,308.0765623000916,308.0765891999472,308.0926614000928,308.0926614000928,308.0926614000928,,309.9934328000527,right,1.0,21.58958970010281,,,,,,,,,,,,,,,,,,,,,,,,,,,,,,,sub-053,1.0,random_dot,60.05775158213808,
left,left,speed,,,,,0.0,0.0,0.0,1.0,13.0,0.0,26.0,0.0,310.0090840999037,,,,,,,,,309.9946320001036,310.8089833999984,311.6087285000831,311.59282479994,311.59285630006343,311.6087285000831,311.6087285000831,311.6087285000831,,316.19272119994275,left,1.0,24.27207720000297,,,,,,,,,,,,,,,,,,,,,,,,,,,,,,,sub-053,1.0,random_dot,60.05775158213808,
right,right,speed,,,,,0.0,0.0,0.0,1.0,13.0,1.0,27.0,1.0,316.20828439993784,,,,,,,,,316.19391419994645,317.007947999984,317.8078312999569,317.7919298999477,317.79194999998435,317.8078312999569,317.8078312999569,317.8078312999569,,321.1751502000261,right,1.0,23.04796830005944,,,,,,,,,,,,,,,,,,,,,,,,,,,,,,,sub-053,1.0,random_dot,60.05775158213808,
left,left,speed,,,,,0.0,0.0,0.0,1.0,14.0,0.0,28.0,0.0,321.1909825000912,,,,,,,,,321.1762353000231,321.2909486000426,322.09045940008946,322.0745926001109,322.074610499898,322.09045940008946,322.09045940008946,322.09045940008946,,323.1079734999221,left,1.0,20.70381400012411,,,,,,,,,,,,,,,,,,,,,,,,,,,,,,,sub-053,1.0,random_dot,60.05775158213808,
right,right,speed,,,,,0.0,0.0,0.0,1.0,14.0,1.0,29.0,1.0,323.1239608998876,,,,,,,,,323.10890239989385,323.22366410004906,324.0237708000932,324.0079167999793,324.0079504000023,324.0237708000932,324.0237708000932,324.0237708000932,,324.90852429997176,right,1.0,20.57806140021421,,,,,,,,,,,,,,,,,,,,,,,,,,,,,,,sub-053,1.0,random_dot,60.05775158213808,
left,left,speed,,,,,0.0,0.0,0.0,1.0,15.0,0.0,30.0,0.0,324.92373410006985,,,,,,,,,324.9097589000594,326.12336730002426,326.9233566999901,326.90744260000065,326.907461799914,326.9233566999901,326.9233566999901,326.9233566999901,,330.99086889997125,left,1.0,23.75534030026756,,,,,,,,,,,,,,,,,,,,,,,,,,,,,,,sub-053,1.0,random_dot,60.05775158213808,
right,right,speed,,,,,0.0,0.0,0.0,1.0,15.0,1.0,31.0,1.0,331.0065274001099,,,,,,,,,330.9921277000103,331.806401199894,332.6061124999542,332.59008680004627,332.59011090011336,332.6061124999542,332.6061124999542,332.6061124999542,,334.4236566999461,right,1.0,21.51272020023316,,,,,,,,,,,,,,,,,,,,,,,,,,,,,,,sub-053,1.0,random_dot,60.05775158213808,
right,right,speed,,,,,0.0,0.0,0.0,1.0,16.0,0.0,32.0,1.0,334.4393515998963,,,,,,,,,334.4247584999539,334.78928570006974,335.5891543000471,335.5730576000642,335.5730820000172,335.5891543000471,335.5891543000471,335.5891543000471,,337.8065432999283,right,1.0,21.90504470001906,,,,,,,,,,,,,,,,,,,,,,,,,,,,,,,sub-053,1.0,random_dot,60.05775158213808,
left,left,speed,,,,,0.0,0.0,0.0,1.0,16.0,1.0,33.0,0.0,337.82210050011054,,,,,,,,,337.80776780005544,338.62204260006547,339.42183010000736,339.4055236000568,339.40554050006904,339.42183010000736,339.42183010000736,339.42183010000736,,340.3226624999661,left,1.0,20.58464810019359,,,,,,,,,,,,,,,,,,,,,,,,,,,,,,,sub-053,1.0,random_dot,60.05775158213808,
left,left,speed,,,,,0.0,0.0,0.0,1.0,17.0,0.0,34.0,0.0,340.3382623998914,,,,,,,,,340.32355320011266,341.13816879992373,341.9382488001138,341.92218789993785,341.92221119999886,341.9382488001138,341.9382488001138,341.9382488001138,,346.6716350000352,right,0.0,24.415097600081936,,,,,,,,,,,,,,,,,,,,,,,,,,,,,,,sub-053,1.0,random_dot,60.05775158213808,
right,right,speed,,,,,0.0,0.0,0.0,1.0,17.0,1.0,35.0,1.0,346.68785670003854,,,,,,,,,346.6725779999979,347.88736389996484,348.68737050006166,348.67102229991,348.6710397999268,348.68737050006166,348.68737050006166,348.68737050006166,,349.5217168000527,right,1.0,20.51905709994025,,,,,,,,,,,,,,,,,,,,,,,,,,,,,,,sub-053,1.0,random_dot,60.05775158213808,
right,right,speed,,,,,0.0,0.0,0.0,1.0,18.0,0.0,36.0,1.0,349.53739310009405,,,,,,,,,349.5230288999155,350.3372859999072,351.13692980003543,351.12072789995,351.12074490007944,351.13692980003543,351.13692980003543,351.13692980003543,,353.32099030003883,right,1.0,21.86769430013373,,,,,,,,,,,,,,,,,,,,,,,,,,,,,,,sub-053,1.0,random_dot,60.05775158213808,
left,left,speed,,,,,0.0,0.0,0.0,1.0,18.0,1.0,37.0,0.0,353.3366344999522,,,,,,,,,353.3220128000248,353.4366119999904,354.2368320000824,354.2208505999297,354.22087460011244,354.2368320000824,354.2368320000824,354.2368320000824,,354.9212662000209,left,1.0,20.37697839993052,,,,,,,,,,,,,,,,,,,,,,,,,,,,,,,sub-053,1.0,random_dot,60.05775158213808,
right,right,speed,,,,,0.0,0.0,0.0,1.0,19.0,0.0,38.0,1.0,354.9367492999881,,,,,,,,,354.9225439999718,355.28630620008335,356.0865623001009,356.0702984998934,356.07031890004873,356.0865623001009,356.0865623001009,356.0865623001009,,356.7703474001028,right,1.0,20.373045000014827,,,,,,,,,,,,,,,,,,,,,,,,,,,,,,,sub-053,1.0,random_dot,60.05775158213808,
left,left,speed,,,,,0.0,0.0,0.0,1.0,19.0,1.0,39.0,0.0,356.78645849996246,,,,,,,,,356.77122480003163,357.58597799995914,358.3861181000248,358.37024220009334,358.3702646999154,358.3861181000248,358.3861181000248,358.3861181000248,,359.8202655001078,left,1.0,21.11517299991101,,,,,,,,,,,,,,,,,,,,,,,,,,,,,,,sub-053,1.0,random_dot,60.05775158213808,
right,right,speed,,,,,0.0,0.0,0.0,1.0,20.0,0.0,40.0,1.0,359.83600439992733,,,,,,,,,359.8213404000271,360.6356794000603,361.4359480000567,361.419964000117,361.41998769994825,361.4359480000567,361.4359480000567,361.4359480000567,,363.4704120000824,right,1.0,21.72688970016316,,,,,,,,,,,,,,,,,,,,,,,,,,,,,,,sub-053,1.0,random_dot,60.05775158213808,
left,left,speed,,,,,0.0,0.0,0.0,1.0,20.0,1.0,41.0,0.0,363.4856434999965,,,,,,,,,363.47165620001033,364.6853547000792,365.485266600037,365.46952120005153,365.4695451001171,365.485266600037,365.485266600037,365.485266600037,,366.6865679998882,left,1.0,20.89559520012699,,,,,,,,,,,,,,,,,,,,,,,,,,,,,,,sub-053,1.0,random_dot,60.05775158213808,
right,right,speed,,,,,0.0,0.0,0.0,1.0,21.0,0.0,42.0,1.0,366.7017892999575,,,,,,,,,366.6878543999046,367.5014833998866,368.3016045000404,368.2857482000254,368.2857719999738,368.3016045000404,368.3016045000404,368.3016045000404,373.3009546000976,374.2182978000492,left,0.0,25.60500600025989,,,,,,,,,,,,,,,,,,,,,,,,,,,,,,,sub-053,1.0,random_dot,60.05775158213808,
left,left,speed,,,,,0.0,0.0,0.0,1.0,21.0,1.0,43.0,0.0,374.2341922998894,,,,,,,,,374.2193279999774,375.434151600115,376.2336343000643,376.2176955000032,376.2177136000246,376.2336343000643,376.2336343000643,376.2336343000643,,380.0010345999617,left,1.0,23.45650830026716,,,,,,,,,,,,,,,,,,,,,,,,,,,,,,,sub-053,1.0,random_dot,60.05775158213808,
right,right,speed,,,,,0.0,0.0,0.0,1.0,22.0,0.0,44.0,1.0,380.0168771999888,,,,,,,,,380.0021965999622,381.21644899994135,382.0167851999868,382.0006923999172,382.0007186001167,382.0167851999868,382.0167851999868,382.0167851999868,,384.1336926999502,right,1.0,21.803804200142626,,,,,,,,,,,,,,,,,,,,,,,,,,,,,,,sub-053,1.0,random_dot,60.05775158213808,
left,left,speed,,,,,0.0,0.0,0.0,1.0,22.0,1.0,45.0,0.0,384.1492792998906,,,,,,,,,384.1345820000861,385.34948710002936,386.14939519995824,386.13371410011314,386.1337407999672,386.14939519995824,386.14939519995824,386.14939519995824,,388.36632349994034,left,1.0,21.907554799923677,,,,,,,,,,,,,,,,,,,,,,,,,,,,,,,sub-053,1.0,random_dot,60.05775158213808,
left,left,speed,,,,,0.0,0.0,0.0,1.0,23.0,0.0,46.0,0.0,388.3823689001146,,,,,,,,,388.3674212000333,389.582286400022,390.38208850007504,390.3659961000085,390.3660160000436,390.38208850007504,390.38208850007504,390.38208850007504,,392.4663315000944,left,1.0,21.76993880025111,,,,,,,,,,,,,,,,,,,,,,,,,,,,,,,sub-053,1.0,random_dot,60.05775158213808,
right,right,speed,,,,,0.0,0.0,0.0,1.0,23.0,1.0,47.0,1.0,392.4820127000567,,,,,,,,,392.46764850011095,393.2816258999519,394.0817909000907,394.065585100092,394.0656081999186,394.0817909000907,394.0817909000907,394.0817909000907,,395.5989018001128,right,1.0,21.198978800093755,,,,,,,,,,,,,,,,,,,,,,,,,,,,,,,sub-053,1.0,random_dot,60.05775158213808,
right,right,speed,,,,,0.0,0.0,0.0,1.0,24.0,0.0,48.0,1.0,395.6148693000432,,,,,,,,,395.59990309993736,395.71457280009054,396.5148348000366,396.4988712000195,396.49889659998007,396.5148348000366,396.5148348000366,396.5148348000366,,400.5484378999099,right,1.0,23.71878860029392,,,,,,,,,,,,,,,,,,,,,,,,,,,,,,,sub-053,1.0,random_dot,60.05775158213808,
left,left,speed,,,,,0.0,0.0,0.0,1.0,24.0,1.0,49.0,0.0,400.56398060009815,,,,,,,,,400.5494442000054,401.3641343000345,402.16436740010977,402.14860580000095,402.1486376998946,402.16436740010977,402.16436740010977,402.16436740010977,,403.84814670006745,left,1.0,21.372448000125587,,,,,,,,,,,,,,,,,,,,,,,,,,,,,,,sub-053,1.0,random_dot,60.05775158213808,
left,left,speed,,,,,0.0,0.0,0.0,1.0,25.0,0.0,50.0,0.0,403.86370750004426,,,,,,,,,403.849357200088,404.66346179996617,405.4636015999131,405.4472415999044,405.4472602999304,405.4636015999131,405.4636015999131,405.4636015999131,410.4461161000654,410.5307666999288,left,1.0,24.75453310017474,,,,,,,,,,,,,,,,,,,,,,,,,,,,,,,sub-053,1.0,random_dot,60.05775158213808,
right,right,speed,,,,,0.0,0.0,0.0,1.0,25.0,1.0,51.0,1.0,410.5461422998924,,,,,,,,,410.5319729999173,411.34584089997225,412.146119199926,412.1299837999977,412.13000570004806,412.146119199926,412.146119199926,412.146119199926,,415.063689300092,right,1.0,22.608794800238684,,,,,,,,,,,,,,,,,,,,,,,,,,,,,,,sub-053,1.0,random_dot,60.05775158213808,
right,right,speed,,,,,0.0,0.0,0.0,1.0,26.0,0.0,52.0,1.0,415.0789987000171,,,,,,,,,415.0649749999866,416.27858159993775,417.0788155000191,417.0626515999902,417.06267239991575,417.0788155000191,417.0788155000191,417.0788155000191,422.07806789991446,423.2788994999137,right,1.0,25.88852720009163,,,,,,,,,,,,,,,,,,,,,,,,,,,,,,,sub-053,1.0,random_dot,60.05775158213808,
left,left,speed,,,,,0.0,0.0,0.0,1.0,26.0,1.0,53.0,0.0,423.294429600006,,,,,,,,,423.2797866000328,423.3944506000262,424.1945607000962,424.17816170002334,424.17817900003865,424.1945607000962,424.1945607000962,424.1945607000962,,427.528748499928,right,0.0,23.02640940016136,,,,,,,,,,,,,,,,,,,,,,,,,,,,,,,sub-053,1.0,random_dot,60.05775158213808,
left,left,speed,,,,,0.0,0.0,0.0,1.0,27.0,0.0,54.0,0.0,427.54409380001016,,,,,,,,,427.530059899902,427.6440697000362,428.4440896001179,428.4281049000565,428.42812850000337,428.4440896001179,428.4440896001179,428.4440896001179,,433.2775663998909,left,1.0,24.52469519991428,,,,,,,,,,,,,,,,,,,,,,,,,,,,,,,sub-053,1.0,random_dot,60.05775158213808,
right,right,speed,,,,,0.0,0.0,0.0,1.0,27.0,1.0,55.0,1.0,433.2932414999232,,,,,,,,,433.2785873000976,433.3933395999484,434.19318639999256,434.1774077001028,434.1774317000527,434.19318639999256,434.19318639999256,434.19318639999256,,438.8273072000593,right,1.0,24.329423000104725,,,,,,,,,,,,,,,,,,,,,,,,,,,,,,,sub-053,1.0,random_dot,60.05775158213808,
left,left,speed,,,,,0.0,0.0,0.0,1.0,28.0,0.0,56.0,0.0,438.8427377000917,,,,,,,,,438.8284187999088,440.0423636001069,440.8425410999917,440.8268560001161,440.8268844000995,440.8425410999917,440.8425410999917,440.8425410999917,,442.8929288999643,left,1.0,21.739511100109667,,,,,,,,,,,,,,,,,,,,,,,,,,,,,,,sub-053,1.0,random_dot,60.05775158213808,
right,right,speed,,,,,0.0,0.0,0.0,1.0,28.0,1.0,57.0,1.0,442.9088045998942,,,,,,,,,442.8937154999003,444.10896859993227,444.9086337001063,444.8926691000816,444.8926915999036,444.9086337001063,444.9086337001063,444.9086337001063,,448.95910040009767,right,1.0,23.730490900110453,,,,,,,,,,,,,,,,,,,,,,,,,,,,,,,sub-053,1.0,random_dot,60.05775158213808,
right,right,speed,,,,,0.0,0.0,0.0,1.0,29.0,0.0,58.0,1.0,448.974637700012,,,,,,,,,448.9602359998971,449.7745439000428,450.5744592999108,450.55875530000776,450.55877909995615,450.5744592999108,450.5744592999108,450.5744592999108,,454.87517630006187,right,1.0,23.983764300122857,,,,,,,,,,,,,,,,,,,,,,,,,,,,,,,sub-053,1.0,random_dot,60.05775158213808,
left,left,speed,,,,,0.0,0.0,0.0,1.0,29.0,1.0,59.0,0.0,454.8907431999687,,,,,,,,,454.87629689997993,454.9907358000055,455.7903714000713,455.7744257999584,455.7744481000118,455.7903714000713,455.7903714000713,455.7903714000713,,457.1247455000412,left,1.0,21.02098980010487,,,,,,,,,,,,,,,,,,,,,,,,,,,,,,,sub-053,1.0,random_dot,60.05775158213808,
,,speed,,,,,0.0,0.0,0.0,1.0,,,,,,,,,,,,,,,,,,,,,,,,,,,,,,,,,,,,,,,,,,,,,,,,,,,,,,,,,sub-053,1.0,random_dot,60.05775158213808,
left,left,accuracy,,,,,0.0,1.0,1.0,0.0,0.0,0.0,0.0,0.0,495.685533199925,,,,,,,,,495.6771438000724,495.78566660010256,496.5854354999028,496.5694095999934,496.5694327999372,496.5854354999028,496.5854354999028,496.5854354999028,501.5846873000264,502.06875790003687,left,1.0,25.16417930019088,,,,,,,,,,,,,,,,,,,,457.12595300003886,457.14241209998727,457.14241209998727,495.6696013000328,space,58.21795910014771,,,,,,sub-053,1.0,random_dot,60.05775158213808,
right,right,accuracy,,,,,0.0,1.0,1.0,0.0,0.0,1.0,1.0,1.0,502.0845888999757,,,,,,,,,502.0700634000823,502.4345933001023,503.2343150000088,503.2184584001079,503.2184766000137,503.2343150000088,503.2343150000088,503.2343150000088,,507.7354164998978,left,0.0,24.19324259995483,,,,,,,,,,,,,,,,,,,,,,,,,,,,,,,sub-053,1.0,random_dot,60.05775158213808,
left,left,accuracy,,,,,0.0,1.0,1.0,0.0,1.0,0.0,2.0,0.0,507.7506593998987,,,,,,,,,507.7367626000196,508.1006944999099,508.9002523000818,508.8842182001099,508.8842329001054,508.9002523000818,508.9002523000818,508.9002523000818,,513.7341378999408,right,0.0,24.52871910016984,,,,,,,,,,,,,,,,,,,,,,,,,,,,,,,sub-053,1.0,random_dot,60.05775158213808,
right,right,accuracy,,,,,0.0,1.0,1.0,0.0,1.0,1.0,3.0,1.0,513.7499196999706,,,,,,,,,513.7352942000143,514.0996642999817,514.8998141000047,514.8837669999339,514.8837908999994,514.8998141000047,514.8998141000047,514.8998141000047,,519.8171949998941,right,1.0,24.612946100067347,,,,,,,,,,,,,,,,,,,,,,,,,,,,,,,sub-053,1.0,random_dot,60.05775158213808,
left,left,accuracy,,,,,0.0,1.0,1.0,0.0,2.0,0.0,4.0,0.0,519.832547100028,,,,,,,,,519.8184223999269,520.1823517000303,520.982181899948,520.9661449999548,520.9661658999976,520.982181899948,520.982181899948,520.982181899948,525.9817451001145,527.0490894000977,right,0.0,25.75362620013766,,,,,,,,,,,,,,,,,,,,,,,,,,,,,,,sub-053,1.0,random_dot,60.05775158213808,
right,right,accuracy,,,,,0.0,1.0,1.0,0.0,2.0,1.0,5.0,1.0,527.0648986001033,,,,,,,,,527.0502532999963,528.2646554000676,529.0646214999724,529.0485461000353,529.0485676000826,529.0646214999724,529.0646214999724,529.0646214999724,,532.9479004000314,right,1.0,23.572456600144506,,,,,,,,,,,,,,,,,,,,,,,,,,,,,,,sub-053,1.0,random_dot,60.05775158213808,
left,left,accuracy,,,,,0.0,1.0,1.0,0.0,3.0,0.0,6.0,0.0,532.9637994000223,,,,,,,,,532.9487765999511,533.313947699964,534.1146833000239,534.0979993999936,534.0980156001169,534.1146833000239,534.1146833000239,534.1146833000239,,536.2647563999053,left,1.0,21.83264400018379,,,,,,,,,,,,,,,,,,,,,,,,,,,,,,,sub-053,1.0,random_dot,60.05775158213808,
right,right,accuracy,,,,,0.0,1.0,1.0,0.0,3.0,1.0,7.0,1.0,536.2804203000851,,,,,,,,,536.2660411000252,536.3804043000564,537.1801402999554,537.1643048000988,537.1643290999345,537.1801402999554,537.1801402999554,537.1801402999554,542.1795928999782,543.6802215999924,left,0.0,26.18727910006419,,,,,,,,,,,,,,,,,,,,,,,,,,,,,,,sub-053,1.0,random_dot,60.05775158213808,
right,right,accuracy,,,,,0.0,1.0,1.0,0.0,4.0,0.0,8.0,1.0,543.6961324000731,,,,,,,,,543.6812795998994,544.0458565999288,544.8458338000346,544.8299366000574,544.8299670999404,544.8458338000346,544.8458338000346,544.8458338000346,549.8455467000604,550.23005750007,right,1.0,25.06483060005121,,,,,,,,,,,,,,,,,,,,,,,,,,,,,,,sub-053,1.0,random_dot,60.05775158213808,
left,left,accuracy,,,,,0.0,1.0,1.0,0.0,4.0,1.0,9.0,0.0,550.2454033999238,,,,,,,,,550.2314728000201,551.4449924998917,552.2450731000863,552.2289412000682,552.2289652999025,552.2450731000863,552.2450731000863,552.2450731000863,,556.912652600091,right,0.0,24.363220000173897,,,,,,,,,,,,,,,,,,,,,,,,,,,,,,,sub-053,1.0,random_dot,60.05775158213808,
right,right,accuracy,,,,,0.0,1.0,1.0,0.0,5.0,0.0,10.0,1.0,556.9276699998882,,,,,,,,,556.9139358999673,557.277831299929,558.0775635999162,558.0621656000149,558.0621893999632,558.0775635999162,558.0775635999162,558.0775635999162,563.0766648000572,563.8121076000389,right,1.0,25.42489979998209,,,,,,,,,,,,,,,,,,,,,,,,,,,,,,,sub-053,1.0,random_dot,60.05775158213808,
left,left,accuracy,,,,,0.0,1.0,1.0,0.0,5.0,1.0,11.0,0.0,563.8272166000679,,,,,,,,,563.8137751999311,564.6267097999807,565.4266268999781,565.4107832000591,565.4108076998964,565.4266268999781,565.4266268999781,565.4266268999781,570.4259971999563,571.2935301999096,left,1.0,25.55641530011781,,,,,,,,,,,,,,,,,,,,,,,,,,,,,,,sub-053,1.0,random_dot,60.05775158213808,
right,right,accuracy,,,,,0.0,1.0,1.0,0.0,6.0,0.0,12.0,1.0,571.3090500999242,,,,,,,,,571.29465289996,572.5088939000852,573.3089238998946,573.2930592000484,573.2930813999847,573.3089238998946,573.3089238998946,573.3089238998946,578.3082407999318,579.0256694999989,right,1.0,25.40286389994435,,,,,,,,,,,,,,,,,,,,,,,,,,,,,,,sub-053,1.0,random_dot,60.05775158213808,
left,left,accuracy,,,,,0.0,1.0,1.0,0.0,6.0,1.0,13.0,0.0,579.0415447000414,,,,,,,,,579.0266633001156,579.841352700023,580.6412597000599,580.6254418999888,580.625464099925,580.6412597000599,580.6412597000599,580.6412597000599,585.6407423000783,586.6415359000675,right,0.0,25.68620000011288,,,,,,,,,,,,,,,,,,,,,,,,,,,,,,,sub-053,1.0,random_dot,60.05775158213808,
left,left,accuracy,,,,,0.0,1.0,1.0,0.0,7.0,0.0,14.0,0.0,586.6572575001046,,,,,,,,,586.642697900068,587.8574488998856,588.6572777999099,588.6414053998888,588.6414330000989,588.6572777999099,588.6572777999099,588.6572777999099,593.6562952999957,594.2573836999945,left,1.0,25.295812100172043,,,,,,,,,,,,,,,,,,,,,,,,,,,,,,,sub-053,1.0,random_dot,60.05775158213808,
right,right,accuracy,,,,,0.0,1.0,1.0,0.0,7.0,1.0,15.0,1.0,594.2730487999506,,,,,,,,,594.2584993001074,594.3727782000788,595.1727491999045,595.1563393999822,595.1563550999854,595.1727491999045,595.1727491999045,595.1727491999045,600.1556170000695,600.9232723999303,left,0.0,25.43151309993118,,,,,,,,,,,,,,,,,,,,,,,,,,,,,,,sub-053,1.0,random_dot,60.05775158213808,
left,left,accuracy,,,,,0.0,1.0,1.0,0.0,8.0,0.0,16.0,0.0,600.9387322000694,,,,,,,,,600.9244538999628,601.738555100048,602.5384728000499,602.5226012000348,602.522637899965,602.5384728000499,602.5384728000499,602.5384728000499,607.5381177999079,608.6387471999042,left,1.0,25.7829623001162,,,,,,,,,,,,,,,,,,,,,,,,,,,,,,,sub-053,1.0,random_dot,60.05775158213808,
right,right,accuracy,,,,,0.0,1.0,1.0,0.0,8.0,1.0,17.0,1.0,608.6543847001158,,,,,,,,,608.639810099965,609.4544295000378,610.254469800042,610.238589100074,610.238614999922,610.254469800042,610.254469800042,610.254469800042,,612.0218865000643,right,1.0,21.45369060011581,,,,,,,,,,,,,,,,,,,,,,,,,,,,,,,sub-053,1.0,random_dot,60.05775158213808,
right,right,accuracy,,,,,0.0,1.0,1.0,0.0,9.0,0.0,18.0,1.0,612.0373502001166,,,,,,,,,612.0230529999826,612.8373817999382,613.6372919001151,613.621405800106,613.6214296000544,613.6372919001151,613.6372919001151,613.6372919001151,,618.554277600022,right,1.0,24.59842070005834,,,,,,,,,,,,,,,,,,,,,,,,,,,,,,,sub-053,1.0,random_dot,60.05775158213808,
left,left,accuracy,,,,,0.0,1.0,1.0,0.0,9.0,1.0,19.0,0.0,618.5698388998862,,,,,,,,,618.5554808999877,618.9201513999142,619.7199971000664,619.7041042998899,619.704131500097,619.7199971000664,619.7199971000664,619.7199971000664,,624.1033954999875,left,1.0,24.074217499932278,,,,,,,,,,,,,,,,,,,,,,,,,,,,,,,sub-053,1.0,random_dot,60.05775158213808,
left,left,accuracy,,,,,0.0,1.0,1.0,0.0,10.0,0.0,20.0,0.0,624.1190714999102,,,,,,,,,624.1044723999221,624.2190980000887,625.0191502000671,625.0033871000633,625.0034129999112,625.0191502000671,625.0191502000671,625.0191502000671,,627.519704699982,right,0.0,22.184377300087363,,,,,,,,,,,,,,,,,,,,,,,,,,,,,,,sub-053,1.0,random_dot,60.05775158213808,
right,right,accuracy,,,,,0.0,1.0,1.0,0.0,10.0,1.0,21.0,1.0,627.5354859000072,,,,,,,,,627.5208707998972,627.8853740999475,628.6853958000429,628.6696240999736,628.6696512999479,628.6853958000429,628.6853958000429,628.6853958000429,,631.5531190999318,left,0.0,22.55497910012491,,,,,,,,,,,,,,,,,,,,,,,,,,,,,,,sub-053,1.0,random_dot,60.05775158213808,
left,left,accuracy,,,,,0.0,1.0,1.0,0.0,11.0,0.0,22.0,0.0,631.5683063000906,,,,,,,,,631.5545636999886,632.3684555001091,633.1682512999978,633.1524064999539,633.1524342999328,633.1682512999978,633.1682512999978,633.1682512999978,,637.2687284001149,left,1.0,23.789906800026078,,,,,,,,,,,,,,,,,,,,,,,,,,,,,,,sub-053,1.0,random_dot,60.05775158213808,
right,right,accuracy,,,,,0.0,1.0,1.0,0.0,11.0,1.0,23.0,1.0,637.2841471999418,,,,,,,,,637.2699800000992,638.4839759001043,639.283786999993,639.2678322000429,639.2678521999624,639.283786999993,639.283786999993,639.283786999993,,640.7515012999065,right,1.0,21.15857930015773,,,,,,,,,,,,,,,,,,,,,,,,,,,,,,,sub-053,1.0,random_dot,60.05775158213808,
right,right,accuracy,,,,,0.0,1.0,1.0,0.0,12.0,0.0,24.0,1.0,640.7671745000407,,,,,,,,,640.7527342000976,641.5666694000829,642.3668577999342,642.3507344000973,642.3507542998996,642.3668577999342,642.3668577999342,642.3668577999342,,647.184166100109,right,1.0,24.511602099984884,,,,,,,,,,,,,,,,,,,,,,,,,,,,,,,sub-053,1.0,random_dot,60.05775158213808,
left,left,accuracy,,,,,0.0,1.0,1.0,0.0,12.0,1.0,25.0,0.0,647.1996947999578,,,,,,,,,647.1854014000855,647.2997371999081,648.0994589999318,648.0835845998954,648.0836072000675,648.0994589999318,648.0994589999318,648.0994589999318,,650.2835772000253,left,1.0,21.870938000036404,,,,,,,,,,,,,,,,,,,,,,,,,,,,,,,sub-053,1.0,random_dot,60.05775158213808,
left,left,accuracy,,,,,0.0,1.0,1.0,0.0,13.0,0.0,26.0,0.0,650.2992062000558,,,,,,,,,650.2847855999134,650.6492838999256,651.4491107000504,651.4328934999648,651.4329146000091,651.4491107000504,651.4491107000504,651.4491107000504,,652.7001439998858,left,1.0,20.93941920017824,,,,,,,,,,,,,,,,,,,,,,,,,,,,,,,sub-053,1.0,random_dot,60.05775158213808,
right,right,accuracy,,,,,0.0,1.0,1.0,0.0,13.0,1.0,27.0,1.0,652.7155750999227,,,,,,,,,652.7014250000939,652.8156882999465,653.6155441999435,653.599411400035,653.5994345000945,653.6155441999435,653.6155441999435,653.6155441999435,,655.3162177999038,right,1.0,21.39300010004081,,,,,,,,,,,,,,,,,,,,,,,,,,,,,,,sub-053,1.0,random_dot,60.05775158213808,
right,right,accuracy,,,,,0.0,1.0,1.0,0.0,14.0,0.0,28.0,1.0,655.3317088000476,,,,,,,,,655.3172170000616,656.5317573999055,657.3317295999732,657.3155688000843,657.3155896998942,657.3317295999732,657.3317295999732,657.3317295999732,662.3310455000028,663.5154881000053,left,0.0,25.864557099994272,,,,,,,,,,,,,,,,,,,,,,,,,,,,,,,sub-053,1.0,random_dot,60.05775158213808,
left,left,accuracy,,,,,0.0,1.0,1.0,0.0,14.0,1.0,29.0,0.0,663.5309715000913,,,,,,,,,663.516768499976,663.6310429000296,664.4306900000665,664.4144486999139,664.4144673999399,664.4306900000665,664.4306900000665,664.4306900000665,,667.3815252999775,left,1.0,22.637349100084972,,,,,,,,,,,,,,,,,,,,,,,,,,,,,,,sub-053,1.0,random_dot,60.05775158213808,
left,left,accuracy,,,,,0.0,1.0,1.0,0.0,15.0,0.0,30.0,0.0,667.3969276999123,,,,,,,,,667.3826774999034,668.5968975001015,669.396890199976,669.3808069000952,669.3808460000437,669.396890199976,669.396890199976,669.396890199976,,672.2808091000188,right,0.0,22.56446989998221,,,,,,,,,,,,,,,,,,,,,,,,,,,,,,,sub-053,1.0,random_dot,60.05775158213808,
right,right,accuracy,,,,,0.0,1.0,1.0,0.0,15.0,1.0,31.0,1.0,672.2964653999079,,,,,,,,,672.281996200094,673.4962253000122,674.2971101999283,674.2805367000401,674.2805651999079,674.2971101999283,674.2971101999283,674.2971101999283,,677.2136790000368,left,0.0,22.60910710017197,,,,,,,,,,,,,,,,,,,,,,,,,,,,,,,sub-053,1.0,random_dot,60.05775158213808,
left,left,accuracy,,,,,0.0,1.0,1.0,0.0,16.0,0.0,32.0,0.0,677.2292508999817,,,,,,,,,677.2149332000408,678.429059300106,679.2289372999221,679.213032499887,679.2130567999557,679.2289372999221,679.2289372999221,679.2289372999221,,683.6461610000115,left,1.0,24.10060350014828,,,,,,,,,,,,,,,,,,,,,,,,,,,,,,,sub-053,1.0,random_dot,60.05775158213808,
right,right,accuracy,,,,,0.0,1.0,1.0,0.0,16.0,1.0,33.0,1.0,683.6615657000802,,,,,,,,,683.6472946999129,684.8616313999519,685.6613563999999,685.6454312999267,685.6454596000258,685.6613563999999,685.6613563999999,685.6613563999999,690.6608102000318,691.2952785000671,right,1.0,25.319790900219232,,,,,,,,,,,,,,,,,,,,,,,,,,,,,,,sub-053,1.0,random_dot,60.05775158213808,
right,right,accuracy,,,,,0.0,1.0,1.0,0.0,17.0,0.0,34.0,1.0,691.3108028999995,,,,,,,,,691.2965742999222,691.4107643999159,692.2106588999741,692.1948532001115,692.1948774999473,692.2106588999741,692.2106588999741,692.2106588999741,,694.4778613999952,right,1.0,21.960411000065506,,,,,,,,,,,,,,,,,,,,,,,,,,,,,,,sub-053,1.0,random_dot,60.05775158213808,
left,left,accuracy,,,,,0.0,1.0,1.0,0.0,17.0,1.0,35.0,0.0,694.493513799971,,,,,,,,,694.4786847000942,695.693562499946,696.493599700043,696.4775062999688,696.4775328999385,696.493599700043,696.493599700043,696.493599700043,,698.3608194999397,left,1.0,21.54811800015159,,,,,,,,,,,,,,,,,,,,,,,,,,,,,,,sub-053,1.0,random_dot,60.05775158213808,
right,right,accuracy,,,,,0.0,1.0,1.0,0.0,18.0,0.0,36.0,1.0,698.3766367000062,,,,,,,,,698.3619595000055,698.7263104999438,699.5263529000804,699.510436099954,699.5104580000043,699.5263529000804,699.5263529000804,699.5263529000804,,703.9602717999369,right,1.0,24.1138673000969,,,,,,,,,,,,,,,,,,,,,,,,,,,,,,,sub-053,1.0,random_dot,60.05775158213808,
left,left,accuracy,,,,,0.0,1.0,1.0,0.0,18.0,1.0,37.0,0.0,703.975831199903,,,,,,,,,703.9614254001062,704.7756813000888,705.5756363000255,705.5598738999106,705.5599005999975,705.5756363000255,705.5756363000255,705.5756363000255,,707.6595713999122,left,1.0,21.76677900017239,,,,,,,,,,,,,,,,,,,,,,,,,,,,,,,sub-053,1.0,random_dot,60.05775158213808,
left,left,accuracy,,,,,0.0,1.0,1.0,0.0,19.0,0.0,38.0,0.0,707.6753748001065,,,,,,,,,707.6607258000877,707.7751116999425,708.5749824000522,708.5591249000281,708.5591468000785,708.5749824000522,708.5749824000522,708.5749824000522,713.5745246000588,714.8422457000706,right,0.0,25.95481920009479,,,,,,,,,,,,,,,,,,,,,,,,,,,,,,,sub-053,1.0,random_dot,60.05775158213808,
right,right,accuracy,,,,,0.0,1.0,1.0,0.0,19.0,1.0,39.0,1.0,714.8577229999937,,,,,,,,,714.8435376998968,715.6573671000078,716.4573202999309,716.4416364999488,716.4416573999915,716.4573202999309,716.4573202999309,716.4573202999309,,720.424570400035,right,1.0,23.647914400091395,,,,,,,,,,,,,,,,,,,,,,,,,,,,,,,sub-053,1.0,random_dot,60.05775158213808,
right,right,accuracy,,,,,0.0,1.0,1.0,0.0,20.0,0.0,40.0,1.0,720.4403123999946,,,,,,,,,720.4257209999487,720.5401997000445,721.3402986999135,721.3240704000928,721.3240916999057,721.3402986999135,721.3402986999135,721.3402986999135,726.3394067999907,726.3738446999341,right,1.0,24.71718650008552,,,,,,,,,,,,,,,,,,,,,,,,,,,,,,,sub-053,1.0,random_dot,60.05775158213808,
left,left,accuracy,,,,,0.0,1.0,1.0,0.0,20.0,1.0,41.0,0.0,726.3893854001071,,,,,,,,,726.3749639999587,726.7394016999751,727.5395849000197,727.5237666000612,727.5237908000126,727.5395849000197,727.5395849000197,727.5395849000197,,728.7569985000882,left,1.0,20.90231960010715,,,,,,,,,,,,,,,,,,,,,,,,,,,,,,,sub-053,1.0,random_dot,60.05775158213808,
right,right,accuracy,,,,,0.0,1.0,1.0,0.0,21.0,0.0,42.0,1.0,728.7727534000296,,,,,,,,,728.7582388001028,729.1226091999561,729.9224388001021,729.9064410000574,729.9064644998871,729.9224388001021,729.9224388001021,729.9224388001021,,733.0230030999519,right,1.0,22.78911289991811,,,,,,,,,,,,,,,,,,,,,,,,,,,,,,,sub-053,1.0,random_dot,60.05775158213808,
left,left,accuracy,,,,,0.0,1.0,1.0,0.0,21.0,1.0,43.0,0.0,733.0385394000914,,,,,,,,,733.0240311000962,733.3887362999376,734.1885242001154,734.1724849999882,734.172506700037,734.1885242001154,734.1885242001154,734.1885242001154,,735.589524900075,left,1.0,21.084367299918085,,,,,,,,,,,,,,,,,,,,,,,,,,,,,,,sub-053,1.0,random_dot,60.05775158213808,
left,left,accuracy,,,,,0.0,1.0,1.0,0.0,22.0,0.0,44.0,0.0,735.6049128000159,,,,,,,,,735.5906781000085,735.9551152999047,736.7549501000904,736.738730299985,736.7387512000278,736.7549501000904,736.7549501000904,736.7549501000904,,737.7228967000265,left,1.0,20.660524200182408,,,,,,,,,,,,,,,,,,,,,,,,,,,,,,,sub-053,1.0,random_dot,60.05775158213808,
right,right,accuracy,,,,,0.0,1.0,1.0,0.0,22.0,1.0,45.0,1.0,737.738282199949,,,,,,,,,737.7241193000227,738.0880587000865,738.8879915000871,738.8720684999134,738.8720889000688,738.8879915000871,738.8879915000871,738.8879915000871,,741.1220543999225,right,1.0,21.928420800017197,,,,,,,,,,,,,,,,,,,,,,,,,,,,,,,sub-053,1.0,random_dot,60.05775158213808,
right,right,accuracy,,,,,0.0,1.0,1.0,0.0,23.0,0.0,46.0,1.0,741.1377803001087,,,,,,,,,741.1231744000688,741.4877394998912,742.2872941000387,742.2713619999122,742.2713810999412,742.2872941000387,742.2872941000387,742.2872941000387,747.2867672999855,747.4045673999935,left,0.0,24.803417299874127,,,,,,,,,,,,,,,,,,,,,,,,,,,,,,,sub-053,1.0,random_dot,60.05775158213808,
left,left,accuracy,,,,,0.0,1.0,1.0,0.0,23.0,1.0,47.0,0.0,747.4203025999013,,,,,,,,,747.405671400018,747.5202140000183,748.3200556000229,748.3041709999088,748.3041930000763,748.3200556000229,748.3200556000229,748.3200556000229,,751.6706127000507,left,1.0,23.04318040004,,,,,,,,,,,,,,,,,,,,,,,,,,,,,,,sub-053,1.0,random_dot,60.05775158213808,
right,right,accuracy,,,,,0.0,1.0,1.0,0.0,24.0,0.0,48.0,1.0,751.6861356000882,,,,,,,,,751.6717282999307,751.7863990000915,752.5861607999541,752.570236499887,752.5702567999251,752.5861607999541,752.5861607999541,752.5861607999541,,756.0205584000796,right,1.0,23.12890700018033,,,,,,,,,,,,,,,,,,,,,,,,,,,,,,,sub-053,1.0,random_dot,60.05775158213808,
left,left,accuracy,,,,,0.0,1.0,1.0,0.0,24.0,1.0,49.0,0.0,756.0359205000568,,,,,,,,,756.0218372000381,756.1359043000266,756.9357942999341,756.919916999992,756.9199405999389,756.9357942999341,756.9357942999341,756.9357942999341,,760.2548581000883,left,1.0,23.00641400017776,,,,,,,,,,,,,,,,,,,,,,,,,,,,,,,sub-053,1.0,random_dot,60.05775158213808,
right,right,accuracy,,,,,0.0,1.0,1.0,0.0,25.0,0.0,50.0,1.0,760.2709741999861,,,,,,,,,760.2588655001018,761.4688067000825,762.2684706998989,762.2526994999498,762.2527244999073,762.2684706998989,762.2684706998989,762.2684706998989,,763.4030369999819,right,1.0,20.829779700143263,,,,,,,,,,,,,,,,,,,,,,,,,,,,,,,sub-053,1.0,random_dot,60.05775158213808,
left,left,accuracy,,,,,0.0,1.0,1.0,0.0,25.0,1.0,51.0,0.0,763.4183636999223,,,,,,,,,763.4043552998919,763.7682304999325,764.5681378999725,764.5520158999134,764.5520369999576,764.5681378999725,764.5681378999725,764.5681378999725,,765.3023248000536,left,1.0,20.425225800136104,,,,,,,,,,,,,,,,,,,,,,,,,,,,,,,sub-053,1.0,random_dot,60.05775158213808,
left,left,accuracy,,,,,0.0,1.0,1.0,0.0,26.0,0.0,52.0,0.0,765.3178383000195,,,,,,,,,765.3034292000812,766.5178175000474,767.317817500094,767.3018638999201,767.3018877999857,767.317817500094,767.317817500094,767.317817500094,,772.16818040004,right,0.0,24.534308900125325,,,,,,,,,,,,,,,,,,,,,,,,,,,,,,,sub-053,1.0,random_dot,60.05775158213808,
right,right,accuracy,,,,,0.0,1.0,1.0,0.0,26.0,1.0,53.0,1.0,772.1839095999021,,,,,,,,,772.1694559000898,773.3835944000166,774.1834901999682,774.1677572999615,774.167780400021,774.1834901999682,774.1834901999682,774.1834901999682,,775.7181621000636,left,0.0,21.22634240007028,,,,,,,,,,,,,,,,,,,,,,,,,,,,,,,sub-053,1.0,random_dot,60.05775158213808,
right,right,accuracy,,,,,0.0,1.0,1.0,0.0,27.0,0.0,54.0,1.0,775.7334495999385,,,,,,,,,775.719435499981,775.8332624998875,776.6333085000515,776.6171579998918,776.6171812000684,776.6333085000515,776.6333085000515,776.6333085000515,,780.7340190000832,right,1.0,23.79522110009566,,,,,,,,,,,,,,,,,,,,,,,,,,,,,,,sub-053,1.0,random_dot,60.05775158213808,
left,left,accuracy,,,,,0.0,1.0,1.0,0.0,27.0,1.0,55.0,0.0,780.7494773000944,,,,,,,,,780.7352811999153,781.0829398999922,781.8827589999419,781.8668740999419,781.8669020999223,781.8827589999419,781.8827589999419,781.8827589999419,,782.9336705999449,left,1.0,20.73589310003445,,,,,,,,,,,,,,,,,,,,,,,,,,,,,,,sub-053,1.0,random_dot,60.05775158213808,
left,left,accuracy,,,,,0.0,1.0,1.0,0.0,28.0,0.0,56.0,0.0,782.9491816998925,,,,,,,,,782.9348782000598,784.1489883000031,784.9490372000728,784.9329747001175,784.9330011000857,784.9490372000728,784.9490372000728,784.9490372000728,,786.4332276999485,left,1.0,21.165080500068143,,,,,,,,,,,,,,,,,,,,,,,,,,,,,,,sub-053,1.0,random_dot,60.05775158213808,
right,right,accuracy,,,,,0.0,1.0,1.0,0.0,28.0,1.0,57.0,1.0,786.4487133000512,,,,,,,,,786.4344556999858,787.648515699897,788.4483797999565,788.4324825999793,788.4325061999261,788.4483797999565,788.4483797999565,788.4483797999565,,792.0157242999412,right,1.0,23.25313839991577,,,,,,,,,,,,,,,,,,,,,,,,,,,,,,,sub-053,1.0,random_dot,60.05775158213808,
right,right,accuracy,,,,,0.0,1.0,1.0,0.0,29.0,0.0,58.0,1.0,792.0313844999764,,,,,,,,,792.0170001001097,792.1312329000793,792.9311353999656,792.9152699001133,792.9152935000602,792.9311353999656,792.9311353999656,792.9311353999656,,795.7817571000196,left,0.0,22.54301310027949,,,,,,,,,,,,,,,,,,,,,,,,,,,,,,,sub-053,1.0,random_dot,60.05775158213808,
left,left,accuracy,,,,,0.0,1.0,1.0,0.0,29.0,1.0,59.0,0.0,795.7971858000383,,,,,,,,,795.7827600000892,796.5974284999538,797.3972028999124,797.3813632999081,797.3813871000893,797.3972028999124,797.3972028999124,797.3972028999124,,799.8814522998873,left,1.0,22.164907100144774,,,,,,,,,,,,,,,,,,,,,,,,,,,,,,,sub-053,1.0,random_dot,60.05775158213808,
,,accuracy,,,,,0.0,1.0,1.0,0.0,,,,,,,,,,,,,,,,,,,,,,,,,,,,,,,,,,,,,,,,,,,,,,,,,,,,,,,,,sub-053,1.0,random_dot,60.05775158213808,
,,,,,,,,,,,,,,,,,,,,,,,,,,,,,,,,,,,,,,,,,,,,,,,,,,,,,,,,,,,,,,,799.8823889000341,799.8970886999741,804.8964257999323,804.8804617000278,sub-053,,,,
