direction,corrAns,thisN,thisTrialN,thisRepN,respDots.keys,respDots.corr,respDots.rt,respDots.duration,randomInstr,respRandomInstr.keys,respRandomInstr.rt,respRandomInstr.duration,practice_trials.thisRepN,practice_trials.thisTrialN,practice_trials.thisN,practice_trials.thisIndex,instr_trials.thisRepN,instr_trials.thisTrialN,instr_trials.thisN,instr_trials.thisIndex,test_trials.thisRepN,test_trials.thisTrialN,test_trials.thisN,test_trials.thisIndex,thisRow.t,notes,general_instruction.started,textGeneralInstr.started,respGeneralInstr.started,general_instruction.stopped,respGeneralInstr.keys,respGeneralInstr.rt,respGeneralInstr.duration,ITI.started,fixcross.started,fixcross.stopped,ITI.stopped,dots.started,backgroundDots.started,stimulusDots.started,respDots.started,dots.stopped,practice_trials.respDots.keys,practice_trials.respDots.corr,practice_trials.respDots.rt,practice_trials.respDots.duration,feedback.started,textFeedback.started,feedback.stopped,textFeedback.stopped,info.started,textInfo.started,keyRespInfo.started,info.stopped,keyRespInfo.keys,keyRespInfo.rt,keyRespInfo.duration,test_instruction.started,textTestInstr.started,respTestInstr.started,test_instruction.stopped,respTestInstr.keys,respTestInstr.rt,respTestInstr.duration,random_instruction.started,textRandomInstr.started,respRandomInstr.started,random_instruction.stopped,instr_trials.respRandomInstr.keys,instr_trials.respRandomInstr.rt,instr_trials.respRandomInstr.duration,test_trials.respDots.keys,test_trials.respDots.corr,test_trials.respDots.rt,test_trials.respDots.duration,goodbye.started,textGoodbye.started,goodbye.stopped,participant,session,expName,frameRate,Unnamed: 86
,,,,,,,,,,,,,,,,,,,,,,,,,,,0.0085390840031323,0.0151648749997548,0.0151648749997548,1.1842606250029348,space,1.1310239169979468,,,,,,,,,,,,,,,,,,,,,,,,,,,,,,,,,,,,,,,,,,,,,,,sub-181,1,random_dot,,
right,right,0.0,0.0,0.0,left,0.0,1.9486290830027428,,,,,,0.0,0.0,0.0,1.0,,,,,,,,,1.2068678340001495,,,,,,,,,1.194382959001814,1.528381750002154,2.333265709003172,2.318521459001204,2.319387875002576,2.333265709003172,2.333265709003172,2.333265709003172,4.285830084001645,left,0.0,1.9486290830027428,,4.2942443339998135,4.321480624999822,4.790318292001757,,,,,,,,,,,,,,,,,,,,,,,,,,,,,,sub-181,1,random_dot,,
left,left,1.0,1.0,0.0,right,0.0,0.6015882909996435,,,,,,0.0,1.0,1.0,0.0,,,,,,,,,4.801706834001379,,,,,,,,,4.7909601669998665,5.975031500001933,6.7667057090002345,6.7579031250024855,6.75841712500187,6.7667057090002345,6.7667057090002345,6.7667057090002345,7.369638334002957,right,0.0,0.6015882909996435,,7.36974362500041,7.374098792002769,7.85739258400281,7.8682715840004676,,,,,,,,,,,,,,,,,,,,,,,,,,,,,sub-181,1,random_dot,,
left,left,2.0,0.0,1.0,left,1.0,1.5792197080008918,,,,,,1.0,0.0,2.0,0.0,,,,,,,,,7.8682715840004676,,,,,,,,,7.857956875002856,9.068173750001732,9.861194750003053,9.852288917001715,9.852932917001452,9.861194750003053,9.861194750003053,9.861194750003053,11.441917250002009,left,1.0,1.5792197080008918,,11.44734412500111,11.4543579170022,11.940643792000628,11.95153087500148,,,,,,,,,,,,,,,,,,,,,,,,,,,,,sub-181,1,random_dot,,
right,right,3.0,1.0,1.0,right,1.0,2.2862799169997743,,,,,,1.0,1.0,3.0,1.0,,,,,,,,,11.95153087500148,,,,,,,,,11.941058375003196,13.14225762500064,13.94221650000327,13.9350019170015,13.935471542001324,13.94221650000327,13.94221650000327,13.94221650000327,16.23572208400219,right,1.0,2.2862799169997743,,16.235814792002202,16.242653209003038,16.734907542002475,16.73926183400181,,,,,,,,,,,,,,,,,,,,,,,,,,,,,sub-181,1,random_dot,,
right,right,4.0,0.0,2.0,left,0.0,2.291227165998862,,,,,,2.0,0.0,4.0,1.0,,,,,,,,,16.73926183400181,,,,,,,,,16.735318084000028,17.92446991700126,18.717650417002005,18.70722720900085,18.707713792002323,18.717650417002005,18.717650417002005,18.717650417002005,21.019328209000378,left,0.0,2.291227165998862,,21.023078459002136,21.03012108400071,21.518556459002863,21.524499709001248,,,,,,,,,,,,,,,,,,,,,,,,,,,,,sub-181,1,random_dot,,
left,left,5.0,1.0,2.0,left,1.0,1.0330672499985667,,,,,,2.0,1.0,5.0,0.0,,,,,,,,,21.524499709001248,,,,,,,,,21.519231292000768,22.3180554999999,23.108955417003017,23.101523459001328,23.10210670900051,23.108955417003017,23.108955417003017,23.108955417003017,24.152710292000847,left,1.0,1.0330672499985667,,24.15636162500232,24.16996279200248,24.657044667001173,,,,,,,,,,,,,,,,,,,,,,,,,,,,,,sub-181,1,random_dot,,
right,right,6.0,0.0,3.0,left,0.0,1.1444643329996325,,,,,,3.0,0.0,6.0,1.0,,,,,,,,,24.668194084002607,,,,,,,,,24.65750029199989,25.451444917001936,26.242313209000717,26.23507604200131,26.235560375000205,26.242313209000717,26.242313209000717,26.242313209000717,27.39235495899993,left,0.0,1.1444643329996325,,27.39514820900149,27.40266129200245,27.89022954200118,27.901318834003177,,,,,,,,,,,,,,,,,,,,,,,,,,,,,sub-181,1,random_dot,,
left,left,7.0,1.0,3.0,right,0.0,1.883428791003098,,,,,,3.0,1.0,7.0,0.0,,,,,,,,,27.901318834003177,,,,,,,,,27.890642459002265,28.690330792000168,29.484661584003334,29.473516334001037,29.4740050420005,29.484661584003334,29.484661584003334,29.484661584003334,31.36996520899993,right,0.0,1.883428791003098,,31.37009987500278,31.37764004200289,31.868336625000666,31.8734552920032,,,,,,,,,,,,,,,,,,,,,,,,,,,,,sub-181,1,random_dot,,
left,left,8.0,0.0,4.0,right,0.0,0.9645767499969224,,,,,,4.0,0.0,8.0,0.0,,,,,,,,,31.8734552920032,,,,,,,,,31.868858750000072,32.21802554200258,33.00914458400075,33.0015204170013,33.00210641700323,33.00914458400075,33.00914458400075,33.00914458400075,33.9755313750029,right,0.0,0.9645767499969224,,33.97563516700029,33.983155500001885,34.46808816700286,34.47325329200248,,,,,,,,,,,,,,,,,,,,,,,,,,,,,sub-181,1,random_dot,,
right,right,9.0,1.0,4.0,right,1.0,1.1367846250032017,,,,,,4.0,1.0,9.0,1.0,,,,,,,,,34.47325329200248,,,,,,,,,34.46862133400282,35.27266912500272,36.06782554200254,36.05673200000092,36.05720866699994,36.06782554200254,36.06782554200254,36.06782554200254,37.20926012500058,right,1.0,1.1367846250032017,,37.212079125001765,37.21968133400151,37.706735709001805,37.71804558400254,,,,,,,,,,,,,,,,,,,,,,,,,,,,,sub-181,1,random_dot,,
left,left,10.0,0.0,5.0,left,1.0,1.826211750001676,,,,,,5.0,0.0,10.0,0.0,,,,,,,,,37.71804558400254,,,,,,,,,37.707209792002686,37.80673804199978,38.60080900000321,38.59056404200237,38.59103900000264,38.60080900000321,38.60080900000321,38.60080900000321,40.43590437500097,left,1.0,1.826211750001676,,40.43604166700243,40.44333962500241,40.9348064170008,40.93996933400194,,,,,,,,,,,,,,,,,,,,,,,,,,,,,sub-181,1,random_dot,,
right,right,11.0,1.0,5.0,left,0.0,0.684164750000491,,,,,,5.0,1.0,11.0,1.0,,,,,,,,,40.93996933400194,,,,,,,,,40.93535350000093,42.13493187499989,42.92661183400196,42.9184891670011,42.919278750003286,42.92661183400196,42.92661183400196,42.92661183400196,43.61893187500027,left,0.0,0.684164750000491,,43.62268312500237,43.62956425000084,44.11836608400336,44.123880667000776,,,,,,,,,,,,,,,,,,,,,,,,,,,,,sub-181,1,random_dot,,
right,right,12.0,0.0,6.0,right,1.0,0.6247214999966673,,,,,,6.0,0.0,12.0,1.0,,,,,,,,,44.123880667000776,,,,,,,,,44.11905641700287,44.90728141700311,45.70114404200285,45.690002542,45.6904931670033,45.70114404200285,45.70114404200285,45.70114404200285,46.33606708400112,right,1.0,0.6247214999966673,,46.33983433400135,46.34660491700197,46.83486583400008,46.84000987500258,,,,,,,,,,,,,,,,,,,,,,,,,,,,,sub-181,1,random_dot,,
left,left,13.0,1.0,6.0,left,1.0,0.4418030419983552,,,,,,6.0,1.0,13.0,0.0,,,,,,,,,46.84000987500258,,,,,,,,,46.83541600000172,46.93471191700155,47.726143584000965,47.71830300000147,47.71893566700237,47.726143584000965,47.726143584000965,47.726143584000965,48.16966666700319,left,1.0,0.4418030419983552,,48.16981095899973,48.17704479200256,48.66824712500238,48.6733923339998,,,,,,,,,,,,,,,,,,,,,,,,,,,,,sub-181,1,random_dot,,
left,left,14.0,0.0,7.0,right,0.0,0.4422203330032062,,,,,,7.0,0.0,14.0,0.0,,,,,,,,,48.6733923339998,,,,,,,,,48.6687754170016,49.467891584001336,50.25924329200279,50.251594084002136,50.25227208400247,50.25924329200279,50.25924329200279,50.25924329200279,50.70334870900115,right,0.0,0.4422203330032062,,50.707139500002086,50.71396158400239,51.20166370900188,51.20682695900177,,,,,,,,,,,,,,,,,,,,,,,,,,,,,sub-181,1,random_dot,,
right,right,15.0,1.0,7.0,left,0.0,0.5713005830002658,,,,,,7.0,1.0,15.0,1.0,,,,,,,,,51.20682695900177,,,,,,,,,51.20218300000124,51.30135854200125,52.09235083400199,52.08480637500179,52.08542929200121,52.09235083400199,52.09235083400199,52.09235083400199,52.66899645900048,left,0.0,0.5713005830002658,,52.669117375000496,52.675813125002605,53.16820429200016,53.17335933400318,,,,,,,,,,,,,,,,,,,,,,,,,,,,,sub-181,1,random_dot,,
right,right,16.0,0.0,8.0,right,1.0,0.7228518329975486,,,,,,8.0,0.0,16.0,1.0,,,,,,,,,53.17335933400318,,,,,,,,,53.16874441700202,53.267845000002126,54.059334042001865,54.0515132090004,54.05209654200007,54.059334042001865,54.059334042001865,54.059334042001865,54.78522145900206,right,1.0,0.7228518329975486,,54.78903208400152,54.79597850000209,55.284691959001066,55.28983508400052,,,,,,,,,,,,,,,,,,,,,,,,,,,,,sub-181,1,random_dot,,
left,left,17.0,1.0,8.0,left,1.0,0.6347179580006923,,,,,,8.0,1.0,17.0,0.0,,,,,,,,,55.28983508400052,,,,,,,,,55.2852120000025,56.47371254200334,57.26627841700247,57.25759354200272,57.258071375003055,57.26627841700247,57.26627841700247,57.26627841700247,57.90799204200084,left,1.0,0.6347179580006923,,57.90812033400289,57.91615487500167,58.40154158400037,58.40668816700054,,,,,,,,,,,,,,,,,,,,,,,,,,,,,sub-181,1,random_dot,,
left,left,18.0,0.0,9.0,right,0.0,0.7442769590015814,,,,,,9.0,0.0,18.0,0.0,,,,,,,,,58.40668816700054,,,,,,,,,58.402072542001406,58.50669166700027,59.30099962500026,59.29013124999983,59.290630375002365,59.30099962500026,59.30099962500026,59.30099962500026,60.05251550000321,right,0.0,0.7442769590015814,,60.056189709001046,60.06300141700194,60.5515773340012,60.55724654200094,,,,,,,,,,,,,,,,,,,,,,,,,,,,,sub-181,1,random_dot,,
right,right,19.0,1.0,9.0,right,1.0,0.7357145409987425,,,,,,9.0,1.0,19.0,1.0,,,,,,,,,60.55724654200094,,,,,,,,,60.55224520900083,60.65112354200028,61.44285050000326,61.43499066700315,61.4357512500028,61.44285050000326,61.44285050000326,61.44285050000326,62.18582162500024,right,1.0,0.7357145409987425,,62.189458750002814,62.19623591700292,62.68482741700063,62.77663870900142,,,,,,,,,,,,,,,,,,,,,,,,,,,,,sub-181,1,random_dot,,
,,,,,,,,,,,,,,,,,,,,,,,,,,,,,,,,,,,,,,,,,,,,,,,,,,,62.77283762500156,62.77663870900142,62.77663870900142,64.0863995840009,space,1.3024408750025032,,,,,,,,,,,,,,,,,,,,,,,sub-181,1,random_dot,,
,,,,,,,,,,,,,,,,,,,,,,,,,,,,,,,,,,,,,,,,,,,,,,,,,,,,,,,,,,64.08648091700161,64.09664633400098,64.09664633400098,64.60265112500201,space,0.5010153330003959,,,,,,,,,,,,,,,,sub-181,1,random_dot,,
right,right,0.0,0.0,0.0,left,0.0,0.396443708003062,,speed,space,0.6735507080011303,,,,,,0.0,0.0,0.0,1.0,0.0,0.0,0.0,1.0,65.32563645900154,,,,,,,,,65.3192619170004,65.65675262500008,66.45034937500168,66.44067504200211,66.44121708400053,66.45034937500168,66.45034937500168,66.45034937500168,66.85207895900021,,,,,,,,,,,,,,,,,,,,,,,64.62091508400044,64.62843250000151,64.62843250000151,65.30844537500161,space,0.6735507080011303,,left,0.0,0.396443708003062,,,,,sub-181,1,random_dot,,
left,left,1.0,1.0,0.0,right,0.0,0.2973007499967934,,speed,space,0.6735507080011303,,,,,,0.0,0.0,0.0,1.0,0.0,1.0,1.0,0.0,66.85927333400105,,,,,,,,,66.85257337500298,66.95100850000017,67.74314729199978,67.73485400000209,67.7356498750014,67.74314729199978,67.74314729199978,67.74314729199978,68.04207191700334,,,,,,,,,,,,,,,,,,,,,,,,,,,,,,right,0.0,0.2973007499967934,,,,,sub-181,1,random_dot,,
right,right,2.0,0.0,1.0,left,0.0,0.2982147920010902,,speed,space,0.6735507080011303,,,,,,0.0,0.0,0.0,1.0,1.0,0.0,2.0,1.0,68.04945362500075,,,,,,,,,68.04241454200019,68.13901004200306,68.93319120900196,68.92353162500149,68.9240469590004,68.93319120900196,68.93319120900196,68.93319120900196,69.2359113340026,,,,,,,,,,,,,,,,,,,,,,,,,,,,,,left,0.0,0.2982147920010902,,,,,sub-181,1,random_dot,,
left,left,3.0,1.0,1.0,right,0.0,0.275463124999078,,speed,space,0.6735507080011303,,,,,,0.0,0.0,0.0,1.0,1.0,1.0,3.0,0.0,69.24296804200276,,,,,,,,,69.23638795900115,70.03437804200075,70.82562970900108,70.81806275000054,70.81867954200061,70.82562970900108,70.82562970900108,70.82562970900108,71.10297420900315,,,,,,,,,,,,,,,,,,,,,,,,,,,,,,right,0.0,0.275463124999078,,,,,sub-181,1,random_dot,,
left,left,4.0,0.0,2.0,right,0.0,0.377279708001879,,speed,space,0.6735507080011303,,,,,,0.0,0.0,0.0,1.0,2.0,0.0,4.0,0.0,71.10965754200151,,,,,,,,,71.10353100000066,71.20104395900125,71.99233837500287,71.98452558400095,71.9851225420025,71.99233837500287,71.99233837500287,71.99233837500287,72.37465383400195,,,,,,,,,,,,,,,,,,,,,,,,,,,,,,right,0.0,0.377279708001879,,,,,sub-181,1,random_dot,,
right,right,5.0,1.0,2.0,left,0.0,0.2885135839969734,,speed,space,0.6735507080011303,,,,,,0.0,0.0,0.0,1.0,2.0,1.0,5.0,1.0,72.38311887500095,,,,,,,,,72.37499424999987,73.17409179200331,73.97566979200201,73.96797604200037,73.96860750000269,73.97566979200201,73.97566979200201,73.97566979200201,74.2690145000015,,,,,,,,,,,,,,,,,,,,,,,,,,,,,,left,0.0,0.2885135839969734,,,,,sub-181,1,random_dot,,
left,left,6.0,0.0,3.0,left,1.0,0.5752283330002683,,speed,space,0.6735507080011303,,,,,,0.0,0.0,0.0,1.0,3.0,0.0,6.0,0.0,74.27639270900181,,,,,,,,,74.26955887500299,74.61777887500284,75.40910012500171,75.40125295899998,75.40187458400032,75.40910012500171,75.40910012500171,75.40910012500171,75.98603066700161,,,,,,,,,,,,,,,,,,,,,,,,,,,,,,left,1.0,0.5752283330002683,,,,,sub-181,1,random_dot,,
right,right,7.0,1.0,3.0,right,1.0,0.5524904580015573,,speed,space,0.6735507080011303,,,,,,0.0,0.0,0.0,1.0,3.0,1.0,7.0,1.0,75.99314833400058,,,,,,,,,75.98656083400056,76.33451329200034,77.12574608400246,77.11805000000095,77.11881170900233,77.12574608400246,77.12574608400246,77.12574608400246,77.68574337500104,,,,,,,,,,,,,,,,,,,,,,,,,,,,,,right,1.0,0.5524904580015573,,,,,sub-181,1,random_dot,,
right,right,8.0,0.0,4.0,right,1.0,0.360160749998613,,speed,space,0.6735507080011303,,,,,,0.0,0.0,0.0,1.0,4.0,0.0,8.0,1.0,77.69280904200059,,,,,,,,,77.68627787500009,78.88468983400162,79.6754916250029,79.66791808400012,79.66852629200002,79.6754916250029,79.6754916250029,79.6754916250029,80.04027720900194,,,,,,,,,,,,,,,,,,,,,,,,,,,,,,right,1.0,0.360160749998613,,,,,sub-181,1,random_dot,,
left,left,9.0,1.0,4.0,left,1.0,0.4780776660008996,,speed,space,0.6735507080011303,,,,,,0.0,0.0,0.0,1.0,4.0,1.0,9.0,0.0,80.05082787500214,,,,,,,,,80.04061866700067,80.84077758400235,81.64251704200069,81.63449220900293,81.63511920900055,81.64251704200069,81.64251704200069,81.64251704200069,82.12600083400321,,,,,,,,,,,,,,,,,,,,,,,,,,,,,,left,1.0,0.4780776660008996,,,,,sub-181,1,random_dot,,
right,right,10.0,0.0,5.0,right,1.0,0.333866166001826,,speed,space,0.6735507080011303,,,,,,0.0,0.0,0.0,1.0,5.0,0.0,10.0,1.0,82.1324331249998,,,,,,,,,82.12633991700204,82.47327012500318,83.267362417002,83.25646687500193,83.25694933400155,83.267362417002,83.267362417002,83.267362417002,83.60750220900081,,,,,,,,,,,,,,,,,,,,,,,,,,,,,,right,1.0,0.333866166001826,,,,,sub-181,1,random_dot,,
left,left,11.0,1.0,5.0,left,1.0,0.3722691250004573,,speed,space,0.6735507080011303,,,,,,0.0,0.0,0.0,1.0,5.0,1.0,11.0,0.0,83.61672991700107,,,,,,,,,83.6079355840011,83.70569091700236,84.50097529200139,84.48985787499987,84.49034283400033,84.50097529200139,84.50097529200139,84.50097529200139,84.87480266700004,,,,,,,,,,,,,,,,,,,,,,,,,,,,,,left,1.0,0.3722691250004573,,,,,sub-181,1,random_dot,,
right,right,12.0,0.0,6.0,right,1.0,0.6244869999973162,,speed,space,0.6735507080011303,,,,,,0.0,0.0,0.0,1.0,6.0,0.0,12.0,1.0,84.88274491700213,,,,,,,,,84.87521512500098,84.97244325000065,85.76755495900215,85.75605237499985,85.75651812500291,85.76755495900215,85.76755495900215,85.76755495900215,86.402384584002,,,,,,,,,,,,,,,,,,,,,,,,,,,,,,right,1.0,0.6244869999973162,,,,,sub-181,1,random_dot,,
left,left,13.0,1.0,6.0,right,0.0,0.3821970839999267,,speed,space,0.6735507080011303,,,,,,0.0,0.0,0.0,1.0,6.0,1.0,13.0,0.0,86.40915091700299,,,,,,,,,86.40285241700258,86.50126783400265,87.29290158400181,87.28458762500304,87.28537170900017,87.29290158400181,87.29290158400181,87.29290158400181,87.68540775000292,,,,,,,,,,,,,,,,,,,,,,,,,,,,,,right,0.0,0.3821970839999267,,,,,sub-181,1,random_dot,,
left,left,14.0,0.0,7.0,left,1.0,0.4339191660001233,,speed,space,0.6735507080011303,,,,,,0.0,0.0,0.0,1.0,7.0,0.0,14.0,0.0,87.6922958340001,,,,,,,,,87.6858310839998,88.48433220900188,89.27541587500309,89.26782837500286,89.26842000000033,89.27541587500309,89.27541587500309,89.27541587500309,89.71893512500174,,,,,,,,,,,,,,,,,,,,,,,,,,,,,,left,1.0,0.4339191660001233,,,,,sub-181,1,random_dot,,
right,right,15.0,1.0,7.0,right,1.0,0.4015750420003314,,speed,space,0.6735507080011303,,,,,,0.0,0.0,0.0,1.0,7.0,1.0,15.0,1.0,89.72609937500238,,,,,,,,,89.71942162500272,90.06747675000224,90.85892370900184,90.8511379590018,90.85176320900064,90.85892370900184,90.85892370900184,90.85892370900184,91.26904391700008,,,,,,,,,,,,,,,,,,,,,,,,,,,,,,right,1.0,0.4015750420003314,,,,,sub-181,1,random_dot,,
left,left,16.0,0.0,8.0,right,0.0,0.7427875829998811,,speed,space,0.6735507080011303,,,,,,0.0,0.0,0.0,1.0,8.0,0.0,16.0,0.0,91.2758001250004,,,,,,,,,91.26954420900074,91.61752395900112,92.40907137500108,92.40103954200094,92.40166804200273,92.40907137500108,92.40907137500108,92.40907137500108,93.157288917002,,,,,,,,,,,,,,,,,,,,,,,,,,,,,,right,0.0,0.7427875829998811,,,,,sub-181,1,random_dot,,
right,right,17.0,1.0,8.0,left,0.0,1.0574814999999944,,speed,space,0.6735507080011303,,,,,,0.0,0.0,0.0,1.0,8.0,1.0,17.0,1.0,93.16674662500009,,,,,,,,,93.15763537500244,93.50717833400267,94.30089154200324,94.28971329200068,94.29019745900224,94.30089154200324,94.30089154200324,94.30089154200324,95.36897895900256,,,,,,,,,,,,,,,,,,,,,,,,,,,,,,left,0.0,1.0574814999999944,,,,,sub-181,1,random_dot,,
right,right,18.0,0.0,9.0,right,1.0,0.5420070830004988,,speed,space,0.6735507080011303,,,,,,0.0,0.0,0.0,1.0,9.0,0.0,18.0,1.0,95.3759490420016,,,,,,,,,95.36946012500266,96.16759558400008,96.95901187500203,96.95124295900314,96.95182854200176,96.95901187500203,96.95901187500203,96.95901187500203,97.51050487500106,,,,,,,,,,,,,,,,,,,,,,,,,,,,,,right,1.0,0.5420070830004988,,,,,sub-181,1,random_dot,,
left,left,19.0,1.0,9.0,left,1.0,0.5529773750022287,,speed,space,0.6735507080011303,,,,,,0.0,0.0,0.0,1.0,9.0,1.0,19.0,0.0,97.51592570900176,,,,,,,,,97.51085483400313,98.70717599999988,99.5007026250023,99.49005691700222,99.49053400000048,99.5007026250023,99.5007026250023,99.5007026250023,100.05712370900072,,,,,,,,,,,,,,,,,,,,,,,,,,,,,,left,1.0,0.5529773750022287,,,,,sub-181,1,random_dot,,
right,right,20.0,0.0,10.0,right,1.0,0.3437236249992565,,speed,space,0.6735507080011303,,,,,,0.0,0.0,0.0,1.0,10.0,0.0,20.0,1.0,100.06611300000075,,,,,,,,,100.05761966700084,100.8575403750001,101.658275709,101.65106516700324,101.65155083400168,101.658275709,101.658275709,101.658275709,102.00774366699989,,,,,,,,,,,,,,,,,,,,,,,,,,,,,,right,1.0,0.3437236249992565,,,,,sub-181,1,random_dot,,
left,left,21.0,1.0,10.0,left,1.0,0.5635339169966755,,speed,space,0.6735507080011303,,,,,,0.0,0.0,0.0,1.0,10.0,1.0,21.0,0.0,102.01591037500113,,,,,,,,,102.0081065000013,102.80672708400016,103.5993823750032,103.59065466700122,103.5911780000024,103.5993823750032,103.5993823750032,103.5993823750032,104.16876770900126,,,,,,,,,,,,,,,,,,,,,,,,,,,,,,left,1.0,0.5635339169966755,,,,,sub-181,1,random_dot,,
left,left,22.0,0.0,11.0,right,0.0,0.3649167910007236,,speed,space,0.6735507080011303,,,,,,0.0,0.0,0.0,1.0,11.0,0.0,22.0,0.0,104.17664720900213,,,,,,,,,104.16926462500123,104.26755920900176,105.0590393750026,105.051066,105.05179620900162,105.0590393750026,105.0590393750026,105.0590393750026,105.42565183400076,,,,,,,,,,,,,,,,,,,,,,,,,,,,,,right,0.0,0.3649167910007236,,,,,sub-181,1,random_dot,,
right,right,23.0,1.0,11.0,left,0.0,0.7052720419997058,,speed,space,0.6735507080011303,,,,,,0.0,0.0,0.0,1.0,11.0,1.0,23.0,1.0,105.432336959002,,,,,,,,,105.42606233400149,105.52261566700328,106.3169805840007,106.30674316700242,106.3072419170021,106.3169805840007,106.3169805840007,106.3169805840007,107.02477895900302,,,,,,,,,,,,,,,,,,,,,,,,,,,,,,left,0.0,0.7052720419997058,,,,,sub-181,1,random_dot,,
right,right,24.0,0.0,12.0,right,1.0,0.409180082999228,,speed,space,0.6735507080011303,,,,,,0.0,0.0,0.0,1.0,12.0,0.0,24.0,1.0,107.03252941699976,,,,,,,,,107.02522766699984,107.3739976249999,108.16588075000254,108.15723562499988,108.1577274170013,108.16588075000254,108.16588075000254,108.16588075000254,108.5855405000002,,,,,,,,,,,,,,,,,,,,,,,,,,,,,,right,1.0,0.409180082999228,,,,,sub-181,1,random_dot,,
left,left,25.0,1.0,12.0,left,1.0,0.3720672090021253,,speed,space,0.6735507080011303,,,,,,0.0,0.0,0.0,1.0,12.0,1.0,25.0,0.0,108.5925162090025,,,,,,,,,108.5860254170002,109.38417695899987,110.17521608400055,110.167657375001,110.16829895900082,110.17521608400055,110.17521608400055,110.17521608400055,110.55187204200048,,,,,,,,,,,,,,,,,,,,,,,,,,,,,,left,1.0,0.3720672090021253,,,,,sub-181,1,random_dot,,
right,right,26.0,0.0,13.0,right,1.0,0.3243419169994013,,speed,space,0.6735507080011303,,,,,,0.0,0.0,0.0,1.0,13.0,0.0,26.0,1.0,110.55865175000145,,,,,,,,,110.55232091700236,110.90086833399982,111.69279762500082,111.68441633400288,111.68522133400256,111.69279762500082,111.69279762500082,111.69279762500082,112.01885033400322,,,,,,,,,,,,,,,,,,,,,,,,,,,,,,right,1.0,0.3243419169994013,,,,,sub-181,1,random_dot,,
left,left,27.0,1.0,13.0,left,1.0,0.3697725409983832,,speed,space,0.6735507080011303,,,,,,0.0,0.0,0.0,1.0,13.0,1.0,27.0,0.0,112.02564883400191,,,,,,,,,112.01934333400276,112.36759575000178,113.15909695899973,113.15111566700216,113.15174787500293,113.15909695899973,113.15909695899973,113.15909695899973,113.53522641700329,,,,,,,,,,,,,,,,,,,,,,,,,,,,,,left,1.0,0.3697725409983832,,,,,sub-181,1,random_dot,,
right,right,28.0,0.0,14.0,right,1.0,0.3199961249993066,,speed,space,0.6735507080011303,,,,,,0.0,0.0,0.0,1.0,14.0,0.0,28.0,1.0,113.54164412500177,,,,,,,,,113.53567450000264,113.88405937500283,114.6753620840027,114.66758604200004,114.668173459002,114.6753620840027,114.6753620840027,114.6753620840027,115.00160925000093,,,,,,,,,,,,,,,,,,,,,,,,,,,,,,right,1.0,0.3199961249993066,,,,,sub-181,1,random_dot,,
left,left,29.0,1.0,14.0,left,1.0,0.3285036669985857,,speed,space,0.6735507080011303,,,,,,0.0,0.0,0.0,1.0,14.0,1.0,29.0,0.0,115.00782787500066,,,,,,,,,115.00194316700072,116.18996391700055,116.9840535000003,116.97287970900288,116.97336570900006,116.9840535000003,116.9840535000003,116.9840535000003,117.3182828750032,,,,,,,,,,,,,,,,,,,,,,,,,,,,,,left,1.0,0.3285036669985857,,,,,sub-181,1,random_dot,,
left,left,30.0,0.0,15.0,right,0.0,0.3094734999976936,,speed,space,0.6735507080011303,,,,,,0.0,0.0,0.0,1.0,15.0,0.0,30.0,0.0,117.32474891700258,,,,,,,,,117.31867737500215,117.6572609169998,118.45844787500027,118.45091058400068,118.45152162500015,118.45844787500027,118.45844787500027,118.45844787500027,118.7774142920025,,,,,,,,,,,,,,,,,,,,,,,,,,,,,,right,0.0,0.3094734999976936,,,,,sub-181,1,random_dot,,
right,right,31.0,1.0,15.0,left,0.0,0.3150490840016573,,speed,space,0.6735507080011303,,,,,,0.0,0.0,0.0,1.0,15.0,1.0,31.0,1.0,118.78239608400328,,,,,,,,,118.77778020900224,119.57352237500164,120.37607079200096,120.36766079200244,120.3682741670018,120.37607079200096,120.37607079200096,120.37607079200096,120.7004465420032,,,,,,,,,,,,,,,,,,,,,,,,,,,,,,left,0.0,0.3150490840016573,,,,,sub-181,1,random_dot,,
left,left,32.0,0.0,16.0,right,0.0,0.4503682079994178,,speed,space,0.6735507080011303,,,,,,0.0,0.0,0.0,1.0,16.0,0.0,32.0,0.0,120.70436866700038,,,,,,,,,120.70080608400168,121.03881354199984,121.83398275000218,121.8228763340012,121.82336662500164,121.83398275000218,121.83398275000218,121.83398275000218,122.28604383400308,,,,,,,,,,,,,,,,,,,,,,,,,,,,,,right,0.0,0.4503682079994178,,,,,sub-181,1,random_dot,,
right,right,33.0,1.0,16.0,left,0.0,0.4699772089988983,,speed,space,0.6735507080011303,,,,,,0.0,0.0,0.0,1.0,16.0,1.0,33.0,1.0,122.29296870899998,,,,,,,,,122.28657891700276,123.48424416700072,124.27528254200296,124.26745391700024,124.2680685000014,124.27528254200296,124.27528254200296,124.27528254200296,124.75204304200088,,,,,,,,,,,,,,,,,,,,,,,,,,,,,,left,0.0,0.4699772089988983,,,,,sub-181,1,random_dot,,
right,right,34.0,0.0,17.0,right,1.0,0.4002585839989478,,speed,space,0.6735507080011303,,,,,,0.0,0.0,0.0,1.0,17.0,0.0,34.0,1.0,124.75860941700012,,,,,,,,,124.7524453340011,124.85070154200002,125.64220783400016,125.63423400000102,125.63481775000037,125.64220783400016,125.64220783400016,125.64220783400016,126.05208458400011,,,,,,,,,,,,,,,,,,,,,,,,,,,,,,right,1.0,0.4002585839989478,,,,,sub-181,1,random_dot,,
left,left,35.0,1.0,17.0,right,0.0,0.4363607919985952,,speed,space,0.6735507080011303,,,,,,0.0,0.0,0.0,1.0,17.0,1.0,35.0,0.0,126.05908029200144,,,,,,,,,126.05257329200322,126.8507304170016,127.64275541700044,127.63466129200242,127.63546404200316,127.64275541700044,127.64275541700044,127.64275541700044,128.08620537500246,,,,,,,,,,,,,,,,,,,,,,,,,,,,,,right,0.0,0.4363607919985952,,,,,sub-181,1,random_dot,,
left,left,36.0,0.0,18.0,right,0.0,0.881993415998295,,speed,space,0.6735507080011303,,,,,,0.0,0.0,0.0,1.0,18.0,0.0,36.0,0.0,128.09298400000262,,,,,,,,,128.0867594170013,128.8840880839998,129.6753352500018,129.66752845900191,129.66812833400036,129.6753352500018,129.6753352500018,129.6753352500018,130.5671516250004,,,,,,,,,,,,,,,,,,,,,,,,,,,,,,right,0.0,0.881993415998295,,,,,sub-181,1,random_dot,,
right,right,37.0,1.0,18.0,left,0.0,0.3580990419977752,,speed,space,0.6735507080011303,,,,,,0.0,0.0,0.0,1.0,18.0,1.0,37.0,1.0,130.57105029200102,,,,,,,,,130.5674956670009,130.90532237500156,131.7005548340021,131.68937341700075,131.6898491250031,131.7005548340021,131.7005548340021,131.7005548340021,132.06704491700293,,,,,,,,,,,,,,,,,,,,,,,,,,,,,,left,0.0,0.3580990419977752,,,,,sub-181,1,random_dot,,
right,right,38.0,0.0,19.0,right,1.0,0.8052209160014172,,speed,space,0.6735507080011303,,,,,,0.0,0.0,0.0,1.0,19.0,0.0,38.0,1.0,132.07332895900254,,,,,,,,,132.06740504200206,132.40672045900283,133.20058104200143,133.18944729200302,133.1899584590028,133.20058104200143,133.20058104200143,133.20058104200143,134.00787833400318,,,,,,,,,,,,,,,,,,,,,,,,,,,,,,right,1.0,0.8052209160014172,,,,,sub-181,1,random_dot,,
left,left,39.0,1.0,19.0,left,1.0,0.358549666001636,,speed,space,0.6735507080011303,,,,,,0.0,0.0,0.0,1.0,19.0,1.0,39.0,0.0,134.01564316700023,,,,,,,,,134.008312209,135.20722133399977,136.00849383400055,136.00069120900298,136.00130033400274,136.00849383400055,136.00849383400055,136.00849383400055,136.37702425000316,,,,,,,,,,,,,,,,,,,,,,,,,,,,,,left,1.0,0.358549666001636,,,,,sub-181,1,random_dot,,
right,right,40.0,0.0,20.0,right,1.0,0.3104871670002467,,speed,space,0.6735507080011303,,,,,,0.0,0.0,0.0,1.0,20.0,0.0,40.0,1.0,136.38225212500038,,,,,,,,,136.37738758400155,136.7231845000024,137.51727850000316,137.50616958400133,137.50665262500115,137.51727850000316,137.51727850000316,137.51727850000316,137.83543020900106,,,,,,,,,,,,,,,,,,,,,,,,,,,,,,right,1.0,0.3104871670002467,,,,,sub-181,1,random_dot,,
left,left,41.0,1.0,20.0,left,1.0,0.4330809580023924,,speed,space,0.6735507080011303,,,,,,0.0,0.0,0.0,1.0,20.0,1.0,41.0,0.0,137.84272387500096,,,,,,,,,137.83594416699998,138.63393195900062,139.4249755000019,139.4174461670009,139.4180738340001,139.4249755000019,139.4249755000019,139.4249755000019,139.86819233400092,,,,,,,,,,,,,,,,,,,,,,,,,,,,,,left,1.0,0.4330809580023924,,,,,sub-181,1,random_dot,,
right,right,42.0,0.0,21.0,left,0.0,0.3822542919988336,,speed,space,0.6735507080011303,,,,,,0.0,0.0,0.0,1.0,21.0,0.0,42.0,1.0,139.8744668340005,,,,,,,,,139.868532667002,139.96749566700237,140.75844295900242,140.7507221670021,140.75135508400126,140.75844295900242,140.75844295900242,140.75844295900242,141.15206150000083,,,,,,,,,,,,,,,,,,,,,,,,,,,,,,left,0.0,0.3822542919988336,,,,,sub-181,1,random_dot,,
left,left,43.0,1.0,21.0,left,1.0,0.5920922500008601,,speed,space,0.6735507080011303,,,,,,0.0,0.0,0.0,1.0,21.0,1.0,43.0,0.0,141.15892083400104,,,,,,,,,141.15256104200307,141.50066695900023,142.2919767500025,142.28425979200256,142.2850109170031,142.2919767500025,142.2919767500025,142.2919767500025,142.89080333400125,,,,,,,,,,,,,,,,,,,,,,,,,,,,,,left,1.0,0.5920922500008601,,,,,sub-181,1,random_dot,,
right,right,44.0,0.0,22.0,right,1.0,0.6480689579984755,,speed,space,0.6735507080011303,,,,,,0.0,0.0,0.0,1.0,22.0,0.0,44.0,1.0,142.89891608400285,,,,,,,,,142.89117445900047,143.24019816700093,144.0423242500001,144.0343942090003,144.03518383400296,144.0423242500001,144.0423242500001,144.0423242500001,144.69205625000177,,,,,,,,,,,,,,,,,,,,,,,,,,,,,,right,1.0,0.6480689579984755,,,,,sub-181,1,random_dot,,
left,left,45.0,1.0,22.0,right,0.0,0.7572109160028049,,speed,space,0.6735507080011303,,,,,,0.0,0.0,0.0,1.0,22.0,1.0,45.0,0.0,144.6991514170004,,,,,,,,,144.69246195900269,145.48949983400234,146.28388054200332,146.27254545899996,146.27303862500048,146.28388054200332,146.28388054200332,146.28388054200332,147.05194516700067,,,,,,,,,,,,,,,,,,,,,,,,,,,,,,right,0.0,0.7572109160028049,,,,,sub-181,1,random_dot,,
left,left,46.0,0.0,23.0,left,1.0,0.2485333750009886,,speed,space,0.6735507080011303,,,,,,0.0,0.0,0.0,1.0,23.0,0.0,46.0,0.0,147.0587719590003,,,,,,,,,147.0524404170028,148.2504406670014,149.0419412500014,149.034141250002,149.03474408400143,149.0419412500014,149.0419412500014,149.0419412500014,149.3015726670019,,,,,,,,,,,,,,,,,,,,,,,,,,,,,,left,1.0,0.2485333750009886,,,,,sub-181,1,random_dot,,
right,right,47.0,1.0,23.0,right,1.0,0.2939050829991174,,speed,space,0.6735507080011303,,,,,,0.0,0.0,0.0,1.0,23.0,1.0,47.0,1.0,149.30813991700052,,,,,,,,,149.30201104200023,150.50052433400197,151.29199875000268,151.2842285000006,151.28483150000102,151.29199875000268,151.29199875000268,151.29199875000268,151.591637542002,,,,,,,,,,,,,,,,,,,,,,,,,,,,,,right,1.0,0.2939050829991174,,,,,sub-181,1,random_dot,,
right,right,48.0,0.0,24.0,left,0.0,0.3245275410008617,,speed,space,0.6735507080011303,,,,,,0.0,0.0,0.0,1.0,24.0,0.0,48.0,1.0,151.59887370900103,,,,,,,,,151.5919934170015,151.68858991700108,152.482842292,152.47295250000025,152.47344383400196,152.482842292,152.482842292,152.482842292,152.81862933400043,,,,,,,,,,,,,,,,,,,,,,,,,,,,,,left,0.0,0.3245275410008617,,,,,sub-181,1,random_dot,,
left,left,49.0,1.0,24.0,right,0.0,0.3166744999980437,,speed,space,0.6735507080011303,,,,,,0.0,0.0,0.0,1.0,24.0,1.0,49.0,0.0,152.82582008400277,,,,,,,,,152.81911387500077,152.9173747920031,153.70837679200122,153.70062741700167,153.70119058400087,153.70837679200122,153.70837679200122,153.70837679200122,154.03472520900323,,,,,,,,,,,,,,,,,,,,,,,,,,,,,,right,0.0,0.3166744999980437,,,,,sub-181,1,random_dot,,
right,right,50.0,0.0,25.0,left,0.0,0.2954536659999576,,speed,space,0.6735507080011303,,,,,,0.0,0.0,0.0,1.0,25.0,0.0,50.0,1.0,154.04203954200057,,,,,,,,,154.03519091700218,155.23386208400188,156.02493624999988,156.01733983400118,156.0179975840001,156.02493624999988,156.02493624999988,156.02493624999988,156.3241088750001,,,,,,,,,,,,,,,,,,,,,,,,,,,,,,left,0.0,0.2954536659999576,,,,,sub-181,1,random_dot,,
left,left,51.0,1.0,25.0,right,0.0,0.3207454160001362,,speed,space,0.6735507080011303,,,,,,0.0,0.0,0.0,1.0,25.0,1.0,51.0,0.0,156.33268041700285,,,,,,,,,156.32444283400037,156.67281016700144,157.46709650000048,157.45600683400335,157.45647783400273,157.46709650000048,157.46709650000048,157.46709650000048,157.79164366700206,,,,,,,,,,,,,,,,,,,,,,,,,,,,,,right,0.0,0.3207454160001362,,,,,sub-181,1,random_dot,,
right,right,52.0,0.0,26.0,left,0.0,0.3186469590000342,,speed,space,0.6735507080011303,,,,,,0.0,0.0,0.0,1.0,26.0,0.0,52.0,1.0,157.79881250000108,,,,,,,,,157.79200145900177,158.99023358400154,159.7821616250003,159.7734150000033,159.77389287500046,159.7821616250003,159.7821616250003,159.7821616250003,160.10253379200003,,,,,,,,,,,,,,,,,,,,,,,,,,,,,,left,0.0,0.3186469590000342,,,,,sub-181,1,random_dot,,
left,left,53.0,1.0,26.0,right,0.0,0.2961727089968917,,speed,space,0.6735507080011303,,,,,,0.0,0.0,0.0,1.0,26.0,1.0,53.0,0.0,160.1093315420003,,,,,,,,,160.10310625000056,160.90049037500285,161.69173166700057,161.68394970900044,161.68457316700005,161.69173166700057,161.69173166700057,161.69173166700057,161.99145058400245,,,,,,,,,,,,,,,,,,,,,,,,,,,,,,right,0.0,0.2961727089968917,,,,,sub-181,1,random_dot,,
right,right,54.0,0.0,27.0,left,0.0,0.3358556659986789,,speed,space,0.6735507080011303,,,,,,0.0,0.0,0.0,1.0,27.0,0.0,54.0,1.0,161.99877175000074,,,,,,,,,161.991783417001,162.08848825000314,162.8838296670001,162.87250070899972,162.87299133400302,162.8838296670001,162.8838296670001,162.8838296670001,163.22509462500238,,,,,,,,,,,,,,,,,,,,,,,,,,,,,,left,0.0,0.3358556659986789,,,,,sub-181,1,random_dot,,
left,left,55.0,1.0,27.0,right,0.0,0.5359815409974544,,speed,space,0.6735507080011303,,,,,,0.0,0.0,0.0,1.0,27.0,1.0,55.0,0.0,163.2321224590014,,,,,,,,,163.22554212500108,163.32191816700288,164.1169910839999,164.10580875000232,164.10631475000264,164.1169910839999,164.1169910839999,164.1169910839999,164.65822295900216,,,,,,,,,,,,,,,,,,,,,,,,,,,,,,right,0.0,0.5359815409974544,,,,,sub-181,1,random_dot,,
left,left,56.0,0.0,28.0,right,0.0,0.3209399169973039,,speed,space,0.6735507080011303,,,,,,0.0,0.0,0.0,1.0,28.0,0.0,56.0,0.0,164.66544500000236,,,,,,,,,164.65857270900233,164.75576283400005,165.55034820900255,165.53923108399977,165.5397162090012,165.55034820900255,165.55034820900255,165.55034820900255,165.87502987500193,,,,,,,,,,,,,,,,,,,,,,,,,,,,,,right,0.0,0.3209399169973039,,,,,sub-181,1,random_dot,,
right,right,57.0,1.0,28.0,right,1.0,0.4388522500012186,,speed,space,0.6735507080011303,,,,,,0.0,0.0,0.0,1.0,28.0,1.0,57.0,1.0,165.8821155000005,,,,,,,,,165.87537208400315,166.67361362500014,167.47434170900306,167.46720437500335,167.46769162500277,167.47434170900306,167.47434170900306,167.47434170900306,167.9183928340026,,,,,,,,,,,,,,,,,,,,,,,,,,,,,,right,1.0,0.4388522500012186,,,,,sub-181,1,random_dot,,
right,right,58.0,0.0,29.0,right,1.0,0.3598911670014786,,speed,space,0.6735507080011303,,,,,,0.0,0.0,0.0,1.0,29.0,0.0,58.0,1.0,167.9255905420032,,,,,,,,,167.9188890000005,168.71712537500207,169.5088378750006,169.5005002500002,169.5011265840003,169.5088378750006,169.5088378750006,169.5088378750006,169.87384033400303,,,,,,,,,,,,,,,,,,,,,,,,,,,,,,right,1.0,0.3598911670014786,,,,,sub-181,1,random_dot,,
left,left,59.0,1.0,29.0,right,0.0,0.3137992080010008,,speed,space,0.6735507080011303,,,,,,0.0,0.0,0.0,1.0,29.0,1.0,59.0,0.0,169.88204525000037,,,,,,,,,169.87427004200072,171.07368066700292,171.8654235000031,171.8566462090021,171.8571470839997,171.8654235000031,171.8654235000031,171.8654235000031,172.18505841700244,,,,,,,,,,,,,,,,,,,,,,,,,,,,,,right,0.0,0.3137992080010008,,,,,sub-181,1,random_dot,,
,,0.0,0.0,0.0,,,,,speed,space,0.6735507080011303,,,,,,0.0,0.0,0.0,1.0,,,,,,,,,,,,,,,,,,,,,,,,,,,,,,,,,,,,,,,,,,,,,,,,,,,,,,,,,,,sub-181,1,random_dot,,
right,right,0.0,0.0,0.0,right,1.0,1.1415707079977435,,accuracy,space,1.1758531670020602,,,,,,0.0,1.0,1.0,0.0,0.0,0.0,0.0,1.0,173.47487037500105,,,,,,,,,173.46789812499992,173.55512950000048,174.3487902500019,174.33950308400017,174.34010579200185,174.3487902500019,174.3487902500019,174.3487902500019,175.4922577090001,,,,,,,,,,,,,,,,,,,,,,,172.27112200000192,172.2752231250015,172.2752231250015,173.45786625000255,space,1.1758531670020602,,right,1.0,1.1415707079977435,,,,,sub-181,1,random_dot,,
left,left,1.0,1.0,0.0,left,1.0,1.1196004999983415,,accuracy,space,1.1758531670020602,,,,,,0.0,1.0,1.0,0.0,0.0,1.0,1.0,0.0,175.4993224589998,,,,,,,,,175.49275445900275,175.588818334003,176.38314762500158,176.3729770420032,176.37345945900233,176.38314762500158,176.38314762500158,176.38314762500158,177.50692937500207,,,,,,,,,,,,,,,,,,,,,,,,,,,,,,left,1.0,1.1196004999983415,,,,,sub-181,1,random_dot,,
right,right,2.0,0.0,1.0,right,1.0,0.5592705000017304,,accuracy,space,1.1758531670020602,,,,,,0.0,1.0,1.0,0.0,1.0,0.0,2.0,1.0,177.5158339590016,,,,,,,,,177.50735541700124,178.30578737500036,179.10030362500038,179.08899287500026,179.0894828340024,179.10030362500038,179.10030362500038,179.10030362500038,179.66938075000144,,,,,,,,,,,,,,,,,,,,,,,,,,,,,,right,1.0,0.5592705000017304,,,,,sub-181,1,random_dot,,
left,left,3.0,1.0,1.0,right,0.0,0.4691957079994608,,accuracy,space,1.1758531670020602,,,,,,0.0,1.0,1.0,0.0,1.0,1.0,3.0,0.0,179.67592954200154,,,,,,,,,179.66978675000064,180.016965584,180.80822070900103,180.8004450000008,180.8010730840033,180.80822070900103,180.80822070900103,180.80822070900103,181.28477583400309,,,,,,,,,,,,,,,,,,,,,,,,,,,,,,right,0.0,0.4691957079994608,,,,,sub-181,1,random_dot,,
left,left,4.0,0.0,2.0,right,0.0,0.6033131250005681,,accuracy,space,1.1758531670020602,,,,,,0.0,1.0,1.0,0.0,2.0,0.0,4.0,0.0,181.2918702090028,,,,,,,,,181.28526975000204,182.08365324999977,182.87602245900047,182.8674133340028,182.86824616700324,182.87602245900047,182.87602245900047,182.87602245900047,183.48506525000263,,,,,,,,,,,,,,,,,,,,,,,,,,,,,,right,0.0,0.6033131250005681,,,,,sub-181,1,random_dot,,
right,right,5.0,1.0,2.0,right,1.0,0.4512454159994377,,accuracy,space,1.1758531670020602,,,,,,0.0,1.0,1.0,0.0,2.0,1.0,5.0,1.0,183.4922687920007,,,,,,,,,183.48559637500148,184.28382770900132,185.0748950000016,185.0671094170029,185.0677408750016,185.0748950000016,185.0748950000016,185.0748950000016,185.53487912499983,,,,,,,,,,,,,,,,,,,,,,,,,,,,,,right,1.0,0.4512454159994377,,,,,sub-181,1,random_dot,,
left,left,6.0,0.0,3.0,right,0.0,0.8265135000001465,,accuracy,space,1.1758531670020602,,,,,,0.0,1.0,1.0,0.0,3.0,0.0,6.0,0.0,185.5423573750013,,,,,,,,,185.53538537500208,185.63375050000104,186.42495833400244,186.417233209002,186.41785729200276,186.42495833400244,186.42495833400244,186.42495833400244,187.25766183400265,,,,,,,,,,,,,,,,,,,,,,,,,,,,,,right,0.0,0.8265135000001465,,,,,sub-181,1,random_dot,,
right,right,7.0,1.0,3.0,left,0.0,0.8885738749995653,,accuracy,space,1.1758531670020602,,,,,,0.0,1.0,1.0,0.0,3.0,1.0,7.0,1.0,187.26528083400265,,,,,,,,,187.25808937500187,188.45499670900244,189.2492402090029,189.23964229200283,189.2401260000006,189.2492402090029,189.2492402090029,189.2492402090029,190.1421054590028,,,,,,,,,,,,,,,,,,,,,,,,,,,,,,left,0.0,0.8885738749995653,,,,,sub-181,1,random_dot,,
right,right,8.0,0.0,4.0,left,0.0,0.994719249996706,,accuracy,space,1.1758531670020602,,,,,,0.0,1.0,1.0,0.0,4.0,0.0,8.0,1.0,190.1489530840008,,,,,,,,,190.14254404200256,190.23827950000123,191.03258170900156,191.0223473340011,191.02283875000285,191.03258170900156,191.03258170900156,191.03258170900156,192.0348990420025,,,,,,,,,,,,,,,,,,,,,,,,,,,,,,left,0.0,0.994719249996706,,,,,sub-181,1,random_dot,,
left,left,9.0,1.0,4.0,left,1.0,1.0428308330010625,,accuracy,space,1.1758531670020602,,,,,,0.0,1.0,1.0,0.0,4.0,1.0,9.0,0.0,192.04176266700236,,,,,,,,,192.0353628340017,192.38349304200165,193.1742792920013,193.16710975000024,193.16759116700268,193.1742792920013,193.1742792920013,193.1742792920013,194.21894704200167,,,,,,,,,,,,,,,,,,,,,,,,,,,,,,left,1.0,1.0428308330010625,,,,,sub-181,1,random_dot,,
left,left,10.0,0.0,5.0,right,0.0,0.5307398330005526,,accuracy,space,1.1758531670020602,,,,,,0.0,1.0,1.0,0.0,5.0,0.0,10.0,0.0,194.225931459001,,,,,,,,,194.21953295900312,194.31681387500063,195.10805600000091,195.10031695900037,195.10093379200043,195.10805600000091,195.10805600000091,195.10805600000091,195.640924000003,,,,,,,,,,,,,,,,,,,,,,,,,,,,,,right,0.0,0.5307398330005526,,,,,sub-181,1,random_dot,,
right,right,11.0,1.0,5.0,left,0.0,0.813318332999188,,accuracy,space,1.1758531670020602,,,,,,0.0,1.0,1.0,0.0,5.0,1.0,11.0,1.0,195.64857200000188,,,,,,,,,195.6412767090005,196.83950333400207,197.63237595900137,197.62318570900243,197.62368483400127,197.63237595900137,197.63237595900137,197.63237595900137,198.45135320900224,,,,,,,,,,,,,,,,,,,,,,,,,,,,,,left,0.0,0.813318332999188,,,,,sub-181,1,random_dot,,
left,left,12.0,0.0,6.0,right,0.0,0.4752281660003064,,accuracy,space,1.1758531670020602,,,,,,0.0,1.0,1.0,0.0,6.0,0.0,12.0,0.0,198.45879620900087,,,,,,,,,198.4518345840006,199.6502696670032,200.44169266700192,200.4337477500012,200.4343704590028,200.44169266700192,200.44169266700192,200.44169266700192,200.91861600000263,,,,,,,,,,,,,,,,,,,,,,,,,,,,,,right,0.0,0.4752281660003064,,,,,sub-181,1,random_dot,,
right,right,13.0,1.0,6.0,left,0.0,0.6776847080000152,,accuracy,space,1.1758531670020602,,,,,,0.0,1.0,1.0,0.0,6.0,1.0,13.0,1.0,200.9257916250026,,,,,,,,,200.91913291700257,201.26685366700255,202.05895229200175,202.0505591250003,202.0513035000004,202.05895229200175,202.05895229200175,202.05895229200175,202.7405122500022,,,,,,,,,,,,,,,,,,,,,,,,,,,,,,left,0.0,0.6776847080000152,,,,,sub-181,1,random_dot,,
right,right,14.0,0.0,7.0,right,1.0,0.7191139589995146,,accuracy,space,1.1758531670020602,,,,,,0.0,1.0,1.0,0.0,7.0,0.0,14.0,1.0,202.74859216700133,,,,,,,,,202.7408586670026,203.5390166670004,204.3318604170017,204.32315675000063,204.32363562500177,204.3318604170017,204.3318604170017,204.3318604170017,205.0572132920024,,,,,,,,,,,,,,,,,,,,,,,,,,,,,,right,1.0,0.7191139589995146,,,,,sub-181,1,random_dot,,
left,left,15.0,1.0,7.0,left,1.0,0.5230997500002559,,accuracy,space,1.1758531670020602,,,,,,0.0,1.0,1.0,0.0,7.0,1.0,15.0,0.0,205.0655382090008,,,,,,,,,205.05754516700108,206.2549903750005,207.0500781250012,207.0389802919999,207.03946550000185,207.0500781250012,207.0500781250012,207.0500781250012,207.58471758400265,,,,,,,,,,,,,,,,,,,,,,,,,,,,,,left,1.0,0.5230997500002559,,,,,sub-181,1,random_dot,,
right,right,16.0,0.0,8.0,right,1.0,0.5961551660002442,,accuracy,space,1.1758531670020602,,,,,,0.0,1.0,1.0,0.0,8.0,0.0,16.0,1.0,207.59170537500177,,,,,,,,,207.5852187920027,208.7834552500026,209.5742116670008,209.5668722090013,209.5673797920026,209.5742116670008,209.5742116670008,209.5742116670008,210.17396612500303,,,,,,,,,,,,,,,,,,,,,,,,,,,,,,right,1.0,0.5961551660002442,,,,,sub-181,1,random_dot,,
left,left,17.0,1.0,8.0,right,0.0,1.0976948749994335,,accuracy,space,1.1758531670020602,,,,,,0.0,1.0,1.0,0.0,8.0,1.0,17.0,0.0,210.18181529200228,,,,,,,,,210.17431037500137,210.97324575000312,211.77463866700052,211.76689141700265,211.767519625002,211.77463866700052,211.77463866700052,211.77463866700052,212.87431958399972,,,,,,,,,,,,,,,,,,,,,,,,,,,,,,right,0.0,1.0976948749994335,,,,,sub-181,1,random_dot,,
right,right,18.0,0.0,9.0,right,1.0,1.13590487500187,,accuracy,space,1.1758531670020602,,,,,,0.0,1.0,1.0,0.0,9.0,0.0,18.0,1.0,212.88180008400013,,,,,,,,,212.8746505000017,213.22260937500323,214.0167010840014,214.0053671250025,214.0058522920008,214.0167010840014,214.0167010840014,214.0167010840014,215.15817812500245,,,,,,,,,,,,,,,,,,,,,,,,,,,,,,right,1.0,1.13590487500187,,,,,sub-181,1,random_dot,,
left,left,19.0,1.0,9.0,right,0.0,0.7776713750026829,,accuracy,space,1.1758531670020602,,,,,,0.0,1.0,1.0,0.0,9.0,1.0,19.0,0.0,215.1651282920029,,,,,,,,,215.15854262500216,215.9554537920012,216.74954487500145,216.73927416700096,216.73977175000252,216.74954487500145,216.74954487500145,216.74954487500145,217.5346786670016,,,,,,,,,,,,,,,,,,,,,,,,,,,,,,right,0.0,0.7776713750026829,,,,,sub-181,1,random_dot,,
right,right,20.0,0.0,10.0,left,0.0,0.5777701670012902,,accuracy,space,1.1758531670020602,,,,,,0.0,1.0,1.0,0.0,10.0,0.0,20.0,1.0,217.54185141700145,,,,,,,,,217.53518066700053,217.6333193340033,218.4247185000022,218.4169872090024,218.41756708400132,218.4247185000022,218.4247185000022,218.4247185000022,219.0081067090032,,,,,,,,,,,,,,,,,,,,,,,,,,,,,,left,0.0,0.5777701670012902,,,,,sub-181,1,random_dot,,
left,left,21.0,1.0,10.0,left,1.0,0.6577819999984058,,accuracy,space,1.1758531670020602,,,,,,0.0,1.0,1.0,0.0,10.0,1.0,21.0,0.0,219.01505637500304,,,,,,,,,219.00852345900057,219.80648604200175,220.5985789590013,220.5893014170033,220.589900084,220.5985789590013,220.5985789590013,220.5985789590013,221.25773750000008,,,,,,,,,,,,,,,,,,,,,,,,,,,,,,left,1.0,0.6577819999984058,,,,,sub-181,1,random_dot,,
left,left,22.0,0.0,11.0,right,0.0,0.4217691669982741,,accuracy,space,1.1758531670020602,,,,,,0.0,1.0,1.0,0.0,11.0,0.0,22.0,0.0,221.2650347500021,,,,,,,,,221.25808483400036,222.45534354200208,223.24997341700143,223.2388624590021,223.23936125000185,223.24997341700143,223.24997341700143,223.24997341700143,223.67483800000264,,,,,,,,,,,,,,,,,,,,,,,,,,,,,,right,0.0,0.4217691669982741,,,,,sub-181,1,random_dot,,
right,right,23.0,1.0,11.0,left,0.0,0.4937859579986252,,accuracy,space,1.1758531670020602,,,,,,0.0,1.0,1.0,0.0,11.0,1.0,23.0,1.0,223.68177637500048,,,,,,,,,223.67526162500144,224.02216145900093,224.81682933400225,224.8054212920033,224.8059178340009,224.81682933400225,224.81682933400225,224.81682933400225,225.31745387500268,,,,,,,,,,,,,,,,,,,,,,,,,,,,,,left,0.0,0.4937859579986252,,,,,sub-181,1,random_dot,,
right,right,24.0,0.0,12.0,left,0.0,0.5265875420009252,,accuracy,space,1.1758531670020602,,,,,,0.0,1.0,1.0,0.0,12.0,0.0,24.0,1.0,225.32373950000328,,,,,,,,,225.31778320900048,226.50549954200324,227.29979237500083,227.2886377499999,227.2891216670032,227.29979237500083,227.29979237500083,227.29979237500083,227.83408183400024,,,,,,,,,,,,,,,,,,,,,,,,,,,,,,left,0.0,0.5265875420009252,,,,,sub-181,1,random_dot,,
left,left,25.0,1.0,12.0,left,1.0,0.7086440000020957,,accuracy,space,1.1758531670020602,,,,,,0.0,1.0,1.0,0.0,12.0,1.0,25.0,0.0,227.84053983400008,,,,,,,,,227.8344115,228.1719745420014,228.96617695900204,228.95582516700236,228.9563341250032,228.96617695900204,228.96617695900204,228.96617695900204,229.68426912500215,,,,,,,,,,,,,,,,,,,,,,,,,,,,,,left,1.0,0.7086440000020957,,,,,sub-181,1,random_dot,,
right,right,26.0,0.0,13.0,right,1.0,0.6770918750007695,,accuracy,space,1.1758531670020602,,,,,,0.0,1.0,1.0,0.0,13.0,0.0,26.0,1.0,229.690627750002,,,,,,,,,229.68460733400207,229.77227600000333,230.5651166250027,230.55546991700248,230.5559417500008,230.5651166250027,230.5651166250027,230.5651166250027,231.24987320900252,,,,,,,,,,,,,,,,,,,,,,,,,,,,,,right,1.0,0.6770918750007695,,,,,sub-181,1,random_dot,,
left,left,27.0,1.0,13.0,left,1.0,0.4064309169989428,,accuracy,space,1.1758531670020602,,,,,,0.0,1.0,1.0,0.0,13.0,1.0,27.0,0.0,231.2564582920022,,,,,,,,,231.25022433400227,231.58885462500257,232.3821562500016,232.37256725000043,232.3730827920008,232.3821562500016,232.3821562500016,232.3821562500016,232.7909732090011,,,,,,,,,,,,,,,,,,,,,,,,,,,,,,left,1.0,0.4064309169989428,,,,,sub-181,1,random_dot,,
left,left,28.0,0.0,14.0,right,0.0,0.3768372080012341,,accuracy,space,1.1758531670020602,,,,,,0.0,1.0,1.0,0.0,14.0,0.0,28.0,0.0,232.79833150000195,,,,,,,,,232.79140316700068,233.13896604200272,233.93331445900185,233.9221369170009,233.9225940000033,233.93331445900185,233.93331445900185,233.93331445900185,234.31780220900328,,,,,,,,,,,,,,,,,,,,,,,,,,,,,,right,0.0,0.3768372080012341,,,,,sub-181,1,random_dot,,
right,right,29.0,1.0,14.0,left,0.0,0.4250649169989628,,accuracy,space,1.1758531670020602,,,,,,0.0,1.0,1.0,0.0,14.0,1.0,29.0,1.0,234.3249570420012,,,,,,,,,234.3182699170029,235.1165673340001,235.9078928750023,235.90008766699972,235.9006824590033,235.9078928750023,235.9078928750023,235.9078928750023,236.33486270900173,,,,,,,,,,,,,,,,,,,,,,,,,,,,,,left,0.0,0.4250649169989628,,,,,sub-181,1,random_dot,,
right,right,30.0,0.0,15.0,left,0.0,0.3741436660020554,,accuracy,space,1.1758531670020602,,,,,,0.0,1.0,1.0,0.0,15.0,0.0,30.0,1.0,236.3417860840018,,,,,,,,,236.3354780420013,237.53342316700216,238.39354512499995,238.31692275000023,238.3175322920033,238.39354512499995,238.39354512499995,238.39354512499995,238.7746697090006,,,,,,,,,,,,,,,,,,,,,,,,,,,,,,left,0.0,0.3741436660020554,,,,,sub-181,1,random_dot,,
left,left,31.0,1.0,15.0,right,0.0,0.9647739579995688,,accuracy,space,1.1758531670020602,,,,,,0.0,1.0,1.0,0.0,15.0,1.0,31.0,0.0,238.78188254199995,,,,,,,,,238.7751145000002,238.8731197090019,239.6736250419999,239.66681916700327,239.6672384170015,239.6736250419999,239.6736250419999,239.6736250419999,240.64032254199992,,,,,,,,,,,,,,,,,,,,,,,,,,,,,,right,0.0,0.9647739579995688,,,,,sub-181,1,random_dot,,
right,right,32.0,0.0,16.0,right,1.0,0.4184004170019761,,accuracy,space,1.1758531670020602,,,,,,0.0,1.0,1.0,0.0,16.0,0.0,32.0,1.0,240.648233750002,,,,,,,,,240.64078120900007,241.83978391700293,242.63162791700236,242.6227963340025,242.62330295900028,242.63162791700236,242.63162791700236,242.63162791700236,243.051746000001,,,,,,,,,,,,,,,,,,,,,,,,,,,,,,right,1.0,0.4184004170019761,,,,,sub-181,1,random_dot,,
left,left,33.0,1.0,16.0,left,1.0,0.8305220000002009,,accuracy,space,1.1758531670020602,,,,,,0.0,1.0,1.0,0.0,16.0,1.0,33.0,0.0,243.0587612500021,,,,,,,,,243.052295542002,243.39997241700257,244.1909332920004,244.1833233340003,244.18395683400013,244.1909332920004,244.1909332920004,244.1909332920004,245.02314016700257,,,,,,,,,,,,,,,,,,,,,,,,,,,,,,left,1.0,0.8305220000002009,,,,,sub-181,1,random_dot,,
left,left,34.0,0.0,17.0,right,0.0,0.6090816670002823,,accuracy,space,1.1758531670020602,,,,,,0.0,1.0,1.0,0.0,17.0,0.0,34.0,0.0,245.03278741699975,,,,,,,,,245.0234831250018,245.1227486670032,245.92465220899976,245.9168293340008,245.91743341700203,245.92465220899976,245.92465220899976,245.92465220899976,246.53931508400277,,,,,,,,,,,,,,,,,,,,,,,,,,,,,,right,0.0,0.6090816670002823,,,,,sub-181,1,random_dot,,
right,right,35.0,1.0,17.0,right,1.0,0.4659088749976945,,accuracy,space,1.1758531670020602,,,,,,0.0,1.0,1.0,0.0,17.0,1.0,35.0,1.0,246.5496571250005,,,,,,,,,246.53964908400303,247.33978583400312,248.1412401250018,248.1334159170001,248.1340230420028,248.1412401250018,248.1412401250018,248.1412401250018,248.617988500002,,,,,,,,,,,,,,,,,,,,,,,,,,,,,,right,1.0,0.4659088749976945,,,,,sub-181,1,random_dot,,
left,left,36.0,0.0,18.0,left,1.0,0.787939166999422,,accuracy,space,1.1758531670020602,,,,,,0.0,1.0,1.0,0.0,18.0,0.0,36.0,0.0,248.62544116700155,,,,,,,,,248.6184982090017,249.4163725840008,250.2078718340017,250.2000793340012,250.20083591700316,250.2078718340017,250.2078718340017,250.2078718340017,251.00085066700197,,,,,,,,,,,,,,,,,,,,,,,,,,,,,,left,1.0,0.787939166999422,,,,,sub-181,1,random_dot,,
right,right,37.0,1.0,18.0,right,1.0,0.7253792079973209,,accuracy,space,1.1758531670020602,,,,,,0.0,1.0,1.0,0.0,18.0,1.0,37.0,1.0,251.00751095899977,,,,,,,,,251.00131525000324,252.19991550000125,252.99117962500168,252.98336650000056,252.9839587090028,252.99117962500168,252.99117962500168,252.99117962500168,253.71826287500156,,,,,,,,,,,,,,,,,,,,,,,,,,,,,,right,1.0,0.7253792079973209,,,,,sub-181,1,random_dot,,
right,right,38.0,0.0,19.0,left,0.0,0.7381289169970842,,accuracy,space,1.1758531670020602,,,,,,0.0,1.0,1.0,0.0,19.0,0.0,38.0,1.0,253.72501612500128,,,,,,,,,253.71880112500003,254.51645329200252,255.30790008400072,255.3000711670029,255.3007058750009,255.30790008400072,255.30790008400072,255.30790008400072,256.05115429200305,,,,,,,,,,,,,,,,,,,,,,,,,,,,,,left,0.0,0.7381289169970842,,,,,sub-181,1,random_dot,,
left,left,39.0,1.0,19.0,right,0.0,1.031620750000002,,accuracy,space,1.1758531670020602,,,,,,0.0,1.0,1.0,0.0,19.0,1.0,39.0,0.0,256.05795233400204,,,,,,,,,256.05166591700254,256.1498536250001,256.9412474590026,256.93328937499973,256.9338975840001,256.9412474590026,256.9412474590026,256.9412474590026,257.9841446250029,,,,,,,,,,,,,,,,,,,,,,,,,,,,,,right,0.0,1.031620750000002,,,,,sub-181,1,random_dot,,
left,left,40.0,0.0,20.0,right,0.0,0.9999318750014936,,accuracy,space,1.1758531670020602,,,,,,0.0,1.0,1.0,0.0,20.0,0.0,40.0,0.0,257.9905739590031,,,,,,,,,257.9844831670016,259.18333529200027,259.9743643340007,259.9665729590015,259.96735275000174,259.9743643340007,259.9743643340007,259.9743643340007,260.9844175420003,,,,,,,,,,,,,,,,,,,,,,,,,,,,,,right,0.0,0.9999318750014936,,,,,sub-181,1,random_dot,,
right,right,41.0,1.0,20.0,left,0.0,0.598784624999098,,accuracy,space,1.1758531670020602,,,,,,0.0,1.0,1.0,0.0,20.0,1.0,41.0,1.0,260.99128820900296,,,,,,,,,260.9849451250011,261.33303083400097,262.12432970900045,262.1165254590014,262.1171502090001,262.12432970900045,262.12432970900045,262.12432970900045,262.7247026670011,,,,,,,,,,,,,,,,,,,,,,,,,,,,,,left,0.0,0.598784624999098,,,,,sub-181,1,random_dot,,
right,right,42.0,0.0,21.0,right,1.0,0.5359328750018904,,accuracy,space,1.1758531670020602,,,,,,0.0,1.0,1.0,0.0,21.0,0.0,42.0,1.0,262.7317074170023,,,,,,,,,262.7251347920028,263.52306666700315,264.32431495900164,264.316527125,264.3171480000019,264.32431495900164,264.32431495900164,264.32431495900164,264.8672403340024,,,,,,,,,,,,,,,,,,,,,,,,,,,,,,right,1.0,0.5359328750018904,,,,,sub-181,1,random_dot,,
left,left,43.0,1.0,21.0,right,0.0,1.23592062500029,,accuracy,space,1.1758531670020602,,,,,,0.0,1.0,1.0,0.0,21.0,1.0,43.0,0.0,264.8746340840007,,,,,,,,,264.8677485840017,264.96649820899984,265.75768570900254,265.74993554200046,265.7505282500024,265.75768570900254,265.75768570900254,265.75768570900254,267.0011685000027,,,,,,,,,,,,,,,,,,,,,,,,,,,,,,right,0.0,1.23592062500029,,,,,sub-181,1,random_dot,,
left,left,44.0,0.0,22.0,left,1.0,0.9262071249977452,,accuracy,space,1.1758531670020602,,,,,,0.0,1.0,1.0,0.0,22.0,0.0,44.0,0.0,267.0081288340007,,,,,,,,,267.0016564590005,268.1997432090029,268.9903343750011,268.9832073340003,268.98371441700147,268.9903343750011,268.9903343750011,268.9903343750011,269.9184084590015,,,,,,,,,,,,,,,,,,,,,,,,,,,,,,left,1.0,0.9262071249977452,,,,,sub-181,1,random_dot,,
right,right,45.0,1.0,22.0,right,1.0,0.3288746669968532,,accuracy,space,1.1758531670020602,,,,,,0.0,1.0,1.0,0.0,22.0,1.0,45.0,1.0,269.9254537920024,,,,,,,,,269.918895042003,271.1163398340032,271.9080418340018,271.90001250000205,271.9006282920018,271.9080418340018,271.9080418340018,271.9080418340018,272.2409532920028,,,,,,,,,,,,,,,,,,,,,,,,,,,,,,right,1.0,0.3288746669968532,,,,,sub-181,1,random_dot,,
right,right,46.0,0.0,23.0,left,0.0,0.5231610419978097,,accuracy,space,1.1758531670020602,,,,,,0.0,1.0,1.0,0.0,23.0,0.0,46.0,1.0,272.24810566700035,,,,,,,,,272.2413995420029,273.03928029200324,273.84070383400103,273.83313283400275,273.8337210000027,273.84070383400103,273.84070383400103,273.84070383400103,274.36745145900204,,,,,,,,,,,,,,,,,,,,,,,,,,,,,,left,0.0,0.5231610419978097,,,,,sub-181,1,random_dot,,
left,left,47.0,1.0,23.0,right,0.0,0.59871212500002,,accuracy,space,1.1758531670020602,,,,,,0.0,1.0,1.0,0.0,23.0,1.0,47.0,0.0,274.374279959,,,,,,,,,274.36787620900213,274.71631416700257,275.50800529200205,275.5000450000007,275.5008117090001,275.50800529200205,275.50800529200205,275.50800529200205,276.11704462499983,,,,,,,,,,,,,,,,,,,,,,,,,,,,,,right,0.0,0.59871212500002,,,,,sub-181,1,random_dot,,
left,left,48.0,0.0,24.0,left,1.0,0.8098320410026645,,accuracy,space,1.1758531670020602,,,,,,0.0,1.0,1.0,0.0,24.0,0.0,48.0,0.0,276.12350691699976,,,,,,,,,276.1173743340005,276.9060600840021,277.7078015840016,277.69993462500133,277.70052166700043,277.7078015840016,277.7078015840016,277.7078015840016,278.5226368750009,,,,,,,,,,,,,,,,,,,,,,,,,,,,,,left,1.0,0.8098320410026645,,,,,sub-181,1,random_dot,,
right,right,49.0,1.0,24.0,right,1.0,0.8049398340008338,,accuracy,space,1.1758531670020602,,,,,,0.0,1.0,1.0,0.0,24.0,1.0,49.0,1.0,278.53170045900333,,,,,,,,,278.523053334,279.7211479590005,280.51623587500217,280.50524720900285,280.5057451250032,280.51623587500217,280.51623587500217,280.51623587500217,281.3237176250004,,,,,,,,,,,,,,,,,,,,,,,,,,,,,,right,1.0,0.8049398340008338,,,,,sub-181,1,random_dot,,
right,right,50.0,0.0,25.0,right,1.0,0.8175350000019534,,accuracy,space,1.1758531670020602,,,,,,0.0,1.0,1.0,0.0,25.0,0.0,50.0,1.0,281.33140837500105,,,,,,,,,281.324220292001,282.1209820840013,282.91467037500115,282.90526650000174,282.9060389590013,282.91467037500115,282.91467037500115,282.91467037500115,283.73394904200177,,,,,,,,,,,,,,,,,,,,,,,,,,,,,,right,1.0,0.8175350000019534,,,,,sub-181,1,random_dot,,
left,left,51.0,1.0,25.0,right,0.0,0.6918683750009222,,accuracy,space,1.1758531670020602,,,,,,0.0,1.0,1.0,0.0,25.0,1.0,51.0,0.0,283.7409331250019,,,,,,,,,283.73440437500176,283.8328230840016,284.6242666670005,284.6165400420032,284.6171775420007,284.6242666670005,284.6242666670005,284.6242666670005,285.3177170420022,,,,,,,,,,,,,,,,,,,,,,,,,,,,,,right,0.0,0.6918683750009222,,,,,sub-181,1,random_dot,,
right,right,52.0,0.0,26.0,right,1.0,1.1397051249987271,,accuracy,space,1.1758531670020602,,,,,,0.0,1.0,1.0,0.0,26.0,0.0,52.0,1.0,285.32448033400215,,,,,,,,,285.3181714170023,286.1163097919998,286.90732350000326,286.8998297920007,286.9004317500003,286.90732350000326,286.90732350000326,286.90732350000326,288.050886584002,,,,,,,,,,,,,,,,,,,,,,,,,,,,,,right,1.0,1.1397051249987271,,,,,sub-181,1,random_dot,,
left,left,53.0,1.0,26.0,left,1.0,0.5767807500014897,,accuracy,space,1.1758531670020602,,,,,,0.0,1.0,1.0,0.0,26.0,1.0,53.0,0.0,288.0582684170004,,,,,,,,,288.0513847500006,288.14953962500294,288.94082487500054,288.93305983400205,288.93367412500083,288.94082487500054,288.94082487500054,288.94082487500054,289.5239062090004,,,,,,,,,,,,,,,,,,,,,,,,,,,,,,left,1.0,0.5767807500014897,,,,,sub-181,1,random_dot,,
right,right,54.0,0.0,27.0,left,0.0,1.278498583997134,,accuracy,space,1.1758531670020602,,,,,,0.0,1.0,1.0,0.0,27.0,0.0,54.0,1.0,289.5313030840007,,,,,,,,,289.5242675840018,289.8717616250033,290.66612350000287,290.65502620900224,290.6555206250014,290.66612350000287,290.66612350000287,290.66612350000287,291.9508432500006,,,,,,,,,,,,,,,,,,,,,,,,,,,,,,left,0.0,1.278498583997134,,,,,sub-181,1,random_dot,,
left,left,55.0,1.0,27.0,left,1.0,0.7370508330022858,,accuracy,space,1.1758531670020602,,,,,,0.0,1.0,1.0,0.0,27.0,1.0,55.0,0.0,291.95789129200057,,,,,,,,,291.9513240000015,292.04968275000283,292.8402222920013,292.832993834003,292.8334836670001,292.8402222920013,292.8402222920013,292.8402222920013,293.58363670900144,,,,,,,,,,,,,,,,,,,,,,,,,,,,,,left,1.0,0.7370508330022858,,,,,sub-181,1,random_dot,,
left,left,56.0,0.0,28.0,right,0.0,0.3356915000003937,,accuracy,space,1.1758531670020602,,,,,,0.0,1.0,1.0,0.0,28.0,0.0,56.0,0.0,293.5900903750007,,,,,,,,,293.58397437500025,294.3726090420023,295.1742467090007,295.1664246670007,295.1670222920002,295.1742467090007,295.1742467090007,295.1742467090007,295.5155544590016,,,,,,,,,,,,,,,,,,,,,,,,,,,,,,right,0.0,0.3356915000003937,,,,,sub-181,1,random_dot,,
right,right,57.0,1.0,28.0,left,0.0,0.8275358749997395,,accuracy,space,1.1758531670020602,,,,,,0.0,1.0,1.0,0.0,28.0,1.0,57.0,1.0,295.5218094590018,,,,,,,,,295.5158923340023,295.8557512920015,296.649098209,296.63834095900165,296.6389346249998,296.649098209,296.649098209,296.649098209,297.484257084001,,,,,,,,,,,,,,,,,,,,,,,,,,,,,,left,0.0,0.8275358749997395,,,,,sub-181,1,random_dot,,
left,left,58.0,0.0,29.0,right,0.0,0.6521348750029574,,accuracy,space,1.1758531670020602,,,,,,0.0,1.0,1.0,0.0,29.0,0.0,58.0,0.0,297.49098137500187,,,,,,,,,297.4847956670019,298.6828507090031,299.47457541699987,299.4664252090006,299.467213625001,299.47457541699987,299.47457541699987,299.47457541699987,300.1326985420019,,,,,,,,,,,,,,,,,,,,,,,,,,,,,,right,0.0,0.6521348750029574,,,,,sub-181,1,random_dot,,
right,right,59.0,1.0,29.0,left,0.0,0.7381849170014902,,accuracy,space,1.1758531670020602,,,,,,0.0,1.0,1.0,0.0,29.0,1.0,59.0,1.0,300.13908783400257,,,,,,,,,300.133052084002,300.92273829199985,301.7161874170015,301.7053278750027,301.70580491700093,301.7161874170015,301.7161874170015,301.7161874170015,302.45616533400243,,,,,,,,,,,,,,,,,,,,,,,,,,,,,,left,0.0,0.7381849170014902,,,,,sub-181,1,random_dot,,
,,1.0,1.0,0.0,,,,,accuracy,space,1.1758531670020602,,,,,,0.0,1.0,1.0,0.0,,,,,,,,,,,,,,,,,,,,,,,,,,,,,,,,,,,,,,,,,,,,,,,,,,,,,,,,,,,sub-181,1,random_dot,,
,,,,,,,,,,,,,,,,,,,,,,,,,,,,,,,,,,,,,,,,,,,,,,,,,,,,,,,,,,,,,,,,,,,,,,,,,,,,302.5758124590029,302.5803410000008,307.46619741700124,sub-181,1,random_dot,,
