direction,corrAns,randomInstr,practice_trials.thisRepN,practice_trials.thisTrialN,practice_trials.thisN,practice_trials.thisIndex,instr_trials.thisRepN,instr_trials.thisTrialN,instr_trials.thisN,instr_trials.thisIndex,test_trials.thisRepN,test_trials.thisTrialN,test_trials.thisN,test_trials.thisIndex,thisRow.t,notes,general_instruction.started,textGeneralInstr.started,respGeneralInstr.started,general_instruction.stopped,respGeneralInstr.keys,respGeneralInstr.rt,respGeneralInstr.duration,ITI.started,fixcross.started,fixcross.stopped,ITI.stopped,dots.started,backgroundDots.started,stimulusDots.started,respDots.started,stimulusDots.stopped,dots.stopped,respDots.keys,respDots.corr,respDots.rt,respDots.duration,feedback.started,textFeedback.started,feedback.stopped,textFeedback.stopped,info.started,textInfo.started,keyRespInfo.started,info.stopped,keyRespInfo.keys,keyRespInfo.rt,keyRespInfo.duration,test_instruction.started,textTestInstr.started,respTestInstr.started,test_instruction.stopped,respTestInstr.keys,respTestInstr.rt,respTestInstr.duration,random_instruction.started,textRandomInstr.started,respRandomInstr.started,random_instruction.stopped,respRandomInstr.keys,respRandomInstr.rt,respRandomInstr.duration,goodbye.started,textGoodbye.started,textGoodbye.stopped,goodbye.stopped,participant,session,expName,frameRate,Unnamed: 74
,,,,,,,,,,,,,,,,,0.0081644999445416,0.0227452999679371,0.0227452999679371,38.486136799969245,space,72.90039500000421,,,,,,,,,,,,,,,,,,,,,,,,,,,,,,,,,,,,,,,,,,,,,sub-049,1.0,random_dot,60.25257880466994,
right,right,,0.0,0.0,0.0,1.0,,,,,,,,,38.50623859994812,,,,,,,,,38.50072749995161,38.60058489994845,39.40129969996633,39.384669699997175,39.38471109996317,39.40129969996633,39.40129969996633,39.40129969996633,44.399776199948974,51.11715049995109,right,1.0,46.16453250002815,,51.11800679995213,51.139608400000725,51.63252749998355,,,,,,,,,,,,,,,,,,,,,,,,,,,sub-049,1.0,random_dot,60.25257880466994,
left,left,,0.0,1.0,1.0,0.0,,,,,,,,,51.64884379995056,,,,,,,,,51.63357549998909,51.98248029995011,52.78241949999938,52.76643349998631,52.766454399970826,52.78241949999938,52.78241949999938,52.78241949999938,57.782051799993496,61.88213659997564,left,1.0,43.54406090005068,,61.88311319996137,61.89761929999804,62.38195239997003,62.397911299951375,,,,,,,,,,,,,,,,,,,,,,,,,,sub-049,1.0,random_dot,60.25257880466994,
right,right,,1.0,0.0,2.0,1.0,,,,,,,,,62.397911299951375,,,,,,,,,62.382327599974815,63.19749759999104,63.99804069998208,63.98137759999372,63.981398599979,63.99804069998208,63.99804069998208,63.99804069998208,68.99695789994439,70.21499049995327,right,1.0,40.65535720001208,,70.21598199999426,70.23011749994475,70.71431659994414,70.7294451999478,,,,,,,,,,,,,,,,,,,,,,,,,,sub-049,1.0,random_dot,60.25257880466994,
left,left,,1.0,1.0,3.0,0.0,,,,,,,,,70.7294451999478,,,,,,,,,70.71481659996789,70.82994819997111,71.62955109996255,71.61396519996924,71.61399990000064,71.62955109996255,71.62955109996255,71.62955109996255,76.62888799997745,78.6303219999536,right,0.0,41.4503975000116,,78.63084689999232,78.64836159994593,79.14536949998,,,,,,,,,,,,,,,,,,,,,,,,,,,sub-049,1.0,random_dot,60.25257880466994,
left,left,,2.0,0.0,4.0,0.0,,,,,,,,,79.16184749995591,,,,,,,,,79.1458007999463,79.945653999981,80.74510579998605,80.72993349999888,80.72997289994964,80.74510579998605,80.74510579998605,80.74510579998605,85.7446140999673,87.94510999997146,right,0.0,41.64618810004322,,87.94566209998447,87.96058610000182,88.44479009998031,88.46097979997285,,,,,,,,,,,,,,,,,,,,,,,,,,sub-049,1.0,random_dot,60.25257880466994,
right,right,,2.0,1.0,5.0,1.0,,,,,,,,,88.46097979997285,,,,,,,,,88.44522809999762,89.2606602999731,90.06160799995996,90.04522159998305,90.0452493999619,90.06160799995996,90.06160799995996,90.06160799995996,95.06001289997948,97.1450124999974,right,1.0,41.53423330001533,,97.14561389997834,97.15981969999848,97.64363919995958,97.65969839994796,,,,,,,,,,,,,,,,,,,,,,,,,,sub-049,1.0,random_dot,60.25257880466994,
left,left,,3.0,0.0,6.0,0.0,,,,,,,,,97.65969839994796,,,,,,,,,97.6440248999861,97.759763799957,98.5594350999454,98.5434082999709,98.54342969995923,98.5594350999454,98.5594350999454,98.5594350999454,103.54221499996493,104.80986649997068,left,1.0,40.69448280002689,,104.810410999984,104.82554059999528,105.30920049996348,105.3256820999668,,,,,,,,,,,,,,,,,,,,,,,,,,sub-049,1.0,random_dot,60.25257880466994,
right,right,,3.0,1.0,7.0,1.0,,,,,,,,,105.3256820999668,,,,,,,,,105.30956219998188,105.42525409994414,106.2253138999804,106.20921499998076,106.20923669997136,106.2253138999804,106.2253138999804,106.2253138999804,111.20840269996552,112.7424329999485,right,1.0,40.96754220005823,,112.74309889995492,112.75811749999411,113.24166729999706,113.2579094999819,,,,,,,,,,,,,,,,,,,,,,,,,,sub-049,1.0,random_dot,60.25257880466994,
left,left,,4.0,0.0,8.0,0.0,,,,,,,,,113.2579094999819,,,,,,,,,113.24207709997428,114.05736589996376,114.85765669995452,114.84146169997985,114.84148109995294,114.85765669995452,114.85765669995452,114.85765669995452,119.84052019997034,128.87373459996888,right,0.0,48.46666430000914,,128.874216599972,128.88885519996984,129.3728861999698,129.3887313999585,,,,,,,,,,,,,,,,,,,,,,,,,,sub-049,1.0,random_dot,60.25257880466994,
right,right,,4.0,1.0,9.0,1.0,,,,,,,,,129.3887313999585,,,,,,,,,129.3732804999454,130.18888809997588,130.98851369996555,130.9733627999667,130.97338189999573,130.98851369996555,130.98851369996555,130.98851369996555,135.9877810999751,137.5891788000008,left,0.0,41.048441000049934,,137.58967580000171,137.6045212999452,138.08834299998125,138.10536929999944,,,,,,,,,,,,,,,,,,,,,,,,,,sub-049,1.0,random_dot,60.25257880466994,
left,left,,5.0,0.0,10.0,0.0,,,,,,,,,138.10536929999944,,,,,,,,,138.08881019998807,138.90417349996278,139.70427909999853,139.68930549995275,139.68933999998262,139.70427909999853,139.70427909999853,139.70427909999853,144.7033937999513,146.07104239996988,right,0.0,40.80233219999354,,146.0715672999504,146.08691359998193,146.57078099995852,146.58692359999986,,,,,,,,,,,,,,,,,,,,,,,,,,sub-049,1.0,random_dot,60.25257880466994,
right,right,,5.0,1.0,11.0,1.0,,,,,,,,,146.58692359999986,,,,,,,,,146.57131309999386,147.7863274999545,148.58631459996104,148.5702922999626,148.5703137999517,148.58631459996104,148.58631459996104,148.58631459996104,153.5858639999642,155.85375819995534,left,0.0,41.70522810000693,,155.85432499996386,155.8691778999637,156.35278759995708,156.36892969999462,,,,,,,,,,,,,,,,,,,,,,,,,,sub-049,1.0,random_dot,60.25257880466994,
left,left,,6.0,0.0,12.0,0.0,,,,,,,,,156.36892969999462,,,,,,,,,156.35321789997397,157.16863189998548,157.96853519999422,157.9528364999569,157.95285629999125,157.96853519999422,157.96853519999422,157.96853519999422,162.9682803999749,164.71880389994476,left,1.0,41.20003570005065,,164.7193126999773,164.73443079995923,165.21837159997085,165.2344724999857,,,,,,,,,,,,,,,,,,,,,,,,,,sub-049,1.0,random_dot,60.25257880466994,
right,right,,6.0,1.0,13.0,1.0,,,,,,,,,165.2344724999857,,,,,,,,,165.21881709998706,165.3341558999964,166.1342737999512,166.11808749998454,166.11810679995688,166.1342737999512,166.1342737999512,166.1342737999512,171.13371119997464,176.03421569999773,right,1.0,44.34017690003384,,176.03471569996327,176.04977009998402,176.53339709999273,176.54964509996353,,,,,,,,,,,,,,,,,,,,,,,,,,sub-049,1.0,random_dot,60.25257880466994,
right,right,,7.0,0.0,14.0,1.0,,,,,,,,,176.54964509996353,,,,,,,,,176.53419809998013,176.6492645999533,177.44941289996495,177.43340679997343,177.43343119998462,177.44941289996495,177.44941289996495,177.44941289996495,182.4488771999604,185.06683249998605,right,1.0,42.06735120003577,,185.06740790000185,185.0815972999553,185.5664982999442,185.58237339998595,,,,,,,,,,,,,,,,,,,,,,,,,,sub-049,1.0,random_dot,60.25257880466994,
left,left,,7.0,1.0,15.0,0.0,,,,,,,,,185.58237339998595,,,,,,,,,185.56704389996597,185.9313546999474,186.73158829996828,186.71568039996785,186.71571829996537,186.73158829996828,186.73158829996828,186.73158829996828,191.7308417999884,192.6653122999705,right,0.0,40.37511960003758,,192.66613449994475,192.68109789997104,193.1649712999933,193.18044059997192,,,,,,,,,,,,,,,,,,,,,,,,,,sub-049,1.0,random_dot,60.25257880466994,
right,right,,8.0,0.0,16.0,1.0,,,,,,,,,193.18044059997192,,,,,,,,,193.16546769998968,193.5306031999644,194.3303525999654,194.31508859997848,194.315107399947,194.3303525999654,194.3303525999654,194.3303525999654,199.33024099998875,200.28124049998587,right,1.0,40.3919652000186,,200.2818525999901,200.2963683999842,200.78050599998096,200.7966630999581,,,,,,,,,,,,,,,,,,,,,,,,,,sub-049,1.0,random_dot,60.25257880466994,
left,left,,8.0,1.0,17.0,0.0,,,,,,,,,200.7966630999581,,,,,,,,,200.7809221999487,201.99637929996243,202.7963590999716,202.78068349999376,202.78071689995704,202.7963590999716,202.7963590999716,202.7963590999716,207.79549299995412,210.57963949994885,left,1.0,42.22480310004903,,210.58020399999805,210.59495519998015,211.0796227999963,211.0950782999862,,,,,,,,,,,,,,,,,,,,,,,,,,sub-049,1.0,random_dot,60.25257880466994,
left,left,,9.0,0.0,18.0,0.0,,,,,,,,,211.0950782999862,,,,,,,,,211.08015979995253,211.1946982999798,211.99478709994585,211.9795222999528,211.97957239998505,211.99478709994585,211.99478709994585,211.99478709994585,216.99413839995395,218.17854489997265,right,0.0,40.62759350001579,,218.1790266999742,218.1939473999664,218.67795459995975,218.6940702999709,,,,,,,,,,,,,,,,,,,,,,,,,,sub-049,1.0,random_dot,60.25257880466994,
right,right,,9.0,1.0,19.0,1.0,,,,,,,,,218.6940702999709,,,,,,,,,218.67837739997776,219.8938709999784,220.69388909998816,220.6785627999925,220.6785829999717,220.69388909998816,220.69388909998816,220.69388909998816,225.6929572999943,227.62794059998123,right,1.0,41.375678099982906,,227.6284201999661,227.64293659996477,228.12717059999704,228.14261359995,,,,,,,,,,,,,,,,,,,,,,,,,,sub-049,1.0,random_dot,60.25257880466994,
,,,,,,,,,,,,,,,,,,,,,,,,,,,,,,,,,,,,,,,,,,228.12725159997356,228.14261359995,228.14261359995,238.00974579999456,space,44.31389280001167,,,,,,,,,,,,,,,,,,,,sub-049,1.0,random_dot,60.25257880466994,
,,,,,,,,,,,,,,,,,,,,,,,,,,,,,,,,,,,,,,,,,,,,,,,,,238.0097764999955,238.0254630999989,238.0254630999989,260.45634989999235,space,56.87754740001401,,,,,,,,,,,,,sub-049,1.0,random_dot,60.25257880466994,
left,left,accuracy,,,,,0.0,0.0,0.0,0.0,0.0,0.0,0.0,0.0,270.5385788999847,,,,,,,,,270.53042249998543,271.336932599952,272.13710669998545,272.12152519996744,272.1215474999626,272.13710669998545,272.13710669998545,272.13710669998545,277.1360100999591,278.4715151999844,right,0.0,40.77037069998914,,,,,,,,,,,,,,,,,,,,260.4611212000018,260.4950518999831,260.4950518999831,270.5219666999765,space,44.4671454000636,,,,,,sub-049,1.0,random_dot,60.25257880466994,
right,right,accuracy,,,,,0.0,0.0,0.0,0.0,0.0,1.0,1.0,1.0,278.486732099962,,,,,,,,,278.4727698999923,279.2859924999648,280.08578059996944,280.07033149997005,280.07035090000136,280.08578059996944,280.08578059996944,280.08578059996944,285.0853147999733,285.6363929999643,right,1.0,39.99395939998794,,,,,,,,,,,,,,,,,,,,,,,,,,,,,,,sub-049,1.0,random_dot,60.25257880466994,
right,right,accuracy,,,,,0.0,0.0,0.0,0.0,1.0,0.0,2.0,1.0,285.65233869996155,,,,,,,,,285.6374099999666,285.75178919994505,286.5517100999714,286.53599749994464,286.53602339996723,286.5517100999714,286.5517100999714,286.5517100999714,291.5512471999973,292.43533479998587,left,0.0,40.32197800005088,,,,,,,,,,,,,,,,,,,,,,,,,,,,,,,sub-049,1.0,random_dot,60.25257880466994,
left,left,accuracy,,,,,0.0,0.0,0.0,0.0,1.0,1.0,3.0,0.0,292.451306199946,,,,,,,,,292.43635009997524,292.55095989996335,293.35129019996384,293.3349734999938,293.3349931999692,293.35129019996384,293.35129019996384,293.35129019996384,298.3502638999489,298.8180403999868,right,0.0,39.90640330000315,,,,,,,,,,,,,,,,,,,,,,,,,,,,,,,sub-049,1.0,random_dot,60.25257880466994,
left,left,accuracy,,,,,0.0,0.0,0.0,0.0,2.0,0.0,4.0,0.0,298.83382770000026,,,,,,,,,298.8191011999734,298.933417399996,299.7332865999779,299.71748909994494,299.71751059999224,299.7332865999779,299.7332865999779,299.7332865999779,304.73300849995576,305.5670788999996,left,1.0,40.27564790000906,,,,,,,,,,,,,,,,,,,,,,,,,,,,,,,sub-049,1.0,random_dot,60.25257880466994,
right,right,accuracy,,,,,0.0,0.0,0.0,0.0,2.0,1.0,5.0,1.0,305.5825099999784,,,,,,,,,305.5681098999921,305.6835715999477,306.4993194999988,306.4832246999722,306.48324269999284,306.4993194999988,306.4993194999988,306.4993194999988,311.49917089997325,312.4500444000005,left,0.0,40.38697090005735,,,,,,,,,,,,,,,,,,,,,,,,,,,,,,,sub-049,1.0,random_dot,60.25257880466994,
left,left,accuracy,,,,,0.0,0.0,0.0,0.0,3.0,0.0,6.0,0.0,312.4658062999952,,,,,,,,,312.4511175999651,313.26485829998273,314.06491559999995,314.0493268999853,314.04934699996375,314.06491559999995,314.06491559999995,314.06491559999995,319.06435669999337,319.9486352999811,left,1.0,40.329791700001806,,,,,,,,,,,,,,,,,,,,,,,,,,,,,,,sub-049,1.0,random_dot,60.25257880466994,
right,right,accuracy,,,,,0.0,0.0,0.0,0.0,3.0,1.0,7.0,1.0,319.9645407999633,,,,,,,,,319.94963979994645,320.76436719996855,321.56452669994906,321.5484766999725,321.5484963999479,321.56452669994906,321.56452669994906,321.56452669994906,326.56335829995805,327.26534879999235,right,1.0,40.14155599998776,,,,,,,,,,,,,,,,,,,,,,,,,,,,,,,sub-049,1.0,random_dot,60.25257880466994,
right,right,accuracy,,,,,0.0,0.0,0.0,0.0,4.0,0.0,8.0,1.0,327.2803948999499,,,,,,,,,327.2663666000008,327.62970709998626,328.4298620999907,328.4144218000001,328.41444169997703,328.4298620999907,328.4298620999907,328.4298620999907,333.4289591999841,334.3133165999898,left,0.0,40.324082000006456,,,,,,,,,,,,,,,,,,,,,,,,,,,,,,,sub-049,1.0,random_dot,60.25257880466994,
left,left,accuracy,,,,,0.0,0.0,0.0,0.0,4.0,1.0,9.0,0.0,334.3292178999982,,,,,,,,,334.31438179995166,335.5288673999603,336.328668299946,336.3128297999501,336.3128624999663,336.328668299946,336.328668299946,336.328668299946,341.3281084999908,342.3458298999467,left,1.0,40.453608500014525,,,,,,,,,,,,,,,,,,,,,,,,,,,,,,,sub-049,1.0,random_dot,60.25257880466994,
left,left,accuracy,,,,,0.0,0.0,0.0,0.0,5.0,0.0,10.0,0.0,342.3614599999855,,,,,,,,,342.34686389996205,342.4614240999799,343.2615202999441,343.24571920000017,343.24573839997174,343.2615202999441,343.2615202999441,343.2615202999441,348.26082009996753,348.9788669999689,right,0.0,40.16037580004195,,,,,,,,,,,,,,,,,,,,,,,,,,,,,,,sub-049,1.0,random_dot,60.25257880466994,
right,right,accuracy,,,,,0.0,0.0,0.0,0.0,5.0,1.0,11.0,1.0,348.99391179997474,,,,,,,,,348.9798762999708,349.0935636999784,349.8938472999725,349.8781141999644,349.8781372999656,349.8938472999725,349.8938472999725,349.8938472999725,354.89337639999576,355.6107174999779,right,1.0,40.1629192000255,,,,,,,,,,,,,,,,,,,,,,,,,,,,,,,sub-049,1.0,random_dot,60.25257880466994,
left,left,accuracy,,,,,0.0,0.0,0.0,0.0,6.0,0.0,12.0,0.0,355.6262615000014,,,,,,,,,355.6117076999508,356.42644339997787,357.2258418999845,357.2101310999715,357.21016329998383,357.2258418999845,357.2258418999845,357.2258418999845,362.2252254999476,362.9266033999738,right,0.0,40.14943170000333,,,,,,,,,,,,,,,,,,,,,,,,,,,,,,,sub-049,1.0,random_dot,60.25257880466994,
right,right,accuracy,,,,,0.0,0.0,0.0,0.0,6.0,1.0,13.0,1.0,362.9420052999631,,,,,,,,,362.9275866999524,364.1424813999911,364.95867089997046,364.9427735999925,364.9427927999641,364.95867089997046,364.95867089997046,364.95867089997046,369.9577813999495,370.4595280999784,left,0.0,39.9438506999868,,,,,,,,,,,,,,,,,,,,,,,,,,,,,,,sub-049,1.0,random_dot,60.25257880466994,
right,right,accuracy,,,,,0.0,0.0,0.0,0.0,7.0,0.0,14.0,1.0,370.4746742999996,,,,,,,,,370.46178669994697,370.57438700000057,371.37404829997104,371.3581549999653,371.35817819996737,371.37404829997104,371.37404829997104,371.37404829997104,376.3739704999607,377.0085906999884,right,1.0,40.08068250003271,,,,,,,,,,,,,,,,,,,,,,,,,,,,,,,sub-049,1.0,random_dot,60.25257880466994,
left,left,accuracy,,,,,0.0,0.0,0.0,0.0,7.0,1.0,15.0,0.0,377.0231881999644,,,,,,,,,377.0095978999743,377.37342319998425,378.1729926999542,378.1573430999997,378.1573652999941,378.1729926999542,378.1729926999542,378.1729926999542,383.1558576999814,383.9401518999948,left,1.0,40.20342079998227,,,,,,,,,,,,,,,,,,,,,,,,,,,,,,,sub-049,1.0,random_dot,60.25257880466994,
left,left,accuracy,,,,,0.0,0.0,0.0,0.0,8.0,0.0,16.0,0.0,383.9566776999855,,,,,,,,,383.94122269999934,384.05607779999264,384.8559457999654,384.8400404999848,384.8400602999609,384.8559457999654,384.8559457999654,384.8559457999654,389.8552825999796,390.3063647999661,right,0.0,39.88799369998742,,,,,,,,,,,,,,,,,,,,,,,,,,,,,,,sub-049,1.0,random_dot,60.25257880466994,
right,right,accuracy,,,,,0.0,0.0,0.0,0.0,8.0,1.0,17.0,1.0,390.32159279997,,,,,,,,,390.3073453999823,390.4217401999631,391.2213186000008,391.2055478999973,391.2055675999727,391.2213186000008,391.2213186000008,391.2213186000008,396.2043122999603,398.03831149998587,right,1.0,41.25314470002195,,,,,,,,,,,,,,,,,,,,,,,,,,,,,,,sub-049,1.0,random_dot,60.25257880466994,
right,right,accuracy,,,,,0.0,0.0,0.0,0.0,9.0,0.0,18.0,1.0,398.05470519996015,,,,,,,,,398.03937099996256,398.1544409999624,398.9542529999744,398.9382133999607,398.9382329999935,398.9542529999744,398.9542529999744,398.9542529999744,403.9532266999595,404.4384980999748,right,1.0,39.93354050006019,,,,,,,,,,,,,,,,,,,,,,,,,,,,,,,sub-049,1.0,random_dot,60.25257880466994,
left,left,accuracy,,,,,0.0,0.0,0.0,0.0,9.0,1.0,19.0,0.0,404.4537535999552,,,,,,,,,404.43986819998827,405.6532120999764,406.45277839998016,406.4368719999911,406.4368903999566,406.45277839998016,406.45277839998016,406.45277839998016,411.4359615999856,412.2538790999679,left,1.0,40.245950800017454,,,,,,,,,,,,,,,,,,,,,,,,,,,,,,,sub-049,1.0,random_dot,60.25257880466994,
left,left,accuracy,,,,,0.0,0.0,0.0,0.0,10.0,0.0,20.0,0.0,412.2687673999462,,,,,,,,,412.2549451999949,412.6193225999596,413.418921399978,413.4028716999456,413.40289079997456,413.418921399978,413.418921399978,413.418921399978,418.4181164999609,419.06929709995165,right,0.0,40.099176999996416,,,,,,,,,,,,,,,,,,,,,,,,,,,,,,,sub-049,1.0,random_dot,60.25257880466994,
right,right,accuracy,,,,,0.0,0.0,0.0,0.0,10.0,1.0,21.0,1.0,419.0849532999564,,,,,,,,,419.0703504999983,420.2843901999877,421.0848652999848,421.0687461999478,421.06878609996056,421.0848652999848,421.0848652999848,421.0848652999848,426.0841842999798,426.90269109996734,left,0.0,40.25404290005099,,,,,,,,,,,,,,,,,,,,,,,,,,,,,,,sub-049,1.0,random_dot,60.25257880466994,
right,right,accuracy,,,,,0.0,0.0,0.0,0.0,11.0,0.0,22.0,1.0,426.9173916999716,,,,,,,,,426.90419349999866,427.01699219999136,427.8164769999567,427.8008562999894,427.8008759999648,427.8164769999567,427.8164769999567,427.8164769999567,432.8161023999564,433.60097329999553,left,0.0,40.22193070000503,,,,,,,,,,,,,,,,,,,,,,,,,,,,,,,sub-049,1.0,random_dot,60.25257880466994,
left,left,accuracy,,,,,0.0,0.0,0.0,0.0,11.0,1.0,23.0,0.0,433.6157036999939,,,,,,,,,433.6020931999665,433.966015199956,434.76574129995424,434.7499669999816,434.7499982999871,434.76574129995424,434.76574129995424,434.76574129995424,439.76535599998897,440.1662698999862,right,0.0,39.83815840003081,,,,,,,,,,,,,,,,,,,,,,,,,,,,,,,sub-049,1.0,random_dot,60.25257880466994,
left,left,accuracy,,,,,0.0,0.0,0.0,0.0,12.0,0.0,24.0,0.0,440.18186609999975,,,,,,,,,440.1673041999457,440.53243639995344,441.3318061999744,441.31654219998745,441.3165750999469,441.3318061999744,441.3318061999744,441.3318061999744,446.3316316999844,446.8489991999813,right,0.0,39.95582210004795,,,,,,,,,,,,,,,,,,,,,,,,,,,,,,,sub-049,1.0,random_dot,60.25257880466994,
right,right,accuracy,,,,,0.0,0.0,0.0,0.0,12.0,1.0,25.0,1.0,446.86427409999305,,,,,,,,,446.8501654999564,448.0643912999658,448.8639758999925,448.84797899995465,448.8480021999567,448.8639758999925,448.8639758999925,448.8639758999925,453.847298299952,454.5980331999599,left,0.0,40.16966960002901,,,,,,,,,,,,,,,,,,,,,,,,,,,,,,,sub-049,1.0,random_dot,60.25257880466994,
right,right,accuracy,,,,,0.0,0.0,0.0,0.0,13.0,0.0,26.0,1.0,454.613038099953,,,,,,,,,454.59999409999,455.8131342999986,456.6129183999728,456.5971238999628,456.59714379999787,456.6129183999728,456.6129183999728,456.6129183999728,461.612632299948,462.513487899967,left,0.0,40.33979530003853,,,,,,,,,,,,,,,,,,,,,,,,,,,,,,,sub-049,1.0,random_dot,60.25257880466994,
left,left,accuracy,,,,,0.0,0.0,0.0,0.0,13.0,1.0,27.0,0.0,462.5291843999876,,,,,,,,,462.5144999999902,462.8787369999918,463.6788288999815,463.6629646999645,463.6629829999874,463.6788288999815,463.6788288999815,463.6788288999815,468.6786238999921,471.4458032999537,right,0.0,42.20642700005556,,,,,,,,,,,,,,,,,,,,,,,,,,,,,,,sub-049,1.0,random_dot,60.25257880466994,
left,left,accuracy,,,,,0.0,0.0,0.0,0.0,14.0,0.0,28.0,0.0,471.4611640999792,,,,,,,,,471.4468396999873,471.5614916999475,472.3617252999684,472.3453424999607,472.345361899992,472.3617252999684,472.3617252999684,472.3617252999684,477.3607758999569,478.1285194999655,right,0.0,40.21108269999968,,,,,,,,,,,,,,,,,,,,,,,,,,,,,,,sub-049,1.0,random_dot,60.25257880466994,
right,right,accuracy,,,,,0.0,0.0,0.0,0.0,14.0,1.0,29.0,1.0,478.1439726999961,,,,,,,,,478.1295631999965,478.49384059995646,479.2936573999468,479.2775478999829,479.2775698999758,479.2936573999468,479.2936573999468,479.2936573999468,484.2935079999734,485.42777149996255,left,0.0,40.58511640003417,,,,,,,,,,,,,,,,,,,,,,,,,,,,,,,sub-049,1.0,random_dot,60.25257880466994,
left,left,accuracy,,,,,0.0,0.0,0.0,0.0,15.0,0.0,30.0,0.0,485.4429340999922,,,,,,,,,485.4287776999991,485.5430476999609,486.3425380999688,486.3270086999983,486.3270302999881,486.3425380999688,486.3425380999688,486.3425380999688,491.3419065999915,492.14402369997697,left,1.0,40.24752390000504,,,,,,,,,,,,,,,,,,,,,,,,,,,,,,,sub-049,1.0,random_dot,60.25257880466994,
right,right,accuracy,,,,,0.0,0.0,0.0,0.0,15.0,1.0,31.0,1.0,492.1589872999466,,,,,,,,,492.1465961999493,493.3582179999794,494.15833719994407,494.1423094999627,494.14233139995486,494.15833719994407,494.15833719994407,494.15833719994407,499.1576675999677,499.8089168999577,right,1.0,40.09977790003177,,,,,,,,,,,,,,,,,,,,,,,,,,,,,,,sub-049,1.0,random_dot,60.25257880466994,
right,right,accuracy,,,,,0.0,0.0,0.0,0.0,16.0,0.0,32.0,1.0,499.8245397999999,,,,,,,,,499.8099390999996,500.6244342999999,501.42405389994383,501.4081551999552,501.408176099998,501.42405389994383,501.42405389994383,501.42405389994383,506.42365279997466,507.1415882000001,right,1.0,40.16611980000744,,,,,,,,,,,,,,,,,,,,,,,,,,,,,,,sub-049,1.0,random_dot,60.25257880466994,
left,left,accuracy,,,,,0.0,0.0,0.0,0.0,16.0,1.0,33.0,0.0,507.1565941000008,,,,,,,,,507.1425909999525,507.256873199949,508.05670259997714,508.0406575999805,508.0406821999932,508.05670259997714,508.05670259997714,508.05670259997714,513.0389848999912,513.7571663999697,right,0.0,40.14227820001543,,,,,,,,,,,,,,,,,,,,,,,,,,,,,,,sub-049,1.0,random_dot,60.25257880466994,
left,left,accuracy,,,,,0.0,0.0,0.0,0.0,17.0,0.0,34.0,0.0,513.7722839999478,,,,,,,,,513.7585952999652,513.8722424999578,514.6725322999991,514.6566144999815,514.6566471999977,514.6725322999991,514.6725322999991,514.6725322999991,519.6718037999817,520.9729294999852,right,0.0,40.75100170000224,,,,,,,,,,,,,,,,,,,,,,,,,,,,,,,sub-049,1.0,random_dot,60.25257880466994,
right,right,accuracy,,,,,0.0,0.0,0.0,0.0,17.0,1.0,35.0,1.0,520.9883159999736,,,,,,,,,520.973954999994,521.7884450999554,522.5877670999616,522.5722280999762,522.5722476999508,522.5877670999616,522.5877670999616,522.5877670999616,527.5872668999946,528.2554117999971,right,1.0,40.11376830004156,,,,,,,,,,,,,,,,,,,,,,,,,,,,,,,sub-049,1.0,random_dot,60.25257880466994,
right,right,accuracy,,,,,0.0,0.0,0.0,0.0,18.0,0.0,36.0,1.0,528.2703612999758,,,,,,,,,528.2578995999647,529.4701536999783,530.2703230999759,530.2547654999653,530.2548015999491,530.2703230999759,530.2703230999759,530.2703230999759,535.2701234999695,535.7381577999913,right,1.0,39.90592980000656,,,,,,,,,,,,,,,,,,,,,,,,,,,,,,,sub-049,1.0,random_dot,60.25257880466994,
left,left,accuracy,,,,,0.0,0.0,0.0,0.0,18.0,1.0,37.0,0.0,535.7529625999741,,,,,,,,,535.7392470999621,535.8536127999541,536.6531852999469,536.637002799951,536.6370264999568,536.6531852999469,536.6531852999469,536.6531852999469,541.6520764999441,542.9869067999534,right,0.0,40.77780310000526,,,,,,,,,,,,,,,,,,,,,,,,,,,,,,,sub-049,1.0,random_dot,60.25257880466994,
right,right,accuracy,,,,,0.0,0.0,0.0,0.0,19.0,0.0,38.0,1.0,543.0019304999732,,,,,,,,,542.9879039999796,543.1019911999465,543.9024347999948,543.885742799961,543.8857615999877,543.9024347999948,543.9024347999948,543.9024347999948,548.9009871999733,550.1195199999493,right,1.0,40.6657119000447,,,,,,,,,,,,,,,,,,,,,,,,,,,,,,,sub-049,1.0,random_dot,60.25257880466994,
left,left,accuracy,,,,,0.0,0.0,0.0,0.0,19.0,1.0,39.0,0.0,550.1344904999714,,,,,,,,,550.120543099998,550.234270899964,551.0342463999987,551.0185173999635,551.0185365999932,551.0342463999987,551.0342463999987,551.0342463999987,556.0338212999632,557.9512231999543,right,0.0,41.36587390000932,,,,,,,,,,,,,,,,,,,,,,,,,,,,,,,sub-049,1.0,random_dot,60.25257880466994,
left,left,accuracy,,,,,0.0,0.0,0.0,0.0,20.0,0.0,40.0,0.0,557.9663883999456,,,,,,,,,557.9522363999858,559.1665289999801,559.9664491000003,559.9504436999559,559.9504629999865,559.9664491000003,559.9664491000003,559.9664491000003,564.9491874999949,565.8499616999761,left,1.0,40.32463380001718,,,,,,,,,,,,,,,,,,,,,,,,,,,,,,,sub-049,1.0,random_dot,60.25257880466994,
right,right,accuracy,,,,,0.0,0.0,0.0,0.0,20.0,1.0,41.0,1.0,565.8655728999875,,,,,,,,,565.8509595999494,566.6653239000007,567.465323499986,567.4501168999705,567.4501363000018,567.465323499986,567.465323499986,567.465323499986,572.465244299965,573.2161970999441,left,0.0,40.19297540007392,,,,,,,,,,,,,,,,,,,,,,,,,,,,,,,sub-049,1.0,random_dot,60.25257880466994,
left,left,accuracy,,,,,0.0,0.0,0.0,0.0,21.0,0.0,42.0,0.0,573.2311028999975,,,,,,,,,573.2172951999819,573.3319788999506,574.1314216999453,574.1151978999842,574.1152202999801,574.1314216999453,574.1314216999453,574.1314216999453,,577.7828081999905,right,0.0,38.0870878000278,,,,,,,,,,,,,,,,,,,,,,,,,,,,,,,sub-049,1.0,random_dot,60.25257880466994,
right,right,accuracy,,,,,0.0,0.0,0.0,0.0,21.0,1.0,43.0,1.0,577.7982108999859,,,,,,,,,577.7852870999486,578.5975743999588,579.3969909999869,579.3820479999995,579.3820776999928,579.3969909999869,579.3969909999869,579.3969909999869,,582.6319630999933,left,0.0,37.68096850003349,,,,,,,,,,,,,,,,,,,,,,,,,,,,,,,sub-049,1.0,random_dot,60.25257880466994,
right,right,accuracy,,,,,0.0,0.0,0.0,0.0,22.0,0.0,44.0,1.0,582.6466598999687,,,,,,,,,582.632959999959,582.9967475999729,583.7967599999974,583.7808114999789,583.7808475999627,583.7967599999974,583.7967599999974,583.7967599999974,,587.7474236999988,right,1.0,38.395226900000125,,,,,,,,,,,,,,,,,,,,,,,,,,,,,,,sub-049,1.0,random_dot,60.25257880466994,
left,left,accuracy,,,,,0.0,0.0,0.0,0.0,22.0,1.0,45.0,0.0,587.7629681999679,,,,,,,,,587.7491574999876,587.862497199967,588.6623773999745,588.6472095999634,588.6472297,588.6623773999745,588.6623773999745,588.6623773999745,,590.914127099968,left,1.0,36.6870982000255,,,,,,,,,,,,,,,,,,,,,,,,,,,,,,,sub-049,1.0,random_dot,60.25257880466994,
left,left,accuracy,,,,,0.0,0.0,0.0,0.0,23.0,0.0,46.0,0.0,590.9290260999696,,,,,,,,,590.9151399999973,591.2788133999566,592.0790323999827,592.0628739999956,592.062893699971,592.0790323999827,592.0790323999827,592.0790323999827,,596.5294013999519,left,1.0,38.89200120000169,,,,,,,,,,,,,,,,,,,,,,,,,,,,,,,sub-049,1.0,random_dot,60.25257880466994,
right,right,accuracy,,,,,0.0,0.0,0.0,0.0,23.0,1.0,47.0,1.0,596.5449334000004,,,,,,,,,596.5304114999599,596.8951575999963,597.6951459999545,597.6788707999513,597.6789070999948,597.6951459999545,597.6951459999545,597.6951459999545,602.694422599976,603.6620317999623,left,0.0,40.41229020000901,,,,,,,,,,,,,,,,,,,,,,,,,,,,,,,sub-049,1.0,random_dot,60.25257880466994,
right,right,accuracy,,,,,0.0,0.0,0.0,0.0,24.0,0.0,48.0,1.0,603.6774176999461,,,,,,,,,603.6630506999791,604.8771671999712,605.6770378999645,605.661354699987,605.6613773999852,605.6770378999645,605.6770378999645,605.6770378999645,,608.8284549999516,left,0.0,37.60207780008204,,,,,,,,,,,,,,,,,,,,,,,,,,,,,,,sub-049,1.0,random_dot,60.25257880466994,
left,left,accuracy,,,,,0.0,0.0,0.0,0.0,24.0,1.0,49.0,0.0,608.84327079996,,,,,,,,,608.830586600001,610.0435368999606,610.8433180999709,610.8269656999619,610.8269866999472,610.8433180999709,610.8433180999709,610.8433180999709,,612.2948415999999,left,1.0,35.900810400024056,,,,,,,,,,,,,,,,,,,,,,,,,,,,,,,sub-049,1.0,random_dot,60.25257880466994,
right,right,accuracy,,,,,0.0,0.0,0.0,0.0,25.0,0.0,50.0,1.0,612.3100238999468,,,,,,,,,612.2966283999849,613.1094151999569,613.9096290000016,613.8940622999799,613.8940813999507,613.9096290000016,613.9096290000016,613.9096290000016,618.9091784999473,619.2935063999612,right,1.0,39.83496860001469,,,,,,,,,,,,,,,,,,,,,,,,,,,,,,,sub-049,1.0,random_dot,60.25257880466994,
left,left,accuracy,,,,,0.0,0.0,0.0,0.0,25.0,1.0,51.0,0.0,619.3089462999487,,,,,,,,,619.2954242999549,620.5083593999734,621.3084952999488,621.2926106999512,621.2926345999585,621.3084952999488,621.3084952999488,621.3084952999488,,622.9092313000001,left,1.0,36.05068880005274,,,,,,,,,,,,,,,,,,,,,,,,,,,,,,,sub-049,1.0,random_dot,60.25257880466994,
left,left,accuracy,,,,,0.0,0.0,0.0,0.0,26.0,0.0,52.0,0.0,622.9246677999618,,,,,,,,,622.9105424999725,623.0250988999614,623.8248203999829,623.8093696999713,623.8093914999627,623.8248203999829,623.8248203999829,623.8248203999829,,625.9589950999944,left,1.0,36.57085650000954,,,,,,,,,,,,,,,,,,,,,,,,,,,,,,,sub-049,1.0,random_dot,60.25257880466994,
right,right,accuracy,,,,,0.0,0.0,0.0,0.0,26.0,1.0,53.0,1.0,625.9743579999777,,,,,,,,,625.9600160999689,627.174887000001,627.9745819999953,627.9582560999552,627.9582743999781,627.9745819999953,627.9745819999953,627.9745819999953,,629.5086097999592,right,1.0,35.977283800020814,,,,,,,,,,,,,,,,,,,,,,,,,,,,,,,sub-049,1.0,random_dot,60.25257880466994,
right,right,accuracy,,,,,0.0,0.0,0.0,0.0,27.0,0.0,54.0,1.0,629.5241066999733,,,,,,,,,629.5096641999553,629.6241384999594,630.4238781999447,630.4080028999597,630.4080230999971,630.4238781999447,630.4238781999447,630.4238781999447,,633.8080694999662,right,1.0,37.83309920004103,,,,,,,,,,,,,,,,,,,,,,,,,,,,,,,sub-049,1.0,random_dot,60.25257880466994,
left,left,accuracy,,,,,0.0,0.0,0.0,0.0,27.0,1.0,55.0,0.0,633.8235615999438,,,,,,,,,633.8090880999807,634.6236591999768,635.4231413999805,635.4075526999659,635.4075731999474,635.4231413999805,635.4231413999805,635.4231413999805,,636.9243047999917,left,1.0,35.94102260004729,,,,,,,,,,,,,,,,,,,,,,,,,,,,,,,sub-049,1.0,random_dot,60.25257880466994,
right,right,accuracy,,,,,0.0,0.0,0.0,0.0,28.0,0.0,56.0,1.0,636.9394776999834,,,,,,,,,636.9253296999959,638.1399308999535,638.9394859999884,638.9238978999783,638.9239201999735,638.9394859999884,638.9394859999884,638.9394859999884,,640.7407762999646,right,1.0,36.25004540005466,,,,,,,,,,,,,,,,,,,,,,,,,,,,,,,sub-049,1.0,random_dot,60.25257880466994,
left,left,accuracy,,,,,0.0,0.0,0.0,0.0,28.0,1.0,57.0,0.0,640.7562117999769,,,,,,,,,640.7418031999841,641.106161499978,641.9058183999732,641.8895896999747,641.8896075999946,641.9058183999732,641.9058183999732,641.9058183999732,,646.673006099998,right,0.0,39.216038100013975,,,,,,,,,,,,,,,,,,,,,,,,,,,,,,,sub-049,1.0,random_dot,60.25257880466994,
right,right,accuracy,,,,,0.0,0.0,0.0,0.0,29.0,0.0,58.0,1.0,646.6886058999808,,,,,,,,,646.6741275999811,646.7887691999786,647.5884087999584,647.5727666999446,647.5727863999782,647.5884087999584,647.5884087999584,647.5884087999584,,649.2729480999988,right,1.0,36.13334020000184,,,,,,,,,,,,,,,,,,,,,,,,,,,,,,,sub-049,1.0,random_dot,60.25257880466994,
left,left,accuracy,,,,,0.0,0.0,0.0,0.0,29.0,1.0,59.0,0.0,649.2883692999603,,,,,,,,,649.2740328999935,650.0879941999447,650.8878504999448,650.8717683999566,650.8717909999541,650.8878504999448,650.8878504999448,650.8878504999448,,653.1720051000011,left,1.0,36.72592260001693,,,,,,,,,,,,,,,,,,,,,,,,,,,,,,,sub-049,1.0,random_dot,60.25257880466994,
,,accuracy,,,,,0.0,0.0,0.0,0.0,,,,,,,,,,,,,,,,,,,,,,,,,,,,,,,,,,,,,,,,,,,,,,,,,,,,,,,,,sub-049,1.0,random_dot,60.25257880466994,
right,right,speed,,,,,0.0,1.0,1.0,1.0,0.0,0.0,0.0,1.0,657.0094096999965,,,,,,,,,657.0035742999753,658.2036575999809,659.003772099968,658.9876685999916,658.9876894999761,659.003772099968,659.003772099968,659.003772099968,,660.4544778999989,right,1.0,35.89190840005176,,,,,,,,,,,,,,,,,,,,653.1730829000007,653.1890464999597,653.1890464999597,656.9887905999785,space,38.24347350001335,,,,,,sub-049,1.0,random_dot,60.25257880466994,
left,left,speed,,,,,0.0,1.0,1.0,1.0,0.0,1.0,1.0,0.0,660.4698250999791,,,,,,,,,660.4557695999974,660.5700966999866,661.369865799963,661.3545356999966,661.3545572999865,661.369865799963,661.369865799963,661.369865799963,,662.2217493999633,left,1.0,35.29279580002185,,,,,,,,,,,,,,,,,,,,,,,,,,,,,,,sub-049,1.0,random_dot,60.25257880466994,
right,right,speed,,,,,0.0,1.0,1.0,1.0,1.0,0.0,2.0,1.0,662.2363679999835,,,,,,,,,662.2228861999465,662.336343199946,663.1362862999667,663.1209108999465,663.120933899947,663.1362862999667,663.1362862999667,663.1362862999667,,664.8705368999508,right,1.0,36.1760607000324,,,,,,,,,,,,,,,,,,,,,,,,,,,,,,,sub-049,1.0,random_dot,60.25257880466994,
left,left,speed,,,,,0.0,1.0,1.0,1.0,1.0,1.0,3.0,0.0,664.8865152999642,,,,,,,,,664.8716136000003,665.2360844999785,666.036119299999,666.0199432999943,666.0199631999712,666.036119299999,666.036119299999,666.036119299999,,666.7205322999507,left,1.0,35.13257309998153,,,,,,,,,,,,,,,,,,,,,,,,,,,,,,,sub-049,1.0,random_dot,60.25257880466994,
left,left,speed,,,,,0.0,1.0,1.0,1.0,2.0,0.0,4.0,0.0,666.7360920999781,,,,,,,,,666.7215469999937,666.836122299952,667.6356649999507,667.6203142999439,667.6203339999774,667.6356649999507,667.6356649999507,667.6356649999507,,668.9873894999619,right,0.0,35.80268220003927,,,,,,,,,,,,,,,,,,,,,,,,,,,,,,,sub-049,1.0,random_dot,60.25257880466994,
right,right,speed,,,,,0.0,1.0,1.0,1.0,2.0,1.0,5.0,1.0,669.0027493999805,,,,,,,,,668.9883916999679,669.1021429999964,669.9020626999554,669.8864912999561,669.8865148999612,669.9020626999554,669.9020626999554,669.9020626999554,,670.9864815999754,right,1.0,35.526498800027184,,,,,,,,,,,,,,,,,,,,,,,,,,,,,,,sub-049,1.0,random_dot,60.25257880466994,
right,right,speed,,,,,0.0,1.0,1.0,1.0,3.0,0.0,6.0,1.0,671.0018274999456,,,,,,,,,670.9884400999872,671.1019244999625,671.9024298999575,671.8856484999997,671.8856754999724,671.9024298999575,671.9024298999575,671.9024298999575,,673.1534711999702,left,0.0,35.69423510006163,,,,,,,,,,,,,,,,,,,,,,,,,,,,,,,sub-049,1.0,random_dot,60.25257880466994,
left,left,speed,,,,,0.0,1.0,1.0,1.0,3.0,1.0,7.0,0.0,673.1681430999888,,,,,,,,,673.1546592999948,673.9688025999931,674.7683645999641,674.7522744999733,674.7522958999616,674.7683645999641,674.7683645999641,674.7683645999641,,676.4541611999739,left,1.0,36.13372410001466,,,,,,,,,,,,,,,,,,,,,,,,,,,,,,,sub-049,1.0,random_dot,60.25257880466994,
right,right,speed,,,,,0.0,1.0,1.0,1.0,4.0,0.0,8.0,1.0,676.467845999985,,,,,,,,,676.4558374999906,677.6676232999889,678.4675890999497,678.4517949000001,678.4518174999976,678.4675890999497,678.4675890999497,678.4675890999497,,679.6189362999867,right,1.0,35.587274599995,,,,,,,,,,,,,,,,,,,,,,,,,,,,,,,sub-049,1.0,random_dot,60.25257880466994,
left,left,speed,,,,,0.0,1.0,1.0,1.0,4.0,1.0,9.0,0.0,679.6346396000008,,,,,,,,,679.6198768999893,680.8342882999568,681.6345338999527,681.6178765999503,681.6178963999846,681.6345338999527,681.6345338999527,681.6345338999527,,683.1183621999808,left,1.0,35.922987000027206,,,,,,,,,,,,,,,,,,,,,,,,,,,,,,,sub-049,1.0,random_dot,60.25257880466994,
right,right,speed,,,,,0.0,1.0,1.0,1.0,5.0,0.0,10.0,1.0,683.1341710999841,,,,,,,,,683.1194003999699,684.3341843999806,685.1336909999955,685.1175972999772,685.117626799969,685.1336909999955,685.1336909999955,685.1336909999955,,688.2843189999694,right,1.0,37.5914533000323,,,,,,,,,,,,,,,,,,,,,,,,,,,,,,,sub-049,1.0,random_dot,60.25257880466994,
left,left,speed,,,,,0.0,1.0,1.0,1.0,5.0,1.0,11.0,0.0,688.2997013999848,,,,,,,,,688.2853737999685,688.6494885999709,689.4494370999746,689.4336447999813,689.4336788999499,689.4494370999746,689.4494370999746,689.4494370999746,,691.600339699944,left,1.0,36.596344000077806,,,,,,,,,,,,,,,,,,,,,,,,,,,,,,,sub-049,1.0,random_dot,60.25257880466994,
left,left,speed,,,,,0.0,1.0,1.0,1.0,6.0,0.0,12.0,0.0,691.6158940999885,,,,,,,,,691.6013193999534,692.4160856999806,693.2157036999706,693.1999625999597,693.1999840999488,693.2157036999706,693.2157036999706,693.2157036999706,,697.8828650999931,right,0.0,39.11175880004885,,,,,,,,,,,,,,,,,,,,,,,,,,,,,,,sub-049,1.0,random_dot,60.25257880466994,
right,right,speed,,,,,0.0,1.0,1.0,1.0,6.0,1.0,13.0,1.0,697.8984818999888,,,,,,,,,697.8838913999498,698.6984953999636,699.4988379999995,699.4828814999782,699.4829185999697,699.4988379999995,699.4988379999995,699.4988379999995,,702.1497211999958,left,0.0,37.09957260004012,,,,,,,,,,,,,,,,,,,,,,,,,,,,,,,sub-049,1.0,random_dot,60.25257880466994,
right,right,speed,,,,,0.0,1.0,1.0,1.0,7.0,0.0,14.0,1.0,702.1649500999483,,,,,,,,,702.1507228999981,702.9647408999735,703.7644433999667,703.7485478000017,703.748587399954,703.7644433999667,703.7644433999667,703.7644433999667,,705.3837095999625,right,1.0,36.05970889999298,,,,,,,,,,,,,,,,,,,,,,,,,,,,,,,sub-049,1.0,random_dot,60.25257880466994,
left,left,speed,,,,,0.0,1.0,1.0,1.0,7.0,1.0,15.0,0.0,705.3989338999963,,,,,,,,,705.3862547999597,706.197617799975,706.9975030999631,706.9812845999841,706.9813054999686,706.9975030999631,706.9975030999631,706.9975030999631,,710.3483865999733,left,1.0,37.801246499991976,,,,,,,,,,,,,,,,,,,,,,,,,,,,,,,sub-049,1.0,random_dot,60.25257880466994,
left,left,speed,,,,,0.0,1.0,1.0,1.0,8.0,0.0,16.0,0.0,710.3634728999459,,,,,,,,,710.3506156999501,711.5633440999663,712.36325699999,712.3473621999728,712.3473966999445,712.36325699999,712.36325699999,712.36325699999,,713.6645140999462,right,0.0,35.73731110000517,,,,,,,,,,,,,,,,,,,,,,,,,,,,,,,sub-049,1.0,random_dot,60.25257880466994,
right,right,speed,,,,,0.0,1.0,1.0,1.0,8.0,1.0,17.0,1.0,713.6799843999906,,,,,,,,,713.6655348999775,713.7802871999447,714.579934999987,714.5641969999997,714.5642164999736,714.579934999987,714.579934999987,714.579934999987,,715.8473676999565,right,1.0,35.71739320002962,,,,,,,,,,,,,,,,,,,,,,,,,,,,,,,sub-049,1.0,random_dot,60.25257880466994,
right,right,speed,,,,,0.0,1.0,1.0,1.0,9.0,0.0,18.0,1.0,715.8628575999755,,,,,,,,,715.8483575999853,717.0630595999537,717.8626668999786,717.8466894999729,717.8467733999714,717.8626668999786,717.8626668999786,717.8626668999786,,719.2306473999633,left,0.0,35.81458950001979,,,,,,,,,,,,,,,,,,,,,,,,,,,,,,,sub-049,1.0,random_dot,60.25257880466994,
left,left,speed,,,,,0.0,1.0,1.0,1.0,9.0,1.0,19.0,0.0,719.2455070999567,,,,,,,,,719.2317150000017,720.4458545999951,721.245669899974,721.2294893999933,721.2295086999657,721.245669899974,721.245669899974,721.245669899974,,722.5133618999971,left,1.0,35.71318150003208,,,,,,,,,,,,,,,,,,,,,,,,,,,,,,,sub-049,1.0,random_dot,60.25257880466994,
right,right,speed,,,,,0.0,1.0,1.0,1.0,10.0,0.0,20.0,1.0,722.5292298999848,,,,,,,,,722.5145747999777,723.7287018999923,724.5283563999692,724.5121751999832,724.5121935999487,724.5283563999692,724.5283563999692,724.5283563999692,,727.0794897999731,right,1.0,36.986659199988935,,,,,,,,,,,,,,,,,,,,,,,,,,,,,,,sub-049,1.0,random_dot,60.25257880466994,
left,left,speed,,,,,0.0,1.0,1.0,1.0,10.0,1.0,21.0,0.0,727.0947787999758,,,,,,,,,727.0807875999599,727.8943517999724,728.6949287999887,728.6788923999993,728.6789691000013,728.6949287999887,728.6949287999887,728.6949287999887,,731.4289565999643,right,0.0,37.17684650002048,,,,,,,,,,,,,,,,,,,,,,,,,,,,,,,sub-049,1.0,random_dot,60.25257880466994,
left,left,speed,,,,,0.0,1.0,1.0,1.0,11.0,0.0,22.0,0.0,731.4440709999762,,,,,,,,,731.4303262999747,732.2447134999675,733.0437875999487,733.028148399957,733.0281681999913,733.0437875999487,733.0437875999487,733.0437875999487,,737.228339299967,left,1.0,38.62647130002733,,,,,,,,,,,,,,,,,,,,,,,,,,,,,,,sub-049,1.0,random_dot,60.25257880466994,
right,right,speed,,,,,0.0,1.0,1.0,1.0,11.0,1.0,23.0,1.0,737.2436522999778,,,,,,,,,737.2300989999785,737.3431724999682,738.1435754999984,738.1273296999861,738.1273484999547,738.1435754999984,738.1435754999984,738.1435754999984,,739.0780437999638,right,1.0,35.3849315000698,,,,,,,,,,,,,,,,,,,,,,,,,,,,,,,sub-049,1.0,random_dot,60.25257880466994,
left,left,speed,,,,,0.0,1.0,1.0,1.0,12.0,0.0,24.0,0.0,739.0939532999764,,,,,,,,,739.0790470999782,739.1932434999617,739.993368299969,739.9770616999594,739.9770810999908,739.993368299969,739.993368299969,739.993368299969,,741.0276436999557,left,1.0,35.47983990004286,,,,,,,,,,,,,,,,,,,,,,,,,,,,,,,sub-049,1.0,random_dot,60.25257880466994,
right,right,speed,,,,,0.0,1.0,1.0,1.0,12.0,1.0,25.0,1.0,741.0433691999642,,,,,,,,,741.0294566999655,741.3930080999853,742.1929330999847,742.1772108000005,742.1772466999828,742.1929330999847,742.1929330999847,742.1929330999847,,745.2100316999713,left,0.0,37.45494319999125,,,,,,,,,,,,,,,,,,,,,,,,,,,,,,,sub-049,1.0,random_dot,60.25257880466994,
left,left,speed,,,,,0.0,1.0,1.0,1.0,13.0,0.0,26.0,0.0,745.2259391999687,,,,,,,,,745.2111000999575,746.4262186999549,747.2252044999623,747.2096816999838,747.2097007999546,747.2252044999623,747.2252044999623,747.2252044999623,,751.1768369999481,left,1.0,38.40172359999269,,,,,,,,,,,,,,,,,,,,,,,,,,,,,,,sub-049,1.0,random_dot,60.25257880466994,
right,right,speed,,,,,0.0,1.0,1.0,1.0,13.0,1.0,27.0,1.0,751.1920571999508,,,,,,,,,751.1785361999646,751.9913964999723,752.7911528999684,752.775671899959,752.775692700001,752.7911528999684,752.7911528999684,752.7911528999684,,754.5932767999475,right,1.0,36.25058150006225,,,,,,,,,,,,,,,,,,,,,,,,,,,,,,,sub-049,1.0,random_dot,60.25257880466994,
right,right,speed,,,,,0.0,1.0,1.0,1.0,14.0,0.0,28.0,1.0,754.6085827999632,,,,,,,,,754.5957789999666,755.4082094999612,756.2075590999448,756.1915482999757,756.1915670000017,756.2075590999448,756.2075590999448,756.2075590999448,,758.1925225999439,right,1.0,36.42555300000822,,,,,,,,,,,,,,,,,,,,,,,,,,,,,,,sub-049,1.0,random_dot,60.25257880466994,
left,left,speed,,,,,0.0,1.0,1.0,1.0,14.0,1.0,29.0,0.0,758.207430099952,,,,,,,,,758.1942373999627,758.3073760999832,759.1071016999776,759.0914075999754,759.0914298999705,759.1071016999776,759.1071016999776,759.1071016999776,,760.9583964999765,left,1.0,36.29121240001405,,,,,,,,,,,,,,,,,,,,,,,,,,,,,,,sub-049,1.0,random_dot,60.25257880466994,
right,right,speed,,,,,0.0,1.0,1.0,1.0,15.0,0.0,30.0,1.0,760.9734752999502,,,,,,,,,760.9594783999491,761.3234320999472,762.1238513999851,762.1079212999903,762.1079410999664,762.1238513999851,762.1238513999851,762.1238513999851,,765.5243437999743,right,1.0,37.84444200003054,,,,,,,,,,,,,,,,,,,,,,,,,,,,,,,sub-049,1.0,random_dot,60.25257880466994,
left,left,speed,,,,,0.0,1.0,1.0,1.0,15.0,1.0,31.0,0.0,765.5399296999676,,,,,,,,,765.5253996999818,766.3397759999498,767.1394782999996,767.12360479997,767.1236249999492,767.1394782999996,767.1394782999996,767.1394782999996,,769.9901407999569,right,0.0,37.30005180003354,,,,,,,,,,,,,,,,,,,,,,,,,,,,,,,sub-049,1.0,random_dot,60.25257880466994,
left,left,speed,,,,,0.0,1.0,1.0,1.0,16.0,0.0,32.0,0.0,770.0055150999688,,,,,,,,,769.9912985999836,771.2060770999524,772.0061464999453,771.9901736999745,771.990193799953,772.0061464999453,772.0061464999453,772.0061464999453,,775.7736747999443,right,0.0,38.21582290000515,,,,,,,,,,,,,,,,,,,,,,,,,,,,,,,sub-049,1.0,random_dot,60.25257880466994,
right,right,speed,,,,,0.0,1.0,1.0,1.0,16.0,1.0,33.0,1.0,775.7889636999462,,,,,,,,,775.7751353999483,776.9880578999873,777.7879960999708,777.7725299999584,777.7725494999904,777.7879960999708,777.7879960999708,777.7879960999708,,779.7058392999461,left,0.0,36.36236700002337,,,,,,,,,,,,,,,,,,,,,,,,,,,,,,,sub-049,1.0,random_dot,60.25257880466994,
right,right,speed,,,,,0.0,1.0,1.0,1.0,17.0,0.0,34.0,1.0,779.7214416999486,,,,,,,,,779.7068608999834,779.8212769999518,780.6209913999774,780.6056448999443,780.6056637999718,780.6209913999774,780.6209913999774,780.6209913999774,,781.9388616999495,right,1.0,35.75803480000468,,,,,,,,,,,,,,,,,,,,,,,,,,,,,,,sub-049,1.0,random_dot,60.25257880466994,
left,left,speed,,,,,0.0,1.0,1.0,1.0,17.0,1.0,35.0,0.0,781.9550483999774,,,,,,,,,781.939870000002,782.7540161999641,783.5544776999741,783.5382995999535,783.5383365999442,783.5544776999741,783.5544776999741,783.5544776999741,,784.9557644999586,left,1.0,35.84308400005102,,,,,,,,,,,,,,,,,,,,,,,,,,,,,,,sub-049,1.0,random_dot,60.25257880466994,
left,left,speed,,,,,0.0,1.0,1.0,1.0,18.0,0.0,36.0,0.0,784.9709999999614,,,,,,,,,784.9571156999446,785.7705116999568,786.5707537999842,786.5545175999869,786.5545401999843,786.5707537999842,786.5707537999842,786.5707537999842,,788.7714965999476,right,0.0,36.6377027000417,,,,,,,,,,,,,,,,,,,,,,,,,,,,,,,sub-049,1.0,random_dot,60.25257880466994,
right,right,speed,,,,,0.0,1.0,1.0,1.0,18.0,1.0,37.0,1.0,788.7870668999967,,,,,,,,,788.7725490999874,789.9870790999848,790.7867793999612,790.7704275999567,790.7704530999763,790.7867793999612,790.7867793999612,790.7867793999612,,793.6214757999987,right,1.0,37.28244660003111,,,,,,,,,,,,,,,,,,,,,,,,,,,,,,,sub-049,1.0,random_dot,60.25257880466994,
left,left,speed,,,,,0.0,1.0,1.0,1.0,19.0,0.0,38.0,0.0,793.6359036999638,,,,,,,,,793.6224846999976,794.8357819999801,795.6358897999744,795.6198470999952,795.61988199997,795.6358897999744,795.6358897999744,795.6358897999744,,797.3367575999582,right,0.0,36.14424160000635,,,,,,,,,,,,,,,,,,,,,,,,,,,,,,,sub-049,1.0,random_dot,60.25257880466994,
right,right,speed,,,,,0.0,1.0,1.0,1.0,19.0,1.0,39.0,1.0,797.3527214999776,,,,,,,,,797.337757799949,797.4524050999898,798.2524106999626,798.2363208999741,798.2363542999956,798.2524106999626,798.2524106999626,798.2524106999626,,799.3702221999993,right,1.0,35.554055400018115,,,,,,,,,,,,,,,,,,,,,,,,,,,,,,,sub-049,1.0,random_dot,60.25257880466994,
left,left,speed,,,,,0.0,1.0,1.0,1.0,20.0,0.0,40.0,0.0,799.3852151999599,,,,,,,,,799.3712451999891,799.7356435999973,800.5350938999909,800.519396699965,800.5194155999925,800.5350938999909,800.5350938999909,800.5350938999909,,803.8199250999605,right,0.0,37.72732409997843,,,,,,,,,,,,,,,,,,,,,,,,,,,,,,,sub-049,1.0,random_dot,60.25257880466994,
right,right,speed,,,,,0.0,1.0,1.0,1.0,20.0,1.0,41.0,1.0,803.8349027999793,,,,,,,,,803.82095199998,804.1852543999557,804.9847923999769,804.9686446999549,804.968664999993,804.9847923999769,804.9847923999769,804.9847923999769,,806.285737899947,left,0.0,35.74260300002061,,,,,,,,,,,,,,,,,,,,,,,,,,,,,,,sub-049,1.0,random_dot,60.25257880466994,
right,right,speed,,,,,0.0,1.0,1.0,1.0,21.0,0.0,42.0,1.0,806.3012496999581,,,,,,,,,806.2875146999722,806.6513225999661,807.4515194999985,807.4358163999859,807.4358521999675,807.4515194999985,807.4515194999985,807.4515194999985,,809.0850438999478,right,1.0,36.07494030002272,,,,,,,,,,,,,,,,,,,,,,,,,,,,,,,sub-049,1.0,random_dot,60.25257880466994,
left,left,speed,,,,,0.0,1.0,1.0,1.0,21.0,1.0,43.0,0.0,809.1005741999834,,,,,,,,,809.08607879997,809.4509742999799,810.2506035999977,810.2347559999907,810.2347920999746,810.2506035999977,810.2506035999977,810.2506035999977,,811.8347419999773,right,0.0,36.02173830004176,,,,,,,,,,,,,,,,,,,,,,,,,,,,,,,sub-049,1.0,random_dot,60.25257880466994,
right,right,speed,,,,,0.0,1.0,1.0,1.0,22.0,0.0,44.0,1.0,811.8505306000006,,,,,,,,,811.8357477999525,812.2003884000005,813.0000507999794,812.9843020999688,812.9843208999955,813.0000507999794,813.0000507999794,813.0000507999794,,814.7010184999672,right,1.0,36.14578600000823,,,,,,,,,,,,,,,,,,,,,,,,,,,,,,,sub-049,1.0,random_dot,60.25257880466994,
left,left,speed,,,,,0.0,1.0,1.0,1.0,22.0,1.0,45.0,0.0,814.7167676999816,,,,,,,,,814.7020612999913,815.9168047999847,816.7167296999833,816.700721799978,816.7007448999793,816.7167296999833,816.7167296999833,816.7167296999833,,817.769219699956,left,1.0,35.50309760001255,,,,,,,,,,,,,,,,,,,,,,,,,,,,,,,sub-049,1.0,random_dot,60.25257880466994,
left,left,speed,,,,,0.0,1.0,1.0,1.0,23.0,0.0,46.0,0.0,817.7836444999557,,,,,,,,,817.7716440999648,818.133097599959,818.9326184999663,818.9167330999626,818.9167521999916,818.9326184999663,818.9326184999663,818.9326184999663,,820.1336781999562,right,0.0,35.63853370002471,,,,,,,,,,,,,,,,,,,,,,,,,,,,,,,sub-049,1.0,random_dot,60.25257880466994,
right,right,speed,,,,,0.0,1.0,1.0,1.0,23.0,1.0,47.0,1.0,820.149126299948,,,,,,,,,820.1347109999624,820.249379099987,821.0497342000017,821.0338618999813,821.0338938999921,821.0497342000017,821.0497342000017,821.0497342000017,,821.8342187999515,right,1.0,35.2203474000562,,,,,,,,,,,,,,,,,,,,,,,,,,,,,,,sub-049,1.0,random_dot,60.25257880466994,
left,left,speed,,,,,0.0,1.0,1.0,1.0,24.0,0.0,48.0,0.0,821.8493546999525,,,,,,,,,821.8352158999769,822.1994677999755,822.9993266999954,822.982825199957,822.9828451999929,822.9993266999954,822.9993266999954,822.9993266999954,,824.2499687999953,right,0.0,35.68657489999896,,,,,,,,,,,,,,,,,,,,,,,,,,,,,,,sub-049,1.0,random_dot,60.25257880466994,
right,right,speed,,,,,0.0,1.0,1.0,1.0,24.0,1.0,49.0,1.0,824.2654333999963,,,,,,,,,824.2509775999933,825.065303499985,825.865812999953,825.8493591999868,825.8493870999664,825.865812999953,825.865812999953,825.865812999953,,827.1164365999866,left,0.0,35.69965720002074,,,,,,,,,,,,,,,,,,,,,,,,,,,,,,,sub-049,1.0,random_dot,60.25257880466994,
left,left,speed,,,,,0.0,1.0,1.0,1.0,25.0,0.0,50.0,0.0,827.1317953999969,,,,,,,,,827.1174618999939,827.4815634999541,828.2818907999899,828.2656797999516,828.2657007999951,828.2818907999899,828.2818907999899,828.2818907999899,,829.9500872999779,left,1.0,36.116503500030376,,,,,,,,,,,,,,,,,,,,,,,,,,,,,,,sub-049,1.0,random_dot,60.25257880466994,
right,right,speed,,,,,0.0,1.0,1.0,1.0,25.0,1.0,51.0,1.0,829.9646675999975,,,,,,,,,829.9510474999552,831.1646763999597,831.9643617999973,831.948569799948,831.9486020999611,831.9643617999973,831.9643617999973,831.9643617999973,,833.8825967999874,right,1.0,36.35979750007391,,,,,,,,,,,,,,,,,,,,,,,,,,,,,,,sub-049,1.0,random_dot,60.25257880466994,
right,right,speed,,,,,0.0,1.0,1.0,1.0,26.0,0.0,52.0,1.0,833.8978881999501,,,,,,,,,833.8846897999756,834.2473259999533,835.0476128999726,835.0322863999754,835.0323458999628,835.0476128999726,835.0476128999726,835.0476128999726,,837.565346599964,right,1.0,36.96886920003453,,,,,,,,,,,,,,,,,,,,,,,,,,,,,,,sub-049,1.0,random_dot,60.25257880466994,
left,left,speed,,,,,0.0,1.0,1.0,1.0,26.0,1.0,53.0,0.0,837.5800889999955,,,,,,,,,837.56645319995,838.7800868999911,839.5801758999587,839.5640715999762,839.5640938999713,839.5801758999587,839.5801758999587,839.5801758999587,,842.197337199992,left,1.0,37.05887770000845,,,,,,,,,,,,,,,,,,,,,,,,,,,,,,,sub-049,1.0,random_dot,60.25257880466994,
right,right,speed,,,,,0.0,1.0,1.0,1.0,27.0,0.0,54.0,1.0,842.2130026999512,,,,,,,,,842.1984893999761,842.3130295999581,843.1136657999596,843.0970025999704,843.0970245999633,843.1136657999596,843.1136657999596,843.1136657999596,,847.3640018999577,right,1.0,38.69045550003648,,,,,,,,,,,,,,,,,,,,,,,,,,,,,,,sub-049,1.0,random_dot,60.25257880466994,
left,left,speed,,,,,0.0,1.0,1.0,1.0,27.0,1.0,55.0,0.0,847.3789147999487,,,,,,,,,847.365069099993,847.4791514999815,848.2789365999633,848.2629271999467,848.262946199975,848.2789365999633,848.2789365999633,848.2789365999633,,849.8635501999524,left,1.0,36.02971600001911,,,,,,,,,,,,,,,,,,,,,,,,,,,,,,,sub-049,1.0,random_dot,60.25257880466994,
right,right,speed,,,,,0.0,1.0,1.0,1.0,28.0,0.0,56.0,1.0,849.8790018999716,,,,,,,,,849.8645270999987,851.0788297999534,851.8789090999635,851.8624688999844,851.8624876999529,851.8789090999635,851.8789090999635,851.8789090999635,,853.429830899986,right,1.0,35.98666180000873,,,,,,,,,,,,,,,,,,,,,,,,,,,,,,,sub-049,1.0,random_dot,60.25257880466994,
left,left,speed,,,,,0.0,1.0,1.0,1.0,28.0,1.0,57.0,0.0,853.4450535999495,,,,,,,,,853.4307818999514,853.5448488999973,854.3445919999504,854.3286078999517,854.3286261999747,854.3445919999504,854.3445919999504,854.3445919999504,,855.7957015999709,left,1.0,35.89484670001548,,,,,,,,,,,,,,,,,,,,,,,,,,,,,,,sub-049,1.0,random_dot,60.25257880466994,
right,right,speed,,,,,0.0,1.0,1.0,1.0,29.0,0.0,58.0,1.0,855.8110991999856,,,,,,,,,855.7967043999815,856.161311099946,856.9610355999903,856.9454839999671,856.9455034999992,856.9610355999903,856.9610355999903,856.9610355999903,,860.0951950000017,left,0.0,37.57999770005699,,,,,,,,,,,,,,,,,,,,,,,,,,,,,,,sub-049,1.0,random_dot,60.25257880466994,
left,left,speed,,,,,0.0,1.0,1.0,1.0,29.0,1.0,59.0,0.0,860.111163900001,,,,,,,,,860.0962265999988,861.3116171999718,862.1108868999872,862.0947167999693,862.0947363000014,862.1108868999872,862.1108868999872,862.1108868999872,,864.5614661999862,right,0.0,36.88794670003699,,,,,,,,,,,,,,,,,,,,,,,,,,,,,,,sub-049,1.0,random_dot,60.25257880466994,
,,speed,,,,,0.0,1.0,1.0,1.0,,,,,,,,,,,,,,,,,,,,,,,,,,,,,,,,,,,,,,,,,,,,,,,,,,,,,,,,,sub-049,1.0,random_dot,60.25257880466994,
,,,,,,,,,,,,,,,,,,,,,,,,,,,,,,,,,,,,,,,,,,,,,,,,,,,,,,,,,,,,,,,864.5621639000019,864.5768470999901,869.5761757,869.5604090999695,sub-049,,,,
