direction,corrAns,randomInstr,practice_trials.thisRepN,practice_trials.thisTrialN,practice_trials.thisN,practice_trials.thisIndex,instr_trials.thisRepN,instr_trials.thisTrialN,instr_trials.thisN,instr_trials.thisIndex,test_trials.thisRepN,test_trials.thisTrialN,test_trials.thisN,test_trials.thisIndex,thisRow.t,notes,general_instruction.started,textGeneralInstr.started,respGeneralInstr.started,general_instruction.stopped,respGeneralInstr.keys,respGeneralInstr.rt,respGeneralInstr.duration,ITI.started,fixcross.started,fixcross.stopped,ITI.stopped,dots.started,backgroundDots.started,stimulusDots.started,respDots.started,dots.stopped,respDots.keys,respDots.corr,respDots.rt,respDots.duration,feedback.started,textFeedback.started,feedback.stopped,textFeedback.stopped,stimulusDots.stopped,info.started,textInfo.started,keyRespInfo.started,info.stopped,keyRespInfo.keys,keyRespInfo.rt,keyRespInfo.duration,test_instruction.started,textTestInstr.started,respTestInstr.started,test_instruction.stopped,respTestInstr.keys,respTestInstr.rt,respTestInstr.duration,random_instruction.started,textRandomInstr.started,respRandomInstr.started,random_instruction.stopped,respRandomInstr.keys,respRandomInstr.rt,respRandomInstr.duration,goodbye.started,textGoodbye.started,textGoodbye.stopped,goodbye.stopped,participant,session,expName,frameRate,Unnamed: 74
,,,,,,,,,,,,,,,,,1.386256500147283,1.394362200051546,1.394362200051546,4.813273400068283,space,53.39753899979405,,,,,,,,,,,,,,,,,,,,,,,,,,,,,,,,,,,,,,,,,,,,,sub-017,1.0,random_dot,121.1253512397542,
left,left,,0.0,0.0,0.0,0.0,,,,,,,,,4.8471921000164,,,,,,,,,4.84272630000487,5.611946500139311,6.412728999974206,6.40411869995296,6.40416150004603,6.412728999974206,6.412728999974206,6.412728999974206,7.547289500012994,right,0.0,51.113701299764216,,7.548267400125042,7.563156499993056,8.05366860004142,,,,,,,,,,,,,,,,,,,,,,,,,,,,sub-017,1.0,random_dot,121.1253512397542,
right,right,,0.0,1.0,1.0,1.0,,,,,,,,,8.06155680003576,,,,,,,,,8.054359700065106,9.253368000034245,10.053630999987943,10.046251100022346,10.046283700037748,10.053630999987943,10.053630999987943,10.053630999987943,13.13010219996795,right,1.0,53.05223639984615,,13.130727699957788,13.14146209997125,13.637010300066322,,,,,,,,,,,,,,,,,,,,,,,,,,,,sub-017,1.0,random_dot,121.1253512397542,
left,left,,1.0,0.0,2.0,0.0,,,,,,,,,13.644819900160655,,,,,,,,,13.637752700131388,13.72835039999336,14.528777900151908,14.521165400044993,14.52119869994931,14.528777900151908,14.528777900151908,14.528777900151908,16.613795100012794,left,1.0,52.05817619990557,,16.614429200068116,16.619970600120723,17.112679700134322,17.119889500085264,,,,,,,,,,,,,,,,,,,,,,,,,,,sub-017,1.0,random_dot,121.1253512397542,
right,right,,1.0,1.0,3.0,1.0,,,,,,,,,17.119889500085264,,,,,,,,,17.11348870000802,17.911457400070503,18.712099600117654,18.70399360009469,18.704024800099432,18.712099600117654,18.712099600117654,18.712099600117654,22.422429700149223,right,1.0,53.68386369966902,,22.42342590005137,22.427992100128904,22.921562399948016,22.928259100066494,,,,,,,,,,,,,,,,,,,,,,,,,,,sub-017,1.0,random_dot,121.1253512397542,
right,right,,2.0,0.0,4.0,1.0,,,,,,,,,22.928259100066494,,,,,,,,,22.922297700075436,24.128286600112915,24.92896470008418,24.9210586999543,24.92109080008231,24.92896470008418,24.92896470008418,24.92896470008418,26.43873109994456,left,0.0,51.48672689986415,,26.439316699979827,26.448148400057107,26.946275500115007,,,,,,,,,,,,,,,,,,,,,,,,,,,,sub-017,1.0,random_dot,121.1253512397542,
left,left,,2.0,1.0,5.0,0.0,,,,,,,,,26.953170200111344,,,,,,,,,26.947069900110364,27.73669099994004,28.536882699932903,28.52985429996625,28.5298894001171,28.536882699932903,28.536882699932903,28.536882699932903,32.479033400071785,right,0.0,53.91779850004241,,32.47967720008455,32.48506160010584,32.97816379996948,32.984987600008026,,,,,,,,,,,,,,,,,,,,,,,,,,,sub-017,1.0,random_dot,121.1253512397542,
right,right,,3.0,0.0,6.0,1.0,,,,,,,,,32.984987600008026,,,,,,,,,32.978857500012964,33.77688100002706,34.577059800038114,34.56917389994487,34.56920289993286,34.577059800038114,34.577059800038114,34.577059800038114,36.72026269999333,right,1.0,52.12116149999201,,36.720842600101605,36.729044900042936,37.219142799964175,37.226684499997646,,,,,,,,,,,,,,,,,,,,,,,,,,,sub-017,1.0,random_dot,121.1253512397542,
left,left,,3.0,1.0,7.0,0.0,,,,,,,,,37.226684499997646,,,,,,,,,37.22005650005303,37.31841820012778,38.11873969994485,38.11161369993352,38.11164649995044,38.11873969994485,38.11873969994485,38.11873969994485,43.11999740009196,right,0.0,54.97881820006296,,43.12062530010007,43.13097029994242,43.62708689994179,,43.110508600017056,,,,,,,,,,,,,,,,,,,,,,,,,,sub-017,1.0,random_dot,121.1253512397542,
right,right,,4.0,0.0,8.0,1.0,,,,,,,,,43.63510389998555,,,,,,,,,43.62779640010558,43.96847179997712,44.76914030010812,44.761009900132194,44.76104820007458,44.76914030010812,44.76914030010812,44.76914030010812,49.845263299997896,left,0.0,55.05352769978344,,49.845991800073534,49.85139130009338,50.34448570013046,50.351520700147375,49.76040729996748,,,,,,,,,,,,,,,,,,,,,,,,,,sub-017,1.0,random_dot,121.1253512397542,
left,left,,4.0,1.0,9.0,0.0,,,,,,,,,50.351520700147375,,,,,,,,,50.34550560009666,51.14329549996182,51.94380360003561,51.93623450002633,51.936276300111786,51.94380360003561,51.94380360003561,51.94380360003561,55.39535170001909,right,0.0,53.42602299991995,,55.39671900006943,55.40156299993396,55.89452810003422,55.90173320006579,,,,,,,,,,,,,,,,,,,,,,,,,,,sub-017,1.0,random_dot,121.1253512397542,
left,left,,5.0,0.0,10.0,0.0,,,,,,,,,55.90173320006579,,,,,,,,,55.89525009994395,56.70164610003121,57.50233820010908,57.49427959998138,57.49430639995262,57.50233820010908,57.50233820010908,57.50233820010908,58.36166579998098,left,1.0,50.83392879972234,,58.36228560004383,58.37086710007861,58.86084780003876,58.86839610012248,,,,,,,,,,,,,,,,,,,,,,,,,,,sub-017,1.0,random_dot,121.1253512397542,
right,right,,5.0,1.0,11.0,1.0,,,,,,,,,58.86839610012248,,,,,,,,,58.8615033000242,60.05993570014834,60.86039480008185,60.85264139994979,60.8526665000245,60.86039480008185,60.86039480008185,60.86039480008185,62.73683650000021,right,1.0,51.85458049993031,,62.73742419993505,62.74329879996367,63.23630430013873,63.243292100029066,,,,,,,,,,,,,,,,,,,,,,,,,,,sub-017,1.0,random_dot,121.1253512397542,
left,left,,6.0,0.0,12.0,0.0,,,,,,,,,63.243292100029066,,,,,,,,,63.23703910014592,64.03517269995064,64.83542490005493,64.82757490011863,64.8276078000199,64.83542490005493,64.83542490005493,64.83542490005493,66.18655680003576,left,1.0,51.3275140998885,,66.18720140005462,66.193181599956,66.68638600013219,66.69364330009557,,,,,,,,,,,,,,,,,,,,,,,,,,,sub-017,1.0,random_dot,121.1253512397542,
right,right,,6.0,1.0,13.0,1.0,,,,,,,,,66.69364330009557,,,,,,,,,66.68718110001646,67.03497619996779,67.83533270005137,67.82757880003192,67.82760379998945,67.83533270005137,67.83533270005137,67.83533270005137,69.74539629998617,right,1.0,51.88971639983356,,69.74601759994403,69.75165350013413,70.24483909993432,70.25155599997379,,,,,,,,,,,,,,,,,,,,,,,,,,,sub-017,1.0,random_dot,121.1253512397542,
right,right,,7.0,0.0,14.0,1.0,,,,,,,,,70.25155599997379,,,,,,,,,70.24545700009912,70.34346130001359,71.14364550006576,71.13552720006555,71.13555430015549,71.14364550006576,71.14364550006576,71.14364550006576,73.5034531999845,left,0.0,52.33387709991075,,73.50420140009373,73.51181620010175,74.0022820001468,74.00987760000862,,,,,,,,,,,,,,,,,,,,,,,,,,,sub-017,1.0,random_dot,121.1253512397542,
left,left,,7.0,1.0,15.0,0.0,,,,,,,,,74.00987760000862,,,,,,,,,74.00285600009374,75.20119890011847,76.00187980011106,75.99413649993949,75.99416380003095,76.00187980011106,76.00187980011106,76.00187980011106,77.72830000007525,right,0.0,51.70533049968071,,77.72890400001779,77.73479070002213,78.22754550003447,78.23471119999886,,,,,,,,,,,,,,,,,,,,,,,,,,,sub-017,1.0,random_dot,121.1253512397542,
right,right,,8.0,0.0,16.0,1.0,,,,,,,,,78.23471119999886,,,,,,,,,78.22840399993584,78.32651149993762,79.12710150005296,79.11925320001319,79.11927999998443,79.12710150005296,79.12710150005296,79.12710150005296,81.54466420016252,left,0.0,52.39593849983066,,81.54532769997604,81.55181189998984,82.04450440010987,82.0515378001146,,,,,,,,,,,,,,,,,,,,,,,,,,,sub-017,1.0,random_dot,121.1253512397542,
left,left,,8.0,1.0,17.0,0.0,,,,,,,,,82.0515378001146,,,,,,,,,82.04534700000659,82.14326149993576,82.94373119994998,82.93613780010492,82.9361694001127,82.94373119994998,82.94373119994998,82.94373119994998,84.70378950005397,right,0.0,51.73458859999664,,84.70450710016303,84.70970280002803,85.20278210006654,85.20974520011805,,,,,,,,,,,,,,,,,,,,,,,,,,,sub-017,1.0,random_dot,121.1253512397542,
right,right,,9.0,0.0,18.0,1.0,,,,,,,,,85.20974520011805,,,,,,,,,85.20369330001995,86.00990170007572,86.81024660007097,86.80239740014076,86.8024283000268,86.81024660007097,86.81024660007097,86.81024660007097,88.44510799995624,left,0.0,51.6086313999258,,88.44577420013957,88.45149100013077,88.94428530009463,88.9515538001433,,,,,,,,,,,,,,,,,,,,,,,,,,,sub-017,1.0,random_dot,121.1253512397542,
left,left,,9.0,1.0,19.0,0.0,,,,,,,,,88.9515538001433,,,,,,,,,88.94495199993253,90.1433137001004,90.9435070999898,90.9360038000159,90.936038200045,90.9435070999898,90.9435070999898,90.9435070999898,92.9538382999599,right,0.0,51.98937359987758,,92.95451529999264,92.95969450008124,93.45276160002686,93.4599232999608,,,,,,,,,,,,,,,,,,,,,,,,,,,sub-017,1.0,random_dot,121.1253512397542,
,,,,,,,,,,,,,,,,,,,,,,,,,,,,,,,,,,,,,,,,,,93.45291420002468,93.4599232999608,93.4599232999608,95.4533897000365,space,51.96939649991691,,,,,,,,,,,,,,,,,,,,sub-017,1.0,random_dot,121.1253512397542,
,,,,,,,,,,,,,,,,,,,,,,,,,,,,,,,,,,,,,,,,,,,,,,,,,95.45343260001393,95.45979100000112,95.45979100000112,96.24493800010532,space,50.76431709970348,,,,,,,,,,,,,sub-017,1.0,random_dot,121.1253512397542,
right,right,speed,,,,,0.0,0.0,0.0,1.0,0.0,0.0,0.0,1.0,98.48248949996196,,,,,,,,,98.47944359993562,99.6680658000987,100.46859479998238,100.4612380999606,100.46128239994869,100.46859479998238,100.46859479998238,100.46859479998238,102.19538379996084,right,1.0,51.70272229984403,,,,,,,,,,,,,,,,,,,,,96.25122460001148,96.27315200003795,96.27315200003795,98.46923910011536,space,52.17480030003935,,,,,,sub-017,1.0,random_dot,121.1253512397542,
left,left,speed,,,,,0.0,0.0,0.0,1.0,0.0,1.0,1.0,0.0,102.20150219998322,,,,,,,,,102.1972706001252,103.40140450000764,104.20181420003064,104.1946111000143,104.19464490003884,104.20181420003064,104.20181420003064,104.20181420003064,106.70364570012316,left,1.0,52.4816439000424,,,,,,,,,,,,,,,,,,,,,,,,,,,,,,,,sub-017,1.0,random_dot,121.1253512397542,
right,right,speed,,,,,0.0,0.0,0.0,1.0,1.0,0.0,2.0,1.0,106.70972290006466,,,,,,,,,106.7048343999777,107.05998280015774,107.8617549999617,107.85322839999571,107.8532684999518,107.8617549999617,107.8617549999617,107.8617549999617,109.42024480015972,right,1.0,51.53774299984798,,,,,,,,,,,,,,,,,,,,,,,,,,,,,,,,sub-017,1.0,random_dot,121.1253512397542,
left,left,speed,,,,,0.0,0.0,0.0,1.0,1.0,1.0,3.0,0.0,109.42632940015756,,,,,,,,,109.42143959994428,109.51821990008466,110.31875620014034,110.3109069999773,110.31093650008552,110.31875620014034,110.31875620014034,110.31875620014034,113.03744530002588,left,1.0,52.69459329987876,,,,,,,,,,,,,,,,,,,,,,,,,,,,,,,,sub-017,1.0,random_dot,121.1253512397542,
right,right,speed,,,,,0.0,0.0,0.0,1.0,2.0,0.0,4.0,1.0,113.0431007000152,,,,,,,,,113.03882839996368,114.243063100148,115.04341599997132,115.03588630002923,115.03591840015724,115.04341599997132,115.04341599997132,115.04341599997132,117.48689309996551,left,0.0,52.4221879998222,,,,,,,,,,,,,,,,,,,,,,,,,,,,,,,,sub-017,1.0,random_dot,121.1253512397542,
left,left,speed,,,,,0.0,0.0,0.0,1.0,2.0,1.0,5.0,0.0,117.4930535000749,,,,,,,,,117.4880958001595,118.69308520015328,119.49349600006826,119.4860614000354,119.48609909997322,119.49349600006826,119.49349600006826,119.49349600006826,122.15282770013437,right,0.0,52.63638709997758,,,,,,,,,,,,,,,,,,,,,,,,,,,,,,,,sub-017,1.0,random_dot,121.1253512397542,
left,left,speed,,,,,0.0,0.0,0.0,1.0,3.0,0.0,6.0,0.0,122.15972719993442,,,,,,,,,122.15389990014955,122.50160209997556,123.30192769994028,123.29416260006838,123.29420340014622,123.30192769994028,123.30192769994028,123.30192769994028,124.32020359998567,left,1.0,50.99777069990523,,,,,,,,,,,,,,,,,,,,,,,,,,,,,,,,sub-017,1.0,random_dot,121.1253512397542,
right,right,speed,,,,,0.0,0.0,0.0,1.0,3.0,1.0,7.0,1.0,124.32624790002592,,,,,,,,,124.3213601000607,124.66808159998618,125.46860469994137,125.46078830002809,125.46082000015303,125.46860469994137,125.46860469994137,125.46860469994137,129.51257680007257,right,1.0,54.0209077000618,,,,,,,,,,,,,,,,,,,,,,,,,,,,,,,,sub-017,1.0,random_dot,121.1253512397542,
left,left,speed,,,,,0.0,0.0,0.0,1.0,4.0,0.0,8.0,0.0,129.51783800008707,,,,,,,,,129.51388010010123,129.6180694999639,130.4186607999727,130.41111889993772,130.4111494999379,130.4186607999727,130.4186607999727,130.4186607999727,132.95366430003196,left,1.0,52.51383079984225,,,,,,,,,,,,,,,,,,,,,,,,,,,,,,,,sub-017,1.0,random_dot,121.1253512397542,
right,right,speed,,,,,0.0,0.0,0.0,1.0,4.0,1.0,9.0,1.0,132.95965049997903,,,,,,,,,132.95480379997753,133.30956920003518,134.11065410007723,134.10283660003915,134.10287800012156,134.11065410007723,134.11065410007723,134.11065410007723,136.0124052001629,right,1.0,51.880850799847394,,,,,,,,,,,,,,,,,,,,,,,,,,,,,,,,sub-017,1.0,random_dot,121.1253512397542,
left,left,speed,,,,,0.0,0.0,0.0,1.0,5.0,0.0,10.0,0.0,136.01781500014476,,,,,,,,,136.01410669996403,136.11818059999496,136.91848300001584,136.91141250007786,136.9114459999837,136.91848300001584,136.91848300001584,136.91848300001584,139.72812450001948,left,1.0,52.78760079992935,,,,,,,,,,,,,,,,,,,,,,,,,,,,,,,,sub-017,1.0,random_dot,121.1253512397542,
right,right,speed,,,,,0.0,0.0,0.0,1.0,5.0,1.0,11.0,1.0,139.73440910014324,,,,,,,,,139.72940650000237,140.07607790012844,140.87663209997118,140.8694796001073,140.86951870005578,140.87663209997118,140.87663209997118,140.87663209997118,142.7704909001477,left,0.0,51.86678759986535,,,,,,,,,,,,,,,,,,,,,,,,,,,,,,,,sub-017,1.0,random_dot,121.1253512397542,
right,right,speed,,,,,0.0,0.0,0.0,1.0,6.0,0.0,12.0,1.0,142.77620780002326,,,,,,,,,142.77173130004667,143.97637970000503,144.77708140015602,144.76923360000364,144.76926339999773,144.77708140015602,144.77708140015602,144.77708140015602,146.65333360014483,left,0.0,51.85349989985116,,,,,,,,,,,,,,,,,,,,,,,,,,,,,,,,sub-017,1.0,random_dot,121.1253512397542,
left,left,speed,,,,,0.0,0.0,0.0,1.0,6.0,1.0,13.0,0.0,146.65946540003642,,,,,,,,,146.65485069993883,146.75134290009737,147.5520017000381,147.54393830010667,147.5439874001313,147.5520017000381,147.5520017000381,147.5520017000381,150.1948538001161,left,1.0,52.61645619990304,,,,,,,,,,,,,,,,,,,,,,,,,,,,,,,,sub-017,1.0,random_dot,121.1253512397542,
left,left,speed,,,,,0.0,0.0,0.0,1.0,7.0,0.0,14.0,0.0,150.20108230016194,,,,,,,,,150.19598560011946,150.54312860011123,151.3436142001301,151.33560899994336,151.3356427999679,151.3436142001301,151.3436142001301,151.3436142001301,156.2872808999382,left,1.0,54.92243000003509,,,,,,,,,,,,,,,,,,,,,,,,,,,,,,,,sub-017,1.0,random_dot,121.1253512397542,
right,right,speed,,,,,0.0,0.0,0.0,1.0,7.0,1.0,15.0,1.0,156.292559399968,,,,,,,,,156.28918610000983,157.49314279993996,158.2936464000959,158.2860970001202,158.28613230003975,158.2936464000959,158.2936464000959,158.2936464000959,162.4119808000978,right,1.0,54.095482599921525,,,,,,,,,,,,,,,,,,,,,,,,,,,,,,,,sub-017,1.0,random_dot,121.1253512397542,
right,right,speed,,,,,0.0,0.0,0.0,1.0,8.0,0.0,16.0,1.0,162.41762860002927,,,,,,,,,162.4133158000186,163.21796130016446,164.01837770012207,164.01057859999128,164.01060890010558,164.01837770012207,164.01837770012207,164.01837770012207,164.35330610000528,left,0.0,50.31399070005864,,,,,,,,,,,,,,,,,,,,,,,,,,,,,,,,sub-017,1.0,random_dot,121.1253512397542,
left,left,speed,,,,,0.0,0.0,0.0,1.0,8.0,1.0,17.0,0.0,164.3596111999359,,,,,,,,,164.3546794001013,165.15982259996235,165.96002460015006,165.9523149000015,165.95238060015254,165.96002460015006,165.96002460015006,165.96002460015006,167.3448235001415,left,1.0,51.35925029986538,,,,,,,,,,,,,,,,,,,,,,,,,,,,,,,,sub-017,1.0,random_dot,121.1253512397542,
left,left,speed,,,,,0.0,0.0,0.0,1.0,9.0,0.0,18.0,0.0,167.35112920007668,,,,,,,,,167.34628399997018,167.4512042000424,168.2517208000645,168.24408390000465,168.2441140001174,168.2517208000645,168.2517208000645,168.2517208000645,171.3367642001249,left,1.0,53.06237289984711,,,,,,,,,,,,,,,,,,,,,,,,,,,,,,,,sub-017,1.0,random_dot,121.1253512397542,
right,right,speed,,,,,0.0,0.0,0.0,1.0,9.0,1.0,19.0,1.0,171.34274210012518,,,,,,,,,171.33790579997003,171.6845961001236,172.4850356001407,172.47739470005035,172.47743310010992,172.4850356001407,172.4850356001407,172.4850356001407,175.22776819998398,right,1.0,52.71912169991992,,,,,,,,,,,,,,,,,,,,,,,,,,,,,,,,sub-017,1.0,random_dot,121.1253512397542,
right,right,speed,,,,,0.0,0.0,0.0,1.0,10.0,0.0,20.0,1.0,175.23421140015125,,,,,,,,,175.22894700011238,176.02624180004932,176.82635280000977,176.81901390012354,176.8190476000309,176.82635280000977,176.82635280000977,176.82635280000977,178.51947390008718,left,0.0,51.6700881998986,,,,,,,,,,,,,,,,,,,,,,,,,,,,,,,,sub-017,1.0,random_dot,121.1253512397542,
left,left,speed,,,,,0.0,0.0,0.0,1.0,10.0,1.0,21.0,0.0,178.52616330003366,,,,,,,,,178.52060930011794,178.61776820011437,179.4182174000889,179.4105674000457,179.4106167999562,179.4182174000889,179.4182174000889,179.4182174000889,183.0278857999947,left,1.0,53.583470799727365,,,,,,,,,,,,,,,,,,,,,,,,,,,,,,,,sub-017,1.0,random_dot,121.1253512397542,
left,left,speed,,,,,0.0,0.0,0.0,1.0,11.0,0.0,22.0,0.0,183.03439679997973,,,,,,,,,183.0290902000852,183.12630170001648,183.92657930008136,183.9188509001397,183.9188882999588,183.92657930008136,183.92657930008136,183.92657930008136,185.94546800013632,left,1.0,51.99361709970981,,,,,,,,,,,,,,,,,,,,,,,,,,,,,,,,sub-017,1.0,random_dot,121.1253512397542,
right,right,speed,,,,,0.0,0.0,0.0,1.0,11.0,1.0,23.0,1.0,185.95083390013315,,,,,,,,,185.94768130010925,187.1512168000918,187.9516014000401,187.94414320006035,187.94417649996467,187.9516014000401,187.9516014000401,187.9516014000401,189.5777686999645,right,1.0,51.60217770002782,,,,,,,,,,,,,,,,,,,,,,,,,,,,,,,,sub-017,1.0,random_dot,121.1253512397542,
right,right,speed,,,,,0.0,0.0,0.0,1.0,12.0,0.0,24.0,1.0,189.58435160014776,,,,,,,,,189.57896220008843,189.67621590010825,190.47815520013685,190.46878140000624,190.468818299938,190.47815520013685,190.47815520013685,190.47815520013685,193.91941540013067,left,0.0,53.41472769994289,,,,,,,,,,,,,,,,,,,,,,,,,,,,,,,,sub-017,1.0,random_dot,121.1253512397542,
left,left,speed,,,,,0.0,0.0,0.0,1.0,12.0,1.0,25.0,0.0,193.92590120015663,,,,,,,,,193.9204409001395,195.11779249995016,195.918314000126,195.910667499993,195.91069729998708,195.918314000126,195.918314000126,195.918314000126,197.11162430001423,left,1.0,51.1721437999513,,,,,,,,,,,,,,,,,,,,,,,,,,,,,,,,sub-017,1.0,random_dot,121.1253512397542,
left,left,speed,,,,,0.0,0.0,0.0,1.0,13.0,0.0,26.0,0.0,197.11768130003475,,,,,,,,,197.1128392000683,197.4594227001071,198.2606520000845,198.2524963000324,198.2527956000995,198.2606520000845,198.2606520000845,198.2606520000845,199.5698898001574,right,0.0,51.289427699986845,,,,,,,,,,,,,,,,,,,,,,,,,,,,,,,,sub-017,1.0,random_dot,121.1253512397542,
right,right,speed,,,,,0.0,0.0,0.0,1.0,13.0,1.0,27.0,1.0,199.57604319998063,,,,,,,,,199.57101920014247,199.66797820013016,200.46810690010895,200.46075810003092,200.46079279994592,200.46810690010895,200.46810690010895,200.46810690010895,202.4693334000185,right,1.0,51.97722649993375,,,,,,,,,,,,,,,,,,,,,,,,,,,,,,,,sub-017,1.0,random_dot,121.1253512397542,
left,left,speed,,,,,0.0,0.0,0.0,1.0,14.0,0.0,28.0,0.0,202.47606080002151,,,,,,,,,202.47051050001755,203.26771269994788,204.06812459998764,204.06029519997537,204.0603205000516,204.06812459998764,204.06812459998764,204.06812459998764,206.51962790009568,left,1.0,52.42499029985629,,,,,,,,,,,,,,,,,,,,,,,,,,,,,,,,sub-017,1.0,random_dot,121.1253512397542,
right,right,speed,,,,,0.0,0.0,0.0,1.0,14.0,1.0,29.0,1.0,206.52599130012092,,,,,,,,,206.52141649997796,206.62598920008168,207.42654210003093,207.4189617999364,207.41900660004467,207.42654210003093,207.42654210003093,207.42654210003093,209.43688510009088,right,1.0,51.988161499844864,,,,,,,,,,,,,,,,,,,,,,,,,,,,,,,,sub-017,1.0,random_dot,121.1253512397542,
left,left,speed,,,,,0.0,0.0,0.0,1.0,15.0,0.0,30.0,0.0,209.4425801001489,,,,,,,,,209.43812890001573,210.2427753999364,211.04372810013592,211.03540679998696,211.03544330014847,211.04372810013592,211.04372810013592,211.04372810013592,212.86931360000744,left,1.0,51.799400099786,,,,,,,,,,,,,,,,,,,,,,,,,,,,,,,,sub-017,1.0,random_dot,121.1253512397542,
right,right,speed,,,,,0.0,0.0,0.0,1.0,15.0,1.0,31.0,1.0,212.8759533001576,,,,,,,,,212.87051880010404,213.6677469001152,214.46818510000597,214.4607458000537,214.4607766000554,214.46818510000597,214.46818510000597,214.46818510000597,216.36984240007587,right,1.0,51.878886699676514,,,,,,,,,,,,,,,,,,,,,,,,,,,,,,,,sub-017,1.0,random_dot,121.1253512397542,
right,right,speed,,,,,0.0,0.0,0.0,1.0,16.0,0.0,32.0,1.0,216.3760347000789,,,,,,,,,216.37121480004865,217.57581080007367,218.37645670003255,218.36887220013887,218.36890480015427,218.37645670003255,218.37645670003255,218.37645670003255,222.6121837999672,left,0.0,54.21569549990818,,,,,,,,,,,,,,,,,,,,,,,,,,,,,,,,sub-017,1.0,random_dot,121.1253512397542,
left,left,speed,,,,,0.0,0.0,0.0,1.0,16.0,1.0,33.0,0.0,222.61745280004104,,,,,,,,,222.61348520009776,223.81779940007252,224.6181010000873,224.6105172000825,224.6105494000949,224.6181010000873,224.6181010000873,224.6181010000873,227.84472239995372,left,1.0,53.20624089986086,,,,,,,,,,,,,,,,,,,,,,,,,,,,,,,,sub-017,1.0,random_dot,121.1253512397542,
left,left,speed,,,,,0.0,0.0,0.0,1.0,17.0,0.0,34.0,0.0,227.85090270009823,,,,,,,,,227.84602009993975,228.19237500010055,228.9930000000168,228.9856056000572,228.98564940015785,228.9930000000168,228.9930000000168,228.9930000000168,232.11139299999925,right,0.0,53.09535439987667,,,,,,,,,,,,,,,,,,,,,,,,,,,,,,,,sub-017,1.0,random_dot,121.1253512397542,
right,right,speed,,,,,0.0,0.0,0.0,1.0,17.0,1.0,35.0,1.0,232.11766430013813,,,,,,,,,232.11253469996157,233.3177573001012,234.11790900002237,234.1107940000948,234.11082689999603,234.11790900002237,234.11790900002237,234.11790900002237,237.66109469998628,left,0.0,53.52090399991721,,,,,,,,,,,,,,,,,,,,,,,,,,,,,,,,sub-017,1.0,random_dot,121.1253512397542,
left,left,speed,,,,,0.0,0.0,0.0,1.0,18.0,0.0,36.0,0.0,237.6676962999627,,,,,,,,,237.66226950008425,238.8593343000393,239.65969370002855,239.6523293999489,239.65237010014243,239.65969370002855,239.65969370002855,239.65969370002855,242.04421780002303,left,1.0,52.36002339981496,,,,,,,,,,,,,,,,,,,,,,,,,,,,,,,,sub-017,1.0,random_dot,121.1253512397542,
right,right,speed,,,,,0.0,0.0,0.0,1.0,18.0,1.0,37.0,1.0,242.05074650002643,,,,,,,,,242.045305200154,242.3926510999445,243.1929681000765,243.1852486000862,243.1852798000909,243.1929681000765,243.1929681000765,243.1929681000765,247.7613880999852,right,1.0,54.54318169993349,,,,,,,,,,,,,,,,,,,,,,,,,,,,,,,,sub-017,1.0,random_dot,121.1253512397542,
right,right,speed,,,,,0.0,0.0,0.0,1.0,19.0,0.0,38.0,1.0,247.76750500011255,,,,,,,,,247.7632442000322,248.9675889001228,249.76782559999265,249.76004069997,249.7600708000828,249.76782559999265,249.76782559999265,249.76782559999265,253.42828150000423,right,1.0,53.63879919983447,,,,,,,,,,,,,,,,,,,,,,,,,,,,,,,,sub-017,1.0,random_dot,121.1253512397542,
left,left,speed,,,,,0.0,0.0,0.0,1.0,19.0,1.0,39.0,0.0,253.43403220013715,,,,,,,,,253.42972320015545,253.784416800132,254.58584289997816,254.5787126000505,254.57876090006903,254.58584289997816,254.58584289997816,254.58584289997816,258.3192658999469,left,1.0,53.71113529987633,,,,,,,,,,,,,,,,,,,,,,,,,,,,,,,,sub-017,1.0,random_dot,121.1253512397542,
left,left,speed,,,,,0.0,0.0,0.0,1.0,20.0,0.0,40.0,0.0,258.3258247000631,,,,,,,,,258.32050150004216,259.11762100015767,259.91823570011184,259.91055670008063,259.9106042999774,259.91823570011184,259.91823570011184,259.91823570011184,262.6541776000522,left,1.0,52.71531159989536,,,,,,,,,,,,,,,,,,,,,,,,,,,,,,,,sub-017,1.0,random_dot,121.1253512397542,
right,right,speed,,,,,0.0,0.0,0.0,1.0,20.0,1.0,41.0,1.0,262.6589304001536,,,,,,,,,262.6556468999479,263.8592288000509,264.65973880002275,264.65175790013745,264.6518017000053,264.65973880002275,264.65973880002275,264.65973880002275,266.7026524001267,right,1.0,52.02218879992142,,,,,,,,,,,,,,,,,,,,,,,,,,,,,,,,sub-017,1.0,random_dot,121.1253512397542,
left,left,speed,,,,,0.0,0.0,0.0,1.0,21.0,0.0,42.0,0.0,266.7091229001526,,,,,,,,,266.7038736999966,267.0510446999688,267.8511580999475,267.8439468999859,267.84397909999825,267.8511580999475,267.8511580999475,267.8511580999475,268.9194098999724,left,1.0,51.04300659988076,,,,,,,,,,,,,,,,,,,,,,,,,,,,,,,,sub-017,1.0,random_dot,121.1253512397542,
right,right,speed,,,,,0.0,0.0,0.0,1.0,21.0,1.0,43.0,1.0,268.92572499997914,,,,,,,,,268.9208297999576,270.1259988001548,270.92643680004403,270.9184759000782,270.91851660003886,270.92643680004403,270.92643680004403,270.92643680004403,275.1277362999972,right,1.0,54.17603359976784,,,,,,,,,,,,,,,,,,,,,,,,,,,,,,,,sub-017,1.0,random_dot,121.1253512397542,
right,right,speed,,,,,0.0,0.0,0.0,1.0,22.0,0.0,44.0,1.0,275.133887300035,,,,,,,,,275.1288785999641,275.2259653999936,276.0261731001083,276.01872930000536,276.01876140013337,276.0261731001083,276.0261731001083,276.0261731001083,280.96967449993826,left,0.0,54.92415789980441,,,,,,,,,,,,,,,,,,,,,,,,,,,,,,,,sub-017,1.0,random_dot,121.1253512397542,
left,left,speed,,,,,0.0,0.0,0.0,1.0,22.0,1.0,45.0,0.0,280.975750700105,,,,,,,,,280.97097750008106,281.32576919998974,282.12636910006404,282.1184710001108,282.118498200085,282.12636910006404,282.12636910006404,282.12636910006404,285.73735049995594,left,1.0,53.58665259974077,0.0009610999841243,,,,,,,,,,,,,,,,,,,,,,,,,,,,,,,sub-017,1.0,random_dot,121.1253512397542,
right,right,speed,,,,,0.0,0.0,0.0,1.0,23.0,0.0,46.0,1.0,285.7423736001365,,,,,,,,,285.7392564001493,286.09220740012825,286.8928060999606,286.8853802999947,286.8854130001273,286.8928060999606,286.8928060999606,286.8928060999606,290.2021958001424,right,1.0,53.28703569993377,,,,,,,,,,,,,,,,,,,,,,,,,,,,,,,,sub-017,1.0,random_dot,121.1253512397542,
left,left,speed,,,,,0.0,0.0,0.0,1.0,23.0,1.0,47.0,0.0,290.2088931000326,,,,,,,,,290.20335360011086,291.0008773000445,291.8011102001183,291.793672000058,291.7937082999852,291.8011102001183,291.8011102001183,291.8011102001183,294.7534453000408,left,1.0,52.930958999786526,,,,,,,,,,,,,,,,,,,,,,,,,,,,,,,,sub-017,1.0,random_dot,121.1253512397542,
left,left,speed,,,,,0.0,0.0,0.0,1.0,24.0,0.0,48.0,0.0,294.7588562001474,,,,,,,,,294.7553318999708,294.8591976000462,295.6598629001528,295.65224170009606,295.65228280005977,295.6598629001528,295.6598629001528,295.6598629001528,298.5271272000391,right,0.0,52.84101359988563,,,,,,,,,,,,,,,,,,,,,,,,,,,,,,,,sub-017,1.0,random_dot,121.1253512397542,
right,right,speed,,,,,0.0,0.0,0.0,1.0,24.0,1.0,49.0,1.0,298.5339866001159,,,,,,,,,298.5283518000506,299.72575880005024,300.5262072000187,300.518065799959,300.5180975999683,300.5262072000187,300.5262072000187,300.5262072000187,301.66976470011286,left,0.0,51.11947949999012,,,,,,,,,,,,,,,,,,,,,,,,,,,,,,,,sub-017,1.0,random_dot,121.1253512397542,
right,right,speed,,,,,0.0,0.0,0.0,1.0,25.0,0.0,50.0,1.0,301.6753961001523,,,,,,,,,301.6711069000885,302.0257735000923,302.82611230015755,302.81834350014105,302.818379299948,302.82611230015755,302.82611230015755,302.82611230015755,304.5278322000522,right,1.0,51.67986759985797,,,,,,,,,,,,,,,,,,,,,,,,,,,,,,,,sub-017,1.0,random_dot,121.1253512397542,
left,left,speed,,,,,0.0,0.0,0.0,1.0,25.0,1.0,51.0,0.0,304.5339926001616,,,,,,,,,304.52889680000953,304.6256926001515,305.42601809999906,305.4186223000288,305.4186569999438,305.42601809999906,305.42601809999906,305.42601809999906,309.37827900005504,right,0.0,53.93225389998406,,,,,,,,,,,,,,,,,,,,,,,,,,,,,,,,sub-017,1.0,random_dot,121.1253512397542,
left,left,speed,,,,,0.0,0.0,0.0,1.0,26.0,0.0,52.0,0.0,309.38376120012254,,,,,,,,,309.3795417000074,310.5839305999689,311.3845526999794,311.3767534000799,311.37678020005114,311.3845526999794,311.3845526999794,311.3845526999794,313.00280810007825,left,1.0,51.59210449992679,,,,,,,,,,,,,,,,,,,,,,,,,,,,,,,,sub-017,1.0,random_dot,121.1253512397542,
right,right,speed,,,,,0.0,0.0,0.0,1.0,26.0,1.0,53.0,1.0,313.0089559000917,,,,,,,,,313.0040740999393,313.8005580001045,314.601239599986,314.5934131999966,314.5934435999952,314.601239599986,314.601239599986,314.601239599986,317.1775255999528,right,1.0,52.55028969980776,,,,,,,,,,,,,,,,,,,,,,,,,,,,,,,,sub-017,1.0,random_dot,121.1253512397542,
right,right,speed,,,,,0.0,0.0,0.0,1.0,27.0,0.0,54.0,1.0,317.183984400006,,,,,,,,,317.1787197000813,318.37588470010087,319.1763182000723,319.1683384999633,319.16836760006845,319.1763182000723,319.1763182000723,319.1763182000723,321.8868263999466,left,0.0,52.690476399846375,,,,,,,,,,,,,,,,,,,,,,,,,,,,,,,,sub-017,1.0,random_dot,121.1253512397542,
left,left,speed,,,,,0.0,0.0,0.0,1.0,27.0,1.0,55.0,0.0,321.892137600109,,,,,,,,,321.8881600999739,322.242366499966,323.0426962999627,323.035329699982,323.0353690001648,323.0426962999627,323.0426962999627,323.0426962999627,323.8698198001366,right,0.0,50.80603799992241,,,,,,,,,,,,,,,,,,,,,,,,,,,,,,,,sub-017,1.0,random_dot,121.1253512397542,
right,right,speed,,,,,0.0,0.0,0.0,1.0,28.0,0.0,56.0,1.0,323.87562129995786,,,,,,,,,323.87140429997817,324.22538339998573,325.0263887001201,325.018676500069,325.01871460000984,325.0263887001201,325.0263887001201,325.0263887001201,326.4523283999879,right,1.0,51.40097779990174,,,,,,,,,,,,,,,,,,,,,,,,,,,,,,,,sub-017,1.0,random_dot,121.1253512397542,
left,left,speed,,,,,0.0,0.0,0.0,1.0,28.0,1.0,57.0,0.0,326.4587179000955,,,,,,,,,326.45347649999894,327.2505402001552,328.05128880008124,328.0436482001096,328.0436933999881,328.05128880008124,328.05128880008124,328.05128880008124,331.5354017999489,right,0.0,53.45887859980576,,,,,,,,,,,,,,,,,,,,,,,,,,,,,,,,sub-017,1.0,random_dot,121.1253512397542,
left,left,speed,,,,,0.0,0.0,0.0,1.0,29.0,0.0,58.0,0.0,331.5423551001586,,,,,,,,,331.5365578001365,332.3339376000222,333.1343068999704,333.12684880010784,333.1268820001278,333.1343068999704,333.1343068999704,333.1343068999704,334.45274020009674,left,1.0,51.29244849993847,,,,,,,,,,,,,,,,,,,,,,,,,,,,,,,,sub-017,1.0,random_dot,121.1253512397542,
right,right,speed,,,,,0.0,0.0,0.0,1.0,29.0,1.0,59.0,1.0,334.458823800087,,,,,,,,,334.4544335999526,335.6588642001152,336.4593589000869,336.45165790012106,336.4516980000772,336.4593589000869,336.4593589000869,336.4593589000869,338.10209639999084,right,1.0,51.61616089986637,,,,,,,,,,,,,,,,,,,,,,,,,,,,,,,,sub-017,1.0,random_dot,121.1253512397542,
,,speed,,,,,0.0,0.0,0.0,1.0,,,,,,,,,,,,,,,,,,,,,,,,,,,,,,,,,,,,,,,,,,,,,,,,,,,,,,,,,sub-017,1.0,random_dot,121.1253512397542,
left,left,accuracy,,,,,0.0,1.0,1.0,0.0,0.0,0.0,0.0,0.0,347.84984030015767,,,,,,,,,347.8464707999956,348.18393340008333,348.98541270010173,348.9774808001239,348.977559100138,348.98541270010173,348.98541270010173,348.98541270010173,350.44411569996737,right,0.0,51.43207319988869,,,,,,,,,,,,,,,,,,,,,338.10314709995873,338.11756299994886,338.11756299994886,347.828779600095,space,59.68528879969381,0.0015215000603348,,,,,sub-017,1.0,random_dot,121.1253512397542,
right,right,accuracy,,,,,0.0,1.0,1.0,0.0,0.0,1.0,1.0,1.0,350.4503854000941,,,,,,,,,350.4457728001289,351.2507158999797,352.0517287999392,352.0441745000426,352.04421210009605,352.0517287999392,352.0517287999392,352.0517287999392,357.58655879995786,right,1.0,55.50911209988408,0.0016228000167757,,,,,357.04262250009924,,,,,,,,,,,,,,,,,,,,,,,,,,sub-017,1.0,random_dot,121.1253512397542,
left,left,accuracy,,,,,0.0,1.0,1.0,0.0,1.0,0.0,2.0,0.0,357.59236290003173,,,,,,,,,357.5883200999815,357.6921890999656,358.4925943000708,358.48506650002673,358.48509780014865,358.4925943000708,358.4925943000708,358.4925943000708,360.91326320008375,left,1.0,52.39686229988001,,,,,,,,,,,,,,,,,,,,,,,,,,,,,,,,sub-017,1.0,random_dot,121.1253512397542,
right,right,accuracy,,,,,0.0,1.0,1.0,0.0,1.0,1.0,3.0,1.0,360.9188586999662,,,,,,,,,360.91494049993344,361.0174986000639,361.8173539999407,361.8093709000386,361.8094081999734,361.8173539999407,361.8173539999407,361.8173539999407,365.52006869995967,right,1.0,53.67907639988698,,,,,,,,,,,,,,,,,,,,,,,,,,,,,,,,sub-017,1.0,random_dot,121.1253512397542,
left,left,accuracy,,,,,0.0,1.0,1.0,0.0,2.0,0.0,4.0,0.0,365.525443200022,,,,,,,,,365.52180150011554,365.6252522999421,366.4259033999406,366.4183062000666,366.41834329999983,366.4259033999406,366.4259033999406,366.4259033999406,371.9702220000327,right,0.0,55.52466299990192,,,,,,371.4173193001188,,,,,,,,,,,,,,,,,,,,,,,,,,sub-017,1.0,random_dot,121.1253512397542,
right,right,accuracy,,,,,0.0,1.0,1.0,0.0,2.0,1.0,5.0,1.0,371.9752066000365,,,,,,,,,371.9718528999947,372.7753942999989,373.57738490006886,373.5689644000959,373.5690155001357,373.57738490006886,373.57738490006886,373.57738490006886,376.3813166001346,left,0.0,52.77566689974629,,,,,,,,,,,,,,,,,,,,,,,,,,,,,,,,sub-017,1.0,random_dot,121.1253512397542,
left,left,accuracy,,,,,0.0,1.0,1.0,0.0,3.0,0.0,6.0,0.0,376.3880465000402,,,,,,,,,376.3835293999873,376.7335143999662,377.5341614999343,377.5266287999693,377.526721799979,377.5341614999343,377.5341614999343,377.5341614999343,379.1305042000022,right,0.0,51.56887329998426,,,,,,,,,,,,,,,,,,,,,,,,,,,,,,,,sub-017,1.0,random_dot,121.1253512397542,
right,right,accuracy,,,,,0.0,1.0,1.0,0.0,3.0,1.0,7.0,1.0,379.1372159000021,,,,,,,,,379.13243440003134,380.3336710000876,381.13579010008834,381.1273723000195,381.1274632001296,381.13579010008834,381.13579010008834,381.13579010008834,386.76897850004025,right,1.0,55.606399999931455,,,,,,386.1258613001555,,,,,,,,,,,,,,,,,,,,,,,,,,sub-017,1.0,random_dot,121.1253512397542,
left,left,accuracy,,,,,0.0,1.0,1.0,0.0,4.0,0.0,8.0,0.0,386.7753153000958,,,,,,,,,386.77039450011216,387.5669659001287,388.3672366000246,388.35971119999886,388.359744500136,388.3672366000246,388.3672366000246,388.3672366000246,393.2604076999705,left,1.0,54.86752539966256,,,,,,,,,,,,,,,,,,,,,,,,,,,,,,,,sub-017,1.0,random_dot,121.1253512397542,
right,right,accuracy,,,,,0.0,1.0,1.0,0.0,4.0,1.0,9.0,1.0,393.2667646999471,,,,,,,,,393.2618148999754,393.35859790002,394.1595479999669,394.1519341999665,394.1519735001493,394.1595479999669,394.1595479999669,394.1595479999669,396.41067899996415,right,1.0,52.230029799742624,,,,,,,,,,,,,,,,,,,,,,,,,,,,,,,,sub-017,1.0,random_dot,121.1253512397542,
left,left,accuracy,,,,,0.0,1.0,1.0,0.0,5.0,0.0,10.0,0.0,396.4166562999599,,,,,,,,,396.4131521000527,396.7665461001452,397.5673303999938,397.5598671000917,397.5599120000843,397.5673303999938,397.5673303999938,397.5673303999938,402.2519332999364,left,1.0,54.660131599986926,,,,,,,,,,,,,,,,,,,,,,,,,,,,,,,,sub-017,1.0,random_dot,121.1253512397542,
right,right,accuracy,,,,,0.0,1.0,1.0,0.0,5.0,1.0,11.0,1.0,402.2583256000653,,,,,,,,,402.2546061000321,402.6086373000872,403.4090402000584,403.4010721000377,403.40110670006834,403.4090402000584,403.4090402000584,403.4090402000584,405.9519349001348,left,0.0,52.51659010001458,,,,,,,,,,,,,,,,,,,,,,,,,,,,,,,,sub-017,1.0,random_dot,121.1253512397542,
right,right,accuracy,,,,,0.0,1.0,1.0,0.0,6.0,0.0,12.0,1.0,405.9584802000318,,,,,,,,,405.9540564001072,407.1586047001183,407.9593138000928,407.9513741000556,407.95140230003744,407.9593138000928,407.9593138000928,407.9593138000928,413.4522996000014,left,0.0,55.4711400999222,,,,,,412.9505682999734,,,,,,,,,,,,,,,,,,,,,,,,,,sub-017,1.0,random_dot,121.1253512397542,
left,left,accuracy,,,,,0.0,1.0,1.0,0.0,6.0,1.0,13.0,0.0,413.45833329996094,,,,,,,,,413.4539191999938,413.5586639000103,414.3591931001283,414.3515490000136,414.35158290015534,414.3591931001283,414.3591931001283,414.3591931001283,416.4935926001053,right,0.0,52.10849619982764,,,,,,,,,,,,,,,,,,,,,,,,,,,,,,,,sub-017,1.0,random_dot,121.1253512397542,
right,right,accuracy,,,,,0.0,1.0,1.0,0.0,7.0,0.0,14.0,1.0,416.49995800014585,,,,,,,,,416.4947015000507,416.5918707000092,417.3920337001328,417.38420030009,417.3842333999928,417.3920337001328,417.3920337001328,417.3920337001328,420.3520480999723,right,1.0,52.93404669989832,,,,,,,,,,,,,,,,,,,,,,,,,,,,,,,,sub-017,1.0,random_dot,121.1253512397542,
left,left,accuracy,,,,,0.0,1.0,1.0,0.0,7.0,1.0,15.0,0.0,420.3584235999733,,,,,,,,,420.3533397000283,420.7000438000541,421.50046120001934,421.49306370015256,421.49310660013,421.50046120001934,421.50046120001934,421.50046120001934,423.7269208000507,right,0.0,52.20274469978176,,,,,,,,,,,,,,,,,,,,,,,,,,,,,,,,sub-017,1.0,random_dot,121.1253512397542,
right,right,accuracy,,,,,0.0,1.0,1.0,0.0,8.0,0.0,16.0,1.0,423.7334543000906,,,,,,,,,423.7281031999737,423.8255048999563,424.6255304000806,424.61812660004944,424.6181604999583,424.6255304000806,424.6255304000806,424.6255304000806,427.5933946999721,right,1.0,52.9422229998745,,,,,,,,,,,,,,,,,,,,,,,,,,,,,,,,sub-017,1.0,random_dot,121.1253512397542,
left,left,accuracy,,,,,0.0,1.0,1.0,0.0,8.0,1.0,17.0,0.0,427.5998166000936,,,,,,,,,427.59449529997073,427.9419186001178,428.7420508000069,428.7345175000373,428.73455010005273,428.7420508000069,428.7420508000069,428.7420508000069,432.2350312001072,left,1.0,53.46986690000631,,,,,,,,,,,,,,,,,,,,,,,,,,,,,,,,sub-017,1.0,random_dot,121.1253512397542,
left,left,accuracy,,,,,0.0,1.0,1.0,0.0,9.0,0.0,18.0,0.0,432.24165750015527,,,,,,,,,432.2361924999859,433.0335260001011,433.833869199967,433.82600850006565,433.8260578000918,433.833869199967,433.833869199967,433.833869199967,436.6940403999761,left,1.0,52.84035660000518,,,,,,,,,,,,,,,,,,,,,,,,,,,,,,,,sub-017,1.0,random_dot,121.1253512397542,
right,right,accuracy,,,,,0.0,1.0,1.0,0.0,9.0,1.0,19.0,1.0,436.6999880999792,,,,,,,,,436.6953619001433,437.5001999000088,438.3004519001115,438.29264470003545,438.2926764001604,438.3004519001115,438.3004519001115,438.3004519001115,441.75986540014856,right,1.0,53.43342179968022,,,,,,,,,,,,,,,,,,,,,,,,,,,,,,,,sub-017,1.0,random_dot,121.1253512397542,
right,right,accuracy,,,,,0.0,1.0,1.0,0.0,10.0,0.0,20.0,1.0,441.7666736000683,,,,,,,,,441.7609463999979,442.10851980000734,442.90869670012034,442.9006966999732,442.9007317000069,442.90869670012034,442.90869670012034,442.90869670012034,445.61007039994,left,0.0,52.67574189999141,,,,,,,,,,,,,,,,,,,,,,,,,,,,,,,,sub-017,1.0,random_dot,121.1253512397542,
left,left,accuracy,,,,,0.0,1.0,1.0,0.0,10.0,1.0,21.0,0.0,445.6167576001026,,,,,,,,,445.6113373001572,446.8085136001464,447.6089445999824,447.6012167001609,447.6012446000241,447.6089445999824,447.6089445999824,447.6089445999824,451.0686781001277,right,0.0,53.439300999976695,,,,,,,,,,,,,,,,,,,,,,,,,,,,,,,,sub-017,1.0,random_dot,121.1253512397542,
left,left,accuracy,,,,,0.0,1.0,1.0,0.0,11.0,0.0,22.0,0.0,451.07487599994056,,,,,,,,,451.0709311000537,452.2750210000668,453.0757943999488,453.0682969000191,453.0683289000299,453.0757943999488,453.0757943999488,453.0757943999488,456.6685296001378,right,0.0,53.568347699940205,,,,,,,,,,,,,,,,,,,,,,,,,,,,,,,,sub-017,1.0,random_dot,121.1253512397542,
right,right,accuracy,,,,,0.0,1.0,1.0,0.0,11.0,1.0,23.0,1.0,456.6749412000645,,,,,,,,,456.67022970016114,457.0251409001648,457.8256690001581,457.81819780007936,457.81823189998977,457.8256690001581,457.8256690001581,457.8256690001581,460.9691844000481,right,1.0,53.12352459994145,,,,,,,,,,,,,,,,,,,,,,,,,,,,,,,,sub-017,1.0,random_dot,121.1253512397542,
left,left,accuracy,,,,,0.0,1.0,1.0,0.0,12.0,0.0,24.0,0.0,460.974795400165,,,,,,,,,460.9703290001489,461.0749264999759,461.875404600054,461.8678022001404,461.8678353000432,461.875404600054,461.875404600054,461.875404600054,465.05182719998993,right,0.0,53.1546084000729,,,,,,,,,,,,,,,,,,,,,,,,,,,,,,,,sub-017,1.0,random_dot,121.1253512397542,
right,right,accuracy,,,,,0.0,1.0,1.0,0.0,12.0,1.0,25.0,1.0,465.058134800056,,,,,,,,,465.0530978001189,466.2500684000552,467.05030410015024,467.0432244001422,467.0432579000481,467.05030410015024,467.05030410015024,467.05030410015024,470.5266666000243,right,1.0,53.453001599991694,,,,,,,,,,,,,,,,,,,,,,,,,,,,,,,,sub-017,1.0,random_dot,121.1253512397542,
left,left,accuracy,,,,,0.0,1.0,1.0,0.0,13.0,0.0,26.0,0.0,470.5333128001075,,,,,,,,,470.5278539999854,470.87491469993256,471.6758203001227,471.6684231001418,471.6684590999503,471.6758203001227,471.6758203001227,471.6758203001227,474.4686455000192,left,1.0,52.7671891998034,,,,,,,,,,,,,,,,,,,,,,,,,,,,,,,,sub-017,1.0,random_dot,121.1253512397542,
right,right,accuracy,,,,,0.0,1.0,1.0,0.0,13.0,1.0,27.0,1.0,474.4748992000241,,,,,,,,,474.4699864999857,474.5749119000975,475.37532230000943,475.36743060010485,475.3674641000107,475.37532230000943,475.37532230000943,475.37532230000943,478.2435823001433,left,0.0,52.8421336999163,,,,,,,,,,,,,,,,,,,,,,,,,,,,,,,,sub-017,1.0,random_dot,121.1253512397542,
right,right,accuracy,,,,,0.0,1.0,1.0,0.0,14.0,0.0,28.0,1.0,478.2499615999404,,,,,,,,,478.2448831000365,479.0501219001599,479.8503978999797,479.8427846000996,479.8428175000008,479.8503978999797,479.8503978999797,479.8503978999797,483.7438433000352,right,1.0,53.8692724998109,,,,,,,,,,,,,,,,,,,,,,,,,,,,,,,,sub-017,1.0,random_dot,121.1253512397542,
left,left,accuracy,,,,,0.0,1.0,1.0,0.0,14.0,1.0,29.0,0.0,483.7504885001108,,,,,,,,,483.7453322999645,484.5498739001341,485.3504037000239,485.3426280000713,485.3426636001095,485.3504037000239,485.3504037000239,485.3504037000239,488.9688139001373,right,0.0,53.59774289978668,,,,,,,,,,,,,,,,,,,,,,,,,,,,,,,,sub-017,1.0,random_dot,121.1253512397542,
left,left,accuracy,,,,,0.0,1.0,1.0,0.0,15.0,0.0,30.0,0.0,488.9747323000338,,,,,,,,,488.9701511999592,490.1749650000129,490.9754292001016,490.96779719996266,490.9678301000968,490.9754292001016,490.9754292001016,490.9754292001016,494.6273674999829,right,0.0,53.628461699932814,,,,,,,,,,,,,,,,,,,,,,,,,,,,,,,,sub-017,1.0,random_dot,121.1253512397542,
right,right,accuracy,,,,,0.0,1.0,1.0,0.0,15.0,1.0,31.0,1.0,494.633328899974,,,,,,,,,494.6286866001319,495.4333244001027,496.2335955000017,496.2261388001498,496.22617510007694,496.2335955000017,496.2335955000017,496.2335955000017,499.2598469001241,left,0.0,52.99989109998569,,,,,,,,,,,,,,,,,,,,,,,,,,,,,,,,sub-017,1.0,random_dot,121.1253512397542,
left,left,accuracy,,,,,0.0,1.0,1.0,0.0,16.0,0.0,32.0,0.0,499.266760500148,,,,,,,,,499.261062100064,500.0581131000072,500.85876670014113,500.8507711000275,500.8508019000292,500.85876670014113,500.85876670014113,500.85876670014113,504.3683909999672,left,1.0,53.487644999986514,,,,,,,,,,,,,,,,,,,,,,,,,,,,,,,,sub-017,1.0,random_dot,121.1253512397542,
right,right,accuracy,,,,,0.0,1.0,1.0,0.0,16.0,1.0,33.0,1.0,504.3747807000764,,,,,,,,,504.369555799989,505.56624990003183,506.36684100003913,506.35967419995,506.35970599995926,506.36684100003913,506.36684100003913,506.36684100003913,508.94358930015005,right,1.0,52.55016350001097,,,,,,,,,,,,,,,,,,,,,,,,,,,,,,,,sub-017,1.0,random_dot,121.1253512397542,
left,left,accuracy,,,,,0.0,1.0,1.0,0.0,17.0,0.0,34.0,0.0,508.9496502999682,,,,,,,,,508.94489499996416,509.0498802000657,509.8503012000583,509.8428013999946,509.8428448000923,509.8503012000583,509.8503012000583,509.8503012000583,512.718483600067,left,1.0,52.84622919978574,,,,,,,,,,,,,,,,,,,,,,,,,,,,,,,,sub-017,1.0,random_dot,121.1253512397542,
right,right,accuracy,,,,,0.0,1.0,1.0,0.0,17.0,1.0,35.0,1.0,512.7247938001528,,,,,,,,,512.7197269001044,513.0748426001519,513.8751968001015,513.8673431000207,513.8673690001015,513.8751968001015,513.8751968001015,513.8751968001015,516.5605387000833,right,1.0,52.66019829967991,,,,,,,,,,,,,,,,,,,,,,,,,,,,,,,,sub-017,1.0,random_dot,121.1253512397542,
right,right,accuracy,,,,,0.0,1.0,1.0,0.0,18.0,0.0,36.0,1.0,516.5663513001055,,,,,,,,,516.5617607999593,517.3664826999884,518.1670342001598,518.1594726000912,518.1595050999895,518.1670342001598,518.1670342001598,518.1670342001598,522.8432404999621,right,1.0,54.65523249981925,,,,,,,,,,,,,,,,,,,,,,,,,,,,,,,,sub-017,1.0,random_dot,121.1253512397542,
left,left,accuracy,,,,,0.0,1.0,1.0,0.0,18.0,1.0,37.0,0.0,522.8494566001464,,,,,,,,,522.8443641001359,522.9415357999969,523.7416255001444,523.7342073000036,523.7342549001332,523.7416255001444,523.7416255001444,523.7416255001444,526.5763465000782,left,1.0,52.81042769993656,,,,,,,,,,,,,,,,,,,,,,,,,,,,,,,,sub-017,1.0,random_dot,121.1253512397542,
left,left,accuracy,,,,,0.0,1.0,1.0,0.0,19.0,0.0,38.0,0.0,526.5829008000437,,,,,,,,,526.5774767000694,527.7748297001235,528.5754236001521,528.5675560999662,528.5675987999421,528.5754236001521,528.5754236001521,528.5754236001521,530.5288860001601,right,0.0,51.93307899986394,,,,,,,,,,,,,,,,,,,,,,,,,,,,,,,,sub-017,1.0,random_dot,121.1253512397542,
right,right,accuracy,,,,,0.0,1.0,1.0,0.0,19.0,1.0,39.0,1.0,530.5330199000891,,,,,,,,,530.530121400021,531.3328191000037,532.1338099001441,532.1259129000828,532.1259423999581,532.1338099001441,532.1338099001441,532.1338099001441,535.0848751999438,left,0.0,52.9257446997799,,,,,,,,,,,,,,,,,,,,,,,,,,,,,,,,sub-017,1.0,random_dot,121.1253512397542,
right,right,accuracy,,,,,0.0,1.0,1.0,0.0,20.0,0.0,40.0,1.0,535.0914680999704,,,,,,,,,535.0859934999608,535.4331475000363,536.2336856001057,536.2260792001616,536.2261141000781,536.2336856001057,536.2336856001057,536.2336856001057,539.717828300083,right,1.0,53.45927969994955,,,,,,,,,,,,,,,,,,,,,,,,,,,,,,,,sub-017,1.0,random_dot,121.1253512397542,
left,left,accuracy,,,,,0.0,1.0,1.0,0.0,20.0,1.0,41.0,0.0,539.7246151000727,,,,,,,,,539.7190497999545,540.5164119000547,541.3165349999908,541.3093137000687,541.3093467999715,541.3165349999908,541.3165349999908,541.3165349999908,543.3599694001023,left,1.0,52.0181689998135,,,,,,,,,,,,,,,,,,,,,,,,,,,,,,,,sub-017,1.0,random_dot,121.1253512397542,
right,right,accuracy,,,,,0.0,1.0,1.0,0.0,21.0,0.0,42.0,1.0,543.3660560999997,,,,,,,,,543.3611835001502,543.4579825999681,544.2584029999562,544.2506116000004,544.2506516999565,544.2584029999562,544.2584029999562,544.2584029999562,548.1691560000181,right,1.0,53.8877274999395,,,,,,,,,,,,,,,,,,,,,,,,,,,,,,,,sub-017,1.0,random_dot,121.1253512397542,
left,left,accuracy,,,,,0.0,1.0,1.0,0.0,21.0,1.0,43.0,0.0,548.1745816001203,,,,,,,,,548.1704796999693,549.3746082000434,550.175332600018,550.1674989000894,550.1675287000835,550.175332600018,550.175332600018,550.175332600018,553.4176221000962,left,1.0,53.2161916999612,,,,,,,,,,,,,,,,,,,,,,,,,,,,,,,,sub-017,1.0,random_dot,121.1253512397542,
right,right,accuracy,,,,,0.0,1.0,1.0,0.0,22.0,0.0,44.0,1.0,553.4247820000164,,,,,,,,,553.418728500139,554.2162612001412,555.0166229000315,555.009235000005,555.009267100133,555.0166229000315,555.0166229000315,555.0166229000315,559.4189184000716,left,0.0,54.38208430004306,,,,,,,,,,,,,,,,,,,,,,,,,,,,,,,,sub-017,1.0,random_dot,121.1253512397542,
left,left,accuracy,,,,,0.0,1.0,1.0,0.0,22.0,1.0,45.0,0.0,559.4244291000068,,,,,,,,,559.4202273001429,559.7746508000419,560.574937999947,560.5672708000056,560.5672999001108,560.574937999947,560.574937999947,560.574937999947,565.4355208999477,right,0.0,54.839423099765554,,,,,,,,,,,,,,,,,,,,,,,,,,,,,,,,sub-017,1.0,random_dot,121.1253512397542,
left,left,accuracy,,,,,0.0,1.0,1.0,0.0,23.0,0.0,46.0,0.0,565.4413423000369,,,,,,,,,565.4367798999883,566.241365800146,567.0416685000528,567.0342031000182,567.0342385000549,567.0416685000528,567.0416685000528,567.0416685000528,571.4346417000052,left,1.0,54.371087699895725,,,,,,,,,,,,,,,,,,,,,,,,,,,,,,,,sub-017,1.0,random_dot,121.1253512397542,
right,right,accuracy,,,,,0.0,1.0,1.0,0.0,23.0,1.0,47.0,1.0,571.4408531000372,,,,,,,,,571.4360358000267,572.2328564999625,573.0333213999402,573.0253558999393,573.0253854000475,573.0333213999402,573.0333213999402,573.0333213999402,577.5602174000815,right,1.0,54.50628439988941,,,,,,,,,,,,,,,,,,,,,,,,,,,,,,,,sub-017,1.0,random_dot,121.1253512397542,
right,right,accuracy,,,,,0.0,1.0,1.0,0.0,24.0,0.0,48.0,1.0,577.5660659000278,,,,,,,,,577.5613496000879,578.3662853001151,579.1669670999981,579.159461800009,579.1595113000367,579.1669670999981,579.1669670999981,579.1669670999981,583.7012608000077,left,0.0,54.51067420002073,,,,,,,,,,,,,,,,,,,,,,,,,,,,,,,,sub-017,1.0,random_dot,121.1253512397542,
left,left,accuracy,,,,,0.0,1.0,1.0,0.0,24.0,1.0,49.0,0.0,583.7077890001237,,,,,,,,,583.7032044001389,584.057816100074,584.8581854000222,584.8507225001231,584.8507485999726,584.8581854000222,584.8581854000222,584.8581854000222,588.8934208999854,right,0.0,54.01142819994129,,,,,,,,,,,,,,,,,,,,,,,,,,,,,,,,sub-017,1.0,random_dot,121.1253512397542,
left,left,accuracy,,,,,0.0,1.0,1.0,0.0,25.0,0.0,50.0,0.0,588.8994603001047,,,,,,,,,588.8946837000549,588.9997394999955,589.8000922999345,589.7922382999677,589.7922658000607,589.8000922999345,589.8000922999345,589.8000922999345,592.0350895000156,left,1.0,52.21488210000098,,,,,,,,,,,,,,,,,,,,,,,,,,,,,,,,sub-017,1.0,random_dot,121.1253512397542,
right,right,accuracy,,,,,0.0,1.0,1.0,0.0,25.0,1.0,51.0,1.0,592.0410679001361,,,,,,,,,592.0363283001352,593.2413496000227,594.041489199968,594.0339194999542,594.0339488000609,594.041489199968,594.041489199968,594.041489199968,598.8350800999906,right,1.0,54.772540000034496,,,,,,,,,,,,,,,,,,,,,,,,,,,,,,,,sub-017,1.0,random_dot,121.1253512397542,
left,left,accuracy,,,,,0.0,1.0,1.0,0.0,26.0,0.0,52.0,0.0,598.8410122999921,,,,,,,,,598.8371152000036,600.0411086999811,600.8414424001239,600.8339188999962,600.8339430000633,600.8414424001239,600.8414424001239,600.8414424001239,602.7510916001629,left,1.0,51.88386459997855,,,,,,,,,,,,,,,,,,,,,,,,,,,,,,,,sub-017,1.0,random_dot,121.1253512397542,
right,right,accuracy,,,,,0.0,1.0,1.0,0.0,26.0,1.0,53.0,1.0,602.7576493001543,,,,,,,,,602.752724400023,602.84936140012,603.6497146999463,603.6422755999956,603.6423098000232,603.6497146999463,603.6497146999463,603.6497146999463,608.9516000000294,right,1.0,55.27548199985176,,,,,,608.6412307999562,,,,,,,,,,,,,,,,,,,,,,,,,,sub-017,1.0,random_dot,121.1253512397542,
left,left,accuracy,,,,,0.0,1.0,1.0,0.0,27.0,0.0,54.0,0.0,608.9578847000375,,,,,,,,,608.9534543000627,609.7577631000895,610.5581778001506,610.5506436999422,610.5506770000793,610.5581778001506,610.5581778001506,610.5581778001506,612.7021224999335,left,1.0,52.12461499986239,,,,,,,,,,,,,,,,,,,,,,,,,,,,,,,,sub-017,1.0,random_dot,121.1253512397542,
right,right,accuracy,,,,,0.0,1.0,1.0,0.0,27.0,1.0,55.0,1.0,612.7076876999345,,,,,,,,,612.703383800108,613.5077565000392,614.3081299001351,614.3003004000057,614.3003221999388,614.3081299001351,614.3081299001351,614.3081299001351,619.7847257000394,right,1.0,55.45038769999519,,,,,,619.2996303001419,,,,,,,,,,,,,,,,,,,,,,,,,,sub-017,1.0,random_dot,121.1253512397542,
right,right,accuracy,,,,,0.0,1.0,1.0,0.0,28.0,0.0,56.0,1.0,619.7908306000754,,,,,,,,,619.7872377000749,619.8911333000287,620.6915768000763,620.6841255000327,620.6841549000237,620.6915768000763,620.6915768000763,620.6915768000763,623.5934512999374,right,1.0,52.87507769977674,,,,,,,,,,,,,,,,,,,,,,,,,,,,,,,,sub-017,1.0,random_dot,121.1253512397542,
left,left,accuracy,,,,,0.0,1.0,1.0,0.0,28.0,1.0,57.0,0.0,623.5991863999516,,,,,,,,,623.594900800148,624.3994947001338,625.1998616000637,625.1923766001128,625.1924072999973,625.1998616000637,625.1998616000637,625.1998616000637,630.7596929001156,right,0.0,55.53553789993748,,,,,,630.1916027001571,,,,,,,,,,,,,,,,,,,,,,,,,,sub-017,1.0,random_dot,121.1253512397542,
left,left,accuracy,,,,,0.0,1.0,1.0,0.0,29.0,0.0,58.0,0.0,630.7660463999491,,,,,,,,,630.7614519000053,631.1159534000326,631.9164245999418,631.9086758000776,631.9087017001584,631.9164245999418,631.9164245999418,631.9164245999418,635.8100074999966,right,0.0,53.86984009970911,,,,,,,,,,,,,,,,,,,,,,,,,,,,,,,,sub-017,1.0,random_dot,121.1253512397542,
right,right,accuracy,,,,,0.0,1.0,1.0,0.0,29.0,1.0,59.0,1.0,635.8158917999826,,,,,,,,,635.8112963000312,636.166194899939,636.9667632000055,636.958825299982,636.9588701000903,636.9667632000055,636.9667632000055,636.9667632000055,639.8938120999373,right,1.0,52.90664579998702,,,,,,,,,,,,,,,,,,,,,,,,,,,,,,,,sub-017,1.0,random_dot,121.1253512397542,
,,accuracy,,,,,0.0,1.0,1.0,0.0,,,,,,,,,,,,,,,,,,,,,,,,,,,,,,,,,,,,,,,,,,,,,,,,,,,,,,,,,sub-017,1.0,random_dot,121.1253512397542,
,,,,,,,,,,,,,,,,,,,,,,,,,,,,,,,,,,,,,,,,,,,,,,,,,,,,,,,,,,,,,,,639.8947527001146,639.8992513001431,644.8991527999751,644.8921201999765,sub-017,,,,
