wordCTK,colorCTK,corrAnsCTK,congruentCTK,thisN,thisTrialN,thisRepN,keyResp_CTK.keys,keyResp_CTK.corr,keyResp_CTK.rt,keyResp_CTK.duration,wordPractice,colorPractice,corrAnsPractice,congruentPractice,respPractice.keys,respPractice.corr,respPractice.rt,respPractice.duration,word,color,corrAns,congruent,keyResp_test_run.keys,keyResp_test_run.corr,keyResp_test_run.rt,keyResp_test_run.duration,trials_CTK.thisRepN,trials_CTK.thisTrialN,trials_CTK.thisN,trials_CTK.thisIndex,trials_practice.thisRepN,trials_practice.thisTrialN,trials_practice.thisN,trials_practice.thisIndex,trials_test.thisRepN,trials_test.thisTrialN,trials_test.thisN,trials_test.thisIndex,thisRow.t,notes,instruction.started,instr_text.started,instr_image.started,instr_resp.started,instruction.stopped,instr_resp.keys,instr_resp.rt,instr_resp.duration,instr_color_to_key.started,instr_ctk.started,resp_ctk.started,instr_color_to_key.stopped,resp_ctk.keys,resp_ctk.rt,resp_ctk.duration,ITI.started,fixcross.started,fixcross.stopped,ITI.stopped,color_to_key_run.started,stimulus_CTK.started,keyResp_CTK.started,color_to_key_run.stopped,trials_CTK.keyResp_CTK.keys,trials_CTK.keyResp_CTK.corr,trials_CTK.keyResp_CTK.rt,trials_CTK.keyResp_CTK.duration,instr_practice.started,instr_practice_text.started,instr_practice_resp.started,instr_practice.stopped,instr_practice_resp.keys,instr_practice_resp.rt,instr_practice_resp.duration,practice_run.started,stimulus_practice.started,respPractice.started,practice_run.stopped,trials_practice.respPractice.keys,trials_practice.respPractice.corr,trials_practice.respPractice.rt,trials_practice.respPractice.duration,feedback.started,textFeedback.started,feedback.stopped,textFeedback.stopped,instr_test.started,instr_test_text.started,instr_test_resp.started,instr_test.stopped,instr_test_resp.keys,instr_test_resp.rt,instr_test_resp.duration,test_run.started,stimulus_test_run.started,keyResp_test_run.started,test_run.stopped,trials_test.keyResp_test_run.keys,trials_test.keyResp_test_run.corr,trials_test.keyResp_test_run.rt,trials_test.keyResp_test_run.duration,goodbye.started,textGoodbye.started,textGoodbye.stopped,goodbye.stopped,participant,session,expName,frameRate,Unnamed: 113
,,,,,,,,,,,,,,,,,,,,,,,,,,,,,,,,,,,,,,,,,0.0089672920003067,0.0165171249973354,0.0165171249973354,0.0165171249973354,43.01749041699805,space,42.96023787499871,,,,,,,,,,,,,,,,,,,,,,,,,,,,,,,,,,,,,,,,,,,,,,,,,,,,,,,,,,,sub-160,1,stroop_test,119.33767494180114,
,,,,,,,,,,,,,,,,,,,,,,,,,,,,,,,,,,,,,,,,,,,,,,,,,43.01758816700021,43.02428033299657,43.02428033299657,50.98940449999645,space,7.959409583003435,,,,,,,,,,,,,,,,,,,,,,,,,,,,,,,,,,,,,,,,,,,,,,,,,,,,sub-160,1,stroop_test,119.33767494180114,
test,yellow,g,1.0,0.0,0.0,0.0,g,1.0,1.704610374996264,,,,,,,,,,,,,,,,,,0.0,0.0,0.0,1.0,,,,,,,,,51.03046558299684,,,,,,,,,,,,,,,,,51.01007845799904,51.34059816700028,52.141085750001366,52.12681462500041,52.13446937499975,52.141085750001366,52.141085750001366,53.85616620800283,g,1.0,1.704610374996264,,,,,,,,,,,,,,,,,,,,,,,,,,,,,,,,,,,,,,,,sub-160,1,stroop_test,119.33767494180114,
test,red,r,1.0,1.0,1.0,0.0,r,1.0,1.327994999999646,,,,,,,,,,,,,,,,,,0.0,1.0,1.0,0.0,,,,,,,,,53.86579966700083,,,,,,,,,,,,,,,,,53.856656457996,53.9538662920022,54.74579429200094,54.7381622920002,54.73881012499624,54.74579429200094,54.74579429200094,56.07811537499947,r,1.0,1.327994999999646,,,,,,,,,,,,,,,,,,,,,,,,,,,,,,,,,,,,,,,,sub-160,1,stroop_test,119.33767494180114,
test,blue,b,1.0,2.0,2.0,0.0,b,1.0,0.4425105839982279,,,,,,,,,,,,,,,,,,0.0,2.0,2.0,2.0,,,,,,,,,56.087209375000384,,,,,,,,,,,,,,,,,56.078582166999695,56.176945541999885,56.97028741699614,56.96078262499941,56.96147304199985,56.97028741699614,56.97028741699614,57.422758332999365,b,1.0,0.4425105839982279,,,,,,,,,,,,,,,,,,,,,,,,,,,,,,,,,,,,,,,,sub-160,1,stroop_test,119.33767494180114,
test,red,r,1.0,3.0,0.0,1.0,r,1.0,0.799444541997218,,,,,,,,,,,,,,,,,,1.0,0.0,3.0,0.0,,,,,,,,,57.43198420800036,,,,,,,,,,,,,,,,,57.423178500001086,57.77082199999859,58.56256145799853,58.55476579199603,58.55541912499757,58.56256145799853,58.56256145799853,59.37216529199941,r,1.0,0.799444541997218,,,,,,,,,,,,,,,,,,,,,,,,,,,,,,,,,,,,,,,,sub-160,1,stroop_test,119.33767494180114,
test,yellow,g,1.0,4.0,1.0,1.0,g,1.0,0.6269144999969285,,,,,,,,,,,,,,,,,,1.0,1.0,4.0,1.0,,,,,,,,,59.38093216699781,,,,,,,,,,,,,,,,,59.37263958300173,60.57064116699621,61.36317495800176,61.35484195799654,61.35547995800152,61.36317495800176,61.36317495800176,61.99568691699824,g,1.0,0.6269144999969285,,,,,,,,,,,,,,,,,,,,,,,,,,,,,,,,,,,,,,,,sub-160,1,stroop_test,119.33767494180114,
test,blue,b,1.0,5.0,2.0,1.0,b,1.0,0.5533005000033882,,,,,,,,,,,,,,,,,,1.0,2.0,5.0,2.0,,,,,,,,,62.020452249998925,,,,,,,,,,,,,,,,,61.996221417000925,62.79377320800268,63.58701345799636,63.57682958299847,63.57749104200048,63.58701345799636,63.58701345799636,64.14432412500173,b,1.0,0.5533005000033882,,,,,,,,,,,,,,,,,,,,,,,,,,,,,,,,,,,,,,,,sub-160,1,stroop_test,119.33767494180114,
test,red,r,1.0,6.0,0.0,2.0,r,1.0,0.7336797499956447,,,,,,,,,,,,,,,,,,2.0,0.0,6.0,0.0,,,,,,,,,64.15399462499772,,,,,,,,,,,,,,,,,64.14469054200163,64.4945666670028,65.28719208300026,65.27808345799713,65.27876970799844,65.28719208300026,65.28719208300026,66.02322224999807,r,1.0,0.7336797499956447,,,,,,,,,,,,,,,,,,,,,,,,,,,,,,,,,,,,,,,,sub-160,1,stroop_test,119.33767494180114,
test,yellow,g,1.0,7.0,1.0,2.0,g,1.0,0.5639634589970228,,,,,,,,,,,,,,,,,,2.0,1.0,7.0,1.0,,,,,,,,,66.03200145799929,,,,,,,,,,,,,,,,,66.02360616700025,66.37108470800013,67.16282245799812,67.1548247499959,67.15550245800114,67.16282245799812,67.16282245799812,67.72899870800029,g,1.0,0.5639634589970228,,,,,,,,,,,,,,,,,,,,,,,,,,,,,,,,,,,,,,,,sub-160,1,stroop_test,119.33767494180114,
test,blue,b,1.0,8.0,2.0,2.0,b,1.0,0.4982983330046409,,,,,,,,,,,,,,,,,,2.0,2.0,8.0,2.0,,,,,,,,,67.73753237500205,,,,,,,,,,,,,,,,,67.72936637500243,68.07756099999824,68.87961424999958,68.87161495799955,68.87226158299745,68.87961424999958,68.87961424999958,69.39042224999866,b,1.0,0.4982983330046409,,,,,,,,,,,,,,,,,,,,,,,,,,,,,,,,,,,,,,,,sub-160,1,stroop_test,119.33767494180114,
test,blue,b,1.0,9.0,0.0,3.0,b,1.0,0.6794566250027856,,,,,,,,,,,,,,,,,,3.0,0.0,9.0,2.0,,,,,,,,,69.39982283300196,,,,,,,,,,,,,,,,,69.39091920800274,69.48774358299852,70.27913683299994,70.27155574999779,70.27219874999719,70.27913683299994,70.27913683299994,70.96239737499855,b,1.0,0.6794566250027856,,,,,,,,,,,,,,,,,,,,,,,,,,,,,,,,,,,,,,,,sub-160,1,stroop_test,119.33767494180114,
test,yellow,g,1.0,10.0,1.0,3.0,g,1.0,0.450826792002772,,,,,,,,,,,,,,,,,,3.0,1.0,10.0,1.0,,,,,,,,,70.97128116699605,,,,,,,,,,,,,,,,,70.96287270799803,72.1610271669997,72.95398379200196,72.94479320800019,72.94546116700076,72.95398379200196,72.95398379200196,73.40719304199592,g,1.0,0.450826792002772,,,,,,,,,,,,,,,,,,,,,,,,,,,,,,,,,,,,,,,,sub-160,1,stroop_test,119.33767494180114,
test,red,r,1.0,11.0,2.0,3.0,r,1.0,0.3819900000016787,,,,,,,,,,,,,,,,,,3.0,2.0,11.0,0.0,,,,,,,,,73.41306333299872,,,,,,,,,,,,,,,,,73.4075842079983,74.60453962499741,75.39635950000229,75.3885369999989,75.38917774999572,75.39635950000229,75.39635950000229,75.78967879199627,r,1.0,0.3819900000016787,,,,,,,,,,,,,,,,,,,,,,,,,,,,,,,,,,,,,,,,sub-160,1,stroop_test,119.33767494180114,
,,,,,,,,,,,,,,,,,,,,,,,,,,,,,,,,,,,,,,,,,,,,,,,,,,,,,,,,,,,,,,,,,,,,75.78993870799604,75.80032237499836,75.80032237499836,81.40639916699729,space,5.601399166000192,,,,,,,,,,,,,,,,,,,,,,,,,,,,,,,,,sub-160,1,stroop_test,119.33767494180114,
,,,,0.0,0.0,0.0,,,,,blau,blue,b,1.0,b,1.0,0.5462628329987638,,,,,,,,,,,,,,0.0,0.0,0.0,6.0,,,,,81.42873049999616,,,,,,,,,,,,,,,,,81.42018604199984,82.60447874999954,83.4015503749979,83.38849745799962,,,,,,,,,,,,,,,,83.39417837499786,83.4015503749979,83.4015503749979,83.95645783300279,b,1.0,0.5462628329987638,,83.96353991700016,83.97289487499802,84.96007445800205,,,,,,,,,,,,,,,,,,,,,sub-160,1,stroop_test,119.33767494180114,
,,,,1.0,1.0,0.0,,,,,rot,red,r,1.0,r,1.0,0.6747291669962578,,,,,,,,,,,,,,0.0,1.0,1.0,1.0,,,,,84.97156658300082,,,,,,,,,,,,,,,,,84.96065666699724,85.30478729199967,86.10132483299822,86.08867695799563,,,,,,,,,,,,,,,,86.093868457996,86.10132483299822,86.10132483299822,86.78035058300156,r,1.0,0.6747291669962578,,86.78106924999884,86.79067579199909,87.77831424999749,87.78786916699755,,,,,,,,,,,,,,,,,,,,sub-160,1,stroop_test,119.33767494180114,
,,,,2.0,2.0,0.0,,,,,blau,blue,b,1.0,b,1.0,0.6839737499976764,,,,,,,,,,,,,,0.0,2.0,2.0,5.0,,,,,87.78786916699755,,,,,,,,,,,,,,,,,87.77876950000064,88.12824150000233,88.93769779199647,88.91158420799911,,,,,,,,,,,,,,,,88.91523491699627,88.93769779199647,88.93769779199647,89.62457174999872,b,1.0,0.6839737499976764,,89.62529033300234,89.63592416699976,90.62201237500268,90.62831612499576,,,,,,,,,,,,,,,,,,,,sub-160,1,stroop_test,119.33767494180114,
,,,,3.0,3.0,0.0,,,,,gelb,yellow,g,1.0,g,1.0,0.6254845410003327,,,,,,,,,,,,,,0.0,3.0,3.0,11.0,,,,,90.62831612499576,,,,,,,,,,,,,,,,,90.6224585000018,91.82117129200196,92.61683637499664,92.60548412500066,,,,,,,,,,,,,,,,92.60939983299612,92.61683637499664,92.61683637499664,93.24614275000204,g,1.0,0.6254845410003327,,93.24684054200044,93.25744595799917,94.24477258299883,94.25458183299634,,,,,,,,,,,,,,,,,,,,sub-160,1,stroop_test,119.33767494180114,
,,,,4.0,4.0,0.0,,,,,blau,yellow,g,0.0,g,1.0,2.8601063340029214,,,,,,,,,,,,,,0.0,4.0,4.0,7.0,,,,,94.25458183299634,,,,,,,,,,,,,,,,,94.24528420800198,95.44495774999814,96.2404208329972,96.22841729199718,,,,,,,,,,,,,,,,96.23222212499968,96.2404208329972,96.2404208329972,99.10713291700084,g,1.0,2.8601063340029214,,99.10782495800233,99.11804712499725,100.10564395799884,100.11168137499772,,,,,,,,,,,,,,,,,,,,sub-160,1,stroop_test,119.33767494180114,
,,,,5.0,5.0,0.0,,,,,rot,red,r,1.0,r,1.0,0.7153315839968855,,,,,,,,,,,,,,0.0,5.0,5.0,0.0,,,,,100.11168137499772,,,,,,,,,,,,,,,,,100.10612324999964,100.20482737499697,101.00065658299718,100.9891700829976,,,,,,,,,,,,,,,,100.99306858299678,101.00065658299718,101.00065658299718,101.7231843749978,r,1.0,0.7153315839968855,,101.72376366699608,101.73385058299756,102.72213891700083,102.72799645800114,,,,,,,,,,,,,,,,,,,,sub-160,1,stroop_test,119.33767494180114,
,,,,6.0,6.0,0.0,,,,,rot,blue,b,0.0,b,1.0,0.6840457090002019,,,,,,,,,,,,,,0.0,6.0,6.0,2.0,,,,,102.72799645800114,,,,,,,,,,,,,,,,,102.72259508299612,103.9217603750003,104.71412825000152,104.7059217499991,,,,,,,,,,,,,,,,104.70657891700102,104.71412825000152,104.71412825000152,105.40700466700218,b,1.0,0.6840457090002019,,105.40765687500244,105.41811366700132,106.40588683299576,106.41169212500245,,,,,,,,,,,,,,,,,,,,sub-160,1,stroop_test,119.33767494180114,
,,,,7.0,7.0,0.0,,,,,blau,red,r,0.0,r,1.0,0.5949997079951572,,,,,,,,,,,,,,0.0,7.0,7.0,4.0,,,,,106.41169212500245,,,,,,,,,,,,,,,,,106.40634683299868,107.20537808300288,108.0015537079962,107.98960950000036,,,,,,,,,,,,,,,,107.9942864170007,108.0015537079962,108.0015537079962,108.6065784579987,r,1.0,0.5949997079951572,,108.60714333299984,108.6171599579975,109.6058819999962,109.6124333330008,,,,,,,,,,,,,,,,,,,,sub-160,1,stroop_test,119.33767494180114,
,,,,8.0,8.0,0.0,,,,,rot,yellow,g,0.0,g,1.0,0.3091123330013943,,,,,,,,,,,,,,0.0,8.0,8.0,3.0,,,,,109.6124333330008,,,,,,,,,,,,,,,,,109.60645637499692,110.80526870799804,111.60027937500126,111.58910579200165,,,,,,,,,,,,,,,,111.59273291700084,111.60027937500126,111.60027937500126,111.91396499999972,g,1.0,0.3091123330013943,,111.91463258300064,111.92442458299774,112.9128140419998,112.92150425,,,,,,,,,,,,,,,,,,,,sub-160,1,stroop_test,119.33767494180114,
,,,,9.0,9.0,0.0,,,,,gelb,yellow,g,1.0,g,1.0,0.4261827920054202,,,,,,,,,,,,,,0.0,9.0,9.0,10.0,,,,,112.92150425,,,,,,,,,,,,,,,,,112.91329720799696,114.1120170419963,114.9173063749986,114.90585337499942,,,,,,,,,,,,,,,,114.90978408299998,114.9173063749986,114.9173063749986,115.3472984580003,g,1.0,0.4261827920054202,,115.34799775000285,115.35792049999873,116.34463520799908,116.3552394579965,,,,,,,,,,,,,,,,,,,,sub-160,1,stroop_test,119.33767494180114,
,,,,10.0,10.0,0.0,,,,,gelb,red,r,0.0,r,1.0,0.325532208000368,,,,,,,,,,,,,,0.0,10.0,10.0,8.0,,,,,116.3552394579965,,,,,,,,,,,,,,,,,116.34512795799674,117.54414499999984,118.3381626249975,118.32770275000075,,,,,,,,,,,,,,,,118.32840337500238,118.3381626249975,118.3381626249975,118.67470720799612,r,1.0,0.325532208000368,,118.67538583299756,118.68579895800212,119.672692250002,119.67848195799888,,,,,,,,,,,,,,,,,,,,sub-160,1,stroop_test,119.33767494180114,
,,,,11.0,11.0,0.0,,,,,gelb,blue,b,0.0,b,1.0,0.3420976249981322,,,,,,,,,,,,,,0.0,11.0,11.0,9.0,,,,,119.67848195799888,,,,,,,,,,,,,,,,,119.67313795800146,120.47195887500128,121.2636132080006,121.2558984999996,,,,,,,,,,,,,,,,121.25659916699806,121.2636132080006,121.2636132080006,121.60816866700044,b,1.0,0.3420976249981322,,121.6089328750022,121.61913845800154,122.60600845800218,122.611919707997,,,,,,,,,,,,,,,,,,,,sub-160,1,stroop_test,119.33767494180114,
,,,,12.0,0.0,1.0,,,,,rot,red,r,1.0,r,1.0,0.7458025000014459,,,,,,,,,,,,,,1.0,0.0,12.0,0.0,,,,,122.611919707997,,,,,,,,,,,,,,,,,122.60645562499847,123.80554666699754,124.6009979579976,124.58936983299644,,,,,,,,,,,,,,,,124.59328716700112,124.6009979579976,124.6009979579976,125.35733662499842,r,1.0,0.7458025000014459,,125.35790095799894,125.36814304199652,126.35625874999825,126.36208879199694,,,,,,,,,,,,,,,,,,,,sub-160,1,stroop_test,119.33767494180114,
,,,,13.0,1.0,1.0,,,,,rot,red,r,1.0,r,1.0,0.6218218750000233,,,,,,,,,,,,,,1.0,1.0,13.0,1.0,,,,,126.36208879199694,,,,,,,,,,,,,,,,,126.3567133329998,127.15554491699731,127.94784658299614,127.93975341699844,,,,,,,,,,,,,,,,127.94044725000276,127.94784658299614,127.94784658299614,128.57466287499847,r,1.0,0.6218218750000233,,128.57521629199618,128.58541670799605,129.57304520800244,129.57916324999678,,,,,,,,,,,,,,,,,,,,sub-160,1,stroop_test,119.33767494180114,
,,,,14.0,2.0,1.0,,,,,blau,yellow,g,0.0,g,1.0,0.447328040994762,,,,,,,,,,,,,,1.0,2.0,14.0,7.0,,,,,129.57916324999678,,,,,,,,,,,,,,,,,129.5735712079986,129.67234270799963,130.46735462499782,130.4563229580017,,,,,,,,,,,,,,,,130.46026008299668,130.46735462499782,130.46735462499782,130.92423629199766,g,1.0,0.447328040994762,,130.9248113329959,130.93485029199655,131.9228798749973,131.92882983299933,,,,,,,,,,,,,,,,,,,,sub-160,1,stroop_test,119.33767494180114,
,,,,15.0,3.0,1.0,,,,,gelb,blue,b,0.0,b,1.0,0.7624374160004663,,,,,,,,,,,,,,1.0,3.0,15.0,9.0,,,,,131.92882983299933,,,,,,,,,,,,,,,,,131.92338629200094,132.7220847080025,133.51715795799828,133.50602095799695,,,,,,,,,,,,,,,,133.509912583002,133.51715795799828,133.51715795799828,134.3065844169978,b,1.0,0.7624374160004663,,134.30730270800268,134.322511958002,135.3067300420007,135.31260204200225,,,,,,,,,,,,,,,,,,,,sub-160,1,stroop_test,119.33767494180114,
,,,,16.0,4.0,1.0,,,,,blau,blue,b,1.0,b,1.0,0.4320708329978515,,,,,,,,,,,,,,1.0,4.0,16.0,6.0,,,,,135.31260204200225,,,,,,,,,,,,,,,,,135.3072431670007,135.39530170799844,136.1911025829977,136.1799877500016,,,,,,,,,,,,,,,,136.18387458300276,136.1911025829977,136.1911025829977,136.6294109579976,b,1.0,0.4320708329978515,,136.62995916699583,136.64095291699778,137.62977041699924,137.63881112499803,,,,,,,,,,,,,,,,,,,,sub-160,1,stroop_test,119.33767494180114,
,,,,17.0,5.0,1.0,,,,,gelb,yellow,g,1.0,g,1.0,0.618726583001262,,,,,,,,,,,,,,1.0,5.0,17.0,10.0,,,,,137.63881112499803,,,,,,,,,,,,,,,,,137.6302889169965,137.97897374999593,138.78404620799847,138.77306591699744,,,,,,,,,,,,,,,,138.77681116700114,138.78404620799847,138.78404620799847,139.4078630829972,g,1.0,0.618726583001262,,139.40856450000138,139.4186130829985,140.40672766699572,140.41294254199602,,,,,,,,,,,,,,,,,,,,sub-160,1,stroop_test,119.33767494180114,
,,,,18.0,6.0,1.0,,,,,rot,yellow,g,0.0,g,1.0,0.4538760830037063,,,,,,,,,,,,,,1.0,6.0,18.0,3.0,,,,,140.41294254199602,,,,,,,,,,,,,,,,,140.40726529200035,140.75596891700116,141.55200004200017,141.5398858749977,,,,,,,,,,,,,,,,141.54434995799966,141.55200004200017,141.55200004200017,142.00867691700114,g,1.0,0.4538760830037063,,142.00982533299975,142.02075191699987,143.0064873329975,143.01233595799567,,,,,,,,,,,,,,,,,,,,sub-160,1,stroop_test,119.33767494180114,
,,,,19.0,7.0,1.0,,,,,blau,blue,b,1.0,b,1.0,0.5223079999996116,,,,,,,,,,,,,,1.0,7.0,19.0,5.0,,,,,143.01233595799567,,,,,,,,,,,,,,,,,143.00693104200036,143.8057572079997,144.60082624999632,144.58987095799966,,,,,,,,,,,,,,,,144.59356224999647,144.60082624999632,144.60082624999632,145.1255641250027,b,1.0,0.5223079999996116,,145.12614304199815,145.136113499997,146.1235989170018,146.1297821249973,,,,,,,,,,,,,,,,,,,,sub-160,1,stroop_test,119.33767494180114,
,,,,20.0,8.0,1.0,,,,,rot,blue,b,0.0,b,1.0,0.4885757919983007,,,,,,,,,,,,,,1.0,8.0,20.0,2.0,,,,,146.1297821249973,,,,,,,,,,,,,,,,,146.12413358299818,147.32273133299896,148.11760358299944,148.1067222920028,,,,,,,,,,,,,,,,148.11039520800114,148.11760358299944,148.11760358299944,148.6085539170017,b,1.0,0.4885757919983007,,148.60911129199667,148.6187976250003,149.6063954170022,149.61215116699896,,,,,,,,,,,,,,,,,,,,sub-160,1,stroop_test,119.33767494180114,
,,,,21.0,9.0,1.0,,,,,gelb,red,r,0.0,r,1.0,0.6436707090033451,,,,,,,,,,,,,,1.0,9.0,21.0,8.0,,,,,149.61215116699896,,,,,,,,,,,,,,,,,149.60685224999906,150.40587024999695,151.20258858300076,151.1899185000002,,,,,,,,,,,,,,,,151.19528570799594,151.20258858300076,151.20258858300076,151.8582010829996,r,1.0,0.6436707090033451,,151.85892712500208,151.86907912499737,152.85663479199866,152.86253820799902,,,,,,,,,,,,,,,,,,,,sub-160,1,stroop_test,119.33767494180114,
,,,,22.0,10.0,1.0,,,,,gelb,yellow,g,1.0,g,1.0,0.5139222500001779,,,,,,,,,,,,,,1.0,10.0,22.0,11.0,,,,,152.86253820799902,,,,,,,,,,,,,,,,,152.85712741700263,152.9562503749985,153.7482982079964,153.74015354199946,,,,,,,,,,,,,,,,153.74085745799675,153.7482982079964,153.7482982079964,154.26431604199752,g,1.0,0.5139222500001779,,154.26486112499697,154.2751490829978,155.26172100000258,155.2728047080018,,,,,,,,,,,,,,,,,,,,sub-160,1,stroop_test,119.33767494180114,
,,,,23.0,11.0,1.0,,,,,blau,red,r,0.0,r,1.0,0.3071733329998096,,,,,,,,,,,,,,1.0,11.0,23.0,4.0,,,,,155.2728047080018,,,,,,,,,,,,,,,,,155.2621142919961,155.6127530829981,156.42246058300225,156.39610312500008,,,,,,,,,,,,,,,,156.39950225000212,156.42246058300225,156.42246058300225,156.7417060000007,r,1.0,0.3071733329998096,,156.7424197500004,156.75259354199807,157.7400241669966,157.74755429200013,,,,,,,,,,,,,,,,,,,,sub-160,1,stroop_test,119.33767494180114,
,,,,,,,,,,,,,,,,,,,,,,,,,,,,,,,,,,,,,,,,,,,,,,,,,,,,,,,,,,,,,,,,,,,,,,,,,,,,,,,,,,,,,,,157.7402250419982,157.74755429200013,157.74755429200013,166.94147483300185,space,9.186400791004417,,,,,,,,,,,,,,sub-160,1,stroop_test,119.33767494180114,
,,,,0.0,0.0,0.0,,,,,,,,,,,,,rot,yellow,g,0.0,g,1.0,0.7389134589975583,,,,,,,,,,0.0,0.0,0.0,3.0,166.9641887079997,,,,,,,,,,,,,,,,,166.95585520799796,168.13972037500207,168.9348035419971,168.92373362500075,,,,,,,,,,,,,,,,,,,,,,,,,,,,,,,,,,,168.9273915829981,168.9348035419971,168.9348035419971,169.67610116700234,g,1.0,0.7389134589975583,,,,,,sub-160,1,stroop_test,119.33767494180114,
,,,,1.0,1.0,0.0,,,,,,,,,,,,,blau,blue,b,1.0,b,1.0,0.4827646250050748,,,,,,,,,,0.0,1.0,1.0,6.0,169.6853742500025,,,,,,,,,,,,,,,,,169.67655129200284,170.0231395419978,170.81903295799566,170.80725345799874,,,,,,,,,,,,,,,,,,,,,,,,,,,,,,,,,,,170.81131970800195,170.81903295799566,170.81903295799566,171.30820312500146,b,1.0,0.4827646250050748,,,,,,sub-160,1,stroop_test,119.33767494180114,
,,,,2.0,2.0,0.0,,,,,,,,,,,,,gelb,red,r,0.0,r,1.0,0.2612963329956983,,,,,,,,,,0.0,2.0,2.0,8.0,171.31712912499643,,,,,,,,,,,,,,,,,171.30863704199874,172.5067236670002,173.30323062500247,173.29066091700224,,,,,,,,,,,,,,,,,,,,,,,,,,,,,,,,,,,173.29594212499796,173.30323062500247,173.30323062500247,173.57513987499988,r,1.0,0.2612963329956983,,,,,,sub-160,1,stroop_test,119.33767494180114,
,,,,3.0,3.0,0.0,,,,,,,,,,,,,gelb,yellow,g,1.0,g,1.0,0.5338672500001849,,,,,,,,,,0.0,3.0,3.0,10.0,173.58444070800033,,,,,,,,,,,,,,,,,173.57566816700273,173.92327049999585,174.71514729200135,174.70721562499966,,,,,,,,,,,,,,,,,,,,,,,,,,,,,,,,,,,174.707876708002,174.71514729200135,174.71514729200135,175.25818250000157,g,1.0,0.5338672500001849,,,,,,sub-160,1,stroop_test,119.33767494180114,
,,,,4.0,4.0,0.0,,,,,,,,,,,,,blau,red,r,0.0,r,1.0,0.5490135419968283,,,,,,,,,,0.0,4.0,4.0,4.0,175.26725233299658,,,,,,,,,,,,,,,,,175.25863175000268,175.35674570799893,176.15114312499645,176.14031370799785,,,,,,,,,,,,,,,,,,,,,,,,,,,,,,,,,,,176.14376325000194,176.15114312499645,176.15114312499645,176.70822595799837,r,1.0,0.5490135419968283,,,,,,sub-160,1,stroop_test,119.33767494180114,
,,,,5.0,5.0,0.0,,,,,,,,,,,,,blau,blue,b,1.0,b,1.0,0.3439244999972288,,,,,,,,,,0.0,5.0,5.0,5.0,176.71726216699608,,,,,,,,,,,,,,,,,176.7086721250016,177.0565325419957,177.84936266700242,177.8409789169964,,,,,,,,,,,,,,,,,,,,,,,,,,,,,,,,,,,177.84173516699957,177.84936266700242,177.84936266700242,178.1981162919983,b,1.0,0.3439244999972288,,,,,,sub-160,1,stroop_test,119.33767494180114,
,,,,6.0,6.0,0.0,,,,,,,,,,,,,blau,yellow,g,0.0,g,1.0,0.4809160419972613,,,,,,,,,,0.0,6.0,6.0,7.0,178.22358874999918,,,,,,,,,,,,,,,,,178.19855633300176,178.29624887499813,179.0896461250013,179.07932770800107,,,,,,,,,,,,,,,,,,,,,,,,,,,,,,,,,,,179.0799054579984,179.0896461250013,179.0896461250013,179.57512258300267,g,1.0,0.4809160419972613,,,,,,sub-160,1,stroop_test,119.33767494180114,
,,,,7.0,7.0,0.0,,,,,,,,,,,,,gelb,yellow,g,1.0,g,1.0,0.5147662910021609,,,,,,,,,,0.0,7.0,7.0,11.0,179.58429791699746,,,,,,,,,,,,,,,,,179.57567983299668,179.67315229200176,180.469547875,180.4574724580016,,,,,,,,,,,,,,,,,,,,,,,,,,,,,,,,,,,180.462190667,180.469547875,180.469547875,180.99199037499784,g,1.0,0.5147662910021609,,,,,,sub-160,1,stroop_test,119.33767494180114,
,,,,8.0,8.0,0.0,,,,,,,,,,,,,rot,blue,b,0.0,b,1.0,0.8352374999958556,,,,,,,,,,0.0,8.0,8.0,2.0,181.0011771669961,,,,,,,,,,,,,,,,,180.99244220800028,181.089852582998,181.885324875002,181.87402783300055,,,,,,,,,,,,,,,,,,,,,,,,,,,,,,,,,,,181.87786162499836,181.885324875002,181.885324875002,182.72541666700272,b,1.0,0.8352374999958556,,,,,,sub-160,1,stroop_test,119.33767494180114,
,,,,9.0,9.0,0.0,,,,,,,,,,,,,rot,red,r,1.0,r,1.0,0.3413107079977635,,,,,,,,,,0.0,9.0,9.0,0.0,182.73075020800025,,,,,,,,,,,,,,,,,182.72586004200275,182.8235744170015,183.6155118329989,183.6071968749966,,,,,,,,,,,,,,,,,,,,,,,,,,,,,,,,,,,183.60790791700128,183.6155118329989,183.6155118329989,183.95889220800015,r,1.0,0.3413107079977635,,,,,,sub-160,1,stroop_test,119.33767494180114,
,,,,10.0,10.0,0.0,,,,,,,,,,,,,gelb,blue,b,0.0,b,1.0,0.3613521250008489,,,,,,,,,,0.0,10.0,10.0,9.0,183.96496820799803,,,,,,,,,,,,,,,,,183.9591153750007,184.3066174999985,185.10287691700069,185.09095541699932,,,,,,,,,,,,,,,,,,,,,,,,,,,,,,,,,,,185.0953221669988,185.10287691700069,185.10287691700069,185.47551750000275,b,1.0,0.3613521250008489,,,,,,sub-160,1,stroop_test,119.33767494180114,
,,,,11.0,11.0,0.0,,,,,,,,,,,,,rot,red,r,1.0,r,1.0,0.3220847499978845,,,,,,,,,,0.0,11.0,11.0,1.0,185.4846037079988,,,,,,,,,,,,,,,,,185.4759640420016,186.67351637499812,187.4683372919972,187.45716829199955,,,,,,,,,,,,,,,,,,,,,,,,,,,,,,,,,,,187.46086274999837,187.4683372919972,187.4683372919972,187.79293162500107,r,1.0,0.3220847499978845,,,,,,sub-160,1,stroop_test,119.33767494180114,
,,,,12.0,0.0,1.0,,,,,,,,,,,,,blau,red,r,0.0,r,1.0,0.4540473329980159,,,,,,,,,,1.0,0.0,12.0,4.0,187.80221745799645,,,,,,,,,,,,,,,,,187.79347250000137,188.9902929579985,189.7872551670007,189.7744121249998,,,,,,,,,,,,,,,,,,,,,,,,,,,,,,,,,,,189.77973054200265,189.7872551670007,189.7872551670007,190.2474654170001,r,1.0,0.4540473329980159,,,,,,sub-160,1,stroop_test,119.33767494180114,
,,,,13.0,1.0,1.0,,,,,,,,,,,,,blau,yellow,g,0.0,g,1.0,0.4616980419959873,,,,,,,,,,1.0,1.0,13.0,7.0,190.2561515830021,,,,,,,,,,,,,,,,,190.2478975420017,190.3490134169988,191.1493416250014,191.14105520799785,,,,,,,,,,,,,,,,,,,,,,,,,,,,,,,,,,,191.1418209170006,191.1493416250014,191.1493416250014,191.61432808300012,g,1.0,0.4616980419959873,,,,,,sub-160,1,stroop_test,119.33767494180114,
,,,,14.0,2.0,1.0,,,,,,,,,,,,,gelb,yellow,g,1.0,g,1.0,0.3165130000052158,,,,,,,,,,1.0,2.0,14.0,10.0,191.62370845799887,,,,,,,,,,,,,,,,,191.6147535420023,192.4132881670012,193.2185382919997,193.20756920799613,,,,,,,,,,,,,,,,,,,,,,,,,,,,,,,,,,,193.21130520800216,193.2185382919997,193.2185382919997,193.54202716700087,g,1.0,0.3165130000052158,,,,,,sub-160,1,stroop_test,119.33767494180114,
,,,,15.0,3.0,1.0,,,,,,,,,,,,,rot,red,r,1.0,r,1.0,0.4962808749987744,,,,,,,,,,1.0,3.0,15.0,1.0,193.5510847080004,,,,,,,,,,,,,,,,,193.54246283300017,194.7400497920025,195.5356229999961,195.5242950419997,,,,,,,,,,,,,,,,,,,,,,,,,,,,,,,,,,,195.52810258299724,195.5356229999961,195.5356229999961,196.04192895800225,r,1.0,0.4962808749987744,,,,,,sub-160,1,stroop_test,119.33767494180114,
,,,,16.0,4.0,1.0,,,,,,,,,,,,,rot,blue,b,0.0,b,1.0,0.3788825410010759,,,,,,,,,,1.0,4.0,16.0,2.0,196.0511556249985,,,,,,,,,,,,,,,,,196.042363624998,197.24045370800013,198.0320754170025,198.02407770799616,,,,,,,,,,,,,,,,,,,,,,,,,,,,,,,,,,,198.02472583299823,198.0320754170025,198.0320754170025,198.41441062500235,b,1.0,0.3788825410010759,,,,,,sub-160,1,stroop_test,119.33767494180114,
,,,,17.0,5.0,1.0,,,,,,,,,,,,,blau,blue,b,1.0,b,1.0,0.4813552089981385,,,,,,,,,,1.0,5.0,17.0,6.0,198.42375458299648,,,,,,,,,,,,,,,,,198.414821624996,198.51378804200067,199.318590875002,199.30782412499684,,,,,,,,,,,,,,,,,,,,,,,,,,,,,,,,,,,199.31142462499704,199.318590875002,199.318590875002,199.80910670800225,b,1.0,0.4813552089981385,,,,,,sub-160,1,stroop_test,119.33767494180114,
,,,,18.0,6.0,1.0,,,,,,,,,,,,,blau,blue,b,1.0,b,1.0,0.541453542005911,,,,,,,,,,1.0,6.0,18.0,5.0,199.8195301250016,,,,,,,,,,,,,,,,,199.8097325830022,200.15688587499608,200.9492494169972,200.94095641699823,,,,,,,,,,,,,,,,,,,,,,,,,,,,,,,,,,,200.94167683299747,200.9492494169972,200.9492494169972,201.4930856669962,b,1.0,0.541453542005911,,,,,,sub-160,1,stroop_test,119.33767494180114,
,,,,19.0,7.0,1.0,,,,,,,,,,,,,gelb,red,r,0.0,r,1.0,0.4382041659991955,,,,,,,,,,1.0,7.0,19.0,8.0,201.4990065419988,,,,,,,,,,,,,,,,,201.4935208749957,202.29060966699765,203.0851332079983,203.07431350000115,,,,,,,,,,,,,,,,,,,,,,,,,,,,,,,,,,,203.07804058300096,203.0851332079983,203.0851332079983,203.52571895800065,r,1.0,0.4382041659991955,,,,,,sub-160,1,stroop_test,119.33767494180114,
,,,,20.0,8.0,1.0,,,,,,,,,,,,,rot,red,r,1.0,r,1.0,0.4387550000028568,,,,,,,,,,1.0,8.0,20.0,0.0,203.53178504199605,,,,,,,,,,,,,,,,,203.5261534579986,203.8737913329969,204.6698222920022,204.65808066700265,,,,,,,,,,,,,,,,,,,,,,,,,,,,,,,,,,,204.6621498329987,204.6698222920022,204.6698222920022,205.11445749999984,r,1.0,0.4387550000028568,,,,,,sub-160,1,stroop_test,119.33767494180114,
,,,,21.0,9.0,1.0,,,,,,,,,,,,,gelb,yellow,g,1.0,g,1.0,0.4816536250000354,,,,,,,,,,1.0,9.0,21.0,11.0,205.1234949169957,,,,,,,,,,,,,,,,,205.11488879199896,206.3138754999964,207.10890362499777,207.0976052920014,,,,,,,,,,,,,,,,,,,,,,,,,,,,,,,,,,,207.1017077919969,207.10890362499777,207.10890362499777,207.59297737499583,g,1.0,0.4816536250000354,,,,,,sub-160,1,stroop_test,119.33767494180114,
,,,,22.0,10.0,1.0,,,,,,,,,,,,,rot,yellow,g,0.0,g,1.0,0.3542622910026693,,,,,,,,,,1.0,10.0,22.0,3.0,207.60223445799784,,,,,,,,,,,,,,,,,207.59341666699763,208.7904351670004,209.5869686669976,209.57457270799927,,,,,,,,,,,,,,,,,,,,,,,,,,,,,,,,,,,209.57930124999984,209.5869686669976,209.5869686669976,209.94402450000047,g,1.0,0.3542622910026693,,,,,,sub-160,1,stroop_test,119.33767494180114,
,,,,23.0,11.0,1.0,,,,,,,,,,,,,gelb,blue,b,0.0,b,1.0,0.3796817090042168,,,,,,,,,,1.0,11.0,23.0,9.0,209.9529960419968,,,,,,,,,,,,,,,,,209.94457249999687,211.1404946670009,211.93580645800105,211.9246877080004,,,,,,,,,,,,,,,,,,,,,,,,,,,,,,,,,,,211.92855529199733,211.93580645800105,211.93580645800105,212.32587329200032,b,1.0,0.3796817090042168,,,,,,sub-160,1,stroop_test,119.33767494180114,
,,,,24.0,0.0,2.0,,,,,,,,,,,,,rot,red,r,1.0,r,1.0,0.5506629590017837,,,,,,,,,,2.0,0.0,24.0,0.0,212.3348479999986,,,,,,,,,,,,,,,,,212.3263108329993,212.42403891700087,213.2196165420028,213.2079380829964,,,,,,,,,,,,,,,,,,,,,,,,,,,,,,,,,,,213.21193366700027,213.2196165420028,213.2196165420028,213.77613716699847,r,1.0,0.5506629590017837,,,,,,sub-160,1,stroop_test,119.33767494180114,
,,,,25.0,1.0,2.0,,,,,,,,,,,,,blau,red,r,0.0,r,1.0,0.6936670419963775,,,,,,,,,,2.0,1.0,25.0,4.0,213.78555895799943,,,,,,,,,,,,,,,,,213.77669479200267,213.87405958300224,214.66851108300037,214.65787199999613,,,,,,,,,,,,,,,,,,,,,,,,,,,,,,,,,,,214.661766833,214.66851108300037,214.66851108300037,215.36649687500176,r,1.0,0.6936670419963775,,,,,,sub-160,1,stroop_test,119.33767494180114,
,,,,26.0,2.0,2.0,,,,,,,,,,,,,gelb,yellow,g,1.0,g,1.0,0.378899374998582,,,,,,,,,,2.0,2.0,26.0,11.0,215.37623812499805,,,,,,,,,,,,,,,,,215.36703745799605,215.46434037500148,216.27371149999817,216.24763733299915,,,,,,,,,,,,,,,,,,,,,,,,,,,,,,,,,,,216.2510865000004,216.27371149999817,216.27371149999817,216.6592119170018,g,1.0,0.378899374998582,,,,,,sub-160,1,stroop_test,119.33767494180114,
,,,,27.0,3.0,2.0,,,,,,,,,,,,,gelb,blue,b,0.0,b,1.0,0.5964178340000217,,,,,,,,,,2.0,3.0,27.0,9.0,216.66820633300085,,,,,,,,,,,,,,,,,216.65964387499844,216.7568962500009,217.5498429579966,217.54141849999723,,,,,,,,,,,,,,,,,,,,,,,,,,,,,,,,,,,217.5421237920018,217.5498429579966,217.5498429579966,218.14948366700264,b,1.0,0.5964178340000217,,,,,,sub-160,1,stroop_test,119.33767494180114,
,,,,28.0,4.0,2.0,,,,,,,,,,,,,blau,blue,b,1.0,b,1.0,0.329191416996764,,,,,,,,,,2.0,4.0,28.0,6.0,218.15895525000087,,,,,,,,,,,,,,,,,218.1499935829997,219.34764858299604,220.1530603329957,220.1416655419962,,,,,,,,,,,,,,,,,,,,,,,,,,,,,,,,,,,220.14560112499748,220.1530603329957,220.1530603329957,220.4929745420013,b,1.0,0.329191416996764,,,,,,sub-160,1,stroop_test,119.33767494180114,
,,,,29.0,5.0,2.0,,,,,,,,,,,,,rot,blue,b,0.0,b,1.0,0.409000792002189,,,,,,,,,,2.0,5.0,29.0,2.0,220.5021899170024,,,,,,,,,,,,,,,,,220.49350120800227,220.84098970799823,221.6367619579978,221.62479929199617,,,,,,,,,,,,,,,,,,,,,,,,,,,,,,,,,,,221.6292794580004,221.6367619579978,221.6367619579978,222.0486814169999,b,1.0,0.409000792002189,,,,,,sub-160,1,stroop_test,119.33767494180114,
,,,,30.0,6.0,2.0,,,,,,,,,,,,,blau,blue,b,1.0,b,1.0,0.4475822909953422,,,,,,,,,,2.0,6.0,30.0,5.0,222.0573267919972,,,,,,,,,,,,,,,,,222.0491167919972,222.84789983300288,223.65252654199867,223.64157225000235,,,,,,,,,,,,,,,,,,,,,,,,,,,,,,,,,,,223.64516866699705,223.65252654199867,223.65252654199867,224.1090969579964,b,1.0,0.4475822909953422,,,,,,sub-160,1,stroop_test,119.33767494180114,
,,,,31.0,7.0,2.0,,,,,,,,,,,,,gelb,yellow,g,1.0,g,1.0,0.616564042000391,,,,,,,,,,2.0,7.0,31.0,10.0,224.11816199999885,,,,,,,,,,,,,,,,,224.10953950000112,224.20765224999923,225.00320083300176,224.9917510419982,,,,,,,,,,,,,,,,,,,,,,,,,,,,,,,,,,,224.9956312919967,225.00320083300176,225.00320083300176,225.62615529199684,g,1.0,0.616564042000391,,,,,,sub-160,1,stroop_test,119.33767494180114,
,,,,32.0,8.0,2.0,,,,,,,,,,,,,rot,yellow,g,0.0,g,1.0,0.3600738329987507,,,,,,,,,,2.0,8.0,32.0,3.0,225.63536666699656,,,,,,,,,,,,,,,,,225.6267041249957,226.42444054199584,227.21959074999904,227.2083491250014,,,,,,,,,,,,,,,,,,,,,,,,,,,,,,,,,,,227.21206825000263,227.21959074999904,227.21959074999904,227.58323258299788,g,1.0,0.3600738329987507,,,,,,sub-160,1,stroop_test,119.33767494180114,
,,,,33.0,9.0,2.0,,,,,,,,,,,,,gelb,red,r,0.0,r,1.0,0.5256861669986392,,,,,,,,,,2.0,9.0,33.0,8.0,227.593116541997,,,,,,,,,,,,,,,,,227.5837748749982,227.6813599169982,228.48627020799904,228.4751467919996,,,,,,,,,,,,,,,,,,,,,,,,,,,,,,,,,,,228.47897379200003,228.48627020799904,228.48627020799904,229.0160367080025,r,1.0,0.5256861669986392,,,,,,sub-160,1,stroop_test,119.33767494180114,
,,,,34.0,10.0,2.0,,,,,,,,,,,,,blau,yellow,g,0.0,g,1.0,0.8724769999971613,,,,,,,,,,2.0,10.0,34.0,7.0,229.04066995799803,,,,,,,,,,,,,,,,,229.01645183299843,230.2141957919957,231.0101211250003,230.99806179200093,,,,,,,,,,,,,,,,,,,,,,,,,,,,,,,,,,,231.00243362499896,231.0101211250003,231.0101211250003,231.89287075000172,g,1.0,0.8724769999971613,,,,,,sub-160,1,stroop_test,119.33767494180114,
,,,,35.0,11.0,2.0,,,,,,,,,,,,,rot,red,r,1.0,r,1.0,0.5597773330009659,,,,,,,,,,2.0,11.0,35.0,1.0,231.9020801250008,,,,,,,,,,,,,,,,,231.89331583299645,232.6909244999988,233.486508957998,233.47520737499872,,,,,,,,,,,,,,,,,,,,,,,,,,,,,,,,,,,233.47908458299932,233.486508957998,233.486508957998,234.05204183299796,r,1.0,0.5597773330009659,,,,,,sub-160,1,stroop_test,119.33767494180114,
,,,,36.0,0.0,3.0,,,,,,,,,,,,,gelb,red,r,0.0,r,1.0,0.5624283340002876,,,,,,,,,,3.0,0.0,36.0,8.0,234.06224870799636,,,,,,,,,,,,,,,,,234.05266216699965,234.3982278330004,235.2000971669986,235.19136199999772,,,,,,,,,,,,,,,,,,,,,,,,,,,,,,,,,,,235.1951152499969,235.2000971669986,235.2000971669986,235.7659044579996,r,1.0,0.5624283340002876,,,,,,sub-160,1,stroop_test,119.33767494180114,
,,,,37.0,1.0,3.0,,,,,,,,,,,,,rot,yellow,g,0.0,g,1.0,0.6008884169932571,,,,,,,,,,3.0,1.0,37.0,3.0,235.7767774999957,,,,,,,,,,,,,,,,,235.7664087500016,235.86507341700053,236.67077987499945,236.65885033299853,,,,,,,,,,,,,,,,,,,,,,,,,,,,,,,,,,,236.6633744169958,236.67077987499945,236.67077987499945,237.27635225000267,g,1.0,0.6008884169932571,,,,,,sub-160,1,stroop_test,119.33767494180114,
,,,,38.0,2.0,3.0,,,,,,,,,,,,,blau,yellow,g,0.0,g,1.0,0.3728739590005716,,,,,,,,,,3.0,2.0,38.0,7.0,237.2853714169978,,,,,,,,,,,,,,,,,237.2768033329994,237.37427233299968,238.16940858300225,238.1586486669985,,,,,,,,,,,,,,,,,,,,,,,,,,,,,,,,,,,238.162743916997,238.16940858300225,238.16940858300225,238.5484327079976,g,1.0,0.3728739590005716,,,,,,sub-160,1,stroop_test,119.33767494180114,
,,,,39.0,3.0,3.0,,,,,,,,,,,,,rot,red,r,1.0,r,1.0,0.4346409169957042,,,,,,,,,,3.0,3.0,39.0,1.0,238.55756904200095,,,,,,,,,,,,,,,,,238.5488476249957,238.89835662500263,239.7074688749999,239.68136637499995,,,,,,,,,,,,,,,,,,,,,,,,,,,,,,,,,,,239.68479495799693,239.7074688749999,239.7074688749999,240.1490071250009,r,1.0,0.4346409169957042,,,,,,sub-160,1,stroop_test,119.33767494180114,
,,,,40.0,4.0,3.0,,,,,,,,,,,,,blau,red,r,0.0,r,1.0,0.607340499998827,,,,,,,,,,3.0,4.0,40.0,4.0,240.158201541999,,,,,,,,,,,,,,,,,240.1494428750011,240.25046454199764,241.05382587500208,241.0419457079988,,,,,,,,,,,,,,,,,,,,,,,,,,,,,,,,,,,241.04639424999917,241.05382587500208,241.05382587500208,241.66569499999605,r,1.0,0.607340499998827,,,,,,sub-160,1,stroop_test,119.33767494180114,
,,,,41.0,5.0,3.0,,,,,,,,,,,,,rot,red,r,1.0,r,1.0,0.6093630420000409,,,,,,,,,,3.0,5.0,41.0,0.0,241.67493666699735,,,,,,,,,,,,,,,,,241.6662349170001,242.46484512499592,243.27077370799816,243.2587197920002,,,,,,,,,,,,,,,,,,,,,,,,,,,,,,,,,,,243.2631193749985,243.27077370799816,243.27077370799816,243.8830803329984,r,1.0,0.6093630420000409,,,,,,sub-160,1,stroop_test,119.33767494180114,
,,,,42.0,6.0,3.0,,,,,,,,,,,,,blau,blue,b,1.0,b,1.0,0.5885791660039104,,,,,,,,,,3.0,6.0,42.0,6.0,243.9077151250021,,,,,,,,,,,,,,,,,243.88351616699947,243.9813314580024,244.77718045799705,244.76529879200095,,,,,,,,,,,,,,,,,,,,,,,,,,,,,,,,,,,244.7694012080028,244.77718045799705,244.77718045799705,245.37678270800097,b,1.0,0.5885791660039104,,,,,,sub-160,1,stroop_test,119.33767494180114,
,,,,43.0,7.0,3.0,,,,,,,,,,,,,gelb,yellow,g,1.0,g,1.0,0.3709414580007433,,,,,,,,,,3.0,7.0,43.0,11.0,245.38586083299745,,,,,,,,,,,,,,,,,245.3772237500016,246.17498179199904,246.9733988329972,246.95899158300017,,,,,,,,,,,,,,,,,,,,,,,,,,,,,,,,,,,246.96596108299852,246.9733988329972,246.9733988329972,247.34895937499823,g,1.0,0.3709414580007433,,,,,,sub-160,1,stroop_test,119.33767494180114,
,,,,44.0,8.0,3.0,,,,,,,,,,,,,gelb,blue,b,0.0,b,1.0,0.8958808750030585,,,,,,,,,,3.0,8.0,44.0,9.0,247.3577218749997,,,,,,,,,,,,,,,,,247.34939658299845,248.14707154200005,248.9409178749993,248.9305545829993,,,,,,,,,,,,,,,,,,,,,,,,,,,,,,,,,,,248.93119858299903,248.9409178749993,248.9409178749993,249.8434234169981,b,1.0,0.8958808750030585,,,,,,sub-160,1,stroop_test,119.33767494180114,
,,,,45.0,9.0,3.0,,,,,,,,,,,,,rot,blue,b,0.0,b,1.0,0.5877138340001693,,,,,,,,,,3.0,9.0,45.0,2.0,249.852610791997,,,,,,,,,,,,,,,,,249.84389462500255,249.94148662500083,250.7370104579968,250.72556237500248,,,,,,,,,,,,,,,,,,,,,,,,,,,,,,,,,,,250.72944149999967,250.7370104579968,250.7370104579968,251.32723208300013,b,1.0,0.5877138340001693,,,,,,sub-160,1,stroop_test,119.33767494180114,
,,,,46.0,10.0,3.0,,,,,,,,,,,,,blau,blue,b,1.0,b,1.0,0.6049126249999972,,,,,,,,,,3.0,10.0,46.0,5.0,251.3363774169993,,,,,,,,,,,,,,,,,251.3276796669961,251.6750391250025,252.47008412500145,252.458888125002,,,,,,,,,,,,,,,,,,,,,,,,,,,,,,,,,,,252.46277558300065,252.47008412500145,252.47008412500145,253.0777591669976,b,1.0,0.6049126249999972,,,,,,sub-160,1,stroop_test,119.33767494180114,
,,,,47.0,11.0,3.0,,,,,,,,,,,,,gelb,yellow,g,1.0,g,1.0,0.3568431669991696,,,,,,,,,,3.0,11.0,47.0,10.0,253.0878282920021,,,,,,,,,,,,,,,,,253.07851679199663,253.8750088750021,254.66977916700125,254.6587840829961,,,,,,,,,,,,,,,,,,,,,,,,,,,,,,,,,,,254.66262595800072,254.66977916700125,254.66977916700125,255.033907291996,g,1.0,0.3568431669991696,,,,,,sub-160,1,stroop_test,119.33767494180114,
,,,,48.0,0.0,4.0,,,,,,,,,,,,,rot,yellow,g,0.0,g,1.0,0.57318383299571,,,,,,,,,,4.0,0.0,48.0,3.0,255.043618124997,,,,,,,,,,,,,,,,,255.0344411670012,255.83159875000277,256.6368074170023,256.625544292001,,,,,,,,,,,,,,,,,,,,,,,,,,,,,,,,,,,256.6292964999957,256.6368074170023,256.6368074170023,257.2152420830025,g,1.0,0.57318383299571,,,,,,sub-160,1,stroop_test,119.33767494180114,
,,,,49.0,1.0,4.0,,,,,,,,,,,,,rot,blue,b,0.0,b,1.0,0.6205491660002735,,,,,,,,,,4.0,1.0,49.0,2.0,257.22409004200017,,,,,,,,,,,,,,,,,257.2156616669963,258.008015667001,258.80012587500096,258.7922948330015,,,,,,,,,,,,,,,,,,,,,,,,,,,,,,,,,,,258.792934582998,258.80012587500096,258.80012587500096,259.4270450420008,b,1.0,0.6205491660002735,,,,,,sub-160,1,stroop_test,119.33767494180114,
,,,,50.0,2.0,4.0,,,,,,,,,,,,,gelb,yellow,g,1.0,g,1.0,0.6134015830029966,,,,,,,,,,4.0,2.0,50.0,10.0,259.43610654200165,,,,,,,,,,,,,,,,,259.42748745800054,259.7751524999985,260.57040337500075,260.55919937499857,,,,,,,,,,,,,,,,,,,,,,,,,,,,,,,,,,,260.56309016700106,260.57040337500075,260.57040337500075,261.1937846669971,g,1.0,0.6134015830029966,,,,,,sub-160,1,stroop_test,119.33767494180114,
,,,,51.0,3.0,4.0,,,,,,,,,,,,,rot,red,r,1.0,r,1.0,0.3866610829936689,,,,,,,,,,4.0,3.0,51.0,0.0,261.2032257499959,,,,,,,,,,,,,,,,,261.19432433300244,261.2917549999984,262.0886394170011,262.0758022500013,,,,,,,,,,,,,,,,,,,,,,,,,,,,,,,,,,,262.08089225000003,262.0886394170011,262.0886394170011,262.477792083002,r,1.0,0.3866610829936689,,,,,,sub-160,1,stroop_test,119.33767494180114,
,,,,52.0,4.0,4.0,,,,,,,,,,,,,gelb,yellow,g,1.0,g,1.0,0.4955686670000432,,,,,,,,,,4.0,4.0,52.0,11.0,262.48706720799964,,,,,,,,,,,,,,,,,262.47825504199864,262.5752561249974,263.3698254580013,263.3590749169962,,,,,,,,,,,,,,,,,,,,,,,,,,,,,,,,,,,263.3626714170023,263.3698254580013,263.3698254580013,263.8676672919973,g,1.0,0.4955686670000432,,,,,,sub-160,1,stroop_test,119.33767494180114,
,,,,53.0,5.0,4.0,,,,,,,,,,,,,gelb,red,r,0.0,r,1.0,0.516688667004928,,,,,,,,,,4.0,5.0,53.0,8.0,263.87729254199803,,,,,,,,,,,,,,,,,263.86810404199787,264.6647732499987,265.4581992500025,265.44776337499934,,,,,,,,,,,,,,,,,,,,,,,,,,,,,,,,,,,265.44829241700063,265.4581992500025,265.4581992500025,265.9775749170003,r,1.0,0.516688667004928,,,,,,sub-160,1,stroop_test,119.33767494180114,
,,,,54.0,6.0,4.0,,,,,,,,,,,,,blau,yellow,g,0.0,g,1.0,0.4608340830018278,,,,,,,,,,4.0,6.0,54.0,7.0,265.9863674169974,,,,,,,,,,,,,,,,,265.9780484579969,267.175223708,267.9703603329981,267.95910000000003,,,,,,,,,,,,,,,,,,,,,,,,,,,,,,,,,,,267.96300762499595,267.9703603329981,267.9703603329981,268.4331879579986,g,1.0,0.4608340830018278,,,,,,sub-160,1,stroop_test,119.33767494180114,
,,,,55.0,7.0,4.0,,,,,,,,,,,,,rot,red,r,1.0,r,1.0,0.5539949999947567,,,,,,,,,,4.0,7.0,55.0,1.0,268.4416339169984,,,,,,,,,,,,,,,,,268.4335969169988,268.5306779579987,269.3253289170025,269.31437091699627,,,,,,,,,,,,,,,,,,,,,,,,,,,,,,,,,,,269.317807792002,269.3253289170025,269.3253289170025,269.8830749580011,r,1.0,0.5539949999947567,,,,,,sub-160,1,stroop_test,119.33767494180114,
,,,,56.0,8.0,4.0,,,,,,,,,,,,,blau,red,r,0.0,r,1.0,0.8561833330022637,,,,,,,,,,4.0,8.0,56.0,4.0,269.89205779199983,,,,,,,,,,,,,,,,,269.8835146670026,270.2315729999973,271.03657812500023,271.02590654199594,,,,,,,,,,,,,,,,,,,,,,,,,,,,,,,,,,,271.0292691249997,271.03657812500023,271.03657812500023,271.90109691699763,r,1.0,0.8561833330022637,,,,,,sub-160,1,stroop_test,119.33767494180114,
,,,,57.0,9.0,4.0,,,,,,,,,,,,,blau,blue,b,1.0,b,1.0,0.576062334002927,,,,,,,,,,4.0,9.0,57.0,6.0,271.9110109579997,,,,,,,,,,,,,,,,,271.9015145000012,272.2497565829981,273.0503145830007,273.04248045799613,,,,,,,,,,,,,,,,,,,,,,,,,,,,,,,,,,,273.0431194999983,273.0503145830007,273.0503145830007,273.63276524999674,b,1.0,0.576062334002927,,,,,,sub-160,1,stroop_test,119.33767494180114,
,,,,58.0,10.0,4.0,,,,,,,,,,,,,gelb,blue,b,0.0,b,1.0,0.3789250840054592,,,,,,,,,,4.0,10.0,58.0,9.0,273.64137004200165,,,,,,,,,,,,,,,,,273.63320133299567,273.98191266699723,274.78622262499994,274.77601033300016,,,,,,,,,,,,,,,,,,,,,,,,,,,,,,,,,,,274.7794937079961,274.78622262499994,274.78622262499994,275.1672037499957,b,1.0,0.3789250840054592,,,,,,sub-160,1,stroop_test,119.33767494180114,
,,,,59.0,11.0,4.0,,,,,,,,,,,,,blau,blue,b,1.0,b,1.0,0.5114993749957648,,,,,,,,,,4.0,11.0,59.0,5.0,275.1922564580018,,,,,,,,,,,,,,,,,275.1676166670004,276.36585520800145,277.1708403750017,277.1593731249959,,,,,,,,,,,,,,,,,,,,,,,,,,,,,,,,,,,277.1636844579989,277.1708403750017,277.1708403750017,277.69307583299815,b,1.0,0.5114993749957648,,,,,,sub-160,1,stroop_test,119.33767494180114,
,,,,60.0,0.0,5.0,,,,,,,,,,,,,blau,red,r,0.0,r,1.0,0.918543874999159,,,,,,,,,,5.0,0.0,60.0,4.0,277.6980547919957,,,,,,,,,,,,,,,,,277.6935187920026,278.49182774999645,279.2843779579998,279.276327749998,,,,,,,,,,,,,,,,,,,,,,,,,,,,,,,,,,,279.2770862920006,279.2843779579998,279.2843779579998,280.21049791699625,r,1.0,0.918543874999159,,,,,,sub-160,1,stroop_test,119.33767494180114,
,,,,61.0,1.0,5.0,,,,,,,,,,,,,rot,blue,b,0.0,b,1.0,0.7048044590046629,,,,,,,,,,5.0,1.0,61.0,2.0,280.21952345799946,,,,,,,,,,,,,,,,,280.2109309169973,280.55879099999584,281.3543409580016,281.3429088749981,,,,,,,,,,,,,,,,,,,,,,,,,,,,,,,,,,,281.3467522919964,281.3543409580016,281.3543409580016,282.0617525830021,b,1.0,0.7048044590046629,,,,,,sub-160,1,stroop_test,119.33767494180114,
,,,,62.0,2.0,5.0,,,,,,,,,,,,,gelb,red,r,0.0,r,1.0,0.4786782080045668,,,,,,,,,,5.0,2.0,62.0,8.0,282.0720217499984,,,,,,,,,,,,,,,,,282.06245258299896,283.2589736250011,284.05478833300003,284.04287425000075,,,,,,,,,,,,,,,,,,,,,,,,,,,,,,,,,,,284.04729087500164,284.05478833300003,284.05478833300003,284.5443973750007,r,1.0,0.4786782080045668,,,,,,sub-160,1,stroop_test,119.33767494180114,
,,,,63.0,3.0,5.0,,,,,,,,,,,,,blau,yellow,g,0.0,g,1.0,0.4918429579993244,,,,,,,,,,5.0,3.0,63.0,7.0,284.55346758299856,,,,,,,,,,,,,,,,,284.54484175000107,285.34201920800115,286.13647070799925,286.12585783300165,,,,,,,,,,,,,,,,,,,,,,,,,,,,,,,,,,,286.1292127920024,286.13647070799925,286.13647070799925,286.6336198749996,g,1.0,0.4918429579993244,,,,,,sub-160,1,stroop_test,119.33767494180114,
,,,,64.0,4.0,5.0,,,,,,,,,,,,,gelb,yellow,g,1.0,g,1.0,0.3736210420029238,,,,,,,,,,5.0,4.0,64.0,10.0,286.6586793749957,,,,,,,,,,,,,,,,,286.63414887499675,287.4322043329957,288.2419375829995,288.2157525829971,,,,,,,,,,,,,,,,,,,,,,,,,,,,,,,,,,,288.21914112500235,288.2419375829995,288.2419375829995,288.6173721250016,g,1.0,0.3736210420029238,,,,,,sub-160,1,stroop_test,119.33767494180114,
,,,,65.0,5.0,5.0,,,,,,,,,,,,,blau,blue,b,1.0,r,0.0,0.4896576250030193,,,,,,,,,,5.0,5.0,65.0,6.0,288.642033958,,,,,,,,,,,,,,,,,288.6178077919976,289.8156997920014,290.6117174579995,290.5993778330012,,,,,,,,,,,,,,,,,,,,,,,,,,,,,,,,,,,290.6040040829976,290.6117174579995,290.6117174579995,291.1104496670014,r,0.0,0.4896576250030193,,,,,,sub-160,1,stroop_test,119.33767494180114,
,,,,66.0,6.0,5.0,,,,,,,,,,,,,rot,red,r,1.0,r,1.0,0.5558243339983164,,,,,,,,,,5.0,6.0,66.0,1.0,291.11935470799654,,,,,,,,,,,,,,,,,291.1108712080022,291.90905733299587,292.70379312500154,292.6928473750013,,,,,,,,,,,,,,,,,,,,,,,,,,,,,,,,,,,292.6961932080012,292.70379312500154,292.70379312500154,293.2675085419978,r,1.0,0.5558243339983164,,,,,,sub-160,1,stroop_test,119.33767494180114,
,,,,67.0,7.0,5.0,,,,,,,,,,,,,rot,red,r,1.0,r,1.0,0.5386461669986602,,,,,,,,,,5.0,7.0,67.0,0.0,293.29252920799627,,,,,,,,,,,,,,,,,293.2679220419959,294.4660187920017,295.2673347079981,295.2598212919984,,,,,,,,,,,,,,,,,,,,,,,,,,,,,,,,,,,295.26046925000264,295.2673347079981,295.2673347079981,295.81074237499706,r,1.0,0.5386461669986602,,,,,,sub-160,1,stroop_test,119.33767494180114,
,,,,68.0,8.0,5.0,,,,,,,,,,,,,gelb,yellow,g,1.0,g,1.0,0.5427585830038879,,,,,,,,,,5.0,8.0,68.0,11.0,295.81646270799683,,,,,,,,,,,,,,,,,295.8111698749999,297.0093488330021,297.805470416999,297.7932234580003,,,,,,,,,,,,,,,,,,,,,,,,,,,,,,,,,,,297.79800299999624,297.805470416999,297.805470416999,298.3504773329987,g,1.0,0.5427585830038879,,,,,,sub-160,1,stroop_test,119.33767494180114,
,,,,69.0,9.0,5.0,,,,,,,,,,,,,blau,blue,b,1.0,b,1.0,0.5471817920042668,,,,,,,,,,5.0,9.0,69.0,5.0,298.375895707999,,,,,,,,,,,,,,,,,298.35089754199726,298.6997255000024,299.5042939999985,299.4931707079959,,,,,,,,,,,,,,,,,,,,,,,,,,,,,,,,,,,299.4970335420003,299.5042939999985,299.5042939999985,300.061480999997,b,1.0,0.5471817920042668,,,,,,sub-160,1,stroop_test,119.33767494180114,
,,,,70.0,10.0,5.0,,,,,,,,,,,,,rot,yellow,g,0.0,g,1.0,0.5735629999981029,,,,,,,,,,5.0,10.0,70.0,3.0,300.0706324580024,,,,,,,,,,,,,,,,,300.0619220829976,300.85928708299616,301.65427633299987,301.6433209579991,,,,,,,,,,,,,,,,,,,,,,,,,,,,,,,,,,,301.6469167079995,301.65427633299987,301.65427633299987,302.2338673749982,g,1.0,0.5735629999981029,,,,,,sub-160,1,stroop_test,119.33767494180114,
,,,,71.0,11.0,5.0,,,,,,,,,,,,,gelb,blue,b,0.0,b,1.0,0.4794341669985442,,,,,,,,,,5.0,11.0,71.0,9.0,302.2595227920028,,,,,,,,,,,,,,,,,302.23428749999584,303.0326662919979,303.8353284999976,303.82653179200133,,,,,,,,,,,,,,,,,,,,,,,,,,,,,,,,,,,303.82947183299984,303.8353284999976,303.8353284999976,304.3175432919961,b,1.0,0.4794341669985442,,,,,,sub-160,1,stroop_test,119.33767494180114,
,,,,72.0,0.0,6.0,,,,,,,,,,,,,gelb,blue,b,0.0,b,1.0,0.4936044999994919,,,,,,,,,,6.0,0.0,72.0,9.0,304.342612708002,,,,,,,,,,,,,,,,,304.3180352080017,304.41462691700144,305.2088720000029,305.1987127079992,,,,,,,,,,,,,,,,,,,,,,,,,,,,,,,,,,,305.19946424999944,305.2088720000029,305.2088720000029,305.71101195799565,b,1.0,0.4936044999994919,,,,,,sub-160,1,stroop_test,119.33767494180114,
,,,,73.0,1.0,6.0,,,,,,,,,,,,,gelb,yellow,g,1.0,g,1.0,0.50468954200187,,,,,,,,,,6.0,1.0,73.0,11.0,305.7201468330022,,,,,,,,,,,,,,,,,305.7114608330012,305.80948295800044,306.6007959999988,306.5932147919957,,,,,,,,,,,,,,,,,,,,,,,,,,,,,,,,,,,306.5938962079963,306.6007959999988,306.6007959999988,307.1116326670017,g,1.0,0.50468954200187,,,,,,sub-160,1,stroop_test,119.33767494180114,
,,,,74.0,2.0,6.0,,,,,,,,,,,,,rot,yellow,g,0.0,g,1.0,0.3950899170013144,,,,,,,,,,6.0,2.0,74.0,3.0,307.1208130829982,,,,,,,,,,,,,,,,,307.112063499997,307.4595550000013,308.25505070800136,308.2432151249959,,,,,,,,,,,,,,,,,,,,,,,,,,,,,,,,,,,308.2475658330004,308.25505070800136,308.25505070800136,308.6608092079987,g,1.0,0.3950899170013144,,,,,,sub-160,1,stroop_test,119.33767494180114,
,,,,75.0,3.0,6.0,,,,,,,,,,,,,rot,red,r,1.0,r,1.0,0.3383069999981671,,,,,,,,,,6.0,3.0,75.0,0.0,308.6698870420005,,,,,,,,,,,,,,,,,308.66125154199835,309.0092087500016,309.80149195800186,309.7933165419963,,,,,,,,,,,,,,,,,,,,,,,,,,,,,,,,,,,309.7939689170016,309.80149195800186,309.80149195800186,310.1448576249968,r,1.0,0.3383069999981671,,,,,,sub-160,1,stroop_test,119.33767494180114,
,,,,76.0,4.0,6.0,,,,,,,,,,,,,blau,blue,b,1.0,b,1.0,0.5117340830038302,,,,,,,,,,6.0,4.0,76.0,5.0,310.15382208299707,,,,,,,,,,,,,,,,,310.1453892080026,310.4927857079965,311.28756849999627,311.2768843750018,,,,,,,,,,,,,,,,,,,,,,,,,,,,,,,,,,,311.28031141700194,311.28756849999627,311.28756849999627,311.8019771670006,b,1.0,0.5117340830038302,,,,,,sub-160,1,stroop_test,119.33767494180114,
,,,,77.0,5.0,6.0,,,,,,,,,,,,,gelb,yellow,g,1.0,g,1.0,0.4665280839981278,,,,,,,,,,6.0,5.0,77.0,10.0,311.8115931249995,,,,,,,,,,,,,,,,,311.8025354170022,311.8985070830022,312.69494683299854,312.6822390000016,,,,,,,,,,,,,,,,,,,,,,,,,,,,,,,,,,,312.68687099999806,312.69494683299854,312.69494683299854,313.16787020800257,g,1.0,0.4665280839981278,,,,,,sub-160,1,stroop_test,119.33767494180114,
,,,,78.0,6.0,6.0,,,,,,,,,,,,,rot,red,r,1.0,r,1.0,0.5141108329989947,,,,,,,,,,6.0,6.0,78.0,1.0,313.1779484169965,,,,,,,,,,,,,,,,,313.1683932500018,313.2653611249989,314.05930962500133,314.0487480829979,,,,,,,,,,,,,,,,,,,,,,,,,,,,,,,,,,,314.0521357920006,314.05930962500133,314.05930962500133,314.578484083002,r,1.0,0.5141108329989947,,,,,,sub-160,1,stroop_test,119.33767494180114,
,,,,79.0,7.0,6.0,,,,,,,,,,,,,rot,blue,b,0.0,b,1.0,0.6665153329959139,,,,,,,,,,6.0,7.0,79.0,2.0,314.5878483330016,,,,,,,,,,,,,,,,,314.5790227920006,314.6762872920008,315.46806841700163,315.4602548749972,,,,,,,,,,,,,,,,,,,,,,,,,,,,,,,,,,,315.4608712920017,315.46806841700163,315.46806841700163,316.1447574999984,b,1.0,0.6665153329959139,,,,,,sub-160,1,stroop_test,119.33767494180114,
,,,,80.0,8.0,6.0,,,,,,,,,,,,,blau,red,r,0.0,r,1.0,0.7951909999974305,,,,,,,,,,6.0,8.0,80.0,4.0,316.1538428330023,,,,,,,,,,,,,,,,,316.1451967920002,317.34300449999864,318.13862012499885,318.1270904999983,,,,,,,,,,,,,,,,,,,,,,,,,,,,,,,,,,,318.13105095799983,318.13862012499885,318.13862012499885,318.9446207919973,r,1.0,0.7951909999974305,,,,,,sub-160,1,stroop_test,119.33767494180114,
,,,,81.0,9.0,6.0,,,,,,,,,,,,,gelb,red,r,0.0,r,1.0,0.4643239580036606,,,,,,,,,,6.0,9.0,81.0,8.0,318.95367345799605,,,,,,,,,,,,,,,,,318.9450577919997,319.0427847499959,319.8375350830029,319.82662258300115,,,,,,,,,,,,,,,,,,,,,,,,,,,,,,,,,,,319.83031316699635,319.8375350830029,319.8375350830029,320.31149608299893,r,1.0,0.4643239580036606,,,,,,sub-160,1,stroop_test,119.33767494180114,
,,,,82.0,10.0,6.0,,,,,,,,,,,,,blau,yellow,g,0.0,g,1.0,0.5225630420027301,,,,,,,,,,6.0,10.0,82.0,7.0,320.32060379200266,,,,,,,,,,,,,,,,,320.3120450830029,320.4094722919981,321.204625792001,321.1935458329972,,,,,,,,,,,,,,,,,,,,,,,,,,,,,,,,,,,321.1973054580012,321.204625792001,321.204625792001,321.734877875002,g,1.0,0.5225630420027301,,,,,,sub-160,1,stroop_test,119.33767494180114,
,,,,83.0,11.0,6.0,,,,,,,,,,,,,blau,blue,b,1.0,b,1.0,0.5200287909974577,,,,,,,,,,6.0,11.0,83.0,6.0,321.7450223749984,,,,,,,,,,,,,,,,,321.7353047919969,321.8323137080006,322.62581258299906,322.6154624580013,,,,,,,,,,,,,,,,,,,,,,,,,,,,,,,,,,,322.61611312499736,322.62581258299906,322.62581258299906,323.1504329579984,b,1.0,0.5200287909974577,,,,,,sub-160,1,stroop_test,119.33767494180114,
,,,,84.0,0.0,7.0,,,,,,,,,,,,,blau,blue,b,1.0,b,1.0,0.4915491670035408,,,,,,,,,,7.0,0.0,84.0,5.0,323.1595402919993,,,,,,,,,,,,,,,,,323.1508594580009,323.94957183299994,324.7518962920003,324.7439966250022,,,,,,,,,,,,,,,,,,,,,,,,,,,,,,,,,,,324.74463404199923,324.7518962920003,324.7518962920003,325.255442499998,b,1.0,0.4915491670035408,,,,,,sub-160,1,stroop_test,119.33767494180114,
,,,,85.0,1.0,7.0,,,,,,,,,,,,,gelb,blue,b,0.0,b,1.0,0.5637299589943723,,,,,,,,,,7.0,1.0,85.0,9.0,325.2619787079966,,,,,,,,,,,,,,,,,325.25586033299624,325.59973487500247,326.4047974580026,326.3936032920028,,,,,,,,,,,,,,,,,,,,,,,,,,,,,,,,,,,326.39744658299605,326.4047974580026,326.4047974580026,326.9785008749968,b,1.0,0.5637299589943723,,,,,,sub-160,1,stroop_test,119.33767494180114,
,,,,86.0,2.0,7.0,,,,,,,,,,,,,blau,red,r,0.0,r,1.0,0.5560493329976453,,,,,,,,,,7.0,2.0,86.0,4.0,326.987610958,,,,,,,,,,,,,,,,,326.9789521670027,327.07596933299646,327.8733329999959,327.8606533330021,,,,,,,,,,,,,,,,,,,,,,,,,,,,,,,,,,,327.8657896250006,327.8733329999959,327.8733329999959,328.4352969579995,r,1.0,0.5560493329976453,,,,,,sub-160,1,stroop_test,119.33767494180114,
,,,,87.0,3.0,7.0,,,,,,,,,,,,,gelb,yellow,g,1.0,g,1.0,0.3719996250001713,,,,,,,,,,7.0,3.0,87.0,10.0,328.4455381250009,,,,,,,,,,,,,,,,,328.43580374999874,329.23346483299974,330.03805566699884,330.0272495419995,,,,,,,,,,,,,,,,,,,,,,,,,,,,,,,,,,,330.0307800419978,330.03805566699884,330.03805566699884,330.41278158299974,g,1.0,0.3719996250001713,,,,,,sub-160,1,stroop_test,119.33767494180114,
,,,,88.0,4.0,7.0,,,,,,,,,,,,,rot,red,r,1.0,r,1.0,0.5138483750051819,,,,,,,,,,7.0,4.0,88.0,1.0,330.4226710829971,,,,,,,,,,,,,,,,,330.41335504200106,330.7595288329976,331.556053332999,331.544192207999,,,,,,,,,,,,,,,,,,,,,,,,,,,,,,,,,,,331.54836675000115,331.556053332999,331.556053332999,332.0786174579989,r,1.0,0.5138483750051819,,,,,,sub-160,1,stroop_test,119.33767494180114,
,,,,89.0,5.0,7.0,,,,,,,,,,,,,gelb,yellow,g,1.0,g,1.0,0.4183599999960279,,,,,,,,,,7.0,5.0,89.0,11.0,332.0887050419988,,,,,,,,,,,,,,,,,332.07929629200225,332.4265827920026,333.22206633300084,333.21056554200186,,,,,,,,,,,,,,,,,,,,,,,,,,,,,,,,,,,333.2148526250021,333.22206633300084,333.22206633300084,333.64555216699955,g,1.0,0.4183599999960279,,,,,,sub-160,1,stroop_test,119.33767494180114,
,,,,90.0,6.0,7.0,,,,,,,,,,,,,blau,blue,b,1.0,b,1.0,0.3994614170005661,,,,,,,,,,7.0,6.0,90.0,6.0,333.6542843330026,,,,,,,,,,,,,,,,,333.64605825000035,333.74272208299953,334.53787708299933,334.52730699999665,,,,,,,,,,,,,,,,,,,,,,,,,,,,,,,,,,,334.53065212500223,334.53787708299933,334.53787708299933,334.9454461669957,b,1.0,0.3994614170005661,,,,,,sub-160,1,stroop_test,119.33767494180114,
,,,,91.0,7.0,7.0,,,,,,,,,,,,,blau,yellow,g,0.0,g,1.0,0.7444567919956171,,,,,,,,,,7.0,7.0,91.0,7.0,334.95525949999865,,,,,,,,,,,,,,,,,334.9458740420014,335.29341029199713,336.0854022499989,336.07718212500185,,,,,,,,,,,,,,,,,,,,,,,,,,,,,,,,,,,336.0779771250018,336.0854022499989,336.0854022499989,336.83367270800227,g,1.0,0.7444567919956171,,,,,,sub-160,1,stroop_test,119.33767494180114,
,,,,92.0,8.0,7.0,,,,,,,,,,,,,rot,blue,b,0.0,b,1.0,0.4080593750040862,,,,,,,,,,7.0,8.0,92.0,2.0,336.8428197920002,,,,,,,,,,,,,,,,,336.8341072080002,337.6336872920001,338.4378552920025,338.42737441699865,,,,,,,,,,,,,,,,,,,,,,,,,,,,,,,,,,,338.43065862500225,338.4378552920025,338.4378552920025,338.85109041699616,b,1.0,0.4080593750040862,,,,,,sub-160,1,stroop_test,119.33767494180114,
,,,,93.0,9.0,7.0,,,,,,,,,,,,,rot,yellow,g,0.0,g,1.0,0.5239947500012931,,,,,,,,,,7.0,9.0,93.0,3.0,338.8597523330027,,,,,,,,,,,,,,,,,338.8515224579969,340.0502050829964,340.8522814169992,340.8441075829978,,,,,,,,,,,,,,,,,,,,,,,,,,,,,,,,,,,340.8447547079995,340.8522814169992,340.8522814169992,341.37881087500136,g,1.0,0.5239947500012931,,,,,,sub-160,1,stroop_test,119.33767494180114,
,,,,94.0,10.0,7.0,,,,,,,,,,,,,gelb,red,r,0.0,r,1.0,0.3631796249974286,,,,,,,,,,7.0,10.0,94.0,8.0,341.3870451249968,,,,,,,,,,,,,,,,,341.37925299999915,341.72676362499624,342.5234727499992,342.5106760830022,,,,,,,,,,,,,,,,,,,,,,,,,,,,,,,,,,,342.5161367920009,342.5234727499992,342.5234727499992,342.89521166699706,r,1.0,0.3631796249974286,,,,,,sub-160,1,stroop_test,119.33767494180114,
,,,,95.0,11.0,7.0,,,,,,,,,,,,,rot,red,r,1.0,r,1.0,0.4968029999945429,,,,,,,,,,7.0,11.0,95.0,0.0,342.90432249999867,,,,,,,,,,,,,,,,,342.89564795800106,343.693232083002,344.48961379200045,344.47746149999875,,,,,,,,,,,,,,,,,,,,,,,,,,,,,,,,,,,344.4820069580019,344.48961379200045,344.48961379200045,344.995344707997,r,1.0,0.4968029999945429,,,,,,sub-160,1,stroop_test,119.33767494180114,
,,,,96.0,0.0,8.0,,,,,,,,,,,,,rot,red,r,1.0,r,1.0,0.5194807500010938,,,,,,,,,,8.0,0.0,96.0,0.0,345.0044842080024,,,,,,,,,,,,,,,,,344.99578024999937,346.1935156670006,346.98572691700247,346.97762479200173,,,,,,,,,,,,,,,,,,,,,,,,,,,,,,,,,,,346.9783172500029,346.98572691700247,346.98572691700247,347.5123200829985,r,1.0,0.5194807500010938,,,,,,sub-160,1,stroop_test,119.33767494180114,
,,,,97.0,1.0,8.0,,,,,,,,,,,,,gelb,blue,b,0.0,b,1.0,0.3509369579987833,,,,,,,,,,8.0,1.0,97.0,9.0,347.5214784999989,,,,,,,,,,,,,,,,,347.51283087499905,348.31035529200017,349.105341458002,349.0940899999987,,,,,,,,,,,,,,,,,,,,,,,,,,,,,,,,,,,349.0979889169976,349.105341458002,349.105341458002,349.46248045800166,b,1.0,0.3509369579987833,,,,,,sub-160,1,stroop_test,119.33767494180114,
,,,,98.0,2.0,8.0,,,,,,,,,,,,,blau,blue,b,1.0,b,1.0,0.4319414169949596,,,,,,,,,,8.0,2.0,98.0,6.0,349.47186020799563,,,,,,,,,,,,,,,,,349.4630511669966,349.8103357500004,350.606496417,350.5943520419969,,,,,,,,,,,,,,,,,,,,,,,,,,,,,,,,,,,350.59892829199816,350.606496417,350.606496417,351.04589045800094,b,1.0,0.4319414169949596,,,,,,sub-160,1,stroop_test,119.33767494180114,
,,,,99.0,3.0,8.0,,,,,,,,,,,,,gelb,yellow,g,1.0,g,1.0,0.3680602079984965,,,,,,,,,,8.0,3.0,99.0,11.0,351.05534262499714,,,,,,,,,,,,,,,,,351.0464187920006,352.243802332996,353.038270291996,353.0274575829972,,,,,,,,,,,,,,,,,,,,,,,,,,,,,,,,,,,353.0312372080007,353.038270291996,353.038270291996,353.412373207997,g,1.0,0.3680602079984965,,,,,,sub-160,1,stroop_test,119.33767494180114,
,,,,100.0,4.0,8.0,,,,,,,,,,,,,gelb,red,r,0.0,r,1.0,0.5115176670005894,,,,,,,,,,8.0,4.0,100.0,8.0,353.4217379999973,,,,,,,,,,,,,,,,,353.4129024579961,354.210533999998,355.00229874999786,354.9942709169991,,,,,,,,,,,,,,,,,,,,,,,,,,,,,,,,,,,354.9949099169972,355.00229874999786,355.00229874999786,355.5184966250017,r,1.0,0.5115176670005894,,,,,,sub-160,1,stroop_test,119.33767494180114,
,,,,101.0,5.0,8.0,,,,,,,,,,,,,blau,yellow,g,0.0,g,1.0,0.5515319580008509,,,,,,,,,,8.0,5.0,101.0,7.0,355.5434440829995,,,,,,,,,,,,,,,,,355.51895016699564,355.8666884170016,356.6605458749982,356.6497755419987,,,,,,,,,,,,,,,,,,,,,,,,,,,,,,,,,,,356.653279416998,356.6605458749982,356.6605458749982,357.2191302499996,g,1.0,0.5515319580008509,,,,,,sub-160,1,stroop_test,119.33767494180114,
,,,,102.0,6.0,8.0,,,,,,,,,,,,,gelb,yellow,g,1.0,g,1.0,0.6616751670007943,,,,,,,,,,8.0,6.0,102.0,10.0,357.2285647079989,,,,,,,,,,,,,,,,,357.2196554580005,357.31933299999946,358.1230468329959,358.11130637500173,,,,,,,,,,,,,,,,,,,,,,,,,,,,,,,,,,,358.1157877919977,358.1230468329959,358.1230468329959,358.7957583749958,g,1.0,0.6616751670007943,,,,,,sub-160,1,stroop_test,119.33767494180114,
,,,,103.0,7.0,8.0,,,,,,,,,,,,,blau,blue,b,1.0,b,1.0,0.439031875001092,,,,,,,,,,8.0,7.0,103.0,5.0,358.80533487499633,,,,,,,,,,,,,,,,,358.79629620799824,359.9935949169958,360.7883185419996,360.7777628749973,,,,,,,,,,,,,,,,,,,,,,,,,,,,,,,,,,,360.78107179200015,360.7883185419996,360.7883185419996,361.2297498330008,b,1.0,0.439031875001092,,,,,,sub-160,1,stroop_test,119.33767494180114,
,,,,104.0,8.0,8.0,,,,,,,,,,,,,rot,yellow,g,0.0,g,1.0,0.6669652920027147,,,,,,,,,,8.0,8.0,104.0,3.0,361.238887624997,,,,,,,,,,,,,,,,,361.2302617079986,361.5772373329965,362.3730952499973,362.3611864999984,,,,,,,,,,,,,,,,,,,,,,,,,,,,,,,,,,,362.3654984999957,362.3730952499973,362.3730952499973,363.0462544999973,g,1.0,0.6669652920027147,,,,,,sub-160,1,stroop_test,119.33767494180114,
,,,,105.0,9.0,8.0,,,,,,,,,,,,,rot,red,r,1.0,r,1.0,0.4937965409990283,,,,,,,,,,8.0,9.0,105.0,1.0,363.05556554199575,,,,,,,,,,,,,,,,,363.0468081250001,363.8441944169972,364.6353567920014,364.62778462500137,,,,,,,,,,,,,,,,,,,,,,,,,,,,,,,,,,,364.6284681249963,364.6353567920014,364.6353567920014,365.1361453330028,r,1.0,0.4937965409990283,,,,,,sub-160,1,stroop_test,119.33767494180114,
,,,,106.0,10.0,8.0,,,,,,,,,,,,,rot,blue,b,0.0,b,1.0,0.5708564579981612,,,,,,,,,,8.0,10.0,106.0,2.0,365.14575529199647,,,,,,,,,,,,,,,,,365.13658466700144,365.934333792,366.7360279580025,366.7279411670024,,,,,,,,,,,,,,,,,,,,,,,,,,,,,,,,,,,366.7285766249988,366.7360279580025,366.7360279580025,367.312974667002,b,1.0,0.5708564579981612,,,,,,sub-160,1,stroop_test,119.33767494180114,
,,,,107.0,11.0,8.0,,,,,,,,,,,,,blau,red,r,0.0,r,1.0,0.6398609579991898,,,,,,,,,,8.0,11.0,107.0,4.0,367.322234457999,,,,,,,,,,,,,,,,,367.313518582996,368.5104543330017,369.3058693330022,369.2945863749992,,,,,,,,,,,,,,,,,,,,,,,,,,,,,,,,,,,369.2985127080028,369.3058693330022,369.3058693330022,369.9520962500028,r,1.0,0.6398609579991898,,,,,,sub-160,1,stroop_test,119.33767494180114,
,,,,108.0,0.0,9.0,,,,,,,,,,,,,rot,blue,b,0.0,b,1.0,0.5732718750005006,,,,,,,,,,9.0,0.0,108.0,2.0,369.97698637499707,,,,,,,,,,,,,,,,,369.9525235830006,370.3010325419964,371.1054960420006,371.094670749997,,,,,,,,,,,,,,,,,,,,,,,,,,,,,,,,,,,371.0985001669978,371.1054960420006,371.1054960420006,371.6854138330018,b,1.0,0.5732718750005006,,,,,,sub-160,1,stroop_test,119.33767494180114,
,,,,109.0,1.0,9.0,,,,,,,,,,,,,rot,red,r,1.0,r,1.0,0.5706395840024925,,,,,,,,,,9.0,1.0,109.0,1.0,371.710462832998,,,,,,,,,,,,,,,,,371.6859481669962,371.776799291998,372.5692965830021,372.5612856250009,,,,,,,,,,,,,,,,,,,,,,,,,,,,,,,,,,,372.5619190829966,372.5692965830021,372.5692965830021,373.1464446249957,r,1.0,0.5706395840024925,,,,,,sub-160,1,stroop_test,119.33767494180114,
,,,,110.0,2.0,9.0,,,,,,,,,,,,,gelb,yellow,g,1.0,g,1.0,0.4961305420001736,,,,,,,,,,9.0,2.0,110.0,11.0,373.15649300000223,,,,,,,,,,,,,,,,,373.1471401250019,374.3442713749973,375.1405695419962,375.1283152079996,,,,,,,,,,,,,,,,,,,,,,,,,,,,,,,,,,,375.1329456250023,375.1405695419962,375.1405695419962,375.6461724580004,g,1.0,0.4961305420001736,,,,,,sub-160,1,stroop_test,119.33767494180114,
,,,,111.0,3.0,9.0,,,,,,,,,,,,,gelb,yellow,g,1.0,g,1.0,0.3798315829990315,,,,,,,,,,9.0,3.0,111.0,10.0,375.6557219579991,,,,,,,,,,,,,,,,,375.64671220799937,375.9942378749984,376.78552116699575,376.7778473329963,,,,,,,,,,,,,,,,,,,,,,,,,,,,,,,,,,,376.778516958002,376.78552116699575,376.78552116699575,377.1683264169988,g,1.0,0.3798315829990315,,,,,,sub-160,1,stroop_test,119.33767494180114,
,,,,112.0,4.0,9.0,,,,,,,,,,,,,rot,red,r,1.0,r,1.0,0.4526483329973416,,,,,,,,,,9.0,4.0,112.0,0.0,377.1769880829961,,,,,,,,,,,,,,,,,377.1687359999996,377.26779754200106,378.0751089170008,378.0618195419957,,,,,,,,,,,,,,,,,,,,,,,,,,,,,,,,,,,378.0674044999978,378.0751089170008,378.0751089170008,378.5301605420027,r,1.0,0.4526483329973416,,,,,,sub-160,1,stroop_test,119.33767494180114,
,,,,113.0,5.0,9.0,,,,,,,,,,,,,blau,blue,b,1.0,b,1.0,0.3403564170002937,,,,,,,,,,9.0,5.0,113.0,5.0,378.5394357920013,,,,,,,,,,,,,,,,,378.53068129200255,378.8775302079957,379.6735819999958,379.6613964170028,,,,,,,,,,,,,,,,,,,,,,,,,,,,,,,,,,,379.6659420829965,379.6735819999958,379.6735819999958,380.019394582996,b,1.0,0.3403564170002937,,,,,,sub-160,1,stroop_test,119.33767494180114,
,,,,114.0,6.0,9.0,,,,,,,,,,,,,blau,red,r,0.0,r,1.0,0.8743787080020411,,,,,,,,,,9.0,6.0,114.0,4.0,380.030014457996,,,,,,,,,,,,,,,,,380.0199175000016,380.3677642920011,381.16927283300174,381.1615482499983,,,,,,,,,,,,,,,,,,,,,,,,,,,,,,,,,,,381.16219974999694,381.16927283300174,381.16927283300174,382.0458699169976,r,1.0,0.8743787080020411,,,,,,sub-160,1,stroop_test,119.33767494180114,
,,,,115.0,7.0,9.0,,,,,,,,,,,,,blau,yellow,g,0.0,g,1.0,0.3786194169952068,,,,,,,,,,9.0,7.0,115.0,7.0,382.0515454580018,,,,,,,,,,,,,,,,,382.0462824999995,382.1442965000024,382.9358679169964,382.9282795420004,,,,,,,,,,,,,,,,,,,,,,,,,,,,,,,,,,,382.928914791999,382.9358679169964,382.9358679169964,383.3190580419978,g,1.0,0.3786194169952068,,,,,,sub-160,1,stroop_test,119.33767494180114,
,,,,116.0,8.0,9.0,,,,,,,,,,,,,gelb,red,r,0.0,r,1.0,0.6032242079963908,,,,,,,,,,9.0,8.0,116.0,8.0,383.3439457080021,,,,,,,,,,,,,,,,,383.3194850829968,384.1165710420028,384.912687707998,384.90172787499614,,,,,,,,,,,,,,,,,,,,,,,,,,,,,,,,,,,384.9055080420003,384.912687707998,384.912687707998,385.5195693330024,r,1.0,0.6032242079963908,,,,,,sub-160,1,stroop_test,119.33767494180114,
,,,,117.0,9.0,9.0,,,,,,,,,,,,,gelb,blue,b,0.0,b,1.0,0.4582527500024298,,,,,,,,,,9.0,9.0,117.0,9.0,385.5295851670016,,,,,,,,,,,,,,,,,385.5200776249985,386.31805816700216,387.1196395829975,387.11169487499865,,,,,,,,,,,,,,,,,,,,,,,,,,,,,,,,,,,387.11233199999697,387.1196395829975,387.1196395829975,387.5802994999976,b,1.0,0.4582527500024298,,,,,,sub-160,1,stroop_test,119.33767494180114,
,,,,118.0,10.0,9.0,,,,,,,,,,,,,rot,yellow,g,0.0,g,1.0,0.7182007500014151,,,,,,,,,,9.0,10.0,118.0,3.0,387.58966145799786,,,,,,,,,,,,,,,,,387.5808436669977,387.6777406249967,388.4725398329974,388.4616372919991,,,,,,,,,,,,,,,,,,,,,,,,,,,,,,,,,,,388.465316875001,388.4725398329974,388.4725398329974,389.1967618330018,g,1.0,0.7182007500014151,,,,,,sub-160,1,stroop_test,119.33767494180114,
,,,,119.0,11.0,9.0,,,,,,,,,,,,,blau,blue,b,1.0,b,1.0,0.5555763749944163,,,,,,,,,,9.0,11.0,119.0,6.0,389.2062084999998,,,,,,,,,,,,,,,,,389.19730462499865,390.3945649169982,391.1892730830005,391.1781801249963,,,,,,,,,,,,,,,,,,,,,,,,,,,,,,,,,,,391.18208225000126,391.1892730830005,391.1892730830005,391.7528164999967,b,1.0,0.5555763749944163,,,,,,sub-160,1,stroop_test,119.33767494180114,
,,,,,,,,,,,,,,,,,,,,,,,,,,,,,,,,,,,,,,,,,,,,,,,,,,,,,,,,,,,,,,,,,,,,,,,,,,,,,,,,,,,,,,,,,,,,,,,,,,,,,,391.7530143749973,391.7631352499957,396.76110949999565,396.7516140829976,sub-160,1,stroop_test,119.33767494180114,
