direction,corrAns,thisN,thisTrialN,thisRepN,respDots.keys,respDots.corr,respDots.rt,respDots.duration,randomInstr,respRandomInstr.keys,respRandomInstr.rt,respRandomInstr.duration,practice_trials.thisRepN,practice_trials.thisTrialN,practice_trials.thisN,practice_trials.thisIndex,instr_trials.thisRepN,instr_trials.thisTrialN,instr_trials.thisN,instr_trials.thisIndex,test_trials.thisRepN,test_trials.thisTrialN,test_trials.thisN,test_trials.thisIndex,thisRow.t,notes,general_instruction.started,textGeneralInstr.started,respGeneralInstr.started,general_instruction.stopped,respGeneralInstr.keys,respGeneralInstr.rt,respGeneralInstr.duration,ITI.started,fixcross.started,fixcross.stopped,ITI.stopped,dots.started,backgroundDots.started,stimulusDots.started,respDots.started,dots.stopped,practice_trials.respDots.keys,practice_trials.respDots.corr,practice_trials.respDots.rt,practice_trials.respDots.duration,feedback.started,textFeedback.started,feedback.stopped,textFeedback.stopped,stimulusDots.stopped,info.started,textInfo.started,keyRespInfo.started,info.stopped,keyRespInfo.keys,keyRespInfo.rt,keyRespInfo.duration,test_instruction.started,textTestInstr.started,respTestInstr.started,test_instruction.stopped,respTestInstr.keys,respTestInstr.rt,respTestInstr.duration,random_instruction.started,textRandomInstr.started,respRandomInstr.started,random_instruction.stopped,instr_trials.respRandomInstr.keys,instr_trials.respRandomInstr.rt,instr_trials.respRandomInstr.duration,test_trials.respDots.keys,test_trials.respDots.corr,test_trials.respDots.rt,test_trials.respDots.duration,goodbye.started,textGoodbye.started,goodbye.stopped,participant,session,expName,frameRate,Unnamed: 87
,,,,,,,,,,,,,,,,,,,,,,,,,,,0.013655495000421,0.0421700610004336,0.0421700610004336,161.40868833000013,space,161.31474778099982,,,,,,,,,,,,,,,,,,,,,,,,,,,,,,,,,,,,,,,,,,,,,,,,sub-133,1,random_dot,55.84541715993581,
left,left,0.0,0.0,0.0,left,1.0,2.4387324999997877,,,,,,0.0,0.0,0.0,0.0,,,,,,,,,161.46144459700008,,,,,,,,,161.4452466800003,161.76546363200032,162.5891946820002,162.55796473600003,162.55907620100015,162.5891946820002,162.5891946820002,162.5891946820002,165.03318611500026,left,1.0,2.4387324999997877,,165.0423042790003,165.10592758600023,165.539202681,,,,,,,,,,,,,,,,,,,,,,,,,,,,,,,sub-133,1,random_dot,55.84541715993581,
right,right,1.0,1.0,0.0,right,1.0,1.0837994240000626,,,,,,0.0,1.0,1.0,1.0,,,,,,,,,165.55024824500015,,,,,,,,,165.5403216880004,165.8890539580002,166.69271309600026,166.67571991800014,166.67609171500044,166.69271309600026,166.69271309600026,166.69271309600026,167.78747947600004,right,1.0,1.0837994240000626,,167.78764009500037,167.80073403300003,168.29298075400038,,,,,,,,,,,,,,,,,,,,,,,,,,,,,,,sub-133,1,random_dot,55.84541715993581,
right,right,2.0,0.0,1.0,left,0.0,0.7362342549999994,,,,,,1.0,0.0,2.0,1.0,,,,,,,,,168.30473331800022,,,,,,,,,168.29430015300022,169.4888814380001,170.30241416100034,170.28952850000042,170.28986926000016,170.30241416100034,170.30241416100034,170.30241416100034,171.0496398800001,left,0.0,0.7362342549999994,,171.05661385600024,171.0722151770001,171.560223726,,,,,,,,,,,,,,,,,,,,,,,,,,,,,,,sub-133,1,random_dot,55.84541715993581,
left,left,3.0,1.0,1.0,left,1.0,4.951166478999767,,,,,,1.0,1.0,3.0,0.0,,,,,,,,,171.57332969800018,,,,,,,,,171.561195323,172.35371112400026,173.1633622190002,173.1471928310002,173.1475764200004,173.1633622190002,173.1633622190002,173.1633622190002,178.12556654000036,left,1.0,4.951166478999767,,178.12917709900012,178.1424854220004,178.6364512240002,,,,,,,,,,,,,,,,,,,,,,,,,,,,,,,sub-133,1,random_dot,55.84541715993581,
right,right,4.0,0.0,2.0,right,1.0,3.6414424280001194,,,,,,2.0,0.0,4.0,1.0,,,,,,,,,178.6474393450003,,,,,,,,,178.6374063170001,178.7385374700002,179.54493639700013,179.53072740200014,179.5311078890004,179.54493639700013,179.54493639700013,179.54493639700013,183.1898903180004,right,1.0,3.6414424280001194,,183.19007069500003,183.205338534,183.6900920850003,183.7027493380001,,,,,,,,,,,,,,,,,,,,,,,,,,,,,,sub-133,1,random_dot,55.84541715993581,
left,left,5.0,1.0,2.0,right,0.0,1.7130190020002374,,,,,,2.0,1.0,5.0,0.0,,,,,,,,,183.7027493380001,,,,,,,,,183.69099111900005,184.0436692740004,184.85246146100008,184.83934173900025,184.8397101970004,184.85246146100008,184.85246146100008,184.85246146100008,186.58166869100023,right,0.0,1.7130190020002374,,186.5865332110002,186.59856972100036,187.08466921400031,,,,,,,,,,,,,,,,,,,,,,,,,,,,,,,sub-133,1,random_dot,55.84541715993581,
left,left,6.0,0.0,3.0,left,1.0,4.270629321999877,,,,,,3.0,0.0,6.0,0.0,,,,,,,,,187.0971621360004,,,,,,,,,187.08568639000032,187.43887091900024,188.24855629400008,188.2341740390002,188.23529164,188.24855629400008,188.24855629400008,188.24855629400008,192.53305596100017,left,1.0,4.270629321999877,,192.53754277800044,192.55037645300035,193.0537969250004,,,,,,,,,,,,,,,,,,,,,,,,,,,,,,,sub-133,1,random_dot,55.84541715993581,
right,right,7.0,1.0,3.0,right,1.0,3.0030430700003308,,,,,,3.0,1.0,7.0,1.0,,,,,,,,,193.0718264840002,,,,,,,,,193.05424645400035,193.82876407500044,194.6292489360003,194.61440502100004,194.61495245200013,194.6292489360003,194.6292489360003,194.6292489360003,197.639394453,right,1.0,3.0030430700003308,,197.6395577330004,197.6549942470001,198.1489998930001,,,,,,,,,,,,,,,,,,,,,,,,,,,,,,,sub-133,1,random_dot,55.84541715993581,
left,left,8.0,0.0,4.0,right,0.0,2.9020279510000364,,,,,,4.0,0.0,8.0,0.0,,,,,,,,,198.16173029600031,,,,,,,,,198.15037434900023,198.25515296400044,199.0623596180003,199.0474348380003,199.0478044900001,199.0623596180003,199.0623596180003,199.0623596180003,201.98235914900036,right,0.0,2.9020279510000364,,201.9869214490004,201.99870016100024,202.4837627390002,202.4968636540002,,,,,,,,,,,,,,,,,,,,,,,,,,,,,,sub-133,1,random_dot,55.84541715993581,
right,right,9.0,1.0,4.0,left,0.0,2.4116692890002014,,,,,,4.0,1.0,9.0,1.0,,,,,,,,,202.4968636540002,,,,,,,,,202.48469823600044,203.28204395400007,204.09644701100024,204.0796651390001,204.080158622,204.09644701100024,204.09644701100024,204.09644701100024,206.52252665200007,left,0.0,2.4116692890002014,,206.522690623,206.54017147600007,207.03381752900032,,,,,,,,,,,,,,,,,,,,,,,,,,,,,,,sub-133,1,random_dot,55.84541715993581,
left,left,10.0,0.0,5.0,left,1.0,12.393441192999944,,,,,,5.0,0.0,10.0,0.0,,,,,,,,,207.04937446600024,,,,,,,,,207.0352828250002,207.3788222930002,208.1811886980004,208.1639354650001,208.1645915920003,208.1811886980004,208.1811886980004,208.1811886980004,220.58058243200003,left,1.0,12.393441192999944,,220.58428320400023,220.59730185700028,221.103340225,,213.1604911840004,,,,,,,,,,,,,,,,,,,,,,,,,,,,,sub-133,1,random_dot,55.84541715993581,
right,right,11.0,1.0,5.0,right,1.0,2.4428177880004114,,,,,,5.0,1.0,11.0,1.0,,,,,,,,,221.12174707900024,,,,,,,,,221.1036945820001,221.4293517320002,222.22948274500004,222.21498481200024,222.2154700420001,222.22948274500004,222.22948274500004,222.22948274500004,224.68246545300008,right,1.0,2.4428177880004114,,224.68267498000023,224.6968955070001,225.185137854,225.1962890020004,,,,,,,,,,,,,,,,,,,,,,,,,,,,,,sub-133,1,random_dot,55.84541715993581,
left,left,12.0,0.0,6.0,right,0.0,2.586010091999924,,,,,,6.0,0.0,12.0,0.0,,,,,,,,,225.1962890020004,,,,,,,,,225.18618621700037,226.3917780660004,227.19884401200036,227.184262537,227.18530862000037,227.19884401200036,227.19884401200036,227.19884401200036,229.7911265380003,right,0.0,2.586010091999924,,229.7939741780001,229.80671928300035,230.29882111200004,,,,,,,,,,,,,,,,,,,,,,,,,,,,,,,sub-133,1,random_dot,55.84541715993581,
right,right,13.0,1.0,6.0,left,0.0,2.7340091250002843,,,,,,6.0,1.0,13.0,1.0,,,,,,,,,230.3119135230004,,,,,,,,,230.3003680210004,231.10320697000043,231.92147476300036,231.90388290600004,231.9042524880001,231.92147476300036,231.92147476300036,231.92147476300036,234.674134459,left,0.0,2.7340091250002843,,234.67426179600037,234.689367897,235.1866467300001,,,,,,,,,,,,,,,,,,,,,,,,,,,,,,,sub-133,1,random_dot,55.84541715993581,
right,right,14.0,0.0,7.0,right,1.0,4.015706362999936,,,,,,7.0,0.0,14.0,1.0,,,,,,,,,235.20490318200015,,,,,,,,,235.18699577800044,235.97167187800005,236.77922147400025,236.7634464740004,236.7638727620001,236.77922147400025,236.77922147400025,236.77922147400025,240.802778793,right,1.0,4.015706362999936,,240.805937911,240.82179226400007,241.3049259630002,,,,,,,,,,,,,,,,,,,,,,,,,,,,,,,sub-133,1,random_dot,55.84541715993581,
left,left,15.0,1.0,7.0,right,0.0,1.137670672999775,,,,,,7.0,1.0,15.0,0.0,,,,,,,,,241.3163898470002,,,,,,,,,241.3058055470001,242.5050750600003,243.30724372800023,243.29351632800035,243.29389082100036,243.30724372800023,243.30724372800023,243.30724372800023,244.45183448600028,right,0.0,1.137670672999775,,244.45516983800007,244.46966546600012,244.9530367140001,,,,,,,,,,,,,,,,,,,,,,,,,,,,,,,sub-133,1,random_dot,55.84541715993581,
left,left,16.0,0.0,8.0,right,0.0,0.8217950540001766,,,,,,8.0,0.0,16.0,0.0,,,,,,,,,244.9644982030004,,,,,,,,,244.95442417500044,245.07130500400035,245.8788372390004,245.8641806210003,245.8646638060004,245.8788372390004,245.8788372390004,245.8788372390004,246.7186248590001,right,0.0,0.8217950540001766,,246.71873899300044,246.7309414410001,247.22040332700044,,,,,,,,,,,,,,,,,,,,,,,,,,,,,,,sub-133,1,random_dot,55.84541715993581,
right,right,17.0,1.0,8.0,right,1.0,3.5331152589997146,,,,,,8.0,1.0,17.0,1.0,,,,,,,,,247.2315802760004,,,,,,,,,247.22131826800023,247.56928333900032,248.3718622680003,248.35795666400008,248.358309532,248.3718622680003,248.3718622680003,248.3718622680003,251.9211106960001,right,1.0,3.5331152589997146,,251.9245299270001,251.93898194600024,252.4215192370002,,,,,,,,,,,,,,,,,,,,,,,,,,,,,,,sub-133,1,random_dot,55.84541715993581,
right,right,18.0,0.0,9.0,left,0.0,1.6483302249998817,,,,,,9.0,0.0,18.0,1.0,,,,,,,,,252.43201746000025,,,,,,,,,252.42184591100025,252.78176757200023,253.59214696300023,253.57725078800013,253.57762864300005,253.59214696300023,253.59214696300023,253.59214696300023,255.2488346930004,left,0.0,1.6483302249998817,,255.25401666000016,255.26698393700008,255.7530481370004,,,,,,,,,,,,,,,,,,,,,,,,,,,,,,,sub-133,1,random_dot,55.84541715993581,
left,left,19.0,1.0,9.0,right,0.0,2.4648784830001205,,,,,,9.0,1.0,19.0,0.0,,,,,,,,,255.77148140300005,,,,,,,,,255.75337076200003,256.96939578,257.7686276430004,257.75529124800005,257.7556462380003,257.7686276430004,257.7686276430004,257.7686276430004,260.24789897200026,right,0.0,2.4648784830001205,,260.2480118970002,260.2612962970002,260.7495242510004,,,,,,,,,,,,,,,,,,,,,,,,,,,,,,,sub-133,1,random_dot,55.84541715993581,
,,,,,,,,,,,,,,,,,,,,,,,,,,,,,,,,,,,,,,,,,,,,,,,,,,,,260.7499393000003,260.7647821950004,260.7647821950004,284.6602858010001,space,23.88786205099996,,,,,,,,,,,,,,,,,,,,,,,sub-133,1,random_dot,55.84541715993581,
,,,,,,,,,,,,,,,,,,,,,,,,,,,,,,,,,,,,,,,,,,,,,,,,,,,,,,,,,,,284.6603612990002,284.6766256160004,284.6766256160004,292.6227301580002,space,7.930699988000015,,,,,,,,,,,,,,,,sub-133,1,random_dot,55.84541715993581,
right,right,0.0,0.0,0.0,left,0.0,2.915006461000303,,speed,space,3.778845852999893,,,,,,0.0,0.0,0.0,1.0,0.0,0.0,0.0,1.0,296.47584131400026,,,,,,,,,296.462911996,296.5647397280004,297.3699606170003,297.3551250790001,297.35552664700026,297.3699606170003,297.3699606170003,297.3699606170003,300.28892894,,,,,,,,,,,,,,,,,,,,,,,,292.6482886230001,292.6624558390004,292.6624558390004,296.4568121680004,space,3.778845852999893,,left,0.0,2.915006461000303,,,,,sub-133,1,random_dot,55.84541715993581,
left,left,1.0,1.0,0.0,right,0.0,2.460650337000061,,speed,space,3.778845852999893,,,,,,0.0,0.0,0.0,1.0,0.0,1.0,1.0,0.0,300.302437669,,,,,,,,,300.2893247840002,300.3879813190001,301.1897705790002,301.1733325610003,301.1736942890002,301.1897705790002,301.1897705790002,301.1897705790002,303.66749925600016,,,,,,,,,,,,,,,,,,,,,,,,,,,,,,,right,0.0,2.460650337000061,,,,,sub-133,1,random_dot,55.84541715993581,
right,right,2.0,0.0,1.0,left,0.0,1.9725035269998443,,speed,space,3.778845852999893,,,,,,0.0,0.0,0.0,1.0,1.0,0.0,2.0,1.0,303.67903354500004,,,,,,,,,303.66790511900035,304.8626455340004,305.6707817820002,305.65685788400015,305.65774629000043,305.6707817820002,305.6707817820002,305.6707817820002,307.64829637400044,,,,,,,,,,,,,,,,,,,,,,,,,,,,,,,left,0.0,1.9725035269998443,,,,,sub-133,1,random_dot,55.84541715993581,
left,left,3.0,1.0,1.0,right,0.0,4.353854304999913,,speed,space,3.778845852999893,,,,,,0.0,0.0,0.0,1.0,1.0,1.0,3.0,0.0,307.6613175890002,,,,,,,,,307.64986592700006,308.4526005890002,309.2580234430002,309.2433995190004,309.24377229400034,309.2580234430002,309.2580234430002,309.2580234430002,313.6222988620002,,,,,,,,,,,,,,,,,,,,,,,,,,,,,,,right,0.0,4.353854304999913,,,,,sub-133,1,random_dot,55.84541715993581,
left,left,4.0,0.0,2.0,left,1.0,4.570055957000022,,speed,space,3.778845852999893,,,,,,0.0,0.0,0.0,1.0,2.0,0.0,4.0,0.0,313.6360626800001,,,,,,,,,313.6226931250003,313.9655519410003,314.7640517660002,314.7510327980003,314.75175526500016,314.7640517660002,314.7640517660002,314.7640517660002,319.3388346840002,,,,,,,,,,,,,,,,,,,,,,,,,,,,,,,left,1.0,4.570055957000022,,,,,sub-133,1,random_dot,55.84541715993581,
right,right,5.0,1.0,2.0,left,0.0,3.309107681000114,,speed,space,3.778845852999893,,,,,,0.0,0.0,0.0,1.0,2.0,1.0,5.0,1.0,319.35266769500004,,,,,,,,,319.3392245500004,320.5432930390002,321.3506048220001,321.33764443200016,321.3380137480003,321.3506048220001,321.3506048220001,321.3506048220001,324.6646538890004,,,,,,,,,,,,,,,,,,,,,,,,,,,,,,,left,0.0,3.309107681000114,,,,,sub-133,1,random_dot,55.84541715993581,
right,right,6.0,0.0,3.0,right,1.0,2.845406753000134,,speed,space,3.778845852999893,,,,,,0.0,0.0,0.0,1.0,3.0,0.0,6.0,1.0,324.67798519100006,,,,,,,,,324.665769058,325.86849941200035,326.6710294000004,326.6567350370001,326.65777697700014,326.6710294000004,326.6710294000004,326.6710294000004,329.53693107100025,,,,,,,,,,,,,,,,,,,,,,,,,,,,,,,right,1.0,2.845406753000134,,,,,sub-133,1,random_dot,55.84541715993581,
left,left,7.0,1.0,3.0,right,0.0,1.765080098999988,,speed,space,3.778845852999893,,,,,,0.0,0.0,0.0,1.0,3.0,1.0,7.0,0.0,329.5467524110004,,,,,,,,,329.5373156730002,330.7375120380002,331.5467273150002,331.5325374600002,331.53378713200027,331.5467273150002,331.5467273150002,331.5467273150002,333.3202293000004,,,,,,,,,,,,,,,,,,,,,,,,,,,,,,,right,0.0,1.765080098999988,,,,,sub-133,1,random_dot,55.84541715993581,
right,right,8.0,0.0,4.0,left,0.0,3.041062035999857,,speed,space,3.778845852999893,,,,,,0.0,0.0,0.0,1.0,4.0,0.0,8.0,1.0,333.33406624400004,,,,,,,,,333.3206150600004,334.1191424110002,334.9278105450003,334.9114855170001,334.91189191600006,334.9278105450003,334.9278105450003,334.9278105450003,337.98386799100035,,,,,,,,,,,,,,,,,,,,,,,,,,,,,,,left,0.0,3.041062035999857,,,,,sub-133,1,random_dot,55.84541715993581,
left,left,9.0,1.0,4.0,left,1.0,2.975098741000238,,speed,space,3.778845852999893,,,,,,0.0,0.0,0.0,1.0,4.0,1.0,9.0,0.0,337.995477209,,,,,,,,,337.9842991100004,338.0843599930004,338.8866589870004,338.8734566850003,338.87386306100007,338.8866589870004,338.8866589870004,338.8866589870004,341.8679650240001,,,,,,,,,,,,,,,,,,,,,,,,,,,,,,,left,1.0,2.975098741000238,,,,,sub-133,1,random_dot,55.84541715993581,
right,right,10.0,0.0,5.0,right,1.0,1.6347746460000965,,speed,space,3.778845852999893,,,,,,0.0,0.0,0.0,1.0,5.0,0.0,10.0,1.0,341.8796986000002,,,,,,,,,341.8683511220001,342.6736632070001,343.4859232240001,343.4708526290001,343.47125023800027,343.4859232240001,343.4859232240001,343.4859232240001,345.1308511000002,,,,,,,,,,,,,,,,,,,,,,,,,,,,,,,right,1.0,1.6347746460000965,,,,,sub-133,1,random_dot,55.84541715993581,
left,left,11.0,1.0,5.0,right,0.0,2.4150181630002407,,speed,space,3.778845852999893,,,,,,0.0,0.0,0.0,1.0,5.0,1.0,11.0,0.0,345.1438519610001,,,,,,,,,345.1321300720001,345.48469640400026,346.2900578360004,346.27366114800043,346.2740424800004,346.2900578360004,346.2900578360004,346.2900578360004,348.72174926000025,,,,,,,,,,,,,,,,,,,,,,,,,,,,,,,right,0.0,2.4150181630002407,,,,,sub-133,1,random_dot,55.84541715993581,
right,right,12.0,0.0,6.0,left,0.0,1.3023374610002063,,speed,space,3.778845852999893,,,,,,0.0,0.0,0.0,1.0,6.0,0.0,12.0,1.0,348.7361291740003,,,,,,,,,348.72214378900026,349.0750788160003,349.87768339600007,349.86164591900024,349.862167407,349.87768339600007,349.87768339600007,349.87768339600007,351.201420246,,,,,,,,,,,,,,,,,,,,,,,,,,,,,,,left,0.0,1.3023374610002063,,,,,sub-133,1,random_dot,55.84541715993581,
left,left,13.0,1.0,6.0,left,1.0,2.432063207000283,,speed,space,3.778845852999893,,,,,,0.0,0.0,0.0,1.0,6.0,1.0,13.0,0.0,351.2114482910001,,,,,,,,,351.20182924400024,351.5480199360004,352.3549768930002,352.34053154500043,352.3410415360004,352.3549768930002,352.3549768930002,352.3549768930002,354.8069717120002,,,,,,,,,,,,,,,,,,,,,,,,,,,,,,,left,1.0,2.432063207000283,,,,,sub-133,1,random_dot,55.84541715993581,
right,right,14.0,0.0,7.0,right,1.0,1.4768179359998612,,speed,space,3.778845852999893,,,,,,0.0,0.0,0.0,1.0,7.0,0.0,14.0,1.0,354.8187726440001,,,,,,,,,354.8073631950001,354.90369205700017,355.70620626100026,355.6926775230004,355.69306544500023,355.70620626100026,355.70620626100026,355.70620626100026,357.1963318190001,,,,,,,,,,,,,,,,,,,,,,,,,,,,,,,right,1.0,1.4768179359998612,,,,,sub-133,1,random_dot,55.84541715993581,
left,left,15.0,1.0,7.0,right,0.0,2.2653088170000046,,speed,space,3.778845852999893,,,,,,0.0,0.0,0.0,1.0,7.0,1.0,15.0,0.0,357.20942249300015,,,,,,,,,357.19680995000044,358.4093694820004,359.21282307,359.1943464800001,359.19471541300027,359.21282307,359.21282307,359.21282307,361.48612527700016,,,,,,,,,,,,,,,,,,,,,,,,,,,,,,,right,0.0,2.2653088170000046,,,,,sub-133,1,random_dot,55.84541715993581,
left,left,16.0,0.0,8.0,left,1.0,1.0110351710000032,,speed,space,3.778845852999893,,,,,,0.0,0.0,0.0,1.0,8.0,0.0,16.0,0.0,361.5022047250004,,,,,,,,,361.4867568030004,362.68155499600016,363.4955449930003,363.4770916360003,363.4776111670003,363.4955449930003,363.4955449930003,363.4955449930003,364.52455105900026,,,,,,,,,,,,,,,,,,,,,,,,,,,,,,,left,1.0,1.0110351710000032,,,,,sub-133,1,random_dot,55.84541715993581,
right,right,17.0,1.0,8.0,right,1.0,0.7946832090001408,,speed,space,3.778845852999893,,,,,,0.0,0.0,0.0,1.0,8.0,1.0,17.0,1.0,364.5379851060002,,,,,,,,,364.524953307,365.3212463220002,366.1293738200002,366.1145709100001,366.1150487920004,366.1293738200002,366.1293738200002,366.1293738200002,366.93008050000026,,,,,,,,,,,,,,,,,,,,,,,,,,,,,,,right,1.0,0.7946832090001408,,,,,sub-133,1,random_dot,55.84541715993581,
left,left,18.0,0.0,9.0,left,1.0,0.5825298749996364,,speed,space,3.778845852999893,,,,,,0.0,0.0,0.0,1.0,9.0,0.0,18.0,0.0,366.9450430600005,,,,,,,,,366.9308213710001,367.7311873900003,368.5379130680003,368.5238925630001,368.5242701860002,368.5379130680003,368.5379130680003,368.5379130680003,369.13949387,,,,,,,,,,,,,,,,,,,,,,,,,,,,,,,left,1.0,0.5825298749996364,,,,,sub-133,1,random_dot,55.84541715993581,
right,right,19.0,1.0,9.0,right,1.0,1.7924410190003073,,speed,space,3.778845852999893,,,,,,0.0,0.0,0.0,1.0,9.0,1.0,19.0,1.0,369.1534477470004,,,,,,,,,369.14002677100007,369.93783329100006,370.7440526580003,370.7279152830001,370.7282686760004,370.7440526580003,370.7440526580003,370.7440526580003,372.5442745370001,,,,,,,,,,,,,,,,,,,,,,,,,,,,,,,right,1.0,1.7924410190003073,,,,,sub-133,1,random_dot,55.84541715993581,
left,left,20.0,0.0,10.0,right,0.0,1.2919304030001513,,speed,space,3.778845852999893,,,,,,0.0,0.0,0.0,1.0,10.0,0.0,20.0,0.0,372.55723977900016,,,,,,,,,372.5447138550003,373.7441132810004,374.5465558670003,374.5306013940003,374.5311545020004,374.5465558670003,374.5465558670003,374.5465558670003,375.855426394,,,,,,,,,,,,,,,,,,,,,,,,,,,,,,,right,0.0,1.2919304030001513,,,,,sub-133,1,random_dot,55.84541715993581,
right,right,21.0,1.0,10.0,right,1.0,1.422831578000114,,speed,space,3.778845852999893,,,,,,0.0,0.0,0.0,1.0,10.0,1.0,21.0,1.0,375.8694242600004,,,,,,,,,375.855810085,376.20918620500015,377.009913675,376.9933529900004,376.9937358500001,377.009913675,377.009913675,377.009913675,378.4382816340003,,,,,,,,,,,,,,,,,,,,,,,,,,,,,,,right,1.0,1.422831578000114,,,,,sub-133,1,random_dot,55.84541715993581,
right,right,22.0,0.0,11.0,left,0.0,0.9163462689998596,,speed,space,3.778845852999893,,,,,,0.0,0.0,0.0,1.0,11.0,0.0,22.0,1.0,378.4520444460004,,,,,,,,,378.438669739,379.6462935750001,380.45026958100016,380.432720667,380.4342706450002,380.45026958100016,380.45026958100016,380.45026958100016,381.3731401880004,,,,,,,,,,,,,,,,,,,,,,,,,,,,,,,left,0.0,0.9163462689998596,,,,,sub-133,1,random_dot,55.84541715993581,
left,left,23.0,1.0,11.0,right,0.0,1.1325106259996571,,speed,space,3.778845852999893,,,,,,0.0,0.0,0.0,1.0,11.0,1.0,23.0,0.0,381.3882570520004,,,,,,,,,381.3735260820004,382.1762728580002,382.9855137970003,382.9696955300001,382.97006932700015,382.9855137970003,382.9855137970003,382.9855137970003,384.13923645700015,,,,,,,,,,,,,,,,,,,,,,,,,,,,,,,right,0.0,1.1325106259996571,,,,,sub-133,1,random_dot,55.84541715993581,
right,right,24.0,0.0,12.0,left,0.0,0.720408918999965,,speed,space,3.778845852999893,,,,,,0.0,0.0,0.0,1.0,12.0,0.0,24.0,1.0,384.15118882800016,,,,,,,,,384.13963254300006,385.498135929,386.2996688830003,386.28416178900034,386.2849347790002,386.2996688830003,386.2996688830003,386.2996688830003,387.0274810400001,,,,,,,,,,,,,,,,,,,,,,,,,,,,,,,left,0.0,0.720408918999965,,,,,sub-133,1,random_dot,55.84541715993581,
left,left,25.0,1.0,12.0,right,0.0,1.681316883999898,,speed,space,3.778845852999893,,,,,,0.0,0.0,0.0,1.0,12.0,1.0,25.0,0.0,387.04180592600005,,,,,,,,,387.0280863180001,387.3855101400004,388.1957582460004,388.1790217370003,388.1795739920003,388.1957582460004,388.1957582460004,388.1957582460004,389.8935844000002,,,,,,,,,,,,,,,,,,,,,,,,,,,,,,,right,0.0,1.681316883999898,,,,,sub-133,1,random_dot,55.84541715993581,
left,left,26.0,0.0,13.0,right,0.0,2.128683522999836,,speed,space,3.778845852999893,,,,,,0.0,0.0,0.0,1.0,13.0,0.0,26.0,0.0,389.9054103970002,,,,,,,,,389.8939983610003,390.6933020140005,391.5057334840003,391.4899535700001,391.4905034420003,391.5057334840003,391.5057334840003,391.5057334840003,393.641996801,,,,,,,,,,,,,,,,,,,,,,,,,,,,,,,right,0.0,2.128683522999836,,,,,sub-133,1,random_dot,55.84541715993581,
right,right,27.0,1.0,13.0,left,0.0,6.266425978999905,,speed,space,3.778845852999893,,,,,,0.0,0.0,0.0,1.0,13.0,1.0,27.0,1.0,393.6537771730005,,,,,,,,,393.6424008120002,394.8510878100001,395.6597229540002,395.6451161580003,395.6456353980002,395.6597229540002,395.6597229540002,395.6597229540002,401.9365579290002,,,,,,,,,400.6551319190002,,,,,,,,,,,,,,,,,,,,,,left,0.0,6.266425978999905,,,,,sub-133,1,random_dot,55.84541715993581,
right,right,28.0,0.0,14.0,left,0.0,4.352491016000386,,speed,space,3.778845852999893,,,,,,0.0,0.0,0.0,1.0,14.0,0.0,28.0,1.0,401.9524309100002,,,,,,,,,401.936948561,402.7381253530002,403.5525687500003,403.534752259,403.535117848,403.5525687500003,403.5525687500003,403.5525687500003,407.9216353610004,,,,,,,,,,,,,,,,,,,,,,,,,,,,,,,left,0.0,4.352491016000386,,,,,sub-133,1,random_dot,55.84541715993581,
left,left,29.0,1.0,14.0,right,0.0,2.5929377140000724,,speed,space,3.778845852999893,,,,,,0.0,0.0,0.0,1.0,14.0,1.0,29.0,0.0,407.9369326850001,,,,,,,,,407.922089742,408.0257564950002,408.8272390650004,408.8130431610002,408.8134904980002,408.8272390650004,408.8272390650004,408.8272390650004,411.43913667100014,,,,,,,,,,,,,,,,,,,,,,,,,,,,,,,right,0.0,2.5929377140000724,,,,,sub-133,1,random_dot,55.84541715993581,
right,right,30.0,0.0,15.0,right,1.0,2.395486869999786,,speed,space,3.778845852999893,,,,,,0.0,0.0,0.0,1.0,15.0,0.0,30.0,1.0,411.4512670610002,,,,,,,,,411.43957462900016,411.7956827730004,412.5998815590001,412.5865165760001,412.58686152300015,412.5998815590001,412.5998815590001,412.5998815590001,415.0128728450004,,,,,,,,,,,,,,,,,,,,,,,,,,,,,,,right,1.0,2.395486869999786,,,,,sub-133,1,random_dot,55.84541715993581,
left,left,31.0,1.0,15.0,left,1.0,1.8581782019996356,,speed,space,3.778845852999893,,,,,,0.0,0.0,0.0,1.0,15.0,1.0,31.0,0.0,415.02598891900016,,,,,,,,,415.0134068680004,416.21742760100005,417.02052593200006,417.0049135190002,417.0056979980004,417.02052593200006,417.02052593200006,417.02052593200006,418.89650759000006,,,,,,,,,,,,,,,,,,,,,,,,,,,,,,,left,1.0,1.8581782019996356,,,,,sub-133,1,random_dot,55.84541715993581,
left,left,32.0,0.0,16.0,right,0.0,3.653071428000203,,speed,space,3.778845852999893,,,,,,0.0,0.0,0.0,1.0,16.0,0.0,32.0,0.0,418.9095170430001,,,,,,,,,418.89728790900017,420.1031652490001,420.9017008960004,420.888676903,420.8890335830001,420.9017008960004,420.9017008960004,420.9017008960004,424.5634092270002,,,,,,,,,,,,,,,,,,,,,,,,,,,,,,,right,0.0,3.653071428000203,,,,,sub-133,1,random_dot,55.84541715993581,
right,right,33.0,1.0,16.0,right,1.0,1.64476946700006,,speed,space,3.778845852999893,,,,,,0.0,0.0,0.0,1.0,16.0,1.0,33.0,1.0,424.57618366900033,,,,,,,,,424.56467932700025,425.3601000640001,426.1677290130001,426.1529217770003,426.1533187630002,426.1677290130001,426.1677290130001,426.1677290130001,427.817854292,,,,,,,,,,,,,,,,,,,,,,,,,,,,,,,right,1.0,1.64476946700006,,,,,sub-133,1,random_dot,55.84541715993581,
right,right,34.0,0.0,17.0,left,0.0,2.315472305000185,,speed,space,3.778845852999893,,,,,,0.0,0.0,0.0,1.0,17.0,0.0,34.0,1.0,427.8306444970003,,,,,,,,,427.8184037250003,429.016560561,429.8214860740004,429.80825759000027,429.8086527530004,429.8214860740004,429.8214860740004,429.8214860740004,432.15441217100033,,,,,,,,,,,,,,,,,,,,,,,,,,,,,,,left,0.0,2.315472305000185,,,,,sub-133,1,random_dot,55.84541715993581,
left,left,35.0,1.0,17.0,right,0.0,1.3019239139998715,,speed,space,3.778845852999893,,,,,,0.0,0.0,0.0,1.0,17.0,1.0,35.0,0.0,432.1662489110004,,,,,,,,,432.15480323500014,432.2536920770003,433.0586998760005,433.044140124,433.0445261660002,433.0586998760005,433.0586998760005,433.0586998760005,434.3713354470001,,,,,,,,,,,,,,,,,,,,,,,,,,,,,,,right,0.0,1.3019239139998715,,,,,sub-133,1,random_dot,55.84541715993581,
left,left,36.0,0.0,18.0,left,1.0,1.3936085809996257,,speed,space,3.778845852999893,,,,,,0.0,0.0,0.0,1.0,18.0,0.0,36.0,0.0,434.385098531,,,,,,,,,434.37172107000015,435.5763592620001,436.3787106060004,436.36422508700025,436.36499478800033,436.3787106060004,436.3787106060004,436.3787106060004,437.7798316530002,,,,,,,,,,,,,,,,,,,,,,,,,,,,,,,left,1.0,1.3936085809996257,,,,,sub-133,1,random_dot,55.84541715993581,
right,right,37.0,1.0,18.0,right,1.0,1.564736443000129,,speed,space,3.778845852999893,,,,,,0.0,0.0,0.0,1.0,18.0,1.0,37.0,1.0,437.7947425350003,,,,,,,,,437.78121826000006,438.9807040220003,439.7855573420002,439.7693362750001,439.7697177990003,439.7855573420002,439.7855573420002,439.7855573420002,441.3630226260002,,,,,,,,,,,,,,,,,,,,,,,,,,,,,,,right,1.0,1.564736443000129,,,,,sub-133,1,random_dot,55.84541715993581,
left,left,38.0,0.0,19.0,left,1.0,1.6164863399999376,,speed,space,3.778845852999893,,,,,,0.0,0.0,0.0,1.0,19.0,0.0,38.0,0.0,441.3760326820002,,,,,,,,,441.3644441330002,442.5612147050001,443.3680568570003,443.353116193,443.353506724,443.3680568570003,443.3680568570003,443.3680568570003,445.0009008640004,,,,,,,,,,,,,,,,,,,,,,,,,,,,,,,left,1.0,1.6164863399999376,,,,,sub-133,1,random_dot,55.84541715993581,
right,right,39.0,1.0,19.0,left,0.0,3.7720837759998176,,speed,space,3.778845852999893,,,,,,0.0,0.0,0.0,1.0,19.0,1.0,39.0,1.0,445.01220684300006,,,,,,,,,445.00130929000034,445.1015089270004,445.91304856000033,445.894829803,445.8954115370002,445.91304856000033,445.91304856000033,445.91304856000033,449.70164146000025,,,,,,,,,,,,,,,,,,,,,,,,,,,,,,,left,0.0,3.7720837759998176,,,,,sub-133,1,random_dot,55.84541715993581,
right,right,40.0,0.0,20.0,right,1.0,0.5328387620002104,,speed,space,3.778845852999893,,,,,,0.0,0.0,0.0,1.0,20.0,0.0,40.0,1.0,449.7133571680001,,,,,,,,,449.70202823,450.04705316200034,450.8595396390001,450.8428397460002,450.8433500790002,450.8595396390001,450.8595396390001,450.8595396390001,451.3953767560001,,,,,,,,,,,,,,,,,,,,,,,,,,,,,,,right,1.0,0.5328387620002104,,,,,sub-133,1,random_dot,55.84541715993581,
left,left,41.0,1.0,20.0,right,0.0,1.2127362460000768,,speed,space,3.778845852999893,,,,,,0.0,0.0,0.0,1.0,20.0,1.0,41.0,0.0,451.4088558990002,,,,,,,,,451.3959703710002,451.5004598480005,452.3041159550002,452.2870517610004,452.2874192820004,452.3041159550002,452.3041159550002,452.3041159550002,453.531651538,,,,,,,,,,,,,,,,,,,,,,,,,,,,,,,right,0.0,1.2127362460000768,,,,,sub-133,1,random_dot,55.84541715993581,
left,left,42.0,0.0,21.0,right,0.0,1.4741404629999124,,speed,space,3.778845852999893,,,,,,0.0,0.0,0.0,1.0,21.0,0.0,42.0,0.0,453.5433377290001,,,,,,,,,453.5320433360002,453.6326618480002,454.4416596020001,454.42704107200007,454.42739681600005,454.4416596020001,454.4416596020001,454.4416596020001,455.9199488860004,,,,,,,,,,,,,,,,,,,,,,,,,,,,,,,right,0.0,1.4741404629999124,,,,,sub-133,1,random_dot,55.84541715993581,
right,right,43.0,1.0,21.0,left,0.0,0.632239717000175,,speed,space,3.778845852999893,,,,,,0.0,0.0,0.0,1.0,21.0,1.0,43.0,1.0,455.9350747600001,,,,,,,,,455.9203350770004,456.2685090670002,457.0700470460001,457.0558829050001,457.0567384240003,457.0700470460001,457.0700470460001,457.0700470460001,457.7224655050004,,,,,,,,,,,,,,,,,,,,,,,,,,,,,,,left,0.0,0.632239717000175,,,,,sub-133,1,random_dot,55.84541715993581,
left,left,44.0,0.0,22.0,right,0.0,0.3484555079999154,,speed,space,3.778845852999893,,,,,,0.0,0.0,0.0,1.0,22.0,0.0,44.0,0.0,457.73529660400027,,,,,,,,,457.7228621070003,457.8254407040004,458.6378128670003,458.62149602,458.6218472530004,458.6378128670003,458.6378128670003,458.6378128670003,458.9960871320004,,,,,,,,,,,,,,,,,,,,,,,,,,,,,,,right,0.0,0.3484555079999154,,,,,sub-133,1,random_dot,55.84541715993581,
right,right,45.0,1.0,22.0,left,0.0,0.8911893040003633,,speed,space,3.778845852999893,,,,,,0.0,0.0,0.0,1.0,22.0,1.0,45.0,1.0,459.0091498910001,,,,,,,,,458.9972427150001,459.352808092,460.1687521840004,460.1524682580002,460.1528524720002,460.1687521840004,460.1687521840004,460.1687521840004,461.0655474170003,,,,,,,,,,,,,,,,,,,,,,,,,,,,,,,left,0.0,0.8911893040003633,,,,,sub-133,1,random_dot,55.84541715993581,
left,left,46.0,0.0,23.0,right,0.0,1.71323202900021,,speed,space,3.778845852999893,,,,,,0.0,0.0,0.0,1.0,23.0,0.0,46.0,0.0,461.0774072590002,,,,,,,,,461.0661669750002,462.2609828530003,463.06887389500025,463.0526639310001,463.0530594180004,463.06887389500025,463.06887389500025,463.06887389500025,464.80006914600017,,,,,,,,,,,,,,,,,,,,,,,,,,,,,,,right,0.0,1.71323202900021,,,,,sub-133,1,random_dot,55.84541715993581,
right,right,47.0,1.0,23.0,right,1.0,1.4502935340001386,,speed,space,3.778845852999893,,,,,,0.0,0.0,0.0,1.0,23.0,1.0,47.0,1.0,464.811863074,,,,,,,,,464.8004591820004,466.0021739850004,466.8093325650002,466.7932416910003,466.7936296330004,466.8093325650002,466.8093325650002,466.8093325650002,468.2667444230001,,,,,,,,,,,,,,,,,,,,,,,,,,,,,,,right,1.0,1.4502935340001386,,,,,sub-133,1,random_dot,55.84541715993581,
left,left,48.0,0.0,24.0,right,0.0,1.1099839040002737,,speed,space,3.778845852999893,,,,,,0.0,0.0,0.0,1.0,24.0,0.0,48.0,0.0,468.2790318010002,,,,,,,,,468.2671399170004,468.3700528590002,469.1761044320001,469.1611406330003,469.161657739,469.1761044320001,469.1761044320001,469.1761044320001,470.29575309300026,,,,,,,,,,,,,,,,,,,,,,,,,,,,,,,right,0.0,1.1099839040002737,,,,,sub-133,1,random_dot,55.84541715993581,
right,right,49.0,1.0,24.0,left,0.0,0.5601766419999876,,speed,space,3.778845852999893,,,,,,0.0,0.0,0.0,1.0,24.0,1.0,49.0,1.0,470.30874754900015,,,,,,,,,470.2966632860002,471.50070875200026,472.3068577610002,472.29192068300017,472.2923042020002,472.3068577610002,472.3068577610002,472.3068577610002,472.8875215860003,,,,,,,,,,,,,,,,,,,,,,,,,,,,,,,left,0.0,0.5601766419999876,,,,,sub-133,1,random_dot,55.84541715993581,
right,right,50.0,0.0,25.0,right,1.0,0.415462669000135,,speed,space,3.778845852999893,,,,,,0.0,0.0,0.0,1.0,25.0,0.0,50.0,1.0,472.8992659280002,,,,,,,,,472.8879193800003,474.0945521370004,474.8948064680003,474.8806662810002,474.8817938690004,474.8948064680003,474.8948064680003,474.8948064680003,475.31762401700007,,,,,,,,,,,,,,,,,,,,,,,,,,,,,,,right,1.0,0.415462669000135,,,,,sub-133,1,random_dot,55.84541715993581,
left,left,51.0,1.0,25.0,left,1.0,1.1482428239996807,,speed,space,3.778845852999893,,,,,,0.0,0.0,0.0,1.0,25.0,1.0,51.0,0.0,475.3293748170004,,,,,,,,,475.3180639410002,475.4192156940003,476.21974570300017,476.205697414,476.2066613550001,476.21974570300017,476.21974570300017,476.21974570300017,477.3841986710004,,,,,,,,,,,,,,,,,,,,,,,,,,,,,,,left,1.0,1.1482428239996807,,,,,sub-133,1,random_dot,55.84541715993581,
left,left,52.0,0.0,26.0,right,0.0,1.2868632249997063,,speed,space,3.778845852999893,,,,,,0.0,0.0,0.0,1.0,26.0,0.0,52.0,0.0,477.3963685450003,,,,,,,,,477.3846787230004,478.18728227500014,479.00048580500015,478.985693692,478.9860673490002,479.00048580500015,479.00048580500015,479.00048580500015,480.2987190060003,,,,,,,,,,,,,,,,,,,,,,,,,,,,,,,right,0.0,1.2868632249997063,,,,,sub-133,1,random_dot,55.84541715993581,
right,right,53.0,1.0,26.0,left,0.0,1.2408189910001963,,speed,space,3.778845852999893,,,,,,0.0,0.0,0.0,1.0,26.0,1.0,53.0,1.0,480.3118560780004,,,,,,,,,480.2992397050002,480.4069240410004,481.2086123060003,481.1917938010001,481.1921817980001,481.2086123060003,481.2086123060003,481.2086123060003,482.46290734700005,,,,,,,,,,,,,,,,,,,,,,,,,,,,,,,left,0.0,1.2408189910001963,,,,,sub-133,1,random_dot,55.84541715993581,
right,right,54.0,0.0,27.0,left,0.0,0.6430492839999715,,speed,space,3.778845852999893,,,,,,0.0,0.0,0.0,1.0,27.0,0.0,54.0,1.0,482.475490624,,,,,,,,,482.4642251810001,482.5664763740001,483.3751392480003,483.3605433970001,483.36111960900007,483.3751392480003,483.3751392480003,483.3751392480003,484.0356672810003,,,,,,,,,,,,,,,,,,,,,,,,,,,,,,,left,0.0,0.6430492839999715,,,,,sub-133,1,random_dot,55.84541715993581,
left,left,55.0,1.0,27.0,left,1.0,0.96809956900006,,speed,space,3.778845852999893,,,,,,0.0,0.0,0.0,1.0,27.0,1.0,55.0,0.0,484.04943910400016,,,,,,,,,484.0360660560005,485.2387572990001,486.0516987820001,486.0357269550004,486.0361065060001,486.0516987820001,486.0516987820001,486.0516987820001,487.0364951590004,,,,,,,,,,,,,,,,,,,,,,,,,,,,,,,left,1.0,0.96809956900006,,,,,sub-133,1,random_dot,55.84541715993581,
left,left,56.0,0.0,28.0,right,0.0,3.0385652659997504,,speed,space,3.778845852999893,,,,,,0.0,0.0,0.0,1.0,28.0,0.0,56.0,0.0,487.0502759250003,,,,,,,,,487.0368802170001,487.13605361300006,487.9444069110005,487.9301517480003,487.9307823680001,487.9444069110005,487.9444069110005,487.9444069110005,491.003924435,,,,,,,,,,,,,,,,,,,,,,,,,,,,,,,right,0.0,3.0385652659997504,,,,,sub-133,1,random_dot,55.84541715993581,
right,right,57.0,1.0,28.0,right,1.0,1.6368215419997796,,speed,space,3.778845852999893,,,,,,0.0,0.0,0.0,1.0,28.0,1.0,57.0,1.0,491.0164257680003,,,,,,,,,491.00433091700006,491.1082198790005,491.91114210700016,491.8966910990002,491.89781965500015,491.91114210700016,491.91114210700016,491.91114210700016,493.5654563480002,,,,,,,,,,,,,,,,,,,,,,,,,,,,,,,right,1.0,1.6368215419997796,,,,,sub-133,1,random_dot,55.84541715993581,
left,left,58.0,0.0,29.0,right,0.0,3.203036339999926,,speed,space,3.778845852999893,,,,,,0.0,0.0,0.0,1.0,29.0,0.0,58.0,0.0,493.577200188,,,,,,,,,493.5658456660003,494.38442757500025,495.1915955050004,495.1753649120001,495.1757326330003,495.1915955050004,495.1915955050004,495.1915955050004,498.4035434280004,,,,,,,,,,,,,,,,,,,,,,,,,,,,,,,right,0.0,3.203036339999926,,,,,sub-133,1,random_dot,55.84541715993581,
right,right,59.0,1.0,29.0,right,1.0,2.701023645000077,,speed,space,3.778845852999893,,,,,,0.0,0.0,0.0,1.0,29.0,1.0,59.0,1.0,498.41720691,,,,,,,,,498.4039256650003,498.5060231810003,499.3090307980001,499.2923848200003,499.2927874930001,499.3090307980001,499.3090307980001,499.3090307980001,502.0280403400002,,,,,,,,,,,,,,,,,,,,,,,,,,,,,,,right,1.0,2.701023645000077,,,,,sub-133,1,random_dot,55.84541715993581,
,,0.0,0.0,0.0,,,,,speed,space,3.778845852999893,,,,,,0.0,0.0,0.0,1.0,,,,,,,,,,,,,,,,,,,,,,,,,,,,,,,,,,,,,,,,,,,,,,,,,,,,,,,,,,,,sub-133,1,random_dot,55.84541715993581,
right,right,0.0,0.0,0.0,left,0.0,2.446816525000031,,accuracy,space,5.080874967,,,,,,0.0,1.0,1.0,0.0,0.0,0.0,0.0,1.0,507.1699163870003,,,,,,,,,507.15473935,507.2531098850004,508.06042469700014,508.0450127060003,508.0455481550002,508.06042469700014,508.06042469700014,508.06042469700014,510.5161296630004,,,,,,,,,,,,,,,,,,,,,,,,502.0457793110004,502.0586458270004,502.0586458270004,507.1482084750001,space,5.080874967,,left,0.0,2.446816525000031,,,,,sub-133,1,random_dot,55.84541715993581,
left,left,1.0,1.0,0.0,right,0.0,2.376467679000143,,accuracy,space,5.080874967,,,,,,0.0,1.0,1.0,0.0,0.0,1.0,1.0,0.0,510.5276781730004,,,,,,,,,510.5165241120003,510.6157694930002,511.4251322930004,511.4091575950001,511.4095245450003,511.4251322930004,511.4251322930004,511.4251322930004,513.8182886160002,,,,,,,,,,,,,,,,,,,,,,,,,,,,,,,right,0.0,2.376467679000143,,,,,sub-133,1,random_dot,55.84541715993581,
right,right,2.0,0.0,1.0,right,1.0,1.77949331300033,,accuracy,space,5.080874967,,,,,,0.0,1.0,1.0,0.0,1.0,0.0,2.0,1.0,513.8318774310001,,,,,,,,,513.8186736060002,514.161059087,514.9701653290003,514.95392244,514.9542861770001,514.9701653290003,514.9701653290003,514.9701653290003,516.7556200860004,,,,,,,,,,,,,,,,,,,,,,,,,,,,,,,right,1.0,1.77949331300033,,,,,sub-133,1,random_dot,55.84541715993581,
left,left,3.0,1.0,1.0,right,0.0,0.8091578059998028,,accuracy,space,5.080874967,,,,,,0.0,1.0,1.0,0.0,1.0,1.0,3.0,0.0,516.7677338080002,,,,,,,,,516.7560253310003,517.5622091780001,518.3740231180004,518.3585655530001,518.3590894500003,518.3740231180004,518.3740231180004,518.3740231180004,519.2037195300004,,,,,,,,,,,,,,,,,,,,,,,,,,,,,,,right,0.0,0.8091578059998028,,,,,sub-133,1,random_dot,55.84541715993581,
right,right,4.0,0.0,2.0,left,0.0,0.5512946829999237,,accuracy,space,5.080874967,,,,,,0.0,1.0,1.0,0.0,2.0,0.0,4.0,1.0,519.2157425540004,,,,,,,,,519.2041061270002,519.5606852190003,520.3849534240003,520.3683819170001,520.36876695,520.3849534240003,520.3849534240003,520.3849534240003,520.944657942,,,,,,,,,,,,,,,,,,,,,,,,,,,,,,,left,0.0,0.5512946829999237,,,,,sub-133,1,random_dot,55.84541715993581,
left,left,5.0,1.0,2.0,right,0.0,0.4319622250000066,,accuracy,space,5.080874967,,,,,,0.0,1.0,1.0,0.0,2.0,1.0,5.0,0.0,520.9576629070002,,,,,,,,,520.9452014830003,521.7432538960002,522.5526627250001,522.5369121060003,522.5379623430003,522.5526627250001,522.5526627250001,522.5526627250001,523.0029717450002,,,,,,,,,,,,,,,,,,,,,,,,,,,,,,,right,0.0,0.4319622250000066,,,,,sub-133,1,random_dot,55.84541715993581,
left,left,6.0,0.0,3.0,left,1.0,0.7696382580002137,,accuracy,space,5.080874967,,,,,,0.0,1.0,1.0,0.0,3.0,0.0,6.0,0.0,523.0148757660004,,,,,,,,,523.0033567990004,523.1020011620003,523.9024254090004,523.8888331790004,523.8892146630001,523.9024254090004,523.9024254090004,523.9024254090004,524.6852060240003,,,,,,,,,,,,,,,,,,,,,,,,,,,,,,,left,1.0,0.7696382580002137,,,,,sub-133,1,random_dot,55.84541715993581,
right,right,7.0,1.0,3.0,right,1.0,1.4554624299998975,,accuracy,space,5.080874967,,,,,,0.0,1.0,1.0,0.0,3.0,1.0,7.0,1.0,524.6989199750001,,,,,,,,,524.6855956320001,525.8896932420002,526.6928433130001,526.6784599870002,526.6789656200003,526.6928433130001,526.6928433130001,526.6928433130001,528.156038649,,,,,,,,,,,,,,,,,,,,,,,,,,,,,,,right,1.0,1.4554624299998975,,,,,sub-133,1,random_dot,55.84541715993581,
left,left,8.0,0.0,4.0,left,1.0,0.7255760580001152,,accuracy,space,5.080874967,,,,,,0.0,1.0,1.0,0.0,4.0,0.0,8.0,0.0,528.16797636,,,,,,,,,528.1564202850004,528.5087983310004,529.3107998120004,529.2965366980002,529.2971671280002,529.3107998120004,529.3107998120004,529.3107998120004,530.0447049820004,,,,,,,,,,,,,,,,,,,,,,,,,,,,,,,left,1.0,0.7255760580001152,,,,,sub-133,1,random_dot,55.84541715993581,
right,right,9.0,1.0,4.0,right,1.0,0.7062013419999857,,accuracy,space,5.080874967,,,,,,0.0,1.0,1.0,0.0,4.0,1.0,9.0,1.0,530.0575977460003,,,,,,,,,530.0451471600004,530.3991554070003,531.2082631470003,531.1938336770004,531.1943286100004,531.2082631470003,531.2082631470003,531.2082631470003,531.9317059580003,,,,,,,,,,,,,,,,,,,,,,,,,,,,,,,right,1.0,0.7062013419999857,,,,,sub-133,1,random_dot,55.84541715993581,
right,right,10.0,0.0,5.0,left,0.0,1.8457696479999868,,accuracy,space,5.080874967,,,,,,0.0,1.0,1.0,0.0,5.0,0.0,10.0,1.0,531.9431626120004,,,,,,,,,531.93209402,532.0330560240004,532.8397892710004,532.8250065980001,532.8253935760004,532.8397892710004,532.8397892710004,532.8397892710004,534.7024010980003,,,,,,,,,,,,,,,,,,,,,,,,,,,,,,,left,0.0,1.8457696479999868,,,,,sub-133,1,random_dot,55.84541715993581,
left,left,11.0,1.0,5.0,left,1.0,0.4582255300001634,,accuracy,space,5.080874967,,,,,,0.0,1.0,1.0,0.0,5.0,1.0,11.0,0.0,534.7160960330002,,,,,,,,,534.7027835500003,534.8035218150003,535.6015959430001,535.588296335,535.5886629390002,535.6015959430001,535.6015959430001,535.6015959430001,536.0805901760004,,,,,,,,,,,,,,,,,,,,,,,,,,,,,,,left,1.0,0.4582255300001634,,,,,sub-133,1,random_dot,55.84541715993581,
right,right,12.0,0.0,6.0,right,1.0,1.9560279460001768,,accuracy,space,5.080874967,,,,,,0.0,1.0,1.0,0.0,6.0,0.0,12.0,1.0,536.0910254720002,,,,,,,,,536.0815360610004,536.1892446950001,536.9937776270003,536.9792408160001,536.9806000900003,536.9937776270003,536.9937776270003,536.9937776270003,538.9673777880002,,,,,,,,,,,,,,,,,,,,,,,,,,,,,,,right,1.0,1.9560279460001768,,,,,sub-133,1,random_dot,55.84541715993581,
left,left,13.0,1.0,6.0,left,1.0,2.051643389000219,,accuracy,space,5.080874967,,,,,,0.0,1.0,1.0,0.0,6.0,1.0,13.0,0.0,538.9839770430003,,,,,,,,,538.9677666820003,539.0705645590001,539.8811893060001,539.8682112600004,539.868591378,539.8811893060001,539.8811893060001,539.8811893060001,541.9383653890004,,,,,,,,,,,,,,,,,,,,,,,,,,,,,,,left,1.0,2.051643389000219,,,,,sub-133,1,random_dot,55.84541715993581,
left,left,14.0,0.0,7.0,left,1.0,2.6770441879998543,,accuracy,space,5.080874967,,,,,,0.0,1.0,1.0,0.0,7.0,0.0,14.0,0.0,541.9503710800004,,,,,,,,,541.938757247,542.0377722170001,542.84158312,542.8251168890001,542.8255193500004,542.84158312,542.84158312,542.84158312,545.5283148240001,,,,,,,,,,,,,,,,,,,,,,,,,,,,,,,left,1.0,2.6770441879998543,,,,,sub-133,1,random_dot,55.84541715993581,
right,right,15.0,1.0,7.0,right,1.0,0.7738962829998854,,accuracy,space,5.080874967,,,,,,0.0,1.0,1.0,0.0,7.0,1.0,15.0,1.0,545.541930112,,,,,,,,,545.529444453,545.8842583400001,546.6936338060004,546.6792574980004,546.6797728330002,546.6936338060004,546.6936338060004,546.6936338060004,547.4775906490004,,,,,,,,,,,,,,,,,,,,,,,,,,,,,,,right,1.0,0.7738962829998854,,,,,sub-133,1,random_dot,55.84541715993581,
left,left,16.0,0.0,8.0,left,1.0,0.4642171720001897,,accuracy,space,5.080874967,,,,,,0.0,1.0,1.0,0.0,8.0,0.0,16.0,0.0,547.4906000120004,,,,,,,,,547.4780579600001,547.5759196500003,548.3767574330004,548.362303633,548.363026126,548.3767574330004,548.3767574330004,548.3767574330004,548.8480929370003,,,,,,,,,,,,,,,,,,,,,,,,,,,,,,,left,1.0,0.4642171720001897,,,,,sub-133,1,random_dot,55.84541715993581,
right,right,17.0,1.0,8.0,right,1.0,1.2201208899996343,,accuracy,space,5.080874967,,,,,,0.0,1.0,1.0,0.0,8.0,1.0,17.0,1.0,548.860300968,,,,,,,,,548.8484796110001,548.9480335190001,549.748094861,549.734901493,549.7352590550004,549.748094861,549.748094861,549.748094861,550.9849610580004,,,,,,,,,,,,,,,,,,,,,,,,,,,,,,,right,1.0,1.2201208899996343,,,,,sub-133,1,random_dot,55.84541715993581,
right,right,18.0,0.0,9.0,right,1.0,2.1076534090002497,,accuracy,space,5.080874967,,,,,,0.0,1.0,1.0,0.0,9.0,0.0,18.0,1.0,551.0012354720002,,,,,,,,,550.9855486570004,551.3488262570004,552.158094458,552.141869343,552.1422577310004,552.158094458,552.158094458,552.158094458,554.2743631530002,,,,,,,,,,,,,,,,,,,,,,,,,,,,,,,right,1.0,2.1076534090002497,,,,,sub-133,1,random_dot,55.84541715993581,
left,left,19.0,1.0,9.0,right,0.0,1.0923597649998555,,accuracy,space,5.080874967,,,,,,0.0,1.0,1.0,0.0,9.0,1.0,19.0,0.0,554.2862011080001,,,,,,,,,554.274743334,554.6339048110003,555.4343218650001,555.4203592480003,555.4213461090003,555.4343218650001,555.4343218650001,555.4343218650001,556.5435408790004,,,,,,,,,,,,,,,,,,,,,,,,,,,,,,,right,0.0,1.0923597649998555,,,,,sub-133,1,random_dot,55.84541715993581,
left,left,20.0,0.0,10.0,left,1.0,0.4821403699997972,,accuracy,space,5.080874967,,,,,,0.0,1.0,1.0,0.0,10.0,0.0,20.0,0.0,556.5565497480002,,,,,,,,,556.5439459290001,556.8932025570002,557.6931928590002,557.6792350530004,557.6803518780002,557.6931928590002,557.6931928590002,557.6931928590002,558.2005790570001,,,,,,,,,,,,,,,,,,,,,,,,,,,,,,,left,1.0,0.4821403699997972,,,,,sub-133,1,random_dot,55.84541715993581,
right,right,21.0,1.0,10.0,right,1.0,0.3478579050001826,,accuracy,space,5.080874967,,,,,,0.0,1.0,1.0,0.0,10.0,1.0,21.0,1.0,558.2170478700004,,,,,,,,,558.2009866610001,558.304186669,559.1170558080003,559.0995366780003,559.0999170040004,559.1170558080003,559.1170558080003,559.1170558080003,559.4820877490001,,,,,,,,,,,,,,,,,,,,,,,,,,,,,,,right,1.0,0.3478579050001826,,,,,sub-133,1,random_dot,55.84541715993581,
left,left,22.0,0.0,11.0,left,1.0,0.3563857939998343,,accuracy,space,5.080874967,,,,,,0.0,1.0,1.0,0.0,11.0,0.0,22.0,0.0,559.4935868870002,,,,,,,,,559.482475497,559.8375023060003,560.6436602550002,560.6294420840004,560.6305821380001,560.6436602550002,560.6436602550002,560.6436602550002,561.006198731,,,,,,,,,,,,,,,,,,,,,,,,,,,,,,,left,1.0,0.3563857939998343,,,,,sub-133,1,random_dot,55.84541715993581,
right,right,23.0,1.0,11.0,left,0.0,1.711108010999851,,accuracy,space,5.080874967,,,,,,0.0,1.0,1.0,0.0,11.0,1.0,23.0,1.0,561.0179847720001,,,,,,,,,561.0066002960002,561.1055324640001,561.9103916860004,561.8958392850004,561.8962701540004,561.9103916860004,561.9103916860004,561.9103916860004,563.6267981590004,,,,,,,,,,,,,,,,,,,,,,,,,,,,,,,left,0.0,1.711108010999851,,,,,sub-133,1,random_dot,55.84541715993581,
right,right,24.0,0.0,12.0,right,1.0,1.1090917279998391,,accuracy,space,5.080874967,,,,,,0.0,1.0,1.0,0.0,12.0,0.0,24.0,1.0,563.6400097220003,,,,,,,,,563.6272434960001,564.4313211150002,565.2345086170003,565.219994688,565.2203496950001,565.2345086170003,565.2345086170003,565.2345086170003,566.3613669420001,,,,,,,,,,,,,,,,,,,,,,,,,,,,,,,right,1.0,1.1090917279998391,,,,,sub-133,1,random_dot,55.84541715993581,
left,left,25.0,1.0,12.0,left,1.0,1.94802117800009,,accuracy,space,5.080874967,,,,,,0.0,1.0,1.0,0.0,12.0,1.0,25.0,0.0,566.3742078270002,,,,,,,,,566.362493264,566.4682255960001,567.2837636070003,567.2660471400004,567.2664338590002,567.2837636070003,567.2837636070003,567.2837636070003,569.2364432440004,,,,,,,,,,,,,,,,,,,,,,,,,,,,,,,left,1.0,1.94802117800009,,,,,sub-133,1,random_dot,55.84541715993581,
right,right,26.0,0.0,13.0,right,1.0,1.0791429490000155,,accuracy,space,5.080874967,,,,,,0.0,1.0,1.0,0.0,13.0,0.0,26.0,1.0,569.2497857850003,,,,,,,,,569.2368356790003,570.4383971980001,571.2429312490003,571.228520694,571.2292003140001,571.2429312490003,571.2429312490003,571.2429312490003,572.3284205180003,,,,,,,,,,,,,,,,,,,,,,,,,,,,,,,right,1.0,1.0791429490000155,,,,,sub-133,1,random_dot,55.84541715993581,
left,left,27.0,1.0,13.0,right,0.0,1.04146234000018,,accuracy,space,5.080874967,,,,,,0.0,1.0,1.0,0.0,13.0,1.0,27.0,0.0,572.341222299,,,,,,,,,572.3298058970004,572.681859755,573.4913272550002,573.4749855240002,573.4753759080004,573.4913272550002,573.4913272550002,573.4913272550002,574.5401357080004,,,,,,,,,,,,,,,,,,,,,,,,,,,,,,,right,0.0,1.04146234000018,,,,,sub-133,1,random_dot,55.84541715993581,
right,right,28.0,0.0,14.0,left,0.0,0.6041013680005562,,accuracy,space,5.080874967,,,,,,0.0,1.0,1.0,0.0,14.0,0.0,28.0,1.0,574.5526215750001,,,,,,,,,574.5406263990003,575.3386774230003,576.1433776700001,576.1290660569998,576.1301770060004,576.1433776700001,576.1433776700001,576.1433776700001,576.7646086110003,,,,,,,,,,,,,,,,,,,,,,,,,,,,,,,left,0.0,0.6041013680005562,,,,,sub-133,1,random_dot,55.84541715993581,
left,left,29.0,1.0,14.0,right,0.0,0.668478610999955,,accuracy,space,5.080874967,,,,,,0.0,1.0,1.0,0.0,14.0,1.0,29.0,0.0,576.7762993660003,,,,,,,,,576.7650072339998,577.1150851300004,577.9147531310005,577.9017359180002,577.9020997350003,577.9147531310005,577.9147531310005,577.9147531310005,578.5971786270006,,,,,,,,,,,,,,,,,,,,,,,,,,,,,,,right,0.0,0.668478610999955,,,,,sub-133,1,random_dot,55.84541715993581,
left,left,30.0,0.0,15.0,left,1.0,0.4744386290003604,,accuracy,space,5.080874967,,,,,,0.0,1.0,1.0,0.0,15.0,0.0,30.0,0.0,578.6094019280004,,,,,,,,,578.5975904279999,579.7990554000003,580.607700946,580.5916246219999,580.5920111179998,580.607700946,580.607700946,580.607700946,581.0850923110006,,,,,,,,,,,,,,,,,,,,,,,,,,,,,,,left,1.0,0.4744386290003604,,,,,sub-133,1,random_dot,55.84541715993581,
right,right,31.0,1.0,15.0,left,0.0,0.9733812659997056,,accuracy,space,5.080874967,,,,,,0.0,1.0,1.0,0.0,15.0,1.0,31.0,1.0,581.0999480450005,,,,,,,,,581.0854741010003,581.4340538769998,582.2423532300004,582.2281741500005,582.22913535,582.2423532300004,582.2423532300004,582.2423532300004,583.2359010310006,,,,,,,,,,,,,,,,,,,,,,,,,,,,,,,left,0.0,0.9733812659997056,,,,,sub-133,1,random_dot,55.84541715993581,
left,left,32.0,0.0,16.0,right,0.0,0.5527334660000633,,accuracy,space,5.080874967,,,,,,0.0,1.0,1.0,0.0,16.0,0.0,32.0,0.0,583.2460760300005,,,,,,,,,583.2362919749999,583.3360112410005,584.138871779,584.12437292,584.124747243,584.138871779,584.138871779,584.138871779,584.7115329809999,,,,,,,,,,,,,,,,,,,,,,,,,,,,,,,right,0.0,0.5527334660000633,,,,,sub-133,1,random_dot,55.84541715993581,
right,right,33.0,1.0,16.0,left,0.0,0.5225409020004008,,accuracy,space,5.080874967,,,,,,0.0,1.0,1.0,0.0,16.0,1.0,33.0,1.0,584.7224762580004,,,,,,,,,584.7125345460004,585.9087154560007,586.7172914080006,586.7034596570006,586.7044598530006,586.7172914080006,586.7172914080006,586.7172914080006,587.2548756130004,,,,,,,,,,,,,,,,,,,,,,,,,,,,,,,left,0.0,0.5225409020004008,,,,,sub-133,1,random_dot,55.84541715993581,
left,left,34.0,0.0,17.0,right,0.0,0.4087100460001238,,accuracy,space,5.080874967,,,,,,0.0,1.0,1.0,0.0,17.0,0.0,34.0,0.0,587.2669274660007,,,,,,,,,587.2552644510001,588.4576454880003,589.2677300400005,589.2527596280001,589.2531469070004,589.2677300400005,589.2677300400005,589.2677300400005,589.6939552939998,,,,,,,,,,,,,,,,,,,,,,,,,,,,,,,right,0.0,0.4087100460001238,,,,,sub-133,1,random_dot,55.84541715993581,
right,right,35.0,1.0,17.0,left,0.0,0.4991969700004119,,accuracy,space,5.080874967,,,,,,0.0,1.0,1.0,0.0,17.0,1.0,35.0,1.0,589.7067945610002,,,,,,,,,589.6944097330002,590.4933423930001,591.3034593369998,591.2899623210001,591.2903362299999,591.3034593369998,591.3034593369998,591.3034593369998,591.807212491,,,,,,,,,,,,,,,,,,,,,,,,,,,,,,,left,0.0,0.4991969700004119,,,,,sub-133,1,random_dot,55.84541715993581,
right,right,36.0,0.0,18.0,right,1.0,0.4230411230000754,,accuracy,space,5.080874967,,,,,,0.0,1.0,1.0,0.0,18.0,0.0,36.0,1.0,591.819247375,,,,,,,,,591.8075989660006,593.0159633940007,593.8246296050006,593.8090969569998,593.809595313,593.8246296050006,593.8246296050006,593.8246296050006,594.2542759510002,,,,,,,,,,,,,,,,,,,,,,,,,,,,,,,right,1.0,0.4230411230000754,,,,,sub-133,1,random_dot,55.84541715993581,
left,left,37.0,1.0,18.0,left,1.0,0.4708507920004194,,accuracy,space,5.080874967,,,,,,0.0,1.0,1.0,0.0,18.0,1.0,37.0,0.0,594.2664304180003,,,,,,,,,594.2546737500002,595.0562349530005,595.8554089310005,595.8406647160004,595.8410441770006,595.8554089310005,595.8554089310005,595.8554089310005,596.344503111,,,,,,,,,,,,,,,,,,,,,,,,,,,,,,,left,1.0,0.4708507920004194,,,,,sub-133,1,random_dot,55.84541715993581,
left,left,38.0,0.0,19.0,right,0.0,0.4051425530005872,,accuracy,space,5.080874967,,,,,,0.0,1.0,1.0,0.0,19.0,0.0,38.0,0.0,596.3574827300004,,,,,,,,,596.3458617010006,596.4431532510002,597.2422603560003,597.2281277790003,597.2290892200003,597.2422603560003,597.2422603560003,597.2422603560003,597.6673861250006,,,,,,,,,,,,,,,,,,,,,,,,,,,,,,,right,0.0,0.4051425530005872,,,,,sub-133,1,random_dot,55.84541715993581,
right,right,39.0,1.0,19.0,left,0.0,0.513503937000678,,accuracy,space,5.080874967,,,,,,0.0,1.0,1.0,0.0,19.0,1.0,39.0,1.0,597.6773809520005,,,,,,,,,597.6677939080005,598.0204946070003,598.8240904850004,598.8079233230005,598.8082928340004,598.8240904850004,598.8240904850004,598.8240904850004,599.3473953859998,,,,,,,,,,,,,,,,,,,,,,,,,,,,,,,left,0.0,0.513503937000678,,,,,sub-133,1,random_dot,55.84541715993581,
left,left,40.0,0.0,20.0,left,1.0,0.4768300030000318,,accuracy,space,5.080874967,,,,,,0.0,1.0,1.0,0.0,20.0,0.0,40.0,0.0,599.3588835989999,,,,,,,,,599.3477974809998,600.1435870210003,600.9470637070003,600.9339896880006,600.9343887270002,600.9470637070003,600.9470637070003,600.9470637070003,601.4303457400006,,,,,,,,,,,,,,,,,,,,,,,,,,,,,,,left,1.0,0.4768300030000318,,,,,sub-133,1,random_dot,55.84541715993581,
right,right,41.0,1.0,20.0,left,0.0,0.6843764169998394,,accuracy,space,5.080874967,,,,,,0.0,1.0,1.0,0.0,20.0,1.0,41.0,1.0,601.441767846,,,,,,,,,601.4307353990002,602.2315213030001,603.0288694380001,603.0159129170002,603.0162920980006,603.0288694380001,603.0288694380001,603.0288694380001,603.7190701169998,,,,,,,,,,,,,,,,,,,,,,,,,,,,,,,left,0.0,0.6843764169998394,,,,,sub-133,1,random_dot,55.84541715993581,
left,left,42.0,0.0,21.0,right,0.0,0.922832357000516,,accuracy,space,5.080874967,,,,,,0.0,1.0,1.0,0.0,21.0,0.0,42.0,0.0,603.7328767310005,,,,,,,,,603.7194718200003,604.9175452190007,605.7247979200006,605.7108334760001,605.7113191190006,605.7247979200006,605.7247979200006,605.7247979200006,606.663531355,,,,,,,,,,,,,,,,,,,,,,,,,,,,,,,right,0.0,0.922832357000516,,,,,sub-133,1,random_dot,55.84541715993581,
right,right,43.0,1.0,21.0,left,0.0,0.8539679739997155,,accuracy,space,5.080874967,,,,,,0.0,1.0,1.0,0.0,21.0,1.0,43.0,1.0,606.6750503200005,,,,,,,,,606.663939734,606.7591119900003,607.5694418200005,607.5561581249999,607.5566595000005,607.5694418200005,607.5694418200005,607.5694418200005,608.4266303260006,,,,,,,,,,,,,,,,,,,,,,,,,,,,,,,left,0.0,0.8539679739997155,,,,,sub-133,1,random_dot,55.84541715993581,
right,right,44.0,0.0,22.0,left,0.0,0.8618264779997844,,accuracy,space,5.080874967,,,,,,0.0,1.0,1.0,0.0,22.0,0.0,44.0,1.0,608.4412801530002,,,,,,,,,608.4272950979998,609.2331190030004,610.040566827,610.0242610030004,610.0246268220003,610.040566827,610.040566827,610.040566827,610.9191533260005,,,,,,,,,,,,,,,,,,,,,,,,,,,,,,,left,0.0,0.8618264779997844,,,,,sub-133,1,random_dot,55.84541715993581,
left,left,45.0,1.0,22.0,left,1.0,1.184050319000562,,accuracy,space,5.080874967,,,,,,0.0,1.0,1.0,0.0,22.0,1.0,45.0,0.0,610.9327642900003,,,,,,,,,610.9195399430005,611.7315348970001,612.5409212690006,612.5256140930001,612.52634283,612.5409212690006,612.5409212690006,612.5409212690006,613.7335245870004,,,,,,,,,,,,,,,,,,,,,,,,,,,,,,,left,1.0,1.184050319000562,,,,,sub-133,1,random_dot,55.84541715993581,
left,left,46.0,0.0,23.0,left,1.0,0.7326208829999814,,accuracy,space,5.080874967,,,,,,0.0,1.0,1.0,0.0,23.0,0.0,46.0,0.0,613.7497796000002,,,,,,,,,613.7339201240006,614.9337017080002,615.730527702,615.7172091450007,615.7175615660003,615.730527702,615.730527702,615.730527702,616.4679329690002,,,,,,,,,,,,,,,,,,,,,,,,,,,,,,,left,1.0,0.7326208829999814,,,,,sub-133,1,random_dot,55.84541715993581,
right,right,47.0,1.0,23.0,right,1.0,0.4831829960003233,,accuracy,space,5.080874967,,,,,,0.0,1.0,1.0,0.0,23.0,1.0,47.0,1.0,616.481999477,,,,,,,,,616.4683151200002,617.6653039650005,618.4743090630004,618.4579658070002,618.4583500880003,618.4743090630004,618.4743090630004,618.4743090630004,618.9778712840002,,,,,,,,,,,,,,,,,,,,,,,,,,,,,,,right,1.0,0.4831829960003233,,,,,sub-133,1,random_dot,55.84541715993581,
right,right,48.0,0.0,24.0,left,0.0,0.4848395259996323,,accuracy,space,5.080874967,,,,,,0.0,1.0,1.0,0.0,24.0,0.0,48.0,1.0,618.9887132680001,,,,,,,,,618.9793123630002,619.7856988620001,620.5859682360001,620.5708907100002,620.571361621,620.5859682360001,620.5859682360001,620.5859682360001,621.0894685910002,,,,,,,,,,,,,,,,,,,,,,,,,,,,,,,left,0.0,0.4848395259996323,,,,,sub-133,1,random_dot,55.84541715993581,
left,left,49.0,1.0,24.0,left,1.0,0.5755414280001787,,accuracy,space,5.080874967,,,,,,0.0,1.0,1.0,0.0,24.0,1.0,49.0,0.0,621.101248341,,,,,,,,,621.0898548300006,622.3006996400004,623.0974800690005,623.0845394680005,623.0849051750006,623.0974800690005,623.0974800690005,623.0974800690005,623.6814045870001,,,,,,,,,,,,,,,,,,,,,,,,,,,,,,,left,1.0,0.5755414280001787,,,,,sub-133,1,random_dot,55.84541715993581,
left,left,50.0,0.0,25.0,right,0.0,0.4670377909997114,,accuracy,space,5.080874967,,,,,,0.0,1.0,1.0,0.0,25.0,0.0,50.0,0.0,623.6934691660003,,,,,,,,,623.6818040970006,624.0262447700002,624.8329865179999,624.8151622390001,624.8155155970003,624.8329865179999,624.8329865179999,624.8329865179999,625.3141557230006,,,,,,,,,,,,,,,,,,,,,,,,,,,,,,,right,0.0,0.4670377909997114,,,,,sub-133,1,random_dot,55.84541715993581,
right,right,51.0,1.0,25.0,left,0.0,0.4981397370002014,,accuracy,space,5.080874967,,,,,,0.0,1.0,1.0,0.0,25.0,1.0,51.0,1.0,625.3257103070005,,,,,,,,,625.3145422660004,626.5143428240003,627.3168262170007,627.3031911439998,627.3039608120002,627.3168262170007,627.3168262170007,627.3168262170007,627.8285109860003,,,,,,,,,,,,,,,,,,,,,,,,,,,,,,,left,0.0,0.4981397370002014,,,,,sub-133,1,random_dot,55.84541715993581,
right,right,52.0,0.0,26.0,right,1.0,0.6062992119996125,,accuracy,space,5.080874967,,,,,,0.0,1.0,1.0,0.0,26.0,0.0,52.0,1.0,627.8406134420006,,,,,,,,,627.8293204840006,629.0313408460001,629.8331533450005,629.8187666260005,629.8198657739999,629.8331533450005,629.8331533450005,629.8331533450005,630.4547135759999,,,,,,,,,,,,,,,,,,,,,,,,,,,,,,,right,1.0,0.6062992119996125,,,,,sub-133,1,random_dot,55.84541715993581,
left,left,53.0,1.0,26.0,left,1.0,0.4787085100006152,,accuracy,space,5.080874967,,,,,,0.0,1.0,1.0,0.0,26.0,1.0,53.0,0.0,630.4668953360001,,,,,,,,,630.4551006400002,630.555050683,631.3690019270002,631.3520026000001,631.3523469950001,631.3690019270002,631.3690019270002,631.3690019270002,631.8594108030006,,,,,,,,,,,,,,,,,,,,,,,,,,,,,,,left,1.0,0.4787085100006152,,,,,sub-133,1,random_dot,55.84541715993581,
right,right,54.0,0.0,27.0,right,1.0,0.599256374000106,,accuracy,space,5.080874967,,,,,,0.0,1.0,1.0,0.0,27.0,0.0,54.0,1.0,631.8724540620001,,,,,,,,,631.8598516550005,632.659743918,633.4663039820002,633.4508997010003,633.4516809689999,633.4663039820002,633.4663039820002,633.4663039820002,634.085296752,,,,,,,,,,,,,,,,,,,,,,,,,,,,,,,right,1.0,0.599256374000106,,,,,sub-133,1,random_dot,55.84541715993581,
left,left,55.0,1.0,27.0,right,0.0,0.5366310980007256,,accuracy,space,5.080874967,,,,,,0.0,1.0,1.0,0.0,27.0,1.0,55.0,0.0,634.0972945449998,,,,,,,,,634.0857225189998,635.2835136030003,636.0829537650002,636.0695202030006,636.0702144500005,636.0829537650002,636.0829537650002,636.0829537650002,636.6244086920001,,,,,,,,,,,,,,,,,,,,,,,,,,,,,,,right,0.0,0.5366310980007256,,,,,sub-133,1,random_dot,55.84541715993581,
left,left,56.0,0.0,28.0,left,1.0,0.4469742349992884,,accuracy,space,5.080874967,,,,,,0.0,1.0,1.0,0.0,28.0,0.0,56.0,0.0,636.6385719550003,,,,,,,,,636.6249831770006,637.826486167,638.6265714830001,638.6127902570001,638.6140925250006,638.6265714830001,638.6265714830001,638.6265714830001,639.0809014020001,,,,,,,,,,,,,,,,,,,,,,,,,,,,,,,left,1.0,0.4469742349992884,,,,,sub-133,1,random_dot,55.84541715993581,
right,right,57.0,1.0,28.0,right,1.0,0.535765696999988,,accuracy,space,5.080874967,,,,,,0.0,1.0,1.0,0.0,28.0,1.0,57.0,1.0,639.0925204780001,,,,,,,,,639.0814744120003,639.1760650290003,639.9816636500004,639.9670822230005,639.9674539350003,639.9816636500004,639.9816636500004,639.9816636500004,640.5231657919999,,,,,,,,,,,,,,,,,,,,,,,,,,,,,,,right,1.0,0.535765696999988,,,,,sub-133,1,random_dot,55.84541715993581,
right,right,58.0,0.0,29.0,left,0.0,0.502355723000619,,accuracy,space,5.080874967,,,,,,0.0,1.0,1.0,0.0,29.0,0.0,58.0,1.0,640.5350167430001,,,,,,,,,640.5235536949999,641.7258307810002,642.526003945,642.5118169080001,642.5129607009999,642.526003945,642.526003945,642.526003945,643.0456063719998,,,,,,,,,,,,,,,,,,,,,,,,,,,,,,,left,0.0,0.502355723000619,,,,,sub-133,1,random_dot,55.84541715993581,
left,left,59.0,1.0,29.0,right,0.0,0.5973866100002851,,accuracy,space,5.080874967,,,,,,0.0,1.0,1.0,0.0,29.0,1.0,59.0,0.0,643.0571711020007,,,,,,,,,643.0460001920005,643.4003440339998,644.2068896280002,644.1925688820006,644.193039452,644.2068896280002,644.2068896280002,644.2068896280002,644.8133519110002,,,,,,,,,,,,,,,,,,,,,,,,,,,,,,,right,0.0,0.5973866100002851,,,,,sub-133,1,random_dot,55.84541715993581,
,,1.0,1.0,0.0,,,,,accuracy,space,5.080874967,,,,,,0.0,1.0,1.0,0.0,,,,,,,,,,,,,,,,,,,,,,,,,,,,,,,,,,,,,,,,,,,,,,,,,,,,,,,,,,,,sub-133,1,random_dot,55.84541715993581,
,,,,,,,,,,,,,,,,,,,,,,,,,,,,,,,,,,,,,,,,,,,,,,,,,,,,,,,,,,,,,,,,,,,,,,,,,,,,,644.818715805,644.833434007,649.8249720680001,sub-133,1,random_dot,55.84541715993581,
