direction,corrAns,thisN,thisTrialN,thisRepN,respDots.keys,respDots.corr,respDots.rt,respDots.duration,randomInstr,respRandomInstr.keys,respRandomInstr.rt,respRandomInstr.duration,practice_trials.thisRepN,practice_trials.thisTrialN,practice_trials.thisN,practice_trials.thisIndex,instr_trials.thisRepN,instr_trials.thisTrialN,instr_trials.thisN,instr_trials.thisIndex,test_trials.thisRepN,test_trials.thisTrialN,test_trials.thisN,test_trials.thisIndex,thisRow.t,notes,general_instruction.started,textGeneralInstr.started,respGeneralInstr.started,general_instruction.stopped,respGeneralInstr.keys,respGeneralInstr.rt,respGeneralInstr.duration,ITI.started,fixcross.started,fixcross.stopped,ITI.stopped,dots.started,backgroundDots.started,stimulusDots.started,respDots.started,dots.stopped,practice_trials.respDots.keys,practice_trials.respDots.corr,practice_trials.respDots.rt,practice_trials.respDots.duration,feedback.started,textFeedback.started,textFeedback.stopped,feedback.stopped,stimulusDots.stopped,info.started,textInfo.started,keyRespInfo.started,info.stopped,keyRespInfo.keys,keyRespInfo.rt,keyRespInfo.duration,test_instruction.started,textTestInstr.started,respTestInstr.started,test_instruction.stopped,respTestInstr.keys,respTestInstr.rt,respTestInstr.duration,random_instruction.started,textRandomInstr.started,respRandomInstr.started,random_instruction.stopped,instr_trials.respRandomInstr.keys,instr_trials.respRandomInstr.rt,instr_trials.respRandomInstr.duration,test_trials.respDots.keys,test_trials.respDots.corr,test_trials.respDots.rt,test_trials.respDots.duration,goodbye.started,textGoodbye.started,goodbye.stopped,participant,session,expName,frameRate,Unnamed: 87
,,,,,,,,,,,,,,,,,,,,,,,,,,,0.0027062999999998,0.0127544000000625,0.0127544000000625,19.535814099999925,space,19.48469820000014,,,,,,,,,,,,,,,,,,,,,,,,,,,,,,,,,,,,,,,,,,,,,,,,sub-188,1,random_dot,60.0957204635559,
right,right,0.0,0.0,0.0,right,1.0,2.687759599999936,,,,,,0.0,0.0,0.0,1.0,,,,,,,,,19.55842860000007,,,,,,,,,19.55492000000004,20.744713400000137,21.551439900000105,21.52772419999997,21.528275800000078,21.551439900000105,21.551439900000105,21.551439900000105,24.242061700000026,right,1.0,2.687759599999936,,24.252998500000103,24.256926600000043,24.756084200000032,24.739707899999985,,,,,,,,,,,,,,,,,,,,,,,,,,,,,,sub-188,1,random_dot,60.0957204635559,
left,left,1.0,1.0,0.0,left,1.0,0.905234500000006,,,,,,0.0,1.0,1.0,0.0,,,,,,,,,24.756084200000032,,,,,,,,,24.73996650000004,25.95478960000014,26.7718668,26.754132600000048,26.75472960000002,26.7718668,26.7718668,26.7718668,27.687563200000117,left,1.0,0.905234500000006,,27.6877171000001,27.70236130000012,28.201549699999987,28.185098299999936,,,,,,,,,,,,,,,,,,,,,,,,,,,,,,sub-188,1,random_dot,60.0957204635559,
right,right,2.0,0.0,1.0,right,1.0,2.607649600000059,,,,,,1.0,0.0,2.0,1.0,,,,,,,,,28.201549699999987,,,,,,,,,28.185311500000125,28.30170270000008,29.11868340000001,29.1011039,29.10166470000013,29.11868340000001,29.11868340000001,29.11868340000001,31.732001800000035,right,1.0,2.607649600000059,,31.732087699999965,31.74691959999996,32.2464566000001,32.23024699999996,,,,,,,,,,,,,,,,,,,,,,,,,,,,,,sub-188,1,random_dot,60.0957204635559,
left,left,3.0,1.0,1.0,left,1.0,0.8425922999999784,,,,,,1.0,1.0,3.0,0.0,,,,,,,,,32.2464566000001,,,,,,,,,32.23076949999995,32.34638229999996,33.16411549999998,33.14542699999993,33.14585710000006,33.16411549999998,33.16411549999998,33.16411549999998,34.012479600000006,left,1.0,0.8425922999999784,,34.01260030000003,34.02731169999993,34.526603900000055,34.51018320000003,,,,,,,,,,,,,,,,,,,,,,,,,,,,,,sub-188,1,random_dot,60.0957204635559,
left,left,4.0,0.0,2.0,left,1.0,1.3612716000000091,,,,,,2.0,0.0,4.0,0.0,,,,,,,,,34.526603900000055,,,,,,,,,34.51049090000015,35.72487879999994,36.52560319999998,36.50790180000013,36.50849229999994,36.52560319999998,36.52560319999998,36.52560319999998,37.89091170000006,left,1.0,1.3612716000000091,,37.89106820000006,37.90572670000006,38.40496750000011,38.38876589999995,,,,,,,,,,,,,,,,,,,,,,,,,,,,,,sub-188,1,random_dot,60.0957204635559,
right,right,5.0,1.0,2.0,right,1.0,0.8959403999999722,,,,,,2.0,1.0,5.0,1.0,,,,,,,,,38.40496750000011,,,,,,,,,38.38928269999997,39.20391380000001,40.02068929999996,40.00271840000005,40.00294589999999,40.02068929999996,40.02068929999996,40.02068929999996,40.92034660000013,right,1.0,0.8959403999999722,,40.92051480000009,40.93487470000014,41.433900300000005,41.41748970000003,,,,,,,,,,,,,,,,,,,,,,,,,,,,,,sub-188,1,random_dot,60.0957204635559,
left,left,6.0,0.0,3.0,left,1.0,0.943926200000078,,,,,,3.0,0.0,6.0,0.0,,,,,,,,,41.433900300000005,,,,,,,,,41.41769990000012,42.23299300000008,43.03369550000002,43.01599920000013,43.01665560000015,43.03369550000002,43.03369550000002,43.03369550000002,43.982865200000106,left,1.0,0.943926200000078,,43.98303680000004,43.99759059999997,44.49690600000008,44.48069129999999,,,,,,,,,,,,,,,,,,,,,,,,,,,,,,sub-188,1,random_dot,60.0957204635559,
right,right,7.0,1.0,3.0,right,1.0,0.9391034000000218,,,,,,3.0,1.0,7.0,1.0,,,,,,,,,44.49690600000008,,,,,,,,,44.48122310000008,45.69513830000005,46.512315899999976,46.49437690000013,46.49477879999995,46.512315899999976,46.512315899999976,46.512315899999976,47.46161140000004,right,1.0,0.9391034000000218,,47.46177290000014,47.476299500000096,47.975620400000025,47.95949139999993,,,,,,,,,,,,,,,,,,,,,,,,,,,,,,sub-188,1,random_dot,60.0957204635559,
left,left,8.0,0.0,4.0,left,1.0,0.9577868999999736,,,,,,4.0,0.0,8.0,0.0,,,,,,,,,47.975620400000025,,,,,,,,,47.96001860000001,48.77437000000009,49.59142390000011,49.5735095,49.5737944,49.59142390000011,49.59142390000011,49.59142390000011,50.55761910000001,left,1.0,0.9577868999999736,,50.55779589999997,50.57231120000006,51.07135130000006,51.05499959999997,,,,,,,,,,,,,,,,,,,,,,,,,,,,,,sub-188,1,random_dot,60.0957204635559,
right,right,9.0,1.0,4.0,right,1.0,0.8494271000001845,,,,,,4.0,1.0,9.0,1.0,,,,,,,,,51.07135130000006,,,,,,,,,51.05531369999994,51.87040070000012,52.68732750000004,52.66942590000008,52.66970000000015,52.68732750000004,52.68732750000004,52.68732750000004,53.553116000000045,right,1.0,0.8494271000001845,,53.55321120000008,53.56797950000009,54.067338399999926,54.05101710000008,,,,,,,,,,,,,,,,,,,,,,,,,,,,,,sub-188,1,random_dot,60.0957204635559,
right,right,10.0,0.0,5.0,left,0.0,0.820203999999876,,,,,,5.0,0.0,10.0,1.0,,,,,,,,,54.067338399999926,,,,,,,,,54.05132330000015,54.41702690000011,55.23411370000008,55.216331099999934,55.21680670000001,55.23411370000008,55.23411370000008,55.23411370000008,56.06645030000004,left,0.0,0.820203999999876,,56.07301480000001,56.08126040000002,56.5806563000001,56.564287899999954,,,,,,,,,,,,,,,,,,,,,,,,,,,,,,sub-188,1,random_dot,60.0957204635559,
left,left,11.0,1.0,5.0,left,1.0,1.876622700000098,,,,,,5.0,1.0,11.0,0.0,,,,,,,,,56.5806563000001,,,,,,,,,56.56452830000012,56.68047339999998,57.48110080000015,57.46320620000006,57.4636081000001,57.48110080000015,57.48110080000015,57.48110080000015,59.36257260000002,left,1.0,1.876622700000098,,59.36757650000004,59.37721970000007,59.87651840000012,59.85989730000006,,,,,,,,,,,,,,,,,,,,,,,,,,,,,,sub-188,1,random_dot,60.0957204635559,
left,left,12.0,0.0,6.0,left,1.0,2.0632611999999426,,,,,,6.0,0.0,12.0,0.0,,,,,,,,,59.87651840000012,,,,,,,,,59.86014090000003,61.074746400000095,61.89173679999999,61.87389550000012,61.87418900000012,61.89173679999999,61.89173679999999,61.89173679999999,63.95601540000007,left,1.0,2.0632611999999426,,63.95610260000012,63.9709491000001,64.47023230000013,64.4543169000001,,,,,,,,,,,,,,,,,,,,,,,,,,,,,,sub-188,1,random_dot,60.0957204635559,
right,right,13.0,1.0,6.0,right,1.0,1.7855083999997987,,,,,,6.0,1.0,13.0,1.0,,,,,,,,,64.47023230000013,,,,,,,,,64.45481949999999,65.66879540000014,66.48570719999998,66.4677623,66.4680257,66.48570719999998,66.48570719999998,66.48570719999998,68.28361689999997,right,1.0,1.7855083999997987,,68.28370930000006,68.2985162,68.79782780000005,68.78147080000008,,,,,,,,,,,,,,,,,,,,,,,,,,,,,,sub-188,1,random_dot,60.0957204635559,
left,left,14.0,0.0,7.0,left,1.0,0.8066628999999921,,,,,,7.0,0.0,14.0,0.0,,,,,,,,,68.79782780000005,,,,,,,,,68.78173800000013,68.8977989,69.69839479999996,69.68066160000012,69.68125950000012,69.69839479999996,69.69839479999996,69.69839479999996,70.51460259999999,left,1.0,0.8066628999999921,,70.5147899000001,70.52924540000004,71.02821949999998,71.01183179999998,,,,,,,,,,,,,,,,,,,,,,,,,,,,,,sub-188,1,random_dot,60.0957204635559,
right,right,15.0,1.0,7.0,right,1.0,0.927881999999954,,,,,,7.0,1.0,15.0,1.0,,,,,,,,,71.02821949999998,,,,,,,,,71.01206900000011,72.22679900000003,73.04362259999994,73.02578280000012,73.02606220000007,73.04362259999994,73.04362259999994,73.04362259999994,73.97635280000009,right,1.0,0.927881999999954,,73.97649539999998,73.99119769999993,74.49053780000008,74.47417810000002,,,,,,,,,,,,,,,,,,,,,,,,,,,,,,sub-188,1,random_dot,60.0957204635559,
right,right,16.0,0.0,8.0,right,1.0,3.056177800000114,,,,,,8.0,0.0,16.0,1.0,,,,,,,,,74.49053780000008,,,,,,,,,74.47466699999995,75.28921300000002,76.08962250000013,76.07184350000011,76.07222590000015,76.08962250000013,76.08962250000013,76.08962250000013,79.15254930000015,right,1.0,3.056177800000114,,79.15263200000004,79.16740830000003,79.66667400000006,79.65032289999999,,,,,,,,,,,,,,,,,,,,,,,,,,,,,,sub-188,1,random_dot,60.0957204635559,
left,left,17.0,1.0,8.0,left,1.0,0.7345335999998497,,,,,,8.0,1.0,17.0,0.0,,,,,,,,,79.66667400000006,,,,,,,,,79.65055400000006,80.86516210000013,81.66577269999993,81.64811469999995,81.64866370000004,81.66577269999993,81.66577269999993,81.66577269999993,82.4150019000001,left,1.0,0.7345335999998497,,82.41511630000014,82.42984890000002,82.92935000000011,82.91320930000006,,,,,,,,,,,,,,,,,,,,,,,,,,,,,,sub-188,1,random_dot,60.0957204635559,
left,left,18.0,0.0,9.0,left,1.0,1.137766400000146,,,,,,9.0,0.0,18.0,0.0,,,,,,,,,82.92935000000011,,,,,,,,,82.91374360000009,84.12754930000006,84.94452189999993,84.92669079999996,84.92697399999997,84.94452189999993,84.94452189999993,84.94452189999993,86.0931759,left,1.0,1.137766400000146,,86.09325690000014,86.10821830000009,86.60754700000007,86.59119390000001,,,,,,,,,,,,,,,,,,,,,,,,,,,,,,sub-188,1,random_dot,60.0957204635559,
right,right,19.0,1.0,9.0,left,0.0,6.670662499999935,,,,,,9.0,1.0,19.0,1.0,,,,,,,,,86.60754700000007,,,,,,,,,86.59144029999993,86.70743300000004,87.5080676,87.49047940000014,87.49108720000004,87.5080676,87.5080676,87.5080676,94.18302050000013,left,0.0,6.670662499999935,,94.18812330000014,94.19778599999997,94.69740860000002,94.68090039999991,92.50115490000007,,,,,,,,,,,,,,,,,,,,,,,,,,,,,sub-188,1,random_dot,60.0957204635559,
,,,,,,,,,,,,,,,,,,,,,,,,,,,,,,,,,,,,,,,,,,,,,,,,,,,,94.68113919999996,94.69740860000002,94.69740860000002,97.92645730000004,space,3.213013799999999,,,,,,,,,,,,,,,,,,,,,,,sub-188,1,random_dot,60.0957204635559,
,,,,,,,,,,,,,,,,,,,,,,,,,,,,,,,,,,,,,,,,,,,,,,,,,,,,,,,,,,,97.92650279999998,97.94312530000002,97.94312530000002,104.05269750000002,space,6.094271299999946,,,,,,,,,,,,,,,,sub-188,1,random_dot,60.0957204635559,
right,right,0.0,0.0,0.0,right,1.0,1.7984397000000172,,speed,space,4.029003799999828,,,,,,0.0,0.0,0.0,1.0,0.0,0.0,0.0,1.0,108.12903720000008,,,,,,,,,108.11711149999996,108.46204920000014,109.27902280000012,109.26123389999998,109.26149469999996,109.27902280000012,109.27902280000012,109.27902280000012,111.09354959999996,,,,,,,,,,,,,,,,,,,,,,,,104.07225420000007,104.07628079999996,104.07628079999996,108.11290699999996,space,4.029003799999828,,right,1.0,1.7984397000000172,,,,,sub-188,1,random_dot,60.0957204635559,
left,left,1.0,1.0,0.0,left,1.0,0.7541171999998824,,speed,space,4.029003799999828,,,,,,0.0,0.0,0.0,1.0,0.0,1.0,1.0,0.0,111.10844659999998,,,,,,,,,111.09382490000009,111.45799929999998,112.25851409999996,112.24079630000006,112.24127730000008,112.25851409999996,112.25851409999996,112.25851409999996,113.02427030000013,,,,,,,,,,,,,,,,,,,,,,,,,,,,,,,left,1.0,0.7541171999998824,,,,,sub-188,1,random_dot,60.0957204635559,
right,right,2.0,0.0,1.0,right,1.0,1.1307028999999602,,speed,space,4.029003799999828,,,,,,0.0,0.0,0.0,1.0,1.0,0.0,2.0,1.0,113.03922540000008,,,,,,,,,113.0245645,113.13909710000009,113.93977390000008,113.92203730000006,113.9225927,113.93977390000008,113.93977390000008,113.93977390000008,115.0715967000001,,,,,,,,,,,,,,,,,,,,,,,,,,,,,,,right,1.0,1.1307028999999602,,,,,sub-188,1,random_dot,60.0957204635559,
left,left,3.0,1.0,1.0,left,1.0,1.0377998000001298,,speed,space,4.029003799999828,,,,,,0.0,0.0,0.0,1.0,1.0,1.0,3.0,0.0,115.08640250000008,,,,,,,,,115.07189080000012,116.2849999,117.10197360000006,117.08417329999996,117.08448300000008,117.10197360000006,117.10197360000006,117.10197360000006,118.15106960000004,,,,,,,,,,,,,,,,,,,,,,,,,,,,,,,left,1.0,1.0377998000001298,,,,,sub-188,1,random_dot,60.0957204635559,
right,right,4.0,0.0,2.0,right,1.0,0.9988957000000482,,speed,space,4.029003799999828,,,,,,0.0,0.0,0.0,1.0,2.0,0.0,4.0,1.0,118.16578759999992,,,,,,,,,118.15144950000013,118.9647109,119.78178240000013,119.7638816000001,119.76414610000006,119.78178240000013,119.78178240000013,119.78178240000013,120.78141449999998,,,,,,,,,,,,,,,,,,,,,,,,,,,,,,,right,1.0,0.9988957000000482,,,,,sub-188,1,random_dot,60.0957204635559,
left,left,5.0,1.0,2.0,left,1.0,2.0339813000000504,,speed,space,4.029003799999828,,,,,,0.0,0.0,0.0,1.0,2.0,1.0,5.0,0.0,120.79589409999994,,,,,,,,,120.7821484000001,121.59447670000009,122.39489490000004,122.3770717,122.37734810000006,122.39489490000004,122.39489490000004,122.39489490000004,124.44258570000012,,,,,,,,,,,,,,,,,,,,,,,,,,,,,,,left,1.0,2.0339813000000504,,,,,sub-188,1,random_dot,60.0957204635559,
left,left,6.0,0.0,3.0,left,1.0,1.0220761000000491,,speed,space,4.029003799999828,,,,,,0.0,0.0,0.0,1.0,3.0,0.0,6.0,0.0,124.4574606000001,,,,,,,,,124.44291169999995,124.80725189999998,125.62405890000014,125.60661600000005,125.6072193,125.62405890000014,125.62405890000014,125.62405890000014,126.65631810000014,,,,,,,,,,,,,,,,,,,,,,,,,,,,,,,left,1.0,1.0220761000000491,,,,,sub-188,1,random_dot,60.0957204635559,
right,right,7.0,1.0,3.0,right,1.0,1.2567822000000888,,speed,space,4.029003799999828,,,,,,0.0,0.0,0.0,1.0,3.0,1.0,7.0,1.0,126.67110120000008,,,,,,,,,126.65669449999996,127.02083949999997,127.83781470000008,127.81994200000008,127.8202980000001,127.83781470000008,127.83781470000008,127.83781470000008,129.10315889999993,,,,,,,,,,,,,,,,,,,,,,,,,,,,,,,right,1.0,1.2567822000000888,,,,,sub-188,1,random_dot,60.0957204635559,
right,right,8.0,0.0,4.0,right,1.0,2.262189799999988,,speed,space,4.029003799999828,,,,,,0.0,0.0,0.0,1.0,4.0,0.0,8.0,1.0,129.11826229999997,,,,,,,,,129.10358650000012,129.4677822000001,130.28457159999994,130.2666749,130.26702090000003,130.28457159999994,130.28457159999994,130.28457159999994,132.54847259999997,,,,,,,,,,,,,,,,,,,,,,,,,,,,,,,right,1.0,2.262189799999988,,,,,sub-188,1,random_dot,60.0957204635559,
left,left,9.0,1.0,4.0,left,1.0,0.7769510999999056,,speed,space,4.029003799999828,,,,,,0.0,0.0,0.0,1.0,4.0,1.0,9.0,0.0,132.56322279999995,,,,,,,,,132.548808,132.66325770000003,133.46389420000014,133.44592209999996,133.44631630000003,133.46389420000014,133.46389420000014,133.46389420000014,134.2462230000001,,,,,,,,,,,,,,,,,,,,,,,,,,,,,,,left,1.0,0.7769510999999056,,,,,sub-188,1,random_dot,60.0957204635559,
right,right,10.0,0.0,5.0,right,1.0,2.121856100000059,,speed,space,4.029003799999828,,,,,,0.0,0.0,0.0,1.0,5.0,0.0,10.0,1.0,134.26109350000002,,,,,,,,,134.24653620000004,135.0600468,135.86074120000012,135.842983,135.8435707000001,135.86074120000012,135.86074120000012,135.86074120000012,137.9912561000001,,,,,,,,,,,,,,,,,,,,,,,,,,,,,,,right,1.0,2.121856100000059,,,,,sub-188,1,random_dot,60.0957204635559,
left,left,11.0,1.0,5.0,left,1.0,0.9094158000000334,,speed,space,4.029003799999828,,,,,,0.0,0.0,0.0,1.0,5.0,1.0,11.0,0.0,138.00616530000002,,,,,,,,,137.9915516000001,138.35573900000009,139.17275399999994,139.15484220000008,139.1551111000001,139.17275399999994,139.17275399999994,139.17275399999994,140.08841810000013,,,,,,,,,,,,,,,,,,,,,,,,,,,,,,,left,1.0,0.9094158000000334,,,,,sub-188,1,random_dot,60.0957204635559,
right,right,12.0,0.0,6.0,right,1.0,2.2734003999999004,,speed,space,4.029003799999828,,,,,,0.0,0.0,0.0,1.0,6.0,0.0,12.0,1.0,140.10333809999997,,,,,,,,,140.08866850000004,140.45287550000012,141.25338669999996,141.23552740000014,141.2358815,141.25338669999996,141.25338669999996,141.25338669999996,143.53397840000002,,,,,,,,,,,,,,,,,,,,,,,,,,,,,,,right,1.0,2.2734003999999004,,,,,sub-188,1,random_dot,60.0957204635559,
left,left,13.0,1.0,6.0,left,1.0,0.7982642999998006,,speed,space,4.029003799999828,,,,,,0.0,0.0,0.0,1.0,6.0,1.0,13.0,0.0,143.54875360000003,,,,,,,,,143.5342567,143.6486499,144.44902730000013,144.4311917,144.43147780000004,144.44902730000013,144.44902730000013,144.44902730000013,145.2483698000001,,,,,,,,,,,,,,,,,,,,,,,,,,,,,,,left,1.0,0.7982642999998006,,,,,sub-188,1,random_dot,60.0957204635559,
right,right,14.0,0.0,7.0,right,1.0,1.1412087000001063,,speed,space,4.029003799999828,,,,,,0.0,0.0,0.0,1.0,7.0,0.0,14.0,1.0,145.26321439999992,,,,,,,,,145.2487040000001,145.36305489999995,146.18008830000008,146.16218720000006,146.16245980000008,146.18008830000008,146.18008830000008,146.18008830000008,147.32935279999992,,,,,,,,,,,,,,,,,,,,,,,,,,,,,,,right,1.0,1.1412087000001063,,,,,sub-188,1,random_dot,60.0957204635559,
left,left,15.0,1.0,7.0,left,1.0,0.7580003000000488,,speed,space,4.029003799999828,,,,,,0.0,0.0,0.0,1.0,7.0,1.0,15.0,0.0,147.34405390000006,,,,,,,,,147.32989930000008,147.6932968000001,148.5103971000001,148.49245070000006,148.49271650000014,148.5103971000001,148.5103971000001,148.5103971000001,149.27617340000006,,,,,,,,,,,,,,,,,,,,,,,,,,,,,,,left,1.0,0.7580003000000488,,,,,sub-188,1,random_dot,60.0957204635559,
left,left,16.0,0.0,8.0,left,1.0,1.6404655999999704,,speed,space,4.029003799999828,,,,,,0.0,0.0,0.0,1.0,8.0,0.0,16.0,0.0,149.2911570000001,,,,,,,,,149.27642919999994,149.3912613,150.20814960000007,150.19021999999995,150.19050820000007,150.20814960000007,150.20814960000007,150.20814960000007,151.85623510000005,,,,,,,,,,,,,,,,,,,,,,,,,,,,,,,left,1.0,1.6404655999999704,,,,,sub-188,1,random_dot,60.0957204635559,
right,right,17.0,1.0,8.0,right,1.0,0.7335244000000785,,speed,space,4.029003799999828,,,,,,0.0,0.0,0.0,1.0,8.0,1.0,17.0,1.0,151.87109080000005,,,,,,,,,151.85654939999995,152.67014110000014,153.47075180000002,153.45300229999998,153.45359750000011,153.47075180000002,153.47075180000002,153.47075180000002,154.21978289999993,,,,,,,,,,,,,,,,,,,,,,,,,,,,,,,right,1.0,0.7335244000000785,,,,,sub-188,1,random_dot,60.0957204635559,
right,right,18.0,0.0,9.0,right,1.0,1.419809799999939,,speed,space,4.029003799999828,,,,,,0.0,0.0,0.0,1.0,9.0,0.0,18.0,1.0,154.2345941000001,,,,,,,,,154.22014480000007,155.4333606,156.25012140000013,156.23209440000005,156.23231350000017,156.25012140000013,156.25012140000013,156.25012140000013,157.68225899999993,,,,,,,,,,,,,,,,,,,,,,,,,,,,,,,right,1.0,1.419809799999939,,,,,sub-188,1,random_dot,60.0957204635559,
left,left,19.0,1.0,9.0,left,1.0,0.9705956999998762,,speed,space,4.029003799999828,,,,,,0.0,0.0,0.0,1.0,9.0,1.0,19.0,0.0,157.69690990000004,,,,,,,,,157.68345610000006,158.895442,159.71212370000012,159.6943443,159.69468469999993,159.71212370000012,159.71212370000012,159.71212370000012,160.69465979999995,,,,,,,,,,,,,,,,,,,,,,,,,,,,,,,left,1.0,0.9705956999998762,,,,,sub-188,1,random_dot,60.0957204635559,
right,right,20.0,0.0,10.0,right,1.0,0.9360447000001386,,speed,space,4.029003799999828,,,,,,0.0,0.0,0.0,1.0,10.0,0.0,20.0,1.0,160.70934820000002,,,,,,,,,160.69503269999996,160.80939720000015,161.6099704000001,161.5922825,161.59290720000013,161.6099704000001,161.6099704000001,161.6099704000001,162.55885620000004,,,,,,,,,,,,,,,,,,,,,,,,,,,,,,,right,1.0,0.9360447000001386,,,,,sub-188,1,random_dot,60.0957204635559,
left,left,21.0,1.0,10.0,left,1.0,0.8228116000000227,,speed,space,4.029003799999828,,,,,,0.0,0.0,0.0,1.0,10.0,1.0,21.0,0.0,162.57365219999997,,,,,,,,,162.55952619999994,162.9230831,163.72353930000008,163.70566899999994,163.7059256,163.72353930000008,163.72353930000008,163.72353930000008,164.5559088,,,,,,,,,,,,,,,,,,,,,,,,,,,,,,,left,1.0,0.8228116000000227,,,,,sub-188,1,random_dot,60.0957204635559,
left,left,22.0,0.0,11.0,left,1.0,2.7366411999998945,,speed,space,4.029003799999828,,,,,,0.0,0.0,0.0,1.0,11.0,0.0,22.0,0.0,164.57093280000004,,,,,,,,,164.5561669000001,165.76950880000004,166.56991519999997,166.5524686000001,166.55315829999995,166.56991519999997,166.56991519999997,166.56991519999997,169.31676240000002,,,,,,,,,,,,,,,,,,,,,,,,,,,,,,,left,1.0,2.7366411999998945,,,,,sub-188,1,random_dot,60.0957204635559,
right,right,23.0,1.0,11.0,right,1.0,0.9790964999999688,,speed,space,4.029003799999828,,,,,,0.0,0.0,0.0,1.0,11.0,1.0,23.0,1.0,169.33136560000003,,,,,,,,,169.3172783,169.4311944000001,170.23151370000005,170.2138834,170.21425670000008,170.23151370000005,170.23151370000005,170.23151370000005,171.2137577000001,,,,,,,,,,,,,,,,,,,,,,,,,,,,,,,right,1.0,0.9790964999999688,,,,,sub-188,1,random_dot,60.0957204635559,
right,right,24.0,0.0,12.0,right,1.0,1.4493685000002188,,speed,space,4.029003799999828,,,,,,0.0,0.0,0.0,1.0,12.0,0.0,24.0,1.0,171.22879360000002,,,,,,,,,171.21401760000003,172.42740550000008,173.24422670000013,173.22645460000012,173.22676660000002,173.24422670000013,173.24422670000013,173.24422670000013,174.70993610000005,,,,,,,,,,,,,,,,,,,,,,,,,,,,,,,right,1.0,1.4493685000002188,,,,,sub-188,1,random_dot,60.0957204635559,
left,left,25.0,1.0,12.0,left,1.0,1.0782662000001435,,speed,space,4.029003799999828,,,,,,0.0,0.0,0.0,1.0,12.0,1.0,25.0,0.0,174.72444169999994,,,,,,,,,174.7106437,174.8243483000001,175.6409897000001,175.62316880000003,175.62341860000015,175.6409897000001,175.6409897000001,175.6409897000001,176.72329839999998,,,,,,,,,,,,,,,,,,,,,,,,,,,,,,,left,1.0,1.0782662000001435,,,,,sub-188,1,random_dot,60.0957204635559,
right,right,26.0,0.0,13.0,right,1.0,0.990220299999919,,speed,space,4.029003799999828,,,,,,0.0,0.0,0.0,1.0,13.0,0.0,26.0,1.0,176.7382066,,,,,,,,,176.72358110000005,177.0876942,177.90474140000015,177.88675390000003,177.8869717,177.90474140000015,177.90474140000015,177.90474140000015,178.90361550000011,,,,,,,,,,,,,,,,,,,,,,,,,,,,,,,right,1.0,0.990220299999919,,,,,sub-188,1,random_dot,60.0957204635559,
left,left,27.0,1.0,13.0,left,1.0,1.0166944999998575,,speed,space,4.029003799999828,,,,,,0.0,0.0,0.0,1.0,13.0,1.0,27.0,0.0,178.9186019000001,,,,,,,,,178.90388159999998,179.71753460000014,180.5185612,180.50025700000012,180.5004897000001,180.5185612,180.5185612,180.5185612,181.5502729,,,,,,,,,,,,,,,,,,,,,,,,,,,,,,,left,1.0,1.0166944999998575,,,,,sub-188,1,random_dot,60.0957204635559,
left,left,28.0,0.0,14.0,left,1.0,1.1054031000001032,,speed,space,4.029003799999828,,,,,,0.0,0.0,0.0,1.0,14.0,0.0,28.0,0.0,181.56511870000008,,,,,,,,,181.55061610000007,181.6649692000001,182.4819284,182.4640779000001,182.46433249999995,182.4819284,182.4819284,182.4819284,183.5975326,,,,,,,,,,,,,,,,,,,,,,,,,,,,,,,left,1.0,1.1054031000001032,,,,,sub-188,1,random_dot,60.0957204635559,
right,right,29.0,1.0,14.0,right,1.0,1.1529158999999254,,speed,space,4.029003799999828,,,,,,0.0,0.0,0.0,1.0,14.0,1.0,29.0,1.0,183.6123351000001,,,,,,,,,183.59782569999996,184.4116451,185.2120714,185.19451589999997,185.19519719999997,185.2120714,185.2120714,185.2120714,186.3775303,,,,,,,,,,,,,,,,,,,,,,,,,,,,,,,right,1.0,1.1529158999999254,,,,,sub-188,1,random_dot,60.0957204635559,
left,left,30.0,0.0,15.0,left,1.0,0.8866864000001442,,speed,space,4.029003799999828,,,,,,0.0,0.0,0.0,1.0,15.0,0.0,30.0,0.0,186.3921398,,,,,,,,,186.3780025000001,187.19098699999995,187.99143270000013,187.9735837000001,187.97392880000007,187.99143270000013,187.99143270000013,187.99143270000013,188.8904808,,,,,,,,,,,,,,,,,,,,,,,,,,,,,,,left,1.0,0.8866864000001442,,,,,sub-188,1,random_dot,60.0957204635559,
right,right,31.0,1.0,15.0,right,1.0,0.8651702000001933,,speed,space,4.029003799999828,,,,,,0.0,0.0,0.0,1.0,15.0,1.0,31.0,1.0,188.9053434,,,,,,,,,188.8907575000001,189.25500260000013,190.05546430000004,190.0376885000001,190.03812160000007,190.05546430000004,190.05546430000004,190.05546430000004,190.92099540000004,,,,,,,,,,,,,,,,,,,,,,,,,,,,,,,right,1.0,0.8651702000001933,,,,,sub-188,1,random_dot,60.0957204635559,
left,left,32.0,0.0,16.0,left,1.0,0.8588584000001447,,speed,space,4.029003799999828,,,,,,0.0,0.0,0.0,1.0,16.0,0.0,32.0,0.0,190.9359703,,,,,,,,,190.92125880000003,191.2861792000001,192.10269270000003,192.08507669999997,192.0855243000001,192.10269270000003,192.10269270000003,192.10269270000003,192.9686328,,,,,,,,,,,,,,,,,,,,,,,,,,,,,,,left,1.0,0.8588584000001447,,,,,sub-188,1,random_dot,60.0957204635559,
right,right,33.0,1.0,16.0,right,1.0,0.931552199999942,,speed,space,4.029003799999828,,,,,,0.0,0.0,0.0,1.0,16.0,1.0,33.0,1.0,192.98343079999995,,,,,,,,,192.9690540000001,194.1817026000001,194.98225019999995,194.9644615,194.9648704000001,194.98225019999995,194.98225019999995,194.98225019999995,195.91462449999997,,,,,,,,,,,,,,,,,,,,,,,,,,,,,,,right,1.0,0.931552199999942,,,,,sub-188,1,random_dot,60.0957204635559,
right,right,34.0,0.0,17.0,right,1.0,0.8450996999999916,,speed,space,4.029003799999828,,,,,,0.0,0.0,0.0,1.0,17.0,0.0,34.0,1.0,195.92941670000005,,,,,,,,,195.91494880000005,196.0293031000001,196.84630100000004,196.8284524000001,196.82874070000005,196.84630100000004,196.84630100000004,196.84630100000004,197.695473,,,,,,,,,,,,,,,,,,,,,,,,,,,,,,,right,1.0,0.8450996999999916,,,,,sub-188,1,random_dot,60.0957204635559,
left,left,35.0,1.0,17.0,left,1.0,1.0354975000000195,,speed,space,4.029003799999828,,,,,,0.0,0.0,0.0,1.0,17.0,1.0,35.0,0.0,197.71032549999995,,,,,,,,,197.6957500000001,198.9087733000001,199.72582910000008,199.70793040000007,199.7082197,199.72582910000008,199.72582910000008,199.72582910000008,200.7747753000001,,,,,,,,,,,,,,,,,,,,,,,,,,,,,,,left,1.0,1.0354975000000195,,,,,sub-188,1,random_dot,60.0957204635559,
right,right,36.0,0.0,18.0,right,1.0,0.9693640000000414,,speed,space,4.029003799999828,,,,,,0.0,0.0,0.0,1.0,18.0,0.0,36.0,1.0,200.7896403,,,,,,,,,200.7750634000001,201.9881213000001,202.80509170000005,202.7871321,202.7873859000001,202.80509170000005,202.80509170000005,202.80509170000005,203.78747739999997,,,,,,,,,,,,,,,,,,,,,,,,,,,,,,,right,1.0,0.9693640000000414,,,,,sub-188,1,random_dot,60.0957204635559,
left,left,37.0,1.0,18.0,left,1.0,0.890764900000022,,speed,space,4.029003799999828,,,,,,0.0,0.0,0.0,1.0,18.0,1.0,37.0,0.0,203.8022743000001,,,,,,,,,203.7878598,204.15184380000005,204.96880910000004,204.9510819,204.95134000000007,204.96880910000004,204.96880910000004,204.96880910000004,205.86810489999996,,,,,,,,,,,,,,,,,,,,,,,,,,,,,,,left,1.0,0.890764900000022,,,,,sub-188,1,random_dot,60.0957204635559,
left,left,38.0,0.0,19.0,right,0.0,1.096059399999831,,speed,space,4.029003799999828,,,,,,0.0,0.0,0.0,1.0,19.0,0.0,38.0,0.0,205.88286740000007,,,,,,,,,205.86845470000003,206.68217040000013,207.4991970000001,207.48149779999997,207.4821018,207.4991970000001,207.4991970000001,207.4991970000001,208.5984479000001,,,,,,,,,,,,,,,,,,,,,,,,,,,,,,,right,0.0,1.096059399999831,,,,,sub-188,1,random_dot,60.0957204635559,
right,right,39.0,1.0,19.0,right,1.0,0.9349834999998166,,speed,space,4.029003799999828,,,,,,0.0,0.0,0.0,1.0,19.0,1.0,39.0,1.0,208.6129039,,,,,,,,,208.5991596000001,208.96215110000003,209.7628506000001,209.7452092000001,209.7458048000001,209.7628506000001,209.7628506000001,209.7628506000001,210.7115225,,,,,,,,,,,,,,,,,,,,,,,,,,,,,,,right,1.0,0.9349834999998166,,,,,sub-188,1,random_dot,60.0957204635559,
right,right,40.0,0.0,20.0,right,1.0,1.1441778000000795,,speed,space,4.029003799999828,,,,,,0.0,0.0,0.0,1.0,20.0,0.0,40.0,1.0,210.726451,,,,,,,,,210.7118105,211.92482560000008,212.7256601000001,212.7078755,212.7084717,212.7256601000001,212.7256601000001,212.7256601000001,213.87417720000008,,,,,,,,,,,,,,,,,,,,,,,,,,,,,,,right,1.0,1.1441778000000795,,,,,sub-188,1,random_dot,60.0957204635559,
left,left,41.0,1.0,20.0,left,1.0,0.8456515999998828,,speed,space,4.029003799999828,,,,,,0.0,0.0,0.0,1.0,20.0,1.0,41.0,0.0,213.88900949999996,,,,,,,,,213.8745519000001,215.08737610000003,215.9043954000001,215.8865397,215.88679730000013,215.9043954000001,215.9043954000001,215.9043954000001,216.7535034,,,,,,,,,,,,,,,,,,,,,,,,,,,,,,,left,1.0,0.8456515999998828,,,,,sub-188,1,random_dot,60.0957204635559,
left,left,42.0,0.0,21.0,right,0.0,0.9045618000000104,,speed,space,4.029003799999828,,,,,,0.0,0.0,0.0,1.0,21.0,0.0,42.0,0.0,216.7684438000001,,,,,,,,,216.7538118,217.9672062,218.78401180000012,218.76605399999997,218.7663695000001,218.78401180000012,218.78401180000012,218.78401180000012,219.69965449999995,,,,,,,,,,,,,,,,,,,,,,,,,,,,,,,right,0.0,0.9045618000000104,,,,,sub-188,1,random_dot,60.0957204635559,
right,right,43.0,1.0,21.0,right,1.0,0.8128881000000092,,speed,space,4.029003799999828,,,,,,0.0,0.0,0.0,1.0,21.0,1.0,43.0,1.0,219.71449260000009,,,,,,,,,219.69993160000013,220.91292420000013,221.7136640000001,221.6960755,221.69669650000012,221.7136640000001,221.7136640000001,221.7136640000001,222.5291486000001,,,,,,,,,,,,,,,,,,,,,,,,,,,,,,,right,1.0,0.8128881000000092,,,,,sub-188,1,random_dot,60.0957204635559,
right,right,44.0,0.0,22.0,right,1.0,0.8480587000001378,,speed,space,4.029003799999828,,,,,,0.0,0.0,0.0,1.0,22.0,0.0,44.0,1.0,222.5441065,,,,,,,,,222.5294079,222.64400709999995,223.46103190000008,223.4432081,223.443503,223.46103190000008,223.46103190000008,223.46103190000008,224.3102156,,,,,,,,,,,,,,,,,,,,,,,,,,,,,,,right,1.0,0.8480587000001378,,,,,sub-188,1,random_dot,60.0957204635559,
left,left,45.0,1.0,22.0,left,1.0,0.7312383000000864,,speed,space,4.029003799999828,,,,,,0.0,0.0,0.0,1.0,22.0,1.0,45.0,0.0,224.32499600000008,,,,,,,,,224.31050440000013,225.1240114,225.9244788000001,225.9066963,225.90705810000009,225.9244788000001,225.9244788000001,225.9244788000001,226.6572271,,,,,,,,,,,,,,,,,,,,,,,,,,,,,,,left,1.0,0.7312383000000864,,,,,sub-188,1,random_dot,60.0957204635559,
left,left,46.0,0.0,23.0,left,1.0,1.1709961000001383,,speed,space,4.029003799999828,,,,,,0.0,0.0,0.0,1.0,23.0,0.0,46.0,0.0,226.6720756,,,,,,,,,226.65765650000003,227.0215782,227.8219727000001,227.80424530000005,227.80463310000005,227.8219727000001,227.8219727000001,227.8219727000001,229.00451250000012,,,,,,,,,,,,,,,,,,,,,,,,,,,,,,,left,1.0,1.1709961000001383,,,,,sub-188,1,random_dot,60.0957204635559,
right,right,47.0,1.0,23.0,right,1.0,0.8208486999999423,,speed,space,4.029003799999828,,,,,,0.0,0.0,0.0,1.0,23.0,1.0,47.0,1.0,229.018926,,,,,,,,,229.00493830000005,229.11879120000003,229.9194335,229.90166640000007,229.9022147000001,229.9194335,229.9194335,229.9194335,230.7517071,,,,,,,,,,,,,,,,,,,,,,,,,,,,,,,right,1.0,0.8208486999999423,,,,,sub-188,1,random_dot,60.0957204635559,
left,left,48.0,0.0,24.0,left,1.0,0.7742814000000635,,speed,space,4.029003799999828,,,,,,0.0,0.0,0.0,1.0,24.0,0.0,48.0,0.0,230.76661000000013,,,,,,,,,230.7520117000001,231.11614200000008,231.91678290000004,231.8992098000001,231.8998173,231.91678290000004,231.91678290000004,231.91678290000004,232.69933689999996,,,,,,,,,,,,,,,,,,,,,,,,,,,,,,,left,1.0,0.7742814000000635,,,,,sub-188,1,random_dot,60.0957204635559,
right,right,49.0,1.0,24.0,right,1.0,0.7318538000001809,,speed,space,4.029003799999828,,,,,,0.0,0.0,0.0,1.0,24.0,1.0,49.0,1.0,232.714074,,,,,,,,,232.6997526,232.81408280000005,233.63092370000004,233.61301150000008,233.6132669000001,233.63092370000004,233.63092370000004,233.63092370000004,234.3636402,,,,,,,,,,,,,,,,,,,,,,,,,,,,,,,right,1.0,0.7318538000001809,,,,,sub-188,1,random_dot,60.0957204635559,
right,right,50.0,0.0,25.0,left,0.0,0.3541075999999066,,speed,space,4.029003799999828,,,,,,0.0,0.0,0.0,1.0,25.0,0.0,50.0,1.0,234.3784624,,,,,,,,,234.36400359999996,235.17742969999995,235.99442610000008,235.9765803,235.97683039999995,235.99442610000008,235.99442610000008,235.99442610000008,236.3610271,,,,,,,,,,,,,,,,,,,,,,,,,,,,,,,left,0.0,0.3541075999999066,,,,,sub-188,1,random_dot,60.0957204635559,
left,left,51.0,1.0,25.0,left,1.0,0.8121186000000762,,speed,space,4.029003799999828,,,,,,0.0,0.0,0.0,1.0,25.0,1.0,51.0,0.0,236.37583510000013,,,,,,,,,236.3613894,237.5745236,238.3914952,238.37377420000007,238.37427720000005,238.3914952,238.3914952,238.3914952,239.2071922,,,,,,,,,,,,,,,,,,,,,,,,,,,,,,,left,1.0,0.8121186000000762,,,,,sub-188,1,random_dot,60.0957204635559,
left,left,52.0,0.0,26.0,left,1.0,0.8764998000001469,,speed,space,4.029003799999828,,,,,,0.0,0.0,0.0,1.0,26.0,0.0,52.0,0.0,239.22204540000007,,,,,,,,,239.20748690000005,240.42052000000007,241.2375832,241.21979060000007,241.22011410000005,241.2375832,241.2375832,241.2375832,242.12005479999996,,,,,,,,,,,,,,,,,,,,,,,,,,,,,,,left,1.0,0.8764998000001469,,,,,sub-188,1,random_dot,60.0957204635559,
right,right,53.0,1.0,26.0,right,1.0,0.7069271000000299,,speed,space,4.029003799999828,,,,,,0.0,0.0,0.0,1.0,26.0,1.0,53.0,1.0,242.1348739,,,,,,,,,242.12031150000007,243.3333891,244.1340566000001,244.1163147,244.11696460000007,244.1340566000001,244.1340566000001,244.1340566000001,244.8497827000001,,,,,,,,,,,,,,,,,,,,,,,,,,,,,,,right,1.0,0.7069271000000299,,,,,sub-188,1,random_dot,60.0957204635559,
right,right,54.0,0.0,27.0,right,1.0,0.7017422999999781,,speed,space,4.029003799999828,,,,,,0.0,0.0,0.0,1.0,27.0,0.0,54.0,1.0,244.8645387000001,,,,,,,,,244.8500759000001,245.2141091000001,246.0311051000001,246.0132609,246.0135153000001,246.0311051000001,246.0311051000001,246.0311051000001,246.7473765,,,,,,,,,,,,,,,,,,,,,,,,,,,,,,,right,1.0,0.7017422999999781,,,,,sub-188,1,random_dot,60.0957204635559,
left,left,55.0,1.0,27.0,left,1.0,0.9193592999999964,,speed,space,4.029003799999828,,,,,,0.0,0.0,0.0,1.0,27.0,1.0,55.0,0.0,246.76210089999995,,,,,,,,,246.74784210000007,247.1118818,247.92865329999995,247.9107692,247.91101920000008,247.92865329999995,247.92865329999995,247.92865329999995,248.8617696000001,,,,,,,,,,,,,,,,,,,,,,,,,,,,,,,left,1.0,0.9193592999999964,,,,,sub-188,1,random_dot,60.0957204635559,
left,left,56.0,0.0,28.0,left,1.0,1.020504700000174,,speed,space,4.029003799999828,,,,,,0.0,0.0,0.0,1.0,28.0,0.0,56.0,0.0,248.87624359999995,,,,,,,,,248.862484,249.6749046,250.47556839999996,250.4578980000001,250.4585016000001,250.47556839999996,250.47556839999996,250.47556839999996,251.50745959999995,,,,,,,,,,,,,,,,,,,,,,,,,,,,,,,left,1.0,1.020504700000174,,,,,sub-188,1,random_dot,60.0957204635559,
right,right,57.0,1.0,28.0,right,1.0,0.9429783000000498,,speed,space,4.029003799999828,,,,,,0.0,0.0,0.0,1.0,28.0,1.0,57.0,1.0,251.52238609999995,,,,,,,,,251.50772170000005,251.6226082000001,252.4394103,252.42149140000012,252.4217516000001,252.4394103,252.4394103,252.4394103,253.38909390000003,,,,,,,,,,,,,,,,,,,,,,,,,,,,,,,right,1.0,0.9429783000000498,,,,,sub-188,1,random_dot,60.0957204635559,
right,right,58.0,0.0,29.0,right,1.0,1.5508876999999757,,speed,space,4.029003799999828,,,,,,0.0,0.0,0.0,1.0,29.0,0.0,58.0,1.0,253.40360880000003,,,,,,,,,253.3898425,254.60170659999997,255.41880800000013,255.4009399000001,255.40132740000013,255.41880800000013,255.41880800000013,255.41880800000013,256.98355719999995,,,,,,,,,,,,,,,,,,,,,,,,,,,,,,,right,1.0,1.5508876999999757,,,,,sub-188,1,random_dot,60.0957204635559,
left,left,59.0,1.0,29.0,left,1.0,0.7885955000001559,,speed,space,4.029003799999828,,,,,,0.0,0.0,0.0,1.0,29.0,1.0,59.0,0.0,256.99851119999994,,,,,,,,,256.9838141,257.3480234000001,258.14844360000006,258.13058320000005,258.130837,258.14844360000006,258.14844360000006,258.14844360000006,258.94771820000005,,,,,,,,,,,,,,,,,,,,,,,,,,,,,,,left,1.0,0.7885955000001559,,,,,sub-188,1,random_dot,60.0957204635559,
,,0.0,0.0,0.0,,,,,speed,space,4.029003799999828,,,,,,0.0,0.0,0.0,1.0,,,,,,,,,,,,,,,,,,,,,,,,,,,,,,,,,,,,,,,,,,,,,,,,,,,,,,,,,,,,sub-188,1,random_dot,60.0957204635559,
left,left,0.0,0.0,0.0,left,1.0,1.678634699999975,,accuracy,space,4.580680899999834,,,,,,0.0,1.0,1.0,0.0,0.0,0.0,0.0,0.0,263.5730837000001,,,,,,,,,263.56146450000006,264.7715254,265.57226089999995,265.55465589999994,265.55532800000015,265.57226089999995,265.57226089999995,265.57226089999995,267.25342150000006,,,,,,,,,,,,,,,,,,,,,,,,258.95863780000013,258.96268039999995,258.96268039999995,263.5571302000001,space,4.580680899999834,,left,1.0,1.678634699999975,,,,,sub-188,1,random_dot,60.0957204635559,
right,right,1.0,1.0,0.0,right,1.0,1.103580700000066,,accuracy,space,4.580680899999834,,,,,,0.0,1.0,1.0,0.0,0.0,1.0,1.0,1.0,267.26821270000005,,,,,,,,,267.25372300000004,268.0673200000001,268.8842546000001,268.8663551,268.86662049999995,268.8842546000001,268.8842546000001,268.8842546000001,269.9999907000001,,,,,,,,,,,,,,,,,,,,,,,,,,,,,,,right,1.0,1.103580700000066,,,,,sub-188,1,random_dot,60.0957204635559,
right,right,2.0,0.0,1.0,right,1.0,1.1649938000000477,,accuracy,space,4.580680899999834,,,,,,0.0,1.0,1.0,0.0,1.0,0.0,2.0,1.0,270.0147574,,,,,,,,,270.0005024,270.36414460000015,271.1646028,271.1467622,271.1471137000001,271.1646028,271.1646028,271.1646028,272.3306642,,,,,,,,,,,,,,,,,,,,,,,,,,,,,,,right,1.0,1.1649938000000477,,,,,sub-188,1,random_dot,60.0957204635559,
left,left,3.0,1.0,1.0,left,1.0,1.4191960000000563,,accuracy,space,4.580680899999834,,,,,,0.0,1.0,1.0,0.0,1.0,1.0,3.0,0.0,272.34514220000005,,,,,,,,,272.33138600000007,272.4449978,273.2618338,273.2439574,273.24427489999994,273.2618338,273.2618338,273.2618338,274.6941846,,,,,,,,,,,,,,,,,,,,,,,,,,,,,,,left,1.0,1.4191960000000563,,,,,sub-188,1,random_dot,60.0957204635559,
left,left,4.0,0.0,2.0,left,1.0,2.798761499999955,,accuracy,space,4.580680899999834,,,,,,0.0,1.0,1.0,0.0,2.0,0.0,4.0,0.0,274.70872310000004,,,,,,,,,274.6948973000001,275.90682489999995,276.7072615,276.6894321,276.6897637,276.7072615,276.7072615,276.7072615,279.5205672,,,,,,,,,,,,,,,,,,,,,,,,,,,,,,,left,1.0,2.798761499999955,,,,,sub-188,1,random_dot,60.0957204635559,
right,right,5.0,1.0,2.0,right,1.0,0.9258084000000508,,accuracy,space,4.580680899999834,,,,,,0.0,1.0,1.0,0.0,2.0,1.0,5.0,1.0,279.5352971,,,,,,,,,279.5209414000001,280.7337729000001,281.5507520000001,281.5328946,281.5331887,281.5507520000001,281.5507520000001,281.5507520000001,282.4832079,,,,,,,,,,,,,,,,,,,,,,,,,,,,,,,right,1.0,0.9258084000000508,,,,,sub-188,1,random_dot,60.0957204635559,
right,right,6.0,0.0,3.0,right,1.0,6.230149700000084,,accuracy,space,4.580680899999834,,,,,,0.0,1.0,1.0,0.0,3.0,0.0,6.0,1.0,282.4980518,,,,,,,,,282.48348869999995,282.5979685,283.39862100000005,283.38092340000003,283.3815333,283.39862100000005,283.39862100000005,283.39862100000005,289.6405308000001,,,,,,,,,288.3916590000001,,,,,,,,,,,,,,,,,,,,,,right,1.0,6.230149700000084,,,,,sub-188,1,random_dot,60.0957204635559,
left,left,7.0,1.0,3.0,left,1.0,1.1704889999998611,,accuracy,space,4.580680899999834,,,,,,0.0,1.0,1.0,0.0,3.0,1.0,7.0,0.0,289.65534530000014,,,,,,,,,289.64098420000005,289.75516100000004,290.55578430000014,290.5378865,290.5383710000001,290.55578430000014,290.55578430000014,290.55578430000014,291.73767210000005,,,,,,,,,,,,,,,,,,,,,,,,,,,,,,,left,1.0,1.1704889999998611,,,,,sub-188,1,random_dot,60.0957204635559,
right,right,8.0,0.0,4.0,right,1.0,1.4876153000000158,,accuracy,space,4.580680899999834,,,,,,0.0,1.0,1.0,0.0,4.0,0.0,8.0,1.0,291.75250170000004,,,,,,,,,291.7380326,292.9510497000001,293.76795330000004,293.75005639999995,293.7503325,293.76795330000004,293.76795330000004,293.76795330000004,295.2664251000001,,,,,,,,,,,,,,,,,,,,,,,,,,,,,,,right,1.0,1.4876153000000158,,,,,sub-188,1,random_dot,60.0957204635559,
left,left,9.0,1.0,4.0,left,1.0,1.008161700000073,,accuracy,space,4.580680899999834,,,,,,0.0,1.0,1.0,0.0,4.0,1.0,9.0,0.0,295.28119830000014,,,,,,,,,295.26684550000004,296.08030110000004,296.8806998,296.8631063,296.86370720000014,296.8806998,296.8806998,296.8806998,297.8961402,,,,,,,,,,,,,,,,,,,,,,,,,,,,,,,left,1.0,1.008161700000073,,,,,sub-188,1,random_dot,60.0957204635559,
left,left,10.0,0.0,5.0,left,1.0,3.3118438000001333,,accuracy,space,4.580680899999834,,,,,,0.0,1.0,1.0,0.0,5.0,0.0,10.0,0.0,297.91097430000013,,,,,,,,,297.89644880000014,298.01080490000004,298.8113323,298.7934930000001,298.7938504000001,298.8113323,298.8113323,298.8113323,302.1238519000001,,,,,,,,,,,,,,,,,,,,,,,,,,,,,,,left,1.0,3.3118438000001333,,,,,sub-188,1,random_dot,60.0957204635559,
right,right,11.0,1.0,5.0,right,1.0,0.904130699999996,,accuracy,space,4.580680899999834,,,,,,0.0,1.0,1.0,0.0,5.0,1.0,11.0,1.0,302.13869810000006,,,,,,,,,302.1241878000001,302.9376869,303.7547092,303.7369149000001,303.7372226,303.7547092,303.7547092,303.7547092,304.67049250000014,,,,,,,,,,,,,,,,,,,,,,,,,,,,,,,right,1.0,0.904130699999996,,,,,sub-188,1,random_dot,60.0957204635559,
right,right,12.0,0.0,6.0,right,1.0,1.9109020000000785,,accuracy,space,4.580680899999834,,,,,,0.0,1.0,1.0,0.0,6.0,0.0,12.0,1.0,304.6853367000001,,,,,,,,,304.6708261000001,304.7852773,305.60226379999995,305.58445410000013,305.5847821,305.60226379999995,305.60226379999995,305.60226379999995,307.51703539999994,,,,,,,,,,,,,,,,,,,,,,,,,,,,,,,right,1.0,1.9109020000000785,,,,,sub-188,1,random_dot,60.0957204635559,
left,left,13.0,1.0,6.0,left,1.0,1.106814500000155,,accuracy,space,4.580680899999834,,,,,,0.0,1.0,1.0,0.0,6.0,1.0,13.0,0.0,307.53173300000003,,,,,,,,,307.5175451,308.7301854,309.5307103,309.51302910000004,309.5136397000001,309.5307103,309.5307103,309.5307103,310.6460767000001,,,,,,,,,,,,,,,,,,,,,,,,,,,,,,,left,1.0,1.106814500000155,,,,,sub-188,1,random_dot,60.0957204635559,
right,right,14.0,0.0,7.0,right,1.0,1.2029598000001442,,accuracy,space,4.580680899999834,,,,,,0.0,1.0,1.0,0.0,7.0,0.0,14.0,1.0,310.6608487000001,,,,,,,,,310.6465039,311.85926169999993,312.6762441999999,312.65833150000003,312.65860050000015,312.6762441999999,312.6762441999999,312.6762441999999,313.89218690000007,,,,,,,,,,,,,,,,,,,,,,,,,,,,,,,right,1.0,1.2029598000001442,,,,,sub-188,1,random_dot,60.0957204635559,
left,left,15.0,1.0,7.0,left,1.0,0.8897891999999956,,accuracy,space,4.580680899999834,,,,,,0.0,1.0,1.0,0.0,7.0,1.0,15.0,0.0,313.9067748,,,,,,,,,313.8928451,314.2560277,315.0566957000001,315.0390003,315.0395953,315.0566957000001,315.0566957000001,315.0566957000001,315.95565090000014,,,,,,,,,,,,,,,,,,,,,,,,,,,,,,,left,1.0,0.8897891999999956,,,,,sub-188,1,random_dot,60.0957204635559,
right,right,16.0,0.0,8.0,right,1.0,1.156049300000177,,accuracy,space,4.580680899999834,,,,,,0.0,1.0,1.0,0.0,8.0,0.0,16.0,1.0,315.97044299999993,,,,,,,,,315.9560395000001,316.7693590000001,317.57002920000014,317.5523211,317.55291940000006,317.57002920000014,317.57002920000014,317.57002920000014,318.73587010000006,,,,,,,,,,,,,,,,,,,,,,,,,,,,,,,right,1.0,1.156049300000177,,,,,sub-188,1,random_dot,60.0957204635559,
left,left,17.0,1.0,8.0,left,1.0,1.1577709000000596,,accuracy,space,4.580680899999834,,,,,,0.0,1.0,1.0,0.0,8.0,1.0,17.0,0.0,318.7503656000001,,,,,,,,,318.73658120000005,319.0995991,319.9003104000001,319.88256520000004,319.88315950000015,319.9003104000001,319.9003104000001,319.9003104000001,321.0653089,,,,,,,,,,,,,,,,,,,,,,,,,,,,,,,left,1.0,1.1577709000000596,,,,,sub-188,1,random_dot,60.0957204635559,
right,right,18.0,0.0,9.0,right,1.0,1.0310416999998324,,accuracy,space,4.580680899999834,,,,,,0.0,1.0,1.0,0.0,9.0,0.0,18.0,1.0,321.0802474,,,,,,,,,321.06559530000004,321.42982140000004,322.2468587999999,322.22897890000013,322.2292522,322.2468587999999,322.2468587999999,322.2468587999999,323.2793394,,,,,,,,,,,,,,,,,,,,,,,,,,,,,,,right,1.0,1.0310416999998324,,,,,sub-188,1,random_dot,60.0957204635559,
left,left,19.0,1.0,9.0,left,1.0,0.8757717000000866,,accuracy,space,4.580680899999834,,,,,,0.0,1.0,1.0,0.0,9.0,1.0,19.0,0.0,323.2941065,,,,,,,,,323.27974659999995,323.3942165000001,324.2109250000001,324.1930808,324.1933865000001,324.2109250000001,324.2109250000001,324.2109250000001,325.0936898,,,,,,,,,,,,,,,,,,,,,,,,,,,,,,,left,1.0,0.8757717000000866,,,,,sub-188,1,random_dot,60.0957204635559,
right,right,20.0,0.0,10.0,right,1.0,0.8923491000000467,,accuracy,space,4.580680899999834,,,,,,0.0,1.0,1.0,0.0,10.0,0.0,20.0,1.0,325.10846800000013,,,,,,,,,325.09418230000006,325.20845170000007,326.02538819999995,326.00777629999993,326.0082870000001,326.02538819999995,326.02538819999995,326.02538819999995,326.9241939000001,,,,,,,,,,,,,,,,,,,,,,,,,,,,,,,right,1.0,0.8923491000000467,,,,,sub-188,1,random_dot,60.0957204635559,
left,left,21.0,1.0,10.0,left,1.0,0.748877900000025,,accuracy,space,4.580680899999834,,,,,,0.0,1.0,1.0,0.0,10.0,1.0,21.0,0.0,326.9392237,,,,,,,,,326.92444909999995,328.13762999999994,328.9383309,328.9207057000001,328.9213711,328.9383309,328.9383309,328.9383309,329.6879263999999,,,,,,,,,,,,,,,,,,,,,,,,,,,,,,,left,1.0,0.748877900000025,,,,,sub-188,1,random_dot,60.0957204635559,
left,left,22.0,0.0,11.0,left,1.0,2.2445824999999786,,accuracy,space,4.580680899999834,,,,,,0.0,1.0,1.0,0.0,11.0,0.0,22.0,0.0,329.7024885000001,,,,,,,,,329.6885734,330.90068040000006,331.7176671,331.69965560000014,331.69989050000004,331.7176671,331.7176671,331.7176671,333.9653310000001,,,,,,,,,,,,,,,,,,,,,,,,,,,,,,,left,1.0,2.2445824999999786,,,,,sub-188,1,random_dot,60.0957204635559,
right,right,23.0,1.0,11.0,left,0.0,3.0312655000000177,,accuracy,space,4.580680899999834,,,,,,0.0,1.0,1.0,0.0,11.0,1.0,23.0,1.0,333.98003330000006,,,,,,,,,333.9658936999999,335.1783256000001,335.9953580000001,335.97748879999995,335.9778173,335.9953580000001,335.9953580000001,335.9953580000001,339.0421913,,,,,,,,,,,,,,,,,,,,,,,,,,,,,,,left,0.0,3.0312655000000177,,,,,sub-188,1,random_dot,60.0957204635559,
right,right,24.0,0.0,12.0,right,1.0,2.33998900000006,,accuracy,space,4.580680899999834,,,,,,0.0,1.0,1.0,0.0,12.0,0.0,24.0,1.0,339.0567917999999,,,,,,,,,339.0428459,340.2548786,341.0553039000001,341.0374919000001,341.03777089999994,341.0553039000001,341.0553039000001,341.0553039000001,343.40279980000014,,,,,,,,,,,,,,,,,,,,,,,,,,,,,,,right,1.0,2.33998900000006,,,,,sub-188,1,random_dot,60.0957204635559,
left,left,25.0,1.0,12.0,left,1.0,1.4664304000000357,,accuracy,space,4.580680899999834,,,,,,0.0,1.0,1.0,0.0,12.0,1.0,25.0,0.0,343.4175127000001,,,,,,,,,343.40325800000005,343.76719649999995,344.5839801,344.56610649999993,344.5664044,344.5839801,344.5839801,344.5839801,346.0657281000001,,,,,,,,,,,,,,,,,,,,,,,,,,,,,,,left,1.0,1.4664304000000357,,,,,sub-188,1,random_dot,60.0957204635559,
left,left,26.0,0.0,13.0,left,1.0,1.2628597999998874,,accuracy,space,4.580680899999834,,,,,,0.0,1.0,1.0,0.0,13.0,0.0,26.0,0.0,346.08051620000015,,,,,,,,,346.066112,346.87950950000004,347.6800174,347.66214979999995,347.6625867,347.6800174,347.6800174,347.6800174,348.9458624000001,,,,,,,,,,,,,,,,,,,,,,,,,,,,,,,left,1.0,1.2628597999998874,,,,,sub-188,1,random_dot,60.0957204635559,
right,right,27.0,1.0,13.0,right,1.0,1.0224045999998452,,accuracy,space,4.580680899999834,,,,,,0.0,1.0,1.0,0.0,13.0,1.0,27.0,1.0,348.9603297000001,,,,,,,,,348.9465903,350.15846910000005,350.95899740000004,350.9411589000001,350.94157369999994,350.95899740000004,350.95899740000004,350.95899740000004,351.99174689999995,,,,,,,,,,,,,,,,,,,,,,,,,,,,,,,right,1.0,1.0224045999998452,,,,,sub-188,1,random_dot,60.0957204635559,
left,left,28.0,0.0,14.0,left,1.0,0.871304900000041,,accuracy,space,4.580680899999834,,,,,,0.0,1.0,1.0,0.0,14.0,0.0,28.0,0.0,352.0063258,,,,,,,,,351.99245710000014,353.2045672,354.00520670000014,353.9875013999999,353.9881591999999,354.00520670000014,354.00520670000014,354.00520670000014,354.8874111,,,,,,,,,,,,,,,,,,,,,,,,,,,,,,,left,1.0,0.871304900000041,,,,,sub-188,1,random_dot,60.0957204635559,
right,right,29.0,1.0,14.0,right,1.0,0.937655199999881,,accuracy,space,4.580680899999834,,,,,,0.0,1.0,1.0,0.0,14.0,1.0,29.0,1.0,354.9021716,,,,,,,,,354.8877466000001,356.10061270000006,356.9010700000001,356.8833035,356.8836632,356.9010700000001,356.9010700000001,356.9010700000001,357.85049060000006,,,,,,,,,,,,,,,,,,,,,,,,,,,,,,,right,1.0,0.937655199999881,,,,,sub-188,1,random_dot,60.0957204635559,
left,left,30.0,0.0,15.0,left,1.0,0.7734995000000708,,accuracy,space,4.580680899999834,,,,,,0.0,1.0,1.0,0.0,15.0,0.0,30.0,0.0,357.86498430000006,,,,,,,,,357.8509177000001,359.06334689999994,359.88035390000005,359.8625102000001,359.86282140000003,359.88035390000005,359.88035390000005,359.88035390000005,360.66294140000014,,,,,,,,,,,,,,,,,,,,,,,,,,,,,,,left,1.0,0.7734995000000708,,,,,sub-188,1,random_dot,60.0957204635559,
right,right,31.0,1.0,15.0,right,1.0,1.0044028999998318,,accuracy,space,4.580680899999834,,,,,,0.0,1.0,1.0,0.0,15.0,1.0,31.0,1.0,360.6778782000001,,,,,,,,,360.66330140000014,361.4769265,362.2941333000001,362.2762804000001,362.2768537,362.2941333000001,362.2941333000001,362.2941333000001,363.3100113,,,,,,,,,,,,,,,,,,,,,,,,,,,,,,,right,1.0,1.0044028999998318,,,,,sub-188,1,random_dot,60.0957204635559,
left,left,32.0,0.0,16.0,left,1.0,0.8291001000000051,,accuracy,space,4.580680899999834,,,,,,0.0,1.0,1.0,0.0,16.0,0.0,32.0,0.0,363.3243894,,,,,,,,,363.3107341,363.42436010000006,364.22484380000014,364.2071608000001,364.2077535000001,364.22484380000014,364.22484380000014,364.22484380000014,365.05789260000006,,,,,,,,,,,,,,,,,,,,,,,,,,,,,,,left,1.0,0.8291001000000051,,,,,sub-188,1,random_dot,60.0957204635559,
right,right,33.0,1.0,16.0,right,1.0,0.9109823999999662,,accuracy,space,4.580680899999834,,,,,,0.0,1.0,1.0,0.0,16.0,1.0,33.0,1.0,365.07234570000014,,,,,,,,,365.0586023000001,366.2705177,367.0711856,367.0534703000001,367.0541246,367.0711856,367.0711856,367.0711856,367.9872864000001,,,,,,,,,,,,,,,,,,,,,,,,,,,,,,,right,1.0,0.9109823999999662,,,,,sub-188,1,random_dot,60.0957204635559,
left,left,34.0,0.0,17.0,left,1.0,0.7596783999999843,,accuracy,space,4.580680899999834,,,,,,0.0,1.0,1.0,0.0,17.0,0.0,34.0,0.0,368.0017680000001,,,,,,,,,367.9879997000001,369.19994900000006,370.01696400000014,369.9990058000001,369.999247,370.01696400000014,370.01696400000014,370.01696400000014,370.7834680000001,,,,,,,,,,,,,,,,,,,,,,,,,,,,,,,left,1.0,0.7596783999999843,,,,,sub-188,1,random_dot,60.0957204635559,
right,right,35.0,1.0,17.0,right,1.0,1.3266300000000228,,accuracy,space,4.580680899999834,,,,,,0.0,1.0,1.0,0.0,17.0,1.0,35.0,1.0,370.7980333,,,,,,,,,370.78412330000015,371.147334,371.9644177,371.9464705,371.9467152,371.9644177,371.9644177,371.9644177,373.2969158000001,,,,,,,,,,,,,,,,,,,,,,,,,,,,,,,right,1.0,1.3266300000000228,,,,,sub-188,1,random_dot,60.0957204635559,
right,right,36.0,0.0,18.0,right,1.0,1.2282133999999587,,accuracy,space,4.580680899999834,,,,,,0.0,1.0,1.0,0.0,18.0,0.0,36.0,1.0,373.3114130000001,,,,,,,,,373.2976338000001,374.5097362000001,375.3265547000001,375.3089211000001,375.3093216,375.3265547000001,375.3265547000001,375.3265547000001,376.558575,,,,,,,,,,,,,,,,,,,,,,,,,,,,,,,right,1.0,1.2282133999999587,,,,,sub-188,1,random_dot,60.0957204635559,
left,left,37.0,1.0,18.0,left,1.0,1.0548711999999796,,accuracy,space,4.580680899999834,,,,,,0.0,1.0,1.0,0.0,18.0,1.0,37.0,0.0,376.5734004000001,,,,,,,,,376.5590553,376.6732475000001,377.4737804000001,377.4559684999999,377.45633040000007,377.4737804000001,377.4737804000001,377.4737804000001,378.5393674,,,,,,,,,,,,,,,,,,,,,,,,,,,,,,,left,1.0,1.0548711999999796,,,,,sub-188,1,random_dot,60.0957204635559,
left,left,38.0,0.0,19.0,left,1.0,2.957377799999904,,accuracy,space,4.580680899999834,,,,,,0.0,1.0,1.0,0.0,19.0,0.0,38.0,0.0,378.5542090000001,,,,,,,,,378.5397584,378.6542214000001,379.4710236000001,379.45320790000005,379.45347190000007,379.4710236000001,379.4710236000001,379.4710236000001,382.4346409,,,,,,,,,,,,,,,,,,,,,,,,,,,,,,,left,1.0,2.957377799999904,,,,,sub-188,1,random_dot,60.0957204635559,
right,right,39.0,1.0,19.0,right,1.0,0.8266923000001043,,accuracy,space,4.580680899999834,,,,,,0.0,1.0,1.0,0.0,19.0,1.0,39.0,1.0,382.4492683000001,,,,,,,,,382.4352921,382.5491104,383.3662088000001,383.3485575,383.3491533000001,383.3662088000001,383.3662088000001,383.3662088000001,384.1987735,,,,,,,,,,,,,,,,,,,,,,,,,,,,,,,right,1.0,0.8266923000001043,,,,,sub-188,1,random_dot,60.0957204635559,
left,left,40.0,0.0,20.0,left,1.0,1.1985047999999097,,accuracy,space,4.580680899999834,,,,,,0.0,1.0,1.0,0.0,20.0,0.0,40.0,0.0,384.2134470000001,,,,,,,,,384.199226,385.0124346,385.8293132000001,385.8114237,385.8117011,385.8293132000001,385.8293132000001,385.8293132000001,387.0287046000001,,,,,,,,,,,,,,,,,,,,,,,,,,,,,,,left,1.0,1.1985047999999097,,,,,sub-188,1,random_dot,60.0957204635559,
right,right,41.0,1.0,20.0,right,1.0,2.891678299999967,,accuracy,space,4.580680899999834,,,,,,0.0,1.0,1.0,0.0,20.0,1.0,41.0,1.0,387.0432116,,,,,,,,,387.029536,387.84185750000006,388.6424413,388.6246254,388.6250589000001,388.6424413,388.6424413,388.6424413,391.5392611,,,,,,,,,,,,,,,,,,,,,,,,,,,,,,,right,1.0,2.891678299999967,,,,,sub-188,1,random_dot,60.0957204635559,
right,right,42.0,0.0,21.0,right,1.0,1.5625973999999587,,accuracy,space,4.580680899999834,,,,,,0.0,1.0,1.0,0.0,21.0,0.0,42.0,1.0,391.5539239,,,,,,,,,391.53991310000015,391.65360550000014,392.470763,392.4529519,392.4534243000001,392.470763,392.470763,392.470763,394.0360969000001,,,,,,,,,,,,,,,,,,,,,,,,,,,,,,,right,1.0,1.5625973999999587,,,,,sub-188,1,random_dot,60.0957204635559,
left,left,43.0,1.0,21.0,left,1.0,1.111418599999979,,accuracy,space,4.580680899999834,,,,,,0.0,1.0,1.0,0.0,21.0,1.0,43.0,0.0,394.05057520000014,,,,,,,,,394.03681240000014,394.849381,395.6663376000001,395.6485321,395.6488670000001,395.6663376000001,395.6663376000001,395.6663376000001,396.7822843000001,,,,,,,,,,,,,,,,,,,,,,,,,,,,,,,left,1.0,1.111418599999979,,,,,sub-188,1,random_dot,60.0957204635559,
left,left,44.0,0.0,22.0,left,1.0,1.6146438000000671,,accuracy,space,4.580680899999834,,,,,,0.0,1.0,1.0,0.0,22.0,0.0,44.0,0.0,396.7969553,,,,,,,,,396.78293830000007,396.8968436,397.6971922,397.67961919999993,397.6802006,397.6971922,397.6971922,397.6971922,399.3288299000001,,,,,,,,,,,,,,,,,,,,,,,,,,,,,,,left,1.0,1.6146438000000671,,,,,sub-188,1,random_dot,60.0957204635559,
right,right,45.0,1.0,22.0,right,1.0,1.6098111999999674,,accuracy,space,4.580680899999834,,,,,,0.0,1.0,1.0,0.0,22.0,1.0,45.0,1.0,399.3434318,,,,,,,,,399.3293939,400.1422356000001,400.94274300000006,400.92498190000015,400.9253509,400.94274300000006,400.94274300000006,400.94274300000006,402.5581813000001,,,,,,,,,,,,,,,,,,,,,,,,,,,,,,,right,1.0,1.6098111999999674,,,,,sub-188,1,random_dot,60.0957204635559,
left,left,46.0,0.0,23.0,left,1.0,1.020134199999802,,accuracy,space,4.580680899999834,,,,,,0.0,1.0,1.0,0.0,23.0,0.0,46.0,0.0,402.5726,,,,,,,,,402.5589126,402.92191320000006,403.7389352,403.7210902,403.72135530000014,403.7389352,403.7389352,403.7389352,404.7718914,,,,,,,,,,,,,,,,,,,,,,,,,,,,,,,left,1.0,1.020134199999802,,,,,sub-188,1,random_dot,60.0957204635559,
right,right,47.0,1.0,23.0,right,1.0,1.0657529000000068,,accuracy,space,4.580680899999834,,,,,,0.0,1.0,1.0,0.0,23.0,1.0,47.0,1.0,404.7861917,,,,,,,,,404.7726377000001,404.886211,405.7030029,405.6850907000001,405.6853530000001,405.7030029,405.7030029,405.7030029,406.78525880000007,,,,,,,,,,,,,,,,,,,,,,,,,,,,,,,right,1.0,1.0657529000000068,,,,,sub-188,1,random_dot,60.0957204635559,
right,right,48.0,0.0,24.0,right,1.0,1.00793879999992,,accuracy,space,4.580680899999834,,,,,,0.0,1.0,1.0,0.0,24.0,0.0,48.0,1.0,406.8000863,,,,,,,,,406.7855976999999,407.1499127,407.9667353,407.9488061,407.9491189,407.9667353,407.9667353,407.9667353,408.9822644999999,,,,,,,,,,,,,,,,,,,,,,,,,,,,,,,right,1.0,1.00793879999992,,,,,sub-188,1,random_dot,60.0957204635559,
left,left,49.0,1.0,24.0,left,1.0,1.2254385999999613,,accuracy,space,4.580680899999834,,,,,,0.0,1.0,1.0,0.0,24.0,1.0,49.0,0.0,408.9971685,,,,,,,,,408.9825657000001,409.7962222000001,410.6131553,410.5952937,410.5955763,410.6131553,410.6131553,410.6131553,411.84542970000007,,,,,,,,,,,,,,,,,,,,,,,,,,,,,,,left,1.0,1.2254385999999613,,,,,sub-188,1,random_dot,60.0957204635559,
right,right,50.0,0.0,25.0,right,1.0,0.8033430999998927,,accuracy,space,4.580680899999834,,,,,,0.0,1.0,1.0,0.0,25.0,0.0,50.0,1.0,411.8601044,,,,,,,,,411.8458984000001,412.659087,413.4594896000001,413.4418081000001,413.4422774,413.4594896000001,413.4594896000001,413.4594896000001,414.2756909,,,,,,,,,,,,,,,,,,,,,,,,,,,,,,,right,1.0,0.8033430999998927,,,,,sub-188,1,random_dot,60.0957204635559,
left,left,51.0,1.0,25.0,left,1.0,1.7665922000001046,,accuracy,space,4.580680899999834,,,,,,0.0,1.0,1.0,0.0,25.0,1.0,51.0,0.0,414.2902624999999,,,,,,,,,414.276253,415.0890366000001,415.8894829000001,415.8716521000001,415.8719153,415.8894829000001,415.8894829000001,415.8894829000001,417.6708487000001,,,,,,,,,,,,,,,,,,,,,,,,,,,,,,,left,1.0,1.7665922000001046,,,,,sub-188,1,random_dot,60.0957204635559,
right,right,52.0,0.0,26.0,right,1.0,0.9983230999998796,,accuracy,space,4.580680899999834,,,,,,0.0,1.0,1.0,0.0,26.0,0.0,52.0,1.0,417.685702,,,,,,,,,417.6711986,418.8843714,419.7014179,419.6836837999999,419.6843011000001,419.7014179,419.7014179,419.7014179,420.7001788,,,,,,,,,,,,,,,,,,,,,,,,,,,,,,,right,1.0,0.9983230999998796,,,,,sub-188,1,random_dot,60.0957204635559,
left,left,53.0,1.0,26.0,left,1.0,1.332828500000005,,accuracy,space,4.580680899999834,,,,,,0.0,1.0,1.0,0.0,26.0,1.0,53.0,0.0,420.7149748,,,,,,,,,420.7005325,421.0645276,421.8649766000001,421.8474731000001,421.8480079000001,421.8649766000001,421.8649766000001,421.8649766000001,423.2135747,,,,,,,,,,,,,,,,,,,,,,,,,,,,,,,left,1.0,1.332828500000005,,,,,sub-188,1,random_dot,60.0957204635559,
right,right,54.0,0.0,27.0,right,1.0,0.871196800000007,,accuracy,space,4.580680899999834,,,,,,0.0,1.0,1.0,0.0,27.0,0.0,54.0,1.0,423.228327,,,,,,,,,423.2139141,423.5781799000001,424.3949821000001,424.3775099,424.37837020000006,424.3949821000001,424.3949821000001,424.3949821000001,425.2775759000001,,,,,,,,,,,,,,,,,,,,,,,,,,,,,,,right,1.0,0.871196800000007,,,,,sub-188,1,random_dot,60.0957204635559,
left,left,55.0,1.0,27.0,right,0.0,5.346132599999919,,accuracy,space,4.580680899999834,,,,,,0.0,1.0,1.0,0.0,27.0,1.0,55.0,0.0,425.2922854000001,,,,,,,,,425.27798039999993,425.3922443000001,426.19271330000015,426.1750019000001,426.1755054,426.19271330000015,426.19271330000015,426.19271330000015,431.5529334,,,,,,,,,431.18611120000014,,,,,,,,,,,,,,,,,,,,,,right,0.0,5.346132599999919,,,,,sub-188,1,random_dot,60.0957204635559,
right,right,56.0,0.0,28.0,right,1.0,0.9012084999999388,,accuracy,space,4.580680899999834,,,,,,0.0,1.0,1.0,0.0,28.0,0.0,56.0,1.0,431.5674659000001,,,,,,,,,431.553578,431.6673558,432.4678033,432.45008210000015,432.4506701,432.4678033,432.4678033,432.4678033,433.38336989999993,,,,,,,,,,,,,,,,,,,,,,,,,,,,,,,right,1.0,0.9012084999999388,,,,,sub-188,1,random_dot,60.0957204635559,
left,left,57.0,1.0,28.0,left,1.0,1.1009248000000298,,accuracy,space,4.580680899999834,,,,,,0.0,1.0,1.0,0.0,28.0,1.0,57.0,0.0,433.3981893,,,,,,,,,433.383687,433.4980771000001,434.3150562999999,434.2972340000001,434.2974928000001,434.3150562999999,434.3150562999999,434.3150562999999,435.4307653000001,,,,,,,,,,,,,,,,,,,,,,,,,,,,,,,left,1.0,1.1009248000000298,,,,,sub-188,1,random_dot,60.0957204635559,
right,right,58.0,0.0,29.0,right,1.0,0.7964110000000346,,accuracy,space,4.580680899999834,,,,,,0.0,1.0,1.0,0.0,29.0,0.0,58.0,1.0,435.44550730000014,,,,,,,,,435.43117699999993,435.7952026,436.61216250000007,436.5944078,436.5948485000001,436.61216250000007,436.61216250000007,436.61216250000007,437.4118128,,,,,,,,,,,,,,,,,,,,,,,,,,,,,,,right,1.0,0.7964110000000346,,,,,sub-188,1,random_dot,60.0957204635559,
left,left,59.0,1.0,29.0,left,1.0,1.1438095000000883,,accuracy,space,4.580680899999834,,,,,,0.0,1.0,1.0,0.0,29.0,1.0,59.0,0.0,437.4263644,,,,,,,,,437.41240160000007,437.5262331000001,438.3432107000001,438.3253725,438.3257543,438.3432107000001,438.3432107000001,438.3432107000001,439.4920734,,,,,,,,,,,,,,,,,,,,,,,,,,,,,,,left,1.0,1.1438095000000883,,,,,sub-188,1,random_dot,60.0957204635559,
,,1.0,1.0,0.0,,,,,accuracy,space,4.580680899999834,,,,,,0.0,1.0,1.0,0.0,,,,,,,,,,,,,,,,,,,,,,,,,,,,,,,,,,,,,,,,,,,,,,,,,,,,,,,,,,,,sub-188,1,random_dot,60.0957204635559,
,,,,,,,,,,,,,,,,,,,,,,,,,,,,,,,,,,,,,,,,,,,,,,,,,,,,,,,,,,,,,,,,,,,,,,,,,,,,,439.4988191,439.5070177,444.5008601,sub-188,1,random_dot,60.0957204635559,
