wordCTK,colorCTK,corrAnsCTK,congruentCTK,thisN,thisTrialN,thisRepN,keyResp_CTK.keys,keyResp_CTK.corr,keyResp_CTK.rt,keyResp_CTK.duration,wordPractice,colorPractice,corrAnsPractice,congruentPractice,respPractice.keys,respPractice.corr,respPractice.rt,respPractice.duration,word,color,corrAns,congruent,keyResp_test_run.keys,keyResp_test_run.corr,keyResp_test_run.rt,keyResp_test_run.duration,trials_CTK.thisRepN,trials_CTK.thisTrialN,trials_CTK.thisN,trials_CTK.thisIndex,trials_practice.thisRepN,trials_practice.thisTrialN,trials_practice.thisN,trials_practice.thisIndex,trials_test.thisRepN,trials_test.thisTrialN,trials_test.thisN,trials_test.thisIndex,thisRow.t,notes,instruction.started,instr_text.started,instr_image.started,instr_resp.started,instruction.stopped,instr_resp.keys,instr_resp.rt,instr_resp.duration,instr_color_to_key.started,instr_ctk.started,resp_ctk.started,instr_color_to_key.stopped,resp_ctk.keys,resp_ctk.rt,resp_ctk.duration,ITI.started,fixcross.started,fixcross.stopped,ITI.stopped,color_to_key_run.started,stimulus_CTK.started,keyResp_CTK.started,color_to_key_run.stopped,trials_CTK.keyResp_CTK.keys,trials_CTK.keyResp_CTK.corr,trials_CTK.keyResp_CTK.rt,trials_CTK.keyResp_CTK.duration,instr_practice.started,instr_practice_text.started,instr_practice_resp.started,instr_practice.stopped,instr_practice_resp.keys,instr_practice_resp.rt,instr_practice_resp.duration,practice_run.started,stimulus_practice.started,respPractice.started,practice_run.stopped,trials_practice.respPractice.keys,trials_practice.respPractice.corr,trials_practice.respPractice.rt,trials_practice.respPractice.duration,feedback.started,textFeedback.started,textFeedback.stopped,feedback.stopped,instr_test.started,instr_test_text.started,instr_test_resp.started,instr_test.stopped,instr_test_resp.keys,instr_test_resp.rt,instr_test_resp.duration,test_run.started,stimulus_test_run.started,keyResp_test_run.started,test_run.stopped,trials_test.keyResp_test_run.keys,trials_test.keyResp_test_run.corr,trials_test.keyResp_test_run.rt,trials_test.keyResp_test_run.duration,goodbye.started,textGoodbye.started,textGoodbye.stopped,goodbye.stopped,participant,session,expName,frameRate,Unnamed: 113
,,,,,,,,,,,,,,,,,,,,,,,,,,,,,,,,,,,,,,,,,0.0019650999456644,0.0154202000703662,0.0154202000703662,0.0154202000703662,166.47510179993697,space,166.45627330010757,,,,,,,,,,,,,,,,,,,,,,,,,,,,,,,,,,,,,,,,,,,,,,,,,,,,,,,,,,,sub-165,1,stroop_test,60.041596827471245,
,,,,,,,,,,,,,,,,,,,,,,,,,,,,,,,,,,,,,,,,,,,,,,,,,166.47519219992682,166.48934499989264,166.48934499989264,180.323346799938,space,13.8302833000198,,,,,,,,,,,,,,,,,,,,,,,,,,,,,,,,,,,,,,,,,,,,,,,,,,,,sub-165,1,stroop_test,60.041596827471245,
test,yellow,g,1.0,0.0,0.0,0.0,g,1.0,1.904231599997729,,,,,,,,,,,,,,,,,,0.0,0.0,0.0,1.0,,,,,,,,,180.3787678000517,,,,,,,,,,,,,,,,,180.37507129996084,180.6726432000287,181.47303600003943,181.45666839997284,181.4686461999081,181.47303600003943,181.47303600003943,183.39002819987945,g,1.0,1.904231599997729,,,,,,,,,,,,,,,,,,,,,,,,,,,,,,,,,,,,,,,,sub-165,1,stroop_test,60.041596827471245,
test,red,r,1.0,1.0,1.0,0.0,r,1.0,0.9732424998655916,,,,,,,,,,,,,,,,,,0.0,1.0,1.0,0.0,,,,,,,,,183.4056520999875,,,,,,,,,,,,,,,,,183.39038660004732,183.7392982998863,184.5392714999616,184.52354049985297,184.52426149998792,184.5392714999616,184.5392714999616,185.5236233000178,r,1.0,0.9732424998655916,,,,,,,,,,,,,,,,,,,,,,,,,,,,,,,,,,,,,,,,sub-165,1,stroop_test,60.041596827471245,
test,blue,b,1.0,2.0,2.0,0.0,b,1.0,0.6727525999303907,,,,,,,,,,,,,,,,,,0.0,2.0,2.0,2.0,,,,,,,,,185.5392360999249,,,,,,,,,,,,,,,,,185.52400580001995,186.7390711000189,187.53904349985527,187.52337870001796,187.52399779995903,187.53904349985527,187.53904349985527,188.242225300055,b,1.0,0.6727525999303907,,,,,,,,,,,,,,,,,,,,,,,,,,,,,,,,,,,,,,,,sub-165,1,stroop_test,60.041596827471245,
test,yellow,g,1.0,3.0,0.0,1.0,g,1.0,1.122725599911064,,,,,,,,,,,,,,,,,,1.0,0.0,3.0,1.0,,,,,,,,,188.2458502999507,,,,,,,,,,,,,,,,,188.24267349997533,189.05603679991327,189.8561664998997,189.84009189996868,189.84074299992065,189.8561664998997,189.8561664998997,190.9912465999369,g,1.0,1.122725599911064,,,,,,,,,,,,,,,,,,,,,,,,,,,,,,,,,,,,,,,,sub-165,1,stroop_test,60.041596827471245,
test,blue,b,1.0,4.0,1.0,1.0,b,1.0,0.8563463999889791,,,,,,,,,,,,,,,,,,1.0,1.0,4.0,2.0,,,,,,,,,191.00604919996115,,,,,,,,,,,,,,,,,190.99176579993215,191.1059713000432,191.9056750999298,191.8901355999988,191.89078309992328,191.9056750999298,191.9056750999298,192.7752368999645,b,1.0,0.8563463999889791,,,,,,,,,,,,,,,,,,,,,,,,,,,,,,,,,,,,,,,,sub-165,1,stroop_test,60.041596827471245,
test,red,r,1.0,5.0,2.0,1.0,r,1.0,0.6202157000079751,,,,,,,,,,,,,,,,,,1.0,2.0,5.0,0.0,,,,,,,,,192.7897300000768,,,,,,,,,,,,,,,,,192.77574909990653,193.9896072000265,194.78913230006583,194.77321349992417,194.7738671998959,194.78913230006583,194.78913230006583,195.4236908999737,r,1.0,0.6202157000079751,,,,,,,,,,,,,,,,,,,,,,,,,,,,,,,,,,,,,,,,sub-165,1,stroop_test,60.041596827471245,
test,red,r,1.0,6.0,0.0,2.0,r,1.0,0.6501642998773605,,,,,,,,,,,,,,,,,,2.0,0.0,6.0,0.0,,,,,,,,,195.43948940001428,,,,,,,,,,,,,,,,,195.42397239990527,195.5397413999308,196.33959729992785,196.3233127000276,196.3239408999216,196.33959729992785,196.33959729992785,196.9916252000257,r,1.0,0.6501642998773605,,,,,,,,,,,,,,,,,,,,,,,,,,,,,,,,,,,,,,,,sub-165,1,stroop_test,60.041596827471245,
test,yellow,g,1.0,7.0,1.0,2.0,g,1.0,1.3445821998175234,,,,,,,,,,,,,,,,,,2.0,1.0,7.0,1.0,,,,,,,,,197.00575959985144,,,,,,,,,,,,,,,,,196.99206289998256,197.10561760002747,197.9058415000327,197.88980400003493,197.89037689985707,197.9058415000327,197.9058415000327,199.25752320000905,g,1.0,1.3445821998175234,,,,,,,,,,,,,,,,,,,,,,,,,,,,,,,,,,,,,,,,sub-165,1,stroop_test,60.041596827471245,
test,blue,b,1.0,8.0,2.0,2.0,b,1.0,0.7134684999473393,,,,,,,,,,,,,,,,,,2.0,2.0,8.0,2.0,,,,,,,,,199.2724216999486,,,,,,,,,,,,,,,,,199.25801580003463,199.37263270001856,200.1724952000659,200.15721139987,200.15784049988724,200.1724952000659,200.1724952000659,200.8905068000313,b,1.0,0.7134684999473393,,,,,,,,,,,,,,,,,,,,,,,,,,,,,,,,,,,,,,,,sub-165,1,stroop_test,60.041596827471245,
test,blue,b,1.0,9.0,0.0,3.0,b,1.0,0.7531691999174654,,,,,,,,,,,,,,,,,,3.0,0.0,9.0,2.0,,,,,,,,,200.90621410007589,,,,,,,,,,,,,,,,,200.8912782999687,201.7059253000189,202.50599509989843,202.49049440003,202.49105359986424,202.50599509989843,202.50599509989843,203.27535060001537,b,1.0,0.7531691999174654,,,,,,,,,,,,,,,,,,,,,,,,,,,,,,,,,,,,,,,,sub-165,1,stroop_test,60.041596827471245,
test,yellow,g,1.0,10.0,1.0,3.0,g,1.0,1.2068594999145716,,,,,,,,,,,,,,,,,,3.0,1.0,10.0,1.0,,,,,,,,,203.28905489994213,,,,,,,,,,,,,,,,,203.27583659999075,204.0892524998635,204.88921379996464,204.87367730005644,204.87412149994637,204.88921379996464,204.88921379996464,206.1066179999616,g,1.0,1.2068594999145716,,,,,,,,,,,,,,,,,,,,,,,,,,,,,,,,,,,,,,,,sub-165,1,stroop_test,60.041596827471245,
test,red,r,1.0,11.0,2.0,3.0,r,1.0,0.9700684999115764,,,,,,,,,,,,,,,,,,3.0,2.0,11.0,0.0,,,,,,,,,206.122879399918,,,,,,,,,,,,,,,,,206.1070624999702,206.2063310998492,207.0055904998444,206.99015769991087,206.9908876998816,207.0055904998444,207.0055904998444,207.99059049994685,r,1.0,0.9700684999115764,,,,,,,,,,,,,,,,,,,,,,,,,,,,,,,,,,,,,,,,sub-165,1,stroop_test,60.041596827471245,
,,,,,,,,,,,,,,,,,,,,,,,,,,,,,,,,,,,,,,,,,,,,,,,,,,,,,,,,,,,,,,,,,,,,207.9907934998628,208.00605509988964,208.00605509988964,214.0071221999824,space,5.985689399996772,,,,,,,,,,,,,,,,,,,,,,,,,,,,,,,,,sub-165,1,stroop_test,60.041596827471245,
,,,,0.0,0.0,0.0,,,,,gelb,yellow,g,1.0,g,1.0,1.6391580000054091,,,,,,,,,,,,,,0.0,0.0,0.0,11.0,,,,,214.0490524000488,,,,,,,,,,,,,,,,,214.04569369996895,214.3558779999148,215.1607190000359,215.14067150000483,,,,,,,,,,,,,,,,215.15303859999403,215.1607190000359,215.1607190000359,216.80743300006725,g,1.0,1.6391580000054091,,216.8159010000527,216.8222562998999,217.8227866999805,217.80716559989375,,,,,,,,,,,,,,,,,,,,sub-165,1,stroop_test,60.041596827471245,
,,,,1.0,1.0,0.0,,,,,blau,blue,b,1.0,b,1.0,1.0105208999011666,,,,,,,,,,,,,,0.0,1.0,1.0,6.0,,,,,217.8227866999805,,,,,,,,,,,,,,,,,217.8077104999684,218.17265770002268,218.98592949984595,218.9568350999616,,,,,,,,,,,,,,,,218.9662532999646,218.98592949984595,218.98592949984595,220.00699379993603,b,1.0,1.0105208999011666,,220.0077200999949,220.02292759995908,221.02256079996005,221.0068584000692,,,,,,,,,,,,,,,,,,,,sub-165,1,stroop_test,60.041596827471245,
,,,,2.0,2.0,0.0,,,,,blau,yellow,g,0.0,g,1.0,1.208888600114733,,,,,,,,,,,,,,0.0,2.0,2.0,7.0,,,,,221.02256079996005,,,,,,,,,,,,,,,,,221.0073720999062,221.10598429990927,221.90581779996864,221.88993930001743,,,,,,,,,,,,,,,,221.89041569991969,221.90581779996864,221.90581779996864,223.12372229993343,g,1.0,1.208888600114733,,223.1244645998813,223.13972939993252,224.13914379989728,224.1239515999332,,,,,,,,,,,,,,,,,,,,sub-165,1,stroop_test,60.041596827471245,
,,,,3.0,3.0,0.0,,,,,rot,red,r,1.0,r,1.0,1.010191900189966,,,,,,,,,,,,,,0.0,3.0,3.0,0.0,,,,,224.13914379989728,,,,,,,,,,,,,,,,,224.1243718999904,224.2390945998486,225.03914029989392,225.0230282000266,,,,,,,,,,,,,,,,225.0293544998858,225.03914029989392,225.03914029989392,226.0568305000197,r,1.0,1.010191900189966,,226.05737879988737,226.07267050002704,227.07285410002805,227.057167599909,,,,,,,,,,,,,,,,,,,,sub-165,1,stroop_test,60.041596827471245,
,,,,4.0,4.0,0.0,,,,,blau,blue,b,1.0,b,1.0,0.8550237000454217,,,,,,,,,,,,,,0.0,4.0,4.0,5.0,,,,,227.07285410002805,,,,,,,,,,,,,,,,,227.05759279988703,227.85655439994295,228.65610489994287,228.63993259985,,,,,,,,,,,,,,,,228.6436978999991,228.65610489994287,228.65610489994287,229.5233419998549,b,1.0,0.8550237000454217,,229.52383550000377,229.53939140005969,230.539199099876,230.52406969992444,,,,,,,,,,,,,,,,,,,,sub-165,1,stroop_test,60.041596827471245,
,,,,5.0,5.0,0.0,,,,,gelb,yellow,g,1.0,g,1.0,1.0275584999471905,,,,,,,,,,,,,,0.0,5.0,5.0,10.0,,,,,230.539199099876,,,,,,,,,,,,,,,,,230.5244762999937,231.72250070003795,232.5226882998832,232.5063229999505,,,,,,,,,,,,,,,,232.50908389990215,232.5226882998832,232.5226882998832,233.5572647000663,g,1.0,1.0275584999471905,,233.55779509991407,233.5729884000029,234.5726846999023,234.55645749997348,,,,,,,,,,,,,,,,,,,,sub-165,1,stroop_test,60.041596827471245,
,,,,6.0,6.0,0.0,,,,,rot,yellow,g,0.0,g,1.0,1.234915099805221,,,,,,,,,,,,,,0.0,6.0,6.0,3.0,,,,,234.5726846999023,,,,,,,,,,,,,,,,,234.55674969987007,235.37254539993592,236.1726033000741,236.15678699989803,,,,,,,,,,,,,,,,236.16100279986856,236.1726033000741,236.1726033000741,237.4108523000032,g,1.0,1.234915099805221,,237.41159789985977,237.42269989987835,238.42262439988556,238.40678019984625,,,,,,,,,,,,,,,,,,,,sub-165,1,stroop_test,60.041596827471245,
,,,,7.0,7.0,0.0,,,,,blau,red,r,0.0,r,1.0,1.0847266998607663,,,,,,,,,,,,,,0.0,7.0,7.0,4.0,,,,,238.42262439988556,,,,,,,,,,,,,,,,,238.40731070004404,238.52229440002705,239.32275300007316,239.3066525000613,,,,,,,,,,,,,,,,239.3098263000138,239.32275300007316,239.32275300007316,240.40934840007685,r,1.0,1.0847266998607663,,240.4098958999384,240.42278869985603,241.42229739995676,241.41335220006292,,,,,,,,,,,,,,,,,,,,sub-165,1,stroop_test,60.041596827471245,
,,,,8.0,8.0,0.0,,,,,rot,red,r,1.0,r,1.0,0.6515676998533309,,,,,,,,,,,,,,0.0,8.0,8.0,1.0,,,,,241.42229739995676,,,,,,,,,,,,,,,,,241.41368529992175,241.77305680001157,242.5723691000603,242.55697280005552,,,,,,,,,,,,,,,,242.56115520000455,242.5723691000603,242.5723691000603,243.23993190005424,r,1.0,0.6515676998533309,,243.24050559988245,243.2560407998972,244.2560341998469,244.2401535999961,,,,,,,,,,,,,,,,,,,,sub-165,1,stroop_test,60.041596827471245,
,,,,9.0,9.0,0.0,,,,,rot,blue,b,0.0,b,1.0,1.0833894999232143,,,,,,,,,,,,,,0.0,9.0,9.0,2.0,,,,,244.2560341998469,,,,,,,,,,,,,,,,,244.2405614999589,245.03930349997245,245.8394301000517,245.82348260004076,,,,,,,,,,,,,,,,245.82402529986572,245.8394301000517,245.8394301000517,246.9400875000283,b,1.0,1.0833894999232143,,246.9405873999931,246.9559835998807,247.95597500004808,247.94008739991116,,,,,,,,,,,,,,,,,,,,sub-165,1,stroop_test,60.041596827471245,
,,,,10.0,10.0,0.0,,,,,gelb,blue,b,0.0,b,1.0,1.7562324998434633,,,,,,,,,,,,,,0.0,10.0,10.0,9.0,,,,,247.95597500004808,,,,,,,,,,,,,,,,,247.94043329986744,249.1559671999421,249.955945200054,249.9403367000632,,,,,,,,,,,,,,,,249.94497049995695,249.955945200054,249.955945200054,251.72429849999023,b,1.0,1.7562324998434633,,251.7250610999763,251.73937419988212,252.73907510004935,252.7242932000663,,,,,,,,,,,,,,,,,,,,sub-165,1,stroop_test,60.041596827471245,
,,,,11.0,11.0,0.0,,,,,gelb,red,r,0.0,r,1.0,2.430519000161439,,,,,,,,,,,,,,0.0,11.0,11.0,8.0,,,,,252.73907510004935,,,,,,,,,,,,,,,,,252.72482299990952,253.0895382000599,253.8891900999006,253.87333049997687,,,,,,,,,,,,,,,,253.87411469989456,253.8891900999006,253.8891900999006,256.3244988999795,r,1.0,2.430519000161439,,256.3251608000137,256.3393496000208,257.3393765999936,257.32339739985764,,,,,,,,,,,,,,,,,,,,sub-165,1,stroop_test,60.041596827471245,
,,,,12.0,0.0,1.0,,,,,blau,blue,b,1.0,b,1.0,0.6628221999853849,,,,,,,,,,,,,,1.0,0.0,12.0,6.0,,,,,257.3393765999936,,,,,,,,,,,,,,,,,257.3238750998862,258.13920179987326,258.9436089999508,258.9235532998573,,,,,,,,,,,,,,,,258.926253200043,258.9436089999508,258.9436089999508,259.6093281998765,b,1.0,0.6628221999853849,,259.6100397000555,259.62260510004126,260.6230683999602,260.60673759994097,,,,,,,,,,,,,,,,,,,,sub-165,1,stroop_test,60.041596827471245,
,,,,13.0,1.0,1.0,,,,,blau,yellow,g,0.0,r,0.0,1.1090274001471698,,,,,,,,,,,,,,1.0,1.0,13.0,7.0,,,,,260.6230683999602,,,,,,,,,,,,,,,,,260.60719770006835,261.8227021000348,262.6226615998894,262.6070468998514,,,,,,,,,,,,,,,,262.60776949999854,262.6226615998894,262.6226615998894,263.74068729998544,r,0.0,1.1090274001471698,,263.74697480001487,263.755610199878,264.7559010998812,264.73983370000497,,,,,,,,,,,,,,,,,,,,sub-165,1,stroop_test,60.041596827471245,
,,,,14.0,2.0,1.0,,,,,rot,blue,b,0.0,b,1.0,1.0173154000658542,,,,,,,,,,,,,,1.0,2.0,14.0,2.0,,,,,264.7559010998812,,,,,,,,,,,,,,,,,264.74021820002235,265.95589839993045,266.7560386999976,266.74128860002384,,,,,,,,,,,,,,,,266.7455857999157,266.7560386999976,266.7560386999976,267.77627759985626,b,1.0,1.0173154000658542,,267.7810905999504,267.7891456000507,268.78916629985906,268.7739444000181,,,,,,,,,,,,,,,,,,,,sub-165,1,stroop_test,60.041596827471245,
,,,,15.0,3.0,1.0,,,,,blau,red,r,0.0,r,1.0,0.8351986999623477,,,,,,,,,,,,,,1.0,3.0,15.0,4.0,,,,,268.78916629985906,,,,,,,,,,,,,,,,,268.77447689999826,269.58971039997414,270.38932159985416,270.37315279990435,,,,,,,,,,,,,,,,270.37682199990377,270.38932159985416,270.38932159985416,271.24037989997305,r,1.0,0.8351986999623477,,271.2410826999694,271.25627660006285,272.25575860007666,272.2410373999737,,,,,,,,,,,,,,,,,,,,sub-165,1,stroop_test,60.041596827471245,
,,,,16.0,4.0,1.0,,,,,rot,red,r,1.0,r,1.0,0.7032337000127882,,,,,,,,,,,,,,1.0,4.0,16.0,0.0,,,,,272.25575860007666,,,,,,,,,,,,,,,,,272.24149219994433,272.356068499852,273.1560068000108,273.1399238000158,,,,,,,,,,,,,,,,273.14356220001355,273.1560068000108,273.1560068000108,273.87345239985734,r,1.0,0.7032337000127882,,273.8741444000043,273.8892612999771,274.8897946998477,274.87357289996,,,,,,,,,,,,,,,,,,,,sub-165,1,stroop_test,60.041596827471245,
,,,,17.0,5.0,1.0,,,,,gelb,red,r,0.0,r,1.0,1.0066825000103563,,,,,,,,,,,,,,1.0,5.0,17.0,8.0,,,,,274.8897946998477,,,,,,,,,,,,,,,,,274.87399049988016,275.23949449998327,276.0392028000206,276.0238928999752,,,,,,,,,,,,,,,,276.0284464000724,276.0392028000206,276.0392028000206,277.0577537000645,r,1.0,1.0066825000103563,,277.0585214998573,277.07284869998693,278.0726260000374,278.05699010007083,,,,,,,,,,,,,,,,,,,,sub-165,1,stroop_test,60.041596827471245,
,,,,18.0,6.0,1.0,,,,,rot,yellow,g,0.0,g,1.0,0.9768948000855744,,,,,,,,,,,,,,1.0,6.0,18.0,3.0,,,,,278.0726260000374,,,,,,,,,,,,,,,,,278.0573855000548,278.1727905999869,278.97249959991314,278.9566039000638,,,,,,,,,,,,,,,,278.96051050000824,278.97249959991314,278.97249959991314,279.9575348000508,g,1.0,0.9768948000855744,,279.9580961000174,279.9729766000528,280.97250239993446,280.95716900005937,,,,,,,,,,,,,,,,,,,,sub-165,1,stroop_test,60.041596827471245,
,,,,19.0,7.0,1.0,,,,,blau,blue,b,1.0,b,1.0,0.5686574999708682,,,,,,,,,,,,,,1.0,7.0,19.0,5.0,,,,,280.97250239993446,,,,,,,,,,,,,,,,,280.9574797998648,281.0726230998989,281.87287799990736,281.85701479995623,,,,,,,,,,,,,,,,281.86168870003894,281.87287799990736,281.87287799990736,282.457585999975,b,1.0,0.5686574999708682,,282.45808280003257,282.4731540000066,283.4726128000766,283.45692269993015,,,,,,,,,,,,,,,,,,,,sub-165,1,stroop_test,60.041596827471245,
,,,,20.0,8.0,1.0,,,,,gelb,yellow,g,1.0,g,1.0,1.2880577000323683,,,,,,,,,,,,,,1.0,8.0,20.0,10.0,,,,,283.4726128000766,,,,,,,,,,,,,,,,,283.457444800064,283.57340210000984,284.3725820998661,284.3576668999158,,,,,,,,,,,,,,,,284.3630997000728,284.3725820998661,284.3725820998661,285.67332779988647,g,1.0,1.2880577000323683,,285.6738986999262,285.68924569990486,286.68936209985986,286.67344609997235,,,,,,,,,,,,,,,,,,,,sub-165,1,stroop_test,60.041596827471245,
,,,,21.0,9.0,1.0,,,,,gelb,blue,b,0.0,b,1.0,0.6693547000177205,,,,,,,,,,,,,,1.0,9.0,21.0,9.0,,,,,286.68936209985986,,,,,,,,,,,,,,,,,286.67384429997765,287.0233301999979,287.8225253999699,287.80676060006954,,,,,,,,,,,,,,,,287.80741130001843,287.8225253999699,287.8225253999699,288.507403699914,b,1.0,0.6693547000177205,,288.5081589000765,288.5223471999634,289.5225465998519,289.5068399000447,,,,,,,,,,,,,,,,,,,,sub-165,1,stroop_test,60.041596827471245,
,,,,22.0,10.0,1.0,,,,,gelb,yellow,g,1.0,r,0.0,0.6040084999985993,,,,,,,,,,,,,,1.0,10.0,22.0,11.0,,,,,289.5225465998519,,,,,,,,,,,,,,,,,289.50722939986736,289.6226357000414,290.4225740998518,290.4067706998904,,,,,,,,,,,,,,,,290.407359899953,290.4225740998518,290.4225740998518,291.04126639990136,r,0.0,0.6040084999985993,,291.045882599894,291.05620300001465,292.0563298999332,292.0404997000005,,,,,,,,,,,,,,,,,,,,sub-165,1,stroop_test,60.041596827471245,
,,,,23.0,11.0,1.0,,,,,rot,red,r,1.0,r,1.0,0.7537237999495119,,,,,,,,,,,,,,1.0,11.0,23.0,1.0,,,,,292.0563298999332,,,,,,,,,,,,,,,,,292.0409115999937,292.15638819988817,292.9564799000509,292.940644999966,,,,,,,,,,,,,,,,292.94443839997984,292.9564799000509,292.9564799000509,293.72376760002226,r,1.0,0.7537237999495119,,293.728430399904,293.7393606000114,294.7393421998713,294.72333660000004,,,,,,,,,,,,,,,,,,,,sub-165,1,stroop_test,60.041596827471245,
,,,,,,,,,,,,,,,,,,,,,,,,,,,,,,,,,,,,,,,,,,,,,,,,,,,,,,,,,,,,,,,,,,,,,,,,,,,,,,,,,,,,,,,294.72350089997053,294.7393421998713,294.7393421998713,304.52383839990944,space,9.773655399912968,,,,,,,,,,,,,,sub-165,1,stroop_test,60.041596827471245,
,,,,0.0,0.0,0.0,,,,,,,,,,,,,rot,blue,b,0.0,b,1.0,1.3425292999017984,,,,,,,,,,0.0,0.0,0.0,2.0,304.5615175999701,,,,,,,,,,,,,,,,,304.5577676000539,305.7398204000201,306.5391939999536,306.5240970000159,,,,,,,,,,,,,,,,,,,,,,,,,,,,,,,,,,,306.528621800011,306.5391939999536,306.5391939999536,307.8905309999828,b,1.0,1.3425292999017984,,,,,,sub-165,1,stroop_test,60.041596827471245,
,,,,1.0,1.0,0.0,,,,,,,,,,,,,blau,blue,b,1.0,b,1.0,1.1696297000162303,,,,,,,,,,0.0,1.0,1.0,6.0,307.90590579994023,,,,,,,,,,,,,,,,,307.8909185999073,309.10599249997176,309.9056702000089,309.89010629989207,,,,,,,,,,,,,,,,,,,,,,,,,,,,,,,,,,,309.89415879989974,309.9056702000089,309.9056702000089,311.0903214998543,b,1.0,1.1696297000162303,,,,,,sub-165,1,stroop_test,60.041596827471245,
,,,,2.0,2.0,0.0,,,,,,,,,,,,,blau,yellow,g,0.0,g,1.0,1.178948000073433,,,,,,,,,,0.0,2.0,2.0,7.0,311.1059878000524,,,,,,,,,,,,,,,,,311.09066889993846,312.3060180998873,313.10629779985175,313.09028059989214,,,,,,,,,,,,,,,,,,,,,,,,,,,,,,,,,,,313.09096229984425,313.10629779985175,313.10629779985175,314.29093659995124,g,1.0,1.178948000073433,,,,,,sub-165,1,stroop_test,60.041596827471245,
,,,,3.0,3.0,0.0,,,,,,,,,,,,,gelb,blue,b,0.0,b,1.0,0.9033369000535458,,,,,,,,,,0.0,3.0,3.0,9.0,314.3058966998942,,,,,,,,,,,,,,,,,314.29134360002354,314.6560978998896,315.4559563000221,315.44048659992404,,,,,,,,,,,,,,,,,,,,,,,,,,,,,,,,,,,315.44404199998826,315.4559563000221,315.4559563000221,316.37376550002955,b,1.0,0.9033369000535458,,,,,,sub-165,1,stroop_test,60.041596827471245,
,,,,4.0,4.0,0.0,,,,,,,,,,,,,rot,red,r,1.0,r,1.0,1.149981499882415,,,,,,,,,,0.0,4.0,4.0,0.0,316.3892631998752,,,,,,,,,,,,,,,,,316.3742557000369,316.47317770007066,317.27273670001887,317.2567497000564,,,,,,,,,,,,,,,,,,,,,,,,,,,,,,,,,,,317.260379999876,317.27273670001887,317.27273670001887,318.4247754998505,r,1.0,1.149981499882415,,,,,,sub-165,1,stroop_test,60.041596827471245,
,,,,5.0,5.0,0.0,,,,,,,,,,,,,gelb,yellow,g,1.0,g,1.0,0.9962450000457466,,,,,,,,,,0.0,5.0,5.0,10.0,318.4392874999903,,,,,,,,,,,,,,,,,318.4254958999809,318.7891150000505,319.58947649993934,319.57399869989604,,,,,,,,,,,,,,,,,,,,,,,,,,,,,,,,,,,319.5782864000648,319.58947649993934,319.58947649993934,320.59065059991553,g,1.0,0.9962450000457466,,,,,,sub-165,1,stroop_test,60.041596827471245,
,,,,6.0,6.0,0.0,,,,,,,,,,,,,blau,red,r,0.0,r,1.0,0.9177024001255631,,,,,,,,,,0.0,6.0,6.0,4.0,320.60616069985554,,,,,,,,,,,,,,,,,320.591214899905,321.8061476999428,322.606163199991,322.59093589987606,,,,,,,,,,,,,,,,,,,,,,,,,,,,,,,,,,,322.59545570006594,322.606163199991,322.606163199991,323.5411394999828,r,1.0,0.9177024001255631,,,,,,sub-165,1,stroop_test,60.041596827471245,
,,,,7.0,7.0,0.0,,,,,,,,,,,,,rot,yellow,g,0.0,g,1.0,1.2528733001090586,,,,,,,,,,0.0,7.0,7.0,3.0,323.5562722000759,,,,,,,,,,,,,,,,,323.5416645000223,323.6567665999755,324.4560497000348,324.4399272999726,,,,,,,,,,,,,,,,,,,,,,,,,,,,,,,,,,,324.44412270002067,324.4560497000348,324.4560497000348,325.72415849985555,g,1.0,1.2528733001090586,,,,,,sub-165,1,stroop_test,60.041596827471245,
,,,,8.0,8.0,0.0,,,,,,,,,,,,,blau,blue,b,1.0,b,1.0,0.5698267999105155,,,,,,,,,,0.0,8.0,8.0,5.0,325.7398109000642,,,,,,,,,,,,,,,,,325.7246431999374,325.8394267000258,326.6393098998815,326.6240201999899,,,,,,,,,,,,,,,,,,,,,,,,,,,,,,,,,,,326.6298791000154,326.6393098998815,326.6393098998815,327.224673199933,b,1.0,0.5698267999105155,,,,,,sub-165,1,stroop_test,60.041596827471245,
,,,,9.0,9.0,0.0,,,,,,,,,,,,,rot,red,r,1.0,r,1.0,0.9644293000455946,,,,,,,,,,0.0,9.0,9.0,1.0,327.2392716000322,,,,,,,,,,,,,,,,,327.2251484999433,327.5897160000168,328.38945410004817,328.37322339997627,,,,,,,,,,,,,,,,,,,,,,,,,,,,,,,,,,,328.3766214000061,328.38945410004817,328.38945410004817,329.35987599985674,r,1.0,0.9644293000455946,,,,,,sub-165,1,stroop_test,60.041596827471245,
,,,,10.0,10.0,0.0,,,,,,,,,,,,,gelb,red,r,0.0,r,1.0,1.0529755000025034,,,,,,,,,,0.0,10.0,10.0,8.0,329.3727861000225,,,,,,,,,,,,,,,,,329.36029169987887,329.4728598999791,330.27428229991347,330.25711019989103,,,,,,,,,,,,,,,,,,,,,,,,,,,,,,,,,,,330.26165140001103,330.27428229991347,330.27428229991347,331.34093329985626,r,1.0,1.0529755000025034,,,,,,sub-165,1,stroop_test,60.041596827471245,
,,,,11.0,11.0,0.0,,,,,,,,,,,,,gelb,yellow,g,1.0,g,1.0,0.902783100027591,,,,,,,,,,0.0,11.0,11.0,11.0,331.3563771999907,,,,,,,,,,,,,,,,,331.34155269991606,331.45780829992145,332.2732736000325,332.25867239991203,,,,,,,,,,,,,,,,,,,,,,,,,,,,,,,,,,,332.25949399988167,332.2732736000325,332.2732736000325,333.1915215998888,g,1.0,0.902783100027591,,,,,,sub-165,1,stroop_test,60.041596827471245,
,,,,12.0,0.0,1.0,,,,,,,,,,,,,rot,yellow,g,0.0,g,1.0,1.4098957001697272,,,,,,,,,,1.0,0.0,12.0,3.0,333.2056974999141,,,,,,,,,,,,,,,,,333.19194429996423,333.55568520003,334.3562161999289,334.3400262000505,,,,,,,,,,,,,,,,,,,,,,,,,,,,,,,,,,,334.3440735999029,334.3562161999289,334.3562161999289,335.77398329996504,g,1.0,1.4098957001697272,,,,,,sub-165,1,stroop_test,60.041596827471245,
,,,,13.0,1.0,1.0,,,,,,,,,,,,,rot,red,r,1.0,r,1.0,0.9296214000787586,,,,,,,,,,1.0,1.0,13.0,1.0,335.78920209989883,,,,,,,,,,,,,,,,,335.7744181000162,335.88953169994056,336.68929879995994,336.67346319998614,,,,,,,,,,,,,,,,,,,,,,,,,,,,,,,,,,,336.6740784998983,336.68929879995994,336.68929879995994,337.62400159984827,r,1.0,0.9296214000787586,,,,,,sub-165,1,stroop_test,60.041596827471245,
,,,,14.0,2.0,1.0,,,,,,,,,,,,,blau,red,r,0.0,r,1.0,0.9812201000750064,,,,,,,,,,1.0,2.0,14.0,4.0,337.6391290000174,,,,,,,,,,,,,,,,,337.6245895999018,337.98930769995786,338.7892736999784,338.7742033000104,,,,,,,,,,,,,,,,,,,,,,,,,,,,,,,,,,,338.77966780005954,338.7892736999784,338.7892736999784,339.77500450005755,r,1.0,0.9812201000750064,,,,,,sub-165,1,stroop_test,60.041596827471245,
,,,,15.0,3.0,1.0,,,,,,,,,,,,,rot,red,r,1.0,r,1.0,0.7733431002125144,,,,,,,,,,1.0,3.0,15.0,0.0,339.78959739999846,,,,,,,,,,,,,,,,,339.775472600013,339.8895872000139,340.68952999985777,340.67754639987834,,,,,,,,,,,,,,,,,,,,,,,,,,,,,,,,,,,340.6812257999554,340.68952999985777,340.68952999985777,341.47336139995605,r,1.0,0.7733431002125144,,,,,,sub-165,1,stroop_test,60.041596827471245,
,,,,16.0,4.0,1.0,,,,,,,,,,,,,blau,yellow,g,0.0,g,1.0,1.0868646998424083,,,,,,,,,,1.0,4.0,16.0,7.0,341.48961459985003,,,,,,,,,,,,,,,,,341.47373909992166,341.57271800003946,342.3726343999151,342.3569775999058,,,,,,,,,,,,,,,,,,,,,,,,,,,,,,,,,,,342.3616853998974,342.3726343999151,342.3726343999151,343.4735085000284,g,1.0,1.0868646998424083,,,,,,sub-165,1,stroop_test,60.041596827471245,
,,,,17.0,5.0,1.0,,,,,,,,,,,,,gelb,yellow,g,1.0,g,1.0,0.6778835000004619,,,,,,,,,,1.0,5.0,17.0,11.0,343.4895885998849,,,,,,,,,,,,,,,,,343.47394170006737,343.82272040005773,344.62245759996586,344.6064750999212,,,,,,,,,,,,,,,,,,,,,,,,,,,,,,,,,,,344.6095433998853,344.62245759996586,344.62245759996586,345.3069189998787,g,1.0,0.6778835000004619,,,,,,sub-165,1,stroop_test,60.041596827471245,
,,,,18.0,6.0,1.0,,,,,,,,,,,,,blau,blue,b,1.0,b,1.0,0.7207416000310332,,,,,,,,,,1.0,6.0,18.0,5.0,345.3225084999576,,,,,,,,,,,,,,,,,345.3073619999923,346.50625139987096,347.3064029000234,347.29008169984445,,,,,,,,,,,,,,,,,,,,,,,,,,,,,,,,,,,347.2941556000151,347.3064029000234,347.3064029000234,348.0414670999162,b,1.0,0.7207416000310332,,,,,,sub-165,1,stroop_test,60.041596827471245,
,,,,19.0,7.0,1.0,,,,,,,,,,,,,rot,blue,b,0.0,b,1.0,0.8702209000475705,,,,,,,,,,1.0,7.0,19.0,2.0,348.05610980000347,,,,,,,,,,,,,,,,,348.0419582000468,348.15595389995724,348.95623139990494,348.9402017998509,,,,,,,,,,,,,,,,,,,,,,,,,,,,,,,,,,,348.9444537998643,348.95623139990494,348.95623139990494,349.8401726000011,b,1.0,0.8702209000475705,,,,,,sub-165,1,stroop_test,60.041596827471245,
,,,,20.0,8.0,1.0,,,,,,,,,,,,,gelb,blue,b,0.0,b,1.0,0.845453699817881,,,,,,,,,,1.0,8.0,20.0,9.0,349.85610789991915,,,,,,,,,,,,,,,,,349.8406348999124,350.1891425999347,350.9890777000692,350.97358340001665,,,,,,,,,,,,,,,,,,,,,,,,,,,,,,,,,,,350.9777901999187,350.9890777000692,350.9890777000692,351.8398821998853,b,1.0,0.845453699817881,,,,,,sub-165,1,stroop_test,60.041596827471245,
,,,,21.0,9.0,1.0,,,,,,,,,,,,,gelb,yellow,g,1.0,g,1.0,1.14758069999516,,,,,,,,,,1.0,9.0,21.0,10.0,351.85619149985723,,,,,,,,,,,,,,,,,351.8402195998933,352.1895558000542,352.98920189985074,352.97353630000725,,,,,,,,,,,,,,,,,,,,,,,,,,,,,,,,,,,352.97417100006714,352.98920189985074,352.98920189985074,354.14082299987786,g,1.0,1.14758069999516,,,,,,sub-165,1,stroop_test,60.041596827471245,
,,,,22.0,10.0,1.0,,,,,,,,,,,,,gelb,red,r,0.0,r,1.0,0.9006827999837697,,,,,,,,,,1.0,10.0,22.0,8.0,354.1561865999829,,,,,,,,,,,,,,,,,354.14114149985835,354.256017500069,355.05578950000927,355.0411918000318,,,,,,,,,,,,,,,,,,,,,,,,,,,,,,,,,,,355.04169149999507,355.05578950000927,355.05578950000927,355.9703538999893,r,1.0,0.9006827999837697,,,,,,sub-165,1,stroop_test,60.041596827471245,
,,,,23.0,11.0,1.0,,,,,,,,,,,,,blau,blue,b,1.0,b,1.0,1.0484758000820875,,,,,,,,,,1.0,11.0,23.0,6.0,355.9749594000168,,,,,,,,,,,,,,,,,355.9715609999839,356.77308519999497,357.57308229990304,357.5570171000436,,,,,,,,,,,,,,,,,,,,,,,,,,,,,,,,,,,357.5618626999203,357.57308229990304,357.57308229990304,358.62506820005365,b,1.0,1.0484758000820875,,,,,,sub-165,1,stroop_test,60.041596827471245,
,,,,24.0,0.0,2.0,,,,,,,,,,,,,rot,blue,b,0.0,b,1.0,0.7137619000859559,,,,,,,,,,2.0,0.0,24.0,2.0,358.6392951000016,,,,,,,,,,,,,,,,,358.62555460003205,359.4229439999908,360.2228051000275,360.20728589990176,,,,,,,,,,,,,,,,,,,,,,,,,,,,,,,,,,,360.2113369998988,360.2228051000275,360.2228051000275,360.9415829000063,b,1.0,0.7137619000859559,,,,,,sub-165,1,stroop_test,60.041596827471245,
,,,,25.0,1.0,2.0,,,,,,,,,,,,,blau,blue,b,1.0,b,1.0,0.670766299823299,,,,,,,,,,2.0,1.0,25.0,6.0,360.9559412999079,,,,,,,,,,,,,,,,,360.9420369998552,361.0559880998917,361.8557928998489,361.8402213000227,,,,,,,,,,,,,,,,,,,,,,,,,,,,,,,,,,,361.8448415000457,361.8557928998489,361.8557928998489,362.5289350000676,b,1.0,0.670766299823299,,,,,,sub-165,1,stroop_test,60.041596827471245,
,,,,26.0,2.0,2.0,,,,,,,,,,,,,blau,red,r,0.0,r,1.0,1.2788348000030965,,,,,,,,,,2.0,2.0,26.0,4.0,362.5331441999879,,,,,,,,,,,,,,,,,362.529469500063,362.6394821999129,363.4396305999253,363.42293770005926,,,,,,,,,,,,,,,,,,,,,,,,,,,,,,,,,,,363.4234291999601,363.4396305999253,363.4396305999253,364.7244637999684,r,1.0,1.2788348000030965,,,,,,sub-165,1,stroop_test,60.041596827471245,
,,,,27.0,3.0,2.0,,,,,,,,,,,,,gelb,yellow,g,1.0,g,1.0,1.034428499871865,,,,,,,,,,2.0,3.0,27.0,11.0,364.7392050998751,,,,,,,,,,,,,,,,,364.7249630000442,365.52328099985607,366.3226431000512,366.3070924999192,,,,,,,,,,,,,,,,,,,,,,,,,,,,,,,,,,,366.3103098999709,366.3226431000512,366.3226431000512,367.3593710998539,g,1.0,1.034428499871865,,,,,,sub-165,1,stroop_test,60.041596827471245,
,,,,28.0,4.0,2.0,,,,,,,,,,,,,rot,yellow,g,0.0,g,1.0,1.0095790999475869,,,,,,,,,,2.0,4.0,28.0,3.0,367.3730381999631,,,,,,,,,,,,,,,,,367.35982070001774,368.1723835999146,368.9727445000317,368.9568590000272,,,,,,,,,,,,,,,,,,,,,,,,,,,,,,,,,,,368.9607216999866,368.9727445000317,368.9727445000317,369.9903404999058,g,1.0,1.0095790999475869,,,,,,sub-165,1,stroop_test,60.041596827471245,
,,,,29.0,5.0,2.0,,,,,,,,,,,,,rot,red,r,1.0,r,1.0,0.7862690000329167,,,,,,,,,,2.0,5.0,29.0,0.0,370.0062022998464,,,,,,,,,,,,,,,,,369.9906947000418,371.2060105998535,372.0060777000617,371.9901198998559,,,,,,,,,,,,,,,,,,,,,,,,,,,,,,,,,,,371.9906953000464,372.0060777000617,372.0060777000617,372.8072498999536,r,1.0,0.7862690000329167,,,,,,sub-165,1,stroop_test,60.041596827471245,
,,,,30.0,6.0,2.0,,,,,,,,,,,,,gelb,red,r,0.0,r,1.0,0.8106480999849737,,,,,,,,,,2.0,6.0,30.0,8.0,372.82275469996966,,,,,,,,,,,,,,,,,372.8076468000654,373.1727018998936,373.9726706999354,373.9571448999923,,,,,,,,,,,,,,,,,,,,,,,,,,,,,,,,,,,373.9614613999147,373.9726706999354,373.9726706999354,374.7931492999196,r,1.0,0.8106480999849737,,,,,,sub-165,1,stroop_test,60.041596827471245,
,,,,31.0,7.0,2.0,,,,,,,,,,,,,gelb,yellow,g,1.0,g,1.0,0.9053579999599606,,,,,,,,,,2.0,7.0,31.0,10.0,374.8058466999792,,,,,,,,,,,,,,,,,374.7935293000192,375.60598209989257,376.4061628000345,376.39701620000415,,,,,,,,,,,,,,,,,,,,,,,,,,,,,,,,,,,376.3975758999586,376.4061628000345,376.4061628000345,377.3235156999435,g,1.0,0.9053579999599606,,,,,,sub-165,1,stroop_test,60.041596827471245,
,,,,32.0,8.0,2.0,,,,,,,,,,,,,blau,blue,b,1.0,b,1.0,0.7657282000873238,,,,,,,,,,2.0,8.0,32.0,5.0,377.3392878999002,,,,,,,,,,,,,,,,,377.3239581999369,378.1227762000635,378.92285669990815,378.9064980999101,,,,,,,,,,,,,,,,,,,,,,,,,,,,,,,,,,,378.91054959991015,378.92285669990815,378.92285669990815,379.692048799945,b,1.0,0.7657282000873238,,,,,,sub-165,1,stroop_test,60.041596827471245,
,,,,33.0,9.0,2.0,,,,,,,,,,,,,rot,red,r,1.0,r,1.0,1.111566700041294,,,,,,,,,,2.0,9.0,33.0,1.0,379.7057674999815,,,,,,,,,,,,,,,,,379.692546499893,380.056081000017,380.8561124000698,380.8398370998912,,,,,,,,,,,,,,,,,,,,,,,,,,,,,,,,,,,380.8426975999028,380.8561124000698,380.8561124000698,381.97432229993865,r,1.0,1.111566700041294,,,,,,sub-165,1,stroop_test,60.041596827471245,
,,,,34.0,10.0,2.0,,,,,,,,,,,,,gelb,blue,b,0.0,b,1.0,1.0746832999866456,,,,,,,,,,2.0,10.0,34.0,9.0,381.9898425999563,,,,,,,,,,,,,,,,,381.9747901998926,382.7893081000075,383.5896213999949,383.57318289997056,,,,,,,,,,,,,,,,,,,,,,,,,,,,,,,,,,,383.57776189991273,383.5896213999949,383.5896213999949,384.6738181998953,b,1.0,1.0746832999866456,,,,,,sub-165,1,stroop_test,60.041596827471245,
,,,,35.0,11.0,2.0,,,,,,,,,,,,,blau,yellow,g,0.0,g,1.0,0.8622167001012713,,,,,,,,,,2.0,11.0,35.0,7.0,384.6893273999449,,,,,,,,,,,,,,,,,384.6743042999879,385.4729394998867,386.2727008999791,386.2563874998596,,,,,,,,,,,,,,,,,,,,,,,,,,,,,,,,,,,386.2589004000183,386.2727008999791,386.2727008999791,387.141296699876,g,1.0,0.8622167001012713,,,,,,sub-165,1,stroop_test,60.041596827471245,
,,,,36.0,0.0,3.0,,,,,,,,,,,,,gelb,yellow,g,1.0,g,1.0,1.0634518000297248,,,,,,,,,,3.0,0.0,36.0,11.0,387.1561847999692,,,,,,,,,,,,,,,,,387.1416855000425,388.3558107998688,389.1562357000075,389.1404307000339,,,,,,,,,,,,,,,,,,,,,,,,,,,,,,,,,,,389.1450986000709,389.1562357000075,389.1562357000075,390.22497299988754,g,1.0,1.0634518000297248,,,,,,sub-165,1,stroop_test,60.041596827471245,
,,,,37.0,1.0,3.0,,,,,,,,,,,,,gelb,yellow,g,1.0,g,1.0,0.8991805999539793,,,,,,,,,,3.0,1.0,37.0,10.0,390.2391832000576,,,,,,,,,,,,,,,,,390.22553239995614,391.0392829000484,391.8393893998582,391.82323829992674,,,,,,,,,,,,,,,,,,,,,,,,,,,,,,,,,,,391.82389179989696,391.8393893998582,391.8393893998582,392.74234570004046,g,1.0,0.8991805999539793,,,,,,sub-165,1,stroop_test,60.041596827471245,
,,,,38.0,2.0,3.0,,,,,,,,,,,,,gelb,red,r,0.0,r,1.0,1.0999014999251813,,,,,,,,,,3.0,2.0,38.0,8.0,392.756101799896,,,,,,,,,,,,,,,,,392.7428126998712,392.85568639985286,393.6564843999222,393.6402435998898,,,,,,,,,,,,,,,,,,,,,,,,,,,,,,,,,,,393.6410421000328,393.6564843999222,393.6564843999222,394.7592758999672,r,1.0,1.0999014999251813,,,,,,sub-165,1,stroop_test,60.041596827471245,
,,,,39.0,3.0,3.0,,,,,,,,,,,,,blau,blue,b,1.0,b,1.0,0.6772103998810053,,,,,,,,,,3.0,3.0,39.0,5.0,394.7728148000315,,,,,,,,,,,,,,,,,394.7599386998918,394.8726182000246,395.6731529999525,395.66026289993897,,,,,,,,,,,,,,,,,,,,,,,,,,,,,,,,,,,395.6651057000272,395.6731529999525,395.6731529999525,396.3574906999711,b,1.0,0.6772103998810053,,,,,,sub-165,1,stroop_test,60.041596827471245,
,,,,40.0,4.0,3.0,,,,,,,,,,,,,rot,red,r,1.0,r,1.0,1.1609805999323726,,,,,,,,,,3.0,4.0,40.0,1.0,396.3730394998565,,,,,,,,,,,,,,,,,396.357946400065,396.4726279000752,397.2725541000255,397.256664799992,,,,,,,,,,,,,,,,,,,,,,,,,,,,,,,,,,,397.26113600004464,397.2725541000255,397.2725541000255,398.4405636000447,r,1.0,1.1609805999323726,,,,,,sub-165,1,stroop_test,60.041596827471245,
,,,,41.0,5.0,3.0,,,,,,,,,,,,,rot,red,r,1.0,r,1.0,0.6582651000935584,,,,,,,,,,3.0,5.0,41.0,0.0,398.4557983998675,,,,,,,,,,,,,,,,,398.4409000000451,398.80620789993554,399.6061978000216,399.5906004998833,,,,,,,,,,,,,,,,,,,,,,,,,,,,,,,,,,,399.5912585000042,399.6061978000216,399.6061978000216,400.2748666000553,r,1.0,0.6582651000935584,,,,,,sub-165,1,stroop_test,60.041596827471245,
,,,,42.0,6.0,3.0,,,,,,,,,,,,,blau,red,r,0.0,r,1.0,1.2537308000028131,,,,,,,,,,3.0,6.0,42.0,4.0,400.2893057998736,,,,,,,,,,,,,,,,,400.2754591000266,401.0891771998722,401.88932599988766,401.8733089000452,,,,,,,,,,,,,,,,,,,,,,,,,,,,,,,,,,,401.8770077000372,401.88932599988766,401.88932599988766,403.1566085999366,r,1.0,1.2537308000028131,,,,,,sub-165,1,stroop_test,60.041596827471245,
,,,,43.0,7.0,3.0,,,,,,,,,,,,,rot,yellow,g,0.0,g,1.0,1.113432299811393,,,,,,,,,,3.0,7.0,43.0,3.0,403.1724836998619,,,,,,,,,,,,,,,,,403.15693699987605,403.2558972998522,404.056470700074,404.0399809998926,,,,,,,,,,,,,,,,,,,,,,,,,,,,,,,,,,,404.044195999857,404.056470700074,404.056470700074,405.1748353999574,g,1.0,1.113432299811393,,,,,,sub-165,1,stroop_test,60.041596827471245,
,,,,44.0,8.0,3.0,,,,,,,,,,,,,gelb,blue,b,0.0,b,1.0,0.7426363001577556,,,,,,,,,,3.0,8.0,44.0,9.0,405.18977020005696,,,,,,,,,,,,,,,,,405.1753664999269,406.3897340998519,407.1891286999453,407.1735644999426,,,,,,,,,,,,,,,,,,,,,,,,,,,,,,,,,,,407.1780361998826,407.1891286999453,407.1891286999453,407.9348784000613,b,1.0,0.7426363001577556,,,,,,sub-165,1,stroop_test,60.041596827471245,
,,,,45.0,9.0,3.0,,,,,,,,,,,,,blau,blue,b,1.0,b,1.0,0.7418309000786394,,,,,,,,,,3.0,9.0,45.0,6.0,407.9395332999993,,,,,,,,,,,,,,,,,407.93529749987647,408.7393898998853,409.5391607000493,409.5236187998671,,,,,,,,,,,,,,,,,,,,,,,,,,,,,,,,,,,409.5277590998448,409.5391607000493,409.5391607000493,410.2909744998906,b,1.0,0.7418309000786394,,,,,,sub-165,1,stroop_test,60.041596827471245,
,,,,46.0,10.0,3.0,,,,,,,,,,,,,blau,yellow,g,0.0,g,1.0,1.030817599967122,,,,,,,,,,3.0,10.0,46.0,7.0,410.30567929986864,,,,,,,,,,,,,,,,,410.2914326998871,411.5059835999273,412.3061861000024,412.2898144999053,,,,,,,,,,,,,,,,,,,,,,,,,,,,,,,,,,,412.290236099856,412.3061861000024,412.3061861000024,413.3461084999144,g,1.0,1.030817599967122,,,,,,sub-165,1,stroop_test,60.041596827471245,
,,,,47.0,11.0,3.0,,,,,,,,,,,,,rot,blue,b,0.0,b,1.0,2.128154899924993,,,,,,,,,,3.0,11.0,47.0,2.0,413.34958050004207,,,,,,,,,,,,,,,,,413.3465577999596,414.5633582998999,415.3731605999637,415.3578522000462,,,,,,,,,,,,,,,,,,,,,,,,,,,,,,,,,,,415.3621693998575,415.3731605999637,415.3731605999637,417.5071717000101,b,1.0,2.128154899924993,,,,,,sub-165,1,stroop_test,60.041596827471245,
,,,,48.0,0.0,4.0,,,,,,,,,,,,,gelb,blue,b,0.0,b,1.0,0.8184360000304878,,,,,,,,,,4.0,0.0,48.0,9.0,417.5226765000261,,,,,,,,,,,,,,,,,417.5075646999758,418.30608129990287,419.1061535999179,419.0906698999461,,,,,,,,,,,,,,,,,,,,,,,,,,,,,,,,,,,419.0965935999993,419.1061535999179,419.1061535999179,419.94080089987256,b,1.0,0.8184360000304878,,,,,,sub-165,1,stroop_test,60.041596827471245,
,,,,49.0,1.0,4.0,,,,,,,,,,,,,rot,red,r,1.0,r,1.0,1.6068166999612004,,,,,,,,,,4.0,1.0,49.0,1.0,419.95597000001,,,,,,,,,,,,,,,,,419.9412266998552,420.0559952999465,420.855705199996,420.8404369999189,,,,,,,,,,,,,,,,,,,,,,,,,,,,,,,,,,,420.8443459998816,420.855705199996,420.855705199996,422.47467519994825,r,1.0,1.6068166999612004,,,,,,sub-165,1,stroop_test,60.041596827471245,
,,,,50.0,2.0,4.0,,,,,,,,,,,,,blau,red,r,0.0,r,1.0,0.909138899995014,,,,,,,,,,4.0,2.0,50.0,4.0,422.4893026999198,,,,,,,,,,,,,,,,,422.47522630007006,422.8393637998961,423.6393045999576,423.6242430000566,,,,,,,,,,,,,,,,,,,,,,,,,,,,,,,,,,,423.6298775000032,423.6393045999576,423.6393045999576,424.5573714999482,r,1.0,0.909138899995014,,,,,,sub-165,1,stroop_test,60.041596827471245,
,,,,51.0,3.0,4.0,,,,,,,,,,,,,blau,blue,b,1.0,b,1.0,0.599439499899745,,,,,,,,,,4.0,3.0,51.0,6.0,424.5728078000248,,,,,,,,,,,,,,,,,424.5578647998627,425.3723687999882,426.17288569989614,426.1570522000548,,,,,,,,,,,,,,,,,,,,,,,,,,,,,,,,,,,426.1575650998857,426.17288569989614,426.17288569989614,426.7762265999336,b,1.0,0.599439499899745,,,,,,sub-165,1,stroop_test,60.041596827471245,
,,,,52.0,4.0,4.0,,,,,,,,,,,,,rot,red,r,1.0,r,1.0,1.3026762001682073,,,,,,,,,,4.0,4.0,52.0,0.0,426.7893773000688,,,,,,,,,,,,,,,,,426.7767018999439,426.8894710999448,427.6892690998502,427.6737194999587,,,,,,,,,,,,,,,,,,,,,,,,,,,,,,,,,,,427.6771905999631,427.6892690998502,427.6892690998502,429.0077581999358,r,1.0,1.3026762001682073,,,,,,sub-165,1,stroop_test,60.041596827471245,
,,,,53.0,5.0,4.0,,,,,,,,,,,,,rot,blue,b,0.0,b,1.0,2.2289027001243085,,,,,,,,,,4.0,5.0,53.0,2.0,429.0226203999482,,,,,,,,,,,,,,,,,429.00821339990944,429.37264620000497,430.17315070005134,430.1568107998464,,,,,,,,,,,,,,,,,,,,,,,,,,,,,,,,,,,430.15747929993086,430.17315070005134,430.17315070005134,432.40686700004153,b,1.0,2.2289027001243085,,,,,,sub-165,1,stroop_test,60.041596827471245,
,,,,54.0,6.0,4.0,,,,,,,,,,,,,blau,blue,b,1.0,b,1.0,1.463589700171724,,,,,,,,,,4.0,6.0,54.0,5.0,432.42299150000326,,,,,,,,,,,,,,,,,432.40721390000544,432.5061657000333,433.3060818999074,433.2904856000096,,,,,,,,,,,,,,,,,,,,,,,,,,,,,,,,,,,433.2944678999484,433.3060818999074,433.3060818999074,434.7739124998916,b,1.0,1.463589700171724,,,,,,sub-165,1,stroop_test,60.041596827471245,
,,,,55.0,7.0,4.0,,,,,,,,,,,,,rot,yellow,g,0.0,g,1.0,1.1014308000449091,,,,,,,,,,4.0,7.0,55.0,3.0,434.7893731999211,,,,,,,,,,,,,,,,,434.7743319000583,435.58959840005264,436.3896915998776,436.3733419000637,,,,,,,,,,,,,,,,,,,,,,,,,,,,,,,,,,,436.3778899000026,436.3896915998776,436.3896915998776,437.5075540998951,g,1.0,1.1014308000449091,,,,,,sub-165,1,stroop_test,60.041596827471245,
,,,,56.0,8.0,4.0,,,,,,,,,,,,,gelb,yellow,g,1.0,g,1.0,0.9142378999385984,,,,,,,,,,4.0,8.0,56.0,10.0,437.52259339997545,,,,,,,,,,,,,,,,,437.5079705000389,438.72283119987696,439.5358932998497,439.5072144998703,,,,,,,,,,,,,,,,,,,,,,,,,,,,,,,,,,,439.5116969998926,439.5358932998497,439.5358932998497,440.4586187000386,g,1.0,0.9142378999385984,,,,,,sub-165,1,stroop_test,60.041596827471245,
,,,,57.0,9.0,4.0,,,,,,,,,,,,,gelb,yellow,g,1.0,g,1.0,2.347661899868399,,,,,,,,,,4.0,9.0,57.0,11.0,440.4729047999717,,,,,,,,,,,,,,,,,440.45920749986544,441.2724029000383,442.0730755999684,442.0567157999613,,,,,,,,,,,,,,,,,,,,,,,,,,,,,,,,,,,442.057320300024,442.0730755999684,442.0730755999684,444.42415870004334,g,1.0,2.347661899868399,,,,,,sub-165,1,stroop_test,60.041596827471245,
,,,,58.0,10.0,4.0,,,,,,,,,,,,,gelb,red,r,0.0,r,1.0,2.03804469993338,,,,,,,,,,4.0,10.0,58.0,8.0,444.4393030998762,,,,,,,,,,,,,,,,,444.424619599944,444.7897309998516,445.58935689996,445.576285299845,,,,,,,,,,,,,,,,,,,,,,,,,,,,,,,,,,,445.5768980998546,445.58935689996,445.58935689996,447.6409388999455,r,1.0,2.03804469993338,,,,,,sub-165,1,stroop_test,60.041596827471245,
,,,,59.0,11.0,4.0,,,,,,,,,,,,,blau,yellow,g,0.0,g,1.0,2.067875200184062,,,,,,,,,,4.0,11.0,59.0,7.0,447.6560959999915,,,,,,,,,,,,,,,,,447.6414254999254,447.7560079998802,448.55640270002186,448.540248000063,,,,,,,,,,,,,,,,,,,,,,,,,,,,,,,,,,,448.5441610999405,448.55640270002186,448.55640270002186,450.6402191999368,g,1.0,2.067875200184062,,,,,,sub-165,1,stroop_test,60.041596827471245,
,,,,60.0,0.0,5.0,,,,,,,,,,,,,blau,red,r,0.0,r,1.0,2.788448499981314,,,,,,,,,,5.0,0.0,60.0,4.0,450.6558540998958,,,,,,,,,,,,,,,,,450.6406864000018,450.73946239985526,451.5395752000623,451.5237358999439,,,,,,,,,,,,,,,,,,,,,,,,,,,,,,,,,,,451.5243840999901,451.5395752000623,451.5395752000623,454.3405687999912,r,1.0,2.788448499981314,,,,,,sub-165,1,stroop_test,60.041596827471245,
,,,,61.0,1.0,5.0,,,,,,,,,,,,,gelb,red,r,0.0,r,1.0,0.7294613998383284,,,,,,,,,,5.0,1.0,61.0,8.0,454.3559965000022,,,,,,,,,,,,,,,,,454.3410749998875,454.4562748000026,455.2561450998765,455.2401437999215,,,,,,,,,,,,,,,,,,,,,,,,,,,,,,,,,,,455.2436498999596,455.2561450998765,455.2561450998765,455.990744400071,r,1.0,0.7294613998383284,,,,,,sub-165,1,stroop_test,60.041596827471245,
,,,,62.0,2.0,5.0,,,,,,,,,,,,,rot,blue,b,0.0,b,1.0,1.758750299923122,,,,,,,,,,5.0,2.0,62.0,2.0,456.00587039999664,,,,,,,,,,,,,,,,,455.99114719987847,456.0897005000152,456.8892171999905,456.8739726999775,,,,,,,,,,,,,,,,,,,,,,,,,,,,,,,,,,,456.8781625998672,456.8892171999905,456.8892171999905,458.6572002999019,b,1.0,1.758750299923122,,,,,,sub-165,1,stroop_test,60.041596827471245,
,,,,63.0,3.0,5.0,,,,,,,,,,,,,blau,blue,b,1.0,b,1.0,0.8906829999759793,,,,,,,,,,5.0,3.0,63.0,5.0,458.6725917998701,,,,,,,,,,,,,,,,,458.6576809999533,458.7728120998945,459.5728829000145,459.5569920998532,,,,,,,,,,,,,,,,,,,,,,,,,,,,,,,,,,,459.5625116999727,459.5728829000145,459.5728829000145,460.4746884999331,b,1.0,0.8906829999759793,,,,,,sub-165,1,stroop_test,60.041596827471245,
,,,,64.0,4.0,5.0,,,,,,,,,,,,,blau,yellow,g,0.0,g,1.0,0.8506807000376284,,,,,,,,,,5.0,4.0,64.0,7.0,460.4895158999134,,,,,,,,,,,,,,,,,460.4751374998596,461.6907547998708,462.5063004998956,462.4904032999184,,,,,,,,,,,,,,,,,,,,,,,,,,,,,,,,,,,462.4909292999655,462.5063004998956,462.5063004998956,463.373781299917,g,1.0,0.8506807000376284,,,,,,sub-165,1,stroop_test,60.041596827471245,
,,,,65.0,5.0,5.0,,,,,,,,,,,,,blau,blue,b,1.0,b,1.0,1.0930106998421252,,,,,,,,,,5.0,5.0,65.0,6.0,463.3894148999825,,,,,,,,,,,,,,,,,463.37427819985896,464.18927029985934,464.98947559995577,464.9736782999244,,,,,,,,,,,,,,,,,,,,,,,,,,,,,,,,,,,464.97425259999,464.98947559995577,464.98947559995577,466.09113229997456,b,1.0,1.0930106998421252,,,,,,sub-165,1,stroop_test,60.041596827471245,
,,,,66.0,6.0,5.0,,,,,,,,,,,,,rot,red,r,1.0,r,1.0,0.6260985999833792,,,,,,,,,,5.0,6.0,66.0,1.0,466.1062022000551,,,,,,,,,,,,,,,,,466.0916897999123,467.3060884999577,468.1061980000232,468.0897943000309,,,,,,,,,,,,,,,,,,,,,,,,,,,,,,,,,,,468.0934768000152,468.1061980000232,468.1061980000232,468.7406293998938,r,1.0,0.6260985999833792,,,,,,sub-165,1,stroop_test,60.041596827471245,
,,,,67.0,7.0,5.0,,,,,,,,,,,,,gelb,yellow,g,1.0,g,1.0,1.5116202998906374,,,,,,,,,,5.0,7.0,67.0,10.0,468.7558738999069,,,,,,,,,,,,,,,,,468.741019600071,469.10651379986666,469.906071400037,469.89115729997866,,,,,,,,,,,,,,,,,,,,,,,,,,,,,,,,,,,469.8964469998609,469.906071400037,469.906071400037,471.4241090000141,g,1.0,1.5116202998906374,,,,,,sub-165,1,stroop_test,60.041596827471245,
,,,,68.0,8.0,5.0,,,,,,,,,,,,,gelb,blue,b,0.0,b,1.0,1.4128392999991777,,,,,,,,,,5.0,8.0,68.0,9.0,471.4396301999223,,,,,,,,,,,,,,,,,471.42450169986114,471.7894725999795,472.5891265999526,472.5736153000034,,,,,,,,,,,,,,,,,,,,,,,,,,,,,,,,,,,472.5740133000072,472.5891265999526,472.5891265999526,474.0075745000504,b,1.0,1.4128392999991777,,,,,,sub-165,1,stroop_test,60.041596827471245,
,,,,69.0,9.0,5.0,,,,,,,,,,,,,rot,yellow,g,0.0,g,1.0,1.4958418000023812,,,,,,,,,,5.0,9.0,69.0,3.0,474.0227210999001,,,,,,,,,,,,,,,,,474.0080359999556,474.8231100998819,475.6299737000372,475.606897499878,,,,,,,,,,,,,,,,,,,,,,,,,,,,,,,,,,,475.611737200059,475.6299737000372,475.6299737000372,477.1405728000682,g,1.0,1.4958418000023812,,,,,,sub-165,1,stroop_test,60.041596827471245,
,,,,70.0,10.0,5.0,,,,,,,,,,,,,rot,red,r,1.0,r,1.0,0.7751420999411494,,,,,,,,,,5.0,10.0,70.0,0.0,477.155909499852,,,,,,,,,,,,,,,,,477.1410358999856,477.2562911999412,478.0559183000587,478.0406346998643,,,,,,,,,,,,,,,,,,,,,,,,,,,,,,,,,,,478.04133609985,478.0559183000587,478.0559183000587,478.8416178000625,r,1.0,0.7751420999411494,,,,,,sub-165,1,stroop_test,60.041596827471245,
,,,,71.0,11.0,5.0,,,,,,,,,,,,,gelb,yellow,g,1.0,g,1.0,0.9337787998374552,,,,,,,,,,5.0,11.0,71.0,11.0,478.8565662000328,,,,,,,,,,,,,,,,,478.84201789996587,478.9563500999938,479.75664060004056,479.74039689986967,,,,,,,,,,,,,,,,,,,,,,,,,,,,,,,,,,,479.7462281999178,479.75664060004056,479.75664060004056,480.7083651998546,g,1.0,0.9337787998374552,,,,,,sub-165,1,stroop_test,60.041596827471245,
,,,,72.0,0.0,6.0,,,,,,,,,,,,,blau,blue,b,1.0,b,1.0,1.6110489000566304,,,,,,,,,,6.0,0.0,72.0,5.0,480.7228277998511,,,,,,,,,,,,,,,,,480.709125699941,481.9225775999949,482.7226682000328,482.7069758998696,,,,,,,,,,,,,,,,,,,,,,,,,,,,,,,,,,,482.7111579999328,482.7226682000328,482.7226682000328,484.3408838000614,b,1.0,1.6110489000566304,,,,,,sub-165,1,stroop_test,60.041596827471245,
,,,,73.0,1.0,6.0,,,,,,,,,,,,,blau,blue,b,1.0,b,1.0,0.5054947999306023,,,,,,,,,,6.0,1.0,73.0,6.0,484.35598400002345,,,,,,,,,,,,,,,,,484.3413790999912,485.1557275999803,485.9557749999221,485.9400859000161,,,,,,,,,,,,,,,,,,,,,,,,,,,,,,,,,,,485.9407688998617,485.9557749999221,485.9557749999221,486.4916546999011,b,1.0,0.5054947999306023,,,,,,sub-165,1,stroop_test,60.041596827471245,
,,,,74.0,2.0,6.0,,,,,,,,,,,,,rot,yellow,g,0.0,g,1.0,1.689772699959576,,,,,,,,,,6.0,2.0,74.0,3.0,486.4959145998582,,,,,,,,,,,,,,,,,486.4921871998813,487.7060358999297,488.506046500057,488.4899448999204,,,,,,,,,,,,,,,,,,,,,,,,,,,,,,,,,,,488.4941565999761,488.506046500057,488.506046500057,490.2078108999413,g,1.0,1.689772699959576,,,,,,sub-165,1,stroop_test,60.041596827471245,
,,,,75.0,3.0,6.0,,,,,,,,,,,,,blau,red,r,0.0,r,1.0,1.2246787999756634,,,,,,,,,,6.0,3.0,75.0,4.0,490.2227862,,,,,,,,,,,,,,,,,490.20825559995137,490.5727943999227,491.37308320007287,491.3569191999268,,,,,,,,,,,,,,,,,,,,,,,,,,,,,,,,,,,491.3609525000211,491.37308320007287,491.37308320007287,492.60740539990366,r,1.0,1.2246787999756634,,,,,,sub-165,1,stroop_test,60.041596827471245,
,,,,76.0,4.0,6.0,,,,,,,,,,,,,gelb,yellow,g,1.0,g,1.0,2.778815899975598,,,,,,,,,,6.0,4.0,76.0,10.0,492.622906900011,,,,,,,,,,,,,,,,,492.6078329000157,493.4063810000662,494.2059748000465,494.1898825999815,,,,,,,,,,,,,,,,,,,,,,,,,,,,,,,,,,,494.19336879998446,494.2059748000465,494.2059748000465,496.9905465999618,g,1.0,2.778815899975598,,,,,,sub-165,1,stroop_test,60.041596827471245,
,,,,77.0,5.0,6.0,,,,,,,,,,,,,rot,red,r,1.0,r,1.0,0.8729152998421341,,,,,,,,,,6.0,5.0,77.0,0.0,497.0060709998943,,,,,,,,,,,,,,,,,496.9909632999916,497.3560702998657,498.1560547999106,498.1403590999544,,,,,,,,,,,,,,,,,,,,,,,,,,,,,,,,,,,498.1441094998736,498.1560547999106,498.1560547999106,499.0318726999685,r,1.0,0.8729152998421341,,,,,,sub-165,1,stroop_test,60.041596827471245,
,,,,78.0,6.0,6.0,,,,,,,,,,,,,rot,blue,b,0.0,b,1.0,0.9358751999679952,,,,,,,,,,6.0,6.0,78.0,2.0,499.0398150000256,,,,,,,,,,,,,,,,,499.0324289998971,499.83961949986406,500.63968409993686,500.62335999985225,,,,,,,,,,,,,,,,,,,,,,,,,,,,,,,,,,,500.62387999985367,500.63968409993686,500.63968409993686,501.5904162998777,b,1.0,0.9358751999679952,,,,,,sub-165,1,stroop_test,60.041596827471245,
,,,,79.0,7.0,6.0,,,,,,,,,,,,,gelb,red,r,0.0,r,1.0,1.147728800075129,,,,,,,,,,6.0,7.0,79.0,8.0,501.6059149999637,,,,,,,,,,,,,,,,,501.5908478999045,502.4064007999841,503.2062573998701,503.1901237000711,,,,,,,,,,,,,,,,,,,,,,,,,,,,,,,,,,,503.1945742999669,503.2062573998701,503.2062573998701,504.3584859999828,r,1.0,1.147728800075129,,,,,,sub-165,1,stroop_test,60.041596827471245,
,,,,80.0,8.0,6.0,,,,,,,,,,,,,rot,red,r,1.0,r,1.0,0.6727554998360574,,,,,,,,,,6.0,8.0,80.0,1.0,504.3727366998792,,,,,,,,,,,,,,,,,504.35898240003735,504.4730873999652,505.2729827999137,505.2571103000082,,,,,,,,,,,,,,,,,,,,,,,,,,,,,,,,,,,505.2688217000105,505.2729827999137,505.2729827999137,505.9573288999964,r,1.0,0.6727554998360574,,,,,,sub-165,1,stroop_test,60.041596827471245,
,,,,81.0,9.0,6.0,,,,,,,,,,,,,gelb,blue,b,0.0,b,1.0,1.4876645000185815,,,,,,,,,,6.0,9.0,81.0,9.0,505.9728796000127,,,,,,,,,,,,,,,,,505.9577790000476,507.172451299848,507.9730622000061,507.9567267999519,,,,,,,,,,,,,,,,,,,,,,,,,,,,,,,,,,,507.9608891999815,507.9730622000061,507.9730622000061,509.4744821998757,b,1.0,1.4876645000185815,,,,,,sub-165,1,stroop_test,60.041596827471245,
,,,,82.0,10.0,6.0,,,,,,,,,,,,,gelb,yellow,g,1.0,g,1.0,3.3272148000542074,,,,,,,,,,6.0,10.0,82.0,11.0,509.489760800032,,,,,,,,,,,,,,,,,509.4750591998454,510.68927239999175,511.4897391998675,511.4733245000243,,,,,,,,,,,,,,,,,,,,,,,,,,,,,,,,,,,511.4738284000196,511.4897391998675,511.4897391998675,514.8248002000619,g,1.0,3.3272148000542074,,,,,,sub-165,1,stroop_test,60.041596827471245,
,,,,83.0,11.0,6.0,,,,,,,,,,,,,blau,yellow,g,0.0,b,0.0,0.809694099938497,,,,,,,,,,6.0,11.0,83.0,7.0,514.839390899986,,,,,,,,,,,,,,,,,514.8254616998602,516.0401506999042,516.8395350000355,516.8242921000347,,,,,,,,,,,,,,,,,,,,,,,,,,,,,,,,,,,516.828795199981,516.8395350000355,516.8395350000355,517.6569564999081,b,0.0,0.809694099938497,,,,,,sub-165,1,stroop_test,60.041596827471245,
,,,,84.0,0.0,7.0,,,,,,,,,,,,,gelb,blue,b,0.0,b,1.0,1.4002523000817746,,,,,,,,,,7.0,0.0,84.0,9.0,517.6725285998546,,,,,,,,,,,,,,,,,517.6573874999303,518.0061901998706,518.8116589998826,518.7900825999677,,,,,,,,,,,,,,,,,,,,,,,,,,,,,,,,,,,518.7944988999516,518.8116589998826,518.8116589998826,520.2250949000008,b,1.0,1.4002523000817746,,,,,,sub-165,1,stroop_test,60.041596827471245,
,,,,85.0,1.0,7.0,,,,,,,,,,,,,blau,blue,b,1.0,b,1.0,1.004230400081724,,,,,,,,,,7.0,1.0,85.0,5.0,520.2397568000015,,,,,,,,,,,,,,,,,520.2256159998942,521.0394114998635,521.8396192998625,521.8238208000548,,,,,,,,,,,,,,,,,,,,,,,,,,,,,,,,,,,521.8284658999182,521.8396192998625,521.8396192998625,522.8572086000349,b,1.0,1.004230400081724,,,,,,sub-165,1,stroop_test,60.041596827471245,
,,,,86.0,2.0,7.0,,,,,,,,,,,,,gelb,yellow,g,1.0,g,1.0,1.192809300031513,,,,,,,,,,7.0,2.0,86.0,11.0,522.8726907998789,,,,,,,,,,,,,,,,,522.8576752999797,523.2228385999333,524.0227188998833,524.0064786998555,,,,,,,,,,,,,,,,,,,,,,,,,,,,,,,,,,,524.0105109999422,524.0227188998833,524.0227188998833,525.2248247999232,g,1.0,1.192809300031513,,,,,,sub-165,1,stroop_test,60.041596827471245,
,,,,87.0,3.0,7.0,,,,,,,,,,,,,rot,red,r,1.0,r,1.0,1.1558046999853104,,,,,,,,,,7.0,3.0,87.0,1.0,525.2393054000568,,,,,,,,,,,,,,,,,525.225318599958,526.039545299951,526.839361899998,526.8232817999087,,,,,,,,,,,,,,,,,,,,,,,,,,,,,,,,,,,526.8269466999918,526.839361899998,526.839361899998,528.0067457000259,r,1.0,1.1558046999853104,,,,,,sub-165,1,stroop_test,60.041596827471245,
,,,,88.0,4.0,7.0,,,,,,,,,,,,,gelb,yellow,g,1.0,g,1.0,1.2569573998916894,,,,,,,,,,7.0,4.0,88.0,10.0,528.0226600999013,,,,,,,,,,,,,,,,,528.0071473999415,528.3562461999245,529.156313000014,529.1406359998509,,,,,,,,,,,,,,,,,,,,,,,,,,,,,,,,,,,529.1446642999072,529.156313000014,529.156313000014,530.4240699000657,g,1.0,1.2569573998916894,,,,,,sub-165,1,stroop_test,60.041596827471245,
,,,,89.0,5.0,7.0,,,,,,,,,,,,,blau,yellow,g,0.0,g,1.0,1.428774299798533,,,,,,,,,,7.0,5.0,89.0,7.0,530.4396074998658,,,,,,,,,,,,,,,,,530.4245483998675,530.5393121999223,531.3397534000687,531.3235901000444,,,,,,,,,,,,,,,,,,,,,,,,,,,,,,,,,,,531.3279702998698,531.3397534000687,531.3397534000687,532.77409359999,g,1.0,1.428774299798533,,,,,,sub-165,1,stroop_test,60.041596827471245,
,,,,90.0,6.0,7.0,,,,,,,,,,,,,blau,red,r,0.0,r,1.0,1.5769072999246418,,,,,,,,,,7.0,6.0,90.0,4.0,532.7899354998954,,,,,,,,,,,,,,,,,532.7745658999775,532.8893597000279,533.6892361999489,533.6738032000139,,,,,,,,,,,,,,,,,,,,,,,,,,,,,,,,,,,533.674574200064,533.6892361999489,533.6892361999489,535.2738061000127,r,1.0,1.5769072999246418,,,,,,sub-165,1,stroop_test,60.041596827471245,
,,,,91.0,7.0,7.0,,,,,,,,,,,,,rot,red,r,1.0,r,1.0,0.6114570000208914,,,,,,,,,,7.0,7.0,91.0,0.0,535.289515200071,,,,,,,,,,,,,,,,,535.2741884998977,535.3729206998833,536.1729196999222,536.1568952000234,,,,,,,,,,,,,,,,,,,,,,,,,,,,,,,,,,,536.160185100045,536.1729196999222,536.1729196999222,536.7911718999967,r,1.0,0.6114570000208914,,,,,,sub-165,1,stroop_test,60.041596827471245,
,,,,92.0,8.0,7.0,,,,,,,,,,,,,rot,yellow,g,0.0,g,1.0,1.4169044999871403,,,,,,,,,,7.0,8.0,92.0,3.0,536.8057911999058,,,,,,,,,,,,,,,,,536.7916842000559,537.6060079999734,538.4061354000587,538.389840599848,,,,,,,,,,,,,,,,,,,,,,,,,,,,,,,,,,,538.3904724000022,538.4061354000587,538.4061354000587,539.8248298999388,g,1.0,1.4169044999871403,,,,,,sub-165,1,stroop_test,60.041596827471245,
,,,,93.0,9.0,7.0,,,,,,,,,,,,,gelb,red,r,0.0,r,1.0,0.963949300115928,,,,,,,,,,7.0,9.0,93.0,8.0,539.8396240998991,,,,,,,,,,,,,,,,,539.8254396000411,540.1898238998838,540.9899607000407,540.9735701999161,,,,,,,,,,,,,,,,,,,,,,,,,,,,,,,,,,,540.9783973998856,540.9899607000407,540.9899607000407,541.9578288998455,r,1.0,0.963949300115928,,,,,,sub-165,1,stroop_test,60.041596827471245,
,,,,94.0,10.0,7.0,,,,,,,,,,,,,rot,blue,b,0.0,b,1.0,1.3544560999143869,,,,,,,,,,7.0,10.0,94.0,2.0,541.9729778000619,,,,,,,,,,,,,,,,,541.9582648000214,542.7727115000598,543.5729535999708,543.5571138998494,,,,,,,,,,,,,,,,,,,,,,,,,,,,,,,,,,,543.5617263999302,543.5729535999708,543.5729535999708,544.9409513999708,b,1.0,1.3544560999143869,,,,,,sub-165,1,stroop_test,60.041596827471245,
,,,,95.0,11.0,7.0,,,,,,,,,,,,,blau,blue,b,1.0,b,1.0,1.26406169985421,,,,,,,,,,7.0,11.0,95.0,6.0,544.9559500999749,,,,,,,,,,,,,,,,,544.9414098998532,545.3063047998585,546.1062367998529,546.0901291000191,,,,,,,,,,,,,,,,,,,,,,,,,,,,,,,,,,,546.0939646998886,546.1062367998529,546.1062367998529,547.3753732000478,b,1.0,1.26406169985421,,,,,,sub-165,1,stroop_test,60.041596827471245,
,,,,96.0,0.0,8.0,,,,,,,,,,,,,rot,red,r,1.0,r,1.0,0.8506395998410881,,,,,,,,,,8.0,0.0,96.0,0.0,547.3896512999199,,,,,,,,,,,,,,,,,547.3758521999698,548.1893919999711,548.9896527999081,548.973548399983,,,,,,,,,,,,,,,,,,,,,,,,,,,,,,,,,,,548.976852199994,548.9896527999081,548.9896527999081,549.8572294998448,r,1.0,0.8506395998410881,,,,,,sub-165,1,stroop_test,60.041596827471245,
,,,,97.0,1.0,8.0,,,,,,,,,,,,,gelb,red,r,0.0,r,1.0,1.6601967001333833,,,,,,,,,,8.0,1.0,97.0,8.0,549.8729133999441,,,,,,,,,,,,,,,,,549.8576423998456,550.6562288999557,551.4561300999485,551.4417973000091,,,,,,,,,,,,,,,,,,,,,,,,,,,,,,,,,,,551.4464485999197,551.4561300999485,551.4561300999485,553.1240260999184,r,1.0,1.6601967001333833,,,,,,sub-165,1,stroop_test,60.041596827471245,
,,,,98.0,2.0,8.0,,,,,,,,,,,,,rot,yellow,g,0.0,g,1.0,0.8929081000387669,,,,,,,,,,8.0,2.0,98.0,3.0,553.1395827999804,,,,,,,,,,,,,,,,,553.124548099935,554.3393093000632,555.1393248999957,555.1235489998944,,,,,,,,,,,,,,,,,,,,,,,,,,,,,,,,,,,555.1287980999332,555.1393248999957,555.1393248999957,556.0412548999302,g,1.0,0.8929081000387669,,,,,,sub-165,1,stroop_test,60.041596827471245,
,,,,99.0,3.0,8.0,,,,,,,,,,,,,blau,red,r,0.0,r,1.0,1.0330895001534373,,,,,,,,,,8.0,3.0,99.0,4.0,556.0566066000611,,,,,,,,,,,,,,,,,556.0417015999556,556.8561340998858,557.656112199882,557.6400549998507,,,,,,,,,,,,,,,,,,,,,,,,,,,,,,,,,,,557.6434919999447,557.656112199882,557.656112199882,558.6917224000208,r,1.0,1.0330895001534373,,,,,,sub-165,1,stroop_test,60.041596827471245,
,,,,100.0,4.0,8.0,,,,,,,,,,,,,blau,blue,b,1.0,b,1.0,1.0497610000893474,,,,,,,,,,8.0,4.0,100.0,6.0,558.7064131998923,,,,,,,,,,,,,,,,,558.6920227999799,559.5060066999868,560.3062499999069,560.2901836000383,,,,,,,,,,,,,,,,,,,,,,,,,,,,,,,,,,,560.2905653000344,560.3062499999069,560.3062499999069,561.3596403000411,b,1.0,1.0497610000893474,,,,,,sub-165,1,stroop_test,60.041596827471245,
,,,,101.0,5.0,8.0,,,,,,,,,,,,,blau,blue,b,1.0,b,1.0,1.3385890000499785,,,,,,,,,,8.0,5.0,101.0,5.0,561.3727074000053,,,,,,,,,,,,,,,,,561.360155900009,562.1731799999252,562.9727904999163,562.9564497000538,,,,,,,,,,,,,,,,,,,,,,,,,,,,,,,,,,,562.9568743999116,562.9727904999163,562.9727904999163,564.3242158999201,b,1.0,1.3385890000499785,,,,,,sub-165,1,stroop_test,60.041596827471245,
,,,,102.0,6.0,8.0,,,,,,,,,,,,,gelb,blue,b,0.0,b,1.0,0.8484381001908332,,,,,,,,,,8.0,6.0,102.0,9.0,564.3395285999868,,,,,,,,,,,,,,,,,564.3246863998938,564.4230205998756,565.2228043000214,565.2064495999366,,,,,,,,,,,,,,,,,,,,,,,,,,,,,,,,,,,565.2106518999208,565.2228043000214,565.2228043000214,566.0746375999879,b,1.0,0.8484381001908332,,,,,,sub-165,1,stroop_test,60.041596827471245,
,,,,103.0,7.0,8.0,,,,,,,,,,,,,blau,yellow,g,0.0,g,1.0,1.1008203001692891,,,,,,,,,,8.0,7.0,103.0,7.0,566.089684800012,,,,,,,,,,,,,,,,,566.0751729998738,566.889379600063,567.6895975000225,567.6735729000065,,,,,,,,,,,,,,,,,,,,,,,,,,,,,,,,,,,567.6769774998538,567.6895975000225,567.6895975000225,568.79344639997,g,1.0,1.1008203001692891,,,,,,sub-165,1,stroop_test,60.041596827471245,
,,,,104.0,8.0,8.0,,,,,,,,,,,,,gelb,yellow,g,1.0,g,1.0,0.7226569999475032,,,,,,,,,,8.0,8.0,104.0,11.0,568.8058525999077,,,,,,,,,,,,,,,,,568.7939831998665,569.156602300005,569.9560289999936,569.9399862999562,,,,,,,,,,,,,,,,,,,,,,,,,,,,,,,,,,,569.9437281000428,569.9560289999936,569.9560289999936,570.697414400056,g,1.0,0.7226569999475032,,,,,,sub-165,1,stroop_test,60.041596827471245,
,,,,105.0,9.0,8.0,,,,,,,,,,,,,gelb,yellow,g,1.0,g,1.0,0.6139422000851482,,,,,,,,,,8.0,9.0,105.0,10.0,570.706076100003,,,,,,,,,,,,,,,,,570.6979489000514,571.5059730999637,572.3059735000134,572.2909249998629,,,,,,,,,,,,,,,,,,,,,,,,,,,,,,,,,,,572.2914352000225,572.3059735000134,572.3059735000134,572.9245245000347,g,1.0,0.6139422000851482,,,,,,sub-165,1,stroop_test,60.041596827471245,
,,,,106.0,10.0,8.0,,,,,,,,,,,,,rot,red,r,1.0,r,1.0,0.6820151000283659,,,,,,,,,,8.0,10.0,106.0,1.0,572.9395904999692,,,,,,,,,,,,,,,,,572.9248823998496,573.7393364999443,574.5394937000237,574.5241304999217,,,,,,,,,,,,,,,,,,,,,,,,,,,,,,,,,,,574.5282179999631,574.5394937000237,574.5394937000237,575.2243887998629,r,1.0,0.6820151000283659,,,,,,sub-165,1,stroop_test,60.041596827471245,
,,,,107.0,11.0,8.0,,,,,,,,,,,,,rot,blue,b,0.0,b,1.0,0.9269554000347852,,,,,,,,,,8.0,11.0,107.0,2.0,575.2390175999608,,,,,,,,,,,,,,,,,575.2249048000667,575.5900085000321,576.3894923999906,576.3735322998837,,,,,,,,,,,,,,,,,,,,,,,,,,,,,,,,,,,576.3740091000218,576.3894923999906,576.3894923999906,577.3239043999929,b,1.0,0.9269554000347852,,,,,,sub-165,1,stroop_test,60.041596827471245,
,,,,108.0,0.0,9.0,,,,,,,,,,,,,blau,blue,b,1.0,b,1.0,0.8385079000145197,,,,,,,,,,9.0,0.0,108.0,6.0,577.3393417999614,,,,,,,,,,,,,,,,,577.3243255000561,577.6896393999923,578.4894858000334,578.473277800018,,,,,,,,,,,,,,,,,,,,,,,,,,,,,,,,,,,578.4772596000694,578.4894858000334,578.4894858000334,579.3409498999827,b,1.0,0.8385079000145197,,,,,,sub-165,1,stroop_test,60.041596827471245,
,,,,109.0,1.0,9.0,,,,,,,,,,,,,gelb,blue,b,0.0,b,1.0,0.914397899992764,,,,,,,,,,9.0,1.0,109.0,9.0,579.3567697999533,,,,,,,,,,,,,,,,,579.3413523000199,580.1399618999567,580.9396522999741,580.9233631000388,,,,,,,,,,,,,,,,,,,,,,,,,,,,,,,,,,,580.9277528999373,580.9396522999741,580.9396522999741,581.8574063999113,b,1.0,0.914397899992764,,,,,,sub-165,1,stroop_test,60.041596827471245,
,,,,110.0,2.0,9.0,,,,,,,,,,,,,blau,yellow,g,0.0,g,1.0,1.1344665999058634,,,,,,,,,,9.0,2.0,110.0,7.0,581.8725123000331,,,,,,,,,,,,,,,,,581.8577201999724,582.2231691998895,583.0226666000672,583.0073213998694,,,,,,,,,,,,,,,,,,,,,,,,,,,,,,,,,,,583.0122710000724,583.0226666000672,583.0226666000672,584.1600701999851,g,1.0,1.1344665999058634,,,,,,sub-165,1,stroop_test,60.041596827471245,
,,,,111.0,3.0,9.0,,,,,,,,,,,,,blau,red,r,0.0,r,1.0,1.1179718000348655,,,,,,,,,,9.0,3.0,111.0,4.0,584.1729178000242,,,,,,,,,,,,,,,,,584.1606415999122,584.2727204000112,585.072781200055,585.0579343000427,,,,,,,,,,,,,,,,,,,,,,,,,,,,,,,,,,,585.0585775000509,585.072781200055,585.072781200055,586.2074921999592,r,1.0,1.1179718000348655,,,,,,sub-165,1,stroop_test,60.041596827471245,
,,,,112.0,4.0,9.0,,,,,,,,,,,,,gelb,yellow,g,1.0,g,1.0,1.4172197000589222,,,,,,,,,,9.0,4.0,112.0,10.0,586.2229879999068,,,,,,,,,,,,,,,,,586.2079586999025,586.5730232000351,587.3728507000487,587.3573318999261,,,,,,,,,,,,,,,,,,,,,,,,,,,,,,,,,,,587.361505500041,587.3728507000487,587.3728507000487,588.8065623999573,g,1.0,1.4172197000589222,,,,,,sub-165,1,stroop_test,60.041596827471245,
,,,,113.0,5.0,9.0,,,,,,,,,,,,,rot,red,r,1.0,r,1.0,0.7687205001711845,,,,,,,,,,9.0,5.0,113.0,1.0,588.8227673000656,,,,,,,,,,,,,,,,,588.8069341999944,588.906047699973,589.7064781000372,589.6901918998919,,,,,,,,,,,,,,,,,,,,,,,,,,,,,,,,,,,589.694327800069,589.7064781000372,589.7064781000372,590.4902534000576,r,1.0,0.7687205001711845,,,,,,sub-165,1,stroop_test,60.041596827471245,
,,,,114.0,6.0,9.0,,,,,,,,,,,,,rot,blue,b,0.0,b,1.0,1.2775192998815328,,,,,,,,,,9.0,6.0,114.0,2.0,590.5063332999125,,,,,,,,,,,,,,,,,590.4907455998473,590.8391493998934,591.639478399884,591.6237741999794,,,,,,,,,,,,,,,,,,,,,,,,,,,,,,,,,,,591.6242517998908,591.639478399884,591.639478399884,592.9242028000299,b,1.0,1.2775192998815328,,,,,,sub-165,1,stroop_test,60.041596827471245,
,,,,115.0,7.0,9.0,,,,,,,,,,,,,rot,red,r,1.0,r,1.0,1.1147591001354158,,,,,,,,,,9.0,7.0,115.0,0.0,592.9394062999636,,,,,,,,,,,,,,,,,592.9245857999194,593.2891764000524,594.0896860999055,594.074338400038,,,,,,,,,,,,,,,,,,,,,,,,,,,,,,,,,,,594.075105200056,594.0896860999055,594.0896860999055,595.2079550998751,r,1.0,1.1147591001354158,,,,,,sub-165,1,stroop_test,60.041596827471245,
,,,,116.0,8.0,9.0,,,,,,,,,,,,,rot,yellow,g,0.0,g,1.0,0.8429788001812994,,,,,,,,,,9.0,8.0,116.0,3.0,595.223036600044,,,,,,,,,,,,,,,,,595.2084445999935,596.4225172998849,597.2228868999518,597.2067921999842,,,,,,,,,,,,,,,,,,,,,,,,,,,,,,,,,,,597.2072290000506,597.2228868999518,597.2228868999518,598.0743308998644,g,1.0,0.8429788001812994,,,,,,sub-165,1,stroop_test,60.041596827471245,
,,,,117.0,9.0,9.0,,,,,,,,,,,,,gelb,red,r,0.0,r,1.0,1.1040946000721306,,,,,,,,,,9.0,9.0,117.0,8.0,598.0893224999309,,,,,,,,,,,,,,,,,598.074871599907,598.1894177999347,598.9892913000658,598.9740041999612,,,,,,,,,,,,,,,,,,,,,,,,,,,,,,,,,,,598.9782543000765,598.9892913000658,598.9892913000658,600.1081866000313,r,1.0,1.1040946000721306,,,,,,sub-165,1,stroop_test,60.041596827471245,
,,,,118.0,10.0,9.0,,,,,,,,,,,,,gelb,yellow,g,1.0,g,1.0,1.7508104001171887,,,,,,,,,,9.0,10.0,118.0,11.0,600.1228173000272,,,,,,,,,,,,,,,,,600.1087970000226,600.2228323998861,601.0225738999434,601.0066618998535,,,,,,,,,,,,,,,,,,,,,,,,,,,,,,,,,,,601.0072047000285,601.0225738999434,601.0225738999434,602.7910229000263,g,1.0,1.7508104001171887,,,,,,sub-165,1,stroop_test,60.041596827471245,
,,,,119.0,11.0,9.0,,,,,,,,,,,,,blau,blue,b,1.0,b,1.0,0.6517600000370294,,,,,,,,,,9.0,11.0,119.0,5.0,602.8059280999005,,,,,,,,,,,,,,,,,602.7915610000491,603.15598400007,603.956154699903,603.9401684000622,,,,,,,,,,,,,,,,,,,,,,,,,,,,,,,,,,,603.9453481000382,603.956154699903,603.956154699903,604.6245110000018,b,1.0,0.6517600000370294,,,,,,sub-165,1,stroop_test,60.041596827471245,
,,,,,,,,,,,,,,,,,,,,,,,,,,,,,,,,,,,,,,,,,,,,,,,,,,,,,,,,,,,,,,,,,,,,,,,,,,,,,,,,,,,,,,,,,,,,,,,,,,,,,,604.6247787999455,604.6397820999846,609.6400399999693,609.6243282998912,sub-165,1,stroop_test,60.041596827471245,
