direction,corrAns,randomInstr,practice_trials.thisRepN,practice_trials.thisTrialN,practice_trials.thisN,practice_trials.thisIndex,instr_trials.thisRepN,instr_trials.thisTrialN,instr_trials.thisN,instr_trials.thisIndex,test_trials.thisRepN,test_trials.thisTrialN,test_trials.thisN,test_trials.thisIndex,thisRow.t,notes,general_instruction.started,textGeneralInstr.started,respGeneralInstr.started,general_instruction.stopped,respGeneralInstr.keys,respGeneralInstr.rt,respGeneralInstr.duration,ITI.started,fixcross.started,fixcross.stopped,ITI.stopped,dots.started,backgroundDots.started,stimulusDots.started,respDots.started,stimulusDots.stopped,dots.stopped,respDots.keys,respDots.corr,respDots.rt,respDots.duration,feedback.started,textFeedback.started,feedback.stopped,textFeedback.stopped,info.started,textInfo.started,keyRespInfo.started,info.stopped,keyRespInfo.keys,keyRespInfo.rt,keyRespInfo.duration,test_instruction.started,textTestInstr.started,respTestInstr.started,test_instruction.stopped,respTestInstr.keys,respTestInstr.rt,respTestInstr.duration,random_instruction.started,textRandomInstr.started,respRandomInstr.started,random_instruction.stopped,respRandomInstr.keys,respRandomInstr.rt,respRandomInstr.duration,goodbye.started,textGoodbye.started,goodbye.stopped,participant,session,expName,frameRate,Unnamed: 73
,,,,,,,,,,,,,,,,,0.0310680999973556,0.0452671999955782,0.0452671999955782,19.859388999990188,space,68.32581300000311,,,,,,,,,,,,,,,,,,,,,,,,,,,,,,,,,,,,,,,,,,,,sub-001,1.0,random_dot,56.06550244858747,
right,right,,0.0,0.0,0.0,1.0,,,,,,,,,19.88223659999494,,,,,,,,,19.87551959999837,20.225290199989104,21.03058880000026,21.008685799999512,21.00871979999647,21.03058880000026,21.03058880000026,21.03058880000026,26.023422300000675,30.657335699987016,right,1.0,58.14434250000341,,30.65867769999022,30.683389799989527,31.172733799990965,,,,,,,,,,,,,,,,,,,,,,,,,,sub-001,1.0,random_dot,56.06550244858747,
left,left,,0.0,1.0,1.0,0.0,,,,,,,,,31.189402899995912,,,,,,,,,31.17344859999139,31.272253299990552,32.07263229999808,32.05645319999894,32.05648549999751,32.07263229999808,32.07263229999808,32.07263229999808,,35.323570499997004,left,1.0,51.7667489000014,,35.32455499999924,35.338616699998965,35.82277749999776,35.83870609999576,,,,,,,,,,,,,,,,,,,,,,,,,sub-001,1.0,random_dot,56.06550244858747,
right,right,,1.0,0.0,2.0,1.0,,,,,,,,,35.83870609999576,,,,,,,,,35.823400099994615,36.63871179999842,37.439346099999966,37.42298730000039,37.42301959999895,37.439346099999966,37.439346099999966,37.439346099999966,,39.26602589999675,right,1.0,50.34229129999585,,39.267333999989205,39.28163119999226,39.77943149999192,,,,,,,,,,,,,,,,,,,,,,,,,,sub-001,1.0,random_dot,56.06550244858747,
left,left,,1.0,1.0,3.0,0.0,,,,,,,,,39.791216199999326,,,,,,,,,39.78031929999997,40.12589070000104,40.949538699991535,40.92741439999372,40.92745229999127,40.949538699991535,40.949538699991535,40.949538699991535,,44.0015424000012,right,0.0,51.57272880000528,,44.002668899993296,44.02991539999493,44.50933489999443,,,,,,,,,,,,,,,,,,,,,,,,,,sub-001,1.0,random_dot,56.06550244858747,
right,right,,2.0,0.0,4.0,1.0,,,,,,,,,44.52665909999632,,,,,,,,,44.51016299999901,45.7086804999999,46.51584509998793,46.49495339998976,46.495023700001184,46.51584509998793,46.51584509998793,46.51584509998793,,49.99659229999816,right,1.0,52.00089930000832,,49.99771499999042,50.02171429998998,50.51156639998953,,,,,,,,,,,,,,,,,,,,,,,,,,sub-001,1.0,random_dot,56.06550244858747,
left,left,,2.0,1.0,5.0,0.0,,,,,,,,,50.52316769999743,,,,,,,,,50.51238309999462,51.70753749999858,52.5159707999992,52.492210099997465,52.49225039999874,52.5159707999992,52.5159707999992,52.5159707999992,,55.31339759999537,left,1.0,51.316854100005,,55.3145027999999,55.32874149999407,55.82716719999735,,,,,,,,,,,,,,,,,,,,,,,,,,sub-001,1.0,random_dot,56.06550244858747,
right,right,,3.0,0.0,6.0,1.0,,,,,,,,,55.83870369999204,,,,,,,,,55.82799159998831,57.02374539998709,57.82823879999341,57.81094609999855,57.81101510000008,57.82823879999341,57.82823879999341,57.82823879999341,,61.46169089998875,right,1.0,52.14227379999648,,61.46287589998974,61.47595919999003,61.980782799990266,,,,,,,,,,,,,,,,,,,,,,,,,,sub-001,1.0,random_dot,56.06550244858747,
left,left,,3.0,1.0,7.0,0.0,,,,,,,,,62.00313919999462,,,,,,,,,61.98157679999713,62.7723827999871,63.57697489998827,63.560192799996,63.56023309999728,63.57697489998827,63.57697489998827,63.57697489998827,,65.17037880000134,left,1.0,50.10580370000389,,65.17151179999928,65.19256049999967,65.67396789998747,,,,,,,,,,,,,,,,,,,,,,,,,,sub-001,1.0,random_dot,56.06550244858747,
left,left,,4.0,0.0,8.0,0.0,,,,,,,,,65.69199469999876,,,,,,,,,65.67481899999257,66.4887383999885,67.29529709999042,67.27470509998966,67.27475240000058,67.29529709999042,67.29529709999042,67.29529709999042,,71.73394279999775,left,1.0,52.953489200008335,,71.7350957999879,71.75498659998993,72.23757439998735,,,,,,,,,,,,,,,,,,,,,,,,,,sub-001,1.0,random_dot,56.06550244858747,
right,right,,4.0,1.0,9.0,1.0,,,,,,,,,72.25565209999331,,,,,,,,,72.23848149999685,72.3379406999884,73.16109649999999,73.13988899999822,73.13993179998943,73.16109649999999,73.16109649999999,73.16109649999999,78.15542129999085,78.37469979999878,left,0.0,53.72958750001271,,78.37584729999071,78.40120639999805,78.88867889999528,,,,,,,,,,,,,,,,,,,,,,,,,,sub-001,1.0,random_dot,56.06550244858747,
right,right,,5.0,0.0,10.0,1.0,,,,,,,,,78.90616819998831,,,,,,,,,78.88955459999852,80.08811479998985,80.8978378999891,80.87392459998955,80.87396389999776,80.8978378999891,80.8978378999891,80.8978378999891,,81.95851029999903,right,1.0,49.57187510000949,,81.959672699988,81.98528879998776,82.47207979999075,,,,,,,,,,,,,,,,,,,,,,,,,,sub-001,1.0,random_dot,56.06550244858747,
left,left,,5.0,1.0,11.0,0.0,,,,,,,,,82.48411279999709,,,,,,,,,82.47293289999652,82.82210449999548,83.64030829998956,83.6226614999905,83.62270759999228,83.64030829998956,83.64030829998956,83.64030829998956,,85.92453119999846,right,0.0,50.8079402000003,,85.9256910999975,85.95131730000139,86.43868870000006,,,,,,,,,,,,,,,,,,,,,,,,,,sub-001,1.0,random_dot,56.06550244858747,
left,left,,6.0,0.0,12.0,0.0,,,,,,,,,86.4503904000012,,,,,,,,,86.43954369999119,87.25122890000057,88.05640419998963,88.03821739999694,88.03826359999948,88.05640419998963,88.05640419998963,88.05640419998963,,91.4078923999914,left,1.0,51.85036969999783,,91.40904210000008,91.434571699996,91.91744399999152,,,,,,,,,,,,,,,,,,,,,,,,,,sub-001,1.0,random_dot,56.06550244858747,
right,right,,6.0,1.0,13.0,1.0,,,,,,,,,91.93516699998872,,,,,,,,,91.91827829999966,92.27052689999982,93.09464039999877,93.07210259999556,93.0721438999899,93.09464039999877,93.09464039999877,93.09464039999877,,96.2161511000013,right,1.0,51.6230540000106,,96.21731929999078,96.24126659998728,96.73501699999906,,,,,,,,,,,,,,,,,,,,,,,,,,sub-001,1.0,random_dot,56.06550244858747,
left,left,,7.0,0.0,14.0,0.0,,,,,,,,,96.75307129998691,,,,,,,,,96.73595589998877,97.0845091999945,97.89262579999922,97.86906309999176,97.86911299999338,97.89262579999922,97.89262579999922,97.89262579999922,,99.23054469999624,left,1.0,49.84297050000168,,99.2316836999962,99.2515158999886,99.73258519999216,,,,,,,,,,,,,,,,,,,,,,,,,,sub-001,1.0,random_dot,56.06550244858747,
right,right,,7.0,1.0,15.0,1.0,,,,,,,,,99.74999179999575,,,,,,,,,99.73339529999066,100.08314599998994,100.89400429998932,100.87041869999666,100.87045919999946,100.89400429998932,100.89400429998932,100.89400429998932,,102.0072647999914,left,0.0,49.62694920001377,,102.00841469998704,102.03390450000006,102.5197385999927,,,,,,,,,,,,,,,,,,,,,,,,,,sub-001,1.0,random_dot,56.06550244858747,
right,right,,8.0,0.0,16.0,1.0,,,,,,,,,102.53150189999724,,,,,,,,,102.52058159999432,102.86627739999676,103.67030169999634,103.65262339999026,103.65266619999602,103.67030169999634,103.67030169999634,103.67030169999634,,108.33124999998836,right,1.0,53.16431200000807,,108.33235669998976,108.35395459999565,108.85154909999984,,,,,,,,,,,,,,,,,,,,,,,,,,sub-001,1.0,random_dot,56.06550244858747,
left,left,,8.0,1.0,17.0,0.0,,,,,,,,,108.8638318000012,,,,,,,,,108.85239569999976,109.18409929999324,109.9932567999931,109.96913539999514,109.96917709999252,109.9932567999931,109.9932567999931,109.9932567999931,,113.9790995999938,left,1.0,52.49321260000579,,113.9802262999874,114.00043479999296,114.49999829998706,,,,,,,,,,,,,,,,,,,,,,,,,,sub-001,1.0,random_dot,56.06550244858747,
right,right,,9.0,0.0,18.0,1.0,,,,,,,,,114.51187649999338,,,,,,,,,114.5008506999875,115.2824002999987,116.08480039999996,116.06712329998844,116.06716449999658,116.08480039999996,116.08480039999996,116.08480039999996,,118.2334942999878,right,1.0,50.67249169999559,,118.23475549998692,118.25109019999218,118.74230139999418,,,,,,,,,,,,,,,,,,,,,,,,,,sub-001,1.0,random_dot,56.06550244858747,
left,left,,9.0,1.0,19.0,0.0,,,,,,,,,118.75860399998784,,,,,,,,,118.74312790000111,118.84192559999065,119.64640199999847,119.6262749999878,119.6263176999928,119.64640199999847,119.64640199999847,119.64640199999847,124.64303039999504,124.89844409999203,left,1.0,53.76559610001277,,124.8996335999982,124.91304939999829,125.40779069998824,,,,,,,,,,,,,,,,,,,,,,,,,,sub-001,1.0,random_dot,56.06550244858747,
,,,,,,,,,,,,,,,,,,,,,,,,,,,,,,,,,,,,,,,,,,125.40791660000104,125.42432919998828,125.42432919998828,134.8071154999925,space,57.906409000002895,,,,,,,,,,,,,,,,,,,sub-001,1.0,random_dot,56.06550244858747,
,,,,,,,,,,,,,,,,,,,,,,,,,,,,,,,,,,,,,,,,,,,,,,,,,134.8071798999881,134.8234647999925,134.8234647999925,141.93001009999716,space,55.62327419999929,0.0009565000073052,,,,,,,,,,,sub-001,1.0,random_dot,56.06550244858747,
right,right,speed,,,,,0.0,0.0,0.0,1.0,0.0,0.0,0.0,1.0,145.10244879999664,,,,,,,,,145.09022359999653,146.2874002999888,147.1103555999871,147.08816569999908,147.08820709999418,147.1103555999871,147.1103555999871,147.1103555999871,,148.43488439999055,right,1.0,49.83123300000443,,,,,,,,,,,,,,,,,,,,141.93676319999213,141.98437389999162,141.98437389999162,145.07536989999062,space,51.60279540000192,0.002321199994185,,,,sub-001,1.0,random_dot,56.06550244858747,
left,left,speed,,,,,0.0,0.0,0.0,1.0,0.0,1.0,1.0,0.0,148.45258119999198,,,,,,,,,148.43757019999612,149.2369306999899,150.04201039999316,150.02081859999453,150.02085679999436,150.04201039999316,150.04201039999316,150.04201039999316,,151.1511935999879,left,1.0,49.61716989999695,,,,,,,,,,,,,,,,,,,,,,,,,,,,,,sub-001,1.0,random_dot,56.06550244858747,
right,right,speed,,,,,0.0,0.0,0.0,1.0,1.0,0.0,2.0,1.0,151.16855789998954,,,,,,,,,151.15338179998798,151.253458399995,152.05893719999585,152.03738819999853,152.0374265999999,152.05893719999585,152.05893719999585,152.05893719999585,,152.86175809999986,right,1.0,49.31202580001264,,,,,,,,,,,,,,,,,,,,,,,,,,,,,,sub-001,1.0,random_dot,56.06550244858747,
left,left,speed,,,,,0.0,0.0,0.0,1.0,1.0,1.0,3.0,0.0,152.8749211999966,,,,,,,,,152.8640311999916,153.21941409999272,154.02477999999246,154.0035452999873,154.00358449999476,154.02477999999246,154.02477999999246,154.02477999999246,,155.07772639999166,left,1.0,49.57548700000916,,,,,,,,,,,,,,,,,,,,,,,,,,,,,,sub-001,1.0,random_dot,56.06550244858747,
right,right,speed,,,,,0.0,0.0,0.0,1.0,2.0,0.0,4.0,1.0,155.09018959999958,,,,,,,,,155.07986600000004,155.43997919998947,156.25984059998882,156.23681289999513,156.23685169999953,156.25984059998882,156.25984059998882,156.25984059998882,,158.3201071999938,right,1.0,50.58607350000239,,,,,,,,,,,,,,,,,,,,,,,,,,,,,,sub-001,1.0,random_dot,56.06550244858747,
left,left,speed,,,,,0.0,0.0,0.0,1.0,2.0,1.0,5.0,0.0,158.3384306999942,,,,,,,,,158.32234289999178,158.6739329999982,159.4851766999927,159.45920430000115,159.45924689999083,159.4851766999927,159.4851766999927,159.4851766999927,,160.52607719998923,left,1.0,49.55812470000819,,,,,,,,,,,,,,,,,,,,,,,,,,,,,,sub-001,1.0,random_dot,56.06550244858747,
right,right,speed,,,,,0.0,0.0,0.0,1.0,3.0,0.0,6.0,1.0,160.53977089999535,,,,,,,,,160.5283405999944,160.89182669999718,161.7153924999875,161.69203639999614,161.6920773999882,161.7153924999875,161.7153924999875,161.7153924999875,,165.10746970000037,left,0.0,51.89548130000185,,,,,,,,,,,,,,,,,,,,,,,,,,,,,,sub-001,1.0,random_dot,56.06550244858747,
left,left,speed,,,,,0.0,0.0,0.0,1.0,3.0,1.0,7.0,0.0,165.1242704999895,,,,,,,,,165.10987059999024,166.32080269999278,167.14216509999824,167.11837709999236,167.11841679998906,167.14216509999824,167.14216509999824,167.14216509999824,172.12238049998996,175.18505819998973,left,1.0,56.54573369999707,,,,,,,,,,,,,,,,,,,,,,,,,,,,,,sub-001,1.0,random_dot,56.06550244858747,
right,right,speed,,,,,0.0,0.0,0.0,1.0,4.0,0.0,8.0,1.0,175.20346539998718,,,,,,,,,175.1873721999873,176.00225409999257,176.8099283999909,176.78572039998835,176.7857578999974,176.8099283999909,176.8099283999909,176.8099283999909,,181.65040600000063,left,0.0,53.34129770001164,,,,,,,,,,,,,,,,,,,,,,,,,,,,,,sub-001,1.0,random_dot,56.06550244858747,
left,left,speed,,,,,0.0,0.0,0.0,1.0,4.0,1.0,9.0,0.0,181.67021129999196,,,,,,,,,181.65267599999788,181.7676858999912,182.5897752999881,182.5659851999953,182.56602439998824,182.5897752999881,182.5897752999881,182.5897752999881,,183.74896679999077,right,0.0,49.67705460000434,,,,,,,,,,,,,,,,,,,,,,,,,,,,,,sub-001,1.0,random_dot,56.06550244858747,
left,left,speed,,,,,0.0,0.0,0.0,1.0,5.0,0.0,10.0,0.0,183.76927279999651,,,,,,,,,183.7512374999933,183.86933000000136,184.67427369998768,184.65358969999943,184.6536355999997,184.67427369998768,184.67427369998768,184.67427369998768,189.65128799999368,190.49162369999976,right,0.0,54.32365600000776,,,,,,,,,,,,,,,,,,,,,,,,,,,,,,sub-001,1.0,random_dot,56.06550244858747,
right,right,speed,,,,,0.0,0.0,0.0,1.0,5.0,1.0,11.0,1.0,190.51082839998708,,,,,,,,,190.49395309999815,190.60203769999495,191.4141951999918,191.39144439999652,191.39148579999164,191.4141951999918,191.4141951999918,191.4141951999918,196.4035659999936,197.15320509999583,left,0.0,54.24480740001309,,,,,,,,,,,,,,,,,,,,,,,,,,,,,,sub-001,1.0,random_dot,56.06550244858747,
left,left,speed,,,,,0.0,0.0,0.0,1.0,6.0,0.0,12.0,0.0,197.16592239998863,,,,,,,,,197.15550959999385,197.2658870999876,198.0867252999888,198.06318069998812,198.0632212999917,198.0867252999888,198.0867252999888,198.0867252999888,203.06477329999325,205.24933779999265,right,0.0,55.68876220000675,,,,,,,,,,,,,,,,,,,,,,,,,,,,,,sub-001,1.0,random_dot,56.06550244858747,
right,right,speed,,,,,0.0,0.0,0.0,1.0,6.0,1.0,13.0,1.0,205.2642574999918,,,,,,,,,205.2517056999932,206.05930179999268,206.86559750000012,206.84587309999915,206.8459097999876,206.86559750000012,206.86559750000012,206.86559750000012,,209.0877388999943,right,1.0,50.7326577000058,,,,,,,,,,,,,,,,,,,,,,,,,,,,,,sub-001,1.0,random_dot,56.06550244858747,
right,right,speed,,,,,0.0,0.0,0.0,1.0,7.0,0.0,14.0,1.0,209.1076854999992,,,,,,,,,209.08968239999376,209.4409808999917,210.2438207999949,210.22537580000065,210.2254122999875,210.2438207999949,210.2438207999949,210.2438207999949,,213.75378009999983,left,0.0,52.02189070000895,,,,,,,,,,,,,,,,,,,,,,,,,,,,,,sub-001,1.0,random_dot,56.06550244858747,
left,left,speed,,,,,0.0,0.0,0.0,1.0,7.0,1.0,15.0,0.0,213.77390299999388,,,,,,,,,213.75580059998904,214.55893909999577,215.37669689999893,215.3582066999952,215.3582441999897,215.37669689999893,215.37669689999893,215.37669689999893,,217.10391209999216,right,0.0,50.24352070000896,,,,,,,,,,,,,,,,,,,,,,,,,,,,,,sub-001,1.0,random_dot,56.06550244858747,
left,left,speed,,,,,0.0,0.0,0.0,1.0,8.0,0.0,16.0,0.0,217.1239099999948,,,,,,,,,217.1061173999915,217.20670450000037,218.0091931999923,217.99101469999005,217.9910521999991,218.0091931999923,218.0091931999923,218.0091931999923,222.99558160000012,223.4587726999889,left,1.0,53.9756994000054,,,,,,,,,,,,,,,,,,,,,,,,,,,,,,sub-001,1.0,random_dot,56.06550244858747,
right,right,speed,,,,,0.0,0.0,0.0,1.0,8.0,1.0,17.0,1.0,223.4772910999891,,,,,,,,,223.4609988000011,224.6733677999873,225.47958289999224,225.45802849999745,225.4580666999973,225.47958289999224,225.47958289999224,225.47958289999224,,228.04668219998712,right,1.0,51.0723937000148,,,,,,,,,,,,,,,,,,,,,,,,,,,,,,sub-001,1.0,random_dot,56.06550244858747,
right,right,speed,,,,,0.0,0.0,0.0,1.0,9.0,0.0,18.0,1.0,228.0589833999984,,,,,,,,,228.0488689999911,228.15651709999656,228.9626794999931,228.9420102000004,228.94204899999025,228.9626794999931,228.9626794999931,228.9626794999931,,230.25662049998937,right,1.0,49.80232220000471,,,,,,,,,,,,,,,,,,,,,,,,,,,,,,sub-001,1.0,random_dot,56.06550244858747,
left,left,speed,,,,,0.0,0.0,0.0,1.0,9.0,1.0,19.0,0.0,230.27370379999047,,,,,,,,,230.258840999988,231.4716134999908,232.28007429999707,232.2606181999872,232.2606575999962,232.28007429999707,232.28007429999707,232.28007429999707,,233.8122216999909,left,1.0,50.05236319999676,,,,,,,,,,,,,,,,,,,,,,,,,,,,,,sub-001,1.0,random_dot,56.06550244858747,
left,left,speed,,,,,0.0,0.0,0.0,1.0,10.0,0.0,20.0,0.0,233.8271409000008,,,,,,,,,233.81462849999664,233.92311049999265,234.74311029999808,234.72193400000103,234.72197259998936,234.74311029999808,234.74311029999808,234.74311029999808,,236.18634339999696,left,1.0,49.96163540000271,,,,,,,,,,,,,,,,,,,,,,,,,,,,,,sub-001,1.0,random_dot,56.06550244858747,
right,right,speed,,,,,0.0,0.0,0.0,1.0,10.0,1.0,21.0,1.0,236.20442009999533,,,,,,,,,236.18852339999285,236.28901439999757,237.0951836999884,237.0749327999947,237.07497129999683,237.0951836999884,237.0951836999884,237.0951836999884,,240.9788336999918,right,1.0,52.40997790000984,,,,,,,,,,,,,,,,,,,,,,,,,,,,,,sub-001,1.0,random_dot,56.06550244858747,
right,right,speed,,,,,0.0,0.0,0.0,1.0,11.0,0.0,22.0,1.0,240.99267239999608,,,,,,,,,240.98110579999047,241.79379060000065,242.61345359998813,242.592550699992,242.59259629999,242.61345359998813,242.61345359998813,242.61345359998813,,246.2871554000012,left,0.0,52.19279430000461,,,,,,,,,,,,,,,,,,,,,,,,,,,,,,sub-001,1.0,random_dot,56.06550244858747,
left,left,speed,,,,,0.0,0.0,0.0,1.0,11.0,1.0,23.0,0.0,246.3070340999984,,,,,,,,,246.28942180000013,247.10571399999023,247.91272399999437,247.890481800001,247.89052199998696,247.91272399999437,247.91272399999437,247.91272399999437,,250.97464719999695,right,0.0,51.58683820000442,,,,,,,,,,,,,,,,,,,,,,,,,,,,,,sub-001,1.0,random_dot,56.06550244858747,
right,right,speed,,,,,0.0,0.0,0.0,1.0,12.0,0.0,24.0,1.0,250.9894545999996,,,,,,,,,250.98023719999765,251.78441919999025,252.5884650999942,252.5691771999991,252.56926669999663,252.5884650999942,252.5884650999942,252.5884650999942,,255.436885099989,right,1.0,51.36565760000667,,,,,,,,,,,,,,,,,,,,,,,,,,,,,,sub-001,1.0,random_dot,56.06550244858747,
left,left,speed,,,,,0.0,0.0,0.0,1.0,12.0,1.0,25.0,0.0,255.4521989999921,,,,,,,,,255.44230699999025,255.55233239999507,256.37109039998904,256.3520231000002,256.35210969999025,256.37109039998904,256.37109039998904,256.37109039998904,,257.4210714999936,left,1.0,49.55769100000907,,,,,,,,,,,,,,,,,,,,,,,,,,,,,,sub-001,1.0,random_dot,56.06550244858747,
left,left,speed,,,,,0.0,0.0,0.0,1.0,13.0,0.0,26.0,0.0,257.43629639998835,,,,,,,,,257.42688149999594,258.2332400999876,259.0378122999973,259.0183008999884,259.0183876999945,259.0378122999973,259.0378122999973,259.0378122999973,,260.58623969998735,left,1.0,50.07055530001526,,,,,,,,,,,,,,,,,,,,,,,,,,,,,,sub-001,1.0,random_dot,56.06550244858747,
right,right,speed,,,,,0.0,0.0,0.0,1.0,13.0,1.0,27.0,1.0,260.60203669998737,,,,,,,,,260.5916486999922,261.3991543999873,262.20334469999943,262.1840780999919,262.1841655999888,262.20334469999943,262.20334469999943,262.20334469999943,,266.0757210999873,right,1.0,52.37901080001029,,,,,,,,,,,,,,,,,,,,,,,,,,,,,,sub-001,1.0,random_dot,56.06550244858747,
right,right,speed,,,,,0.0,0.0,0.0,1.0,14.0,0.0,28.0,1.0,266.0897277999902,,,,,,,,,266.0780117999966,267.2861230999988,268.09241610000026,268.0710771999875,268.07111949998944,268.09241610000026,268.09241610000026,268.09241610000026,,269.6671695999976,right,1.0,50.10063950001495,,,,,,,,,,,,,,,,,,,,,,,,,,,,,,sub-001,1.0,random_dot,56.06550244858747,
left,left,speed,,,,,0.0,0.0,0.0,1.0,14.0,1.0,29.0,0.0,269.6874868000013,,,,,,,,,269.6694901999872,269.7848696000001,270.60669059999054,270.5830698999925,270.5831088999985,270.60669059999054,270.60669059999054,270.60669059999054,,271.69063159999496,left,1.0,49.60844830000133,,,,,,,,,,,,,,,,,,,,,,,,,,,,,,sub-001,1.0,random_dot,56.06550244858747,
right,right,speed,,,,,0.0,0.0,0.0,1.0,15.0,0.0,30.0,1.0,271.7126526999928,,,,,,,,,271.6930403000006,272.50123299998813,273.3078275000007,273.28528329999244,273.2853247999883,273.3078275000007,273.3078275000007,273.3078275000007,,275.87346199998865,right,1.0,51.06760070001474,,,,,,,,,,,,,,,,,,,,,,,,,,,,,,sub-001,1.0,random_dot,56.06550244858747,
left,left,speed,,,,,0.0,0.0,0.0,1.0,15.0,1.0,31.0,0.0,275.88732509998954,,,,,,,,,275.8757293999952,277.08369409998704,277.8913165999984,277.8690063999966,277.86904669999785,277.8913165999984,277.8913165999984,277.8913165999984,,279.0591376999946,left,1.0,49.68709970000782,,,,,,,,,,,,,,,,,,,,,,,,,,,,,,sub-001,1.0,random_dot,56.06550244858747,
right,right,speed,,,,,0.0,0.0,0.0,1.0,16.0,0.0,32.0,1.0,279.0794700999977,,,,,,,,,279.0612964999891,279.16186369999195,279.9653282999934,279.94692529999884,279.9469637000002,279.9653282999934,279.9653282999934,279.9653282999934,,281.24607589999505,right,1.0,49.78832970000804,,,,,,,,,,,,,,,,,,,,,,,,,,,,,,sub-001,1.0,random_dot,56.06550244858747,
left,left,speed,,,,,0.0,0.0,0.0,1.0,16.0,1.0,33.0,0.0,281.2616297999921,,,,,,,,,281.2480629999918,282.4616978999984,283.26341539999703,283.2455727999913,283.2456103000004,283.26341539999703,283.26341539999703,283.26341539999703,,285.80328549999103,left,1.0,51.05970570001227,,,,,,,,,,,,,,,,,,,,,,,,,,,,,,sub-001,1.0,random_dot,56.06550244858747,
left,left,speed,,,,,0.0,0.0,0.0,1.0,17.0,0.0,34.0,0.0,285.81507329999295,,,,,,,,,285.8054531999951,287.0198931999912,287.83591309998883,287.8047175999964,287.80476030000136,287.83591309998883,287.83591309998883,287.83591309998883,,288.6996710999956,left,1.0,49.37589470000239,,,,,,,,,,,,,,,,,,,,,,,,,,,,,,sub-001,1.0,random_dot,56.06550244858747,
right,right,speed,,,,,0.0,0.0,0.0,1.0,17.0,1.0,35.0,1.0,288.71855649999634,,,,,,,,,288.7020890999993,289.5103335999884,290.3120295999979,290.2938767000014,290.2939140999952,290.3120295999979,290.3120295999979,290.3120295999979,,291.9503155999992,right,1.0,50.14937360001204,,,,,,,,,,,,,,,,,,,,,,,,,,,,,,sub-001,1.0,random_dot,56.06550244858747,
left,left,speed,,,,,0.0,0.0,0.0,1.0,18.0,0.0,36.0,0.0,291.9714586999908,,,,,,,,,291.95269619999453,292.3095323999878,293.1119195999927,293.0936546000012,293.0936924999987,293.1119195999927,293.1119195999927,293.1119195999927,298.09709509999084,298.8334467999957,left,1.0,54.23575450001226,,,,,,,,,,,,,,,,,,,,,,,,,,,,,,sub-001,1.0,random_dot,56.06550244858747,
right,right,speed,,,,,0.0,0.0,0.0,1.0,18.0,1.0,37.0,1.0,298.84871569999086,,,,,,,,,298.83579729999474,299.6430022999993,300.4649669999926,300.4435162999871,300.443555299993,300.4649669999926,300.4649669999926,300.4649669999926,,301.96943849998934,right,1.0,50.02789870000561,,,,,,,,,,,,,,,,,,,,,,,,,,,,,,sub-001,1.0,random_dot,56.06550244858747,
left,left,speed,,,,,0.0,0.0,0.0,1.0,19.0,0.0,38.0,0.0,301.9826979999925,,,,,,,,,301.9717028999876,302.0756029999902,302.8805009999924,302.85985919999075,302.85991410000133,302.8805009999924,302.8805009999924,302.8805009999924,,304.3746711999993,left,1.0,50.00047680000716,,,,,,,,,,,,,,,,,,,,,,,,,,,,,,sub-001,1.0,random_dot,56.06550244858747,
right,right,speed,,,,,0.0,0.0,0.0,1.0,19.0,1.0,39.0,1.0,304.3918189999968,,,,,,,,,304.3768156000005,305.5916002999875,306.3971851999959,306.3759835999954,306.37602119999065,306.3971851999959,306.3971851999959,306.3971851999959,,308.74967579999065,right,1.0,50.87695849999727,,,,,,,,,,,,,,,,,,,,,,,,,,,,,,sub-001,1.0,random_dot,56.06550244858747,
left,left,speed,,,,,0.0,0.0,0.0,1.0,20.0,0.0,40.0,0.0,308.76403559999017,,,,,,,,,308.75201399999787,309.9574737999937,310.7623403999896,310.7416531999916,310.741692399999,310.7623403999896,310.7623403999896,310.7623403999896,,312.8559031999903,left,1.0,50.6054756000085,,,,,,,,,,,,,,,,,,,,,,,,,,,,,,sub-001,1.0,random_dot,56.06550244858747,
right,right,speed,,,,,0.0,0.0,0.0,1.0,20.0,1.0,41.0,1.0,312.873334399992,,,,,,,,,312.85805899999104,312.95807159999094,313.76466909999726,313.74333769999794,313.743376399987,313.76466909999726,313.76466909999726,313.76466909999726,,316.44722619999084,right,1.0,51.20601710000483,,,,,,,,,,,,,,,,,,,,,,,,,,,,,,sub-001,1.0,random_dot,56.06550244858747,
right,right,speed,,,,,0.0,0.0,0.0,1.0,21.0,0.0,42.0,1.0,316.4624279999989,,,,,,,,,316.4497272000008,316.8064463999908,317.6284153999877,317.60695279999345,317.60699139999633,317.6284153999877,317.6284153999877,317.6284153999877,322.6248014000012,323.1221796999889,right,1.0,54.00636360001226,,,,,,,,,,,,,,,,,,,,,,,,,,,,,,sub-001,1.0,random_dot,56.06550244858747,
left,left,speed,,,,,0.0,0.0,0.0,1.0,21.0,1.0,43.0,0.0,323.1417521999974,,,,,,,,,323.1245638999972,323.4746860999876,324.2825584999955,324.2609945000004,324.2610357999947,324.2825584999955,324.2825584999955,324.2825584999955,,327.01382239999657,right,0.0,51.25435170000128,,,,,,,,,,,,,,,,,,,,,,,,,,,,,,sub-001,1.0,random_dot,56.06550244858747,
right,right,speed,,,,,0.0,0.0,0.0,1.0,22.0,0.0,44.0,1.0,327.0275277999899,,,,,,,,,327.01610949999304,327.1242409999977,327.9364204000012,327.91213849998894,327.9121782000002,327.9364204000012,327.9364204000012,327.9364204000012,,329.2224322999973,left,0.0,49.80287519999547,,,,,,,,,,,,,,,,,,,,,,,,,,,,,,sub-001,1.0,random_dot,56.06550244858747,
left,left,speed,,,,,0.0,0.0,0.0,1.0,22.0,1.0,45.0,0.0,329.2422957999952,,,,,,,,,329.2247145000001,329.3425078,330.1453668999893,330.12838629999897,330.128426899988,330.1453668999893,330.1453668999893,330.1453668999893,,331.21399949998886,left,1.0,49.59455270000035,,,,,,,,,,,,,,,,,,,,,,,,,,,,,,sub-001,1.0,random_dot,56.06550244858747,
left,left,speed,,,,,0.0,0.0,0.0,1.0,23.0,0.0,46.0,0.0,331.2291690999991,,,,,,,,,331.21628759999294,331.3272289999877,332.1288682999875,332.11162830000103,332.1116694999946,332.1288682999875,332.1288682999875,332.1288682999875,,333.1115204999951,left,1.0,49.50646950000373,,,,,,,,,,,,,,,,,,,,,,,,,,,,,,sub-001,1.0,random_dot,56.06550244858747,
right,right,speed,,,,,0.0,0.0,0.0,1.0,23.0,1.0,47.0,1.0,333.12821229999827,,,,,,,,,333.11412779999955,334.3226653999882,335.1301054999931,335.10896579999826,335.1090077999979,335.1301054999931,335.1301054999931,335.1301054999931,,337.1945596000005,right,1.0,50.578097899997374,,,,,,,,,,,,,,,,,,,,,,,,,,,,,,sub-001,1.0,random_dot,56.06550244858747,
right,right,speed,,,,,0.0,0.0,0.0,1.0,24.0,0.0,48.0,1.0,337.2079517999955,,,,,,,,,337.19683789998817,337.30874049999693,338.12741149999783,338.1102924000006,338.1103341999988,338.12741149999783,338.12741149999783,338.12741149999783,,340.1271553999977,left,0.0,50.512460300000384,,,,,,,,,,,,,,,,,,,,,,,,,,,,,,sub-001,1.0,random_dot,56.06550244858747,
left,left,speed,,,,,0.0,0.0,0.0,1.0,24.0,1.0,49.0,0.0,340.14178969999193,,,,,,,,,340.12938269998995,340.2427022999909,341.0599810999993,341.0428861999972,341.0429274999915,341.0599810999993,341.0599810999993,341.0599810999993,,343.08632649999345,left,1.0,50.54820920000202,,,,,,,,,,,,,,,,,,,,,,,,,,,,,,sub-001,1.0,random_dot,56.06550244858747,
right,right,speed,,,,,0.0,0.0,0.0,1.0,25.0,0.0,50.0,1.0,343.10679479999817,,,,,,,,,343.0886240999971,343.44215769998846,344.261929100001,344.24081429999205,344.2408594000008,344.261929100001,344.261929100001,344.261929100001,,345.793457199994,left,0.0,50.03820320001978,,,,,,,,,,,,,,,,,,,,,,,,,,,,,,sub-001,1.0,random_dot,56.06550244858747,
left,left,speed,,,,,0.0,0.0,0.0,1.0,25.0,1.0,51.0,0.0,345.8066801999957,,,,,,,,,345.79571269999724,346.60406259998854,347.40963609999744,347.39187429999583,347.39191479999863,347.40963609999744,347.40963609999744,347.40963609999744,352.4176585999958,353.0753643999924,right,0.0,54.17084839999734,,,,,,,,,,,,,,,,,,,,,,,,,,,,,,sub-001,1.0,random_dot,56.06550244858747,
left,left,speed,,,,,0.0,0.0,0.0,1.0,26.0,0.0,52.0,0.0,353.08809619999374,,,,,,,,,353.0776626000006,354.2858839999972,355.0968380999984,355.07389309999417,355.07394059999206,355.0968380999984,355.0968380999984,355.0968380999984,,356.36556059999566,left,1.0,49.790257700005895,,,,,,,,,,,,,,,,,,,,,,,,,,,,,,sub-001,1.0,random_dot,56.06550244858747,
right,right,speed,,,,,0.0,0.0,0.0,1.0,26.0,1.0,53.0,1.0,356.38511609999114,,,,,,,,,356.3678163000004,356.7230694999889,357.5499131999968,357.5234716999985,357.52351119999366,357.5499131999968,357.5499131999968,357.5499131999968,,359.6744061999925,right,1.0,50.646424000005936,,,,,,,,,,,,,,,,,,,,,,,,,,,,,,sub-001,1.0,random_dot,56.06550244858747,
left,left,speed,,,,,0.0,0.0,0.0,1.0,27.0,0.0,54.0,0.0,359.6875728999876,,,,,,,,,359.67670359999465,360.484928299993,361.2925317999907,361.2712666999869,361.2713116999949,361.2925317999907,361.2925317999907,361.2925317999907,,364.9424135000008,left,1.0,52.15353870000399,,,,,,,,,,,,,,,,,,,,,,,,,,,,,,sub-001,1.0,random_dot,56.06550244858747,
right,right,speed,,,,,0.0,0.0,0.0,1.0,27.0,1.0,55.0,1.0,364.9552792999893,,,,,,,,,364.9447865999973,365.05315639999753,365.85505600000033,365.8381530999905,365.83819599999697,365.85505600000033,365.85505600000033,365.85505600000033,,366.87344089998805,right,1.0,49.54246520000743,,,,,,,,,,,,,,,,,,,,,,,,,,,,,,sub-001,1.0,random_dot,56.06550244858747,
left,left,speed,,,,,0.0,0.0,0.0,1.0,28.0,0.0,56.0,0.0,366.89662609998777,,,,,,,,,366.8758544999873,368.0835831000004,368.896494399989,368.8716026999901,368.8716448999912,368.896494399989,368.896494399989,368.896494399989,,370.158763799991,left,1.0,49.784286400012206,,,,,,,,,,,,,,,,,,,,,,,,,,,,,,sub-001,1.0,random_dot,56.06550244858747,
right,right,speed,,,,,0.0,0.0,0.0,1.0,28.0,1.0,57.0,1.0,370.1786834999948,,,,,,,,,370.16100059999735,370.9690476999968,371.7901943999896,371.7685581999976,371.7685980999959,371.7901943999896,371.7901943999896,371.7901943999896,,372.81503109999176,right,1.0,49.52739030000521,,,,,,,,,,,,,,,,,,,,,,,,,,,,,,sub-001,1.0,random_dot,56.06550244858747,
left,left,speed,,,,,0.0,0.0,0.0,1.0,29.0,0.0,58.0,0.0,372.8343284000002,,,,,,,,,372.8173154999968,373.6324109999987,374.4452433999977,374.4211917999928,374.4212311999872,374.4452433999977,374.4452433999977,374.4452433999977,,375.4216081999912,left,1.0,49.49043829999573,,,,,,,,,,,,,,,,,,,,,,,,,,,,,,sub-001,1.0,random_dot,56.06550244858747,
right,right,speed,,,,,0.0,0.0,0.0,1.0,29.0,1.0,59.0,1.0,375.4352242999885,,,,,,,,,375.423901999995,375.5332731999952,376.3367472999962,376.3201113999967,376.3201514999964,376.3367472999962,376.3367472999962,376.3367472999962,,377.147083799995,right,1.0,49.31364760000724,,,,,,,,,,,,,,,,,,,,,,,,,,,,,,sub-001,1.0,random_dot,56.06550244858747,
,,speed,,,,,0.0,0.0,0.0,1.0,,,,,,,,,,,,,,,,,,,,,,,,,,,,,,,,,,,,,,,,,,,,,,,,,,,,,,,,sub-001,1.0,random_dot,56.06550244858747,
left,left,accuracy,,,,,0.0,1.0,1.0,0.0,0.0,0.0,0.0,0.0,384.56119089999993,,,,,,,,,384.548801500001,385.3469072000007,386.1536841999914,386.1332331999874,386.133277099987,386.1536841999914,386.1536841999914,386.1536841999914,,387.2051073999901,left,1.0,49.55789480000385,,,,,,,,,,,,,,,,,,,,377.1491203999904,377.180048299997,377.180048299997,384.53383570000005,space,55.87518000001728,,,,,sub-001,1.0,random_dot,56.06550244858747,
right,right,accuracy,,,,,0.0,1.0,1.0,0.0,0.0,1.0,1.0,1.0,387.2188808999927,,,,,,,,,387.2079145999887,388.414987799988,389.22012139999424,389.1991785999999,389.1992192999896,389.22012139999424,389.22012139999424,389.22012139999424,,389.95519529999,right,1.0,49.24959160000435,,,,,,,,,,,,,,,,,,,,,,,,,,,,,,sub-001,1.0,random_dot,56.06550244858747,
right,right,accuracy,,,,,0.0,1.0,1.0,0.0,1.0,0.0,2.0,1.0,389.974750999987,,,,,,,,,389.9574795999943,390.0632312999951,390.8714717999974,390.8470117999968,390.8470509999897,390.8714717999974,390.8714717999974,390.8714717999974,,392.2612783999939,right,1.0,49.90349880000576,,,,,,,,,,,,,,,,,,,,,,,,,,,,,,sub-001,1.0,random_dot,56.06550244858747,
left,left,accuracy,,,,,0.0,1.0,1.0,0.0,1.0,1.0,3.0,0.0,392.28168649999134,,,,,,,,,392.2635341999994,392.6300162999978,393.4363847999921,393.4158308999904,393.4158787999913,393.4363847999921,393.4363847999921,393.4363847999921,,394.571403199996,left,1.0,49.65974060000735,,,,,,,,,,,,,,,,,,,,,,,,,,,,,,sub-001,1.0,random_dot,56.06550244858747,
right,right,accuracy,,,,,0.0,1.0,1.0,0.0,2.0,0.0,4.0,1.0,394.5910867999919,,,,,,,,,394.57369379999,395.3789477999962,396.1869659999938,396.1631557999936,396.1631960999948,396.1869659999938,396.1869659999938,396.1869659999938,,397.56044380000094,right,1.0,49.89583930000663,,,,,,,,,,,,,,,,,,,,,,,,,,,,,,sub-001,1.0,random_dot,56.06550244858747,
left,left,accuracy,,,,,0.0,1.0,1.0,0.0,2.0,1.0,5.0,0.0,397.5831723999872,,,,,,,,,397.562917999996,398.7744663999911,399.5782666999876,399.5583927999978,399.55843099999765,399.5782666999876,399.5782666999876,399.5782666999876,,400.3585326999892,left,1.0,49.30157110000437,,,,,,,,,,,,,,,,,,,,,,,,,,,,,,sub-001,1.0,random_dot,56.06550244858747,
left,left,accuracy,,,,,0.0,1.0,1.0,0.0,3.0,0.0,6.0,0.0,400.3734612999978,,,,,,,,,400.3605436999933,400.7232384999952,401.5264838000003,401.5088351000013,401.5088725999958,401.5264838000003,401.5264838000003,401.5264838000003,,402.4533453999902,left,1.0,49.44321350000973,,,,,,,,,,,,,,,,,,,,,,,,,,,,,,sub-001,1.0,random_dot,56.06550244858747,
right,right,accuracy,,,,,0.0,1.0,1.0,0.0,3.0,1.0,7.0,1.0,402.4734788999922,,,,,,,,,402.4555685999949,403.2564050999936,404.0591947999928,404.04064639999706,404.0406836999901,404.0591947999928,404.0591947999928,404.0591947999928,,404.8906736999925,right,1.0,49.33761020000384,,,,,,,,,,,,,,,,,,,,,,,,,,,,,,sub-001,1.0,random_dot,56.06550244858747,
right,right,accuracy,,,,,0.0,1.0,1.0,0.0,4.0,0.0,8.0,1.0,404.9057534999884,,,,,,,,,404.89274879998993,405.2559098999918,406.05919139999605,406.0403071999899,406.0403443999967,406.05919139999605,406.05919139999605,406.05919139999605,,406.8586234999966,right,1.0,49.319835500005865,,,,,,,,,,,,,,,,,,,,,,,,,,,,,,sub-001,1.0,random_dot,56.06550244858747,
left,left,accuracy,,,,,0.0,1.0,1.0,0.0,4.0,1.0,9.0,0.0,406.8730091999896,,,,,,,,,406.8606662999955,407.22210549999727,408.0240183999995,408.0059140999947,408.00595029999386,408.0240183999995,408.0240183999995,408.0240183999995,,408.74432389999856,left,1.0,49.24382980000519,,,,,,,,,,,,,,,,,,,,,,,,,,,,,,sub-001,1.0,random_dot,56.06550244858747,
left,left,accuracy,,,,,0.0,1.0,1.0,0.0,5.0,0.0,10.0,0.0,408.7601116000005,,,,,,,,,408.7466839999979,408.8567432999989,409.66009979999217,409.64010679999774,409.6401454000006,409.66009979999217,409.66009979999217,409.66009979999217,,411.2962598999875,left,1.0,50.14796510001179,,,,,,,,,,,,,,,,,,,,,,,,,,,,,,sub-001,1.0,random_dot,56.06550244858747,
right,right,accuracy,,,,,0.0,1.0,1.0,0.0,5.0,1.0,11.0,1.0,411.308600999997,,,,,,,,,411.29847779999545,412.504011500001,413.3067664999981,413.288455899994,413.28850689998944,413.3067664999981,413.3067664999981,413.3067664999981,,413.99494419999246,right,1.0,49.21307120000711,,,,,,,,,,,,,,,,,,,,,,,,,,,,,,sub-001,1.0,random_dot,56.06550244858747,
left,left,accuracy,,,,,0.0,1.0,1.0,0.0,6.0,0.0,12.0,0.0,414.0085929999914,,,,,,,,,413.9974528999883,414.1038091999944,414.9078420000005,414.8883079999941,414.8883452000009,414.9078420000005,414.9078420000005,414.9078420000005,,415.9278447999968,left,1.0,49.542851200007135,,,,,,,,,,,,,,,,,,,,,,,,,,,,,,sub-001,1.0,random_dot,56.06550244858747,
right,right,accuracy,,,,,0.0,1.0,1.0,0.0,6.0,1.0,13.0,1.0,415.9414198999875,,,,,,,,,415.9302839999873,416.73709809999855,417.5410971999954,417.5224712999916,417.5225099999952,417.5410971999954,417.5410971999954,417.5410971999954,,418.1563058999891,right,1.0,49.135695400007535,,,,,,,,,,,,,,,,,,,,,,,,,,,,,,sub-001,1.0,random_dot,56.06550244858747,
right,right,accuracy,,,,,0.0,1.0,1.0,0.0,7.0,0.0,14.0,1.0,418.1715584999911,,,,,,,,,418.15841369998816,418.2697857999883,419.073759699997,419.0549073000002,419.05494519999775,419.073759699997,419.073759699997,419.073759699997,,422.1134610000008,left,0.0,51.54644870001357,,,,,,,,,,,,,,,,,,,,,,,,,,,,,,sub-001,1.0,random_dot,56.06550244858747,
left,left,accuracy,,,,,0.0,1.0,1.0,0.0,7.0,1.0,15.0,0.0,422.1256425999891,,,,,,,,,422.1156372999976,422.22100879999925,423.02786699999706,423.0083311999915,423.0083704999997,423.02786699999706,423.02786699999706,423.02786699999706,,427.6205588000012,left,1.0,53.1060320000106,,,,,,,,,,,,,,,,,,,,,,,,,,,,,,sub-001,1.0,random_dot,56.06550244858747,
left,left,accuracy,,,,,0.0,1.0,1.0,0.0,8.0,0.0,16.0,0.0,427.6389546999999,,,,,,,,,427.6227230999939,428.4361954999913,429.24173119998886,429.2201366999943,429.2201743999904,429.24173119998886,429.24173119998886,429.24173119998886,,430.2684997999895,left,1.0,49.532441500006826,,,,,,,,,,,,,,,,,,,,,,,,,,,,,,sub-001,1.0,random_dot,56.06550244858747,
right,right,accuracy,,,,,0.0,1.0,1.0,0.0,8.0,1.0,17.0,1.0,430.2860022999957,,,,,,,,,430.2706732999941,430.6194985999901,431.4248662999889,431.4032422999881,431.4032823999878,431.4248662999889,431.4248662999889,431.4248662999889,,432.55655090000073,right,1.0,49.64985240000533,,,,,,,,,,,,,,,,,,,,,,,,,,,,,,sub-001,1.0,random_dot,56.06550244858747,
left,left,accuracy,,,,,0.0,1.0,1.0,0.0,9.0,0.0,18.0,0.0,432.5737720999896,,,,,,,,,432.5589302000008,433.7684382999869,434.5733526999975,434.5525189999898,434.5525570999889,434.5733526999975,434.5733526999975,434.5733526999975,,436.4342955999891,left,1.0,50.36919350000972,,,,,,,,,,,,,,,,,,,,,,,,,,,,,,sub-001,1.0,random_dot,56.06550244858747,
right,right,accuracy,,,,,0.0,1.0,1.0,0.0,9.0,1.0,19.0,1.0,436.45136289999937,,,,,,,,,436.43647749999946,436.5517250999983,437.3569543999911,437.33543039999495,437.33546919999935,437.3569543999911,437.3569543999911,437.3569543999911,,439.0605112999911,left,0.0,50.22775520000141,,,,,,,,,,,,,,,,,,,,,,,,,,,,,,sub-001,1.0,random_dot,56.06550244858747,
right,right,accuracy,,,,,0.0,1.0,1.0,0.0,10.0,0.0,20.0,1.0,439.0741019999987,,,,,,,,,439.0627969999914,439.17550889999256,439.9956702999916,439.9712307999871,439.9712686999992,439.9956702999916,439.9956702999916,439.9956702999916,,442.7251714000013,right,1.0,51.239904900008696,,,,,,,,,,,,,,,,,,,,,,,,,,,,,,sub-001,1.0,random_dot,56.06550244858747,
left,left,accuracy,,,,,0.0,1.0,1.0,0.0,10.0,1.0,21.0,0.0,442.7388376999879,,,,,,,,,442.7274693999934,443.0864690999879,443.8957067999872,443.8704521999898,443.8704909999942,443.8957067999872,443.8957067999872,443.8957067999872,,447.1991013999941,left,1.0,51.80649010001798,,,,,,,,,,,,,,,,,,,,,,,,,,,,,,sub-001,1.0,random_dot,56.06550244858747,
right,right,accuracy,,,,,0.0,1.0,1.0,0.0,11.0,0.0,22.0,1.0,447.21822039999824,,,,,,,,,447.2013847999915,447.3050263999903,448.1079128999991,448.0905599999969,448.0906134999968,448.1079128999991,448.1079128999991,448.1079128999991,,449.207573599997,right,1.0,49.60759490000783,,,,,,,,,,,,,,,,,,,,,,,,,,,,,,sub-001,1.0,random_dot,56.06550244858747,
left,left,accuracy,,,,,0.0,1.0,1.0,0.0,11.0,1.0,23.0,0.0,449.2207549000013,,,,,,,,,449.2098758999928,450.4187298999896,451.22711599999457,451.2026789999945,451.2027181000012,451.22711599999457,451.22711599999457,451.22711599999457,,452.1741426999943,right,0.0,49.46263189999445,,,,,,,,,,,,,,,,,,,,,,,,,,,,,,sub-001,1.0,random_dot,56.06550244858747,
left,left,accuracy,,,,,0.0,1.0,1.0,0.0,12.0,0.0,24.0,0.0,452.1876204,,,,,,,,,452.1764003999997,453.4018520999962,454.2084826999926,454.18774069999927,454.1877854999912,454.2084826999926,454.2084826999926,454.2084826999926,,455.2743962999957,left,1.0,49.58561310000368,,,,,,,,,,,,,,,,,,,,,,,,,,,,,,sub-001,1.0,random_dot,56.06550244858747,
right,right,accuracy,,,,,0.0,1.0,1.0,0.0,12.0,1.0,25.0,1.0,455.2878103999974,,,,,,,,,455.2767067999957,455.3891347999888,456.2060103999975,456.1826236999914,456.1826654999895,456.2060103999975,456.2060103999975,456.2060103999975,461.2020170999895,462.2119532999932,right,1.0,54.52613290000591,,,,,,,,,,,,,,,,,,,,,,,,,,,,,,sub-001,1.0,random_dot,56.06550244858747,
left,left,accuracy,,,,,0.0,1.0,1.0,0.0,13.0,0.0,26.0,0.0,462.2316017999983,,,,,,,,,462.2141992999968,462.5661385999993,463.3748521999951,463.3500919999933,463.35013069999695,463.3748521999951,463.3748521999951,463.3748521999951,,464.23189309999,left,1.0,49.360757899994496,,,,,,,,,,,,,,,,,,,,,,,,,,,,,,sub-001,1.0,random_dot,56.06550244858747,
right,right,accuracy,,,,,0.0,1.0,1.0,0.0,13.0,1.0,27.0,1.0,464.25110579999455,,,,,,,,,464.23416429999634,464.5995801999961,465.4086046000011,465.38324830000056,465.38331779999135,465.4086046000011,465.4086046000011,465.4086046000011,,467.4887516999879,right,1.0,50.59369700001844,,,,,,,,,,,,,,,,,,,,,,,,,,,,,,sub-001,1.0,random_dot,56.06550244858747,
right,right,accuracy,,,,,0.0,1.0,1.0,0.0,14.0,0.0,28.0,1.0,467.50222719999147,,,,,,,,,467.4910125999886,468.69872109999415,469.5055626999965,469.48533809999935,469.4853836999973,469.5055626999965,469.5055626999965,469.5055626999965,,472.99772449999,right,1.0,51.9970381000021,,,,,,,,,,,,,,,,,,,,,,,,,,,,,,sub-001,1.0,random_dot,56.06550244858747,
left,left,accuracy,,,,,0.0,1.0,1.0,0.0,14.0,1.0,29.0,0.0,473.0174240999913,,,,,,,,,473.0000317999948,473.3640756999957,474.1717956999928,474.1501442000008,474.1501825000014,474.1717956999928,474.1717956999928,474.1717956999928,,475.61418669999694,left,1.0,49.95727740001166,,,,,,,,,,,,,,,,,,,,,,,,,,,,,,sub-001,1.0,random_dot,56.06550244858747,
left,left,accuracy,,,,,0.0,1.0,1.0,0.0,15.0,0.0,30.0,0.0,475.63398959999904,,,,,,,,,475.6164873999951,475.9683585999883,476.7893984999973,476.7667696999997,476.7668120999879,476.7893984999973,476.7893984999973,476.7893984999973,,479.5457143999956,left,1.0,51.28261610001209,,,,,,,,,,,,,,,,,,,,,,,,,,,,,,sub-001,1.0,random_dot,56.06550244858747,
right,right,accuracy,,,,,0.0,1.0,1.0,0.0,15.0,1.0,31.0,1.0,479.565537699993,,,,,,,,,479.5479794999992,479.90207289998943,480.7204369999963,480.6994275999896,480.6994713999884,480.7204369999963,480.7204369999963,480.7204369999963,,482.26103009999497,right,1.0,50.0510740000027,,,,,,,,,,,,,,,,,,,,,,,,,,,,,,sub-001,1.0,random_dot,56.06550244858747,
left,left,accuracy,,,,,0.0,1.0,1.0,0.0,16.0,0.0,32.0,0.0,482.2812024999876,,,,,,,,,482.2632868999936,482.6319770999981,483.4342738999985,483.416779399995,483.4168251999945,483.4342738999985,483.4342738999985,483.4342738999985,,484.11730729999545,left,1.0,49.2044154000032,,,,,,,,,,,,,,,,,,,,,,,,,,,,,,sub-001,1.0,random_dot,56.06550244858747,
right,right,accuracy,,,,,0.0,1.0,1.0,0.0,16.0,1.0,33.0,1.0,484.1306646999874,,,,,,,,,484.1195531999984,485.3293260999926,486.13603069999954,486.1154674999998,486.115512999997,486.13603069999954,486.13603069999954,486.13603069999954,,488.8935927999992,left,0.0,51.270714400016,,,,,,,,,,,,,,,,,,,,,,,,,,,,,,sub-001,1.0,random_dot,56.06550244858747,
left,left,accuracy,,,,,0.0,1.0,1.0,0.0,17.0,0.0,34.0,0.0,488.9159620999999,,,,,,,,,488.8959140999941,489.711851,490.51836799999,490.497944799994,490.4979906999943,490.51836799999,490.51836799999,490.51836799999,,491.45706380000047,left,1.0,49.44432230001257,,,,,,,,,,,,,,,,,,,,,,,,,,,,,,sub-001,1.0,random_dot,56.06550244858747,
right,right,accuracy,,,,,0.0,1.0,1.0,0.0,17.0,1.0,35.0,1.0,491.4757281999919,,,,,,,,,491.4593784999888,492.6655585999979,493.48433939999086,493.4637677999999,493.4638137000002,493.48433939999086,493.48433939999086,493.48433939999086,,495.9920622999925,left,0.0,51.026047000006656,,,,,,,,,,,,,,,,,,,,,,,,,,,,,,sub-001,1.0,random_dot,56.06550244858747,
right,right,accuracy,,,,,0.0,1.0,1.0,0.0,18.0,0.0,36.0,1.0,496.0115679999872,,,,,,,,,495.99432289999095,496.7930762999895,497.6050933999941,497.581457399996,497.5814982999873,497.6050933999941,497.6050933999941,497.6050933999941,,499.2481264999951,right,1.0,50.169337400002405,,,,,,,,,,,,,,,,,,,,,,,,,,,,,,sub-001,1.0,random_dot,56.06550244858747,
left,left,accuracy,,,,,0.0,1.0,1.0,0.0,18.0,1.0,37.0,0.0,499.26562939998985,,,,,,,,,499.25062239999534,500.4599164999963,501.2644403999875,501.2471996999957,501.2472401999985,501.2644403999875,501.2644403999875,501.2644403999875,,503.107917699992,left,1.0,50.359330999999656,,,,,,,,,,,,,,,,,,,,,,,,,,,,,,sub-001,1.0,random_dot,56.06550244858747,
right,right,accuracy,,,,,0.0,1.0,1.0,0.0,19.0,0.0,38.0,1.0,503.1279325999931,,,,,,,,,503.1101797999872,503.4614317999949,504.2813250999898,504.2587835000013,504.2588220999896,504.2813250999898,504.2813250999898,504.2813250999898,,507.3727409999992,right,1.0,51.61134350000066,,,,,,,,,,,,,,,,,,,,,,,,,,,,,,sub-001,1.0,random_dot,56.06550244858747,
left,left,accuracy,,,,,0.0,1.0,1.0,0.0,19.0,1.0,39.0,0.0,507.3928918999882,,,,,,,,,507.37502209999366,507.7267122999911,508.5303838999971,508.5130553999916,508.51309709998895,508.5303838999971,508.5303838999971,508.5303838999971,,512.415128099994,left,1.0,52.39511440000206,,,,,,,,,,,,,,,,,,,,,,,,,,,,,,sub-001,1.0,random_dot,56.06550244858747,
left,left,accuracy,,,,,0.0,1.0,1.0,0.0,20.0,0.0,40.0,0.0,512.4286714999907,,,,,,,,,512.417419999998,513.6244659999938,514.4310378999944,514.410180299994,514.4102246999973,514.4310378999944,514.4310378999944,514.4310378999944,519.4253251999908,519.9434517999907,left,1.0,54.0337506000069,,,,,,,,,,,,,,,,,,,,,,,,,,,,,,sub-001,1.0,random_dot,56.06550244858747,
right,right,accuracy,,,,,0.0,1.0,1.0,0.0,20.0,1.0,41.0,1.0,519.9607814999908,,,,,,,,,519.9458697999944,520.7559525999968,521.5643368999881,521.5406573999935,521.540696600001,521.5643368999881,521.5643368999881,521.5643368999881,,523.7035427999945,right,1.0,50.66509110000334,,,,,,,,,,,,,,,,,,,,,,,,,,,,,,sub-001,1.0,random_dot,56.06550244858747,
right,right,accuracy,,,,,0.0,1.0,1.0,0.0,21.0,0.0,42.0,1.0,523.7239157000004,,,,,,,,,523.7058202999906,524.9235140999954,525.7459543000004,525.7247716999991,525.7248180999886,525.7459543000004,525.7459543000004,525.7459543000004,530.7231306999893,531.1958398999996,left,0.0,53.97074740000244,,,,,,,,,,,,,,,,,,,,,,,,,,,,,,sub-001,1.0,random_dot,56.06550244858747,
left,left,accuracy,,,,,0.0,1.0,1.0,0.0,21.0,1.0,43.0,0.0,531.2156219999888,,,,,,,,,531.1981162000011,532.0037288999883,532.809276,532.7918487999996,532.7918884999963,532.809276,532.809276,532.809276,,534.7751134999999,left,1.0,50.48517559999891,,,,,,,,,,,,,,,,,,,,,,,,,,,,,,sub-001,1.0,random_dot,56.06550244858747,
right,right,accuracy,,,,,0.0,1.0,1.0,0.0,22.0,0.0,44.0,1.0,534.7884713999956,,,,,,,,,534.777362599998,534.8889465999964,535.7110049999901,535.6886023999978,535.6886424999975,535.7110049999901,535.7110049999901,535.7110049999901,,536.7091940999962,right,1.0,49.5005771000142,,,,,,,,,,,,,,,,,,,,,,,,,,,,,,sub-001,1.0,random_dot,56.06550244858747,
left,left,accuracy,,,,,0.0,1.0,1.0,0.0,22.0,1.0,45.0,0.0,536.7218205999961,,,,,,,,,536.7114825999888,537.5197412999987,538.3283177999983,538.3032830000011,538.303321799991,538.3283177999983,538.3283177999983,538.3283177999983,,539.4681958000001,left,1.0,49.65126460000465,,,,,,,,,,,,,,,,,,,,,,,,,,,,,,sub-001,1.0,random_dot,56.06550244858747,
right,right,accuracy,,,,,0.0,1.0,1.0,0.0,23.0,0.0,46.0,1.0,539.4879012999882,,,,,,,,,539.4704662000004,539.5716001999972,540.3744301999977,540.3570114999893,540.3570516999898,540.3744301999977,540.3744301999977,540.3744301999977,,541.4924605999986,right,1.0,49.63958490001096,,,,,,,,,,,,,,,,,,,,,,,,,,,,,,sub-001,1.0,random_dot,56.06550244858747,
left,left,accuracy,,,,,0.0,1.0,1.0,0.0,23.0,1.0,47.0,0.0,541.5061290000012,,,,,,,,,541.4948039999872,541.6027715999953,542.4163110999943,542.3907852999982,542.3908315000008,542.4163110999943,542.4163110999943,542.4163110999943,,543.3765965999919,left,1.0,49.476012200000696,,,,,,,,,,,,,,,,,,,,,,,,,,,,,,sub-001,1.0,random_dot,56.06550244858747,
right,right,accuracy,,,,,0.0,1.0,1.0,0.0,24.0,0.0,48.0,1.0,543.3901284999884,,,,,,,,,543.3788675999967,543.4876483999979,544.3091027999908,544.2885087999894,544.2885543000011,544.3091027999908,544.3091027999908,544.3091027999908,,545.2421483999933,right,1.0,49.435688800003845,,,,,,,,,,,,,,,,,,,,,,,,,,,,,,sub-001,1.0,random_dot,56.06550244858747,
left,left,accuracy,,,,,0.0,1.0,1.0,0.0,24.0,1.0,49.0,0.0,545.2549002000014,,,,,,,,,545.2444932999933,545.6175823999947,546.4254405999964,546.4046968999901,546.4047420999996,546.4254405999964,546.4254405999964,546.4254405999964,,550.805299899992,left,1.0,52.90454820000741,,,,,,,,,,,,,,,,,,,,,,,,,,,,,,sub-001,1.0,random_dot,56.06550244858747,
right,right,accuracy,,,,,0.0,1.0,1.0,0.0,25.0,0.0,50.0,1.0,550.8221577999939,,,,,,,,,550.8078177999996,551.1685913999972,551.9738679000002,551.9526942999946,551.9527337999898,551.9738679000002,551.9738679000002,551.9738679000002,,552.9240863999876,right,1.0,49.45884560000559,,,,,,,,,,,,,,,,,,,,,,,,,,,,,,sub-001,1.0,random_dot,56.06550244858747,
left,left,accuracy,,,,,0.0,1.0,1.0,0.0,25.0,1.0,51.0,0.0,552.9374511999922,,,,,,,,,552.9263850999996,553.2861760999949,554.0883071999997,554.0715414000006,554.0715825999941,554.0883071999997,554.0883071999997,554.0883071999997,,555.0053292999946,left,1.0,49.438504700010526,,,,,,,,,,,,,,,,,,,,,,,,,,,,,,sub-001,1.0,random_dot,56.06550244858747,
left,left,accuracy,,,,,0.0,1.0,1.0,0.0,26.0,0.0,52.0,0.0,555.0186438999954,,,,,,,,,555.0076144999912,555.120316799992,555.9394858000014,555.9170401999872,555.9170798999985,555.9394858000014,555.9394858000014,555.9394858000014,,556.6391793999937,right,0.0,49.21721650000836,,,,,,,,,,,,,,,,,,,,,,,,,,,,,,sub-001,1.0,random_dot,56.06550244858747,
right,right,accuracy,,,,,0.0,1.0,1.0,0.0,26.0,1.0,53.0,1.0,556.6542120999948,,,,,,,,,556.6414777999889,557.8532800999965,558.6770892999921,558.6537320999923,558.6537724999944,558.6770892999921,558.6770892999921,558.6770892999921,,562.3632552999916,right,1.0,52.20434470001783,,,,,,,,,,,,,,,,,,,,,,,,,,,,,,sub-001,1.0,random_dot,56.06550244858747,
left,left,accuracy,,,,,0.0,1.0,1.0,0.0,27.0,0.0,54.0,0.0,562.3835626999935,,,,,,,,,562.3655087999941,563.566857400001,564.3692478999874,564.3522411999875,564.3522841999948,564.3692478999874,564.3692478999874,564.3692478999874,,565.2301828999916,left,1.0,49.38221520000661,,,,,,,,,,,,,,,,,,,,,,,,,,,,,,sub-001,1.0,random_dot,56.06550244858747,
right,right,accuracy,,,,,0.0,1.0,1.0,0.0,27.0,1.0,55.0,1.0,565.2505971999926,,,,,,,,,565.2324143000005,565.3341897999926,566.1662391999998,566.1430184999917,566.1430580999877,566.1662391999998,566.1662391999998,566.1662391999998,,568.6392587999871,right,1.0,50.98991360000218,,,,,,,,,,,,,,,,,,,,,,,,,,,,,,sub-001,1.0,random_dot,56.06550244858747,
left,left,accuracy,,,,,0.0,1.0,1.0,0.0,28.0,0.0,56.0,0.0,568.6533725999907,,,,,,,,,568.6444062999944,569.8433334000001,570.6473776999919,570.6282039999933,570.6282886999979,570.6473776999919,570.6473776999919,570.6473776999919,,571.6068945000006,left,1.0,49.47967350001272,,,,,,,,,,,,,,,,,,,,,,,,,,,,,,sub-001,1.0,random_dot,56.06550244858747,
right,right,accuracy,,,,,0.0,1.0,1.0,0.0,28.0,1.0,57.0,1.0,571.6209384999966,,,,,,,,,571.6121122999903,571.9596319999982,572.7639303999895,572.7447382999962,572.7448242999963,572.7639303999895,572.7639303999895,572.7639303999895,,573.8953685999877,right,1.0,49.65098320001562,,,,,,,,,,,,,,,,,,,,,,,,,,,,,,sub-001,1.0,random_dot,56.06550244858747,
left,left,accuracy,,,,,0.0,1.0,1.0,0.0,29.0,0.0,58.0,0.0,573.9113922999968,,,,,,,,,573.9008793999965,574.0108949999994,574.8302132999961,574.8108707999927,574.8109559000004,574.8302132999961,574.8302132999961,574.8302132999961,,575.7389801999961,left,1.0,49.418628600018565,,,,,,,,,,,,,,,,,,,,,,,,,,,,,,sub-001,1.0,random_dot,56.06550244858747,
right,right,accuracy,,,,,0.0,1.0,1.0,0.0,29.0,1.0,59.0,1.0,575.752255799991,,,,,,,,,575.7442932999984,576.5421455999895,577.3465790999908,577.3270226999884,577.3271073999931,577.3465790999908,577.3465790999908,577.3465790999908,,578.0524831999937,right,1.0,49.2157589999988,,,,,,,,,,,,,,,,,,,,,,,,,,,,,,sub-001,1.0,random_dot,56.06550244858747,
,,accuracy,,,,,0.0,1.0,1.0,0.0,,,,,,,,,,,,,,,,,,,,,,,,,,,,,,,,,,,,,,,,,,,,,,,,,,,,,,,,sub-001,1.0,random_dot,56.06550244858747,
,,,,,,,,,,,,,,,,,,,,,,,,,,,,,,,,,,,,,,,,,,,,,,,,,,,,,,,,,,,,,,,578.0562439999921,578.0732983999915,583.0603645999945,sub-001,,,,
