direction,corrAns,randomInstr,practice_trials.thisRepN,practice_trials.thisTrialN,practice_trials.thisN,practice_trials.thisIndex,instr_trials.thisRepN,instr_trials.thisTrialN,instr_trials.thisN,instr_trials.thisIndex,test_trials.thisRepN,test_trials.thisTrialN,test_trials.thisN,test_trials.thisIndex,thisRow.t,notes,general_instruction.started,textGeneralInstr.started,respGeneralInstr.started,general_instruction.stopped,respGeneralInstr.keys,respGeneralInstr.rt,respGeneralInstr.duration,ITI.started,fixcross.started,fixcross.stopped,ITI.stopped,dots.started,backgroundDots.started,stimulusDots.started,respDots.started,dots.stopped,respDots.keys,respDots.corr,respDots.rt,respDots.duration,feedback.started,textFeedback.started,feedback.stopped,textFeedback.stopped,info.started,textInfo.started,keyRespInfo.started,info.stopped,keyRespInfo.keys,keyRespInfo.rt,keyRespInfo.duration,test_instruction.started,textTestInstr.started,respTestInstr.started,test_instruction.stopped,respTestInstr.keys,respTestInstr.rt,respTestInstr.duration,random_instruction.started,textRandomInstr.started,respRandomInstr.started,random_instruction.stopped,respRandomInstr.keys,respRandomInstr.rt,respRandomInstr.duration,goodbye.started,textGoodbye.started,participant,session,expName,frameRate,Unnamed: 71
,,,,,,,,,,,,,,,,,0.0050290999934077,0.009608699940145,0.009608699940145,25.24361229967326,space,37.03070930019021,,,,,,,,,,,,,,,,,,,,,,,,,,,,,,,,,,,,,,,,,,sub-171,1.0,random_dot,120.16212268344547,
right,right,,0.0,0.0,0.0,1.0,,,,,,,,,25.277068099938333,,,,,,,,,25.27343579987064,26.049930699635297,26.85213399957865,26.841911799740046,26.84192939987406,26.85213399957865,26.85213399957865,26.85213399957865,27.876283699646592,left,0.0,12.819464500527827,,27.87678339984268,27.886668999679387,28.383045999798924,,,,,,,,,,,,,,,,,,,,,,,,,sub-171,1.0,random_dot,120.16212268344547,
left,left,,0.0,1.0,1.0,0.0,,,,,,,,,28.391485899686813,,,,,,,,,28.383303999900814,28.733017399907112,29.533578099682927,29.524998900014907,29.525019199587405,29.533578099682927,29.533578099682927,29.533578099682927,31.23416389990598,left,1.0,13.49905430013314,,31.23455229960382,31.24235769966617,31.74076939979568,,,,,,,,,,,,,,,,,,,,,,,,,sub-171,1.0,random_dot,120.16212268344547,
right,right,,1.0,0.0,2.0,1.0,,,,,,,,,31.74907499970868,,,,,,,,,31.74110759980977,31.84086099965498,32.64143730001524,32.632741699926555,32.63276149984449,32.64143730001524,32.64143730001524,32.64143730001524,33.800720299594104,right,1.0,12.959521500393748,,33.801032699644566,33.80730149988085,34.29918079962954,34.30693449964747,,,,,,,,,,,,,,,,,,,,,,,,sub-171,1.0,random_dot,120.16212268344547,
left,left,,1.0,1.0,3.0,0.0,,,,,,,,,34.30693449964747,,,,,,,,,34.29952749982476,34.65701249986887,35.45763699989766,35.44896759977564,35.44898599991575,35.45763699989766,35.45763699989766,35.45763699989766,36.66675029974431,right,0.0,13.009758800268171,,36.6673116995953,36.673782399855554,37.16536360001192,37.17317229975015,,,,,,,,,,,,,,,,,,,,,,,,sub-171,1.0,random_dot,120.16212268344547,
left,left,,2.0,0.0,4.0,0.0,,,,,,,,,37.17317229975015,,,,,,,,,37.16566749988124,37.273227099794894,38.07408499997109,38.06513929972425,38.0651530995965,38.07408499997109,38.07408499997109,38.07408499997109,39.51628039963544,left,1.0,13.24281630013138,,39.51670329971239,39.52275729971007,40.01478269975632,40.02269109990448,,,,,,,,,,,,,,,,,,,,,,,,sub-171,1.0,random_dot,120.16212268344547,
right,right,,2.0,1.0,5.0,1.0,,,,,,,,,40.02269109990448,,,,,,,,,40.01508429972455,40.12270719977096,40.92339259991422,40.91488459985703,40.914903099648654,40.92339259991422,40.92339259991422,40.92339259991422,42.557606199756265,right,1.0,13.431564300321044,,42.55802679993212,42.56392619991675,43.05606059962884,43.063817799557,,,,,,,,,,,,,,,,,,,,,,,,sub-171,1.0,random_dot,120.16212268344547,
left,left,,3.0,0.0,6.0,0.0,,,,,,,,,43.063817799557,,,,,,,,,43.056372799910605,44.26363379973918,45.06444969959557,45.05570139968768,45.05571559956297,45.06444969959557,45.06444969959557,45.06444969959557,46.35670359991491,right,0.0,13.087565100286156,,46.3570996997878,46.3635079995729,46.85533989965916,46.86334259994328,,,,,,,,,,,,,,,,,,,,,,,,sub-171,1.0,random_dot,120.16212268344547,
right,right,,3.0,1.0,7.0,1.0,,,,,,,,,46.86334259994328,,,,,,,,,46.85563509957865,47.21327189961448,48.01396769983694,48.0053614997305,48.00538169965148,48.01396769983694,48.01396769983694,48.01396769983694,50.04836109979078,right,1.0,13.836428600363432,,50.0488051995635,50.05470569990575,50.54647249961272,50.55428029969335,,,,,,,,,,,,,,,,,,,,,,,,sub-171,1.0,random_dot,120.16212268344547,
right,right,,4.0,0.0,8.0,1.0,,,,,,,,,50.55428029969335,,,,,,,,,50.54677079990506,51.75415689963848,52.555042000021785,52.54628809960559,52.5463064997457,52.555042000021785,52.555042000021785,52.555042000021785,53.63906259974465,left,0.0,12.884169300086796,,53.63943389989436,53.64542199997232,54.137709399685264,54.14535279991105,,,,,,,,,,,,,,,,,,,,,,,,sub-171,1.0,random_dot,120.16212268344547,
left,left,,4.0,1.0,9.0,0.0,,,,,,,,,54.14535279991105,,,,,,,,,54.1380011998117,55.34545589983463,56.14611550001428,56.13742749998346,56.13744509965181,56.14611550001428,56.14611550001428,56.14611550001428,57.36348069971427,right,0.0,13.017923600506036,,57.3639793000184,57.37014999985695,57.86195079982281,57.86986069986597,,,,,,,,,,,,,,,,,,,,,,,,sub-171,1.0,random_dot,120.16212268344547,
left,left,,5.0,0.0,10.0,0.0,,,,,,,,,57.86986069986597,,,,,,,,,57.8622948997654,59.06960789998993,59.87038189964369,59.86153549980372,59.86154929967597,59.87038189964369,59.87038189964369,59.87038189964369,61.17923249956221,left,1.0,13.106540100183338,,61.17955319955945,61.186156099662185,61.677975999657065,61.68594260001555,,,,,,,,,,,,,,,,,,,,,,,,sub-171,1.0,random_dot,120.16212268344547,
right,right,,5.0,1.0,11.0,1.0,,,,,,,,,61.68594260001555,,,,,,,,,61.67827349994332,61.785829899832606,62.58677599998191,62.57783919991925,62.57785479957238,62.58677599998191,62.58677599998191,62.58677599998191,63.72068139957264,left,0.0,12.934687300119547,,63.72114159958437,63.72727439971641,64.2193262996152,64.22710339957848,,,,,,,,,,,,,,,,,,,,,,,,sub-171,1.0,random_dot,120.16212268344547,
left,left,,6.0,0.0,12.0,0.0,,,,,,,,,64.22710339957848,,,,,,,,,64.21965339966118,65.42706129979342,66.22791999997571,66.21889879973605,66.21891269972548,66.22791999997571,66.22791999997571,66.22791999997571,67.33679869957268,right,0.0,12.910679399967194,,67.33718829974532,67.34324539965019,67.83553809998557,67.84337219968438,,,,,,,,,,,,,,,,,,,,,,,,sub-171,1.0,random_dot,120.16212268344547,
right,right,,6.0,1.0,13.0,1.0,,,,,,,,,67.84337219968438,,,,,,,,,67.83582519972697,68.64310959959403,69.44392719957978,69.43518659984693,69.43520079972222,69.44392719957978,69.44392719957978,69.44392719957978,70.40285639977083,left,0.0,12.754196600522846,,70.40325560001656,70.40970179997385,70.9016494997777,70.90956129971892,,,,,,,,,,,,,,,,,,,,,,,,sub-171,1.0,random_dot,120.16212268344547,
left,left,,7.0,0.0,14.0,0.0,,,,,,,,,70.90956129971892,,,,,,,,,70.90197279956192,72.10936819994822,72.90990809956565,72.90130309993401,72.90132479975,72.90990809956565,72.90990809956565,72.90990809956565,73.90231709973887,left,1.0,12.794118500314651,,73.90268119983375,73.90886199986562,74.40110509982333,74.40874619968235,,,,,,,,,,,,,,,,,,,,,,,,sub-171,1.0,random_dot,120.16212268344547,
right,right,,7.0,1.0,15.0,1.0,,,,,,,,,74.40874619968235,,,,,,,,,74.40139089990407,74.50886859977618,75.30974849965423,75.30084299994633,75.30085759982467,75.30974849965423,75.30974849965423,75.30974849965423,76.54373939987272,right,1.0,13.03495050035417,,76.54416699986905,76.55034630000591,77.04225920001045,77.05006549973041,,,,,,,,,,,,,,,,,,,,,,,,sub-171,1.0,random_dot,120.16212268344547,
right,right,,8.0,0.0,16.0,1.0,,,,,,,,,77.05006549973041,,,,,,,,,77.04256059974432,78.2500290996395,79.05066249985248,79.04212849959731,79.0421455996111,79.05066249985248,79.05066249985248,79.05066249985248,80.0347859999165,left,0.0,12.782286500092596,,80.03526789974421,80.04180329991505,80.5334528000094,80.54130489984527,,,,,,,,,,,,,,,,,,,,,,,,sub-171,1.0,random_dot,120.16212268344547,
left,left,,8.0,1.0,17.0,0.0,,,,,,,,,80.54130489984527,,,,,,,,,80.53381329961121,81.74103509960696,82.54171749996021,82.53316949959844,82.53318419959396,82.54171749996021,82.54171749996021,82.54171749996021,84.04249459970742,left,1.0,13.29613840021193,,84.04292999999598,84.04919809987769,84.5411125998944,84.54899659985676,,,,,,,,,,,,,,,,,,,,,,,,sub-171,1.0,random_dot,120.16212268344547,
right,right,,9.0,0.0,18.0,1.0,,,,,,,,,84.54899659985676,,,,,,,,,84.54142129980028,85.74869799986482,86.54944779956713,86.54069639975205,86.54070969996974,86.54944779956713,86.54944779956713,86.54944779956713,87.87484639976174,right,1.0,13.122530600521712,,87.87524609966204,87.88167269993573,88.3735127998516,88.38171009998769,,,,,,,,,,,,,,,,,,,,,,,,sub-171,1.0,random_dot,120.16212268344547,
left,left,,9.0,1.0,19.0,0.0,,,,,,,,,88.38171009998769,,,,,,,,,88.37376679992303,88.48170299967751,89.28253699978814,89.27361659985036,89.2736288998276,89.28253699978814,89.28253699978814,89.28253699978814,90.61619919957592,right,0.0,13.128894200082868,,90.6165291997604,90.62313709966838,91.11496899975464,91.12311489973216,,,,,,,,,,,,,,,,,,,,,,,,sub-171,1.0,random_dot,120.16212268344547,
,,,,,,,,,,,,,,,,,,,,,,,,,,,,,,,,,,,,,,,,,91.11502209957688,91.12311489973216,91.12311489973216,94.6150262998417,space,15.291652100160718,,,,,,,,,,,,,,,,,,sub-171,1.0,random_dot,120.16212268344547,
,,,,,,,,,,,,,,,,,,,,,,,,,,,,,,,,,,,,,,,,,,,,,,,,94.61505199968816,94.62283299956472,94.62283299956472,100.0891013997607,space,17.264300100505352,,,,,,,,,,,sub-171,1.0,random_dot,120.16212268344547,
left,left,speed,,,,,0.0,0.0,0.0,1.0,0.0,0.0,0.0,0.0,103.42108199978249,,,,,,,,,103.41802979959176,103.5207351995632,104.32156639965253,104.31311479955912,104.31313989963382,104.32156639965253,104.32156639965253,104.32156639965253,104.76410929998384,left,1.0,12.237416400108486,,,,,,,,,,,,,,,,,,,,100.09227539971472,100.10720319999382,100.10720319999382,103.41353009967132,space,15.101524100173265,,,,sub-171,1.0,random_dot,120.16212268344547,
right,right,speed,,,,,0.0,0.0,0.0,1.0,0.0,1.0,1.0,1.0,104.77053699968384,,,,,,,,,104.7650683997199,105.57038029981776,106.3711913996376,106.36246349988504,106.36248229956254,106.3711913996376,106.3711913996376,106.3711913996376,107.00539459986612,right,1.0,12.429434600286186,,,,,,,,,,,,,,,,,,,,,,,,,,,,,sub-171,1.0,random_dot,120.16212268344547,
right,right,speed,,,,,0.0,0.0,0.0,1.0,1.0,0.0,2.0,1.0,107.0121618998237,,,,,,,,,107.00610859971492,107.8116882997565,108.61251689959316,108.60371009958908,108.60372419981286,108.61251689959316,108.61251689959316,108.61251689959316,109.18844079971312,left,0.0,12.371540800202638,,,,,,,,,,,,,,,,,,,,,,,,,,,,,sub-171,1.0,random_dot,120.16212268344547,
left,left,speed,,,,,0.0,0.0,0.0,1.0,1.0,1.0,3.0,0.0,109.19487659959124,,,,,,,,,109.18921159999444,109.9948589997366,110.79566029971464,110.78696779999882,110.78698330000044,110.79566029971464,110.79566029971464,110.79566029971464,111.58786379965022,left,1.0,12.588271700311452,,,,,,,,,,,,,,,,,,,,,,,,,,,,,sub-171,1.0,random_dot,120.16212268344547,
right,right,speed,,,,,0.0,0.0,0.0,1.0,2.0,0.0,4.0,1.0,111.59439849993214,,,,,,,,,111.58872949983925,111.9443419999443,112.74531969986856,112.73643599962816,112.73645509965718,112.74531969986856,112.74531969986856,112.74531969986856,113.79610209958628,right,1.0,12.851485600229353,,,,,,,,,,,,,,,,,,,,,,,,,,,,,sub-171,1.0,random_dot,120.16212268344547,
left,left,speed,,,,,0.0,0.0,0.0,1.0,2.0,1.0,5.0,0.0,113.80242670001462,,,,,,,,,113.79703369969502,113.90237729996444,114.70329129975288,114.69441949995236,114.69443599972874,114.70329129975288,114.70329129975288,114.70329129975288,115.93745329976082,left,1.0,13.033415600191802,,,,,,,,,,,,,,,,,,,,,,,,,,,,,sub-171,1.0,random_dot,120.16212268344547,
right,right,speed,,,,,0.0,0.0,0.0,1.0,3.0,0.0,6.0,1.0,115.94392509991305,,,,,,,,,115.93838179996236,117.14366889977828,117.94445379963145,117.93576339958236,117.93578189983964,117.94445379963145,117.94445379963145,117.94445379963145,119.0117719997652,left,0.0,12.867512800265104,,,,,,,,,,,,,,,,,,,,,,,,,,,,,sub-171,1.0,random_dot,120.16212268344547,
left,left,speed,,,,,0.0,0.0,0.0,1.0,3.0,1.0,7.0,0.0,119.0183891998604,,,,,,,,,119.01253849966452,120.21808089967816,121.01901069981976,121.01004459988326,121.01005759974942,121.01901069981976,121.01901069981976,121.01901069981976,121.7945328997448,right,0.0,12.57051690015942,,,,,,,,,,,,,,,,,,,,,,,,,,,,,sub-171,1.0,random_dot,120.16212268344547,
left,left,speed,,,,,0.0,0.0,0.0,1.0,4.0,0.0,8.0,0.0,121.8014061995782,,,,,,,,,121.79519849969074,123.0010751998052,123.80196229973808,123.79308460000902,123.79309719987214,123.80196229973808,123.80196229973808,123.80196229973808,124.33563009975478,right,0.0,12.332499000243844,,,,,,,,,,,,,,,,,,,,,,,,,,,,,sub-171,1.0,random_dot,120.16212268344547,
right,right,speed,,,,,0.0,0.0,0.0,1.0,4.0,1.0,9.0,1.0,124.34238929999992,,,,,,,,,124.3363757999614,125.14224329963326,125.9431186998263,125.93448389973491,125.93450269987808,125.9431186998263,125.9431186998263,125.9431186998263,126.5939889997244,left,0.0,12.451851600315422,,,,,,,,,,,,,,,,,,,,,,,,,,,,,sub-171,1.0,random_dot,120.16212268344547,
right,right,speed,,,,,0.0,0.0,0.0,1.0,5.0,0.0,10.0,1.0,126.60044139996172,,,,,,,,,126.59466189984232,126.95052029984072,127.75144599983469,127.7425374998711,127.74254969973116,127.75144599983469,127.75144599983469,127.75144599983469,128.79334339965135,right,1.0,12.842719099950044,,,,,,,,,,,,,,,,,,,,,,,,,,,,,sub-171,1.0,random_dot,120.16212268344547,
left,left,speed,,,,,0.0,0.0,0.0,1.0,5.0,1.0,11.0,0.0,128.8000254998915,,,,,,,,,128.7940762997605,128.89998460002244,129.70081759989262,129.69207139965147,129.69208989990875,129.70081759989262,129.70081759989262,129.70081759989262,131.10997769981623,right,0.0,13.203448100481182,,,,,,,,,,,,,,,,,,,,,,,,,,,,,sub-171,1.0,random_dot,120.16212268344547,
right,right,speed,,,,,0.0,0.0,0.0,1.0,6.0,0.0,12.0,1.0,131.11623209994286,,,,,,,,,131.111121899914,131.91622239956632,132.71707769995555,132.7083677998744,132.70838609989733,132.71707769995555,132.71707769995555,132.71707769995555,133.80948749976233,left,0.0,12.888085100334138,,,,,,,,,,,,,,,,,,,,,,,,,,,,,sub-171,1.0,random_dot,120.16212268344547,
left,left,speed,,,,,0.0,0.0,0.0,1.0,6.0,1.0,13.0,0.0,133.81614469969645,,,,,,,,,133.81018219981345,134.16602159989998,134.96662859991193,134.9577938998118,134.95780859980732,134.96662859991193,134.96662859991193,134.96662859991193,135.99222869984806,right,0.0,12.821750400122257,,,,,,,,,,,,,,,,,,,,,,,,,,,,,sub-171,1.0,random_dot,120.16212268344547,
left,left,speed,,,,,0.0,0.0,0.0,1.0,7.0,0.0,14.0,0.0,135.99877679999918,,,,,,,,,135.99302920000628,136.09890129975977,136.89985559973866,136.89110159967095,136.8911211998202,136.89985559973866,136.89985559973866,136.89985559973866,137.9422661997378,left,1.0,12.839665700215846,,,,,,,,,,,,,,,,,,,,,,,,,,,,,sub-171,1.0,random_dot,120.16212268344547,
right,right,speed,,,,,0.0,0.0,0.0,1.0,7.0,1.0,15.0,1.0,137.94858559966087,,,,,,,,,137.9432084998116,138.7483737999573,139.5492921997793,139.5406766999513,139.54069589963183,139.5492921997793,139.5492921997793,139.5492921997793,141.15838879998773,right,1.0,13.405300000216812,,,,,,,,,,,,,,,,,,,,,,,,,,,,,sub-171,1.0,random_dot,120.16212268344547,
left,left,speed,,,,,0.0,0.0,0.0,1.0,8.0,0.0,16.0,0.0,141.164702499751,,,,,,,,,141.15932649979368,141.51480329968035,142.31559679983184,142.30680409958586,142.3068229998462,142.31559679983184,142.31559679983184,142.31559679983184,143.7411682996899,left,1.0,13.22321720002219,,,,,,,,,,,,,,,,,,,,,,,,,,,,,sub-171,1.0,random_dot,120.16212268344547,
right,right,speed,,,,,0.0,0.0,0.0,1.0,8.0,1.0,17.0,1.0,143.74785349983722,,,,,,,,,143.7418701997958,144.5474919998087,145.34844029974192,145.33944289991632,145.3394555998966,145.34844029974192,145.34844029974192,145.34844029974192,146.43218139978126,left,0.0,12.88442790042609,,,,,,,,,,,,,,,,,,,,,,,,,,,,,sub-171,1.0,random_dot,120.16212268344547,
right,right,speed,,,,,0.0,0.0,0.0,1.0,9.0,0.0,18.0,1.0,146.43882389971986,,,,,,,,,146.43294219998643,146.78876759996638,147.58955639973283,147.58091259980574,147.58092829957604,147.58955639973283,147.58955639973283,147.58955639973283,148.7236198997125,right,1.0,12.934462900273502,,,,,,,,,,,,,,,,,,,,,,,,,,,,,sub-171,1.0,random_dot,120.16212268344547,
left,left,speed,,,,,0.0,0.0,0.0,1.0,9.0,1.0,19.0,0.0,148.7300849999301,,,,,,,,,148.72448009997606,149.52995379967615,150.330935199745,150.32206279970706,150.32208139961585,150.330935199745,150.330935199745,150.330935199745,151.3233946999535,right,0.0,12.789823300205173,,,,,,,,,,,,,,,,,,,,,,,,,,,,,sub-171,1.0,random_dot,120.16212268344547,
left,left,speed,,,,,0.0,0.0,0.0,1.0,10.0,0.0,20.0,0.0,151.32984409993514,,,,,,,,,151.32403479982167,151.67979680001736,152.48065569996834,152.47190479980782,152.47191939968616,152.48065569996834,152.48065569996834,152.48065569996834,153.70627809967846,right,0.0,13.025770500302317,,,,,,,,,,,,,,,,,,,,,,,,,,,,,sub-171,1.0,random_dot,120.16212268344547,
right,right,speed,,,,,0.0,0.0,0.0,1.0,10.0,1.0,21.0,1.0,153.71265219990164,,,,,,,,,153.70708039961755,153.81260149972513,154.61356699978933,154.60468799993396,154.60470129968598,154.61356699978933,154.61356699978933,154.61356699978933,155.67230939958245,left,0.0,12.85394740011543,,,,,,,,,,,,,,,,,,,,,,,,,,,,,sub-171,1.0,random_dot,120.16212268344547,
left,left,speed,,,,,0.0,0.0,0.0,1.0,11.0,0.0,22.0,0.0,155.67902669962496,,,,,,,,,155.6730354996398,155.77895359974357,156.5799918998964,156.5711059998721,156.57112179975957,156.5799918998964,156.5799918998964,156.5799918998964,157.4222044995986,left,1.0,12.640543800313026,,,,,,,,,,,,,,,,,,,,,,,,,,,,,sub-171,1.0,random_dot,120.16212268344547,
right,right,speed,,,,,0.0,0.0,0.0,1.0,11.0,1.0,23.0,1.0,157.42894759960473,,,,,,,,,157.4230719995685,158.62850499991328,159.42934529995546,159.420737599954,159.42075609974563,159.42934529995546,159.42934529995546,159.42934529995546,160.23017149977386,left,0.0,12.597001600079238,,,,,,,,,,,,,,,,,,,,,,,,,,,,,sub-171,1.0,random_dot,120.16212268344547,
left,left,speed,,,,,0.0,0.0,0.0,1.0,12.0,0.0,24.0,0.0,160.2367165996693,,,,,,,,,160.23123899986967,160.3367339996621,161.13747499976307,161.12866909988225,161.12868849979714,161.13747499976307,161.13747499976307,161.13747499976307,162.38837259961292,right,0.0,13.05071990052238,,,,,,,,,,,,,,,,,,,,,,,,,,,,,sub-171,1.0,random_dot,120.16212268344547,
right,right,speed,,,,,0.0,0.0,0.0,1.0,12.0,1.0,25.0,1.0,162.39469059975818,,,,,,,,,162.38940269965678,163.59435519995168,164.39537459984422,164.38650239957497,164.38651709957048,164.39537459984422,164.39537459984422,164.39537459984422,165.27087899995968,right,1.0,12.677273500245064,,,,,,,,,,,,,,,,,,,,,,,,,,,,,sub-171,1.0,random_dot,120.16212268344547,
right,right,speed,,,,,0.0,0.0,0.0,1.0,13.0,0.0,26.0,1.0,165.27740509994328,,,,,,,,,165.27168879983947,166.0772858997807,166.87807169975713,166.86967329960316,166.86969550000504,166.87807169975713,166.87807169975713,166.87807169975713,167.8536800998263,left,0.0,12.770834099967033,,,,,,,,,,,,,,,,,,,,,,,,,,,,,sub-171,1.0,random_dot,120.16212268344547,
left,left,speed,,,,,0.0,0.0,0.0,1.0,13.0,1.0,27.0,0.0,167.86033059982583,,,,,,,,,167.8544357996434,169.06020729988813,169.86097249994054,169.85249939979985,169.852518199943,169.86097249994054,169.86097249994054,169.86097249994054,170.65340029960498,left,1.0,12.592952799983324,,,,,,,,,,,,,,,,,,,,,,,,,,,,,sub-171,1.0,random_dot,120.16212268344547,
right,right,speed,,,,,0.0,0.0,0.0,1.0,14.0,0.0,28.0,1.0,170.6600692998618,,,,,,,,,170.65447289962322,171.0099308998324,171.81076219957322,171.8019510996528,171.80197119992226,171.81076219957322,171.81076219957322,171.81076219957322,173.1448105997406,left,0.0,13.134191100485625,,,,,,,,,,,,,,,,,,,,,,,,,,,,,sub-171,1.0,random_dot,120.16212268344547,
left,left,speed,,,,,0.0,0.0,0.0,1.0,14.0,1.0,29.0,0.0,173.1514047998935,,,,,,,,,173.14585389988497,173.2511077998206,174.05199969979003,174.04343539988622,174.04345449991524,174.05199969979003,174.05199969979003,174.05199969979003,175.3610454997979,right,0.0,13.105092000216246,,,,,,,,,,,,,,,,,,,,,,,,,,,,,sub-171,1.0,random_dot,120.16212268344547,
right,right,speed,,,,,0.0,0.0,0.0,1.0,15.0,0.0,30.0,1.0,175.36769340001047,,,,,,,,,175.36197419976816,176.16737209958956,176.96825109981,176.95945139974356,176.9594650999643,176.96825109981,176.96825109981,176.96825109981,178.01061869971454,left,0.0,12.84374610008672,,,,,,,,,,,,,,,,,,,,,,,,,,,,,sub-171,1.0,random_dot,120.16212268344547,
left,left,speed,,,,,0.0,0.0,0.0,1.0,15.0,1.0,31.0,0.0,178.01704669976607,,,,,,,,,178.01145429955795,179.21689759986475,180.01780679961666,180.00905469991267,180.0090685999021,180.01780679961666,180.01780679961666,180.01780679961666,181.03510219976303,right,0.0,12.814949600491673,,,,,,,,,,,,,,,,,,,,,,,,,,,,,sub-171,1.0,random_dot,120.16212268344547,
right,right,speed,,,,,0.0,0.0,0.0,1.0,16.0,0.0,32.0,1.0,181.0418103998527,,,,,,,,,181.0357939996757,181.39167469972745,182.19231899967417,182.18361820001155,182.18363399989903,182.19231899967417,182.19231899967417,182.19231899967417,183.15962919965384,right,1.0,12.769074500072747,,,,,,,,,,,,,,,,,,,,,,,,,,,,,sub-171,1.0,random_dot,120.16212268344547,
left,left,speed,,,,,0.0,0.0,0.0,1.0,16.0,1.0,33.0,0.0,183.1663645999506,,,,,,,,,183.1603140998632,183.26636559981853,184.0670102997683,184.05817949958143,184.05819509970024,184.0670102997683,184.0670102997683,184.0670102997683,185.1591415000148,left,1.0,12.890955899842083,,,,,,,,,,,,,,,,,,,,,,,,,,,,,sub-171,1.0,random_dot,120.16212268344547,
left,left,speed,,,,,0.0,0.0,0.0,1.0,17.0,0.0,34.0,0.0,185.1658805999905,,,,,,,,,185.1598453996703,185.96577939996496,186.76672339998183,186.75792479980737,186.7579435999505,186.76672339998183,186.76672339998183,186.76672339998183,187.7757473997772,right,0.0,12.80926030036062,,,,,,,,,,,,,,,,,,,,,,,,,,,,,sub-171,1.0,random_dot,120.16212268344547,
right,right,speed,,,,,0.0,0.0,0.0,1.0,17.0,1.0,35.0,1.0,187.7822205997072,,,,,,,,,187.77650099992752,188.13227779977024,188.93291929969564,188.92425859998912,188.92427529999983,188.93291929969564,188.93291929969564,188.93291929969564,189.95039010001344,left,0.0,12.813556500244886,,,,,,,,,,,,,,,,,,,,,,,,,,,,,sub-171,1.0,random_dot,120.16212268344547,
left,left,speed,,,,,0.0,0.0,0.0,1.0,18.0,0.0,36.0,0.0,189.956964999903,,,,,,,,,189.9513158998452,190.7566366996616,191.55762390000743,191.5487102996558,191.54872819967568,191.55762390000743,191.55762390000743,191.55762390000743,192.4583567995578,left,1.0,12.69556080037728,,,,,,,,,,,,,,,,,,,,,,,,,,,,,sub-171,1.0,random_dot,120.16212268344547,
right,right,speed,,,,,0.0,0.0,0.0,1.0,18.0,1.0,37.0,1.0,192.46479019988328,,,,,,,,,192.4591056997888,192.81465199962255,193.6160394996405,193.60634219972417,193.6063550999388,193.6160394996405,193.6160394996405,193.6160394996405,194.4747980996035,left,0.0,12.658719800412657,,,,,,,,,,,,,,,,,,,,,,,,,,,,,sub-171,1.0,random_dot,120.16212268344547,
left,left,speed,,,,,0.0,0.0,0.0,1.0,19.0,0.0,38.0,0.0,194.48129719961435,,,,,,,,,194.47550279973075,194.58111589960757,195.38196769962087,195.37311950000003,195.37313829967752,195.38196769962087,195.38196769962087,195.38196769962087,196.52414159988984,left,1.0,12.941275800112637,,,,,,,,,,,,,,,,,,,,,,,,,,,,,sub-171,1.0,random_dot,120.16212268344547,
right,right,speed,,,,,0.0,0.0,0.0,1.0,19.0,1.0,39.0,1.0,196.53079679980877,,,,,,,,,196.52477979986,197.3306303997524,198.1316403998062,198.12287619989365,198.12289189966395,198.1316403998062,198.1316403998062,198.1316403998062,198.7654818999581,right,1.0,12.429098899941891,,,,,,,,,,,,,,,,,,,,,,,,,,,,,sub-171,1.0,random_dot,120.16212268344547,
right,right,speed,,,,,0.0,0.0,0.0,1.0,20.0,0.0,40.0,1.0,198.77226200001317,,,,,,,,,198.76613219967112,199.5721283997409,200.3726929998957,200.3639750997536,200.36399459978568,200.3726929998957,200.3726929998957,200.3726929998957,201.24836419988424,left,0.0,12.67413659999147,,,,,,,,,,,,,,,,,,,,,,,,,,,,,sub-171,1.0,random_dot,120.16212268344547,
left,left,speed,,,,,0.0,0.0,0.0,1.0,20.0,1.0,41.0,0.0,201.25523589970544,,,,,,,,,201.2491817995906,202.054842799902,202.8556864997372,202.8468439998105,202.84685869980603,202.8556864997372,202.8556864997372,202.8556864997372,203.77326379995796,left,1.0,12.716491900384426,,,,,,,,,,,,,,,,,,,,,,,,,,,,,sub-171,1.0,random_dot,120.16212268344547,
right,right,speed,,,,,0.0,0.0,0.0,1.0,21.0,0.0,42.0,1.0,203.7796652996913,,,,,,,,,203.77407569997013,204.9795214999467,205.78040239959955,205.7716306997463,205.77164439996704,205.78040239959955,205.78040239959955,205.78040239959955,206.7061034999788,left,0.0,12.724709500093011,,,,,,,,,,,,,,,,,,,,,,,,,,,,,sub-171,1.0,random_dot,120.16212268344547,
left,left,speed,,,,,0.0,0.0,0.0,1.0,21.0,1.0,43.0,0.0,206.71251729968932,,,,,,,,,206.70687639992684,207.51230919966477,208.3130608997308,208.3045009998605,208.3045208998956,208.3130608997308,208.3130608997308,208.3130608997308,209.1806617998518,right,0.0,12.667639700230213,,,,,,,,,,,,,,,,,,,,,,,,,,,,,sub-171,1.0,random_dot,120.16212268344547,
right,right,speed,,,,,0.0,0.0,0.0,1.0,22.0,0.0,44.0,1.0,209.18712719995528,,,,,,,,,209.18154989974573,210.3870626999997,211.1876530996524,211.17899489961565,211.17901539988816,211.1876530996524,211.1876530996524,211.1876530996524,212.11328879976645,left,0.0,12.720922800246626,,,,,,,,,,,,,,,,,,,,,,,,,,,,,sub-171,1.0,random_dot,120.16212268344547,
left,left,speed,,,,,0.0,0.0,0.0,1.0,22.0,1.0,45.0,0.0,212.11984179960564,,,,,,,,,212.11411669990048,213.3198819998652,214.1206745998934,214.11165459966287,214.11166819976643,214.1206745998934,214.1206745998934,214.1206745998934,214.47123749973247,left,1.0,12.152216500137,,,,,,,,,,,,,,,,,,,,,,,,,,,,,sub-171,1.0,random_dot,120.16212268344547,
right,right,speed,,,,,0.0,0.0,0.0,1.0,23.0,0.0,46.0,1.0,214.4780678995885,,,,,,,,,214.47187559958547,215.6776444995776,216.4785993997939,216.4697576998733,216.46977599989623,216.4785993997939,216.4785993997939,216.4785993997939,217.329054299742,right,1.0,12.645585200283676,,,,,,,,,,,,,,,,,,,,,,,,,,,,,sub-171,1.0,random_dot,120.16212268344547,
left,left,speed,,,,,0.0,0.0,0.0,1.0,23.0,1.0,47.0,0.0,217.33584619965404,,,,,,,,,217.3297456,217.4356874995865,218.2366818999872,218.2277206997387,218.2277346998453,218.2366818999872,218.2366818999872,218.2366818999872,218.8120793998241,left,1.0,12.374196400400251,,,,,,,,,,,,,,,,,,,,,,,,,,,,,sub-171,1.0,random_dot,120.16212268344547,
left,left,speed,,,,,0.0,0.0,0.0,1.0,24.0,0.0,48.0,0.0,218.8188155000098,,,,,,,,,218.81284749973565,219.6188535997644,220.4196509998292,220.4110277998261,220.4110433999449,220.4196509998292,220.4196509998292,220.4196509998292,220.9787706998177,left,1.0,12.359184300526977,,,,,,,,,,,,,,,,,,,,,,,,,,,,,sub-171,1.0,random_dot,120.16212268344547,
right,right,speed,,,,,0.0,0.0,0.0,1.0,24.0,1.0,49.0,1.0,220.9851416000165,,,,,,,,,220.97965259989724,221.7850966998376,222.58597199991345,222.57709639985117,222.57711369963363,222.58597199991345,222.58597199991345,222.58597199991345,223.2950936998241,right,1.0,12.508166000247002,,,,,,,,,,,,,,,,,,,,,,,,,,,,,sub-171,1.0,random_dot,120.16212268344547,
right,right,speed,,,,,0.0,0.0,0.0,1.0,25.0,0.0,50.0,1.0,223.3014398999512,,,,,,,,,223.296058899723,223.40152610000223,224.20238239970055,224.1934144999832,224.19343129964545,224.20238239970055,224.20238239970055,224.20238239970055,225.4778392999433,left,0.0,13.074101900216192,,,,,,,,,,,,,,,,,,,,,,,,,,,,,sub-171,1.0,random_dot,120.16212268344547,
left,left,speed,,,,,0.0,0.0,0.0,1.0,25.0,1.0,51.0,0.0,225.48439939972013,,,,,,,,,225.4786200998351,225.58463229984045,226.38533069984987,226.37645139964297,226.37647019978613,226.38533069984987,226.38533069984987,226.38533069984987,227.57743689976635,left,1.0,12.987366599962115,,,,,,,,,,,,,,,,,,,,,,,,,,,,,sub-171,1.0,random_dot,120.16212268344547,
left,left,speed,,,,,0.0,0.0,0.0,1.0,26.0,0.0,52.0,0.0,227.58404989959672,,,,,,,,,227.57818539999425,228.78391239978373,229.58483249973503,229.5759445996955,229.57595979981124,229.58483249973503,229.58483249973503,229.58483249973503,230.31041559996083,left,1.0,12.523885200265797,,,,,,,,,,,,,,,,,,,,,,,,,,,,,sub-171,1.0,random_dot,120.16212268344547,
right,right,speed,,,,,0.0,0.0,0.0,1.0,26.0,1.0,53.0,1.0,230.3170132995583,,,,,,,,,230.3112603998743,230.41697099991143,231.21792129985988,231.20896289963275,231.2089793998748,231.21792129985988,231.21792129985988,231.21792129985988,231.81008479977027,right,1.0,12.392709200270474,,,,,,,,,,,,,,,,,,,,,,,,,,,,,sub-171,1.0,random_dot,120.16212268344547,
right,right,speed,,,,,0.0,0.0,0.0,1.0,27.0,0.0,54.0,1.0,231.81660799961537,,,,,,,,,231.81100599979985,233.01649229973555,233.81738819973543,233.80871559958905,233.8087277999148,233.81738819973543,233.81738819973543,233.81738819973543,234.3430932997726,right,1.0,12.322096300311388,,,,,,,,,,,,,,,,,,,,,,,,,,,,,sub-171,1.0,random_dot,120.16212268344547,
left,left,speed,,,,,0.0,0.0,0.0,1.0,27.0,1.0,55.0,0.0,234.34976559970528,,,,,,,,,234.3437359998934,235.54945249995217,236.3503609998152,236.34173669992012,236.3417578996159,236.3503609998152,236.3503609998152,236.3503609998152,236.7345062997192,left,1.0,12.179578999988736,,,,,,,,,,,,,,,,,,,,,,,,,,,,,sub-171,1.0,random_dot,120.16212268344547,
right,right,speed,,,,,0.0,0.0,0.0,1.0,28.0,0.0,56.0,1.0,236.74101949995384,,,,,,,,,236.73558529978615,237.091002299916,237.89168319990856,237.8829521997832,237.8829659000039,237.89168319990856,237.89168319990856,237.89168319990856,238.7592279999517,right,1.0,12.665371300186962,,,,,,,,,,,,,,,,,,,,,,,,,,,,,sub-171,1.0,random_dot,120.16212268344547,
left,left,speed,,,,,0.0,0.0,0.0,1.0,28.0,1.0,57.0,0.0,238.7656130995601,,,,,,,,,238.75999329984188,239.5655836998485,240.36627809982747,240.35795550001785,240.3579837996513,240.36627809982747,240.36627809982747,240.36627809982747,240.7673261999153,left,1.0,12.196113500278445,,,,,,,,,,,,,,,,,,,,,,,,,,,,,sub-171,1.0,random_dot,120.16212268344547,
left,left,speed,,,,,0.0,0.0,0.0,1.0,29.0,0.0,58.0,0.0,240.7736658998765,,,,,,,,,240.7686857995577,241.97360699996352,242.77433129958808,242.7656978997402,242.7657176000066,242.77433129958808,242.77433129958808,242.77433129958808,243.58354829996824,left,1.0,12.603954200167207,,,,,,,,,,,,,,,,,,,,,,,,,,,,,sub-171,1.0,random_dot,120.16212268344547,
right,right,speed,,,,,0.0,0.0,0.0,1.0,29.0,1.0,59.0,1.0,243.5900355000049,,,,,,,,,243.58456989983097,244.3897487996146,245.19055019970983,245.1816537999548,245.18166889995337,245.19055019970983,245.19055019970983,245.19055019970983,246.05803979979828,right,1.0,12.667658800259233,,,,,,,,,,,,,,,,,,,,,,,,,,,,,sub-171,1.0,random_dot,120.16212268344547,
,,speed,,,,,0.0,0.0,0.0,1.0,,,,,,,,,,,,,,,,,,,,,,,,,,,,,,,,,,,,,,,,,,,,,,,,,,,,,,sub-171,1.0,random_dot,120.16212268344547,
right,right,accuracy,,,,,0.0,1.0,1.0,0.0,0.0,0.0,0.0,1.0,248.6310242000036,,,,,,,,,248.62797199981287,249.4307916997932,250.23143569985405,250.22256089979783,250.2225779998116,250.23143569985405,250.23143569985405,250.23143569985405,251.3322013998404,left,0.0,12.902475000359118,,,,,,,,,,,,,,,,,,,,246.0586958997883,246.06818519998345,246.06818519998345,248.62315299967304,space,14.350132800173014,,,,sub-171,1.0,random_dot,120.16212268344547,
left,left,accuracy,,,,,0.0,1.0,1.0,0.0,0.0,1.0,1.0,0.0,251.33877269970253,,,,,,,,,251.3332871999592,252.5385850998573,253.3391354000196,253.3306573997252,253.3306741998531,253.3391354000196,253.3391354000196,253.3391354000196,254.6233168998733,left,1.0,13.081589300185442,,,,,,,,,,,,,,,,,,,,,,,,,,,,,sub-171,1.0,random_dot,120.16212268344547,
right,right,accuracy,,,,,0.0,1.0,1.0,0.0,1.0,0.0,2.0,1.0,254.62974879983813,,,,,,,,,254.6241730996408,254.97986650001255,255.78043319983408,255.7716368995607,255.77165059978145,255.78043319983408,255.78043319983408,255.78043319983408,256.6644229996018,right,1.0,12.682700700126588,,,,,,,,,,,,,,,,,,,,,,,,,,,,,sub-171,1.0,random_dot,120.16212268344547,
left,left,accuracy,,,,,0.0,1.0,1.0,0.0,1.0,1.0,3.0,0.0,256.67102839984,,,,,,,,,256.6652265000157,257.87100409995764,258.6716525997035,258.6629794999026,258.662997899577,258.6716525997035,258.6716525997035,258.6716525997035,259.75608109962195,right,0.0,12.880268100183455,,,,,,,,,,,,,,,,,,,,,,,,,,,,,sub-171,1.0,random_dot,120.16212268344547,
right,right,accuracy,,,,,0.0,1.0,1.0,0.0,2.0,0.0,4.0,1.0,259.7623744998127,,,,,,,,,259.75710049970075,260.962115299888,261.76280749961734,261.7541066999547,261.7541247997433,261.76280749961734,261.76280749961734,261.76280749961734,263.20513839973137,left,0.0,13.237594600301236,,,,,,,,,,,,,,,,,,,,,,,,,,,,,sub-171,1.0,random_dot,120.16212268344547,
left,left,accuracy,,,,,0.0,1.0,1.0,0.0,2.0,1.0,5.0,0.0,263.2117681996897,,,,,,,,,263.2061887998134,264.41160669969395,265.2123203999363,265.2036388996057,265.20365029992536,265.2123203999363,265.2123203999363,265.2123203999363,266.7211022996344,left,1.0,13.310282500460744,,,,,,,,,,,,,,,,,,,,,,,,,,,,,sub-171,1.0,random_dot,120.16212268344547,
left,left,accuracy,,,,,0.0,1.0,1.0,0.0,3.0,0.0,6.0,0.0,266.7277066996321,,,,,,,,,266.7218276998028,267.52784190000966,268.32842259993777,268.3197900997475,268.3198084998876,268.32842259993777,268.32842259993777,268.32842259993777,269.6874762997031,right,0.0,13.160783900413662,,,,,,,,,,,,,,,,,,,,,,,,,,,,,sub-171,1.0,random_dot,120.16212268344547,
right,right,accuracy,,,,,0.0,1.0,1.0,0.0,3.0,1.0,7.0,1.0,269.6941479998641,,,,,,,,,269.6881230999716,270.04389059962705,270.84480569977313,270.8359961998649,270.8360144998878,270.84480569977313,270.84480569977313,270.84480569977313,272.5287766996771,left,0.0,13.481613700278103,,,,,,,,,,,,,,,,,,,,,,,,,,,,,sub-171,1.0,random_dot,120.16212268344547,
right,right,accuracy,,,,,0.0,1.0,1.0,0.0,4.0,0.0,8.0,1.0,272.5352538996376,,,,,,,,,272.5297983000055,272.6353238997981,273.43593319971114,273.4272633995861,273.427281699609,273.43593319971114,273.43593319971114,273.43593319971114,275.0699825999327,left,0.0,13.4339698003605,,,,,,,,,,,,,,,,,,,,,,,,,,,,,sub-171,1.0,random_dot,120.16212268344547,
left,left,accuracy,,,,,0.0,1.0,1.0,0.0,4.0,1.0,9.0,0.0,275.07660689996555,,,,,,,,,275.0707374997437,275.8765124999918,276.6770775998011,276.6682529998943,276.66826689988375,276.6770775998011,276.6770775998011,276.6770775998011,278.14433569973335,left,1.0,13.267852100078017,,,,,,,,,,,,,,,,,,,,,,,,,,,,,sub-171,1.0,random_dot,120.16212268344547,
left,left,accuracy,,,,,0.0,1.0,1.0,0.0,5.0,0.0,10.0,0.0,278.15090859960765,,,,,,,,,278.1450487999245,279.3507081996649,280.1515774996951,280.1427874998189,280.1428043995984,280.1515774996951,280.1515774996951,280.1515774996951,281.6354758995585,right,0.0,13.278979000169784,,,,,,,,,,,,,,,,,,,,,,,,,,,,,sub-171,1.0,random_dot,120.16212268344547,
right,right,accuracy,,,,,0.0,1.0,1.0,0.0,5.0,1.0,11.0,1.0,281.6421213997528,,,,,,,,,281.63637399999425,281.9920513997786,282.7929869997315,282.78395169973373,282.78396799974144,282.7929869997315,282.7929869997315,282.7929869997315,284.4099506000057,left,0.0,13.412015800364316,,,,,,,,,,,,,,,,,,,,,,,,,,,,,sub-171,1.0,random_dot,120.16212268344547,
right,right,accuracy,,,,,0.0,1.0,1.0,0.0,6.0,0.0,12.0,1.0,284.4167501996272,,,,,,,,,284.4108255999163,284.76650569960475,285.56739899981767,285.5586779997684,285.5586922997609,285.56739899981767,285.56739899981767,285.56739899981767,288.0344270998612,right,1.0,14.265673799905926,,,,,,,,,,,,,,,,,,,,,,,,,,,,,sub-171,1.0,random_dot,120.16212268344547,
left,left,accuracy,,,,,0.0,1.0,1.0,0.0,6.0,1.0,13.0,0.0,288.0409259996377,,,,,,,,,288.03521289955825,288.14102789992467,288.9419010998681,288.9332107999362,288.9332265998237,288.9419010998681,288.9419010998681,288.9419010998681,290.80055519985035,left,1.0,13.660364400129763,,,,,,,,,,,,,,,,,,,,,,,,,,,,,sub-171,1.0,random_dot,120.16212268344547,
right,right,accuracy,,,,,0.0,1.0,1.0,0.0,7.0,0.0,14.0,1.0,290.8072008998133,,,,,,,,,290.80131219979376,292.00721909990534,292.8078425996937,292.79899009969085,292.7990039996803,292.8078425996937,292.8078425996937,292.8078425996937,294.6000747997314,left,0.0,13.591133700218052,,,,,,,,,,,,,,,,,,,,,,,,,,,,,sub-171,1.0,random_dot,120.16212268344547,
left,left,accuracy,,,,,0.0,1.0,1.0,0.0,7.0,1.0,15.0,0.0,294.60653599957004,,,,,,,,,294.60089939972386,295.4064770997502,296.2074458999559,296.19862659974024,296.1986461998895,296.2074458999559,296.2074458999559,296.2074458999559,297.8412048998289,left,1.0,13.43340240046382,,,,,,,,,,,,,,,,,,,,,,,,,,,,,sub-171,1.0,random_dot,120.16212268344547,
right,right,accuracy,,,,,0.0,1.0,1.0,0.0,8.0,0.0,16.0,1.0,297.8476869999431,,,,,,,,,297.8419788000174,297.9478113995865,298.7485127998516,298.739712999668,298.7397269997746,298.7485127998516,298.7485127998516,298.7485127998516,300.54088839981705,right,1.0,13.587641100399196,,,,,,,,,,,,,,,,,,,,,,,,,,,,,sub-171,1.0,random_dot,120.16212268344547,
left,left,accuracy,,,,,0.0,1.0,1.0,0.0,8.0,1.0,17.0,0.0,300.5472730998881,,,,,,,,,300.5418095998466,301.7471217997372,302.5480759995989,302.53933239961043,302.539353299886,302.5480759995989,302.5480759995989,302.5480759995989,304.6069108997472,left,1.0,13.853840900119394,,,,,,,,,,,,,,,,,,,,,,,,,,,,,sub-171,1.0,random_dot,120.16212268344547,
left,left,accuracy,,,,,0.0,1.0,1.0,0.0,9.0,0.0,18.0,0.0,304.61339689977467,,,,,,,,,304.60765889985487,304.963458399754,305.76407139981166,305.7553197997622,305.7553361998871,305.76407139981166,305.76407139981166,305.76407139981166,307.5394905996509,left,1.0,13.577131200116128,,,,,,,,,,,,,,,,,,,,,,,,,,,,,sub-171,1.0,random_dot,120.16212268344547,
right,right,accuracy,,,,,0.0,1.0,1.0,0.0,9.0,1.0,19.0,1.0,307.54641069984064,,,,,,,,,307.540125799831,308.7459748997353,309.5468698996119,309.537994499784,309.53801619959995,309.5468698996119,309.5468698996119,309.5468698996119,311.1640305998735,right,1.0,13.418765100184828,,,,,,,,,,,,,,,,,,,,,,,,,,,,,sub-171,1.0,random_dot,120.16212268344547,
left,left,accuracy,,,,,0.0,1.0,1.0,0.0,10.0,0.0,20.0,0.0,311.1705612996593,,,,,,,,,311.16505579976365,312.3704787995666,313.1712658996694,313.16255029989406,313.16256299987435,313.1712658996694,313.1712658996694,313.1712658996694,314.90521179977804,left,1.0,13.531937099993227,,,,,,,,,,,,,,,,,,,,,,,,,,,,,sub-171,1.0,random_dot,120.16212268344547,
right,right,accuracy,,,,,0.0,1.0,1.0,0.0,10.0,1.0,21.0,1.0,314.9118637996726,,,,,,,,,314.90599029976875,315.261627199594,316.06257179984823,316.0537496996112,316.0537691996433,316.06257179984823,316.06257179984823,316.06257179984823,317.9217130998149,left,0.0,13.660061100497842,,,,,,,,,,,,,,,,,,,,,,,,,,,,,sub-171,1.0,random_dot,120.16212268344547,
right,right,accuracy,,,,,0.0,1.0,1.0,0.0,11.0,0.0,22.0,1.0,317.9280341998674,,,,,,,,,317.9228010997176,318.0279910997488,318.82878039963543,318.8199708997272,318.8199855997227,318.82878039963543,318.82878039963543,318.82878039963543,320.9459650996141,right,1.0,13.916185500565916,,,,,,,,,,,,,,,,,,,,,,,,,,,,,sub-171,1.0,random_dot,120.16212268344547,
left,left,accuracy,,,,,0.0,1.0,1.0,0.0,11.0,1.0,23.0,0.0,320.95256349956617,,,,,,,,,320.946749499999,321.0523666995577,321.8532345998101,321.8444207999855,321.844439599663,321.8532345998101,321.8532345998101,321.8532345998101,323.9869463997893,left,1.0,13.934313400648534,,,,,,,,,,,,,,,,,,,,,,,,,,,,,sub-171,1.0,random_dot,120.16212268344547,
right,right,accuracy,,,,,0.0,1.0,1.0,0.0,12.0,0.0,24.0,1.0,323.99352909997106,,,,,,,,,323.98789599956945,325.1931807999499,325.99429289996624,325.98531139967963,325.98532529966906,325.99429289996624,325.99429289996624,325.99429289996624,328.22756909998134,right,1.0,14.031965299975129,,,,,,,,,,,,,,,,,,,,,,,,,,,,,sub-171,1.0,random_dot,120.16212268344547,
left,left,accuracy,,,,,0.0,1.0,1.0,0.0,12.0,1.0,25.0,0.0,328.23419549968094,,,,,,,,,328.2282855999656,328.5846193996258,329.38524799980223,329.3765213997103,329.37653839960694,329.38524799980223,329.38524799980223,329.38524799980223,331.9858195995912,left,1.0,14.399613600224257,,,,,,,,,,,,,,,,,,,,,,,,,,,,,sub-171,1.0,random_dot,120.16212268344547,
left,left,accuracy,,,,,0.0,1.0,1.0,0.0,13.0,0.0,26.0,0.0,331.99255630001426,,,,,,,,,331.9865164998919,332.7921535000205,333.59306569956243,333.58439419977367,333.58441279968247,333.59306569956243,333.59306569956243,333.59306569956243,335.7684839996509,right,0.0,13.97428230009973,,,,,,,,,,,,,,,,,,,,,,,,,,,,,sub-171,1.0,random_dot,120.16212268344547,
right,right,accuracy,,,,,0.0,1.0,1.0,0.0,13.0,1.0,27.0,1.0,335.7749517997727,,,,,,,,,335.7693319995888,336.9749077996239,337.77576529979706,337.7667966997251,337.7668100995943,337.77576529979706,337.77576529979706,337.77576529979706,339.8511419999413,right,1.0,13.874584100209177,,,,,,,,,,,,,,,,,,,,,,,,,,,,,sub-171,1.0,random_dot,120.16212268344547,
right,right,accuracy,,,,,0.0,1.0,1.0,0.0,14.0,0.0,28.0,1.0,339.85790449986234,,,,,,,,,339.851871999912,340.2075398997404,341.00866559986025,340.9995893999003,340.99960229964927,341.00866559986025,341.00866559986025,341.00866559986025,342.98395199980587,left,0.0,13.773191900458189,,,,,,,,,,,,,,,,,,,,,,,,,,,,,sub-171,1.0,random_dot,120.16212268344547,
left,left,accuracy,,,,,0.0,1.0,1.0,0.0,14.0,1.0,29.0,0.0,342.99065849976614,,,,,,,,,342.9846907998435,343.09046989958733,343.8912978000008,343.8823937997222,343.88241119962186,343.8912978000008,343.8912978000008,343.8912978000008,345.20029179984704,left,1.0,13.109324600547552,,,,,,,,,,,,,,,,,,,,,,,,,,,,,sub-171,1.0,random_dot,120.16212268344547,
left,left,accuracy,,,,,0.0,1.0,1.0,0.0,15.0,0.0,30.0,0.0,345.20675179967657,,,,,,,,,345.2012492995709,346.0066739995964,346.8075459999964,346.7986152996309,346.79863049974665,346.8075459999964,346.8075459999964,346.8075459999964,347.87522899964824,right,0.0,12.86983390012756,,,,,,,,,,,,,,,,,,,,,,,,,,,,,sub-171,1.0,random_dot,120.16212268344547,
right,right,accuracy,,,,,0.0,1.0,1.0,0.0,15.0,1.0,31.0,1.0,347.88156729983166,,,,,,,,,347.8760474999435,349.0811303998344,349.88198689976707,349.87352279992774,349.87354499986395,349.88198689976707,349.88198689976707,349.88198689976707,351.3245282997377,right,1.0,13.241349800024182,,,,,,,,,,,,,,,,,,,,,,,,,,,,,sub-171,1.0,random_dot,120.16212268344547,
right,right,accuracy,,,,,0.0,1.0,1.0,0.0,16.0,0.0,32.0,1.0,351.3309879996814,,,,,,,,,351.32558239996433,352.1306533999741,352.9314662995748,352.92279269965366,352.92281189979985,352.9314662995748,352.9314662995748,352.9314662995748,354.8902700999752,left,0.0,13.758723800070584,,,,,,,,,,,,,,,,,,,,,,,,,,,,,sub-171,1.0,random_dot,120.16212268344547,
left,left,accuracy,,,,,0.0,1.0,1.0,0.0,16.0,1.0,33.0,0.0,354.8968459996395,,,,,,,,,354.8910163999535,354.9971238998696,355.7977889999747,355.7891387999989,355.7891583996825,355.7977889999747,355.7977889999747,355.7977889999747,358.1566800000146,left,1.0,14.153752699960023,,,,,,,,,,,,,,,,,,,,,,,,,,,,,sub-171,1.0,random_dot,120.16212268344547,
left,left,accuracy,,,,,0.0,1.0,1.0,0.0,17.0,0.0,34.0,0.0,358.1632588999346,,,,,,,,,358.157643399667,359.3630104996264,360.1632780996151,360.1548237996176,360.1548374998383,360.1632780996151,360.1632780996151,360.1632780996151,362.2226209999062,right,0.0,13.8587935003452,,,,,,,,,,,,,,,,,,,,,,,,,,,,,sub-171,1.0,random_dot,120.16212268344547,
right,right,accuracy,,,,,0.0,1.0,1.0,0.0,17.0,1.0,35.0,1.0,362.2291160998866,,,,,,,,,362.2233736999333,363.4289203998633,364.2295937999152,364.2211798997596,364.2212015995756,364.2295937999152,364.2295937999152,364.2295937999152,366.6469266996719,left,0.0,14.214168700389564,,,,,,,,,,,,,,,,,,,,,,,,,,,,,sub-171,1.0,random_dot,120.16212268344547,
left,left,accuracy,,,,,0.0,1.0,1.0,0.0,18.0,0.0,36.0,0.0,366.653371299617,,,,,,,,,366.64764149999246,367.00344009976834,367.80405729962513,367.79538609972224,367.79540369985625,367.80405729962513,367.80405729962513,367.80405729962513,369.26312829973176,left,1.0,13.259317900054157,,,,,,,,,,,,,,,,,,,,,,,,,,,,,sub-171,1.0,random_dot,120.16212268344547,
right,right,accuracy,,,,,0.0,1.0,1.0,0.0,18.0,1.0,37.0,1.0,369.2697530998848,,,,,,,,,369.26391579955816,370.4694932997226,371.2704809997231,371.26136719994247,371.26137879956514,371.2704809997231,371.2704809997231,371.2704809997231,373.1458391998895,right,1.0,13.674579800106583,,,,,,,,,,,,,,,,,,,,,,,,,,,,,sub-171,1.0,random_dot,120.16212268344547,
right,right,accuracy,,,,,0.0,1.0,1.0,0.0,19.0,0.0,38.0,1.0,373.1522896997631,,,,,,,,,373.1466243998148,373.95209999987856,374.7529415995814,374.744262999855,374.7442800998688,374.7529415995814,374.7529415995814,374.7529415995814,376.5285623995587,left,0.0,13.575241100043058,,,,,,,,,,,,,,,,,,,,,,,,,,,,,sub-171,1.0,random_dot,120.16212268344547,
left,left,accuracy,,,,,0.0,1.0,1.0,0.0,19.0,1.0,39.0,0.0,376.53497079992667,,,,,,,,,376.5295184999704,377.3349068998359,378.1358324997127,378.1272179996595,378.1272383998148,378.1358324997127,378.1358324997127,378.1358324997127,379.9864454995841,left,1.0,13.650810200255364,,,,,,,,,,,,,,,,,,,,,,,,,,,,,sub-171,1.0,random_dot,120.16212268344547,
left,left,accuracy,,,,,0.0,1.0,1.0,0.0,20.0,0.0,40.0,0.0,379.99302299972624,,,,,,,,,379.9872533995658,380.09293409995735,380.8935773996636,380.8850193996914,380.88504069997,380.8935773996636,380.8935773996636,380.8935773996636,382.6442913999781,left,1.0,13.55049560032785,,,,,,,,,,,,,,,,,,,,,,,,,,,,,sub-171,1.0,random_dot,120.16212268344547,
right,right,accuracy,,,,,0.0,1.0,1.0,0.0,20.0,1.0,41.0,1.0,382.6509562996216,,,,,,,,,382.6450085998513,383.0007607997395,383.8016266999766,383.7926968997344,383.7927109999582,383.8016266999766,383.8016266999766,383.8016266999766,385.868518400006,right,1.0,13.867643100209534,,,,,,,,,,,,,,,,,,,,,,,,,,,,,sub-171,1.0,random_dot,120.16212268344547,
left,left,accuracy,,,,,0.0,1.0,1.0,0.0,21.0,0.0,42.0,0.0,385.8753497996368,,,,,,,,,385.8692176998593,387.0750215998851,387.8758572000079,387.8671047999524,387.8671185998246,387.8758572000079,387.8758572000079,387.8758572000079,389.5097364997491,left,1.0,13.429082400165498,,,,,,,,,,,,,,,,,,,,,,,,,,,,,sub-171,1.0,random_dot,120.16212268344547,
right,right,accuracy,,,,,0.0,1.0,1.0,0.0,21.0,1.0,43.0,1.0,389.5162795996293,,,,,,,,,389.510477299802,390.71611239993945,391.5170587999746,391.50835639983416,391.5083707999438,391.5170587999746,391.5170587999746,391.5170587999746,393.5179089996964,right,1.0,13.802959400229156,,,,,,,,,,,,,,,,,,,,,,,,,,,,,sub-171,1.0,random_dot,120.16212268344547,
right,right,accuracy,,,,,0.0,1.0,1.0,0.0,22.0,0.0,44.0,1.0,393.5240554995835,,,,,,,,,393.5187326995656,393.8741385997273,394.6747583998367,394.6661258996464,394.6661446997896,394.6747583998367,394.6747583998367,394.6747583998367,396.6920331995934,left,0.0,13.817726499866694,,,,,,,,,,,,,,,,,,,,,,,,,,,,,sub-171,1.0,random_dot,120.16212268344547,
left,left,accuracy,,,,,0.0,1.0,1.0,0.0,22.0,1.0,45.0,0.0,396.69860999984667,,,,,,,,,396.6931069996208,397.4983580997214,398.299339399673,398.2904236996546,398.2904385998845,398.299339399673,398.299339399673,398.299339399673,399.3335430999287,left,1.0,12.831143400166184,,,,,,,,,,,,,,,,,,,,,,,,,,,,,sub-171,1.0,random_dot,120.16212268344547,
left,left,accuracy,,,,,0.0,1.0,1.0,0.0,23.0,0.0,46.0,0.0,399.33978229993954,,,,,,,,,399.3343842998147,400.53979089995846,401.3404685999267,401.3316634995863,401.331680199597,401.3404685999267,401.3404685999267,401.3404685999267,402.6656895997003,right,0.0,13.122553600464016,,,,,,,,,,,,,,,,,,,,,,,,,,,,,sub-171,1.0,random_dot,120.16212268344547,
right,right,accuracy,,,,,0.0,1.0,1.0,0.0,23.0,1.0,47.0,1.0,402.67253069998696,,,,,,,,,402.6663824999705,403.4724771999754,404.2731660995632,404.26446129987016,404.26448079990223,404.2731660995632,404.2731660995632,404.2731660995632,405.6071359999478,right,1.0,13.129215999972075,,,,,,,,,,,,,,,,,,,,,,,,,,,,,sub-171,1.0,random_dot,120.16212268344547,
right,right,accuracy,,,,,0.0,1.0,1.0,0.0,24.0,0.0,48.0,1.0,405.61389369983226,,,,,,,,,405.60787699976936,406.4135310999118,407.2144362996332,407.20565089955926,407.2056701998226,407.2144362996332,407.2144362996332,407.2144362996332,408.9484577998519,left,0.0,13.528306300286204,,,,,,,,,,,,,,,,,,,,,,,,,,,,,sub-171,1.0,random_dot,120.16212268344547,
left,left,accuracy,,,,,0.0,1.0,1.0,0.0,24.0,1.0,49.0,0.0,408.9549237997271,,,,,,,,,408.94952639983967,409.3049809997901,410.1055488996208,410.0970548996702,410.09707649983466,410.1055488996208,410.1055488996208,410.1055488996208,411.4727615998127,left,1.0,13.164393600076435,,,,,,,,,,,,,,,,,,,,,,,,,,,,,sub-171,1.0,random_dot,120.16212268344547,
right,right,accuracy,,,,,0.0,1.0,1.0,0.0,25.0,0.0,50.0,1.0,411.4794250996784,,,,,,,,,411.4733464997262,411.57937549985945,412.3802327997983,412.3715436998755,412.3715578997508,412.3802327997983,412.3802327997983,412.3802327997983,414.1225733999163,right,1.0,13.544456200208517,,,,,,,,,,,,,,,,,,,,,,,,,,,,,sub-171,1.0,random_dot,120.16212268344547,
left,left,accuracy,,,,,0.0,1.0,1.0,0.0,25.0,1.0,51.0,0.0,414.1291976999492,,,,,,,,,414.12337289983407,414.4791421997361,415.2799370996654,415.271038999781,415.27105279965326,415.2799370996654,415.2799370996654,415.2799370996654,417.2886605998501,left,1.0,13.806026300415397,,,,,,,,,,,,,,,,,,,,,,,,,,,,,sub-171,1.0,random_dot,120.16212268344547,
right,right,accuracy,,,,,0.0,1.0,1.0,0.0,26.0,0.0,52.0,1.0,417.29509139992297,,,,,,,,,417.28952639969066,418.4949691998772,419.2958720996976,419.2869401997887,419.2869560997933,419.2958720996976,419.2958720996976,419.2958720996976,421.4048040998168,left,0.0,13.909265799913555,,,,,,,,,,,,,,,,,,,,,,,,,,,,,sub-171,1.0,random_dot,120.16212268344547,
left,left,accuracy,,,,,0.0,1.0,1.0,0.0,26.0,1.0,53.0,0.0,421.411110999994,,,,,,,,,421.4055135999806,421.76142529957,422.5619966997765,422.55306739965454,422.5530807999894,422.5619966997765,422.5619966997765,422.5619966997765,424.67065809993073,left,1.0,13.909258600324392,,,,,,,,,,,,,,,,,,,,,,,,,,,,,sub-171,1.0,random_dot,120.16212268344547,
right,right,accuracy,,,,,0.0,1.0,1.0,0.0,27.0,0.0,54.0,1.0,424.677230599802,,,,,,,,,424.6714013000019,424.7772998996079,425.57823219988495,425.56965899979696,425.569679999724,425.57823219988495,425.57823219988495,425.57823219988495,427.1953252996318,right,1.0,13.417941600084305,,,,,,,,,,,,,,,,,,,,,,,,,,,,,sub-171,1.0,random_dot,120.16212268344547,
left,left,accuracy,,,,,0.0,1.0,1.0,0.0,27.0,1.0,55.0,0.0,427.2020587995648,,,,,,,,,427.1960710999556,428.4018329000101,429.2025068998337,429.1937955999747,429.1938099996187,429.2025068998337,429.2025068998337,429.2025068998337,431.1530744996853,left,1.0,13.745840300340204,,,,,,,,,,,,,,,,,,,,,,,,,,,,,sub-171,1.0,random_dot,120.16212268344547,
right,right,accuracy,,,,,0.0,1.0,1.0,0.0,28.0,0.0,56.0,1.0,431.1598279997706,,,,,,,,,431.1538137998432,431.5094993999228,432.31047759996727,432.3014326998964,432.3014461998828,432.31047759996727,432.31047759996727,432.31047759996727,434.60244589997455,left,0.0,14.087212699931117,,,,,,,,,,,,,,,,,,,,,,,,,,,,,sub-171,1.0,random_dot,120.16212268344547,
left,left,accuracy,,,,,0.0,1.0,1.0,0.0,28.0,1.0,57.0,0.0,434.6091555999592,,,,,,,,,434.603221999947,435.4089785995893,436.2096677999944,436.2008576998487,436.2008719998412,436.2096677999944,436.2096677999944,436.2096677999944,438.21027009980753,left,1.0,13.796299000270665,,,,,,,,,,,,,,,,,,,,,,,,,,,,,sub-171,1.0,random_dot,120.16212268344547,
right,right,accuracy,,,,,0.0,1.0,1.0,0.0,29.0,0.0,58.0,1.0,438.2167460997589,,,,,,,,,438.2110361997038,439.4166547995992,440.2175037995912,440.2088262997568,440.2088405997493,440.2175037995912,440.2175037995912,440.2175037995912,441.8933376995847,right,1.0,13.477865300606936,,,,,,,,,,,,,,,,,,,,,,,,,,,,,sub-171,1.0,random_dot,120.16212268344547,
left,left,accuracy,,,,,0.0,1.0,1.0,0.0,29.0,1.0,59.0,0.0,441.8994231997058,,,,,,,,,441.8941541998647,442.6999945999123,443.5003325999714,443.4913449999876,443.4913609996438,443.5003325999714,443.5003325999714,443.5003325999714,445.6588714998216,left,1.0,13.957114500459284,,,,,,,,,,,,,,,,,,,,,,,,,,,,,sub-171,1.0,random_dot,120.16212268344547,
,,accuracy,,,,,0.0,1.0,1.0,0.0,,,,,,,,,,,,,,,,,,,,,,,,,,,,,,,,,,,,,,,,,,,,,,,,,,,,,,sub-171,1.0,random_dot,120.16212268344547,
,,,,,,,,,,,,,,,,,,,,,,,,,,,,,,,,,,,,,,,,,,,,,,,,,,,,,,,,,,,,,,445.6594053995796,445.66574889980257,sub-171,,,,
