wordCTK,colorCTK,corrAnsCTK,congruentCTK,thisN,thisTrialN,thisRepN,keyResp_CTK.keys,keyResp_CTK.corr,keyResp_CTK.rt,keyResp_CTK.duration,wordPractice,colorPractice,corrAnsPractice,congruentPractice,respPractice.keys,respPractice.corr,respPractice.rt,respPractice.duration,word,color,corrAns,congruent,keyResp_test_run.keys,keyResp_test_run.corr,keyResp_test_run.rt,keyResp_test_run.duration,trials_CTK.thisRepN,trials_CTK.thisTrialN,trials_CTK.thisN,trials_CTK.thisIndex,trials_practice.thisRepN,trials_practice.thisTrialN,trials_practice.thisN,trials_practice.thisIndex,trials_test.thisRepN,trials_test.thisTrialN,trials_test.thisN,trials_test.thisIndex,thisRow.t,notes,instruction.started,instr_text.started,instr_image.started,instr_resp.started,instruction.stopped,instr_resp.keys,instr_resp.rt,instr_resp.duration,instr_color_to_key.started,instr_ctk.started,resp_ctk.started,instr_color_to_key.stopped,resp_ctk.keys,resp_ctk.rt,resp_ctk.duration,ITI.started,fixcross.started,fixcross.stopped,ITI.stopped,color_to_key_run.started,stimulus_CTK.started,keyResp_CTK.started,color_to_key_run.stopped,trials_CTK.keyResp_CTK.keys,trials_CTK.keyResp_CTK.corr,trials_CTK.keyResp_CTK.rt,trials_CTK.keyResp_CTK.duration,instr_practice.started,instr_practice_text.started,instr_practice_resp.started,instr_practice.stopped,instr_practice_resp.keys,instr_practice_resp.rt,instr_practice_resp.duration,practice_run.started,stimulus_practice.started,respPractice.started,practice_run.stopped,trials_practice.respPractice.keys,trials_practice.respPractice.corr,trials_practice.respPractice.rt,trials_practice.respPractice.duration,feedback.started,textFeedback.started,feedback.stopped,textFeedback.stopped,instr_test.started,instr_test_text.started,instr_test_resp.started,instr_test.stopped,instr_test_resp.keys,instr_test_resp.rt,instr_test_resp.duration,test_run.started,stimulus_test_run.started,keyResp_test_run.started,test_run.stopped,trials_test.keyResp_test_run.keys,trials_test.keyResp_test_run.corr,trials_test.keyResp_test_run.rt,trials_test.keyResp_test_run.duration,goodbye.started,textGoodbye.started,goodbye.stopped,participant,session,expName,frameRate,Unnamed: 112
,,,,,,,,,,,,,,,,,,,,,,,,,,,,,,,,,,,,,,,,,0.0018491999944671,0.0611083999974653,0.0611083999974653,0.0611083999974653,24.09536619996652,space,24.022176999947987,,,,,,,,,,,,,,,,,,,,,,,,,,,,,,,,,,,,,,,,,,,,,,,,,,,,,,,,,,sub-098,1,stroop_test,59.99732410595401,
,,,,,,,,,,,,,,,,,,,,,,,,,,,,,,,,,,,,,,,,,,,,,,,,,24.095450999971945,24.102857499965467,24.102857499965467,34.751202899962664,space,10.634899900003802,,,,,,,,,,,,,,,,,,,,,,,,,,,,,,,,,,,,,,,,,,,,,,,,,,,sub-098,1,stroop_test,59.99732410595401,
test,yellow,g,1.0,0.0,0.0,0.0,g,1.0,2.4315850000130013,,,,,,,,,,,,,,,,,,0.0,0.0,0.0,1.0,,,,,,,,,34.777482600009535,,,,,,,,,,,,,,,,,34.77405419998104,34.864211099979,35.67597789998399,35.64928819995839,35.66607079998357,35.67597789998399,35.67597789998399,38.11672319995705,g,1.0,2.4315850000130013,,,,,,,,,,,,,,,,,,,,,,,,,,,,,,,,,,,,,,,sub-098,1,stroop_test,59.99732410595401,
test,red,r,1.0,1.0,1.0,0.0,r,1.0,1.035097100015264,,,,,,,,,,,,,,,,,,0.0,1.0,1.0,0.0,,,,,,,,,38.13027899997542,,,,,,,,,,,,,,,,,38.1175522999838,38.930142499972135,39.72998020000523,39.71513969998341,39.71653430000879,39.72998020000523,39.72998020000523,40.78068939998048,r,1.0,1.035097100015264,,,,,,,,,,,,,,,,,,,,,,,,,,,,,,,,,,,,,,,sub-098,1,stroop_test,59.99732410595401,
test,blue,b,1.0,2.0,2.0,0.0,b,1.0,0.4750862999935634,,,,,,,,,,,,,,,,,,0.0,2.0,2.0,2.0,,,,,,,,,40.795993399980944,,,,,,,,,,,,,,,,,40.78111979999812,40.896143199992366,41.69569249998312,41.679815499985125,41.68050879996736,41.69569249998312,41.69569249998312,42.18055049999384,b,1.0,0.4750862999935634,,,,,,,,,,,,,,,,,,,,,,,,,,,,,,,,,,,,,,,sub-098,1,stroop_test,59.99732410595401,
test,yellow,g,1.0,3.0,0.0,1.0,g,1.0,0.7615557000390254,,,,,,,,,,,,,,,,,,1.0,0.0,3.0,1.0,,,,,,,,,42.19585749995895,,,,,,,,,,,,,,,,,42.18092179996893,42.99609380000038,43.81173459999263,43.79567049996695,43.79626759997336,43.81173459999263,43.81173459999263,44.57924869999988,g,1.0,0.7615557000390254,,,,,,,,,,,,,,,,,,,,,,,,,,,,,,,,,,,,,,,sub-098,1,stroop_test,59.99732410595401,
test,red,r,1.0,4.0,1.0,1.0,r,1.0,0.757688399986364,,,,,,,,,,,,,,,,,,1.0,1.0,4.0,0.0,,,,,,,,,44.59483789996011,,,,,,,,,,,,,,,,,44.5795140999835,44.69483429996762,45.49447330000112,45.47915410000133,45.480535999988206,45.49447330000112,45.49447330000112,46.26253869995708,r,1.0,0.757688399986364,,,,,,,,,,,,,,,,,,,,,,,,,,,,,,,,,,,,,,,sub-098,1,stroop_test,59.99732410595401,
test,blue,b,1.0,5.0,2.0,1.0,b,1.0,0.7498570999596268,,,,,,,,,,,,,,,,,,1.0,2.0,5.0,2.0,,,,,,,,,46.277147399960086,,,,,,,,,,,,,,,,,46.26308080001036,46.37727190001169,47.17715040000621,47.16161269997247,47.16264759999467,47.17715040000621,47.17715040000621,47.93049009999959,b,1.0,0.7498570999596268,,,,,,,,,,,,,,,,,,,,,,,,,,,,,,,,,,,,,,,sub-098,1,stroop_test,59.99732410595401,
test,red,r,1.0,6.0,0.0,2.0,r,1.0,0.8288137000054121,,,,,,,,,,,,,,,,,,2.0,0.0,6.0,0.0,,,,,,,,,47.94348209997406,,,,,,,,,,,,,,,,,47.93116109998664,48.0432443000027,48.84320060000755,48.82795509998687,48.82885599997826,48.84320060000755,48.84320060000755,49.680099899997,r,1.0,0.8288137000054121,,,,,,,,,,,,,,,,,,,,,,,,,,,,,,,,,,,,,,,sub-098,1,stroop_test,59.99732410595401,
test,yellow,g,1.0,7.0,1.0,2.0,g,1.0,0.7443648999906145,,,,,,,,,,,,,,,,,,2.0,1.0,7.0,1.0,,,,,,,,,49.69318349997047,,,,,,,,,,,,,,,,,49.68084549997002,50.892363799968734,51.69284819997847,51.67775809997693,51.67911019996973,51.69284819997847,51.69284819997847,52.44582480000099,g,1.0,0.7443648999906145,,,,,,,,,,,,,,,,,,,,,,,,,,,,,,,,,,,,,,,sub-098,1,stroop_test,59.99732410595401,
test,blue,b,1.0,8.0,2.0,2.0,b,1.0,0.4256696999655105,,,,,,,,,,,,,,,,,,2.0,2.0,8.0,2.0,,,,,,,,,52.45937509997748,,,,,,,,,,,,,,,,,52.44660979998298,52.80938369996147,53.60954350000248,53.59450939996168,53.59586090000812,53.60954350000248,53.60954350000248,54.04576020000968,b,1.0,0.4256696999655105,,,,,,,,,,,,,,,,,,,,,,,,,,,,,,,,,,,,,,,sub-098,1,stroop_test,59.99732410595401,
test,blue,b,1.0,9.0,0.0,3.0,b,1.0,0.634957599977497,,,,,,,,,,,,,,,,,,3.0,0.0,9.0,2.0,,,,,,,,,54.05908069998259,,,,,,,,,,,,,,,,,54.04662899998948,54.85897229996044,55.65875189995859,55.64356140000746,55.64485959999729,55.65875189995859,55.65875189995859,56.30920550000155,b,1.0,0.634957599977497,,,,,,,,,,,,,,,,,,,,,,,,,,,,,,,,,,,,,,,sub-098,1,stroop_test,59.99732410595401,
test,red,r,1.0,10.0,1.0,3.0,r,1.0,1.2425178000121375,,,,,,,,,,,,,,,,,,3.0,1.0,10.0,0.0,,,,,,,,,56.32493279996561,,,,,,,,,,,,,,,,,56.30946089996724,57.50819019996561,58.30764289997751,58.291659599985,58.29218649998074,58.30764289997751,58.30764289997751,59.55779549997533,r,1.0,1.2425178000121375,,,,,,,,,,,,,,,,,,,,,,,,,,,,,,,,,,,,,,,sub-098,1,stroop_test,59.99732410595401,
test,yellow,g,1.0,11.0,2.0,3.0,g,1.0,0.4715003999881446,,,,,,,,,,,,,,,,,,3.0,2.0,11.0,1.0,,,,,,,,,59.5736246999586,,,,,,,,,,,,,,,,,59.55805369996233,60.35761219996493,61.15705649997108,61.14197960001184,61.14332619996276,61.15705649997108,61.15705649997108,61.64336459996412,g,1.0,0.4715003999881446,,,,,,,,,,,,,,,,,,,,,,,,,,,,,,,,,,,,,,,sub-098,1,stroop_test,59.99732410595401,
,,,,,,,,,,,,,,,,,,,,,,,,,,,,,,,,,,,,,,,,,,,,,,,,,,,,,,,,,,,,,,,,,,,,61.64375359995756,61.65707209997345,61.65707209997345,71.92421719996491,space,10.261367500002962,,,,,,,,,,,,,,,,,,,,,,,,,,,,,,,,sub-098,1,stroop_test,59.99732410595401,
,,,,0.0,0.0,0.0,,,,,rot,blue,b,0.0,b,1.0,2.1593087000073865,,,,,,,,,,,,,,0.0,0.0,0.0,2.0,,,,,71.95336340001086,,,,,,,,,,,,,,,,,71.94806669995887,72.28684449999128,73.09843989997171,73.07175419997657,,,,,,,,,,,,,,,,73.08927459997358,73.09843989997171,73.09843989997171,75.2774016999756,b,1.0,2.1593087000073865,,75.29032899998128,75.29614499997115,76.28593159996672,,,,,,,,,,,,,,,,,,,,sub-098,1,stroop_test,59.99732410595401,
,,,,1.0,1.0,0.0,,,,,blau,red,r,0.0,r,1.0,1.162859599979129,,,,,,,,,,,,,,0.0,1.0,1.0,4.0,,,,,76.30207009997685,,,,,,,,,,,,,,,,,76.28660240001045,77.48526849999325,78.2846048999927,78.26848490000702,,,,,,,,,,,,,,,,78.27394539996749,78.2846048999927,78.2846048999927,79.45474700001068,r,1.0,1.162859599979129,,79.45628129999386,79.46816180000314,80.45255589997396,80.46770959999412,,,,,,,,,,,,,,,,,,,sub-098,1,stroop_test,59.99732410595401,
,,,,2.0,2.0,0.0,,,,,rot,red,r,1.0,r,1.0,0.7142100000055507,,,,,,,,,,,,,,0.0,2.0,2.0,0.0,,,,,80.46770959999412,,,,,,,,,,,,,,,,,80.45331949996762,81.6669147000066,82.46888459997717,82.45215590001317,,,,,,,,,,,,,,,,82.4603369999677,82.46888459997717,82.46888459997717,83.18701429996872,r,1.0,0.7142100000055507,,83.18844050000189,83.20002879999811,84.1847243999946,84.19989369995892,,,,,,,,,,,,,,,,,,,sub-098,1,stroop_test,59.99732410595401,
,,,,3.0,3.0,0.0,,,,,blau,blue,b,1.0,b,1.0,0.600759900000412,,,,,,,,,,,,,,0.0,3.0,3.0,6.0,,,,,84.19989369995892,,,,,,,,,,,,,,,,,84.18556809995789,84.29982069996186,85.10313010000391,85.08460649999324,,,,,,,,,,,,,,,,85.09247799997684,85.10313010000391,85.10313010000391,85.71825949999038,b,1.0,0.600759900000412,,85.71970620000502,85.73215559998062,86.71767709997948,86.73240229999647,,,,,,,,,,,,,,,,,,,sub-098,1,stroop_test,59.99732410595401,
,,,,4.0,4.0,0.0,,,,,blau,blue,b,1.0,b,1.0,0.5613642000243999,,,,,,,,,,,,,,0.0,4.0,4.0,5.0,,,,,86.73240229999647,,,,,,,,,,,,,,,,,86.71850219997577,86.83206019998761,87.63220459996955,87.61681009997847,,,,,,,,,,,,,,,,87.61812800000189,87.63220459996955,87.63220459996955,88.20173309999518,b,1.0,0.5613642000243999,,88.2029712999938,88.21536859998014,89.1999806999811,89.21507129998645,,,,,,,,,,,,,,,,,,,sub-098,1,stroop_test,59.99732410595401,
,,,,5.0,5.0,0.0,,,,,blau,yellow,g,0.0,g,1.0,0.6134897000156343,,,,,,,,,,,,,,0.0,5.0,5.0,7.0,,,,,89.21507129998645,,,,,,,,,,,,,,,,,89.20081159996334,90.01472879998619,90.81460230000084,90.79977699997836,,,,,,,,,,,,,,,,90.80133099999512,90.81460230000084,90.81460230000084,91.4328019999666,g,1.0,0.6134897000156343,,91.43375480000395,91.44736699998612,92.43249370000558,92.44742699997732,,,,,,,,,,,,,,,,,,,sub-098,1,stroop_test,59.99732410595401,
,,,,6.0,6.0,0.0,,,,,rot,red,r,1.0,r,1.0,0.707274199987296,,,,,,,,,,,,,,0.0,6.0,6.0,1.0,,,,,92.44742699997732,,,,,,,,,,,,,,,,,92.43331140000372,93.64695570000912,94.44960809999613,94.43200149998302,,,,,,,,,,,,,,,,94.44039679999696,94.44960809999613,94.44960809999613,95.16601799998898,r,1.0,0.707274199987296,,95.16729680000572,95.17951469996478,96.1629646999645,96.17869049997536,,,,,,,,,,,,,,,,,,,sub-098,1,stroop_test,59.99732410595401,
,,,,7.0,7.0,0.0,,,,,gelb,blue,b,0.0,b,1.0,0.5461514999624342,,,,,,,,,,,,,,0.0,7.0,7.0,9.0,,,,,96.17869049997536,,,,,,,,,,,,,,,,,96.16330640000524,96.97913349996088,97.78200269996888,97.76363110000966,,,,,,,,,,,,,,,,97.77305339998566,97.78200269996888,97.78200269996888,98.33172189997276,b,1.0,0.5461514999624342,,98.33294749999186,98.34544639999513,99.32988299999852,99.34498250001344,,,,,,,,,,,,,,,,,,,sub-098,1,stroop_test,59.99732410595401,
,,,,8.0,8.0,0.0,,,,,rot,yellow,g,0.0,g,1.0,0.7397858000476845,,,,,,,,,,,,,,0.0,8.0,8.0,3.0,,,,,99.34498250001344,,,,,,,,,,,,,,,,,99.33058089995755,100.54462749999948,101.34738529997412,101.3296556000132,,,,,,,,,,,,,,,,101.337534899998,101.34738529997412,101.34738529997412,102.09794349997536,g,1.0,0.7397858000476845,,102.09933429997182,102.11233490001176,103.110955799988,,,,,,,,,,,,,,,,,,,,sub-098,1,stroop_test,59.99732410595401,
,,,,9.0,9.0,0.0,,,,,gelb,yellow,g,1.0,g,1.0,0.7760916000115685,,,,,,,,,,,,,,0.0,9.0,9.0,11.0,,,,,103.12703729997156,,,,,,,,,,,,,,,,,103.11180969997076,104.3096108000027,105.10932940000204,105.09317909996024,,,,,,,,,,,,,,,,105.09548519999952,105.10932940000204,105.10932940000204,105.89401679998264,g,1.0,0.7760916000115685,,105.89448489999631,105.90961999999126,106.89430709998123,106.9092018000083,,,,,,,,,,,,,,,,,,,sub-098,1,stroop_test,59.99732410595401,
,,,,10.0,10.0,0.0,,,,,gelb,yellow,g,1.0,g,1.0,0.6820416999980807,,,,,,,,,,,,,,0.0,10.0,10.0,10.0,,,,,106.9092018000083,,,,,,,,,,,,,,,,,106.8950346999918,107.00867149996338,107.80846339999698,107.79241860000184,,,,,,,,,,,,,,,,107.7928161000018,107.80846339999698,107.80846339999698,108.49264159996528,g,1.0,0.6820416999980807,,108.49308290000772,108.50837439997122,109.4940241999575,109.50845480000136,,,,,,,,,,,,,,,,,,,sub-098,1,stroop_test,59.99732410595401,
,,,,11.0,11.0,0.0,,,,,gelb,red,r,0.0,r,1.0,0.517226199968718,,,,,,,,,,,,,,0.0,11.0,11.0,8.0,,,,,109.50845480000136,,,,,,,,,,,,,,,,,109.49481860001106,109.841848400014,110.64177549997112,110.62686640000902,,,,,,,,,,,,,,,,110.62816699995892,110.64177549997112,110.64177549997112,111.17514389997814,r,1.0,0.517226199968718,,111.17559790000088,111.19125829997938,112.17442649998702,112.19074799999362,,,,,,,,,,,,,,,,,,,sub-098,1,stroop_test,59.99732410595401,
,,,,12.0,0.0,1.0,,,,,gelb,yellow,g,1.0,g,1.0,0.7171650000382215,,,,,,,,,,,,,,1.0,0.0,12.0,10.0,,,,,112.19074799999362,,,,,,,,,,,,,,,,,112.17474759998731,113.3908009000006,114.19048119999934,114.17619839997496,,,,,,,,,,,,,,,,114.17757529998198,114.19048119999934,114.19048119999934,114.91071560001,g,1.0,0.7171650000382215,,114.91215250000825,114.92554249998648,115.92383479996352,,,,,,,,,,,,,,,,,,,,sub-098,1,stroop_test,59.99732410595401,
,,,,13.0,1.0,1.0,,,,,gelb,red,r,0.0,r,1.0,0.7795279999845661,,,,,,,,,,,,,,1.0,1.0,13.0,8.0,,,,,115.93988510000054,,,,,,,,,,,,,,,,,115.92468279995956,116.72305969998706,117.52296520001256,117.5078626999748,,,,,,,,,,,,,,,,117.50914310000373,117.52296520001256,117.52296520001256,118.3090177999693,r,1.0,0.7795279999845661,,118.3104327999754,118.32257239997853,119.30659809999634,119.32164529996226,,,,,,,,,,,,,,,,,,,sub-098,1,stroop_test,59.99732410595401,
,,,,14.0,2.0,1.0,,,,,blau,blue,b,1.0,b,1.0,0.4364148000022396,,,,,,,,,,,,,,1.0,2.0,14.0,5.0,,,,,119.32164529996226,,,,,,,,,,,,,,,,,119.30710099998396,120.52181919995928,121.32210379996104,121.3064413999673,,,,,,,,,,,,,,,,121.31339969998226,121.32210379996104,121.32210379996104,121.77411890000803,b,1.0,0.4364148000022396,,121.77543959999456,121.78811179997864,122.77286949998232,122.78774020000128,,,,,,,,,,,,,,,,,,,sub-098,1,stroop_test,59.99732410595401,
,,,,15.0,3.0,1.0,,,,,blau,yellow,g,0.0,g,1.0,1.4473396000103094,,,,,,,,,,,,,,1.0,3.0,15.0,7.0,,,,,122.78774020000128,,,,,,,,,,,,,,,,,122.77370919997338,123.13764169998468,123.93754610000178,123.9229614000069,,,,,,,,,,,,,,,,123.9242299000034,123.93754610000178,123.93754610000178,125.39034189999802,g,1.0,1.4473396000103094,,125.39172499999404,125.40360189997592,126.3886230000062,126.4033959999797,,,,,,,,,,,,,,,,,,,sub-098,1,stroop_test,59.99732410595401,
,,,,16.0,4.0,1.0,,,,,gelb,yellow,g,1.0,g,1.0,0.6720322000328451,,,,,,,,,,,,,,1.0,4.0,16.0,11.0,,,,,126.4033959999797,,,,,,,,,,,,,,,,,126.38941949995932,126.50341579999076,127.3084886999568,127.28845900000306,,,,,,,,,,,,,,,,127.29905769997276,127.3084886999568,127.3084886999568,127.9886159999878,g,1.0,0.6720322000328451,,127.98985770001308,128.0029093999765,128.98726999998323,129.00244499999098,,,,,,,,,,,,,,,,,,,sub-098,1,stroop_test,59.99732410595401,
,,,,17.0,5.0,1.0,,,,,blau,blue,b,1.0,b,1.0,0.6312098000198603,,,,,,,,,,,,,,1.0,5.0,17.0,6.0,,,,,129.00244499999098,,,,,,,,,,,,,,,,,128.98800740001025,130.20201499998802,131.0013239000109,130.98526079999283,,,,,,,,,,,,,,,,130.98769219999667,131.0013239000109,131.0013239000109,131.63783449999755,b,1.0,0.6312098000198603,,131.63901919999626,131.65174209995894,132.63623609999195,132.65126620000228,,,,,,,,,,,,,,,,,,,sub-098,1,stroop_test,59.99732410595401,
,,,,18.0,6.0,1.0,,,,,rot,red,r,1.0,r,1.0,0.4760873000486754,,,,,,,,,,,,,,1.0,6.0,18.0,1.0,,,,,132.65126620000228,,,,,,,,,,,,,,,,,132.63692249997985,133.00115590001224,133.8013379999902,133.78604799997993,,,,,,,,,,,,,,,,133.79290860000765,133.8013379999902,133.8013379999902,134.28678849997232,r,1.0,0.4760873000486754,,134.28805520001333,134.3008586000069,135.28572039998835,135.30035289999796,,,,,,,,,,,,,,,,,,,sub-098,1,stroop_test,59.99732410595401,
,,,,19.0,7.0,1.0,,,,,rot,blue,b,0.0,b,1.0,1.2677842999692075,,,,,,,,,,,,,,1.0,7.0,19.0,2.0,,,,,135.30035289999796,,,,,,,,,,,,,,,,,135.28647960000671,135.6504218999762,136.4501653999905,136.4349807999679,,,,,,,,,,,,,,,,136.4362192999688,136.4501653999905,136.4501653999905,137.73603359999834,b,1.0,1.2677842999692075,,137.73748989996966,137.749935299973,138.73467370000435,138.74958279996645,,,,,,,,,,,,,,,,,,,sub-098,1,stroop_test,59.99732410595401,
,,,,20.0,8.0,1.0,,,,,rot,red,r,1.0,r,1.0,1.6101161999977194,,,,,,,,,,,,,,1.0,8.0,20.0,0.0,,,,,138.74958279996645,,,,,,,,,,,,,,,,,138.73545709997416,138.84964829997625,139.6490858999896,139.63434409996262,,,,,,,,,,,,,,,,139.63570549996803,139.6490858999896,139.6490858999896,141.26860750000924,r,1.0,1.6101161999977194,,141.27004390000366,141.28192310000304,142.265450100007,142.28153539996129,,,,,,,,,,,,,,,,,,,sub-098,1,stroop_test,59.99732410595401,
,,,,21.0,9.0,1.0,,,,,rot,yellow,g,0.0,g,1.0,0.549932699999772,,,,,,,,,,,,,,1.0,9.0,21.0,3.0,,,,,142.28153539996129,,,,,,,,,,,,,,,,,142.26579979999224,143.48137369996402,144.28106329997536,144.2662883999874,,,,,,,,,,,,,,,,144.267730499967,144.28106329997536,144.28106329997536,144.8358303999994,g,1.0,0.549932699999772,,144.83732150000287,144.84754379995866,145.83232270000735,145.84741310001118,,,,,,,,,,,,,,,,,,,sub-098,1,stroop_test,59.99732410595401,
,,,,22.0,10.0,1.0,,,,,blau,red,r,0.0,r,1.0,0.9086810000007972,,,,,,,,,,,,,,1.0,10.0,22.0,4.0,,,,,145.84741310001118,,,,,,,,,,,,,,,,,145.83312709996244,147.0468094999669,147.84928859997308,147.8315750999609,,,,,,,,,,,,,,,,147.8401273000054,147.84928859997308,147.84928859997308,148.76541339996038,r,1.0,0.9086810000007972,,148.7664557999815,148.77951999998186,149.7643592999666,149.7794054999831,,,,,,,,,,,,,,,,,,,sub-098,1,stroop_test,59.99732410595401,
,,,,23.0,11.0,1.0,,,,,gelb,blue,b,0.0,b,1.0,0.8926312999683432,,,,,,,,,,,,,,1.0,11.0,23.0,9.0,,,,,149.7794054999831,,,,,,,,,,,,,,,,,149.76513670000713,150.5791295999661,151.3809484000085,151.3637238999945,,,,,,,,,,,,,,,,151.37195689999498,151.3809484000085,151.3809484000085,152.2826359999599,b,1.0,0.8926312999683432,,152.28403849998722,152.29527289996622,153.27941759995883,153.2948778999853,,,,,,,,,,,,,,,,,,,sub-098,1,stroop_test,59.99732410595401,
,,,,,,,,,,,,,,,,,,,,,,,,,,,,,,,,,,,,,,,,,,,,,,,,,,,,,,,,,,,,,,,,,,,,,,,,,,,,,,,,,,,,,,,153.27967309998348,153.2948778999853,153.2948778999853,162.495028299978,space,9.195749200007413,,,,,,,,,,,,,sub-098,1,stroop_test,59.99732410595401,
,,,,0.0,0.0,0.0,,,,,,,,,,,,,rot,blue,b,0.0,b,1.0,1.505158499989193,,,,,,,,,,0.0,0.0,0.0,2.0,162.52688329998637,,,,,,,,,,,,,,,,,162.51916159997927,163.70837199996458,164.50884450000012,164.49312880000798,,,,,,,,,,,,,,,,,,,,,,,,,,,,,,,,,,,164.50028039998142,164.50884450000012,164.50884450000012,166.0247551999637,b,1.0,1.505158499989193,,,,,sub-098,1,stroop_test,59.99732410595401,
,,,,1.0,1.0,0.0,,,,,,,,,,,,,rot,red,r,1.0,r,1.0,0.8400532999658026,,,,,,,,,,0.0,1.0,1.0,1.0,166.04026689997409,,,,,,,,,,,,,,,,,166.02499519998673,166.14031679998152,166.94076879997738,166.9241931999568,,,,,,,,,,,,,,,,,,,,,,,,,,,,,,,,,,,166.92459569999482,166.94076879997738,166.94076879997738,167.79234320000978,r,1.0,0.8400532999658026,,,,,sub-098,1,stroop_test,59.99732410595401,
,,,,2.0,2.0,0.0,,,,,,,,,,,,,blau,blue,b,1.0,b,1.0,0.6869149000267498,,,,,,,,,,0.0,2.0,2.0,5.0,167.80694089998724,,,,,,,,,,,,,,,,,167.79304029996274,167.90663719997974,168.70618039998226,168.69034689996624,,,,,,,,,,,,,,,,,,,,,,,,,,,,,,,,,,,168.69480070000282,168.70618039998226,168.70618039998226,169.4069725999725,b,1.0,0.6869149000267498,,,,,sub-098,1,stroop_test,59.99732410595401,
,,,,3.0,3.0,0.0,,,,,,,,,,,,,blau,blue,b,1.0,b,1.0,0.6427516000112519,,,,,,,,,,0.0,3.0,3.0,6.0,169.42257269995753,,,,,,,,,,,,,,,,,169.4072587999981,169.7724079999607,170.57215530000394,170.5560747999698,,,,,,,,,,,,,,,,,,,,,,,,,,,,,,,,,,,170.55645889998414,170.57215530000394,170.57215530000394,171.22324839996872,b,1.0,0.6427516000112519,,,,,sub-098,1,stroop_test,59.99732410595401,
,,,,4.0,4.0,0.0,,,,,,,,,,,,,gelb,yellow,g,1.0,g,1.0,0.497587299963925,,,,,,,,,,0.0,4.0,4.0,11.0,171.23905350000132,,,,,,,,,,,,,,,,,171.22356740001123,172.4223709999933,173.24379529996077,173.22281569999177,,,,,,,,,,,,,,,,,,,,,,,,,,,,,,,,,,,173.23392099997727,173.24379529996077,173.24379529996077,173.7575410999707,g,1.0,0.497587299963925,,,,,sub-098,1,stroop_test,59.99732410595401,
,,,,5.0,5.0,0.0,,,,,,,,,,,,,gelb,red,r,0.0,r,1.0,1.0213381000212394,,,,,,,,,,0.0,5.0,5.0,8.0,173.77107149997028,,,,,,,,,,,,,,,,,173.7584905999829,173.87097409996204,174.6705990000046,174.65502329997253,,,,,,,,,,,,,,,,,,,,,,,,,,,,,,,,,,,174.65599659999134,174.6705990000046,174.6705990000046,175.70782919996418,r,1.0,1.0213381000212394,,,,,sub-098,1,stroop_test,59.99732410595401,
,,,,6.0,6.0,0.0,,,,,,,,,,,,,gelb,blue,b,0.0,b,1.0,0.5386964000063017,,,,,,,,,,0.0,6.0,6.0,9.0,175.72280589997536,,,,,,,,,,,,,,,,,175.7088021999807,176.92014659999404,177.71967630001018,177.7052521999576,,,,,,,,,,,,,,,,,,,,,,,,,,,,,,,,,,,177.706528300012,177.71967630001018,177.71967630001018,178.2730778999976,b,1.0,0.5386964000063017,,,,,sub-098,1,stroop_test,59.99732410595401,
,,,,7.0,7.0,0.0,,,,,,,,,,,,,blau,yellow,g,0.0,g,1.0,1.0155159000423737,,,,,,,,,,0.0,7.0,7.0,7.0,178.28662179998355,,,,,,,,,,,,,,,,,178.27405700000236,178.63644589995965,179.4390644999803,179.42171189998044,,,,,,,,,,,,,,,,,,,,,,,,,,,,,,,,,,,179.42996079998557,179.4390644999803,179.4390644999803,180.4720832000021,g,1.0,1.0155159000423737,,,,,sub-098,1,stroop_test,59.99732410595401,
,,,,8.0,8.0,0.0,,,,,,,,,,,,,gelb,yellow,g,1.0,g,1.0,0.6770817000069655,,,,,,,,,,0.0,8.0,8.0,10.0,180.486230599985,,,,,,,,,,,,,,,,,180.47302490001312,181.6862984999898,182.48809719999556,182.47071570000844,,,,,,,,,,,,,,,,,,,,,,,,,,,,,,,,,,,182.480819599994,182.48809719999556,182.48809719999556,183.1716759999981,g,1.0,0.6770817000069655,,,,,sub-098,1,stroop_test,59.99732410595401,
,,,,9.0,9.0,0.0,,,,,,,,,,,,,rot,red,r,1.0,r,1.0,0.8875772000174038,,,,,,,,,,0.0,9.0,9.0,0.0,183.18550869997125,,,,,,,,,,,,,,,,,183.17264199996131,183.9850088999956,184.78911959996915,184.770446199982,,,,,,,,,,,,,,,,,,,,,,,,,,,,,,,,,,,184.7796812999877,184.78911959996915,184.78911959996915,185.6883250999963,r,1.0,0.8875772000174038,,,,,sub-098,1,stroop_test,59.99732410595401,
,,,,10.0,10.0,0.0,,,,,,,,,,,,,rot,yellow,g,0.0,g,1.0,0.6964169000275433,,,,,,,,,,0.0,10.0,10.0,3.0,185.7017204000149,,,,,,,,,,,,,,,,,185.68924569996307,186.0515284999856,186.85110550001264,186.83621809998291,,,,,,,,,,,,,,,,,,,,,,,,,,,,,,,,,,,186.83757360000163,186.85110550001264,186.85110550001264,187.55441159999464,g,1.0,0.6964169000275433,,,,,sub-098,1,stroop_test,59.99732410595401,
,,,,11.0,11.0,0.0,,,,,,,,,,,,,blau,red,r,0.0,r,1.0,0.9111232000286692,,,,,,,,,,0.0,11.0,11.0,4.0,187.5675104999682,,,,,,,,,,,,,,,,,187.5553436999908,188.76716459996533,189.5670484000002,189.55179050000152,,,,,,,,,,,,,,,,,,,,,,,,,,,,,,,,,,,189.5586508999695,189.5670484000002,189.5670484000002,190.48626709997188,r,1.0,0.9111232000286692,,,,,sub-098,1,stroop_test,59.99732410595401,
,,,,12.0,0.0,1.0,,,,,,,,,,,,,gelb,red,r,0.0,r,1.0,0.745273900043685,,,,,,,,,,1.0,0.0,12.0,8.0,190.49988389998907,,,,,,,,,,,,,,,,,190.48708290001375,190.5999865999911,191.40183849999448,191.3845606999821,,,,,,,,,,,,,,,,,,,,,,,,,,,,,,,,,,,191.3928924999782,191.40183849999448,191.40183849999448,192.15312530001395,r,1.0,0.745273900043685,,,,,sub-098,1,stroop_test,59.99732410595401,
,,,,13.0,1.0,1.0,,,,,,,,,,,,,rot,blue,b,0.0,b,1.0,0.7653692999738269,,,,,,,,,,1.0,1.0,13.0,2.0,192.16608230001293,,,,,,,,,,,,,,,,,192.1540132999653,192.96590079995804,193.7687067000079,193.75134839996463,,,,,,,,,,,,,,,,,,,,,,,,,,,,,,,,,,,193.7592631999869,193.7687067000079,193.7687067000079,194.5517128999927,b,1.0,0.7653692999738269,,,,,sub-098,1,stroop_test,59.99732410595401,
,,,,14.0,2.0,1.0,,,,,,,,,,,,,rot,red,r,1.0,r,1.0,0.8809238999965601,,,,,,,,,,1.0,2.0,14.0,0.0,194.565355299972,,,,,,,,,,,,,,,,,194.55272019997935,194.6654756999924,195.4649870999856,195.4485201999778,,,,,,,,,,,,,,,,,,,,,,,,,,,,,,,,,,,195.44898839999223,195.4649870999856,195.4649870999856,196.3513241999899,r,1.0,0.8809238999965601,,,,,sub-098,1,stroop_test,59.99732410595401,
,,,,15.0,3.0,1.0,,,,,,,,,,,,,blau,blue,b,1.0,b,1.0,0.5840669000172056,,,,,,,,,,1.0,3.0,15.0,6.0,196.36493779998275,,,,,,,,,,,,,,,,,196.35230809997304,197.56453400000464,198.3664187999675,198.34924000001047,,,,,,,,,,,,,,,,,,,,,,,,,,,,,,,,,,,198.3572115999996,198.3664187999675,198.3664187999675,198.96734109998212,b,1.0,0.5840669000172056,,,,,sub-098,1,stroop_test,59.99732410595401,
,,,,16.0,4.0,1.0,,,,,,,,,,,,,rot,yellow,g,0.0,g,1.0,1.0088494999799875,,,,,,,,,,1.0,4.0,16.0,3.0,198.9807470999658,,,,,,,,,,,,,,,,,198.96825239999453,199.33066169999077,200.1324678999954,200.1152543000062,,,,,,,,,,,,,,,,,,,,,,,,,,,,,,,,,,,200.12308950000445,200.1324678999954,200.1324678999954,201.1475318999728,g,1.0,1.0088494999799875,,,,,sub-098,1,stroop_test,59.99732410595401,
,,,,17.0,5.0,1.0,,,,,,,,,,,,,gelb,yellow,g,1.0,g,1.0,0.427427600021474,,,,,,,,,,1.0,5.0,17.0,11.0,201.16275660000971,,,,,,,,,,,,,,,,,201.1478049000143,202.3627148999949,203.16263289999915,203.1468579999637,,,,,,,,,,,,,,,,,,,,,,,,,,,,,,,,,,,203.1530440999777,203.16263289999915,203.16263289999915,203.5988098999951,g,1.0,0.427427600021474,,,,,sub-098,1,stroop_test,59.99732410595401,
,,,,18.0,6.0,1.0,,,,,,,,,,,,,blau,blue,b,1.0,b,1.0,0.5811833000043407,,,,,,,,,,1.0,6.0,18.0,5.0,203.6125092000002,,,,,,,,,,,,,,,,,203.599579199974,203.71209389995784,204.5123440999887,204.49698379996696,,,,,,,,,,,,,,,,,,,,,,,,,,,,,,,,,,,204.5032157999813,204.5123440999887,204.5123440999887,205.0981904999935,b,1.0,0.5811833000043407,,,,,sub-098,1,stroop_test,59.99732410595401,
,,,,19.0,7.0,1.0,,,,,,,,,,,,,gelb,blue,b,0.0,b,1.0,0.6946191000170074,,,,,,,,,,1.0,7.0,19.0,9.0,205.1119008999667,,,,,,,,,,,,,,,,,205.09886119997827,205.91190309997185,206.7168977999827,206.6968482999946,,,,,,,,,,,,,,,,,,,,,,,,,,,,,,,,,,,206.7069039999624,206.7168977999827,206.7168977999827,207.41572150000135,b,1.0,0.6946191000170074,,,,,sub-098,1,stroop_test,59.99732410595401,
,,,,20.0,8.0,1.0,,,,,,,,,,,,,blau,red,r,0.0,r,1.0,0.6642892000381835,,,,,,,,,,1.0,8.0,20.0,4.0,207.4282336999895,,,,,,,,,,,,,,,,,207.4168440999929,207.77796609996585,208.58032279997133,208.56275649997409,,,,,,,,,,,,,,,,,,,,,,,,,,,,,,,,,,,208.57080789998872,208.58032279997133,208.58032279997133,209.26197559997672,r,1.0,0.6642892000381835,,,,,sub-098,1,stroop_test,59.99732410595401,
,,,,21.0,9.0,1.0,,,,,,,,,,,,,blau,yellow,g,0.0,g,1.0,0.52858370001195,,,,,,,,,,1.0,9.0,21.0,7.0,209.276986300014,,,,,,,,,,,,,,,,,209.2624294999987,209.6272612999892,210.42705850000493,210.41170830000192,,,,,,,,,,,,,,,,,,,,,,,,,,,,,,,,,,,210.41272169997683,210.42705850000493,210.42705850000493,210.9639061999624,g,1.0,0.52858370001195,,,,,sub-098,1,stroop_test,59.99732410595401,
,,,,22.0,10.0,1.0,,,,,,,,,,,,,rot,red,r,1.0,r,1.0,1.1611425000010058,,,,,,,,,,1.0,10.0,22.0,1.0,210.97644150001,,,,,,,,,,,,,,,,,210.96538459998555,211.32682159997057,212.12675509997644,212.1113896999741,,,,,,,,,,,,,,,,,,,,,,,,,,,,,,,,,,,212.11840139998824,212.12675509997644,212.12675509997644,213.29365710000275,r,1.0,1.1611425000010058,,,,,sub-098,1,stroop_test,59.99732410595401,
,,,,23.0,11.0,1.0,,,,,,,,,,,,,gelb,yellow,g,1.0,g,1.0,1.0860422999830917,,,,,,,,,,1.0,11.0,23.0,10.0,213.30921430001035,,,,,,,,,,,,,,,,,213.2940268999664,214.50929169997107,215.31426189997,215.2943417999777,,,,,,,,,,,,,,,,,,,,,,,,,,,,,,,,,,,215.30387890001293,215.31426189997,215.31426189997,216.41132459999065,g,1.0,1.0860422999830917,,,,,sub-098,1,stroop_test,59.99732410595401,
,,,,24.0,0.0,2.0,,,,,,,,,,,,,rot,yellow,g,0.0,g,1.0,0.5831568000139669,,,,,,,,,,2.0,0.0,24.0,3.0,216.42519639997045,,,,,,,,,,,,,,,,,216.41220359998988,216.52502549998465,217.32852639997145,217.3099934000056,,,,,,,,,,,,,,,,,,,,,,,,,,,,,,,,,,,217.31924599997,217.32852639997145,217.32852639997145,217.9264606999932,g,1.0,0.5831568000139669,,,,,sub-098,1,stroop_test,59.99732410595401,
,,,,25.0,1.0,2.0,,,,,,,,,,,,,blau,blue,b,1.0,b,1.0,0.5830013999948278,,,,,,,,,,2.0,1.0,25.0,5.0,217.9412199999788,,,,,,,,,,,,,,,,,217.9271239999798,218.2912825999665,219.0932682999992,219.07598189997952,,,,,,,,,,,,,,,,,,,,,,,,,,,,,,,,,,,219.0839214999578,219.0932682999992,219.0932682999992,219.69381560001057,b,1.0,0.5830013999948278,,,,,sub-098,1,stroop_test,59.99732410595401,
,,,,26.0,2.0,2.0,,,,,,,,,,,,,blau,blue,b,1.0,b,1.0,0.4295948999933898,,,,,,,,,,2.0,2.0,26.0,6.0,219.7075513000018,,,,,,,,,,,,,,,,,219.69468630000483,220.50749589997577,221.3070744999568,221.29169489996275,,,,,,,,,,,,,,,,,,,,,,,,,,,,,,,,,,,221.29281010001432,221.3070744999568,221.3070744999568,221.7428086999571,b,1.0,0.4295948999933898,,,,,sub-098,1,stroop_test,59.99732410595401,
,,,,27.0,3.0,2.0,,,,,,,,,,,,,gelb,yellow,g,1.0,g,1.0,0.638514699996449,,,,,,,,,,2.0,3.0,27.0,10.0,221.75683779997053,,,,,,,,,,,,,,,,,221.74361169995973,222.1068290999974,222.91093780001395,222.8916801000014,,,,,,,,,,,,,,,,,,,,,,,,,,,,,,,,,,,222.90135549998377,222.91093780001395,222.91093780001395,223.55869599996367,g,1.0,0.638514699996449,,,,,sub-098,1,stroop_test,59.99732410595401,
,,,,28.0,4.0,2.0,,,,,,,,,,,,,gelb,blue,b,0.0,b,1.0,0.7005640999996103,,,,,,,,,,2.0,4.0,28.0,9.0,223.57272970001213,,,,,,,,,,,,,,,,,223.55944639997324,224.77267689997095,225.5882342999685,225.57304270000893,,,,,,,,,,,,,,,,,,,,,,,,,,,,,,,,,,,225.57425010000588,225.5882342999685,225.5882342999685,226.30518829997163,b,1.0,0.7005640999996103,,,,,sub-098,1,stroop_test,59.99732410595401,
,,,,29.0,5.0,2.0,,,,,,,,,,,,,gelb,red,r,0.0,r,1.0,0.5804827999672852,,,,,,,,,,2.0,5.0,29.0,8.0,226.32069500000216,,,,,,,,,,,,,,,,,226.30551039997957,226.42076859995723,227.2202244999935,227.2042439999641,,,,,,,,,,,,,,,,,,,,,,,,,,,,,,,,,,,227.2045856000041,227.2202244999935,227.2202244999935,227.8049664999708,r,1.0,0.5804827999672852,,,,,sub-098,1,stroop_test,59.99732410595401,
,,,,30.0,6.0,2.0,,,,,,,,,,,,,rot,red,r,1.0,r,1.0,0.6340125999995507,,,,,,,,,,2.0,6.0,30.0,0.0,227.82023809995732,,,,,,,,,,,,,,,,,227.8052343999734,228.6202373999986,229.41977300000144,229.40375269996,,,,,,,,,,,,,,,,,,,,,,,,,,,,,,,,,,,229.4061837999616,229.41977300000144,229.41977300000144,230.0575730999699,r,1.0,0.6340125999995507,,,,,sub-098,1,stroop_test,59.99732410595401,
,,,,31.0,7.0,2.0,,,,,,,,,,,,,blau,yellow,g,0.0,g,1.0,0.4985890000243671,,,,,,,,,,2.0,7.0,31.0,7.0,230.0702795999823,,,,,,,,,,,,,,,,,230.05850350001128,231.2691945999977,232.07208929996705,232.05482580000532,,,,,,,,,,,,,,,,,,,,,,,,,,,,,,,,,,,232.0633969999617,232.07208929996705,232.07208929996705,232.58768039999995,g,1.0,0.4985890000243671,,,,,sub-098,1,stroop_test,59.99732410595401,
,,,,32.0,8.0,2.0,,,,,,,,,,,,,blau,red,r,0.0,r,1.0,0.9498382000019774,,,,,,,,,,2.0,8.0,32.0,4.0,232.6024503000081,,,,,,,,,,,,,,,,,232.58825149998304,232.7024316999596,233.5021423999569,233.48659210000187,,,,,,,,,,,,,,,,,,,,,,,,,,,,,,,,,,,233.48750230000587,233.5021423999569,233.5021423999569,234.45488390000537,r,1.0,0.9498382000019774,,,,,sub-098,1,stroop_test,59.99732410595401,
,,,,33.0,9.0,2.0,,,,,,,,,,,,,rot,red,r,1.0,r,1.0,0.6054493000265211,,,,,,,,,,2.0,9.0,33.0,1.0,234.4685371000087,,,,,,,,,,,,,,,,,234.4555696999887,234.8184651999618,235.62116320000496,235.60378169995963,,,,,,,,,,,,,,,,,,,,,,,,,,,,,,,,,,,235.61246979999123,235.62116320000496,235.62116320000496,236.2371624999796,r,1.0,0.6054493000265211,,,,,sub-098,1,stroop_test,59.99732410595401,
,,,,34.0,10.0,2.0,,,,,,,,,,,,,rot,blue,b,0.0,b,1.0,0.6086174999945797,,,,,,,,,,2.0,10.0,34.0,2.0,236.25148939999053,,,,,,,,,,,,,,,,,236.23799539997708,236.351289299957,237.1513275000034,237.13654450001195,,,,,,,,,,,,,,,,,,,,,,,,,,,,,,,,,,,237.13784199999645,237.1513275000034,237.1513275000034,237.77070289995757,b,1.0,0.6086174999945797,,,,,sub-098,1,stroop_test,59.99732410595401,
,,,,35.0,11.0,2.0,,,,,,,,,,,,,gelb,yellow,g,1.0,g,1.0,0.5347504999954253,,,,,,,,,,2.0,11.0,35.0,11.0,237.78447730001065,,,,,,,,,,,,,,,,,237.7716742999619,238.13439889997244,238.93725620000623,238.91884699999355,,,,,,,,,,,,,,,,,,,,,,,,,,,,,,,,,,,238.92827749997377,238.93725620000623,238.93725620000623,239.48581099999137,g,1.0,0.5347504999954253,,,,,sub-098,1,stroop_test,59.99732410595401,
,,,,36.0,0.0,3.0,,,,,,,,,,,,,rot,yellow,g,0.0,g,1.0,0.4652602999703958,,,,,,,,,,3.0,0.0,36.0,3.0,239.50030299997889,,,,,,,,,,,,,,,,,239.4865708000143,239.8502910999814,240.6500668000081,240.6349185999716,,,,,,,,,,,,,,,,,,,,,,,,,,,,,,,,,,,240.6418663999648,240.6500668000081,240.6500668000081,241.11989129998256,g,1.0,0.4652602999703958,,,,,sub-098,1,stroop_test,59.99732410595401,
,,,,37.0,1.0,3.0,,,,,,,,,,,,,gelb,yellow,g,1.0,g,1.0,0.5149700000183657,,,,,,,,,,3.0,1.0,37.0,10.0,241.13344110001344,,,,,,,,,,,,,,,,,241.1208680999698,241.23267940001097,242.0376552999951,242.01787479995983,,,,,,,,,,,,,,,,,,,,,,,,,,,,,,,,,,,242.0280154999928,242.0376552999951,242.0376552999951,242.56929299997864,g,1.0,0.5149700000183657,,,,,sub-098,1,stroop_test,59.99732410595401,
,,,,38.0,2.0,3.0,,,,,,,,,,,,,blau,blue,b,1.0,b,1.0,0.5667145000188611,,,,,,,,,,3.0,2.0,38.0,5.0,242.583009199996,,,,,,,,,,,,,,,,,242.5702672000043,243.78273279999848,244.58423669997137,244.5676783999661,,,,,,,,,,,,,,,,,,,,,,,,,,,,,,,,,,,244.5762020999682,244.58423669997137,244.58423669997137,245.16732169996249,b,1.0,0.5667145000188611,,,,,sub-098,1,stroop_test,59.99732410595401,
,,,,39.0,3.0,3.0,,,,,,,,,,,,,gelb,yellow,g,1.0,g,1.0,0.6467534999828786,,,,,,,,,,3.0,3.0,39.0,11.0,245.18188859999648,,,,,,,,,,,,,,,,,245.16794399998616,245.98175300000003,246.7863870000001,246.767205799988,,,,,,,,,,,,,,,,,,,,,,,,,,,,,,,,,,,246.7768668999779,246.7863870000001,246.7863870000001,247.4504934999859,g,1.0,0.6467534999828786,,,,,sub-098,1,stroop_test,59.99732410595401,
,,,,40.0,4.0,3.0,,,,,,,,,,,,,blau,red,r,0.0,r,1.0,0.4401474999613128,,,,,,,,,,3.0,4.0,40.0,4.0,247.46451510000043,,,,,,,,,,,,,,,,,247.4513452000101,247.81477509997785,248.61434659996303,248.59896119998305,,,,,,,,,,,,,,,,,,,,,,,,,,,,,,,,,,,248.6056051999913,248.61434659996303,248.61434659996303,249.06658909999533,r,1.0,0.4401474999613128,,,,,sub-098,1,stroop_test,59.99732410595401,
,,,,41.0,5.0,3.0,,,,,,,,,,,,,blau,blue,b,1.0,b,1.0,0.6024488999973983,,,,,,,,,,3.0,5.0,41.0,6.0,249.0807847999968,,,,,,,,,,,,,,,,,249.06737369997427,249.88048439996783,250.68023319996428,250.66498179995688,,,,,,,,,,,,,,,,,,,,,,,,,,,,,,,,,,,250.66599399998088,250.68023319996428,250.68023319996428,251.29774419998284,b,1.0,0.6024488999973983,,,,,sub-098,1,stroop_test,59.99732410595401,
,,,,42.0,6.0,3.0,,,,,,,,,,,,,rot,blue,b,0.0,b,1.0,0.6558827999979258,,,,,,,,,,3.0,6.0,42.0,2.0,251.31318840000316,,,,,,,,,,,,,,,,,251.2981116999872,252.1132668000064,252.9147602999583,252.89834680000783,,,,,,,,,,,,,,,,,,,,,,,,,,,,,,,,,,,252.90614639996784,252.9147602999583,252.9147602999583,253.58265990001385,b,1.0,0.6558827999979258,,,,,sub-098,1,stroop_test,59.99732410595401,
,,,,43.0,7.0,3.0,,,,,,,,,,,,,rot,red,r,1.0,r,1.0,0.6179923000163399,,,,,,,,,,3.0,7.0,43.0,1.0,253.59624599997187,,,,,,,,,,,,,,,,,253.5838892000029,254.39599170000287,255.19573829998265,255.18069299997296,,,,,,,,,,,,,,,,,,,,,,,,,,,,,,,,,,,255.1820832999656,255.19573829998265,255.19573829998265,255.830595300009,r,1.0,0.6179923000163399,,,,,sub-098,1,stroop_test,59.99732410595401,
,,,,44.0,8.0,3.0,,,,,,,,,,,,,gelb,red,r,0.0,r,1.0,0.7277291999780573,,,,,,,,,,3.0,8.0,44.0,8.0,255.8452616999857,,,,,,,,,,,,,,,,,255.8312447000062,257.0454323999584,257.8446539999568,257.8289442000096,,,,,,,,,,,,,,,,,,,,,,,,,,,,,,,,,,,257.83617019996746,257.8446539999568,257.8446539999568,258.58014480001293,r,1.0,0.7277291999780573,,,,,sub-098,1,stroop_test,59.99732410595401,
,,,,45.0,9.0,3.0,,,,,,,,,,,,,rot,red,r,1.0,r,1.0,0.5671745999716222,,,,,,,,,,3.0,9.0,45.0,0.0,258.594335199974,,,,,,,,,,,,,,,,,258.58084409998264,259.79418129997794,260.5961467999732,260.57941949996166,,,,,,,,,,,,,,,,,,,,,,,,,,,,,,,,,,,260.587495099986,260.5961467999732,260.5961467999732,261.17754359997343,r,1.0,0.5671745999716222,,,,,sub-098,1,stroop_test,59.99732410595401,
,,,,46.0,10.0,3.0,,,,,,,,,,,,,gelb,blue,b,0.0,b,1.0,0.5433588000014424,,,,,,,,,,3.0,10.0,46.0,9.0,261.1932247999939,,,,,,,,,,,,,,,,,261.1778462000075,261.9768546000123,262.7784706999664,262.76160629995866,,,,,,,,,,,,,,,,,,,,,,,,,,,,,,,,,,,262.76968019997,262.7784706999664,262.7784706999664,263.32926839997526,b,1.0,0.5433588000014424,,,,,sub-098,1,stroop_test,59.99732410595401,
,,,,47.0,11.0,3.0,,,,,,,,,,,,,blau,yellow,g,0.0,g,1.0,0.7679923999821767,,,,,,,,,,3.0,11.0,47.0,7.0,263.3432845000061,,,,,,,,,,,,,,,,,263.33016650000354,263.6933174000005,264.4937340999604,264.47857889998704,,,,,,,,,,,,,,,,,,,,,,,,,,,,,,,,,,,264.4857462999644,264.4937340999604,264.4937340999604,265.2792030000128,g,1.0,0.7679923999821767,,,,,sub-098,1,stroop_test,59.99732410595401,
,,,,48.0,0.0,4.0,,,,,,,,,,,,,blau,blue,b,1.0,b,1.0,0.5926037000026554,,,,,,,,,,4.0,0.0,48.0,6.0,265.2931506999885,,,,,,,,,,,,,,,,,265.2801682999707,265.642338900012,266.4417834999622,266.42704629997024,,,,,,,,,,,,,,,,,,,,,,,,,,,,,,,,,,,266.4283089999808,266.4417834999622,266.4417834999622,267.0434866999858,b,1.0,0.5926037000026554,,,,,sub-098,1,stroop_test,59.99732410595401,
,,,,49.0,1.0,4.0,,,,,,,,,,,,,blau,blue,b,1.0,b,1.0,0.52595989999827,,,,,,,,,,4.0,1.0,49.0,5.0,267.0584831999731,,,,,,,,,,,,,,,,,267.044075599988,267.1582692000084,267.9583946999628,267.9438941999688,,,,,,,,,,,,,,,,,,,,,,,,,,,,,,,,,,,267.9451859999681,267.9583946999628,267.9583946999628,268.4936557000037,b,1.0,0.52595989999827,,,,,sub-098,1,stroop_test,59.99732410595401,
,,,,50.0,2.0,4.0,,,,,,,,,,,,,rot,red,r,1.0,r,1.0,0.6639836999820545,,,,,,,,,,4.0,2.0,50.0,1.0,268.50758799997857,,,,,,,,,,,,,,,,,268.49444859998766,268.858044099994,269.6574502000003,269.64123700000346,,,,,,,,,,,,,,,,,,,,,,,,,,,,,,,,,,,269.6439215000137,269.6574502000003,269.6574502000003,270.3269885999616,r,1.0,0.6639836999820545,,,,,sub-098,1,stroop_test,59.99732410595401,
,,,,51.0,3.0,4.0,,,,,,,,,,,,,gelb,yellow,g,1.0,g,1.0,0.5166936999885365,,,,,,,,,,4.0,3.0,51.0,10.0,270.3407698000083,,,,,,,,,,,,,,,,,270.3276423999923,271.14007919997675,271.9440948999836,271.9253336999682,,,,,,,,,,,,,,,,,,,,,,,,,,,,,,,,,,,271.93513040000107,271.9440948999836,271.9440948999836,272.4755591999856,g,1.0,0.5166936999885365,,,,,sub-098,1,stroop_test,59.99732410595401,
,,,,52.0,4.0,4.0,,,,,,,,,,,,,rot,yellow,g,0.0,g,1.0,0.7624100999673828,,,,,,,,,,4.0,4.0,52.0,3.0,272.49002179998206,,,,,,,,,,,,,,,,,272.4761684999685,273.2900417000056,274.0911236999673,274.074784299999,,,,,,,,,,,,,,,,,,,,,,,,,,,,,,,,,,,274.08300649997545,274.0911236999673,274.0911236999673,274.85873269999865,g,1.0,0.7624100999673828,,,,,sub-098,1,stroop_test,59.99732410595401,
,,,,53.0,5.0,4.0,,,,,,,,,,,,,gelb,yellow,g,1.0,g,1.0,0.5750657999888062,,,,,,,,,,4.0,5.0,53.0,11.0,274.872636199987,,,,,,,,,,,,,,,,,274.85954539995873,275.2224996999721,276.024893099966,276.00725819997024,,,,,,,,,,,,,,,,,,,,,,,,,,,,,,,,,,,276.0168362999684,276.024893099966,276.024893099966,276.6098551999894,g,1.0,0.5750657999888062,,,,,sub-098,1,stroop_test,59.99732410595401,
,,,,54.0,6.0,4.0,,,,,,,,,,,,,rot,blue,b,0.0,b,1.0,0.5123207000433467,,,,,,,,,,4.0,6.0,54.0,2.0,276.6223309999914,,,,,,,,,,,,,,,,,276.61084569996456,276.97222609998425,277.7736172999721,277.75706079998054,,,,,,,,,,,,,,,,,,,,,,,,,,,,,,,,,,,277.7651763999602,277.7736172999721,277.7736172999721,278.2926174000022,b,1.0,0.5123207000433467,,,,,sub-098,1,stroop_test,59.99732410595401,
,,,,55.0,7.0,4.0,,,,,,,,,,,,,blau,red,r,0.0,r,1.0,0.8925586000550538,,,,,,,,,,4.0,7.0,55.0,4.0,278.3050369999837,,,,,,,,,,,,,,,,,278.29357019998133,279.5047367999796,280.30609540001024,280.2897757999599,,,,,,,,,,,,,,,,,,,,,,,,,,,,,,,,,,,280.2979389000102,280.30609540001024,280.30609540001024,281.20485189999454,r,1.0,0.8925586000550538,,,,,sub-098,1,stroop_test,59.99732410595401,
,,,,56.0,8.0,4.0,,,,,,,,,,,,,gelb,blue,b,0.0,b,1.0,0.818719000031706,,,,,,,,,,4.0,8.0,56.0,9.0,281.22025700000813,,,,,,,,,,,,,,,,,281.2051619999693,281.5540219999966,282.3534094999777,282.33750909997616,,,,,,,,,,,,,,,,,,,,,,,,,,,,,,,,,,,282.340821699996,282.3534094999777,282.3534094999777,283.1890080999583,b,1.0,0.818719000031706,,,,,sub-098,1,stroop_test,59.99732410595401,
,,,,57.0,9.0,4.0,,,,,,,,,,,,,rot,red,r,1.0,r,1.0,0.8049101000069641,,,,,,,,,,4.0,9.0,57.0,0.0,283.2033408000134,,,,,,,,,,,,,,,,,283.18974509998225,284.0032233999809,284.8030054999981,284.78773639997235,,,,,,,,,,,,,,,,,,,,,,,,,,,,,,,,,,,284.7938204999664,284.8030054999981,284.8030054999981,285.6217850999674,r,1.0,0.8049101000069641,,,,,sub-098,1,stroop_test,59.99732410595401,
,,,,58.0,10.0,4.0,,,,,,,,,,,,,blau,yellow,g,0.0,g,1.0,0.7090126000111923,,,,,,,,,,4.0,10.0,58.0,7.0,285.6360361999832,,,,,,,,,,,,,,,,,285.6225215999875,285.735889100004,286.53571679996094,286.52041980001377,,,,,,,,,,,,,,,,,,,,,,,,,,,,,,,,,,,286.5267910999828,286.53571679996094,286.53571679996094,287.25289269996574,g,1.0,0.7090126000111923,,,,,sub-098,1,stroop_test,59.99732410595401,
,,,,59.0,11.0,4.0,,,,,,,,,,,,,gelb,red,r,0.0,r,1.0,0.7368149000103585,,,,,,,,,,4.0,11.0,59.0,8.0,287.2683456999948,,,,,,,,,,,,,,,,,287.25320879998617,287.36834340001224,288.16818079998484,288.1520497999736,,,,,,,,,,,,,,,,,,,,,,,,,,,,,,,,,,,288.15486619999865,288.16818079998484,288.16818079998484,288.91935099998955,r,1.0,0.7368149000103585,,,,,sub-098,1,stroop_test,59.99732410595401,
,,,,60.0,0.0,5.0,,,,,,,,,,,,,blau,yellow,g,0.0,g,1.0,0.8575489000068046,,,,,,,,,,5.0,0.0,60.0,7.0,288.9346007999848,,,,,,,,,,,,,,,,,288.91962810000405,289.2850277000107,290.0842598999734,290.0682613999816,,,,,,,,,,,,,,,,,,,,,,,,,,,,,,,,,,,290.0713569999789,290.0842598999734,290.0842598999734,290.9522990999976,g,1.0,0.8575489000068046,,,,,sub-098,1,stroop_test,59.99732410595401,
,,,,61.0,1.0,5.0,,,,,,,,,,,,,gelb,yellow,g,1.0,g,1.0,0.5577724000322632,,,,,,,,,,5.0,1.0,61.0,10.0,290.9672038999852,,,,,,,,,,,,,,,,,290.9529911999707,291.0672384999925,291.8669738000026,291.85088400001405,,,,,,,,,,,,,,,,,,,,,,,,,,,,,,,,,,,291.85361039999407,291.8669738000026,291.8669738000026,292.4342594000045,g,1.0,0.5577724000322632,,,,,sub-098,1,stroop_test,59.99732410595401,
,,,,62.0,2.0,5.0,,,,,,,,,,,,,gelb,blue,b,0.0,b,1.0,0.5181196000194177,,,,,,,,,,5.0,2.0,62.0,9.0,292.45013740001014,,,,,,,,,,,,,,,,,292.4345554999891,293.23367109999526,294.0336602999596,294.0185027999687,,,,,,,,,,,,,,,,,,,,,,,,,,,,,,,,,,,294.0197664999869,294.0336602999596,294.0336602999596,294.5696221999824,b,1.0,0.5181196000194177,,,,,sub-098,1,stroop_test,59.99732410595401,
,,,,63.0,3.0,5.0,,,,,,,,,,,,,blau,red,r,0.0,r,1.0,0.5075754999998026,,,,,,,,,,5.0,3.0,63.0,4.0,294.5833224999951,,,,,,,,,,,,,,,,,294.5705845999764,295.38313989999006,296.18250619998435,296.1664477000013,,,,,,,,,,,,,,,,,,,,,,,,,,,,,,,,,,,296.16921069996897,296.18250619998435,296.18250619998435,296.70127139997203,r,1.0,0.5075754999998026,,,,,sub-098,1,stroop_test,59.99732410595401,
,,,,64.0,4.0,5.0,,,,,,,,,,,,,blau,blue,b,1.0,b,1.0,0.6604469000012614,,,,,,,,,,5.0,4.0,64.0,5.0,296.71599549998064,,,,,,,,,,,,,,,,,296.7019416000112,296.81587679998484,297.61586580000585,297.60113109997474,,,,,,,,,,,,,,,,,,,,,,,,,,,,,,,,,,,297.6028281999752,297.61586580000585,297.61586580000585,298.2855368999881,b,1.0,0.6604469000012614,,,,,sub-098,1,stroop_test,59.99732410595401,
,,,,65.0,5.0,5.0,,,,,,,,,,,,,rot,red,r,1.0,r,1.0,0.7969579999917187,,,,,,,,,,5.0,5.0,65.0,0.0,298.2988198999665,,,,,,,,,,,,,,,,,298.28661640000064,298.3987717999844,299.19847820000723,299.1829096999718,,,,,,,,,,,,,,,,,,,,,,,,,,,,,,,,,,,299.1883941999986,299.19847820000723,299.19847820000723,300.0010015000007,r,1.0,0.7969579999917187,,,,,sub-098,1,stroop_test,59.99732410595401,
,,,,66.0,6.0,5.0,,,,,,,,,,,,,rot,red,r,1.0,r,1.0,0.8351093999808654,,,,,,,,,,5.0,6.0,66.0,1.0,300.015006600006,,,,,,,,,,,,,,,,,300.00166690000333,300.3648802000098,301.16408129996853,301.14797369996086,,,,,,,,,,,,,,,,,,,,,,,,,,,,,,,,,,,301.1484213999938,301.16408129996853,301.16408129996853,302.01710999995703,r,1.0,0.8351093999808654,,,,,sub-098,1,stroop_test,59.99732410595401,
,,,,67.0,7.0,5.0,,,,,,,,,,,,,gelb,yellow,g,1.0,g,1.0,0.6682571999845095,,,,,,,,,,5.0,7.0,67.0,11.0,302.0309450000059,,,,,,,,,,,,,,,,,302.0180795000051,302.83081999997376,303.6317579000024,303.61542569997255,,,,,,,,,,,,,,,,,,,,,,,,,,,,,,,,,,,303.62351760000456,303.6317579000024,303.6317579000024,304.3164166999632,g,1.0,0.6682571999845095,,,,,sub-098,1,stroop_test,59.99732410595401,
,,,,68.0,8.0,5.0,,,,,,,,,,,,,rot,blue,b,0.0,b,1.0,0.8288978999480605,,,,,,,,,,5.0,8.0,68.0,2.0,304.33034220000263,,,,,,,,,,,,,,,,,304.3172760999878,305.5299043999985,306.3296292999876,306.3144779999857,,,,,,,,,,,,,,,,,,,,,,,,,,,,,,,,,,,306.32186450000154,306.3296292999876,306.3296292999876,307.1654632000136,b,1.0,0.8288978999480605,,,,,sub-098,1,stroop_test,59.99732410595401,
,,,,69.0,9.0,5.0,,,,,,,,,,,,,blau,blue,b,1.0,b,1.0,0.6819606000208296,,,,,,,,,,5.0,9.0,69.0,6.0,307.1792204999947,,,,,,,,,,,,,,,,,307.1664165999973,307.2791387999896,308.07993339997483,308.06404420000035,,,,,,,,,,,,,,,,,,,,,,,,,,,,,,,,,,,308.0722630000091,308.07993339997483,308.07993339997483,308.7655696999864,b,1.0,0.6819606000208296,,,,,sub-098,1,stroop_test,59.99732410595401,
,,,,70.0,10.0,5.0,,,,,,,,,,,,,rot,yellow,g,0.0,g,1.0,1.0124199000420049,,,,,,,,,,5.0,10.0,70.0,3.0,308.77896399999736,,,,,,,,,,,,,,,,,308.766393399972,308.878900599957,309.6783962000045,309.66351699997904,,,,,,,,,,,,,,,,,,,,,,,,,,,,,,,,,,,309.67039469996234,309.6783962000045,309.6783962000045,310.69774749997305,g,1.0,1.0124199000420049,,,,,sub-098,1,stroop_test,59.99732410595401,
,,,,71.0,11.0,5.0,,,,,,,,,,,,,gelb,red,r,0.0,r,1.0,0.7007307999883778,,,,,,,,,,5.0,11.0,71.0,8.0,310.71158030000515,,,,,,,,,,,,,,,,,310.6985669999849,311.9113042000099,312.71244699996896,312.69602440000745,,,,,,,,,,,,,,,,,,,,,,,,,,,,,,,,,,,312.70412820001366,312.71244699996896,312.71244699996896,313.4309019999928,r,1.0,0.7007307999883778,,,,,sub-098,1,stroop_test,59.99732410595401,
,,,,72.0,0.0,6.0,,,,,,,,,,,,,rot,blue,b,0.0,b,1.0,0.6290975000010803,,,,,,,,,,6.0,0.0,72.0,2.0,313.4442236999748,,,,,,,,,,,,,,,,,313.43182309996337,314.6433055999805,315.4458498999593,315.42875439999625,,,,,,,,,,,,,,,,,,,,,,,,,,,,,,,,,,,315.43651879997924,315.4458498999593,315.4458498999593,316.0790095999837,b,1.0,0.6290975000010803,,,,,sub-098,1,stroop_test,59.99732410595401,
,,,,73.0,1.0,6.0,,,,,,,,,,,,,blau,blue,b,1.0,b,1.0,0.7194400000153109,,,,,,,,,,6.0,1.0,73.0,5.0,316.0932010000106,,,,,,,,,,,,,,,,,316.0796248000115,316.19314190000296,316.99251339997863,316.9764703999972,,,,,,,,,,,,,,,,,,,,,,,,,,,,,,,,,,,316.97872319997987,316.99251339997863,316.99251339997863,317.727103799989,b,1.0,0.7194400000153109,,,,,sub-098,1,stroop_test,59.99732410595401,
,,,,74.0,2.0,6.0,,,,,,,,,,,,,gelb,red,r,0.0,r,1.0,0.6296102000051178,,,,,,,,,,6.0,2.0,74.0,8.0,317.7422004999826,,,,,,,,,,,,,,,,,317.72737400000915,318.9421044999617,319.74798849999206,319.7272907999577,,,,,,,,,,,,,,,,,,,,,,,,,,,,,,,,,,,319.738384199969,319.74798849999206,319.74798849999206,320.39417509996565,r,1.0,0.6296102000051178,,,,,sub-098,1,stroop_test,59.99732410595401,
,,,,75.0,3.0,6.0,,,,,,,,,,,,,gelb,yellow,g,1.0,g,1.0,0.3857920999871567,,,,,,,,,,6.0,3.0,75.0,10.0,320.4085305999615,,,,,,,,,,,,,,,,,320.39503869996406,321.60854980000295,322.40776550001465,322.3921071999939,,,,,,,,,,,,,,,,,,,,,,,,,,,,,,,,,,,322.39285870001186,322.40776550001465,322.40776550001465,322.8100650999695,g,1.0,0.3857920999871567,,,,,sub-098,1,stroop_test,59.99732410595401,
,,,,76.0,4.0,6.0,,,,,,,,,,,,,gelb,blue,b,0.0,b,1.0,0.7358772000297904,,,,,,,,,,6.0,4.0,76.0,9.0,322.8246002999949,,,,,,,,,,,,,,,,,322.81082279997645,324.0246049999841,324.8243395999889,324.8092951999861,,,,,,,,,,,,,,,,,,,,,,,,,,,,,,,,,,,324.8105958999949,324.8243395999889,324.8243395999889,325.57693380001,b,1.0,0.7358772000297904,,,,,sub-098,1,stroop_test,59.99732410595401,
,,,,77.0,5.0,6.0,,,,,,,,,,,,,blau,yellow,g,0.0,g,1.0,0.8433892999892123,,,,,,,,,,6.0,5.0,77.0,7.0,325.5903038000106,,,,,,,,,,,,,,,,,325.5780434999615,325.6902716999757,326.4897866999964,326.4738760999753,,,,,,,,,,,,,,,,,,,,,,,,,,,,,,,,,,,326.4769624999608,326.4897866999964,326.4897866999964,327.3425328999874,g,1.0,0.8433892999892123,,,,,sub-098,1,stroop_test,59.99732410595401,
,,,,78.0,6.0,6.0,,,,,,,,,,,,,blau,red,r,0.0,r,1.0,0.6353536000242457,,,,,,,,,,6.0,6.0,78.0,4.0,327.3563043999602,,,,,,,,,,,,,,,,,327.3433566999738,327.45644539996283,328.255694099993,328.24122079997323,,,,,,,,,,,,,,,,,,,,,,,,,,,,,,,,,,,328.242337499978,328.255694099993,328.255694099993,328.9088212999632,r,1.0,0.6353536000242457,,,,,sub-098,1,stroop_test,59.99732410595401,
,,,,79.0,7.0,6.0,,,,,,,,,,,,,rot,red,r,1.0,r,1.0,0.7654092999873683,,,,,,,,,,6.0,7.0,79.0,1.0,328.92265849997057,,,,,,,,,,,,,,,,,328.9096445000032,330.1220743999584,330.92183760000626,330.90675049996935,,,,,,,,,,,,,,,,,,,,,,,,,,,,,,,,,,,330.913052399992,330.92183760000626,330.92183760000626,331.6916762999608,r,1.0,0.7654092999873683,,,,,sub-098,1,stroop_test,59.99732410595401,
,,,,80.0,8.0,6.0,,,,,,,,,,,,,rot,yellow,g,0.0,g,1.0,0.8651979000424035,,,,,,,,,,6.0,8.0,80.0,3.0,331.7051909000147,,,,,,,,,,,,,,,,,331.6927818999975,331.8050814999733,332.6048824999598,332.58997530001216,,,,,,,,,,,,,,,,,,,,,,,,,,,,,,,,,,,332.5913048000075,332.6048824999598,332.6048824999598,333.47324879997177,g,1.0,0.8651979000424035,,,,,sub-098,1,stroop_test,59.99732410595401,
,,,,81.0,9.0,6.0,,,,,,,,,,,,,blau,blue,b,1.0,b,1.0,0.4631388999987393,,,,,,,,,,6.0,9.0,81.0,6.0,333.4876409000135,,,,,,,,,,,,,,,,,333.4739472999936,333.83765609998954,334.6391714999918,334.62263609998627,,,,,,,,,,,,,,,,,,,,,,,,,,,,,,,,,,,334.6305935999844,334.6391714999918,334.6391714999918,335.1074559999979,b,1.0,0.4631388999987393,,,,,sub-098,1,stroop_test,59.99732410595401,
,,,,82.0,10.0,6.0,,,,,,,,,,,,,gelb,yellow,g,1.0,g,1.0,0.6488740999484435,,,,,,,,,,6.0,10.0,82.0,11.0,335.12076039996464,,,,,,,,,,,,,,,,,335.10844919999363,335.92049220000627,336.7244063999969,336.7057938000071,,,,,,,,,,,,,,,,,,,,,,,,,,,,,,,,,,,336.71577189996606,336.7244063999969,336.7244063999969,337.38756309996825,g,1.0,0.6488740999484435,,,,,sub-098,1,stroop_test,59.99732410595401,
,,,,83.0,11.0,6.0,,,,,,,,,,,,,rot,red,r,1.0,r,1.0,0.6351945999776945,,,,,,,,,,6.0,11.0,83.0,0.0,337.40280420001363,,,,,,,,,,,,,,,,,337.38790049997624,337.5033127999632,338.3028476999607,338.2874664000119,,,,,,,,,,,,,,,,,,,,,,,,,,,,,,,,,,,338.29454849998,338.3028476999607,338.3028476999607,338.9556506999652,r,1.0,0.6351945999776945,,,,,sub-098,1,stroop_test,59.99732410595401,
,,,,84.0,0.0,7.0,,,,,,,,,,,,,rot,red,r,1.0,r,1.0,0.6416336999973282,,,,,,,,,,7.0,0.0,84.0,1.0,338.9693704000092,,,,,,,,,,,,,,,,,338.9566432000138,340.16931759996805,340.9688743999577,340.95389279996743,,,,,,,,,,,,,,,,,,,,,,,,,,,,,,,,,,,340.95508549996885,340.9688743999577,340.9688743999577,341.6218220999581,r,1.0,0.6416336999973282,,,,,sub-098,1,stroop_test,59.99732410595401,
,,,,85.0,1.0,7.0,,,,,,,,,,,,,gelb,blue,b,0.0,b,1.0,0.8478528999839909,,,,,,,,,,7.0,1.0,85.0,9.0,341.6352435000008,,,,,,,,,,,,,,,,,341.62280610000016,341.7348190000048,342.542040899978,342.52083579998,,,,,,,,,,,,,,,,,,,,,,,,,,,,,,,,,,,342.5308960999828,342.542040899978,342.542040899978,343.4046716999728,b,1.0,0.8478528999839909,,,,,sub-098,1,stroop_test,59.99732410595401,
,,,,86.0,2.0,7.0,,,,,,,,,,,,,blau,blue,b,1.0,b,1.0,0.6071502999984659,,,,,,,,,,7.0,2.0,86.0,6.0,343.4179201999796,,,,,,,,,,,,,,,,,343.4055914999917,344.6177339999704,345.417371699994,345.40207989997,,,,,,,,,,,,,,,,,,,,,,,,,,,,,,,,,,,345.40844979998656,345.417371699994,345.417371699994,346.03606859996216,b,1.0,0.6071502999984659,,,,,sub-098,1,stroop_test,59.99732410595401,
,,,,87.0,3.0,7.0,,,,,,,,,,,,,blau,yellow,g,0.0,g,1.0,0.6399605999467894,,,,,,,,,,7.0,3.0,87.0,7.0,346.0503105999669,,,,,,,,,,,,,,,,,346.036756699963,347.2501951999729,348.0498849999858,348.0349919999717,,,,,,,,,,,,,,,,,,,,,,,,,,,,,,,,,,,348.0362927999813,348.0498849999858,348.0498849999858,348.7008276999695,g,1.0,0.6399605999467894,,,,,sub-098,1,stroop_test,59.99732410595401,
,,,,88.0,4.0,7.0,,,,,,,,,,,,,gelb,red,r,0.0,r,1.0,0.7663274999940768,,,,,,,,,,7.0,4.0,88.0,8.0,348.71586950001074,,,,,,,,,,,,,,,,,348.70116739999503,348.8157862999942,349.6156201999984,349.5997182999854,,,,,,,,,,,,,,,,,,,,,,,,,,,,,,,,,,,349.60245369997574,349.6156201999984,349.6156201999984,350.38476829999126,r,1.0,0.7663274999940768,,,,,sub-098,1,stroop_test,59.99732410595401,
,,,,89.0,5.0,7.0,,,,,,,,,,,,,rot,red,r,1.0,r,1.0,0.7564880999852903,,,,,,,,,,7.0,5.0,89.0,0.0,350.3990802000044,,,,,,,,,,,,,,,,,350.3855121000088,350.7486895999755,351.5482847999665,351.5325441999594,,,,,,,,,,,,,,,,,,,,,,,,,,,,,,,,,,,351.5387755999691,351.5482847999665,351.5482847999665,352.31574739998905,r,1.0,0.7564880999852903,,,,,sub-098,1,stroop_test,59.99732410595401,
,,,,90.0,6.0,7.0,,,,,,,,,,,,,blau,red,r,0.0,r,1.0,0.5505975999985822,,,,,,,,,,7.0,6.0,90.0,4.0,352.3314395999769,,,,,,,,,,,,,,,,,352.3160695999977,353.5150212000008,354.3156233999762,354.2996579000028,,,,,,,,,,,,,,,,,,,,,,,,,,,,,,,,,,,354.307526199962,354.3156233999762,354.3156233999762,354.8838352999883,r,1.0,0.5505975999985822,,,,,sub-098,1,stroop_test,59.99732410595401,
,,,,91.0,7.0,7.0,,,,,,,,,,,,,rot,blue,b,0.0,b,1.0,0.5561450999812223,,,,,,,,,,7.0,7.0,91.0,2.0,354.89794399996754,,,,,,,,,,,,,,,,,354.88481519999914,354.997906900011,355.80164029996376,355.78454600000987,,,,,,,,,,,,,,,,,,,,,,,,,,,,,,,,,,,355.79254100000253,355.80164029996376,355.80164029996376,356.3678153000073,b,1.0,0.5561450999812223,,,,,sub-098,1,stroop_test,59.99732410595401,
,,,,92.0,8.0,7.0,,,,,,,,,,,,,gelb,yellow,g,1.0,r,0.0,0.6108195999986492,,,,,,,,,,7.0,8.0,92.0,10.0,356.38100850000046,,,,,,,,,,,,,,,,,356.3687752999831,357.5804356999579,358.3820598999737,358.36512269999366,,,,,,,,,,,,,,,,,,,,,,,,,,,,,,,,,,,358.3747038000147,358.3820598999737,358.3820598999737,358.9985925999936,r,0.0,0.6108195999986492,,,,,sub-098,1,stroop_test,59.99732410595401,
,,,,93.0,9.0,7.0,,,,,,,,,,,,,blau,blue,b,1.0,b,1.0,0.6334334000130184,,,,,,,,,,7.0,9.0,93.0,5.0,359.0129042000044,,,,,,,,,,,,,,,,,358.9992928999709,360.21303360001184,361.0130161999841,360.9979851999669,,,,,,,,,,,,,,,,,,,,,,,,,,,,,,,,,,,361.00592450000113,361.0130161999841,361.0130161999841,361.64949629997136,b,1.0,0.6334334000130184,,,,,sub-098,1,stroop_test,59.99732410595401,
,,,,94.0,10.0,7.0,,,,,,,,,,,,,gelb,yellow,g,1.0,g,1.0,0.7474114000215195,,,,,,,,,,7.0,10.0,94.0,11.0,361.6623887000024,,,,,,,,,,,,,,,,,361.6504478999996,362.0122601999901,362.8186905999901,362.79694889998063,,,,,,,,,,,,,,,,,,,,,,,,,,,,,,,,,,,362.8078212999972,362.8186905999901,362.8186905999901,363.5816511999583,g,1.0,0.7474114000215195,,,,,sub-098,1,stroop_test,59.99732410595401,
,,,,95.0,11.0,7.0,,,,,,,,,,,,,rot,yellow,g,0.0,g,1.0,0.6613856999902055,,,,,,,,,,7.0,11.0,95.0,3.0,363.5954818999744,,,,,,,,,,,,,,,,,363.5826449999586,364.3951014999766,365.1980965000112,365.1800839999924,,,,,,,,,,,,,,,,,,,,,,,,,,,,,,,,,,,365.1887480999576,365.1980965000112,365.1980965000112,365.8644124999992,g,1.0,0.6613856999902055,,,,,sub-098,1,stroop_test,59.99732410595401,
,,,,96.0,0.0,8.0,,,,,,,,,,,,,rot,red,r,1.0,r,1.0,0.6976450000074692,,,,,,,,,,8.0,0.0,96.0,1.0,365.87770690000616,,,,,,,,,,,,,,,,,365.8652205999824,366.2274708999903,367.0273440000019,367.0119520999724,,,,,,,,,,,,,,,,,,,,,,,,,,,,,,,,,,,367.0130904999678,367.0273440000019,367.0273440000019,367.7302573999623,r,1.0,0.6976450000074692,,,,,sub-098,1,stroop_test,59.99732410595401,
,,,,97.0,1.0,8.0,,,,,,,,,,,,,rot,red,r,1.0,r,1.0,0.7990330000175163,,,,,,,,,,8.0,1.0,97.0,0.0,367.7434016999905,,,,,,,,,,,,,,,,,367.7308172999765,368.5433238999685,369.3433760000044,369.328678699967,,,,,,,,,,,,,,,,,,,,,,,,,,,,,,,,,,,369.32961249997607,369.3433760000044,369.3433760000044,370.1450671000057,r,1.0,0.7990330000175163,,,,,sub-098,1,stroop_test,59.99732410595401,
,,,,98.0,2.0,8.0,,,,,,,,,,,,,blau,yellow,g,0.0,g,1.0,0.8427815000177361,,,,,,,,,,8.0,2.0,98.0,7.0,370.1596640999778,,,,,,,,,,,,,,,,,370.145723900001,371.3589161999989,372.16082539997296,372.1443481000024,,,,,,,,,,,,,,,,,,,,,,,,,,,,,,,,,,,372.1522503999877,372.16082539997296,372.16082539997296,373.01161129999673,g,1.0,0.8427815000177361,,,,,sub-098,1,stroop_test,59.99732410595401,
,,,,99.0,3.0,8.0,,,,,,,,,,,,,gelb,yellow,g,1.0,g,1.0,0.7369405999779701,,,,,,,,,,8.0,3.0,99.0,11.0,373.0255356999696,,,,,,,,,,,,,,,,,373.0123963999795,374.2252013999969,375.0263090999797,375.00988279999,,,,,,,,,,,,,,,,,,,,,,,,,,,,,,,,,,,375.01816009997856,375.0263090999797,375.0263090999797,375.7772334999754,g,1.0,0.7369405999779701,,,,,sub-098,1,stroop_test,59.99732410595401,
,,,,100.0,4.0,8.0,,,,,,,,,,,,,gelb,yellow,g,1.0,g,1.0,0.6690062999841757,,,,,,,,,,8.0,4.0,100.0,10.0,375.7913123999606,,,,,,,,,,,,,,,,,375.7780707000056,375.8914194999961,376.6908975999686,376.6761296999757,,,,,,,,,,,,,,,,,,,,,,,,,,,,,,,,,,,376.6774020000012,376.6908975999686,376.6908975999686,377.3768745000125,g,1.0,0.6690062999841757,,,,,sub-098,1,stroop_test,59.99732410595401,
,,,,101.0,5.0,8.0,,,,,,,,,,,,,gelb,blue,b,0.0,b,1.0,0.6968073000316508,,,,,,,,,,8.0,5.0,101.0,9.0,377.3908798999619,,,,,,,,,,,,,,,,,377.37767019995954,378.1904543999699,378.9904040999827,378.9754136999836,,,,,,,,,,,,,,,,,,,,,,,,,,,,,,,,,,,378.9767590999836,378.9904040999827,378.9904040999827,379.6933206999674,b,1.0,0.6968073000316508,,,,,sub-098,1,stroop_test,59.99732410595401,
,,,,102.0,6.0,8.0,,,,,,,,,,,,,rot,yellow,g,0.0,g,1.0,0.8823104000184685,,,,,,,,,,8.0,6.0,102.0,3.0,379.7068714000052,,,,,,,,,,,,,,,,,379.6942591000116,380.5066033999901,381.3056716999854,381.2898073999677,,,,,,,,,,,,,,,,,,,,,,,,,,,,,,,,,,,381.2922798999935,381.3056716999854,381.3056716999854,382.1925098999636,g,1.0,0.8823104000184685,,,,,sub-098,1,stroop_test,59.99732410595401,
,,,,103.0,7.0,8.0,,,,,,,,,,,,,gelb,red,r,0.0,r,1.0,0.6920830000308342,,,,,,,,,,8.0,7.0,103.0,8.0,382.2059846000048,,,,,,,,,,,,,,,,,382.1934302999871,382.30579859996215,383.11010859999806,383.0906907999888,,,,,,,,,,,,,,,,,,,,,,,,,,,,,,,,,,,383.1006261999719,383.11010859999806,383.11010859999806,383.80874760000734,r,1.0,0.6920830000308342,,,,,sub-098,1,stroop_test,59.99732410595401,
,,,,104.0,8.0,8.0,,,,,,,,,,,,,rot,blue,b,0.0,b,1.0,0.6794755000155419,,,,,,,,,,8.0,8.0,104.0,2.0,383.82215269998414,,,,,,,,,,,,,,,,,383.8097520999727,385.0219411999569,385.8237228000071,385.8064024999621,,,,,,,,,,,,,,,,,,,,,,,,,,,,,,,,,,,385.8161332999589,385.8237228000071,385.8237228000071,386.5061678999919,b,1.0,0.6794755000155419,,,,,sub-098,1,stroop_test,59.99732410595401,
,,,,105.0,9.0,8.0,,,,,,,,,,,,,blau,red,r,0.0,r,1.0,0.9774538999772632,,,,,,,,,,8.0,9.0,105.0,4.0,386.5211180999759,,,,,,,,,,,,,,,,,386.5066029999871,387.72110189998057,388.5221585999825,388.5057963000145,,,,,,,,,,,,,,,,,,,,,,,,,,,,,,,,,,,388.5145595999784,388.5221585999825,388.5221585999825,389.5073902999866,r,1.0,0.9774538999772632,,,,,sub-098,1,stroop_test,59.99732410595401,
,,,,106.0,10.0,8.0,,,,,,,,,,,,,blau,blue,b,1.0,b,1.0,0.8169335999991745,,,,,,,,,,8.0,10.0,106.0,6.0,389.5205593999708,,,,,,,,,,,,,,,,,389.5083795000101,390.7199806999997,391.5198020999669,391.5050111999735,,,,,,,,,,,,,,,,,,,,,,,,,,,,,,,,,,,391.506358899991,391.5198020999669,391.5198020999669,392.33890779997455,b,1.0,0.8169335999991745,,,,,sub-098,1,stroop_test,59.99732410595401,
,,,,107.0,11.0,8.0,,,,,,,,,,,,,blau,blue,b,1.0,b,1.0,0.6991057000122964,,,,,,,,,,8.0,11.0,107.0,5.0,392.3524420000031,,,,,,,,,,,,,,,,,392.3395170000149,392.4525433999952,393.2527295000036,393.23739879997447,,,,,,,,,,,,,,,,,,,,,,,,,,,,,,,,,,,393.2385342000052,393.2527295000036,393.2527295000036,393.9552549999789,b,1.0,0.6991057000122964,,,,,sub-098,1,stroop_test,59.99732410595401,
,,,,108.0,0.0,9.0,,,,,,,,,,,,,blau,yellow,g,0.0,g,1.0,0.7632906999788247,,,,,,,,,,9.0,0.0,108.0,7.0,393.9689340000041,,,,,,,,,,,,,,,,,393.9562872999813,394.0688956999802,394.8687739999732,394.8533101999783,,,,,,,,,,,,,,,,,,,,,,,,,,,,,,,,,,,394.85445409995737,394.8687739999732,394.8687739999732,395.63874209998176,g,1.0,0.7632906999788247,,,,,sub-098,1,stroop_test,59.99732410595401,
,,,,109.0,1.0,9.0,,,,,,,,,,,,,rot,red,r,1.0,r,1.0,0.5489259000169113,,,,,,,,,,9.0,1.0,109.0,1.0,395.65188949997537,,,,,,,,,,,,,,,,,395.6395727999625,396.0017562999856,396.8014458999969,396.7863956000074,,,,,,,,,,,,,,,,,,,,,,,,,,,,,,,,,,,396.7935324999853,396.8014458999969,396.8014458999969,397.354247100011,r,1.0,0.5489259000169113,,,,,sub-098,1,stroop_test,59.99732410595401,
,,,,110.0,2.0,9.0,,,,,,,,,,,,,rot,red,r,1.0,r,1.0,0.5813340000458993,,,,,,,,,,9.0,2.0,110.0,0.0,397.3680309999618,,,,,,,,,,,,,,,,,397.3550696999882,397.7174658000004,398.5176548999734,398.5025954999728,,,,,,,,,,,,,,,,,,,,,,,,,,,,,,,,,,,398.5038851000136,398.5176548999734,398.5176548999734,399.10446729999967,r,1.0,0.5813340000458993,,,,,sub-098,1,stroop_test,59.99732410595401,
,,,,111.0,3.0,9.0,,,,,,,,,,,,,gelb,blue,b,0.0,b,1.0,0.6105458000092767,,,,,,,,,,9.0,3.0,111.0,9.0,399.11744770000223,,,,,,,,,,,,,,,,,399.10551620001206,400.31718409998575,401.1214996000053,401.101764299965,,,,,,,,,,,,,,,,,,,,,,,,,,,,,,,,,,,401.1126412999584,401.1214996000053,401.1214996000053,401.7363230999909,b,1.0,0.6105458000092767,,,,,sub-098,1,stroop_test,59.99732410595401,
,,,,112.0,4.0,9.0,,,,,,,,,,,,,gelb,yellow,g,1.0,g,1.0,0.7649943999713287,,,,,,,,,,9.0,4.0,112.0,10.0,401.7500168000115,,,,,,,,,,,,,,,,,401.73739079997176,402.54939020000165,403.3494483999675,403.3349601000082,,,,,,,,,,,,,,,,,,,,,,,,,,,,,,,,,,,403.3362688999623,403.3494483999675,403.3494483999675,404.1187577999663,g,1.0,0.7649943999713287,,,,,sub-098,1,stroop_test,59.99732410595401,
,,,,113.0,5.0,9.0,,,,,,,,,,,,,blau,blue,b,1.0,b,1.0,0.6008028000360355,,,,,,,,,,9.0,5.0,113.0,6.0,404.1323607999948,,,,,,,,,,,,,,,,,404.1193502999959,404.9322967999615,405.73435109999264,405.7170923000085,,,,,,,,,,,,,,,,,,,,,,,,,,,,,,,,,,,405.7254530999926,405.73435109999264,405.73435109999264,406.35147359996336,b,1.0,0.6008028000360355,,,,,sub-098,1,stroop_test,59.99732410595401,
,,,,114.0,6.0,9.0,,,,,,,,,,,,,gelb,red,r,0.0,r,1.0,0.7409776000422426,,,,,,,,,,9.0,6.0,114.0,8.0,406.3652177999611,,,,,,,,,,,,,,,,,406.3524511999567,406.4649599000113,407.2692467999877,407.2503716999781,,,,,,,,,,,,,,,,,,,,,,,,,,,,,,,,,,,407.2595777999959,407.2692467999877,407.2692467999877,408.0172831999953,r,1.0,0.7409776000422426,,,,,sub-098,1,stroop_test,59.99732410595401,
,,,,115.0,7.0,9.0,,,,,,,,,,,,,blau,red,r,0.0,r,1.0,0.7648703000159003,,,,,,,,,,9.0,7.0,115.0,4.0,408.0312063999591,,,,,,,,,,,,,,,,,408.0182260999573,408.8305337000056,409.6303057000041,409.6141438999912,,,,,,,,,,,,,,,,,,,,,,,,,,,,,,,,,,,409.6166508999886,409.6303057000041,409.6303057000041,410.3984760000021,r,1.0,0.7648703000159003,,,,,sub-098,1,stroop_test,59.99732410595401,
,,,,116.0,8.0,9.0,,,,,,,,,,,,,gelb,yellow,g,1.0,g,1.0,0.5710906999884173,,,,,,,,,,9.0,8.0,116.0,11.0,410.4132905000006,,,,,,,,,,,,,,,,,410.399074499961,410.5135497999727,411.31312629999593,411.2971347999992,,,,,,,,,,,,,,,,,,,,,,,,,,,,,,,,,,,411.29997829999775,411.31312629999593,411.31312629999593,411.8989152999711,g,1.0,0.5710906999884173,,,,,sub-098,1,stroop_test,59.99732410595401,
,,,,117.0,9.0,9.0,,,,,,,,,,,,,blau,blue,b,1.0,b,1.0,0.643106599978637,,,,,,,,,,9.0,9.0,117.0,5.0,411.9133103999775,,,,,,,,,,,,,,,,,411.89957369997865,412.7126785999863,413.5123015000136,413.4961641000118,,,,,,,,,,,,,,,,,,,,,,,,,,,,,,,,,,,413.4984160999884,413.5123015000136,413.5123015000136,414.1632287999964,b,1.0,0.643106599978637,,,,,sub-098,1,stroop_test,59.99732410595401,
,,,,118.0,10.0,9.0,,,,,,,,,,,,,rot,yellow,g,0.0,g,1.0,0.8181225000298582,,,,,,,,,,9.0,10.0,118.0,3.0,414.1788341999636,,,,,,,,,,,,,,,,,414.1635021999828,414.5289659000118,415.32854630000656,415.3135930999997,,,,,,,,,,,,,,,,,,,,,,,,,,,,,,,,,,,415.3198822999839,415.32854630000656,415.32854630000656,416.1645499999868,g,1.0,0.8181225000298582,,,,,sub-098,1,stroop_test,59.99732410595401,
,,,,119.0,11.0,9.0,,,,,,,,,,,,,rot,blue,b,0.0,b,1.0,0.9196838000207208,,,,,,,,,,9.0,11.0,119.0,2.0,416.1788672999828,,,,,,,,,,,,,,,,,416.1653487999574,417.37853849999374,418.1782122000004,418.1632958999835,,,,,,,,,,,,,,,,,,,,,,,,,,,,,,,,,,,418.1646508999984,418.1782122000004,418.1782122000004,419.1135997999809,b,1.0,0.9196838000207208,,,,,sub-098,1,stroop_test,59.99732410595401,
,,,,,,,,,,,,,,,,,,,,,,,,,,,,,,,,,,,,,,,,,,,,,,,,,,,,,,,,,,,,,,,,,,,,,,,,,,,,,,,,,,,,,,,,,,,,,,,,,,,,,,419.113984399999,419.1278538999613,424.1270004999824,sub-098,1,stroop_test,59.99732410595401,
