wordCTK,colorCTK,corrAnsCTK,congruentCTK,thisN,thisTrialN,thisRepN,keyResp_CTK.keys,keyResp_CTK.corr,keyResp_CTK.rt,keyResp_CTK.duration,wordPractice,colorPractice,corrAnsPractice,congruentPractice,respPractice.keys,respPractice.corr,respPractice.rt,respPractice.duration,word,color,corrAns,congruent,keyResp_test_run.keys,keyResp_test_run.corr,keyResp_test_run.rt,keyResp_test_run.duration,trials_CTK.thisRepN,trials_CTK.thisTrialN,trials_CTK.thisN,trials_CTK.thisIndex,trials_practice.thisRepN,trials_practice.thisTrialN,trials_practice.thisN,trials_practice.thisIndex,trials_test.thisRepN,trials_test.thisTrialN,trials_test.thisN,trials_test.thisIndex,thisRow.t,notes,instruction.started,instr_text.started,instr_image.started,instr_resp.started,instruction.stopped,instr_resp.keys,instr_resp.rt,instr_resp.duration,instr_color_to_key.started,instr_ctk.started,resp_ctk.started,instr_color_to_key.stopped,resp_ctk.keys,resp_ctk.rt,resp_ctk.duration,ITI.started,fixcross.started,fixcross.stopped,ITI.stopped,color_to_key_run.started,stimulus_CTK.started,keyResp_CTK.started,color_to_key_run.stopped,trials_CTK.keyResp_CTK.keys,trials_CTK.keyResp_CTK.corr,trials_CTK.keyResp_CTK.rt,trials_CTK.keyResp_CTK.duration,instr_practice.started,instr_practice_text.started,instr_practice_resp.started,instr_practice.stopped,instr_practice_resp.keys,instr_practice_resp.rt,instr_practice_resp.duration,practice_run.started,stimulus_practice.started,respPractice.started,practice_run.stopped,trials_practice.respPractice.keys,trials_practice.respPractice.corr,trials_practice.respPractice.rt,trials_practice.respPractice.duration,feedback.started,textFeedback.started,textFeedback.stopped,feedback.stopped,instr_test.started,instr_test_text.started,instr_test_resp.started,instr_test.stopped,instr_test_resp.keys,instr_test_resp.rt,instr_test_resp.duration,test_run.started,stimulus_test_run.started,keyResp_test_run.started,test_run.stopped,trials_test.keyResp_test_run.keys,trials_test.keyResp_test_run.corr,trials_test.keyResp_test_run.rt,trials_test.keyResp_test_run.duration,goodbye.started,textGoodbye.started,textGoodbye.stopped,goodbye.stopped,participant,session,expName,frameRate,Unnamed: 113
,,,,,,,,,,,,,,,,,,,,,,,,,,,,,,,,,,,,,,,,,0.0047040001954883,0.0262309000827372,0.0262309000827372,0.0262309000827372,12.176856300095096,space,12.112855599960312,,,,,,,,,,,,,,,,,,,,,,,,,,,,,,,,,,,,,,,,,,,,,,,,,,,,,,,,,,,sub-054,1,stroop_test,,
,,,,,,,,,,,,,,,,,,,,,,,,,,,,,,,,,,,,,,,,,,,,,,,,,12.176908700028434,12.183866600040346,12.183866600040346,16.778966600075364,space,4.58753539994359,,,,,,,,,,,,,,,,,,,,,,,,,,,,,,,,,,,,,,,,,,,,,,,,,,,,sub-054,1,stroop_test,,
test,yellow,g,1.0,0.0,0.0,0.0,g,1.0,0.8737244999501854,,,,,,,,,,,,,,,,,,0.0,0.0,0.0,1.0,,,,,,,,,16.80605400004424,,,,,,,,,,,,,,,,,16.788650900125504,17.592962900176644,18.39259260008112,18.376988200005144,18.382998500019312,18.39259260008112,18.39259260008112,19.278994500171397,g,1.0,0.8737244999501854,,,,,,,,,,,,,,,,,,,,,,,,,,,,,,,,,,,,,,,,sub-054,1,stroop_test,,
test,blue,b,1.0,1.0,1.0,0.0,b,1.0,0.4947882001288235,,,,,,,,,,,,,,,,,,0.0,1.0,1.0,2.0,,,,,,,,,19.293209900148213,,,,,,,,,,,,,,,,,19.27933050016873,20.492147200042385,21.29240030003712,21.27696230006404,21.277235600166023,21.29240030003712,21.29240030003712,21.79401690000668,b,1.0,0.4947882001288235,,,,,,,,,,,,,,,,,,,,,,,,,,,,,,,,,,,,,,,,sub-054,1,stroop_test,,
test,red,r,1.0,2.0,2.0,0.0,r,1.0,0.4072579999919981,,,,,,,,,,,,,,,,,,0.0,2.0,2.0,0.0,,,,,,,,,21.809522200142965,,,,,,,,,,,,,,,,,21.79426100011915,21.909995299996808,22.70980289997533,22.694441200001165,22.69482149998657,22.70980289997533,22.70980289997533,23.12700020009652,r,1.0,0.4072579999919981,,,,,,,,,,,,,,,,,,,,,,,,,,,,,,,,,,,,,,,,sub-054,1,stroop_test,,
test,red,r,1.0,3.0,0.0,1.0,r,1.0,0.5030050999484956,,,,,,,,,,,,,,,,,,1.0,0.0,3.0,0.0,,,,,,,,,23.143567600054663,,,,,,,,,,,,,,,,,23.127221500035372,23.942281000083312,24.742002800107,24.725696000037715,24.72598069999367,24.742002800107,24.742002800107,25.25987710012123,r,1.0,0.5030050999484956,,,,,,,,,,,,,,,,,,,,,,,,,,,,,,,,,,,,,,,,sub-054,1,stroop_test,,
test,yellow,g,1.0,4.0,1.0,1.0,g,1.0,0.7013395000249147,,,,,,,,,,,,,,,,,,1.0,1.0,4.0,1.0,,,,,,,,,25.27539200009778,,,,,,,,,,,,,,,,,25.26008590008132,25.3590265000239,26.15944529999979,26.143379400018603,26.143669800134376,26.15944529999979,26.15944529999979,26.877151700202376,g,1.0,0.7013395000249147,,,,,,,,,,,,,,,,,,,,,,,,,,,,,,,,,,,,,,,,sub-054,1,stroop_test,,
test,blue,b,1.0,5.0,2.0,1.0,b,1.0,0.4160498999990523,,,,,,,,,,,,,,,,,,1.0,2.0,5.0,2.0,,,,,,,,,26.89457800006494,,,,,,,,,,,,,,,,,26.877375700045377,27.691816700156775,28.49285120004788,28.47735480009578,28.477736399974678,28.49285120004788,28.49285120004788,28.91165820020251,b,1.0,0.4160498999990523,,,,,,,,,,,,,,,,,,,,,,,,,,,,,,,,,,,,,,,,sub-054,1,stroop_test,,
test,red,r,1.0,6.0,0.0,2.0,r,1.0,0.5499682000372559,,,,,,,,,,,,,,,,,,2.0,0.0,6.0,0.0,,,,,,,,,28.926542000146583,,,,,,,,,,,,,,,,,28.91185490018688,30.12703640013933,30.926213999977332,30.910158900078383,30.91055100015365,30.926213999977332,30.926213999977332,31.47905960003845,r,1.0,0.5499682000372559,,,,,,,,,,,,,,,,,,,,,,,,,,,,,,,,,,,,,,,,sub-054,1,stroop_test,,
test,yellow,g,1.0,7.0,1.0,2.0,g,1.0,0.5836237000767142,,,,,,,,,,,,,,,,,,2.0,1.0,7.0,1.0,,,,,,,,,31.49333199998364,,,,,,,,,,,,,,,,,31.479254000121728,32.29236490000039,33.09158520004712,33.076160500058904,33.076436900068074,33.09158520004712,33.09158520004712,33.67717350018211,g,1.0,0.5836237000767142,,,,,,,,,,,,,,,,,,,,,,,,,,,,,,,,,,,,,,,,sub-054,1,stroop_test,,
test,blue,b,1.0,8.0,2.0,2.0,b,1.0,0.9404358000028878,,,,,,,,,,,,,,,,,,2.0,2.0,8.0,2.0,,,,,,,,,33.691474199993536,,,,,,,,,,,,,,,,,33.677396800136194,33.79128020000644,34.59332670015283,34.57679880014621,34.577155800070614,34.59332670015283,34.59332670015283,35.54446540004574,b,1.0,0.9404358000028878,,,,,,,,,,,,,,,,,,,,,,,,,,,,,,,,,,,,,,,,sub-054,1,stroop_test,,
test,red,r,1.0,9.0,0.0,3.0,r,1.0,0.5797805001493543,,,,,,,,,,,,,,,,,,3.0,0.0,9.0,0.0,,,,,,,,,35.55890609999187,,,,,,,,,,,,,,,,,35.544797900132835,35.65801670006476,36.45894940011203,36.44317280012183,36.44353230018169,36.45894940011203,36.45894940011203,37.044308400014415,r,1.0,0.5797805001493543,,,,,,,,,,,,,,,,,,,,,,,,,,,,,,,,,,,,,,,,sub-054,1,stroop_test,,
test,blue,b,1.0,10.0,1.0,3.0,b,1.0,0.5278878000099212,,,,,,,,,,,,,,,,,,3.0,1.0,10.0,2.0,,,,,,,,,37.05875000008382,,,,,,,,,,,,,,,,,37.04451480018906,37.85809490014799,38.65870860009454,38.64287900016643,38.64317620010115,38.65870860009454,38.65870860009454,39.19422650011256,b,1.0,0.5278878000099212,,,,,,,,,,,,,,,,,,,,,,,,,,,,,,,,,,,,,,,,sub-054,1,stroop_test,,
test,yellow,g,1.0,11.0,2.0,3.0,g,1.0,1.0958924000151455,,,,,,,,,,,,,,,,,,3.0,2.0,11.0,1.0,,,,,,,,,39.20916790002957,,,,,,,,,,,,,,,,,39.19443790009245,39.309449000051245,40.108141200151294,40.09302100003697,40.09328810009174,40.108141200151294,40.108141200151294,41.2115272001829,g,1.0,1.0958924000151455,,,,,,,,,,,,,,,,,,,,,,,,,,,,,,,,,,,,,,,,sub-054,1,stroop_test,,
,,,,,,,,,,,,,,,,,,,,,,,,,,,,,,,,,,,,,,,,,,,,,,,,,,,,,,,,,,,,,,,,,,,,41.211683700094,41.22521400009282,41.22521400009282,49.11198240006343,space,7.884454000042751,,,,,,,,,,,,,,,,,,,,,,,,,,,,,,,,,sub-054,1,stroop_test,,
,,,,0.0,0.0,0.0,,,,,gelb,yellow,g,1.0,g,1.0,0.6805539999622852,,,,,,,,,,,,,,0.0,0.0,0.0,11.0,,,,,49.12519480008632,,,,,,,,,,,,,,,,,49.11656290013343,49.22562160016969,50.031050600111485,50.01070660003461,,,,,,,,,,,,,,,,50.0256010000594,50.031050600111485,50.031050600111485,50.727077500196174,g,1.0,0.6805539999622852,,50.73307870002464,50.741626100149006,51.74305450008251,51.72620380017906,,,,,,,,,,,,,,,,,,,,sub-054,1,stroop_test,,
,,,,1.0,1.0,0.0,,,,,rot,yellow,g,0.0,g,1.0,0.5279736998490989,,,,,,,,,,,,,,0.0,1.0,1.0,3.0,,,,,51.74305450008251,,,,,,,,,,,,,,,,,51.726513399975374,52.09196720016189,52.89190850011073,52.87586640007794,,,,,,,,,,,,,,,,52.879231200087816,52.89190850011073,52.89190850011073,53.42704440001398,g,1.0,0.5279736998490989,,53.427410000003874,53.44254610012285,54.44263339997269,54.42704880004749,,,,,,,,,,,,,,,,,,,,sub-054,1,stroop_test,,
,,,,2.0,2.0,0.0,,,,,blau,red,r,0.0,r,1.0,0.350417000008747,,,,,,,,,,,,,,0.0,2.0,2.0,4.0,,,,,54.44263339997269,,,,,,,,,,,,,,,,,54.427435600198805,55.242096700007096,56.042244100011885,56.02680500014685,,,,,,,,,,,,,,,,56.03270710003562,56.042244100011885,56.042244100011885,56.39536390011199,r,1.0,0.350417000008747,,56.395717800129205,56.40868350001983,57.409713400062174,57.39466280001216,,,,,,,,,,,,,,,,,,,,sub-054,1,stroop_test,,
,,,,3.0,3.0,0.0,,,,,blau,blue,b,1.0,b,1.0,0.3722329000011086,,,,,,,,,,,,,,0.0,3.0,3.0,5.0,,,,,57.409713400062174,,,,,,,,,,,,,,,,,57.39497170015238,57.75938050006516,58.559287399984896,58.5438684001565,,,,,,,,,,,,,,,,58.54416200006381,58.559287399984896,58.559287399984896,58.94397830008529,b,1.0,0.3722329000011086,,58.944290600018576,58.95886440016329,59.95785770006478,59.94224370014854,,,,,,,,,,,,,,,,,,,,sub-054,1,stroop_test,,
,,,,4.0,4.0,0.0,,,,,rot,blue,b,0.0,b,1.0,0.5449210000224411,,,,,,,,,,,,,,0.0,4.0,4.0,2.0,,,,,59.95785770006478,,,,,,,,,,,,,,,,,59.94243850000203,60.05934280017391,60.87471240013838,60.85902450000867,,,,,,,,,,,,,,,,60.86140360007994,60.87471240013838,60.87471240013838,61.42583560012281,b,1.0,0.5449210000224411,,61.42624120018445,61.44166300003417,62.44216350000352,62.42561580007896,,,,,,,,,,,,,,,,,,,,sub-054,1,stroop_test,,
,,,,5.0,5.0,0.0,,,,,gelb,red,r,0.0,r,1.0,0.4117767000570893,,,,,,,,,,,,,,0.0,5.0,5.0,8.0,,,,,62.44216350000352,,,,,,,,,,,,,,,,,62.42583010019735,63.62640760000795,64.44191640010104,64.42619540006854,,,,,,,,,,,,,,,,64.42818220006302,64.44191640010104,64.44191640010104,64.8600578000769,r,1.0,0.4117767000570893,,64.86038600001484,64.87491770018823,65.8762021001894,65.85964890010655,,,,,,,,,,,,,,,,,,,,sub-054,1,stroop_test,,
,,,,6.0,6.0,0.0,,,,,gelb,blue,b,0.0,b,1.0,0.606158799957484,,,,,,,,,,,,,,0.0,6.0,6.0,9.0,,,,,65.8762021001894,,,,,,,,,,,,,,,,,65.85989750013687,66.67507370002568,67.47477500000969,67.45863600005396,,,,,,,,,,,,,,,,67.45893150009215,67.47477500000969,67.47477500000969,68.09294680017047,b,1.0,0.606158799957484,,68.09325750009157,68.10839390009642,69.10877649998292,69.09219380002469,,,,,,,,,,,,,,,,,,,,sub-054,1,stroop_test,,
,,,,7.0,7.0,0.0,,,,,rot,red,r,1.0,r,1.0,0.5513677000999451,,,,,,,,,,,,,,0.0,7.0,7.0,1.0,,,,,69.10877649998292,,,,,,,,,,,,,,,,,69.09241460007615,69.20847880002111,70.00848090020008,69.99339960003272,,,,,,,,,,,,,,,,69.99534780019894,70.00848090020008,70.00848090020008,70.5759458001703,r,1.0,0.5513677000999451,,70.57624120009132,70.5916850999929,71.59256590018049,71.57661770004779,,,,,,,,,,,,,,,,,,,,sub-054,1,stroop_test,,
,,,,8.0,8.0,0.0,,,,,gelb,yellow,g,1.0,g,1.0,0.3282383000478148,,,,,,,,,,,,,,0.0,8.0,8.0,10.0,,,,,71.59256590018049,,,,,,,,,,,,,,,,,71.57688240008429,72.37627130001783,73.17576090013608,73.15962280007079,,,,,,,,,,,,,,,,73.16134670004249,73.17576090013608,73.17576090013608,73.50964480009861,g,1.0,0.3282383000478148,,73.50996980001219,73.52466300013475,74.52524970006198,74.5086399000138,,,,,,,,,,,,,,,,,,,,sub-054,1,stroop_test,,
,,,,9.0,9.0,0.0,,,,,blau,blue,b,1.0,b,1.0,0.7386578000150621,,,,,,,,,,,,,,0.0,9.0,9.0,6.0,,,,,74.52524970006198,,,,,,,,,,,,,,,,,74.50883539998904,74.85893970006146,75.65807000012137,75.64236579998396,,,,,,,,,,,,,,,,75.64399660006166,75.65807000012137,75.65807000012137,76.40891890018247,b,1.0,0.7386578000150621,,76.40928380005062,76.4244385000784,77.42521170014516,77.40943330014125,,,,,,,,,,,,,,,,,,,,sub-054,1,stroop_test,,
,,,,10.0,10.0,0.0,,,,,blau,yellow,g,0.0,r,0.0,0.6583786001428962,,,,,,,,,,,,,,0.0,10.0,10.0,7.0,,,,,77.42521170014516,,,,,,,,,,,,,,,,,77.40972190001048,77.77490900014527,78.57560470001772,78.56035819998942,,,,,,,,,,,,,,,,78.5607216001954,78.57560470001772,78.57560470001772,79.2426786001306,r,0.0,0.6583786001428962,,79.24684899998829,79.25788539997302,80.2589494001586,80.24243970005773,,,,,,,,,,,,,,,,,,,,sub-054,1,stroop_test,,
,,,,11.0,11.0,0.0,,,,,rot,red,r,1.0,r,1.0,0.6769802998751402,,,,,,,,,,,,,,0.0,11.0,11.0,0.0,,,,,80.2589494001586,,,,,,,,,,,,,,,,,80.24270750000142,80.59225090011023,81.39150700019673,81.37532340013422,,,,,,,,,,,,,,,,81.3776494001504,81.39150700019673,81.39150700019673,82.07606620015576,r,1.0,0.6769802998751402,,82.078894500155,82.09283950016834,,83.09258940001018,,,,,,,,,,,,,,,,,,,,sub-054,1,stroop_test,,
,,,,12.0,0.0,1.0,,,,,gelb,red,r,0.0,r,1.0,0.3984962000977248,,,,,,,,,,,,,,1.0,0.0,12.0,8.0,,,,,83.1091344000306,,,,,,,,,,,,,,,,,83.09298539999872,83.44234980014153,84.24147800006904,84.22563820006326,,,,,,,,,,,,,,,,84.2274184001144,84.24147800006904,84.24147800006904,84.64246280002408,r,1.0,0.3984962000977248,,84.64278090000153,84.6580572000239,85.65775820007548,85.64266580017284,,,,,,,,,,,,,,,,,,,,sub-054,1,stroop_test,,
,,,,13.0,1.0,1.0,,,,,blau,blue,b,1.0,b,1.0,0.5668428000062704,,,,,,,,,,,,,,1.0,1.0,13.0,6.0,,,,,85.65775820007548,,,,,,,,,,,,,,,,,85.64289560006,86.44185389997438,87.24180730013177,87.22516640019603,,,,,,,,,,,,,,,,87.22680560010485,87.24180730013177,87.24180730013177,87.82441430003382,b,1.0,0.5668428000062704,,87.82485850015655,87.840247400105,88.84071180014871,88.82434560009278,,,,,,,,,,,,,,,,,,,,sub-054,1,stroop_test,,
,,,,14.0,2.0,1.0,,,,,blau,blue,b,1.0,b,1.0,0.5842146000359207,,,,,,,,,,,,,,1.0,2.0,14.0,5.0,,,,,88.84071180014871,,,,,,,,,,,,,,,,,88.82455969997682,89.62362510012463,90.4243654999882,90.4101803000085,,,,,,,,,,,,,,,,90.41057649999856,90.4243654999882,90.4243654999882,91.01129689998923,b,1.0,0.5842146000359207,,91.0116483999882,91.02509420015848,92.0247327000834,92.00851329998112,,,,,,,,,,,,,,,,,,,,sub-054,1,stroop_test,,
,,,,15.0,3.0,1.0,,,,,rot,yellow,g,0.0,g,1.0,0.4124545000959188,,,,,,,,,,,,,,1.0,3.0,15.0,3.0,,,,,92.0247327000834,,,,,,,,,,,,,,,,,92.00872500007972,92.8247754999902,93.62372390017843,93.60918420017695,,,,,,,,,,,,,,,,93.6127545000054,93.62372390017843,93.62372390017843,94.04233980015852,g,1.0,0.4124545000959188,,94.04273200011812,94.0574044000823,95.05811390001328,95.04224830004388,,,,,,,,,,,,,,,,,,,,sub-054,1,stroop_test,,
,,,,16.0,4.0,1.0,,,,,gelb,yellow,g,1.0,g,1.0,0.5491246001329273,,,,,,,,,,,,,,1.0,4.0,16.0,11.0,,,,,95.05811390001328,,,,,,,,,,,,,,,,,95.04246390005574,95.1413516001776,95.94062980008312,95.92479620012456,,,,,,,,,,,,,,,,95.9270004001446,95.94062980008312,95.94062980008312,96.4926512001548,g,1.0,0.5491246001329273,,96.49300940008834,96.50768410018644,97.507950700121,97.49291360005736,,,,,,,,,,,,,,,,,,,,sub-054,1,stroop_test,,
,,,,17.0,5.0,1.0,,,,,rot,red,r,1.0,r,1.0,0.6595877998042852,,,,,,,,,,,,,,1.0,5.0,17.0,1.0,,,,,97.507950700121,,,,,,,,,,,,,,,,,97.49308990011924,97.60817050002515,98.40761110000312,98.39306510007007,,,,,,,,,,,,,,,,98.39544060011394,98.40761110000312,98.40761110000312,99.07517340010963,r,1.0,0.6595877998042852,,99.07550460007042,99.0914678000845,,100.07603430002928,,,,,,,,,,,,,,,,,,,,sub-054,1,stroop_test,,
,,,,18.0,6.0,1.0,,,,,gelb,yellow,g,1.0,g,1.0,0.7199346998240799,,,,,,,,,,,,,,1.0,6.0,18.0,10.0,,,,,100.09078050008976,,,,,,,,,,,,,,,,,100.07638580002822,100.42431140015832,101.2238573001232,101.20846350002104,,,,,,,,,,,,,,,,101.21091490006074,101.2238573001232,101.2238573001232,101.95939540001564,g,1.0,0.7199346998240799,,101.95969739998692,101.97560180001892,,102.9597549000755,,,,,,,,,,,,,,,,,,,,sub-054,1,stroop_test,,
,,,,19.0,7.0,1.0,,,,,rot,red,r,1.0,r,1.0,0.7220824998803437,,,,,,,,,,,,,,1.0,7.0,19.0,0.0,,,,,102.9760226001963,,,,,,,,,,,,,,,,,102.9600170000922,103.3073621999938,104.10784090007655,104.09196850005536,,,,,,,,,,,,,,,,104.09418720006944,104.10784090007655,104.10784090007655,104.8424202001188,r,1.0,0.7220824998803437,,104.84273150004448,104.85816230019554,105.85724709997884,105.8420921000652,,,,,,,,,,,,,,,,,,,,sub-054,1,stroop_test,,
,,,,20.0,8.0,1.0,,,,,gelb,blue,b,0.0,b,1.0,0.4325239998288452,,,,,,,,,,,,,,1.0,8.0,20.0,9.0,,,,,105.85724709997884,,,,,,,,,,,,,,,,,105.8423382001929,105.9422295000404,106.7578058000654,106.74241760000588,,,,,,,,,,,,,,,,106.74544330011122,106.7578058000654,106.7578058000654,107.19348510005511,b,1.0,0.4325239998288452,,107.19386800006032,107.2091283001937,108.20814730017446,108.1923419001978,,,,,,,,,,,,,,,,,,,,sub-054,1,stroop_test,,
,,,,21.0,9.0,1.0,,,,,rot,blue,b,0.0,b,1.0,0.5150532000698149,,,,,,,,,,,,,,1.0,9.0,21.0,2.0,,,,,108.20814730017446,,,,,,,,,,,,,,,,,108.1925543001853,109.00708100013436,109.80844110017642,109.79050690005532,,,,,,,,,,,,,,,,109.792456000112,109.80844110017642,109.80844110017642,110.32677070004866,b,1.0,0.5150532000698149,,110.32713830005378,110.34144080011174,111.34125669999048,111.3256221001502,,,,,,,,,,,,,,,,,,,,sub-054,1,stroop_test,,
,,,,22.0,10.0,1.0,,,,,blau,yellow,g,0.0,g,1.0,0.7186327998060733,,,,,,,,,,,,,,1.0,10.0,22.0,7.0,,,,,111.34125669999048,,,,,,,,,,,,,,,,,111.32586880004963,112.54127370007336,113.34044770011678,113.32482219999656,,,,,,,,,,,,,,,,113.32669110014103,113.34044770011678,113.34044770011678,114.07483749999663,g,1.0,0.7186327998060733,,114.07513250014745,114.0909967001062,,115.07494199997744,,,,,,,,,,,,,,,,,,,,sub-054,1,stroop_test,,
,,,,23.0,11.0,1.0,,,,,blau,red,r,0.0,r,1.0,0.4136587001848966,,,,,,,,,,,,,,1.0,11.0,23.0,4.0,,,,,115.09095980017446,,,,,,,,,,,,,,,,,115.07528390013611,115.87395210005344,116.67353210016154,116.65749530005267,,,,,,,,,,,,,,,,116.65778030012734,116.67353210016154,116.67353210016154,117.09283550013788,r,1.0,0.4136587001848966,,117.0931278001517,117.10721980012022,118.10795690002853,118.0917410000693,,,,,,,,,,,,,,,,,,,,sub-054,1,stroop_test,,
,,,,,,,,,,,,,,,,,,,,,,,,,,,,,,,,,,,,,,,,,,,,,,,,,,,,,,,,,,,,,,,,,,,,,,,,,,,,,,,,,,,,,,,118.09182359999976,118.10795690002853,118.10795690002853,122.79253400000744,space,4.6700722998939455,,,,,,,,,,,,,,sub-054,1,stroop_test,,
,,,,0.0,0.0,0.0,,,,,,,,,,,,,blau,red,r,0.0,r,1.0,0.6559179001487792,,,,,,,,,,0.0,0.0,0.0,4.0,122.80704180011526,,,,,,,,,,,,,,,,,122.80020599998534,123.60907820006832,124.4245612001978,124.40779490000568,,,,,,,,,,,,,,,,,,,,,,,,,,,,,,,,,,,124.40960380015896,124.4245612001978,124.4245612001978,125.09144990006462,r,1.0,0.6559179001487792,,,,,,sub-054,1,stroop_test,,
,,,,1.0,1.0,0.0,,,,,,,,,,,,,rot,blue,b,0.0,b,1.0,0.4349777000024915,,,,,,,,,,0.0,1.0,1.0,2.0,125.10661670006812,,,,,,,,,,,,,,,,,125.0916810000781,126.29223130014724,127.10788770020008,127.0916983000934,,,,,,,,,,,,,,,,,,,,,,,,,,,,,,,,,,,127.09352220012806,127.10788770020008,127.10788770020008,127.55899000004864,b,1.0,0.4349777000024915,,,,,,sub-054,1,stroop_test,,
,,,,2.0,2.0,0.0,,,,,,,,,,,,,rot,red,r,1.0,r,1.0,0.575523299863562,,,,,,,,,,0.0,2.0,2.0,0.0,127.57449390017428,,,,,,,,,,,,,,,,,127.55926170013844,127.67431040015072,128.47378080012277,128.45744460006244,,,,,,,,,,,,,,,,,,,,,,,,,,,,,,,,,,,128.45779440016486,128.47378080012277,128.47378080012277,129.05809090007097,r,1.0,0.575523299863562,,,,,,sub-054,1,stroop_test,,
,,,,3.0,3.0,0.0,,,,,,,,,,,,,blau,blue,b,1.0,b,1.0,0.4657171000726521,,,,,,,,,,0.0,3.0,3.0,5.0,129.0738717999775,,,,,,,,,,,,,,,,,129.05831220000982,129.85712830000557,130.6568873000797,130.64186890004203,,,,,,,,,,,,,,,,,,,,,,,,,,,,,,,,,,,130.64428620017134,130.6568873000797,130.6568873000797,131.12577900011092,b,1.0,0.4657171000726521,,,,,,sub-054,1,stroop_test,,
,,,,4.0,4.0,0.0,,,,,,,,,,,,,gelb,red,r,0.0,r,1.0,0.5675691000651568,,,,,,,,,,0.0,4.0,4.0,8.0,131.14088880014606,,,,,,,,,,,,,,,,,131.12598800007254,131.2405451000668,132.04028980014846,132.02570460014977,,,,,,,,,,,,,,,,,,,,,,,,,,,,,,,,,,,132.02764170011503,132.04028980014846,132.04028980014846,132.62415310018696,r,1.0,0.5675691000651568,,,,,,sub-054,1,stroop_test,,
,,,,5.0,5.0,0.0,,,,,,,,,,,,,rot,red,r,1.0,r,1.0,0.4609288000501692,,,,,,,,,,0.0,5.0,5.0,1.0,132.64080370008014,,,,,,,,,,,,,,,,,132.6243786001578,132.99032360012643,133.78986830008216,133.7748083001934,,,,,,,,,,,,,,,,,,,,,,,,,,,,,,,,,,,133.7769697001204,133.78986830008216,133.78986830008216,134.25876950006932,r,1.0,0.4609288000501692,,,,,,sub-054,1,stroop_test,,
,,,,6.0,6.0,0.0,,,,,,,,,,,,,gelb,yellow,g,1.0,g,1.0,0.4187874000053853,,,,,,,,,,0.0,6.0,6.0,10.0,134.27445650007576,,,,,,,,,,,,,,,,,134.25898150005378,135.45823940006085,136.27338910009712,136.25837210007012,,,,,,,,,,,,,,,,,,,,,,,,,,,,,,,,,,,136.26056120009162,136.27338910009712,136.27338910009712,136.70801690011285,g,1.0,0.4187874000053853,,,,,,sub-054,1,stroop_test,,
,,,,7.0,7.0,0.0,,,,,,,,,,,,,blau,blue,b,1.0,b,1.0,0.3341228000354022,,,,,,,,,,0.0,7.0,7.0,6.0,136.72409739997238,,,,,,,,,,,,,,,,,136.70822959998625,137.52327980007976,138.32451870013028,138.30797470011748,,,,,,,,,,,,,,,,,,,,,,,,,,,,,,,,,,,138.31031189998612,138.32451870013028,138.32451870013028,138.6746527000796,b,1.0,0.3341228000354022,,,,,,sub-054,1,stroop_test,,
,,,,8.0,8.0,0.0,,,,,,,,,,,,,blau,yellow,g,0.0,g,1.0,0.5357009000144899,,,,,,,,,,0.0,8.0,8.0,7.0,138.69012719998136,,,,,,,,,,,,,,,,,138.67489370005205,139.8730192000512,140.67309290007688,140.65780280018225,,,,,,,,,,,,,,,,,,,,,,,,,,,,,,,,,,,140.65811430010945,140.67309290007688,140.67309290007688,141.22699660016224,g,1.0,0.5357009000144899,,,,,,sub-054,1,stroop_test,,
,,,,9.0,9.0,0.0,,,,,,,,,,,,,gelb,yellow,g,1.0,g,1.0,0.3761078999377787,,,,,,,,,,0.0,9.0,9.0,11.0,141.2403516001068,,,,,,,,,,,,,,,,,141.2272187001072,141.5914003001526,142.3903175999876,142.37482520006597,,,,,,,,,,,,,,,,,,,,,,,,,,,,,,,,,,,142.37689820001833,142.3903175999876,142.3903175999876,142.77513910015114,g,1.0,0.3761078999377787,,,,,,sub-054,1,stroop_test,,
,,,,10.0,10.0,0.0,,,,,,,,,,,,,rot,yellow,g,0.0,g,1.0,0.4289875999093056,,,,,,,,,,0.0,10.0,10.0,3.0,142.7905671000481,,,,,,,,,,,,,,,,,142.7754111001268,143.57493280014023,144.38980910019018,144.3741599000059,,,,,,,,,,,,,,,,,,,,,,,,,,,,,,,,,,,144.3763097000774,144.38980910019018,144.38980910019018,144.82523910002783,g,1.0,0.4289875999093056,,,,,,sub-054,1,stroop_test,,
,,,,11.0,11.0,0.0,,,,,,,,,,,,,gelb,blue,b,0.0,b,1.0,0.3294307000469416,,,,,,,,,,0.0,11.0,11.0,9.0,144.8408099000808,,,,,,,,,,,,,,,,,144.82543379999697,145.62426790012978,146.42328710015863,146.40807360014878,,,,,,,,,,,,,,,,,,,,,,,,,,,,,,,,,,,146.41014410019852,146.42328710015863,146.42328710015863,146.75833270000294,b,1.0,0.3294307000469416,,,,,,sub-054,1,stroop_test,,
,,,,12.0,0.0,1.0,,,,,,,,,,,,,blau,blue,b,1.0,b,1.0,0.4346037998329848,,,,,,,,,,1.0,0.0,12.0,6.0,146.77443090011366,,,,,,,,,,,,,,,,,146.75859630014747,147.10733969998546,147.90709160012193,147.89162540016696,,,,,,,,,,,,,,,,,,,,,,,,,,,,,,,,,,,147.89418489998206,147.90709160012193,147.90709160012193,148.35776130016893,b,1.0,0.4346037998329848,,,,,,sub-054,1,stroop_test,,
,,,,13.0,1.0,1.0,,,,,,,,,,,,,gelb,yellow,g,1.0,g,1.0,0.3896116998512298,,,,,,,,,,1.0,1.0,13.0,11.0,148.3739090000745,,,,,,,,,,,,,,,,,148.357966999989,149.57251309999265,150.37424340005964,150.35971490014344,,,,,,,,,,,,,,,,,,,,,,,,,,,,,,,,,,,150.36270679999143,150.37424340005964,150.37424340005964,150.77529969997704,g,1.0,0.3896116998512298,,,,,,sub-054,1,stroop_test,,
,,,,14.0,2.0,1.0,,,,,,,,,,,,,rot,yellow,g,0.0,g,1.0,0.6749724000692368,,,,,,,,,,1.0,2.0,14.0,3.0,150.79028830002062,,,,,,,,,,,,,,,,,150.77550870017149,151.59027550020255,152.38944890000857,152.37387390015647,,,,,,,,,,,,,,,,,,,,,,,,,,,,,,,,,,,152.37600519997068,152.38944890000857,152.38944890000857,153.07518619997427,g,1.0,0.6749724000692368,,,,,,sub-054,1,stroop_test,,
,,,,15.0,3.0,1.0,,,,,,,,,,,,,rot,red,r,1.0,r,1.0,0.6502966000698507,,,,,,,,,,1.0,3.0,15.0,0.0,153.09084720001556,,,,,,,,,,,,,,,,,153.0753957000561,153.1901365001686,153.99099420011044,153.97473200014792,,,,,,,,,,,,,,,,,,,,,,,,,,,,,,,,,,,153.97508840006776,153.99099420011044,153.99099420011044,154.6585661000572,r,1.0,0.6502966000698507,,,,,,sub-054,1,stroop_test,,
,,,,16.0,4.0,1.0,,,,,,,,,,,,,gelb,yellow,g,1.0,g,1.0,0.6413904000073671,,,,,,,,,,1.0,4.0,16.0,10.0,154.67373490007594,,,,,,,,,,,,,,,,,154.65877730003558,154.77419809997082,155.57387860002927,155.5582735000644,,,,,,,,,,,,,,,,,,,,,,,,,,,,,,,,,,,155.56011040019803,155.57387860002927,155.57387860002927,156.22412260016426,g,1.0,0.6413904000073671,,,,,,sub-054,1,stroop_test,,
,,,,17.0,5.0,1.0,,,,,,,,,,,,,gelb,blue,b,0.0,b,1.0,0.3460478000342846,,,,,,,,,,1.0,5.0,17.0,9.0,156.23954950016923,,,,,,,,,,,,,,,,,156.22436810005456,157.02334600011818,157.82326980005018,157.80853689997457,,,,,,,,,,,,,,,,,,,,,,,,,,,,,,,,,,,157.80890420009382,157.82326980005018,157.82326980005018,158.17508860002272,b,1.0,0.3460478000342846,,,,,,sub-054,1,stroop_test,,
,,,,18.0,6.0,1.0,,,,,,,,,,,,,gelb,red,r,0.0,r,1.0,0.426117500057444,,,,,,,,,,1.0,6.0,18.0,8.0,158.19023380009455,,,,,,,,,,,,,,,,,158.17532400018536,158.97511300002225,159.79090890008956,159.77471180004068,,,,,,,,,,,,,,,,,,,,,,,,,,,,,,,,,,,159.77506480016746,159.79090890008956,159.79090890008956,160.2257131000515,r,1.0,0.426117500057444,,,,,,sub-054,1,stroop_test,,
,,,,19.0,7.0,1.0,,,,,,,,,,,,,rot,blue,b,0.0,b,1.0,0.570477600209415,,,,,,,,,,1.0,7.0,19.0,2.0,160.239771499997,,,,,,,,,,,,,,,,,160.22592250001617,161.04029779997654,161.84013260016218,161.82439610012807,,,,,,,,,,,,,,,,,,,,,,,,,,,,,,,,,,,161.82728220010176,161.84013260016218,161.84013260016218,162.424347900087,b,1.0,0.570477600209415,,,,,,sub-054,1,stroop_test,,
,,,,20.0,8.0,1.0,,,,,,,,,,,,,blau,yellow,g,0.0,g,1.0,0.3865779000334441,,,,,,,,,,1.0,8.0,20.0,7.0,162.44004140002653,,,,,,,,,,,,,,,,,162.42462570010684,163.2404763000086,164.03911520005204,164.02399670006707,,,,,,,,,,,,,,,,,,,,,,,,,,,,,,,,,,,164.02584880008362,164.03911520005204,164.03911520005204,164.44022690015845,g,1.0,0.3865779000334441,,,,,,sub-054,1,stroop_test,,
,,,,21.0,9.0,1.0,,,,,,,,,,,,,blau,red,r,0.0,r,1.0,0.2934518000110984,,,,,,,,,,1.0,9.0,21.0,4.0,164.4572476001922,,,,,,,,,,,,,,,,,164.4404345001094,165.25618180003949,166.05643040011637,166.040223200107,,,,,,,,,,,,,,,,,,,,,,,,,,,,,,,,,,,166.04058909998275,166.05643040011637,166.05643040011637,166.3579477001913,r,1.0,0.2934518000110984,,,,,,sub-054,1,stroop_test,,
,,,,22.0,10.0,1.0,,,,,,,,,,,,,blau,blue,b,1.0,g,0.0,0.3876247000880539,,,,,,,,,,1.0,10.0,22.0,5.0,166.3742441001814,,,,,,,,,,,,,,,,,166.35816790000536,167.1575160000939,167.97258090018295,167.95654210005887,,,,,,,,,,,,,,,,,,,,,,,,,,,,,,,,,,,167.95702360011637,167.97258090018295,167.97258090018295,168.37480700016022,g,0.0,0.3876247000880539,,,,,,sub-054,1,stroop_test,,
,,,,23.0,11.0,1.0,,,,,,,,,,,,,rot,red,r,1.0,r,1.0,0.5907904000487179,,,,,,,,,,1.0,11.0,23.0,1.0,168.3896606999915,,,,,,,,,,,,,,,,,168.37506300001405,169.573755600024,170.3734278001357,170.35749730002135,,,,,,,,,,,,,,,,,,,,,,,,,,,,,,,,,,,170.3601290001534,170.3734278001357,170.3734278001357,170.97417950001545,r,1.0,0.5907904000487179,,,,,,sub-054,1,stroop_test,,
,,,,24.0,0.0,2.0,,,,,,,,,,,,,rot,red,r,1.0,r,1.0,0.9528959000017494,,,,,,,,,,2.0,0.0,24.0,1.0,170.98956750007346,,,,,,,,,,,,,,,,,170.97437690012157,171.7735898999963,172.57336300006136,172.55674959998578,,,,,,,,,,,,,,,,,,,,,,,,,,,,,,,,,,,172.5571087000426,172.57336300006136,172.57336300006136,173.5413308001589,r,1.0,0.9528959000017494,,,,,,sub-054,1,stroop_test,,
,,,,25.0,1.0,2.0,,,,,,,,,,,,,rot,yellow,g,0.0,g,1.0,0.8326422001700848,,,,,,,,,,2.0,1.0,25.0,3.0,173.55733370012604,,,,,,,,,,,,,,,,,173.54157390003093,173.65705350018106,174.4566071999725,174.44309299997985,,,,,,,,,,,,,,,,,,,,,,,,,,,,,,,,,,,174.44340750016272,174.4566071999725,174.4566071999725,175.29199689999223,g,1.0,0.8326422001700848,,,,,,sub-054,1,stroop_test,,
,,,,26.0,2.0,2.0,,,,,,,,,,,,,blau,yellow,g,0.0,g,1.0,0.4549392000772059,,,,,,,,,,2.0,2.0,26.0,7.0,175.30647080019116,,,,,,,,,,,,,,,,,175.29220630018972,176.08962790016085,176.88986440002918,176.87454110011458,,,,,,,,,,,,,,,,,,,,,,,,,,,,,,,,,,,176.8762877001427,176.88986440002918,176.88986440002918,177.3579150000587,g,1.0,0.4549392000772059,,,,,,sub-054,1,stroop_test,,
,,,,27.0,3.0,2.0,,,,,,,,,,,,,rot,blue,b,0.0,b,1.0,0.3643749998882413,,,,,,,,,,2.0,3.0,27.0,2.0,177.37268320005387,,,,,,,,,,,,,,,,,177.35817730007693,178.17311440012418,178.973222900182,178.95738350017928,,,,,,,,,,,,,,,,,,,,,,,,,,,,,,,,,,,178.9625685000792,178.973222900182,178.973222900182,179.3406166001223,b,1.0,0.3643749998882413,,,,,,sub-054,1,stroop_test,,
,,,,28.0,4.0,2.0,,,,,,,,,,,,,gelb,red,r,0.0,r,1.0,0.3739560998510569,,,,,,,,,,2.0,4.0,28.0,8.0,179.35641010012478,,,,,,,,,,,,,,,,,179.34083400014788,180.14155400008897,180.95555690000765,180.94009310007092,,,,,,,,,,,,,,,,,,,,,,,,,,,,,,,,,,,180.94204370002265,180.95555690000765,180.95555690000765,181.3413563000504,r,1.0,0.3739560998510569,,,,,,sub-054,1,stroop_test,,
,,,,29.0,5.0,2.0,,,,,,,,,,,,,gelb,yellow,g,1.0,g,1.0,0.3400940001010895,,,,,,,,,,2.0,5.0,29.0,11.0,181.3570561001543,,,,,,,,,,,,,,,,,181.34173940005712,182.15617260010916,182.95582140004265,182.94131850008853,,,,,,,,,,,,,,,,,,,,,,,,,,,,,,,,,,,182.9416446001269,182.95582140004265,182.95582140004265,183.3071952001192,g,1.0,0.3400940001010895,,,,,,sub-054,1,stroop_test,,
,,,,30.0,6.0,2.0,,,,,,,,,,,,,blau,blue,b,1.0,b,1.0,0.4324602999258786,,,,,,,,,,2.0,6.0,30.0,6.0,183.3231676002033,,,,,,,,,,,,,,,,,183.30740540008992,183.65658190008253,184.4557180001866,184.4396244999953,,,,,,,,,,,,,,,,,,,,,,,,,,,,,,,,,,,184.4417409000453,184.4557180001866,184.4557180001866,184.891218499979,b,1.0,0.4324602999258786,,,,,,sub-054,1,stroop_test,,
,,,,31.0,7.0,2.0,,,,,,,,,,,,,gelb,blue,b,0.0,b,1.0,0.4837523000314832,,,,,,,,,,2.0,7.0,31.0,9.0,184.90636270004325,,,,,,,,,,,,,,,,,184.89142730017196,185.00653660018,185.8058319000993,185.79057410010137,,,,,,,,,,,,,,,,,,,,,,,,,,,,,,,,,,,185.7929473000113,185.8058319000993,185.8058319000993,186.29206000012343,b,1.0,0.4837523000314832,,,,,,sub-054,1,stroop_test,,
,,,,32.0,8.0,2.0,,,,,,,,,,,,,gelb,yellow,g,1.0,g,1.0,0.549743999959901,,,,,,,,,,2.0,8.0,32.0,10.0,186.3061013000552,,,,,,,,,,,,,,,,,186.2922987001948,186.6565173000563,187.45665800012648,187.44073650008067,,,,,,,,,,,,,,,,,,,,,,,,,,,,,,,,,,,187.44103410001844,187.45665800012648,187.45665800012648,188.00907759997065,g,1.0,0.549743999959901,,,,,,sub-054,1,stroop_test,,
,,,,33.0,9.0,2.0,,,,,,,,,,,,,blau,red,r,0.0,r,1.0,0.3670236000325531,,,,,,,,,,2.0,9.0,33.0,4.0,188.02325369999744,,,,,,,,,,,,,,,,,188.0093080000952,189.2230583000928,190.02295340015556,190.00711350003257,,,,,,,,,,,,,,,,,,,,,,,,,,,,,,,,,,,190.0087949000299,190.02295340015556,190.02295340015556,190.39276150008664,r,1.0,0.3670236000325531,,,,,,sub-054,1,stroop_test,,
,,,,34.0,10.0,2.0,,,,,,,,,,,,,blau,blue,b,1.0,b,1.0,0.5502037999685854,,,,,,,,,,2.0,10.0,34.0,5.0,190.4066244000569,,,,,,,,,,,,,,,,,190.3929976001382,190.5059332000092,191.3063845001161,191.2909391000867,,,,,,,,,,,,,,,,,,,,,,,,,,,,,,,,,,,191.2912151999772,191.3063845001161,191.3063845001161,191.8581962999888,b,1.0,0.5502037999685854,,,,,,sub-054,1,stroop_test,,
,,,,35.0,11.0,2.0,,,,,,,,,,,,,rot,red,r,1.0,r,1.0,0.6045186999253929,,,,,,,,,,2.0,11.0,35.0,0.0,191.8726371000521,,,,,,,,,,,,,,,,,191.8585101000499,191.9723340000492,192.77231630007736,192.75663390010595,,,,,,,,,,,,,,,,,,,,,,,,,,,,,,,,,,,192.75860860012472,192.77231630007736,192.77231630007736,193.391666600015,r,1.0,0.6045186999253929,,,,,,sub-054,1,stroop_test,,
,,,,36.0,0.0,3.0,,,,,,,,,,,,,rot,yellow,g,0.0,g,1.0,0.367605600040406,,,,,,,,,,3.0,0.0,36.0,3.0,193.40602770005356,,,,,,,,,,,,,,,,,193.39195760013536,193.756240000017,194.55651969998144,194.54063140018843,,,,,,,,,,,,,,,,,,,,,,,,,,,,,,,,,,,194.5409647000488,194.55651969998144,194.55651969998144,194.94095439999364,g,1.0,0.367605600040406,,,,,,sub-054,1,stroop_test,,
,,,,37.0,1.0,3.0,,,,,,,,,,,,,gelb,red,r,0.0,r,1.0,0.5207134999800473,,,,,,,,,,3.0,1.0,37.0,8.0,194.95666850009,,,,,,,,,,,,,,,,,194.9411730000284,195.29057000018656,196.1061168001033,196.09042370016687,,,,,,,,,,,,,,,,,,,,,,,,,,,,,,,,,,,196.0922644000966,196.1061168001033,196.1061168001033,196.64017090015116,r,1.0,0.5207134999800473,,,,,,sub-054,1,stroop_test,,
,,,,38.0,2.0,3.0,,,,,,,,,,,,,blau,blue,b,1.0,b,1.0,0.5019812001846731,,,,,,,,,,3.0,2.0,38.0,5.0,196.6555929000024,,,,,,,,,,,,,,,,,196.64041760005057,197.00634460011497,197.8058042000048,197.79007760016248,,,,,,,,,,,,,,,,,,,,,,,,,,,,,,,,,,,197.79304500017315,197.8058042000048,197.8058042000048,198.3250680000056,b,1.0,0.5019812001846731,,,,,,sub-054,1,stroop_test,,
,,,,39.0,3.0,3.0,,,,,,,,,,,,,rot,blue,b,0.0,b,1.0,0.4803055000957101,,,,,,,,,,3.0,3.0,39.0,2.0,198.3397830000613,,,,,,,,,,,,,,,,,198.32529730000533,198.6898769000545,199.49033699999563,199.47296810010448,,,,,,,,,,,,,,,,,,,,,,,,,,,,,,,,,,,199.4749790001661,199.49033699999563,199.49033699999563,199.97291410015896,b,1.0,0.4803055000957101,,,,,,sub-054,1,stroop_test,,
,,,,40.0,4.0,3.0,,,,,,,,,,,,,gelb,blue,b,0.0,g,0.0,0.4338285999838263,,,,,,,,,,3.0,4.0,40.0,9.0,199.98897429998036,,,,,,,,,,,,,,,,,199.97316740010865,201.17351670004427,201.97294380003584,201.9569333000109,,,,,,,,,,,,,,,,,,,,,,,,,,,,,,,,,,,201.9591896000784,201.97294380003584,201.97294380003584,202.4091602000408,g,0.0,0.4338285999838263,,,,,,sub-054,1,stroop_test,,
,,,,41.0,5.0,3.0,,,,,,,,,,,,,rot,red,r,1.0,r,1.0,0.7253910000436008,,,,,,,,,,3.0,5.0,41.0,1.0,202.42251650011167,,,,,,,,,,,,,,,,,202.4093865000177,202.5227679000236,203.323117100168,203.30714210006408,,,,,,,,,,,,,,,,,,,,,,,,,,,,,,,,,,,203.30910259997472,203.323117100168,203.323117100168,204.0569329999853,r,1.0,0.7253910000436008,,,,,,sub-054,1,stroop_test,,
,,,,42.0,6.0,3.0,,,,,,,,,,,,,gelb,yellow,g,1.0,g,1.0,0.6319597999099642,,,,,,,,,,3.0,6.0,42.0,10.0,204.0735973000992,,,,,,,,,,,,,,,,,204.05714190006256,204.42217699997127,205.222166800173,205.20680740009996,,,,,,,,,,,,,,,,,,,,,,,,,,,,,,,,,,,205.20854290016,205.222166800173,205.222166800173,205.8577511999756,g,1.0,0.6319597999099642,,,,,,sub-054,1,stroop_test,,
,,,,43.0,7.0,3.0,,,,,,,,,,,,,blau,blue,b,1.0,b,1.0,0.4107479001395404,,,,,,,,,,3.0,7.0,43.0,6.0,205.87307490012608,,,,,,,,,,,,,,,,,205.85804480011572,206.2228367000353,207.022616900038,207.0061222000513,,,,,,,,,,,,,,,,,,,,,,,,,,,,,,,,,,,207.00811400008388,207.022616900038,207.022616900038,207.4403399999719,b,1.0,0.4107479001395404,,,,,,sub-054,1,stroop_test,,
,,,,44.0,8.0,3.0,,,,,,,,,,,,,blau,yellow,g,0.0,g,1.0,0.4496349999681115,,,,,,,,,,3.0,8.0,44.0,7.0,207.45663879998028,,,,,,,,,,,,,,,,,207.44066510000263,208.6558358001057,209.45563119999133,209.439417200163,,,,,,,,,,,,,,,,,,,,,,,,,,,,,,,,,,,209.4397013001144,209.45563119999133,209.45563119999133,209.90789490006864,g,1.0,0.4496349999681115,,,,,,sub-054,1,stroop_test,,
,,,,45.0,9.0,3.0,,,,,,,,,,,,,rot,red,r,1.0,r,1.0,0.3832642000634223,,,,,,,,,,3.0,9.0,45.0,0.0,209.9215653000865,,,,,,,,,,,,,,,,,209.90816380013712,211.10666420008056,211.90783150005157,211.89062650012784,,,,,,,,,,,,,,,,,,,,,,,,,,,,,,,,,,,211.8924700000789,211.90783150005157,211.90783150005157,212.3068638001569,r,1.0,0.3832642000634223,,,,,,sub-054,1,stroop_test,,
,,,,46.0,10.0,3.0,,,,,,,,,,,,,gelb,yellow,g,1.0,g,1.0,0.6566637000069022,,,,,,,,,,3.0,10.0,46.0,11.0,212.3220091999974,,,,,,,,,,,,,,,,,212.30707800015807,213.52278120000847,214.3229982000776,214.3069007000886,,,,,,,,,,,,,,,,,,,,,,,,,,,,,,,,,,,214.30943810008463,214.3229982000776,214.3229982000776,214.9902086001821,g,1.0,0.6566637000069022,,,,,,sub-054,1,stroop_test,,
,,,,47.0,11.0,3.0,,,,,,,,,,,,,blau,red,r,0.0,r,1.0,0.5940014999359846,,,,,,,,,,3.0,11.0,47.0,4.0,215.00601550005376,,,,,,,,,,,,,,,,,214.9904983001761,216.1893143001944,216.9884050001856,216.97257039998655,,,,,,,,,,,,,,,,,,,,,,,,,,,,,,,,,,,216.97449570009485,216.9884050001856,216.9884050001856,217.58984730020163,r,1.0,0.5940014999359846,,,,,,sub-054,1,stroop_test,,
,,,,48.0,0.0,4.0,,,,,,,,,,,,,rot,red,r,1.0,r,1.0,0.5604063000064343,,,,,,,,,,4.0,0.0,48.0,1.0,217.6054349001497,,,,,,,,,,,,,,,,,217.59008300001733,218.3894959001336,219.1901681001764,219.17302020010536,,,,,,,,,,,,,,,,,,,,,,,,,,,,,,,,,,,219.1820690999739,219.1901681001764,219.1901681001764,219.75790089997463,r,1.0,0.5604063000064343,,,,,,sub-054,1,stroop_test,,
,,,,49.0,1.0,4.0,,,,,,,,,,,,,gelb,yellow,g,1.0,g,1.0,0.4348780000582337,,,,,,,,,,4.0,1.0,49.0,10.0,219.77261750004251,,,,,,,,,,,,,,,,,219.75818150001575,220.57224220014177,221.3720736000687,221.35634370008484,,,,,,,,,,,,,,,,,,,,,,,,,,,,,,,,,,,221.35850249999203,221.3720736000687,221.3720736000687,221.80944830016236,g,1.0,0.4348780000582337,,,,,,sub-054,1,stroop_test,,
,,,,50.0,2.0,4.0,,,,,,,,,,,,,rot,yellow,g,0.0,g,1.0,0.500591800082475,,,,,,,,,,4.0,2.0,50.0,3.0,221.82294420013204,,,,,,,,,,,,,,,,,221.8097328001168,222.17174890008755,222.9729601000436,222.9565970001277,,,,,,,,,,,,,,,,,,,,,,,,,,,,,,,,,,,222.95870880014263,222.9729601000436,222.9729601000436,223.4900427001994,g,1.0,0.500591800082475,,,,,,sub-054,1,stroop_test,,
,,,,51.0,3.0,4.0,,,,,,,,,,,,,blau,blue,b,1.0,b,1.0,0.7060107998549938,,,,,,,,,,4.0,3.0,51.0,5.0,223.50676760007627,,,,,,,,,,,,,,,,,223.4903018001933,223.5887190999929,224.3892088001594,224.3725962000899,,,,,,,,,,,,,,,,,,,,,,,,,,,,,,,,,,,224.37466299999505,224.3892088001594,224.3892088001594,225.1067874999717,b,1.0,0.7060107998549938,,,,,,sub-054,1,stroop_test,,
,,,,52.0,4.0,4.0,,,,,,,,,,,,,gelb,yellow,g,1.0,g,1.0,0.4577200999483466,,,,,,,,,,4.0,4.0,52.0,11.0,225.1216780000832,,,,,,,,,,,,,,,,,225.10713999997824,226.32277720002455,227.12221630010757,227.1077048999723,,,,,,,,,,,,,,,,,,,,,,,,,,,,,,,,,,,227.1094306001905,227.12221630010757,227.12221630010757,227.5904872000683,g,1.0,0.4577200999483466,,,,,,sub-054,1,stroop_test,,
,,,,53.0,5.0,4.0,,,,,,,,,,,,,blau,red,r,0.0,r,1.0,0.495106500107795,,,,,,,,,,4.0,5.0,53.0,4.0,227.6055125000421,,,,,,,,,,,,,,,,,227.5907996001188,227.7055622001644,228.5049709000159,228.48934209998697,,,,,,,,,,,,,,,,,,,,,,,,,,,,,,,,,,,228.49133420013823,228.5049709000159,228.5049709000159,229.00638110004363,r,1.0,0.495106500107795,,,,,,sub-054,1,stroop_test,,
,,,,54.0,6.0,4.0,,,,,,,,,,,,,rot,blue,b,0.0,b,1.0,0.5765587999485433,,,,,,,,,,4.0,6.0,54.0,2.0,229.0226293001324,,,,,,,,,,,,,,,,,229.0066252001561,229.3552622999996,230.154897400178,230.13949860003777,,,,,,,,,,,,,,,,,,,,,,,,,,,,,,,,,,,230.14191070012748,230.154897400178,230.154897400178,230.73953420016915,b,1.0,0.5765587999485433,,,,,,sub-054,1,stroop_test,,
,,,,55.0,7.0,4.0,,,,,,,,,,,,,rot,red,r,1.0,r,1.0,0.6339831000659615,,,,,,,,,,4.0,7.0,55.0,0.0,230.75598630006425,,,,,,,,,,,,,,,,,230.73974350001663,231.955149400048,232.7554928001482,232.7392851000186,,,,,,,,,,,,,,,,,,,,,,,,,,,,,,,,,,,232.73974630003795,232.7554928001482,232.7554928001482,233.391611300176,r,1.0,0.6339831000659615,,,,,,sub-054,1,stroop_test,,
,,,,56.0,8.0,4.0,,,,,,,,,,,,,blau,blue,b,1.0,b,1.0,0.5873950000386685,,,,,,,,,,4.0,8.0,56.0,6.0,233.40544640016745,,,,,,,,,,,,,,,,,233.3918751999736,234.60686830012128,235.4049766000826,235.3902753000148,,,,,,,,,,,,,,,,,,,,,,,,,,,,,,,,,,,235.392120399978,235.4049766000826,235.4049766000826,236.00695329997689,b,1.0,0.5873950000386685,,,,,,sub-054,1,stroop_test,,
,,,,57.0,9.0,4.0,,,,,,,,,,,,,gelb,blue,b,0.0,b,1.0,0.7750858999788761,,,,,,,,,,4.0,9.0,57.0,9.0,236.02263400005177,,,,,,,,,,,,,,,,,236.0072059000377,236.3710390999913,237.1711962001864,237.1562451000791,,,,,,,,,,,,,,,,,,,,,,,,,,,,,,,,,,,237.1585216000676,237.1711962001864,237.1711962001864,237.95583820017052,b,1.0,0.7750858999788761,,,,,,sub-054,1,stroop_test,,
,,,,58.0,10.0,4.0,,,,,,,,,,,,,gelb,red,r,0.0,r,1.0,0.6016194000840187,,,,,,,,,,4.0,10.0,58.0,8.0,237.97174250008536,,,,,,,,,,,,,,,,,237.9560587001033,238.0723725000862,238.87326650018804,238.8574731000699,,,,,,,,,,,,,,,,,,,,,,,,,,,,,,,,,,,238.85777290002443,238.87326650018804,238.87326650018804,239.48978200019337,r,1.0,0.6016194000840187,,,,,,sub-054,1,stroop_test,,
,,,,59.0,11.0,4.0,,,,,,,,,,,,,blau,yellow,g,0.0,g,1.0,0.5245650000870228,,,,,,,,,,4.0,11.0,59.0,7.0,239.5048796001356,,,,,,,,,,,,,,,,,239.48999230004847,239.83755020005628,240.64000979997215,240.62279530009252,,,,,,,,,,,,,,,,,,,,,,,,,,,,,,,,,,,240.62452050019056,240.64000979997215,240.64000979997215,241.17330830008723,g,1.0,0.5245650000870228,,,,,,sub-054,1,stroop_test,,
,,,,60.0,0.0,5.0,,,,,,,,,,,,,rot,red,r,1.0,r,1.0,0.89333810005337,,,,,,,,,,5.0,0.0,60.0,0.0,241.18902770010757,,,,,,,,,,,,,,,,,241.17416240018792,241.5382424001582,242.3409170000814,242.3222945001908,,,,,,,,,,,,,,,,,,,,,,,,,,,,,,,,,,,242.32457080017772,242.3409170000814,242.3409170000814,243.24128030007705,r,1.0,0.89333810005337,,,,,,sub-054,1,stroop_test,,
,,,,61.0,1.0,5.0,,,,,,,,,,,,,blau,blue,b,1.0,b,1.0,0.5652853001374751,,,,,,,,,,5.0,1.0,61.0,6.0,243.2561763999984,,,,,,,,,,,,,,,,,243.2415715001989,243.6048139000777,244.40451280004345,244.3894887000788,,,,,,,,,,,,,,,,,,,,,,,,,,,,,,,,,,,244.3924110000953,244.40451280004345,244.40451280004345,244.97342360019684,b,1.0,0.5652853001374751,,,,,,sub-054,1,stroop_test,,
,,,,62.0,2.0,5.0,,,,,,,,,,,,,rot,red,r,1.0,r,1.0,0.683438700158149,,,,,,,,,,5.0,2.0,62.0,1.0,244.98887990019284,,,,,,,,,,,,,,,,,244.97372100013308,245.33843470015563,246.14026500005275,246.12339400011115,,,,,,,,,,,,,,,,,,,,,,,,,,,,,,,,,,,246.13375080004332,246.14026500005275,246.14026500005275,246.83974339999256,r,1.0,0.683438700158149,,,,,,sub-054,1,stroop_test,,
,,,,63.0,3.0,5.0,,,,,,,,,,,,,rot,blue,b,0.0,b,1.0,1.1774286997970194,,,,,,,,,,5.0,3.0,63.0,2.0,246.855241100071,,,,,,,,,,,,,,,,,246.839988599997,247.63908660016023,248.45504810009152,248.43947610002945,,,,,,,,,,,,,,,,,,,,,,,,,,,,,,,,,,,248.43988050008196,248.45504810009152,248.45504810009152,249.64185080002065,b,1.0,1.1774286997970194,,,,,,sub-054,1,stroop_test,,
,,,,64.0,4.0,5.0,,,,,,,,,,,,,rot,yellow,g,0.0,g,1.0,0.5281981001608074,,,,,,,,,,5.0,4.0,64.0,3.0,249.65456690010612,,,,,,,,,,,,,,,,,249.6420656000264,250.0068450002,250.8054552001413,250.790893800091,,,,,,,,,,,,,,,,,,,,,,,,,,,,,,,,,,,250.7911790001672,250.8054552001413,250.8054552001413,251.34041160019115,g,1.0,0.5281981001608074,,,,,,sub-054,1,stroop_test,,
,,,,65.0,5.0,5.0,,,,,,,,,,,,,gelb,blue,b,0.0,b,1.0,0.5847026000265032,,,,,,,,,,5.0,5.0,65.0,9.0,251.3543772001285,,,,,,,,,,,,,,,,,251.34068420017135,252.15482529997823,252.95569410012104,252.9392644001637,,,,,,,,,,,,,,,,,,,,,,,,,,,,,,,,,,,252.9416426001117,252.95569410012104,252.95569410012104,253.5556124001741,b,1.0,0.5847026000265032,,,,,,sub-054,1,stroop_test,,
,,,,66.0,6.0,5.0,,,,,,,,,,,,,blau,red,r,0.0,r,1.0,0.5772794000804424,,,,,,,,,,5.0,6.0,66.0,4.0,253.57201120001264,,,,,,,,,,,,,,,,,253.55588660016656,253.905237799976,254.7053092001006,254.6896856999956,,,,,,,,,,,,,,,,,,,,,,,,,,,,,,,,,,,254.6913613001816,254.7053092001006,254.7053092001006,255.29019180010076,r,1.0,0.5772794000804424,,,,,,sub-054,1,stroop_test,,
,,,,67.0,7.0,5.0,,,,,,,,,,,,,blau,yellow,g,0.0,g,1.0,0.7845727999228984,,,,,,,,,,5.0,7.0,67.0,7.0,255.30475360015407,,,,,,,,,,,,,,,,,255.29042580001988,255.65551080019213,256.4544808000792,256.43928200006485,,,,,,,,,,,,,,,,,,,,,,,,,,,,,,,,,,,256.43958010012284,256.4544808000792,256.4544808000792,257.25559379998595,g,1.0,0.7845727999228984,,,,,,sub-054,1,stroop_test,,
,,,,68.0,8.0,5.0,,,,,,,,,,,,,blau,blue,b,1.0,b,1.0,0.5749219998251647,,,,,,,,,,5.0,8.0,68.0,5.0,257.27194890007377,,,,,,,,,,,,,,,,,257.25584450014867,258.0706107001752,258.87143769999966,258.85522650019266,,,,,,,,,,,,,,,,,,,,,,,,,,,,,,,,,,,258.8555358001031,258.87143769999966,258.87143769999966,259.456451700069,b,1.0,0.5749219998251647,,,,,,sub-054,1,stroop_test,,
,,,,69.0,9.0,5.0,,,,,,,,,,,,,gelb,red,r,0.0,r,1.0,0.5479513998143375,,,,,,,,,,5.0,9.0,69.0,8.0,259.47147380001843,,,,,,,,,,,,,,,,,259.45678030001,260.67120690015145,261.4711798999924,261.4556182001252,,,,,,,,,,,,,,,,,,,,,,,,,,,,,,,,,,,261.45753390016034,261.4711798999924,261.4711798999924,262.0244595000986,r,1.0,0.5479513998143375,,,,,,sub-054,1,stroop_test,,
,,,,70.0,10.0,5.0,,,,,,,,,,,,,gelb,yellow,g,1.0,g,1.0,0.8237542998977005,,,,,,,,,,5.0,10.0,70.0,11.0,262.0386487999931,,,,,,,,,,,,,,,,,262.02469610003754,262.3885182000231,263.1880552000366,263.1721894000657,,,,,,,,,,,,,,,,,,,,,,,,,,,,,,,,,,,263.1725878000725,263.1880552000366,263.1880552000366,264.02302550012246,g,1.0,0.8237542998977005,,,,,,sub-054,1,stroop_test,,
,,,,71.0,11.0,5.0,,,,,,,,,,,,,gelb,yellow,g,1.0,g,1.0,0.5054266001097858,,,,,,,,,,5.0,11.0,71.0,10.0,264.0397430001758,,,,,,,,,,,,,,,,,264.02330700005405,264.13930719997734,264.93811310012825,264.9236809001304,,,,,,,,,,,,,,,,,,,,,,,,,,,,,,,,,,,264.92402520007454,264.93811310012825,264.93811310012825,265.45750540005974,g,1.0,0.5054266001097858,,,,,,sub-054,1,stroop_test,,
,,,,72.0,0.0,6.0,,,,,,,,,,,,,blau,yellow,g,0.0,g,1.0,0.5132722998969257,,,,,,,,,,6.0,0.0,72.0,7.0,265.4729753001593,,,,,,,,,,,,,,,,,265.4577864999883,266.2718857000582,267.0713859000243,267.05533680017106,,,,,,,,,,,,,,,,,,,,,,,,,,,,,,,,,,,267.0575322001241,267.0713859000243,267.0713859000243,267.58916890015826,g,1.0,0.5132722998969257,,,,,,sub-054,1,stroop_test,,
,,,,73.0,1.0,6.0,,,,,,,,,,,,,blau,red,r,0.0,r,1.0,0.4794052999932319,,,,,,,,,,6.0,1.0,73.0,4.0,267.6044201001059,,,,,,,,,,,,,,,,,267.58945029997267,268.3871035000775,269.18695430015214,269.1710267001763,,,,,,,,,,,,,,,,,,,,,,,,,,,,,,,,,,,269.17139160004444,269.18695430015214,269.18695430015214,269.67359020002186,r,1.0,0.4794052999932319,,,,,,sub-054,1,stroop_test,,
,,,,74.0,2.0,6.0,,,,,,,,,,,,,gelb,blue,b,0.0,b,1.0,0.7025748998858035,,,,,,,,,,6.0,2.0,74.0,9.0,269.68763160007074,,,,,,,,,,,,,,,,,269.6738009999972,270.03834890015423,270.8376095001586,270.82274079998024,,,,,,,,,,,,,,,,,,,,,,,,,,,,,,,,,,,270.8245210000314,270.8376095001586,270.8376095001586,271.5566926000174,b,1.0,0.7025748998858035,,,,,,sub-054,1,stroop_test,,
,,,,75.0,3.0,6.0,,,,,,,,,,,,,rot,red,r,1.0,r,1.0,0.6768655001651496,,,,,,,,,,6.0,3.0,75.0,1.0,271.571469000075,,,,,,,,,,,,,,,,,271.556914600078,271.90369469998404,272.70400770008564,272.68932080012746,,,,,,,,,,,,,,,,,,,,,,,,,,,,,,,,,,,272.69138520001434,272.70400770008564,272.70400770008564,273.3893780000508,r,1.0,0.6768655001651496,,,,,,sub-054,1,stroop_test,,
,,,,76.0,4.0,6.0,,,,,,,,,,,,,blau,blue,b,1.0,b,1.0,0.7091703000478446,,,,,,,,,,6.0,4.0,76.0,5.0,273.40485230018385,,,,,,,,,,,,,,,,,273.38965080003254,273.75516610010527,274.5547990000341,274.53909240011126,,,,,,,,,,,,,,,,,,,,,,,,,,,,,,,,,,,274.5413034001831,274.5547990000341,274.5547990000341,275.2723095000256,b,1.0,0.7091703000478446,,,,,,sub-054,1,stroop_test,,
,,,,77.0,5.0,6.0,,,,,,,,,,,,,rot,blue,b,0.0,b,1.0,0.7717095999978483,,,,,,,,,,6.0,5.0,77.0,2.0,275.2889074000996,,,,,,,,,,,,,,,,,275.2725573000498,276.0875701000914,276.8883043001406,276.8714984001126,,,,,,,,,,,,,,,,,,,,,,,,,,,,,,,,,,,276.8735827000346,276.8883043001406,276.8883043001406,277.6734430000652,b,1.0,0.7717095999978483,,,,,,sub-054,1,stroop_test,,
,,,,78.0,6.0,6.0,,,,,,,,,,,,,gelb,red,r,0.0,r,1.0,0.6553479998838156,,,,,,,,,,6.0,6.0,78.0,8.0,277.68854210013524,,,,,,,,,,,,,,,,,277.67367180017754,277.7879024001304,278.58780930005014,278.57191030005924,,,,,,,,,,,,,,,,,,,,,,,,,,,,,,,,,,,278.5740913001355,278.58780930005014,278.58780930005014,279.25677129998803,r,1.0,0.6553479998838156,,,,,,sub-054,1,stroop_test,,
,,,,79.0,7.0,6.0,,,,,,,,,,,,,blau,blue,b,1.0,b,1.0,0.5867097000591457,,,,,,,,,,6.0,7.0,79.0,6.0,279.2716416001785,,,,,,,,,,,,,,,,,279.25697820005007,279.6211722001899,280.421127300011,280.40510820015334,,,,,,,,,,,,,,,,,,,,,,,,,,,,,,,,,,,280.40718650002964,280.421127300011,280.421127300011,281.02272640005685,b,1.0,0.5867097000591457,,,,,,sub-054,1,stroop_test,,
,,,,80.0,8.0,6.0,,,,,,,,,,,,,rot,red,r,1.0,r,1.0,0.8659477999899536,,,,,,,,,,6.0,8.0,80.0,0.0,281.03778460016474,,,,,,,,,,,,,,,,,281.0229375001509,282.2380400002003,283.0418765000068,283.0221936001908,,,,,,,,,,,,,,,,,,,,,,,,,,,,,,,,,,,283.02407980011776,283.0418765000068,283.0418765000068,283.9232702001464,r,1.0,0.8659477999899536,,,,,,sub-054,1,stroop_test,,
,,,,81.0,9.0,6.0,,,,,,,,,,,,,gelb,yellow,g,1.0,g,1.0,0.3773225999902934,,,,,,,,,,6.0,9.0,81.0,10.0,283.9375469000079,,,,,,,,,,,,,,,,,283.92354210000485,284.2866313001141,285.0872159001883,285.07118150009774,,,,,,,,,,,,,,,,,,,,,,,,,,,,,,,,,,,285.072886900045,285.0872159001883,285.0872159001883,285.4721073000692,g,1.0,0.3773225999902934,,,,,,sub-054,1,stroop_test,,
,,,,82.0,10.0,6.0,,,,,,,,,,,,,gelb,yellow,g,1.0,g,1.0,0.4537907999474555,,,,,,,,,,6.0,10.0,82.0,11.0,285.48857350018807,,,,,,,,,,,,,,,,,285.47237880015746,285.82157240016386,286.621357700089,286.6051066000946,,,,,,,,,,,,,,,,,,,,,,,,,,,,,,,,,,,286.6053922001738,286.621357700089,286.621357700089,287.0887780999765,g,1.0,0.4537907999474555,,,,,,sub-054,1,stroop_test,,
,,,,83.0,11.0,6.0,,,,,,,,,,,,,rot,yellow,g,0.0,g,1.0,0.5709460999350995,,,,,,,,,,6.0,11.0,83.0,3.0,287.10461720009334,,,,,,,,,,,,,,,,,287.0889996001497,288.2875552000478,289.0875435001217,289.0713694000151,,,,,,,,,,,,,,,,,,,,,,,,,,,,,,,,,,,289.07310090004466,289.0875435001217,289.0875435001217,289.6728902000468,g,1.0,0.5709460999350995,,,,,,sub-054,1,stroop_test,,
,,,,84.0,0.0,7.0,,,,,,,,,,,,,rot,red,r,1.0,r,1.0,0.576528700068593,,,,,,,,,,7.0,0.0,84.0,1.0,289.68756410013884,,,,,,,,,,,,,,,,,289.6730963999871,290.88792770006694,291.68876250018366,291.6729607000016,,,,,,,,,,,,,,,,,,,,,,,,,,,,,,,,,,,291.6734193000011,291.68876250018366,291.68876250018366,292.27195750013925,r,1.0,0.576528700068593,,,,,,sub-054,1,stroop_test,,
,,,,85.0,1.0,7.0,,,,,,,,,,,,,blau,blue,b,1.0,b,1.0,0.617080399999395,,,,,,,,,,7.0,1.0,85.0,6.0,292.28768940013833,,,,,,,,,,,,,,,,,292.272171900142,293.4706606999971,294.2707369001582,294.25489780004136,,,,,,,,,,,,,,,,,,,,,,,,,,,,,,,,,,,294.2581437001936,294.2707369001582,294.2707369001582,294.8905405001715,b,1.0,0.617080399999395,,,,,,sub-054,1,stroop_test,,
,,,,86.0,2.0,7.0,,,,,,,,,,,,,gelb,yellow,g,1.0,g,1.0,0.5774047998711467,,,,,,,,,,7.0,2.0,86.0,10.0,294.9047520000022,,,,,,,,,,,,,,,,,294.890767800156,295.7046121000312,296.50402330001816,296.4879610000644,,,,,,,,,,,,,,,,,,,,,,,,,,,,,,,,,,,296.48974910005927,296.50402330001816,296.50402330001816,297.0888696999755,g,1.0,0.5774047998711467,,,,,,sub-054,1,stroop_test,,
,,,,87.0,3.0,7.0,,,,,,,,,,,,,rot,red,r,1.0,r,1.0,0.8413851000368595,,,,,,,,,,7.0,3.0,87.0,0.0,297.10436910018325,,,,,,,,,,,,,,,,,297.0890945000574,297.4380346001126,298.23669799999334,298.2212694999762,,,,,,,,,,,,,,,,,,,,,,,,,,,,,,,,,,,298.22329570003785,298.23669799999334,298.23669799999334,299.0895728999749,r,1.0,0.8413851000368595,,,,,,sub-054,1,stroop_test,,
,,,,88.0,4.0,7.0,,,,,,,,,,,,,rot,blue,b,0.0,b,1.0,0.6242672998923808,,,,,,,,,,7.0,4.0,88.0,2.0,299.1044787000865,,,,,,,,,,,,,,,,,299.0897864000872,299.45515300007537,300.2706483001821,300.2549666000996,,,,,,,,,,,,,,,,,,,,,,,,,,,,,,,,,,,300.25522250006907,300.2706483001821,300.2706483001821,300.9055083000567,b,1.0,0.6242672998923808,,,,,,sub-054,1,stroop_test,,
,,,,89.0,5.0,7.0,,,,,,,,,,,,,gelb,yellow,g,1.0,g,1.0,0.7175435000099242,,,,,,,,,,7.0,5.0,89.0,11.0,300.9207623000257,,,,,,,,,,,,,,,,,300.90579050011,301.27057180018164,302.0710468001198,302.05510600004345,,,,,,,,,,,,,,,,,,,,,,,,,,,,,,,,,,,302.0570720001124,302.0710468001198,302.0710468001198,302.8053288999945,g,1.0,0.7175435000099242,,,,,,sub-054,1,stroop_test,,
,,,,90.0,6.0,7.0,,,,,,,,,,,,,blau,blue,b,1.0,b,1.0,0.7882890999317169,,,,,,,,,,7.0,6.0,90.0,5.0,302.82121660001576,,,,,,,,,,,,,,,,,302.8055529000703,302.9207356001716,303.7205699000042,303.70647850004025,,,,,,,,,,,,,,,,,,,,,,,,,,,,,,,,,,,303.70858720014803,303.7205699000042,303.7205699000042,304.5219738001469,b,1.0,0.7882890999317169,,,,,,sub-054,1,stroop_test,,
,,,,91.0,7.0,7.0,,,,,,,,,,,,,gelb,blue,b,0.0,b,1.0,1.128713200101629,,,,,,,,,,7.0,7.0,91.0,9.0,304.53765680012293,,,,,,,,,,,,,,,,,304.52231740020216,304.63745350018144,305.4373449000996,305.4237033000681,,,,,,,,,,,,,,,,,,,,,,,,,,,,,,,,,,,305.4268530001864,305.4373449000996,305.4373449000996,306.57175660016946,b,1.0,1.128713200101629,,,,,,sub-054,1,stroop_test,,
,,,,92.0,8.0,7.0,,,,,,,,,,,,,gelb,red,r,0.0,r,1.0,0.5381560998503119,,,,,,,,,,7.0,8.0,92.0,8.0,306.5869923999999,,,,,,,,,,,,,,,,,306.5720012001693,307.3882880001329,308.187400800176,308.17302910005674,,,,,,,,,,,,,,,,,,,,,,,,,,,,,,,,,,,308.1733759001363,308.187400800176,308.187400800176,308.73823140002787,r,1.0,0.5381560998503119,,,,,,sub-054,1,stroop_test,,
,,,,93.0,9.0,7.0,,,,,,,,,,,,,blau,yellow,g,0.0,g,1.0,0.6951049999333918,,,,,,,,,,7.0,9.0,93.0,7.0,308.7539270000998,,,,,,,,,,,,,,,,,308.73844750016,309.1044787000865,309.90453610010445,309.8881542000454,,,,,,,,,,,,,,,,,,,,,,,,,,,,,,,,,,,309.89001299999654,309.90453610010445,309.90453610010445,310.60559290018864,g,1.0,0.6951049999333918,,,,,,sub-054,1,stroop_test,,
,,,,94.0,10.0,7.0,,,,,,,,,,,,,blau,red,r,0.0,r,1.0,0.7032583002001047,,,,,,,,,,7.0,10.0,94.0,4.0,310.6204704002012,,,,,,,,,,,,,,,,,310.6059731000569,310.7214995000977,311.5205550000537,311.5065860999748,,,,,,,,,,,,,,,,,,,,,,,,,,,,,,,,,,,311.5070982000325,311.5205550000537,311.5205550000537,312.23820480005816,r,1.0,0.7032583002001047,,,,,,sub-054,1,stroop_test,,
,,,,95.0,11.0,7.0,,,,,,,,,,,,,rot,yellow,g,0.0,g,1.0,0.6758397999219596,,,,,,,,,,7.0,11.0,95.0,3.0,312.2542129000649,,,,,,,,,,,,,,,,,312.2384187001735,313.05405480018817,313.8530685000587,313.83764860010706,,,,,,,,,,,,,,,,,,,,,,,,,,,,,,,,,,,313.8396171000786,313.8530685000587,313.8530685000587,314.5391942001879,g,1.0,0.6758397999219596,,,,,,sub-054,1,stroop_test,,
,,,,96.0,0.0,8.0,,,,,,,,,,,,,gelb,yellow,g,1.0,g,1.0,0.6287465000059456,,,,,,,,,,8.0,0.0,96.0,11.0,314.5539127001539,,,,,,,,,,,,,,,,,314.53940290003084,315.7547275000252,316.57008079998195,316.5540074000601,,,,,,,,,,,,,,,,,,,,,,,,,,,,,,,,,,,316.5559792001732,316.57008079998195,316.57008079998195,317.2060663001612,g,1.0,0.6287465000059456,,,,,,sub-054,1,stroop_test,,
,,,,97.0,1.0,8.0,,,,,,,,,,,,,blau,red,r,0.0,r,1.0,0.612361199920997,,,,,,,,,,8.0,1.0,97.0,4.0,317.220181300072,,,,,,,,,,,,,,,,,317.20627820002846,317.5707351001911,318.3713373001665,318.35429120017216,,,,,,,,,,,,,,,,,,,,,,,,,,,,,,,,,,,318.3560160000343,318.3713373001665,318.3713373001665,318.9890572000295,r,1.0,0.612361199920997,,,,,,sub-054,1,stroop_test,,
,,,,98.0,2.0,8.0,,,,,,,,,,,,,gelb,blue,b,0.0,b,1.0,0.7976334001868963,,,,,,,,,,8.0,2.0,98.0,9.0,319.0040598001797,,,,,,,,,,,,,,,,,318.9893038000446,319.3535814001225,320.15411390014924,320.13735660002567,,,,,,,,,,,,,,,,,,,,,,,,,,,,,,,,,,,320.14000650006346,320.15411390014924,320.15411390014924,320.95422140019946,b,1.0,0.7976334001868963,,,,,,sub-054,1,stroop_test,,
,,,,99.0,3.0,8.0,,,,,,,,,,,,,rot,red,r,1.0,r,1.0,0.7053740001283586,,,,,,,,,,8.0,3.0,99.0,1.0,320.9696540001314,,,,,,,,,,,,,,,,,320.9544303000439,321.7531125000678,322.55318500008434,322.53734729997814,,,,,,,,,,,,,,,,,,,,,,,,,,,,,,,,,,,322.54117330000736,322.55318500008434,322.55318500008434,323.27209590002894,r,1.0,0.7053740001283586,,,,,,sub-054,1,stroop_test,,
,,,,100.0,4.0,8.0,,,,,,,,,,,,,blau,yellow,g,0.0,g,1.0,0.6238423998001963,,,,,,,,,,8.0,4.0,100.0,7.0,323.287507600151,,,,,,,,,,,,,,,,,323.2723741000518,323.6380039001815,324.4528829001356,324.437272900017,,,,,,,,,,,,,,,,,,,,,,,,,,,,,,,,,,,324.439289300004,324.4528829001356,324.4528829001356,325.0879350001924,g,1.0,0.6238423998001963,,,,,,sub-054,1,stroop_test,,
,,,,101.0,5.0,8.0,,,,,,,,,,,,,rot,yellow,g,0.0,g,1.0,1.748518799897283,,,,,,,,,,8.0,5.0,101.0,3.0,325.1039237000514,,,,,,,,,,,,,,,,,325.08824259997346,325.2028122001793,326.00378380017355,325.987581100082,,,,,,,,,,,,,,,,,,,,,,,,,,,,,,,,,,,325.9904554001987,326.00378380017355,326.00378380017355,327.75702800019644,g,1.0,1.748518799897283,,,,,,sub-054,1,stroop_test,,
,,,,102.0,6.0,8.0,,,,,,,,,,,,,blau,blue,b,1.0,b,1.0,0.4659017999656498,,,,,,,,,,8.0,6.0,102.0,5.0,327.77187569998205,,,,,,,,,,,,,,,,,327.75758600002155,328.5698263000231,329.37046210002154,329.35477650002576,,,,,,,,,,,,,,,,,,,,,,,,,,,,,,,,,,,329.35667530004866,329.37046210002154,329.37046210002154,329.8390846999828,b,1.0,0.4659017999656498,,,,,,sub-054,1,stroop_test,,
,,,,103.0,7.0,8.0,,,,,,,,,,,,,rot,red,r,1.0,r,1.0,0.5674289998132735,,,,,,,,,,8.0,7.0,103.0,0.0,329.8531234001275,,,,,,,,,,,,,,,,,329.8393884000834,329.954345199978,330.7541625001468,330.7377822000999,,,,,,,,,,,,,,,,,,,,,,,,,,,,,,,,,,,330.74005600018427,330.7541625001468,330.7541625001468,331.3396271001548,r,1.0,0.5674289998132735,,,,,,sub-054,1,stroop_test,,
,,,,104.0,8.0,8.0,,,,,,,,,,,,,gelb,red,r,0.0,r,1.0,0.5594058998394758,,,,,,,,,,8.0,8.0,104.0,8.0,331.35403250018135,,,,,,,,,,,,,,,,,331.3398697001394,331.7036011000164,332.5034563001245,332.4874762999825,,,,,,,,,,,,,,,,,,,,,,,,,,,,,,,,,,,332.4892333999742,332.5034563001245,332.5034563001245,333.0709428000264,r,1.0,0.5594058998394758,,,,,,sub-054,1,stroop_test,,
,,,,105.0,9.0,8.0,,,,,,,,,,,,,blau,blue,b,1.0,b,1.0,0.4945948999375105,,,,,,,,,,8.0,9.0,105.0,6.0,333.08573460020125,,,,,,,,,,,,,,,,,333.0712884000968,334.2713916001376,335.09189689997584,335.05687620001845,,,,,,,,,,,,,,,,,,,,,,,,,,,,,,,,,,,335.0605475001503,335.09189689997584,335.09189689997584,335.58847400010563,b,1.0,0.4945948999375105,,,,,,sub-054,1,stroop_test,,
,,,,106.0,10.0,8.0,,,,,,,,,,,,,gelb,yellow,g,1.0,g,1.0,0.5400477999355644,,,,,,,,,,8.0,10.0,106.0,10.0,335.6034562999848,,,,,,,,,,,,,,,,,335.5887098000385,335.9536842000671,336.752555300016,336.73674449999817,,,,,,,,,,,,,,,,,,,,,,,,,,,,,,,,,,,336.73879080009647,336.752555300016,336.752555300016,337.30384140019305,g,1.0,0.5400477999355644,,,,,,sub-054,1,stroop_test,,
,,,,107.0,11.0,8.0,,,,,,,,,,,,,rot,blue,b,0.0,b,1.0,0.7456203999463469,,,,,,,,,,8.0,11.0,107.0,2.0,337.31997549999505,,,,,,,,,,,,,,,,,337.30405739997514,337.4031249000691,338.2048595000524,338.18730530003086,,,,,,,,,,,,,,,,,,,,,,,,,,,,,,,,,,,338.1910373000428,338.2048595000524,338.2048595000524,338.95519630005583,b,1.0,0.7456203999463469,,,,,,sub-054,1,stroop_test,,
,,,,108.0,0.0,9.0,,,,,,,,,,,,,gelb,yellow,g,1.0,g,1.0,0.5908982998225838,,,,,,,,,,9.0,0.0,108.0,11.0,338.97066500014625,,,,,,,,,,,,,,,,,338.95560220000334,339.07089660014026,339.87048130016774,339.85450020013377,,,,,,,,,,,,,,,,,,,,,,,,,,,,,,,,,,,339.85716230003163,339.87048130016774,339.87048130016774,340.471694300184,g,1.0,0.5908982998225838,,,,,,sub-054,1,stroop_test,,
,,,,109.0,1.0,9.0,,,,,,,,,,,,,gelb,blue,b,0.0,b,1.0,0.6679420999716967,,,,,,,,,,9.0,1.0,109.0,9.0,340.48632650007494,,,,,,,,,,,,,,,,,340.471932800021,341.68651260016486,342.487271200167,342.4708120999858,,,,,,,,,,,,,,,,,,,,,,,,,,,,,,,,,,,342.4710816000588,342.487271200167,342.487271200167,343.1717511001043,b,1.0,0.6679420999716967,,,,,,sub-054,1,stroop_test,,
,,,,110.0,2.0,9.0,,,,,,,,,,,,,rot,red,r,1.0,r,1.0,0.7307955001015216,,,,,,,,,,9.0,2.0,110.0,1.0,343.186713000061,,,,,,,,,,,,,,,,,343.17196230008267,344.3859340001364,345.1857430001255,345.1717027002014,,,,,,,,,,,,,,,,,,,,,,,,,,,,,,,,,,,345.17493570013903,345.1857430001255,345.1857430001255,345.92226450005546,r,1.0,0.7307955001015216,,,,,,sub-054,1,stroop_test,,
,,,,111.0,3.0,9.0,,,,,,,,,,,,,blau,yellow,g,0.0,g,1.0,0.4875774001702666,,,,,,,,,,9.0,3.0,111.0,7.0,345.9363202000968,,,,,,,,,,,,,,,,,345.9225379000418,346.28629270009696,347.08659430011176,347.0709369000979,,,,,,,,,,,,,,,,,,,,,,,,,,,,,,,,,,,347.072651399998,347.08659430011176,347.08659430011176,347.5888718001079,g,1.0,0.4875774001702666,,,,,,sub-054,1,stroop_test,,
,,,,112.0,4.0,9.0,,,,,,,,,,,,,gelb,yellow,g,1.0,g,1.0,0.4393206001259386,,,,,,,,,,9.0,4.0,112.0,10.0,347.6027548001148,,,,,,,,,,,,,,,,,347.5891271000728,348.8032824001275,349.6030521001667,349.5869524001609,,,,,,,,,,,,,,,,,,,,,,,,,,,,,,,,,,,349.5892811000813,349.6030521001667,349.6030521001667,350.0548419000115,g,1.0,0.4393206001259386,,,,,,sub-054,1,stroop_test,,
,,,,113.0,5.0,9.0,,,,,,,,,,,,,blau,red,r,0.0,r,1.0,0.5695847999304533,,,,,,,,,,9.0,5.0,113.0,4.0,350.0703832001891,,,,,,,,,,,,,,,,,350.0550632001832,350.87118790019304,351.6863301000558,351.6704041999765,,,,,,,,,,,,,,,,,,,,,,,,,,,,,,,,,,,351.67222880013287,351.6863301000558,351.6863301000558,352.26979920011945,r,1.0,0.5695847999304533,,,,,,sub-054,1,stroop_test,,
,,,,114.0,6.0,9.0,,,,,,,,,,,,,rot,red,r,1.0,r,1.0,0.7853238999377936,,,,,,,,,,9.0,6.0,114.0,0.0,352.2859808001667,,,,,,,,,,,,,,,,,352.2700138001237,353.070235399995,353.8714796002023,353.854458700167,,,,,,,,,,,,,,,,,,,,,,,,,,,,,,,,,,,353.8563694001641,353.8714796002023,353.8714796002023,354.6713221000973,r,1.0,0.7853238999377936,,,,,,sub-054,1,stroop_test,,
,,,,115.0,7.0,9.0,,,,,,,,,,,,,gelb,red,r,0.0,r,1.0,0.4782929001376033,,,,,,,,,,9.0,7.0,115.0,8.0,354.6867818001192,,,,,,,,,,,,,,,,,354.67154500004835,355.4866244001314,356.2861283000093,356.27040980011225,,,,,,,,,,,,,,,,,,,,,,,,,,,,,,,,,,,356.27307470003143,356.2861283000093,356.2861283000093,356.7704837999772,r,1.0,0.4782929001376033,,,,,,sub-054,1,stroop_test,,
,,,,116.0,8.0,9.0,,,,,,,,,,,,,rot,yellow,g,0.0,g,1.0,0.6453837000299245,,,,,,,,,,9.0,8.0,116.0,3.0,356.78596290014684,,,,,,,,,,,,,,,,,356.7707736999728,357.11954340012744,357.92002650001086,357.9039492001757,,,,,,,,,,,,,,,,,,,,,,,,,,,,,,,,,,,357.9058131000493,357.92002650001086,357.92002650001086,358.5722489000764,g,1.0,0.6453837000299245,,,,,,sub-054,1,stroop_test,,
,,,,117.0,9.0,9.0,,,,,,,,,,,,,rot,blue,b,0.0,b,1.0,0.7890081000514328,,,,,,,,,,9.0,9.0,117.0,2.0,358.5859751000535,,,,,,,,,,,,,,,,,358.5725340000354,358.9370749001391,359.73643950000405,359.72080940008163,,,,,,,,,,,,,,,,,,,,,,,,,,,,,,,,,,,359.72111860010773,359.73643950000405,359.73643950000405,360.5378475000616,b,1.0,0.7890081000514328,,,,,,sub-054,1,stroop_test,,
,,,,118.0,10.0,9.0,,,,,,,,,,,,,blau,blue,b,1.0,b,1.0,0.6032627001404762,,,,,,,,,,9.0,10.0,118.0,5.0,360.5532345999964,,,,,,,,,,,,,,,,,360.5381436999887,360.6532033002004,361.4527702999767,361.436803100165,,,,,,,,,,,,,,,,,,,,,,,,,,,,,,,,,,,361.438501900062,361.4527702999767,361.4527702999767,362.0707714001183,b,1.0,0.6032627001404762,,,,,,sub-054,1,stroop_test,,
,,,,119.0,11.0,9.0,,,,,,,,,,,,,blau,blue,b,1.0,b,1.0,0.4966891000512987,,,,,,,,,,9.0,11.0,119.0,6.0,362.0863624000922,,,,,,,,,,,,,,,,,362.07099600019865,362.1691141000483,362.9701818001922,362.9530472999904,,,,,,,,,,,,,,,,,,,,,,,,,,,,,,,,,,,362.9534004000016,362.9701818001922,362.9701818001922,363.4715285000857,b,1.0,0.4966891000512987,,,,,,sub-054,1,stroop_test,,
,,,,,,,,,,,,,,,,,,,,,,,,,,,,,,,,,,,,,,,,,,,,,,,,,,,,,,,,,,,,,,,,,,,,,,,,,,,,,,,,,,,,,,,,,,,,,,,,,,,,,,363.4716632000636,363.4865672001615,368.4866715001408,368.471693900181,sub-054,1,stroop_test,,
