direction,corrAns,randomInstr,practice_trials.thisRepN,practice_trials.thisTrialN,practice_trials.thisN,practice_trials.thisIndex,instr_trials.thisRepN,instr_trials.thisTrialN,instr_trials.thisN,instr_trials.thisIndex,test_trials.thisRepN,test_trials.thisTrialN,test_trials.thisN,test_trials.thisIndex,thisRow.t,notes,general_instruction.started,textGeneralInstr.started,respGeneralInstr.started,general_instruction.stopped,respGeneralInstr.keys,respGeneralInstr.rt,respGeneralInstr.duration,ITI.started,fixcross.started,fixcross.stopped,ITI.stopped,dots.started,backgroundDots.started,stimulusDots.started,respDots.started,stimulusDots.stopped,dots.stopped,respDots.keys,respDots.corr,respDots.rt,respDots.duration,feedback.started,textFeedback.started,textFeedback.stopped,feedback.stopped,info.started,textInfo.started,keyRespInfo.started,info.stopped,keyRespInfo.keys,keyRespInfo.rt,keyRespInfo.duration,test_instruction.started,textTestInstr.started,respTestInstr.started,test_instruction.stopped,respTestInstr.keys,respTestInstr.rt,respTestInstr.duration,random_instruction.started,textRandomInstr.started,respRandomInstr.started,random_instruction.stopped,respRandomInstr.keys,respRandomInstr.rt,respRandomInstr.duration,goodbye.started,textGoodbye.started,textGoodbye.stopped,goodbye.stopped,participant,session,expName,frameRate,Unnamed: 74
,,,,,,,,,,,,,,,,,0.0302625000476837,0.0354649000801146,0.0354649000801146,75.39656740007922,space,96.15988909988664,,,,,,,,,,,,,,,,,,,,,,,,,,,,,,,,,,,,,,,,,,,,,sub-166,1.0,random_dot,59.87113342271462,
right,right,,0.0,0.0,0.0,1.0,,,,,,,,,75.44809140008874,,,,,,,,,75.44277970003895,76.61265550018288,77.41279990016483,77.39664250006899,77.39669300010428,77.41279990016483,77.41279990016483,77.41279990016483,82.39563250006177,92.87946830014698,right,1.0,36.26533399987966,,92.88013050006704,92.89455540012568,93.39515300001948,93.3798003999982,,,,,,,,,,,,,,,,,,,,,,,,,,sub-166,1.0,random_dot,59.87113342271462,
left,left,,0.0,1.0,1.0,0.0,,,,,,,,,93.39515300001948,,,,,,,,,93.38057230017148,93.49540000013076,94.29600310022944,94.28002670011485,94.28007900016382,94.29600310022944,94.29600310022944,94.29600310022944,99.27914490015246,100.39674170012586,left,1.0,26.896970099769533,,100.39746690005995,100.41213740012608,100.9120846001897,100.8966495001223,,,,,,,,,,,,,,,,,,,,,,,,,,sub-166,1.0,random_dot,59.87113342271462,
right,right,,1.0,0.0,2.0,1.0,,,,,,,,,100.9120846001897,,,,,,,,,100.89729460002854,101.71210280014202,102.51251580007374,102.49588110018522,102.49590960005298,102.51251580007374,102.51251580007374,102.51251580007374,107.5074214001652,108.4350349002052,right,1.0,26.727783699985597,,108.43569210008718,108.44561350019649,108.94529370008968,108.92979480000211,,,,,,,,,,,,,,,,,,,,,,,,,,sub-166,1.0,random_dot,59.87113342271462,
left,left,,1.0,1.0,3.0,0.0,,,,,,,,,108.94529370008968,,,,,,,,,108.9304270001594,109.04573600017466,109.8456755001098,109.8298761001788,109.82990280003288,109.8456755001098,109.8456755001098,109.8456755001098,114.82939520012587,117.014952900121,right,0.0,27.974214799935,,117.0157565001864,117.03129390021786,,117.52883830014616,,,,,,,,,,,,,,,,,,,,,,,,,,sub-166,1.0,random_dot,59.87113342271462,
right,right,,2.0,0.0,4.0,1.0,,,,,,,,,117.54503040015696,,,,,,,,,117.52942540007643,118.3287830001209,119.12939880019984,119.1123344001826,119.1123566001188,119.12939880019984,119.12939880019984,119.12939880019984,124.11271400004624,125.9300793001894,right,1.0,27.600281699793413,,125.93068750016393,125.9454497001134,126.44526810012758,126.42955180001444,,,,,,,,,,,,,,,,,,,,,,,,,,sub-166,1.0,random_dot,59.87113342271462,
left,left,,2.0,1.0,5.0,0.0,,,,,,,,,126.44526810012758,,,,,,,,,126.43002170021646,126.5453620001208,127.34566520014778,127.32961750007236,127.32964650006032,127.34566520014778,127.34566520014778,127.34566520014778,132.3490990002174,133.91303799999878,right,0.0,27.36078059975989,,133.91370720020495,133.92834070022218,134.42889750003815,134.41256780014373,,,,,,,,,,,,,,,,,,,,,,,,,,sub-166,1.0,random_dot,59.87113342271462,
right,right,,3.0,0.0,6.0,1.0,,,,,,,,,134.42889750003815,,,,,,,,,134.41318720020354,134.52852630009875,135.32944680005312,135.31272160005756,135.31275250017643,135.32944680005312,135.32944680005312,135.32944680005312,140.312344300095,149.56448920001276,right,1.0,35.040688999928534,,149.565301500028,149.57904560002498,150.07874530018307,150.0632917000912,,,,,,,,,,,,,,,,,,,,,,,,,,sub-166,1.0,random_dot,59.87113342271462,
left,left,,3.0,1.0,7.0,0.0,,,,,,,,,150.07874530018307,,,,,,,,,150.0639727001544,151.27857780014165,152.0793542000465,152.062817200087,152.0628506001085,152.0793542000465,152.0793542000465,152.0793542000465,157.06252400018275,158.01319010020234,left,1.0,26.727012199815363,,158.01382960006595,158.02855710010044,158.52873670007102,158.51296110008843,,,,,,,,,,,,,,,,,,,,,,,,,,sub-166,1.0,random_dot,59.87113342271462,
right,right,,4.0,0.0,8.0,1.0,,,,,,,,,158.52873670007102,,,,,,,,,158.51350330002606,158.62872100016102,159.42884860001504,159.41248850012198,159.4125110001769,159.42884860001504,159.42884860001504,159.42884860001504,,161.09780600015074,right,1.0,22.460784799885005,,161.09877280006185,161.11222320003435,161.61172980000265,161.5960390002001,,,,,,,,,,,,,,,,,,,,,,,,,,sub-166,1.0,random_dot,59.87113342271462,
left,left,,4.0,1.0,9.0,0.0,,,,,,,,,161.61172980000265,,,,,,,,,161.59657650021836,161.96208950015716,162.76269010012038,162.7458664001897,162.74589410005137,162.76269010012038,162.76269010012038,162.76269010012038,,166.61544260010123,left,1.0,24.658328299876302,,166.61615330004133,166.62898830021732,167.12840500008315,167.113005500054,,,,,,,,,,,,,,,,,,,,,,,,,,sub-166,1.0,random_dot,59.87113342271462,
right,right,,5.0,0.0,10.0,1.0,,,,,,,,,167.12840500008315,,,,,,,,,167.11352850007825,167.47832910018042,168.278847000096,168.2627081000246,168.2627341002226,168.278847000096,168.278847000096,168.278847000096,,170.1471344002057,right,1.0,22.671149699715897,,170.14780550007708,170.16233650012873,170.66187610011548,170.64569430006668,,,,,,,,,,,,,,,,,,,,,,,,,,sub-166,1.0,random_dot,59.87113342271462,
left,left,,5.0,1.0,11.0,0.0,,,,,,,,,170.66187610011548,,,,,,,,,170.64616650016978,170.76197640015744,171.56287150015123,171.5457602001261,171.54578890022822,171.56287150015123,171.56287150015123,171.56287150015123,,172.96481080004014,left,1.0,22.206595999887213,,172.96560350013897,172.9782911001239,173.47896650014445,173.46265170001425,,,,,,,,,,,,,,,,,,,,,,,,,,sub-166,1.0,random_dot,59.87113342271462,
left,left,,6.0,0.0,12.0,0.0,,,,,,,,,173.47896650014445,,,,,,,,,173.46317340014502,173.57896430022083,174.37924300017767,174.36289580003358,174.3629447000567,174.37924300017767,174.37924300017767,174.37924300017767,,176.28011130006053,left,1.0,22.694276599911973,,176.2807706000749,176.29519910016097,176.79534350009635,176.7793384001125,,,,,,,,,,,,,,,,,,,,,,,,,,sub-166,1.0,random_dot,59.87113342271462,
right,right,,6.0,1.0,13.0,1.0,,,,,,,,,176.79534350009635,,,,,,,,,176.7799290001858,177.9956721002236,178.7959061001893,178.77971090003848,178.77974390005693,178.7959061001893,178.7959061001893,178.7959061001893,,179.63164430018514,right,1.0,21.64101759972982,,179.63259940012358,179.64563130005263,180.1453328002244,180.129416000098,,,,,,,,,,,,,,,,,,,,,,,,,,sub-166,1.0,random_dot,59.87113342271462,
right,right,,7.0,0.0,14.0,1.0,,,,,,,,,180.1453328002244,,,,,,,,,180.12994390004314,180.49505690019575,181.2956000000704,181.27971390006127,181.27974030002952,181.2956000000704,181.2956000000704,181.2956000000704,,182.0649670001585,left,0.0,21.57355019962415,,182.06586720002812,182.07880590017885,182.57874840009023,182.56360900006257,,,,,,,,,,,,,,,,,,,,,,,,,,sub-166,1.0,random_dot,59.87113342271462,
left,left,,7.0,1.0,15.0,0.0,,,,,,,,,182.57874840009023,,,,,,,,,182.56429620017295,182.67887990013696,183.478929300094,183.462643600069,183.4626746000722,183.478929300094,183.478929300094,183.478929300094,,185.19720420008525,left,1.0,22.512174799805507,,185.19776250002903,185.21180720021948,185.71238830010407,185.69747430016287,,,,,,,,,,,,,,,,,,,,,,,,,,sub-166,1.0,random_dot,59.87113342271462,
left,left,,8.0,0.0,16.0,0.0,,,,,,,,,185.71238830010407,,,,,,,,,185.69803890003823,186.06197060015984,186.86255210009404,186.84594800020568,186.845979800215,186.86255210009404,186.86255210009404,186.86255210009404,,189.61698520020585,right,0.0,23.558876999886703,,189.6178359000478,189.62899430003017,190.1285930001177,190.1121638000477,,,,,,,,,,,,,,,,,,,,,,,,,,sub-166,1.0,random_dot,59.87113342271462,
right,right,,8.0,1.0,17.0,1.0,,,,,,,,,190.1285930001177,,,,,,,,,190.1126759001054,190.22903860011135,191.0296330000274,191.01268190005797,191.0127255001571,191.0296330000274,191.0296330000274,191.0296330000274,,192.7464985002298,right,1.0,22.51804169965908,,192.74722500005737,192.7625253000297,193.26242440007627,193.24561260011976,,,,,,,,,,,,,,,,,,,,,,,,,,sub-166,1.0,random_dot,59.87113342271462,
right,right,,9.0,0.0,18.0,1.0,,,,,,,,,193.26242440007627,,,,,,,,,193.24598370003517,193.36215290008116,194.1626160000451,194.1461635001469,194.1461878002156,194.1626160000451,194.1626160000451,194.1626160000451,,196.63052300014533,right,1.0,23.269803799688816,,196.6311015000101,196.6457527000457,197.14556350000203,197.1294121001847,,,,,,,,,,,,,,,,,,,,,,,,,,sub-166,1.0,random_dot,59.87113342271462,
left,left,,9.0,1.0,19.0,0.0,,,,,,,,,197.14556350000203,,,,,,,,,197.1300070001744,197.24542670021765,198.0464339000173,198.0294791001361,198.02950850012712,198.0464339000173,198.0464339000173,198.0464339000173,,199.48050720011813,left,1.0,22.23526529967785,,199.48113310011104,199.4954938001465,199.995692800032,199.9791539001744,,,,,,,,,,,,,,,,,,,,,,,,,,sub-166,1.0,random_dot,59.87113342271462,
,,,,,,,,,,,,,,,,,,,,,,,,,,,,,,,,,,,,,,,,,,199.97924460005012,199.995692800032,199.995692800032,290.9138012002222,space,111.7177947999444,,,,,,,,,,,,,,,,,,,,sub-166,1.0,random_dot,59.87113342271462,
,,,,,,,,,,,,,,,,,,,,,,,,,,,,,,,,,,,,,,,,,,,,,,,,,290.9138541000429,290.9290705001913,290.9290705001913,295.9127515000291,space,25.78082989971153,,,,,,,,,,,,,sub-166,1.0,random_dot,59.87113342271462,
left,left,accuracy,,,,,0.0,0.0,0.0,0.0,0.0,0.0,0.0,0.0,302.91210590000264,,,,,,,,,302.90571130020544,303.26209130021743,304.06273280014284,304.046315100044,304.04636360006407,304.06273280014284,304.06273280014284,304.06273280014284,,306.19750400003977,left,1.0,22.92859369982034,,,,,,,,,,,,,,,,,,,,295.93435140000656,295.95830970001407,295.95830970001407,302.89616860006936,space,27.73529849993065,,,,,,sub-166,1.0,random_dot,59.87113342271462,
right,right,accuracy,,,,,0.0,0.0,0.0,0.0,0.0,1.0,1.0,1.0,306.2120700001251,,,,,,,,,306.1994874000084,307.0124451001175,307.8122167000547,307.7961631000508,307.79620270011947,307.8122167000547,307.8122167000547,307.8122167000547,,310.3797221002169,right,1.0,23.36196709983051,,,,,,,,,,,,,,,,,,,,,,,,,,,,,,,sub-166,1.0,random_dot,59.87113342271462,
left,left,accuracy,,,,,0.0,0.0,0.0,0.0,1.0,0.0,2.0,0.0,310.39569600019604,,,,,,,,,310.3808478000574,311.1953971001785,311.9957882000599,311.9792707001325,311.97929820022546,311.9957882000599,311.9957882000599,311.9957882000599,,313.71355860005133,left,1.0,22.512319199740887,,,,,,,,,,,,,,,,,,,,,,,,,,,,,,,sub-166,1.0,random_dot,59.87113342271462,
right,right,accuracy,,,,,0.0,0.0,0.0,0.0,1.0,1.0,3.0,1.0,313.7286042000633,,,,,,,,,313.7147680001799,313.82892540004104,314.6293298001401,314.6128784001339,314.61290240008384,314.6293298001401,314.6293298001401,314.6293298001401,,317.4633825002238,left,0.0,23.634133899817243,,,,,,,,,,,,,,,,,,,,,,,,,,,,,,,sub-166,1.0,random_dot,59.87113342271462,
left,left,accuracy,,,,,0.0,0.0,0.0,0.0,2.0,0.0,4.0,0.0,317.4794191000983,,,,,,,,,317.46461910009384,317.5787385001313,318.3791786001529,318.3627987001091,318.36282480019145,318.3791786001529,318.3791786001529,318.3791786001529,323.3628935001325,324.1469817000907,right,0.0,26.561917699873447,,,,,,,,,,,,,,,,,,,,,,,,,,,,,,,sub-166,1.0,random_dot,59.87113342271462,
right,right,accuracy,,,,,0.0,0.0,0.0,0.0,2.0,1.0,5.0,1.0,324.16217210004106,,,,,,,,,324.14845580002293,324.96180520020425,325.76236370019615,325.745883700205,325.7459133001976,325.76236370019615,325.76236370019615,325.76236370019615,,327.9481304001529,right,1.0,22.991365499794483,,,,,,,,,,,,,,,,,,,,,,,,,,,,,,,sub-166,1.0,random_dot,59.87113342271462,
left,left,accuracy,,,,,0.0,0.0,0.0,0.0,3.0,0.0,6.0,0.0,327.9623178001493,,,,,,,,,327.94938470004126,329.1620757000055,329.9631938000676,329.94655320001766,329.9465795001015,329.9631938000676,329.9631938000676,329.9631938000676,,330.8134483001195,left,1.0,21.64159589982592,,,,,,,,,,,,,,,,,,,,,,,,,,,,,,,sub-166,1.0,random_dot,59.87113342271462,
right,right,accuracy,,,,,0.0,0.0,0.0,0.0,3.0,1.0,7.0,1.0,330.8285028000828,,,,,,,,,330.81457000016235,331.6284783000592,332.4297624002211,332.4130046002101,332.4130341000855,332.4297624002211,332.4297624002211,332.4297624002211,,336.7970506001729,left,0.0,25.161308499984443,,,,,,,,,,,,,,,,,,,,,,,,,,,,,,,sub-166,1.0,random_dot,59.87113342271462,
left,left,accuracy,,,,,0.0,0.0,0.0,0.0,4.0,0.0,8.0,0.0,336.81193720013835,,,,,,,,,336.7986085000448,338.0118561000563,338.8124113001395,338.7956846000161,338.7957078001928,338.8124113001395,338.8124113001395,338.8124113001395,,340.3299204001669,left,1.0,22.310031299944967,,,,,,,,,,,,,,,,,,,,,,,,,,,,,,,sub-166,1.0,random_dot,59.87113342271462,
right,right,accuracy,,,,,0.0,0.0,0.0,0.0,4.0,1.0,9.0,1.0,340.34544230019674,,,,,,,,,340.33093960001133,340.6952158000786,341.49612010014243,341.48012300021946,341.48016520007513,341.49612010014243,341.49612010014243,341.49612010014243,,342.6142870001495,right,1.0,21.909060299862176,,,,,,,,,,,,,,,,,,,,,,,,,,,,,,,sub-166,1.0,random_dot,59.87113342271462,
right,right,accuracy,,,,,0.0,0.0,0.0,0.0,5.0,0.0,10.0,1.0,342.6283283000812,,,,,,,,,342.6155015002005,342.72885260009207,343.53160960017703,343.51285990001634,343.51290290011093,343.53160960017703,343.53160960017703,343.53160960017703,,344.4467079001479,right,1.0,21.71190409990959,,,,,,,,,,,,,,,,,,,,,,,,,,,,,,,sub-166,1.0,random_dot,59.87113342271462,
left,left,accuracy,,,,,0.0,0.0,0.0,0.0,5.0,1.0,11.0,0.0,344.4616928000469,,,,,,,,,344.44791780016385,345.26200840016827,346.06288100010715,346.04620850016363,346.0462465002201,346.06288100010715,346.06288100010715,346.06288100010715,,348.6302196001634,left,1.0,23.35780799994245,,,,,,,,,,,,,,,,,,,,,,,,,,,,,,,sub-166,1.0,random_dot,59.87113342271462,
right,right,accuracy,,,,,0.0,0.0,0.0,0.0,6.0,0.0,12.0,1.0,348.6453546001576,,,,,,,,,348.631259100046,349.8452108001802,350.64601340005174,350.62966940016486,350.6296867001802,350.64601340005174,350.64601340005174,350.64601340005174,,353.0641328000929,right,1.0,23.209657499799505,,,,,,,,,,,,,,,,,,,,,,,,,,,,,,,sub-166,1.0,random_dot,59.87113342271462,
left,left,accuracy,,,,,0.0,0.0,0.0,0.0,6.0,1.0,13.0,0.0,353.07894970010966,,,,,,,,,353.0655916000251,354.27899330016226,355.0793406001758,355.06312840012833,355.063160300022,355.0793406001758,355.0793406001758,355.0793406001758,,356.26461760001257,left,1.0,21.98218939988874,,,,,,,,,,,,,,,,,,,,,,,,,,,,,,,sub-166,1.0,random_dot,59.87113342271462,
left,left,accuracy,,,,,0.0,0.0,0.0,0.0,7.0,0.0,14.0,0.0,356.27865410014056,,,,,,,,,356.26601280015893,356.3789997000713,357.17966180015355,357.16335909999907,357.16339310002513,357.17966180015355,357.17966180015355,357.17966180015355,,358.11340530007146,right,0.0,21.73246739991009,,,,,,,,,,,,,,,,,,,,,,,,,,,,,,,sub-166,1.0,random_dot,59.87113342271462,
right,right,accuracy,,,,,0.0,0.0,0.0,0.0,7.0,1.0,15.0,1.0,358.1287749002222,,,,,,,,,358.11449740012176,358.92888410016894,359.72896550013684,359.7128423000686,359.71287300018594,359.72896550013684,359.72896550013684,359.72896550013684,,361.3628480001353,right,1.0,22.42515949998051,,,,,,,,,,,,,,,,,,,,,,,,,,,,,,,sub-166,1.0,random_dot,59.87113342271462,
left,left,accuracy,,,,,0.0,0.0,0.0,0.0,8.0,0.0,16.0,0.0,361.3784857999999,,,,,,,,,361.3638613000512,361.4787353000138,362.2790654001292,362.2630130001344,362.26304170000367,362.2790654001292,362.2790654001292,362.2790654001292,,363.86476010014303,left,1.0,22.389518099837005,,,,,,,,,,,,,,,,,,,,,,,,,,,,,,,sub-166,1.0,random_dot,59.87113342271462,
right,right,accuracy,,,,,0.0,0.0,0.0,0.0,8.0,1.0,17.0,1.0,363.8785868000705,,,,,,,,,363.86634700000286,364.2288376002107,365.0289739000145,365.0125364002306,365.012564400211,365.0289739000145,365.0289739000145,365.0289739000145,,366.80098680011,right,1.0,22.57628159970045,,,,,,,,,,,,,,,,,,,,,,,,,,,,,,,sub-166,1.0,random_dot,59.87113342271462,
right,right,accuracy,,,,,0.0,0.0,0.0,0.0,9.0,0.0,18.0,1.0,366.812280600192,,,,,,,,,366.8024294001516,367.6124031001236,368.4124095002189,368.39625430013984,368.396299400134,368.4124095002189,368.4124095002189,368.4124095002189,,371.897005100036,right,1.0,24.27567539969459,,,,,,,,,,,,,,,,,,,,,,,,,,,,,,,sub-166,1.0,random_dot,59.87113342271462,
left,left,accuracy,,,,,0.0,0.0,0.0,0.0,9.0,1.0,19.0,0.0,371.9119887000416,,,,,,,,,371.8982510000933,373.1119322001469,373.9126270001289,373.8963504000567,373.8963915000204,373.9126270001289,373.9126270001289,373.9126270001289,,375.7483286000788,left,1.0,22.633457499789078,,,,,,,,,,,,,,,,,,,,,,,,,,,,,,,sub-166,1.0,random_dot,59.87113342271462,
left,left,accuracy,,,,,0.0,0.0,0.0,0.0,10.0,0.0,20.0,0.0,375.7624696001876,,,,,,,,,375.7499850001186,375.8625354000833,376.6626779001672,376.6459278000984,376.6459539001808,376.6626779001672,376.6626779001672,376.6626779001672,,379.61463360022753,left,1.0,23.7530277997721,,,,,,,,,,,,,,,,,,,,,,,,,,,,,,,sub-166,1.0,random_dot,59.87113342271462,
right,right,accuracy,,,,,0.0,0.0,0.0,0.0,10.0,1.0,21.0,1.0,379.6284162001684,,,,,,,,,379.6161891000811,380.82861320022494,381.6290616001934,381.6126647000201,381.6126912001055,381.6290616001934,381.6290616001934,381.6290616001934,,383.3298706000205,right,1.0,22.50179179990664,,,,,,,,,,,,,,,,,,,,,,,,,,,,,,,sub-166,1.0,random_dot,59.87113342271462,
left,left,accuracy,,,,,0.0,0.0,0.0,0.0,11.0,0.0,22.0,0.0,383.3454814001452,,,,,,,,,383.3309886001516,383.4451067000628,384.2458373000845,384.229825100163,384.2298533001449,384.2458373000845,384.2458373000845,384.2458373000845,,385.9678790001199,right,0.0,22.52582609979436,,,,,,,,,,,,,,,,,,,,,,,,,,,,,,,sub-166,1.0,random_dot,59.87113342271462,
right,right,accuracy,,,,,0.0,0.0,0.0,0.0,11.0,1.0,23.0,1.0,385.9788817001972,,,,,,,,,385.9692972002085,386.3284224001691,387.1291563000996,387.1135715001728,387.1136011001654,387.1291563000996,387.1291563000996,387.1291563000996,392.1293507001829,394.0464369000401,left,0.0,27.717230499722064,,,,,,,,,,,,,,,,,,,,,,,,,,,,,,,sub-166,1.0,random_dot,59.87113342271462,
right,right,accuracy,,,,,0.0,0.0,0.0,0.0,12.0,0.0,24.0,1.0,394.0620307000354,,,,,,,,,394.0475410001818,394.8622927002143,395.6629441000987,395.6459008001257,395.6459251001943,395.6629441000987,395.6629441000987,395.6629441000987,,397.0477473000065,right,1.0,22.179299999959767,,,,,,,,,,,,,,,,,,,,,,,,,,,,,,,sub-166,1.0,random_dot,59.87113342271462,
left,left,accuracy,,,,,0.0,0.0,0.0,0.0,12.0,1.0,25.0,0.0,397.06235680007376,,,,,,,,,397.04904280020855,397.4122413001023,398.21278660022654,398.1962054001633,398.1962382001802,398.21278660022654,398.21278660022654,398.21278660022654,,401.9003441000823,left,1.0,24.491871799808,,,,,,,,,,,,,,,,,,,,,,,,,,,,,,,sub-166,1.0,random_dot,59.87113342271462,
left,left,accuracy,,,,,0.0,0.0,0.0,0.0,13.0,0.0,26.0,0.0,401.91264200001024,,,,,,,,,401.90181280020624,402.71211340022273,403.5124687000644,403.4960215000901,403.496049700072,403.5124687000644,403.5124687000644,403.5124687000644,,406.3633643002249,left,1.0,23.652451999718323,,,,,,,,,,,,,,,,,,,,,,,,,,,,,,,sub-166,1.0,random_dot,59.87113342271462,
right,right,accuracy,,,,,0.0,0.0,0.0,0.0,13.0,1.0,27.0,1.0,406.37877830001526,,,,,,,,,406.36439450015314,406.47923010005616,407.2797150001861,407.26278150011785,407.2628076002002,407.2797150001861,407.2797150001861,407.2797150001861,,408.0483110002242,right,1.0,21.57394119980745,,,,,,,,,,,,,,,,,,,,,,,,,,,,,,,sub-166,1.0,random_dot,59.87113342271462,
left,left,accuracy,,,,,0.0,0.0,0.0,0.0,14.0,0.0,28.0,0.0,408.0623683000449,,,,,,,,,408.0498008001596,408.16201380011626,408.9630277000833,408.9462959000375,408.94632040010765,408.9630277000833,408.9630277000833,408.9630277000833,,413.7477295000572,left,1.0,25.58824549987912,,,,,,,,,,,,,,,,,,,,,,,,,,,,,,,sub-166,1.0,random_dot,59.87113342271462,
right,right,accuracy,,,,,0.0,0.0,0.0,0.0,14.0,1.0,29.0,1.0,413.7623253001366,,,,,,,,,413.74903880013153,414.5619204000104,415.3626881001983,415.3458092000801,415.3458431002218,415.3626881001983,415.3626881001983,415.3626881001983,,416.58071470004506,right,1.0,22.016194599680603,,,,,,,,,,,,,,,,,,,,,,,,,,,,,,,sub-166,1.0,random_dot,59.87113342271462,
right,right,accuracy,,,,,0.0,0.0,0.0,0.0,15.0,0.0,30.0,1.0,416.5959026000928,,,,,,,,,416.5819396001753,417.3954514001962,418.19570290017873,418.1792622001376,418.1792870000936,418.19570290017873,418.19570290017873,418.19570290017873,,419.5491491002031,right,1.0,22.157178399851546,,,,,,,,,,,,,,,,,,,,,,,,,,,,,,,sub-166,1.0,random_dot,59.87113342271462,
left,left,accuracy,,,,,0.0,0.0,0.0,0.0,15.0,1.0,31.0,0.0,419.5620265000034,,,,,,,,,419.5504652000964,419.9122235001996,420.7126648002304,420.6960878001992,420.69611840019934,420.7126648002304,420.7126648002304,420.7126648002304,,423.3306942000054,left,1.0,23.41701289988123,,,,,,,,,,,,,,,,,,,,,,,,,,,,,,,sub-166,1.0,random_dot,59.87113342271462,
right,right,accuracy,,,,,0.0,0.0,0.0,0.0,16.0,0.0,32.0,1.0,423.3460821001791,,,,,,,,,423.3319411000703,423.6954292000737,424.496521800058,424.4796453001909,424.4796795002185,424.496521800058,424.496521800058,424.496521800058,,429.44968960015103,right,1.0,25.741722599836063,,,,,,,,,,,,,,,,,,,,,,,,,,,,,,,sub-166,1.0,random_dot,59.87113342271462,
left,left,accuracy,,,,,0.0,0.0,0.0,0.0,16.0,1.0,33.0,0.0,429.4619302002248,,,,,,,,,429.4512324000243,429.5623727000784,430.3626746002119,430.3465652000159,430.3465980000328,430.3626746002119,430.3626746002119,430.3626746002119,,433.0637395000085,left,1.0,23.499867599690333,,,,,,,,,,,,,,,,,,,,,,,,,,,,,,,sub-166,1.0,random_dot,59.87113342271462,
left,left,accuracy,,,,,0.0,0.0,0.0,0.0,17.0,0.0,34.0,0.0,433.0792323001661,,,,,,,,,433.0651589001063,433.1787530002184,433.9795275002252,433.9637409001589,433.9637786000967,433.9795275002252,433.9795275002252,433.9795275002252,,435.9636380001903,left,1.0,22.784378999844197,,,,,,,,,,,,,,,,,,,,,,,,,,,,,,,sub-166,1.0,random_dot,59.87113342271462,
right,right,accuracy,,,,,0.0,0.0,0.0,0.0,17.0,1.0,35.0,1.0,435.9785550001543,,,,,,,,,435.9649738001172,436.3287648002152,437.12923650001176,437.1131129001733,437.11315330001526,437.12923650001176,437.12923650001176,437.12923650001176,,438.3820460001007,right,1.0,22.0515912999399,,,,,,,,,,,,,,,,,,,,,,,,,,,,,,,sub-166,1.0,random_dot,59.87113342271462,
left,left,accuracy,,,,,0.0,0.0,0.0,0.0,18.0,0.0,36.0,0.0,438.39535410003737,,,,,,,,,438.3836001001764,439.59575820015743,440.39610530016944,440.3794785002247,440.3795037001837,440.39610530016944,440.39610530016944,440.39610530016944,,441.8805032002274,left,1.0,22.28468199982308,,,,,,,,,,,,,,,,,,,,,,,,,,,,,,,sub-166,1.0,random_dot,59.87113342271462,
right,right,accuracy,,,,,0.0,0.0,0.0,0.0,18.0,1.0,37.0,1.0,441.8954539000988,,,,,,,,,441.8816142000724,443.09548470005393,443.896066600224,443.8793142000213,443.8793439001311,443.896066600224,443.896066600224,443.896066600224,,447.19754340010695,left,0.0,24.09817789983936,,,,,,,,,,,,,,,,,,,,,,,,,,,,,,,sub-166,1.0,random_dot,59.87113342271462,
left,left,accuracy,,,,,0.0,0.0,0.0,0.0,19.0,0.0,38.0,0.0,447.21232910011895,,,,,,,,,447.1987395000178,447.3119522000197,448.1127653000876,448.09635870018974,448.0963907002006,448.1127653000876,448.1127653000876,448.1127653000876,,450.54725500009954,left,1.0,23.22472149971873,,,,,,,,,,,,,,,,,,,,,,,,,,,,,,,sub-166,1.0,random_dot,59.87113342271462,
right,right,accuracy,,,,,0.0,0.0,0.0,0.0,19.0,1.0,39.0,1.0,450.5688712000847,,,,,,,,,450.5485777000431,450.6618701000698,451.46527940011583,451.4465183001012,451.44656050018966,451.46527940011583,451.46527940011583,451.46527940011583,,453.4132109000348,left,0.0,22.740658699767664,,,,,,,,,,,,,,,,,,,,,,,,,,,,,,,sub-166,1.0,random_dot,59.87113342271462,
right,right,accuracy,,,,,0.0,0.0,0.0,0.0,20.0,0.0,40.0,1.0,453.4288483001292,,,,,,,,,453.4143993000034,454.2289793000091,455.0297758001834,455.01230470021255,455.0123241001274,455.0297758001834,455.0297758001834,455.0297758001834,,456.7802853002213,right,1.0,22.545119599672034,,,,,,,,,,,,,,,,,,,,,,,,,,,,,,,sub-166,1.0,random_dot,59.87113342271462,
left,left,accuracy,,,,,0.0,0.0,0.0,0.0,20.0,1.0,41.0,0.0,456.7955989001785,,,,,,,,,456.78159470018,457.9959080000408,458.79551060008816,458.7793706001248,458.7793947001919,458.79551060008816,458.79551060008816,458.79551060008816,463.779285900062,464.3647847000975,left,1.0,26.367158399894837,,,,,,,,,,,,,,,,,,,,,,,,,,,,,,,sub-166,1.0,random_dot,59.87113342271462,
right,right,accuracy,,,,,0.0,0.0,0.0,0.0,21.0,0.0,42.0,1.0,464.3789736002218,,,,,,,,,464.3658500001766,465.178977600066,465.979436900001,465.9636273002252,465.9636927000247,465.979436900001,465.979436900001,465.979436900001,,467.363815800054,right,1.0,22.176076599862427,,,,,,,,,,,,,,,,,,,,,,,,,,,,,,,sub-166,1.0,random_dot,59.87113342271462,
left,left,accuracy,,,,,0.0,0.0,0.0,0.0,21.0,1.0,43.0,0.0,467.37887100013904,,,,,,,,,467.36484140018,467.47893130010925,468.2796140999999,468.26329250005074,468.263323500054,468.2796140999999,468.2796140999999,468.2796140999999,,471.2304767000023,left,1.0,23.74715169961564,,,,,,,,,,,,,,,,,,,,,,,,,,,,,,,sub-166,1.0,random_dot,59.87113342271462,
left,left,accuracy,,,,,0.0,0.0,0.0,0.0,22.0,0.0,44.0,0.0,471.24572440003976,,,,,,,,,471.231716300128,471.5954605001025,472.3956660002005,472.3805658000056,472.3805976000149,472.3956660002005,472.3956660002005,472.3956660002005,,474.6059031002224,left,1.0,23.012384899891916,,,,,,,,,,,,,,,,,,,,,,,,,,,,,,,sub-166,1.0,random_dot,59.87113342271462,
right,right,accuracy,,,,,0.0,0.0,0.0,0.0,22.0,1.0,45.0,1.0,474.6119958001655,,,,,,,,,474.6068847000133,475.41303240018897,476.21308770007454,476.1968710001093,476.1969087000471,476.21308770007454,476.21308770007454,476.21308770007454,,477.01339360000566,right,1.0,21.595647600013763,,,,,,,,,,,,,,,,,,,,,,,,,,,,,,,sub-166,1.0,random_dot,59.87113342271462,
left,left,accuracy,,,,,0.0,0.0,0.0,0.0,23.0,0.0,46.0,0.0,477.029035900021,,,,,,,,,477.01490820012987,477.8291706000455,478.6290390000213,478.612583800219,478.61261290009134,478.6290390000213,478.6290390000213,478.6290390000213,,480.74729700014,left,1.0,22.918286999687552,,,,,,,,,,,,,,,,,,,,,,,,,,,,,,,sub-166,1.0,random_dot,59.87113342271462,
right,right,accuracy,,,,,0.0,0.0,0.0,0.0,23.0,1.0,47.0,1.0,480.7622318000067,,,,,,,,,480.74867580016144,481.5622445000336,482.3627378002275,482.3460646001622,482.3460956001654,482.3627378002275,482.3627378002275,482.3627378002275,,485.4804282002151,left,0.0,23.91951759974472,,,,,,,,,,,,,,,,,,,,,,,,,,,,,,,sub-166,1.0,random_dot,59.87113342271462,
left,left,accuracy,,,,,0.0,0.0,0.0,0.0,24.0,0.0,48.0,0.0,485.49561650003307,,,,,,,,,485.4815776001197,485.8456819001585,486.6464260001667,486.6299719000235,486.63000240013935,486.6464260001667,486.6464260001667,486.6464260001667,,488.350885800086,left,1.0,22.494729599915445,,,,,,,,,,,,,,,,,,,,,,,,,,,,,,,sub-166,1.0,random_dot,59.87113342271462,
right,right,accuracy,,,,,0.0,0.0,0.0,0.0,24.0,1.0,49.0,1.0,488.3621845000889,,,,,,,,,488.3519250000827,488.7124615001958,489.5125297000632,489.4966062000021,489.4966431001667,489.5125297000632,489.5125297000632,489.5125297000632,,490.6641808000859,right,1.0,21.950692399870604,,,,,,,,,,,,,,,,,,,,,,,,,,,,,,,sub-166,1.0,random_dot,59.87113342271462,
left,left,accuracy,,,,,0.0,0.0,0.0,0.0,25.0,0.0,50.0,0.0,490.6786855000537,,,,,,,,,490.6651452002116,491.8787005001213,492.6798058000859,492.6626379000954,492.66266730008647,492.6798058000859,492.6798058000859,492.6798058000859,,496.0305532000493,left,1.0,24.146098299883302,,,,,,,,,,,,,,,,,,,,,,,,,,,,,,,sub-166,1.0,random_dot,59.87113342271462,
right,right,accuracy,,,,,0.0,0.0,0.0,0.0,25.0,1.0,51.0,1.0,496.0454521002248,,,,,,,,,496.0318216001615,496.8456175001338,497.64632200007327,497.6297992002219,497.62984050018713,497.64632200007327,497.64632200007327,497.64632200007327,,499.0803312000353,right,1.0,22.23155969963409,,,,,,,,,,,,,,,,,,,,,,,,,,,,,,,sub-166,1.0,random_dot,59.87113342271462,
right,right,accuracy,,,,,0.0,0.0,0.0,0.0,26.0,0.0,52.0,1.0,499.09522730018944,,,,,,,,,499.0812838000711,499.19571110000834,499.9962816000916,499.9798408001661,499.9798830000218,499.9962816000916,499.9962816000916,499.9962816000916,,501.5140500001144,left,0.0,22.315236799884588,,,,,,,,,,,,,,,,,,,,,,,,,,,,,,,sub-166,1.0,random_dot,59.87113342271462,
left,left,accuracy,,,,,0.0,0.0,0.0,0.0,26.0,1.0,53.0,0.0,501.5288396000397,,,,,,,,,501.51538530015387,501.6289724002127,502.4293829000089,502.4129894000944,502.41302100010216,502.4293829000089,502.4293829000089,502.4293829000089,,503.680246300064,left,1.0,22.04327809996903,,,,,,,,,,,,,,,,,,,,,,,,,,,,,,,sub-166,1.0,random_dot,59.87113342271462,
left,left,accuracy,,,,,0.0,0.0,0.0,0.0,27.0,0.0,54.0,0.0,503.6958130002022,,,,,,,,,503.6816374000628,504.045669300016,504.8496400001459,504.8433553001378,504.8433842000086,504.8496400001459,504.8496400001459,504.8496400001459,,506.6975536001846,left,1.0,22.639009799808264,,,,,,,,,,,,,,,,,,,,,,,,,,,,,,,sub-166,1.0,random_dot,59.87113342271462,
right,right,accuracy,,,,,0.0,0.0,0.0,0.0,27.0,1.0,55.0,1.0,506.7119755002204,,,,,,,,,506.69882540008985,506.8121560001746,507.61262950021774,507.59632450016215,507.5963539001532,507.61262950021774,507.61262950021774,507.61262950021774,,511.7985507000704,right,1.0,24.990556899691,,,,,,,,,,,,,,,,,,,,,,,,,,,,,,,sub-166,1.0,random_dot,59.87113342271462,
right,right,accuracy,,,,,0.0,0.0,0.0,0.0,28.0,0.0,56.0,1.0,511.8121346000116,,,,,,,,,511.8000549999997,512.6122561001685,513.4129848000593,513.3965791000519,513.3966109000612,513.4129848000593,513.4129848000593,513.4129848000593,,514.9636858000886,right,1.0,22.353880299953744,,,,,,,,,,,,,,,,,,,,,,,,,,,,,,,sub-166,1.0,random_dot,59.87113342271462,
left,left,accuracy,,,,,0.0,0.0,0.0,0.0,28.0,1.0,57.0,0.0,514.9787471001036,,,,,,,,,514.9648262001574,515.0789957002271,515.8794002002105,515.8633984001353,515.8634481001645,515.8794002002105,515.8794002002105,515.8794002002105,,517.046544500161,left,1.0,21.9588649997022,,,,,,,,,,,,,,,,,,,,,,,,,,,,,,,sub-166,1.0,random_dot,59.87113342271462,
right,right,accuracy,,,,,0.0,0.0,0.0,0.0,29.0,0.0,58.0,1.0,517.0623327000067,,,,,,,,,517.0476865000091,518.262222800171,519.063321400201,519.0462492001243,519.0462908002082,519.063321400201,519.063321400201,519.063321400201,,521.6802058001049,left,0.0,23.41120849992149,,,,,,,,,,,,,,,,,,,,,,,,,,,,,,,sub-166,1.0,random_dot,59.87113342271462,
left,left,accuracy,,,,,0.0,0.0,0.0,0.0,29.0,1.0,59.0,0.0,521.6951780000236,,,,,,,,,521.6813658000901,522.4955638002139,523.2960330001079,523.2796106000897,523.2796372000594,523.2960330001079,523.2960330001079,523.2960330001079,,525.8308386001736,left,1.0,23.330397999845445,,,,,,,,,,,,,,,,,,,,,,,,,,,,,,,sub-166,1.0,random_dot,59.87113342271462,
,,accuracy,,,,,0.0,0.0,0.0,0.0,,,,,,,,,,,,,,,,,,,,,,,,,,,,,,,,,,,,,,,,,,,,,,,,,,,,,,,,,sub-166,1.0,random_dot,59.87113342271462,
left,left,speed,,,,,0.0,1.0,1.0,1.0,0.0,0.0,0.0,0.0,529.349221700104,,,,,,,,,529.3456461001188,530.5455404000822,531.3460175001528,531.3303015001584,531.3303436001297,531.3460175001528,531.3460175001528,531.3460175001528,,532.3140972000547,left,1.0,21.76316149998456,,,,,,,,,,,,,,,,,,,,525.8317674000282,525.8455982001033,525.8455982001033,529.3320941000711,space,24.27803469984792,,,,,,sub-166,1.0,random_dot,59.87113342271462,
right,right,speed,,,,,0.0,1.0,1.0,1.0,0.0,1.0,1.0,1.0,532.3360255002044,,,,,,,,,532.3154969001189,532.6790187000297,533.4832733001094,533.475490000099,533.4755352002103,533.4832733001094,533.4832733001094,533.4832733001094,,534.5141833000816,left,0.0,21.83414929988794,,,,,,,,,,,,,,,,,,,,,,,,,,,,,,,sub-166,1.0,random_dot,59.87113342271462,
left,left,speed,,,,,0.0,1.0,1.0,1.0,1.0,0.0,2.0,0.0,534.5291067000944,,,,,,,,,534.5156215000898,535.3287435001694,536.1294875000603,536.1127974002156,536.1128276002128,536.1294875000603,536.1294875000603,536.1294875000603,,537.3508873002138,left,1.0,22.011050699977204,,,,,,,,,,,,,,,,,,,,,,,,,,,,,,,sub-166,1.0,random_dot,59.87113342271462,
right,right,speed,,,,,0.0,1.0,1.0,1.0,1.0,1.0,3.0,1.0,537.3627257000189,,,,,,,,,537.3522427000571,537.467122200178,538.2791331000626,538.2628884001169,538.2629347001202,538.2791331000626,538.2791331000626,538.2791331000626,,541.2645347001962,left,0.0,23.77696849987842,,,,,,,,,,,,,,,,,,,,,,,,,,,,,,,sub-166,1.0,random_dot,59.87113342271462,
right,right,speed,,,,,0.0,1.0,1.0,1.0,2.0,0.0,4.0,1.0,541.27893400006,,,,,,,,,541.2660123000387,542.0787176000886,542.879691200098,542.8627919000573,542.8628189000301,542.879691200098,542.879691200098,542.879691200098,,546.9812783000525,right,1.0,24.89433699985966,,,,,,,,,,,,,,,,,,,,,,,,,,,,,,,sub-166,1.0,random_dot,59.87113342271462,
left,left,speed,,,,,0.0,1.0,1.0,1.0,2.0,1.0,5.0,0.0,546.995333700208,,,,,,,,,546.9828631000128,547.0960124002304,547.8962103000376,547.8794845000375,547.8795214002021,547.8962103000376,547.8962103000376,547.8962103000376,,549.6301914001815,left,1.0,22.533192900009453,,,,,,,,,,,,,,,,,,,,,,,,,,,,,,,sub-166,1.0,random_dot,59.87113342271462,
left,left,speed,,,,,0.0,1.0,1.0,1.0,3.0,0.0,6.0,0.0,549.6455102001783,,,,,,,,,549.6313274002168,550.8457659000997,551.6460722000338,551.6293777001556,551.6294069001451,551.6460722000338,551.6460722000338,551.6460722000338,,553.1974991001189,left,1.0,22.350728399818763,,,,,,,,,,,,,,,,,,,,,,,,,,,,,,,sub-166,1.0,random_dot,59.87113342271462,
right,right,speed,,,,,0.0,1.0,1.0,1.0,3.0,1.0,7.0,1.0,553.212073800154,,,,,,,,,553.1987183000892,554.4124155000318,555.2124840000179,555.1962737001013,555.1963154000696,555.2124840000179,555.2124840000179,555.2124840000179,,557.9484016001225,right,1.0,23.540500100003555,,,,,,,,,,,,,,,,,,,,,,,,,,,,,,,sub-166,1.0,random_dot,59.87113342271462,
left,left,speed,,,,,0.0,1.0,1.0,1.0,4.0,0.0,8.0,0.0,557.9620828002226,,,,,,,,,557.9498165000696,558.7623043002095,559.5628101001494,559.5513707001228,559.5514018000104,559.5628101001494,559.5628101001494,559.5628101001494,,561.2800168001559,left,1.0,22.51882299990393,,,,,,,,,,,,,,,,,,,,,,,,,,,,,,,sub-166,1.0,random_dot,59.87113342271462,
right,right,speed,,,,,0.0,1.0,1.0,1.0,4.0,1.0,9.0,1.0,561.2952543001156,,,,,,,,,561.2811953001656,562.4958445001394,563.2961541002151,563.2795832001138,563.2796196001582,563.2961541002151,563.2961541002151,563.2961541002151,,564.8800494000316,right,1.0,22.385127199813724,,,,,,,,,,,,,,,,,,,,,,,,,,,,,,,sub-166,1.0,random_dot,59.87113342271462,
left,left,speed,,,,,0.0,1.0,1.0,1.0,5.0,0.0,10.0,0.0,564.8956161001697,,,,,,,,,564.8812103001401,565.2456662000623,566.0463436001446,566.0298323000316,566.0298579002265,566.0463436001446,566.0463436001446,566.0463436001446,,569.1306094001047,right,0.0,23.886819699779156,,,,,,,,,,,,,,,,,,,,,,,,,,,,,,,sub-166,1.0,random_dot,59.87113342271462,
right,right,speed,,,,,0.0,1.0,1.0,1.0,5.0,1.0,11.0,1.0,569.145380300004,,,,,,,,,569.1319117001258,570.3453556001186,571.1463188000489,571.12931450014,571.1293355000671,571.1463188000489,571.1463188000489,571.1463188000489,,575.430581800174,right,1.0,25.08118589967489,,,,,,,,,,,,,,,,,,,,,,,,,,,,,,,sub-166,1.0,random_dot,59.87113342271462,
left,left,speed,,,,,0.0,1.0,1.0,1.0,6.0,0.0,12.0,0.0,575.4455497001763,,,,,,,,,575.4314564000815,576.245465700049,577.045639900025,577.0297108001541,577.0297488002107,577.045639900025,577.045639900025,577.045639900025,,578.896545600146,left,1.0,22.64609519974329,,,,,,,,,,,,,,,,,,,,,,,,,,,,,,,sub-166,1.0,random_dot,59.87113342271462,
right,right,speed,,,,,0.0,1.0,1.0,1.0,6.0,1.0,13.0,1.0,578.9119894001633,,,,,,,,,578.8976157000288,579.0127213001251,579.8134115000721,579.7961438000202,579.7961646001786,579.8134115000721,579.8134115000721,579.8134115000721,,581.1357844001614,right,1.0,22.12608139985241,,,,,,,,,,,,,,,,,,,,,,,,,,,,,,,sub-166,1.0,random_dot,59.87113342271462,
left,left,speed,,,,,0.0,1.0,1.0,1.0,7.0,0.0,14.0,0.0,581.1455648001283,,,,,,,,,581.1368107001763,582.3457647000905,583.1457605001051,583.1294294002,583.1294600002002,583.1457605001051,583.1457605001051,583.1457605001051,,585.4979500002228,left,1.0,23.14403279987164,,,,,,,,,,,,,,,,,,,,,,,,,,,,,,,sub-166,1.0,random_dot,59.87113342271462,
right,right,speed,,,,,0.0,1.0,1.0,1.0,7.0,1.0,15.0,1.0,585.5126161000226,,,,,,,,,585.498942800099,586.3121747002006,587.1128239000682,587.096202700166,587.0962387002073,587.1128239000682,587.1128239000682,587.1128239000682,,588.19930940005,right,1.0,21.891420199768618,,,,,,,,,,,,,,,,,,,,,,,,,,,,,,,sub-166,1.0,random_dot,59.87113342271462,
right,right,speed,,,,,0.0,1.0,1.0,1.0,8.0,0.0,16.0,1.0,588.2118120000232,,,,,,,,,588.2009709000122,588.561968700029,589.3627478000708,589.3464141001459,589.3464400002267,589.3627478000708,589.3627478000708,589.3627478000708,,593.0144142000936,right,1.0,24.454283099854365,,,,,,,,,,,,,,,,,,,,,,,,,,,,,,,sub-166,1.0,random_dot,59.87113342271462,
left,left,speed,,,,,0.0,1.0,1.0,1.0,8.0,1.0,17.0,0.0,593.0290192000102,,,,,,,,,593.0154997000936,593.828895600047,594.6296074001584,594.6125511000864,594.6125737000257,594.6296074001584,594.6296074001584,594.6296074001584,,595.8475860001054,left,1.0,22.019416599767283,,,,,,,,,,,,,,,,,,,,,,,,,,,,,,,sub-166,1.0,random_dot,59.87113342271462,
right,right,speed,,,,,0.0,1.0,1.0,1.0,9.0,0.0,18.0,1.0,595.8624614002183,,,,,,,,,595.8487215000205,596.6621747000609,597.4629529002123,597.4463431001641,597.446372400038,597.4629529002123,597.4629529002123,597.4629529002123,,598.7303262001369,right,1.0,22.068033299874514,,,,,,,,,,,,,,,,,,,,,,,,,,,,,,,sub-166,1.0,random_dot,59.87113342271462,
left,left,speed,,,,,0.0,1.0,1.0,1.0,9.0,1.0,19.0,0.0,598.7455443001818,,,,,,,,,598.7312051001936,599.9454285001848,600.7461853001732,600.7300589000806,600.7301007001661,600.7461853001732,600.7461853001732,600.7461853001732,,604.6474194000475,right,0.0,24.70497479988262,,,,,,,,,,,,,,,,,,,,,,,,,,,,,,,sub-166,1.0,random_dot,59.87113342271462,
right,right,speed,,,,,0.0,1.0,1.0,1.0,10.0,0.0,20.0,1.0,604.6622668001801,,,,,,,,,604.6488046001177,605.8621555001009,606.662637000205,606.646334500052,606.646358500002,606.662637000205,606.662637000205,606.662637000205,,609.2305616000667,left,0.0,23.36712019983679,,,,,,,,,,,,,,,,,,,,,,,,,,,,,,,sub-166,1.0,random_dot,59.87113342271462,
left,left,speed,,,,,0.0,1.0,1.0,1.0,10.0,1.0,21.0,0.0,609.2457889001817,,,,,,,,,609.2319738001097,609.3510318000335,610.162503400119,610.1463951000478,610.1464254001621,610.162503400119,610.162503400119,610.162503400119,,611.5970623001922,left,1.0,22.237680199788883,,,,,,,,,,,,,,,,,,,,,,,,,,,,,,,sub-166,1.0,random_dot,59.87113342271462,
left,left,speed,,,,,0.0,1.0,1.0,1.0,11.0,0.0,22.0,0.0,611.6124248001724,,,,,,,,,611.5982395000756,612.4121578000486,613.2126037999988,613.1963663001079,613.1963969001081,613.2126037999988,613.2126037999988,613.2126037999988,,614.2634095000103,left,1.0,21.85041439975612,,,,,,,,,,,,,,,,,,,,,,,,,,,,,,,sub-166,1.0,random_dot,59.87113342271462,
right,right,speed,,,,,0.0,1.0,1.0,1.0,11.0,1.0,23.0,1.0,614.2786951002199,,,,,,,,,614.2645311001688,615.0788249000907,615.8795884000137,615.8629447000567,615.8629671002273,615.8795884000137,615.8795884000137,615.8795884000137,,620.6143479000311,left,0.0,25.52786659984849,,,,,,,,,,,,,,,,,,,,,,,,,,,,,,,sub-166,1.0,random_dot,59.87113342271462,
left,left,speed,,,,,0.0,1.0,1.0,1.0,12.0,0.0,24.0,0.0,620.6288826002274,,,,,,,,,620.6156670001801,621.4290407001972,622.2293992000632,622.2139478002209,622.2140029000584,622.2293992000632,622.2293992000632,622.2293992000632,,626.0648595001549,left,1.0,24.6341026998125,,,,,,,,,,,,,,,,,,,,,,,,,,,,,,,sub-166,1.0,random_dot,59.87113342271462,
right,right,speed,,,,,0.0,1.0,1.0,1.0,12.0,1.0,25.0,1.0,626.0788599001244,,,,,,,,,626.0662708000746,626.178755100118,626.9792259000242,626.9632610001136,626.9633050002158,626.9792259000242,626.9792259000242,626.9792259000242,631.9632122002076,632.4140799001325,right,1.0,26.232819799799472,,,,,,,,,,,,,,,,,,,,,,,,,,,,,,,sub-166,1.0,random_dot,59.87113342271462,
left,left,speed,,,,,0.0,1.0,1.0,1.0,13.0,0.0,26.0,0.0,632.428673400078,,,,,,,,,632.415281200083,633.2290414001327,634.0295125001576,634.0128554000985,634.0128878001124,634.0295125001576,634.0295125001576,634.0295125001576,639.012449900154,639.4653573001269,left,1.0,26.240886699873958,,,,,,,,,,,,,,,,,,,,,,,,,,,,,,,sub-166,1.0,random_dot,59.87113342271462,
right,right,speed,,,,,0.0,1.0,1.0,1.0,13.0,1.0,27.0,1.0,639.4786365001928,,,,,,,,,639.4667948000133,640.6790721002035,641.4793265000917,641.4634149000049,641.4634443002287,641.4793265000917,641.4793265000917,641.4793265000917,,643.3702168001328,right,1.0,22.68483959976584,,,,,,,,,,,,,,,,,,,,,,,,,,,,,,,sub-166,1.0,random_dot,59.87113342271462,
right,right,speed,,,,,0.0,1.0,1.0,1.0,14.0,0.0,28.0,1.0,643.3789016001392,,,,,,,,,643.3717626000289,643.4789988000412,644.2795146000572,644.2626943001524,644.2627199001145,644.2795146000572,644.2795146000572,644.2795146000572,,646.5663983002305,right,1.0,23.074834699742496,,,,,,,,,,,,,,,,,,,,,,,,,,,,,,,sub-166,1.0,random_dot,59.87113342271462,
left,left,speed,,,,,0.0,1.0,1.0,1.0,14.0,1.0,29.0,0.0,646.5715689000208,,,,,,,,,646.5672843002249,647.7788521000184,648.5792564000003,648.5627407000866,648.5627729000989,648.5792564000003,648.5792564000003,648.5792564000003,,649.5798356002197,left,1.0,21.801304699853063,,,,,,,,,,,,,,,,,,,,,,,,,,,,,,,sub-166,1.0,random_dot,59.87113342271462,
right,right,speed,,,,,0.0,1.0,1.0,1.0,15.0,0.0,30.0,1.0,649.595348100178,,,,,,,,,649.5806932002306,650.3954965001903,651.1959898001514,651.1794331001583,651.1794751000125,651.1959898001514,651.1959898001514,651.1959898001514,,651.781170300208,right,1.0,21.384442399954423,,,,,,,,,,,,,,,,,,,,,,,,,,,,,,,sub-166,1.0,random_dot,59.87113342271462,
left,left,speed,,,,,0.0,1.0,1.0,1.0,15.0,1.0,31.0,0.0,651.7954549000133,,,,,,,,,651.7824548000935,651.8952700002119,652.7058125000913,652.6810922001023,652.6811402000021,652.7058125000913,652.7058125000913,652.7058125000913,,653.7803018002305,left,1.0,21.876026299782097,,,,,,,,,,,,,,,,,,,,,,,,,,,,,,,sub-166,1.0,random_dot,59.87113342271462,
left,left,speed,,,,,0.0,1.0,1.0,1.0,16.0,0.0,32.0,0.0,653.7953369000461,,,,,,,,,653.7814497000072,654.145495200064,654.9464126001112,654.9292684001848,654.9292896001134,654.9464126001112,654.9464126001112,654.9464126001112,,656.0653115001041,left,1.0,21.91784069989808,,,,,,,,,,,,,,,,,,,,,,,,,,,,,,,sub-166,1.0,random_dot,59.87113342271462,
right,right,speed,,,,,0.0,1.0,1.0,1.0,16.0,1.0,33.0,1.0,656.0792276000138,,,,,,,,,656.06688090018,656.4289527002256,657.2294766001869,657.2130594002083,657.2130910002161,657.2294766001869,657.2294766001869,657.2294766001869,,658.3638575000223,right,1.0,21.927853599889204,,,,,,,,,,,,,,,,,,,,,,,,,,,,,,,sub-166,1.0,random_dot,59.87113342271462,
left,left,speed,,,,,0.0,1.0,1.0,1.0,17.0,0.0,34.0,0.0,658.3790785002057,,,,,,,,,658.3652064001653,659.1788721000776,659.9797881001141,659.963428000221,659.9634779000189,659.9797881001141,659.9797881001141,659.9797881001141,,660.7970980000682,left,1.0,21.61744419974275,,,,,,,,,,,,,,,,,,,,,,,,,,,,,,,sub-166,1.0,random_dot,59.87113342271462,
right,right,speed,,,,,0.0,1.0,1.0,1.0,17.0,1.0,35.0,1.0,660.8121445002034,,,,,,,,,660.7984624002129,661.16221220023,661.962937500095,661.9468440001365,661.9468788001686,661.962937500095,661.962937500095,661.962937500095,,663.6981294001453,right,1.0,22.538093999726694,,,,,,,,,,,,,,,,,,,,,,,,,,,,,,,sub-166,1.0,random_dot,59.87113342271462,
left,left,speed,,,,,0.0,1.0,1.0,1.0,18.0,0.0,36.0,0.0,663.7125694002025,,,,,,,,,663.6993584001902,663.8120010001585,664.6128086000681,664.5962517000735,664.5962796001695,664.6128086000681,664.6128086000681,664.6128086000681,,666.2146270000376,left,1.0,22.405825399793684,,,,,,,,,,,,,,,,,,,,,,,,,,,,,,,sub-166,1.0,random_dot,59.87113342271462,
right,right,speed,,,,,0.0,1.0,1.0,1.0,18.0,1.0,37.0,1.0,666.2291105000768,,,,,,,,,666.2162919000257,666.578594500199,667.3792127000634,667.3627774000634,667.3628028000239,667.3792127000634,667.3792127000634,667.3792127000634,,670.6143077001907,left,0.0,24.031157499877736,,,,,,,,,,,,,,,,,,,,,,,,,,,,,,,sub-166,1.0,random_dot,59.87113342271462,
left,left,speed,,,,,0.0,1.0,1.0,1.0,19.0,0.0,38.0,0.0,670.6286752000451,,,,,,,,,670.6157462000847,671.4285751001444,672.2290990001056,672.2128281001933,672.2128594000824,672.2290990001056,672.2290990001056,672.2290990001056,,674.1981708002277,left,1.0,22.769638899946585,,,,,,,,,,,,,,,,,,,,,,,,,,,,,,,sub-166,1.0,random_dot,59.87113342271462,
right,right,speed,,,,,0.0,1.0,1.0,1.0,19.0,1.0,39.0,1.0,674.2125773001462,,,,,,,,,674.1996568001341,674.312400800176,675.1128542001825,675.096221000189,675.0962533000857,675.1128542001825,675.1128542001825,675.1128542001825,,675.8476998000406,right,1.0,21.53658369998448,,,,,,,,,,,,,,,,,,,,,,,,,,,,,,,sub-166,1.0,random_dot,59.87113342271462,
left,left,speed,,,,,0.0,1.0,1.0,1.0,20.0,0.0,40.0,0.0,675.8621844002046,,,,,,,,,675.848840800114,675.9627052000724,676.7628614001442,676.7459905000869,676.7460208002012,676.7628614001442,676.7628614001442,676.7628614001442,,677.5636305001099,left,1.0,21.592243399703875,,,,,,,,,,,,,,,,,,,,,,,,,,,,,,,sub-166,1.0,random_dot,59.87113342271462,
right,right,speed,,,,,0.0,1.0,1.0,1.0,20.0,1.0,41.0,1.0,677.5787049001083,,,,,,,,,677.5647872001864,677.6791676001158,678.4791798000224,678.4632297002245,678.4632583002094,678.4791798000224,678.4791798000224,678.4791798000224,,679.3474303002004,right,1.0,21.662684599868957,,,,,,,,,,,,,,,,,,,,,,,,,,,,,,,sub-166,1.0,random_dot,59.87113342271462,
right,right,speed,,,,,0.0,1.0,1.0,1.0,21.0,0.0,42.0,1.0,679.3628421002068,,,,,,,,,679.3485884000547,680.1622837001923,680.9625610001385,680.9465263001621,680.9465500002261,680.9625610001385,680.9625610001385,680.9625610001385,,681.9472229001112,right,1.0,21.78083479986526,,,,,,,,,,,,,,,,,,,,,,,,,,,,,,,sub-166,1.0,random_dot,59.87113342271462,
left,left,speed,,,,,0.0,1.0,1.0,1.0,21.0,1.0,43.0,0.0,681.9622703001369,,,,,,,,,681.9484640001319,682.0622943001799,682.8628732000943,682.8465615001041,682.8465907000937,682.8628732000943,682.8628732000943,682.8628732000943,,683.9475761000067,left,1.0,21.877374099800363,,,,,,,,,,,,,,,,,,,,,,,,,,,,,,,sub-166,1.0,random_dot,59.87113342271462,
right,right,speed,,,,,0.0,1.0,1.0,1.0,22.0,0.0,44.0,1.0,683.9622428000439,,,,,,,,,683.9490883001126,684.3122109000105,685.1130886001047,685.0963868000545,685.096423300216,685.1130886001047,685.1130886001047,685.1130886001047,,686.66341560008,right,1.0,22.34535699966364,,,,,,,,,,,,,,,,,,,,,,,,,,,,,,,sub-166,1.0,random_dot,59.87113342271462,
left,left,speed,,,,,0.0,1.0,1.0,1.0,22.0,1.0,45.0,0.0,686.6785950001795,,,,,,,,,686.6646949001588,687.028881700011,687.8298551000189,687.8126892000437,687.8127244000789,687.8298551000189,687.8298551000189,687.8298551000189,,688.8136515000369,left,1.0,21.780442099785432,,,,,,,,,,,,,,,,,,,,,,,,,,,,,,,sub-166,1.0,random_dot,59.87113342271462,
left,left,speed,,,,,0.0,1.0,1.0,1.0,23.0,0.0,46.0,0.0,688.8290381000843,,,,,,,,,688.8145406001713,689.1793544001412,689.9796154000796,689.9628881001845,689.9629223002121,689.9796154000796,689.9796154000796,689.9796154000796,,690.997053500032,left,1.0,21.81449789996259,,,,,,,,,,,,,,,,,,,,,,,,,,,,,,,sub-166,1.0,random_dot,59.87113342271462,
right,right,speed,,,,,0.0,1.0,1.0,1.0,23.0,1.0,47.0,1.0,691.0122120000888,,,,,,,,,690.9983814000152,691.3622916000895,692.1628747000359,692.1459850000683,692.1460072000045,692.1628747000359,692.1628747000359,692.1628747000359,,696.3815072001889,right,1.0,25.02228969987482,,,,,,,,,,,,,,,,,,,,,,,,,,,,,,,sub-166,1.0,random_dot,59.87113342271462,
left,left,speed,,,,,0.0,1.0,1.0,1.0,24.0,0.0,48.0,0.0,696.3954738001339,,,,,,,,,696.3831551000476,697.5959197001066,698.3959737000987,698.3795277001336,698.3795635001734,698.3959737000987,698.3959737000987,698.3959737000987,,699.3470188002102,left,1.0,21.74782619974576,,,,,,,,,,,,,,,,,,,,,,,,,,,,,,,sub-166,1.0,random_dot,59.87113342271462,
right,right,speed,,,,,0.0,1.0,1.0,1.0,24.0,1.0,49.0,1.0,699.3621777000371,,,,,,,,,699.3481353002135,699.7121782000177,700.5128933000378,700.4962880001403,700.4963196001481,700.5128933000378,700.5128933000378,700.5128933000378,,701.4485936001875,right,1.0,21.73877319996245,,,,,,,,,,,,,,,,,,,,,,,,,,,,,,,sub-166,1.0,random_dot,59.87113342271462,
right,right,speed,,,,,0.0,1.0,1.0,1.0,25.0,0.0,50.0,1.0,701.462406600127,,,,,,,,,701.4499763001222,702.2625264001545,703.0630099000409,703.0463594000321,703.0463825000916,703.0630099000409,703.0630099000409,703.0630099000409,,704.3480093001854,right,1.0,22.089561599772424,,,,,,,,,,,,,,,,,,,,,,,,,,,,,,,sub-166,1.0,random_dot,59.87113342271462,
left,left,speed,,,,,0.0,1.0,1.0,1.0,25.0,1.0,51.0,0.0,704.3625289001502,,,,,,,,,704.3493452002294,704.4625362001825,705.2625643000938,705.2465496000368,705.2465751999989,705.2625643000938,705.2625643000938,705.2625643000938,,705.7812993000261,left,1.0,21.323407399933785,,,,,,,,,,,,,,,,,,,,,,,,,,,,,,,sub-166,1.0,random_dot,59.87113342271462,
right,right,speed,,,,,0.0,1.0,1.0,1.0,26.0,0.0,52.0,1.0,705.7953805001453,,,,,,,,,705.7828572001308,706.995381400222,707.7966625001281,707.7796208001673,707.7796513000503,707.7966625001281,707.7966625001281,707.7966625001281,,708.9166276000906,right,1.0,21.924207099946216,,,,,,,,,,,,,,,,,,,,,,,,,,,,,,,sub-166,1.0,random_dot,59.87113342271462,
left,left,speed,,,,,0.0,1.0,1.0,1.0,26.0,1.0,53.0,0.0,708.928584500216,,,,,,,,,708.9180573001504,709.2789234002121,710.0796693000011,710.0624718000181,710.0625001001172,710.0796693000011,710.0796693000011,710.0796693000011,,710.8135617000517,left,1.0,21.53446799982339,,,,,,,,,,,,,,,,,,,,,,,,,,,,,,,sub-166,1.0,random_dot,59.87113342271462,
right,right,speed,,,,,0.0,1.0,1.0,1.0,27.0,0.0,54.0,1.0,710.8290840000845,,,,,,,,,710.8144632000476,712.0372746000066,712.8463310000952,712.8295478001237,712.8295717001893,712.8463310000952,712.8463310000952,712.8463310000952,,713.5314298002049,right,1.0,21.4888689997606,,,,,,,,,,,,,,,,,,,,,,,,,,,,,,,sub-166,1.0,random_dot,59.87113342271462,
left,left,speed,,,,,0.0,1.0,1.0,1.0,27.0,1.0,55.0,0.0,713.5456749000587,,,,,,,,,713.5327082001604,713.6456957000773,714.4457371002063,714.429569200147,714.4296119001228,714.4457371002063,714.4457371002063,714.4457371002063,,715.2809253002051,left,1.0,21.639219199772924,,,,,,,,,,,,,,,,,,,,,,,,,,,,,,,sub-166,1.0,random_dot,59.87113342271462,
right,right,speed,,,,,0.0,1.0,1.0,1.0,28.0,0.0,56.0,1.0,715.2957803001627,,,,,,,,,715.2819354000967,715.396328400122,716.1962510000449,716.1795904000755,716.179617700167,716.1962510000449,716.1962510000449,716.1962510000449,,716.9642113000154,right,1.0,21.570261699613184,,,,,,,,,,,,,,,,,,,,,,,,,,,,,,,sub-166,1.0,random_dot,59.87113342271462,
left,left,speed,,,,,0.0,1.0,1.0,1.0,28.0,1.0,57.0,0.0,716.9788908001501,,,,,,,,,716.9654445000924,718.1786017999984,718.9797607001383,718.9634315001313,718.96347720013,718.9797607001383,718.9797607001383,718.9797607001383,,719.8972088000737,left,1.0,21.70947189978324,,,,,,,,,,,,,,,,,,,,,,,,,,,,,,,sub-166,1.0,random_dot,59.87113342271462,
right,right,speed,,,,,0.0,1.0,1.0,1.0,29.0,0.0,58.0,1.0,719.9121416001581,,,,,,,,,719.8983842001762,721.1123367000837,721.9127895000856,721.8962482002098,721.8962776002008,721.9127895000856,721.9127895000856,721.9127895000856,,723.2475594000425,left,0.0,22.13677449990064,,,,,,,,,,,,,,,,,,,,,,,,,,,,,,,sub-166,1.0,random_dot,59.87113342271462,
left,left,speed,,,,,0.0,1.0,1.0,1.0,29.0,1.0,59.0,0.0,723.2620964001399,,,,,,,,,723.2490270000417,724.0622393002268,724.8629739000462,724.8469848001841,724.8470182002056,724.8629739000462,724.8629739000462,724.8629739000462,,726.4813430001959,left,1.0,22.42306049983017,,,,,,,,,,,,,,,,,,,,,,,,,,,,,,,sub-166,1.0,random_dot,59.87113342271462,
,,speed,,,,,0.0,1.0,1.0,1.0,,,,,,,,,,,,,,,,,,,,,,,,,,,,,,,,,,,,,,,,,,,,,,,,,,,,,,,,,sub-166,1.0,random_dot,59.87113342271462,
,,,,,,,,,,,,,,,,,,,,,,,,,,,,,,,,,,,,,,,,,,,,,,,,,,,,,,,,,,,,,,,726.482322400203,726.4956604000181,731.495431400137,731.4795906001236,sub-166,,,,
