wordCTK,colorCTK,corrAnsCTK,congruentCTK,thisN,thisTrialN,thisRepN,keyResp_CTK.keys,keyResp_CTK.corr,keyResp_CTK.rt,keyResp_CTK.duration,wordPractice,colorPractice,corrAnsPractice,congruentPractice,respPractice.keys,respPractice.corr,respPractice.rt,respPractice.duration,word,color,corrAns,congruent,keyResp_test_run.keys,keyResp_test_run.corr,keyResp_test_run.rt,keyResp_test_run.duration,trials_CTK.thisRepN,trials_CTK.thisTrialN,trials_CTK.thisN,trials_CTK.thisIndex,trials_practice.thisRepN,trials_practice.thisTrialN,trials_practice.thisN,trials_practice.thisIndex,trials_test.thisRepN,trials_test.thisTrialN,trials_test.thisN,trials_test.thisIndex,thisRow.t,notes,instruction.started,instr_text.started,instr_image.started,instr_resp.started,instruction.stopped,instr_resp.keys,instr_resp.rt,instr_resp.duration,instr_color_to_key.started,instr_ctk.started,resp_ctk.started,instr_color_to_key.stopped,resp_ctk.keys,resp_ctk.rt,resp_ctk.duration,ITI.started,fixcross.started,fixcross.stopped,ITI.stopped,color_to_key_run.started,stimulus_CTK.started,keyResp_CTK.started,color_to_key_run.stopped,trials_CTK.keyResp_CTK.keys,trials_CTK.keyResp_CTK.corr,trials_CTK.keyResp_CTK.rt,trials_CTK.keyResp_CTK.duration,instr_practice.started,instr_practice_text.started,instr_practice_resp.started,instr_practice.stopped,instr_practice_resp.keys,instr_practice_resp.rt,instr_practice_resp.duration,practice_run.started,stimulus_practice.started,respPractice.started,practice_run.stopped,trials_practice.respPractice.keys,trials_practice.respPractice.corr,trials_practice.respPractice.rt,trials_practice.respPractice.duration,feedback.started,textFeedback.started,textFeedback.stopped,feedback.stopped,instr_test.started,instr_test_text.started,instr_test_resp.started,instr_test.stopped,instr_test_resp.keys,instr_test_resp.rt,instr_test_resp.duration,test_run.started,stimulus_test_run.started,keyResp_test_run.started,test_run.stopped,trials_test.keyResp_test_run.keys,trials_test.keyResp_test_run.corr,trials_test.keyResp_test_run.rt,trials_test.keyResp_test_run.duration,goodbye.started,textGoodbye.started,textGoodbye.stopped,goodbye.stopped,participant,session,expName,frameRate,Unnamed: 113
,,,,,,,,,,,,,,,,,,,,,,,,,,,,,,,,,,,,,,,,,0.0159788349992595,0.065035521000027,0.065035521000027,0.065035521000027,173.9786904649991,space,173.893224165,,,,,,,,,,,,,,,,,,,,,,,,,,,,,,,,,,,,,,,,,,,,,,,,,,,,,,,,,,,sub-134,1,stroop_test,,
,,,,,,,,,,,,,,,,,,,,,,,,,,,,,,,,,,,,,,,,,,,,,,,,,173.97874077099914,173.99359290099892,173.99359290099892,188.40143836099924,space,14.402916261000428,,,,,,,,,,,,,,,,,,,,,,,,,,,,,,,,,,,,,,,,,,,,,,,,,,,,sub-134,1,stroop_test,,
test,yellow,g,1.0,0.0,0.0,0.0,g,1.0,2.2053841589986405,,,,,,,,,,,,,,,,,,0.0,0.0,0.0,1.0,,,,,,,,,188.4224145199987,,,,,,,,,,,,,,,,,188.4111290029996,188.49999451999972,189.294085350999,189.2840474649984,189.2881726199994,189.294085350999,189.294085350999,191.50132368399863,g,1.0,2.2053841589986405,,,,,,,,,,,,,,,,,,,,,,,,,,,,,,,,,,,,,,,,sub-134,1,stroop_test,,
test,blue,b,1.0,1.0,1.0,0.0,b,1.0,1.2213310900006036,,,,,,,,,,,,,,,,,,0.0,1.0,1.0,2.0,,,,,,,,,191.5076903399986,,,,,,,,,,,,,,,,,191.50159239999996,191.8500656830001,192.64040212500004,192.63405739299924,192.63452932399923,192.64040212500004,192.64040212500004,193.86798851399908,b,1.0,1.2213310900006036,,,,,,,,,,,,,,,,,,,,,,,,,,,,,,,,,,,,,,,,sub-134,1,stroop_test,,
test,red,r,1.0,2.0,2.0,0.0,r,1.0,1.8466831440000533,,,,,,,,,,,,,,,,,,0.0,2.0,2.0,0.0,,,,,,,,,193.87470762999877,,,,,,,,,,,,,,,,,193.86824977099968,195.06672856099976,195.8568557419985,195.85072675099943,195.851222927,195.8568557419985,195.8568557419985,197.7073804519987,r,1.0,1.8466831440000533,,,,,,,,,,,,,,,,,,,,,,,,,,,,,,,,,,,,,,,,sub-134,1,stroop_test,,
test,yellow,g,1.0,3.0,0.0,1.0,g,1.0,0.982597882000846,,,,,,,,,,,,,,,,,,1.0,0.0,3.0,1.0,,,,,,,,,197.71650349299853,,,,,,,,,,,,,,,,,197.7076447309992,198.90529977599908,199.70008744999905,199.6891449999985,199.68963326499943,199.70008744999905,199.70008744999905,200.6846139629997,g,1.0,0.982597882000846,,,,,,,,,,,,,,,,,,,,,,,,,,,,,,,,,,,,,,,,sub-134,1,stroop_test,,
test,blue,b,1.0,4.0,1.0,1.0,b,1.0,0.6898222319996421,,,,,,,,,,,,,,,,,,1.0,1.0,4.0,2.0,,,,,,,,,200.6909756339992,,,,,,,,,,,,,,,,,200.68487693399948,201.48343119799935,202.27346766299888,202.26727259200013,202.26775572299996,202.27346766299888,202.27346766299888,202.9680155219994,b,1.0,0.6898222319996421,,,,,,,,,,,,,,,,,,,,,,,,,,,,,,,,,,,,,,,,sub-134,1,stroop_test,,
test,red,r,1.0,5.0,2.0,1.0,r,1.0,0.6214687569990929,,,,,,,,,,,,,,,,,,1.0,2.0,5.0,0.0,,,,,,,,,202.9745915049989,,,,,,,,,,,,,,,,,202.96828449199893,203.0667161450001,203.8574745329988,203.85099695399916,203.851483896,203.8574745329988,203.8574745329988,204.4847653179986,r,1.0,0.6214687569990929,,,,,,,,,,,,,,,,,,,,,,,,,,,,,,,,,,,,,,,,sub-134,1,stroop_test,,
test,yellow,g,1.0,6.0,0.0,2.0,g,1.0,0.4427055629985261,,,,,,,,,,,,,,,,,,2.0,0.0,6.0,1.0,,,,,,,,,204.4913524349995,,,,,,,,,,,,,,,,,204.48502654799995,205.68330082099965,206.4736003189992,206.4673556279995,206.467849491999,206.4736003189992,206.4736003189992,206.91793929599956,g,1.0,0.4427055629985261,,,,,,,,,,,,,,,,,,,,,,,,,,,,,,,,,,,,,,,,sub-134,1,stroop_test,,
test,red,r,1.0,7.0,1.0,2.0,r,1.0,0.5553971040008037,,,,,,,,,,,,,,,,,,2.0,1.0,7.0,0.0,,,,,,,,,206.92429906199868,,,,,,,,,,,,,,,,,206.918211487,207.01682810700004,207.8068601679988,207.80062938699848,207.80112050699967,207.8068601679988,207.8068601679988,208.3682680959992,r,1.0,0.5553971040008037,,,,,,,,,,,,,,,,,,,,,,,,,,,,,,,,,,,,,,,,sub-134,1,stroop_test,,
test,blue,b,1.0,8.0,2.0,2.0,b,1.0,0.3867981099992903,,,,,,,,,,,,,,,,,,2.0,2.0,8.0,2.0,,,,,,,,,208.3746640299996,,,,,,,,,,,,,,,,,208.3685379949984,208.71665092199876,209.5072965749987,209.5007743339993,209.5012533879999,209.5072965749987,209.5072965749987,209.9015402899986,b,1.0,0.3867981099992903,,,,,,,,,,,,,,,,,,,,,,,,,,,,,,,,,,,,,,,,sub-134,1,stroop_test,,
test,yellow,g,1.0,9.0,0.0,3.0,g,1.0,0.4816860070004622,,,,,,,,,,,,,,,,,,3.0,0.0,9.0,1.0,,,,,,,,,209.90810039200005,,,,,,,,,,,,,,,,,209.90181481699983,211.1001309509993,211.8901027510001,211.8839266369996,211.88441953999973,211.8901027510001,211.8901027510001,212.37390595899888,g,1.0,0.4816860070004622,,,,,,,,,,,,,,,,,,,,,,,,,,,,,,,,,,,,,,,,sub-134,1,stroop_test,,
test,red,r,1.0,10.0,1.0,3.0,r,1.0,0.2785691389999556,,,,,,,,,,,,,,,,,,3.0,1.0,10.0,0.0,,,,,,,,,212.3833066849984,,,,,,,,,,,,,,,,,212.37417644800007,213.5718083309985,214.36665309099956,214.3560105659999,214.35648881799895,214.36665309099956,214.36665309099956,214.6519144599988,r,1.0,0.2785691389999556,,,,,,,,,,,,,,,,,,,,,,,,,,,,,,,,,,,,,,,,sub-134,1,stroop_test,,
test,blue,b,1.0,11.0,2.0,3.0,b,1.0,0.3587794649993157,,,,,,,,,,,,,,,,,,3.0,2.0,11.0,2.0,,,,,,,,,214.6586219259989,,,,,,,,,,,,,,,,,214.65218057499987,214.75001780899947,215.540494674,215.53405075699996,215.53455030799887,215.540494674,215.540494674,215.9013689119984,b,1.0,0.3587794649993157,,,,,,,,,,,,,,,,,,,,,,,,,,,,,,,,,,,,,,,,sub-134,1,stroop_test,,
,,,,,,,,,,,,,,,,,,,,,,,,,,,,,,,,,,,,,,,,,,,,,,,,,,,,,,,,,,,,,,,,,,,,215.90149514099903,215.90923260699856,215.90923260699856,253.2908510769994,space,37.37769359900085,,,,,,,,,,,,,,,,,,,,,,,,,,,,,,,,,sub-134,1,stroop_test,,
,,,,0.0,0.0,0.0,,,,,gelb,red,r,0.0,r,1.0,0.4902744859991799,,,,,,,,,,,,,,0.0,0.0,0.0,8.0,,,,,253.30587864399968,,,,,,,,,,,,,,,,,253.2997155609992,253.6384558789996,254.43331465499975,254.42295550699964,,,,,,,,,,,,,,,,254.42701154799943,254.43331465499975,254.43331465499975,254.9351275179997,r,1.0,0.4902744859991799,,254.93950623599997,254.9469801389987,255.939479654,255.93436212599957,,,,,,,,,,,,,,,,,,,,sub-134,1,stroop_test,,
,,,,1.0,1.0,0.0,,,,,gelb,yellow,g,1.0,g,1.0,0.4921974529988802,,,,,,,,,,,,,,0.0,1.0,1.0,10.0,,,,,255.939479654,,,,,,,,,,,,,,,,,255.93468598099932,256.2834631679998,257.07347146899883,257.0674236729992,,,,,,,,,,,,,,,,257.0679237409986,257.07347146899883,257.07347146899883,257.5681901199987,g,1.0,0.4921974529988802,,257.5686018659999,257.5756014949984,258.5727246319984,258.5675716119986,,,,,,,,,,,,,,,,,,,,sub-134,1,stroop_test,,
,,,,2.0,2.0,0.0,,,,,blau,red,r,0.0,r,1.0,0.6568472819999442,,,,,,,,,,,,,,0.0,2.0,2.0,4.0,,,,,258.5727246319984,,,,,,,,,,,,,,,,,258.56788900299944,259.7667758899988,260.5605916649984,260.55084562799857,,,,,,,,,,,,,,,,260.5543174329996,260.5605916649984,260.5605916649984,261.2258004239993,r,1.0,0.6568472819999442,,261.22615645899896,261.23332554599983,262.2225720890001,262.21746397599964,,,,,,,,,,,,,,,,,,,,sub-134,1,stroop_test,,
,,,,3.0,3.0,0.0,,,,,rot,red,r,1.0,r,1.0,0.5567738530007773,,,,,,,,,,,,,,0.0,3.0,3.0,0.0,,,,,262.2225720890001,,,,,,,,,,,,,,,,,262.2177936089993,263.42186523499913,264.2167493379984,264.2059251769988,,,,,,,,,,,,,,,,264.2090663149993,264.2167493379984,264.2167493379984,264.7849592329985,r,1.0,0.5567738530007773,,264.7853582560001,264.7927874910001,265.78940428499845,265.7841938919992,,,,,,,,,,,,,,,,,,,,sub-134,1,stroop_test,,
,,,,4.0,4.0,0.0,,,,,rot,blue,b,0.0,b,1.0,0.4800156229994172,,,,,,,,,,,,,,0.0,4.0,4.0,2.0,,,,,265.78940428499845,,,,,,,,,,,,,,,,,265.78451792799933,266.133485119999,266.9237801219988,266.91740252899945,,,,,,,,,,,,,,,,266.9178862680001,266.9237801219988,266.9237801219988,267.4067289119994,b,1.0,0.4800156229994172,,267.4071420299988,267.4166435499992,268.4061919679989,268.4009470509991,,,,,,,,,,,,,,,,,,,,sub-134,1,stroop_test,,
,,,,5.0,5.0,0.0,,,,,blau,yellow,g,0.0,g,1.0,0.3600106970006891,,,,,,,,,,,,,,0.0,5.0,5.0,7.0,,,,,268.4061919679989,,,,,,,,,,,,,,,,,268.4012720539995,268.5052672849997,269.30013792599857,269.28940001199953,,,,,,,,,,,,,,,,269.29226144099994,269.30013792599857,269.30013792599857,269.6686722509985,g,1.0,0.3600106970006891,,269.6692014979999,269.6766163759985,270.6727762729988,270.66755714099963,,,,,,,,,,,,,,,,,,,,sub-134,1,stroop_test,,
,,,,6.0,6.0,0.0,,,,,blau,blue,b,1.0,b,1.0,0.5658574179997231,,,,,,,,,,,,,,0.0,6.0,6.0,5.0,,,,,270.6727762729988,,,,,,,,,,,,,,,,,270.6678773799995,270.76678485999946,271.55739007599914,271.5509500249991,,,,,,,,,,,,,,,,271.5514331710001,271.55739007599914,271.55739007599914,272.13503360699906,b,1.0,0.5658574179997231,,272.13546754399977,272.14250204400014,273.1395024199992,273.13421893399936,,,,,,,,,,,,,,,,,,,,sub-134,1,stroop_test,,
,,,,7.0,7.0,0.0,,,,,rot,yellow,g,0.0,g,1.0,0.5308153829992079,,,,,,,,,,,,,,0.0,7.0,7.0,3.0,,,,,273.1395024199992,,,,,,,,,,,,,,,,,273.1345402099996,273.9335310480001,274.7263081639994,274.71751149899865,,,,,,,,,,,,,,,,274.7202938519986,274.7263081639994,274.7263081639994,275.2689003059986,g,1.0,0.5308153829992079,,275.26931677299945,275.2768288649986,276.2728105369988,276.26756499899966,,,,,,,,,,,,,,,,,,,,sub-134,1,stroop_test,,
,,,,8.0,8.0,0.0,,,,,gelb,yellow,g,1.0,g,1.0,0.6921985689987196,,,,,,,,,,,,,,0.0,8.0,8.0,11.0,,,,,276.2728105369988,,,,,,,,,,,,,,,,,276.26788766499885,276.3667574579995,277.1593780200001,277.15091380099875,,,,,,,,,,,,,,,,277.153440692,277.1593780200001,277.1593780200001,277.8567337240001,g,1.0,0.6921985689987196,,277.857134807,277.86682474400004,278.8559262789986,278.8508920159984,,,,,,,,,,,,,,,,,,,,sub-134,1,stroop_test,,
,,,,9.0,9.0,0.0,,,,,rot,red,r,1.0,r,1.0,0.3911284929999965,,,,,,,,,,,,,,0.0,9.0,9.0,1.0,,,,,278.8559262789986,,,,,,,,,,,,,,,,,278.85123287499846,280.0552241339992,280.85004226399906,280.8393582869994,,,,,,,,,,,,,,,,280.8418701189985,280.85004226399906,280.85004226399906,281.2520585819984,r,1.0,0.3911284929999965,,281.25252840199937,281.25987293399885,282.25592932699874,282.2507649899999,,,,,,,,,,,,,,,,,,,,sub-134,1,stroop_test,,
,,,,10.0,10.0,0.0,,,,,blau,blue,b,1.0,b,1.0,0.3563022779999301,,,,,,,,,,,,,,0.0,10.0,10.0,6.0,,,,,282.25592932699874,,,,,,,,,,,,,,,,,282.25108773600004,283.450315176,284.2427304140001,284.23413671899834,,,,,,,,,,,,,,,,284.2365854949985,284.2427304140001,284.2427304140001,284.60166290300003,b,1.0,0.3563022779999301,,284.60208010599854,284.6092605599988,285.60606352299874,285.60080644499976,,,,,,,,,,,,,,,,,,,,sub-134,1,stroop_test,,
,,,,11.0,11.0,0.0,,,,,gelb,blue,b,0.0,b,1.0,0.5342101189999084,,,,,,,,,,,,,,0.0,11.0,11.0,9.0,,,,,285.60606352299874,,,,,,,,,,,,,,,,,285.60112766899874,285.95025531899955,286.74292006,286.73447761699936,,,,,,,,,,,,,,,,286.7369918339991,286.74292006,286.74292006,287.28519758199945,b,1.0,0.5342101189999084,,287.2856308679984,287.2930292860001,288.2893593049994,288.2841160399985,,,,,,,,,,,,,,,,,,,,sub-134,1,stroop_test,,
,,,,12.0,0.0,1.0,,,,,rot,yellow,g,0.0,g,1.0,0.7359937109995371,,,,,,,,,,,,,,1.0,0.0,12.0,3.0,,,,,288.2893593049994,,,,,,,,,,,,,,,,,288.2844340039992,289.0837493299987,289.8759454859992,289.8675918709996,,,,,,,,,,,,,,,,289.8700244869997,289.8759454859992,289.8759454859992,290.6182598029991,g,1.0,0.7359937109995371,,290.61863307800013,290.6256365219997,291.62291672299943,291.61758228100007,,,,,,,,,,,,,,,,,,,,sub-134,1,stroop_test,,
,,,,13.0,1.0,1.0,,,,,rot,red,r,1.0,r,1.0,0.4078928180006187,,,,,,,,,,,,,,1.0,1.0,13.0,1.0,,,,,291.62291672299943,,,,,,,,,,,,,,,,,291.61809047599854,292.4168711019993,293.2071103239996,293.2008895179988,,,,,,,,,,,,,,,,293.201384643,293.2071103239996,293.2071103239996,293.6182774139997,r,1.0,0.4078928180006187,,293.6187032629987,293.6258631219989,294.6228052719998,294.617573006999,,,,,,,,,,,,,,,,,,,,sub-134,1,stroop_test,,
,,,,14.0,2.0,1.0,,,,,gelb,yellow,g,1.0,g,1.0,0.5736554720006097,,,,,,,,,,,,,,1.0,2.0,14.0,10.0,,,,,294.6228052719998,,,,,,,,,,,,,,,,,294.61789149499964,294.71687801199914,295.51012874499975,295.5007923399989,,,,,,,,,,,,,,,,295.50366077999934,295.51012874499975,295.51012874499975,296.08545172899903,g,1.0,0.5736554720006097,,296.0858727019986,296.0929239219986,297.08954892899965,297.0844621119995,,,,,,,,,,,,,,,,,,,,sub-134,1,stroop_test,,
,,,,15.0,3.0,1.0,,,,,gelb,blue,b,0.0,b,1.0,0.3213544219997857,,,,,,,,,,,,,,1.0,3.0,15.0,9.0,,,,,297.08954892899965,,,,,,,,,,,,,,,,,297.08478490999914,298.2836488819994,299.07381993999843,299.06775095599914,,,,,,,,,,,,,,,,299.06823490399984,299.07381993999843,299.07381993999843,299.4017200299986,b,1.0,0.3213544219997857,,299.40213809799934,299.40927954699873,300.40608723900004,300.4009024709994,,,,,,,,,,,,,,,,,,,,sub-134,1,stroop_test,,
,,,,16.0,4.0,1.0,,,,,rot,red,r,1.0,r,1.0,0.4130747769995651,,,,,,,,,,,,,,1.0,4.0,16.0,0.0,,,,,300.40608723900004,,,,,,,,,,,,,,,,,300.4012204649989,300.75016803200015,301.5429638739988,301.53415620299893,,,,,,,,,,,,,,,,301.536689044,301.5429638739988,301.5429638739988,301.95761496399973,r,1.0,0.4130747769995651,,301.9580275640001,301.9668990369992,302.95604306199857,302.9509393139997,,,,,,,,,,,,,,,,,,,,sub-134,1,stroop_test,,
,,,,17.0,5.0,1.0,,,,,gelb,red,r,0.0,r,1.0,0.5700832509992324,,,,,,,,,,,,,,1.0,5.0,17.0,8.0,,,,,302.95604306199857,,,,,,,,,,,,,,,,,302.95128202199885,303.0552864509991,303.8502250139991,303.8396132170001,,,,,,,,,,,,,,,,303.8421127679994,303.8502250139991,303.8502250139991,304.4240547720001,r,1.0,0.5700832509992324,,304.4244601479986,304.4333949039992,305.4229773809984,305.4179260109995,,,,,,,,,,,,,,,,,,,,sub-134,1,stroop_test,,
,,,,18.0,6.0,1.0,,,,,blau,red,r,0.0,r,1.0,0.6132855100004235,,,,,,,,,,,,,,1.0,6.0,18.0,4.0,,,,,305.4229773809984,,,,,,,,,,,,,,,,,305.4182498379996,305.77223936299924,306.5668917359999,306.5562347790001,,,,,,,,,,,,,,,,306.55909285099915,306.5668917359999,306.5668917359999,307.1850777559994,r,1.0,0.6132855100004235,,307.1854992059998,307.1927906429992,308.18971766199866,308.1845037989988,,,,,,,,,,,,,,,,,,,,sub-134,1,stroop_test,,
,,,,19.0,7.0,1.0,,,,,blau,blue,b,1.0,b,1.0,0.3288220310005272,,,,,,,,,,,,,,1.0,7.0,19.0,6.0,,,,,308.18971766199866,,,,,,,,,,,,,,,,,308.1848259159997,308.9834674519989,309.7736418079985,309.7674859609997,,,,,,,,,,,,,,,,309.76797752999846,309.7736418079985,309.7736418079985,310.1072741479984,b,1.0,0.3288220310005272,,310.107672062999,310.1168531409985,311.10617547699985,311.1008941019991,,,,,,,,,,,,,,,,,,,,sub-134,1,stroop_test,,
,,,,20.0,8.0,1.0,,,,,gelb,yellow,g,1.0,g,1.0,0.4563566699998773,,,,,,,,,,,,,,1.0,8.0,20.0,11.0,,,,,311.10617547699985,,,,,,,,,,,,,,,,,311.10123210599886,311.20525152699884,312.0001858259984,311.9894939599999,,,,,,,,,,,,,,,,311.9921226890001,312.0001858259984,312.0001858259984,312.4686676789988,g,1.0,0.4563566699998773,,312.4691863029984,312.47665674699965,313.47302990299977,313.4679396479987,,,,,,,,,,,,,,,,,,,,sub-134,1,stroop_test,,
,,,,21.0,9.0,1.0,,,,,rot,blue,b,0.0,b,1.0,0.4063623880010709,,,,,,,,,,,,,,1.0,9.0,21.0,2.0,,,,,313.47302990299977,,,,,,,,,,,,,,,,,313.4682596379989,314.2669356669994,315.0594147929987,315.05100371299886,,,,,,,,,,,,,,,,315.0534998209987,315.0594147929987,315.0594147929987,315.4684806289988,b,1.0,0.4063623880010709,,315.46891130899894,315.4762467619985,316.47312407199934,316.4680489459988,,,,,,,,,,,,,,,,,,,,sub-134,1,stroop_test,,
,,,,22.0,10.0,1.0,,,,,blau,yellow,g,0.0,g,1.0,0.4702375820015732,,,,,,,,,,,,,,1.0,10.0,22.0,7.0,,,,,316.47312407199934,,,,,,,,,,,,,,,,,316.46836845100006,316.8169073939989,317.61059842599934,317.6012221659985,,,,,,,,,,,,,,,,317.60478922499897,317.61059842599934,317.61059842599934,318.0847619209999,g,1.0,0.4702375820015732,,318.0851330789992,318.0919586740001,319.08962839800006,319.0845630859985,,,,,,,,,,,,,,,,,,,,sub-134,1,stroop_test,,
,,,,23.0,11.0,1.0,,,,,blau,blue,b,1.0,b,1.0,0.6119630760003929,,,,,,,,,,,,,,1.0,11.0,23.0,5.0,,,,,319.08962839800006,,,,,,,,,,,,,,,,,319.08488151299935,319.1835218749984,319.9744026469998,319.9679600389991,,,,,,,,,,,,,,,,319.96843344699846,319.9744026469998,319.9744026469998,320.5911133699992,b,1.0,0.6119630760003929,,320.59158529900014,320.6000702369984,321.5902035529998,321.58411039399834,,,,,,,,,,,,,,,,,,,,sub-134,1,stroop_test,,
,,,,,,,,,,,,,,,,,,,,,,,,,,,,,,,,,,,,,,,,,,,,,,,,,,,,,,,,,,,,,,,,,,,,,,,,,,,,,,,,,,,,,,,321.58425847799845,321.5902035529998,321.5902035529998,346.6739040889988,space,25.080977779000023,,,,,,,,,,,,,,sub-134,1,stroop_test,,
,,,,0.0,0.0,0.0,,,,,,,,,,,,,gelb,blue,b,0.0,b,1.0,0.4988549460013018,,,,,,,,,,0.0,0.0,0.0,9.0,346.68964744000004,,,,,,,,,,,,,,,,,346.6833178249999,347.4720637899991,348.2669486179984,348.25619658100004,,,,,,,,,,,,,,,,,,,,,,,,,,,,,,,,,,,348.2591010489996,348.2669486179984,348.2669486179984,348.7684436169984,b,1.0,0.4988549460013018,,,,,,sub-134,1,stroop_test,,
,,,,1.0,1.0,0.0,,,,,,,,,,,,,rot,red,r,1.0,r,1.0,0.3776179819997196,,,,,,,,,,0.0,1.0,1.0,0.0,348.7750541099995,,,,,,,,,,,,,,,,,348.7687462169997,349.566971278,350.3599395959991,350.3512209969995,,,,,,,,,,,,,,,,,,,,,,,,,,,,,,,,,,,350.3538204859997,350.3599395959991,350.3599395959991,350.74141974199847,r,1.0,0.3776179819997196,,,,,,sub-134,1,stroop_test,,
,,,,2.0,2.0,0.0,,,,,,,,,,,,,blau,red,r,0.0,b,0.0,0.3939472540005226,,,,,,,,,,0.0,2.0,2.0,4.0,350.75020748299903,,,,,,,,,,,,,,,,,350.7417204389985,351.5384455579988,352.3336808289987,352.32297108199964,,,,,,,,,,,,,,,,,,,,,,,,,,,,,,,,,,,352.32612428599896,352.3336808289987,352.3336808289987,352.73567768499925,b,0.0,0.3939472540005226,,,,,,sub-134,1,stroop_test,,
,,,,3.0,3.0,0.0,,,,,,,,,,,,,rot,blue,b,0.0,b,1.0,0.6940133230000356,,,,,,,,,,0.0,3.0,3.0,2.0,352.742632943,,,,,,,,,,,,,,,,,352.7360492759999,352.8336690549986,353.62633123699925,353.6176724959987,,,,,,,,,,,,,,,,,,,,,,,,,,,,,,,,,,,353.6201589129996,353.62633123699925,353.62633123699925,354.3244145249992,b,1.0,0.6940133230000356,,,,,,sub-134,1,stroop_test,,
,,,,4.0,4.0,0.0,,,,,,,,,,,,,gelb,yellow,g,1.0,g,1.0,0.6029144959993573,,,,,,,,,,0.0,4.0,4.0,10.0,354.33376461399894,,,,,,,,,,,,,,,,,354.3247241889985,355.12233028099945,355.9170314439998,355.9063268819991,,,,,,,,,,,,,,,,,,,,,,,,,,,,,,,,,,,355.9089797910001,355.9170314439998,355.9170314439998,356.52392335399963,g,1.0,0.6029144959993573,,,,,,sub-134,1,stroop_test,,
,,,,5.0,5.0,0.0,,,,,,,,,,,,,gelb,red,r,0.0,r,1.0,0.7327740799992171,,,,,,,,,,0.0,5.0,5.0,8.0,356.5334315849996,,,,,,,,,,,,,,,,,356.52421312299884,356.8720920889991,357.6671530179992,357.65611732599973,,,,,,,,,,,,,,,,,,,,,,,,,,,,,,,,,,,357.65660417099934,357.6671530179992,357.6671530179992,358.4019116419986,r,1.0,0.7327740799992171,,,,,,sub-134,1,stroop_test,,
,,,,6.0,6.0,0.0,,,,,,,,,,,,,blau,blue,b,1.0,b,1.0,0.4572644310010219,,,,,,,,,,0.0,6.0,6.0,5.0,358.4083795389997,,,,,,,,,,,,,,,,,358.4022173209996,359.2003863179998,359.99289281599886,359.9842469359992,,,,,,,,,,,,,,,,,,,,,,,,,,,,,,,,,,,359.9868195169984,359.99289281599886,359.99289281599886,360.4520811059992,b,1.0,0.4572644310010219,,,,,,sub-134,1,stroop_test,,
,,,,7.0,7.0,0.0,,,,,,,,,,,,,blau,blue,b,1.0,b,1.0,0.5274769480001851,,,,,,,,,,0.0,7.0,7.0,6.0,360.4584238110001,,,,,,,,,,,,,,,,,360.4523843369989,361.65036099899953,362.4412477249989,362.4346733739985,,,,,,,,,,,,,,,,,,,,,,,,,,,,,,,,,,,362.435147487,362.4412477249989,362.4412477249989,362.9736699779987,b,1.0,0.5274769480001851,,,,,,sub-134,1,stroop_test,,
,,,,8.0,8.0,0.0,,,,,,,,,,,,,blau,yellow,g,0.0,g,1.0,0.43222745499952,,,,,,,,,,0.0,8.0,8.0,7.0,362.9834776659991,,,,,,,,,,,,,,,,,362.9739602379996,364.17222822799886,364.96721334599897,364.95621447399935,,,,,,,,,,,,,,,,,,,,,,,,,,,,,,,,,,,364.9566980209984,364.96721334599897,364.96721334599897,365.4020424599985,g,1.0,0.43222745499952,,,,,,sub-134,1,stroop_test,,
,,,,9.0,9.0,0.0,,,,,,,,,,,,,rot,yellow,g,0.0,g,1.0,0.5392783450006391,,,,,,,,,,0.0,9.0,9.0,3.0,365.408451764999,,,,,,,,,,,,,,,,,365.4023447269992,366.6003252779992,367.3935079069997,367.38472757899945,,,,,,,,,,,,,,,,,,,,,,,,,,,,,,,,,,,367.38730442299857,367.3935079069997,367.3935079069997,367.93487383699903,g,1.0,0.5392783450006391,,,,,,sub-134,1,stroop_test,,
,,,,10.0,10.0,0.0,,,,,,,,,,,,,gelb,yellow,g,1.0,g,1.0,0.7273473090008338,,,,,,,,,,0.0,10.0,10.0,11.0,367.9414670569986,,,,,,,,,,,,,,,,,367.93517897899983,368.2838906239994,369.0760921479996,369.0677908819998,,,,,,,,,,,,,,,,,,,,,,,,,,,,,,,,,,,369.0702720019999,369.0760921479996,369.0760921479996,369.8071722320001,g,1.0,0.7273473090008338,,,,,,sub-134,1,stroop_test,,
,,,,11.0,11.0,0.0,,,,,,,,,,,,,rot,red,r,1.0,r,1.0,1.0933144749997157,,,,,,,,,,0.0,11.0,11.0,1.0,369.8169196660001,,,,,,,,,,,,,,,,,369.8074614709985,371.0054059689992,371.8002075859986,371.790079851,,,,,,,,,,,,,,,,,,,,,,,,,,,,,,,,,,,371.7931438729993,371.8002075859986,371.8002075859986,372.9015053259991,r,1.0,1.0933144749997157,,,,,,sub-134,1,stroop_test,,
,,,,12.0,0.0,1.0,,,,,,,,,,,,,gelb,yellow,g,1.0,g,1.0,0.6541991700014478,,,,,,,,,,1.0,0.0,12.0,11.0,372.9079567519984,,,,,,,,,,,,,,,,,372.9018064489992,373.0001850949993,373.792946222,373.784290915999,,,,,,,,,,,,,,,,,,,,,,,,,,,,,,,,,,,373.7868127549991,373.792946222,373.792946222,374.4523323689991,g,1.0,0.6541991700014478,,,,,,sub-134,1,stroop_test,,
,,,,13.0,1.0,1.0,,,,,,,,,,,,,blau,blue,b,1.0,b,1.0,0.5579098489997705,,,,,,,,,,1.0,1.0,13.0,5.0,374.4590978799988,,,,,,,,,,,,,,,,,374.45263856400015,374.5503354679986,375.3431583789989,375.3346798599996,,,,,,,,,,,,,,,,,,,,,,,,,,,,,,,,,,,375.33718320799926,375.3431583789989,375.3431583789989,375.907194116,b,1.0,0.5579098489997705,,,,,,sub-134,1,stroop_test,,
,,,,14.0,2.0,1.0,,,,,,,,,,,,,rot,red,r,1.0,r,1.0,0.6518993489989953,,,,,,,,,,1.0,2.0,14.0,0.0,375.916876452,,,,,,,,,,,,,,,,,375.90751112999897,376.00579856999866,376.80041001799873,376.7896273419992,,,,,,,,,,,,,,,,,,,,,,,,,,,,,,,,,,,376.7920398689985,376.80041001799873,376.80041001799873,377.4570478019996,r,1.0,0.6518993489989953,,,,,,sub-134,1,stroop_test,,
,,,,15.0,3.0,1.0,,,,,,,,,,,,,blau,red,r,0.0,r,1.0,0.6379117630003748,,,,,,,,,,1.0,3.0,15.0,4.0,377.4668568809993,,,,,,,,,,,,,,,,,377.4573419019998,378.65551492899976,379.4504224399989,379.4399008149994,,,,,,,,,,,,,,,,,,,,,,,,,,,,,,,,,,,379.4425251239991,379.4504224399989,379.4504224399989,380.0906747129993,r,1.0,0.6379117630003748,,,,,,sub-134,1,stroop_test,,
,,,,16.0,4.0,1.0,,,,,,,,,,,,,gelb,blue,b,0.0,b,1.0,0.6203323600002477,,,,,,,,,,1.0,4.0,16.0,9.0,380.1003450219996,,,,,,,,,,,,,,,,,380.0909766009991,380.8889630759986,381.6836559399999,381.6731308879989,,,,,,,,,,,,,,,,,,,,,,,,,,,,,,,,,,,381.6756180859993,381.6836559399999,381.6836559399999,382.30804567799896,b,1.0,0.6203323600002477,,,,,,sub-134,1,stroop_test,,
,,,,17.0,5.0,1.0,,,,,,,,,,,,,rot,yellow,g,0.0,g,1.0,0.5916837170007057,,,,,,,,,,1.0,5.0,17.0,3.0,382.3170892929993,,,,,,,,,,,,,,,,,382.3083513129986,383.1055908159997,383.9004844629999,383.8898395369997,,,,,,,,,,,,,,,,,,,,,,,,,,,,,,,,,,,383.89245933799975,383.9004844629999,383.9004844629999,384.5024452419984,g,1.0,0.5916837170007057,,,,,,sub-134,1,stroop_test,,
,,,,18.0,6.0,1.0,,,,,,,,,,,,,blau,yellow,g,0.0,g,1.0,0.5731434379995335,,,,,,,,,,1.0,6.0,18.0,7.0,384.50929535499927,,,,,,,,,,,,,,,,,384.50281013199856,384.8504530399987,385.6436776749997,385.6345045049984,,,,,,,,,,,,,,,,,,,,,,,,,,,,,,,,,,,385.6375031719999,385.6436776749997,385.6436776749997,386.21846827699846,g,1.0,0.5731434379995335,,,,,,sub-134,1,stroop_test,,
,,,,19.0,7.0,1.0,,,,,,,,,,,,,blau,blue,b,1.0,b,1.0,0.5966289309999411,,,,,,,,,,1.0,7.0,19.0,6.0,386.2248888659997,,,,,,,,,,,,,,,,,386.2187679789986,386.5671371399985,387.3573955969987,387.3514355779989,,,,,,,,,,,,,,,,,,,,,,,,,,,,,,,,,,,387.3519087929999,387.3573955969987,387.3573955969987,387.9576431749993,b,1.0,0.5966289309999411,,,,,,sub-134,1,stroop_test,,
,,,,20.0,8.0,1.0,,,,,,,,,,,,,rot,blue,b,0.0,b,1.0,0.617429992000325,,,,,,,,,,1.0,8.0,20.0,2.0,387.9671474179995,,,,,,,,,,,,,,,,,387.957930908,388.0555357439989,388.8504062039992,388.8394697559997,,,,,,,,,,,,,,,,,,,,,,,,,,,,,,,,,,,388.8420268949994,388.8504062039992,388.8504062039992,389.4733156549992,b,1.0,0.617429992000325,,,,,,sub-134,1,stroop_test,,
,,,,21.0,9.0,1.0,,,,,,,,,,,,,gelb,yellow,g,1.0,g,1.0,0.4221068540009582,,,,,,,,,,1.0,9.0,21.0,10.0,389.4837164659984,,,,,,,,,,,,,,,,,389.4736189159994,390.27221454999926,391.0669502569999,391.0564762459999,,,,,,,,,,,,,,,,,,,,,,,,,,,,,,,,,,,391.0590496979985,391.0669502569999,391.0669502569999,391.4907602509993,g,1.0,0.4221068540009582,,,,,,sub-134,1,stroop_test,,
,,,,22.0,10.0,1.0,,,,,,,,,,,,,rot,red,r,1.0,r,1.0,0.3999384049984655,,,,,,,,,,1.0,10.0,22.0,1.0,391.500342243,,,,,,,,,,,,,,,,,391.4910489519989,392.68904363599904,393.4837833139991,393.4730445649984,,,,,,,,,,,,,,,,,,,,,,,,,,,,,,,,,,,393.47561625399976,393.4837833139991,393.4837833139991,393.8857188559996,r,1.0,0.3999384049984655,,,,,,sub-134,1,stroop_test,,
,,,,23.0,11.0,1.0,,,,,,,,,,,,,gelb,red,r,0.0,r,1.0,0.5514917399996193,,,,,,,,,,1.0,11.0,23.0,8.0,393.892385915,,,,,,,,,,,,,,,,,393.8860184009991,395.0837942539984,395.876454833,395.86797202399976,,,,,,,,,,,,,,,,,,,,,,,,,,,,,,,,,,,395.8705566669996,395.876454833,395.876454833,396.43558947400015,r,1.0,0.5514917399996193,,,,,,sub-134,1,stroop_test,,
,,,,24.0,0.0,2.0,,,,,,,,,,,,,gelb,blue,b,0.0,b,1.0,0.5976752280002984,,,,,,,,,,2.0,0.0,24.0,9.0,396.4424932829989,,,,,,,,,,,,,,,,,396.4358962389997,397.2338082769984,398.02447687699896,398.0179533149985,,,,,,,,,,,,,,,,,,,,,,,,,,,,,,,,,,,398.0184294639985,398.02447687699896,398.02447687699896,398.6241589019992,b,1.0,0.5976752280002984,,,,,,sub-134,1,stroop_test,,
,,,,25.0,1.0,2.0,,,,,,,,,,,,,blau,yellow,g,0.0,g,1.0,0.5837651019992336,,,,,,,,,,2.0,1.0,25.0,7.0,398.63382341399847,,,,,,,,,,,,,,,,,398.62447462899945,398.72348684200006,399.5170757460001,399.50676283699977,,,,,,,,,,,,,,,,,,,,,,,,,,,,,,,,,,,399.50960563899935,399.5170757460001,399.5170757460001,400.1089413259997,g,1.0,0.5837651019992336,,,,,,sub-134,1,stroop_test,,
,,,,26.0,2.0,2.0,,,,,,,,,,,,,rot,red,r,1.0,b,0.0,0.6914989550004975,,,,,,,,,,2.0,2.0,26.0,0.0,400.11707188699984,,,,,,,,,,,,,,,,,400.109197455,400.9058001049998,401.700395726999,401.6898008849985,,,,,,,,,,,,,,,,,,,,,,,,,,,,,,,,,,,401.69226902899936,401.700395726999,401.700395726999,402.40247056599947,b,0.0,0.6914989550004975,,,,,,sub-134,1,stroop_test,,
,,,,27.0,3.0,2.0,,,,,,,,,,,,,blau,red,r,0.0,r,1.0,0.5104324389994872,,,,,,,,,,2.0,3.0,27.0,4.0,402.4093448509993,,,,,,,,,,,,,,,,,402.4028414069999,402.7507212370001,403.5435142259994,403.534424337,,,,,,,,,,,,,,,,,,,,,,,,,,,,,,,,,,,403.5373905939996,403.5435142259994,403.5435142259994,404.0580342959984,r,1.0,0.5104324389994872,,,,,,sub-134,1,stroop_test,,
,,,,28.0,4.0,2.0,,,,,,,,,,,,,gelb,yellow,g,1.0,g,1.0,0.548756443999082,,,,,,,,,,2.0,4.0,28.0,11.0,404.0670491519995,,,,,,,,,,,,,,,,,404.0583377929997,404.405961339,405.2004974729989,405.1899124129996,,,,,,,,,,,,,,,,,,,,,,,,,,,,,,,,,,,405.19248583899935,405.2004974729989,405.2004974729989,405.75198256600015,g,1.0,0.548756443999082,,,,,,sub-134,1,stroop_test,,
,,,,29.0,5.0,2.0,,,,,,,,,,,,,rot,blue,b,0.0,b,1.0,1.145051636000062,,,,,,,,,,2.0,5.0,29.0,2.0,405.7586413149984,,,,,,,,,,,,,,,,,405.7522885899998,406.9503508279995,407.7434339359989,407.7345026809999,,,,,,,,,,,,,,,,,,,,,,,,,,,,,,,,,,,407.7371791309997,407.7434339359989,407.7434339359989,408.8908861439995,b,1.0,1.145051636000062,,,,,,sub-134,1,stroop_test,,
,,,,30.0,6.0,2.0,,,,,,,,,,,,,gelb,red,r,0.0,r,1.0,0.4418349110001145,,,,,,,,,,2.0,6.0,30.0,8.0,408.9002610139996,,,,,,,,,,,,,,,,,408.8911542959995,410.08849726399967,410.88390071399954,410.872899553,,,,,,,,,,,,,,,,,,,,,,,,,,,,,,,,,,,410.8755067109996,410.88390071399954,410.88390071399954,411.3356385389998,r,1.0,0.4418349110001145,,,,,,sub-134,1,stroop_test,,
,,,,31.0,7.0,2.0,,,,,,,,,,,,,rot,yellow,g,0.0,g,1.0,0.4332447300002968,,,,,,,,,,2.0,7.0,31.0,3.0,411.3422379249987,,,,,,,,,,,,,,,,,411.3360234889988,411.6839199850001,412.4767416959985,412.4682288619988,,,,,,,,,,,,,,,,,,,,,,,,,,,,,,,,,,,412.4707802019984,412.4767416959985,412.4767416959985,412.9190052419999,g,1.0,0.4332447300002968,,,,,,sub-134,1,stroop_test,,
,,,,32.0,8.0,2.0,,,,,,,,,,,,,blau,blue,b,1.0,b,1.0,0.4791335869995237,,,,,,,,,,2.0,8.0,32.0,5.0,412.9258861039998,,,,,,,,,,,,,,,,,412.91931024899895,413.2672751049995,414.05997521099926,414.0515520099998,,,,,,,,,,,,,,,,,,,,,,,,,,,,,,,,,,,414.053994758,414.05997521099926,414.05997521099926,414.54112328799965,b,1.0,0.4791335869995237,,,,,,sub-134,1,stroop_test,,
,,,,33.0,9.0,2.0,,,,,,,,,,,,,gelb,yellow,g,1.0,g,1.0,0.5248955789993488,,,,,,,,,,2.0,9.0,33.0,10.0,414.5504797869999,,,,,,,,,,,,,,,,,414.5414262670001,415.3389301439984,416.1339666049989,416.1232239769997,,,,,,,,,,,,,,,,,,,,,,,,,,,,,,,,,,,416.12568072700014,416.1339666049989,416.1339666049989,416.6689937329993,g,1.0,0.5248955789993488,,,,,,sub-134,1,stroop_test,,
,,,,34.0,10.0,2.0,,,,,,,,,,,,,blau,blue,b,1.0,b,1.0,0.5147069850008847,,,,,,,,,,2.0,10.0,34.0,6.0,416.6758598789984,,,,,,,,,,,,,,,,,416.6692952499998,417.8671268039998,418.6606907360001,418.65143184599947,,,,,,,,,,,,,,,,,,,,,,,,,,,,,,,,,,,418.6545385739992,418.6606907360001,418.6606907360001,419.1850602369996,b,1.0,0.5147069850008847,,,,,,sub-134,1,stroop_test,,
,,,,35.0,11.0,2.0,,,,,,,,,,,,,rot,red,r,1.0,r,1.0,0.412960956000461,,,,,,,,,,2.0,11.0,35.0,1.0,419.1914779109993,,,,,,,,,,,,,,,,,419.1853268239993,419.2726342299993,420.0672561439988,420.05702539899903,,,,,,,,,,,,,,,,,,,,,,,,,,,,,,,,,,,420.06003591699846,420.0672561439988,420.0672561439988,420.485468289,r,1.0,0.412960956000461,,,,,,sub-134,1,stroop_test,,
,,,,36.0,0.0,3.0,,,,,,,,,,,,,gelb,blue,b,0.0,b,1.0,0.5675731860010274,,,,,,,,,,3.0,0.0,36.0,9.0,420.49216904899913,,,,,,,,,,,,,,,,,420.4857722649994,421.6838453429991,422.4768376619995,422.4678436109989,,,,,,,,,,,,,,,,,,,,,,,,,,,,,,,,,,,422.47036347099856,422.4768376619995,422.4768376619995,423.0521985129999,b,1.0,0.5675731860010274,,,,,,sub-134,1,stroop_test,,
,,,,37.0,1.0,3.0,,,,,,,,,,,,,rot,yellow,g,0.0,g,1.0,0.5937363650009502,,,,,,,,,,3.0,1.0,37.0,3.0,423.0588850029999,,,,,,,,,,,,,,,,,423.0525011009995,423.15045612099857,423.9432004369992,423.934540278,,,,,,,,,,,,,,,,,,,,,,,,,,,,,,,,,,,423.9370484299998,423.9432004369992,423.9432004369992,424.5408080639991,g,1.0,0.5937363650009502,,,,,,sub-134,1,stroop_test,,
,,,,38.0,2.0,3.0,,,,,,,,,,,,,rot,blue,b,0.0,b,1.0,0.4660837030005496,,,,,,,,,,3.0,2.0,38.0,2.0,424.5504410029989,,,,,,,,,,,,,,,,,424.5410969679997,425.73915629899966,426.5338789149992,426.5231249969984,,,,,,,,,,,,,,,,,,,,,,,,,,,,,,,,,,,426.5236287479984,426.5338789149992,426.5338789149992,427.002302683999,b,1.0,0.4660837030005496,,,,,,sub-134,1,stroop_test,,
,,,,39.0,3.0,3.0,,,,,,,,,,,,,blau,blue,b,1.0,b,1.0,0.5772703809998347,,,,,,,,,,3.0,3.0,39.0,5.0,427.0089846309984,,,,,,,,,,,,,,,,,427.0026038899996,428.2003075789999,428.994080814,428.9847944919984,,,,,,,,,,,,,,,,,,,,,,,,,,,,,,,,,,,428.9875596879992,428.994080814,428.994080814,429.5735232139996,b,1.0,0.5772703809998347,,,,,,sub-134,1,stroop_test,,
,,,,40.0,4.0,3.0,,,,,,,,,,,,,blau,yellow,g,0.0,g,1.0,0.5843774339991796,,,,,,,,,,3.0,4.0,40.0,7.0,429.58372262099874,,,,,,,,,,,,,,,,,429.5737714779989,429.9225427099991,430.7173717659989,430.7063933639984,,,,,,,,,,,,,,,,,,,,,,,,,,,,,,,,,,,430.70690327099874,430.7173717659989,430.7173717659989,431.3070526629999,g,1.0,0.5843774339991796,,,,,,sub-134,1,stroop_test,,
,,,,41.0,5.0,3.0,,,,,,,,,,,,,rot,red,r,1.0,r,1.0,0.4338221239995619,,,,,,,,,,3.0,5.0,41.0,0.0,431.3169727589993,,,,,,,,,,,,,,,,,431.307337708,431.65568938199976,432.4505154219987,432.4397697099994,,,,,,,,,,,,,,,,,,,,,,,,,,,,,,,,,,,432.4423160729984,432.4505154219987,432.4505154219987,432.89286522899965,r,1.0,0.4338221239995619,,,,,,sub-134,1,stroop_test,,
,,,,42.0,6.0,3.0,,,,,,,,,,,,,rot,red,r,1.0,r,1.0,0.4010279839985742,,,,,,,,,,3.0,6.0,42.0,1.0,432.90063940899927,,,,,,,,,,,,,,,,,432.8931701779984,434.08920504399975,434.8839164099991,434.8729626889999,,,,,,,,,,,,,,,,,,,,,,,,,,,,,,,,,,,434.8734386349988,434.8839164099991,434.8839164099991,435.290582702999,r,1.0,0.4010279839985742,,,,,,sub-134,1,stroop_test,,
,,,,43.0,7.0,3.0,,,,,,,,,,,,,gelb,yellow,g,1.0,g,1.0,0.5081662180000421,,,,,,,,,,3.0,7.0,43.0,10.0,435.3005407639994,,,,,,,,,,,,,,,,,435.290936469999,436.0891369609999,436.883972009,436.8734647839992,,,,,,,,,,,,,,,,,,,,,,,,,,,,,,,,,,,436.8764341569986,436.883972009,436.883972009,437.4024721449987,g,1.0,0.5081662180000421,,,,,,sub-134,1,stroop_test,,
,,,,44.0,8.0,3.0,,,,,,,,,,,,,blau,red,r,0.0,r,1.0,0.4803553189995,,,,,,,,,,3.0,8.0,44.0,4.0,437.4093958509984,,,,,,,,,,,,,,,,,437.40284049799993,438.6006741369984,439.39304306399936,439.3847130670001,,,,,,,,,,,,,,,,,,,,,,,,,,,,,,,,,,,439.3871441880001,439.39304306399936,439.39304306399936,439.88488495899946,r,1.0,0.4803553189995,,,,,,sub-134,1,stroop_test,,
,,,,45.0,9.0,3.0,,,,,,,,,,,,,gelb,yellow,g,1.0,g,1.0,0.4597989100002451,,,,,,,,,,3.0,9.0,45.0,11.0,439.8900351109987,,,,,,,,,,,,,,,,,439.88519187899874,439.9724107639995,440.7672914899995,440.7567131420001,,,,,,,,,,,,,,,,,,,,,,,,,,,,,,,,,,,440.7593047889986,440.7672914899995,440.7672914899995,441.2356172989985,g,1.0,0.4597989100002451,,,,,,sub-134,1,stroop_test,,
,,,,46.0,10.0,3.0,,,,,,,,,,,,,blau,blue,b,1.0,b,1.0,0.4284655079991353,,,,,,,,,,3.0,10.0,46.0,6.0,441.2424024519987,,,,,,,,,,,,,,,,,441.2359648019992,441.3338041529987,442.1266541139994,442.1182018009986,,,,,,,,,,,,,,,,,,,,,,,,,,,,,,,,,,,442.12073009399865,442.1266541139994,442.1266541139994,442.5576778589984,b,1.0,0.4284655079991353,,,,,,sub-134,1,stroop_test,,
,,,,47.0,11.0,3.0,,,,,,,,,,,,,gelb,red,r,0.0,g,0.0,0.4040648320005857,,,,,,,,,,3.0,11.0,47.0,8.0,442.5672011279985,,,,,,,,,,,,,,,,,442.5579785889986,443.7556774969999,444.55041437899854,444.53979793599865,,,,,,,,,,,,,,,,,,,,,,,,,,,,,,,,,,,444.5424942689988,444.55041437899854,444.55041437899854,444.9578237469996,g,0.0,0.4040648320005857,,,,,,sub-134,1,stroop_test,,
,,,,48.0,0.0,4.0,,,,,,,,,,,,,blau,red,r,0.0,r,1.0,0.759162214000753,,,,,,,,,,4.0,0.0,48.0,4.0,444.9671601129994,,,,,,,,,,,,,,,,,444.958123806,445.30607147199953,446.100712812,446.0899618489984,,,,,,,,,,,,,,,,,,,,,,,,,,,,,,,,,,,446.0925888369984,446.100712812,446.100712812,446.8688864929991,r,1.0,0.759162214000753,,,,,,sub-134,1,stroop_test,,
,,,,49.0,1.0,4.0,,,,,,,,,,,,,gelb,red,r,0.0,r,1.0,0.5396020079988375,,,,,,,,,,4.0,1.0,49.0,8.0,446.8757056129998,,,,,,,,,,,,,,,,,446.86918605499886,448.067226653,448.86032291399897,448.85157691699897,,,,,,,,,,,,,,,,,,,,,,,,,,,,,,,,,,,448.8542699459995,448.86032291399897,448.86032291399897,449.4020562829992,r,1.0,0.5396020079988375,,,,,,sub-134,1,stroop_test,,
,,,,50.0,2.0,4.0,,,,,,,,,,,,,gelb,blue,b,0.0,b,1.0,0.6640434929995536,,,,,,,,,,4.0,2.0,50.0,9.0,449.4086558109993,,,,,,,,,,,,,,,,,449.4023544399988,450.6006570999998,451.39092881599936,451.38455140899896,,,,,,,,,,,,,,,,,,,,,,,,,,,,,,,,,,,451.385031546999,451.39092881599936,451.39092881599936,452.0574041169984,b,1.0,0.6640434929995536,,,,,,sub-134,1,stroop_test,,
,,,,51.0,3.0,4.0,,,,,,,,,,,,,gelb,yellow,g,1.0,g,1.0,0.4429378000004362,,,,,,,,,,4.0,3.0,51.0,11.0,452.0670430350001,,,,,,,,,,,,,,,,,452.057695251,452.1507855619984,452.94096323099984,452.9346245059987,,,,,,,,,,,,,,,,,,,,,,,,,,,,,,,,,,,452.9351274719993,452.94096323099984,452.94096323099984,453.3858690950001,g,1.0,0.4429378000004362,,,,,,sub-134,1,stroop_test,,
,,,,52.0,4.0,4.0,,,,,,,,,,,,,rot,red,r,1.0,r,1.0,0.4819761770013429,,,,,,,,,,4.0,4.0,52.0,1.0,453.3925515259998,,,,,,,,,,,,,,,,,453.38617401400006,454.5840574119993,455.3779043269988,455.3681523589985,,,,,,,,,,,,,,,,,,,,,,,,,,,,,,,,,,,455.3714336119992,455.3779043269988,455.3779043269988,455.8687157089989,r,1.0,0.4819761770013429,,,,,,sub-134,1,stroop_test,,
,,,,53.0,5.0,4.0,,,,,,,,,,,,,rot,blue,b,0.0,b,1.0,0.7107276040005672,,,,,,,,,,4.0,5.0,53.0,2.0,455.8755440469995,,,,,,,,,,,,,,,,,455.869019963,456.2172650069988,457.0079376459999,457.001454108,,,,,,,,,,,,,,,,,,,,,,,,,,,,,,,,,,,457.0019365379994,457.0079376459999,457.0079376459999,457.7242025029991,b,1.0,0.7107276040005672,,,,,,sub-134,1,stroop_test,,
,,,,54.0,6.0,4.0,,,,,,,,,,,,,blau,blue,b,1.0,b,1.0,0.5482828359999985,,,,,,,,,,4.0,6.0,54.0,5.0,457.733823266999,,,,,,,,,,,,,,,,,457.7245023249998,458.072517351,458.8673332409999,458.85676900499857,,,,,,,,,,,,,,,,,,,,,,,,,,,,,,,,,,,458.8593820499991,458.8673332409999,458.8673332409999,459.4185896649997,b,1.0,0.5482828359999985,,,,,,sub-134,1,stroop_test,,
,,,,55.0,7.0,4.0,,,,,,,,,,,,,rot,red,r,1.0,r,1.0,0.524767641998551,,,,,,,,,,4.0,7.0,55.0,0.0,459.4251189549996,,,,,,,,,,,,,,,,,459.41888900899903,460.61728260699965,461.40988676399866,461.40156306599965,,,,,,,,,,,,,,,,,,,,,,,,,,,,,,,,,,,461.4040651019986,461.40988676399866,461.40988676399866,461.9421834789992,r,1.0,0.524767641998551,,,,,,sub-134,1,stroop_test,,
,,,,56.0,8.0,4.0,,,,,,,,,,,,,gelb,yellow,g,1.0,g,1.0,0.4829776500009757,,,,,,,,,,4.0,8.0,56.0,10.0,461.95052664299874,,,,,,,,,,,,,,,,,461.9424288959999,462.73930001499866,463.53401274299904,463.523596265999,,,,,,,,,,,,,,,,,,,,,,,,,,,,,,,,,,,463.5262419289993,463.53401274299904,463.53401274299904,464.0189815469985,g,1.0,0.4829776500009757,,,,,,sub-134,1,stroop_test,,
,,,,57.0,9.0,4.0,,,,,,,,,,,,,blau,yellow,g,0.0,g,1.0,0.6612633050008299,,,,,,,,,,4.0,9.0,57.0,7.0,464.02577600399854,,,,,,,,,,,,,,,,,464.01935020199926,464.3674030109996,465.1597551359992,465.1512434389988,,,,,,,,,,,,,,,,,,,,,,,,,,,,,,,,,,,465.1536944829986,465.1597551359992,465.1597551359992,465.8247901809991,g,1.0,0.6612633050008299,,,,,,sub-134,1,stroop_test,,
,,,,58.0,10.0,4.0,,,,,,,,,,,,,rot,yellow,g,0.0,g,1.0,0.5211897149983997,,,,,,,,,,4.0,10.0,58.0,3.0,465.83394022099856,,,,,,,,,,,,,,,,,465.82507772200006,466.1726426320001,466.9671795659997,466.95651895399897,,,,,,,,,,,,,,,,,,,,,,,,,,,,,,,,,,,466.9589564609996,466.9671795659997,466.9671795659997,467.4909871659984,g,1.0,0.5211897149983997,,,,,,sub-134,1,stroop_test,,
,,,,59.0,11.0,4.0,,,,,,,,,,,,,blau,blue,b,1.0,b,1.0,0.5899881690002076,,,,,,,,,,4.0,11.0,59.0,6.0,467.5004971929993,,,,,,,,,,,,,,,,,467.491299932999,467.5904736659995,468.3936243699991,468.38468855799874,,,,,,,,,,,,,,,,,,,,,,,,,,,,,,,,,,,468.387417512,468.3936243699991,468.3936243699991,468.9852333949984,b,1.0,0.5899881690002076,,,,,,sub-134,1,stroop_test,,
,,,,60.0,0.0,5.0,,,,,,,,,,,,,rot,yellow,g,0.0,g,1.0,0.5904320080007892,,,,,,,,,,5.0,0.0,60.0,3.0,468.9919219889998,,,,,,,,,,,,,,,,,468.9855321849991,469.3339188409991,470.1272039309988,470.1180777789996,,,,,,,,,,,,,,,,,,,,,,,,,,,,,,,,,,,470.1211162109994,470.1272039309988,470.1272039309988,470.7260604769999,g,1.0,0.5904320080007892,,,,,,sub-134,1,stroop_test,,
,,,,61.0,1.0,5.0,,,,,,,,,,,,,gelb,yellow,g,1.0,g,1.0,0.5953746370014414,,,,,,,,,,5.0,1.0,61.0,11.0,470.7341329189985,,,,,,,,,,,,,,,,,470.7263338899993,470.8226652489993,471.61726929199904,471.6057828789999,,,,,,,,,,,,,,,,,,,,,,,,,,,,,,,,,,,471.6081417939986,471.61726929199904,471.61726929199904,472.2188010159989,g,1.0,0.5953746370014414,,,,,,sub-134,1,stroop_test,,
,,,,62.0,2.0,5.0,,,,,,,,,,,,,blau,blue,b,1.0,b,1.0,0.5015316440003517,,,,,,,,,,5.0,2.0,62.0,5.0,472.22550635100015,,,,,,,,,,,,,,,,,472.21911286999966,473.01742562899926,473.8099495480001,473.801317386,,,,,,,,,,,,,,,,,,,,,,,,,,,,,,,,,,,473.8038344329998,473.8099495480001,473.8099495480001,474.3193696919989,b,1.0,0.5015316440003517,,,,,,sub-134,1,stroop_test,,
,,,,63.0,3.0,5.0,,,,,,,,,,,,,rot,red,r,1.0,r,1.0,0.6572383809998428,,,,,,,,,,5.0,3.0,63.0,0.0,474.3261056769989,,,,,,,,,,,,,,,,,474.3196859629989,474.6673173449999,475.4601652659985,475.4512672569999,,,,,,,,,,,,,,,,,,,,,,,,,,,,,,,,,,,475.4535854599999,475.4601652659985,475.4601652659985,476.1192691589986,r,1.0,0.6572383809998428,,,,,,sub-134,1,stroop_test,,
,,,,64.0,4.0,5.0,,,,,,,,,,,,,rot,red,r,1.0,r,1.0,0.6001238520002516,,,,,,,,,,5.0,4.0,64.0,1.0,476.1257254039992,,,,,,,,,,,,,,,,,476.11957342299866,476.21720591099984,477.0080350979988,477.0015375639996,,,,,,,,,,,,,,,,,,,,,,,,,,,,,,,,,,,477.0020222809999,477.0080350979988,477.0080350979988,477.6189418279992,r,1.0,0.6001238520002516,,,,,,sub-134,1,stroop_test,,
,,,,65.0,5.0,5.0,,,,,,,,,,,,,gelb,red,r,0.0,r,1.0,0.543984220999846,,,,,,,,,,5.0,5.0,65.0,8.0,477.6254954489996,,,,,,,,,,,,,,,,,477.6192864699988,477.7172861509989,478.5099729429985,478.5014132749984,,,,,,,,,,,,,,,,,,,,,,,,,,,,,,,,,,,478.50394332199903,478.5099729429985,478.5099729429985,479.0577607779997,r,1.0,0.543984220999846,,,,,,sub-134,1,stroop_test,,
,,,,66.0,6.0,5.0,,,,,,,,,,,,,blau,red,r,0.0,r,1.0,0.4140495520005061,,,,,,,,,,5.0,6.0,66.0,4.0,479.0670775999988,,,,,,,,,,,,,,,,,479.05805564299953,479.40593361599895,480.20067229599954,480.19003569399865,,,,,,,,,,,,,,,,,,,,,,,,,,,,,,,,,,,480.19268721799926,480.20067229599954,480.20067229599954,480.61855583599936,r,1.0,0.4140495520005061,,,,,,sub-134,1,stroop_test,,
,,,,67.0,7.0,5.0,,,,,,,,,,,,,blau,yellow,g,0.0,g,1.0,0.6501800090009056,,,,,,,,,,5.0,7.0,67.0,7.0,480.6251125549989,,,,,,,,,,,,,,,,,480.6188530979998,481.4173383599991,482.2074566489992,482.2012839700001,,,,,,,,,,,,,,,,,,,,,,,,,,,,,,,,,,,482.201786914,482.2074566489992,482.2074566489992,482.86944348199904,g,1.0,0.6501800090009056,,,,,,sub-134,1,stroop_test,,
,,,,68.0,8.0,5.0,,,,,,,,,,,,,gelb,yellow,g,1.0,g,1.0,0.5666788660000748,,,,,,,,,,5.0,8.0,68.0,10.0,482.8762003359989,,,,,,,,,,,,,,,,,482.86974151399954,482.9674337239994,483.7600762080001,483.7512940509987,,,,,,,,,,,,,,,,,,,,,,,,,,,,,,,,,,,483.75390603599953,483.7600762080001,483.7600762080001,484.33593451699926,g,1.0,0.5666788660000748,,,,,,sub-134,1,stroop_test,,
,,,,69.0,9.0,5.0,,,,,,,,,,,,,blau,blue,b,1.0,b,1.0,0.4673846480000065,,,,,,,,,,5.0,9.0,69.0,6.0,484.34287748299903,,,,,,,,,,,,,,,,,484.3363055259997,485.53397675499946,486.3273099909984,486.3181169169984,,,,,,,,,,,,,,,,,,,,,,,,,,,,,,,,,,,486.3209966659997,486.3273099909984,486.3273099909984,486.8025479589997,b,1.0,0.4673846480000065,,,,,,sub-134,1,stroop_test,,
,,,,70.0,10.0,5.0,,,,,,,,,,,,,rot,blue,b,0.0,r,0.0,0.8799959990010393,,,,,,,,,,5.0,10.0,70.0,2.0,486.8096680009985,,,,,,,,,,,,,,,,,486.80289974100015,487.6007090889998,488.3929997129999,488.3846413109986,,,,,,,,,,,,,,,,,,,,,,,,,,,,,,,,,,,488.3870370299992,488.3929997129999,488.3929997129999,489.2747307169993,r,0.0,0.8799959990010393,,,,,,sub-134,1,stroop_test,,
,,,,71.0,11.0,5.0,,,,,,,,,,,,,gelb,blue,b,0.0,r,0.0,0.6122323560011864,,,,,,,,,,5.0,11.0,71.0,9.0,489.28392213199913,,,,,,,,,,,,,,,,,489.27502250999896,490.0725665639984,490.8673410729989,490.8565075639999,,,,,,,,,,,,,,,,,,,,,,,,,,,,,,,,,,,490.8592139529992,490.8673410729989,490.8673410729989,491.4855544530001,r,0.0,0.6122323560011864,,,,,,sub-134,1,stroop_test,,
,,,,72.0,0.0,6.0,,,,,,,,,,,,,gelb,blue,b,0.0,r,0.0,0.5409430250001606,,,,,,,,,,6.0,0.0,72.0,9.0,491.4918691139992,,,,,,,,,,,,,,,,,491.485823994999,492.2840448259994,493.07416625899896,493.0680052059997,,,,,,,,,,,,,,,,,,,,,,,,,,,,,,,,,,,493.0684891499986,493.07416625899896,493.07416625899896,493.61849067899857,r,0.0,0.5409430250001606,,,,,,sub-134,1,stroop_test,,
,,,,73.0,1.0,6.0,,,,,,,,,,,,,blau,blue,b,1.0,r,0.0,0.5489106710010674,,,,,,,,,,6.0,1.0,73.0,5.0,493.62461837999945,,,,,,,,,,,,,,,,,493.6187509689989,493.717520107999,494.5103729399998,494.5016283619989,,,,,,,,,,,,,,,,,,,,,,,,,,,,,,,,,,,494.5042569739999,494.5103729399998,494.5103729399998,495.069285055999,r,0.0,0.5489106710010674,,,,,,sub-134,1,stroop_test,,
,,,,74.0,2.0,6.0,,,,,,,,,,,,,rot,yellow,g,0.0,g,1.0,0.5359950129986828,,,,,,,,,,6.0,2.0,74.0,3.0,495.0761927569984,,,,,,,,,,,,,,,,,495.06965855699855,495.41760998300015,496.2100549359984,496.2013312919989,,,,,,,,,,,,,,,,,,,,,,,,,,,,,,,,,,,496.20392259399887,496.2100549359984,496.2100549359984,496.7524763199999,g,1.0,0.5359950129986828,,,,,,sub-134,1,stroop_test,,
,,,,75.0,3.0,6.0,,,,,,,,,,,,,blau,blue,b,1.0,r,0.0,0.5919881840000016,,,,,,,,,,6.0,3.0,75.0,6.0,496.7593596819988,,,,,,,,,,,,,,,,,496.75284162299977,497.1007260979986,497.8935965949986,497.8848245249992,,,,,,,,,,,,,,,,,,,,,,,,,,,,,,,,,,,497.88749827599895,497.8935965949986,497.8935965949986,498.49092534400006,r,0.0,0.5919881840000016,,,,,,sub-134,1,stroop_test,,
,,,,76.0,4.0,6.0,,,,,,,,,,,,,rot,blue,b,0.0,r,0.0,0.4880874120008229,,,,,,,,,,6.0,4.0,76.0,2.0,498.5006650849991,,,,,,,,,,,,,,,,,498.491214108999,499.28925559399977,500.0840650139999,500.0732160439984,,,,,,,,,,,,,,,,,,,,,,,,,,,,,,,,,,,500.075998417,500.0840650139999,500.0840650139999,500.5743858629994,r,0.0,0.4880874120008229,,,,,,sub-134,1,stroop_test,,
,,,,77.0,5.0,6.0,,,,,,,,,,,,,rot,red,r,1.0,b,0.0,0.6510486520000995,,,,,,,,,,6.0,5.0,77.0,1.0,500.5837841289994,,,,,,,,,,,,,,,,,500.5746912229988,500.92277075899983,501.7173559419989,501.70650253799977,,,,,,,,,,,,,,,,,,,,,,,,,,,,,,,,,,,501.7070000999993,501.7173559419989,501.7173559419989,502.3737954099997,b,0.0,0.6510486520000995,,,,,,sub-134,1,stroop_test,,
,,,,78.0,6.0,6.0,,,,,,,,,,,,,blau,yellow,g,0.0,g,1.0,0.3973414320007578,,,,,,,,,,6.0,6.0,78.0,7.0,502.38394692600014,,,,,,,,,,,,,,,,,502.3740956269994,503.57269327,504.3672897469987,504.3568581089985,,,,,,,,,,,,,,,,,,,,,,,,,,,,,,,,,,,504.3599747869994,504.3672897469987,504.3672897469987,504.76874784499887,g,1.0,0.3973414320007578,,,,,,sub-134,1,stroop_test,,
,,,,79.0,7.0,6.0,,,,,,,,,,,,,gelb,yellow,g,1.0,g,1.0,0.5036728279992531,,,,,,,,,,6.0,7.0,79.0,11.0,504.7755215109992,,,,,,,,,,,,,,,,,504.7690509389995,504.86738828599846,505.66021001599984,505.6515294359997,,,,,,,,,,,,,,,,,,,,,,,,,,,,,,,,,,,505.65409964799983,505.66021001599984,505.66021001599984,506.16894182899887,g,1.0,0.5036728279992531,,,,,,sub-134,1,stroop_test,,
,,,,80.0,8.0,6.0,,,,,,,,,,,,,blau,red,r,0.0,r,1.0,0.7154806229991664,,,,,,,,,,6.0,8.0,80.0,4.0,506.1756566529984,,,,,,,,,,,,,,,,,506.1692313299991,506.2674309300001,507.0599220979984,507.0515413909998,,,,,,,,,,,,,,,,,,,,,,,,,,,,,,,,,,,507.054030461999,507.0599220979984,507.0599220979984,507.7857998159998,r,1.0,0.7154806229991664,,,,,,sub-134,1,stroop_test,,
,,,,81.0,9.0,6.0,,,,,,,,,,,,,gelb,yellow,g,1.0,r,0.0,0.5715289629988547,,,,,,,,,,6.0,9.0,81.0,10.0,507.7925350049991,,,,,,,,,,,,,,,,,507.7861575749994,507.88391670799865,508.6767609660001,508.6680514319996,,,,,,,,,,,,,,,,,,,,,,,,,,,,,,,,,,,508.6705482239995,508.6767609660001,508.6767609660001,509.25225202599904,r,0.0,0.5715289629988547,,,,,,sub-134,1,stroop_test,,
,,,,82.0,10.0,6.0,,,,,,,,,,,,,gelb,red,r,0.0,r,1.0,1.2132542700001068,,,,,,,,,,6.0,10.0,82.0,8.0,509.2589552419995,,,,,,,,,,,,,,,,,509.2525595429997,509.3509224749996,510.1413989979992,510.13508637799896,,,,,,,,,,,,,,,,,,,,,,,,,,,,,,,,,,,510.13557545,510.1413989979992,510.1413989979992,511.35802251399946,r,1.0,1.2132542700001068,,,,,,sub-134,1,stroop_test,,
,,,,83.0,11.0,6.0,,,,,,,,,,,,,rot,red,r,1.0,r,1.0,0.6403152349994343,,,,,,,,,,6.0,11.0,83.0,0.0,511.3672320629994,,,,,,,,,,,,,,,,,511.35832168699926,511.7062247189988,512.5008639659991,512.4901345279995,,,,,,,,,,,,,,,,,,,,,,,,,,,,,,,,,,,512.4925957299984,512.5008639659991,512.5008639659991,513.1526275239994,r,1.0,0.6403152349994343,,,,,,sub-134,1,stroop_test,,
,,,,84.0,0.0,7.0,,,,,,,,,,,,,blau,blue,b,1.0,b,1.0,0.8001936599994224,,,,,,,,,,7.0,0.0,84.0,6.0,513.1593263309987,,,,,,,,,,,,,,,,,513.1529370609987,513.9508098890001,514.7434075779984,514.7348303059989,,,,,,,,,,,,,,,,,,,,,,,,,,,,,,,,,,,514.7374054969987,514.7434075779984,514.7434075779984,515.5527940759985,b,1.0,0.8001936599994224,,,,,,sub-134,1,stroop_test,,
,,,,85.0,1.0,7.0,,,,,,,,,,,,,gelb,yellow,g,1.0,g,1.0,0.4513018590005231,,,,,,,,,,7.0,1.0,85.0,11.0,515.5597128739992,,,,,,,,,,,,,,,,,515.5531621239988,516.7507722619994,517.5432295819992,517.5348185659986,,,,,,,,,,,,,,,,,,,,,,,,,,,,,,,,,,,517.5373015119985,517.5432295819992,517.5432295819992,518.0023325109996,g,1.0,0.4513018590005231,,,,,,sub-134,1,stroop_test,,
,,,,86.0,2.0,7.0,,,,,,,,,,,,,gelb,yellow,g,1.0,g,1.0,0.7092930689996138,,,,,,,,,,7.0,2.0,86.0,10.0,518.0090638549991,,,,,,,,,,,,,,,,,518.002631714,518.8007967209996,519.5919957569986,519.5849385189995,,,,,,,,,,,,,,,,,,,,,,,,,,,,,,,,,,,519.5856572249995,519.5919957569986,519.5919957569986,520.3095081749998,g,1.0,0.7092930689996138,,,,,,sub-134,1,stroop_test,,
,,,,87.0,3.0,7.0,,,,,,,,,,,,,gelb,blue,b,0.0,b,1.0,0.6368483489986829,,,,,,,,,,7.0,3.0,87.0,9.0,520.3173372539986,,,,,,,,,,,,,,,,,520.3098092119999,520.4060769359985,521.2008419479989,521.1899967919999,,,,,,,,,,,,,,,,,,,,,,,,,,,,,,,,,,,521.1904766399985,521.2008419479989,521.2008419479989,521.841565318,b,1.0,0.6368483489986829,,,,,,sub-134,1,stroop_test,,
,,,,88.0,4.0,7.0,,,,,,,,,,,,,blau,blue,b,1.0,b,1.0,0.5345836190008413,,,,,,,,,,7.0,4.0,88.0,5.0,521.8507499139996,,,,,,,,,,,,,,,,,521.8418647569997,521.940449067999,522.7341541769983,522.7235635359993,,,,,,,,,,,,,,,,,,,,,,,,,,,,,,,,,,,522.72623948,522.7341541769983,522.7341541769983,523.2748763399995,b,1.0,0.5345836190008413,,,,,,sub-134,1,stroop_test,,
,,,,89.0,5.0,7.0,,,,,,,,,,,,,rot,yellow,g,0.0,g,1.0,0.5562786219998088,,,,,,,,,,7.0,5.0,89.0,3.0,523.2839923319989,,,,,,,,,,,,,,,,,523.2752482809992,524.4725380889995,525.267587241,525.2568924719999,,,,,,,,,,,,,,,,,,,,,,,,,,,,,,,,,,,525.2594309109991,525.267587241,525.267587241,525.8359021799988,g,1.0,0.5562786219998088,,,,,,sub-134,1,stroop_test,,
,,,,90.0,6.0,7.0,,,,,,,,,,,,,rot,red,r,1.0,r,1.0,0.646028891998867,,,,,,,,,,7.0,6.0,90.0,1.0,525.8411884589987,,,,,,,,,,,,,,,,,525.8362716129996,525.9341425819985,526.7249308840001,526.7181024909987,,,,,,,,,,,,,,,,,,,,,,,,,,,,,,,,,,,526.7187929479987,526.7249308840001,526.7249308840001,527.3748587889986,r,1.0,0.646028891998867,,,,,,sub-134,1,stroop_test,,
,,,,91.0,7.0,7.0,,,,,,,,,,,,,blau,red,r,0.0,r,1.0,0.6785742820011365,,,,,,,,,,7.0,7.0,91.0,4.0,527.3842144739992,,,,,,,,,,,,,,,,,527.3751593359993,527.4728390109995,528.2674651130001,528.2566840459986,,,,,,,,,,,,,,,,,,,,,,,,,,,,,,,,,,,528.2589714400001,528.2674651130001,528.2674651130001,528.9525324289989,r,1.0,0.6785742820011365,,,,,,sub-134,1,stroop_test,,
,,,,92.0,8.0,7.0,,,,,,,,,,,,,rot,red,r,1.0,r,1.0,0.5766577659996983,,,,,,,,,,7.0,8.0,92.0,0.0,528.9593350759988,,,,,,,,,,,,,,,,,528.9528344339997,529.0508286639997,529.8442337279994,529.8350810119991,,,,,,,,,,,,,,,,,,,,,,,,,,,,,,,,,,,529.8376586359991,529.8442337279994,529.8442337279994,530.4249205179985,r,1.0,0.5766577659996983,,,,,,sub-134,1,stroop_test,,
,,,,93.0,9.0,7.0,,,,,,,,,,,,,gelb,red,r,0.0,r,1.0,0.4878074030002608,,,,,,,,,,7.0,9.0,93.0,8.0,530.4341702779984,,,,,,,,,,,,,,,,,530.4252271289988,530.7726226569994,531.5672374589994,531.5559320379998,,,,,,,,,,,,,,,,,,,,,,,,,,,,,,,,,,,531.5584635439991,531.5672374589994,531.5672374589994,532.0580240959989,r,1.0,0.4878074030002608,,,,,,sub-134,1,stroop_test,,
,,,,94.0,10.0,7.0,,,,,,,,,,,,,blau,yellow,g,0.0,g,1.0,0.6508555760010495,,,,,,,,,,7.0,10.0,94.0,7.0,532.0673371299999,,,,,,,,,,,,,,,,,532.0583118569994,532.1569690349988,532.9506973669995,532.9402745560001,,,,,,,,,,,,,,,,,,,,,,,,,,,,,,,,,,,532.9430878079984,532.9506973669995,532.9506973669995,533.6076849239998,g,1.0,0.6508555760010495,,,,,,sub-134,1,stroop_test,,
,,,,95.0,11.0,7.0,,,,,,,,,,,,,rot,blue,b,0.0,b,1.0,0.4474705480006378,,,,,,,,,,7.0,11.0,95.0,2.0,533.617511045999,,,,,,,,,,,,,,,,,533.6080624749993,534.8059537159988,535.6007266899996,535.5902096089994,,,,,,,,,,,,,,,,,,,,,,,,,,,,,,,,,,,535.5931913619988,535.6007266899996,535.6007266899996,536.0522015649985,b,1.0,0.4474705480006378,,,,,,sub-134,1,stroop_test,,
,,,,96.0,0.0,8.0,,,,,,,,,,,,,gelb,blue,b,0.0,b,1.0,0.5614571000005526,,,,,,,,,,8.0,0.0,96.0,9.0,536.0590134319991,,,,,,,,,,,,,,,,,536.0525011319987,536.150793236,536.9437224099984,536.9351029379995,,,,,,,,,,,,,,,,,,,,,,,,,,,,,,,,,,,536.9377265549992,536.9437224099984,536.9437224099984,537.507840237,b,1.0,0.5614571000005526,,,,,,sub-134,1,stroop_test,,
,,,,97.0,1.0,8.0,,,,,,,,,,,,,rot,yellow,g,0.0,g,1.0,0.6892218419998244,,,,,,,,,,8.0,1.0,97.0,3.0,537.5175174749984,,,,,,,,,,,,,,,,,537.5081272169991,538.3062045779989,539.1009093550001,539.0903678699997,,,,,,,,,,,,,,,,,,,,,,,,,,,,,,,,,,,539.0927918699999,539.1009093550001,539.1009093550001,539.8016172970001,g,1.0,0.6892218419998244,,,,,,sub-134,1,stroop_test,,
,,,,98.0,2.0,8.0,,,,,,,,,,,,,blau,yellow,g,0.0,g,1.0,0.5251717829996778,,,,,,,,,,8.0,2.0,98.0,7.0,539.8067499469998,,,,,,,,,,,,,,,,,539.8019158729985,540.5897489109993,541.384272207999,541.3737024209986,,,,,,,,,,,,,,,,,,,,,,,,,,,,,,,,,,,541.3762299609989,541.384272207999,541.384272207999,541.9193426959991,g,1.0,0.5251717829996778,,,,,,sub-134,1,stroop_test,,
,,,,99.0,3.0,8.0,,,,,,,,,,,,,gelb,yellow,g,1.0,g,1.0,0.4689532379998127,,,,,,,,,,8.0,3.0,99.0,11.0,541.9265376160001,,,,,,,,,,,,,,,,,541.9197102589987,542.7175841489989,543.5103636629992,543.501909863,,,,,,,,,,,,,,,,,,,,,,,,,,,,,,,,,,,543.5045310649984,543.5103636629992,543.5103636629992,543.9859870769997,g,1.0,0.4689532379998127,,,,,,sub-134,1,stroop_test,,
,,,,100.0,4.0,8.0,,,,,,,,,,,,,gelb,red,r,0.0,r,1.0,0.597372299998824,,,,,,,,,,8.0,4.0,100.0,8.0,543.9927274209986,,,,,,,,,,,,,,,,,543.9862857159987,544.784194893,545.574511326,545.568452648,,,,,,,,,,,,,,,,,,,,,,,,,,,,,,,,,,,545.5689410059986,545.574511326,545.574511326,546.1751958299992,r,1.0,0.597372299998824,,,,,,sub-134,1,stroop_test,,
,,,,101.0,5.0,8.0,,,,,,,,,,,,,rot,red,r,1.0,r,1.0,0.4729962309993425,,,,,,,,,,8.0,5.0,101.0,0.0,546.1843022049998,,,,,,,,,,,,,,,,,546.175495256999,546.9727974919988,547.767558563999,547.7566929649984,,,,,,,,,,,,,,,,,,,,,,,,,,,,,,,,,,,547.7591922189986,547.767558563999,547.767558563999,548.252674723999,r,1.0,0.4729962309993425,,,,,,sub-134,1,stroop_test,,
,,,,102.0,6.0,8.0,,,,,,,,,,,,,blau,red,r,0.0,r,1.0,0.4433513620006124,,,,,,,,,,8.0,6.0,102.0,4.0,548.2594639069994,,,,,,,,,,,,,,,,,548.2530142189989,549.0510226699989,549.8435711209986,549.8351381109987,,,,,,,,,,,,,,,,,,,,,,,,,,,,,,,,,,,549.8376607269984,549.8435711209986,549.8435711209986,550.2909225059993,r,1.0,0.4433513620006124,,,,,,sub-134,1,stroop_test,,
,,,,103.0,7.0,8.0,,,,,,,,,,,,,gelb,yellow,g,1.0,g,1.0,0.553602686000886,,,,,,,,,,8.0,7.0,103.0,10.0,550.3006386079996,,,,,,,,,,,,,,,,,550.2912187109996,550.639362766,551.434070121999,551.4238413759995,,,,,,,,,,,,,,,,,,,,,,,,,,,,,,,,,,,551.4271017129995,551.434070121999,551.434070121999,551.9911851489996,g,1.0,0.553602686000886,,,,,,sub-134,1,stroop_test,,
,,,,104.0,8.0,8.0,,,,,,,,,,,,,rot,red,r,1.0,r,1.0,0.6829158930013364,,,,,,,,,,8.0,8.0,104.0,1.0,552.000791602999,,,,,,,,,,,,,,,,,551.9914776179994,552.0896433189992,552.8841759520001,552.8733376370001,,,,,,,,,,,,,,,,,,,,,,,,,,,,,,,,,,,552.8758974399989,552.8841759520001,552.8841759520001,553.5693778549994,r,1.0,0.6829158930013364,,,,,,sub-134,1,stroop_test,,
,,,,105.0,9.0,8.0,,,,,,,,,,,,,blau,blue,b,1.0,b,1.0,0.5781630389992642,,,,,,,,,,8.0,9.0,105.0,5.0,553.5762064629998,,,,,,,,,,,,,,,,,553.5696798969984,554.7678083069986,555.5599545739988,555.5516245620001,,,,,,,,,,,,,,,,,,,,,,,,,,,,,,,,,,,555.5540875030001,555.5599545739988,555.5599545739988,556.14208014,b,1.0,0.5781630389992642,,,,,,sub-134,1,stroop_test,,
,,,,106.0,10.0,8.0,,,,,,,,,,,,,rot,blue,b,0.0,b,1.0,0.6726034159983101,,,,,,,,,,8.0,10.0,106.0,2.0,556.1507541269984,,,,,,,,,,,,,,,,,556.1423685579994,556.9392660789999,557.7342159489999,557.7238850589983,,,,,,,,,,,,,,,,,,,,,,,,,,,,,,,,,,,557.7266919149988,557.7342159489999,557.7342159489999,558.4083506499992,b,1.0,0.6726034159983101,,,,,,sub-134,1,stroop_test,,
,,,,107.0,11.0,8.0,,,,,,,,,,,,,blau,blue,b,1.0,b,1.0,0.6223251389983488,,,,,,,,,,8.0,11.0,107.0,6.0,558.4174150759991,,,,,,,,,,,,,,,,,558.4086133089986,559.6053252539987,560.400854952999,560.3898970039991,,,,,,,,,,,,,,,,,,,,,,,,,,,,,,,,,,,560.3925675489991,560.400854952999,560.400854952999,561.0247185379994,b,1.0,0.6223251389983488,,,,,,sub-134,1,stroop_test,,
,,,,108.0,0.0,9.0,,,,,,,,,,,,,gelb,yellow,g,1.0,g,1.0,0.5696207109995157,,,,,,,,,,9.0,0.0,108.0,10.0,561.0342557269996,,,,,,,,,,,,,,,,,561.0250224319989,561.1228433489996,561.9176542749992,561.9070445899997,,,,,,,,,,,,,,,,,,,,,,,,,,,,,,,,,,,561.9095688199995,561.9176542749992,561.9176542749992,562.4913802739993,g,1.0,0.5696207109995157,,,,,,sub-134,1,stroop_test,,
,,,,109.0,1.0,9.0,,,,,,,,,,,,,rot,red,r,1.0,r,1.0,0.5129644040007406,,,,,,,,,,9.0,1.0,109.0,0.0,562.5007759979999,,,,,,,,,,,,,,,,,562.4916671189985,562.5893543409984,563.3843648619986,563.373854079,,,,,,,,,,,,,,,,,,,,,,,,,,,,,,,,,,,563.376362989,563.3843648619986,563.3843648619986,563.9025085859994,r,1.0,0.5129644040007406,,,,,,sub-134,1,stroop_test,,
,,,,110.0,2.0,9.0,,,,,,,,,,,,,gelb,yellow,g,1.0,g,1.0,0.5815567709996685,,,,,,,,,,9.0,2.0,110.0,11.0,563.9092507489986,,,,,,,,,,,,,,,,,563.902813368999,564.0008946019989,564.7942328259996,564.7850430529998,,,,,,,,,,,,,,,,,,,,,,,,,,,,,,,,,,,564.7880178159994,564.7942328259996,564.7942328259996,565.3859573109985,g,1.0,0.5815567709996685,,,,,,sub-134,1,stroop_test,,
,,,,111.0,3.0,9.0,,,,,,,,,,,,,blau,yellow,g,0.0,g,1.0,0.534374138000203,,,,,,,,,,9.0,3.0,111.0,7.0,565.3927906919998,,,,,,,,,,,,,,,,,565.3863466669991,566.1843187019986,566.9769085129992,566.9684626829985,,,,,,,,,,,,,,,,,,,,,,,,,,,,,,,,,,,566.9709356079984,566.9769085129992,566.9769085129992,567.5190924719991,g,1.0,0.534374138000203,,,,,,sub-134,1,stroop_test,,
,,,,112.0,4.0,9.0,,,,,,,,,,,,,blau,blue,b,1.0,b,1.0,0.5938629230004153,,,,,,,,,,9.0,4.0,112.0,6.0,567.525905475999,,,,,,,,,,,,,,,,,567.5193888409995,567.8676909389997,568.6582390389995,568.6517665409992,,,,,,,,,,,,,,,,,,,,,,,,,,,,,,,,,,,568.6522663169999,568.6582390389995,568.6582390389995,569.2578036710001,b,1.0,0.5938629230004153,,,,,,sub-134,1,stroop_test,,
,,,,113.0,5.0,9.0,,,,,,,,,,,,,rot,blue,b,0.0,b,1.0,0.4806117199987056,,,,,,,,,,9.0,5.0,113.0,2.0,569.2674579959985,,,,,,,,,,,,,,,,,569.2581672910001,569.605885334,570.4008717819997,570.3901715109987,,,,,,,,,,,,,,,,,,,,,,,,,,,,,,,,,,,570.392618767999,570.4008717819997,570.4008717819997,570.8859259869987,b,1.0,0.4806117199987056,,,,,,sub-134,1,stroop_test,,
,,,,114.0,6.0,9.0,,,,,,,,,,,,,gelb,blue,b,0.0,b,1.0,0.6423308470002667,,,,,,,,,,9.0,6.0,114.0,9.0,570.892638117999,,,,,,,,,,,,,,,,,570.8862853390001,571.2344594529986,572.0269981739984,572.0184701019989,,,,,,,,,,,,,,,,,,,,,,,,,,,,,,,,,,,572.0210859709987,572.0269981739984,572.0269981739984,572.6747153349988,b,1.0,0.6423308470002667,,,,,,sub-134,1,stroop_test,,
,,,,115.0,7.0,9.0,,,,,,,,,,,,,gelb,red,r,0.0,g,0.0,0.5115086910009268,,,,,,,,,,9.0,7.0,115.0,8.0,572.6841216079993,,,,,,,,,,,,,,,,,572.6750787619985,573.8727543369987,574.6678687349995,574.6570856079998,,,,,,,,,,,,,,,,,,,,,,,,,,,,,,,,,,,574.657563662,574.6678687349995,574.6678687349995,575.1858083549996,g,0.0,0.5115086910009268,,,,,,sub-134,1,stroop_test,,
,,,,116.0,8.0,9.0,,,,,,,,,,,,,blau,blue,b,1.0,r,0.0,1.5784003089993348,,,,,,,,,,9.0,8.0,116.0,5.0,575.1925479329984,,,,,,,,,,,,,,,,,575.1861055639984,575.984266133999,576.7769646259985,576.7686334819991,,,,,,,,,,,,,,,,,,,,,,,,,,,,,,,,,,,576.7710487059994,576.7769646259985,576.7769646259985,578.3579238999992,r,0.0,1.5784003089993348,,,,,,sub-134,1,stroop_test,,
,,,,117.0,9.0,9.0,,,,,,,,,,,,,rot,red,r,1.0,r,1.0,0.9553953579998052,,,,,,,,,,9.0,9.0,117.0,1.0,578.3674955349998,,,,,,,,,,,,,,,,,578.3582130599989,578.7062431269987,579.501002817,579.4903901839989,,,,,,,,,,,,,,,,,,,,,,,,,,,,,,,,,,,579.492871950999,579.501002817,579.501002817,580.457932199999,r,1.0,0.9553953579998052,,,,,,sub-134,1,stroop_test,,
,,,,118.0,10.0,9.0,,,,,,,,,,,,,rot,yellow,g,0.0,g,1.0,0.7250089740009571,,,,,,,,,,9.0,10.0,118.0,3.0,580.4673646299998,,,,,,,,,,,,,,,,,580.4581946599992,580.5561965109991,581.3513066619998,581.3404478159991,,,,,,,,,,,,,,,,,,,,,,,,,,,,,,,,,,,581.3409340589988,581.3513066619998,581.3513066619998,582.0860401459995,g,1.0,0.7250089740009571,,,,,,sub-134,1,stroop_test,,
,,,,119.0,11.0,9.0,,,,,,,,,,,,,blau,red,r,0.0,r,1.0,1.1891107819992612,,,,,,,,,,9.0,11.0,119.0,4.0,582.0925930279991,,,,,,,,,,,,,,,,,582.0863450969991,582.8844083549993,583.6775465089995,583.6685227899998,,,,,,,,,,,,,,,,,,,,,,,,,,,,,,,,,,,583.6713956949989,583.6775465089995,583.6775465089995,584.8690285739995,r,1.0,1.1891107819992612,,,,,,sub-134,1,stroop_test,,
,,,,,,,,,,,,,,,,,,,,,,,,,,,,,,,,,,,,,,,,,,,,,,,,,,,,,,,,,,,,,,,,,,,,,,,,,,,,,,,,,,,,,,,,,,,,,,,,,,,,,,584.8691709589984,584.8767901699994,589.8727377529995,589.8684104179993,sub-134,1,stroop_test,,
