direction,corrAns,randomInstr,practice_trials.thisRepN,practice_trials.thisTrialN,practice_trials.thisN,practice_trials.thisIndex,instr_trials.thisRepN,instr_trials.thisTrialN,instr_trials.thisN,instr_trials.thisIndex,test_trials.thisRepN,test_trials.thisTrialN,test_trials.thisN,test_trials.thisIndex,thisRow.t,notes,general_instruction.started,textGeneralInstr.started,respGeneralInstr.started,general_instruction.stopped,respGeneralInstr.keys,respGeneralInstr.rt,respGeneralInstr.duration,ITI.started,fixcross.started,fixcross.stopped,ITI.stopped,dots.started,backgroundDots.started,stimulusDots.started,respDots.started,dots.stopped,respDots.keys,respDots.corr,respDots.rt,respDots.duration,feedback.started,textFeedback.started,feedback.stopped,textFeedback.stopped,stimulusDots.stopped,info.started,textInfo.started,keyRespInfo.started,info.stopped,keyRespInfo.keys,keyRespInfo.rt,keyRespInfo.duration,test_instruction.started,textTestInstr.started,respTestInstr.started,test_instruction.stopped,respTestInstr.keys,respTestInstr.rt,respTestInstr.duration,random_instruction.started,textRandomInstr.started,respRandomInstr.started,random_instruction.stopped,respRandomInstr.keys,respRandomInstr.rt,respRandomInstr.duration,goodbye.started,textGoodbye.started,goodbye.stopped,participant,session,expName,frameRate,Unnamed: 73
,,,,,,,,,,,,,,,,,0.0320645999745465,0.0372380999906454,0.0372380999906454,11.426913499977672,space,24.61509060001117,,,,,,,,,,,,,,,,,,,,,,,,,,,,,,,,,,,,,,,,,,,,sub-126,1.0,random_dot,60.19197629699565,
left,left,,0.0,0.0,0.0,0.0,,,,,,,,,11.48066299999482,,,,,,,,,11.477648499974748,11.792241199989803,12.60227119998308,12.577487499976996,12.577524399996037,12.60227119998308,12.60227119998308,12.60227119998308,15.497771599999396,right,0.0,16.129375000018626,,15.50105849999818,15.51332349999575,16.012492499983637,,,,,,,,,,,,,,,,,,,,,,,,,,,sub-126,1.0,random_dot,60.19197629699565,
right,right,,0.0,1.0,1.0,1.0,,,,,,,,,16.029147599998396,,,,,,,,,16.012913199985633,16.112376599980053,16.914072099985788,16.897454399993876,16.897486899979413,16.914072099985788,16.914072099985788,16.914072099985788,19.96776439997484,right,1.0,16.286493799998425,,19.96826219998184,19.982141399988905,20.466732199973197,20.48308089998318,,,,,,,,,,,,,,,,,,,,,,,,,,sub-126,1.0,random_dot,60.19197629699565,
right,right,,1.0,0.0,2.0,1.0,,,,,,,,,20.48308089998318,,,,,,,,,20.46710709997569,20.83278259998769,21.63473169997451,21.6176663999795,21.617686699988557,21.63473169997451,21.63473169997451,21.63473169997451,23.62090249999892,left,0.0,15.21961120000924,,23.621452799998224,23.63534290000098,24.120012100000167,24.135714299976826,,,,,,,,,,,,,,,,,,,,,,,,,,sub-126,1.0,random_dot,60.19197629699565,
left,left,,1.0,1.0,3.0,0.0,,,,,,,,,24.135714299976826,,,,,,,,,24.12049339999794,24.23599169999943,25.037489299982557,25.020642699993918,25.02066660000128,25.037489299982557,25.037489299982557,25.037489299982557,28.62509889999637,left,1.0,16.821391500008758,,28.6254493999877,28.63947619998362,29.124009999999544,29.140099199983524,,,,,,,,,,,,,,,,,,,,,,,,,,sub-126,1.0,random_dot,60.19197629699565,
left,left,,2.0,0.0,4.0,0.0,,,,,,,,,29.140099199983524,,,,,,,,,29.124454999982845,29.940544199984288,30.742168899974786,30.72558420000132,30.725618399999803,30.742168899974786,30.742168899974786,30.742168899974786,34.06278569999267,right,0.0,16.556239000026835,,34.06316769999103,34.0775200999924,34.56180719999247,34.57768859999487,,,,,,,,,,,,,,,,,,,,,,,,,,sub-126,1.0,random_dot,60.19197629699565,
right,right,,2.0,1.0,5.0,1.0,,,,,,,,,34.57768859999487,,,,,,,,,34.56228879999253,34.677903299976606,35.4793049999862,35.46259289997397,35.46261219997541,35.4793049999862,35.4793049999862,35.4793049999862,36.731613599986304,right,1.0,14.48821469998802,,36.73206909999135,36.74636479999754,37.23110769997584,37.24656999998842,,,,,,,,,,,,,,,,,,,,,,,,,,sub-126,1.0,random_dot,60.19197629699565,
right,right,,3.0,0.0,6.0,1.0,,,,,,,,,37.24656999998842,,,,,,,,,37.23177220000071,38.4477822999761,39.24936849999358,39.2323126999836,39.23233529998106,39.24936849999358,39.24936849999358,39.24936849999358,42.387170699978014,left,0.0,16.366862700029742,,42.38818429998355,42.40091659998871,42.88576919998741,42.90138909997768,,,,,,,,,,,,,,,,,,,,,,,,,,sub-126,1.0,random_dot,60.19197629699565,
left,left,,3.0,1.0,7.0,0.0,,,,,,,,,42.90138909997768,,,,,,,,,42.88632639998104,44.10240459998022,44.90384509999421,44.88742689997889,44.88746089997585,44.90384509999421,44.90384509999421,44.90384509999421,45.88896119999117,left,1.0,14.221191700024065,,45.88931089997641,45.90382099998533,46.38879259998794,46.40416269999696,,,,,,,,,,,,,,,,,,,,,,,,,,sub-126,1.0,random_dot,60.19197629699565,
left,left,,4.0,0.0,8.0,0.0,,,,,,,,,46.40416269999696,,,,,,,,,46.38942039999529,47.20492449999438,48.00665279998793,47.989589399978286,47.98960959998658,48.00665279998793,48.00665279998793,48.00665279998793,50.176714299974265,left,1.0,15.396567100018729,,50.17740509999567,50.19076779999887,50.67524589999812,50.69114189999527,,,,,,,,,,,,,,,,,,,,,,,,,,sub-126,1.0,random_dot,60.19197629699565,
right,right,,4.0,1.0,9.0,1.0,,,,,,,,,50.69114189999527,,,,,,,,,50.67571749998024,51.49187059997348,52.29331989999628,52.27710329997353,52.27713949998724,52.29331989999628,52.29331989999628,52.29331989999628,61.41903259998071,right,1.0,22.349800500029232,,61.41955739998957,61.43335769997793,61.91805670000031,61.933796500001336,57.28063949997886,,,,,,,,,,,,,,,,,,,,,,,,,sub-126,1.0,random_dot,60.19197629699565,
left,left,,5.0,0.0,10.0,0.0,,,,,,,,,61.933796500001336,,,,,,,,,61.91848509997362,63.13479109999025,63.93644199997652,63.91950989997713,63.91953289997764,63.93644199997652,63.93644199997652,63.93644199997652,66.45638719998533,left,1.0,15.74761760002002,,66.45695649998379,66.47067609999795,66.95562649998465,66.97132529999362,,,,,,,,,,,,,,,,,,,,,,,,,,sub-126,1.0,random_dot,60.19197629699565,
right,right,,5.0,1.0,11.0,1.0,,,,,,,,,66.97132529999362,,,,,,,,,66.95608099998208,67.32168389999424,68.12322339997627,68.10638519999338,68.10641059998306,68.12322339997627,68.12322339997627,68.12322339997627,69.65969089997816,right,1.0,14.765431200008608,,69.66041719997884,69.67357169999741,70.15844699999434,70.17402519998723,,,,,,,,,,,,,,,,,,,,,,,,,,sub-126,1.0,random_dot,60.19197629699565,
left,left,,6.0,0.0,12.0,0.0,,,,,,,,,70.17402519998723,,,,,,,,,70.15902089999872,70.27382949998719,71.07558919998701,71.05864509998355,71.05867229998694,71.07558919998701,71.07558919998701,71.07558919998701,72.72854179999558,left,1.0,14.887993400014238,,72.72888629999943,72.74272639999981,73.22760689997813,73.24313269997947,,,,,,,,,,,,,,,,,,,,,,,,,,sub-126,1.0,random_dot,60.19197629699565,
right,right,,6.0,1.0,13.0,1.0,,,,,,,,,73.24313269997947,,,,,,,,,73.22827349998988,73.5934345999849,74.39502869997523,74.37835839999025,74.37838229999761,74.39502869997523,74.39502869997523,74.39502869997523,75.2975714999775,right,1.0,14.132662100018932,,75.29842999999528,75.31170249998104,75.7962555999984,75.81192119998741,,,,,,,,,,,,,,,,,,,,,,,,,,sub-126,1.0,random_dot,60.19197629699565,
right,right,,7.0,0.0,14.0,1.0,,,,,,,,,75.81192119998741,,,,,,,,,75.79679079999914,77.01295439997921,77.8143485999899,77.79796809999971,77.79799909997382,77.8143485999899,77.8143485999899,77.8143485999899,79.26726769999368,left,0.0,14.682170000014594,,79.26768889999948,79.28156929998659,79.7661470999883,79.78183939997689,,,,,,,,,,,,,,,,,,,,,,,,,,sub-126,1.0,random_dot,60.19197629699565,
left,left,,7.0,1.0,15.0,0.0,,,,,,,,,79.78183939997689,,,,,,,,,79.76653709998936,79.88201879998087,80.68375799999922,80.66731039999286,80.66735029997653,80.68375799999922,80.68375799999922,80.68375799999922,83.4706976999878,left,1.0,16.020606300007785,,83.47129619997577,83.4853591999854,83.96978329998092,83.98541359999217,,,,,,,,,,,,,,,,,,,,,,,,,,sub-126,1.0,random_dot,60.19197629699565,
left,left,,8.0,0.0,16.0,0.0,,,,,,,,,83.98541359999217,,,,,,,,,83.97037909997744,84.33575879997807,85.13729980000062,85.12059049998061,85.12062239999068,85.13729980000062,85.13729980000062,85.13729980000062,86.72322359998361,right,0.0,14.81231090001529,,86.72361190000083,86.73778159997892,87.22251880000113,87.23814760000096,,,,,,,,,,,,,,,,,,,,,,,,,,sub-126,1.0,random_dot,60.19197629699565,
right,right,,8.0,1.0,17.0,1.0,,,,,,,,,87.23814760000096,,,,,,,,,87.2230970999808,88.4392662999744,89.24059319999651,89.22384729998885,89.22387669997988,89.24059319999651,89.24059319999651,89.24059319999651,90.70987739998964,right,1.0,14.698380400019232,,90.71033579998766,90.72422519998509,91.20898139997736,91.22474919998784,,,,,,,,,,,,,,,,,,,,,,,,,,sub-126,1.0,random_dot,60.19197629699565,
left,left,,9.0,0.0,18.0,0.0,,,,,,,,,91.22474919998784,,,,,,,,,91.20974239998031,92.42571459998726,93.22735619999004,93.2105767999892,93.21060259998194,93.22735619999004,93.22735619999004,93.22735619999004,96.19790669999202,left,1.0,16.208253000018885,,96.19829079997726,96.2123410999775,96.69659119998688,96.71264029998564,,,,,,,,,,,,,,,,,,,,,,,,,,sub-126,1.0,random_dot,60.19197629699565,
right,right,,9.0,1.0,19.0,1.0,,,,,,,,,96.71264029998564,,,,,,,,,96.69703889999072,97.06300149997696,97.8645847000007,97.84807789998013,97.84810829997878,97.8645847000007,97.8645847000007,97.8645847000007,99.31695639999816,right,1.0,14.684555400017416,,99.31730840000093,99.33155740000076,99.81592359999196,99.83206939999944,,,,,,,,,,,,,,,,,,,,,,,,,,sub-126,1.0,random_dot,60.19197629699565,
,,,,,,,,,,,,,,,,,,,,,,,,,,,,,,,,,,,,,,,,,,99.8159958999895,99.83206939999944,99.83206939999944,102.46929269999964,space,15.875685200036967,,,,,,,,,,,,,,,,,,,sub-126,1.0,random_dot,60.19197629699565,
,,,,,,,,,,,,,,,,,,,,,,,,,,,,,,,,,,,,,,,,,,,,,,,,,102.46935109997868,102.48411069999564,102.48411069999564,107.12321459999656,space,17.87466940001468,,,,,,,,,,,,sub-126,1.0,random_dot,60.19197629699565,
right,right,accuracy,,,,,0.0,0.0,0.0,0.0,0.0,0.0,0.0,1.0,109.27319209999403,,,,,,,,,109.2645781999745,109.62344450000091,110.42484069999772,110.4080576999986,110.40808369999286,110.42484069999772,110.42484069999772,110.42484069999772,113.94571709999582,left,0.0,16.758784700010438,,,,,,,,,,,,,,,,,,,,,107.15075669999352,107.17803219999767,107.17803219999767,109.25759409999591,space,15.304104200011352,,,,,sub-126,1.0,random_dot,60.19197629699565,
left,left,accuracy,,,,,0.0,0.0,0.0,0.0,0.0,1.0,1.0,0.0,113.96010759999626,,,,,,,,,113.94688339999992,115.16118429999916,115.96285969999737,115.94644069997594,115.94650789999288,115.96285969999737,115.96285969999737,115.96285969999737,118.50001930000144,right,0.0,15.761182300018843,,,,,,,,,,,,,,,,,,,,,,,,,,,,,,,sub-126,1.0,random_dot,60.19197629699565,
left,left,accuracy,,,,,0.0,0.0,0.0,0.0,1.0,0.0,2.0,0.0,118.51400539997849,,,,,,,,,118.50116729998264,118.61392249999336,119.41607119998662,119.39884959999472,119.39888979998068,119.41607119998662,119.41607119998662,119.41607119998662,121.63600839997524,right,0.0,15.457340000022668,,,,,,,,,,,,,,,,,,,,,,,,,,,,,,,sub-126,1.0,random_dot,60.19197629699565,
right,right,accuracy,,,,,0.0,0.0,0.0,0.0,1.0,1.0,3.0,1.0,121.65003259998048,,,,,,,,,121.6369686999824,122.4507340999844,123.25227899997844,123.2352243999776,123.23524439998435,123.25227899997844,123.25227899997844,123.25227899997844,125.63906339998356,left,0.0,15.614812200015876,,,,,,,,,,,,,,,,,,,,,,,,,,,,,,,sub-126,1.0,random_dot,60.19197629699565,
left,left,accuracy,,,,,0.0,0.0,0.0,0.0,2.0,0.0,4.0,0.0,125.653161299997,,,,,,,,,125.64010489999782,126.00370819997624,126.80521749999023,126.78887089999624,126.7889056999993,126.80521749999023,126.80521749999023,126.80521749999023,129.45899379998446,left,1.0,15.877965600026071,,,,,,,,,,,,,,,,,,,,,,,,,,,,,,,sub-126,1.0,random_dot,60.19197629699565,
right,right,accuracy,,,,,0.0,0.0,0.0,0.0,2.0,1.0,5.0,1.0,129.47316209998098,,,,,,,,,129.46008029999211,129.8236088999838,130.6252168999927,130.60840259998804,130.60843549997662,130.6252168999927,130.6252168999927,130.6252168999927,132.02762489998713,right,1.0,14.62856820001616,,,,,,,,,,,,,,,,,,,,,,,,,,,,,,,sub-126,1.0,random_dot,60.19197629699565,
right,right,accuracy,,,,,0.0,0.0,0.0,0.0,3.0,0.0,6.0,1.0,132.04191609998816,,,,,,,,,132.02836969998316,132.14196859998628,132.943615999975,132.92675159999635,132.92677539997385,132.943615999975,132.943615999975,132.943615999975,137.0157711999782,right,1.0,17.29582240001764,,,,,,,,,,,,,,,,,,,,,,,,,,,,,,,sub-126,1.0,random_dot,60.19197629699565,
left,left,accuracy,,,,,0.0,0.0,0.0,0.0,3.0,1.0,7.0,0.0,137.02921529999003,,,,,,,,,137.01733169998624,137.12961969999014,137.9312131999759,137.91463929999736,137.9147043999983,137.9312131999759,137.9312131999759,137.9312131999759,138.83357319998322,left,1.0,14.130059100018116,,,,,,,,,,,,,,,,,,,,,,,,,,,,,,,sub-126,1.0,random_dot,60.19197629699565,
left,left,accuracy,,,,,0.0,0.0,0.0,0.0,4.0,0.0,8.0,0.0,138.84744289997616,,,,,,,,,138.83484299998963,138.9476777999953,139.74925499997337,139.73266499998863,139.73269659999642,139.74925499997337,139.74925499997337,139.74925499997337,141.16833549999865,right,0.0,14.651979100017344,,,,,,,,,,,,,,,,,,,,,,,,,,,,,,,sub-126,1.0,random_dot,60.19197629699565,
right,right,accuracy,,,,,0.0,0.0,0.0,0.0,4.0,1.0,9.0,1.0,141.18279449999682,,,,,,,,,141.169116199977,142.38390129999607,143.18570179998642,143.1687466999865,143.1687794999743,143.18570179998642,143.18570179998642,143.18570179998642,145.87312299999758,left,0.0,15.914629200007766,,,,,,,,,,,,,,,,,,,,,,,,,,,,,,,sub-126,1.0,random_dot,60.19197629699565,
left,left,accuracy,,,,,0.0,0.0,0.0,0.0,5.0,0.0,10.0,0.0,145.88688569999067,,,,,,,,,145.8744915999996,145.9867567999754,146.78817149999668,146.77173649999895,146.77177500000107,146.78817149999668,146.78817149999668,146.78817149999668,147.82393629997387,left,1.0,14.273743500001729,,,,,,,,,,,,,,,,,,,,,,,,,,,,,,,sub-126,1.0,random_dot,60.19197629699565,
right,right,accuracy,,,,,0.0,0.0,0.0,0.0,5.0,1.0,11.0,1.0,147.8382500000007,,,,,,,,,147.82469259999925,148.63922299997648,149.44045579998055,149.4237165999948,149.4237460999866,149.44045579998055,149.44045579998055,149.44045579998055,151.49353169999085,left,0.0,15.289774200005922,,,,,,,,,,,,,,,,,,,,,,,,,,,,,,,sub-126,1.0,random_dot,60.19197629699565,
left,left,accuracy,,,,,0.0,0.0,0.0,0.0,6.0,0.0,12.0,0.0,151.5080639999942,,,,,,,,,151.4943568999879,151.60834899998736,152.4098840999941,152.3927237999742,152.39274169999408,152.4098840999941,152.4098840999941,152.4098840999941,153.41234439998516,right,0.0,14.233680000033928,,,,,,,,,,,,,,,,,,,,,,,,,,,,,,,sub-126,1.0,random_dot,60.19197629699565,
right,right,accuracy,,,,,0.0,0.0,0.0,0.0,6.0,1.0,13.0,1.0,153.42636819998734,,,,,,,,,153.41375519998837,153.5264756999968,154.32813599999645,154.3113628999854,154.3114006999822,154.32813599999645,154.32813599999645,154.32813599999645,156.81486689997837,right,1.0,15.713015800021822,,,,,,,,,,,,,,,,,,,,,,,,,,,,,,,sub-126,1.0,random_dot,60.19197629699565,
right,right,accuracy,,,,,0.0,0.0,0.0,0.0,7.0,0.0,14.0,1.0,156.82909309997922,,,,,,,,,156.8156725000008,156.92920789998607,157.73095499997726,157.71391859999858,157.7139578999777,157.73095499997726,157.73095499997726,157.73095499997726,159.58387869998114,right,1.0,15.08901510000578,,,,,,,,,,,,,,,,,,,,,,,,,,,,,,,sub-126,1.0,random_dot,60.19197629699565,
left,left,accuracy,,,,,0.0,0.0,0.0,0.0,7.0,1.0,15.0,0.0,159.59807499998715,,,,,,,,,159.58483649999835,159.94844869998633,160.7500850999786,160.7333757999877,160.7334047999757,160.7500850999786,160.7500850999786,160.7500850999786,161.40185909997672,left,1.0,13.875865100009833,,,,,,,,,,,,,,,,,,,,,,,,,,,,,,,sub-126,1.0,random_dot,60.19197629699565,
right,right,accuracy,,,,,0.0,0.0,0.0,0.0,8.0,0.0,16.0,1.0,161.41635829998995,,,,,,,,,161.4025369999872,161.7664963999996,162.56819809999433,162.55144659997313,162.55147009997745,162.56819809999433,162.56819809999433,162.56819809999433,163.25317669997457,left,0.0,13.923659300024156,,,,,,,,,,,,,,,,,,,,,,,,,,,,,,,sub-126,1.0,random_dot,60.19197629699565,
left,left,accuracy,,,,,0.0,0.0,0.0,0.0,8.0,1.0,17.0,0.0,163.26779919999535,,,,,,,,,163.25400519999675,163.61811309997574,164.41961779998385,164.40290479999385,164.4029307999881,164.41961779998385,164.41961779998385,164.41961779998385,165.1214028999966,left,1.0,13.93813210001099,,,,,,,,,,,,,,,,,,,,,,,,,,,,,,,sub-126,1.0,random_dot,60.19197629699565,
left,left,accuracy,,,,,0.0,0.0,0.0,0.0,9.0,0.0,18.0,0.0,165.13616019999608,,,,,,,,,165.1223293999792,165.93673349998426,166.7383122999745,166.7212665999832,166.72131279998575,166.7383122999745,166.7383122999745,166.7383122999745,168.35755169999902,left,1.0,14.844058899994709,,,,,,,,,,,,,,,,,,,,,,,,,,,,,,,sub-126,1.0,random_dot,60.19197629699565,
right,right,accuracy,,,,,0.0,0.0,0.0,0.0,9.0,1.0,19.0,1.0,168.37223079998512,,,,,,,,,168.35824729999877,169.1728304999997,169.9743415999983,169.95773229998304,169.9577931999811,169.9743415999983,169.9743415999983,169.9743415999983,170.85970689999522,right,1.0,14.119252300006336,,,,,,,,,,,,,,,,,,,,,,,,,,,,,,,sub-126,1.0,random_dot,60.19197629699565,
left,left,accuracy,,,,,0.0,0.0,0.0,0.0,10.0,0.0,20.0,0.0,170.8741404999746,,,,,,,,,170.86087129998486,171.22445449998486,172.02608949999558,172.00923699999112,172.00926179997623,172.02608949999558,172.02608949999558,172.02608949999558,172.8283242999751,left,1.0,14.040067000023557,,,,,,,,,,,,,,,,,,,,,,,,,,,,,,,sub-126,1.0,random_dot,60.19197629699565,
right,right,accuracy,,,,,0.0,0.0,0.0,0.0,10.0,1.0,21.0,1.0,172.8424630999798,,,,,,,,,172.82940759998746,172.94233459999668,173.7440360999899,173.72776539999177,173.72780480000074,173.7440360999899,173.7440360999899,173.7440360999899,174.66248999998788,right,1.0,14.153459499997552,,,,,,,,,,,,,,,,,,,,,,,,,,,,,,,sub-126,1.0,random_dot,60.19197629699565,
left,left,accuracy,,,,,0.0,0.0,0.0,0.0,11.0,0.0,22.0,0.0,174.6775009999983,,,,,,,,,174.66313449997688,175.0277478999924,175.8292520999967,175.81270319997566,175.8127486000012,175.8292520999967,175.8292520999967,175.8292520999967,176.66470679998747,left,1.0,14.07244340001489,,,,,,,,,,,,,,,,,,,,,,,,,,,,,,,sub-126,1.0,random_dot,60.19197629699565,
right,right,accuracy,,,,,0.0,0.0,0.0,0.0,11.0,1.0,23.0,1.0,176.67894369998248,,,,,,,,,176.66567139999825,176.7791987999808,177.58040779997827,177.56369439998525,177.56371329998365,177.58040779997827,177.58040779997827,177.58040779997827,178.78256979997968,right,1.0,14.43521690001944,,,,,,,,,,,,,,,,,,,,,,,,,,,,,,,sub-126,1.0,random_dot,60.19197629699565,
right,right,accuracy,,,,,0.0,0.0,0.0,0.0,12.0,0.0,24.0,1.0,178.79713110000012,,,,,,,,,178.78320659999736,179.59814789998927,180.39965959999245,180.38334229998875,180.38338149999615,180.39965959999245,180.39965959999245,180.39965959999245,181.90241959999548,right,1.0,14.733534800005144,,,,,,,,,,,,,,,,,,,,,,,,,,,,,,,sub-126,1.0,random_dot,60.19197629699565,
left,left,accuracy,,,,,0.0,0.0,0.0,0.0,12.0,1.0,25.0,0.0,181.91653959997348,,,,,,,,,181.90334920000168,182.71715640000184,183.51873479998903,183.502230299986,183.5022578999924,183.51873479998903,183.51873479998903,183.51873479998903,184.12077039998255,left,1.0,13.83235560002504,,,,,,,,,,,,,,,,,,,,,,,,,,,,,,,sub-126,1.0,random_dot,60.19197629699565,
right,right,accuracy,,,,,0.0,0.0,0.0,0.0,13.0,0.0,26.0,1.0,184.1349955999758,,,,,,,,,184.12165999997524,184.23522399997452,185.03655069999516,185.0200380999886,185.02005809999537,185.03655069999516,185.03655069999516,185.03655069999516,185.9387369999895,right,1.0,14.12902620001114,,,,,,,,,,,,,,,,,,,,,,,,,,,,,,,sub-126,1.0,random_dot,60.19197629699565,
left,left,accuracy,,,,,0.0,0.0,0.0,0.0,13.0,1.0,27.0,0.0,185.9531464999891,,,,,,,,,185.93951409999863,187.15430189998008,187.9559111999988,187.93899009999583,187.93900849999045,187.9559111999988,187.9559111999988,187.9559111999988,188.59096199998748,left,1.0,13.864452700014226,,,,,,,,,,,,,,,,,,,,,,,,,,,,,,,sub-126,1.0,random_dot,60.19197629699565,
left,left,accuracy,,,,,0.0,0.0,0.0,0.0,14.0,0.0,28.0,0.0,188.60565599999973,,,,,,,,,188.59192039998013,188.95594489999348,189.7572647999914,189.7407368999848,189.7407658000011,189.7572647999914,189.7572647999914,189.7572647999914,190.40927639999427,right,0.0,13.87682910001604,,,,,,,,,,,,,,,,,,,,,,,,,,,,,,,sub-126,1.0,random_dot,60.19197629699565,
right,right,accuracy,,,,,0.0,0.0,0.0,0.0,14.0,1.0,29.0,1.0,190.4234347999736,,,,,,,,,190.41037869997672,190.52388839999912,191.3254099999904,191.30852409999352,191.30854759999784,191.3254099999904,191.3254099999904,191.3254099999904,192.0601368999924,right,1.0,13.964474700012945,,,,,,,,,,,,,,,,,,,,,,,,,,,,,,,sub-126,1.0,random_dot,60.19197629699565,
left,left,accuracy,,,,,0.0,0.0,0.0,0.0,15.0,0.0,30.0,0.0,192.0749578999821,,,,,,,,,192.06092039999203,192.87557059997928,193.6775040999928,193.66064529999855,193.6606715999951,193.6775040999928,193.6775040999928,193.6775040999928,194.26296509997337,left,1.0,13.81610350002302,,,,,,,,,,,,,,,,,,,,,,,,,,,,,,,sub-126,1.0,random_dot,60.19197629699565,
right,right,accuracy,,,,,0.0,0.0,0.0,0.0,15.0,1.0,31.0,1.0,194.27694069998688,,,,,,,,,194.2646076999954,195.07731069999863,195.87945699997363,195.86258169999928,195.8626147999894,195.87945699997363,195.87945699997363,195.87945699997363,196.44772419999936,right,1.0,13.799696400004905,,,,,,,,,,,,,,,,,,,,,,,,,,,,,,,sub-126,1.0,random_dot,60.19197629699565,
left,left,accuracy,,,,,0.0,0.0,0.0,0.0,16.0,0.0,32.0,0.0,196.4622471999901,,,,,,,,,196.44914719997905,197.66307089998736,198.46449169999687,198.4482381999842,198.44827589998025,198.46449169999687,198.46449169999687,198.46449169999687,199.13344939998933,left,1.0,13.893685800023375,,,,,,,,,,,,,,,,,,,,,,,,,,,,,,,sub-126,1.0,random_dot,60.19197629699565,
right,right,accuracy,,,,,0.0,0.0,0.0,0.0,16.0,1.0,33.0,1.0,199.14772799998173,,,,,,,,,199.1341606999922,199.9482185999805,200.74985139997443,200.7332756999822,200.7333084999991,200.74985139997443,200.74985139997443,200.74985139997443,201.4854323999898,right,1.0,13.96336710001924,,,,,,,,,,,,,,,,,,,,,,,,,,,,,,,sub-126,1.0,random_dot,60.19197629699565,
left,left,accuracy,,,,,0.0,0.0,0.0,0.0,17.0,0.0,34.0,0.0,201.49958360000164,,,,,,,,,201.48659599997336,201.59969869998167,202.40131619997555,202.3842201999796,202.38423869997496,202.40131619997555,202.40131619997555,202.40131619997555,203.2196321999945,left,1.0,14.051178800029447,,,,,,,,,,,,,,,,,,,,,,,,,,,,,,,sub-126,1.0,random_dot,60.19197629699565,
right,right,accuracy,,,,,0.0,0.0,0.0,0.0,17.0,1.0,35.0,1.0,203.2344194999896,,,,,,,,,203.2203716999793,204.43534549998003,205.23708209997855,205.22022399998968,205.2202519999992,205.23708209997855,205.23708209997855,205.23708209997855,206.2560996999964,right,1.0,14.257222700020066,,,,,,,,,,,,,,,,,,,,,,,,,,,,,,,sub-126,1.0,random_dot,60.19197629699565,
right,right,accuracy,,,,,0.0,0.0,0.0,0.0,18.0,0.0,36.0,1.0,206.27015179998125,,,,,,,,,206.2577191999881,207.4711988999916,208.2727737999812,208.2564296999772,208.2564788000018,208.2727737999812,208.2727737999812,208.2727737999812,209.09182059997693,left,0.0,14.053823700000066,,,,,,,,,,,,,,,,,,,,,,,,,,,,,,,sub-126,1.0,random_dot,60.19197629699565,
left,left,accuracy,,,,,0.0,0.0,0.0,0.0,18.0,1.0,37.0,0.0,209.1059142999875,,,,,,,,,209.09295069999644,209.9064848999842,210.7082803999947,210.69129639997848,210.6913192999782,210.7082803999947,210.7082803999947,210.7082803999947,212.32764779997524,right,0.0,14.851199199998518,,,,,,,,,,,,,,,,,,,,,,,,,,,,,,,sub-126,1.0,random_dot,60.19197629699565,
right,right,accuracy,,,,,0.0,0.0,0.0,0.0,19.0,0.0,38.0,1.0,212.34178039999097,,,,,,,,,212.328649699979,212.44202889999724,213.24347269997816,213.2268025999947,213.226832299988,213.24347269997816,213.24347269997816,213.24347269997816,215.04683709997332,right,1.0,15.043314200011082,,,,,,,,,,,,,,,,,,,,,,,,,,,,,,,sub-126,1.0,random_dot,60.19197629699565,
left,left,accuracy,,,,,0.0,0.0,0.0,0.0,19.0,1.0,39.0,0.0,215.06080079998355,,,,,,,,,215.04779749998124,215.16083159999107,215.96260769999932,215.94580580000184,215.94584349999784,215.96260769999932,215.96260769999932,215.96260769999932,216.8481568999996,left,1.0,14.11138650000794,,,,,,,,,,,,,,,,,,,,,,,,,,,,,,,sub-126,1.0,random_dot,60.19197629699565,
right,right,accuracy,,,,,0.0,0.0,0.0,0.0,20.0,0.0,40.0,1.0,216.8621182999923,,,,,,,,,216.84909360000165,218.0633946999733,218.86499669999463,218.84797559998697,218.84800099997665,218.86499669999463,218.86499669999463,218.86499669999463,219.93377879998295,right,1.0,14.293229800008705,,,,,,,,,,,,,,,,,,,,,,,,,,,,,,,sub-126,1.0,random_dot,60.19197629699565,
left,left,accuracy,,,,,0.0,0.0,0.0,0.0,20.0,1.0,41.0,0.0,219.9482523999759,,,,,,,,,219.93451009999265,221.1490492000012,221.9505471999873,221.93426499998893,221.93429869998363,221.9505471999873,221.9505471999873,221.9505471999873,222.63596799998777,left,1.0,13.916118499997538,,,,,,,,,,,,,,,,,,,,,,,,,,,,,,,sub-126,1.0,random_dot,60.19197629699565,
right,right,accuracy,,,,,0.0,0.0,0.0,0.0,21.0,0.0,42.0,1.0,222.6505121999944,,,,,,,,,222.6366498999996,222.7507062999939,223.5519432000001,223.5354436999769,223.53546299997836,223.5519432000001,223.5519432000001,223.5519432000001,224.58744629999276,right,1.0,14.259952700027496,,,,,,,,,,,,,,,,,,,,,,,,,,,,,,,sub-126,1.0,random_dot,60.19197629699565,
left,left,accuracy,,,,,0.0,0.0,0.0,0.0,21.0,1.0,43.0,0.0,224.602141499985,,,,,,,,,224.58815719999257,225.40257439998092,226.20433449998384,226.18783379998055,226.1878712999751,226.20433449998384,226.20433449998384,226.20433449998384,227.2070075999945,left,1.0,14.2414923000033,,,,,,,,,,,,,,,,,,,,,,,,,,,,,,,sub-126,1.0,random_dot,60.19197629699565,
right,right,accuracy,,,,,0.0,0.0,0.0,0.0,22.0,0.0,44.0,1.0,227.2210463999945,,,,,,,,,227.2086073999817,227.57174109999323,228.37286259999385,228.35628229999568,228.3563483999751,228.37286259999385,228.37286259999385,228.37286259999385,229.10827269998845,right,1.0,13.963301500014497,,,,,,,,,,,,,,,,,,,,,,,,,,,,,,,sub-126,1.0,random_dot,60.19197629699565,
left,left,accuracy,,,,,0.0,0.0,0.0,0.0,22.0,1.0,45.0,0.0,229.1224135999801,,,,,,,,,229.10913579998305,229.22248789999867,230.02397779998137,230.00717479997547,230.00720100000035,230.02397779998137,230.02397779998137,230.02397779998137,230.74315009999555,left,1.0,13.94407430003048,,,,,,,,,,,,,,,,,,,,,,,,,,,,,,,sub-126,1.0,random_dot,60.19197629699565,
left,left,accuracy,,,,,0.0,0.0,0.0,0.0,23.0,0.0,46.0,0.0,230.7572587999748,,,,,,,,,230.74414799999795,231.10768909999751,231.90909019997343,231.89267569998628,231.8927113999962,231.90909019997343,231.90909019997343,231.90909019997343,232.6775807999948,left,1.0,13.993592500017256,,,,,,,,,,,,,,,,,,,,,,,,,,,,,,,sub-126,1.0,random_dot,60.19197629699565,
right,right,accuracy,,,,,0.0,0.0,0.0,0.0,23.0,1.0,47.0,1.0,232.6922537999926,,,,,,,,,232.67858129998783,233.4928311999829,234.29449119998023,234.27742149998085,234.27744479998364,234.29449119998023,234.29449119998023,234.29449119998023,235.1469608999905,right,1.0,14.084531900007278,,,,,,,,,,,,,,,,,,,,,,,,,,,,,,,sub-126,1.0,random_dot,60.19197629699565,
right,right,accuracy,,,,,0.0,0.0,0.0,0.0,24.0,0.0,48.0,1.0,235.1608348999871,,,,,,,,,235.14812509997864,235.51114889999732,236.3126135999919,236.2960395999835,236.2960670999892,236.3126135999919,236.3126135999919,236.3126135999919,237.1142687999818,right,1.0,14.027570900012506,,,,,,,,,,,,,,,,,,,,,,,,,,,,,,,sub-126,1.0,random_dot,60.19197629699565,
left,left,accuracy,,,,,0.0,0.0,0.0,0.0,24.0,1.0,49.0,0.0,237.12918839999475,,,,,,,,,237.11510409999755,237.22923939998145,238.0308527000016,238.01389649999328,238.01392040000064,238.0308527000016,238.0308527000016,238.0308527000016,238.8991176999989,left,1.0,14.106646000000184,,,,,,,,,,,,,,,,,,,,,,,,,,,,,,,sub-126,1.0,random_dot,60.19197629699565,
right,right,accuracy,,,,,0.0,0.0,0.0,0.0,25.0,0.0,50.0,1.0,238.9136741999828,,,,,,,,,238.8997957999818,240.11496119998628,240.9167299999972,240.8997742999927,240.89980809998812,240.9167299999972,240.9167299999972,240.9167299999972,242.219117599976,right,1.0,14.542307500028985,,,,,,,,,,,,,,,,,,,,,,,,,,,,,,,sub-126,1.0,random_dot,60.19197629699565,
left,left,accuracy,,,,,0.0,0.0,0.0,0.0,25.0,1.0,51.0,0.0,242.2332302999857,,,,,,,,,242.21990099997493,242.58361380000133,243.38530129997525,243.3683123999799,243.3683369999926,243.38530129997525,243.38530129997525,243.38530129997525,244.03681059999508,left,1.0,13.88856280001346,,,,,,,,,,,,,,,,,,,,,,,,,,,,,,,sub-126,1.0,random_dot,60.19197629699565,
right,right,accuracy,,,,,0.0,0.0,0.0,0.0,26.0,0.0,52.0,1.0,244.051542399975,,,,,,,,,244.03757459999176,244.40184949999093,245.2034470999788,245.1864375000005,245.186455499992,245.2034470999788,245.2034470999788,245.2034470999788,245.98864539997885,left,0.0,14.015248600015184,,,,,,,,,,,,,,,,,,,,,,,,,,,,,,,sub-126,1.0,random_dot,60.19197629699565,
left,left,accuracy,,,,,0.0,0.0,0.0,0.0,26.0,1.0,53.0,0.0,246.0030827999872,,,,,,,,,245.98950949998107,247.20416759999355,248.00581729999976,247.9890000000014,247.98902189999356,248.00581729999976,248.00581729999976,248.00581729999976,249.77467309997883,left,1.0,15.008506500016663,,,,,,,,,,,,,,,,,,,,,,,,,,,,,,,sub-126,1.0,random_dot,60.19197629699565,
left,left,accuracy,,,,,0.0,0.0,0.0,0.0,27.0,0.0,54.0,0.0,249.789689999976,,,,,,,,,249.77545259997717,250.1398675999953,250.9414002999838,250.9244831999822,250.9245077999949,250.9414002999838,250.9414002999838,250.9414002999838,254.81283439998515,left,1.0,17.096274900017306,,,,,,,,,,,,,,,,,,,,,,,,,,,,,,,sub-126,1.0,random_dot,60.19197629699565,
right,right,accuracy,,,,,0.0,0.0,0.0,0.0,27.0,1.0,55.0,1.0,254.8270041999931,,,,,,,,,254.81363439999404,256.0280386999948,256.8297937999887,256.81309029998374,256.8131151999987,256.8297937999887,256.8297937999887,256.8297937999887,258.24883689999115,right,1.0,14.64691640000092,,,,,,,,,,,,,,,,,,,,,,,,,,,,,,,sub-126,1.0,random_dot,60.19197629699565,
right,right,accuracy,,,,,0.0,0.0,0.0,0.0,28.0,0.0,56.0,1.0,258.2632175999752,,,,,,,,,258.2497019000002,259.4643171999778,260.2658201999729,260.2494066999934,260.249454099976,260.2658201999729,260.2658201999729,260.2658201999729,261.65191019998747,right,1.0,14.624603100004606,,,,,,,,,,,,,,,,,,,,,,,,,,,,,,,sub-126,1.0,random_dot,60.19197629699565,
left,left,accuracy,,,,,0.0,0.0,0.0,0.0,28.0,1.0,57.0,0.0,261.6659341999912,,,,,,,,,261.6527741999889,262.4669942999899,263.2683294999879,263.2516625999997,263.2516969999997,263.2683294999879,263.2683294999879,263.2683294999879,264.15397539999685,left,1.0,14.119150300015464,,,,,,,,,,,,,,,,,,,,,,,,,,,,,,,sub-126,1.0,random_dot,60.19197629699565,
right,right,accuracy,,,,,0.0,0.0,0.0,0.0,29.0,0.0,58.0,1.0,264.1682595999737,,,,,,,,,264.1550292999891,265.3693127000006,266.1706871999777,266.1537270999979,266.15375209998456,266.1706871999777,266.1706871999777,266.1706871999777,267.4898969999922,right,1.0,14.552353700011736,,,,,,,,,,,,,,,,,,,,,,,,,,,,,,,sub-126,1.0,random_dot,60.19197629699565,
left,left,accuracy,,,,,0.0,0.0,0.0,0.0,29.0,1.0,59.0,0.0,267.5041062999808,,,,,,,,,267.4906052000006,267.85468489999766,268.65601179999067,268.6395321000018,268.639560599986,268.65601179999067,268.65601179999067,268.65601179999067,269.27466089997324,left,1.0,13.85062260000268,,,,,,,,,,,,,,,,,,,,,,,,,,,,,,,sub-126,1.0,random_dot,60.19197629699565,
,,accuracy,,,,,0.0,0.0,0.0,0.0,,,,,,,,,,,,,,,,,,,,,,,,,,,,,,,,,,,,,,,,,,,,,,,,,,,,,,,,sub-126,1.0,random_dot,60.19197629699565,
left,left,speed,,,,,0.0,1.0,1.0,1.0,0.0,0.0,0.0,0.0,272.2418242999993,,,,,,,,,272.2329519999912,272.34147359998315,273.1432150999899,273.12639779999154,273.1264226999774,273.1432150999899,273.1432150999899,273.1432150999899,273.72884070000146,right,0.0,13.822814300016034,,,,,,,,,,,,,,,,,,,,,269.2754041999869,269.28906189999543,269.28906189999543,272.2263374999748,space,16.172617100004572,,,,,sub-126,1.0,random_dot,60.19197629699565,
right,right,speed,,,,,0.0,1.0,1.0,1.0,0.0,1.0,1.0,1.0,273.7430564999813,,,,,,,,,273.7302756999852,274.54363199998625,275.3451031000004,275.3284998999734,275.32852949999506,275.3451031000004,275.3451031000004,275.3451031000004,275.930577799998,right,1.0,13.82296300001326,,,,,,,,,,,,,,,,,,,,,,,,,,,,,,,sub-126,1.0,random_dot,60.19197629699565,
left,left,speed,,,,,0.0,1.0,1.0,1.0,1.0,0.0,2.0,0.0,275.9445712999732,,,,,,,,,275.93188009998994,276.04484180000145,276.84615629998734,276.82946329997503,276.8294830999803,276.84615629998734,276.84615629998734,276.84615629998734,278.0486686999793,right,0.0,14.44105700001819,,,,,,,,,,,,,,,,,,,,,,,,,,,,,,,sub-126,1.0,random_dot,60.19197629699565,
right,right,speed,,,,,0.0,1.0,1.0,1.0,1.0,1.0,3.0,1.0,278.0629799999879,,,,,,,,,278.0495550999767,278.4133273999905,279.2148485999787,279.19834519998403,279.1984070999897,279.2148485999787,279.2148485999787,279.2148485999787,280.0667181999888,left,0.0,14.077548600005684,,,,,,,,,,,,,,,,,,,,,,,,,,,,,,,sub-126,1.0,random_dot,60.19197629699565,
right,right,speed,,,,,0.0,1.0,1.0,1.0,2.0,0.0,4.0,1.0,280.08146219997434,,,,,,,,,280.06741649998,280.181557599979,280.9830616999825,280.9661292999808,280.96615249998285,280.9830616999825,280.9830616999825,280.9830616999825,281.60200659997645,left,0.0,13.853843200020492,,,,,,,,,,,,,,,,,,,,,,,,,,,,,,,sub-126,1.0,random_dot,60.19197629699565,
left,left,speed,,,,,0.0,1.0,1.0,1.0,2.0,1.0,5.0,0.0,281.61578709998867,,,,,,,,,281.603031799983,281.7160594999732,282.5178939999896,282.50117319999845,282.50121019998915,282.5178939999896,282.5178939999896,282.5178939999896,283.203182199999,left,1.0,13.914705300005153,,,,,,,,,,,,,,,,,,,,,,,,,,,,,,,sub-126,1.0,random_dot,60.19197629699565,
left,left,speed,,,,,0.0,1.0,1.0,1.0,3.0,0.0,6.0,0.0,283.2175470999792,,,,,,,,,283.20432349998737,283.31758750000154,284.1192054999992,284.1024853999843,284.1025185999752,284.1192054999992,284.1192054999992,284.1192054999992,285.0215779999853,left,1.0,14.128540300007444,,,,,,,,,,,,,,,,,,,,,,,,,,,,,,,sub-126,1.0,random_dot,60.19197629699565,
right,right,speed,,,,,0.0,1.0,1.0,1.0,3.0,1.0,7.0,1.0,285.0355021999858,,,,,,,,,285.0226576999994,285.83648019999964,286.6378009999753,286.6209721999767,286.6209964999871,286.6378009999753,286.6378009999753,286.6378009999753,287.24029999997583,right,1.0,13.834445299988149,,,,,,,,,,,,,,,,,,,,,,,,,,,,,,,sub-126,1.0,random_dot,60.19197629699565,
right,right,speed,,,,,0.0,1.0,1.0,1.0,4.0,0.0,8.0,1.0,287.2540097999736,,,,,,,,,287.2418725999887,287.6043869999994,288.40600899999845,288.3893599000003,288.3893991999794,288.40600899999845,288.40600899999845,288.40600899999845,289.1083263999899,right,1.0,13.939972100022716,,,,,,,,,,,,,,,,,,,,,,,,,,,,,,,sub-126,1.0,random_dot,60.19197629699565,
left,left,speed,,,,,0.0,1.0,1.0,1.0,4.0,1.0,9.0,0.0,289.1222719999787,,,,,,,,,289.1099607999786,289.47269439999945,290.27406709999195,290.25778549999814,290.2578311999969,290.27406709999195,290.27406709999195,290.27406709999195,290.89265639998484,left,1.0,13.844140000001062,,,,,,,,,,,,,,,,,,,,,,,,,,,,,,,sub-126,1.0,random_dot,60.19197629699565,
left,left,speed,,,,,0.0,1.0,1.0,1.0,5.0,0.0,10.0,0.0,290.9069415999984,,,,,,,,,290.8936769999855,292.10804919997463,292.90969969998696,292.89274979999755,292.8927764999971,292.90969969998696,292.90969969998696,292.90969969998696,293.6616257999849,left,1.0,13.990277800010515,,,,,,,,,,,,,,,,,,,,,,,,,,,,,,,sub-126,1.0,random_dot,60.19197629699565,
right,right,speed,,,,,0.0,1.0,1.0,1.0,5.0,1.0,11.0,1.0,293.6761935999966,,,,,,,,,293.6625054999895,294.47677349997684,295.2783322999894,295.261840799998,295.2618801999779,295.2783322999894,295.2783322999894,295.2783322999894,296.0139131999749,right,1.0,13.960243000008631,,,,,,,,,,,,,,,,,,,,,,,,,,,,,,,sub-126,1.0,random_dot,60.19197629699565,
right,right,speed,,,,,0.0,1.0,1.0,1.0,6.0,0.0,12.0,1.0,296.0279265999852,,,,,,,,,296.0151403999771,296.3780984999903,297.17979529997683,297.1630465999769,297.1630756999948,297.17979529997683,297.17979529997683,297.17979529997683,298.1322703999758,left,0.0,14.182215500011807,,,,,,,,,,,,,,,,,,,,,,,,,,,,,,,sub-126,1.0,random_dot,60.19197629699565,
left,left,speed,,,,,0.0,1.0,1.0,1.0,6.0,1.0,13.0,0.0,298.1465783999884,,,,,,,,,298.1332403999986,298.94705439999234,299.74871529999655,299.7318534999795,299.7318761999777,299.74871529999655,299.74871529999655,299.74871529999655,300.5342423999973,right,0.0,14.018489400012186,,,,,,,,,,,,,,,,,,,,,,,,,,,,,,,sub-126,1.0,random_dot,60.19197629699565,
left,left,speed,,,,,0.0,1.0,1.0,1.0,7.0,0.0,14.0,0.0,300.5484531999973,,,,,,,,,300.5350754999963,300.89873909999733,301.70023129999754,301.683747699979,301.6837665999774,301.70023129999754,301.70023129999754,301.70023129999754,302.6188873999927,left,1.0,14.15640390003682,,,,,,,,,,,,,,,,,,,,,,,,,,,,,,,sub-126,1.0,random_dot,60.19197629699565,
right,right,speed,,,,,0.0,1.0,1.0,1.0,7.0,1.0,15.0,1.0,302.63353709998773,,,,,,,,,302.6196698999848,302.9838569999847,303.7852134999994,303.76827579998644,303.7682943999825,303.7852134999994,303.7852134999994,303.7852134999994,304.48716959997546,left,0.0,13.92679560004035,,,,,,,,,,,,,,,,,,,,,,,,,,,,,,,sub-126,1.0,random_dot,60.19197629699565,
right,right,speed,,,,,0.0,1.0,1.0,1.0,8.0,0.0,16.0,1.0,304.501649599988,,,,,,,,,304.4878110999998,305.7026883999933,306.5044715999975,306.4877094999829,306.4877437999821,306.5044715999975,306.5044715999975,306.5044715999975,307.3061829999788,right,1.0,14.040495900029782,,,,,,,,,,,,,,,,,,,,,,,,,,,,,,,sub-126,1.0,random_dot,60.19197629699565,
left,left,speed,,,,,0.0,1.0,1.0,1.0,8.0,1.0,17.0,0.0,307.320615899982,,,,,,,,,307.3069370999874,307.6708747999801,308.4726997999824,308.4558292999864,308.45585679999203,308.4726997999824,308.4726997999824,308.4726997999824,309.1578404999745,right,0.0,13.916839200013785,,,,,,,,,,,,,,,,,,,,,,,,,,,,,,,sub-126,1.0,random_dot,60.19197629699565,
right,right,speed,,,,,0.0,1.0,1.0,1.0,9.0,0.0,18.0,1.0,309.1721531999938,,,,,,,,,309.1591703000013,309.9727783999988,310.77471389999846,310.7575056999922,310.7575249999936,310.77471389999846,310.77471389999846,310.77471389999846,311.2929537000018,left,0.0,13.74946110000019,,,,,,,,,,,,,,,,,,,,,,,,,,,,,,,sub-126,1.0,random_dot,60.19197629699565,
left,left,speed,,,,,0.0,1.0,1.0,1.0,9.0,1.0,19.0,0.0,311.30739909998374,,,,,,,,,311.2938910999801,312.5084463999956,313.30983709997963,313.29318519998924,313.2932141999772,313.30983709997963,313.30983709997963,313.30983709997963,314.1121646999964,left,1.0,14.031000600021798,,,,,,,,,,,,,,,,,,,,,,,,,,,,,,,sub-126,1.0,random_dot,60.19197629699565,
right,right,speed,,,,,0.0,1.0,1.0,1.0,10.0,0.0,20.0,1.0,314.1262726999994,,,,,,,,,314.1131440999743,315.3273111000017,316.1291228999908,316.112224099983,316.1122537999763,316.1291228999908,316.1291228999908,316.1291228999908,316.7810833999829,right,1.0,13.877113399998052,,,,,,,,,,,,,,,,,,,,,,,,,,,,,,,sub-126,1.0,random_dot,60.19197629699565,
left,left,speed,,,,,0.0,1.0,1.0,1.0,10.0,1.0,21.0,0.0,316.795312799979,,,,,,,,,316.7822504999931,317.14566280000145,317.9471817999729,317.9304951999802,317.930523899995,317.9471817999729,317.9471817999729,317.9471817999729,318.7663274999941,left,1.0,14.05414560000645,,,,,,,,,,,,,,,,,,,,,,,,,,,,,,,sub-126,1.0,random_dot,60.19197629699565,
right,right,speed,,,,,0.0,1.0,1.0,1.0,11.0,0.0,22.0,1.0,318.7801095999894,,,,,,,,,318.7675216999778,319.5808544999745,320.3825196999824,320.36572169998544,320.3657577999984,320.3825196999824,320.3825196999824,320.3825196999824,320.95049719998497,right,1.0,13.804124499991303,,,,,,,,,,,,,,,,,,,,,,,,,,,,,,,sub-126,1.0,random_dot,60.19197629699565,
left,left,speed,,,,,0.0,1.0,1.0,1.0,11.0,1.0,23.0,0.0,320.9653521,,,,,,,,,320.9511606999731,322.1664668000012,322.9680485999852,322.95128759997897,322.9513151999854,322.9680485999852,322.9680485999852,322.9680485999852,323.55351430000155,left,1.0,13.820387400017353,,,,,,,,,,,,,,,,,,,,,,,,,,,,,,,sub-126,1.0,random_dot,60.19197629699565,
right,right,speed,,,,,0.0,1.0,1.0,1.0,12.0,0.0,24.0,1.0,323.567390399985,,,,,,,,,323.55458099997486,324.76851979998173,325.5702107999823,325.5530797999818,325.55311249999795,325.5702107999823,325.5702107999823,325.5702107999823,326.98919079999905,right,1.0,14.646939600032056,,,,,,,,,,,,,,,,,,,,,,,,,,,,,,,sub-126,1.0,random_dot,60.19197629699565,
left,left,speed,,,,,0.0,1.0,1.0,1.0,12.0,1.0,25.0,0.0,327.00363259998267,,,,,,,,,326.9900972999749,327.8045463000017,328.60581739997724,328.5891766999848,328.5892035999859,328.60581739997724,328.60581739997724,328.60581739997724,329.058065899997,left,1.0,13.692105400026776,,,,,,,,,,,,,,,,,,,,,,,,,,,,,,,sub-126,1.0,random_dot,60.19197629699565,
left,left,speed,,,,,0.0,1.0,1.0,1.0,13.0,0.0,26.0,0.0,329.0722076999955,,,,,,,,,329.0587430000014,329.4224376999773,330.2238378999755,330.2071463999746,330.2071684999973,330.2238378999755,330.2238378999755,330.2238378999755,330.7923395999824,left,1.0,13.800144700013334,,,,,,,,,,,,,,,,,,,,,,,,,,,,,,,sub-126,1.0,random_dot,60.19197629699565,
right,right,speed,,,,,0.0,1.0,1.0,1.0,13.0,1.0,27.0,1.0,330.8068459999922,,,,,,,,,330.7932533999847,332.0078685999906,332.809240499977,332.79308039997704,332.79310989999794,332.809240499977,332.809240499977,332.809240499977,333.51154729997506,right,1.0,13.936173499998404,,,,,,,,,,,,,,,,,,,,,,,,,,,,,,,sub-126,1.0,random_dot,60.19197629699565,
left,left,speed,,,,,0.0,1.0,1.0,1.0,14.0,0.0,28.0,0.0,333.5257005999738,,,,,,,,,333.51250329997856,334.7271706999745,335.5284473999928,335.5116557999864,335.5116860999842,335.5284473999928,335.5284473999928,335.5284473999928,336.1468173999747,left,1.0,13.851006900018549,,,,,,,,,,,,,,,,,,,,,,,,,,,,,,,sub-126,1.0,random_dot,60.19197629699565,
right,right,speed,,,,,0.0,1.0,1.0,1.0,14.0,1.0,29.0,1.0,336.1612439999881,,,,,,,,,336.148040399974,336.2614865999785,337.0630036999937,337.0460927999811,337.04611499997554,337.0630036999937,337.0630036999937,337.0630036999937,338.0656365999894,left,0.0,14.229628400033109,,,,,,,,,,,,,,,,,,,,,,,,,,,,,,,sub-126,1.0,random_dot,60.19197629699565,
right,right,speed,,,,,0.0,1.0,1.0,1.0,15.0,0.0,30.0,1.0,338.0795223999885,,,,,,,,,338.0672043999948,338.88021059997845,339.6815748999943,339.66498760000104,339.66502639997634,339.6815748999943,339.6815748999943,339.6815748999943,341.0845517999842,right,1.0,14.641851700027471,,,,,,,,,,,,,,,,,,,,,,,,,,,,,,,sub-126,1.0,random_dot,60.19197629699565,
left,left,speed,,,,,0.0,1.0,1.0,1.0,15.0,1.0,31.0,0.0,341.0984941999777,,,,,,,,,341.08546209998894,342.2996886999754,343.1011355999799,343.0846854999836,343.0847199999844,343.1011355999799,343.1011355999799,343.1011355999799,344.05419109997456,left,1.0,14.182145500002662,,,,,,,,,,,,,,,,,,,,,,,,,,,,,,,sub-126,1.0,random_dot,60.19197629699565,
right,right,speed,,,,,0.0,1.0,1.0,1.0,16.0,0.0,32.0,1.0,344.0677463999891,,,,,,,,,344.055520599999,344.1680887999828,344.9699147999927,344.9528276999772,344.9528555999859,344.9699147999927,344.9699147999927,344.9699147999927,345.97151439997833,left,0.0,14.237068000016734,,,,,,,,,,,,,,,,,,,,,,,,,,,,,,,sub-126,1.0,random_dot,60.19197629699565,
left,left,speed,,,,,0.0,1.0,1.0,1.0,16.0,1.0,33.0,0.0,345.98600589999114,,,,,,,,,345.9726222999743,346.7868048999808,347.58824749998166,347.5714541999914,347.57148079999024,347.58824749998166,347.58824749998166,347.58824749998166,348.1238881999743,right,0.0,13.765546600014204,,,,,,,,,,,,,,,,,,,,,,,,,,,,,,,sub-126,1.0,random_dot,60.19197629699565,
left,left,speed,,,,,0.0,1.0,1.0,1.0,17.0,0.0,34.0,0.0,348.1378020999837,,,,,,,,,348.12523089998285,349.3389471999835,350.1406502999889,350.1239140999969,350.1239523999975,350.1406502999889,350.1406502999889,350.1406502999889,350.70922249997966,right,0.0,13.80639800001518,,,,,,,,,,,,,,,,,,,,,,,,,,,,,,,sub-126,1.0,random_dot,60.19197629699565,
right,right,speed,,,,,0.0,1.0,1.0,1.0,17.0,1.0,35.0,1.0,350.723499499989,,,,,,,,,350.71045869999216,351.5240630999906,352.32576889998745,352.3090312999848,352.30905439998605,352.32576889998745,352.32576889998745,352.32576889998745,352.8942002999829,left,0.0,13.79496310002287,,,,,,,,,,,,,,,,,,,,,,,,,,,,,,,sub-126,1.0,random_dot,60.19197629699565,
left,left,speed,,,,,0.0,1.0,1.0,1.0,18.0,0.0,36.0,0.0,352.90818259998923,,,,,,,,,352.8952010999783,353.7091271999816,354.510733699979,354.4939791999932,354.49401709999074,354.510733699979,354.510733699979,354.510733699979,355.1964211000013,left,1.0,13.91856240000925,,,,,,,,,,,,,,,,,,,,,,,,,,,,,,,sub-126,1.0,random_dot,60.19197629699565,
right,right,speed,,,,,0.0,1.0,1.0,1.0,18.0,1.0,37.0,1.0,355.21050399998785,,,,,,,,,355.19771569999284,355.5608213999949,356.3623652999813,356.3457527999999,356.3457912999729,356.3623652999813,356.3623652999813,356.3623652999813,357.6975657999865,right,1.0,14.570917600009125,,,,,,,,,,,,,,,,,,,,,,,,,,,,,,,sub-126,1.0,random_dot,60.19197629699565,
right,right,speed,,,,,0.0,1.0,1.0,1.0,19.0,0.0,38.0,1.0,357.7120303999982,,,,,,,,,357.6984580999997,358.51297389998217,359.3149839999969,359.29813929999364,359.29817339999136,359.3149839999969,359.3149839999969,359.3149839999969,359.9004425999883,left,0.0,13.817770400026347,,,,,,,,,,,,,,,,,,,,,,,,,,,,,,,sub-126,1.0,random_dot,60.19197629699565,
left,left,speed,,,,,0.0,1.0,1.0,1.0,19.0,1.0,39.0,0.0,359.91453919999185,,,,,,,,,359.9017749999766,360.0144211000006,360.8157661999867,360.7989292999846,360.7989478999807,360.8157661999867,360.8157661999867,360.8157661999867,361.6015965999977,left,1.0,14.021716600022046,,,,,,,,,,,,,,,,,,,,,,,,,,,,,,,sub-126,1.0,random_dot,60.19197629699565,
left,left,speed,,,,,0.0,1.0,1.0,1.0,20.0,0.0,40.0,0.0,361.6155517000007,,,,,,,,,361.6027100999781,361.7158720000007,362.51750319998246,362.50075709997327,362.5007776999846,362.51750319998246,362.51750319998246,362.51750319998246,363.3864671999763,right,0.0,14.104544500034535,,,,,,,,,,,,,,,,,,,,,,,,,,,,,,,sub-126,1.0,random_dot,60.19197629699565,
right,right,speed,,,,,0.0,1.0,1.0,1.0,20.0,1.0,41.0,1.0,363.4005651999905,,,,,,,,,363.3878828999877,364.2010783999867,365.0029096999788,364.9861772999866,364.98619989998406,365.0029096999788,365.0029096999788,365.0029096999788,365.7045286999783,left,0.0,13.932198700029405,,,,,,,,,,,,,,,,,,,,,,,,,,,,,,,sub-126,1.0,random_dot,60.19197629699565,
right,right,speed,,,,,0.0,1.0,1.0,1.0,21.0,0.0,42.0,1.0,365.7191367999767,,,,,,,,,365.7054819999903,365.819167699985,366.6206548999762,366.6044097999984,366.6044417999801,366.6206548999762,366.6206548999762,366.6206548999762,367.45578119999846,left,0.0,14.068836900027236,,,,,,,,,,,,,,,,,,,,,,,,,,,,,,,sub-126,1.0,random_dot,60.19197629699565,
left,left,speed,,,,,0.0,1.0,1.0,1.0,21.0,1.0,43.0,0.0,367.47032599998056,,,,,,,,,367.4566340999736,368.2711875999812,369.0727981999808,369.05630729999393,369.0563441999839,369.0727981999808,369.0727981999808,369.0727981999808,369.9590293999936,right,0.0,14.116626500035636,,,,,,,,,,,,,,,,,,,,,,,,,,,,,,,sub-126,1.0,random_dot,60.19197629699565,
left,left,speed,,,,,0.0,1.0,1.0,1.0,22.0,0.0,44.0,0.0,369.97270289997687,,,,,,,,,369.9610554999963,370.0727681999852,370.874248099979,370.8575332999753,370.8575532999821,370.874248099979,370.874248099979,370.874248099979,371.8605761999788,right,0.0,14.213751000032062,,,,,,,,,,,,,,,,,,,,,,,,,,,,,,,sub-126,1.0,random_dot,60.19197629699565,
right,right,speed,,,,,0.0,1.0,1.0,1.0,22.0,1.0,45.0,1.0,371.87418230000185,,,,,,,,,371.8621355999785,372.2245732999872,373.0260265999823,373.0091268999968,373.0091455999936,373.0260265999823,373.0260265999823,373.0260265999823,373.91190719997394,left,0.0,14.122387300012631,,,,,,,,,,,,,,,,,,,,,,,,,,,,,,,sub-126,1.0,random_dot,60.19197629699565,
left,left,speed,,,,,0.0,1.0,1.0,1.0,23.0,0.0,46.0,0.0,373.9258570999955,,,,,,,,,373.9131340999738,374.72689659998287,375.52800389999175,375.5116224999947,375.5116592999839,375.52800389999175,375.52800389999175,375.52800389999175,376.53024469999946,right,0.0,14.23343860002933,,,,,,,,,,,,,,,,,,,,,,,,,,,,,,,sub-126,1.0,random_dot,60.19197629699565,
right,right,speed,,,,,0.0,1.0,1.0,1.0,23.0,1.0,47.0,1.0,376.544572999992,,,,,,,,,376.5310797999846,376.6448200999876,377.4462835000013,377.4299860999745,377.43001669997466,377.4462835000013,377.4462835000013,377.4462835000013,378.5321181999752,right,1.0,14.317367100011325,,,,,,,,,,,,,,,,,,,,,,,,,,,,,,,sub-126,1.0,random_dot,60.19197629699565,
left,left,speed,,,,,0.0,1.0,1.0,1.0,24.0,0.0,48.0,0.0,378.54652249999344,,,,,,,,,378.5330475999799,378.6466060999956,379.4480574999761,379.4316398999945,379.431680299982,379.4480574999761,379.4480574999761,379.4480574999761,380.0500400999736,right,0.0,13.82745550002437,,,,,,,,,,,,,,,,,,,,,,,,,,,,,,,sub-126,1.0,random_dot,60.19197629699565,
right,right,speed,,,,,0.0,1.0,1.0,1.0,24.0,1.0,49.0,1.0,380.0644748999912,,,,,,,,,380.0513333999843,381.2654406999936,382.06716059998143,382.0502298999927,382.0502655000018,382.06716059998143,382.06716059998143,382.06716059998143,382.7687269999879,left,0.0,13.93308060002164,,,,,,,,,,,,,,,,,,,,,,,,,,,,,,,sub-126,1.0,random_dot,60.19197629699565,
right,right,speed,,,,,0.0,1.0,1.0,1.0,25.0,0.0,50.0,1.0,382.7830382999964,,,,,,,,,382.7703005999792,382.8834976999788,383.6848643999838,383.6679048999795,383.66792719997466,383.6848643999838,383.6848643999838,383.6848643999838,384.3033700999804,left,0.0,13.85005020000972,,,,,,,,,,,,,,,,,,,,,,,,,,,,,,,sub-126,1.0,random_dot,60.19197629699565,
left,left,speed,,,,,0.0,1.0,1.0,1.0,25.0,1.0,51.0,0.0,384.31779419997474,,,,,,,,,384.3042047999916,384.66819139997824,385.469912999979,385.4529096999904,385.45293519998086,385.469912999979,385.469912999979,385.469912999979,386.0215730999771,left,1.0,13.776068000035592,,,,,,,,,,,,,,,,,,,,,,,,,,,,,,,sub-126,1.0,random_dot,60.19197629699565,
left,left,speed,,,,,0.0,1.0,1.0,1.0,26.0,0.0,52.0,0.0,386.0359184999834,,,,,,,,,386.0224645999842,386.8365511999873,387.6383386999951,387.6211920999922,387.6212468999729,387.6383386999951,387.6383386999951,387.6383386999951,388.2563863999967,right,0.0,13.855199100013124,,,,,,,,,,,,,,,,,,,,,,,,,,,,,,,sub-126,1.0,random_dot,60.19197629699565,
right,right,speed,,,,,0.0,1.0,1.0,1.0,26.0,1.0,53.0,1.0,388.2709245999868,,,,,,,,,388.2571184999833,388.37132619999466,389.1725813999946,389.15616339998087,389.1562181999907,389.1725813999946,389.1725813999946,389.1725813999946,389.89171879997593,right,1.0,13.952219300030263,,,,,,,,,,,,,,,,,,,,,,,,,,,,,,,sub-126,1.0,random_dot,60.19197629699565,
left,left,speed,,,,,0.0,1.0,1.0,1.0,27.0,0.0,54.0,0.0,389.9058293999988,,,,,,,,,389.89238599999226,390.2561795999936,391.0578775999893,391.0409214999818,391.0409411999863,391.0578775999893,391.0578775999893,391.0578775999893,391.7429002999852,right,0.0,13.912733000004664,,,,,,,,,,,,,,,,,,,,,,,,,,,,,,,sub-126,1.0,random_dot,60.19197629699565,
right,right,speed,,,,,0.0,1.0,1.0,1.0,27.0,1.0,55.0,1.0,391.7574192999746,,,,,,,,,391.74384989999817,392.5582220999932,393.3597045999777,393.3430041999964,393.3430303999921,393.3597045999777,393.3597045999777,393.3597045999777,393.92811739997705,left,0.0,13.804574100009631,,,,,,,,,,,,,,,,,,,,,,,,,,,,,,,sub-126,1.0,random_dot,60.19197629699565,
right,right,speed,,,,,0.0,1.0,1.0,1.0,28.0,0.0,56.0,1.0,393.9426092999929,,,,,,,,,393.9292916999839,394.292738499993,395.0944901999901,395.07808809998096,395.07811760000186,395.0944901999901,395.0944901999901,395.0944901999901,395.52993609997793,left,0.0,13.660462900006678,,,,,,,,,,,,,,,,,,,,,,,,,,,,,,,sub-126,1.0,random_dot,60.19197629699565,
left,left,speed,,,,,0.0,1.0,1.0,1.0,28.0,1.0,57.0,0.0,395.5437796999759,,,,,,,,,395.53136349999113,395.643934199994,396.4457529999781,396.4288121999998,396.4288333999866,396.4457529999781,396.4457529999781,396.4457529999781,397.0968862999871,left,1.0,13.88492480001878,,,,,,,,,,,,,,,,,,,,,,,,,,,,,,,sub-126,1.0,random_dot,60.19197629699565,
left,left,speed,,,,,0.0,1.0,1.0,1.0,29.0,0.0,58.0,0.0,397.1117662999896,,,,,,,,,397.09759140000097,397.9125724999758,398.7142255999788,398.6973705999844,398.6973958999733,398.7142255999788,398.7142255999788,398.7142255999788,399.3498696999741,right,0.0,13.874927199998638,,,,,,,,,,,,,,,,,,,,,,,,,,,,,,,sub-126,1.0,random_dot,60.19197629699565,
right,right,speed,,,,,0.0,1.0,1.0,1.0,29.0,1.0,59.0,1.0,399.3637943999784,,,,,,,,,399.3511549999821,399.7140426999831,400.5156464999891,400.49863149999874,400.4986501999956,400.5156464999891,400.5156464999891,400.5156464999891,401.2677422999986,right,1.0,13.981641899998069,,,,,,,,,,,,,,,,,,,,,,,,,,,,,,,sub-126,1.0,random_dot,60.19197629699565,
,,speed,,,,,0.0,1.0,1.0,1.0,,,,,,,,,,,,,,,,,,,,,,,,,,,,,,,,,,,,,,,,,,,,,,,,,,,,,,,,sub-126,1.0,random_dot,60.19197629699565,
,,,,,,,,,,,,,,,,,,,,,,,,,,,,,,,,,,,,,,,,,,,,,,,,,,,,,,,,,,,,,,,401.2690348999749,401.28188219998265,406.269507399993,sub-126,,,,
