direction,corrAns,randomInstr,practice_trials.thisRepN,practice_trials.thisTrialN,practice_trials.thisN,practice_trials.thisIndex,instr_trials.thisRepN,instr_trials.thisTrialN,instr_trials.thisN,instr_trials.thisIndex,test_trials.thisRepN,test_trials.thisTrialN,test_trials.thisN,test_trials.thisIndex,thisRow.t,notes,general_instruction.started,textGeneralInstr.started,respGeneralInstr.started,general_instruction.stopped,respGeneralInstr.keys,respGeneralInstr.rt,respGeneralInstr.duration,ITI.started,fixcross.started,fixcross.stopped,ITI.stopped,dots.started,backgroundDots.started,stimulusDots.started,respDots.started,dots.stopped,respDots.keys,respDots.corr,respDots.rt,respDots.duration,feedback.started,textFeedback.started,feedback.stopped,textFeedback.stopped,info.started,textInfo.started,keyRespInfo.started,info.stopped,keyRespInfo.keys,keyRespInfo.rt,keyRespInfo.duration,test_instruction.started,textTestInstr.started,respTestInstr.started,test_instruction.stopped,respTestInstr.keys,respTestInstr.rt,respTestInstr.duration,random_instruction.started,textRandomInstr.started,respRandomInstr.started,random_instruction.stopped,respRandomInstr.keys,respRandomInstr.rt,respRandomInstr.duration,goodbye.started,textGoodbye.started,textGoodbye.stopped,goodbye.stopped,participant,session,expName,frameRate,Unnamed: 73
,,,,,,,,,,,,,,,,,0.0148579999804496,0.0191014000447466,0.0191014000447466,60.82865000003949,space,77.83383160002995,,,,,,,,,,,,,,,,,,,,,,,,,,,,,,,,,,,,,,,,,,,,sub-172,1.0,random_dot,60.16687885108824,
left,left,,0.0,0.0,0.0,0.0,,,,,,,,,60.865423100069165,,,,,,,,,60.86198769998737,61.64244199998211,62.44288059999235,62.42646149999928,62.426482500042766,62.44288059999235,62.44288059999235,62.44288059999235,63.82773450005334,left,1.0,18.40802239999175,,63.83060920005664,63.84485360002145,64.34289550001267,,,,,,,,,,,,,,,,,,,,,,,,,,,sub-172,1.0,random_dot,60.16687885108824,
right,right,,0.0,1.0,1.0,1.0,,,,,,,,,64.35920279996935,,,,,,,,,64.34334500005934,64.44259960006457,65.24305699998513,65.2261739000678,65.22620330005884,65.24305699998513,65.24305699998513,65.24305699998513,66.99420209997334,left,0.0,18.7711359000532,,66.99476669996511,67.00897560000885,67.49322790000588,67.50927290006075,,,,,,,,,,,,,,,,,,,,,,,,,,sub-172,1.0,random_dot,60.16687885108824,
right,right,,1.0,0.0,2.0,1.0,,,,,,,,,67.50927290006075,,,,,,,,,67.49358240002766,68.30898059997708,69.10971690004226,69.09366510005202,69.09369250002783,69.10971690004226,69.10971690004226,69.10971690004226,70.0607971000718,right,1.0,17.970802099909633,,70.0613769000629,70.0756626999937,70.55966799997259,70.57564359996468,,,,,,,,,,,,,,,,,,,,,,,,,,sub-172,1.0,random_dot,60.16687885108824,
left,left,,1.0,1.0,3.0,0.0,,,,,,,,,70.57564359996468,,,,,,,,,70.56012510007713,70.6759237999795,71.47587720002048,71.45964080002159,71.45966719998978,71.47587720002048,71.47587720002048,71.47587720002048,72.39399250003044,left,1.0,17.941921600024216,,72.39465330005623,72.4090070000384,72.89314020005986,72.9088946999982,,,,,,,,,,,,,,,,,,,,,,,,,,sub-172,1.0,random_dot,60.16687885108824,
right,right,,2.0,0.0,4.0,1.0,,,,,,,,,72.9088946999982,,,,,,,,,72.89354900002945,73.25923299998976,74.06005209998693,74.04327909997664,74.04330889997073,74.06005209998693,74.06005209998693,74.06005209998693,74.96000640001148,right,1.0,17.912755299941637,,74.96057460003067,74.97551280003972,75.46018539997749,75.47557380003855,,,,,,,,,,,,,,,,,,,,,,,,,,sub-172,1.0,random_dot,60.16687885108824,
left,left,,2.0,1.0,5.0,0.0,,,,,,,,,75.47557380003855,,,,,,,,,75.46061479998752,75.82549279998057,76.62675880000461,76.61004349996801,76.6100702000549,76.62675880000461,76.62675880000461,76.62675880000461,78.01046250003856,left,1.0,18.397372599923983,,78.01110650005285,78.02590410003904,78.50994250003714,78.52597780001815,,,,,,,,,,,,,,,,,,,,,,,,,,sub-172,1.0,random_dot,60.16687885108824,
right,right,,3.0,0.0,6.0,1.0,,,,,,,,,78.52597780001815,,,,,,,,,78.51041820005048,79.32556620007381,80.12611960002687,80.10987070004921,80.10990070004482,80.12611960002687,80.12611960002687,80.12611960002687,80.86067850003019,right,1.0,17.756476799957454,,80.86139890004415,80.87566380004864,81.35939920006786,81.37573059997521,,,,,,,,,,,,,,,,,,,,,,,,,,sub-172,1.0,random_dot,60.16687885108824,
left,left,,3.0,1.0,7.0,0.0,,,,,,,,,81.37573059997521,,,,,,,,,81.35981599998195,81.47599810000975,82.27633740007877,82.26017000002321,82.2601937999716,82.27633740007877,82.27633740007877,82.27633740007877,83.34393119998276,left,1.0,18.077687800046988,,83.34461280005053,83.35914980003145,83.84315400000196,83.85952709999401,,,,,,,,,,,,,,,,,,,,,,,,,,sub-172,1.0,random_dot,60.16687885108824,
left,left,,4.0,0.0,8.0,0.0,,,,,,,,,83.85952709999401,,,,,,,,,83.84361930005252,85.05911729997024,85.85964090004563,85.84327900002245,85.84330539999064,85.85964090004563,85.85964090004563,85.85964090004563,87.36095100000966,left,1.0,18.512792199966498,,87.3614875000203,87.37579129997175,87.85966339998413,87.8761679000454,,,,,,,,,,,,,,,,,,,,,,,,,,sub-172,1.0,random_dot,60.16687885108824,
right,right,,4.0,1.0,9.0,1.0,,,,,,,,,87.8761679000454,,,,,,,,,87.8602102000732,87.9760395999765,88.77617289999034,88.76030470000114,88.76033750001807,88.77617289999034,88.77617289999034,88.77617289999034,89.44389540003613,right,1.0,17.684513300075196,,89.44449250004254,89.45923160004895,89.9431514000753,89.95912220003083,,,,,,,,,,,,,,,,,,,,,,,,,,sub-172,1.0,random_dot,60.16687885108824,
left,left,,5.0,0.0,10.0,0.0,,,,,,,,,89.95912220003083,,,,,,,,,89.94365879998077,91.15928290004376,91.95971439999994,91.94314840005244,91.94317029998638,91.95971439999994,91.95971439999994,91.95971439999994,93.07816530007403,left,1.0,18.14246609993279,,93.07943090004846,93.09261819999664,93.5772448000498,93.59240740002132,,,,,,,,,,,,,,,,,,,,,,,,,,sub-172,1.0,random_dot,60.16687885108824,
right,right,,5.0,1.0,11.0,1.0,,,,,,,,,93.59240740002132,,,,,,,,,93.577908199979,94.39259479998144,95.1927845000755,95.17639320006128,95.17641950002871,95.1927845000755,95.1927845000755,95.1927845000755,95.96044659998734,left,0.0,17.77780420007184,,95.96106020000298,95.9759685000172,96.45927850005684,96.4760650000535,,,,,,,,,,,,,,,,,,,,,,,,,,sub-172,1.0,random_dot,60.16687885108824,
right,right,,6.0,0.0,12.0,1.0,,,,,,,,,96.4760650000535,,,,,,,,,96.45972390007228,96.82573380006944,97.6262406000169,97.60971150000114,97.60973120003472,97.6262406000169,97.6262406000169,97.6262406000169,98.4445458999835,right,1.0,17.83717269997578,,98.44518609996884,98.45953150000425,98.94328730006237,98.95928339997772,,,,,,,,,,,,,,,,,,,,,,,,,,sub-172,1.0,random_dot,60.16687885108824,
left,left,,6.0,1.0,13.0,0.0,,,,,,,,,98.95928339997772,,,,,,,,,98.943673199974,99.30906610004604,100.10966920002828,100.09292680001818,100.0929469000548,100.10966920002828,100.10966920002828,100.10966920002828,102.12704829999711,right,0.0,19.033313199994154,,102.12767539999912,102.14229650003836,102.626093900064,102.64230960002168,,,,,,,,,,,,,,,,,,,,,,,,,,sub-172,1.0,random_dot,60.16687885108824,
right,right,,7.0,0.0,14.0,1.0,,,,,,,,,102.64230960002168,,,,,,,,,102.62661839998329,103.44289639999624,104.24285649997182,104.22623759997076,104.22626380005386,104.24285649997182,104.24285649997182,104.24285649997182,106.42696459998842,left,0.0,19.20272359997034,,106.42755540006328,106.44212040002458,106.92666029999964,106.94231640000362,,,,,,,,,,,,,,,,,,,,,,,,,,sub-172,1.0,random_dot,60.16687885108824,
left,left,,7.0,1.0,15.0,0.0,,,,,,,,,106.94231640000362,,,,,,,,,106.92716189997736,107.29232370003592,108.09325010003522,108.0762648000382,108.07628120004664,108.09325010003522,108.09325010003522,108.09325010003522,109.66054419998544,right,0.0,18.582486400031485,,109.66104629996698,109.67583369999193,110.15970519999972,110.17585480003618,,,,,,,,,,,,,,,,,,,,,,,,,,sub-172,1.0,random_dot,60.16687885108824,
right,right,,8.0,0.0,16.0,1.0,,,,,,,,,110.17585480003618,,,,,,,,,110.16012100002264,110.97601550002582,111.77609709999524,111.75947000004815,111.7594963000156,111.77609709999524,111.77609709999524,111.77609709999524,113.9608743999852,right,1.0,19.19441400002688,,113.9614067999646,113.97572570003103,114.45949849998578,114.47572480002418,,,,,,,,,,,,,,,,,,,,,,,,,,sub-172,1.0,random_dot,60.16687885108824,
left,left,,8.0,1.0,17.0,0.0,,,,,,,,,114.47572480002418,,,,,,,,,114.45980110007804,114.82572379999328,115.62611030007248,115.609300000011,115.60931920004076,115.62611030007248,115.62611030007248,115.62611030007248,116.87781840004028,left,1.0,18.271579699940048,,116.87849300005472,116.89274539996404,117.37608920002822,117.39227519999258,,,,,,,,,,,,,,,,,,,,,,,,,,sub-172,1.0,random_dot,60.16687885108824,
right,right,,9.0,0.0,18.0,1.0,,,,,,,,,117.39227519999258,,,,,,,,,117.37651540001389,117.4927572000306,118.29299960006028,118.27673460007644,118.27676250005608,118.29299960006028,118.29299960006028,118.29299960006028,119.4440499000484,left,0.0,18.17217849998269,,119.44478100002743,119.45912500005215,119.9432515000226,119.9592105000047,,,,,,,,,,,,,,,,,,,,,,,,,,sub-172,1.0,random_dot,60.16687885108824,
left,left,,9.0,1.0,19.0,0.0,,,,,,,,,119.9592105000047,,,,,,,,,119.94358790002298,120.05894909997004,120.85993350006174,120.84369760006666,120.84372720005922,120.85993350006174,120.85993350006174,120.85993350006174,121.57730890007224,right,0.0,17.73765739996452,,121.57787340006324,121.59281920001376,122.07641290000174,122.09277760004623,,,,,,,,,,,,,,,,,,,,,,,,,,sub-172,1.0,random_dot,60.16687885108824,
,,,,,,,,,,,,,,,,,,,,,,,,,,,,,,,,,,,,,,,,,122.07647099997848,122.09277760004623,122.09277760004623,125.94366630003788,space,20.871032299939543,,,,,,,,,,,,,,,,,,,,sub-172,1.0,random_dot,60.16687885108824,
,,,,,,,,,,,,,,,,,,,,,,,,,,,,,,,,,,,,,,,,,,,,,,,,125.94369640003424,125.95942460000516,125.95942460000516,133.77673579996917,space,24.830059900064956,,,,,,,,,,,,,sub-172,1.0,random_dot,60.16687885108824,
right,right,accuracy,,,,,0.0,0.0,0.0,0.0,0.0,0.0,0.0,1.0,138.8258689000504,,,,,,,,,138.8170077999821,140.02602069999557,140.82614480005577,140.8099505000282,140.80997569998726,140.82614480005577,140.82614480005577,140.82614480005577,141.94408779998776,right,1.0,18.13506849994883,,,,,,,,,,,,,,,,,,,,133.78971200005617,133.80532529996708,133.80532529996708,138.81036220001988,space,22.02257299993653,,,,,,sub-172,1.0,random_dot,60.16687885108824,
left,left,accuracy,,,,,0.0,0.0,0.0,0.0,0.0,1.0,1.0,0.0,141.95914409996476,,,,,,,,,141.94518350006547,143.15937120001763,143.9598492999794,143.94353420007974,143.9435507999733,143.9598492999794,143.9598492999794,143.9598492999794,145.07719860004727,left,1.0,18.127691000001505,,,,,,,,,,,,,,,,,,,,,,,,,,,,,,,sub-172,1.0,random_dot,60.16687885108824,
right,right,accuracy,,,,,0.0,0.0,0.0,0.0,1.0,0.0,2.0,1.0,145.09267170005478,,,,,,,,,145.07840120000765,146.2928435000358,147.09316569997463,147.0762551999651,147.07628350006416,147.09316569997463,147.09316569997463,147.09316569997463,148.01070780004375,right,1.0,17.931015000096522,,,,,,,,,,,,,,,,,,,,,,,,,,,,,,,sub-172,1.0,random_dot,60.16687885108824,
left,left,accuracy,,,,,0.0,0.0,0.0,0.0,1.0,1.0,3.0,0.0,148.025951800053,,,,,,,,,148.01138040004298,148.1258542999858,148.92648889997508,148.910093100043,148.91011749999598,148.92648889997508,148.92648889997508,148.92648889997508,149.99407630006317,left,1.0,18.087305899942294,,,,,,,,,,,,,,,,,,,,,,,,,,,,,,,sub-172,1.0,random_dot,60.16687885108824,
right,right,accuracy,,,,,0.0,0.0,0.0,0.0,2.0,0.0,4.0,1.0,150.00944270007312,,,,,,,,,149.99491250002757,151.20949669997208,152.0097460000543,151.99319179996382,151.99322020006366,152.0097460000543,152.0097460000543,152.0097460000543,153.6448579999851,left,0.0,18.659775899956003,,,,,,,,,,,,,,,,,,,,,,,,,,,,,,,sub-172,1.0,random_dot,60.16687885108824,
left,left,accuracy,,,,,0.0,0.0,0.0,0.0,2.0,1.0,5.0,0.0,153.65894610004034,,,,,,,,,153.6465144000249,153.7592805000022,154.55948220007122,154.54302730003835,154.54305770003702,154.55948220007122,154.55948220007122,154.55948220007122,155.77677400002722,left,1.0,18.22972310008481,,,,,,,,,,,,,,,,,,,,,,,,,,,,,,,sub-172,1.0,random_dot,60.16687885108824,
right,right,accuracy,,,,,0.0,0.0,0.0,0.0,3.0,0.0,6.0,1.0,155.792649500072,,,,,,,,,155.77775090001523,156.14237330004107,156.9429991999641,156.92629890004173,156.9263361999765,156.9429991999641,156.9429991999641,156.9429991999641,158.010547199985,right,1.0,18.077417600085028,,,,,,,,,,,,,,,,,,,,,,,,,,,,,,,sub-172,1.0,random_dot,60.16687885108824,
left,left,accuracy,,,,,0.0,0.0,0.0,0.0,3.0,1.0,7.0,0.0,158.02583419997245,,,,,,,,,158.01119790005032,158.3756727,159.17620830005035,159.1601926999865,159.16020549996756,159.17620830005035,159.17620830005035,159.17620830005035,160.3439816000173,left,1.0,18.188784900004972,,,,,,,,,,,,,,,,,,,,,,,,,,,,,,,sub-172,1.0,random_dot,60.16687885108824,
left,left,accuracy,,,,,0.0,0.0,0.0,0.0,4.0,0.0,8.0,0.0,160.35902450000867,,,,,,,,,160.34454910003114,160.70897779997904,161.50960840005428,161.49282180005684,161.49284369999077,161.50960840005428,161.50960840005428,161.50960840005428,162.61122550000437,left,1.0,18.11322359996848,,,,,,,,,,,,,,,,,,,,,,,,,,,,,,,sub-172,1.0,random_dot,60.16687885108824,
right,right,accuracy,,,,,0.0,0.0,0.0,0.0,4.0,1.0,9.0,1.0,162.62591940001585,,,,,,,,,162.61250879999716,163.4256439000601,164.22640330006834,164.21013899997342,164.21016050002072,164.22640330006834,164.22640330006834,164.22640330006834,165.56105430005118,left,0.0,18.355957600055262,,,,,,,,,,,,,,,,,,,,,,,,,,,,,,,sub-172,1.0,random_dot,60.16687885108824,
right,right,accuracy,,,,,0.0,0.0,0.0,0.0,5.0,0.0,10.0,1.0,165.57577510003466,,,,,,,,,165.56235090002883,166.77566240006126,167.5761874000309,167.55984580004588,167.55985940003302,167.5761874000309,167.5761874000309,167.5761874000309,168.910378200002,left,0.0,18.34726740000769,,,,,,,,,,,,,,,,,,,,,,,,,,,,,,,sub-172,1.0,random_dot,60.16687885108824,
left,left,accuracy,,,,,0.0,0.0,0.0,0.0,5.0,1.0,11.0,0.0,168.92574149998836,,,,,,,,,168.91121230006684,169.0258853000123,169.82660789997317,169.80971100006718,169.80974830000196,169.82660789997317,169.82660789997317,169.82660789997317,171.09398989996407,left,1.0,18.277750100009143,,,,,,,,,,,,,,,,,,,,,,,,,,,,,,,sub-172,1.0,random_dot,60.16687885108824,
left,left,accuracy,,,,,0.0,0.0,0.0,0.0,6.0,0.0,12.0,0.0,171.10927120002452,,,,,,,,,171.0956451999955,171.90914510004222,172.70969539997168,172.69288560003042,172.69290799996816,172.70969539997168,172.70969539997168,172.70969539997168,174.11005869996734,left,1.0,18.42018380004447,,,,,,,,,,,,,,,,,,,,,,,,,,,,,,,sub-172,1.0,random_dot,60.16687885108824,
right,right,accuracy,,,,,0.0,0.0,0.0,0.0,6.0,1.0,13.0,1.0,174.12606450007297,,,,,,,,,174.1110319000436,174.47578670002986,175.27634149999358,175.2595794000663,175.2596094000619,175.27634149999358,175.27634149999358,175.27634149999358,176.94412140001077,left,0.0,18.690595499938357,,,,,,,,,,,,,,,,,,,,,,,,,,,,,,,sub-172,1.0,random_dot,60.16687885108824,
right,right,accuracy,,,,,0.0,0.0,0.0,0.0,7.0,0.0,14.0,1.0,176.95923839998432,,,,,,,,,176.94515899999533,177.30891390005127,178.1095983000705,178.09295329998713,178.09297310002148,178.1095983000705,178.1095983000705,178.1095983000705,178.94330240006093,right,1.0,17.854410599917173,,,,,,,,,,,,,,,,,,,,,,,,,,,,,,,sub-172,1.0,random_dot,60.16687885108824,
left,left,accuracy,,,,,0.0,0.0,0.0,0.0,7.0,1.0,15.0,0.0,178.958944800077,,,,,,,,,178.9438370000571,179.29213890002575,180.09306169999763,180.0762200000463,180.0762459000107,180.09306169999763,180.09306169999763,180.09306169999763,180.8605845000129,left,1.0,17.78528899990488,,,,,,,,,,,,,,,,,,,,,,,,,,,,,,,sub-172,1.0,random_dot,60.16687885108824,
left,left,accuracy,,,,,0.0,0.0,0.0,0.0,8.0,0.0,16.0,0.0,180.87595999997572,,,,,,,,,180.86118850007188,182.07567300007213,182.8764380000066,182.8593513000524,182.85937590000685,182.8764380000066,182.8764380000066,182.8764380000066,183.79394810006488,left,1.0,17.93083550001029,,,,,,,,,,,,,,,,,,,,,,,,,,,,,,,sub-172,1.0,random_dot,60.16687885108824,
right,right,accuracy,,,,,0.0,0.0,0.0,0.0,8.0,1.0,17.0,1.0,183.8092283000005,,,,,,,,,183.79508359998,185.0096052000299,185.80965209996796,185.7928459000541,185.7928664999781,185.80965209996796,185.80965209996796,185.80965209996796,187.2436040000757,left,0.0,18.44386790005956,,,,,,,,,,,,,,,,,,,,,,,,,,,,,,,sub-172,1.0,random_dot,60.16687885108824,
left,left,accuracy,,,,,0.0,0.0,0.0,0.0,9.0,0.0,18.0,0.0,187.25900610000824,,,,,,,,,187.24464350007477,187.3593198000453,188.1597061000066,188.14320869999935,188.14323030004743,188.1597061000066,188.1597061000066,188.1597061000066,188.994493199978,left,1.0,17.846044200006872,,,,,,,,,,,,,,,,,,,,,,,,,,,,,,,sub-172,1.0,random_dot,60.16687885108824,
right,right,accuracy,,,,,0.0,0.0,0.0,0.0,9.0,1.0,19.0,1.0,189.00943710003048,,,,,,,,,188.99552240001503,190.20926130004227,191.00968600006308,190.99369669996668,190.993724900065,191.00968600006308,191.00968600006308,191.00968600006308,193.21053020004183,left,0.0,19.217993599944748,,,,,,,,,,,,,,,,,,,,,,,,,,,,,,,sub-172,1.0,random_dot,60.16687885108824,
right,right,accuracy,,,,,0.0,0.0,0.0,0.0,10.0,0.0,20.0,1.0,193.22565649996977,,,,,,,,,193.2110914000077,194.0261047000531,194.8262451000046,194.80963220004924,194.8096584000159,194.8262451000046,194.8262451000046,194.8262451000046,195.82709749997596,right,1.0,18.01946720003616,,,,,,,,,,,,,,,,,,,,,,,,,,,,,,,sub-172,1.0,random_dot,60.16687885108824,
left,left,accuracy,,,,,0.0,0.0,0.0,0.0,10.0,1.0,21.0,0.0,195.8427656000713,,,,,,,,,195.82830519997515,196.642903800006,197.44289120007303,197.42638650001027,197.42640880006363,197.44289120007303,197.44289120007303,197.44289120007303,198.24408330000009,left,1.0,17.810683900024742,,,,,,,,,,,,,,,,,,,,,,,,,,,,,,,sub-172,1.0,random_dot,60.16687885108824,
left,left,accuracy,,,,,0.0,0.0,0.0,0.0,11.0,0.0,22.0,0.0,198.2591419999953,,,,,,,,,198.24518730002453,199.05910279997624,199.85957199998663,199.84321540000383,199.84323910006788,199.85957199998663,199.85957199998663,199.85957199998663,200.8772837000433,right,0.0,18.037170900031924,,,,,,,,,,,,,,,,,,,,,,,,,,,,,,,sub-172,1.0,random_dot,60.16687885108824,
right,right,accuracy,,,,,0.0,0.0,0.0,0.0,11.0,1.0,23.0,1.0,200.89250770001672,,,,,,,,,200.87801039998885,201.69264849997128,202.4928920000093,202.47678230004385,202.47680870001204,202.4928920000093,202.4928920000093,202.4928920000093,203.36072890006471,left,0.0,17.88494450005237,,,,,,,,,,,,,,,,,,,,,,,,,,,,,,,sub-172,1.0,random_dot,60.16687885108824,
left,left,accuracy,,,,,0.0,0.0,0.0,0.0,12.0,0.0,24.0,0.0,203.3758026000578,,,,,,,,,203.36202610004693,204.17613769997843,204.97616179997567,204.95997309999075,204.95999430003576,204.97616179997567,204.97616179997567,204.97616179997567,206.44404980004765,left,1.0,18.481584700057283,,,,,,,,,,,,,,,,,,,,,,,,,,,,,,,sub-172,1.0,random_dot,60.16687885108824,
right,right,accuracy,,,,,0.0,0.0,0.0,0.0,12.0,1.0,25.0,1.0,206.4593365000328,,,,,,,,,206.4452790999785,206.80946939997372,207.6096720000496,207.59283600002527,207.5928557000589,207.6096720000496,207.6096720000496,207.6096720000496,210.2271030000411,right,1.0,19.632081800024025,,,,,,,,,,,,,,,,,,,,,,,,,,,,,,,sub-172,1.0,random_dot,60.16687885108824,
right,right,accuracy,,,,,0.0,0.0,0.0,0.0,13.0,0.0,26.0,1.0,210.2425748000387,,,,,,,,,210.22814879997168,211.44247150002047,212.2433588000713,212.22698969999328,212.22702370001932,212.2433588000713,212.2433588000713,212.2433588000713,213.21042969997507,right,1.0,17.98619399999734,,,,,,,,,,,,,,,,,,,,,,,,,,,,,,,sub-172,1.0,random_dot,60.16687885108824,
left,left,accuracy,,,,,0.0,0.0,0.0,0.0,13.0,1.0,27.0,0.0,213.2259851000272,,,,,,,,,213.2116283000214,214.42602280003484,215.22611739998683,215.2097286999924,215.20977509999648,215.22611739998683,215.22611739998683,215.22611739998683,216.66037369996772,left,1.0,18.45719869993627,,,,,,,,,,,,,,,,,,,,,,,,,,,,,,,sub-172,1.0,random_dot,60.16687885108824,
right,right,accuracy,,,,,0.0,0.0,0.0,0.0,14.0,0.0,28.0,1.0,216.6755100999726,,,,,,,,,216.66146430000663,216.77616780006792,217.5765509000048,217.55983030004427,217.55985499999952,217.5765509000048,217.5765509000048,217.5765509000048,218.8611052000197,right,1.0,18.304930999991484,,,,,,,,,,,,,,,,,,,,,,,,,,,,,,,sub-172,1.0,random_dot,60.16687885108824,
left,left,accuracy,,,,,0.0,0.0,0.0,0.0,14.0,1.0,29.0,0.0,218.87599550001323,,,,,,,,,218.86221409996503,220.0761100000236,220.87640379997904,220.8600901999744,220.8601171000628,220.87640379997904,220.87640379997904,220.87640379997904,221.71048870007508,left,1.0,17.85026660002768,,,,,,,,,,,,,,,,,,,,,,,,,,,,,,,sub-172,1.0,random_dot,60.16687885108824,
left,left,accuracy,,,,,0.0,0.0,0.0,0.0,15.0,0.0,30.0,0.0,221.7258197000483,,,,,,,,,221.71169540006667,222.52608079998757,223.32610439998095,223.3094276000047,223.3094471000368,223.32610439998095,223.32610439998095,223.32610439998095,224.1272380000446,left,1.0,17.8176435000496,,,,,,,,,,,,,,,,,,,,,,,,,,,,,,,sub-172,1.0,random_dot,60.16687885108824,
right,right,accuracy,,,,,0.0,0.0,0.0,0.0,15.0,1.0,31.0,1.0,224.1428114000009,,,,,,,,,224.1282981999684,225.34241529996507,226.1430673999712,226.1262119000312,226.12623220006932,226.1430673999712,226.1430673999712,226.1430673999712,226.9944939999841,left,0.0,17.876125899958424,,,,,,,,,,,,,,,,,,,,,,,,,,,,,,,sub-172,1.0,random_dot,60.16687885108824,
right,right,accuracy,,,,,0.0,0.0,0.0,0.0,16.0,0.0,32.0,1.0,227.00923750002403,,,,,,,,,226.99596450000536,227.8089912000578,228.60979590006173,228.5931940000737,228.59321560000532,228.60979590006173,228.60979590006173,228.60979590006173,229.39363279996903,left,0.0,17.796482499921694,,,,,,,,,,,,,,,,,,,,,,,,,,,,,,,sub-172,1.0,random_dot,60.16687885108824,
left,left,accuracy,,,,,0.0,0.0,0.0,0.0,16.0,1.0,33.0,0.0,229.4088923999807,,,,,,,,,229.3949402000289,230.20903779997025,231.0094950000057,230.9930797000416,230.99309970007744,231.0094950000057,231.0094950000057,231.0094950000057,232.44373699999412,left,1.0,18.4514614000218,,,,,,,,,,,,,,,,,,,,,,,,,,,,,,,sub-172,1.0,random_dot,60.16687885108824,
left,left,accuracy,,,,,0.0,0.0,0.0,0.0,17.0,0.0,34.0,0.0,232.4591267000651,,,,,,,,,232.44490100000985,233.6593978999881,234.45986970001832,234.4431520999642,234.44317400001452,234.45986970001832,234.45986970001832,234.45986970001832,235.2271664000582,left,1.0,17.78700619994197,,,,,,,,,,,,,,,,,,,,,,,,,,,,,,,sub-172,1.0,random_dot,60.16687885108824,
right,right,accuracy,,,,,0.0,0.0,0.0,0.0,17.0,1.0,35.0,1.0,235.24229109997395,,,,,,,,,235.2282418999821,236.0423174999887,236.84299879998437,236.8266187000554,236.8266461000312,236.84299879998437,236.84299879998437,236.84299879998437,239.16058050002903,right,1.0,19.329069500090554,,,,,,,,,,,,,,,,,,,,,,,,,,,,,,,sub-172,1.0,random_dot,60.16687885108824,
right,right,accuracy,,,,,0.0,0.0,0.0,0.0,18.0,0.0,36.0,1.0,239.1758614999708,,,,,,,,,239.16175760002807,239.525920300046,240.3265187999932,240.3104197999928,240.31044150004163,240.3265187999932,240.3265187999932,240.3265187999932,243.64370820007755,left,0.0,20.328626900096424,,,,,,,,,,,,,,,,,,,,,,,,,,,,,,,sub-172,1.0,random_dot,60.16687885108824,
left,left,accuracy,,,,,0.0,0.0,0.0,0.0,18.0,1.0,37.0,0.0,243.65889950003475,,,,,,,,,243.6448897999944,244.00907909998205,244.80955090001223,244.7938611999853,244.7938871000661,244.80955090001223,244.80955090001223,244.80955090001223,245.54419140005484,right,0.0,17.757385700009763,,,,,,,,,,,,,,,,,,,,,,,,,,,,,,,sub-172,1.0,random_dot,60.16687885108824,
right,right,accuracy,,,,,0.0,0.0,0.0,0.0,19.0,0.0,38.0,1.0,245.5602584000444,,,,,,,,,245.5451788000064,246.7593690999784,247.55965309997555,247.54298390005715,247.54303100006652,247.55965309997555,247.55965309997555,247.55965309997555,249.17723110003865,right,1.0,18.634031200082973,,,,,,,,,,,,,,,,,,,,,,,,,,,,,,,sub-172,1.0,random_dot,60.16687885108824,
left,left,accuracy,,,,,0.0,0.0,0.0,0.0,19.0,1.0,39.0,0.0,249.1924873000244,,,,,,,,,249.17819660005625,249.9924907999812,250.7929390000645,250.77669389999937,250.77671190002,250.7929390000645,250.7929390000645,250.7929390000645,252.193427399965,left,1.0,18.418336200062186,,,,,,,,,,,,,,,,,,,,,,,,,,,,,,,sub-172,1.0,random_dot,60.16687885108824,
left,left,accuracy,,,,,0.0,0.0,0.0,0.0,20.0,0.0,40.0,0.0,252.20913099998145,,,,,,,,,252.19439259998035,253.00919660006184,253.8099624000024,253.7933607000159,253.7933835000731,253.8099624000024,253.8099624000024,253.8099624000024,254.91044180002064,left,1.0,18.11556499998551,,,,,,,,,,,,,,,,,,,,,,,,,,,,,,,sub-172,1.0,random_dot,60.16687885108824,
right,right,accuracy,,,,,0.0,0.0,0.0,0.0,20.0,1.0,41.0,1.0,254.9256374000106,,,,,,,,,254.91151090001225,255.72627650003412,256.52619490004145,256.5101182999788,256.51014969998505,256.52619490004145,256.52619490004145,256.52619490004145,257.9441095000366,right,1.0,18.42870489996858,,,,,,,,,,,,,,,,,,,,,,,,,,,,,,,sub-172,1.0,random_dot,60.16687885108824,
right,right,accuracy,,,,,0.0,0.0,0.0,0.0,21.0,0.0,42.0,1.0,257.95939380000345,,,,,,,,,257.9446502000792,258.0592194000492,258.8598316999851,258.8432761000004,258.84329940006137,258.8598316999851,258.8598316999851,258.8598316999851,260.5439226999879,left,0.0,18.700549200060777,,,,,,,,,,,,,,,,,,,,,,,,,,,,,,,sub-172,1.0,random_dot,60.16687885108824,
left,left,accuracy,,,,,0.0,0.0,0.0,0.0,21.0,1.0,43.0,0.0,260.5591651999857,,,,,,,,,260.54548760002945,261.7591762000229,262.5597158999881,262.5430259000277,262.54305300000124,262.5597158999881,262.5597158999881,262.5597158999881,263.62804640003014,left,1.0,18.09338800003752,,,,,,,,,,,,,,,,,,,,,,,,,,,,,,,sub-172,1.0,random_dot,60.16687885108824,
right,right,accuracy,,,,,0.0,0.0,0.0,0.0,22.0,0.0,44.0,1.0,263.64211460005026,,,,,,,,,263.62878040003125,264.842831099988,265.64295710006263,265.62658689997625,265.62660920002963,265.64295710006263,265.64295710006263,265.64295710006263,266.3942173999967,right,1.0,17.765348199987784,,,,,,,,,,,,,,,,,,,,,,,,,,,,,,,sub-172,1.0,random_dot,60.16687885108824,
left,left,accuracy,,,,,0.0,0.0,0.0,0.0,22.0,1.0,45.0,0.0,266.40943790005986,,,,,,,,,266.3949806999881,266.7591015000362,267.5596821999643,267.5431418999797,267.5431554999668,267.5596821999643,267.5596821999643,267.5596821999643,268.5105476999888,left,1.0,17.971822799998336,,,,,,,,,,,,,,,,,,,,,,,,,,,,,,,sub-172,1.0,random_dot,60.16687885108824,
left,left,accuracy,,,,,0.0,0.0,0.0,0.0,23.0,0.0,46.0,0.0,268.525884200004,,,,,,,,,268.51170360005926,269.72595850005746,270.5261932000285,270.50958030007314,270.50960480002686,270.5261932000285,270.5261932000285,270.5261932000285,271.776965499972,left,1.0,18.261940600001253,,,,,,,,,,,,,,,,,,,,,,,,,,,,,,,sub-172,1.0,random_dot,60.16687885108824,
right,right,accuracy,,,,,0.0,0.0,0.0,0.0,23.0,1.0,47.0,1.0,271.79280130006373,,,,,,,,,271.7779257000657,271.89242529997136,272.69291760004126,272.6764319000067,272.67645180004183,272.69291760004126,272.69291760004126,272.69291760004126,273.52779920003377,right,1.0,17.857206300017424,,,,,,,,,,,,,,,,,,,,,,,,,,,,,,,sub-172,1.0,random_dot,60.16687885108824,
right,right,accuracy,,,,,0.0,0.0,0.0,0.0,24.0,0.0,48.0,1.0,273.542543400079,,,,,,,,,273.52889439999126,273.89281370001845,274.6932383000385,274.67659090005327,274.676605500048,274.6932383000385,274.6932383000385,274.6932383000385,275.277179799974,left,0.0,17.60578290000558,,,,,,,,,,,,,,,,,,,,,,,,,,,,,,,sub-172,1.0,random_dot,60.16687885108824,
left,left,accuracy,,,,,0.0,0.0,0.0,0.0,24.0,1.0,49.0,0.0,275.29266689997166,,,,,,,,,275.27773950004485,276.4926233000588,277.2934325999813,277.2759894999908,277.2760250000283,277.2934325999813,277.2934325999813,277.2934325999813,278.3938285000622,left,1.0,18.11659959994722,,,,,,,,,,,,,,,,,,,,,,,,,,,,,,,sub-172,1.0,random_dot,60.16687885108824,
right,right,accuracy,,,,,0.0,0.0,0.0,0.0,25.0,0.0,50.0,1.0,278.40973129996564,,,,,,,,,278.39453519997187,278.7592923999764,279.55947350000497,279.5428777000634,279.5429062000476,279.55947350000497,279.55947350000497,279.55947350000497,280.5604113000445,right,1.0,18.021986999898218,,,,,,,,,,,,,,,,,,,,,,,,,,,,,,,sub-172,1.0,random_dot,60.16687885108824,
left,left,accuracy,,,,,0.0,0.0,0.0,0.0,25.0,1.0,51.0,0.0,280.57619399996474,,,,,,,,,280.56104790000245,281.37578150001355,282.1762168999994,282.1599102000473,282.1599292000756,282.1762168999994,282.1762168999994,282.1762168999994,283.3105665000621,left,1.0,18.14774230006151,,,,,,,,,,,,,,,,,,,,,,,,,,,,,,,sub-172,1.0,random_dot,60.16687885108824,
left,left,accuracy,,,,,0.0,0.0,0.0,0.0,26.0,0.0,52.0,0.0,283.32580099999905,,,,,,,,,283.31163959996775,284.5261092999717,285.3266061000759,285.3095660000108,285.309586300049,285.3266061000759,285.3266061000759,285.3266061000759,286.3435946999816,left,1.0,18.035660599940456,,,,,,,,,,,,,,,,,,,,,,,,,,,,,,,sub-172,1.0,random_dot,60.16687885108824,
right,right,accuracy,,,,,0.0,0.0,0.0,0.0,26.0,1.0,53.0,1.0,286.35910890006926,,,,,,,,,286.34478070004843,287.55907610000577,288.3596964000026,288.34380779997446,288.34384480002336,288.3596964000026,288.3596964000026,288.3596964000026,289.01096940005664,right,1.0,17.662172900047153,,,,,,,,,,,,,,,,,,,,,,,,,,,,,,,sub-172,1.0,random_dot,60.16687885108824,
right,right,accuracy,,,,,0.0,0.0,0.0,0.0,27.0,0.0,54.0,1.0,289.02602130000014,,,,,,,,,289.0122835000511,289.8257959000766,290.6265735999914,290.60992750001606,290.60995439998806,290.6265735999914,290.6265735999914,290.6265735999914,291.66055709996726,left,0.0,18.050849899998862,,,,,,,,,,,,,,,,,,,,,,,,,,,,,,,sub-172,1.0,random_dot,60.16687885108824,
left,left,accuracy,,,,,0.0,0.0,0.0,0.0,27.0,1.0,55.0,0.0,291.6758535000263,,,,,,,,,291.66158329998143,291.77590360003524,292.5766759000253,292.5599020000081,292.5599263000768,292.5766759000253,292.5766759000253,292.5766759000253,294.07697429996915,left,1.0,18.513928600004878,,,,,,,,,,,,,,,,,,,,,,,,,,,,,,,sub-172,1.0,random_dot,60.16687885108824,
left,left,accuracy,,,,,0.0,0.0,0.0,0.0,28.0,0.0,56.0,0.0,294.0923969000578,,,,,,,,,294.07837400003336,294.19243429997005,294.9930380000733,294.9762882000068,294.9763143999735,294.9930380000733,294.9930380000733,294.9930380000733,295.9274565000087,right,0.0,17.948481499915943,,,,,,,,,,,,,,,,,,,,,,,,,,,,,,,sub-172,1.0,random_dot,60.16687885108824,
right,right,accuracy,,,,,0.0,0.0,0.0,0.0,28.0,1.0,57.0,1.0,295.94287130003795,,,,,,,,,295.9288592999801,296.2927502000239,297.0933006000705,297.0762177000288,297.0762308000121,297.0933006000705,297.0933006000705,297.0933006000705,297.893997300067,left,0.0,17.81458670005668,,,,,,,,,,,,,,,,,,,,,,,,,,,,,,,sub-172,1.0,random_dot,60.16687885108824,
left,left,accuracy,,,,,0.0,0.0,0.0,0.0,29.0,0.0,58.0,0.0,297.909241400077,,,,,,,,,297.8950373000698,298.25964289996773,299.0599020000081,299.04304650006816,299.0430691000074,299.0599020000081,299.0599020000081,299.0599020000081,300.04480889998376,left,1.0,18.009757800027728,,,,,,,,,,,,,,,,,,,,,,,,,,,,,,,sub-172,1.0,random_dot,60.16687885108824,
right,right,accuracy,,,,,0.0,0.0,0.0,0.0,29.0,1.0,59.0,1.0,300.05898480000906,,,,,,,,,300.04628840007354,300.8593637000304,301.659591200063,301.6430645000655,301.6430946000619,301.659591200063,301.659591200063,301.659591200063,303.14416120003443,right,1.0,18.503428900032304,,,,,,,,,,,,,,,,,,,,,,,,,,,,,,,sub-172,1.0,random_dot,60.16687885108824,
,,accuracy,,,,,0.0,0.0,0.0,0.0,,,,,,,,,,,,,,,,,,,,,,,,,,,,,,,,,,,,,,,,,,,,,,,,,,,,,,,,sub-172,1.0,random_dot,60.16687885108824,
left,left,speed,,,,,0.0,1.0,1.0,1.0,0.0,0.0,0.0,0.0,350.12594040005933,,,,,,,,,350.115407000063,350.4761158999754,351.276507099974,351.2599714000244,351.26000090001617,351.276507099974,351.276507099974,351.276507099974,352.0105621999828,left,1.0,17.747191000031307,,,,,,,,,,,,,,,,,,,,303.1452758000232,303.1594628000166,303.1594628000166,350.11033369996585,space,63.97141500003636,,,,,,sub-172,1.0,random_dot,60.16687885108824,
right,right,speed,,,,,0.0,1.0,1.0,1.0,0.0,1.0,1.0,1.0,352.02606659999583,,,,,,,,,352.01224720000755,352.12621230003424,352.92650810000487,352.90959060005844,352.9096090999665,352.92650810000487,352.92650810000487,352.92650810000487,353.4106337999692,right,1.0,17.508445799932815,,,,,,,,,,,,,,,,,,,,,,,,,,,,,,,sub-172,1.0,random_dot,60.16687885108824,
right,right,speed,,,,,0.0,1.0,1.0,1.0,1.0,0.0,2.0,1.0,353.4257593000075,,,,,,,,,353.41191749996506,353.7760969999945,354.57618700002786,354.5598052999703,354.5598287000321,354.57618700002786,354.57618700002786,354.57618700002786,355.0437504000729,left,0.0,17.48429109994322,,,,,,,,,,,,,,,,,,,,,,,,,,,,,,,sub-172,1.0,random_dot,60.16687885108824,
left,left,speed,,,,,0.0,1.0,1.0,1.0,1.0,1.0,3.0,0.0,355.0593435000628,,,,,,,,,355.04503120004665,355.859317000024,356.659671499976,356.64331279997714,356.6433323000092,356.659671499976,356.659671499976,356.659671499976,357.3770587000763,left,1.0,17.73177300009411,,,,,,,,,,,,,,,,,,,,,,,,,,,,,,,sub-172,1.0,random_dot,60.16687885108824,
left,left,speed,,,,,0.0,1.0,1.0,1.0,2.0,0.0,4.0,0.0,357.3926382000791,,,,,,,,,357.37792870006524,358.1924772000639,358.99322409997694,358.9765868000686,358.9766025000717,358.99322409997694,358.99322409997694,358.99322409997694,359.47769850003533,right,0.0,17.502185399993323,,,,,,,,,,,,,,,,,,,,,,,,,,,,,,,sub-172,1.0,random_dot,60.16687885108824,
right,right,speed,,,,,0.0,1.0,1.0,1.0,2.0,1.0,5.0,1.0,359.4924186000135,,,,,,,,,359.478428900009,360.2925876000663,361.0933702000184,361.0762604000047,361.0762811000459,361.0933702000184,361.0933702000184,361.0933702000184,362.6272594999755,right,1.0,18.551813199999746,,,,,,,,,,,,,,,,,,,,,,,,,,,,,,,sub-172,1.0,random_dot,60.16687885108824,
left,left,speed,,,,,0.0,1.0,1.0,1.0,3.0,0.0,6.0,0.0,362.6429318999872,,,,,,,,,362.62815500004217,363.8425431000069,364.64347060001455,364.6266842000186,364.6266962999944,364.64347060001455,364.64347060001455,364.64347060001455,365.2275314000435,left,1.0,17.606539400061592,,,,,,,,,,,,,,,,,,,,,,,,,,,,,,,sub-172,1.0,random_dot,60.16687885108824,
right,right,speed,,,,,0.0,1.0,1.0,1.0,3.0,1.0,7.0,1.0,365.24278109997977,,,,,,,,,365.2286182000535,366.4426138000563,367.2432521000737,367.2264756000368,367.2265027000103,367.2432521000737,367.2432521000737,367.2432521000737,367.8275112999836,right,1.0,17.60451460001059,,,,,,,,,,,,,,,,,,,,,,,,,,,,,,,sub-172,1.0,random_dot,60.16687885108824,
left,left,speed,,,,,0.0,1.0,1.0,1.0,4.0,0.0,8.0,0.0,367.84242490003817,,,,,,,,,367.82855850004125,369.0430560000241,369.8440612000413,369.8268202000763,369.82685020007193,369.8440612000413,369.8440612000413,369.8440612000413,370.5273994000163,left,1.0,17.70687520003412,,,,,,,,,,,,,,,,,,,,,,,,,,,,,,,sub-172,1.0,random_dot,60.16687885108824,
right,right,speed,,,,,0.0,1.0,1.0,1.0,4.0,1.0,9.0,1.0,370.5427982000401,,,,,,,,,370.52863830002025,371.3426817000145,372.1435024000239,372.1263890999835,372.1264017000794,372.1435024000239,372.1435024000239,372.1435024000239,373.0936671000673,right,1.0,17.959959300002083,,,,,,,,,,,,,,,,,,,,,,,,,,,,,,,sub-172,1.0,random_dot,60.16687885108824,
left,left,speed,,,,,0.0,1.0,1.0,1.0,5.0,0.0,10.0,0.0,373.10921580006834,,,,,,,,,373.0947776000248,374.3093491999898,375.109746000031,375.09323760005645,375.0932585999835,375.109746000031,375.109746000031,375.109746000031,375.6773184000049,left,1.0,17.58071679994464,,,,,,,,,,,,,,,,,,,,,,,,,,,,,,,sub-172,1.0,random_dot,60.16687885108824,
right,right,speed,,,,,0.0,1.0,1.0,1.0,5.0,1.0,11.0,1.0,375.6928017999744,,,,,,,,,375.6784377000295,376.04285690002143,376.84305160003714,376.8267917999765,376.8268137000268,376.84305160003714,376.84305160003714,376.84305160003714,377.4279685000656,right,1.0,17.608722100034356,,,,,,,,,,,,,,,,,,,,,,,,,,,,,,,sub-172,1.0,random_dot,60.16687885108824,
right,right,speed,,,,,0.0,1.0,1.0,1.0,6.0,0.0,12.0,1.0,377.4425450999988,,,,,,,,,377.4289368999889,377.542882299982,378.343223300064,378.32656940002926,378.3265902000712,378.343223300064,378.343223300064,378.343223300064,379.3110448999796,left,0.0,17.9889172000112,,,,,,,,,,,,,,,,,,,,,,,,,,,,,,,sub-172,1.0,random_dot,60.16687885108824,
left,left,speed,,,,,0.0,1.0,1.0,1.0,6.0,1.0,13.0,0.0,379.326179799973,,,,,,,,,379.3122570000123,379.67636609997135,380.4762476000469,380.4602225000272,380.46025670005474,380.4762476000469,380.4762476000469,380.4762476000469,381.4444542999845,left,1.0,17.9835097999312,,,,,,,,,,,,,,,,,,,,,,,,,,,,,,,sub-172,1.0,random_dot,60.16687885108824,
left,left,speed,,,,,0.0,1.0,1.0,1.0,7.0,0.0,14.0,0.0,381.4590646000579,,,,,,,,,381.4453340000473,382.2596500000218,383.0600373999914,383.0434999000281,383.04352690000087,383.0600373999914,383.0600373999914,383.0600373999914,383.8771642000647,right,0.0,17.836240999982692,,,,,,,,,,,,,,,,,,,,,,,,,,,,,,,sub-172,1.0,random_dot,60.16687885108824,
right,right,speed,,,,,0.0,1.0,1.0,1.0,7.0,1.0,15.0,1.0,383.89265360008,,,,,,,,,383.878337000031,383.9923561000032,384.7933978000656,384.7768519000383,384.77687529998366,384.7933978000656,384.7933978000656,384.7933978000656,385.7606018000515,right,1.0,17.97789700003341,,,,,,,,,,,,,,,,,,,,,,,,,,,,,,,sub-172,1.0,random_dot,60.16687885108824,
right,right,speed,,,,,0.0,1.0,1.0,1.0,8.0,0.0,16.0,1.0,385.775756200077,,,,,,,,,385.76170050003566,386.1258850999875,386.9261883000145,386.9105519000441,386.9105884999735,386.9261883000145,386.9261883000145,386.9261883000145,387.7275565000018,right,1.0,17.817336199921556,,,,,,,,,,,,,,,,,,,,,,,,,,,,,,,sub-172,1.0,random_dot,60.16687885108824,
left,left,speed,,,,,0.0,1.0,1.0,1.0,8.0,1.0,17.0,0.0,387.7429944999749,,,,,,,,,387.7281365999952,388.5424955000635,389.3433620000724,389.32713710004464,389.3271793000167,389.3433620000724,389.3433620000724,389.3433620000724,390.4278646999737,left,1.0,18.09678090002853,,,,,,,,,,,,,,,,,,,,,,,,,,,,,,,sub-172,1.0,random_dot,60.16687885108824,
right,right,speed,,,,,0.0,1.0,1.0,1.0,9.0,0.0,18.0,1.0,390.44251730002,,,,,,,,,390.42879530007485,391.6428698999807,392.4431325000478,392.42658109997865,392.4266135999933,392.4431325000478,392.4431325000478,392.4431325000478,393.1442302999785,right,1.0,17.7212462000316,,,,,,,,,,,,,,,,,,,,,,,,,,,,,,,sub-172,1.0,random_dot,60.16687885108824,
left,left,speed,,,,,0.0,1.0,1.0,1.0,9.0,1.0,19.0,0.0,393.1596231000731,,,,,,,,,393.1451317999745,394.3591597999912,395.159869199968,395.1430375999771,395.1430604000343,395.159869199968,395.159869199968,395.159869199968,395.8107028000522,left,1.0,17.66753089998383,,,,,,,,,,,,,,,,,,,,,,,,,,,,,,,sub-172,1.0,random_dot,60.16687885108824,
right,right,speed,,,,,0.0,1.0,1.0,1.0,10.0,0.0,20.0,1.0,395.8258122999687,,,,,,,,,395.81186710007023,397.0260696000187,397.82681730005424,397.81056460004766,397.8105910000159,397.82681730005424,397.82681730005424,397.82681730005424,398.3270992999896,right,1.0,17.519832400023006,,,,,,,,,,,,,,,,,,,,,,,,,,,,,,,sub-172,1.0,random_dot,60.16687885108824,
left,left,speed,,,,,0.0,1.0,1.0,1.0,10.0,1.0,21.0,0.0,398.3425187000539,,,,,,,,,398.3277093999786,399.1428306000307,399.9430311999749,399.92676170007326,399.92679230007343,399.9430311999749,399.9430311999749,399.9430311999749,400.3274499999825,left,1.0,17.40935139998328,,,,,,,,,,,,,,,,,,,,,,,,,,,,,,,sub-172,1.0,random_dot,60.16687885108824,
left,left,speed,,,,,0.0,1.0,1.0,1.0,11.0,0.0,22.0,0.0,400.3427044000709,,,,,,,,,400.3279894000152,400.6925817000447,401.49292290001176,401.4762718999991,401.4762958000647,401.49292290001176,401.49292290001176,401.49292290001176,402.1938667000504,right,0.0,17.71649330004584,,,,,,,,,,,,,,,,,,,,,,,,,,,,,,,sub-172,1.0,random_dot,60.16687885108824,
right,right,speed,,,,,0.0,1.0,1.0,1.0,11.0,1.0,23.0,1.0,402.2092144000344,,,,,,,,,402.1949442999903,403.0096070000436,403.8097867000615,403.79347080003936,403.7934988000197,403.8097867000615,403.8097867000615,403.8097867000615,404.6109769999748,right,1.0,17.817862400086597,,,,,,,,,,,,,,,,,,,,,,,,,,,,,,,sub-172,1.0,random_dot,60.16687885108824,
left,left,speed,,,,,0.0,1.0,1.0,1.0,12.0,0.0,24.0,0.0,404.62560040003154,,,,,,,,,404.6119043000508,405.8260389000643,406.6266018999741,406.6101053999737,406.6101340000751,406.6266018999741,406.6266018999741,406.6266018999741,407.9438102999702,left,1.0,18.33121549990028,,,,,,,,,,,,,,,,,,,,,,,,,,,,,,,sub-172,1.0,random_dot,60.16687885108824,
right,right,speed,,,,,0.0,1.0,1.0,1.0,12.0,1.0,25.0,1.0,407.95921120001,,,,,,,,,407.9448900000425,408.0593885000562,408.8598141999682,408.8433073000051,408.8433225000044,408.8598141999682,408.8598141999682,408.8598141999682,409.5445790999802,right,1.0,17.70679329999257,,,,,,,,,,,,,,,,,,,,,,,,,,,,,,,sub-172,1.0,random_dot,60.16687885108824,
left,left,speed,,,,,0.0,1.0,1.0,1.0,13.0,0.0,26.0,0.0,409.5593967000023,,,,,,,,,409.54527180001605,409.6595111000352,410.4600751000689,410.4436808000319,410.44370409997646,410.4600751000689,410.4600751000689,410.4600751000689,411.1606833999977,left,1.0,17.710684100049548,,,,,,,,,,,,,,,,,,,,,,,,,,,,,,,sub-172,1.0,random_dot,60.16687885108824,
right,right,speed,,,,,0.0,1.0,1.0,1.0,13.0,1.0,27.0,1.0,411.1763106000144,,,,,,,,,411.1612303999718,411.2762628999772,412.0763575000456,412.0599984000437,412.0600218999898,412.0763575000456,412.0763575000456,412.0763575000456,412.9272112000035,right,1.0,17.868705400032923,,,,,,,,,,,,,,,,,,,,,,,,,,,,,,,sub-172,1.0,random_dot,60.16687885108824,
left,left,speed,,,,,0.0,1.0,1.0,1.0,14.0,0.0,28.0,0.0,412.9425615000073,,,,,,,,,412.9278394000139,413.2930004000664,414.0931694000028,414.076111100032,414.0761258000275,414.0931694000028,414.0931694000028,414.0931694000028,414.7276907999767,left,1.0,17.654292199993506,,,,,,,,,,,,,,,,,,,,,,,,,,,,,,,sub-172,1.0,random_dot,60.16687885108824,
right,right,speed,,,,,0.0,1.0,1.0,1.0,14.0,1.0,29.0,1.0,414.7426569999661,,,,,,,,,414.7289224000415,414.84240760002285,415.64308199996594,415.6266401000321,415.6266678000102,415.64308199996594,415.64308199996594,415.64308199996594,416.7773628999712,right,1.0,18.1445521999849,,,,,,,,,,,,,,,,,,,,,,,,,,,,,,,sub-172,1.0,random_dot,60.16687885108824,
left,left,speed,,,,,0.0,1.0,1.0,1.0,15.0,0.0,30.0,0.0,416.7927022000076,,,,,,,,,416.7784209999954,417.1426861999789,417.94333599996753,417.9271196000045,417.9271425000625,417.94333599996753,417.94333599996753,417.94333599996753,418.8105844999664,left,1.0,17.88361239992082,,,,,,,,,,,,,,,,,,,,,,,,,,,,,,,sub-172,1.0,random_dot,60.16687885108824,
right,right,speed,,,,,0.0,1.0,1.0,1.0,15.0,1.0,31.0,1.0,418.8260961000342,,,,,,,,,418.81154440005776,419.1759126000106,419.9765059000347,419.9598604000639,419.959886000026,419.9765059000347,419.9765059000347,419.9765059000347,420.5772498999722,right,1.0,17.615311999921687,,,,,,,,,,,,,,,,,,,,,,,,,,,,,,,sub-172,1.0,random_dot,60.16687885108824,
left,left,speed,,,,,0.0,1.0,1.0,1.0,16.0,0.0,32.0,0.0,420.5930253000697,,,,,,,,,420.5782821000321,420.6925112999743,421.4928651000373,421.4766160000581,421.4766408000141,421.4928651000373,421.4928651000373,421.4928651000373,423.2273305000272,left,1.0,18.751977500040084,,,,,,,,,,,,,,,,,,,,,,,,,,,,,,,sub-172,1.0,random_dot,60.16687885108824,
right,right,speed,,,,,0.0,1.0,1.0,1.0,16.0,1.0,33.0,1.0,423.24263730004895,,,,,,,,,423.2284802000504,423.3429133000318,424.1429915999761,424.1265983000631,424.1266192999901,424.1429915999761,424.1429915999761,424.1429915999761,424.67738860007375,right,1.0,17.558574100024998,,,,,,,,,,,,,,,,,,,,,,,,,,,,,,,sub-172,1.0,random_dot,60.16687885108824,
right,right,speed,,,,,0.0,1.0,1.0,1.0,17.0,0.0,34.0,1.0,424.6927724999841,,,,,,,,,424.67866770003457,425.042515899986,425.843144100043,425.82677529996727,425.8267995000351,425.843144100043,425.843144100043,425.843144100043,427.24388750002254,right,1.0,18.41515189991333,,,,,,,,,,,,,,,,,,,,,,,,,,,,,,,sub-172,1.0,random_dot,60.16687885108824,
left,left,speed,,,,,0.0,1.0,1.0,1.0,17.0,1.0,35.0,0.0,427.2593473000452,,,,,,,,,427.2451692000032,428.4592675999738,429.2601454000687,429.2434239999857,429.2434592000209,429.2601454000687,429.2601454000687,429.2601454000687,430.09414619999006,left,1.0,17.854214899940416,,,,,,,,,,,,,,,,,,,,,,,,,,,,,,,sub-172,1.0,random_dot,60.16687885108824,
left,left,speed,,,,,0.0,1.0,1.0,1.0,18.0,0.0,36.0,0.0,430.10912310006097,,,,,,,,,430.0946755000623,430.90922520007007,431.70954130007885,431.6933056999696,431.6933270000154,431.70954130007885,431.70954130007885,431.70954130007885,432.710428899969,left,1.0,18.02308820001781,,,,,,,,,,,,,,,,,,,,,,,,,,,,,,,sub-172,1.0,random_dot,60.16687885108824,
right,right,speed,,,,,0.0,1.0,1.0,1.0,18.0,1.0,37.0,1.0,432.7259489999851,,,,,,,,,432.71143360005226,433.0762711999705,433.87690819997806,433.8599304000381,433.8599554999964,433.87690819997806,433.87690819997806,433.87690819997806,435.1770608000225,right,1.0,18.32041859999299,,,,,,,,,,,,,,,,,,,,,,,,,,,,,,,sub-172,1.0,random_dot,60.16687885108824,
right,right,speed,,,,,0.0,1.0,1.0,1.0,19.0,0.0,38.0,1.0,435.1924567000242,,,,,,,,,435.1776281000348,436.39265769999474,437.19308710005134,437.1761575000128,437.176181799965,437.19308710005134,437.19308710005134,437.19308710005134,437.81166710006073,right,1.0,17.639648400014266,,,,,,,,,,,,,,,,,,,,,,,,,,,,,,,sub-172,1.0,random_dot,60.16687885108824,
left,left,speed,,,,,0.0,1.0,1.0,1.0,19.0,1.0,39.0,0.0,437.82592830003705,,,,,,,,,437.8128156000748,438.1759029000532,438.97661899996456,438.96055339998566,438.9605939000612,438.97661899996456,438.97661899996456,438.97661899996456,439.69416359998286,left,1.0,17.727196300053038,,,,,,,,,,,,,,,,,,,,,,,,,,,,,,,sub-172,1.0,random_dot,60.16687885108824,
left,left,speed,,,,,0.0,1.0,1.0,1.0,20.0,0.0,40.0,0.0,439.70923110004514,,,,,,,,,439.6950614000671,439.8093202000018,440.609812800074,440.5936356000602,440.59366909996606,440.609812800074,440.609812800074,440.609812800074,441.5605448000133,left,1.0,17.9652461000951,,,,,,,,,,,,,,,,,,,,,,,,,,,,,,,sub-172,1.0,random_dot,60.16687885108824,
right,right,speed,,,,,0.0,1.0,1.0,1.0,20.0,1.0,41.0,1.0,441.5758330000099,,,,,,,,,441.5618162000319,441.675998199964,442.47672000003513,442.4597193000373,442.4597424999811,442.47672000003513,442.47672000003513,442.47672000003513,443.0441777000669,right,1.0,17.589899199898355,,,,,,,,,,,,,,,,,,,,,,,,,,,,,,,sub-172,1.0,random_dot,60.16687885108824,
left,left,speed,,,,,0.0,1.0,1.0,1.0,21.0,0.0,42.0,0.0,443.059427500004,,,,,,,,,443.0451020000037,443.8594530000119,444.6595320000779,444.643172500073,444.643187000067,444.6595320000779,444.6595320000779,444.6595320000779,445.1107141000685,left,1.0,17.472224599914625,,,,,,,,,,,,,,,,,,,,,,,,,,,,,,,sub-172,1.0,random_dot,60.16687885108824,
right,right,speed,,,,,0.0,1.0,1.0,1.0,21.0,1.0,43.0,1.0,445.1257980000228,,,,,,,,,445.1117585999891,445.4758898,446.27662929997314,446.2600228000665,446.2600501000416,446.27662929997314,446.27662929997314,446.27662929997314,446.7109435000457,right,1.0,17.45147430000361,,,,,,,,,,,,,,,,,,,,,,,,,,,,,,,sub-172,1.0,random_dot,60.16687885108824,
left,left,speed,,,,,0.0,1.0,1.0,1.0,22.0,0.0,44.0,0.0,446.72624049999285,,,,,,,,,446.71202710003126,447.0759655999718,447.876661999966,447.85966050007846,447.85968610004056,447.876661999966,447.876661999966,447.876661999966,448.4115012000548,left,1.0,17.55319080001209,,,,,,,,,,,,,,,,,,,,,,,,,,,,,,,sub-172,1.0,random_dot,60.16687885108824,
right,right,speed,,,,,0.0,1.0,1.0,1.0,22.0,1.0,45.0,1.0,448.4263537999941,,,,,,,,,448.4122378000757,449.6257169999881,450.4265281000408,450.4100597000215,450.4100793000544,450.4265281000408,450.4265281000408,450.4265281000408,451.2771008000709,right,1.0,17.865684299962595,,,,,,,,,,,,,,,,,,,,,,,,,,,,,,,sub-172,1.0,random_dot,60.16687885108824,
right,right,speed,,,,,0.0,1.0,1.0,1.0,23.0,0.0,46.0,1.0,451.2928283000365,,,,,,,,,451.2776711999904,452.4929933999665,453.29328890005127,453.2763382999692,453.2763627000386,453.29328890005127,453.29328890005127,453.29328890005127,454.42773940006737,right,1.0,18.156840500072576,,,,,,,,,,,,,,,,,,,,,,,,,,,,,,,sub-172,1.0,random_dot,60.16687885108824,
left,left,speed,,,,,0.0,1.0,1.0,1.0,23.0,1.0,47.0,0.0,454.442950900062,,,,,,,,,454.4290006000083,454.5429609999992,455.3438714999938,455.3273084000684,455.3273374000564,455.3438714999938,455.3438714999938,455.3438714999938,456.1271754000336,left,1.0,17.792854900006205,,,,,,,,,,,,,,,,,,,,,,,,,,,,,,,sub-172,1.0,random_dot,60.16687885108824,
right,right,speed,,,,,0.0,1.0,1.0,1.0,24.0,0.0,48.0,1.0,456.142668500077,,,,,,,,,456.1282028000569,456.9426853000186,457.7430288000032,457.726419600076,457.7264427000191,457.7430288000032,457.7430288000032,457.7430288000032,458.9437563000247,left,0.0,18.222998100100085,,,,,,,,,,,,,,,,,,,,,,,,,,,,,,,sub-172,1.0,random_dot,60.16687885108824,
left,left,speed,,,,,0.0,1.0,1.0,1.0,24.0,1.0,49.0,0.0,458.959025499993,,,,,,,,,458.9449700000696,460.1593244000105,460.959927399992,460.9431122000096,460.9431260999991,460.959927399992,460.959927399992,460.959927399992,461.9444437000202,left,1.0,18.00645980006084,,,,,,,,,,,,,,,,,,,,,,,,,,,,,,,sub-172,1.0,random_dot,60.16687885108824,
right,right,speed,,,,,0.0,1.0,1.0,1.0,25.0,0.0,50.0,1.0,461.9595074000536,,,,,,,,,461.9456627999898,462.3093749000691,463.10970779997297,463.09367980004754,463.09370640001725,463.10970779997297,463.10970779997297,463.10970779997297,465.5604052999988,left,0.0,19.466302799992263,,,,,,,,,,,,,,,,,,,,,,,,,,,,,,,sub-172,1.0,random_dot,60.16687885108824,
left,left,speed,,,,,0.0,1.0,1.0,1.0,25.0,1.0,51.0,0.0,465.57603310002014,,,,,,,,,465.5610236000503,465.6761793000624,466.4765040000202,466.4603599000257,466.4603765000357,466.4765040000202,466.4765040000202,466.4765040000202,467.1452264999971,left,1.0,17.692678799969144,,,,,,,,,,,,,,,,,,,,,,,,,,,,,,,sub-172,1.0,random_dot,60.16687885108824,
left,left,speed,,,,,0.0,1.0,1.0,1.0,26.0,0.0,52.0,0.0,467.1592075000517,,,,,,,,,467.1457840000512,467.2595421000151,468.05996490002144,468.0440471000038,468.04406320001,468.05996490002144,468.05996490002144,468.05996490002144,469.1273807999678,left,1.0,18.08271899993997,,,,,,,,,,,,,,,,,,,,,,,,,,,,,,,sub-172,1.0,random_dot,60.16687885108824,
right,right,speed,,,,,0.0,1.0,1.0,1.0,26.0,1.0,53.0,1.0,469.1425498999888,,,,,,,,,469.1282581000123,470.3427148000337,471.1429427000694,471.1268410000485,471.1268656000029,471.1429427000694,471.1429427000694,471.1429427000694,472.8106453999644,left,0.0,18.68279850005638,,,,,,,,,,,,,,,,,,,,,,,,,,,,,,,sub-172,1.0,random_dot,60.16687885108824,
right,right,speed,,,,,0.0,1.0,1.0,1.0,27.0,0.0,54.0,1.0,472.8257307000458,,,,,,,,,472.8118190000532,474.02598300005775,474.8264938000357,474.81035070004873,474.8103729999857,474.8264938000357,474.8264938000357,474.8264938000357,476.02731100004166,right,1.0,18.21135819994379,,,,,,,,,,,,,,,,,,,,,,,,,,,,,,,sub-172,1.0,random_dot,60.16687885108824,
left,left,speed,,,,,0.0,1.0,1.0,1.0,27.0,1.0,55.0,0.0,476.0425081000431,,,,,,,,,476.0281786000123,476.393002100056,477.1930568000535,477.17668590007816,477.1767110000365,477.1930568000535,477.1930568000535,477.1930568000535,477.7771754000569,right,0.0,17.60074380005244,,,,,,,,,,,,,,,,,,,,,,,,,,,,,,,sub-172,1.0,random_dot,60.16687885108824,
right,right,speed,,,,,0.0,1.0,1.0,1.0,28.0,0.0,56.0,1.0,477.7927074000472,,,,,,,,,477.77809599996544,478.992548600072,479.79316160001326,479.77651390002575,479.7765319000464,479.79316160001326,479.79316160001326,479.79316160001326,481.6622660000576,left,0.0,18.89289439993445,,,,,,,,,,,,,,,,,,,,,,,,,,,,,,,sub-172,1.0,random_dot,60.16687885108824,
left,left,speed,,,,,0.0,1.0,1.0,1.0,28.0,1.0,57.0,0.0,481.6760469999863,,,,,,,,,481.6635123000015,482.87627520004753,483.6769547000295,483.6599964000052,483.6600176000502,483.6769547000295,483.6769547000295,483.6769547000295,484.4435784000671,left,1.0,17.77877529989928,,,,,,,,,,,,,,,,,,,,,,,,,,,,,,,sub-172,1.0,random_dot,60.16687885108824,
right,right,speed,,,,,0.0,1.0,1.0,1.0,29.0,0.0,58.0,1.0,484.4591951000039,,,,,,,,,484.4445837000385,485.65959030005615,486.4601492000511,486.443371500005,486.44340009999,486.4601492000511,486.4601492000511,486.4601492000511,487.4104051999748,right,1.0,17.96526059997268,,,,,,,,,,,,,,,,,,,,,,,,,,,,,,,sub-172,1.0,random_dot,60.16687885108824,
left,left,speed,,,,,0.0,1.0,1.0,1.0,29.0,1.0,59.0,0.0,487.42620650003664,,,,,,,,,487.4109764000168,488.2259602000704,489.026311900001,489.0100342000369,489.01006070000585,489.026311900001,489.026311900001,489.026311900001,489.6779548000777,left,1.0,17.67387639998924,,,,,,,,,,,,,,,,,,,,,,,,,,,,,,,sub-172,1.0,random_dot,60.16687885108824,
,,speed,,,,,0.0,1.0,1.0,1.0,,,,,,,,,,,,,,,,,,,,,,,,,,,,,,,,,,,,,,,,,,,,,,,,,,,,,,,,sub-172,1.0,random_dot,60.16687885108824,
,,,,,,,,,,,,,,,,,,,,,,,,,,,,,,,,,,,,,,,,,,,,,,,,,,,,,,,,,,,,,,489.6790387000656,489.69275479996577,494.69253050000407,494.6768290000037,sub-172,,,,
