direction,corrAns,thisN,thisTrialN,thisRepN,respDots.keys,respDots.corr,respDots.rt,respDots.duration,randomInstr,respRandomInstr.keys,respRandomInstr.rt,respRandomInstr.duration,practice_trials.thisRepN,practice_trials.thisTrialN,practice_trials.thisN,practice_trials.thisIndex,instr_trials.thisRepN,instr_trials.thisTrialN,instr_trials.thisN,instr_trials.thisIndex,test_trials.thisRepN,test_trials.thisTrialN,test_trials.thisN,test_trials.thisIndex,thisRow.t,notes,general_instruction.started,textGeneralInstr.started,respGeneralInstr.started,general_instruction.stopped,respGeneralInstr.keys,respGeneralInstr.rt,respGeneralInstr.duration,ITI.started,fixcross.started,fixcross.stopped,ITI.stopped,dots.started,backgroundDots.started,stimulusDots.started,respDots.started,stimulusDots.stopped,dots.stopped,practice_trials.respDots.keys,practice_trials.respDots.corr,practice_trials.respDots.rt,practice_trials.respDots.duration,feedback.started,textFeedback.started,feedback.stopped,textFeedback.stopped,info.started,textInfo.started,keyRespInfo.started,info.stopped,keyRespInfo.keys,keyRespInfo.rt,keyRespInfo.duration,test_instruction.started,textTestInstr.started,respTestInstr.started,test_instruction.stopped,respTestInstr.keys,respTestInstr.rt,respTestInstr.duration,random_instruction.started,textRandomInstr.started,respRandomInstr.started,random_instruction.stopped,instr_trials.respRandomInstr.keys,instr_trials.respRandomInstr.rt,instr_trials.respRandomInstr.duration,test_trials.respDots.keys,test_trials.respDots.corr,test_trials.respDots.rt,test_trials.respDots.duration,goodbye.started,textGoodbye.started,textGoodbye.stopped,goodbye.stopped,participant,session,expName,frameRate,Unnamed: 88
,,,,,,,,,,,,,,,,,,,,,,,,,,,0.0099970410228706,0.0186914579826407,0.0186914579826407,34.37421724997694,space,34.31318816699786,,,,,,,,,,,,,,,,,,,,,,,,,,,,,,,,,,,,,,,,,,,,,,,,,sub-076,1,random_dot,,
left,left,0.0,0.0,0.0,left,1.0,7.601105334004387,,,,,,0.0,0.0,0.0,0.0,,,,,,,,,34.41263500001514,,,,,,,,,34.39622779097408,35.181122832989786,35.98567012499552,35.96519116597483,35.96575591596775,35.98567012499552,35.98567012499552,35.98567012499552,40.9645047080121,43.58988566597691,left,1.0,7.601105334004387,,43.60028187499847,43.68280958296964,44.097803083015606,,,,,,,,,,,,,,,,,,,,,,,,,,,,,,,sub-076,1,random_dot,,
right,right,1.0,1.0,0.0,left,0.0,2.241831666964572,,,,,,0.0,1.0,1.0,1.0,,,,,,,,,44.10295104101533,,,,,,,,,44.09823858301388,44.43804620800074,45.23955100000603,45.231607166002505,45.23214558302425,45.23955100000603,45.23955100000603,45.23955100000603,,47.49356383300619,left,0.0,2.241831666964572,,47.4977448330028,47.50194662500871,47.98711162497057,47.99756766599603,,,,,,,,,,,,,,,,,,,,,,,,,,,,,,sub-076,1,random_dot,,
left,left,2.0,0.0,1.0,left,1.0,2.437192415993195,,,,,,1.0,0.0,2.0,0.0,,,,,,,,,47.99756766599603,,,,,,,,,47.98756008298369,48.33702991600149,49.12950258300407,49.120643833011854,49.1210787500022,49.12950258300407,49.12950258300407,49.12950258300407,,51.57074237498455,left,1.0,2.437192415993195,,51.57339812500868,51.580784790974576,52.06502333300887,52.07073154102545,,,,,,,,,,,,,,,,,,,,,,,,,,,,,,sub-076,1,random_dot,,
right,right,3.0,1.0,1.0,left,0.0,2.04522333398927,,,,,,1.0,1.0,3.0,1.0,,,,,,,,,52.07073154102545,,,,,,,,,52.06548462499632,52.16434524999932,52.9558421659749,52.94825399998808,52.94868954102276,52.9558421659749,52.9558421659749,52.9558421659749,,55.0058637909824,left,0.0,2.04522333398927,,55.008392165997066,55.01610545802396,55.50410499999998,55.51416770799551,,,,,,,,,,,,,,,,,,,,,,,,,,,,,,sub-076,1,random_dot,,
right,right,4.0,0.0,2.0,right,1.0,1.374802374979481,,,,,,2.0,0.0,4.0,1.0,,,,,,,,,55.51416770799551,,,,,,,,,55.50446012499742,56.30396616598591,57.09602133301087,57.08742287498899,57.087841083004605,57.09602133301087,57.09602133301087,57.09602133301087,,58.48255629098276,right,1.0,1.374802374979481,,58.48534670798108,58.49280658300268,58.981433250010014,58.98659433302237,,,,,,,,,,,,,,,,,,,,,,,,,,,,,,sub-076,1,random_dot,,
left,left,5.0,1.0,2.0,left,1.0,2.408234791015275,,,,,,2.0,1.0,5.0,0.0,,,,,,,,,58.98659433302237,,,,,,,,,58.98180645797402,59.78085687500425,60.57308424997609,60.564958708011545,60.56552599999122,60.57308424997609,60.57308424997609,60.57308424997609,,62.99081162497168,left,1.0,2.408234791015275,,62.99090987502132,62.99566650000634,63.48184645798756,63.48762020800496,,,,,,,,,,,,,,,,,,,,,,,,,,,,,,sub-076,1,random_dot,,
left,left,6.0,0.0,3.0,right,0.0,1.5193769590114243,,,,,,3.0,0.0,6.0,0.0,,,,,,,,,63.48762020800496,,,,,,,,,63.48230012500426,63.58684533298947,64.37933366600191,64.37015854101628,64.37060170801124,64.37933366600191,64.37933366600191,64.37933366600191,,65.90815370797645,right,0.0,1.5193769590114243,,65.91068724996876,65.91602758300724,66.40410141600296,66.41409204096999,,,,,,,,,,,,,,,,,,,,,,,,,,,,,,sub-076,1,random_dot,,
right,right,7.0,1.0,3.0,left,0.0,2.298460874997545,,,,,,3.0,1.0,7.0,1.0,,,,,,,,,66.41409204096999,,,,,,,,,66.40445933298906,67.60300704097608,68.39591516600922,68.38720520801144,68.3876380409929,68.39591516600922,68.39591516600922,68.39591516600922,,70.69734941597562,left,0.0,2.298460874997545,,70.69744149997132,70.70435237500351,71.18745174998185,71.19730179099133,,,,,,,,,,,,,,,,,,,,,,,,,,,,,,sub-076,1,random_dot,,
left,left,8.0,0.0,4.0,right,0.0,1.625259249994997,,,,,,4.0,0.0,8.0,0.0,,,,,,,,,71.19730179099133,,,,,,,,,71.18780850002076,71.53762808302417,72.32917045801878,72.32066191599006,72.32108099997276,72.32917045801878,72.32917045801878,72.32917045801878,,73.96517812501406,right,0.0,1.625259249994997,,73.96527124999557,73.9722190410248,74.4650070409989,74.47060695796972,,,,,,,,,,,,,,,,,,,,,,,,,,,,,,sub-076,1,random_dot,,
right,right,9.0,1.0,4.0,left,0.0,1.695008084003348,,,,,,4.0,1.0,9.0,1.0,,,,,,,,,74.47060695796972,,,,,,,,,74.46546812501037,75.26407670800108,76.05631433299277,76.04821058298694,76.04876370797865,76.05631433299277,76.05631433299277,76.05631433299277,,77.7560170830111,left,0.0,1.695008084003348,,77.75611087499419,77.76310029102024,78.24785316601628,78.25325708300807,,,,,,,,,,,,,,,,,,,,,,,,,,,,,,sub-076,1,random_dot,,
right,right,10.0,0.0,5.0,left,0.0,3.2720151669927877,,,,,,5.0,0.0,10.0,1.0,,,,,,,,,78.25325708300807,,,,,,,,,78.24828762497054,79.05313870799728,79.84586229099659,79.836834791,79.83724683301989,79.84586229099659,79.84586229099659,79.84586229099659,,83.12174520798726,left,0.0,3.2720151669927877,,83.12186212500092,83.12917929101968,83.61472208297346,83.62019020802109,,,,,,,,,,,,,,,,,,,,,,,,,,,,,,sub-076,1,random_dot,,
left,left,11.0,1.0,5.0,right,0.0,3.310621916956734,,,,,,5.0,1.0,11.0,0.0,,,,,,,,,83.62019020802109,,,,,,,,,83.61518800002523,84.82009175000712,85.61237599997548,85.60410045797471,85.60451570799341,85.61237599997548,85.61237599997548,85.61237599997548,,88.93127116601681,right,0.0,3.310621916956734,,88.93136112502543,88.93856295797741,89.43146279099165,89.43720245797886,,,,,,,,,,,,,,,,,,,,,,,,,,,,,,sub-076,1,random_dot,,
right,right,12.0,0.0,6.0,right,1.0,0.9023838749853894,,,,,,6.0,0.0,12.0,1.0,,,,,,,,,89.43720245797886,,,,,,,,,89.43195179098984,90.62006708298576,91.41231029102346,91.4039157910156,91.40437200001908,91.41231029102346,91.41231029102346,91.41231029102346,,92.32419733301504,right,1.0,0.9023838749853894,,92.3268691659905,92.33224066597175,92.82022008299828,92.8305446250015,,,,,,,,,,,,,,,,,,,,,,,,,,,,,,sub-076,1,random_dot,,
left,left,13.0,1.0,6.0,right,0.0,0.8750545829534531,,,,,,6.0,1.0,13.0,0.0,,,,,,,,,92.8305446250015,,,,,,,,,92.82056858297436,94.02084816602292,94.82248120801523,94.81453258299734,94.81507358298404,94.82248120801523,94.82248120801523,94.82248120801523,,95.69983599998524,right,0.0,0.8750545829534531,,95.70287866599392,95.71016941597918,96.19784937502118,96.20330854097848,,,,,,,,,,,,,,,,,,,,,,,,,,,,,,sub-076,1,random_dot,,
left,left,14.0,0.0,7.0,left,1.0,3.2866582089918666,,,,,,7.0,0.0,14.0,0.0,,,,,,,,,96.20330854097848,,,,,,,,,96.19831516599515,96.29714300000342,97.08938279101858,97.0812941659824,97.08185895800123,97.08938279101858,97.08938279101858,97.08938279101858,,100.38160149997566,left,1.0,3.2866582089918666,,100.38418837497012,100.3914668749785,100.88126724999164,100.8870653330232,,,,,,,,,,,,,,,,,,,,,,,,,,,,,,sub-076,1,random_dot,,
right,right,15.0,1.0,7.0,left,0.0,2.263317000004463,,,,,,7.0,1.0,15.0,1.0,,,,,,,,,100.8870653330232,,,,,,,,,100.88173733302392,100.9804540409823,101.7727657079813,101.76457791600842,101.76511666597798,101.7727657079813,101.7727657079813,101.7727657079813,,104.03936499997508,left,0.0,2.263317000004463,,104.04199408297428,104.05034533300204,104.53632320801262,104.54693316598424,,,,,,,,,,,,,,,,,,,,,,,,,,,,,,sub-076,1,random_dot,,
left,left,16.0,0.0,8.0,left,1.0,3.184736958995927,,,,,,8.0,0.0,16.0,0.0,,,,,,,,,104.54693316598424,,,,,,,,,104.53669545799494,104.63581508299104,105.42888608301293,105.41964433301472,105.42008358298337,105.42888608301293,105.42888608301293,105.42888608301293,,108.62312850001037,left,1.0,3.184736958995927,,108.62567558302544,108.64660745800938,109.13048370799515,,,,,,,,,,,,,,,,,,,,,,,,,,,,,,,sub-076,1,random_dot,,
right,right,17.0,1.0,8.0,left,0.0,3.1178722500335425,,,,,,8.0,1.0,17.0,1.0,,,,,,,,,109.13619995798216,,,,,,,,,109.13099604099988,109.4698000830249,110.26209425000708,110.25347583298571,110.2538934579934,110.26209425000708,110.26209425000708,110.26209425000708,,113.38199179101504,left,0.0,3.1178722500335425,,113.38535616599256,113.39282591600204,113.88094129099044,113.88643941597547,,,,,,,,,,,,,,,,,,,,,,,,,,,,,,sub-076,1,random_dot,,
right,right,18.0,0.0,9.0,right,1.0,0.8140757909859531,,,,,,9.0,0.0,18.0,1.0,,,,,,,,,113.88643941597547,,,,,,,,,113.88140412501524,114.68030079099115,115.47201833297731,115.46426558302484,115.46471216599456,115.47201833297731,115.47201833297731,115.47201833297731,,116.29667566600256,right,1.0,0.8140757909859531,,116.29921249998732,116.30418391601415,116.79706929100212,,,,,,,,,,,,,,,,,,,,,,,,,,,,,,,sub-076,1,random_dot,,
left,left,19.0,1.0,9.0,right,0.0,0.8022724160109647,,,,,,9.0,1.0,19.0,0.0,,,,,,,,,116.80274533299962,,,,,,,,,116.79754966602196,117.98680966597747,118.77866474998882,118.77022333297646,118.7706580000231,118.77866474998882,118.77866474998882,118.77866474998882,,119.58760412497212,right,0.0,0.8022724160109647,,119.59014558297348,119.61316245800116,120.09688433300472,,,,,,,,,,,,,,,,,,,,,,,,,,,,,,,sub-076,1,random_dot,,
,,,,,,,,,,,,,,,,,,,,,,,,,,,,,,,,,,,,,,,,,,,,,,,,,,,,120.09707508300198,120.1049722909811,120.1049722909811,123.6822167909704,space,3.5715417499886826,,,,,,,,,,,,,,,,,,,,,,,,sub-076,1,random_dot,,
,,,,,,,,,,,,,,,,,,,,,,,,,,,,,,,,,,,,,,,,,,,,,,,,,,,,,,,,,,,123.68233354098628,123.6950477079954,123.6950477079954,134.14872524997918,space,10.446981083019637,,,,,,,,,,,,,,,,,sub-076,1,random_dot,,
left,left,0.0,0.0,0.0,left,1.0,1.809214874985628,,accuracy,space,3.87014574999921,,,,,,0.0,0.0,0.0,0.0,0.0,0.0,0.0,0.0,138.07218354102224,,,,,,,,,138.06508374999976,138.15149608301,138.94521808298305,138.93574654101394,138.9361742080073,138.94521808298305,138.94521808298305,138.94521808298305,,140.7645824580104,,,,,,,,,,,,,,,,,,,,,,,134.17068400001153,134.1785571249784,134.1785571249784,138.05502933298703,space,3.87014574999921,,left,1.0,1.809214874985628,,,,,,sub-076,1,random_dot,,
right,right,1.0,1.0,0.0,left,0.0,4.768503208004404,,accuracy,space,3.87014574999921,,,,,,0.0,0.0,0.0,0.0,0.0,1.0,1.0,1.0,140.77142250002362,,,,,,,,,140.7649111659848,140.86322120798286,141.6554376250133,141.6473192910198,141.6478457080084,141.6554376250133,141.6554376250133,141.6554376250133,,146.43142804101808,,,,,,,,,,,,,,,,,,,,,,,,,,,,,,left,0.0,4.768503208004404,,,,,,sub-076,1,random_dot,,
right,right,2.0,0.0,1.0,right,1.0,2.8662320420262404,,accuracy,space,3.87014574999921,,,,,,0.0,0.0,0.0,0.0,1.0,0.0,2.0,1.0,146.43894495797576,,,,,,,,,146.431899874995,146.5298200409743,147.32138108299114,147.3137189159752,147.3141561250086,147.32138108299114,147.32138108299114,147.32138108299114,,150.19714887498412,,,,,,,,,,,,,,,,,,,,,,,,,,,,,,right,1.0,2.8662320420262404,,,,,,sub-076,1,random_dot,,
left,left,3.0,1.0,1.0,left,1.0,3.73028424999211,,accuracy,space,3.87014574999921,,,,,,0.0,0.0,0.0,0.0,1.0,1.0,3.0,0.0,150.20359333301894,,,,,,,,,150.1975602079765,150.53589379100595,151.32849470799556,151.3194878330105,151.3199127910193,151.32849470799556,151.32849470799556,151.32849470799556,,155.06363074999535,,,,,,,,,,,,,,,,,,,,,,,,,,,,,,left,1.0,3.73028424999211,,,,,,sub-076,1,random_dot,,
right,right,4.0,0.0,2.0,right,1.0,2.124323583964724,,accuracy,space,3.87014574999921,,,,,,0.0,0.0,0.0,0.0,2.0,0.0,4.0,1.0,155.07056675001513,,,,,,,,,155.06396395800402,155.15202487498755,155.94492570799775,155.93612712499453,155.93652795802336,155.94492570799775,155.94492570799775,155.94492570799775,,158.08142945799045,,,,,,,,,,,,,,,,,,,,,,,,,,,,,,right,1.0,2.124323583964724,,,,,,sub-076,1,random_dot,,
left,left,5.0,1.0,2.0,left,1.0,5.675420542014763,,accuracy,space,3.87014574999921,,,,,,0.0,0.0,0.0,0.0,2.0,1.0,5.0,0.0,158.08909254102036,,,,,,,,,158.08189116598805,158.87970904097892,159.67147175001446,159.66376812499948,159.66431245801505,159.67147175001446,159.67147175001446,159.67147175001446,164.65173645800678,165.35003274999326,,,,,,,,,,,,,,,,,,,,,,,,,,,,,,left,1.0,5.675420542014763,,,,,,sub-076,1,random_dot,,
left,left,6.0,0.0,3.0,right,0.0,2.169633540965151,,accuracy,space,3.87014574999921,,,,,,0.0,0.0,0.0,0.0,3.0,0.0,6.0,0.0,165.3597893330152,,,,,,,,,165.35068587498972,165.44624274998205,166.23876745800953,166.23051166598452,166.23106433299836,166.23876745800953,166.23876745800953,166.23876745800953,,168.41450541600352,,,,,,,,,,,,,,,,,,,,,,,,,,,,,,right,0.0,2.169633540965151,,,,,,sub-076,1,random_dot,,
right,right,7.0,1.0,3.0,left,0.0,2.722315209044609,,accuracy,space,3.87014574999921,,,,,,0.0,0.0,0.0,0.0,3.0,1.0,7.0,1.0,168.4217309160158,,,,,,,,,168.41494674998103,168.7628994580009,169.55446725001093,169.54677666601492,169.5471884579747,169.55446725001093,169.55446725001093,169.55446725001093,,172.2812902079895,,,,,,,,,,,,,,,,,,,,,,,,,,,,,,left,0.0,2.722315209044609,,,,,,sub-076,1,random_dot,,
right,right,8.0,0.0,4.0,left,0.0,2.781158625031821,,accuracy,space,3.87014574999921,,,,,,0.0,0.0,0.0,0.0,4.0,0.0,8.0,1.0,172.28855987498537,,,,,,,,,172.2817589159822,173.07960095797898,173.87096020800527,173.8634892909904,173.8639064580202,173.87096020800527,173.87096020800527,173.87096020800527,,176.66404370800592,,,,,,,,,,,,,,,,,,,,,,,,,,,,,,left,0.0,2.781158625031821,,,,,,sub-076,1,random_dot,,
left,left,9.0,1.0,4.0,right,0.0,3.2072020409977995,,accuracy,space,3.87014574999921,,,,,,0.0,0.0,0.0,0.0,4.0,1.0,9.0,0.0,176.67101779096993,,,,,,,,,176.66437991597925,177.01285720797023,177.8050031249877,177.79699191602413,177.79754041600972,177.8050031249877,177.8050031249877,177.8050031249877,,181.0226082499721,,,,,,,,,,,,,,,,,,,,,,,,,,,,,,right,0.0,3.2072020409977995,,,,,,sub-076,1,random_dot,,
right,right,10.0,0.0,5.0,left,0.0,3.8342407909804015,,accuracy,space,3.87014574999921,,,,,,0.0,0.0,0.0,0.0,5.0,0.0,10.0,1.0,181.02822429098887,,,,,,,,,181.02294012502531,181.81974787497893,182.6216699159704,182.61378662497737,182.61433537502307,182.6216699159704,182.6216699159704,182.6216699159704,,186.46412129100645,,,,,,,,,,,,,,,,,,,,,,,,,,,,,,left,0.0,3.8342407909804015,,,,,,sub-076,1,random_dot,,
left,left,11.0,1.0,5.0,left,1.0,1.9423594999825584,,accuracy,space,3.87014574999921,,,,,,0.0,0.0,0.0,0.0,5.0,1.0,11.0,0.0,186.47140154097,,,,,,,,,186.4645505410153,186.81280420802068,187.604841916007,187.5968891250086,187.59742833301425,187.604841916007,187.604841916007,187.604841916007,,189.55270420800665,,,,,,,,,,,,,,,,,,,,,,,,,,,,,,left,1.0,1.9423594999825584,,,,,,sub-076,1,random_dot,,
right,right,12.0,0.0,6.0,left,0.0,4.285438875027467,,accuracy,space,3.87014574999921,,,,,,0.0,0.0,0.0,0.0,6.0,0.0,12.0,1.0,189.56146624998652,,,,,,,,,189.55302520800612,189.9020908329985,190.6945971249952,190.68626524996944,190.68669599998972,190.6945971249952,190.6945971249952,190.6945971249952,,194.989939290972,,,,,,,,,,,,,,,,,,,,,,,,,,,,,,left,0.0,4.285438875027467,,,,,,sub-076,1,random_dot,,
left,left,13.0,1.0,6.0,left,1.0,3.3414922499796376,,accuracy,space,3.87014574999921,,,,,,0.0,0.0,0.0,0.0,6.0,1.0,13.0,0.0,194.99475458299275,,,,,,,,,194.99028720799836,195.78553154098336,196.5878442079993,196.5800982079818,196.5806261660182,196.5878442079993,196.5878442079993,196.5878442079993,,199.9314395830152,,,,,,,,,,,,,,,,,,,,,,,,,,,,,,left,1.0,3.3414922499796376,,,,,,sub-076,1,random_dot,,
left,left,14.0,0.0,7.0,right,0.0,2.413532459002454,,accuracy,space,3.87014574999921,,,,,,0.0,0.0,0.0,0.0,7.0,0.0,14.0,0.0,199.93903879099528,,,,,,,,,199.9320403750171,200.72918124997523,201.5212047909736,201.51325312501285,201.51379658299263,201.5212047909736,201.5212047909736,201.5212047909736,,203.937471000012,,,,,,,,,,,,,,,,,,,,,,,,,,,,,,right,0.0,2.413532459002454,,,,,,sub-076,1,random_dot,,
right,right,15.0,1.0,7.0,left,0.0,2.294549916987308,,accuracy,space,3.87014574999921,,,,,,0.0,0.0,0.0,0.0,7.0,1.0,15.0,1.0,203.9445676659816,,,,,,,,,203.93782279099105,204.735460707976,205.5276229580049,205.51892408297863,205.51934275001983,205.5276229580049,205.5276229580049,205.5276229580049,,207.83081829099683,,,,,,,,,,,,,,,,,,,,,,,,,,,,,,left,0.0,2.294549916987308,,,,,,sub-076,1,random_dot,,
right,right,16.0,0.0,8.0,right,1.0,3.03296387498267,,accuracy,space,3.87014574999921,,,,,,0.0,0.0,0.0,0.0,8.0,0.0,16.0,1.0,207.83803733298555,,,,,,,,,207.83127733302533,209.02926458301957,209.82107445801373,209.81302645802495,209.81350233301052,209.82107445801373,209.82107445801373,209.82107445801373,,212.86405387497507,,,,,,,,,,,,,,,,,,,,,,,,,,,,,,right,1.0,3.03296387498267,,,,,,sub-076,1,random_dot,,
left,left,17.0,1.0,8.0,left,1.0,3.571167999994941,,accuracy,space,3.87014574999921,,,,,,0.0,0.0,0.0,0.0,8.0,1.0,17.0,0.0,212.87150087498597,,,,,,,,,212.8645444579888,213.2124584579724,214.0037742910208,213.9963602909702,213.99678554100683,214.0037742910208,214.0037742910208,214.0037742910208,,217.5796551249805,,,,,,,,,,,,,,,,,,,,,,,,,,,,,,left,1.0,3.571167999994941,,,,,,sub-076,1,random_dot,,
right,right,18.0,0.0,9.0,right,1.0,3.0608145410078578,,accuracy,space,3.87014574999921,,,,,,0.0,0.0,0.0,0.0,9.0,0.0,18.0,1.0,217.5869227909716,,,,,,,,,217.58011054102096,217.9184834579937,218.7108071660041,218.7021736659808,218.70258587499848,218.7108071660041,218.7108071660041,218.7108071660041,,221.77901250001744,,,,,,,,,,,,,,,,,,,,,,,,,,,,,,right,1.0,3.0608145410078578,,,,,,sub-076,1,random_dot,,
left,left,19.0,1.0,9.0,left,1.0,1.307566208008211,,accuracy,space,3.87014574999921,,,,,,0.0,0.0,0.0,0.0,9.0,1.0,19.0,0.0,221.78595045796828,,,,,,,,,221.7793577910052,222.56836291600484,223.36082175001505,223.3525160410209,223.352951458015,223.36082175001505,223.36082175001505,223.36082175001505,,224.67007820797156,,,,,,,,,,,,,,,,,,,,,,,,,,,,,,left,1.0,1.307566208008211,,,,,,sub-076,1,random_dot,,
right,right,20.0,0.0,10.0,right,1.0,2.2336982080014423,,accuracy,space,3.87014574999921,,,,,,0.0,0.0,0.0,0.0,10.0,0.0,20.0,1.0,224.6773556249682,,,,,,,,,224.6704248749884,225.0189051660127,225.8203625829774,225.81281333300285,225.813241707976,225.8203625829774,225.8203625829774,225.8203625829774,,228.06267720798496,,,,,,,,,,,,,,,,,,,,,,,,,,,,,,right,1.0,2.2336982080014423,,,,,,sub-076,1,random_dot,,
left,left,21.0,1.0,10.0,right,0.0,1.8519320409977809,,accuracy,space,3.87014574999921,,,,,,0.0,0.0,0.0,0.0,10.0,1.0,21.0,0.0,228.06963599997107,,,,,,,,,228.06299758300884,229.25220029096815,230.0439968749997,230.03564091597215,230.03606091596885,230.0439968749997,230.0439968749997,230.0439968749997,,231.89811887498945,,,,,,,,,,,,,,,,,,,,,,,,,,,,,,right,0.0,1.8519320409977809,,,,,,sub-076,1,random_dot,,
left,left,22.0,0.0,11.0,right,0.0,2.7194300410337746,,accuracy,space,3.87014574999921,,,,,,0.0,0.0,0.0,0.0,11.0,0.0,22.0,0.0,231.9053742079996,,,,,,,,,231.8985145830084,231.9955317910062,232.7869072079775,232.77949899999655,232.77993620798225,232.7869072079775,232.7869072079775,232.7869072079775,,235.5137971660006,,,,,,,,,,,,,,,,,,,,,,,,,,,,,,right,0.0,2.7194300410337746,,,,,,sub-076,1,random_dot,,
right,right,23.0,1.0,11.0,left,0.0,1.6457852079765871,,accuracy,space,3.87014574999921,,,,,,0.0,0.0,0.0,0.0,11.0,1.0,23.0,1.0,235.5209989579744,,,,,,,,,235.5143052909989,236.3122588329716,237.10419250000268,237.0961837079958,237.09675399999836,237.10419250000268,237.10419250000268,237.10419250000268,,238.75282262498516,,,,,,,,,,,,,,,,,,,,,,,,,,,,,,left,0.0,1.6457852079765871,,,,,,sub-076,1,random_dot,,
right,right,24.0,0.0,12.0,right,1.0,3.041295250004623,,accuracy,space,3.87014574999921,,,,,,0.0,0.0,0.0,0.0,12.0,0.0,24.0,1.0,238.7606408749707,,,,,,,,,238.75317024998367,238.85171837499365,239.64404141600244,239.63492699997727,239.63533595798071,239.64404141600244,239.64404141600244,239.64404141600244,,242.6873514999752,,,,,,,,,,,,,,,,,,,,,,,,,,,,,,right,1.0,3.041295250004623,,,,,,sub-076,1,random_dot,,
left,left,25.0,1.0,12.0,left,1.0,2.163255291990936,,accuracy,space,3.87014574999921,,,,,,0.0,0.0,0.0,0.0,12.0,1.0,25.0,0.0,242.6947153750225,,,,,,,,,242.68788416602183,243.03534241596932,243.8273162500118,243.8188807499828,243.81930741597895,243.8273162500118,243.8273162500118,243.8273162500118,,245.99720024998533,,,,,,,,,,,,,,,,,,,,,,,,,,,,,,left,1.0,2.163255291990936,,,,,,sub-076,1,random_dot,,
right,right,26.0,0.0,13.0,right,1.0,3.2283612500177696,,accuracy,space,3.87014574999921,,,,,,0.0,0.0,0.0,0.0,13.0,0.0,26.0,1.0,246.00447937496935,,,,,,,,,245.99766041600375,246.0953280829708,246.88671791600063,246.8792772910092,246.8797069999855,246.88671791600063,246.88671791600063,246.88671791600063,,250.12025279097725,,,,,,,,,,,,,,,,,,,,,,,,,,,,,,right,1.0,3.2283612500177696,,,,,,sub-076,1,random_dot,,
left,left,27.0,1.0,13.0,right,0.0,1.6114123329753056,,accuracy,space,3.87014574999921,,,,,,0.0,0.0,0.0,0.0,13.0,1.0,27.0,0.0,250.12734391598497,,,,,,,,,250.12059941596817,250.21747908298855,251.01042037497973,251.00178783299637,251.00220337498467,251.01042037497973,251.01042037497973,251.01042037497973,,252.6301142909797,,,,,,,,,,,,,,,,,,,,,,,,,,,,,,right,0.0,1.6114123329753056,,,,,,sub-076,1,random_dot,,
left,left,28.0,0.0,14.0,right,0.0,2.8102144160075118,,accuracy,space,3.87014574999921,,,,,,0.0,0.0,0.0,0.0,14.0,0.0,28.0,0.0,252.63711029099068,,,,,,,,,252.63051108299987,253.82860712497492,254.62204787501832,254.61286225001092,254.6134637080249,254.62204787501832,254.62204787501832,254.62204787501832,,257.4355437909835,,,,,,,,,,,,,,,,,,,,,,,,,,,,,,right,0.0,2.8102144160075118,,,,,,sub-076,1,random_dot,,
right,right,29.0,1.0,14.0,right,1.0,3.6195435830159113,,accuracy,space,3.87014574999921,,,,,,0.0,0.0,0.0,0.0,14.0,1.0,29.0,1.0,257.44410124997376,,,,,,,,,257.4359810000169,257.53431887499755,258.3270648330217,258.3184120000224,258.31886570801726,258.3270648330217,258.3270648330217,258.3270648330217,,261.95622483297484,,,,,,,,,,,,,,,,,,,,,,,,,,,,,,right,1.0,3.6195435830159113,,,,,,sub-076,1,random_dot,,
left,left,30.0,0.0,15.0,left,1.0,1.3211576670291834,,accuracy,space,3.87014574999921,,,,,,0.0,0.0,0.0,0.0,15.0,0.0,30.0,0.0,261.9609254159732,,,,,,,,,261.95656154101016,263.15195283299545,263.9538754579844,263.94600987498416,263.9465486659901,263.9538754579844,263.9538754579844,263.9538754579844,,265.2800879999995,,,,,,,,,,,,,,,,,,,,,,,,,,,,,,left,1.0,1.3211576670291834,,,,,,sub-076,1,random_dot,,
right,right,31.0,1.0,15.0,right,1.0,2.5315875420346856,,accuracy,space,3.87014574999921,,,,,,0.0,0.0,0.0,0.0,15.0,1.0,31.0,1.0,265.28751387499506,,,,,,,,,265.2805605829926,266.4784522909904,267.2697701660218,267.2623720410047,267.26279312500264,267.2697701660218,267.2697701660218,267.2697701660218,,269.81205537501955,,,,,,,,,,,,,,,,,,,,,,,,,,,,,,right,1.0,2.5315875420346856,,,,,,sub-076,1,random_dot,,
right,right,32.0,0.0,16.0,left,0.0,4.599198042007629,,accuracy,space,3.87014574999921,,,,,,0.0,0.0,0.0,0.0,16.0,0.0,32.0,1.0,269.815749374975,,,,,,,,,269.81244266597787,271.0005409999867,271.7935364160221,271.7849243329838,271.785340374976,271.7935364160221,271.7935364160221,271.7935364160221,,276.3966370410053,,,,,,,,,,,,,,,,,,,,,,,,,,,,,,left,0.0,4.599198042007629,,,,,,sub-076,1,random_dot,,
left,left,33.0,1.0,16.0,left,1.0,1.6759019999881275,,accuracy,space,3.87014574999921,,,,,,0.0,0.0,0.0,0.0,16.0,1.0,33.0,0.0,276.4038831659709,,,,,,,,,276.3969870830188,277.1949217080255,277.9869430830004,277.979206582997,277.9797451659688,277.9869430830004,277.9869430830004,277.9869430830004,,279.66813795798225,,,,,,,,,,,,,,,,,,,,,,,,,,,,,,left,1.0,1.6759019999881275,,,,,,sub-076,1,random_dot,,
left,left,34.0,0.0,17.0,left,1.0,5.746466791024432,,accuracy,space,3.87014574999921,,,,,,0.0,0.0,0.0,0.0,17.0,0.0,34.0,0.0,279.6771322910208,,,,,,,,,279.6684683749918,280.01161320798565,280.8036120000179,280.79566791601246,280.79620500002056,280.8036120000179,280.8036120000179,280.8036120000179,285.794895583007,286.5538122499711,,,,,,,,,,,,,,,,,,,,,,,,,,,,,,left,1.0,5.746466791024432,,,,,,sub-076,1,random_dot,,
right,right,35.0,1.0,17.0,right,1.0,4.892939415993169,,accuracy,space,3.87014574999921,,,,,,0.0,0.0,0.0,0.0,17.0,1.0,35.0,1.0,286.56363099999726,,,,,,,,,286.55436499998905,287.35088379099034,288.15366050001467,288.1456792500103,288.14619620802114,288.15366050001467,288.15366050001467,288.15366050001467,,293.0523398329969,,,,,,,,,,,,,,,,,,,,,,,,,,,,,,right,1.0,4.892939415993169,,,,,,sub-076,1,random_dot,,
right,right,36.0,0.0,18.0,left,0.0,2.3268012500484474,,accuracy,space,3.87014574999921,,,,,,0.0,0.0,0.0,0.0,18.0,0.0,36.0,1.0,293.06030541600194,,,,,,,,,293.05266679101624,294.2508264160133,295.04328350001015,295.0346162909991,295.03501833300106,295.04328350001015,295.04328350001015,295.04328350001015,,297.37944083299953,,,,,,,,,,,,,,,,,,,,,,,,,,,,,,left,0.0,2.3268012500484474,,,,,,sub-076,1,random_dot,,
left,left,37.0,1.0,18.0,left,1.0,2.0717200830113143,,accuracy,space,3.87014574999921,,,,,,0.0,0.0,0.0,0.0,18.0,1.0,37.0,0.0,297.3864600000088,,,,,,,,,297.3797867500107,298.1780456249835,298.97016616602195,298.9620590410196,298.96260420797626,298.97016616602195,298.97016616602195,298.97016616602195,,301.0455796250026,,,,,,,,,,,,,,,,,,,,,,,,,,,,,,left,1.0,2.0717200830113143,,,,,,sub-076,1,random_dot,,
right,right,38.0,0.0,19.0,left,0.0,3.804093374987133,,accuracy,space,3.87014574999921,,,,,,0.0,0.0,0.0,0.0,19.0,0.0,38.0,1.0,301.0528129999875,,,,,,,,,301.04605187498964,302.23509679100243,303.03695908299414,303.02887500001816,303.0294180830242,303.03695908299414,303.03695908299414,303.03695908299414,,306.8461205000058,,,,,,,,,,,,,,,,,,,,,,,,,,,,,,left,0.0,3.804093374987133,,,,,,sub-076,1,random_dot,,
left,left,39.0,1.0,19.0,left,1.0,2.2691253750235774,,accuracy,space,3.87014574999921,,,,,,0.0,0.0,0.0,0.0,19.0,1.0,39.0,0.0,306.8537178330007,,,,,,,,,306.8465897080023,307.64457154099364,308.4366148330155,308.4288150409702,308.42924962501274,308.4366148330155,308.4366148330155,308.4366148330155,,310.712744999968,,,,,,,,,,,,,,,,,,,,,,,,,,,,,,left,1.0,2.2691253750235774,,,,,,sub-076,1,random_dot,,
left,left,40.0,0.0,20.0,left,1.0,2.958715832966845,,accuracy,space,3.87014574999921,,,,,,0.0,0.0,0.0,0.0,20.0,0.0,40.0,0.0,310.7206027909997,,,,,,,,,310.713203665975,311.5112691660179,312.3034535829793,312.2955513329944,312.2960825000191,312.3034535829793,312.3034535829793,312.3034535829793,,315.27174808300333,,,,,,,,,,,,,,,,,,,,,,,,,,,,,,left,1.0,2.958715832966845,,,,,,sub-076,1,random_dot,,
right,right,41.0,1.0,20.0,left,0.0,2.6043318749871105,,accuracy,space,3.87014574999921,,,,,,0.0,0.0,0.0,0.0,20.0,1.0,41.0,1.0,315.2765469159931,,,,,,,,,315.27206758299144,316.46776845800923,317.2596694579697,317.251265791012,317.251667457982,317.2596694579697,317.2596694579697,317.2596694579697,,319.8688000830007,,,,,,,,,,,,,,,,,,,,,,,,,,,,,,left,0.0,2.6043318749871105,,,,,,sub-076,1,random_dot,,
right,right,42.0,0.0,21.0,left,0.0,1.0554987500072457,,accuracy,space,3.87014574999921,,,,,,0.0,0.0,0.0,0.0,21.0,0.0,42.0,1.0,319.87666737497784,,,,,,,,,319.8691265829839,320.2174039579695,321.0096365410136,321.0015146249789,321.0019287079922,321.0096365410136,321.0096365410136,321.0096365410136,,322.0689957080176,,,,,,,,,,,,,,,,,,,,,,,,,,,,,,left,0.0,1.0554987500072457,,,,,,sub-076,1,random_dot,,
left,left,43.0,1.0,21.0,left,1.0,4.74575233401265,,accuracy,space,3.87014574999921,,,,,,0.0,0.0,0.0,0.0,21.0,1.0,43.0,0.0,322.07610837498214,,,,,,,,,322.06939804099966,323.2671204159851,324.0596032500034,324.0510299159796,324.051452832995,324.0596032500034,324.0596032500034,324.0596032500034,,328.81228050001664,,,,,,,,,,,,,,,,,,,,,,,,,,,,,,left,1.0,4.74575233401265,,,,,,sub-076,1,random_dot,,
left,left,44.0,0.0,22.0,left,1.0,3.3678382500074804,,accuracy,space,3.87014574999921,,,,,,0.0,0.0,0.0,0.0,22.0,0.0,44.0,0.0,328.81924641598016,,,,,,,,,328.81261787499534,330.0110567500233,330.80299958301475,330.79502258298453,330.7954739999841,330.80299958301475,330.80299958301475,330.80299958301475,,334.1795080410084,,,,,,,,,,,,,,,,,,,,,,,,,,,,,,left,1.0,3.3678382500074804,,,,,,sub-076,1,random_dot,,
right,right,45.0,1.0,22.0,left,0.0,2.3887954170349985,,accuracy,space,3.87014574999921,,,,,,0.0,0.0,0.0,0.0,22.0,1.0,45.0,1.0,334.1870332909748,,,,,,,,,334.1800184160238,335.37767299998086,336.16947654099204,336.1616412079893,336.162174624973,336.16947654099204,336.16947654099204,336.16947654099204,,338.56170395802474,,,,,,,,,,,,,,,,,,,,,,,,,,,,,,left,0.0,2.3887954170349985,,,,,,sub-076,1,random_dot,,
left,left,46.0,0.0,23.0,left,1.0,3.947620166989509,,accuracy,space,3.87014574999921,,,,,,0.0,0.0,0.0,0.0,23.0,0.0,46.0,0.0,338.56882212497294,,,,,,,,,338.5620540829841,339.3512223750004,340.15378845797386,340.1450960409711,340.14554841601057,340.15378845797386,340.15378845797386,340.15378845797386,,344.112084665976,,,,,,,,,,,,,,,,,,,,,,,,,,,,,,left,1.0,3.947620166989509,,,,,,sub-076,1,random_dot,,
right,right,47.0,1.0,23.0,left,0.0,4.811528499994893,,accuracy,space,3.87014574999921,,,,,,0.0,0.0,0.0,0.0,23.0,1.0,47.0,1.0,344.1191213330021,,,,,,,,,344.11243174999254,344.9109079579939,345.7029423749773,345.69511550001334,345.6956736249849,345.7029423749773,345.7029423749773,345.7029423749773,,350.5182546249707,,,,,,,,,,,,,,,,,,,,,,,,,,,,,,left,0.0,4.811528499994893,,,,,,sub-076,1,random_dot,,
left,left,48.0,0.0,24.0,right,0.0,1.6683472080039792,,accuracy,space,3.87014574999921,,,,,,0.0,0.0,0.0,0.0,24.0,0.0,48.0,0.0,350.5257826659945,,,,,,,,,350.51868899998954,350.867780999979,351.6687601250014,351.6613289579982,351.6617669159896,351.6687601250014,351.6687601250014,351.6687601250014,,353.344726625015,,,,,,,,,,,,,,,,,,,,,,,,,,,,,,right,0.0,1.6683472080039792,,,,,,sub-076,1,random_dot,,
right,right,49.0,1.0,24.0,right,1.0,2.44482675002655,,accuracy,space,3.87014574999921,,,,,,0.0,0.0,0.0,0.0,24.0,1.0,49.0,1.0,353.3517100409954,,,,,,,,,353.3451259160065,354.53370391600765,355.3258584159776,355.3170635830029,355.31758391601034,355.3258584159776,355.3258584159776,355.3258584159776,,357.77896475000307,,,,,,,,,,,,,,,,,,,,,,,,,,,,,,right,1.0,2.44482675002655,,,,,,sub-076,1,random_dot,,
right,right,50.0,0.0,25.0,left,0.0,3.440987582958769,,accuracy,space,3.87014574999921,,,,,,0.0,0.0,0.0,0.0,25.0,0.0,50.0,1.0,357.78634212497855,,,,,,,,,357.7794316660147,358.97724345797906,359.76976300001843,359.7615720410249,359.7621205410105,359.76976300001843,359.76976300001843,359.76976300001843,,363.2128173329984,,,,,,,,,,,,,,,,,,,,,,,,,,,,,,left,0.0,3.440987582958769,,,,,,sub-076,1,random_dot,,
left,left,51.0,1.0,25.0,left,1.0,2.350826083973516,,accuracy,space,3.87014574999921,,,,,,0.0,0.0,0.0,0.0,25.0,1.0,51.0,0.0,363.22020754101686,,,,,,,,,363.2132890829817,363.3105856659822,364.1028372080182,364.0948380409973,364.09536099998513,364.1028372080182,364.1028372080182,364.1028372080182,,366.4622289579711,,,,,,,,,,,,,,,,,,,,,,,,,,,,,,left,1.0,2.350826083973516,,,,,,sub-076,1,random_dot,,
right,right,52.0,0.0,26.0,left,0.0,3.7094464160036296,,accuracy,space,3.87014574999921,,,,,,0.0,0.0,0.0,0.0,26.0,0.0,52.0,1.0,366.46967545797816,,,,,,,,,366.4626845829771,367.2607116249856,368.0523394580232,368.04468383302446,368.0451030000113,368.0523394580232,368.0523394580232,368.0523394580232,,371.7716169580235,,,,,,,,,,,,,,,,,,,,,,,,,,,,,,left,0.0,3.7094464160036296,,,,,,sub-076,1,random_dot,,
left,left,53.0,1.0,26.0,right,0.0,2.1314856670214795,,accuracy,space,3.87014574999921,,,,,,0.0,0.0,0.0,0.0,26.0,1.0,53.0,0.0,371.7764494160074,,,,,,,,,371.77196670800913,372.9666490830132,373.7590836660238,373.75074433302507,373.7511675829883,373.7590836660238,373.7590836660238,373.7590836660238,,375.8937445409829,,,,,,,,,,,,,,,,,,,,,,,,,,,,,,right,0.0,2.1314856670214795,,,,,,sub-076,1,random_dot,,
right,right,54.0,0.0,27.0,left,0.0,1.7572606250178069,,accuracy,space,3.87014574999921,,,,,,0.0,0.0,0.0,0.0,27.0,0.0,54.0,1.0,375.90045970800566,,,,,,,,,375.8940655409824,375.98285441601183,376.7756838329951,376.7674620409962,376.76787529099965,376.7756838329951,376.7756838329951,376.7756838329951,,378.5356488749967,,,,,,,,,,,,,,,,,,,,,,,,,,,,,,left,0.0,1.7572606250178069,,,,,,sub-076,1,random_dot,,
left,left,55.0,1.0,27.0,left,1.0,4.135304124967661,,accuracy,space,3.87014574999921,,,,,,0.0,0.0,0.0,0.0,27.0,1.0,55.0,0.0,378.5428227909724,,,,,,,,,378.5360540410038,378.8837724159821,379.6756816660054,379.6671014999738,379.667535207991,379.6756816660054,379.6756816660054,379.6756816660054,,383.8175645829761,,,,,,,,,,,,,,,,,,,,,,,,,,,,,,left,1.0,4.135304124967661,,,,,,sub-076,1,random_dot,,
left,left,56.0,0.0,28.0,right,0.0,4.446810166991781,,accuracy,space,3.87014574999921,,,,,,0.0,0.0,0.0,0.0,28.0,0.0,56.0,0.0,383.8256226659869,,,,,,,,,383.8178926249966,383.91489579097833,384.7089181659976,384.7000679579796,384.7004926659865,384.7089181659976,384.7089181659976,384.7089181659976,,389.1610689159716,,,,,,,,,,,,,,,,,,,,,,,,,,,,,,right,0.0,4.446810166991781,,,,,,sub-076,1,random_dot,,
right,right,57.0,1.0,28.0,right,1.0,1.4694516659947112,,accuracy,space,3.87014574999921,,,,,,0.0,0.0,0.0,0.0,28.0,1.0,57.0,1.0,389.1656532500056,,,,,,,,,389.16126554098446,389.5003632080043,390.3013566660229,390.2941444999888,390.2946929999744,390.3013566660229,390.3013566660229,390.3013566660229,,391.7790099579725,,,,,,,,,,,,,,,,,,,,,,,,,,,,,,right,1.0,1.4694516659947112,,,,,,sub-076,1,random_dot,,
left,left,58.0,0.0,29.0,right,0.0,2.551016792014707,,accuracy,space,3.87014574999921,,,,,,0.0,0.0,0.0,0.0,29.0,0.0,58.0,0.0,391.7865694159991,,,,,,,,,391.7795796249993,392.5770307909697,393.3694280409836,393.361377416004,393.3619290830102,393.3694280409836,393.3694280409836,393.3694280409836,,395.9286270000157,,,,,,,,,,,,,,,,,,,,,,,,,,,,,,right,0.0,2.551016792014707,,,,,,sub-076,1,random_dot,,
right,right,59.0,1.0,29.0,right,1.0,2.7989114999654703,,accuracy,space,3.87014574999921,,,,,,0.0,0.0,0.0,0.0,29.0,1.0,59.0,1.0,395.93588733300567,,,,,,,,,395.9290649999748,396.7269586659968,397.5185690000071,397.51082687499,397.5112577910186,397.5185690000071,397.5185690000071,397.5185690000071,,400.3277559999842,,,,,,,,,,,,,,,,,,,,,,,,,,,,,,right,1.0,2.7989114999654703,,,,,,sub-076,1,random_dot,,
,,0.0,0.0,0.0,,,,,accuracy,space,3.87014574999921,,,,,,0.0,0.0,0.0,0.0,,,,,,,,,,,,,,,,,,,,,,,,,,,,,,,,,,,,,,,,,,,,,,,,,,,,,,,,,,,,,sub-076,1,random_dot,,
right,right,0.0,0.0,0.0,left,0.0,0.8333144170464948,,speed,space,3.3983852500095963,,,,,,0.0,1.0,1.0,1.0,0.0,0.0,0.0,1.0,403.764387290983,,,,,,,,,403.7569667079952,404.09351525001694,404.88501070800703,404.87743266602047,404.8778850410017,404.88501070800703,404.88501070800703,404.88501070800703,,405.7281524999999,,,,,,,,,,,,,,,,,,,,,,,400.34072249999736,400.3454785000067,400.3454785000067,403.74642500001937,space,3.3983852500095963,,left,0.0,0.8333144170464948,,,,,,sub-076,1,random_dot,,
left,left,1.0,1.0,0.0,right,0.0,1.1080922090332024,,speed,space,3.3983852500095963,,,,,,0.0,1.0,1.0,1.0,0.0,1.0,1.0,0.0,405.7350502909976,,,,,,,,,405.7284787910176,406.0769272909965,406.8691575829871,406.8610389580135,406.8615896250121,406.8691575829871,406.8691575829871,406.8691575829871,,407.98798974999227,,,,,,,,,,,,,,,,,,,,,,,,,,,,,,right,0.0,1.1080922090332024,,,,,,sub-076,1,random_dot,,
right,right,2.0,0.0,1.0,right,1.0,0.8940644999966025,,speed,space,3.3983852500095963,,,,,,0.0,1.0,1.0,1.0,1.0,0.0,2.0,1.0,407.9922277909936,,,,,,,,,407.9883200409822,408.3324197080219,409.1254129579757,409.1163021660177,409.1167115410208,409.1254129579757,409.1254129579757,409.1254129579757,,410.0286846249946,,,,,,,,,,,,,,,,,,,,,,,,,,,,,,right,1.0,0.8940644999966025,,,,,,sub-076,1,random_dot,,
left,left,3.0,1.0,1.0,left,1.0,1.2594410839956254,,speed,space,3.3983852500095963,,,,,,0.0,1.0,1.0,1.0,1.0,1.0,3.0,0.0,410.03610974998446,,,,,,,,,410.0291541659972,410.1267412910238,410.9187867500005,410.9108050409704,410.91134554101154,410.9187867500005,410.9187867500005,410.9187867500005,,412.1836437080056,,,,,,,,,,,,,,,,,,,,,,,,,,,,,,left,1.0,1.2594410839956254,,,,,,sub-076,1,random_dot,,
left,left,4.0,0.0,2.0,right,0.0,0.9944595000124536,,speed,space,3.3983852500095963,,,,,,0.0,1.0,1.0,1.0,2.0,0.0,4.0,0.0,412.1922745829797,,,,,,,,,412.1839538749773,412.9836059579975,413.7752446659724,413.7668657500181,413.7672737080138,413.7752446659724,413.7752446659724,413.7752446659724,,414.778141415969,,,,,,,,,,,,,,,,,,,,,,,,,,,,,,right,0.0,0.9944595000124536,,,,,,sub-076,1,random_dot,,
right,right,5.0,1.0,2.0,right,1.0,1.361610958003439,,speed,space,3.3983852500095963,,,,,,0.0,1.0,1.0,1.0,2.0,1.0,5.0,1.0,414.7851647079806,,,,,,,,,414.778556291014,415.5768993750098,416.3685701250215,416.3607576250215,416.3612846659962,416.3685701250215,416.3685701250215,416.3685701250215,,417.7341900829924,,,,,,,,,,,,,,,,,,,,,,,,,,,,,,right,1.0,1.361610958003439,,,,,,sub-076,1,random_dot,,
right,right,6.0,0.0,3.0,right,1.0,0.9887114579905756,,speed,space,3.3983852500095963,,,,,,0.0,1.0,1.0,1.0,3.0,0.0,6.0,1.0,417.742282415973,,,,,,,,,417.7346023750142,417.8326687910012,418.6253039159928,418.61590395797975,418.6163284159848,418.6253039159928,418.6253039159928,418.6253039159928,,419.6168962909724,,,,,,,,,,,,,,,,,,,,,,,,,,,,,,right,1.0,0.9887114579905756,,,,,,sub-076,1,random_dot,,
left,left,7.0,1.0,3.0,right,0.0,0.8744855830445886,,speed,space,3.3983852500095963,,,,,,0.0,1.0,1.0,1.0,3.0,1.0,7.0,0.0,419.6251533749746,,,,,,,,,419.61721379100345,420.8161092500086,421.6086159999832,421.5992544160108,421.5996900409809,421.6086159999832,421.6086159999832,421.6086159999832,,422.4851647079922,,,,,,,,,,,,,,,,,,,,,,,,,,,,,,right,0.0,0.8744855830445886,,,,,,sub-076,1,random_dot,,
right,right,8.0,0.0,4.0,right,1.0,1.8322790000238456,,speed,space,3.3983852500095963,,,,,,0.0,1.0,1.0,1.0,4.0,0.0,8.0,1.0,422.49221429100726,,,,,,,,,422.4855931659695,423.6828449160093,424.4751674159779,424.46629283297807,424.4666964579956,424.4751674159779,424.4751674159779,424.4751674159779,,426.3113884999766,,,,,,,,,,,,,,,,,,,,,,,,,,,,,,right,1.0,1.8322790000238456,,,,,,sub-076,1,random_dot,,
left,left,9.0,1.0,4.0,right,0.0,1.3002796670189127,,speed,space,3.3983852500095963,,,,,,0.0,1.0,1.0,1.0,4.0,1.0,9.0,0.0,426.3183826659806,,,,,,,,,426.3117975830101,427.50992808298906,428.3015320830164,428.2938445829786,428.294277833018,428.3015320830164,428.3015320830164,428.3015320830164,,429.60969054099405,,,,,,,,,,,,,,,,,,,,,,,,,,,,,,right,0.0,1.3002796670189127,,,,,,sub-076,1,random_dot,,
right,right,10.0,0.0,5.0,right,1.0,1.2415592500474304,,speed,space,3.3983852500095963,,,,,,0.0,1.0,1.0,1.0,5.0,0.0,10.0,1.0,429.6165336249978,,,,,,,,,429.6100265000132,429.6986942079966,430.4917036659899,430.4830530000036,430.4834597079898,430.4917036659899,430.4917036659899,430.4917036659899,,431.73529954097467,,,,,,,,,,,,,,,,,,,,,,,,,,,,,,right,1.0,1.2415592500474304,,,,,,sub-076,1,random_dot,,
left,left,11.0,1.0,5.0,right,0.0,1.1825269169639796,,speed,space,3.3983852500095963,,,,,,0.0,1.0,1.0,1.0,5.0,1.0,11.0,0.0,431.7426877910039,,,,,,,,,431.7358456249931,432.5334102499765,433.3353016659967,433.3273502499797,433.3278824579902,433.3353016659967,433.3353016659967,433.3353016659967,,434.527690665971,,,,,,,,,,,,,,,,,,,,,,,,,,,,,,right,0.0,1.1825269169639796,,,,,,sub-076,1,random_dot,,
right,right,12.0,0.0,6.0,right,1.0,1.619031374983024,,speed,space,3.3983852500095963,,,,,,0.0,1.0,1.0,1.0,6.0,0.0,12.0,1.0,434.5345223749755,,,,,,,,,434.5280028330162,435.3265895000077,436.1184975000215,436.11054487497313,436.1110727079795,436.1184975000215,436.1184975000215,436.1184975000215,,437.7447766659898,,,,,,,,,,,,,,,,,,,,,,,,,,,,,,right,1.0,1.619031374983024,,,,,,sub-076,1,random_dot,,
left,left,13.0,1.0,6.0,right,0.0,0.8828168750042096,,speed,space,3.3983852500095963,,,,,,0.0,1.0,1.0,1.0,6.0,1.0,13.0,0.0,437.7521092499956,,,,,,,,,437.7452609579777,438.9432723330101,439.7353598329937,439.72727987502,439.7278349999688,439.7353598329937,439.7353598329937,439.7353598329937,,440.62784808297874,,,,,,,,,,,,,,,,,,,,,,,,,,,,,,right,0.0,0.8828168750042096,,,,,,sub-076,1,random_dot,,
right,right,14.0,0.0,7.0,right,1.0,1.066601124999579,,speed,space,3.3983852500095963,,,,,,0.0,1.0,1.0,1.0,7.0,0.0,14.0,1.0,440.6348918749718,,,,,,,,,440.6282710409723,441.4265142079676,442.2183566250024,442.2105701249675,442.2111073330161,442.2183566250024,442.2183566250024,442.2183566250024,,443.2940399160143,,,,,,,,,,,,,,,,,,,,,,,,,,,,,,right,1.0,1.066601124999579,,,,,,sub-076,1,random_dot,,
left,left,15.0,1.0,7.0,right,0.0,1.446715333033353,,speed,space,3.3983852500095963,,,,,,0.0,1.0,1.0,1.0,7.0,1.0,15.0,0.0,443.3008954999968,,,,,,,,,443.2943647499778,443.3930762910168,444.18463600002,444.1770360000082,444.1774632909801,444.18463600002,444.18463600002,444.18463600002,,445.63310958299553,,,,,,,,,,,,,,,,,,,,,,,,,,,,,,right,0.0,1.446715333033353,,,,,,sub-076,1,random_dot,,
left,left,16.0,0.0,8.0,right,0.0,1.6134328750194982,,speed,space,3.3983852500095963,,,,,,0.0,1.0,1.0,1.0,8.0,0.0,16.0,0.0,445.6418614999857,,,,,,,,,445.6334127910086,445.7320530000143,446.5248677500058,446.5159294159967,446.51633766602026,446.5248677500058,446.5248677500058,446.5248677500058,,448.1434664999833,,,,,,,,,,,,,,,,,,,,,,,,,,,,,,right,0.0,1.6134328750194982,,,,,,sub-076,1,random_dot,,
right,right,17.0,1.0,8.0,left,0.0,1.120566957979463,,speed,space,3.3983852500095963,,,,,,0.0,1.0,1.0,1.0,8.0,1.0,17.0,1.0,448.1508894159924,,,,,,,,,448.1438157079974,448.2318110829801,449.02522624999983,449.0161142500001,449.0165287500131,449.02522624999983,449.02522624999983,449.02522624999983,,450.14886741602095,,,,,,,,,,,,,,,,,,,,,,,,,,,,,,left,0.0,1.120566957979463,,,,,,sub-076,1,random_dot,,
right,right,18.0,0.0,9.0,right,1.0,1.6866838750429451,,speed,space,3.3983852500095963,,,,,,0.0,1.0,1.0,1.0,9.0,0.0,18.0,1.0,450.1582744999905,,,,,,,,,450.1492064999766,450.2467503750231,451.0414944579825,451.0327061249991,451.0331180000212,451.0414944579825,451.0414944579825,451.0414944579825,,452.7333587909816,,,,,,,,,,,,,,,,,,,,,,,,,,,,,,right,1.0,1.6866838750429451,,,,,,sub-076,1,random_dot,,
left,left,19.0,1.0,9.0,right,0.0,3.3594102089991797,,speed,space,3.3983852500095963,,,,,,0.0,1.0,1.0,1.0,9.0,1.0,19.0,0.0,452.74142170802224,,,,,,,,,452.73369391600136,452.831769625016,453.6247607910191,453.61614779097727,453.6165670409682,453.6247607910191,453.6247607910191,453.6247607910191,,456.9942108329851,,,,,,,,,,,,,,,,,,,,,,,,,,,,,,right,0.0,3.3594102089991797,,,,,,sub-076,1,random_dot,,
right,right,20.0,0.0,10.0,right,1.0,1.2812761249952018,,speed,space,3.3983852500095963,,,,,,0.0,1.0,1.0,1.0,10.0,0.0,20.0,1.0,457.0012764579733,,,,,,,,,456.9945329999901,457.793109708,458.5850550410105,458.57706799998414,458.5776005410007,458.5850550410105,458.5850550410105,458.5850550410105,,459.8763359580189,,,,,,,,,,,,,,,,,,,,,,,,,,,,,,right,1.0,1.2812761249952018,,,,,,sub-076,1,random_dot,,
left,left,21.0,1.0,10.0,right,0.0,1.9957746249856427,,speed,space,3.3983852500095963,,,,,,0.0,1.0,1.0,1.0,10.0,1.0,21.0,0.0,459.8809790000087,,,,,,,,,459.8766541659716,461.0665482080076,461.858095832984,461.8495615000138,461.8499841659796,461.858095832984,461.858095832984,461.858095832984,,463.8612527080113,,,,,,,,,,,,,,,,,,,,,,,,,,,,,,right,0.0,1.9957746249856427,,,,,,sub-076,1,random_dot,,
left,left,22.0,0.0,11.0,right,0.0,2.4917532080435194,,speed,space,3.3983852500095963,,,,,,0.0,1.0,1.0,1.0,11.0,0.0,22.0,0.0,463.86844425002346,,,,,,,,,463.8617095410009,463.9595373750199,464.7514329159749,464.7437320000026,464.7442612500163,464.7514329159749,464.7514329159749,464.7514329159749,,467.2533476250246,,,,,,,,,,,,,,,,,,,,,,,,,,,,,,right,0.0,2.4917532080435194,,,,,,sub-076,1,random_dot,,
right,right,23.0,1.0,11.0,left,0.0,2.059548542019911,,speed,space,3.3983852500095963,,,,,,0.0,1.0,1.0,1.0,11.0,1.0,23.0,1.0,467.2579375000205,,,,,,,,,467.25366087502334,468.4489804999903,469.2412988750148,469.2327875409974,469.2333078749944,469.2412988750148,469.2412988750148,469.2412988750148,,471.3109417500091,,,,,,,,,,,,,,,,,,,,,,,,,,,,,,left,0.0,2.059548542019911,,,,,,sub-076,1,random_dot,,
left,left,24.0,0.0,12.0,left,1.0,1.620259375020396,,speed,space,3.3983852500095963,,,,,,0.0,1.0,1.0,1.0,12.0,0.0,24.0,0.0,471.31837720802287,,,,,,,,,471.3114219160052,471.4094407910016,472.20171404100256,472.1935676250141,472.1940998749924,472.20171404100256,472.20171404100256,472.20171404100256,,473.8273765000049,,,,,,,,,,,,,,,,,,,,,,,,,,,,,,left,1.0,1.620259375020396,,,,,,sub-076,1,random_dot,,
right,right,25.0,1.0,12.0,right,1.0,1.0419966670451686,,speed,space,3.3983852500095963,,,,,,0.0,1.0,1.0,1.0,12.0,1.0,25.0,1.0,473.8342794160126,,,,,,,,,473.8277005410055,474.6259843329899,475.4177882910008,475.40996079100296,475.4103999999934,475.4177882910008,475.4177882910008,475.4177882910008,,476.4620717079961,,,,,,,,,,,,,,,,,,,,,,,,,,,,,,right,1.0,1.0419966670451686,,,,,,sub-076,1,random_dot,,
right,right,26.0,0.0,13.0,right,1.0,2.798467874992639,,speed,space,3.3983852500095963,,,,,,0.0,1.0,1.0,1.0,13.0,0.0,26.0,1.0,476.4697720829863,,,,,,,,,476.4627131660236,477.2594660000177,478.05129745800514,478.0435321250116,478.0440512080095,478.05129745800514,478.05129745800514,478.05129745800514,,480.859372832987,,,,,,,,,,,,,,,,,,,,,,,,,,,,,,right,1.0,2.798467874992639,,,,,,sub-076,1,random_dot,,
left,left,27.0,1.0,13.0,right,0.0,1.3102164170122703,,speed,space,3.3983852500095963,,,,,,0.0,1.0,1.0,1.0,13.0,1.0,27.0,0.0,480.8635263749748,,,,,,,,,480.859688040975,480.9483188330196,481.74116904102266,481.7321697080042,481.7325877500116,481.74116904102266,481.74116904102266,481.74116904102266,,483.05895258300006,,,,,,,,,,,,,,,,,,,,,,,,,,,,,,right,0.0,1.3102164170122703,,,,,,sub-076,1,random_dot,,
right,right,28.0,0.0,14.0,right,1.0,0.7652310410048813,,speed,space,3.3983852500095963,,,,,,0.0,1.0,1.0,1.0,14.0,0.0,28.0,1.0,483.0656580000068,,,,,,,,,483.0592685409938,483.84919645800255,484.6411437499919,484.6328174999799,484.633224625024,484.6411437499919,484.6411437499919,484.6411437499919,,485.4109595000045,,,,,,,,,,,,,,,,,,,,,,,,,,,,,,right,1.0,0.7652310410048813,,,,,,sub-076,1,random_dot,,
left,left,29.0,1.0,14.0,right,0.0,1.759236707992386,,speed,space,3.3983852500095963,,,,,,0.0,1.0,1.0,1.0,14.0,1.0,29.0,0.0,485.4180132499896,,,,,,,,,485.4114124159678,486.60927479097154,487.4011249159812,487.3933697079774,487.3939048330067,487.4011249159812,487.4011249159812,487.4011249159812,,489.165708540997,,,,,,,,,,,,,,,,,,,,,,,,,,,,,,right,0.0,1.759236707992386,,,,,,sub-076,1,random_dot,,
right,right,30.0,0.0,15.0,right,1.0,1.2776841249433346,,speed,space,3.3983852500095963,,,,,,0.0,1.0,1.0,1.0,15.0,0.0,30.0,1.0,489.1747673330247,,,,,,,,,489.1660234999727,489.2648224579752,490.0577670409693,490.0484933329863,490.0489088749746,490.0577670409693,490.0577670409693,490.0577670409693,,491.3441921659978,,,,,,,,,,,,,,,,,,,,,,,,,,,,,,right,1.0,1.2776841249433346,,,,,,sub-076,1,random_dot,,
left,left,31.0,1.0,15.0,right,0.0,1.7161407920066267,,speed,space,3.3983852500095963,,,,,,0.0,1.0,1.0,1.0,15.0,1.0,31.0,0.0,491.3511855410179,,,,,,,,,491.3445655410178,492.14254895801423,492.93475174997,492.9268157500192,492.9273547080229,492.93475174997,492.93475174997,492.93475174997,,494.6608069579816,,,,,,,,,,,,,,,,,,,,,,,,,,,,,,right,0.0,1.7161407920066267,,,,,,sub-076,1,random_dot,,
left,left,32.0,0.0,16.0,right,0.0,1.2252582919900306,,speed,space,3.3983852500095963,,,,,,0.0,1.0,1.0,1.0,16.0,0.0,32.0,0.0,494.6677561249817,,,,,,,,,494.6611695829779,495.8592224160093,496.6514669160242,496.643417416024,496.64396958297584,496.6514669160242,496.6514669160242,496.6514669160242,,497.88636529102223,,,,,,,,,,,,,,,,,,,,,,,,,,,,,,right,0.0,1.2252582919900306,,,,,,sub-076,1,random_dot,,
right,right,33.0,1.0,16.0,right,1.0,1.094899749965407,,speed,space,3.3983852500095963,,,,,,0.0,1.0,1.0,1.0,16.0,1.0,33.0,1.0,497.89122587500606,,,,,,,,,497.8866869159974,498.6826285829884,499.48483729100553,499.4768002500059,499.47733124997467,499.48483729100553,499.48483729100553,499.48483729100553,,500.5830435000244,,,,,,,,,,,,,,,,,,,,,,,,,,,,,,right,1.0,1.094899749965407,,,,,,sub-076,1,random_dot,,
left,left,34.0,0.0,17.0,right,0.0,1.3581708340207117,,speed,space,3.3983852500095963,,,,,,0.0,1.0,1.0,1.0,17.0,0.0,34.0,0.0,500.59091891598655,,,,,,,,,500.5834455830045,501.3819367910037,502.1745761659695,502.1656792499707,502.166052540997,502.1745761659695,502.1745761659695,502.1745761659695,,503.5439733749954,,,,,,,,,,,,,,,,,,,,,,,,,,,,,,right,0.0,1.3581708340207117,,,,,,sub-076,1,random_dot,,
right,right,35.0,1.0,17.0,left,0.0,1.152334709011484,,speed,space,3.3983852500095963,,,,,,0.0,1.0,1.0,1.0,17.0,1.0,35.0,1.0,503.5511325830012,,,,,,,,,503.54437787499046,503.8923330000253,504.68397266598186,504.676334333024,504.6767789580044,504.68397266598186,504.68397266598186,504.68397266598186,,505.8434567499789,,,,,,,,,,,,,,,,,,,,,,,,,,,,,,left,0.0,1.152334709011484,,,,,,sub-076,1,random_dot,,
left,left,36.0,0.0,18.0,right,0.0,0.6909081669873558,,speed,space,3.3983852500095963,,,,,,0.0,1.0,1.0,1.0,18.0,0.0,36.0,0.0,505.8502247079741,,,,,,,,,505.84376850002445,507.0421822909848,507.8342515829718,507.8264641659917,507.8270132910111,507.8342515829718,507.8342515829718,507.8342515829718,,508.52722275001,,,,,,,,,,,,,,,,,,,,,,,,,,,,,,right,0.0,0.6909081669873558,,,,,,sub-076,1,random_dot,,
right,right,37.0,1.0,18.0,right,1.0,1.5520124160102569,,speed,space,3.3983852500095963,,,,,,0.0,1.0,1.0,1.0,18.0,1.0,37.0,1.0,508.533998791012,,,,,,,,,508.52762983297,509.7257279999904,510.51789625000674,510.5096802909975,510.5101277499925,510.51789625000674,510.51789625000674,510.51789625000674,,512.0773038329789,,,,,,,,,,,,,,,,,,,,,,,,,,,,,,right,1.0,1.5520124160102569,,,,,,sub-076,1,random_dot,,
right,right,38.0,0.0,19.0,left,0.0,1.2776638329960406,,speed,space,3.3983852500095963,,,,,,0.0,1.0,1.0,1.0,19.0,0.0,38.0,1.0,512.0847505829879,,,,,,,,,512.0777946250164,512.1756174159818,512.9669504580088,512.9595182079938,512.9599420829909,512.9669504580088,512.9669504580088,512.9669504580088,,514.2474448750145,,,,,,,,,,,,,,,,,,,,,,,,,,,,,,left,0.0,1.2776638329960406,,,,,,sub-076,1,random_dot,,
left,left,39.0,1.0,19.0,right,0.0,1.3014243330108002,,speed,space,3.3983852500095963,,,,,,0.0,1.0,1.0,1.0,19.0,1.0,39.0,0.0,514.2588742079679,,,,,,,,,514.2477536249789,514.5923003749922,515.3844756659819,515.3763732499792,515.3769030830008,515.3844756659819,515.3844756659819,515.3844756659819,,516.6937907909742,,,,,,,,,,,,,,,,,,,,,,,,,,,,,,right,0.0,1.3014243330108002,,,,,,sub-076,1,random_dot,,
left,left,40.0,0.0,20.0,right,0.0,2.446676082967315,,speed,space,3.3983852500095963,,,,,,0.0,1.0,1.0,1.0,20.0,0.0,40.0,0.0,516.700920791016,,,,,,,,,516.6942694580066,517.0423440409941,517.8336954159895,517.8262492080103,517.8266867909697,517.8336954159895,517.8336954159895,517.8336954159895,,520.2834424159955,,,,,,,,,,,,,,,,,,,,,,,,,,,,,,right,0.0,2.446676082967315,,,,,,sub-076,1,random_dot,,
right,right,41.0,1.0,20.0,right,1.0,1.773220333037898,,speed,space,3.3983852500095963,,,,,,0.0,1.0,1.0,1.0,20.0,1.0,41.0,1.0,520.2907019999693,,,,,,,,,520.2837742500124,521.4817134999903,522.2740014999872,522.2653424579767,522.2657594159828,522.2740014999872,522.2740014999872,522.2740014999872,,524.0499019160052,,,,,,,,,,,,,,,,,,,,,,,,,,,,,,right,1.0,1.773220333037898,,,,,,sub-076,1,random_dot,,
right,right,42.0,0.0,21.0,left,0.0,1.6689708330086432,,speed,space,3.3983852500095963,,,,,,0.0,1.0,1.0,1.0,21.0,0.0,42.0,1.0,524.0577115829801,,,,,,,,,524.0502154579735,524.8483659580234,525.6409746250138,525.6324870410026,525.6329233750002,525.6409746250138,525.6409746250138,525.6409746250138,,527.3159493330168,,,,,,,,,,,,,,,,,,,,,,,,,,,,,,left,0.0,1.6689708330086432,,,,,,sub-076,1,random_dot,,
left,left,43.0,1.0,21.0,right,0.0,1.2931870419997722,,speed,space,3.3983852500095963,,,,,,0.0,1.0,1.0,1.0,21.0,1.0,43.0,0.0,527.3238548749941,,,,,,,,,527.3162825410254,527.4142422910081,528.2074447079794,528.1988364160061,528.1992662500124,528.2074447079794,528.2074447079794,528.2074447079794,,529.5105691659846,,,,,,,,,,,,,,,,,,,,,,,,,,,,,,right,0.0,1.2931870419997722,,,,,,sub-076,1,random_dot,,
right,right,44.0,0.0,22.0,right,1.0,2.308167333016172,,speed,space,3.3983852500095963,,,,,,0.0,1.0,1.0,1.0,22.0,0.0,44.0,1.0,529.5179686659831,,,,,,,,,529.5110400830163,530.3088041250012,531.1008664579713,531.0929216250079,531.0934604160138,531.1008664579713,531.1008664579713,531.1008664579713,,533.4133359160041,,,,,,,,,,,,,,,,,,,,,,,,,,,,,,right,1.0,2.308167333016172,,,,,,sub-076,1,random_dot,,
left,left,45.0,1.0,22.0,left,1.0,1.0681409169919789,,speed,space,3.3983852500095963,,,,,,0.0,1.0,1.0,1.0,22.0,1.0,45.0,0.0,533.425362250011,,,,,,,,,533.4136639159988,533.5087308749789,534.3007850410067,534.2929314160137,534.2934719999903,534.3007850410067,534.3007850410067,534.3007850410067,,535.3765809580218,,,,,,,,,,,,,,,,,,,,,,,,,,,,,,left,1.0,1.0681409169919789,,,,,,sub-076,1,random_dot,,
left,left,46.0,0.0,23.0,right,0.0,3.879787625046447,,speed,space,3.3983852500095963,,,,,,0.0,1.0,1.0,1.0,23.0,0.0,46.0,0.0,535.3834785000072,,,,,,,,,535.3769179160008,535.7253429580014,536.5175925000221,536.5095955409924,536.5101369160111,536.5175925000221,536.5175925000221,536.5175925000221,,540.3996706660255,,,,,,,,,,,,,,,,,,,,,,,,,,,,,,right,0.0,3.879787625046447,,,,,,sub-076,1,random_dot,,
right,right,47.0,1.0,23.0,left,0.0,0.9134054590249434,,speed,space,3.3983852500095963,,,,,,0.0,1.0,1.0,1.0,23.0,1.0,47.0,1.0,540.4074799579685,,,,,,,,,540.3999790829839,541.5989244579687,542.4002375829732,542.3925863329787,542.3930219159811,542.4002375829732,542.4002375829732,542.4002375829732,,543.3153850000235,,,,,,,,,,,,,,,,,,,,,,,,,,,,,,left,0.0,0.9134054590249434,,,,,,sub-076,1,random_dot,,
right,right,48.0,0.0,24.0,left,0.0,2.3089474169537425,,speed,space,3.3983852500095963,,,,,,0.0,1.0,1.0,1.0,24.0,0.0,48.0,1.0,543.3239718750119,,,,,,,,,543.3156937910244,544.1087530829827,544.8999088329729,544.8925777080003,544.8929966249852,544.8999088329729,544.8999088329729,544.8999088329729,,547.2108819999848,,,,,,,,,,,,,,,,,,,,,,,,,,,,,,left,0.0,2.3089474169537425,,,,,,sub-076,1,random_dot,,
left,left,49.0,1.0,24.0,right,0.0,1.981151584011968,,speed,space,3.3983852500095963,,,,,,0.0,1.0,1.0,1.0,24.0,1.0,49.0,0.0,547.2179462499917,,,,,,,,,547.2113320410135,548.4085862910142,549.2004389999784,549.1926962499856,549.1932364159729,549.2004389999784,549.2004389999784,549.2004389999784,,551.1837413330213,,,,,,,,,,,,,,,,,,,,,,,,,,,,,,right,0.0,1.981151584011968,,,,,,sub-076,1,random_dot,,
right,right,50.0,0.0,25.0,left,0.0,2.3958395830122754,,speed,space,3.3983852500095963,,,,,,0.0,1.0,1.0,1.0,25.0,0.0,50.0,1.0,551.190837415983,,,,,,,,,551.1841291660094,551.9818260829779,552.7736129999976,552.7650524579803,552.7654656249797,552.7736129999976,552.7736129999976,552.7736129999976,,555.1764833750203,,,,,,,,,,,,,,,,,,,,,,,,,,,,,,left,0.0,2.3958395830122754,,,,,,sub-076,1,random_dot,,
left,left,51.0,1.0,25.0,left,1.0,2.9708114160457626,,speed,space,3.3983852500095963,,,,,,0.0,1.0,1.0,1.0,25.0,1.0,51.0,0.0,555.1833372499677,,,,,,,,,555.1768043750199,555.9750762910116,556.7666179160005,556.759031374997,556.7594818330253,556.7666179160005,556.7666179160005,556.7666179160005,,559.7430376249831,,,,,,,,,,,,,,,,,,,,,,,,,,,,,,left,1.0,2.9708114160457626,,,,,,sub-076,1,random_dot,,
right,right,52.0,0.0,26.0,left,0.0,4.934310957964044,,speed,space,3.3983852500095963,,,,,,0.0,1.0,1.0,1.0,26.0,0.0,52.0,1.0,559.7514697909937,,,,,,,,,559.7433854159899,559.8417142910184,560.6333000829909,560.6256311250036,560.6260730830254,560.6333000829909,560.6333000829909,560.6333000829909,,565.5768871660111,,,,,,,,,,,,,,,,,,,,,,,,,,,,,,left,0.0,4.934310957964044,,,,,,sub-076,1,random_dot,,
left,left,53.0,1.0,26.0,left,1.0,1.5532815409824252,,speed,space,3.3983852500095963,,,,,,0.0,1.0,1.0,1.0,26.0,1.0,53.0,0.0,565.5845043750014,,,,,,,,,565.5773664580192,565.9249894579989,566.7176036660094,566.7094622500008,566.7101742909872,566.7176036660094,566.7176036660094,566.7176036660094,,568.2748921660241,,,,,,,,,,,,,,,,,,,,,,,,,,,,,,left,1.0,1.5532815409824252,,,,,,sub-076,1,random_dot,,
right,right,54.0,0.0,27.0,left,0.0,2.1087692919536494,,speed,space,3.3983852500095963,,,,,,0.0,1.0,1.0,1.0,27.0,0.0,54.0,1.0,568.2818507080083,,,,,,,,,568.2752107079723,568.3639993749675,569.1567045829725,569.1481878330233,569.1485998330172,569.1567045829725,569.1567045829725,569.1567045829725,,571.2760725829867,,,,,,,,,,,,,,,,,,,,,,,,,,,,,,left,0.0,2.1087692919536494,,,,,,sub-076,1,random_dot,,
left,left,55.0,1.0,27.0,right,0.0,2.542370042006951,,speed,space,3.3983852500095963,,,,,,0.0,1.0,1.0,1.0,27.0,1.0,55.0,0.0,571.2832836249727,,,,,,,,,571.2764055409934,572.47489545797,573.2669746659813,573.2591327910195,573.2596754159895,573.2669746659813,573.2669746659813,573.2669746659813,,575.8146282500238,,,,,,,,,,,,,,,,,,,,,,,,,,,,,,right,0.0,2.542370042006951,,,,,,sub-076,1,random_dot,,
left,left,56.0,0.0,28.0,right,0.0,3.0814443330164067,,speed,space,3.3983852500095963,,,,,,0.0,1.0,1.0,1.0,28.0,0.0,56.0,0.0,575.8236995830084,,,,,,,,,575.8149394579814,576.6081792910118,577.4003294999711,577.3922438329901,577.3928235829808,577.4003294999711,577.4003294999711,577.4003294999711,,580.4914253330207,,,,,,,,,,,,,,,,,,,,,,,,,,,,,,right,0.0,3.0814443330164067,,,,,,sub-076,1,random_dot,,
right,right,57.0,1.0,28.0,left,0.0,2.3457439999911003,,speed,space,3.3983852500095963,,,,,,0.0,1.0,1.0,1.0,28.0,1.0,57.0,1.0,580.4960557079758,,,,,,,,,580.4917447079788,580.5803417499992,581.3733229580102,581.3644906660193,581.3648934999947,581.3733229580102,581.3733229580102,581.3733229580102,,583.7264405409805,,,,,,,,,,,,,,,,,,,,,,,,,,,,,,left,0.0,2.3457439999911003,,,,,,sub-076,1,random_dot,,
right,right,58.0,0.0,29.0,left,0.0,4.09304870798951,,speed,space,3.3983852500095963,,,,,,0.0,1.0,1.0,1.0,29.0,0.0,58.0,1.0,583.7336108330055,,,,,,,,,583.7269074579817,584.5251257080236,585.3166471250006,585.3088635000167,585.3092978330096,585.3166471250006,585.3166471250006,585.3166471250006,,589.4139596659807,,,,,,,,,,,,,,,,,,,,,,,,,,,,,,left,0.0,4.09304870798951,,,,,,sub-076,1,random_dot,,
left,left,59.0,1.0,29.0,left,1.0,2.391514917020686,,speed,space,3.3983852500095963,,,,,,0.0,1.0,1.0,1.0,29.0,1.0,59.0,0.0,589.4237963330233,,,,,,,,,589.4142942079925,590.2080667499686,590.9994519579923,590.9919492080226,590.9924147910206,590.9994519579923,590.9994519579923,590.9994519579923,,593.3930228750105,,,,,,,,,,,,,,,,,,,,,,,,,,,,,,left,1.0,2.391514917020686,,,,,,sub-076,1,random_dot,,
,,1.0,1.0,0.0,,,,,speed,space,3.3983852500095963,,,,,,0.0,1.0,1.0,1.0,,,,,,,,,,,,,,,,,,,,,,,,,,,,,,,,,,,,,,,,,,,,,,,,,,,,,,,,,,,,,sub-076,1,random_dot,,
,,,,,,,,,,,,,,,,,,,,,,,,,,,,,,,,,,,,,,,,,,,,,,,,,,,,,,,,,,,,,,,,,,,,,,,,,,,,,593.3985962499864,593.406534040987,598.3959732910153,598.3918968749931,sub-076,1,random_dot,,
