direction,corrAns,randomInstr,practice_trials.thisRepN,practice_trials.thisTrialN,practice_trials.thisN,practice_trials.thisIndex,instr_trials.thisRepN,instr_trials.thisTrialN,instr_trials.thisN,instr_trials.thisIndex,test_trials.thisRepN,test_trials.thisTrialN,test_trials.thisN,test_trials.thisIndex,thisRow.t,notes,general_instruction.started,textGeneralInstr.started,respGeneralInstr.started,general_instruction.stopped,respGeneralInstr.keys,respGeneralInstr.rt,respGeneralInstr.duration,ITI.started,fixcross.started,fixcross.stopped,ITI.stopped,dots.started,backgroundDots.started,stimulusDots.started,respDots.started,stimulusDots.stopped,dots.stopped,respDots.keys,respDots.corr,respDots.rt,respDots.duration,feedback.started,textFeedback.started,feedback.stopped,textFeedback.stopped,info.started,textInfo.started,keyRespInfo.started,info.stopped,keyRespInfo.keys,keyRespInfo.rt,keyRespInfo.duration,test_instruction.started,textTestInstr.started,respTestInstr.started,test_instruction.stopped,respTestInstr.keys,respTestInstr.rt,respTestInstr.duration,random_instruction.started,textRandomInstr.started,respRandomInstr.started,random_instruction.stopped,respRandomInstr.keys,respRandomInstr.rt,respRandomInstr.duration,goodbye.started,textGoodbye.started,textGoodbye.stopped,goodbye.stopped,participant,session,expName,frameRate,Unnamed: 74
,,,,,,,,,,,,,,,,,0.0052550000000337,0.0138053000000581,0.0138053000000581,20.47972950000076,space,47.76673569999912,,,,,,,,,,,,,,,,,,,,,,,,,,,,,,,,,,,,,,,,,,,,,sub-118,2.0,random_dot,120.27412879412584,
left,left,,0.0,0.0,0.0,0.0,,,,,,,,,20.50003050000032,,,,,,,,,20.488587400000142,21.683589600000232,22.49023010000019,22.483088300000414,22.4831221000004,22.49023010000019,22.49023010000019,22.49023010000019,27.48262849999992,28.633339500000147,right,0.0,33.448397600000135,,28.63410400000066,28.64446780000071,29.1370379,,,,,,,,,,,,,,,,,,,,,,,,,,,sub-118,2.0,random_dot,120.27412879412584,
right,right,,0.0,1.0,1.0,1.0,,,,,,,,,29.144833900000776,,,,,,,,,29.13744130000032,29.23630570000023,30.036476199999925,30.02882320000026,30.02885500000048,30.036476199999925,30.036476199999925,30.036476199999925,35.028289400000176,35.32884370000011,left,0.0,32.5941086999992,,35.329400600000554,35.336333500000364,35.82925250000062,35.836630000000696,,,,,,,,,,,,,,,,,,,,,,,,,,sub-118,2.0,random_dot,120.27412879412584,
right,right,,1.0,0.0,2.0,1.0,,,,,,,,,35.836630000000696,,,,,,,,,35.8296263000002,36.18648300000041,36.98664330000065,36.97876150000047,36.97877960000005,36.98664330000065,36.98664330000065,36.98664330000065,,39.52047110000058,left,0.0,29.84111380000013,,39.520939900000485,39.528170300000056,40.02054230000067,40.02815150000061,,,,,,,,,,,,,,,,,,,,,,,,,,sub-118,2.0,random_dot,120.27412879412584,
left,left,,1.0,1.0,3.0,0.0,,,,,,,,,40.02815150000061,,,,,,,,,40.020906800000375,40.1280956999999,40.92801420000069,40.92050130000007,40.920520800000304,40.92801420000069,40.92801420000069,40.92801420000069,45.92050600000039,46.78848950000065,right,0.0,33.168111099999805,,46.789305700000114,46.79495670000051,47.28728090000004,47.29524250000031,,,,,,,,,,,,,,,,,,,,,,,,,,sub-118,2.0,random_dot,120.27412879412584,
right,right,,2.0,0.0,4.0,1.0,,,,,,,,,47.29524250000031,,,,,,,,,47.28765000000021,48.495230500000616,49.29570970000077,49.28753230000075,49.28755320000073,49.29570970000077,49.29570970000077,49.29570970000077,,49.85446150000007,right,1.0,27.861280899999656,,49.85507460000008,49.86367960000007,50.3556951999999,,,,,,,,,,,,,,,,,,,,,,,,,,,sub-118,2.0,random_dot,120.27412879412584,
left,left,,2.0,1.0,5.0,0.0,,,,,,,,,50.36436610000055,,,,,,,,,50.35610960000031,51.55597149999994,52.355487700000594,52.3476655000004,52.34768500000064,52.355487700000594,52.355487700000594,52.355487700000594,57.34780420000061,57.93116390000068,right,0.0,32.87908049999987,,57.93167710000034,57.93835680000029,58.43119520000073,58.43912300000011,,,,,,,,,,,,,,,,,,,,,,,,,,sub-118,2.0,random_dot,120.27412879412584,
left,left,,3.0,0.0,6.0,0.0,,,,,,,,,58.43912300000011,,,,,,,,,58.43180519999987,59.230659700000615,60.0308629000001,60.02259640000011,60.022617399999945,60.0308629000001,60.0308629000001,60.0308629000001,65.02213800000027,65.66470440000012,left,1.0,32.93842659999973,,65.6652038000002,65.67194440000003,66.16440970000076,66.17220610000004,,,,,,,,,,,,,,,,,,,,,,,,,,sub-118,2.0,random_dot,120.27412879412584,
right,right,,3.0,1.0,7.0,1.0,,,,,,,,,66.17220610000004,,,,,,,,,66.1647909000003,66.97219440000026,67.77176370000052,67.76511019999998,67.76513020000039,67.77176370000052,67.77176370000052,67.77176370000052,72.77220780000061,73.3728815000004,right,1.0,32.90236840000034,,73.37336810000033,73.38055910000003,73.87281710000025,73.88056529999994,,,,,,,,,,,,,,,,,,,,,,,,,,sub-118,2.0,random_dot,120.27412879412584,
left,left,,4.0,0.0,8.0,0.0,,,,,,,,,73.88056529999994,,,,,,,,,73.87339240000074,75.07234450000033,75.87218910000047,75.8644432000001,75.86446310000065,75.87218910000047,75.87218910000047,75.87218910000047,80.86449320000065,82.10692540000036,left,1.0,33.539702600000055,,82.10741380000036,82.1137746000004,82.60626310000043,82.61391230000027,,,,,,,,,,,,,,,,,,,,,,,,,,sub-118,2.0,random_dot,120.27412879412584,
right,right,,4.0,1.0,9.0,1.0,,,,,,,,,82.61391230000027,,,,,,,,,82.6066380000002,82.71428689999993,83.51394550000077,83.50681070000064,83.50683030000073,83.51394550000077,83.51394550000077,83.51394550000077,,87.91513100000066,left,0.0,31.703067499999637,,87.91574050000054,87.92222459999994,88.41483790000075,88.4227251000002,,,,,,,,,,,,,,,,,,,,,,,,,,sub-118,2.0,random_dot,120.27412879412584,
right,right,,5.0,0.0,10.0,1.0,,,,,,,,,88.4227251000002,,,,,,,,,88.4154711000001,89.62252840000019,90.42235740000068,90.41449060000014,90.41451099999996,90.42235740000068,90.42235740000068,90.42235740000068,95.41419930000028,95.90660320000006,right,1.0,32.78753359999973,,95.90715520000047,95.91382870000052,96.40676220000024,96.41422910000074,,,,,,,,,,,,,,,,,,,,,,,,,,sub-118,2.0,random_dot,120.27412879412584,
left,left,,5.0,1.0,11.0,0.0,,,,,,,,,96.41422910000074,,,,,,,,,96.4071502000006,96.51441440000052,97.31418800000029,97.30647750000026,97.30649630000062,97.31418800000029,97.31418800000029,97.31418800000029,102.3059557000006,102.71509610000066,right,0.0,32.70829099999992,,102.71559030000026,102.72213610000016,103.21459380000032,103.22247070000049,,,,,,,,,,,,,,,,,,,,,,,,,,sub-118,2.0,random_dot,120.27412879412584,
right,right,,6.0,0.0,12.0,1.0,,,,,,,,,103.22247070000049,,,,,,,,,103.2149588000002,104.02251240000078,104.82256580000012,104.81478320000042,104.81481780000011,104.82256580000012,104.82256580000012,104.82256580000012,,109.75663450000047,right,1.0,32.237243799999305,,109.75730139999996,109.76454040000044,110.25711950000004,110.26479259999996,,,,,,,,,,,,,,,,,,,,,,,,,,sub-118,2.0,random_dot,120.27412879412584,
left,left,,6.0,1.0,13.0,0.0,,,,,,,,,110.26479259999996,,,,,,,,,110.25750650000008,110.60675190000076,111.40640280000024,111.3985332000002,111.39855119999991,111.40640280000024,111.40640280000024,111.40640280000024,,116.06653499999992,left,1.0,31.964021499999944,,116.06705000000056,116.07434310000008,116.5659056000004,116.57395520000046,,,,,,,,,,,,,,,,,,,,,,,,,,sub-118,2.0,random_dot,120.27412879412584,
right,right,,7.0,0.0,14.0,1.0,,,,,,,,,116.57395520000046,,,,,,,,,116.5662596000002,117.77391540000008,118.57416970000033,118.56643210000038,118.56645180000032,118.57416970000033,118.57416970000033,118.57416970000033,123.56963540000017,124.18783040000017,right,1.0,32.92198299999927,,124.1883097,124.19534130000012,124.68664900000022,124.69451819999996,,,,,,,,,,,,,,,,,,,,,,,,,,sub-118,2.0,random_dot,120.27412879412584,
left,left,,7.0,1.0,15.0,0.0,,,,,,,,,124.69451819999996,,,,,,,,,124.68707070000072,125.04485410000052,125.84432560000003,125.83779460000004,125.8378158000005,125.84432560000003,125.84432560000003,125.84432560000003,130.84503459999996,131.17871670000022,left,1.0,32.635607600000185,,131.1791935000001,131.1863742000005,131.67834360000052,131.68613069999992,,,,,,,,,,,,,,,,,,,,,,,,,,sub-118,2.0,random_dot,120.27412879412584,
left,left,,8.0,0.0,16.0,0.0,,,,,,,,,131.68613069999992,,,,,,,,,131.67891680000048,132.48646090000057,133.28659730000072,133.2785014000001,133.27852150000035,133.28659730000072,133.28659730000072,133.28659730000072,138.27820390000034,138.44574790000024,right,0.0,32.46702579999965,,138.44627010000022,138.45255980000002,138.9451036999999,138.95297350000055,,,,,,,,,,,,,,,,,,,,,,,,,,sub-118,2.0,random_dot,120.27412879412584,
right,right,,8.0,1.0,17.0,1.0,,,,,,,,,138.95297350000055,,,,,,,,,138.94548320000013,139.30278390000058,140.10285750000003,140.09531040000002,140.09534340000027,140.10285750000003,140.10285750000003,140.10285750000003,,140.69535610000003,right,1.0,27.89837809999972,,140.69587469999988,140.70241370000076,141.1949723000007,141.2029089000007,,,,,,,,,,,,,,,,,,,,,,,,,,sub-118,2.0,random_dot,120.27412879412584,
left,left,,9.0,0.0,18.0,0.0,,,,,,,,,141.2029089000007,,,,,,,,,141.19540940000024,141.3030357000007,142.10276140000042,142.09651530000065,142.09653590000016,142.10276140000042,142.10276140000042,142.10276140000042,,144.01206810000076,left,1.0,29.21366510000007,,144.01254260000042,144.0197476000003,144.51311090000036,144.51970680000068,,,,,,,,,,,,,,,,,,,,,,,,,,sub-118,2.0,random_dot,120.27412879412584,
right,right,,9.0,1.0,19.0,1.0,,,,,,,,,144.51970680000068,,,,,,,,,144.5135476000005,145.31990920000044,146.11966680000023,146.1117309000001,146.11174819999997,146.11966680000023,146.11966680000023,146.11966680000023,,148.3538290000006,right,1.0,29.536662599999545,,148.35462780000034,148.36141580000003,148.85338330000013,148.86128690000078,,,,,,,,,,,,,,,,,,,,,,,,,,sub-118,2.0,random_dot,120.27412879412584,
,,,,,,,,,,,,,,,,,,,,,,,,,,,,,,,,,,,,,,,,,,148.85346019999997,148.86128690000078,148.86128690000078,153.56248200000027,space,32.004656299999624,,,,,,,,,,,,,,,,,,,,sub-118,2.0,random_dot,120.27412879412584,
,,,,,,,,,,,,,,,,,,,,,,,,,,,,,,,,,,,,,,,,,,,,,,,,,153.56252829999994,153.5693056,153.5693056,159.27076470000063,space,33.00292519999948,,,,,,,,,,,,,sub-118,2.0,random_dot,120.27412879412584,
left,left,speed,,,,,0.0,0.0,0.0,1.0,0.0,0.0,0.0,0.0,161.17402829999992,,,,,,,,,161.17045469999994,162.3656688000001,163.1657098000005,163.15785170000072,163.15787350000028,163.1657098000005,163.1657098000005,163.1657098000005,,166.0339743000004,right,0.0,30.1714536999998,,,,,,,,,,,,,,,,,,,,159.2752835000001,159.2924554000001,159.2924554000001,161.1637307000001,space,29.175114399999075,,,,,,sub-118,2.0,random_dot,120.27412879412584,
right,right,speed,,,,,0.0,0.0,0.0,1.0,0.0,1.0,1.0,1.0,166.04061360000014,,,,,,,,,166.03514050000013,166.840776,167.64081609999994,167.63313000000016,167.63315020000027,167.64081609999994,167.64081609999994,167.64081609999994,,167.9416710000005,left,0.0,27.60890289999952,,,,,,,,,,,,,,,,,,,,,,,,,,,,,,,sub-118,2.0,random_dot,120.27412879412584,
left,left,speed,,,,,0.0,0.0,0.0,1.0,1.0,0.0,2.0,0.0,167.9491323000002,,,,,,,,,167.94258200000058,168.74940830000014,169.54921430000013,169.54133679999995,169.54135660000065,169.54921430000013,169.54921430000013,169.54921430000013,,169.79217080000035,right,0.0,27.545370199999525,,,,,,,,,,,,,,,,,,,,,,,,,,,,,,,sub-118,2.0,random_dot,120.27412879412584,
right,right,speed,,,,,0.0,0.0,0.0,1.0,1.0,1.0,3.0,1.0,169.79886050000005,,,,,,,,,169.79305360000035,170.99902509999993,171.7990405999999,171.79126369999994,171.7912823000006,171.7990405999999,171.7990405999999,171.7990405999999,,172.35817080000015,left,0.0,27.866280000000188,,,,,,,,,,,,,,,,,,,,,,,,,,,,,,,sub-118,2.0,random_dot,120.27412879412584,
right,right,speed,,,,,0.0,0.0,0.0,1.0,2.0,0.0,4.0,1.0,172.3657060000005,,,,,,,,,172.359152,172.71586340000067,173.5155609000003,173.50832740000078,173.50834680000025,173.5155609000003,173.5155609000003,173.5155609000003,,175.5083099000003,right,1.0,29.30084050000005,,,,,,,,,,,,,,,,,,,,,,,,,,,,,,,sub-118,2.0,random_dot,120.27412879412584,
left,left,speed,,,,,0.0,0.0,0.0,1.0,2.0,1.0,5.0,0.0,175.51585310000064,,,,,,,,,175.50925140000072,176.71569780000027,177.51516549999997,177.50942889999988,177.50944810000055,177.51516549999997,177.51516549999997,177.51516549999997,,178.29987140000048,left,1.0,28.090760999999475,,,,,,,,,,,,,,,,,,,,,,,,,,,,,,,sub-118,2.0,random_dot,120.27412879412584,
left,left,speed,,,,,0.0,0.0,0.0,1.0,3.0,0.0,6.0,0.0,178.30751280000004,,,,,,,,,178.3007963,178.65799470000002,179.4581007000006,179.44974340000044,179.4497635000007,179.4581007000006,179.4581007000006,179.4581007000006,,181.0333811999999,right,0.0,28.88222979999955,,,,,,,,,,,,,,,,,,,,,,,,,,,,,,,sub-118,2.0,random_dot,120.27412879412584,
right,right,speed,,,,,0.0,0.0,0.0,1.0,3.0,1.0,7.0,1.0,181.04142870000032,,,,,,,,,181.0342768999999,182.24078030000052,183.0406555,183.0332225000002,183.03325680000037,183.0406555,183.0406555,183.0406555,,183.3332350000001,left,0.0,27.59728209999957,,,,,,,,,,,,,,,,,,,,,,,,,,,,,,,sub-118,2.0,random_dot,120.27412879412584,
left,left,speed,,,,,0.0,0.0,0.0,1.0,4.0,0.0,8.0,0.0,183.34072340000057,,,,,,,,,183.3342246000002,183.43251880000025,184.23281540000065,184.2248838000005,184.22491810000065,184.23281540000065,184.23281540000065,184.23281540000065,,184.79171040000077,right,0.0,27.86687960000017,,,,,,,,,,,,,,,,,,,,,,,,,,,,,,,sub-118,2.0,random_dot,120.27412879412584,
right,right,speed,,,,,0.0,0.0,0.0,1.0,4.0,1.0,9.0,1.0,184.79958740000075,,,,,,,,,184.7926127000001,185.5990677,186.39925290000065,186.39163950000057,186.39166670000031,186.39925290000065,186.39925290000065,186.39925290000065,,188.33388240000025,left,0.0,29.237284399999226,,,,,,,,,,,,,,,,,,,,,,,,,,,,,,,sub-118,2.0,random_dot,120.27412879412584,
right,right,speed,,,,,0.0,0.0,0.0,1.0,5.0,0.0,10.0,1.0,188.34099060000065,,,,,,,,,188.33499460000075,189.14121310000064,189.9410657000008,189.9333299,189.93334870000035,189.9410657000008,189.9410657000008,189.9410657000008,,190.90043610000063,right,1.0,28.26110880000033,,,,,,,,,,,,,,,,,,,,,,,,,,,,,,,sub-118,2.0,random_dot,120.27412879412584,
left,left,speed,,,,,0.0,0.0,0.0,1.0,5.0,1.0,11.0,0.0,190.90758650000043,,,,,,,,,190.9016977000001,191.7076849000005,192.5078121000006,192.49992389999989,192.4999453999999,192.5078121000006,192.5078121000006,192.5078121000006,,195.64174040000037,right,0.0,30.43985470000007,,,,,,,,,,,,,,,,,,,,,,,,,,,,,,,sub-118,2.0,random_dot,120.27412879412584,
right,right,speed,,,,,0.0,0.0,0.0,1.0,6.0,0.0,12.0,1.0,195.6493806000008,,,,,,,,,195.6426749000002,195.74934160000063,196.5489985000004,196.5428034000006,196.54283590000068,196.5489985000004,196.5489985000004,196.5489985000004,,197.75050230000036,left,0.0,28.50232539999979,,,,,,,,,,,,,,,,,,,,,,,,,,,,,,,sub-118,2.0,random_dot,120.27412879412584,
left,left,speed,,,,,0.0,0.0,0.0,1.0,6.0,1.0,13.0,0.0,197.75778080000052,,,,,,,,,197.75141059999987,198.1076841000004,198.90776280000048,198.9000659000003,198.90010040000016,198.90776280000048,198.90776280000048,198.90776280000048,,201.12537560000052,right,0.0,29.52254739999989,,,,,,,,,,,,,,,,,,,,,,,,,,,,,,,sub-118,2.0,random_dot,120.27412879412584,
left,left,speed,,,,,0.0,0.0,0.0,1.0,7.0,0.0,14.0,0.0,201.13278549999995,,,,,,,,,201.1264387000001,201.2326417000004,202.03290410000045,202.02504790000057,202.0251044000006,202.03290410000045,202.03290410000045,202.03290410000045,,204.12554750000072,left,1.0,29.399276299999656,,,,,,,,,,,,,,,,,,,,,,,,,,,,,,,sub-118,2.0,random_dot,120.27412879412584,
right,right,speed,,,,,0.0,0.0,0.0,1.0,7.0,1.0,15.0,1.0,204.13270020000076,,,,,,,,,204.12662040000032,205.3244622000002,206.1243897000004,206.11698570000044,206.1170116000003,206.1243897000004,206.1243897000004,206.1243897000004,,207.23362630000065,right,1.0,28.413336499999787,,,,,,,,,,,,,,,,,,,,,,,,,,,,,,,sub-118,2.0,random_dot,120.27412879412584,
right,right,speed,,,,,0.0,0.0,0.0,1.0,8.0,0.0,16.0,1.0,207.24102240000047,,,,,,,,,207.2345181999999,208.0412976000007,208.84053080000007,208.83468280000037,208.8347158000006,208.84053080000007,208.84053080000007,208.84053080000007,,210.1501214,right,1.0,28.61165019999953,,,,,,,,,,,,,,,,,,,,,,,,,,,,,,,sub-118,2.0,random_dot,120.27412879412584,
left,left,speed,,,,,0.0,0.0,0.0,1.0,8.0,1.0,17.0,0.0,210.15763190000047,,,,,,,,,210.1516465000004,211.3576990000001,212.15745090000016,212.14993480000064,212.1499604999999,212.15745090000016,212.15745090000016,212.15745090000016,,215.1588975000004,right,0.0,30.306298599999536,,,,,,,,,,,,,,,,,,,,,,,,,,,,,,,sub-118,2.0,random_dot,120.27412879412584,
right,right,speed,,,,,0.0,0.0,0.0,1.0,9.0,0.0,18.0,1.0,215.16607660000045,,,,,,,,,215.15986909999992,215.51601200000005,216.31648900000076,216.30836540000016,216.30838550000044,216.31648900000076,216.31648900000076,216.31648900000076,221.3076412999999,221.62507630000076,right,1.0,32.61413989999983,,,,,,,,,,,,,,,,,,,,,,,,,,,,,,,sub-118,2.0,random_dot,120.27412879412584,
left,left,speed,,,,,0.0,0.0,0.0,1.0,9.0,1.0,19.0,0.0,221.6328914000005,,,,,,,,,221.6260204,221.73289449999996,222.5326171000006,222.5251595,222.5251889000001,222.5326171000006,222.5326171000006,222.5326171000006,,224.10139400000023,right,0.0,28.876729499999783,,,,,,,,,,,,,,,,,,,,,,,,,,,,,,,sub-118,2.0,random_dot,120.27412879412584,
left,left,speed,,,,,0.0,0.0,0.0,1.0,10.0,0.0,20.0,0.0,224.10748390000023,,,,,,,,,224.10229620000064,224.90770030000024,225.7077264,225.7000371000004,225.7000579000005,225.7077264,225.7077264,225.7077264,,226.30007440000009,left,1.0,27.89797969999927,,,,,,,,,,,,,,,,,,,,,,,,,,,,,,,sub-118,2.0,random_dot,120.27412879412584,
right,right,speed,,,,,0.0,0.0,0.0,1.0,10.0,1.0,21.0,1.0,226.30777040000063,,,,,,,,,226.300988,227.10801170000013,227.90804260000004,227.8999346999999,227.89995520000048,227.90804260000004,227.90804260000004,227.90804260000004,,228.82568770000037,left,0.0,28.22068129999934,,,,,,,,,,,,,,,,,,,,,,,,,,,,,,,sub-118,2.0,random_dot,120.27412879412584,
right,right,speed,,,,,0.0,0.0,0.0,1.0,11.0,0.0,22.0,1.0,228.83292530000017,,,,,,,,,228.82660010000015,229.63290310000048,230.4325748000001,230.4248821000001,230.42490780000023,230.4325748000001,230.4325748000001,230.4325748000001,,231.5501659000001,right,1.0,28.424274299999524,,,,,,,,,,,,,,,,,,,,,,,,,,,,,,,sub-118,2.0,random_dot,120.27412879412584,
left,left,speed,,,,,0.0,0.0,0.0,1.0,11.0,1.0,23.0,0.0,231.5578365000001,,,,,,,,,231.5510764999999,231.90785760000017,232.70765050000043,232.7000119000004,232.7000364000005,232.70765050000043,232.70765050000043,232.70765050000043,,233.91708999999992,right,0.0,28.51172889999907,,,,,,,,,,,,,,,,,,,,,,,,,,,,,,,sub-118,2.0,random_dot,120.27412879412584,
left,left,speed,,,,,0.0,0.0,0.0,1.0,12.0,0.0,24.0,0.0,233.92468110000027,,,,,,,,,233.91801510000005,234.2745617999999,235.07419550000031,235.06658030000017,235.06660830000052,235.07419550000031,235.07419550000031,235.07419550000031,,236.94283950000045,left,1.0,29.17189159999998,,,,,,,,,,,,,,,,,,,,,,,,,,,,,,,sub-118,2.0,random_dot,120.27412879412584,
right,right,speed,,,,,0.0,0.0,0.0,1.0,12.0,1.0,25.0,1.0,236.94920340000044,,,,,,,,,236.94384380000065,237.7496222,238.54940250000072,238.5417479000007,238.54176850000025,238.54940250000072,238.54940250000072,238.54940250000072,,240.9922789000002,right,1.0,29.750665599999596,,,,,,,,,,,,,,,,,,,,,,,,,,,,,,,sub-118,2.0,random_dot,120.27412879412584,
right,right,speed,,,,,0.0,0.0,0.0,1.0,13.0,0.0,26.0,1.0,240.9994176,,,,,,,,,240.99320570000052,242.19946400000023,242.99956370000015,242.99203960000068,242.99205940000047,242.99956370000015,242.99956370000015,242.99956370000015,,244.0502617000002,right,1.0,28.35523279999961,,,,,,,,,,,,,,,,,,,,,,,,,,,,,,,sub-118,2.0,random_dot,120.27412879412584,
left,left,speed,,,,,0.0,0.0,0.0,1.0,13.0,1.0,27.0,0.0,244.05845860000045,,,,,,,,,244.0511842000005,244.8578266000004,245.6584053000006,245.6501471000001,245.65016730000025,245.6584053000006,245.6584053000006,245.6584053000006,,246.00029240000003,right,0.0,27.64945069999976,,,,,,,,,,,,,,,,,,,,,,,,,,,,,,,sub-118,2.0,random_dot,120.27412879412584,
right,right,speed,,,,,0.0,0.0,0.0,1.0,14.0,0.0,28.0,1.0,246.0080910000006,,,,,,,,,246.00117060000048,246.80787080000027,247.60796050000044,247.60007050000056,247.6000918,247.60796050000044,247.60796050000044,247.60796050000044,,249.8417808000004,left,0.0,29.535428899999715,,,,,,,,,,,,,,,,,,,,,,,,,,,,,,,sub-118,2.0,random_dot,120.27412879412584,
left,left,speed,,,,,0.0,0.0,0.0,1.0,14.0,1.0,29.0,0.0,249.8499628,,,,,,,,,249.8428623,250.19942210000045,250.9992650000004,250.99172630000064,250.99175060000016,250.9992650000004,250.9992650000004,250.9992650000004,255.99117670000032,256.6753595,right,0.0,32.97926319999988,,,,,,,,,,,,,,,,,,,,,,,,,,,,,,,sub-118,2.0,random_dot,120.27412879412584,
right,right,speed,,,,,0.0,0.0,0.0,1.0,15.0,0.0,30.0,1.0,256.6828475000002,,,,,,,,,256.6763344000001,257.0244504000002,257.8250882000002,257.8172691,257.8172885000004,257.8250882000002,257.8250882000002,257.8250882000002,,260.6419349000007,left,0.0,30.11952310000015,,,,,,,,,,,,,,,,,,,,,,,,,,,,,,,sub-118,2.0,random_dot,120.27412879412584,
left,left,speed,,,,,0.0,0.0,0.0,1.0,15.0,1.0,31.0,0.0,260.6495190000005,,,,,,,,,260.64287670000067,261.8416354000001,262.6411125000004,262.63426900000013,262.6342893000001,262.6411125000004,262.6411125000004,262.6411125000004,,263.1341071000006,right,0.0,27.797053100000085,,,,,,,,,,,,,,,,,,,,,,,,,,,,,,,sub-118,2.0,random_dot,120.27412879412584,
right,right,speed,,,,,0.0,0.0,0.0,1.0,16.0,0.0,32.0,1.0,263.1418112000001,,,,,,,,,263.13499090000005,263.9412644000004,264.74196400000073,264.7337164999999,264.73373660000016,264.74196400000073,264.74196400000073,264.74196400000073,269.7331030000005,270.36698630000046,right,1.0,32.93039209999915,,,,,,,,,,,,,,,,,,,,,,,,,,,,,,,sub-118,2.0,random_dot,120.27412879412584,
left,left,speed,,,,,0.0,0.0,0.0,1.0,16.0,1.0,33.0,0.0,270.37452680000024,,,,,,,,,270.3679871000004,271.5747102000005,272.37458030000016,272.3665458000005,272.36657340000056,272.37458030000016,272.37458030000016,272.37458030000016,,276.3255472000001,left,1.0,31.258671599999616,,,,,,,,,,,,,,,,,,,,,,,,,,,,,,,sub-118,2.0,random_dot,120.27412879412584,
left,left,speed,,,,,0.0,0.0,0.0,1.0,17.0,0.0,34.0,0.0,276.3329999000007,,,,,,,,,276.3265110000002,277.5329913000005,278.3332061000001,278.3252830000001,278.3253169,278.3332061000001,278.3332061000001,278.3332061000001,,281.7922267000004,right,0.0,30.767055100000107,,,,,,,,,,,,,,,,,,,,,,,,,,,,,,,sub-118,2.0,random_dot,120.27412879412584,
right,right,speed,,,,,0.0,0.0,0.0,1.0,17.0,1.0,35.0,1.0,281.7996903000003,,,,,,,,,281.7931186000005,282.9911729000005,283.7911584000003,283.7836341000002,283.7836534000008,283.7911584000003,283.7911584000003,283.7911584000003,,285.8589993000005,right,1.0,29.37222290000045,,,,,,,,,,,,,,,,,,,,,,,,,,,,,,,sub-118,2.0,random_dot,120.27412879412584,
right,right,speed,,,,,0.0,0.0,0.0,1.0,18.0,0.0,36.0,1.0,285.8659825000004,,,,,,,,,285.86060570000063,286.66613810000035,287.4662517000006,287.4586884999999,287.45870860000014,287.4662517000006,287.4662517000006,287.4662517000006,,290.0260709000004,right,1.0,29.867979399999054,,,,,,,,,,,,,,,,,,,,,,,,,,,,,,,sub-118,2.0,random_dot,120.27412879412584,
left,left,speed,,,,,0.0,0.0,0.0,1.0,18.0,1.0,37.0,0.0,290.0330522000004,,,,,,,,,290.0269487000005,291.2330169000006,292.03302950000034,292.0249797000006,292.0249984000002,292.03302950000034,292.03302950000034,292.03302950000034,,294.8339444000003,right,0.0,30.105357899999944,,,,,,,,,,,,,,,,,,,,,,,,,,,,,,,sub-118,2.0,random_dot,120.27412879412584,
left,left,speed,,,,,0.0,0.0,0.0,1.0,19.0,0.0,38.0,0.0,294.84110620000047,,,,,,,,,294.8348817000005,295.1911833000004,295.9913264000006,295.9838252,295.98384500000066,295.9913264000006,295.9913264000006,295.9913264000006,,297.6421012999999,left,1.0,28.95508899999913,,,,,,,,,,,,,,,,,,,,,,,,,,,,,,,sub-118,2.0,random_dot,120.27412879412584,
right,right,speed,,,,,0.0,0.0,0.0,1.0,19.0,1.0,39.0,1.0,297.6495467000004,,,,,,,,,297.6432407000002,297.99969260000034,298.7996965000002,298.7924090000006,298.7924296000001,298.7996965000002,298.7996965000002,298.7996965000002,,300.0841207000003,left,0.0,28.58529879999969,,,,,,,,,,,,,,,,,,,,,,,,,,,,,,,sub-118,2.0,random_dot,120.27412879412584,
right,right,speed,,,,,0.0,0.0,0.0,1.0,20.0,0.0,40.0,1.0,300.09147269999994,,,,,,,,,300.0850502000003,300.89178510000056,301.6910321000005,301.68381860000045,301.6838615000006,301.6910321000005,301.6910321000005,301.6910321000005,,304.3007026000005,right,1.0,29.91755959999955,,,,,,,,,,,,,,,,,,,,,,,,,,,,,,,sub-118,2.0,random_dot,120.27412879412584,
left,left,speed,,,,,0.0,0.0,0.0,1.0,20.0,1.0,41.0,0.0,304.30791320000026,,,,,,,,,304.3016738000006,305.1080382,305.90792240000064,305.90015480000056,305.9001734000003,305.90792240000064,305.90792240000064,305.90792240000064,,307.7924444999999,left,1.0,29.190868300000147,,,,,,,,,,,,,,,,,,,,,,,,,,,,,,,sub-118,2.0,random_dot,120.27412879412584,
left,left,speed,,,,,0.0,0.0,0.0,1.0,21.0,0.0,42.0,0.0,307.7995842,,,,,,,,,307.7933628999999,308.9994695000005,309.79964199999995,309.79202930000065,309.79204990000017,309.79964199999995,309.79964199999995,309.79964199999995,,311.82541160000073,right,0.0,29.330137199999623,,,,,,,,,,,,,,,,,,,,,,,,,,,,,,,sub-118,2.0,random_dot,120.27412879412584,
right,right,speed,,,,,0.0,0.0,0.0,1.0,21.0,1.0,43.0,1.0,311.83289420000074,,,,,,,,,311.82631180000044,311.9248275,312.7246501,312.7175371000003,312.7175715000003,312.7246501,312.7246501,312.7246501,,315.15078150000045,left,0.0,29.73187699999926,,,,,,,,,,,,,,,,,,,,,,,,,,,,,,,sub-118,2.0,random_dot,120.27412879412584,
left,left,speed,,,,,0.0,0.0,0.0,1.0,22.0,0.0,44.0,0.0,315.1579421000006,,,,,,,,,315.1517042000005,315.5079513999999,316.30787490000057,316.3005645000003,316.3005836000002,316.30787490000057,316.30787490000057,316.30787490000057,,318.3174108000003,right,0.0,29.31557459999931,,,,,,,,,,,,,,,,,,,,,,,,,,,,,,,sub-118,2.0,random_dot,120.27412879412584,
right,right,speed,,,,,0.0,0.0,0.0,1.0,22.0,1.0,45.0,1.0,318.3247936000007,,,,,,,,,318.3183394000007,319.12461729999995,319.92443600000024,319.9169344000002,319.9169533000004,319.92443600000024,319.92443600000024,319.92443600000024,,321.50867350000044,right,1.0,28.89044289999947,,,,,,,,,,,,,,,,,,,,,,,,,,,,,,,sub-118,2.0,random_dot,120.27412879412584,
right,right,speed,,,,,0.0,0.0,0.0,1.0,23.0,0.0,46.0,1.0,321.5163945000004,,,,,,,,,321.50958750000063,321.6163353000002,322.41634630000044,322.40840690000005,322.40842750000047,322.41634630000044,322.41634630000044,322.41634630000044,,324.5087876000007,left,0.0,29.394251300000175,,,,,,,,,,,,,,,,,,,,,,,,,,,,,,,sub-118,2.0,random_dot,120.27412879412584,
left,left,speed,,,,,0.0,0.0,0.0,1.0,23.0,1.0,47.0,0.0,324.5164136000003,,,,,,,,,324.5096897000003,325.3164499000004,326.11629320000065,326.10909919999995,326.10911940000005,326.11629320000065,326.11629320000065,326.11629320000065,,328.91761570000017,right,0.0,30.10955469999953,,,,,,,,,,,,,,,,,,,,,,,,,,,,,,,sub-118,2.0,random_dot,120.27412879412584,
left,left,speed,,,,,0.0,0.0,0.0,1.0,24.0,0.0,48.0,0.0,328.924994,,,,,,,,,328.91850370000066,329.0247309000006,329.82480960000066,329.8174056000007,329.8174254000005,329.82480960000066,329.82480960000066,329.82480960000066,,332.80889560000014,right,0.0,30.2895139000002,,,,,,,,,,,,,,,,,,,,,,,,,,,,,,,sub-118,2.0,random_dot,120.27412879412584,
right,right,speed,,,,,0.0,0.0,0.0,1.0,24.0,1.0,49.0,1.0,332.81638509999993,,,,,,,,,332.8097932999999,333.61638029999995,334.41661960000056,334.4085928000004,334.40862090000064,334.41661960000056,334.41661960000056,334.41661960000056,,337.1258538000002,right,1.0,30.0107766000001,,,,,,,,,,,,,,,,,,,,,,,,,,,,,,,sub-118,2.0,random_dot,120.27412879412584,
left,left,speed,,,,,0.0,0.0,0.0,1.0,25.0,0.0,50.0,0.0,337.1329131000002,,,,,,,,,337.1267448000008,338.3330639000005,339.13313000000016,339.1252368000005,339.12526460000026,339.13313000000016,339.13313000000016,339.13313000000016,,341.75877820000005,left,1.0,29.928234500000144,,,,,,,,,,,,,,,,,,,,,,,,,,,,,,,sub-118,2.0,random_dot,120.27412879412584,
right,right,speed,,,,,0.0,0.0,0.0,1.0,25.0,1.0,51.0,1.0,341.7664042000006,,,,,,,,,341.75966270000026,341.86681150000004,342.6662931000001,342.65877460000047,342.6587943000004,342.6662931000001,342.6662931000001,342.6662931000001,,345.00184640000043,right,1.0,29.643761999999697,,,,,,,,,,,,,,,,,,,,,,,,,,,,,,,sub-118,2.0,random_dot,120.27412879412584,
left,left,speed,,,,,0.0,0.0,0.0,1.0,26.0,0.0,52.0,0.0,345.00787820000005,,,,,,,,,345.0027178,345.3584707,346.158547,346.1503676000002,346.1504007000003,346.158547,346.158547,346.158547,,350.5509980000006,right,0.0,31.700490699999136,,,,,,,,,,,,,,,,,,,,,,,,,,,,,,,sub-118,2.0,random_dot,120.27412879412584,
right,right,speed,,,,,0.0,0.0,0.0,1.0,26.0,1.0,53.0,1.0,350.55792870000005,,,,,,,,,350.5518873000001,351.35825100000056,352.1583520000004,352.15020559999994,352.1502264999999,352.1583520000004,352.1583520000004,352.1583520000004,,353.5839930000002,right,1.0,28.731812299999547,,,,,,,,,,,,,,,,,,,,,,,,,,,,,,,sub-118,2.0,random_dot,120.27412879412584,
right,right,speed,,,,,0.0,0.0,0.0,1.0,27.0,0.0,54.0,1.0,353.59204950000003,,,,,,,,,353.5848780000006,353.6915626,354.49122460000035,354.4837988,354.4838239999999,354.49122460000035,354.49122460000035,354.49122460000035,,354.8422637000004,left,0.0,27.65629809999973,,,,,,,,,,,,,,,,,,,,,,,,,,,,,,,sub-118,2.0,random_dot,120.27412879412584,
left,left,speed,,,,,0.0,0.0,0.0,1.0,27.0,1.0,55.0,0.0,354.85004389999995,,,,,,,,,354.8432068000002,354.9499517000004,355.7497720000001,355.74183040000025,355.74185040000066,355.7497720000001,355.7497720000001,355.7497720000001,,356.20061840000017,right,0.0,27.751612799999748,,,,,,,,,,,,,,,,,,,,,,,,,,,,,,,sub-118,2.0,random_dot,120.27412879412584,
left,left,speed,,,,,0.0,0.0,0.0,1.0,28.0,0.0,56.0,0.0,356.2083375000002,,,,,,,,,356.2015170000004,357.0084179000005,357.8082355000006,357.80020390000027,357.8002215000006,357.8082355000006,357.8082355000006,357.8082355000006,,358.40120340000067,left,1.0,27.895227900000464,,,,,,,,,,,,,,,,,,,,,,,,,,,,,,,sub-118,2.0,random_dot,120.27412879412584,
right,right,speed,,,,,0.0,0.0,0.0,1.0,28.0,1.0,57.0,1.0,358.4083878000001,,,,,,,,,358.4020924000006,358.7582465000005,359.5581559000002,359.55053080000016,359.5505507000007,359.5581559000002,359.5581559000002,359.5581559000002,,359.82555110000067,right,1.0,27.57294720000027,,,,,,,,,,,,,,,,,,,,,,,,,,,,,,,sub-118,2.0,random_dot,120.27412879412584,
right,right,speed,,,,,0.0,0.0,0.0,1.0,29.0,0.0,58.0,1.0,359.83324230000017,,,,,,,,,359.8264441000001,360.6331813000006,361.4332127000007,361.4253132000004,361.4253331,361.4332127000007,361.4332127000007,361.4332127000007,,361.6925133000004,left,0.0,27.562870400000065,,,,,,,,,,,,,,,,,,,,,,,,,,,,,,,sub-118,2.0,random_dot,120.27412879412584,
left,left,speed,,,,,0.0,0.0,0.0,1.0,29.0,1.0,59.0,0.0,361.6996168000005,,,,,,,,,361.6940430000004,362.8998139000005,363.6997089000006,363.6919344000007,363.69195560000026,363.6997089000006,363.6997089000006,363.6997089000006,,364.1507514000005,right,0.0,27.751794300000256,,,,,,,,,,,,,,,,,,,,,,,,,,,,,,,sub-118,2.0,random_dot,120.27412879412584,
,,speed,,,,,0.0,0.0,0.0,1.0,,,,,,,,,,,,,,,,,,,,,,,,,,,,,,,,,,,,,,,,,,,,,,,,,,,,,,,,,sub-118,2.0,random_dot,120.27412879412584,
right,right,accuracy,,,,,0.0,1.0,1.0,0.0,0.0,0.0,0.0,1.0,366.86547340000016,,,,,,,,,366.8620488000006,367.2074714999999,368.0067944000002,368.0005329000005,368.0005626000002,368.0067944000002,368.0067944000002,368.0067944000002,,368.42511490000015,right,1.0,27.72001689999979,,,,,,,,,,,,,,,,,,,,364.1515739000006,364.1615974000006,364.1615974000006,366.8543652000008,space,29.99485600000025,,,,,,sub-118,2.0,random_dot,120.27412879412584,
left,left,accuracy,,,,,0.0,1.0,1.0,0.0,0.0,1.0,1.0,0.0,368.4320996000006,,,,,,,,,368.426391,369.6321614000008,370.4323425000002,370.42451750000055,370.4245472000002,370.4323425000002,370.4323425000002,370.4323425000002,,372.1834202,left,1.0,29.051621699999487,,,,,,,,,,,,,,,,,,,,,,,,,,,,,,,sub-118,2.0,random_dot,120.27412879412584,
left,left,accuracy,,,,,0.0,1.0,1.0,0.0,1.0,0.0,2.0,0.0,372.1906570000001,,,,,,,,,372.18431880000026,372.2904997000005,373.0910386000005,373.08299330000045,373.0830126000001,373.0910386000005,373.0910386000005,373.0910386000005,,375.0250071,right,0.0,29.2347049,,,,,,,,,,,,,,,,,,,,,,,,,,,,,,,sub-118,2.0,random_dot,120.27412879412584,
right,right,accuracy,,,,,0.0,1.0,1.0,0.0,1.0,1.0,3.0,1.0,375.0324997000007,,,,,,,,,375.02598600000056,376.2322970000005,377.0322073000007,377.02460670000073,377.024625,377.0322073000007,377.0322073000007,377.0322073000007,,377.8247093,right,1.0,28.0979398999998,,,,,,,,,,,,,,,,,,,,,,,,,,,,,,,sub-118,2.0,random_dot,120.27412879412584,
left,left,accuracy,,,,,0.0,1.0,1.0,0.0,2.0,0.0,4.0,0.0,377.8328324000004,,,,,,,,,377.8256162000007,378.62439,379.4239416,379.41615120000006,379.4161718000005,379.4239416,379.4239416,379.4239416,,380.39159370000016,right,0.0,28.269756199999392,,,,,,,,,,,,,,,,,,,,,,,,,,,,,,,sub-118,2.0,random_dot,120.27412879412584,
right,right,accuracy,,,,,0.0,1.0,1.0,0.0,2.0,1.0,5.0,1.0,380.39893550000033,,,,,,,,,380.39253009999993,380.49885220000033,381.2989119000004,381.2912344000006,381.2912685000001,381.2989119000004,381.2989119000004,381.2989119000004,,382.4252048000008,right,1.0,28.42975860000024,,,,,,,,,,,,,,,,,,,,,,,,,,,,,,,sub-118,2.0,random_dot,120.27412879412584,
right,right,accuracy,,,,,0.0,1.0,1.0,0.0,3.0,0.0,6.0,1.0,382.4323107,,,,,,,,,382.42608780000046,383.2333544000003,384.0403456000004,384.03285310000047,384.0328857000004,384.0403456000004,384.0403456000004,384.0403456000004,,385.29979790000016,right,1.0,28.563197200000104,,,,,,,,,,,,,,,,,,,,,,,,,,,,,,,sub-118,2.0,random_dot,120.27412879412584,
left,left,accuracy,,,,,0.0,1.0,1.0,0.0,3.0,1.0,7.0,0.0,385.3073762000004,,,,,,,,,385.3006714000003,386.5074246000004,387.30726270000014,387.2997811000005,387.2998011,387.30726270000014,387.30726270000014,387.30726270000014,,389.4998976000006,right,0.0,29.49972849999904,,,,,,,,,,,,,,,,,,,,,,,,,,,,,,,sub-118,2.0,random_dot,120.27412879412584,
left,left,accuracy,,,,,0.0,1.0,1.0,0.0,4.0,0.0,8.0,0.0,389.5071348000001,,,,,,,,,389.5014181000006,389.8572307000004,390.6573629000004,390.6496104000007,390.6496299999999,390.6573629000004,390.6573629000004,390.6573629000004,,392.2416781000002,left,1.0,28.889905799999724,,,,,,,,,,,,,,,,,,,,,,,,,,,,,,,sub-118,2.0,random_dot,120.27412879412584,
right,right,accuracy,,,,,0.0,1.0,1.0,0.0,4.0,1.0,9.0,1.0,392.2488901000006,,,,,,,,,392.2425661000007,393.4490602000005,394.2487820000006,394.2412044000002,394.2412312000006,394.2487820000006,394.2487820000006,394.2487820000006,,394.9089967,right,1.0,27.96815989999959,,,,,,,,,,,,,,,,,,,,,,,,,,,,,,,sub-118,2.0,random_dot,120.27412879412584,
left,left,accuracy,,,,,0.0,1.0,1.0,0.0,5.0,0.0,10.0,0.0,394.9154618000002,,,,,,,,,394.9098892000002,395.7158403000003,396.5160943000001,396.5080206000002,396.5080545999999,396.5160943000001,396.5160943000001,396.5160943000001,,397.2170009000001,left,1.0,28.00893999999971,,,,,,,,,,,,,,,,,,,,,,,,,,,,,,,sub-118,2.0,random_dot,120.27412879412584,
right,right,accuracy,,,,,0.0,1.0,1.0,0.0,5.0,1.0,11.0,1.0,397.2243677000006,,,,,,,,,397.2179511000004,398.42397040000014,399.22400300000027,399.2172591000008,399.21729360000063,399.22400300000027,399.22400300000027,399.22400300000027,,400.2171572000007,right,1.0,28.29520010000033,,,,,,,,,,,,,,,,,,,,,,,,,,,,,,,sub-118,2.0,random_dot,120.27412879412584,
right,right,accuracy,,,,,0.0,1.0,1.0,0.0,6.0,0.0,12.0,1.0,400.2240912000007,,,,,,,,,400.2180349999999,400.3247185,401.12397620000047,401.1169447000002,401.1169796000004,401.12397620000047,401.12397620000047,401.12397620000047,,401.7666947000007,left,0.0,27.947200200000225,,,,,,,,,,,,,,,,,,,,,,,,,,,,,,,sub-118,2.0,random_dot,120.27412879412584,
left,left,accuracy,,,,,0.0,1.0,1.0,0.0,6.0,1.0,13.0,0.0,401.7739304000006,,,,,,,,,401.7675837000006,402.5742543000006,403.3739202000006,403.3661815000005,403.3662009,403.3739202000006,403.3739202000006,403.3739202000006,,403.8750297000006,right,0.0,27.80642699999953,,,,,,,,,,,,,,,,,,,,,,,,,,,,,,,sub-118,2.0,random_dot,120.27412879412584,
left,left,accuracy,,,,,0.0,1.0,1.0,0.0,7.0,0.0,14.0,0.0,403.8827922,,,,,,,,,403.8759411000001,404.6824263000008,405.4821585,405.4745612000006,405.47459590000017,405.4821585,405.4821585,405.4821585,,406.0996604000002,left,1.0,27.92476249999981,,,,,,,,,,,,,,,,,,,,,,,,,,,,,,,sub-118,2.0,random_dot,120.27412879412584,
right,right,accuracy,,,,,0.0,1.0,1.0,0.0,7.0,1.0,15.0,1.0,406.10736480000014,,,,,,,,,406.1005703000001,406.2073903999999,407.0076207000002,406.9994985000003,406.9995183000001,407.0076207000002,407.0076207000002,407.0076207000002,,407.7169258000004,right,1.0,28.01352399999996,,,,,,,,,,,,,,,,,,,,,,,,,,,,,,,sub-118,2.0,random_dot,120.27412879412584,
right,right,accuracy,,,,,0.0,1.0,1.0,0.0,8.0,0.0,16.0,1.0,407.7240440000005,,,,,,,,,407.7178291,408.9238990000004,409.7240314999999,409.71612170000026,409.7161398000008,409.7240314999999,409.7240314999999,409.7240314999999,,411.7332059,left,0.0,29.310734599999705,,,,,,,,,,,,,,,,,,,,,,,,,,,,,,,sub-118,2.0,random_dot,120.27412879412584,
left,left,accuracy,,,,,0.0,1.0,1.0,0.0,8.0,1.0,17.0,0.0,411.7405610000005,,,,,,,,,411.7343076000007,412.5327801000003,413.3323700000001,413.3246413000006,413.3246652000007,413.3323700000001,413.3323700000001,413.3323700000001,,413.8333882000006,right,0.0,27.80416210000021,,,,,,,,,,,,,,,,,,,,,,,,,,,,,,,sub-118,2.0,random_dot,120.27412879412584,
right,right,accuracy,,,,,0.0,1.0,1.0,0.0,9.0,0.0,18.0,1.0,413.8405556000007,,,,,,,,,413.8342752000008,413.9407348000004,414.7406289999999,414.7328371000003,414.7328541000006,414.7406289999999,414.7406289999999,414.7406289999999,,416.60017010000047,left,0.0,29.16732549999961,,,,,,,,,,,,,,,,,,,,,,,,,,,,,,,sub-118,2.0,random_dot,120.27412879412584,
left,left,accuracy,,,,,0.0,1.0,1.0,0.0,9.0,1.0,19.0,0.0,416.6075098000001,,,,,,,,,416.6010890000007,416.9573110000001,417.7573402000007,417.7496014000008,417.7496199000007,417.7573402000007,417.7573402000007,417.7573402000007,,419.26648040000055,right,0.0,28.815305599999192,,,,,,,,,,,,,,,,,,,,,,,,,,,,,,,sub-118,2.0,random_dot,120.27412879412584,
left,left,accuracy,,,,,0.0,1.0,1.0,0.0,10.0,0.0,20.0,0.0,419.27413930000057,,,,,,,,,419.2673732000003,420.0743944000005,420.8737811000001,420.8663654000002,420.8663905000003,420.8737811000001,420.8737811000001,420.8737811000001,,422.8833000000004,left,1.0,29.31095809999988,,,,,,,,,,,,,,,,,,,,,,,,,,,,,,,sub-118,2.0,random_dot,120.27412879412584,
right,right,accuracy,,,,,0.0,1.0,1.0,0.0,10.0,1.0,21.0,1.0,422.8911920999999,,,,,,,,,422.8841957000004,423.24074740000015,424.0407362000005,424.0328878,424.0329082000008,424.0407362000005,424.0407362000005,424.0407362000005,,425.6917698000007,left,0.0,28.953846200000044,,,,,,,,,,,,,,,,,,,,,,,,,,,,,,,sub-118,2.0,random_dot,120.27412879412584,
left,left,accuracy,,,,,0.0,1.0,1.0,0.0,11.0,0.0,22.0,0.0,425.6990461000005,,,,,,,,,425.6926908000005,426.4992602000002,427.299008,427.2921076000002,427.2921283000005,427.299008,427.299008,427.299008,,430.74163490000046,left,1.0,30.748096799999985,,,,,,,,,,,,,,,,,,,,,,,,,,,,,,,sub-118,2.0,random_dot,120.27412879412584,
right,right,accuracy,,,,,0.0,1.0,1.0,0.0,11.0,1.0,23.0,1.0,430.7495804,,,,,,,,,430.7425211,431.5490933000001,432.3492122000007,432.3413892000008,432.3414066000005,432.3492122000007,432.3492122000007,432.3492122000007,,434.1079416000002,right,1.0,29.06160239999917,,,,,,,,,,,,,,,,,,,,,,,,,,,,,,,sub-118,2.0,random_dot,120.27412879412584,
left,left,accuracy,,,,,0.0,1.0,1.0,0.0,12.0,0.0,24.0,0.0,434.1158660000001,,,,,,,,,434.1091332000005,434.20735650000006,435.0069622000001,435.0011052,435.0011385000007,435.0069622000001,435.0069622000001,435.0069622000001,,436.1254306000001,right,0.0,28.42157739999948,,,,,,,,,,,,,,,,,,,,,,,,,,,,,,,sub-118,2.0,random_dot,120.27412879412584,
right,right,accuracy,,,,,0.0,1.0,1.0,0.0,12.0,1.0,25.0,1.0,436.1323864000005,,,,,,,,,436.1263132000004,436.48259640000015,437.2825846000005,437.2748018000002,437.27482240000063,437.2825846000005,437.2825846000005,437.2825846000005,,438.14995480000016,right,1.0,28.17516069999965,,,,,,,,,,,,,,,,,,,,,,,,,,,,,,,sub-118,2.0,random_dot,120.27412879412584,
left,left,accuracy,,,,,0.0,1.0,1.0,0.0,13.0,0.0,26.0,0.0,438.1575685000007,,,,,,,,,438.15087330000006,438.50803840000026,439.3069198000003,439.29981790000056,439.29984719999993,439.3069198000003,439.3069198000003,439.3069198000003,,440.22494000000006,right,0.0,28.219186499999523,,,,,,,,,,,,,,,,,,,,,,,,,,,,,,,sub-118,2.0,random_dot,120.27412879412584,
right,right,accuracy,,,,,0.0,1.0,1.0,0.0,13.0,1.0,27.0,1.0,440.23240890000034,,,,,,,,,440.2258138000007,441.4325048999999,442.23236090000046,442.2251007000005,442.2251203000005,442.23236090000046,442.23236090000046,442.23236090000046,,442.9834467999999,right,1.0,28.053133700000217,,,,,,,,,,,,,,,,,,,,,,,,,,,,,,,sub-118,2.0,random_dot,120.27412879412584,
left,left,accuracy,,,,,0.0,1.0,1.0,0.0,14.0,0.0,28.0,0.0,442.99092800000017,,,,,,,,,442.9843794000008,444.1907138000006,444.99034630000006,444.9835807,444.9836078000008,444.99034630000006,444.99034630000006,444.99034630000006,,445.5914939000004,right,0.0,27.908214600000065,,,,,,,,,,,,,,,,,,,,,,,,,,,,,,,sub-118,2.0,random_dot,120.27412879412584,
right,right,accuracy,,,,,0.0,1.0,1.0,0.0,14.0,1.0,29.0,1.0,445.5991686000007,,,,,,,,,445.59243790000073,445.9491120000002,446.74890099999993,446.7413385,446.74136240000007,446.74890099999993,446.74890099999993,446.74890099999993,,450.1585527000007,right,1.0,30.71693549999964,,,,,,,,,,,,,,,,,,,,,,,,,,,,,,,sub-118,2.0,random_dot,120.27412879412584,
left,left,accuracy,,,,,0.0,1.0,1.0,0.0,15.0,0.0,30.0,0.0,450.1658019000006,,,,,,,,,450.1595494000003,450.9572729000001,451.7574355000006,451.74969860000056,451.74971820000064,451.7574355000006,451.7574355000006,451.7574355000006,,454.3003002000005,left,1.0,29.845094899999825,,,,,,,,,,,,,,,,,,,,,,,,,,,,,,,sub-118,2.0,random_dot,120.27412879412584,
right,right,accuracy,,,,,0.0,1.0,1.0,0.0,15.0,1.0,31.0,1.0,454.3074675000007,,,,,,,,,454.3011978000004,454.40762540000014,455.2069336000004,455.1999716,455.1999961000001,455.2069336000004,455.2069336000004,455.2069336000004,,457.8917733000008,right,1.0,29.988508399999773,,,,,,,,,,,,,,,,,,,,,,,,,,,,,,,sub-118,2.0,random_dot,120.27412879412584,
right,right,accuracy,,,,,0.0,1.0,1.0,0.0,16.0,0.0,32.0,1.0,457.89910880000025,,,,,,,,,457.8926558000003,457.99916290000056,458.79956240000047,458.7918033000005,458.79183749999993,458.79956240000047,458.79956240000047,458.79956240000047,,462.1346478000005,right,1.0,30.643209200000456,,,,,,,,,,,,,,,,,,,,,,,,,,,,,,,sub-118,2.0,random_dot,120.27412879412584,
left,left,accuracy,,,,,0.0,1.0,1.0,0.0,16.0,1.0,33.0,0.0,462.1407777000004,,,,,,,,,462.1355383,462.2413962999999,463.0406884000004,463.0335328000001,463.0335674000007,463.0406884000004,463.0406884000004,463.0406884000004,,463.88347280000016,left,1.0,28.147296899999677,,,,,,,,,,,,,,,,,,,,,,,,,,,,,,,sub-118,2.0,random_dot,120.27412879412584,
right,right,accuracy,,,,,0.0,1.0,1.0,0.0,17.0,0.0,34.0,1.0,463.890926,,,,,,,,,463.8843717,463.9906625000003,464.7908035,464.7829754000004,464.7829955000007,464.7908035,464.7908035,464.7908035,,465.3915583000007,right,1.0,27.902409199999056,,,,,,,,,,,,,,,,,,,,,,,,,,,,,,,sub-118,2.0,random_dot,120.27412879412584,
left,left,accuracy,,,,,0.0,1.0,1.0,0.0,17.0,1.0,35.0,0.0,465.3992109999999,,,,,,,,,465.3924419000005,466.1992387,466.99926180000057,466.991301,466.9913214000008,466.99926180000057,466.99926180000057,466.99926180000057,,467.7497166000003,right,0.0,28.052986699999565,,,,,,,,,,,,,,,,,,,,,,,,,,,,,,,sub-118,2.0,random_dot,120.27412879412584,
right,right,accuracy,,,,,0.0,1.0,1.0,0.0,18.0,0.0,36.0,1.0,467.7575224000002,,,,,,,,,467.7505981000004,468.10769530000016,468.9073500000004,468.8999659000001,468.90000020000025,468.9073500000004,468.9073500000004,468.9073500000004,,471.07512810000026,right,1.0,29.47198180000032,,,,,,,,,,,,,,,,,,,,,,,,,,,,,,,sub-118,2.0,random_dot,120.27412879412584,
left,left,accuracy,,,,,0.0,1.0,1.0,0.0,18.0,1.0,37.0,0.0,471.08260340000015,,,,,,,,,471.0760712000001,471.8824536000002,472.6825972000006,472.67468520000057,472.67470420000063,472.6825972000006,472.6825972000006,472.6825972000006,,475.2585380999999,right,0.0,29.882985799999915,,,,,,,,,,,,,,,,,,,,,,,,,,,,,,,sub-118,2.0,random_dot,120.27412879412584,
right,right,accuracy,,,,,0.0,1.0,1.0,0.0,19.0,0.0,38.0,1.0,475.26662510000006,,,,,,,,,475.2594536000006,475.6158621000004,476.4159734000005,476.40825850000056,476.4082923000005,476.4159734000005,476.4159734000005,476.4159734000005,,477.3429814000001,left,0.0,28.23086549999971,,,,,,,,,,,,,,,,,,,,,,,,,,,,,,,sub-118,2.0,random_dot,120.27412879412584,
left,left,accuracy,,,,,0.0,1.0,1.0,0.0,19.0,1.0,39.0,0.0,477.34894090000034,,,,,,,,,477.3442613000007,478.5493300000008,479.3489898000007,479.3418362000002,479.3418728000006,479.3489898000007,479.3489898000007,479.3489898000007,,480.0176255000006,right,0.0,27.969620300000315,,,,,,,,,,,,,,,,,,,,,,,,,,,,,,,sub-118,2.0,random_dot,120.27412879412584,
right,right,accuracy,,,,,0.0,1.0,1.0,0.0,20.0,0.0,40.0,1.0,480.0243075000008,,,,,,,,,480.0185658,480.8240003000001,481.62435150000056,481.6166309,481.6166647,481.62435150000056,481.62435150000056,481.62435150000056,,482.62486380000064,right,1.0,28.303724699999293,,,,,,,,,,,,,,,,,,,,,,,,,,,,,,,sub-118,2.0,random_dot,120.27412879412584,
left,left,accuracy,,,,,0.0,1.0,1.0,0.0,20.0,1.0,41.0,0.0,482.6324553000004,,,,,,,,,482.62576050000007,483.8241768000007,484.6246912000006,484.6170849,484.6171066000006,484.6246912000006,484.6246912000006,484.6246912000006,,485.50840160000007,left,1.0,28.19059539999944,,,,,,,,,,,,,,,,,,,,,,,,,,,,,,,sub-118,2.0,random_dot,120.27412879412584,
left,left,accuracy,,,,,0.0,1.0,1.0,0.0,21.0,0.0,42.0,0.0,485.5164623999999,,,,,,,,,485.5092795999999,486.31571070000064,487.1166143,487.1080170000005,487.10804180000014,487.1166143,487.1166143,487.1166143,,487.7162379000001,right,0.0,27.902559799999835,,,,,,,,,,,,,,,,,,,,,,,,,,,,,,,sub-118,2.0,random_dot,120.27412879412584,
right,right,accuracy,,,,,0.0,1.0,1.0,0.0,21.0,1.0,43.0,1.0,487.7241766000007,,,,,,,,,487.71713080000063,488.5159976000005,489.31586890000017,489.3079554000005,489.3079740000003,489.31586890000017,489.31586890000017,489.31586890000017,,490.07520620000014,right,1.0,28.065161999999876,,,,,,,,,,,,,,,,,,,,,,,,,,,,,,,sub-118,2.0,random_dot,120.27412879412584,
left,left,accuracy,,,,,0.0,1.0,1.0,0.0,22.0,0.0,44.0,0.0,490.08236320000015,,,,,,,,,490.0766543,491.2828138000005,492.0826916000005,492.07501370000045,492.0750347000003,492.0826916000005,492.0826916000005,492.0826916000005,,492.3835829,right,0.0,27.6052981999992,,,,,,,,,,,,,,,,,,,,,,,,,,,,,,,sub-118,2.0,random_dot,120.27412879412584,
right,right,accuracy,,,,,0.0,1.0,1.0,0.0,22.0,1.0,45.0,1.0,492.3910088000002,,,,,,,,,492.3845148999999,492.4909268000001,493.2905066000003,493.283692,493.2837161000007,493.2905066000003,493.2905066000003,493.2905066000003,,494.1670775000002,right,1.0,28.17895819999921,,,,,,,,,,,,,,,,,,,,,,,,,,,,,,,sub-118,2.0,random_dot,120.27412879412584,
right,right,accuracy,,,,,0.0,1.0,1.0,0.0,23.0,0.0,46.0,1.0,494.1741549000008,,,,,,,,,494.1679730000005,494.2743768,495.0744085000006,495.066793,495.0668144000001,495.0744085000006,495.0744085000006,495.0744085000006,,495.95025820000046,right,1.0,28.18379950000053,,,,,,,,,,,,,,,,,,,,,,,,,,,,,,,sub-118,2.0,random_dot,120.27412879412584,
left,left,accuracy,,,,,0.0,1.0,1.0,0.0,23.0,1.0,47.0,0.0,495.9576775000005,,,,,,,,,495.9513367,496.0579779,496.8577266000002,496.8500194000008,496.8500423000005,496.8577266000002,496.8577266000002,496.8577266000002,,498.61751360000017,right,0.0,29.067970799999785,,,,,,,,,,,,,,,,,,,,,,,,,,,,,,,sub-118,2.0,random_dot,120.27412879412584,
right,right,accuracy,,,,,0.0,1.0,1.0,0.0,24.0,0.0,48.0,1.0,498.6243220000006,,,,,,,,,498.6184105000002,498.7242415999999,499.5243541,499.51656210000056,499.5165821999999,499.5243541,499.5243541,499.5243541,,500.9587787999999,right,1.0,28.7419960999996,,,,,,,,,,,,,,,,,,,,,,,,,,,,,,,sub-118,2.0,random_dot,120.27412879412584,
left,left,accuracy,,,,,0.0,1.0,1.0,0.0,24.0,1.0,49.0,0.0,500.9659652999999,,,,,,,,,500.9597456000001,501.3159482000001,502.1163371000002,502.1084146000003,502.1084341000005,502.1163371000002,502.1163371000002,502.1163371000002,,502.8751864000005,right,0.0,28.05987719999939,,,,,,,,,,,,,,,,,,,,,,,,,,,,,,,sub-118,2.0,random_dot,120.27412879412584,
left,left,accuracy,,,,,0.0,1.0,1.0,0.0,25.0,0.0,50.0,0.0,502.8827625000004,,,,,,,,,502.87606330000017,502.9825073000002,503.78240430000005,503.77554620000046,503.7755699,503.78240430000005,503.78240430000005,503.78240430000005,,504.6666611999999,right,0.0,28.18959789999917,,,,,,,,,,,,,,,,,,,,,,,,,,,,,,,sub-118,2.0,random_dot,120.27412879412584,
right,right,accuracy,,,,,0.0,1.0,1.0,0.0,25.0,1.0,51.0,1.0,504.67449230000057,,,,,,,,,504.6675562999999,504.77435460000015,505.5744592000001,505.5665852000002,505.5666031999999,505.5744592000001,505.5744592000001,505.5744592000001,,506.6918651000005,left,0.0,28.42056279999997,,,,,,,,,,,,,,,,,,,,,,,,,,,,,,,sub-118,2.0,random_dot,120.27412879412584,
right,right,accuracy,,,,,0.0,1.0,1.0,0.0,26.0,0.0,52.0,1.0,506.6991740000003,,,,,,,,,506.6930177000004,507.0492715,507.8493455000007,507.8417046000004,507.8417235000006,507.8493455000007,507.8493455000007,507.8493455000007,,508.2751714000005,right,1.0,27.73254949999955,,,,,,,,,,,,,,,,,,,,,,,,,,,,,,,sub-118,2.0,random_dot,120.27412879412584,
left,left,accuracy,,,,,0.0,1.0,1.0,0.0,26.0,1.0,53.0,0.0,508.28257380000014,,,,,,,,,508.2761700000001,509.0828592000007,509.88268700000026,509.8750864000003,509.8751069,509.88268700000026,509.88268700000026,509.88268700000026,,510.5999699000004,right,0.0,28.023891799999543,,,,,,,,,,,,,,,,,,,,,,,,,,,,,,,sub-118,2.0,random_dot,120.27412879412584,
left,left,accuracy,,,,,0.0,1.0,1.0,0.0,27.0,0.0,54.0,0.0,510.6079368999999,,,,,,,,,510.6008547000001,511.4076930000001,512.2074121000005,512.2001887000006,512.2002236000008,512.2074121000005,512.2074121000005,512.2074121000005,,513.1418747000007,right,0.0,28.2421362999994,,,,,,,,,,,,,,,,,,,,,,,,,,,,,,,sub-118,2.0,random_dot,120.27412879412584,
right,right,accuracy,,,,,0.0,1.0,1.0,0.0,27.0,1.0,55.0,1.0,513.1494453000005,,,,,,,,,513.1427701000002,514.3497628000005,515.1491270000006,515.1416691000004,515.1416950000003,515.1491270000006,515.1491270000006,515.1491270000006,,516.6172414000002,right,1.0,28.769238200000476,,,,,,,,,,,,,,,,,,,,,,,,,,,,,,,sub-118,2.0,random_dot,120.27412879412584,
right,right,accuracy,,,,,0.0,1.0,1.0,0.0,28.0,0.0,56.0,1.0,516.6245763000006,,,,,,,,,516.6181264000006,517.4242274000007,518.2242617000002,518.2173140000004,518.2173473000003,518.2242617000002,518.2242617000002,518.2242617000002,,518.9001013000006,right,1.0,27.982407800000143,,,,,,,,,,,,,,,,,,,,,,,,,,,,,,,sub-118,2.0,random_dot,120.27412879412584,
left,left,accuracy,,,,,0.0,1.0,1.0,0.0,28.0,1.0,57.0,0.0,518.9077030000008,,,,,,,,,518.9009787000005,519.2493431000003,520.0494698000002,520.0416218,520.0416395000002,520.0494698000002,520.0494698000002,520.0494698000002,,521.2750779000007,right,0.0,28.532838099999022,,,,,,,,,,,,,,,,,,,,,,,,,,,,,,,sub-118,2.0,random_dot,120.27412879412584,
left,left,accuracy,,,,,0.0,1.0,1.0,0.0,29.0,0.0,58.0,0.0,521.2826388000003,,,,,,,,,521.2761655000004,521.6329106000003,522.4325609000007,522.4255053000006,522.4255243000007,522.4325609000007,522.4325609000007,522.4325609000007,,524.7755927000007,right,0.0,29.64805889999934,,,,,,,,,,,,,,,,,,,,,,,,,,,,,,,sub-118,2.0,random_dot,120.27412879412584,
right,right,accuracy,,,,,0.0,1.0,1.0,0.0,29.0,1.0,59.0,1.0,524.7829319000002,,,,,,,,,524.7764698000001,524.8826324000001,525.6822445000007,525.6753368,525.6753835,525.6822445000007,525.6822445000007,525.6822445000007,,527.4088035000004,left,0.0,29.03037070000028,,,,,,,,,,,,,,,,,,,,,,,,,,,,,,,sub-118,2.0,random_dot,120.27412879412584,
,,accuracy,,,,,0.0,1.0,1.0,0.0,,,,,,,,,,,,,,,,,,,,,,,,,,,,,,,,,,,,,,,,,,,,,,,,,,,,,,,,,sub-118,2.0,random_dot,120.27412879412584,
,,,,,,,,,,,,,,,,,,,,,,,,,,,,,,,,,,,,,,,,,,,,,,,,,,,,,,,,,,,,,,,527.4100286000003,527.4154983000008,532.4167901000001,532.4084927000004,sub-118,,,,
