direction,corrAns,randomInstr,practice_trials.thisRepN,practice_trials.thisTrialN,practice_trials.thisN,practice_trials.thisIndex,instr_trials.thisRepN,instr_trials.thisTrialN,instr_trials.thisN,instr_trials.thisIndex,test_trials.thisRepN,test_trials.thisTrialN,test_trials.thisN,test_trials.thisIndex,thisRow.t,notes,general_instruction.started,textGeneralInstr.started,respGeneralInstr.started,general_instruction.stopped,respGeneralInstr.keys,respGeneralInstr.rt,respGeneralInstr.duration,ITI.started,fixcross.started,fixcross.stopped,ITI.stopped,dots.started,backgroundDots.started,stimulusDots.started,respDots.started,stimulusDots.stopped,dots.stopped,respDots.keys,respDots.corr,respDots.rt,respDots.duration,feedback.started,textFeedback.started,textFeedback.stopped,feedback.stopped,info.started,textInfo.started,keyRespInfo.started,info.stopped,keyRespInfo.keys,keyRespInfo.rt,keyRespInfo.duration,test_instruction.started,textTestInstr.started,respTestInstr.started,test_instruction.stopped,respTestInstr.keys,respTestInstr.rt,respTestInstr.duration,random_instruction.started,textRandomInstr.started,respRandomInstr.started,random_instruction.stopped,respRandomInstr.keys,respRandomInstr.rt,respRandomInstr.duration,goodbye.started,textGoodbye.started,goodbye.stopped,participant,session,expName,frameRate,Unnamed: 73
,,,,,,,,,,,,,,,,,0.0155899999663233,0.0190806000027805,0.0190806000027805,80.50418759998865,space,109.37952479999512,,,,,,,,,,,,,,,,,,,,,,,,,,,,,,,,,,,,,,,,,,,,sub-033,1.0,random_dot,59.807682400279056,
right,right,,0.0,0.0,0.0,1.0,,,,,,,,,80.51849279995076,,,,,,,,,80.51303860009648,81.31795700010844,82.11795419990085,82.1019695000723,82.10200330009684,82.11795419990085,82.11795419990085,82.11795419990085,87.11367739993148,88.71371620008722,right,1.0,35.49051980022341,,88.71466930001043,88.72842859989032,89.22824910003692,89.21280330000445,,,,,,,,,,,,,,,,,,,,,,,,,sub-033,1.0,random_dot,59.807682400279056,
left,left,,0.0,1.0,1.0,0.0,,,,,,,,,89.22824910003692,,,,,,,,,89.21349409990944,89.57790850009769,90.37783419992776,90.36118829995394,90.3612192000728,90.37783419992776,90.37783419992776,90.37783419992776,,95.30827430007048,left,1.0,33.82832830003463,,95.3089014000725,95.323089200072,95.8227973000612,95.80705989990383,,,,,,,,,,,,,,,,,,,,,,,,,sub-033,1.0,random_dot,59.807682400279056,
right,right,,1.0,0.0,2.0,1.0,,,,,,,,,95.8227973000612,,,,,,,,,95.80738059990108,95.92280820012093,96.72251480002888,96.70650169998407,96.7065300999675,96.72251480002888,96.72251480002888,96.72251480002888,,99.87106360006146,right,1.0,32.040204300079495,,99.87144290003926,99.88642159989104,100.38567640003748,100.36996009992436,,,,,,,,,,,,,,,,,,,,,,,,,sub-033,1.0,random_dot,59.807682400279056,
left,left,,1.0,1.0,3.0,0.0,,,,,,,,,100.38567640003748,,,,,,,,,100.37037619994952,100.73558089998552,101.5351185000036,101.51870939997023,101.51873630005866,101.5351185000036,101.5351185000036,101.5351185000036,,104.13428510003725,left,1.0,31.48873920016922,,104.13472860003822,104.14922849996948,104.64906219998376,104.63306910009123,,,,,,,,,,,,,,,,,,,,,,,,,sub-033,1.0,random_dot,59.807682400279056,
left,left,,2.0,0.0,4.0,0.0,,,,,,,,,104.64906219998376,,,,,,,,,104.6335054000374,104.74845830001868,105.5484293999616,105.53212180011906,105.53214429994114,105.5484293999616,105.5484293999616,105.5484293999616,110.54453799990006,110.66345069999808,left,1.0,34.00593340001069,,110.6642334999051,110.67732260003686,111.17700570006856,111.1613336999435,,,,,,,,,,,,,,,,,,,,,,,,,sub-033,1.0,random_dot,59.807682400279056,
right,right,,2.0,1.0,5.0,1.0,,,,,,,,,111.17700570006856,,,,,,,,,111.16203029989263,111.9761310000904,112.77560729999097,112.75954329990782,112.75960620003752,112.77560729999097,112.77560729999097,112.77560729999097,,114.02617880003528,right,1.0,30.1447295001708,,114.0266078999266,114.0415241001174,114.54093510005625,114.52500350004992,,,,,,,,,,,,,,,,,,,,,,,,,sub-033,1.0,random_dot,59.807682400279056,
right,right,,3.0,0.0,6.0,1.0,,,,,,,,,114.54093510005625,,,,,,,,,114.52554029994644,115.3404290000908,116.15666770003736,116.14031970012002,116.1403465999756,116.15666770003736,116.15666770003736,116.15666770003736,,121.00398609996772,right,1.0,33.73852659994736,,121.00461659999564,121.01871660002509,121.51815730007364,121.50258819991724,,,,,,,,,,,,,,,,,,,,,,,,,sub-033,1.0,random_dot,59.807682400279056,
left,left,,3.0,1.0,7.0,0.0,,,,,,,,,121.51815730007364,,,,,,,,,121.50326239992864,121.8681157999672,122.66789859998973,122.65134060010314,122.65135860000736,122.66789859998973,122.66789859998973,122.66789859998973,,125.69984399992973,left,1.0,31.92513160011731,,125.70057259988972,125.7148285000585,126.21471050009131,126.19889530004002,,,,,,,,,,,,,,,,,,,,,,,,,sub-033,1.0,random_dot,59.807682400279056,
left,left,,4.0,0.0,8.0,0.0,,,,,,,,,126.21471050009131,,,,,,,,,126.19938139989972,126.31452809995972,127.11429050005972,127.09819349995814,127.0982137999963,127.11429050005972,127.11429050005972,127.11429050005972,132.10984349995852,132.71068720007315,left,1.0,34.495104800211266,,132.71133400010876,132.72574319993146,133.22529589990154,133.20971719990484,,,,,,,,,,,,,,,,,,,,,,,,,sub-033,1.0,random_dot,59.807682400279056,
right,right,,4.0,1.0,9.0,1.0,,,,,,,,,133.22529589990154,,,,,,,,,133.21025149989873,134.42464450001717,135.22437390009873,135.20826440001838,135.20830640010536,135.22437390009873,135.22437390009873,135.22437390009873,,138.7060084999539,right,1.0,32.37706150021404,,138.70654239994474,138.72075419989417,139.22042050003074,139.20467699994333,,,,,,,,,,,,,,,,,,,,,,,,,sub-033,1.0,random_dot,59.807682400279056,
left,left,,5.0,0.0,10.0,0.0,,,,,,,,,139.22042050003074,,,,,,,,,139.20506280008703,139.3203583001159,140.12017980008386,140.10401850007474,140.10403889999725,140.12017980008386,140.12017980008386,140.12017980008386,145.11591710010543,145.45166700007394,left,1.0,34.232284700032324,,145.45220279996283,145.46514600003138,145.96508480003104,145.94949000002816,,,,,,,,,,,,,,,,,,,,,,,,,sub-033,1.0,random_dot,59.807682400279056,
right,right,,5.0,1.0,11.0,1.0,,,,,,,,,145.96508480003104,,,,,,,,,145.95000299997628,146.06559240003116,146.86472379998304,146.84894279995933,146.84897619998085,146.86472379998304,146.86472379998304,146.86472379998304,,148.91391699993983,right,1.0,30.949088299879804,,148.91449879994616,148.92916830000468,149.42857210012153,149.41310349991545,,,,,,,,,,,,,,,,,,,,,,,,,sub-033,1.0,random_dot,59.807682400279056,
right,right,,6.0,0.0,12.0,1.0,,,,,,,,,149.42857210012153,,,,,,,,,149.4137273998931,150.22827469999902,151.02776130009445,151.01187149994075,151.011905600084,151.02776130009445,151.02776130009445,151.02776130009445,,155.99202080001123,right,1.0,33.86329790018499,,155.99263740004972,156.00663900002837,156.5061578999739,156.49061920004897,,,,,,,,,,,,,,,,,,,,,,,,,sub-033,1.0,random_dot,59.807682400279056,
left,left,,6.0,1.0,13.0,0.0,,,,,,,,,156.5061578999739,,,,,,,,,156.4910945999436,156.855917399982,157.65577129996382,157.63942370004952,157.6394523999188,157.65577129996382,157.65577129996382,157.65577129996382,,160.12163949990645,left,1.0,31.356210000114515,,160.12221880001016,160.13662960007787,160.63600719999522,160.62039870000444,,,,,,,,,,,,,,,,,,,,,,,,,sub-033,1.0,random_dot,59.807682400279056,
left,left,,7.0,0.0,14.0,0.0,,,,,,,,,160.63600719999522,,,,,,,,,160.62092379992828,161.43552040006034,162.23549199989066,162.21930620004423,162.21933449991047,162.23549199989066,162.23549199989066,162.23549199989066,167.23108460009098,167.36582909990102,left,1.0,34.018320800038055,,167.36621070001274,167.38075149990618,167.8800192999188,167.86467509996146,,,,,,,,,,,,,,,,,,,,,,,,,sub-033,1.0,random_dot,59.807682400279056,
right,right,,7.0,1.0,15.0,1.0,,,,,,,,,167.8800192999188,,,,,,,,,167.86520110000856,167.98007800010964,168.77992910007015,168.76349189993925,168.7635119999759,168.77992910007015,168.77992910007015,168.77992910007015,,173.7267630000133,right,1.0,33.8408484000247,,173.727276599966,173.74170979997143,174.24154990003444,174.2258013000246,,,,,,,,,,,,,,,,,,,,,,,,,sub-033,1.0,random_dot,59.807682400279056,
left,left,,8.0,0.0,16.0,0.0,,,,,,,,,174.24154990003444,,,,,,,,,174.22622939990833,175.44079699995928,176.24007309996523,176.22435769997537,176.22438520006835,176.24007309996523,176.24007309996523,176.24007309996523,,179.5066806001123,right,0.0,32.16818050015718,,179.50730889989063,179.52055469993502,180.0200791999232,180.00442830007523,,,,,,,,,,,,,,,,,,,,,,,,,sub-033,1.0,random_dot,59.807682400279056,
right,right,,8.0,1.0,17.0,1.0,,,,,,,,,180.0200791999232,,,,,,,,,180.00480090011845,180.1199203999713,180.91982010006905,180.9036737999413,180.9037208000664,180.91982010006905,180.91982010006905,180.91982010006905,,185.7170909999404,right,1.0,33.687531700124964,,185.7177238999866,185.73200129996985,186.23165210010484,186.2160652000457,,,,,,,,,,,,,,,,,,,,,,,,,sub-033,1.0,random_dot,59.807682400279056,
left,left,,9.0,0.0,18.0,0.0,,,,,,,,,186.23165210010484,,,,,,,,,186.2165322999936,186.3318243001122,187.1315534999594,187.1152830999345,187.1153067999985,187.1315534999594,187.1315534999594,187.1315534999594,,189.7470688000321,left,1.0,31.50502470019273,,189.74752290011384,189.761968200095,190.2618513999041,190.24618669995107,,,,,,,,,,,,,,,,,,,,,,,,,sub-033,1.0,random_dot,59.807682400279056,
right,right,,9.0,1.0,19.0,1.0,,,,,,,,,190.2618513999041,,,,,,,,,190.24668040010147,191.46078480011784,192.26037009991705,192.2442483000923,192.2442842000164,192.26037009991705,192.26037009991705,192.26037009991705,,194.49299379996955,right,1.0,31.12954310001805,,194.49342019995677,194.50833959993903,195.00792680005543,194.9923863001168,,,,,,,,,,,,,,,,,,,,,,,,,sub-033,1.0,random_dot,59.807682400279056,
,,,,,,,,,,,,,,,,,,,,,,,,,,,,,,,,,,,,,,,,,,194.99245149991475,195.00792680005543,195.00792680005543,244.45191200007685,space,78.33492820011452,,,,,,,,,,,,,,,,,,,sub-033,1.0,random_dot,59.807682400279056,
,,,,,,,,,,,,,,,,,,,,,,,,,,,,,,,,,,,,,,,,,,,,,,,,,244.45196469989605,244.4668860998936,244.4668860998936,260.48859110008925,space,44.91604469995946,,,,,,,,,,,,sub-033,1.0,random_dot,59.807682400279056,
right,right,accuracy,,,,,0.0,0.0,0.0,0.0,0.0,0.0,0.0,1.0,266.5985445000697,,,,,,,,,266.59205109998584,267.7982514000032,268.6137790000066,268.5983355999924,268.5983682000078,268.6137790000066,268.6137790000066,268.6137790000066,,269.7479852999095,right,1.0,30.029766299994662,,,,,,,,,,,,,,,,,,,,260.492670299951,260.50953159993514,260.50953159993514,266.5835295000579,space,34.96507390006445,,,,,sub-033,1.0,random_dot,59.807682400279056,
left,left,accuracy,,,,,0.0,0.0,0.0,0.0,0.0,1.0,1.0,0.0,269.7630223000888,,,,,,,,,269.74944290006533,270.11253160005435,270.9125242999289,270.89665809995495,270.8966904999688,270.9125242999289,270.9125242999289,270.9125242999289,,273.4451178999152,left,1.0,31.42480190005153,,,,,,,,,,,,,,,,,,,,,,,,,,,,,,sub-033,1.0,random_dot,59.807682400279056,
left,left,accuracy,,,,,0.0,0.0,0.0,0.0,1.0,0.0,2.0,0.0,273.45981399994344,,,,,,,,,273.44647069997154,274.65883970004506,275.4583606000524,275.4429701999761,275.44300139998086,275.4583606000524,275.4583606000524,275.4583606000524,280.4545879000798,280.7555507998913,left,1.0,34.18446980020963,,,,,,,,,,,,,,,,,,,,,,,,,,,,,,sub-033,1.0,random_dot,59.807682400279056,
right,right,accuracy,,,,,0.0,0.0,0.0,0.0,1.0,1.0,3.0,1.0,280.7705792998895,,,,,,,,,280.7566911999602,281.1205188999884,281.9200246001128,281.90383960003965,281.90386470011435,281.9200246001128,281.9200246001128,281.9200246001128,,284.15321579994634,right,1.0,31.132155200233683,,,,,,,,,,,,,,,,,,,,,,,,,,,,,,sub-033,1.0,random_dot,59.807682400279056,
left,left,accuracy,,,,,0.0,0.0,0.0,0.0,2.0,0.0,4.0,0.0,284.16766340006143,,,,,,,,,284.1549327000976,284.9671698000748,285.76679980009794,285.7510142000392,285.751049600076,285.76679980009794,285.76679980009794,285.76679980009794,,287.7330177000258,left,1.0,30.858281300170347,,,,,,,,,,,,,,,,,,,,,,,,,,,,,,sub-033,1.0,random_dot,59.807682400279056,
right,right,accuracy,,,,,0.0,0.0,0.0,0.0,2.0,1.0,5.0,1.0,287.748322899919,,,,,,,,,287.7341497000307,288.09759119991213,288.89727209997363,288.88135219994,288.8814024000894,288.89727209997363,288.89727209997363,288.89727209997363,,290.06529669999145,right,1.0,30.06884570000693,,,,,,,,,,,,,,,,,,,,,,,,,,,,,,sub-033,1.0,random_dot,59.807682400279056,
left,left,accuracy,,,,,0.0,0.0,0.0,0.0,3.0,0.0,6.0,0.0,290.0794569000136,,,,,,,,,290.06651840009727,291.27892599999905,292.0782826000359,292.0623145001009,292.06234750011936,292.0782826000359,292.0782826000359,292.0782826000359,,294.37763660005294,left,1.0,31.1961710001342,,,,,,,,,,,,,,,,,,,,,,,,,,,,,,sub-033,1.0,random_dot,59.807682400279056,
right,right,accuracy,,,,,0.0,0.0,0.0,0.0,3.0,1.0,7.0,1.0,294.392872299999,,,,,,,,,294.37878059991635,294.4927097999025,295.29239939991385,295.27645000000484,295.2764832000248,295.29239939991385,295.29239939991385,295.29239939991385,,297.1259647998959,right,1.0,30.72659630025737,,,,,,,,,,,,,,,,,,,,,,,,,,,,,,sub-033,1.0,random_dot,59.807682400279056,
left,left,accuracy,,,,,0.0,0.0,0.0,0.0,4.0,0.0,8.0,0.0,297.14050230011344,,,,,,,,,297.12747900001705,298.3396433999296,299.13929060008377,299.1234621000476,299.12349570007063,299.13929060008377,299.13929060008377,299.13929060008377,,302.8547441000119,left,1.0,32.60274250013754,,,,,,,,,,,,,,,,,,,,,,,,,,,,,,sub-033,1.0,random_dot,59.807682400279056,
right,right,accuracy,,,,,0.0,0.0,0.0,0.0,4.0,1.0,9.0,1.0,302.869161499897,,,,,,,,,302.8559491999913,304.067905300064,304.86788569996133,304.8516625999473,304.8516963000875,304.86788569996133,304.86788569996133,304.86788569996133,,309.21561149996705,left,0.0,33.240287400083616,,,,,,,,,,,,,,,,,,,,,,,,,,,,,,sub-033,1.0,random_dot,59.807682400279056,
left,left,accuracy,,,,,0.0,0.0,0.0,0.0,5.0,0.0,10.0,0.0,309.2304787999019,,,,,,,,,309.21701440005563,309.5802019999828,310.38020749995485,310.3638015000615,310.3638247000053,310.38020749995485,310.38020749995485,310.38020749995485,,313.1628912000451,left,1.0,31.670204300200567,,,,,,,,,,,,,,,,,,,,,,,,,,,,,,sub-033,1.0,random_dot,59.807682400279056,
right,right,accuracy,,,,,0.0,0.0,0.0,0.0,5.0,1.0,11.0,1.0,313.1771748000756,,,,,,,,,313.1645206999965,313.2770008998923,314.0771465001162,314.0606883999426,314.06072319997475,314.0771465001162,314.0771465001162,314.0771465001162,,315.90972999995574,right,1.0,30.72766450000927,,,,,,,,,,,,,,,,,,,,,,,,,,,,,,sub-033,1.0,random_dot,59.807682400279056,
right,right,accuracy,,,,,0.0,0.0,0.0,0.0,6.0,0.0,12.0,1.0,315.9247713999357,,,,,,,,,315.9108885999304,316.7242169000674,317.5240027001128,317.50771640008315,317.5077394999098,317.5240027001128,317.5240027001128,317.5240027001128,,321.73870990006253,right,1.0,33.110029000090435,,,,,,,,,,,,,,,,,,,,,,,,,,,,,,sub-033,1.0,random_dot,59.807682400279056,
left,left,accuracy,,,,,0.0,0.0,0.0,0.0,6.0,1.0,13.0,0.0,321.7536098000128,,,,,,,,,321.73998770001344,321.8535382000264,322.6533379000612,322.63714040000923,322.6371736000292,322.6533379000612,322.6533379000612,322.6533379000612,,327.13469210010953,left,1.0,33.38143629999831,,,,,,,,,,,,,,,,,,,,,,,,,,,,,,sub-033,1.0,random_dot,59.807682400279056,
left,left,accuracy,,,,,0.0,0.0,0.0,0.0,7.0,0.0,14.0,0.0,327.1492409000639,,,,,,,,,327.13594139995985,328.3481425999198,329.1478615999222,329.1316003999673,329.1316313999705,329.1478615999222,329.1478615999222,329.1478615999222,,333.5277001999784,right,0.0,33.26684690010734,,,,,,,,,,,,,,,,,,,,,,,,,,,,,,sub-033,1.0,random_dot,59.807682400279056,
right,right,accuracy,,,,,0.0,0.0,0.0,0.0,7.0,1.0,15.0,1.0,333.5432482000906,,,,,,,,,333.5284975999966,334.3432616000064,335.1428628999274,335.12695670011453,335.1269841999747,335.1428628999274,335.1428628999274,335.1428628999274,340.1387400999665,340.4401855999604,right,1.0,34.19453230011277,,,,,,,,,,,,,,,,,,,,,,,,,,,,,,sub-033,1.0,random_dot,59.807682400279056,
right,right,accuracy,,,,,0.0,0.0,0.0,0.0,8.0,0.0,16.0,1.0,340.45462420000695,,,,,,,,,340.44175200001337,340.5547297000885,341.3543330000248,341.3382659999188,341.3383146999404,341.3543330000248,341.3543330000248,341.3543330000248,346.3503296999261,346.7017433999572,right,1.0,34.2387742002029,,,,,,,,,,,,,,,,,,,,,,,,,,,,,,sub-033,1.0,random_dot,59.807682400279056,
left,left,accuracy,,,,,0.0,0.0,0.0,0.0,8.0,1.0,17.0,0.0,346.71617659996264,,,,,,,,,346.7026480000932,347.51591879990883,348.3153975000605,348.2993624999653,348.2993952999823,348.3153975000605,348.3153975000605,348.3153975000605,,352.5636795000173,left,1.0,33.14099130011164,,,,,,,,,,,,,,,,,,,,,,,,,,,,,,sub-033,1.0,random_dot,59.807682400279056,
right,right,accuracy,,,,,0.0,0.0,0.0,0.0,9.0,0.0,18.0,1.0,352.5780668000225,,,,,,,,,352.5651452001184,353.7771924000699,354.57668090006337,354.5607553999871,354.5607916000299,354.57668090006337,354.57668090006337,354.57668090006337,,358.54240819998085,right,1.0,32.867367800092325,,,,,,,,,,,,,,,,,,,,,,,,,,,,,,sub-033,1.0,random_dot,59.807682400279056,
left,left,accuracy,,,,,0.0,0.0,0.0,0.0,9.0,1.0,19.0,0.0,358.55652670003474,,,,,,,,,358.5435309000313,359.3561664000153,360.1722675000783,360.15605040011,360.15607749996707,360.1722675000783,360.1722675000783,360.1722675000783,,364.4878233000636,left,1.0,33.21719580003992,,,,,,,,,,,,,,,,,,,,,,,,,,,,,,sub-033,1.0,random_dot,59.807682400279056,
right,right,accuracy,,,,,0.0,0.0,0.0,0.0,10.0,0.0,20.0,1.0,364.50173310004175,,,,,,,,,364.4890670001041,364.60154579998925,365.4013251999859,365.3852985000704,365.3853380000219,365.4013251999859,365.4013251999859,365.4013251999859,,368.699884200003,right,1.0,32.19228280009702,,,,,,,,,,,,,,,,,,,,,,,,,,,,,,sub-033,1.0,random_dot,59.807682400279056,
left,left,accuracy,,,,,0.0,0.0,0.0,0.0,10.0,1.0,21.0,0.0,368.7149356000591,,,,,,,,,368.7011516001076,369.5142697999254,370.3140185000375,370.29806079994887,370.2980937999673,370.3140185000375,370.3140185000375,370.3140185000375,,374.6299580999184,left,1.0,33.21750469994731,,,,,,,,,,,,,,,,,,,,,,,,,,,,,,sub-033,1.0,random_dot,59.807682400279056,
right,right,accuracy,,,,,0.0,0.0,0.0,0.0,11.0,0.0,22.0,1.0,374.64344660006464,,,,,,,,,374.6312929999549,375.84239899995737,376.6420259999577,376.6259395000525,376.6259636001196,376.6420259999577,376.6420259999577,376.6420259999577,,377.9095618999563,right,1.0,30.16824080003425,,,,,,,,,,,,,,,,,,,,,,,,,,,,,,sub-033,1.0,random_dot,59.807682400279056,
left,left,accuracy,,,,,0.0,0.0,0.0,0.0,11.0,1.0,23.0,0.0,377.9238712999504,,,,,,,,,377.91124429996125,378.0238409000449,378.8233491999563,378.8079069999512,378.8079393000808,378.8233491999563,378.8233491999563,378.8233491999563,,382.772437900072,right,0.0,32.850992400199175,,,,,,,,,,,,,,,,,,,,,,,,,,,,,,sub-033,1.0,random_dot,59.807682400279056,
right,right,accuracy,,,,,0.0,0.0,0.0,0.0,12.0,0.0,24.0,1.0,382.7867809999734,,,,,,,,,382.77321980008855,383.1365590998903,383.9362818999216,383.9200259998906,383.92005699989386,383.9362818999216,383.9362818999216,383.9362818999216,,386.8517726000864,right,1.0,31.809488200116903,,,,,,,,,,,,,,,,,,,,,,,,,,,,,,sub-033,1.0,random_dot,59.807682400279056,
left,left,accuracy,,,,,0.0,0.0,0.0,0.0,12.0,1.0,25.0,0.0,386.8665628999006,,,,,,,,,386.853039199952,387.6659580999985,388.46566150011495,388.4496067999862,388.4496395001188,388.46566150011495,388.46566150011495,388.46566150011495,,391.9143276999239,left,1.0,32.3441288000904,,,,,,,,,,,,,,,,,,,,,,,,,,,,,,sub-033,1.0,random_dot,59.807682400279056,
left,left,accuracy,,,,,0.0,0.0,0.0,0.0,13.0,0.0,26.0,0.0,391.9289776999504,,,,,,,,,391.9154870000202,392.278690099949,393.078370800009,393.0624538999982,393.0624877000228,393.078370800009,393.078370800009,393.078370800009,,395.99446800001897,left,1.0,31.814630300039425,,,,,,,,,,,,,,,,,,,,,,,,,,,,,,sub-033,1.0,random_dot,59.807682400279056,
right,right,accuracy,,,,,0.0,0.0,0.0,0.0,13.0,1.0,27.0,1.0,396.0089716999792,,,,,,,,,395.9958794999402,396.8084023001138,397.6080120999832,397.5922069998924,397.5922381000128,397.6080120999832,397.6080120999832,397.6080120999832,402.6037020999938,403.07126810005866,right,1.0,34.352021700236946,,,,,,,,,,,,,,,,,,,,,,,,,,,,,,sub-033,1.0,random_dot,59.807682400279056,
left,left,accuracy,,,,,0.0,0.0,0.0,0.0,14.0,0.0,28.0,0.0,403.0864196000621,,,,,,,,,403.07228490011767,403.1865989000071,403.9860189999454,403.97018419997767,403.9702121999581,403.9860189999454,403.9860189999454,403.9860189999454,,408.9001645001117,left,1.0,33.805806500138715,,,,,,,,,,,,,,,,,,,,,,,,,,,,,,sub-033,1.0,random_dot,59.807682400279056,
right,right,accuracy,,,,,0.0,0.0,0.0,0.0,14.0,1.0,29.0,1.0,408.9150205999613,,,,,,,,,408.9012378999032,409.7145191999152,410.5141207000706,410.4978837000672,410.4979103999213,410.5141207000706,410.5141207000706,410.5141207000706,,414.6452182000503,right,1.0,33.02889180020429,,,,,,,,,,,,,,,,,,,,,,,,,,,,,,sub-033,1.0,random_dot,59.807682400279056,
right,right,accuracy,,,,,0.0,0.0,0.0,0.0,15.0,0.0,30.0,1.0,414.6603578999639,,,,,,,,,414.6460718000308,414.7606707001105,415.56016539991833,415.5439224999864,415.5439816999715,415.56016539991833,415.56016539991833,415.56016539991833,420.5555505999364,420.906962200068,right,1.0,34.24704830022529,,,,,,,,,,,,,,,,,,,,,,,,,,,,,,sub-033,1.0,random_dot,59.807682400279056,
left,left,accuracy,,,,,0.0,0.0,0.0,0.0,15.0,1.0,31.0,0.0,420.9218164999038,,,,,,,,,420.9078055000864,421.0217075000983,421.8216848999728,421.80553100002,421.8055761998985,421.8216848999728,421.8216848999728,421.8216848999728,,425.8523887000047,left,1.0,32.93024590006098,,,,,,,,,,,,,,,,,,,,,,,,,,,,,,sub-033,1.0,random_dot,59.807682400279056,
left,left,accuracy,,,,,0.0,0.0,0.0,0.0,16.0,0.0,32.0,0.0,425.8676384000573,,,,,,,,,425.8530363999307,427.0670149999205,427.8666749000549,427.8503817000892,427.8504073999357,427.8666749000549,427.8666749000549,427.8666749000549,,431.8644522000104,left,1.0,32.891337499953806,,,,,,,,,,,,,,,,,,,,,,,,,,,,,,sub-033,1.0,random_dot,59.807682400279056,
right,right,accuracy,,,,,0.0,0.0,0.0,0.0,16.0,1.0,33.0,1.0,431.87924679997377,,,,,,,,,431.8654237999581,432.2292168999557,433.0285666000564,433.0127610999625,433.01278380001895,433.0285666000564,433.0285666000564,433.0285666000564,,436.6270657000132,right,1.0,32.486079700058326,,,,,,,,,,,,,,,,,,,,,,,,,,,,,,sub-033,1.0,random_dot,59.807682400279056,
right,right,accuracy,,,,,0.0,0.0,0.0,0.0,17.0,0.0,34.0,1.0,436.642114700051,,,,,,,,,436.62821889994666,437.8410066999495,438.6411629000213,438.6247920999304,438.6248349000234,438.6411629000213,438.6411629000213,438.6411629000213,,442.638834200101,right,1.0,32.88815760007128,,,,,,,,,,,,,,,,,,,,,,,,,,,,,,sub-033,1.0,random_dot,59.807682400279056,
left,left,accuracy,,,,,0.0,0.0,0.0,0.0,17.0,1.0,35.0,0.0,442.6541387999896,,,,,,,,,442.6396620001178,442.7541583999992,443.55360969994217,443.53756930003874,443.5375948001165,443.55360969994217,443.55360969994217,443.55360969994217,,446.5688571999781,left,1.0,31.912925300188363,,,,,,,,,,,,,,,,,,,,,,,,,,,,,,sub-033,1.0,random_dot,59.807682400279056,
right,right,accuracy,,,,,0.0,0.0,0.0,0.0,18.0,0.0,36.0,1.0,446.5838248999789,,,,,,,,,446.5699100000784,447.3835475000087,448.1831513000652,448.1671158000827,448.1671498001088,448.1831513000652,448.1831513000652,448.1831513000652,,451.0320989999455,right,1.0,31.73666970012709,,,,,,,,,,,,,,,,,,,,,,,,,,,,,,sub-033,1.0,random_dot,59.807682400279056,
left,left,accuracy,,,,,0.0,0.0,0.0,0.0,18.0,1.0,37.0,0.0,451.0470354999416,,,,,,,,,451.03304879996,451.8465553999413,452.6461124999914,452.6300149001181,452.6300492999144,452.6461124999914,452.6461124999914,452.6461124999914,,456.1277286999393,left,1.0,32.369251700118184,,,,,,,,,,,,,,,,,,,,,,,,,,,,,,sub-033,1.0,random_dot,59.807682400279056,
right,right,accuracy,,,,,0.0,0.0,0.0,0.0,19.0,0.0,38.0,1.0,456.1427778999787,,,,,,,,,456.1284336000681,457.3418775999453,458.1415128998924,458.1253643000964,458.1253861999139,458.1415128998924,458.1415128998924,458.1415128998924,,460.3583418999333,right,1.0,31.119045100174844,,,,,,,,,,,,,,,,,,,,,,,,,,,,,,sub-033,1.0,random_dot,59.807682400279056,
left,left,accuracy,,,,,0.0,0.0,0.0,0.0,19.0,1.0,39.0,0.0,460.3726772998925,,,,,,,,,460.35942120011896,461.1720207999461,461.97178480005823,461.9556815000251,461.9557101000101,461.97178480005823,461.97178480005823,461.97178480005823,,464.6874913999345,left,1.0,31.60309510002844,,,,,,,,,,,,,,,,,,,,,,,,,,,,,,sub-033,1.0,random_dot,59.807682400279056,
right,right,accuracy,,,,,0.0,0.0,0.0,0.0,20.0,0.0,40.0,1.0,464.7022853998933,,,,,,,,,464.68869569990784,464.8023226999212,465.6019566000905,465.5859008999541,465.5859296999406,465.6019566000905,465.6019566000905,465.6019566000905,,469.8993395001162,right,1.0,33.19714030018076,,,,,,,,,,,,,,,,,,,,,,,,,,,,,,sub-033,1.0,random_dot,59.807682400279056,
left,left,accuracy,,,,,0.0,0.0,0.0,0.0,20.0,1.0,41.0,0.0,469.9147544000298,,,,,,,,,469.9004067000933,470.0148386999499,470.81455260002986,470.7989272999112,470.7989813000895,470.81455260002986,470.81455260002986,470.81455260002986,,473.77962170005776,left,1.0,31.85484219994396,,,,,,,,,,,,,,,,,,,,,,,,,,,,,,sub-033,1.0,random_dot,59.807682400279056,
right,right,accuracy,,,,,0.0,0.0,0.0,0.0,21.0,0.0,42.0,1.0,473.7947434999514,,,,,,,,,473.78076010011137,473.8949055999983,474.6944114000071,474.67818109993823,474.6782064998988,474.6944114000071,474.6944114000071,474.6944114000071,,477.5600904999301,right,1.0,31.75569269992411,,,,,,,,,,,,,,,,,,,,,,,,,,,,,,sub-033,1.0,random_dot,59.807682400279056,
left,left,accuracy,,,,,0.0,0.0,0.0,0.0,21.0,1.0,43.0,0.0,477.5751553000882,,,,,,,,,477.5609997001011,477.6752166000661,478.4752108999528,478.4585414000321,478.4585659001023,478.4752108999528,478.4752108999528,478.4752108999528,,482.5066408000421,right,0.0,32.92160840006545,,,,,,,,,,,,,,,,,,,,,,,,,,,,,,sub-033,1.0,random_dot,59.807682400279056,
left,left,accuracy,,,,,0.0,0.0,0.0,0.0,22.0,0.0,44.0,0.0,482.5211062999442,,,,,,,,,482.5079866999295,483.7204396999441,484.5364357000217,484.5203434999567,484.52037849999033,484.5364357000217,484.5364357000217,484.5364357000217,,487.5022869999521,left,1.0,31.856734700035304,,,,,,,,,,,,,,,,,,,,,,,,,,,,,,sub-033,1.0,random_dot,59.807682400279056,
right,right,accuracy,,,,,0.0,0.0,0.0,0.0,22.0,1.0,45.0,1.0,487.5168884000741,,,,,,,,,487.503470600117,487.8666803000961,488.6663470999338,488.6503979000263,488.6504309000448,488.6663470999338,488.6663470999338,488.6663470999338,,492.5976621001028,right,1.0,32.822934000287205,,,,,,,,,,,,,,,,,,,,,,,,,,,,,,sub-033,1.0,random_dot,59.807682400279056,
right,right,accuracy,,,,,0.0,0.0,0.0,0.0,23.0,0.0,46.0,1.0,492.6126808000263,,,,,,,,,492.5985004999675,492.9625627999194,493.7621830999851,493.7461536999326,493.7461798000149,493.7621830999851,493.7621830999851,493.7621830999851,498.7581287999637,498.7935172000434,right,1.0,33.93188350019045,,,,,,,,,,,,,,,,,,,,,,,,,,,,,,sub-033,1.0,random_dot,59.807682400279056,
left,left,accuracy,,,,,0.0,0.0,0.0,0.0,23.0,1.0,47.0,0.0,498.80795089993626,,,,,,,,,498.79468469996937,499.60671780002303,500.40671689994633,500.3906221999787,500.3906533999834,500.40671689994633,500.40671689994633,500.40671689994633,505.4025516998954,505.8545359000564,left,1.0,34.34963020030409,,,,,,,,,,,,,,,,,,,,,,,,,,,,,,sub-033,1.0,random_dot,59.807682400279056,
left,left,accuracy,,,,,0.0,0.0,0.0,0.0,24.0,0.0,48.0,0.0,505.8684594000224,,,,,,,,,505.8557192001026,507.0675003000069,507.8675385999959,507.8513807000127,507.85141470003873,507.8675385999959,507.8675385999959,507.8675385999959,,512.1651530000381,right,0.0,33.186931900214404,,,,,,,,,,,,,,,,,,,,,,,,,,,,,,sub-033,1.0,random_dot,59.807682400279056,
right,right,accuracy,,,,,0.0,0.0,0.0,0.0,24.0,1.0,49.0,1.0,512.1799260000698,,,,,,,,,512.1661920999177,512.5299231000245,513.3295551999472,513.3134357000235,513.3134655000176,513.3295551999472,513.3295551999472,513.3295551999472,518.3252210998908,518.3771488999482,right,1.0,33.94933550013229,,,,,,,,,,,,,,,,,,,,,,,,,,,,,,sub-033,1.0,random_dot,59.807682400279056,
right,right,accuracy,,,,,0.0,0.0,0.0,0.0,25.0,0.0,50.0,1.0,518.3915033000521,,,,,,,,,518.3783247999381,519.5908814999275,520.3904268001206,520.3745933999307,520.3746209999081,520.3904268001206,520.3904268001206,520.3904268001206,,525.3377255999949,left,0.0,33.84449190017767,,,,,,,,,,,,,,,,,,,,,,,,,,,,,,sub-033,1.0,random_dot,59.807682400279056,
left,left,accuracy,,,,,0.0,0.0,0.0,0.0,25.0,1.0,51.0,0.0,525.352506400086,,,,,,,,,525.3390452000313,525.4525433999952,526.2520880999509,526.2359688000288,526.2359915999696,526.2520880999509,526.2520880999509,526.2520880999509,,530.6833116998896,right,0.0,33.32494640024379,,,,,,,,,,,,,,,,,,,,,,,,,,,,,,sub-033,1.0,random_dot,59.807682400279056,
left,left,accuracy,,,,,0.0,0.0,0.0,0.0,26.0,0.0,52.0,0.0,530.6980320999864,,,,,,,,,530.6844146000221,530.7983335999306,531.5981074001174,531.5818857999984,531.5819180000108,531.5981074001174,531.5981074001174,531.5981074001174,,536.1782605000772,right,0.0,33.47829380026087,,,,,,,,,,,,,,,,,,,,,,,,,,,,,,sub-033,1.0,random_dot,59.807682400279056,
right,right,accuracy,,,,,0.0,0.0,0.0,0.0,26.0,1.0,53.0,1.0,536.1937027999666,,,,,,,,,536.1791832000017,536.99269250012,537.7926227999851,537.7772454000078,537.7772766000126,537.7926227999851,537.7926227999851,537.7926227999851,,541.6409575999714,right,1.0,32.74387020012364,,,,,,,,,,,,,,,,,,,,,,,,,,,,,,sub-033,1.0,random_dot,59.807682400279056,
right,right,accuracy,,,,,0.0,0.0,0.0,0.0,27.0,0.0,54.0,1.0,541.6558385998942,,,,,,,,,541.6422421000898,541.7557063000277,542.5552733999211,542.5392917999998,542.5393173999619,542.5552733999211,542.5552733999211,542.5552733999211,547.5513500999659,547.7531262000557,left,0.0,34.0904653002508,,,,,,,,,,,,,,,,,,,,,,,,,,,,,,sub-033,1.0,random_dot,59.807682400279056,
left,left,accuracy,,,,,0.0,0.0,0.0,0.0,27.0,1.0,55.0,0.0,547.7673784000799,,,,,,,,,547.7546862999443,548.1179762999527,548.9331773999147,548.9174997000955,548.9175303000957,548.9331773999147,548.9331773999147,548.9331773999147,,553.8317547000479,left,1.0,33.80040220008232,,,,,,,,,,,,,,,,,,,,,,,,,,,,,,sub-033,1.0,random_dot,59.807682400279056,
right,right,accuracy,,,,,0.0,0.0,0.0,0.0,28.0,0.0,56.0,1.0,553.8456826999318,,,,,,,,,553.8330488000065,553.9455913000274,554.7456012999173,554.729755599983,554.7297988000792,554.7456012999173,554.7456012999173,554.7456012999173,,555.9290316000115,right,1.0,30.07768280012533,,,,,,,,,,,,,,,,,,,,,,,,,,,,,,sub-033,1.0,random_dot,59.807682400279056,
left,left,accuracy,,,,,0.0,0.0,0.0,0.0,28.0,1.0,57.0,0.0,555.9441136999521,,,,,,,,,555.9298682000954,556.7431479999796,557.5429541999474,557.5271185999736,557.5271513001062,557.5429541999474,557.5429541999474,557.5429541999474,,560.5421412999276,left,1.0,31.900060900021344,,,,,,,,,,,,,,,,,,,,,,,,,,,,,,sub-033,1.0,random_dot,59.807682400279056,
left,left,accuracy,,,,,0.0,0.0,0.0,0.0,29.0,0.0,58.0,0.0,560.5568536999635,,,,,,,,,560.5430405000225,560.6568122000899,561.4564173999242,561.4405710999854,561.4406026999932,561.4564173999242,561.4564173999242,561.4564173999242,,565.0884569999762,left,1.0,32.52429260010831,,,,,,,,,,,,,,,,,,,,,,,,,,,,,,sub-033,1.0,random_dot,59.807682400279056,
right,right,accuracy,,,,,0.0,0.0,0.0,0.0,29.0,1.0,59.0,1.0,565.1030558999628,,,,,,,,,565.0898134000599,566.3021362000145,567.1014596999157,567.0856310999952,567.0856790998951,567.1014596999157,567.1014596999157,567.1014596999157,,568.5689119999297,right,1.0,30.359771500108764,,,,,,,,,,,,,,,,,,,,,,,,,,,,,,sub-033,1.0,random_dot,59.807682400279056,
,,accuracy,,,,,0.0,0.0,0.0,0.0,,,,,,,,,,,,,,,,,,,,,,,,,,,,,,,,,,,,,,,,,,,,,,,,,,,,,,,,sub-033,1.0,random_dot,59.807682400279056,
left,left,speed,,,,,0.0,1.0,1.0,1.0,0.0,0.0,0.0,0.0,570.7319620000198,,,,,,,,,570.7242686999962,571.0816999999806,571.8812188999727,571.865402800031,571.8654320000205,571.8812188999727,571.8812188999727,571.8812188999727,,573.6990223000757,left,1.0,30.71852270024829,,,,,,,,,,,,,,,,,,,,568.5698331000749,568.5833934999537,568.5833934999537,570.7165665999055,space,31.03168120002374,,,,,sub-033,1.0,random_dot,59.807682400279056,
right,right,speed,,,,,0.0,1.0,1.0,1.0,0.0,1.0,1.0,1.0,573.7127169999294,,,,,,,,,573.7007901000325,574.0624001000542,574.862398599973,574.8463880000636,574.8464295000304,574.862398599973,574.862398599973,574.862398599973,,575.929235199932,right,1.0,29.96401990018785,,,,,,,,,,,,,,,,,,,,,,,,,,,,,,sub-033,1.0,random_dot,59.807682400279056,
right,right,speed,,,,,0.0,1.0,1.0,1.0,1.0,0.0,2.0,1.0,575.9442302000243,,,,,,,,,575.9303504999261,576.2940513999201,577.0935931999702,577.0775641999207,577.0775969000533,577.0935931999702,577.0935931999702,577.0935931999702,,578.4440951999277,right,1.0,30.241972600109875,,,,,,,,,,,,,,,,,,,,,,,,,,,,,,sub-033,1.0,random_dot,59.807682400279056,
left,left,speed,,,,,0.0,1.0,1.0,1.0,1.0,1.0,3.0,0.0,578.4583984001074,,,,,,,,,578.4456464999821,578.5588376000524,579.3584924999159,579.3424287000671,579.3424595000688,579.3584924999159,579.3584924999159,579.3584924999159,,580.9251202999149,left,1.0,30.46268490026705,,,,,,,,,,,,,,,,,,,,,,,,,,,,,,sub-033,1.0,random_dot,59.807682400279056,
left,left,speed,,,,,0.0,1.0,1.0,1.0,2.0,0.0,4.0,0.0,580.9399776998907,,,,,,,,,580.9259184999391,581.7395198000595,582.5386914000846,582.5231157001108,582.5231409000698,582.5386914000846,582.5386914000846,582.5386914000846,,584.0732901999727,left,1.0,30.428872799966484,,,,,,,,,,,,,,,,,,,,,,,,,,,,,,sub-033,1.0,random_dot,59.807682400279056,
right,right,speed,,,,,0.0,1.0,1.0,1.0,2.0,1.0,5.0,1.0,584.0874081999063,,,,,,,,,584.0749788999092,584.1878404999152,584.9870396000333,584.9711243999191,584.9711535000242,584.9870396000333,584.9870396000333,584.9870396000333,,586.5040315000806,right,1.0,30.40726220002398,,,,,,,,,,,,,,,,,,,,,,,,,,,,,,sub-033,1.0,random_dot,59.807682400279056,
right,right,speed,,,,,0.0,1.0,1.0,1.0,3.0,0.0,6.0,1.0,586.5187939999159,,,,,,,,,586.505222100066,586.8687944000121,587.6684187001083,587.6524434001185,587.6525069999043,587.6684187001083,587.6684187001083,587.6684187001083,,589.9171891000587,right,1.0,31.145879700081423,,,,,,,,,,,,,,,,,,,,,,,,,,,,,,sub-033,1.0,random_dot,59.807682400279056,
left,left,speed,,,,,0.0,1.0,1.0,1.0,3.0,1.0,7.0,0.0,589.9326468999498,,,,,,,,,589.9179815999232,590.7317349999212,591.5317623000592,591.5157584000845,591.5157912999857,591.5317623000592,591.5317623000592,591.5317623000592,,593.1485427999869,left,1.0,30.509833600139245,,,,,,,,,,,,,,,,,,,,,,,,,,,,,,sub-033,1.0,random_dot,59.807682400279056,
right,right,speed,,,,,0.0,1.0,1.0,1.0,4.0,0.0,8.0,1.0,593.1634623000864,,,,,,,,,593.1498511000536,593.2631055999082,594.0628061001189,594.0466416999698,594.0466680000536,594.0628061001189,594.0628061001189,594.0628061001189,,595.6295652999543,right,1.0,30.46068730019033,,,,,,,,,,,,,,,,,,,,,,,,,,,,,,sub-033,1.0,random_dot,59.807682400279056,
left,left,speed,,,,,0.0,1.0,1.0,1.0,4.0,1.0,9.0,0.0,595.64458870003,,,,,,,,,595.6305682000238,595.7448030000087,596.5443279000465,596.5284367999993,596.5284730999265,596.5443279000465,596.5443279000465,596.5443279000465,,598.3103765998967,left,1.0,30.664977100212127,,,,,,,,,,,,,,,,,,,,,,,,,,,,,,sub-033,1.0,random_dot,59.807682400279056,
left,left,speed,,,,,0.0,1.0,1.0,1.0,5.0,0.0,10.0,0.0,598.3257309999317,,,,,,,,,598.3113307999447,599.1253325000871,599.9247379000299,599.9088095000479,599.9088427000679,599.9247379000299,599.9247379000299,599.9247379000299,,600.9420567001216,left,1.0,29.904768700245768,,,,,,,,,,,,,,,,,,,,,,,,,,,,,,sub-033,1.0,random_dot,59.807682400279056,
right,right,speed,,,,,0.0,1.0,1.0,1.0,5.0,1.0,11.0,1.0,600.9567911999766,,,,,,,,,600.9432516000234,601.3066004998982,602.1064387001097,602.0901838999707,602.0902176999953,602.1064387001097,602.1064387001097,602.1064387001097,,602.9573210000526,right,1.0,29.744797800201923,,,,,,,,,,,,,,,,,,,,,,,,,,,,,,sub-033,1.0,random_dot,59.807682400279056,
right,right,speed,,,,,0.0,1.0,1.0,1.0,6.0,0.0,12.0,1.0,602.9720751999412,,,,,,,,,602.9585373001173,603.3222024000715,604.1380195000675,604.1222085000481,604.1222449999768,604.1380195000675,604.1380195000675,604.1380195000675,,605.3875267000403,right,1.0,30.14532940019853,,,,,,,,,,,,,,,,,,,,,,,,,,,,,,sub-033,1.0,random_dot,59.807682400279056,
left,left,speed,,,,,0.0,1.0,1.0,1.0,6.0,1.0,13.0,0.0,605.4032686001156,,,,,,,,,605.3882915999275,606.6024652000051,607.4022421000991,607.3860569000244,607.3860846001189,607.4022421000991,607.4022421000991,607.4022421000991,,608.4860745000187,left,1.0,29.972271900158376,,,,,,,,,,,,,,,,,,,,,,,,,,,,,,sub-033,1.0,random_dot,59.807682400279056,
left,left,speed,,,,,0.0,1.0,1.0,1.0,7.0,0.0,14.0,0.0,608.500756500056,,,,,,,,,608.4871284998953,609.6996782000642,610.4993948000483,610.4835077000316,610.4835403999314,610.4993948000483,610.4993948000483,610.4993948000483,,611.5003160000779,left,1.0,29.893632400082424,,,,,,,,,,,,,,,,,,,,,,,,,,,,,,sub-033,1.0,random_dot,59.807682400279056,
right,right,speed,,,,,0.0,1.0,1.0,1.0,7.0,1.0,15.0,1.0,611.5149757000618,,,,,,,,,611.5017870001029,612.7137251999229,613.5136893999297,613.4974972000346,613.4975328000728,613.5136893999297,613.5136893999297,613.5136893999297,,614.5302903000265,right,1.0,29.91165590006858,,,,,,,,,,,,,,,,,,,,,,,,,,,,,,sub-033,1.0,random_dot,59.807682400279056,
left,left,speed,,,,,0.0,1.0,1.0,1.0,8.0,0.0,16.0,0.0,614.5456340000965,,,,,,,,,614.5311718999874,614.6456293999217,615.4454449000768,615.4291809001006,615.4292105000932,615.4454449000768,615.4454449000768,615.4454449000768,,616.8460256000981,left,1.0,30.28989210003056,,,,,,,,,,,,,,,,,,,,,,,,,,,,,,sub-033,1.0,random_dot,59.807682400279056,
right,right,speed,,,,,0.0,1.0,1.0,1.0,8.0,1.0,17.0,1.0,616.8602666999213,,,,,,,,,616.8474510000087,616.9601269999985,617.760223899968,617.7440752000548,617.7441384999547,617.760223899968,617.760223899968,617.760223899968,,618.5439200999681,right,1.0,29.67893789988011,,,,,,,,,,,,,,,,,,,,,,,,,,,,,,sub-033,1.0,random_dot,59.807682400279056,
right,right,speed,,,,,0.0,1.0,1.0,1.0,9.0,0.0,18.0,1.0,618.5589195999783,,,,,,,,,618.5446619000286,619.3583623000886,620.158272099914,620.1420324000064,620.142061999999,620.158272099914,620.158272099914,620.158272099914,,621.0590001998935,right,1.0,29.791010500164703,,,,,,,,,,,,,,,,,,,,,,,,,,,,,,sub-033,1.0,random_dot,59.807682400279056,
left,left,speed,,,,,0.0,1.0,1.0,1.0,9.0,1.0,19.0,0.0,621.0734441000968,,,,,,,,,621.060133599909,621.8729540000204,622.6728187000845,622.6569000999443,622.6569274999201,622.6728187000845,622.6728187000845,622.6728187000845,,623.4572038000915,left,1.0,29.68383580003865,,,,,,,,,,,,,,,,,,,,,,,,,,,,,,sub-033,1.0,random_dot,59.807682400279056,
right,right,speed,,,,,0.0,1.0,1.0,1.0,10.0,0.0,20.0,1.0,623.471846499946,,,,,,,,,623.4585790999699,624.2713190000504,625.070828899974,625.054799699923,625.0548322999384,625.070828899974,625.070828899974,625.070828899974,,626.1386259999126,right,1.0,29.96915250015445,,,,,,,,,,,,,,,,,,,,,,,,,,,,,,sub-033,1.0,random_dot,59.807682400279056,
left,left,speed,,,,,0.0,1.0,1.0,1.0,10.0,1.0,21.0,0.0,626.1528853999916,,,,,,,,,626.1393919999246,626.9523839999456,627.7520055000205,627.7363917001057,627.7364229999948,627.7520055000205,627.7520055000205,627.7520055000205,,628.8188738999888,left,1.0,29.95976080023684,,,,,,,,,,,,,,,,,,,,,,,,,,,,,,sub-033,1.0,random_dot,59.807682400279056,
left,left,speed,,,,,0.0,1.0,1.0,1.0,11.0,0.0,22.0,0.0,628.8340018999297,,,,,,,,,628.819778899895,630.0331896999851,630.832801300101,630.8168470999226,630.816879699938,630.832801300101,630.832801300101,630.832801300101,,631.8172822999768,left,1.0,29.884346400154755,,,,,,,,,,,,,,,,,,,,,,,,,,,,,,sub-033,1.0,random_dot,59.807682400279056,
right,right,speed,,,,,0.0,1.0,1.0,1.0,11.0,1.0,23.0,1.0,631.8314650000539,,,,,,,,,631.8184829000384,633.0304932999425,633.8302931999788,633.8143694000319,633.8144044000655,633.8302931999788,633.8302931999788,633.8302931999788,,634.8473755000159,right,1.0,29.904967800015584,,,,,,,,,,,,,,,,,,,,,,,,,,,,,,sub-033,1.0,random_dot,59.807682400279056,
right,right,speed,,,,,0.0,1.0,1.0,1.0,12.0,0.0,24.0,1.0,634.8624420999549,,,,,,,,,634.8486123001203,636.0616150998976,636.8776646000333,636.8614505999722,636.8614777999464,636.8776646000333,636.8776646000333,636.8776646000333,,637.6446418999694,right,1.0,29.66006010002457,,,,,,,,,,,,,,,,,,,,,,,,,,,,,,sub-033,1.0,random_dot,59.807682400279056,
left,left,speed,,,,,0.0,1.0,1.0,1.0,12.0,1.0,25.0,0.0,637.6598499000538,,,,,,,,,637.6460094999056,637.7599792000838,638.5596010000445,638.5437433000188,638.5437761999201,638.5596010000445,638.5596010000445,638.5596010000445,,639.4602161000948,left,1.0,29.796930800192055,,,,,,,,,,,,,,,,,,,,,,,,,,,,,,sub-033,1.0,random_dot,59.807682400279056,
right,right,speed,,,,,0.0,1.0,1.0,1.0,13.0,0.0,26.0,1.0,639.4751289000269,,,,,,,,,639.4610633000266,640.6741072000004,641.4738719000015,641.4579545001034,641.4579892000183,641.4738719000015,641.4738719000015,641.4738719000015,,642.2916576999705,right,1.0,29.71772910002619,,,,,,,,,,,,,,,,,,,,,,,,,,,,,,sub-033,1.0,random_dot,59.807682400279056,
left,left,speed,,,,,0.0,1.0,1.0,1.0,13.0,1.0,27.0,0.0,642.3060320001096,,,,,,,,,642.2927111999597,643.5053932000883,644.3052149999421,644.2891116000246,644.2891474999487,644.3052149999421,644.3052149999421,644.3052149999421,,645.3218783999328,left,1.0,29.913647799985483,,,,,,,,,,,,,,,,,,,,,,,,,,,,,,sub-033,1.0,random_dot,59.807682400279056,
right,right,speed,,,,,0.0,1.0,1.0,1.0,14.0,0.0,28.0,1.0,645.3370642999653,,,,,,,,,645.3228492999915,646.5361200999469,647.3357762000524,647.3199714999646,647.3200036000926,647.3357762000524,647.3357762000524,647.3357762000524,,648.2031513000838,right,1.0,29.76164780021645,,,,,,,,,,,,,,,,,,,,,,,,,,,,,,sub-033,1.0,random_dot,59.807682400279056,
left,left,speed,,,,,0.0,1.0,1.0,1.0,14.0,1.0,29.0,0.0,648.2181108999066,,,,,,,,,648.204205499962,649.017303199973,649.8172220999841,649.8009498000611,649.8009764000308,649.8172220999841,649.8172220999841,649.8172220999841,,650.8006396000274,left,1.0,29.876332000130787,,,,,,,,,,,,,,,,,,,,,,,,,,,,,,sub-033,1.0,random_dot,59.807682400279056,
right,right,speed,,,,,0.0,1.0,1.0,1.0,15.0,0.0,30.0,1.0,650.8157162000425,,,,,,,,,650.8015354000963,650.9158820000011,651.7157906000502,651.6992385999765,651.6992689999752,651.7157906000502,651.7157906000502,651.7157906000502,,652.8998535999563,right,1.0,30.086183100007474,,,,,,,,,,,,,,,,,,,,,,,,,,,,,,sub-033,1.0,random_dot,59.807682400279056,
left,left,speed,,,,,0.0,1.0,1.0,1.0,15.0,1.0,31.0,0.0,652.9140661999118,,,,,,,,,652.9009871999733,653.2639343999326,654.0635106998961,654.0475236999337,654.0475522000343,654.0635106998961,654.0635106998961,654.0635106998961,,656.2461542000528,left,1.0,31.070202599978074,,,,,,,,,,,,,,,,,,,,,,,,,,,,,,sub-033,1.0,random_dot,59.807682400279056,
left,left,speed,,,,,0.0,1.0,1.0,1.0,16.0,0.0,32.0,0.0,656.2614331999794,,,,,,,,,656.2468989999034,657.0606700000353,657.8602587000933,657.8449373000767,657.8449891998898,657.8602587000933,657.8602587000933,657.8602587000933,,661.2266166000627,left,1.0,32.2682840002235,,,,,,,,,,,,,,,,,,,,,,,,,,,,,,sub-033,1.0,random_dot,59.807682400279056,
right,right,speed,,,,,0.0,1.0,1.0,1.0,16.0,1.0,33.0,1.0,661.2405342999846,,,,,,,,,661.2278454001062,661.5902303999756,662.3899350001011,662.3741035999265,662.3741325000301,662.3899350001011,662.3899350001011,662.3899350001011,,665.6559379999526,right,1.0,32.167489300016314,,,,,,,,,,,,,,,,,,,,,,,,,,,,,,sub-033,1.0,random_dot,59.807682400279056,
right,right,speed,,,,,0.0,1.0,1.0,1.0,17.0,0.0,34.0,1.0,665.6703703000676,,,,,,,,,665.6569606000558,666.4695802999195,667.2694484000094,667.2532466000412,667.2532810000703,667.2694484000094,667.2694484000094,667.2694484000094,,672.0171545001213,right,1.0,33.64762130007148,,,,,,,,,,,,,,,,,,,,,,,,,,,,,,sub-033,1.0,random_dot,59.807682400279056,
left,left,speed,,,,,0.0,1.0,1.0,1.0,17.0,1.0,35.0,0.0,672.0321227000095,,,,,,,,,672.0183272999711,673.2308402000926,674.0305002001114,674.0145022999495,674.0145350999665,674.0305002001114,674.0305002001114,674.0305002001114,,675.263999799965,left,1.0,30.121739400085065,,,,,,,,,,,,,,,,,,,,,,,,,,,,,,sub-033,1.0,random_dot,59.807682400279056,
right,right,speed,,,,,0.0,1.0,1.0,1.0,18.0,0.0,36.0,1.0,675.2793558000121,,,,,,,,,675.2650967999361,675.3790839000139,676.1788777001202,676.16267469991,676.1627066999208,676.1788777001202,676.1788777001202,676.1788777001202,,677.1461436999962,right,1.0,29.86170190013945,,,,,,,,,,,,,,,,,,,,,,,,,,,,,,sub-033,1.0,random_dot,59.807682400279056,
left,left,speed,,,,,0.0,1.0,1.0,1.0,18.0,1.0,37.0,0.0,677.1608986000065,,,,,,,,,677.1476382999681,677.5106005000416,678.3102502000984,678.2941393000074,678.2941713999026,678.3102502000984,678.3102502000984,678.3102502000984,,679.3106810001191,left,1.0,29.89138200017624,,,,,,,,,,,,,,,,,,,,,,,,,,,,,,sub-033,1.0,random_dot,59.807682400279056,
left,left,speed,,,,,0.0,1.0,1.0,1.0,19.0,0.0,38.0,0.0,679.3258682999294,,,,,,,,,679.3115668999963,680.524816500023,681.3244256000035,681.3086218999233,681.3086552000605,681.3244256000035,681.3244256000035,681.3244256000035,,682.2248424000572,left,1.0,29.79552279994823,,,,,,,,,,,,,,,,,,,,,,,,,,,,,,sub-033,1.0,random_dot,59.807682400279056,
right,right,speed,,,,,0.0,1.0,1.0,1.0,19.0,1.0,39.0,1.0,682.2399452000391,,,,,,,,,682.2259635999799,683.4393047001213,684.238827199908,684.2228822000325,684.2229110999033,684.238827199908,684.238827199908,684.238827199908,,685.4221445999574,right,1.0,30.072392200119797,,,,,,,,,,,,,,,,,,,,,,,,,,,,,,sub-033,1.0,random_dot,59.807682400279056,
left,left,speed,,,,,0.0,1.0,1.0,1.0,20.0,0.0,40.0,0.0,685.437230499927,,,,,,,,,685.4230959999841,686.236727999989,687.0366309999954,687.0204801000655,687.0205063999165,687.0366309999954,687.0366309999954,687.0366309999954,,688.1372456999961,left,1.0,29.9937221002765,,,,,,,,,,,,,,,,,,,,,,,,,,,,,,sub-033,1.0,random_dot,59.807682400279056,
right,right,speed,,,,,0.0,1.0,1.0,1.0,20.0,1.0,41.0,1.0,688.152031299891,,,,,,,,,688.1385580999777,688.5019459000323,689.3010819000192,689.2851583000738,689.2852018999401,689.3010819000192,689.3010819000192,689.3010819000192,,693.1491582000162,left,0.0,32.74542900011875,,,,,,,,,,,,,,,,,,,,,,,,,,,,,,sub-033,1.0,random_dot,59.807682400279056,
right,right,speed,,,,,0.0,1.0,1.0,1.0,21.0,0.0,42.0,1.0,693.1641879999079,,,,,,,,,693.1501957001165,693.5139142000116,694.3137157000601,694.2977360999212,694.2977599001024,694.3137157000601,694.3137157000601,694.3137157000601,,697.8120895000175,left,0.0,32.39405670017004,,,,,,,,,,,,,,,,,,,,,,,,,,,,,,sub-033,1.0,random_dot,59.807682400279056,
left,left,speed,,,,,0.0,1.0,1.0,1.0,21.0,1.0,43.0,0.0,697.8269968000241,,,,,,,,,697.8131228000857,698.6264251000248,699.4262367999181,699.4099779000971,699.4100005000364,699.4262367999181,699.4262367999181,699.4262367999181,,700.6770095000975,left,1.0,30.138560900231823,,,,,,,,,,,,,,,,,,,,,,,,,,,,,,sub-033,1.0,random_dot,59.807682400279056,
right,right,speed,,,,,0.0,1.0,1.0,1.0,22.0,0.0,44.0,1.0,700.6919438999612,,,,,,,,,700.6785327000543,700.7912351000123,701.5911123000551,701.5749288001098,701.5749576000962,701.5911123000551,701.5911123000551,701.5911123000551,,702.4583606000524,right,1.0,29.75676629994996,,,,,,,,,,,,,,,,,,,,,,,,,,,,,,sub-033,1.0,random_dot,59.807682400279056,
left,left,speed,,,,,0.0,1.0,1.0,1.0,22.0,1.0,45.0,0.0,702.473375499947,,,,,,,,,702.4598083999008,702.5733503000811,703.3729147999547,703.3568474999629,703.3568832001183,703.3729147999547,703.3729147999547,703.3729147999547,,704.5398500000592,left,1.0,30.055808200268075,,,,,,,,,,,,,,,,,,,,,,,,,,,,,,sub-033,1.0,random_dot,59.807682400279056,
left,left,speed,,,,,0.0,1.0,1.0,1.0,23.0,0.0,46.0,0.0,704.5551452999935,,,,,,,,,704.5412777001038,704.6550563999917,705.4714862999972,705.4548440999351,705.4548681001179,705.4714862999972,705.4714862999972,705.4714862999972,,709.038055999903,left,1.0,32.46775170019828,,,,,,,,,,,,,,,,,,,,,,,,,,,,,,sub-033,1.0,random_dot,59.807682400279056,
right,right,speed,,,,,0.0,1.0,1.0,1.0,23.0,1.0,47.0,1.0,709.0512528999243,,,,,,,,,709.0395023999736,709.400843600044,710.2008156001102,710.1846654999536,710.184692400042,710.2008156001102,710.2008156001102,710.2008156001102,,711.80076309992,right,1.0,30.49217709992081,,,,,,,,,,,,,,,,,,,,,,,,,,,,,,sub-033,1.0,random_dot,59.807682400279056,
left,left,speed,,,,,0.0,1.0,1.0,1.0,24.0,0.0,48.0,0.0,711.8157830000855,,,,,,,,,711.8016431999858,712.6152637000196,713.414602200035,713.3986347001046,713.3986667999998,713.414602200035,713.414602200035,713.414602200035,,714.482005200116,left,1.0,29.95581080019474,,,,,,,,,,,,,,,,,,,,,,,,,,,,,,sub-033,1.0,random_dot,59.807682400279056,
right,right,speed,,,,,0.0,1.0,1.0,1.0,24.0,1.0,49.0,1.0,714.4970182999969,,,,,,,,,714.4832989999559,714.5968174000736,715.3965841999743,715.3802108999807,715.3802386000752,715.3965841999743,715.3965841999743,715.3965841999743,,717.1299763999414,right,1.0,30.63554500020109,,,,,,,,,,,,,,,,,,,,,,,,,,,,,,sub-033,1.0,random_dot,59.807682400279056,
right,right,speed,,,,,0.0,1.0,1.0,1.0,25.0,0.0,50.0,1.0,717.1444757001009,,,,,,,,,717.1310839001089,717.9440035000443,718.7435788000003,718.727734599961,718.7277647000737,718.7435788000003,718.7435788000003,718.7435788000003,,720.0932605999988,left,0.0,30.24537190026604,,,,,,,,,,,,,,,,,,,,,,,,,,,,,,sub-033,1.0,random_dot,59.807682400279056,
left,left,speed,,,,,0.0,1.0,1.0,1.0,25.0,1.0,51.0,0.0,720.1087688000407,,,,,,,,,720.0940171000548,721.3078379000071,722.1073741998989,722.091598500032,722.091628999915,722.1073741998989,722.1073741998989,722.1073741998989,,723.1913684001192,left,1.0,29.982021500123665,,,,,,,,,,,,,,,,,,,,,,,,,,,,,,sub-033,1.0,random_dot,59.807682400279056,
left,left,speed,,,,,0.0,1.0,1.0,1.0,26.0,0.0,52.0,0.0,723.2061030999757,,,,,,,,,723.1923336000182,723.3062940000091,724.1059890999459,724.0897683000658,724.0898015000857,724.1059890999459,724.1059890999459,724.1059890999459,,726.1386541998945,left,1.0,30.92238950007595,,,,,,,,,,,,,,,,,,,,,,,,,,,,,,sub-033,1.0,random_dot,59.807682400279056,
right,right,speed,,,,,0.0,1.0,1.0,1.0,26.0,1.0,53.0,1.0,726.1539141000248,,,,,,,,,726.139519300079,726.5035852999426,727.3032484999858,727.2868812000379,727.2869092000183,727.3032484999858,727.3032484999858,727.3032484999858,,729.2354753001127,right,1.0,30.821078500244766,,,,,,,,,,,,,,,,,,,,,,,,,,,,,,sub-033,1.0,random_dot,59.807682400279056,
right,right,speed,,,,,0.0,1.0,1.0,1.0,27.0,0.0,54.0,1.0,729.2507229999173,,,,,,,,,729.2362462000456,730.449951400049,731.2499997001141,731.234207799891,731.2342379000038,731.2499997001141,731.2499997001141,731.2499997001141,,733.0506496999878,right,1.0,30.702734800055623,,,,,,,,,,,,,,,,,,,,,,,,,,,,,,sub-033,1.0,random_dot,59.807682400279056,
left,left,speed,,,,,0.0,1.0,1.0,1.0,27.0,1.0,55.0,0.0,733.064709899947,,,,,,,,,733.0513126000296,733.1646744001191,733.9644361999817,733.9484806999099,733.9485609000549,733.9644361999817,733.9644361999817,733.9644361999817,,735.2643961000722,left,1.0,30.18887230008841,,,,,,,,,,,,,,,,,,,,,,,,,,,,,,sub-033,1.0,random_dot,59.807682400279056,
right,right,speed,,,,,0.0,1.0,1.0,1.0,28.0,0.0,56.0,1.0,735.2794258000795,,,,,,,,,735.2654140999075,736.4786475999281,737.2784539998975,737.26242620009,737.2625339999795,737.2784539998975,737.2784539998975,737.2784539998975,,739.095732399961,right,1.0,30.7064644000493,,,,,,,,,,,,,,,,,,,,,,,,,,,,,,sub-033,1.0,random_dot,59.807682400279056,
left,left,speed,,,,,0.0,1.0,1.0,1.0,28.0,1.0,57.0,0.0,739.1100228000432,,,,,,,,,739.0972372998949,739.4597263000906,740.2594484000001,740.2431059998926,740.2431415000465,740.2594484000001,740.2594484000001,740.2594484000001,,741.577181099914,left,1.0,30.20924869994633,,,,,,,,,,,,,,,,,,,,,,,,,,,,,,sub-033,1.0,random_dot,59.807682400279056,
left,left,speed,,,,,0.0,1.0,1.0,1.0,29.0,0.0,58.0,0.0,741.5916104000062,,,,,,,,,741.5788968999404,742.3908104998991,743.1906508000102,743.1746249999851,743.1746612000279,743.1906508000102,743.1906508000102,743.1906508000102,,744.2915831999853,left,1.0,29.998972200090066,,,,,,,,,,,,,,,,,,,,,,,,,,,,,,sub-033,1.0,random_dot,59.807682400279056,
right,right,speed,,,,,0.0,1.0,1.0,1.0,29.0,1.0,59.0,1.0,744.305782899959,,,,,,,,,744.2927550999448,744.6555782998912,745.4555132999085,745.4392973000649,745.4393311999738,745.4555132999085,745.4555132999085,745.4555132999085,,746.95593070006,left,0.0,30.39239100017585,,,,,,,,,,,,,,,,,,,,,,,,,,,,,,sub-033,1.0,random_dot,59.807682400279056,
,,speed,,,,,0.0,1.0,1.0,1.0,,,,,,,,,,,,,,,,,,,,,,,,,,,,,,,,,,,,,,,,,,,,,,,,,,,,,,,,sub-033,1.0,random_dot,59.807682400279056,
,,,,,,,,,,,,,,,,,,,,,,,,,,,,,,,,,,,,,,,,,,,,,,,,,,,,,,,,,,,,,,,746.9569419999607,746.9704984999262,751.9662516999524,sub-033,,,,
