wordCTK,colorCTK,corrAnsCTK,congruentCTK,thisN,thisTrialN,thisRepN,keyResp_CTK.keys,keyResp_CTK.corr,keyResp_CTK.rt,keyResp_CTK.duration,wordPractice,colorPractice,corrAnsPractice,congruentPractice,respPractice.keys,respPractice.corr,respPractice.rt,respPractice.duration,word,color,corrAns,congruent,keyResp_test_run.keys,keyResp_test_run.corr,keyResp_test_run.rt,keyResp_test_run.duration,trials_CTK.thisRepN,trials_CTK.thisTrialN,trials_CTK.thisN,trials_CTK.thisIndex,trials_practice.thisRepN,trials_practice.thisTrialN,trials_practice.thisN,trials_practice.thisIndex,trials_test.thisRepN,trials_test.thisTrialN,trials_test.thisN,trials_test.thisIndex,thisRow.t,notes,instruction.started,instr_text.started,instr_image.started,instr_resp.started,instruction.stopped,instr_resp.keys,instr_resp.rt,instr_resp.duration,instr_color_to_key.started,instr_ctk.started,resp_ctk.started,instr_color_to_key.stopped,resp_ctk.keys,resp_ctk.rt,resp_ctk.duration,ITI.started,fixcross.started,fixcross.stopped,ITI.stopped,color_to_key_run.started,stimulus_CTK.started,keyResp_CTK.started,color_to_key_run.stopped,trials_CTK.keyResp_CTK.keys,trials_CTK.keyResp_CTK.corr,trials_CTK.keyResp_CTK.rt,trials_CTK.keyResp_CTK.duration,instr_practice.started,instr_practice_text.started,instr_practice_resp.started,instr_practice.stopped,instr_practice_resp.keys,instr_practice_resp.rt,instr_practice_resp.duration,practice_run.started,stimulus_practice.started,respPractice.started,practice_run.stopped,trials_practice.respPractice.keys,trials_practice.respPractice.corr,trials_practice.respPractice.rt,trials_practice.respPractice.duration,feedback.started,textFeedback.started,feedback.stopped,textFeedback.stopped,instr_test.started,instr_test_text.started,instr_test_resp.started,instr_test.stopped,instr_test_resp.keys,instr_test_resp.rt,instr_test_resp.duration,test_run.started,stimulus_test_run.started,keyResp_test_run.started,test_run.stopped,trials_test.keyResp_test_run.keys,trials_test.keyResp_test_run.corr,trials_test.keyResp_test_run.rt,trials_test.keyResp_test_run.duration,goodbye.started,textGoodbye.started,textGoodbye.stopped,goodbye.stopped,participant,session,expName,frameRate,Unnamed: 113
,,,,,,,,,,,,,,,,,,,,,,,,,,,,,,,,,,,,,,,,,0.0032430999999633,0.0291290000004664,0.0291290000004664,0.0291290000004664,77.25180229999933,space,77.18517019999854,,,,,,,,,,,,,,,,,,,,,,,,,,,,,,,,,,,,,,,,,,,,,,,,,,,,,,,,,,,sub-070,1,stroop_test,59.96440512945589,
,,,,,,,,,,,,,,,,,,,,,,,,,,,,,,,,,,,,,,,,,,,,,,,,,77.25193949999993,77.26135539999996,77.26135539999996,86.15136610000081,space,8.877741000000242,,,,,,,,,,,,,,,,,,,,,,,,,,,,,,,,,,,,,,,,,,,,,,,,,,,,sub-070,1,stroop_test,59.96440512945589,
test,blue,b,1.0,0.0,0.0,0.0,b,1.0,2.07948099999885,,,,,,,,,,,,,,,,,,0.0,0.0,0.0,2.0,,,,,,,,,86.19783710000047,,,,,,,,,,,,,,,,,86.19315869999991,86.26589439999952,87.07212339999933,87.05042990000038,87.06569570000102,87.07212339999933,87.07212339999933,89.16786030000003,b,1.0,2.07948099999885,,,,,,,,,,,,,,,,,,,,,,,,,,,,,,,,,,,,,,,,sub-070,1,stroop_test,59.96440512945589,
test,yellow,g,1.0,1.0,1.0,0.0,g,1.0,1.2660955999999717,,,,,,,,,,,,,,,,,,0.0,1.0,1.0,1.0,,,,,,,,,89.18236400000023,,,,,,,,,,,,,,,,,89.16838819999975,89.53253070000028,90.33269429999928,90.31721070000094,90.31798479999998,90.33269429999928,90.33269429999928,91.60185190000084,g,1.0,1.2660955999999717,,,,,,,,,,,,,,,,,,,,,,,,,,,,,,,,,,,,,,,,sub-070,1,stroop_test,59.96440512945589,
test,red,r,1.0,2.0,2.0,0.0,r,1.0,1.277514800000063,,,,,,,,,,,,,,,,,,0.0,2.0,2.0,0.0,,,,,,,,,91.6156718000002,,,,,,,,,,,,,,,,,91.60243210000044,92.81546639999942,93.61583860000064,93.60013249999976,93.60088139999972,93.61583860000064,93.61583860000064,94.90124769999966,r,1.0,1.277514800000063,,,,,,,,,,,,,,,,,,,,,,,,,,,,,,,,,,,,,,,,sub-070,1,stroop_test,59.96440512945589,
test,yellow,g,1.0,3.0,0.0,1.0,g,1.0,0.9884203000001436,,,,,,,,,,,,,,,,,,1.0,0.0,3.0,1.0,,,,,,,,,94.91583119999996,,,,,,,,,,,,,,,,,94.90178109999944,96.1155359000004,96.915659100001,96.90085910000016,96.90171060000102,96.915659100001,96.915659100001,97.91844610000044,g,1.0,0.9884203000001436,,,,,,,,,,,,,,,,,,,,,,,,,,,,,,,,,,,,,,,,sub-070,1,stroop_test,59.96440512945589,
test,red,r,1.0,4.0,1.0,1.0,r,1.0,1.153730900001392,,,,,,,,,,,,,,,,,,1.0,1.0,4.0,0.0,,,,,,,,,97.93245729999944,,,,,,,,,,,,,,,,,97.919143000001,98.03274480000071,98.83252770000036,98.8172015,98.81797800000096,98.83252770000036,98.83252770000036,100.00211590000072,r,1.0,1.153730900001392,,,,,,,,,,,,,,,,,,,,,,,,,,,,,,,,,,,,,,,,sub-070,1,stroop_test,59.96440512945589,
test,blue,b,1.0,5.0,2.0,1.0,b,1.0,0.8347204999990936,,,,,,,,,,,,,,,,,,1.0,2.0,5.0,2.0,,,,,,,,,100.01579049999964,,,,,,,,,,,,,,,,,100.002642200001,100.11558780000088,100.91578520000076,100.90095660000044,100.90157809999982,100.91578520000076,100.91578520000076,101.7533385000006,b,1.0,0.8347204999990936,,,,,,,,,,,,,,,,,,,,,,,,,,,,,,,,,,,,,,,,sub-070,1,stroop_test,59.96440512945589,
test,yellow,g,1.0,6.0,0.0,2.0,g,1.0,1.6055328000002191,,,,,,,,,,,,,,,,,,2.0,0.0,6.0,1.0,,,,,,,,,101.76568249999946,,,,,,,,,,,,,,,,,101.75387109999974,101.86589169999934,102.66581319999932,102.65040330000012,102.65116640000088,102.66581319999932,102.66581319999932,104.2844836000004,g,1.0,1.6055328000002191,,,,,,,,,,,,,,,,,,,,,,,,,,,,,,,,,,,,,,,,sub-070,1,stroop_test,59.96440512945589,
test,blue,b,1.0,7.0,1.0,2.0,b,1.0,0.8682516000008036,,,,,,,,,,,,,,,,,,2.0,1.0,7.0,2.0,,,,,,,,,104.29899850000038,,,,,,,,,,,,,,,,,104.28507010000068,104.64903310000044,105.44897859999946,105.43357819999984,105.43429859999924,105.44897859999946,105.44897859999946,106.33403290000024,b,1.0,0.8682516000008036,,,,,,,,,,,,,,,,,,,,,,,,,,,,,,,,,,,,,,,,sub-070,1,stroop_test,59.96440512945589,
test,red,r,1.0,8.0,2.0,2.0,r,1.0,1.851545299999998,,,,,,,,,,,,,,,,,,2.0,2.0,8.0,0.0,,,,,,,,,106.34906720000072,,,,,,,,,,,,,,,,,106.3346373000004,106.44880120000016,107.24905659999968,107.23340819999976,107.23418119999953,107.24905659999968,107.24905659999968,109.11753970000063,r,1.0,1.851545299999998,,,,,,,,,,,,,,,,,,,,,,,,,,,,,,,,,,,,,,,,sub-070,1,stroop_test,59.96440512945589,
test,yellow,g,1.0,9.0,0.0,3.0,g,1.0,1.0782538000003117,,,,,,,,,,,,,,,,,,3.0,0.0,9.0,1.0,,,,,,,,,109.13218880000022,,,,,,,,,,,,,,,,,109.1181183000008,109.93213280000056,110.7323679000001,110.71698119999928,110.71762540000054,110.7323679000001,110.7323679000001,111.81796360000044,g,1.0,1.0782538000003117,,,,,,,,,,,,,,,,,,,,,,,,,,,,,,,,,,,,,,,,sub-070,1,stroop_test,59.96440512945589,
test,red,r,1.0,10.0,1.0,3.0,r,1.0,1.1677959000007831,,,,,,,,,,,,,,,,,,3.0,1.0,10.0,0.0,,,,,,,,,111.8321333999993,,,,,,,,,,,,,,,,,111.81842270000016,112.63243909999984,113.43225530000018,113.41694269999972,113.41764759999931,113.43225530000018,113.43225530000018,114.60211580000032,r,1.0,1.1677959000007831,,,,,,,,,,,,,,,,,,,,,,,,,,,,,,,,,,,,,,,,sub-070,1,stroop_test,59.96440512945589,
test,blue,b,1.0,11.0,2.0,3.0,b,1.0,0.5352544999987003,,,,,,,,,,,,,,,,,,3.0,2.0,11.0,2.0,,,,,,,,,114.61578139999985,,,,,,,,,,,,,,,,,114.60258509999947,115.81553850000093,116.61579039999924,116.60090379999929,116.60230299999968,116.61579039999924,116.61579039999924,117.16754949999996,b,1.0,0.5352544999987003,,,,,,,,,,,,,,,,,,,,,,,,,,,,,,,,,,,,,,,,sub-070,1,stroop_test,59.96440512945589,
,,,,,,,,,,,,,,,,,,,,,,,,,,,,,,,,,,,,,,,,,,,,,,,,,,,,,,,,,,,,,,,,,,,,117.16784800000096,117.18218110000088,117.18218110000088,120.5683898999996,space,3.383328799998708,,,,,,,,,,,,,,,,,,,,,,,,,,,,,,,,,sub-070,1,stroop_test,59.96440512945589,
,,,,0.0,0.0,0.0,,,,,rot,yellow,g,0.0,g,1.0,2.3646145000002434,,,,,,,,,,,,,,0.0,0.0,0.0,3.0,,,,,120.61227660000075,,,,,,,,,,,,,,,,,120.6076398999994,121.38240120000046,122.1859568,122.16697740000018,,,,,,,,,,,,,,,,122.17892220000068,122.1859568,122.1859568,124.56754180000098,g,1.0,2.3646145000002434,,124.58555350000096,124.59326470000089,125.58257860000047,,,,,,,,,,,,,,,,,,,,,sub-070,1,stroop_test,59.96440512945589,
,,,,1.0,1.0,0.0,,,,,blau,yellow,g,0.0,g,1.0,1.5874807000000146,,,,,,,,,,,,,,0.0,1.0,1.0,7.0,,,,,125.59896710000066,,,,,,,,,,,,,,,,,125.58326520000082,126.7823368999998,127.58941480000068,127.56684719999976,,,,,,,,,,,,,,,,127.58260359999986,127.58941480000068,127.58941480000068,129.18525930000033,g,1.0,1.5874807000000146,,129.18604380000033,129.19938130000082,130.1834615000007,130.1987210999996,,,,,,,,,,,,,,,,,,,,sub-070,1,stroop_test,59.96440512945589,
,,,,2.0,2.0,0.0,,,,,gelb,yellow,g,1.0,g,1.0,1.3288804000003438,,,,,,,,,,,,,,0.0,2.0,2.0,10.0,,,,,130.1987210999996,,,,,,,,,,,,,,,,,130.1840599999996,130.29903670000022,131.09874649999983,131.08390090000103,,,,,,,,,,,,,,,,131.0905361999994,131.09874649999983,131.09874649999983,132.43487249999998,g,1.0,1.3288804000003438,,132.43616119999933,132.4487683999996,133.43333119999988,133.44913430000088,,,,,,,,,,,,,,,,,,,,sub-070,1,stroop_test,59.96440512945589,
,,,,3.0,3.0,0.0,,,,,gelb,red,r,0.0,r,1.0,0.8470297000003484,,,,,,,,,,,,,,0.0,3.0,3.0,8.0,,,,,133.44913430000088,,,,,,,,,,,,,,,,,133.4342531000002,133.5488346000002,134.34871340000063,134.33428640000056,,,,,,,,,,,,,,,,134.33529210000052,134.34871340000063,134.34871340000063,135.20085610000024,r,1.0,0.8470297000003484,,135.20157280000058,135.21553239999955,136.20027560000017,136.21552399999928,,,,,,,,,,,,,,,,,,,,sub-070,1,stroop_test,59.96440512945589,
,,,,4.0,4.0,0.0,,,,,blau,red,r,0.0,r,1.0,0.5320419999989099,,,,,,,,,,,,,,0.0,4.0,4.0,4.0,,,,,136.21552399999928,,,,,,,,,,,,,,,,,136.2007577000004,136.5656987000002,137.36534589999974,137.34945519999928,,,,,,,,,,,,,,,,137.35274620000018,137.36534589999974,137.36534589999974,137.90005679999922,r,1.0,0.5320419999989099,,137.90074380000078,137.9154522000008,138.9002700000001,138.91530280000006,,,,,,,,,,,,,,,,,,,,sub-070,1,stroop_test,59.96440512945589,
,,,,5.0,5.0,0.0,,,,,gelb,yellow,g,1.0,g,1.0,1.6807492000007187,,,,,,,,,,,,,,0.0,5.0,5.0,11.0,,,,,138.91530280000006,,,,,,,,,,,,,,,,,138.9010089000003,139.01535110000077,139.81549640000048,139.80042010000034,,,,,,,,,,,,,,,,139.8077071000007,139.81549640000048,139.81549640000048,141.50074320000022,g,1.0,1.6807492000007187,,141.50134419999995,141.51518820000092,142.50019690000045,142.51537409999946,,,,,,,,,,,,,,,,,,,,sub-070,1,stroop_test,59.96440512945589,
,,,,6.0,6.0,0.0,,,,,gelb,blue,b,0.0,b,1.0,1.018173000000388,,,,,,,,,,,,,,0.0,6.0,6.0,9.0,,,,,142.51537409999946,,,,,,,,,,,,,,,,,142.50073390000034,143.71555810000064,144.51549329999943,144.50056050000055,,,,,,,,,,,,,,,,144.50143469999966,144.51549329999943,144.51549329999943,145.55129750000015,b,1.0,1.018173000000388,,145.55211120000058,145.56578040000022,146.5505849000001,146.56550199999947,,,,,,,,,,,,,,,,,,,,sub-070,1,stroop_test,59.96440512945589,
,,,,7.0,7.0,0.0,,,,,blau,blue,b,1.0,b,1.0,0.7063508000010188,,,,,,,,,,,,,,0.0,7.0,7.0,5.0,,,,,146.56550199999947,,,,,,,,,,,,,,,,,146.55112200000076,146.91584189999958,147.7155442000003,147.70015009999952,,,,,,,,,,,,,,,,147.70589610000025,147.7155442000003,147.7155442000003,148.43521959999998,b,1.0,0.7063508000010188,,148.43614700000035,148.44886360000055,149.43342389999998,149.44899179999993,,,,,,,,,,,,,,,,,,,,sub-070,1,stroop_test,59.96440512945589,
,,,,8.0,8.0,0.0,,,,,blau,blue,b,1.0,b,1.0,0.654218800000308,,,,,,,,,,,,,,0.0,8.0,8.0,6.0,,,,,149.44899179999993,,,,,,,,,,,,,,,,,149.43386370000007,150.24901940000018,151.0488581999998,151.03403369999978,,,,,,,,,,,,,,,,151.03465479999977,151.0488581999998,151.0488581999998,151.7185298000004,b,1.0,0.654218800000308,,151.7192326000004,151.7324353999993,152.71683359999952,152.73209379999935,,,,,,,,,,,,,,,,,,,,sub-070,1,stroop_test,59.96440512945589,
,,,,9.0,9.0,0.0,,,,,rot,blue,b,0.0,b,1.0,0.8818459000012808,,,,,,,,,,,,,,0.0,9.0,9.0,2.0,,,,,152.73209379999935,,,,,,,,,,,,,,,,,152.7173359999997,153.93241859999944,154.73204579999947,154.71660040000097,,,,,,,,,,,,,,,,154.72217570000066,154.73204579999947,154.73204579999947,155.61768080000002,b,1.0,0.8818459000012808,,155.6189988999995,155.63219539999957,156.61680410000008,156.63240360000054,,,,,,,,,,,,,,,,,,,,sub-070,1,stroop_test,59.96440512945589,
,,,,10.0,10.0,0.0,,,,,rot,red,r,1.0,r,1.0,2.5217632000003505,,,,,,,,,,,,,,0.0,10.0,10.0,1.0,,,,,156.63240360000054,,,,,,,,,,,,,,,,,156.6173132999993,157.43245919999936,158.2323379999998,158.2169847999994,,,,,,,,,,,,,,,,158.21774879999975,158.2323379999998,158.2323379999998,160.76804000000084,r,1.0,2.5217632000003505,,160.76893700000073,160.78224469999986,161.76699519999966,161.78204580000056,,,,,,,,,,,,,,,,,,,,sub-070,1,stroop_test,59.96440512945589,
,,,,11.0,11.0,0.0,,,,,rot,red,r,1.0,r,1.0,0.5332774999988033,,,,,,,,,,,,,,0.0,11.0,11.0,0.0,,,,,161.78204580000056,,,,,,,,,,,,,,,,,161.76790319999964,162.5822189999999,163.382031000001,163.36685729999954,,,,,,,,,,,,,,,,163.36747620000097,163.382031000001,163.382031000001,163.9182949999995,r,1.0,0.5332774999988033,,163.91956120000032,163.93228760000056,164.91689829999996,164.93210510000063,,,,,,,,,,,,,,,,,,,,sub-070,1,stroop_test,59.96440512945589,
,,,,12.0,0.0,1.0,,,,,gelb,yellow,g,1.0,g,1.0,1.1454436000003625,,,,,,,,,,,,,,1.0,0.0,12.0,11.0,,,,,164.93210510000063,,,,,,,,,,,,,,,,,164.9173412,165.73199940000086,166.53218519999973,166.5168663000004,,,,,,,,,,,,,,,,166.52249560000018,166.53218519999973,166.53218519999973,167.68441080000048,g,1.0,1.1454436000003625,,167.6851669000007,167.69897169999967,168.6837931000009,168.6988225999994,,,,,,,,,,,,,,,,,,,,sub-070,1,stroop_test,59.96440512945589,
,,,,13.0,1.0,1.0,,,,,blau,blue,b,1.0,b,1.0,0.71925949999968,,,,,,,,,,,,,,1.0,1.0,13.0,6.0,,,,,168.6988225999994,,,,,,,,,,,,,,,,,168.68429099999958,169.8988174999995,170.69877219999944,170.68328629999996,,,,,,,,,,,,,,,,170.69102010000097,170.69877219999944,170.69877219999944,171.4350451000009,b,1.0,0.71925949999968,,171.4358169999996,171.44887969999945,172.43387520000033,172.44880290000037,,,,,,,,,,,,,,,,,,,,sub-070,1,stroop_test,59.96440512945589,
,,,,14.0,2.0,1.0,,,,,rot,blue,b,0.0,b,1.0,0.7148491000007198,,,,,,,,,,,,,,1.0,2.0,14.0,2.0,,,,,172.44880290000037,,,,,,,,,,,,,,,,,172.4344858000004,172.79877739999938,173.59890670000095,173.58319210000082,,,,,,,,,,,,,,,,173.5885302000006,173.59890670000095,173.59890670000095,174.31755759999942,b,1.0,0.7148491000007198,,174.3183253999996,174.3322688999997,175.31678789999933,175.33190810000087,,,,,,,,,,,,,,,,,,,,sub-070,1,stroop_test,59.96440512945589,
,,,,15.0,3.0,1.0,,,,,rot,red,r,1.0,r,1.0,2.253567199999452,,,,,,,,,,,,,,1.0,3.0,15.0,0.0,,,,,175.33190810000087,,,,,,,,,,,,,,,,,175.31729300000006,176.13217330000043,176.93209960000058,176.9172075000006,,,,,,,,,,,,,,,,176.91827150000063,176.93209960000058,176.93209960000058,179.20124439999927,r,1.0,2.253567199999452,,179.2020278,179.21628699999928,180.20110750000092,180.21544100000028,,,,,,,,,,,,,,,,,,,,sub-070,1,stroop_test,59.96440512945589,
,,,,16.0,4.0,1.0,,,,,blau,yellow,g,0.0,g,1.0,0.9859348999998474,,,,,,,,,,,,,,1.0,4.0,16.0,7.0,,,,,180.21544100000028,,,,,,,,,,,,,,,,,180.2015529,181.0155622000002,181.81544320000103,181.80040109999936,,,,,,,,,,,,,,,,181.8065766,181.81544320000103,181.81544320000103,182.8172654000009,g,1.0,0.9859348999998474,,182.8185950999996,182.83208259999992,183.81658450000032,183.83242220000105,,,,,,,,,,,,,,,,,,,,sub-070,1,stroop_test,59.96440512945589,
,,,,17.0,5.0,1.0,,,,,gelb,yellow,g,1.0,g,1.0,0.7387818000006519,,,,,,,,,,,,,,1.0,5.0,17.0,10.0,,,,,183.83242220000105,,,,,,,,,,,,,,,,,183.8170855999997,184.6320637999997,185.4319560999993,185.4172798,,,,,,,,,,,,,,,,185.42404970000095,185.4319560999993,185.4319560999993,186.1842407999993,g,1.0,0.7387818000006519,,186.1851146000008,186.19908580000083,187.1838272999994,187.19880019999985,,,,,,,,,,,,,,,,,,,,sub-070,1,stroop_test,59.96440512945589,
,,,,18.0,6.0,1.0,,,,,gelb,blue,b,0.0,b,1.0,0.913280400000076,,,,,,,,,,,,,,1.0,6.0,18.0,9.0,,,,,187.19880019999985,,,,,,,,,,,,,,,,,187.18432829999983,188.3989958000002,189.19889280000095,189.1834930999994,,,,,,,,,,,,,,,,189.18417260000024,189.19889280000095,189.19889280000095,190.11854350000067,b,1.0,0.913280400000076,,190.1193211000009,190.13225430000057,191.1173519999993,191.1324676000004,,,,,,,,,,,,,,,,,,,,sub-070,1,stroop_test,59.96440512945589,
,,,,19.0,7.0,1.0,,,,,blau,red,r,0.0,r,1.0,1.3742855000000418,,,,,,,,,,,,,,1.0,7.0,19.0,4.0,,,,,191.1324676000004,,,,,,,,,,,,,,,,,191.11837820000076,192.332002000001,193.13206770000036,193.11672610000096,,,,,,,,,,,,,,,,193.12496640000063,193.13206770000036,193.13206770000036,194.51755299999968,r,1.0,1.3742855000000418,,194.5183438000004,194.532029,195.51672300000064,195.53241940000044,,,,,,,,,,,,,,,,,,,,sub-070,1,stroop_test,59.96440512945589,
,,,,20.0,8.0,1.0,,,,,rot,yellow,g,0.0,g,1.0,0.7718780000013794,,,,,,,,,,,,,,1.0,8.0,20.0,3.0,,,,,195.53241940000044,,,,,,,,,,,,,,,,,195.51727159999973,195.88205630000084,196.6820717999999,196.666465100001,,,,,,,,,,,,,,,,196.6722200999993,196.6820717999999,196.6820717999999,197.46806839999957,g,1.0,0.7718780000013794,,197.46882180000105,197.4820357000008,198.46718820000024,198.48212650000096,,,,,,,,,,,,,,,,,,,,sub-070,1,stroop_test,59.96440512945589,
,,,,21.0,9.0,1.0,,,,,blau,blue,b,1.0,b,1.0,0.8356383999998798,,,,,,,,,,,,,,1.0,9.0,21.0,5.0,,,,,198.48212650000096,,,,,,,,,,,,,,,,,198.46766380000008,198.5823677999997,199.38201149999983,199.36666160000092,,,,,,,,,,,,,,,,199.3731463000004,199.38201149999983,199.38201149999983,200.23459990000083,b,1.0,0.8356383999998798,,200.23532290000003,200.24866909999943,201.23355579999952,201.2488441000005,,,,,,,,,,,,,,,,,,,,sub-070,1,stroop_test,59.96440512945589,
,,,,22.0,10.0,1.0,,,,,gelb,red,r,0.0,r,1.0,1.2920878999993874,,,,,,,,,,,,,,1.0,10.0,22.0,8.0,,,,,201.2488441000005,,,,,,,,,,,,,,,,,201.2340411999994,202.0486621,202.84895340000003,202.8334004999997,,,,,,,,,,,,,,,,202.84021960000064,202.84895340000003,202.84895340000003,204.15088210000067,r,1.0,1.2920878999993874,,204.1516795999996,204.16559199999935,205.15025950000015,205.16553990000105,,,,,,,,,,,,,,,,,,,,sub-070,1,stroop_test,59.96440512945589,
,,,,23.0,11.0,1.0,,,,,rot,red,r,1.0,r,1.0,0.8211250000003929,,,,,,,,,,,,,,1.0,11.0,23.0,1.0,,,,,205.16553990000105,,,,,,,,,,,,,,,,,205.1507361000004,205.51548490000096,206.3153395999998,206.3008236000005,,,,,,,,,,,,,,,,206.30603019999944,206.3153395999998,206.3153395999998,207.15109099999967,r,1.0,0.8211250000003929,,207.15186750000063,207.1652408000009,208.1498105999999,208.1655119999996,,,,,,,,,,,,,,,,,,,,sub-070,1,stroop_test,59.96440512945589,
,,,,,,,,,,,,,,,,,,,,,,,,,,,,,,,,,,,,,,,,,,,,,,,,,,,,,,,,,,,,,,,,,,,,,,,,,,,,,,,,,,,,,,,208.14998130000092,208.1655119999996,208.1655119999996,211.6845983000003,space,3.501886800000648,,,,,,,,,,,,,,sub-070,1,stroop_test,59.96440512945589,
,,,,0.0,0.0,0.0,,,,,,,,,,,,,rot,yellow,g,0.0,g,1.0,1.2333295999997065,,,,,,,,,,0.0,0.0,0.0,3.0,211.7337480999995,,,,,,,,,,,,,,,,,211.72800169999937,212.4985794000004,213.2991456,213.28370320000067,,,,,,,,,,,,,,,,,,,,,,,,,,,,,,,,,,,213.28814240000065,213.2991456,213.2991456,214.53461249999964,g,1.0,1.2333295999997065,,,,,,sub-070,1,stroop_test,59.96440512945589,
,,,,1.0,1.0,0.0,,,,,,,,,,,,,blau,yellow,g,0.0,g,1.0,0.7846850999994786,,,,,,,,,,0.0,1.0,1.0,7.0,214.5486953,,,,,,,,,,,,,,,,,214.53520729999943,215.7487488000006,216.5488335000009,216.53371220000008,,,,,,,,,,,,,,,,,,,,,,,,,,,,,,,,,,,216.53894899999975,216.5488335000009,216.5488335000009,217.3507900000004,g,1.0,0.7846850999994786,,,,,,sub-070,1,stroop_test,59.96440512945589,
,,,,2.0,2.0,0.0,,,,,,,,,,,,,blau,blue,b,1.0,b,1.0,1.202137300000686,,,,,,,,,,0.0,2.0,2.0,6.0,217.3656780000001,,,,,,,,,,,,,,,,,217.3513156000008,218.16549060000037,218.96562149999957,218.9499362000006,,,,,,,,,,,,,,,,,,,,,,,,,,,,,,,,,,,218.9505876000003,218.96562149999957,218.96562149999957,220.1837632000006,b,1.0,1.202137300000686,,,,,,sub-070,1,stroop_test,59.96440512945589,
,,,,3.0,3.0,0.0,,,,,,,,,,,,,rot,red,r,1.0,r,1.0,0.9366203999998106,,,,,,,,,,0.0,3.0,3.0,0.0,220.1986522999996,,,,,,,,,,,,,,,,,220.18429079999987,221.3989492000001,222.1986997999993,222.18354080000063,,,,,,,,,,,,,,,,,,,,,,,,,,,,,,,,,,,222.1890946999993,222.1986997999993,222.1986997999993,223.1507356000002,r,1.0,0.9366203999998106,,,,,,sub-070,1,stroop_test,59.96440512945589,
,,,,4.0,4.0,0.0,,,,,,,,,,,,,gelb,yellow,g,1.0,g,1.0,0.8328044999998383,,,,,,,,,,0.0,4.0,4.0,10.0,223.16530059999968,,,,,,,,,,,,,,,,,223.15132579999957,223.51534589999935,224.31525049999985,224.2998303999993,,,,,,,,,,,,,,,,,,,,,,,,,,,,,,,,,,,224.3062854,224.31525049999985,224.31525049999985,225.150210400001,g,1.0,0.8328044999998383,,,,,,sub-070,1,stroop_test,59.96440512945589,
,,,,5.0,5.0,0.0,,,,,,,,,,,,,blau,red,r,0.0,r,1.0,1.6534039000016492,,,,,,,,,,0.0,5.0,5.0,4.0,225.1650399000009,,,,,,,,,,,,,,,,,225.1506191000008,225.26550510000013,226.06531440000072,226.0500119999997,,,,,,,,,,,,,,,,,,,,,,,,,,,,,,,,,,,226.0567572,226.06531440000072,226.06531440000072,227.7364035999999,r,1.0,1.6534039000016492,,,,,,sub-070,1,stroop_test,59.96440512945589,
,,,,6.0,6.0,0.0,,,,,,,,,,,,,rot,blue,b,0.0,b,1.0,0.9335805999999138,,,,,,,,,,0.0,6.0,6.0,2.0,227.74874140000065,,,,,,,,,,,,,,,,,227.7371416000005,228.5486273000006,229.3490655000005,229.33341090000067,,,,,,,,,,,,,,,,,,,,,,,,,,,,,,,,,,,229.33954230000015,229.3490655000005,229.3490655000005,230.2849624999999,b,1.0,0.9335805999999138,,,,,,sub-070,1,stroop_test,59.96440512945589,
,,,,7.0,7.0,0.0,,,,,,,,,,,,,gelb,blue,b,0.0,b,1.0,0.7513874999986001,,,,,,,,,,0.0,7.0,7.0,9.0,230.29831879999983,,,,,,,,,,,,,,,,,230.2855251000001,230.64883349999943,231.44854690000105,231.43347530000028,,,,,,,,,,,,,,,,,,,,,,,,,,,,,,,,,,,231.4401297999993,231.44854690000105,231.44854690000105,232.21708899999976,b,1.0,0.7513874999986001,,,,,,sub-070,1,stroop_test,59.96440512945589,
,,,,8.0,8.0,0.0,,,,,,,,,,,,,rot,red,r,1.0,r,1.0,1.056326200001422,,,,,,,,,,0.0,8.0,8.0,1.0,232.2319576000009,,,,,,,,,,,,,,,,,232.21760229999927,232.3319876000005,233.13203079999948,233.11687669999992,,,,,,,,,,,,,,,,,,,,,,,,,,,,,,,,,,,233.12315239999955,233.13203079999948,233.13203079999948,234.2007792000004,r,1.0,1.056326200001422,,,,,,sub-070,1,stroop_test,59.96440512945589,
,,,,9.0,9.0,0.0,,,,,,,,,,,,,blau,blue,b,1.0,b,1.0,0.88053360000049,,,,,,,,,,0.0,9.0,9.0,5.0,234.2155987999995,,,,,,,,,,,,,,,,,234.20153070000012,235.01530880000064,235.8153889999994,235.79993990000003,,,,,,,,,,,,,,,,,,,,,,,,,,,,,,,,,,,235.80630200000087,235.8153889999994,235.8153889999994,236.70065819999945,b,1.0,0.88053360000049,,,,,,sub-070,1,stroop_test,59.96440512945589,
,,,,10.0,10.0,0.0,,,,,,,,,,,,,gelb,yellow,g,1.0,g,1.0,1.0110640000002604,,,,,,,,,,0.0,10.0,10.0,11.0,236.7153713000007,,,,,,,,,,,,,,,,,236.7018669000008,237.91541080000025,238.71531420000065,238.7000466999998,,,,,,,,,,,,,,,,,,,,,,,,,,,,,,,,,,,238.7073282000001,238.71531420000065,238.71531420000065,239.7353679000007,g,1.0,1.0110640000002604,,,,,,sub-070,1,stroop_test,59.96440512945589,
,,,,11.0,11.0,0.0,,,,,,,,,,,,,gelb,red,r,0.0,r,1.0,1.500680500001181,,,,,,,,,,0.0,11.0,11.0,8.0,239.74852669999927,,,,,,,,,,,,,,,,,239.7361251000002,240.09887230000092,240.89862130000077,240.88347649999923,,,,,,,,,,,,,,,,,,,,,,,,,,,,,,,,,,,240.8841157999996,240.89862130000077,240.89862130000077,242.40148799999952,r,1.0,1.500680500001181,,,,,,sub-070,1,stroop_test,59.96440512945589,
,,,,12.0,0.0,1.0,,,,,,,,,,,,,rot,yellow,g,0.0,g,1.0,1.337909400001081,,,,,,,,,,1.0,0.0,12.0,3.0,242.41563010000027,,,,,,,,,,,,,,,,,242.40216710000092,242.5152266000005,243.31529729999968,243.29977300000064,,,,,,,,,,,,,,,,,,,,,,,,,,,,,,,,,,,243.3053216999997,243.31529729999968,243.31529729999968,244.66792200000052,g,1.0,1.337909400001081,,,,,,sub-070,1,stroop_test,59.96440512945589,
,,,,13.0,1.0,1.0,,,,,,,,,,,,,gelb,red,r,0.0,r,1.0,0.8805948999997781,,,,,,,,,,1.0,1.0,13.0,8.0,244.6820922999996,,,,,,,,,,,,,,,,,244.6684707999993,244.78212259999964,245.58202750000052,245.5664981000009,,,,,,,,,,,,,,,,,,,,,,,,,,,,,,,,,,,245.57261780000044,245.58202750000052,245.58202750000052,246.4679935000004,r,1.0,0.8805948999997781,,,,,,sub-070,1,stroop_test,59.96440512945589,
,,,,14.0,2.0,1.0,,,,,,,,,,,,,gelb,yellow,g,1.0,g,1.0,0.8780043000006117,,,,,,,,,,1.0,2.0,14.0,11.0,246.48199860000025,,,,,,,,,,,,,,,,,246.46861100000024,247.6818779999994,248.4820056999997,248.46667370000068,,,,,,,,,,,,,,,,,,,,,,,,,,,,,,,,,,,248.4677831000008,248.4820056999997,248.4820056999997,249.3681448999996,g,1.0,0.8780043000006117,,,,,,sub-070,1,stroop_test,59.96440512945589,
,,,,15.0,3.0,1.0,,,,,,,,,,,,,blau,yellow,g,0.0,g,1.0,0.757658900000024,,,,,,,,,,1.0,3.0,15.0,7.0,249.3820441000007,,,,,,,,,,,,,,,,,249.3689032000002,249.4821296000009,250.2818776999993,250.26633179999956,,,,,,,,,,,,,,,,,,,,,,,,,,,,,,,,,,,250.2728733000004,250.2818776999993,250.2818776999993,251.05177849999927,g,1.0,0.757658900000024,,,,,,sub-070,1,stroop_test,59.96440512945589,
,,,,16.0,4.0,1.0,,,,,,,,,,,,,gelb,yellow,g,1.0,g,1.0,0.7698608000009699,,,,,,,,,,1.0,4.0,16.0,10.0,251.06524270000045,,,,,,,,,,,,,,,,,251.05231529999944,251.16521730000025,251.96592460000105,251.9498681000005,,,,,,,,,,,,,,,,,,,,,,,,,,,,,,,,,,,251.95665179999924,251.96592460000105,251.96592460000105,252.75141799999983,g,1.0,0.7698608000009699,,,,,,sub-070,1,stroop_test,59.96440512945589,
,,,,17.0,5.0,1.0,,,,,,,,,,,,,blau,blue,b,1.0,b,1.0,0.7996923999999126,,,,,,,,,,1.0,5.0,17.0,5.0,252.76517579999927,,,,,,,,,,,,,,,,,252.75217460000025,252.86546819999967,253.66540170000007,253.6506678000005,,,,,,,,,,,,,,,,,,,,,,,,,,,,,,,,,,,253.65833980000025,253.66540170000007,253.66540170000007,254.4679892999993,b,1.0,0.7996923999999126,,,,,,sub-070,1,stroop_test,59.96440512945589,
,,,,18.0,6.0,1.0,,,,,,,,,,,,,rot,red,r,1.0,r,1.0,0.7053696000002674,,,,,,,,,,1.0,6.0,18.0,1.0,254.4820708999996,,,,,,,,,,,,,,,,,254.46850350000025,255.28198089999933,256.0817229000004,256.0667367999995,,,,,,,,,,,,,,,,,,,,,,,,,,,,,,,,,,,256.0720177000003,256.0817229000004,256.0817229000004,256.8013814999995,r,1.0,0.7053696000002674,,,,,,sub-070,1,stroop_test,59.96440512945589,
,,,,19.0,7.0,1.0,,,,,,,,,,,,,blau,blue,b,1.0,b,1.0,0.6659693000001425,,,,,,,,,,1.0,7.0,19.0,6.0,256.81527430000097,,,,,,,,,,,,,,,,,256.80199639999955,257.61553020000065,258.41538820000096,258.3997055,,,,,,,,,,,,,,,,,,,,,,,,,,,,,,,,,,,258.4067175,258.41538820000096,258.41538820000096,259.0841538000004,b,1.0,0.6659693000001425,,,,,,sub-070,1,stroop_test,59.96440512945589,
,,,,20.0,8.0,1.0,,,,,,,,,,,,,blau,red,r,0.0,r,1.0,1.790725900000325,,,,,,,,,,1.0,8.0,20.0,4.0,259.0985791999992,,,,,,,,,,,,,,,,,259.08474860000024,259.198935800001,259.9984490000006,259.9831257000005,,,,,,,,,,,,,,,,,,,,,,,,,,,,,,,,,,,259.9837996999995,259.9984490000006,259.9984490000006,261.80150049999975,r,1.0,1.790725900000325,,,,,,sub-070,1,stroop_test,59.96440512945589,
,,,,21.0,9.0,1.0,,,,,,,,,,,,,gelb,blue,b,0.0,b,1.0,1.8576585999999224,,,,,,,,,,1.0,9.0,21.0,9.0,261.81563239999923,,,,,,,,,,,,,,,,,261.8021484000001,262.6151110999999,263.41548150000017,263.3997725999998,,,,,,,,,,,,,,,,,,,,,,,,,,,,,,,,,,,263.4057479000003,263.41548150000017,263.41548150000017,265.2842008000007,b,1.0,1.8576585999999224,,,,,,sub-070,1,stroop_test,59.96440512945589,
,,,,22.0,10.0,1.0,,,,,,,,,,,,,rot,red,r,1.0,r,1.0,0.9031045000010636,,,,,,,,,,1.0,10.0,22.0,0.0,265.29863060000025,,,,,,,,,,,,,,,,,265.28479960000004,265.64857440000014,266.4485636999998,266.4332761000005,,,,,,,,,,,,,,,,,,,,,,,,,,,,,,,,,,,266.4392019000006,266.4485636999998,266.4485636999998,267.36749749999944,r,1.0,0.9031045000010636,,,,,,sub-070,1,stroop_test,59.96440512945589,
,,,,23.0,11.0,1.0,,,,,,,,,,,,,rot,blue,b,0.0,b,1.0,1.1747502999987771,,,,,,,,,,1.0,11.0,23.0,2.0,267.38189539999985,,,,,,,,,,,,,,,,,267.3680970000005,267.73190350000004,268.53215439999985,268.51626450000003,,,,,,,,,,,,,,,,,,,,,,,,,,,,,,,,,,,268.5169215999995,268.53215439999985,268.53215439999985,269.7172210000008,b,1.0,1.1747502999987771,,,,,,sub-070,1,stroop_test,59.96440512945589,
,,,,24.0,0.0,2.0,,,,,,,,,,,,,rot,red,r,1.0,r,1.0,1.791998099999546,,,,,,,,,,2.0,0.0,24.0,0.0,269.7317607999994,,,,,,,,,,,,,,,,,269.71782540000095,270.9317771999995,271.7320142000008,271.7165377000001,,,,,,,,,,,,,,,,,,,,,,,,,,,,,,,,,,,271.71724709999944,271.7320142000008,271.7320142000008,273.5346874000006,r,1.0,1.791998099999546,,,,,,sub-070,1,stroop_test,59.96440512945589,
,,,,25.0,1.0,2.0,,,,,,,,,,,,,rot,blue,b,0.0,b,1.0,0.7388752000006207,,,,,,,,,,2.0,1.0,25.0,2.0,273.54857730000003,,,,,,,,,,,,,,,,,273.53553190000093,274.7485025999995,275.5485310999993,275.5328635999995,,,,,,,,,,,,,,,,,,,,,,,,,,,,,,,,,,,275.53361790000054,275.5485310999993,275.5485310999993,276.3004980000005,b,1.0,0.7388752000006207,,,,,,sub-070,1,stroop_test,59.96440512945589,
,,,,26.0,2.0,2.0,,,,,,,,,,,,,rot,yellow,g,0.0,g,1.0,1.08678990000044,,,,,,,,,,2.0,2.0,26.0,3.0,276.31517170000006,,,,,,,,,,,,,,,,,276.3011022999999,277.1151829999999,277.9153466000007,277.9000398999997,,,,,,,,,,,,,,,,,,,,,,,,,,,,,,,,,,,277.900705,277.9153466000007,277.9153466000007,279.0176398000003,g,1.0,1.08678990000044,,,,,,sub-070,1,stroop_test,59.96440512945589,
,,,,27.0,3.0,2.0,,,,,,,,,,,,,gelb,yellow,g,1.0,g,1.0,0.5551883000007365,,,,,,,,,,2.0,3.0,27.0,11.0,279.0318664000006,,,,,,,,,,,,,,,,,279.01849799999945,280.2320830999997,281.03182410000045,281.0171257000002,,,,,,,,,,,,,,,,,,,,,,,,,,,,,,,,,,,281.02345199999945,281.03182410000045,281.03182410000045,281.6013287000005,g,1.0,0.5551883000007365,,,,,,sub-070,1,stroop_test,59.96440512945589,
,,,,28.0,4.0,2.0,,,,,,,,,,,,,gelb,yellow,g,1.0,g,1.0,0.8207793000001402,,,,,,,,,,2.0,4.0,28.0,10.0,281.61519820000103,,,,,,,,,,,,,,,,,281.6019569,281.9653985999994,282.7652216999996,282.7503551000009,,,,,,,,,,,,,,,,,,,,,,,,,,,,,,,,,,,282.7511792000005,282.7652216999996,282.7652216999996,283.60067159999926,g,1.0,0.8207793000001402,,,,,,sub-070,1,stroop_test,59.96440512945589,
,,,,29.0,5.0,2.0,,,,,,,,,,,,,rot,red,r,1.0,r,1.0,1.314276200000677,,,,,,,,,,2.0,5.0,29.0,1.0,283.61522460000015,,,,,,,,,,,,,,,,,283.6011870000002,283.96540920000007,284.7651731999995,284.7503548000004,,,,,,,,,,,,,,,,,,,,,,,,,,,,,,,,,,,284.7547842999993,284.7651731999995,284.7651731999995,286.0839715000002,r,1.0,1.314276200000677,,,,,,sub-070,1,stroop_test,59.96440512945589,
,,,,30.0,6.0,2.0,,,,,,,,,,,,,gelb,red,r,0.0,r,1.0,0.8201501000003191,,,,,,,,,,2.0,6.0,30.0,8.0,286.0984301999997,,,,,,,,,,,,,,,,,286.08503550000023,286.1984427999996,286.9987426000007,286.9833679000003,,,,,,,,,,,,,,,,,,,,,,,,,,,,,,,,,,,286.98990550000053,286.9987426000007,286.9987426000007,287.833039000001,r,1.0,0.8201501000003191,,,,,,sub-070,1,stroop_test,59.96440512945589,
,,,,31.0,7.0,2.0,,,,,,,,,,,,,blau,blue,b,1.0,b,1.0,0.8388639000004332,,,,,,,,,,2.0,7.0,31.0,5.0,287.84820129999935,,,,,,,,,,,,,,,,,287.8334061000005,288.1989271000002,288.9985763000004,288.9833620999998,,,,,,,,,,,,,,,,,,,,,,,,,,,,,,,,,,,288.9900478,288.9985763000004,288.9985763000004,289.85106389999964,b,1.0,0.8388639000004332,,,,,,sub-070,1,stroop_test,59.96440512945589,
,,,,32.0,8.0,2.0,,,,,,,,,,,,,blau,blue,b,1.0,b,1.0,0.5432399999990594,,,,,,,,,,2.0,8.0,32.0,6.0,289.8651890000001,,,,,,,,,,,,,,,,,289.85159810000005,291.0652274000004,291.8651566000008,291.850214600001,,,,,,,,,,,,,,,,,,,,,,,,,,,,,,,,,,,291.85097289999976,291.8651566000008,291.8651566000008,292.4171788000004,b,1.0,0.5432399999990594,,,,,,sub-070,1,stroop_test,59.96440512945589,
,,,,33.0,9.0,2.0,,,,,,,,,,,,,blau,yellow,g,0.0,g,1.0,0.9122931999991124,,,,,,,,,,2.0,9.0,33.0,7.0,292.4317532999994,,,,,,,,,,,,,,,,,292.41772499999934,293.6320429999996,294.43194050000056,294.41652840000097,,,,,,,,,,,,,,,,,,,,,,,,,,,,,,,,,,,294.4173133000004,294.43194050000056,294.43194050000056,295.3510485999996,g,1.0,0.9122931999991124,,,,,,sub-070,1,stroop_test,59.96440512945589,
,,,,34.0,10.0,2.0,,,,,,,,,,,,,gelb,blue,b,0.0,b,1.0,0.748387300000104,,,,,,,,,,2.0,10.0,34.0,9.0,295.3652196000003,,,,,,,,,,,,,,,,,295.35173009999926,296.1650962999993,296.96508659999927,296.94968139999946,,,,,,,,,,,,,,,,,,,,,,,,,,,,,,,,,,,296.95727420000003,296.96508659999927,296.96508659999927,297.7174560000003,b,1.0,0.748387300000104,,,,,,sub-070,1,stroop_test,59.96440512945589,
,,,,35.0,11.0,2.0,,,,,,,,,,,,,blau,red,r,0.0,r,1.0,0.6074089000012464,,,,,,,,,,2.0,11.0,35.0,4.0,297.73176280000007,,,,,,,,,,,,,,,,,297.71812820000014,298.9318475,299.7321413999998,299.7163658999998,,,,,,,,,,,,,,,,,,,,,,,,,,,,,,,,,,,299.72262260000025,299.7321413999998,299.7321413999998,300.35061880000103,r,1.0,0.6074089000012464,,,,,,sub-070,1,stroop_test,59.96440512945589,
,,,,36.0,0.0,3.0,,,,,,,,,,,,,rot,red,r,1.0,r,1.0,0.4978310999995301,,,,,,,,,,3.0,0.0,36.0,0.0,300.3654516000006,,,,,,,,,,,,,,,,,300.3511767,301.1652279000009,301.9650794999998,301.95005520000086,,,,,,,,,,,,,,,,,,,,,,,,,,,,,,,,,,,301.95604660000026,301.9650794999998,301.9650794999998,302.4673356000003,r,1.0,0.4978310999995301,,,,,,sub-070,1,stroop_test,59.96440512945589,
,,,,37.0,1.0,3.0,,,,,,,,,,,,,rot,yellow,g,0.0,g,1.0,1.3571033000007446,,,,,,,,,,3.0,1.0,37.0,3.0,302.48205919999964,,,,,,,,,,,,,,,,,302.4681010000004,303.6818079000004,304.4815610000005,304.4671417999998,,,,,,,,,,,,,,,,,,,,,,,,,,,,,,,,,,,304.4679061000006,304.4815610000005,304.4815610000005,305.8512322000006,g,1.0,1.3571033000007446,,,,,,sub-070,1,stroop_test,59.96440512945589,
,,,,38.0,2.0,3.0,,,,,,,,,,,,,rot,blue,b,0.0,b,1.0,1.3542096999990465,,,,,,,,,,3.0,2.0,38.0,2.0,305.8652254999997,,,,,,,,,,,,,,,,,305.8518870000007,305.9651236999998,306.7656999999999,306.7500103000002,,,,,,,,,,,,,,,,,,,,,,,,,,,,,,,,,,,306.75072250000085,306.7656999999999,306.7656999999999,308.1338004999998,b,1.0,1.3542096999990465,,,,,,sub-070,1,stroop_test,59.96440512945589,
,,,,39.0,3.0,3.0,,,,,,,,,,,,,gelb,yellow,g,1.0,g,1.0,1.0002667000007932,,,,,,,,,,3.0,3.0,39.0,11.0,308.1483766000001,,,,,,,,,,,,,,,,,308.1343087000005,308.2487729000004,309.04908780000005,309.03315420000035,,,,,,,,,,,,,,,,,,,,,,,,,,,,,,,,,,,309.0393454999994,309.04908780000005,309.04908780000005,310.0514266000009,g,1.0,1.0002667000007932,,,,,,sub-070,1,stroop_test,59.96440512945589,
,,,,40.0,4.0,3.0,,,,,,,,,,,,,blau,blue,b,1.0,b,1.0,0.7465637999994215,,,,,,,,,,3.0,4.0,40.0,5.0,310.06531969999924,,,,,,,,,,,,,,,,,310.0519528999994,310.4153772999998,311.2150774000001,311.2001866999999,,,,,,,,,,,,,,,,,,,,,,,,,,,,,,,,,,,311.20681820000027,311.2150774000001,311.2150774000001,311.9679868000003,b,1.0,0.7465637999994215,,,,,,sub-070,1,stroop_test,59.96440512945589,
,,,,41.0,5.0,3.0,,,,,,,,,,,,,gelb,yellow,g,1.0,g,1.0,0.8775439000000915,,,,,,,,,,3.0,5.0,41.0,10.0,311.981905300001,,,,,,,,,,,,,,,,,311.9686610000008,312.7818447999998,313.58184299999994,313.5664835000007,,,,,,,,,,,,,,,,,,,,,,,,,,,,,,,,,,,313.5744864999997,313.58184299999994,313.58184299999994,314.46820370000023,g,1.0,0.8775439000000915,,,,,,sub-070,1,stroop_test,59.96440512945589,
,,,,42.0,6.0,3.0,,,,,,,,,,,,,gelb,red,r,0.0,r,1.0,1.4017026000001351,,,,,,,,,,3.0,6.0,42.0,8.0,314.4816286999994,,,,,,,,,,,,,,,,,314.46874969999953,314.8318546999999,315.6318680000004,315.61705660000007,,,,,,,,,,,,,,,,,,,,,,,,,,,,,,,,,,,315.6177195,315.6318680000004,315.6318680000004,317.05047879999984,r,1.0,1.4017026000001351,,,,,,sub-070,1,stroop_test,59.96440512945589,
,,,,43.0,7.0,3.0,,,,,,,,,,,,,blau,blue,b,1.0,b,1.0,0.961838200000784,,,,,,,,,,3.0,7.0,43.0,6.0,317.0650862000002,,,,,,,,,,,,,,,,,317.0510697999998,317.16517340000064,317.96506640000007,317.94987709999987,,,,,,,,,,,,,,,,,,,,,,,,,,,,,,,,,,,317.95599890000085,317.96506640000007,317.96506640000007,318.9343136000007,b,1.0,0.961838200000784,,,,,,sub-070,1,stroop_test,59.96440512945589,
,,,,44.0,8.0,3.0,,,,,,,,,,,,,rot,red,r,1.0,r,1.0,1.1356980000000476,,,,,,,,,,3.0,8.0,44.0,1.0,318.9483753999993,,,,,,,,,,,,,,,,,318.9351165999997,319.7484989000004,320.5484247000004,320.53377720000026,,,,,,,,,,,,,,,,,,,,,,,,,,,,,,,,,,,320.53953490000094,320.5484247000004,320.5484247000004,321.7012360000008,r,1.0,1.1356980000000476,,,,,,sub-070,1,stroop_test,59.96440512945589,
,,,,45.0,9.0,3.0,,,,,,,,,,,,,blau,red,r,0.0,r,1.0,1.4750353999988874,,,,,,,,,,3.0,9.0,45.0,4.0,321.7152593999999,,,,,,,,,,,,,,,,,321.70183850000103,322.9151782000008,323.71515309999995,323.70010209999964,,,,,,,,,,,,,,,,,,,,,,,,,,,,,,,,,,,323.7069730000003,323.71515309999995,323.71515309999995,325.20042830000057,r,1.0,1.4750353999988874,,,,,,sub-070,1,stroop_test,59.96440512945589,
,,,,46.0,10.0,3.0,,,,,,,,,,,,,gelb,blue,b,0.0,b,1.0,0.8815940999993472,,,,,,,,,,3.0,10.0,46.0,9.0,325.21512900000016,,,,,,,,,,,,,,,,,325.20104569999967,325.5655965999995,326.36519600000065,326.34973999999966,,,,,,,,,,,,,,,,,,,,,,,,,,,,,,,,,,,326.3558955000008,326.36519600000065,326.36519600000065,327.2507392999996,b,1.0,0.8815940999993472,,,,,,sub-070,1,stroop_test,59.96440512945589,
,,,,47.0,11.0,3.0,,,,,,,,,,,,,blau,yellow,g,0.0,g,1.0,0.8979785999999876,,,,,,,,,,3.0,11.0,47.0,7.0,327.2652316999993,,,,,,,,,,,,,,,,,327.2513507999993,327.61507530000017,328.4149163000002,328.4001855000006,,,,,,,,,,,,,,,,,,,,,,,,,,,,,,,,,,,328.4075448000003,328.4149163000002,328.4149163000002,329.31704790000003,g,1.0,0.8979785999999876,,,,,,sub-070,1,stroop_test,59.96440512945589,
,,,,48.0,0.0,4.0,,,,,,,,,,,,,blau,blue,b,1.0,b,1.0,1.806743600000118,,,,,,,,,,4.0,0.0,48.0,5.0,329.33173030000034,,,,,,,,,,,,,,,,,329.3181194000008,330.13193150000006,330.9317484000003,330.9164548000008,,,,,,,,,,,,,,,,,,,,,,,,,,,,,,,,,,,330.9170783999998,330.9317484000003,330.9317484000003,332.7509609000008,b,1.0,1.806743600000118,,,,,,sub-070,1,stroop_test,59.96440512945589,
,,,,49.0,1.0,4.0,,,,,,,,,,,,,rot,blue,b,0.0,b,1.0,0.7373881000003166,,,,,,,,,,4.0,1.0,49.0,2.0,332.76508400000057,,,,,,,,,,,,,,,,,332.7516727000002,333.1152751999998,333.9150587999993,333.9003169000007,,,,,,,,,,,,,,,,,,,,,,,,,,,,,,,,,,,333.9063392999997,333.9150587999993,333.9150587999993,334.6677830000008,b,1.0,0.7373881000003166,,,,,,sub-070,1,stroop_test,59.96440512945589,
,,,,50.0,2.0,4.0,,,,,,,,,,,,,rot,yellow,g,0.0,g,1.0,0.906323799999882,,,,,,,,,,4.0,2.0,50.0,3.0,334.6815518000003,,,,,,,,,,,,,,,,,334.66845939999985,334.78191250000054,335.5818199999994,335.56621780000023,,,,,,,,,,,,,,,,,,,,,,,,,,,,,,,,,,,335.5669815000001,335.5818199999994,335.5818199999994,336.5015734999997,g,1.0,0.906323799999882,,,,,,sub-070,1,stroop_test,59.96440512945589,
,,,,51.0,3.0,4.0,,,,,,,,,,,,,rot,red,r,1.0,r,1.0,1.148567499998535,,,,,,,,,,4.0,3.0,51.0,1.0,336.5150446000007,,,,,,,,,,,,,,,,,336.5028304999996,336.6152094000008,337.4150721999995,337.39959610000005,,,,,,,,,,,,,,,,,,,,,,,,,,,,,,,,,,,337.400313600001,337.4150721999995,337.4150721999995,338.56759650000095,r,1.0,1.148567499998535,,,,,,sub-070,1,stroop_test,59.96440512945589,
,,,,52.0,4.0,4.0,,,,,,,,,,,,,blau,blue,b,1.0,b,1.0,0.844344799999817,,,,,,,,,,4.0,4.0,52.0,6.0,338.58191369999986,,,,,,,,,,,,,,,,,338.5688446999993,338.9317780000001,339.73181619999923,339.71656989999974,,,,,,,,,,,,,,,,,,,,,,,,,,,,,,,,,,,339.7228926000007,339.73181619999923,339.73181619999923,340.58404619999965,b,1.0,0.844344799999817,,,,,,sub-070,1,stroop_test,59.96440512945589,
,,,,53.0,5.0,4.0,,,,,,,,,,,,,rot,red,r,1.0,r,1.0,1.558153800000582,,,,,,,,,,4.0,5.0,53.0,0.0,340.5984236000004,,,,,,,,,,,,,,,,,340.5845972999996,341.39831819999927,342.1985748999996,342.18320870000025,,,,,,,,,,,,,,,,,,,,,,,,,,,,,,,,,,,342.18912939999973,342.1985748999996,342.1985748999996,343.7676904,r,1.0,1.558153800000582,,,,,,sub-070,1,stroop_test,59.96440512945589,
,,,,54.0,6.0,4.0,,,,,,,,,,,,,gelb,blue,b,0.0,b,1.0,0.9448935000000348,,,,,,,,,,4.0,6.0,54.0,9.0,343.7817587999998,,,,,,,,,,,,,,,,,343.7683780999996,344.58192039999994,345.3816074000006,345.3663725000006,,,,,,,,,,,,,,,,,,,,,,,,,,,,,,,,,,,345.373099800001,345.3816074000006,345.3816074000006,346.3338595999994,b,1.0,0.9448935000000348,,,,,,sub-070,1,stroop_test,59.96440512945589,
,,,,55.0,7.0,4.0,,,,,,,,,,,,,blau,yellow,g,0.0,g,1.0,0.995811099999628,,,,,,,,,,4.0,7.0,55.0,7.0,346.34840409999924,,,,,,,,,,,,,,,,,346.3343998,346.4484181000007,347.24831129999984,347.2329690000006,,,,,,,,,,,,,,,,,,,,,,,,,,,,,,,,,,,347.2399217000002,347.24831129999984,347.24831129999984,348.2512100000004,g,1.0,0.995811099999628,,,,,,sub-070,1,stroop_test,59.96440512945589,
,,,,56.0,8.0,4.0,,,,,,,,,,,,,blau,red,r,0.0,r,1.0,1.6414951999995535,,,,,,,,,,4.0,8.0,56.0,4.0,348.2651397999998,,,,,,,,,,,,,,,,,348.25177579999945,349.4653044000006,350.2651728000001,350.25011129999984,,,,,,,,,,,,,,,,,,,,,,,,,,,,,,,,,,,350.2507879999994,350.2651728000001,350.2651728000001,351.91701699999976,r,1.0,1.6414951999995535,,,,,,sub-070,1,stroop_test,59.96440512945589,
,,,,57.0,9.0,4.0,,,,,,,,,,,,,gelb,red,r,0.0,r,1.0,0.5441544000004797,,,,,,,,,,4.0,9.0,57.0,8.0,351.93167580000045,,,,,,,,,,,,,,,,,351.9175400999993,353.1315666999999,353.93196100000023,353.9167080999996,,,,,,,,,,,,,,,,,,,,,,,,,,,,,,,,,,,353.9246416999995,353.93196100000023,353.93196100000023,354.4838388999997,r,1.0,0.5441544000004797,,,,,,sub-070,1,stroop_test,59.96440512945589,
,,,,58.0,10.0,4.0,,,,,,,,,,,,,gelb,yellow,g,1.0,g,1.0,0.8371334000003117,,,,,,,,,,4.0,10.0,58.0,11.0,354.49825690000034,,,,,,,,,,,,,,,,,354.48434629999974,354.8486995000003,355.6483769000006,355.63334810000015,,,,,,,,,,,,,,,,,,,,,,,,,,,,,,,,,,,355.6340056000008,355.6483769000006,355.6483769000006,356.5007704,g,1.0,0.8371334000003117,,,,,,sub-070,1,stroop_test,59.96440512945589,
,,,,59.0,11.0,4.0,,,,,,,,,,,,,gelb,yellow,g,1.0,g,1.0,0.5784093000002031,,,,,,,,,,4.0,11.0,59.0,10.0,356.5151036999996,,,,,,,,,,,,,,,,,356.5014415000005,356.61522350000087,357.4151022999995,357.3995587999998,,,,,,,,,,,,,,,,,,,,,,,,,,,,,,,,,,,357.40030040000056,357.4151022999995,357.4151022999995,358.0009910000008,g,1.0,0.5784093000002031,,,,,,sub-070,1,stroop_test,59.96440512945589,
,,,,60.0,0.0,5.0,,,,,,,,,,,,,gelb,blue,b,0.0,b,1.0,0.7202799999995477,,,,,,,,,,5.0,0.0,60.0,9.0,358.0149416000004,,,,,,,,,,,,,,,,,358.0015432,359.21448129999953,360.0150257000005,359.99964329999966,,,,,,,,,,,,,,,,,,,,,,,,,,,,,,,,,,,360.0003121000009,360.0150257000005,360.0150257000005,360.7502647000001,b,1.0,0.7202799999995477,,,,,,sub-070,1,stroop_test,59.96440512945589,
,,,,61.0,1.0,5.0,,,,,,,,,,,,,rot,blue,b,0.0,b,1.0,0.4916558999993867,,,,,,,,,,5.0,1.0,61.0,2.0,360.7653943999994,,,,,,,,,,,,,,,,,360.7513113999994,361.9651197999992,362.7651091999997,362.7501692000005,,,,,,,,,,,,,,,,,,,,,,,,,,,,,,,,,,,362.75541879999946,362.7651091999997,362.7651091999997,363.2668061000004,b,1.0,0.4916558999993867,,,,,,sub-070,1,stroop_test,59.96440512945589,
,,,,62.0,2.0,5.0,,,,,,,,,,,,,rot,yellow,g,0.0,g,1.0,0.8148617999995622,,,,,,,,,,5.0,2.0,62.0,3.0,363.2816394000001,,,,,,,,,,,,,,,,,363.2673190999994,363.6316858000009,364.4318421000007,364.4164885999999,,,,,,,,,,,,,,,,,,,,,,,,,,,,,,,,,,,364.4171908000008,364.4318421000007,364.4318421000007,365.2510796000006,g,1.0,0.8148617999995622,,,,,,sub-070,1,stroop_test,59.96440512945589,
,,,,63.0,3.0,5.0,,,,,,,,,,,,,gelb,red,r,0.0,r,1.0,0.9831453999995574,,,,,,,,,,5.0,3.0,63.0,8.0,365.2651575,,,,,,,,,,,,,,,,,365.25193129999934,366.4651326000003,367.2649199999996,367.2500053999993,,,,,,,,,,,,,,,,,,,,,,,,,,,,,,,,,,,367.2563322999995,367.2649199999996,367.2649199999996,368.2509408999995,r,1.0,0.9831453999995574,,,,,,sub-070,1,stroop_test,59.96440512945589,
,,,,64.0,4.0,5.0,,,,,,,,,,,,,rot,red,r,1.0,r,1.0,0.5320254000016575,,,,,,,,,,5.0,4.0,64.0,1.0,368.2650475999999,,,,,,,,,,,,,,,,,368.2514933000002,368.61498799999936,369.4150996000008,369.4000629000002,,,,,,,,,,,,,,,,,,,,,,,,,,,,,,,,,,,369.4063817999995,369.4150996000008,369.4150996000008,369.9511139999995,r,1.0,0.5320254000016575,,,,,,sub-070,1,stroop_test,59.96440512945589,
,,,,65.0,5.0,5.0,,,,,,,,,,,,,blau,blue,b,1.0,b,1.0,0.6662685999999667,,,,,,,,,,5.0,5.0,65.0,6.0,369.9651899,,,,,,,,,,,,,,,,,369.9518005000009,370.7651786000006,371.56517899999926,371.54965790000097,,,,,,,,,,,,,,,,,,,,,,,,,,,,,,,,,,,371.5555526999997,371.56517899999926,371.56517899999926,372.23538089999965,b,1.0,0.6662685999999667,,,,,,sub-070,1,stroop_test,59.96440512945589,
,,,,66.0,6.0,5.0,,,,,,,,,,,,,rot,red,r,1.0,r,1.0,0.8027577000011661,,,,,,,,,,5.0,6.0,66.0,0.0,372.2483367999994,,,,,,,,,,,,,,,,,372.2358887999999,373.4486538000001,374.2485257000008,374.23314630000095,,,,,,,,,,,,,,,,,,,,,,,,,,,,,,,,,,,374.2387763999996,374.2485257000008,374.2485257000008,375.06717430000026,r,1.0,0.8027577000011661,,,,,,sub-070,1,stroop_test,59.96440512945589,
,,,,67.0,7.0,5.0,,,,,,,,,,,,,blau,red,r,0.0,r,1.0,0.6692966000009619,,,,,,,,,,5.0,7.0,67.0,4.0,375.0817272000004,,,,,,,,,,,,,,,,,375.0676913000007,375.8812853,376.68160089999947,376.66661399999975,,,,,,,,,,,,,,,,,,,,,,,,,,,,,,,,,,,376.6715430000004,376.68160089999947,376.68160089999947,377.36734350000006,r,1.0,0.6692966000009619,,,,,,sub-070,1,stroop_test,59.96440512945589,
,,,,68.0,8.0,5.0,,,,,,,,,,,,,blau,blue,b,1.0,b,1.0,0.7428402999994432,,,,,,,,,,5.0,8.0,68.0,5.0,377.381547500001,,,,,,,,,,,,,,,,,377.3678579000007,377.73152990000017,378.5318265000005,378.5161953999996,,,,,,,,,,,,,,,,,,,,,,,,,,,,,,,,,,,378.5172039000008,378.5318265000005,378.5318265000005,379.2841095999993,b,1.0,0.7428402999994432,,,,,,sub-070,1,stroop_test,59.96440512945589,
,,,,69.0,9.0,5.0,,,,,,,,,,,,,gelb,yellow,g,1.0,g,1.0,0.891663399999743,,,,,,,,,,5.0,9.0,69.0,11.0,379.2983798000005,,,,,,,,,,,,,,,,,379.2847638000003,379.3985862999998,380.1982492999996,380.1830551999992,,,,,,,,,,,,,,,,,,,,,,,,,,,,,,,,,,,380.18882929999927,380.1982492999996,380.1982492999996,381.10086319999937,g,1.0,0.891663399999743,,,,,,sub-070,1,stroop_test,59.96440512945589,
,,,,70.0,10.0,5.0,,,,,,,,,,,,,blau,yellow,g,0.0,g,1.0,0.5338381000001391,,,,,,,,,,5.0,10.0,70.0,7.0,381.1153362999994,,,,,,,,,,,,,,,,,381.1021438000007,381.4652642000001,382.2661403000002,382.2499748000009,,,,,,,,,,,,,,,,,,,,,,,,,,,,,,,,,,,382.2590178999999,382.2661403000002,382.2661403000002,382.8164969999998,g,1.0,0.5338381000001391,,,,,,sub-070,1,stroop_test,59.96440512945589,
,,,,71.0,11.0,5.0,,,,,,,,,,,,,gelb,yellow,g,1.0,g,1.0,0.6169587999993382,,,,,,,,,,5.0,11.0,71.0,10.0,382.8315619999994,,,,,,,,,,,,,,,,,382.8170188000004,384.0315000999999,384.83191649999935,384.8163392000006,,,,,,,,,,,,,,,,,,,,,,,,,,,,,,,,,,,384.8228660999994,384.83191649999935,384.83191649999935,385.4513167999994,g,1.0,0.6169587999993382,,,,,,sub-070,1,stroop_test,59.96440512945589,
,,,,72.0,0.0,6.0,,,,,,,,,,,,,rot,blue,b,0.0,b,1.0,1.465744299999642,,,,,,,,,,6.0,0.0,72.0,2.0,385.4649972999996,,,,,,,,,,,,,,,,,385.4519547,386.6651879000001,387.4648844000003,387.4496772000002,,,,,,,,,,,,,,,,,,,,,,,,,,,,,,,,,,,387.4557022000008,387.4648844000003,387.4648844000003,388.9341521999995,b,1.0,1.465744299999642,,,,,,sub-070,1,stroop_test,59.96440512945589,
,,,,73.0,1.0,6.0,,,,,,,,,,,,,gelb,yellow,g,1.0,g,1.0,0.8213246999985131,,,,,,,,,,6.0,1.0,73.0,11.0,388.9479647000008,,,,,,,,,,,,,,,,,388.93472699999984,389.29872389999946,390.0982332000003,390.0834572999993,,,,,,,,,,,,,,,,,,,,,,,,,,,,,,,,,,,390.09053250000034,390.0982332000003,390.0982332000003,390.9334808000003,g,1.0,0.8213246999985131,,,,,,sub-070,1,stroop_test,59.96440512945589,
,,,,74.0,2.0,6.0,,,,,,,,,,,,,rot,yellow,g,0.0,g,1.0,0.7710844999983237,,,,,,,,,,6.0,2.0,74.0,3.0,390.9484224999997,,,,,,,,,,,,,,,,,390.9340009000007,391.2983645000004,392.09832520000055,392.0830638999996,,,,,,,,,,,,,,,,,,,,,,,,,,,,,,,,,,,392.0898581000001,392.09832520000055,392.09832520000055,392.8842265000003,g,1.0,0.7710844999983237,,,,,,sub-070,1,stroop_test,59.96440512945589,
,,,,75.0,3.0,6.0,,,,,,,,,,,,,rot,red,r,1.0,r,1.0,0.8970159999989846,,,,,,,,,,6.0,3.0,75.0,0.0,392.8981435000005,,,,,,,,,,,,,,,,,392.8848603000006,392.9982154000008,393.79850129999977,393.7830205999999,,,,,,,,,,,,,,,,,,,,,,,,,,,,,,,,,,,393.7839574999998,393.79850129999977,393.79850129999977,394.7002981000005,r,1.0,0.8970159999989846,,,,,,sub-070,1,stroop_test,59.96440512945589,
,,,,76.0,4.0,6.0,,,,,,,,,,,,,gelb,blue,b,0.0,b,1.0,0.6767362999999023,,,,,,,,,,6.0,4.0,76.0,9.0,394.7148871000009,,,,,,,,,,,,,,,,,394.70101609999983,395.0648769,395.86507580000034,395.84953870000027,,,,,,,,,,,,,,,,,,,,,,,,,,,,,,,,,,,395.8566805999999,395.86507580000034,395.86507580000034,396.5505666000008,b,1.0,0.6767362999999023,,,,,,sub-070,1,stroop_test,59.96440512945589,
,,,,77.0,5.0,6.0,,,,,,,,,,,,,rot,red,r,1.0,r,1.0,0.6593018999992637,,,,,,,,,,6.0,5.0,77.0,1.0,396.5651486000006,,,,,,,,,,,,,,,,,396.551162400001,397.3653381999993,398.1652303999999,398.1496330999999,,,,,,,,,,,,,,,,,,,,,,,,,,,,,,,,,,,398.15534260000095,398.1652303999999,398.1652303999999,398.83380229999966,r,1.0,0.6593018999992637,,,,,,sub-070,1,stroop_test,59.96440512945589,
,,,,78.0,6.0,6.0,,,,,,,,,,,,,gelb,red,r,0.0,r,1.0,1.133229900000515,,,,,,,,,,6.0,6.0,78.0,8.0,398.8482678,,,,,,,,,,,,,,,,,398.8344653000004,399.648226700001,400.44823689999976,400.4331175000007,,,,,,,,,,,,,,,,,,,,,,,,,,,,,,,,,,,400.4392325000008,400.44823689999976,400.44823689999976,401.5837659999997,r,1.0,1.133229900000515,,,,,,sub-070,1,stroop_test,59.96440512945589,
,,,,79.0,7.0,6.0,,,,,,,,,,,,,gelb,yellow,g,1.0,g,1.0,0.8662241999991238,,,,,,,,,,6.0,7.0,79.0,10.0,401.5977313999993,,,,,,,,,,,,,,,,,401.5843771,402.7981393999999,403.5983481000003,403.58350020000034,,,,,,,,,,,,,,,,,,,,,,,,,,,,,,,,,,,403.5841452000004,403.5983481000003,403.5983481000003,404.4675895,g,1.0,0.8662241999991238,,,,,,sub-070,1,stroop_test,59.96440512945589,
,,,,80.0,8.0,6.0,,,,,,,,,,,,,blau,blue,b,1.0,b,1.0,0.6862805999990087,,,,,,,,,,6.0,8.0,80.0,6.0,404.4816248999996,,,,,,,,,,,,,,,,,404.4681400999998,404.8315160000002,405.6314911999998,405.6167440000008,,,,,,,,,,,,,,,,,,,,,,,,,,,,,,,,,,,405.6241181000005,405.6314911999998,405.6314911999998,406.3341775000008,b,1.0,0.6862805999990087,,,,,,sub-070,1,stroop_test,59.96440512945589,
,,,,81.0,9.0,6.0,,,,,,,,,,,,,blau,red,r,0.0,r,1.0,1.0444410000000062,,,,,,,,,,6.0,9.0,81.0,4.0,406.34861289999935,,,,,,,,,,,,,,,,,406.3347732000002,406.69824100000005,407.4982380000001,407.4828742999998,,,,,,,,,,,,,,,,,,,,,,,,,,,,,,,,,,,407.4835722000007,407.4982380000001,407.4982380000001,408.55136200000015,r,1.0,1.0444410000000062,,,,,,sub-070,1,stroop_test,59.96440512945589,
,,,,82.0,10.0,6.0,,,,,,,,,,,,,blau,yellow,g,0.0,g,1.0,0.8771792000006826,,,,,,,,,,6.0,10.0,82.0,7.0,408.5648610000008,,,,,,,,,,,,,,,,,408.5519834000006,408.9146242999996,409.7152523000004,409.7001643000003,,,,,,,,,,,,,,,,,,,,,,,,,,,,,,,,,,,409.7008554999993,409.7152523000004,409.7152523000004,410.6002542999995,g,1.0,0.8771792000006826,,,,,,sub-070,1,stroop_test,59.96440512945589,
,,,,83.0,11.0,6.0,,,,,,,,,,,,,blau,blue,b,1.0,b,1.0,0.8674307000001136,,,,,,,,,,6.0,11.0,83.0,5.0,410.61513560000094,,,,,,,,,,,,,,,,,410.6007692000003,411.4149785999998,412.21503870000015,412.1999171000007,,,,,,,,,,,,,,,,,,,,,,,,,,,,,,,,,,,412.20057350000025,412.21503870000015,412.21503870000015,413.1006653000004,b,1.0,0.8674307000001136,,,,,,sub-070,1,stroop_test,59.96440512945589,
,,,,84.0,0.0,7.0,,,,,,,,,,,,,rot,red,r,1.0,r,1.0,0.8779789999989589,,,,,,,,,,7.0,0.0,84.0,0.0,413.1151437999997,,,,,,,,,,,,,,,,,413.1012848999999,414.3150177999996,415.1147664,415.1001446000009,,,,,,,,,,,,,,,,,,,,,,,,,,,,,,,,,,,415.1070932000002,415.1147664,415.1147664,416.00005489999967,r,1.0,0.8779789999989589,,,,,,sub-070,1,stroop_test,59.96440512945589,
,,,,85.0,1.0,7.0,,,,,,,,,,,,,rot,blue,b,0.0,b,1.0,1.0419951000003491,,,,,,,,,,7.0,1.0,85.0,2.0,416.01482940000096,,,,,,,,,,,,,,,,,416.000697200001,416.3650564,417.1650076000005,417.1492717000001,,,,,,,,,,,,,,,,,,,,,,,,,,,,,,,,,,,417.1499602000004,417.1650076000005,417.1650076000005,418.21796170000016,b,1.0,1.0419951000003491,,,,,,sub-070,1,stroop_test,59.96440512945589,
,,,,86.0,2.0,7.0,,,,,,,,,,,,,gelb,yellow,g,1.0,g,1.0,0.6565472999991471,,,,,,,,,,7.0,2.0,86.0,10.0,418.2317445000008,,,,,,,,,,,,,,,,,418.2185525999994,418.5817165999997,419.3815691,419.3665196000002,,,,,,,,,,,,,,,,,,,,,,,,,,,,,,,,,,,419.3727417999999,419.3815691,419.3815691,420.0507018000008,g,1.0,0.6565472999991471,,,,,,sub-070,1,stroop_test,59.96440512945589,
,,,,87.0,3.0,7.0,,,,,,,,,,,,,blau,blue,b,1.0,b,1.0,0.9223605999995924,,,,,,,,,,7.0,3.0,87.0,5.0,420.06475090000094,,,,,,,,,,,,,,,,,420.05129320000015,420.8648711000005,421.664883200001,421.6499339000002,,,,,,,,,,,,,,,,,,,,,,,,,,,,,,,,,,,421.6553452999997,421.664883200001,421.664883200001,422.6014063000002,b,1.0,0.9223605999995924,,,,,,sub-070,1,stroop_test,59.96440512945589,
,,,,88.0,4.0,7.0,,,,,,,,,,,,,gelb,blue,b,0.0,b,1.0,1.1298752000002423,,,,,,,,,,7.0,4.0,88.0,9.0,422.615221,,,,,,,,,,,,,,,,,422.6019785999997,422.9649986000004,423.76533519999975,423.7494824999994,,,,,,,,,,,,,,,,,,,,,,,,,,,,,,,,,,,423.7570931000009,423.76533519999975,423.76533519999975,424.9008064999998,b,1.0,1.1298752000002423,,,,,,sub-070,1,stroop_test,59.96440512945589,
,,,,89.0,5.0,7.0,,,,,,,,,,,,,gelb,red,r,0.0,r,1.0,0.871908799999801,,,,,,,,,,7.0,5.0,89.0,8.0,424.9149199000003,,,,,,,,,,,,,,,,,424.9013467999994,425.01505259999976,425.81505710000056,425.7995799,,,,,,,,,,,,,,,,,,,,,,,,,,,,,,,,,,,425.80029549999927,425.81505710000056,425.81505710000056,426.7012149000002,r,1.0,0.871908799999801,,,,,,sub-070,1,stroop_test,59.96440512945589,
,,,,90.0,6.0,7.0,,,,,,,,,,,,,rot,red,r,1.0,r,1.0,0.6845587999996496,,,,,,,,,,7.0,6.0,90.0,1.0,426.7151273,,,,,,,,,,,,,,,,,426.70182059999934,427.5148155000006,428.3152492999998,428.2999576000002,,,,,,,,,,,,,,,,,,,,,,,,,,,,,,,,,,,428.30599900000016,428.3152492999998,428.3152492999998,429.0167543000007,r,1.0,0.6845587999996496,,,,,,sub-070,1,stroop_test,59.96440512945589,
,,,,91.0,7.0,7.0,,,,,,,,,,,,,blau,red,r,0.0,r,1.0,1.3592410999990534,,,,,,,,,,7.0,7.0,91.0,4.0,429.0319077999993,,,,,,,,,,,,,,,,,429.0172765000007,429.8316594000007,430.6313976000001,430.6166604999999,,,,,,,,,,,,,,,,,,,,,,,,,,,,,,,,,,,430.6240414999993,430.6313976000001,430.6313976000001,432.0005142000009,r,1.0,1.3592410999990534,,,,,,sub-070,1,stroop_test,59.96440512945589,
,,,,92.0,8.0,7.0,,,,,,,,,,,,,blau,blue,b,1.0,b,1.0,0.6696464999986347,,,,,,,,,,7.0,8.0,92.0,6.0,432.0147543000003,,,,,,,,,,,,,,,,,432.0010272,432.8150396000001,433.6149163000009,433.6000363000003,,,,,,,,,,,,,,,,,,,,,,,,,,,,,,,,,,,433.6007107000005,433.6149163000009,433.6149163000009,434.3003515,b,1.0,0.6696464999986347,,,,,,sub-070,1,stroop_test,59.96440512945589,
,,,,93.0,9.0,7.0,,,,,,,,,,,,,gelb,yellow,g,1.0,g,1.0,0.7226102000004175,,,,,,,,,,7.0,9.0,93.0,11.0,434.3148684000007,,,,,,,,,,,,,,,,,434.3010231999997,435.5148697000004,436.3155248000003,436.2995449999999,,,,,,,,,,,,,,,,,,,,,,,,,,,,,,,,,,,436.3064142999992,436.3155248000003,436.3155248000003,437.0501576000006,g,1.0,0.7226102000004175,,,,,,sub-070,1,stroop_test,59.96440512945589,
,,,,94.0,10.0,7.0,,,,,,,,,,,,,rot,yellow,g,0.0,g,1.0,0.5816947000002983,,,,,,,,,,7.0,10.0,94.0,3.0,437.06481279999934,,,,,,,,,,,,,,,,,437.0507302999995,437.8648140999994,438.6647749999993,438.64992750000056,,,,,,,,,,,,,,,,,,,,,,,,,,,,,,,,,,,438.6559880000004,438.6647749999993,438.6647749999993,439.2511221000004,g,1.0,0.5816947000002983,,,,,,sub-070,1,stroop_test,59.96440512945589,
,,,,95.0,11.0,7.0,,,,,,,,,,,,,blau,yellow,g,0.0,g,1.0,0.6934598999996524,,,,,,,,,,7.0,11.0,95.0,7.0,439.2652527000009,,,,,,,,,,,,,,,,,439.25188720000006,439.6149277000004,440.4148927999995,440.3996152,,,,,,,,,,,,,,,,,,,,,,,,,,,,,,,,,,,440.40598280000086,440.4148927999995,440.4148927999995,441.1166186999999,g,1.0,0.6934598999996524,,,,,,sub-070,1,stroop_test,59.96440512945589,
,,,,96.0,0.0,8.0,,,,,,,,,,,,,blau,blue,b,1.0,b,1.0,0.7057855000002746,,,,,,,,,,8.0,0.0,96.0,5.0,441.1313981000003,,,,,,,,,,,,,,,,,441.11718830000063,442.3315134000004,443.13169299999936,443.1163993999999,,,,,,,,,,,,,,,,,,,,,,,,,,,,,,,,,,,443.1177972999994,443.13169299999936,443.13169299999936,443.8502773,b,1.0,0.7057855000002746,,,,,,sub-070,1,stroop_test,59.96440512945589,
,,,,97.0,1.0,8.0,,,,,,,,,,,,,rot,red,r,1.0,r,1.0,0.7197115999988455,,,,,,,,,,8.0,1.0,97.0,0.0,443.8648071999996,,,,,,,,,,,,,,,,,443.8513012999993,445.0647546,445.8650249000002,445.84943589999966,,,,,,,,,,,,,,,,,,,,,,,,,,,,,,,,,,,445.8556468000006,445.8650249000002,445.8650249000002,446.6008130999999,r,1.0,0.7197115999988455,,,,,,sub-070,1,stroop_test,59.96440512945589,
,,,,98.0,2.0,8.0,,,,,,,,,,,,,gelb,yellow,g,1.0,g,1.0,0.8741375999998127,,,,,,,,,,8.0,2.0,98.0,10.0,446.6150281000009,,,,,,,,,,,,,,,,,446.6014667,447.81517730000087,448.6149428000008,448.5996882,,,,,,,,,,,,,,,,,,,,,,,,,,,,,,,,,,,448.6073622999993,448.6149428000008,448.6149428000008,449.5003061999996,g,1.0,0.8741375999998127,,,,,,sub-070,1,stroop_test,59.96440512945589,
,,,,99.0,3.0,8.0,,,,,,,,,,,,,blau,red,r,0.0,r,1.0,1.7791931000010663,,,,,,,,,,8.0,3.0,99.0,4.0,449.5156821000001,,,,,,,,,,,,,,,,,449.5008180999994,449.8646587999992,450.6651278000009,450.6495756999993,,,,,,,,,,,,,,,,,,,,,,,,,,,,,,,,,,,450.6553702000001,450.6651278000009,450.6651278000009,452.45006020000073,r,1.0,1.7791931000010663,,,,,,sub-070,1,stroop_test,59.96440512945589,
,,,,100.0,4.0,8.0,,,,,,,,,,,,,gelb,blue,b,0.0,b,1.0,0.911748800001078,,,,,,,,,,8.0,4.0,100.0,9.0,452.46519199999966,,,,,,,,,,,,,,,,,452.4506961999996,452.8147112000006,453.6146934999997,453.6000822999995,,,,,,,,,,,,,,,,,,,,,,,,,,,,,,,,,,,453.6068336000008,453.6146934999997,453.6146934999997,454.5342536000008,b,1.0,0.911748800001078,,,,,,sub-070,1,stroop_test,59.96440512945589,
,,,,101.0,5.0,8.0,,,,,,,,,,,,,gelb,red,r,0.0,r,1.0,0.9197249000008014,,,,,,,,,,8.0,5.0,101.0,8.0,454.5481624999993,,,,,,,,,,,,,,,,,454.5348150000009,455.748223300001,456.5481094999996,456.5328002999995,,,,,,,,,,,,,,,,,,,,,,,,,,,,,,,,,,,456.5334452999996,456.5481094999996,456.5481094999996,457.48392090000016,r,1.0,0.9197249000008014,,,,,,sub-070,1,stroop_test,59.96440512945589,
,,,,102.0,6.0,8.0,,,,,,,,,,,,,gelb,yellow,g,1.0,g,1.0,0.9208141999988584,,,,,,,,,,8.0,6.0,102.0,11.0,457.4980259999993,,,,,,,,,,,,,,,,,457.4844441000005,457.59838619999937,458.3983871,458.38274550000096,,,,,,,,,,,,,,,,,,,,,,,,,,,,,,,,,,,458.3834776999993,458.3983871,458.3983871,459.3336737999998,g,1.0,0.9208141999988584,,,,,,sub-070,1,stroop_test,59.96440512945589,
,,,,103.0,7.0,8.0,,,,,,,,,,,,,rot,yellow,g,0.0,g,1.0,0.6490478000014264,,,,,,,,,,8.0,7.0,103.0,3.0,459.3481604999997,,,,,,,,,,,,,,,,,459.3342068000002,459.44798869999977,460.2481563000001,460.23339529999976,,,,,,,,,,,,,,,,,,,,,,,,,,,,,,,,,,,460.2392839999993,460.2481563000001,460.2481563000001,460.90054059999966,g,1.0,0.6490478000014264,,,,,,sub-070,1,stroop_test,59.96440512945589,
,,,,104.0,8.0,8.0,,,,,,,,,,,,,rot,red,r,1.0,r,1.0,0.7397804000011092,,,,,,,,,,8.0,8.0,104.0,1.0,460.91479059999983,,,,,,,,,,,,,,,,,460.9012327,461.7151168,462.5150622000001,462.4994315999993,,,,,,,,,,,,,,,,,,,,,,,,,,,,,,,,,,,462.5003601000008,462.5150622000001,462.5150622000001,463.26701850000063,r,1.0,0.7397804000011092,,,,,,sub-070,1,stroop_test,59.96440512945589,
,,,,105.0,9.0,8.0,,,,,,,,,,,,,rot,blue,b,0.0,b,1.0,0.8431283999998413,,,,,,,,,,8.0,9.0,105.0,2.0,463.2814835999998,,,,,,,,,,,,,,,,,463.26759200000015,464.4813071999997,465.2817797000007,465.26634600000034,,,,,,,,,,,,,,,,,,,,,,,,,,,,,,,,,,,465.2670820999992,465.2817797000007,465.2817797000007,466.1341336999994,b,1.0,0.8431283999998413,,,,,,sub-070,1,stroop_test,59.96440512945589,
,,,,106.0,10.0,8.0,,,,,,,,,,,,,blau,yellow,g,0.0,g,1.0,1.4053301000003555,,,,,,,,,,8.0,10.0,106.0,7.0,466.1481086999993,,,,,,,,,,,,,,,,,466.1348175999992,466.4982192999996,467.2979797000007,467.2828300000001,,,,,,,,,,,,,,,,,,,,,,,,,,,,,,,,,,,467.2903975999998,467.2979797000007,467.2979797000007,468.7168836000001,g,1.0,1.4053301000003555,,,,,,sub-070,1,stroop_test,59.96440512945589,
,,,,107.0,11.0,8.0,,,,,,,,,,,,,blau,blue,b,1.0,b,1.0,1.1030899999987014,,,,,,,,,,8.0,11.0,107.0,6.0,468.73191229999975,,,,,,,,,,,,,,,,,468.7180824999996,468.8314231000004,469.6314110000003,469.6159568000003,,,,,,,,,,,,,,,,,,,,,,,,,,,,,,,,,,,469.6165717000004,469.6314110000003,469.6314110000003,470.75070140000025,b,1.0,1.1030899999987014,,,,,,sub-070,1,stroop_test,59.96440512945589,
,,,,108.0,0.0,9.0,,,,,,,,,,,,,gelb,red,r,0.0,r,1.0,0.7342759999992268,,,,,,,,,,9.0,0.0,108.0,8.0,470.7645706999992,,,,,,,,,,,,,,,,,470.7513436999998,471.5646964999996,472.3647046999995,472.34924300000057,,,,,,,,,,,,,,,,,,,,,,,,,,,,,,,,,,,472.3556833000002,472.3647046999995,472.3647046999995,473.1010102,r,1.0,0.7342759999992268,,,,,,sub-070,1,stroop_test,59.96440512945589,
,,,,109.0,1.0,9.0,,,,,,,,,,,,,blau,red,r,0.0,r,1.0,0.719998200000191,,,,,,,,,,9.0,1.0,109.0,4.0,473.1147139000004,,,,,,,,,,,,,,,,,473.1016098,474.314885400001,475.1152175000007,475.0994283,,,,,,,,,,,,,,,,,,,,,,,,,,,,,,,,,,,475.1051649000001,475.1152175000007,475.1152175000007,475.85025379999934,r,1.0,0.719998200000191,,,,,,sub-070,1,stroop_test,59.96440512945589,
,,,,110.0,2.0,9.0,,,,,,,,,,,,,gelb,yellow,g,1.0,g,1.0,0.7302732000007381,,,,,,,,,,9.0,2.0,110.0,10.0,475.8647077000005,,,,,,,,,,,,,,,,,475.8508337999992,476.66479810000055,477.464629600001,477.4499407999992,,,,,,,,,,,,,,,,,,,,,,,,,,,,,,,,,,,477.4564910000008,477.464629600001,477.464629600001,478.2000855999995,g,1.0,0.7302732000007381,,,,,,sub-070,1,stroop_test,59.96440512945589,
,,,,111.0,3.0,9.0,,,,,,,,,,,,,blau,blue,b,1.0,b,1.0,0.7869971000000078,,,,,,,,,,9.0,3.0,111.0,6.0,478.2147528999994,,,,,,,,,,,,,,,,,478.2005867000007,478.5649104999993,479.3647839999994,479.3496452,,,,,,,,,,,,,,,,,,,,,,,,,,,,,,,,,,,479.3568312999996,479.3647839999994,479.3647839999994,480.1667703999992,b,1.0,0.7869971000000078,,,,,,sub-070,1,stroop_test,59.96440512945589,
,,,,112.0,4.0,9.0,,,,,,,,,,,,,rot,blue,b,0.0,b,1.0,0.7771878000003198,,,,,,,,,,9.0,4.0,112.0,2.0,480.1813440999995,,,,,,,,,,,,,,,,,480.1672808999992,481.38150569999925,482.1819723000008,482.16659830000026,,,,,,,,,,,,,,,,,,,,,,,,,,,,,,,,,,,482.17191470000034,482.1819723000008,482.1819723000008,482.9673382000001,b,1.0,0.7771878000003198,,,,,,sub-070,1,stroop_test,59.96440512945589,
,,,,113.0,5.0,9.0,,,,,,,,,,,,,rot,red,r,1.0,r,1.0,1.485782499999914,,,,,,,,,,9.0,5.0,113.0,0.0,482.9814609999994,,,,,,,,,,,,,,,,,482.96793219999927,483.33133540000017,484.131341100001,484.1161764000008,,,,,,,,,,,,,,,,,,,,,,,,,,,,,,,,,,,484.1168994,484.131341100001,484.131341100001,485.6333797000007,r,1.0,1.485782499999914,,,,,,sub-070,1,stroop_test,59.96440512945589,
,,,,114.0,6.0,9.0,,,,,,,,,,,,,blau,blue,b,1.0,b,1.0,1.0204346000009537,,,,,,,,,,9.0,6.0,114.0,5.0,485.6479658000008,,,,,,,,,,,,,,,,,485.6339666000004,486.4479917000008,487.24789319999945,487.2331997000001,,,,,,,,,,,,,,,,,,,,,,,,,,,,,,,,,,,487.2395851000001,487.24789319999945,487.24789319999945,488.2832732999996,b,1.0,1.0204346000009537,,,,,,sub-070,1,stroop_test,59.96440512945589,
,,,,115.0,7.0,9.0,,,,,,,,,,,,,blau,yellow,g,0.0,g,1.0,1.0160335000000489,,,,,,,,,,9.0,7.0,115.0,7.0,488.29794500000025,,,,,,,,,,,,,,,,,488.2838759999995,488.6480544999995,489.4480452999997,489.4325652999996,,,,,,,,,,,,,,,,,,,,,,,,,,,,,,,,,,,489.4332988999995,489.4480452999997,489.4480452999997,490.4669183999995,g,1.0,1.0160335000000489,,,,,,sub-070,1,stroop_test,59.96440512945589,
,,,,116.0,8.0,9.0,,,,,,,,,,,,,rot,yellow,g,0.0,g,1.0,0.6892440999999963,,,,,,,,,,9.0,8.0,116.0,3.0,490.4814392999997,,,,,,,,,,,,,,,,,490.46747929999947,490.8313457999993,491.63150529999984,491.6160180999996,,,,,,,,,,,,,,,,,,,,,,,,,,,,,,,,,,,491.62130029999935,491.63150529999984,491.63150529999984,492.3336588000002,g,1.0,0.6892440999999963,,,,,,sub-070,1,stroop_test,59.96440512945589,
,,,,117.0,9.0,9.0,,,,,,,,,,,,,gelb,yellow,g,1.0,g,1.0,0.9087830000007672,,,,,,,,,,9.0,9.0,117.0,11.0,492.3477894000007,,,,,,,,,,,,,,,,,492.33420579999984,492.44823689999976,493.2480796,493.23261420000017,,,,,,,,,,,,,,,,,,,,,,,,,,,,,,,,,,,493.2387089000004,493.2480796,493.2480796,494.16717530000096,g,1.0,0.9087830000007672,,,,,,sub-070,1,stroop_test,59.96440512945589,
,,,,118.0,10.0,9.0,,,,,,,,,,,,,rot,red,r,1.0,r,1.0,1.156582300000082,,,,,,,,,,9.0,10.0,118.0,1.0,494.1817455,,,,,,,,,,,,,,,,,494.16774780000014,494.2816662999994,495.0810483000005,495.0653517999999,,,,,,,,,,,,,,,,,,,,,,,,,,,,,,,,,,,495.0702290999998,495.0810483000005,495.0810483000005,496.2501128999993,r,1.0,1.156582300000082,,,,,,sub-070,1,stroop_test,59.96440512945589,
,,,,119.0,11.0,9.0,,,,,,,,,,,,,gelb,blue,b,0.0,b,1.0,0.6167518999991444,,,,,,,,,,9.0,11.0,119.0,9.0,496.2648970999999,,,,,,,,,,,,,,,,,496.2506250999995,496.6147492,497.4148033000001,497.3992392,,,,,,,,,,,,,,,,,,,,,,,,,,,,,,,,,,,497.4054393999995,497.4148033000001,497.4148033000001,498.0343804000004,b,1.0,0.6167518999991444,,,,,,sub-070,1,stroop_test,59.96440512945589,
,,,,,,,,,,,,,,,,,,,,,,,,,,,,,,,,,,,,,,,,,,,,,,,,,,,,,,,,,,,,,,,,,,,,,,,,,,,,,,,,,,,,,,,,,,,,,,,,,,,,,,498.0346313000009,498.048381300001,503.0481218000005,503.0327163000002,sub-070,1,stroop_test,59.96440512945589,
