direction,corrAns,thisN,thisTrialN,thisRepN,respDots.keys,respDots.corr,respDots.rt,respDots.duration,randomInstr,respRandomInstr.keys,respRandomInstr.rt,respRandomInstr.duration,practice_trials.thisRepN,practice_trials.thisTrialN,practice_trials.thisN,practice_trials.thisIndex,instr_trials.thisRepN,instr_trials.thisTrialN,instr_trials.thisN,instr_trials.thisIndex,test_trials.thisRepN,test_trials.thisTrialN,test_trials.thisN,test_trials.thisIndex,thisRow.t,notes,general_instruction.started,textGeneralInstr.started,respGeneralInstr.started,general_instruction.stopped,respGeneralInstr.keys,respGeneralInstr.rt,respGeneralInstr.duration,ITI.started,fixcross.started,fixcross.stopped,ITI.stopped,dots.started,backgroundDots.started,stimulusDots.started,respDots.started,dots.stopped,practice_trials.respDots.keys,practice_trials.respDots.corr,practice_trials.respDots.rt,practice_trials.respDots.duration,feedback.started,textFeedback.started,feedback.stopped,textFeedback.stopped,stimulusDots.stopped,info.started,textInfo.started,keyRespInfo.started,info.stopped,keyRespInfo.keys,keyRespInfo.rt,keyRespInfo.duration,test_instruction.started,textTestInstr.started,respTestInstr.started,test_instruction.stopped,respTestInstr.keys,respTestInstr.rt,respTestInstr.duration,random_instruction.started,textRandomInstr.started,respRandomInstr.started,random_instruction.stopped,instr_trials.respRandomInstr.keys,instr_trials.respRandomInstr.rt,instr_trials.respRandomInstr.duration,test_trials.respDots.keys,test_trials.respDots.corr,test_trials.respDots.rt,test_trials.respDots.duration,goodbye.started,textGoodbye.started,textGoodbye.stopped,goodbye.stopped,participant,session,expName,frameRate,Unnamed: 88
,,,,,,,,,,,,,,,,,,,,,,,,,,,0.0137207139996462,0.025629754003603,0.025629754003603,17.743800652002392,space,17.698159073996067,,,,,,,,,,,,,,,,,,,,,,,,,,,,,,,,,,,,,,,,,,,,,,,,,sub-128,1,random_dot,,
left,left,0.0,0.0,0.0,right,0.0,3.389627363998443,,,,,,0.0,0.0,0.0,0.0,,,,,,,,,17.84754778700153,,,,,,,,,17.831980581999233,18.936815653003578,19.754297976003727,19.73093156899995,19.73128436600382,19.754297976003727,19.754297976003727,19.754297976003727,23.14817059900088,right,0.0,3.389627363998443,,23.153328092004813,23.263295122000272,23.652073551005746,,,,,,,,,,,,,,,,,,,,,,,,,,,,,,,,sub-128,1,random_dot,,
right,right,1.0,1.0,0.0,right,1.0,1.8265104580059413,,,,,,0.0,1.0,1.0,1.0,,,,,,,,,23.66351053600374,,,,,,,,,23.652367145004973,24.84690229799889,25.636790317003037,25.63076582999929,25.63103609400423,25.636790317003037,25.636790317003037,25.636790317003037,27.46500842200476,right,1.0,1.8265104580059413,,27.468862567999167,27.47877939099999,27.96419424900523,27.969121219000957,,,,,,,,,,,,,,,,,,,,,,,,,,,,,,,sub-128,1,random_dot,,
right,right,2.0,0.0,1.0,left,0.0,1.4014748290064745,,,,,,1.0,0.0,2.0,1.0,,,,,,,,,27.969121219000957,,,,,,,,,27.964468057005437,28.31357298399962,29.10403928100277,29.09765521599911,29.09800070500205,29.10403928100277,29.10403928100277,29.10403928100277,30.514702972999658,left,0.0,1.4014748290064745,,30.516880716000745,30.523413857001287,31.01453002600465,31.01952710000478,,,,,,,,,,,,,,,,,,,,,,,,,,,,,,,sub-128,1,random_dot,,
left,left,3.0,1.0,1.0,left,1.0,0.9033118110019132,,,,,,1.0,1.0,3.0,0.0,,,,,,,,,31.01952710000478,,,,,,,,,31.014815631999227,31.363611758002666,32.1539355490022,32.147605234000366,32.14796059400396,32.1539355490022,32.1539355490022,32.1539355490022,33.06475465400581,left,1.0,0.9033118110019132,,33.06695107700216,33.073345187003724,33.56424328000139,33.56898446199921,,,,,,,,,,,,,,,,,,,,,,,,,,,,,,,sub-128,1,random_dot,,
right,right,4.0,0.0,2.0,right,1.0,3.479470622994995,,,,,,2.0,0.0,4.0,1.0,,,,,,,,,33.56898446199921,,,,,,,,,33.56451681700128,34.36364622300607,35.15436196500377,35.14788053800294,35.14821309599938,35.15436196500377,35.15436196500377,35.15436196500377,38.63813677000144,right,1.0,3.479470622994995,,38.638223007001216,38.64697611600423,39.13123368800007,39.13619639300305,,,,,,,,,,,,,,,,,,,,,,,,,,,,,,,sub-128,1,random_dot,,
left,left,5.0,1.0,2.0,left,1.0,1.068900391997886,,,,,,2.0,1.0,5.0,0.0,,,,,,,,,39.13619639300305,,,,,,,,,39.13152028300101,39.23522073600179,40.03037733000383,40.01949330600473,40.01977226300369,40.03037733000383,40.03037733000383,40.03037733000383,41.104638014003285,left,1.0,1.068900391997886,,41.104719078000926,41.11358974400355,41.59781392600416,41.60289434000151,,,,,,,,,,,,,,,,,,,,,,,,,,,,,,,sub-128,1,random_dot,,
left,left,6.0,0.0,3.0,left,1.0,0.8712620410005911,,,,,,3.0,0.0,6.0,0.0,,,,,,,,,41.60289434000151,,,,,,,,,41.59810164599912,41.95234554600029,42.74720918499952,42.73628215200006,42.73661975400319,42.74720918499952,42.74720918499952,42.74720918499952,43.62173617799999,left,1.0,0.8712620410005911,,43.62182325600588,43.63015624200489,44.11433280400525,44.11929072500061,,,,,,,,,,,,,,,,,,,,,,,,,,,,,,,sub-128,1,random_dot,,
right,right,7.0,1.0,3.0,left,0.0,1.4279724700027143,,,,,,3.0,1.0,7.0,1.0,,,,,,,,,44.11929072500061,,,,,,,,,44.11460363900551,45.31890012800432,46.11385401500593,46.10286369800451,46.10320102600235,46.11385401500593,46.11385401500593,46.11385401500593,47.54836587300088,left,0.0,1.4279724700027143,,47.5508161980033,47.5570573110017,48.04793970100582,48.052873018001264,,,,,,,,,,,,,,,,,,,,,,,,,,,,,,,sub-128,1,random_dot,,
left,left,8.0,0.0,4.0,right,0.0,1.8308888140018096,,,,,,4.0,0.0,8.0,0.0,,,,,,,,,48.052873018001264,,,,,,,,,48.04822479900031,48.14708250900003,48.93771909700445,48.9310625979997,48.93140881900035,48.93771909700445,48.93771909700445,48.93771909700445,50.77165614100522,right,0.0,1.8308888140018096,,50.77173766200576,50.78031089500291,51.26446659100475,51.26957529700303,,,,,,,,,,,,,,,,,,,,,,,,,,,,,,,sub-128,1,random_dot,,
right,right,9.0,1.0,4.0,left,0.0,0.9060937840040424,,,,,,4.0,1.0,9.0,1.0,,,,,,,,,51.26957529700303,,,,,,,,,51.264759919002245,52.46926005400019,53.26382765100425,53.25310739400447,53.25344373900589,53.26382765100425,53.26382765100425,53.26382765100425,54.17195033600001,left,0.0,0.9060937840040424,,54.17203588700068,54.18035860999953,54.66497959800472,54.669899033004185,,,,,,,,,,,,,,,,,,,,,,,,,,,,,,,sub-128,1,random_dot,,
right,right,10.0,0.0,5.0,left,0.0,0.7905691970008775,,,,,,5.0,0.0,10.0,1.0,,,,,,,,,54.669899033004185,,,,,,,,,54.66526298200188,54.76892583100562,55.56398080700456,55.55244453300111,55.55273078500613,55.56398080700456,55.56398080700456,55.56398080700456,56.365056416005245,left,0.0,0.7905691970008775,,56.36513888400077,56.37099424200278,56.86483217400382,56.86978607900528,,,,,,,,,,,,,,,,,,,,,,,,,,,,,,,sub-128,1,random_dot,,
left,left,11.0,1.0,5.0,right,0.0,0.8184540000002016,,,,,,5.0,1.0,11.0,0.0,,,,,,,,,56.86978607900528,,,,,,,,,56.86511259600229,58.063882093003485,58.85446751900599,58.84783117900224,58.84817591200408,58.85446751900599,58.85446751900599,58.85446751900599,59.68189096800052,right,0.0,0.8184540000002016,,59.68197630900249,59.688016576001246,60.18125149100524,60.1861201310021,,,,,,,,,,,,,,,,,,,,,,,,,,,,,,,sub-128,1,random_dot,,
left,left,12.0,0.0,6.0,right,0.0,4.357116822000535,,,,,,6.0,0.0,12.0,0.0,,,,,,,,,60.1861201310021,,,,,,,,,60.18153687700397,60.28048173600109,61.07082804600213,61.06464163400233,61.0649210699994,61.07082804600213,61.07082804600213,61.07082804600213,65.43182886100112,right,0.0,4.357116822000535,,65.43191664900223,65.43790407300548,65.93127181200543,65.93639717000042,,,,,,,,,,,,,,,,,,,,,,,,,,,,,,,sub-128,1,random_dot,,
right,right,13.0,1.0,6.0,right,1.0,9.34428083700186,,,,,,6.0,1.0,13.0,1.0,,,,,,,,,65.93639717000042,,,,,,,,,65.93155880000268,66.28054893499939,67.07108944400534,67.06462647000444,67.06496178900125,67.07108944400534,67.07108944400534,67.07108944400534,76.42144836400257,right,1.0,9.34428083700186,,76.4237718000004,76.43052902199997,76.91444986800343,76.91911793200416,72.05317497500073,,,,,,,,,,,,,,,,,,,,,,,,,,,,,,sub-128,1,random_dot,,
right,right,14.0,0.0,7.0,left,0.0,0.8949092060065595,,,,,,7.0,0.0,14.0,1.0,,,,,,,,,76.91911793200416,,,,,,,,,76.91470241700154,77.71895505200519,78.5140380360026,78.50324674000149,78.50358618500468,78.5140380360026,78.5140380360026,78.5140380360026,79.41511269700277,left,0.0,0.8949092060065595,,79.41726672100049,79.42357341699972,79.91463205900072,79.9197746150021,,,,,,,,,,,,,,,,,,,,,,,,,,,,,,,sub-128,1,random_dot,,
left,left,15.0,1.0,7.0,left,1.0,0.9230220219978946,,,,,,7.0,1.0,15.0,0.0,,,,,,,,,79.9197746150021,,,,,,,,,79.91492572599964,80.2640480830014,81.05488205300207,81.04800409699965,81.04834713300079,81.05488205300207,81.05488205300207,81.05488205300207,81.98198490200593,left,1.0,0.9230220219978946,,81.98426786700293,81.9906206950036,82.48148403300002,82.4864228860024,,,,,,,,,,,,,,,,,,,,,,,,,,,,,,,sub-128,1,random_dot,,
right,right,16.0,0.0,8.0,left,0.0,1.1425394370016877,,,,,,8.0,0.0,16.0,1.0,,,,,,,,,82.4864228860024,,,,,,,,,82.48177221600054,82.8307709820001,83.62152030500147,83.61497934300132,83.61531708800612,83.62152030500147,83.62152030500147,83.62152030500147,84.76593070400122,left,0.0,1.1425394370016877,,84.76826829500351,84.77456222999899,85.26466748500388,85.26946782600135,,,,,,,,,,,,,,,,,,,,,,,,,,,,,,,sub-128,1,random_dot,,
left,left,17.0,1.0,8.0,left,1.0,0.6871121730000596,,,,,,8.0,1.0,17.0,0.0,,,,,,,,,85.26946782600135,,,,,,,,,85.26491106600588,86.46416449900426,87.25455957200029,87.24800880900148,87.24835770800564,87.25455957200029,87.25455957200029,87.25455957200029,87.94854546300485,left,1.0,0.6871121730000596,,87.95082019800611,87.95707005500299,88.44841655200435,88.45315216600284,,,,,,,,,,,,,,,,,,,,,,,,,,,,,,,sub-128,1,random_dot,,
left,left,18.0,0.0,9.0,right,0.0,0.8269683489997988,,,,,,9.0,0.0,18.0,0.0,,,,,,,,,88.45315216600284,,,,,,,,,88.4487017230058,88.7859395580017,89.58078049300093,89.56934208400344,89.56959774999996,89.58078049300093,89.58078049300093,89.58078049300093,90.41561454399924,right,0.0,0.8269683489997988,,90.41792206300306,90.42434383799991,90.91497786500258,90.92000323699904,,,,,,,,,,,,,,,,,,,,,,,,,,,,,,,sub-128,1,random_dot,,
right,right,19.0,1.0,9.0,left,0.0,0.8210131189989625,,,,,,9.0,1.0,19.0,1.0,,,,,,,,,90.92000323699904,,,,,,,,,90.9152654960053,91.2640103080048,92.05487790299958,92.04821850300505,92.04855753100128,92.05487790299958,92.05487790299958,92.05487790299958,92.8820979910015,left,0.0,0.8210131189989625,,92.88218367700028,92.88803120900413,93.3816397680057,93.3881659050021,,,,,,,,,,,,,,,,,,,,,,,,,,,,,,,sub-128,1,random_dot,,
,,,,,,,,,,,,,,,,,,,,,,,,,,,,,,,,,,,,,,,,,,,,,,,,,,,,93.38175951100128,93.3881659050021,93.3881659050021,101.36557542000082,space,7.968606820002606,,,,,,,,,,,,,,,,,,,,,,,,sub-128,1,random_dot,,
,,,,,,,,,,,,,,,,,,,,,,,,,,,,,,,,,,,,,,,,,,,,,,,,,,,,,,,,,,,101.36563569700228,101.37356142500356,101.37356142500356,109.42097047700372,space,8.045375732996035,,,,,,,,,,,,,,,,,sub-128,1,random_dot,,
left,left,0.0,0.0,0.0,right,0.0,2.0248326459986856,,accuracy,space,8.31577682900388,,,,,,0.0,0.0,0.0,0.0,0.0,0.0,0.0,0.0,117.78397062099975,,,,,,,,,117.77670534900244,118.56934992000606,119.36432269800572,119.35324774000036,119.35358634799924,119.36432269800572,119.36432269800572,119.36432269800572,121.3993902220027,,,,,,,,,,,,,,,,,,,,,,,,109.44154538500152,109.45135863999894,109.45135863999894,117.7709502630023,space,8.31577682900388,,right,0.0,2.0248326459986856,,,,,,sub-128,1,random_dot,,
right,right,1.0,1.0,0.0,right,1.0,3.4934667690031347,,accuracy,space,8.31577682900388,,,,,,0.0,0.0,0.0,0.0,0.0,1.0,1.0,1.0,121.40538746300444,,,,,,,,,121.39973979700152,121.7478165260036,122.53775792500528,122.531462525003,122.53174115800356,122.53775792500528,122.53775792500528,122.53775792500528,126.04010789000311,,,,,,,,,,,,,,,,,,,,,,,,,,,,,,,right,1.0,3.4934667690031347,,,,,,sub-128,1,random_dot,,
left,left,2.0,0.0,1.0,left,1.0,1.8769892710042768,,accuracy,space,8.31577682900388,,,,,,0.0,0.0,0.0,0.0,1.0,0.0,2.0,0.0,126.04759273400124,,,,,,,,,126.04040760500357,126.38646303000132,127.1809100870014,127.1699551050042,127.17029284000456,127.1809100870014,127.1809100870014,127.1809100870014,129.065802420002,,,,,,,,,,,,,,,,,,,,,,,,,,,,,,,left,1.0,1.8769892710042768,,,,,,sub-128,1,random_dot,,
right,right,3.0,1.0,1.0,left,0.0,0.9835174289983116,,accuracy,space,8.31577682900388,,,,,,0.0,0.0,0.0,0.0,1.0,1.0,3.0,1.0,129.07180986500316,,,,,,,,,129.06609585200204,129.86441390099935,130.6552715850048,130.6483939690006,130.6487387340021,130.6552715850048,130.6552715850048,130.6552715850048,131.648743319005,,,,,,,,,,,,,,,,,,,,,,,,,,,,,,,left,0.0,0.9835174289983116,,,,,,sub-128,1,random_dot,,
right,right,4.0,0.0,2.0,left,0.0,0.6945876159952604,,accuracy,space,8.31577682900388,,,,,,0.0,0.0,0.0,0.0,2.0,0.0,4.0,1.0,131.65460945300583,,,,,,,,,131.64902718600206,132.44768314300018,133.23847565500182,133.23175612600608,133.23209257100098,133.23847565500182,133.23847565500182,133.23847565500182,133.9391659440007,,,,,,,,,,,,,,,,,,,,,,,,,,,,,,,left,0.0,0.6945876159952604,,,,,,sub-128,1,random_dot,,
left,left,5.0,1.0,2.0,right,0.0,3.553028622001875,,accuracy,space,8.31577682900388,,,,,,0.0,0.0,0.0,0.0,2.0,1.0,5.0,0.0,133.9476153900032,,,,,,,,,133.93942802200036,134.03634480300389,134.83103278899944,134.82058459499967,134.82091900100204,134.83103278899944,134.83103278899944,134.83103278899944,138.38926201800496,,,,,,,,,,,,,,,,,,,,,,,,,,,,,,,right,0.0,3.553028622001875,,,,,,sub-128,1,random_dot,,
right,right,6.0,0.0,3.0,left,0.0,0.6667964280059095,,accuracy,space,8.31577682900388,,,,,,0.0,0.0,0.0,0.0,3.0,0.0,6.0,1.0,138.39755823800078,,,,,,,,,138.38954394800385,139.58634334300586,140.381074789002,140.3703881399997,140.37072726900078,140.381074789002,140.381074789002,140.381074789002,141.04979973300215,,,,,,,,,,,,,,,,,,,,,,,,,,,,,,,left,0.0,0.6667964280059095,,,,,,sub-128,1,random_dot,,
left,left,7.0,1.0,3.0,left,1.0,0.73653917399497,,accuracy,space,8.31577682900388,,,,,,0.0,0.0,0.0,0.0,3.0,1.0,7.0,0.0,141.0557750920052,,,,,,,,,141.05010103600216,141.84782455400273,142.6386818940009,142.631808173006,142.63216116600233,142.6386818940009,142.6386818940009,142.6386818940009,143.38251427900104,,,,,,,,,,,,,,,,,,,,,,,,,,,,,,,left,1.0,0.73653917399497,,,,,,sub-128,1,random_dot,,
left,left,8.0,0.0,4.0,right,0.0,2.134438428998692,,accuracy,space,8.31577682900388,,,,,,0.0,0.0,0.0,0.0,4.0,0.0,8.0,0.0,143.3884537020058,,,,,,,,,143.38280482700063,143.73112083500018,144.5217154800048,144.5151186120056,144.51545406600053,144.5217154800048,144.5217154800048,144.5217154800048,146.66595835000044,,,,,,,,,,,,,,,,,,,,,,,,,,,,,,,right,0.0,2.134438428998692,,,,,,sub-128,1,random_dot,,
right,right,9.0,1.0,4.0,left,0.0,0.7038229440004216,,accuracy,space,8.31577682900388,,,,,,0.0,0.0,0.0,0.0,4.0,1.0,9.0,1.0,146.6720226000034,,,,,,,,,146.6663055340032,147.864198467003,148.6548742619998,148.64848982600233,148.64883798100345,148.6548742619998,148.6548742619998,148.6548742619998,149.36593916200218,,,,,,,,,,,,,,,,,,,,,,,,,,,,,,,left,0.0,0.7038229440004216,,,,,,sub-128,1,random_dot,,
right,right,10.0,0.0,5.0,left,0.0,1.0034686010039875,,accuracy,space,8.31577682900388,,,,,,0.0,0.0,0.0,0.0,5.0,0.0,10.0,1.0,149.37193228900287,,,,,,,,,149.36623285800306,149.71445386599953,150.50488758300344,150.49843919900013,150.49872369600052,150.50488758300344,150.50488758300344,150.50488758300344,151.5157619130041,,,,,,,,,,,,,,,,,,,,,,,,,,,,,,,left,0.0,1.0034686010039875,,,,,,sub-128,1,random_dot,,
left,left,11.0,1.0,5.0,left,1.0,5.742795133999607,,accuracy,space,8.31577682900388,,,,,,0.0,0.0,0.0,0.0,5.0,1.0,11.0,0.0,151.52189480500238,,,,,,,,,151.51604362099897,152.3144893550052,153.1046120070023,153.09821231000387,153.09851731399976,153.1046120070023,153.1046120070023,153.1046120070023,158.84920125899953,,,,,,,,,158.08722419600235,,,,,,,,,,,,,,,,,,,,,,left,1.0,5.742795133999607,,,,,,sub-128,1,random_dot,,
right,right,12.0,0.0,6.0,left,0.0,0.6756107250039349,,accuracy,space,8.31577682900388,,,,,,0.0,0.0,0.0,0.0,6.0,0.0,12.0,1.0,158.85531720500148,,,,,,,,,158.84950186100468,159.1978599300055,159.98877965500287,159.98197346300003,159.98231899600069,159.98877965500287,159.98877965500287,159.98877965500287,160.66611421199923,,,,,,,,,,,,,,,,,,,,,,,,,,,,,,,left,0.0,0.6756107250039349,,,,,,sub-128,1,random_dot,,
left,left,13.0,1.0,6.0,right,0.0,4.5260983659973135,,accuracy,space,8.31577682900388,,,,,,0.0,0.0,0.0,0.0,6.0,1.0,13.0,0.0,160.67196954099927,,,,,,,,,160.66640259900305,160.7645633860011,161.555307542003,161.5486544680025,161.54899284400017,161.555307542003,161.555307542003,161.555307542003,166.083046122003,,,,,,,,,,,,,,,,,,,,,,,,,,,,,,,right,0.0,4.5260983659973135,,,,,,sub-128,1,random_dot,,
left,left,14.0,0.0,7.0,left,1.0,3.1890536489954684,,accuracy,space,8.31577682900388,,,,,,0.0,0.0,0.0,0.0,7.0,0.0,14.0,0.0,166.08908824399987,,,,,,,,,166.0833462139999,166.88123236500542,167.6718850380057,167.6653148559999,167.66565640200133,167.6718850380057,167.6718850380057,167.6718850380057,170.8661291419994,,,,,,,,,,,,,,,,,,,,,,,,,,,,,,,left,1.0,3.1890536489954684,,,,,,sub-128,1,random_dot,,
right,right,15.0,1.0,7.0,left,0.0,1.017290417003096,,accuracy,space,8.31577682900388,,,,,,0.0,0.0,0.0,0.0,7.0,1.0,15.0,1.0,170.87218093400588,,,,,,,,,170.86642777400266,171.66467005500454,172.45566510700155,172.44882312200207,172.44916392199957,172.45566510700155,172.45566510700155,172.45566510700155,173.4831312430033,,,,,,,,,,,,,,,,,,,,,,,,,,,,,,,left,0.0,1.017290417003096,,,,,,sub-128,1,random_dot,,
right,right,16.0,0.0,8.0,left,0.0,0.8218734490001225,,accuracy,space,8.31577682900388,,,,,,0.0,0.0,0.0,0.0,8.0,0.0,16.0,1.0,173.48944355400454,,,,,,,,,173.48349987400434,173.58146745699923,174.37209166400137,174.36538187300175,174.36588587100414,174.37209166400137,174.37209166400137,174.37209166400137,175.19915627100272,,,,,,,,,,,,,,,,,,,,,,,,,,,,,,,left,0.0,0.8218734490001225,,,,,,sub-128,1,random_dot,,
left,left,17.0,1.0,8.0,right,0.0,1.4045286939945072,,accuracy,space,8.31577682900388,,,,,,0.0,0.0,0.0,0.0,8.0,1.0,17.0,0.0,175.20506686800218,,,,,,,,,175.19945996400202,175.29799017299956,176.08878645799996,176.08232640200004,176.08266210000147,176.08878645799996,176.08878645799996,176.08878645799996,177.49929394100036,,,,,,,,,,,,,,,,,,,,,,,,,,,,,,,right,0.0,1.4045286939945072,,,,,,sub-128,1,random_dot,,
left,left,18.0,0.0,9.0,right,0.0,0.8516958100008196,,accuracy,space,8.31577682900388,,,,,,0.0,0.0,0.0,0.0,9.0,0.0,18.0,0.0,177.50517989299988,,,,,,,,,177.4996063120052,178.69806733600126,179.4882768009993,179.4820880490006,179.48238048900384,179.4882768009993,179.4882768009993,179.4882768009993,180.34931634399985,,,,,,,,,,,,,,,,,,,,,,,,,,,,,,,right,0.0,0.8516958100008196,,,,,,sub-128,1,random_dot,,
right,right,19.0,1.0,9.0,right,1.0,1.7076211810053792,,accuracy,space,8.31577682900388,,,,,,0.0,0.0,0.0,0.0,9.0,1.0,19.0,1.0,180.3552748750008,,,,,,,,,180.34959476999936,181.5480432100012,182.3384251210009,182.33197598900009,182.33231924000572,182.3384251210009,182.3384251210009,182.3384251210009,184.04958928700216,,,,,,,,,,,,,,,,,,,,,,,,,,,,,,,right,1.0,1.7076211810053792,,,,,,sub-128,1,random_dot,,
left,left,20.0,0.0,10.0,left,1.0,1.015893720999884,,accuracy,space,8.31577682900388,,,,,,0.0,0.0,0.0,0.0,10.0,0.0,20.0,0.0,184.0555290410048,,,,,,,,,184.0498843630048,184.1479959540011,184.93886967700385,184.9322360799997,184.93257982800424,184.93886967700385,184.93886967700385,184.93886967700385,185.95637018500565,,,,,,,,,,,,,,,,,,,,,,,,,,,,,,,left,1.0,1.015893720999884,,,,,,sub-128,1,random_dot,,
right,right,21.0,1.0,10.0,left,0.0,0.8978117750011734,,accuracy,space,8.31577682900388,,,,,,0.0,0.0,0.0,0.0,10.0,1.0,21.0,1.0,185.96451513600184,,,,,,,,,185.95666867800173,186.30287590800435,187.09800707200336,187.0866587170021,187.08693697299896,187.09800707200336,187.09800707200336,187.09800707200336,187.9994832320008,,,,,,,,,,,,,,,,,,,,,,,,,,,,,,,left,0.0,0.8978117750011734,,,,,,sub-128,1,random_dot,,
right,right,22.0,0.0,11.0,left,0.0,1.3236925930032155,,accuracy,space,8.31577682900388,,,,,,0.0,0.0,0.0,0.0,11.0,0.0,22.0,1.0,188.00531563800175,,,,,,,,,187.999778590005,188.348158411005,189.13879102899955,189.1320556710052,189.1323992290054,189.13879102899955,189.13879102899955,189.13879102899955,190.4660880260053,,,,,,,,,,,,,,,,,,,,,,,,,,,,,,,left,0.0,1.3236925930032155,,,,,,sub-128,1,random_dot,,
left,left,23.0,1.0,11.0,left,1.0,0.9112096829994698,,accuracy,space,8.31577682900388,,,,,,0.0,0.0,0.0,0.0,11.0,1.0,23.0,0.0,190.47182047900424,,,,,,,,,190.46638288800025,190.56479006200243,191.3552146830043,191.34895740100183,191.34924276400125,191.3552146830043,191.3552146830043,191.3552146830043,192.2717835160001,,,,,,,,,,,,,,,,,,,,,,,,,,,,,,,left,1.0,0.9112096829994698,,,,,,sub-128,1,random_dot,,
left,left,24.0,0.0,12.0,left,1.0,1.816713937005261,,accuracy,space,8.31577682900388,,,,,,0.0,0.0,0.0,0.0,12.0,0.0,24.0,0.0,192.2812493090023,,,,,,,,,192.27206360400305,193.4699191200052,194.2647206450056,194.2537261770049,194.25406519800163,194.2647206450056,194.2647206450056,194.2647206450056,196.0833674240057,,,,,,,,,,,,,,,,,,,,,,,,,,,,,,,left,1.0,1.816713937005261,,,,,,sub-128,1,random_dot,,
right,right,25.0,1.0,12.0,left,0.0,2.511465338997368,,accuracy,space,8.31577682900388,,,,,,0.0,0.0,0.0,0.0,12.0,1.0,25.0,1.0,196.08926665699985,,,,,,,,,196.08366434000345,196.88150304300507,197.6721868540044,197.6654990169991,197.6658353590028,197.6721868540044,197.6721868540044,197.6721868540044,200.18888323300047,,,,,,,,,,,,,,,,,,,,,,,,,,,,,,,left,0.0,2.511465338997368,,,,,,sub-128,1,random_dot,,
left,left,26.0,0.0,13.0,left,1.0,2.0457017439985066,,accuracy,space,8.31577682900388,,,,,,0.0,0.0,0.0,0.0,13.0,0.0,26.0,0.0,200.19804885700432,,,,,,,,,200.1891646000004,200.28708858500613,201.0816284800021,201.0702282390048,201.0705108620023,201.0816284800021,201.0816284800021,201.0816284800021,203.1325997870008,,,,,,,,,,,,,,,,,,,,,,,,,,,,,,,left,1.0,2.0457017439985066,,,,,,sub-128,1,random_dot,,
right,right,27.0,1.0,13.0,left,0.0,1.1099668669994571,,accuracy,space,8.31577682900388,,,,,,0.0,0.0,0.0,0.0,13.0,1.0,27.0,1.0,203.138342793005,,,,,,,,,203.1328854490057,203.4814763850009,204.2725444980024,204.26563347499905,204.26598071899932,204.2725444980024,204.2725444980024,204.2725444980024,205.38846059000207,,,,,,,,,,,,,,,,,,,,,,,,,,,,,,,left,0.0,1.1099668669994571,,,,,,sub-128,1,random_dot,,
left,left,28.0,0.0,14.0,left,1.0,1.971500086998276,,accuracy,space,8.31577682900388,,,,,,0.0,0.0,0.0,0.0,14.0,0.0,28.0,0.0,205.3980201770028,,,,,,,,,205.38873747600155,206.18654192800025,206.98156590200236,206.97060774700367,206.97095476200047,206.98156590200236,206.98156590200236,206.98156590200236,208.9562378030023,,,,,,,,,,,,,,,,,,,,,,,,,,,,,,,left,1.0,1.971500086998276,,,,,,sub-128,1,random_dot,,
right,right,29.0,1.0,14.0,right,1.0,2.385874710002099,,accuracy,space,8.31577682900388,,,,,,0.0,0.0,0.0,0.0,14.0,1.0,29.0,1.0,208.96463067600416,,,,,,,,,208.9565244080004,209.30317561799893,210.09821470200404,210.08684876700136,210.08714029600375,210.09821470200404,210.09821470200404,210.09821470200404,212.49034678799944,,,,,,,,,,,,,,,,,,,,,,,,,,,,,,,right,1.0,2.385874710002099,,,,,,sub-128,1,random_dot,,
left,left,30.0,0.0,15.0,left,1.0,4.396474789995409,,accuracy,space,8.31577682900388,,,,,,0.0,0.0,0.0,0.0,15.0,0.0,30.0,0.0,212.4980705650014,,,,,,,,,212.49065882500145,213.2870426590016,214.0815840030045,214.07081558999928,214.07115760700253,214.0815840030045,214.0815840030045,214.0815840030045,218.48276775900013,,,,,,,,,,,,,,,,,,,,,,,,,,,,,,,left,1.0,4.396474789995409,,,,,,sub-128,1,random_dot,,
right,right,31.0,1.0,15.0,left,0.0,3.179190788003325,,accuracy,space,8.31577682900388,,,,,,0.0,0.0,0.0,0.0,15.0,1.0,31.0,1.0,218.48856599000283,,,,,,,,,218.4830603030059,218.5817396280036,219.37241709900263,219.36577920900163,219.3661208880003,219.37241709900263,219.37241709900263,219.37241709900263,222.5556180170024,,,,,,,,,,,,,,,,,,,,,,,,,,,,,,,left,0.0,3.179190788003325,,,,,,sub-128,1,random_dot,,
left,left,32.0,0.0,16.0,left,1.0,2.816735565997078,,accuracy,space,8.31577682900388,,,,,,0.0,0.0,0.0,0.0,16.0,0.0,32.0,0.0,222.5648126360029,,,,,,,,,222.55591964199996,222.65289206799932,223.448235777003,223.43738060800388,223.43771864700105,223.448235777003,223.448235777003,223.448235777003,226.26668357400197,,,,,,,,,,,,,,,,,,,,,,,,,,,,,,,left,1.0,2.816735565997078,,,,,,sub-128,1,random_dot,,
right,right,33.0,1.0,16.0,right,1.0,1.5962460240043583,,accuracy,space,8.31577682900388,,,,,,0.0,0.0,0.0,0.0,16.0,1.0,33.0,1.0,226.2727482600021,,,,,,,,,226.26701106900143,227.06501659100468,227.85521827100456,227.8489666270034,227.84929880600248,227.85521827100456,227.85521827100456,227.85521827100456,229.45592552900047,,,,,,,,,,,,,,,,,,,,,,,,,,,,,,,right,1.0,1.5962460240043583,,,,,,sub-128,1,random_dot,,
right,right,34.0,0.0,17.0,left,0.0,1.128344529999595,,accuracy,space,8.31577682900388,,,,,,0.0,0.0,0.0,0.0,17.0,0.0,34.0,1.0,229.4648143200029,,,,,,,,,229.4562130910053,230.2533800279998,231.04830120200492,231.03745901200452,231.03779692800163,231.04830120200492,231.04830120200492,231.04830120200492,232.1830574359992,,,,,,,,,,,,,,,,,,,,,,,,,,,,,,,left,0.0,1.128344529999595,,,,,,sub-128,1,random_dot,,
left,left,35.0,1.0,17.0,right,0.0,0.8427338140027132,,accuracy,space,8.31577682900388,,,,,,0.0,0.0,0.0,0.0,17.0,1.0,35.0,0.0,232.1890757180008,,,,,,,,,232.18335026700515,232.2815370050012,233.0723471730016,233.0658218970057,233.066184729003,233.0723471730016,233.0723471730016,233.0723471730016,233.91667612600577,,,,,,,,,,,,,,,,,,,,,,,,,,,,,,,right,0.0,0.8427338140027132,,,,,,sub-128,1,random_dot,,
right,right,36.0,0.0,18.0,left,0.0,0.7703532929954235,,accuracy,space,8.31577682900388,,,,,,0.0,0.0,0.0,0.0,18.0,0.0,36.0,1.0,233.9227374969996,,,,,,,,,233.91696991600477,234.71503420200315,235.50514272200235,235.49889275900205,235.49917739000372,235.50514272200235,235.50514272200235,235.50514272200235,236.282802780006,,,,,,,,,,,,,,,,,,,,,,,,,,,,,,,left,0.0,0.7703532929954235,,,,,,sub-128,1,random_dot,,
left,left,37.0,1.0,18.0,right,0.0,0.6093719609998516,,accuracy,space,8.31577682900388,,,,,,0.0,0.0,0.0,0.0,18.0,1.0,37.0,0.0,236.2885964090019,,,,,,,,,236.2830957289989,236.3816653030008,237.17212205800024,237.1656685160051,237.1660041530049,237.17212205800024,237.17212205800024,237.17212205800024,237.78341688000364,,,,,,,,,,,,,,,,,,,,,,,,,,,,,,,right,0.0,0.6093719609998516,,,,,,sub-128,1,random_dot,,
right,right,38.0,0.0,19.0,left,0.0,0.682487329999276,,accuracy,space,8.31577682900388,,,,,,0.0,0.0,0.0,0.0,19.0,0.0,38.0,1.0,237.7893941470029,,,,,,,,,237.7837139980038,238.98169218800467,239.7724185890038,239.76568610899997,239.76602477100096,239.7724185890038,239.7724185890038,239.7724185890038,240.45659099700424,,,,,,,,,,,,,,,,,,,,,,,,,,,,,,,left,0.0,0.682487329999276,,,,,,sub-128,1,random_dot,,
left,left,39.0,1.0,19.0,right,0.0,0.7140123749995837,,accuracy,space,8.31577682900388,,,,,,0.0,0.0,0.0,0.0,19.0,1.0,39.0,0.0,240.4650140119993,,,,,,,,,240.45688252400575,241.65334247000283,242.4484199630024,242.4376784929991,242.4380163800015,242.4484199630024,242.4484199630024,242.4484199630024,243.166153901002,,,,,,,,,,,,,,,,,,,,,,,,,,,,,,,right,0.0,0.7140123749995837,,,,,,sub-128,1,random_dot,,
left,left,40.0,0.0,20.0,right,0.0,0.9183380260001286,,accuracy,space,8.31577682900388,,,,,,0.0,0.0,0.0,0.0,20.0,0.0,40.0,0.0,243.17194845199992,,,,,,,,,243.16643951600415,243.9650232790009,244.75518301700504,244.748885564004,244.74917441300204,244.75518301700504,244.75518301700504,244.75518301700504,245.6834254130008,,,,,,,,,,,,,,,,,,,,,,,,,,,,,,,right,0.0,0.9183380260001286,,,,,,sub-128,1,random_dot,,
right,right,41.0,1.0,20.0,right,1.0,0.4085108450017287,,accuracy,space,8.31577682900388,,,,,,0.0,0.0,0.0,0.0,20.0,1.0,41.0,1.0,245.68951750400447,,,,,,,,,245.6837206429991,246.03157267600184,246.8223225460024,246.81574450300104,246.81608103500184,246.8223225460024,246.8223225460024,246.8223225460024,247.23296168000525,,,,,,,,,,,,,,,,,,,,,,,,,,,,,,,right,1.0,0.4085108450017287,,,,,,sub-128,1,random_dot,,
right,right,42.0,0.0,21.0,left,0.0,1.501485833003244,,accuracy,space,8.31577682900388,,,,,,0.0,0.0,0.0,0.0,21.0,0.0,42.0,1.0,247.23882518800383,,,,,,,,,247.23325038100305,248.4318006270041,249.22220413000468,249.21583821700187,249.21617746300035,249.22220413000468,249.22220413000468,249.22220413000468,250.73353661600413,,,,,,,,,,,,,,,,,,,,,,,,,,,,,,,left,0.0,1.501485833003244,,,,,,sub-128,1,random_dot,,
left,left,43.0,1.0,21.0,right,0.0,0.3229210950012202,,accuracy,space,8.31577682900388,,,,,,0.0,0.0,0.0,0.0,21.0,1.0,43.0,0.0,250.73983750800107,,,,,,,,,250.73389240600227,251.08175994799967,251.8723396220012,251.8656975820049,251.86603833600384,251.8723396220012,251.8723396220012,251.8723396220012,252.1997357799992,,,,,,,,,,,,,,,,,,,,,,,,,,,,,,,right,0.0,0.3229210950012202,,,,,,sub-128,1,random_dot,,
left,left,44.0,0.0,22.0,left,1.0,0.3206461939989822,,accuracy,space,8.31577682900388,,,,,,0.0,0.0,0.0,0.0,22.0,0.0,44.0,0.0,252.2056042740005,,,,,,,,,252.2000281729997,252.99842704200276,253.78874496900244,253.7823901590018,253.7826674500029,253.78874496900244,253.78874496900244,253.78874496900244,254.1162685460004,,,,,,,,,,,,,,,,,,,,,,,,,,,,,,,left,1.0,0.3206461939989822,,,,,,sub-128,1,random_dot,,
right,right,45.0,1.0,22.0,right,1.0,0.6297360940006911,,accuracy,space,8.31577682900388,,,,,,0.0,0.0,0.0,0.0,22.0,1.0,45.0,1.0,254.12202527000045,,,,,,,,,254.11656980700357,254.91519216500456,255.705970134004,255.6992984410026,255.69963742200343,255.705970134004,255.705970134004,255.705970134004,256.3397874010043,,,,,,,,,,,,,,,,,,,,,,,,,,,,,,,right,1.0,0.6297360940006911,,,,,,sub-128,1,random_dot,,
right,right,46.0,0.0,23.0,right,1.0,1.0946421730041038,,accuracy,space,8.31577682900388,,,,,,0.0,0.0,0.0,0.0,23.0,0.0,46.0,1.0,256.3482019600051,,,,,,,,,256.3400742540034,256.68689134400483,257.48175666300085,257.4707490830042,257.4710408790052,257.48175666300085,257.48175666300085,257.48175666300085,258.58295510300377,,,,,,,,,,,,,,,,,,,,,,,,,,,,,,,right,1.0,1.0946421730041038,,,,,,sub-128,1,random_dot,,
left,left,47.0,1.0,23.0,right,0.0,0.9441835430043284,,accuracy,space,8.31577682900388,,,,,,0.0,0.0,0.0,0.0,23.0,1.0,47.0,0.0,258.5888712439992,,,,,,,,,258.583255962003,258.6819897000023,259.47281916000065,259.4657840880027,259.4661358939993,259.47281916000065,259.47281916000065,259.47281916000065,260.4231990059998,,,,,,,,,,,,,,,,,,,,,,,,,,,,,,,right,0.0,0.9441835430043284,,,,,,sub-128,1,random_dot,,
right,right,48.0,0.0,24.0,left,0.0,0.3560414539970225,,accuracy,space,8.31577682900388,,,,,,0.0,0.0,0.0,0.0,24.0,0.0,48.0,1.0,260.4317716910009,,,,,,,,,260.42346488800104,261.6201032570025,262.4150439130026,262.40371886100183,262.4040003110058,262.4150439130026,262.4150439130026,262.4150439130026,262.7732243089995,,,,,,,,,,,,,,,,,,,,,,,,,,,,,,,left,0.0,0.3560414539970225,,,,,,sub-128,1,random_dot,,
left,left,49.0,1.0,24.0,right,0.0,0.4590410629971302,,accuracy,space,8.31577682900388,,,,,,0.0,0.0,0.0,0.0,24.0,1.0,49.0,0.0,262.7815880330017,,,,,,,,,262.77352459599933,262.870726318004,263.66500920300314,263.65388616000564,263.6542582309994,263.66500920300314,263.66500920300314,263.66500920300314,264.1333035080024,,,,,,,,,,,,,,,,,,,,,,,,,,,,,,,right,0.0,0.4590410629971302,,,,,,sub-128,1,random_dot,,
right,right,50.0,0.0,25.0,left,0.0,0.3756665490000159,,accuracy,space,8.31577682900388,,,,,,0.0,0.0,0.0,0.0,25.0,0.0,50.0,1.0,264.13948320200143,,,,,,,,,264.133645437003,264.2319556670045,265.0228524310005,265.015924682004,265.0162671470025,265.0228524310005,265.0228524310005,265.0228524310005,265.4003156990002,,,,,,,,,,,,,,,,,,,,,,,,,,,,,,,left,0.0,0.3756665490000159,,,,,,sub-128,1,random_dot,,
left,left,51.0,1.0,25.0,left,1.0,0.9146019990002968,,accuracy,space,8.31577682900388,,,,,,0.0,0.0,0.0,0.0,25.0,1.0,51.0,0.0,265.4061742580016,,,,,,,,,265.4006139760022,265.7485200660012,266.5393311190055,266.532556254002,266.5329034860042,266.5393311190055,266.5393311190055,266.5393311190055,267.4563871390055,,,,,,,,,,,,,,,,,,,,,,,,,,,,,,,left,1.0,0.9146019990002968,,,,,,sub-128,1,random_dot,,
right,right,52.0,0.0,26.0,right,1.0,1.1083213639940368,,accuracy,space,8.31577682900388,,,,,,0.0,0.0,0.0,0.0,26.0,0.0,52.0,1.0,267.46500220899907,,,,,,,,,267.45667584900366,267.55387541700475,268.3485306950024,268.3373495000051,268.3376896340051,268.3485306950024,268.3485306950024,268.3485306950024,269.4665773980014,,,,,,,,,,,,,,,,,,,,,,,,,,,,,,,right,1.0,1.1083213639940368,,,,,,sub-128,1,random_dot,,
left,left,53.0,1.0,26.0,right,0.0,0.609685529001581,,accuracy,space,8.31577682900388,,,,,,0.0,0.0,0.0,0.0,26.0,1.0,53.0,0.0,269.4725187639997,,,,,,,,,269.46685848500056,270.6651370079999,271.4558282710059,271.44923593000567,271.4495770040012,271.4558282710059,271.4558282710059,271.4558282710059,272.0671376899991,,,,,,,,,,,,,,,,,,,,,,,,,,,,,,,right,0.0,0.609685529001581,,,,,,sub-128,1,random_dot,,
right,right,54.0,0.0,27.0,left,0.0,1.853521925004316,,accuracy,space,8.31577682900388,,,,,,0.0,0.0,0.0,0.0,27.0,0.0,54.0,1.0,272.0733246210002,,,,,,,,,272.06744225500006,272.1652767590058,272.95599971699994,272.9492763189992,272.9496152339998,272.95599971699994,272.95599971699994,272.95599971699994,274.8164560880032,,,,,,,,,,,,,,,,,,,,,,,,,,,,,,,left,0.0,1.853521925004316,,,,,,sub-128,1,random_dot,,
left,left,55.0,1.0,27.0,right,0.0,0.6388860290026059,,accuracy,space,8.31577682900388,,,,,,0.0,0.0,0.0,0.0,27.0,1.0,55.0,0.0,274.8222877280059,,,,,,,,,274.81673916699947,276.0152924110007,276.80562183800066,276.7991695020028,276.79945114000293,276.80562183800066,276.80562183800066,276.80562183800066,277.449834335006,,,,,,,,,,,,,,,,,,,,,,,,,,,,,,,right,0.0,0.6388860290026059,,,,,,sub-128,1,random_dot,,
left,left,56.0,0.0,28.0,left,1.0,1.098322637997626,,accuracy,space,8.31577682900388,,,,,,0.0,0.0,0.0,0.0,28.0,0.0,56.0,0.0,277.4558765900001,,,,,,,,,277.4501367699995,277.54868171900307,278.3394235500018,278.332599706002,278.33293632200366,278.3394235500018,278.3394235500018,278.3394235500018,279.43981080800586,,,,,,,,,,,,,,,,,,,,,,,,,,,,,,,left,1.0,1.098322637997626,,,,,,sub-128,1,random_dot,,
right,right,57.0,1.0,28.0,left,0.0,0.6779608340002596,,accuracy,space,8.31577682900388,,,,,,0.0,0.0,0.0,0.0,28.0,1.0,57.0,1.0,279.44834491200163,,,,,,,,,279.44010315100604,279.7871389390057,280.5819844680009,280.5711690660028,280.571508963003,280.5819844680009,280.5819844680009,280.5819844680009,281.2664116760061,,,,,,,,,,,,,,,,,,,,,,,,,,,,,,,left,0.0,0.6779608340002596,,,,,,sub-128,1,random_dot,,
left,left,58.0,0.0,29.0,right,0.0,1.572242301001097,,accuracy,space,8.31577682900388,,,,,,0.0,0.0,0.0,0.0,29.0,0.0,58.0,0.0,281.2722618530024,,,,,,,,,281.2667017280037,282.0654112840057,282.8553438420058,282.8490038960008,282.849295758002,282.8553438420058,282.8553438420058,282.8553438420058,284.4335152160056,,,,,,,,,,,,,,,,,,,,,,,,,,,,,,,right,0.0,1.572242301001097,,,,,,sub-128,1,random_dot,,
right,right,59.0,1.0,29.0,right,1.0,0.377015805002884,,accuracy,space,8.31577682900388,,,,,,0.0,0.0,0.0,0.0,29.0,1.0,59.0,1.0,284.4393157939994,,,,,,,,,284.433807939,285.23196435100544,286.0226220800032,286.0162056680056,286.0165468530031,286.0226220800032,286.0226220800032,286.0226220800032,286.4059595630024,,,,,,,,,,,,,,,,,,,,,,,,,,,,,,,right,1.0,0.377015805002884,,,,,,sub-128,1,random_dot,,
,,0.0,0.0,0.0,,,,,accuracy,space,8.31577682900388,,,,,,0.0,0.0,0.0,0.0,,,,,,,,,,,,,,,,,,,,,,,,,,,,,,,,,,,,,,,,,,,,,,,,,,,,,,,,,,,,,sub-128,1,random_dot,,
right,right,0.0,0.0,0.0,right,1.0,0.3357839519958361,,speed,space,3.548513135996473,,,,,,0.0,1.0,1.0,1.0,0.0,0.0,0.0,1.0,289.993343068003,,,,,,,,,289.9870906770011,290.7707327340031,291.5653116050016,291.5545531490061,291.55484011400404,291.5653116050016,291.5653116050016,291.5653116050016,291.90652141200553,,,,,,,,,,,,,,,,,,,,,,,,286.41616849099955,286.4228997500031,286.4228997500031,289.9824660430022,space,3.548513135996473,,right,1.0,0.3357839519958361,,,,,,sub-128,1,random_dot,,
left,left,1.0,1.0,0.0,left,1.0,0.326448840998637,,speed,space,3.548513135996473,,,,,,0.0,1.0,1.0,1.0,0.0,1.0,1.0,0.0,291.9150995730015,,,,,,,,,291.90680471700034,293.1036913659991,293.8987932710006,293.8877450460059,293.8880969790044,293.8987932710006,293.8987932710006,293.8987932710006,294.23327452200465,,,,,,,,,,,,,,,,,,,,,,,,,,,,,,,left,1.0,0.326448840998637,,,,,,sub-128,1,random_dot,,
left,left,2.0,0.0,1.0,right,0.0,0.3669270509999478,,speed,space,3.548513135996473,,,,,,0.0,1.0,1.0,1.0,1.0,0.0,2.0,0.0,294.23912635799934,,,,,,,,,294.2335657670046,295.43199741300486,296.221891058005,296.2157457860012,296.2160141560016,296.221891058005,296.221891058005,296.221891058005,296.5904082510024,,,,,,,,,,,,,,,,,,,,,,,,,,,,,,,right,0.0,0.3669270509999478,,,,,,sub-128,1,random_dot,,
right,right,3.0,1.0,1.0,right,1.0,0.3738873110050917,,speed,space,3.548513135996473,,,,,,0.0,1.0,1.0,1.0,1.0,1.0,3.0,1.0,296.5984628700025,,,,,,,,,296.5907100990007,297.78724875899934,298.58200594400114,298.57082503400306,298.5711261930046,298.58200594400114,298.58200594400114,298.58200594400114,298.95770345200435,,,,,,,,,,,,,,,,,,,,,,,,,,,,,,,right,1.0,0.3738873110050917,,,,,,sub-128,1,random_dot,,
right,right,4.0,0.0,2.0,left,0.0,0.3997606419943622,,speed,space,3.548513135996473,,,,,,0.0,1.0,1.0,1.0,2.0,0.0,4.0,1.0,298.96511977400223,,,,,,,,,298.9579969050028,299.0536176620008,299.8486046610051,299.8379196750029,299.8382559349993,299.8486046610051,299.8486046610051,299.8486046610051,300.2500902690008,,,,,,,,,,,,,,,,,,,,,,,,,,,,,,,left,0.0,0.3997606419943622,,,,,,sub-128,1,random_dot,,
left,left,5.0,1.0,2.0,left,1.0,0.4852252839991706,,speed,space,3.548513135996473,,,,,,0.0,1.0,1.0,1.0,2.0,1.0,5.0,0.0,300.2560293900024,,,,,,,,,300.2503852890004,301.0486604489997,301.8390224610048,301.83269852599915,301.8329854969997,301.8390224610048,301.8390224610048,301.8390224610048,302.333706878002,,,,,,,,,,,,,,,,,,,,,,,,,,,,,,,left,1.0,0.4852252839991706,,,,,,sub-128,1,random_dot,,
right,right,6.0,0.0,3.0,right,1.0,0.2625199009999051,,speed,space,3.548513135996473,,,,,,0.0,1.0,1.0,1.0,3.0,0.0,6.0,1.0,302.3396590800039,,,,,,,,,302.33398867800133,302.6820574470039,303.4731090760033,303.4664258640041,303.46677434400044,303.4731090760033,303.4731090760033,303.4731090760033,303.74043064700527,,,,,,,,,,,,,,,,,,,,,,,,,,,,,,,right,1.0,0.2625199009999051,,,,,,sub-128,1,random_dot,,
left,left,7.0,1.0,3.0,left,1.0,0.3082353480058373,,speed,space,3.548513135996473,,,,,,0.0,1.0,1.0,1.0,3.0,1.0,7.0,0.0,303.74852537300467,,,,,,,,,303.74070760000177,304.53733347100206,305.332109392999,305.32136292900395,305.3217025000049,305.332109392999,305.332109392999,305.332109392999,305.6499388500015,,,,,,,,,,,,,,,,,,,,,,,,,,,,,,,left,1.0,0.3082353480058373,,,,,,sub-128,1,random_dot,,
left,left,8.0,0.0,4.0,right,0.0,0.3400015320003149,,speed,space,3.548513135996473,,,,,,0.0,1.0,1.0,1.0,4.0,0.0,8.0,0.0,305.6557817860012,,,,,,,,,305.65023144899897,305.9990556740013,306.789366969002,306.78279947800183,306.7831365480015,306.789366969002,306.789366969002,306.789366969002,307.1332402820044,,,,,,,,,,,,,,,,,,,,,,,,,,,,,,,right,0.0,0.3400015320003149,,,,,,sub-128,1,random_dot,,
right,right,9.0,1.0,4.0,left,0.0,0.3431755290002911,,speed,space,3.548513135996473,,,,,,0.0,1.0,1.0,1.0,4.0,1.0,9.0,1.0,307.13901963500393,,,,,,,,,307.1335222750058,307.48216385200067,308.2729536570041,308.26615877899894,308.2664949940008,308.2729536570041,308.2729536570041,308.2729536570041,308.6226739870035,,,,,,,,,,,,,,,,,,,,,,,,,,,,,,,left,0.0,0.3431755290002911,,,,,,sub-128,1,random_dot,,
right,right,10.0,0.0,5.0,right,1.0,0.3356361789992661,,speed,space,3.548513135996473,,,,,,0.0,1.0,1.0,1.0,5.0,0.0,10.0,1.0,308.6317734730037,,,,,,,,,308.62296494200564,309.420815356003,310.2154676900027,310.2045168900004,310.2048692610042,310.2154676900027,310.2154676900027,310.2154676900027,310.5574930560033,,,,,,,,,,,,,,,,,,,,,,,,,,,,,,,right,1.0,0.3356361789992661,,,,,,sub-128,1,random_dot,,
left,left,11.0,1.0,5.0,right,0.0,0.3922992929947213,,speed,space,3.548513135996473,,,,,,0.0,1.0,1.0,1.0,5.0,1.0,11.0,0.0,310.5653490650002,,,,,,,,,310.5578008560042,310.6539069970022,311.4487487200022,311.437954785004,311.43829698600166,311.4487487200022,311.4487487200022,311.4487487200022,311.8499404040049,,,,,,,,,,,,,,,,,,,,,,,,,,,,,,,right,0.0,0.3922992929947213,,,,,,sub-128,1,random_dot,,
right,right,12.0,0.0,6.0,right,1.0,0.4839118689997121,,speed,space,3.548513135996473,,,,,,0.0,1.0,1.0,1.0,6.0,0.0,12.0,1.0,311.8558808220041,,,,,,,,,311.8502200549992,311.9487956220037,312.73918946600315,312.73280394299945,312.7330816329996,312.73918946600315,312.73918946600315,312.73918946600315,313.23347794599977,,,,,,,,,,,,,,,,,,,,,,,,,,,,,,,right,1.0,0.4839118689997121,,,,,,sub-128,1,random_dot,,
left,left,13.0,1.0,6.0,right,0.0,0.3327539639940369,,speed,space,3.548513135996473,,,,,,0.0,1.0,1.0,1.0,6.0,1.0,13.0,0.0,313.2393368070043,,,,,,,,,313.2337559580046,313.3320548670017,314.12249220800004,314.1160461680047,314.116327501004,314.12249220800004,314.12249220800004,314.12249220800004,314.45687734800595,,,,,,,,,,,,,,,,,,,,,,,,,,,,,,,right,0.0,0.3327539639940369,,,,,,sub-128,1,random_dot,,
right,right,14.0,0.0,7.0,right,1.0,0.359746570000425,,speed,space,3.548513135996473,,,,,,0.0,1.0,1.0,1.0,7.0,0.0,14.0,1.0,314.4652459220015,,,,,,,,,314.4571716440041,314.8039349000028,315.5988865680047,315.5874797130018,315.58773683800246,315.5988865680047,315.5988865680047,315.5988865680047,315.9669227750055,,,,,,,,,,,,,,,,,,,,,,,,,,,,,,,right,1.0,0.359746570000425,,,,,,sub-128,1,random_dot,,
left,left,15.0,1.0,7.0,left,1.0,0.4036255199971492,,speed,space,3.548513135996473,,,,,,0.0,1.0,1.0,1.0,7.0,1.0,15.0,0.0,315.972822542004,,,,,,,,,315.9672232230005,317.16558050700405,317.95579941000324,317.9496673579997,317.949946630004,317.95579941000324,317.95579941000324,317.95579941000324,318.36679485600325,,,,,,,,,,,,,,,,,,,,,,,,,,,,,,,left,1.0,0.4036255199971492,,,,,,sub-128,1,random_dot,,
left,left,16.0,0.0,8.0,right,0.0,0.3088340590038569,,speed,space,3.548513135996473,,,,,,0.0,1.0,1.0,1.0,8.0,0.0,16.0,0.0,318.3728373990016,,,,,,,,,318.36708382600045,318.4653811310054,319.2552801040001,319.2493045529991,319.24957637500484,319.2552801040001,319.2552801040001,319.2552801040001,319.5667794580004,,,,,,,,,,,,,,,,,,,,,,,,,,,,,,,right,0.0,0.3088340590038569,,,,,,sub-128,1,random_dot,,
right,right,17.0,1.0,8.0,left,0.0,0.5052282230026321,,speed,space,3.548513135996473,,,,,,0.0,1.0,1.0,1.0,8.0,1.0,17.0,1.0,319.57265250400087,,,,,,,,,319.5670733450024,320.3654741010032,321.1562392420019,321.14957343300193,321.149912066001,321.1562392420019,321.1562392420019,321.1562392420019,321.66664090700215,,,,,,,,,,,,,,,,,,,,,,,,,,,,,,,left,0.0,0.5052282230026321,,,,,,sub-128,1,random_dot,,
left,left,18.0,0.0,9.0,left,1.0,0.3094831229973351,,speed,space,3.548513135996473,,,,,,0.0,1.0,1.0,1.0,9.0,0.0,18.0,0.0,321.67254302800575,,,,,,,,,321.666919123003,322.4654762150021,323.2561823030046,323.2495609510006,323.2498988130028,323.2561823030046,323.2561823030046,323.2561823030046,323.56728211200243,,,,,,,,,,,,,,,,,,,,,,,,,,,,,,,left,1.0,0.3094831229973351,,,,,,sub-128,1,random_dot,,
right,right,19.0,1.0,9.0,right,1.0,0.5165719809956499,,speed,space,3.548513135996473,,,,,,0.0,1.0,1.0,1.0,9.0,1.0,19.0,1.0,323.57309515300585,,,,,,,,,323.5675642060014,323.91561270700186,324.7062042070029,324.6995233580019,324.69986955100467,324.7062042070029,324.7062042070029,324.7062042070029,325.23265952100337,,,,,,,,,,,,,,,,,,,,,,,,,,,,,,,right,1.0,0.5165719809956499,,,,,,sub-128,1,random_dot,,
right,right,20.0,0.0,10.0,left,0.0,0.3184759270006907,,speed,space,3.548513135996473,,,,,,0.0,1.0,1.0,1.0,10.0,0.0,20.0,1.0,325.2373023290056,,,,,,,,,325.2329203410045,325.3208093819994,326.1154773140006,326.1046050580044,326.1049316310018,326.1154773140006,326.1154773140006,326.1154773140006,326.440003153999,,,,,,,,,,,,,,,,,,,,,,,,,,,,,,,left,0.0,0.3184759270006907,,,,,,sub-128,1,random_dot,,
left,left,21.0,1.0,10.0,right,0.0,0.2725609940025606,,speed,space,3.548513135996473,,,,,,0.0,1.0,1.0,1.0,10.0,1.0,21.0,0.0,326.4486890260014,,,,,,,,,326.44026470000244,326.5373516489999,327.33216980600264,327.3216046170055,327.3219549100031,327.33216980600264,327.33216980600264,327.33216980600264,327.6070068140034,,,,,,,,,,,,,,,,,,,,,,,,,,,,,,,right,0.0,0.2725609940025606,,,,,,sub-128,1,random_dot,,
right,right,22.0,0.0,11.0,left,0.0,0.2800972160039237,,speed,space,3.548513135996473,,,,,,0.0,1.0,1.0,1.0,11.0,0.0,22.0,1.0,327.6152321539994,,,,,,,,,327.60730505900574,327.7040306570052,328.49892538800486,328.4875746780017,328.4878870370012,328.49892538800486,328.49892538800486,328.49892538800486,328.7835383250058,,,,,,,,,,,,,,,,,,,,,,,,,,,,,,,left,0.0,0.2800972160039237,,,,,,sub-128,1,random_dot,,
left,left,23.0,1.0,11.0,right,0.0,0.316202724003233,,speed,space,3.548513135996473,,,,,,0.0,1.0,1.0,1.0,11.0,1.0,23.0,0.0,328.7894939540056,,,,,,,,,328.7838387320008,328.8821872210028,329.6729242040019,329.66666290300054,329.6669400380051,329.6729242040019,329.6729242040019,329.6729242040019,329.9907615050033,,,,,,,,,,,,,,,,,,,,,,,,,,,,,,,right,0.0,0.316202724003233,,,,,,sub-128,1,random_dot,,
right,right,24.0,0.0,12.0,left,0.0,0.8903813760043704,,speed,space,3.548513135996473,,,,,,0.0,1.0,1.0,1.0,12.0,0.0,24.0,1.0,329.9986570170004,,,,,,,,,329.991063706002,330.78736062200187,331.5822240490015,331.5712632230061,331.57160162900254,331.5822240490015,331.5822240490015,331.5822240490015,332.4828103969994,,,,,,,,,,,,,,,,,,,,,,,,,,,,,,,left,0.0,0.8903813760043704,,,,,,sub-128,1,random_dot,,
left,left,25.0,1.0,12.0,left,1.0,0.7041185590060195,,speed,space,3.548513135996473,,,,,,0.0,1.0,1.0,1.0,12.0,1.0,25.0,0.0,332.48736905900296,,,,,,,,,332.4830840180002,332.82053056500445,333.61555080700055,333.60459419900144,333.60493338800006,333.61555080700055,333.61555080700055,333.61555080700055,334.32400742500613,,,,,,,,,,,,,,,,,,,,,,,,,,,,,,,left,1.0,0.7041185590060195,,,,,,sub-128,1,random_dot,,
right,right,26.0,0.0,13.0,left,0.0,0.8140526409988524,,speed,space,3.548513135996473,,,,,,0.0,1.0,1.0,1.0,13.0,0.0,26.0,1.0,334.3322409320026,,,,,,,,,334.32430129600107,335.5208524510017,336.315479419005,336.3045996470028,336.30494106300466,336.315479419005,336.315479419005,336.315479419005,337.1337022680018,,,,,,,,,,,,,,,,,,,,,,,,,,,,,,,left,0.0,0.8140526409988524,,,,,,sub-128,1,random_dot,,
left,left,27.0,1.0,13.0,right,0.0,0.8947220059999381,,speed,space,3.548513135996473,,,,,,0.0,1.0,1.0,1.0,13.0,1.0,27.0,0.0,337.1395592300032,,,,,,,,,337.13399498900253,337.23238282900274,338.0228810280023,338.016333794003,338.016673255006,338.0228810280023,338.0228810280023,338.0228810280023,338.9234064330012,,,,,,,,,,,,,,,,,,,,,,,,,,,,,,,right,0.0,0.8947220059999381,,,,,,sub-128,1,random_dot,,
right,right,28.0,0.0,14.0,right,1.0,0.6608919439968304,,speed,space,3.548513135996473,,,,,,0.0,1.0,1.0,1.0,14.0,0.0,28.0,1.0,338.93223377600225,,,,,,,,,338.92368044100294,339.270673058003,340.06563882000046,340.05441771100595,340.0547599460042,340.06563882000046,340.06563882000046,340.06563882000046,340.73380730300414,,,,,,,,,,,,,,,,,,,,,,,,,,,,,,,right,1.0,0.6608919439968304,,,,,,sub-128,1,random_dot,,
left,left,29.0,1.0,14.0,left,1.0,0.4090568179963156,,speed,space,3.548513135996473,,,,,,0.0,1.0,1.0,1.0,14.0,1.0,29.0,0.0,340.739709624002,,,,,,,,,340.73411000500346,341.0823492359996,341.8731001960041,341.866600348003,341.8669451570022,341.8731001960041,341.8731001960041,341.8731001960041,342.28409650600224,,,,,,,,,,,,,,,,,,,,,,,,,,,,,,,left,1.0,0.4090568179963156,,,,,,sub-128,1,random_dot,,
left,left,30.0,0.0,15.0,right,0.0,0.8287272550005582,,speed,space,3.548513135996473,,,,,,0.0,1.0,1.0,1.0,15.0,0.0,30.0,0.0,342.2901057269992,,,,,,,,,342.2843917510036,343.082243116005,343.87266313200234,343.8661689159999,343.8664524730048,343.87266313200234,343.87266313200234,343.87266313200234,344.70742590100417,,,,,,,,,,,,,,,,,,,,,,,,,,,,,,,right,0.0,0.8287272550005582,,,,,,sub-128,1,random_dot,,
right,right,31.0,1.0,15.0,left,0.0,0.3054903630036278,,speed,space,3.548513135996473,,,,,,0.0,1.0,1.0,1.0,15.0,1.0,31.0,1.0,344.71546705700166,,,,,,,,,344.70772253100586,345.503220892002,346.2989225150013,346.2877145040038,346.28805804900185,346.2989225150013,346.2989225150013,346.2989225150013,346.6069061840026,,,,,,,,,,,,,,,,,,,,,,,,,,,,,,,left,0.0,0.3054903630036278,,,,,,sub-128,1,random_dot,,
right,right,32.0,0.0,16.0,right,1.0,0.6972782849989017,,speed,space,3.548513135996473,,,,,,0.0,1.0,1.0,1.0,16.0,0.0,32.0,1.0,346.61545395100256,,,,,,,,,346.60720628700074,347.80379840599926,348.5987238270027,348.5875438400035,348.58779605200107,348.5987238270027,348.5987238270027,348.5987238270027,349.30033340999944,,,,,,,,,,,,,,,,,,,,,,,,,,,,,,,right,1.0,0.6972782849989017,,,,,,sub-128,1,random_dot,,
left,left,33.0,1.0,16.0,left,1.0,0.7924776349973399,,speed,space,3.548513135996473,,,,,,0.0,1.0,1.0,1.0,16.0,1.0,33.0,0.0,349.3061922090056,,,,,,,,,349.30062677900423,350.4988836240009,351.28899581700534,351.28284096500283,351.28317258500465,351.28899581700534,351.28899581700534,351.28899581700534,352.0836214400042,,,,,,,,,,,,,,,,,,,,,,,,,,,,,,,left,1.0,0.7924776349973399,,,,,,sub-128,1,random_dot,,
right,right,34.0,0.0,17.0,left,0.0,0.6438670369971078,,speed,space,3.548513135996473,,,,,,0.0,1.0,1.0,1.0,17.0,0.0,34.0,1.0,352.08958820200496,,,,,,,,,352.0839107600041,353.2823627290054,354.07332665500144,354.066731114006,354.0670662449993,354.07332665500144,354.07332665500144,354.07332665500144,354.723930238004,,,,,,,,,,,,,,,,,,,,,,,,,,,,,,,left,0.0,0.6438670369971078,,,,,,sub-128,1,random_dot,,
left,left,35.0,1.0,17.0,left,1.0,0.3596172379984637,,speed,space,3.548513135996473,,,,,,0.0,1.0,1.0,1.0,17.0,1.0,35.0,0.0,354.732284179001,,,,,,,,,354.7242081840013,354.820848318006,355.6157203910043,355.6049610150003,355.6052456180041,355.6157203910043,355.6157203910043,355.6157203910043,355.9834145310015,,,,,,,,,,,,,,,,,,,,,,,,,,,,,,,left,1.0,0.3596172379984637,,,,,,sub-128,1,random_dot,,
left,left,36.0,0.0,18.0,left,1.0,0.4167807470003026,,speed,space,3.548513135996473,,,,,,0.0,1.0,1.0,1.0,18.0,0.0,36.0,0.0,355.98933319200296,,,,,,,,,355.9837023260043,356.78232981000474,357.5730985100017,357.5664288350017,357.5667697050012,357.5730985100017,357.5730985100017,357.5730985100017,358.00025453000126,,,,,,,,,,,,,,,,,,,,,,,,,,,,,,,left,1.0,0.4167807470003026,,,,,,sub-128,1,random_dot,,
right,right,37.0,1.0,18.0,left,0.0,1.0208995759967363,,speed,space,3.548513135996473,,,,,,0.0,1.0,1.0,1.0,18.0,1.0,37.0,1.0,358.00617286500346,,,,,,,,,358.0005351100044,358.3491790600019,359.1398831110055,359.1332058250045,359.1335412710032,359.1398831110055,359.1398831110055,359.1398831110055,360.166895579001,,,,,,,,,,,,,,,,,,,,,,,,,,,,,,,left,0.0,1.0208995759967363,,,,,,sub-128,1,random_dot,,
left,left,38.0,0.0,19.0,left,1.0,1.6328224020035125,,speed,space,3.548513135996473,,,,,,0.0,1.0,1.0,1.0,19.0,0.0,38.0,0.0,360.1727028410023,,,,,,,,,360.1671944100017,361.3657905,362.15598395500274,362.1498059420046,362.1500909430033,362.15598395500274,362.15598395500274,362.15598395500274,363.7904537900031,,,,,,,,,,,,,,,,,,,,,,,,,,,,,,,left,1.0,1.6328224020035125,,,,,,sub-128,1,random_dot,,
right,right,39.0,1.0,19.0,right,1.0,0.6381038109975634,,speed,space,3.548513135996473,,,,,,0.0,1.0,1.0,1.0,19.0,1.0,39.0,1.0,363.7989275020009,,,,,,,,,363.7907466790057,364.13736333700217,364.9323617600021,364.9215422780034,364.9218784580007,364.9323617600021,364.9323617600021,364.9323617600021,365.5736572400056,,,,,,,,,,,,,,,,,,,,,,,,,,,,,,,right,1.0,0.6381038109975634,,,,,,sub-128,1,random_dot,,
right,right,40.0,0.0,20.0,left,0.0,0.3364013949976652,,speed,space,3.548513135996473,,,,,,0.0,1.0,1.0,1.0,20.0,0.0,40.0,1.0,365.5822265650058,,,,,,,,,365.573940938004,366.7708608660032,367.5657483809992,367.55518829700304,367.5554691030047,367.5657483809992,367.5657483809992,367.5657483809992,367.90649003,,,,,,,,,,,,,,,,,,,,,,,,,,,,,,,left,0.0,0.3364013949976652,,,,,,sub-128,1,random_dot,,
left,left,41.0,1.0,20.0,left,1.0,0.6795957290014485,,speed,space,3.548513135996473,,,,,,0.0,1.0,1.0,1.0,20.0,1.0,41.0,0.0,367.9155576320045,,,,,,,,,367.9067651880032,369.1039791229996,369.8990487170013,369.8883593560022,369.88870174399926,369.8990487170013,369.8990487170013,369.8990487170013,370.5838559160038,,,,,,,,,,,,,,,,,,,,,,,,,,,,,,,left,1.0,0.6795957290014485,,,,,,sub-128,1,random_dot,,
right,right,42.0,0.0,21.0,left,0.0,0.4558891170017887,,speed,space,3.548513135996473,,,,,,0.0,1.0,1.0,1.0,21.0,0.0,42.0,1.0,370.5896975080032,,,,,,,,,370.5841488810038,370.6826545240037,371.4726628030039,371.4662360530056,371.4665306710013,371.4726628030039,371.4726628030039,371.4726628030039,371.9336351210004,,,,,,,,,,,,,,,,,,,,,,,,,,,,,,,left,0.0,0.4558891170017887,,,,,,sub-128,1,random_dot,,
left,left,43.0,1.0,21.0,left,1.0,0.3691212530029588,,speed,space,3.548513135996473,,,,,,0.0,1.0,1.0,1.0,21.0,1.0,43.0,0.0,371.9395371740029,,,,,,,,,371.9339299490021,372.2822737410024,373.0730744399989,373.06659736599977,373.066937071002,373.0730744399989,373.0730744399989,373.0730744399989,373.45026032400347,,,,,,,,,,,,,,,,,,,,,,,,,,,,,,,left,1.0,0.3691212530029588,,,,,,sub-128,1,random_dot,,
left,left,44.0,0.0,22.0,right,0.0,0.4107624259995646,,speed,space,3.548513135996473,,,,,,0.0,1.0,1.0,1.0,22.0,0.0,44.0,0.0,373.4561626030045,,,,,,,,,373.4505458339991,374.2491307370001,375.0399170290039,375.0334332820057,375.0337712100009,375.0399170290039,375.0399170290039,375.0399170290039,375.4568695900016,,,,,,,,,,,,,,,,,,,,,,,,,,,,,,,right,0.0,0.4107624259995646,,,,,,sub-128,1,random_dot,,
right,right,45.0,1.0,22.0,right,1.0,0.3193865540015395,,speed,space,3.548513135996473,,,,,,0.0,1.0,1.0,1.0,22.0,1.0,45.0,1.0,375.46584510400135,,,,,,,,,375.4571578850009,376.2543270829992,377.0490839900013,377.0379305220049,377.03820978099975,377.0490839900013,377.0490839900013,377.0490839900013,377.3746904110012,,,,,,,,,,,,,,,,,,,,,,,,,,,,,,,right,1.0,0.3193865540015395,,,,,,sub-128,1,random_dot,,
left,left,46.0,0.0,23.0,left,1.0,0.3422041699959663,,speed,space,3.548513135996473,,,,,,0.0,1.0,1.0,1.0,23.0,0.0,46.0,0.0,377.3824005860006,,,,,,,,,377.37498691500514,378.170459246001,378.9658049490026,378.9547775350002,378.9551169129991,378.9658049490026,378.9658049490026,378.9658049490026,379.3172403460048,,,,,,,,,,,,,,,,,,,,,,,,,,,,,,,left,1.0,0.3422041699959663,,,,,,sub-128,1,random_dot,,
right,right,47.0,1.0,23.0,right,1.0,0.6871994829998584,,speed,space,3.548513135996473,,,,,,0.0,1.0,1.0,1.0,23.0,1.0,47.0,1.0,379.3231156170005,,,,,,,,,379.31751816999895,380.5155719940012,381.306755054,381.2999469970018,381.3002857820029,381.306755054,381.306755054,381.306755054,382.0003256780037,,,,,,,,,,,,,,,,,,,,,,,,,,,,,,,right,1.0,0.6871994829998584,,,,,,sub-128,1,random_dot,,
right,right,48.0,0.0,24.0,left,0.0,0.3950241859929519,,speed,space,3.548513135996473,,,,,,0.0,1.0,1.0,1.0,24.0,0.0,48.0,1.0,382.0061600760018,,,,,,,,,382.0006273530016,383.1992300839993,383.98986257300567,383.9830673300021,383.9834193870047,383.98986257300567,383.98986257300567,383.98986257300567,384.39065938600106,,,,,,,,,,,,,,,,,,,,,,,,,,,,,,,left,0.0,0.3950241859929519,,,,,,sub-128,1,random_dot,,
left,left,49.0,1.0,24.0,right,0.0,0.2968581110035302,,speed,space,3.548513135996473,,,,,,0.0,1.0,1.0,1.0,24.0,1.0,49.0,0.0,384.3989639400024,,,,,,,,,384.3909448320046,385.58783267700346,386.3825406430042,386.371599336002,386.3718901259999,386.3825406430042,386.3825406430042,386.3825406430042,386.6841940480008,,,,,,,,,,,,,,,,,,,,,,,,,,,,,,,right,0.0,0.2968581110035302,,,,,,sub-128,1,random_dot,,
left,left,50.0,0.0,25.0,left,1.0,0.3022173790013767,,speed,space,3.548513135996473,,,,,,0.0,1.0,1.0,1.0,25.0,0.0,50.0,0.0,386.69010058200365,,,,,,,,,386.684498268005,387.0325552210052,387.82283657800144,387.8165257340006,387.8168057830044,387.82283657800144,387.82283657800144,387.82283657800144,388.13361969499965,,,,,,,,,,,,,,,,,,,,,,,,,,,,,,,left,1.0,0.3022173790013767,,,,,,sub-128,1,random_dot,,
right,right,51.0,1.0,25.0,right,1.0,0.3139330479971249,,speed,space,3.548513135996473,,,,,,0.0,1.0,1.0,1.0,25.0,1.0,51.0,1.0,388.13942810799927,,,,,,,,,388.13389416700375,389.3213273190049,390.1158725250061,390.1049252400044,390.1052720709995,390.1158725250061,390.1158725250061,390.1158725250061,390.43392992400186,,,,,,,,,,,,,,,,,,,,,,,,,,,,,,,right,1.0,0.3139330479971249,,,,,,sub-128,1,random_dot,,
right,right,52.0,0.0,26.0,left,0.0,0.2880191610020119,,speed,space,3.548513135996473,,,,,,0.0,1.0,1.0,1.0,26.0,0.0,52.0,1.0,390.43972274400585,,,,,,,,,390.4342260970007,391.23272197999904,392.0233739260002,392.0165272770028,392.0168773870028,392.0233739260002,392.0233739260002,392.0233739260002,392.3174747500016,,,,,,,,,,,,,,,,,,,,,,,,,,,,,,,left,0.0,0.2880191610020119,,,,,,sub-128,1,random_dot,,
left,left,53.0,1.0,26.0,right,0.0,0.2764165419939672,,speed,space,3.548513135996473,,,,,,0.0,1.0,1.0,1.0,26.0,1.0,53.0,0.0,392.32341281400295,,,,,,,,,392.31776525100577,393.1158448410061,393.9063005690041,393.8998968980013,393.9002342110034,393.9063005690041,393.9063005690041,393.9063005690041,394.18432987500273,,,,,,,,,,,,,,,,,,,,,,,,,,,,,,,right,0.0,0.2764165419939672,,,,,,sub-128,1,random_dot,,
right,right,54.0,0.0,27.0,left,0.0,0.3557410450011957,,speed,space,3.548513135996473,,,,,,0.0,1.0,1.0,1.0,27.0,0.0,54.0,1.0,394.1902267690021,,,,,,,,,394.18460952100577,394.282682983001,395.072958621,395.0666407020035,395.0669229300038,395.072958621,395.072958621,395.072958621,395.43391658000473,,,,,,,,,,,,,,,,,,,,,,,,,,,,,,,left,0.0,0.3557410450011957,,,,,,sub-128,1,random_dot,,
left,left,55.0,1.0,27.0,right,0.0,0.2712577769998461,,speed,space,3.548513135996473,,,,,,0.0,1.0,1.0,1.0,27.0,1.0,55.0,0.0,395.4397898000025,,,,,,,,,395.4342050800042,395.7825368250051,396.5731388300046,396.5667440399993,396.56709723300446,396.5731388300046,396.5731388300046,396.5731388300046,396.8505082260017,,,,,,,,,,,,,,,,,,,,,,,,,,,,,,,right,0.0,0.2712577769998461,,,,,,sub-128,1,random_dot,,
right,right,56.0,0.0,28.0,left,0.0,0.250875443998666,,speed,space,3.548513135996473,,,,,,0.0,1.0,1.0,1.0,28.0,0.0,56.0,1.0,396.8562713420033,,,,,,,,,396.8507909590044,397.1992268640024,397.9895721100038,397.9831105320045,397.98339928200585,397.9895721100038,397.9895721100038,397.9895721100038,398.2509999390022,,,,,,,,,,,,,,,,,,,,,,,,,,,,,,,left,0.0,0.250875443998666,,,,,,sub-128,1,random_dot,,
left,left,57.0,1.0,28.0,right,0.0,0.4126825499988626,,speed,space,3.548513135996473,,,,,,0.0,1.0,1.0,1.0,28.0,1.0,57.0,0.0,398.2569555360024,,,,,,,,,398.2513099150019,398.34929566900246,399.1395086550037,399.1332800840028,399.13356144000136,399.1395086550037,399.1395086550037,399.1395086550037,399.5570773500003,,,,,,,,,,,,,,,,,,,,,,,,,,,,,,,right,0.0,0.4126825499988626,,,,,,sub-128,1,random_dot,,
right,right,58.0,0.0,29.0,left,0.0,0.3370819430056144,,speed,space,3.548513135996473,,,,,,0.0,1.0,1.0,1.0,29.0,0.0,58.0,1.0,399.5656724260043,,,,,,,,,399.5573531780028,400.3539985910029,401.1492234990001,401.1382401840019,401.13852100200165,401.1492234990001,401.1492234990001,401.1492234990001,401.49005962700176,,,,,,,,,,,,,,,,,,,,,,,,,,,,,,,left,0.0,0.3370819430056144,,,,,,sub-128,1,random_dot,,
left,left,59.0,1.0,29.0,right,0.0,0.5630087579993415,,speed,space,3.548513135996473,,,,,,0.0,1.0,1.0,1.0,29.0,1.0,59.0,0.0,401.4990605929997,,,,,,,,,401.4903335220006,402.6879728880013,403.4828007600008,403.4719684090014,403.4722478469994,403.4828007600008,403.4828007600008,403.4828007600008,404.0506984530002,,,,,,,,,,,,,,,,,,,,,,,,,,,,,,,right,0.0,0.5630087579993415,,,,,,sub-128,1,random_dot,,
,,1.0,1.0,0.0,,,,,speed,space,3.548513135996473,,,,,,0.0,1.0,1.0,1.0,,,,,,,,,,,,,,,,,,,,,,,,,,,,,,,,,,,,,,,,,,,,,,,,,,,,,,,,,,,,,sub-128,1,random_dot,,
,,,,,,,,,,,,,,,,,,,,,,,,,,,,,,,,,,,,,,,,,,,,,,,,,,,,,,,,,,,,,,,,,,,,,,,,,,,,,404.054969831006,404.062320916004,409.0541605120016,409.0500321110012,sub-128,1,random_dot,,
