wordCTK,colorCTK,corrAnsCTK,congruentCTK,thisN,thisTrialN,thisRepN,keyResp_CTK.keys,keyResp_CTK.corr,keyResp_CTK.rt,keyResp_CTK.duration,wordPractice,colorPractice,corrAnsPractice,congruentPractice,respPractice.keys,respPractice.corr,respPractice.rt,respPractice.duration,word,color,corrAns,congruent,keyResp_test_run.keys,keyResp_test_run.corr,keyResp_test_run.rt,keyResp_test_run.duration,trials_CTK.thisRepN,trials_CTK.thisTrialN,trials_CTK.thisN,trials_CTK.thisIndex,trials_practice.thisRepN,trials_practice.thisTrialN,trials_practice.thisN,trials_practice.thisIndex,trials_test.thisRepN,trials_test.thisTrialN,trials_test.thisN,trials_test.thisIndex,thisRow.t,notes,instruction.started,instr_text.started,instr_image.started,instr_resp.started,instruction.stopped,instr_resp.keys,instr_resp.rt,instr_resp.duration,instr_color_to_key.started,instr_ctk.started,resp_ctk.started,instr_color_to_key.stopped,resp_ctk.keys,resp_ctk.rt,resp_ctk.duration,ITI.started,fixcross.started,fixcross.stopped,ITI.stopped,color_to_key_run.started,stimulus_CTK.started,keyResp_CTK.started,color_to_key_run.stopped,trials_CTK.keyResp_CTK.keys,trials_CTK.keyResp_CTK.corr,trials_CTK.keyResp_CTK.rt,trials_CTK.keyResp_CTK.duration,instr_practice.started,instr_practice_text.started,instr_practice_resp.started,instr_practice.stopped,instr_practice_resp.keys,instr_practice_resp.rt,instr_practice_resp.duration,practice_run.started,stimulus_practice.started,respPractice.started,practice_run.stopped,trials_practice.respPractice.keys,trials_practice.respPractice.corr,trials_practice.respPractice.rt,trials_practice.respPractice.duration,feedback.started,textFeedback.started,feedback.stopped,textFeedback.stopped,instr_test.started,instr_test_text.started,instr_test_resp.started,instr_test.stopped,instr_test_resp.keys,instr_test_resp.rt,instr_test_resp.duration,test_run.started,stimulus_test_run.started,keyResp_test_run.started,test_run.stopped,trials_test.keyResp_test_run.keys,trials_test.keyResp_test_run.corr,trials_test.keyResp_test_run.rt,trials_test.keyResp_test_run.duration,goodbye.started,textGoodbye.started,goodbye.stopped,participant,session,expName,frameRate,Unnamed: 112
,,,,,,,,,,,,,,,,,,,,,,,,,,,,,,,,,,,,,,,,,0.0144390419882256,0.0336876669898629,0.0336876669898629,0.0336876669898629,80.05002879200038,space,79.981725250007,,,,,,,,,,,,,,,,,,,,,,,,,,,,,,,,,,,,,,,,,,,,,,,,,,,,,,,,,,sub-036,1,stroop_test,,
,,,,,,,,,,,,,,,,,,,,,,,,,,,,,,,,,,,,,,,,,,,,,,,,,80.05015095799172,80.07327383299707,80.07327383299707,86.59319200000027,space,6.506362916989019,,,,,,,,,,,,,,,,,,,,,,,,,,,,,,,,,,,,,,,,,,,,,,,,,,,sub-036,1,stroop_test,,
test,yellow,g,1.0,0.0,0.0,0.0,g,1.0,1.5424349999957483,,,,,,,,,,,,,,,,,,0.0,0.0,0.0,1.0,,,,,,,,,86.62405662499077,,,,,,,,,,,,,,,,,86.60702887499065,87.79650533299719,88.5973910419998,88.58481154199399,88.59115933299472,88.5973910419998,88.5973910419998,90.14249874999224,g,1.0,1.5424349999957483,,,,,,,,,,,,,,,,,,,,,,,,,,,,,,,,,,,,,,,sub-036,1,stroop_test,,
test,blue,b,1.0,1.0,1.0,0.0,b,1.0,1.2848340000055032,,,,,,,,,,,,,,,,,,0.0,1.0,1.0,2.0,,,,,,,,,90.15049258299403,,,,,,,,,,,,,,,,,90.14286883299064,91.34029254199412,92.13784362499428,92.12426920799771,92.12488829198992,92.13784362499428,92.13784362499428,93.42484245800006,b,1.0,1.2848340000055032,,,,,,,,,,,,,,,,,,,,,,,,,,,,,,,,,,,,,,,sub-036,1,stroop_test,,
test,red,r,1.0,2.0,2.0,0.0,r,1.0,1.1875881250016391,,,,,,,,,,,,,,,,,,0.0,2.0,2.0,0.0,,,,,,,,,93.43294624998816,,,,,,,,,,,,,,,,,93.4252430419874,94.21287220799422,95.0027004579897,94.99625224999907,94.99684987499496,95.0027004579897,95.0027004579897,96.19374062499264,r,1.0,1.1875881250016391,,,,,,,,,,,,,,,,,,,,,,,,,,,,,,,,,,,,,,,sub-036,1,stroop_test,,
test,yellow,g,1.0,3.0,0.0,1.0,g,1.0,0.9760872500046388,,,,,,,,,,,,,,,,,,1.0,0.0,3.0,1.0,,,,,,,,,96.20104070799424,,,,,,,,,,,,,,,,,96.19423008299782,97.3826691669965,98.177869207997,98.17066549998708,98.17126291699242,98.177869207997,98.177869207997,99.1706573329866,g,1.0,0.9760872500046388,,,,,,,,,,,,,,,,,,,,,,,,,,,,,,,,,,,,,,,sub-036,1,stroop_test,,
test,red,r,1.0,4.0,1.0,1.0,r,1.0,2.068931708010496,,,,,,,,,,,,,,,,,,1.0,1.0,4.0,0.0,,,,,,,,,99.17923424999752,,,,,,,,,,,,,,,,,99.17106283298926,99.26114262499324,100.05529158299032,100.04899562499486,100.0495775419986,100.05529158299032,100.05529158299032,102.12665595799626,r,1.0,2.068931708010496,,,,,,,,,,,,,,,,,,,,,,,,,,,,,,,,,,,,,,,sub-036,1,stroop_test,,
test,blue,b,1.0,5.0,2.0,1.0,b,1.0,0.8866238749906188,,,,,,,,,,,,,,,,,,1.0,2.0,5.0,2.0,,,,,,,,,102.1341494579974,,,,,,,,,,,,,,,,,102.12721666699508,103.34275641699789,104.13955062499736,104.13085404199956,104.13144829199882,104.13955062499736,104.13955062499736,105.03099695799756,b,1.0,0.8866238749906188,,,,,,,,,,,,,,,,,,,,,,,,,,,,,,,,,,,,,,,sub-036,1,stroop_test,,
test,blue,b,1.0,6.0,0.0,2.0,b,1.0,0.637770665998687,,,,,,,,,,,,,,,,,,2.0,0.0,6.0,2.0,,,,,,,,,105.0365568749985,,,,,,,,,,,,,,,,,105.03138345798652,105.12207349999515,105.92399170799764,105.91855020799268,105.91915574998713,105.92399170799764,105.92399170799764,106.56378645799124,b,1.0,0.637770665998687,,,,,,,,,,,,,,,,,,,,,,,,,,,,,,,,,,,,,,,sub-036,1,stroop_test,,
test,yellow,g,1.0,7.0,1.0,2.0,g,1.0,2.963688625008217,,,,,,,,,,,,,,,,,,2.0,1.0,7.0,1.0,,,,,,,,,106.57110295799794,,,,,,,,,,,,,,,,,106.56428679199598,107.75412824998784,108.55450520799786,108.5461163329892,108.5476730829978,108.55450520799786,108.55450520799786,111.52255916698778,g,1.0,2.963688625008217,,,,,,,,,,,,,,,,,,,,,,,,,,,,,,,,,,,,,,,sub-036,1,stroop_test,,
test,red,r,1.0,8.0,2.0,2.0,r,1.0,0.8061575419997098,,,,,,,,,,,,,,,,,,2.0,2.0,8.0,0.0,,,,,,,,,111.5325819169957,,,,,,,,,,,,,,,,,111.52308520799852,111.87473304198647,112.67640733299775,112.66740866699548,112.66801404199214,112.67640733299775,112.67640733299775,113.49340566698812,r,1.0,0.8061575419997098,,,,,,,,,,,,,,,,,,,,,,,,,,,,,,,,,,,,,,,sub-036,1,stroop_test,,
test,blue,b,1.0,9.0,0.0,3.0,b,1.0,1.1804378329979954,,,,,,,,,,,,,,,,,,3.0,0.0,9.0,2.0,,,,,,,,,113.50152674999843,,,,,,,,,,,,,,,,,113.49378633299784,113.58259012499184,114.3828083749977,114.37633204199663,114.37694041698704,114.3828083749977,114.3828083749977,115.57574266698794,b,1.0,1.1804378329979954,,,,,,,,,,,,,,,,,,,,,,,,,,,,,,,,,,,,,,,sub-036,1,stroop_test,,
test,yellow,g,1.0,10.0,1.0,3.0,g,1.0,1.3123372090049088,,,,,,,,,,,,,,,,,,3.0,1.0,10.0,1.0,,,,,,,,,115.58388870798808,,,,,,,,,,,,,,,,,115.57629804199678,116.37726549999206,117.17297679198964,117.16554666699083,117.16659899998922,117.17297679198964,117.17297679198964,118.48837808299868,g,1.0,1.3123372090049088,,,,,,,,,,,,,,,,,,,,,,,,,,,,,,,,,,,,,,,sub-036,1,stroop_test,,
test,red,r,1.0,11.0,2.0,3.0,r,1.0,0.7218607499962673,,,,,,,,,,,,,,,,,,3.0,2.0,11.0,0.0,,,,,,,,,118.49836762499764,,,,,,,,,,,,,,,,,118.48873962499783,119.27779366698816,120.07375712499196,120.06088683298732,120.06144762499024,120.07375712499196,120.07375712499196,120.80191349999222,r,1.0,0.7218607499962673,,,,,,,,,,,,,,,,,,,,,,,,,,,,,,,,,,,,,,,sub-036,1,stroop_test,,
,,,,,,,,,,,,,,,,,,,,,,,,,,,,,,,,,,,,,,,,,,,,,,,,,,,,,,,,,,,,,,,,,,,,120.80214558298758,120.81232662498952,120.81232662498952,127.58276754200052,space,6.748260916996514,,,,,,,,,,,,,,,,,,,,,,,,,,,,,,,,sub-036,1,stroop_test,,
,,,,0.0,0.0,0.0,,,,,gelb,yellow,g,1.0,g,1.0,0.7867262499930803,,,,,,,,,,,,,,0.0,0.0,0.0,10.0,,,,,127.60302308299288,,,,,,,,,,,,,,,,,127.59594229199864,127.68327249999857,128.48197962499398,128.47049633300048,,,,,,,,,,,,,,,,128.475786666997,128.48197962499398,128.48197962499398,129.27241033299651,g,1.0,0.7867262499930803,,129.27912220799772,129.28893345799588,130.2749904999946,,,,,,,,,,,,,,,,,,,,sub-036,1,stroop_test,,
,,,,1.0,1.0,0.0,,,,,rot,red,r,1.0,r,1.0,0.6155570419941796,,,,,,,,,,,,,,0.0,1.0,1.0,0.0,,,,,130.29809070799092,,,,,,,,,,,,,,,,,130.27565341698937,130.3894446669874,131.19401049999578,131.18188312499842,,,,,,,,,,,,,,,,131.1876898749906,131.19401049999578,131.19401049999578,131.82125704200007,r,1.0,0.6155570419941796,,131.82205545798934,131.8316279999999,132.82387495799048,,,,,,,,,,,,,,,,,,,,sub-036,1,stroop_test,,
,,,,2.0,2.0,0.0,,,,,blau,yellow,g,0.0,b,0.0,1.1540721249912167,,,,,,,,,,,,,,0.0,2.0,2.0,7.0,,,,,132.8274586669868,,,,,,,,,,,,,,,,,132.824212291991,133.1687071669876,133.98091729199223,133.96800054199412,,,,,,,,,,,,,,,,133.97481574999983,133.98091729199223,133.98091729199223,135.13899245799985,b,0.0,1.1540721249912167,,135.14404920800007,135.15302491698822,136.14971691698884,,,,,,,,,,,,,,,,,,,,sub-036,1,stroop_test,,
,,,,3.0,3.0,0.0,,,,,rot,blue,b,0.0,b,1.0,1.759082207994652,,,,,,,,,,,,,,0.0,3.0,3.0,2.0,,,,,136.15605516699725,,,,,,,,,,,,,,,,,136.15057104198786,137.328259832997,138.1252214579872,138.11129895799968,,,,,,,,,,,,,,,,138.11450883299403,138.1252214579872,138.1252214579872,139.8885330419871,b,1.0,1.759082207994652,,139.89259733298968,139.9017019999883,140.90167120799015,,,,,,,,,,,,,,,,,,,,sub-036,1,stroop_test,,
,,,,4.0,4.0,0.0,,,,,gelb,yellow,g,1.0,g,1.0,1.5288547079981072,,,,,,,,,,,,,,0.0,4.0,4.0,11.0,,,,,140.90586129199073,,,,,,,,,,,,,,,,,140.90204883299884,141.68013087500003,142.4792359169951,142.46888649999164,,,,,,,,,,,,,,,,142.47292874999405,142.4792359169951,142.4792359169951,144.0138657919888,g,1.0,1.5288547079981072,,144.01446204198874,144.02360129199224,145.00742724999145,145.01814912499685,,,,,,,,,,,,,,,,,,,sub-036,1,stroop_test,,
,,,,5.0,5.0,0.0,,,,,blau,red,r,0.0,r,1.0,2.03238879199489,,,,,,,,,,,,,,0.0,5.0,5.0,4.0,,,,,145.01814912499685,,,,,,,,,,,,,,,,,145.00783091699122,146.21145658299793,147.01114424999105,146.99929495799006,,,,,,,,,,,,,,,,147.0027067919873,147.01114424999105,147.01114424999105,149.0614202919969,r,1.0,2.03238879199489,,149.0621089169872,149.07170458299515,150.05829037498916,150.0617816669983,,,,,,,,,,,,,,,,,,,sub-036,1,stroop_test,,
,,,,6.0,6.0,0.0,,,,,rot,red,r,1.0,r,1.0,1.2994161670067117,,,,,,,,,,,,,,0.0,6.0,6.0,1.0,,,,,150.0617816669983,,,,,,,,,,,,,,,,,150.05866999999853,151.2641531249974,152.06646704199375,152.05797537499166,,,,,,,,,,,,,,,,152.06138754199492,152.06646704199375,152.06646704199375,153.37972483299382,r,1.0,1.2994161670067117,,153.38054924999597,153.39002083298692,154.3846812499978,,,,,,,,,,,,,,,,,,,,sub-036,1,stroop_test,,
,,,,7.0,7.0,0.0,,,,,blau,blue,b,1.0,b,1.0,1.5010484169906704,,,,,,,,,,,,,,0.0,7.0,7.0,6.0,,,,,154.39007191699056,,,,,,,,,,,,,,,,,154.38509004199295,155.1692424169887,155.9807054999983,155.971426374992,,,,,,,,,,,,,,,,155.97506341699045,155.9807054999983,155.9807054999983,157.48449112499657,b,1.0,1.5010484169906704,,157.4852156249981,157.49349629199423,158.48129224999866,158.48679695799365,,,,,,,,,,,,,,,,,,,sub-036,1,stroop_test,,
,,,,8.0,8.0,0.0,,,,,gelb,blue,b,0.0,b,1.0,1.535279540999909,,,,,,,,,,,,,,0.0,8.0,8.0,9.0,,,,,158.48679695799365,,,,,,,,,,,,,,,,,158.48213312499863,159.6730481669947,160.47755741699075,160.46784970798765,,,,,,,,,,,,,,,,160.47121674999653,160.47755741699075,160.47755741699075,162.0155649579974,b,1.0,1.535279540999909,,162.0162349579914,162.0265854169993,163.01262083298934,163.01769124998827,,,,,,,,,,,,,,,,,,,sub-036,1,stroop_test,,
,,,,9.0,9.0,0.0,,,,,rot,yellow,g,0.0,g,1.0,1.2283817499992438,,,,,,,,,,,,,,0.0,9.0,9.0,3.0,,,,,163.01769124998827,,,,,,,,,,,,,,,,,163.0131800829986,163.80680341699917,164.62100666698825,164.60946820800018,,,,,,,,,,,,,,,,164.6143743749999,164.62100666698825,164.62100666698825,165.86421762499958,g,1.0,1.2283817499992438,,165.8648922919965,165.87328545798664,166.85910874999536,166.86248033298762,,,,,,,,,,,,,,,,,,,sub-036,1,stroop_test,,
,,,,10.0,10.0,0.0,,,,,gelb,red,r,0.0,r,1.0,1.2696825000020908,,,,,,,,,,,,,,0.0,10.0,10.0,8.0,,,,,166.86248033298762,,,,,,,,,,,,,,,,,166.85951358299644,168.05345141699945,168.8601442079962,168.85026949999155,,,,,,,,,,,,,,,,168.85443116699753,168.8601442079962,168.8601442079962,170.13307787499798,r,1.0,1.2696825000020908,,170.13385474999086,170.14362154199625,171.1291309169901,171.14804029199877,,,,,,,,,,,,,,,,,,,sub-036,1,stroop_test,,
,,,,11.0,11.0,0.0,,,,,blau,blue,b,1.0,b,1.0,1.142812083999161,,,,,,,,,,,,,,0.0,11.0,11.0,5.0,,,,,171.14804029199877,,,,,,,,,,,,,,,,,171.1295496669918,172.33970712499286,173.15299499999674,173.14331929199398,,,,,,,,,,,,,,,,173.14679537499617,173.15299499999674,173.15299499999674,174.30405316699762,b,1.0,1.142812083999161,,174.30478708299052,174.3299318329955,175.3200690419908,,,,,,,,,,,,,,,,,,,,sub-036,1,stroop_test,,
,,,,12.0,0.0,1.0,,,,,blau,blue,b,1.0,b,1.0,0.7749082090012962,,,,,,,,,,,,,,1.0,0.0,12.0,5.0,,,,,175.32661362498766,,,,,,,,,,,,,,,,,175.32065949999378,176.10668508299568,176.91127791699546,176.9048743329913,,,,,,,,,,,,,,,,176.9054243749997,176.91127791699546,176.91127791699546,177.68876170799194,b,1.0,0.7749082090012962,,177.68949595799495,177.69794987500063,178.68463216698729,178.7079737919994,,,,,,,,,,,,,,,,,,,sub-036,1,stroop_test,,
,,,,13.0,1.0,1.0,,,,,blau,yellow,g,0.0,g,1.0,1.1040687500062631,,,,,,,,,,,,,,1.0,1.0,13.0,7.0,,,,,178.7079737919994,,,,,,,,,,,,,,,,,178.68503087499994,179.03017083299346,179.83518133299367,179.82869141698757,,,,,,,,,,,,,,,,179.829436,179.83518133299367,179.83518133299367,180.94359137499123,g,1.0,1.1040687500062631,,180.9444097079977,180.9561150829977,181.940222041987,181.95256662499744,,,,,,,,,,,,,,,,,,,sub-036,1,stroop_test,,
,,,,14.0,2.0,1.0,,,,,gelb,blue,b,0.0,b,1.0,1.2338526670064311,,,,,,,,,,,,,,1.0,2.0,14.0,9.0,,,,,181.95256662499744,,,,,,,,,,,,,,,,,181.9406088329997,183.1367804170004,183.92975537499296,183.9211793329887,,,,,,,,,,,,,,,,183.9239399999933,183.92975537499296,183.92975537499296,185.16870395799924,b,1.0,1.2338526670064311,,185.1694115829887,185.17934158298883,186.16546370799188,186.178674625,,,,,,,,,,,,,,,,,,,sub-036,1,stroop_test,,
,,,,15.0,3.0,1.0,,,,,rot,red,r,1.0,r,1.0,1.3060847089946035,,,,,,,,,,,,,,1.0,3.0,15.0,1.0,,,,,186.178674625,,,,,,,,,,,,,,,,,186.1658522499929,186.9572494169988,187.763148041995,187.7521527079953,,,,,,,,,,,,,,,,187.7566143329896,187.763148041995,187.763148041995,189.0737046249997,r,1.0,1.3060847089946035,,189.07444462498825,189.08553174999545,190.0746128749888,,,,,,,,,,,,,,,,,,,,sub-036,1,stroop_test,,
,,,,16.0,4.0,1.0,,,,,gelb,red,r,0.0,r,1.0,1.4901920830016024,,,,,,,,,,,,,,1.0,4.0,16.0,8.0,,,,,190.0967954999942,,,,,,,,,,,,,,,,,190.07500116698796,190.8815738749981,191.67758720798884,191.66540054199868,,,,,,,,,,,,,,,,191.6685000419966,191.67758720798884,191.67758720798884,193.1858013329911,r,1.0,1.4901920830016024,,193.1865112919913,193.19559083299828,194.18226199998756,194.1879846669908,,,,,,,,,,,,,,,,,,,sub-036,1,stroop_test,,
,,,,17.0,5.0,1.0,,,,,blau,blue,b,1.0,b,1.0,1.089760540999123,,,,,,,,,,,,,,1.0,5.0,17.0,6.0,,,,,194.1879846669908,,,,,,,,,,,,,,,,,194.18319712499212,195.38244541699527,196.17740283299645,196.1654500000004,,,,,,,,,,,,,,,,196.16899137498692,196.17740283299645,196.17740283299645,197.2816049579997,b,1.0,1.089760540999123,,197.2824190419924,197.29143233298964,198.27609012500037,198.27949420799268,,,,,,,,,,,,,,,,,,,sub-036,1,stroop_test,,
,,,,18.0,6.0,1.0,,,,,gelb,yellow,g,1.0,g,1.0,0.917883542002528,,,,,,,,,,,,,,1.0,6.0,18.0,10.0,,,,,198.27949420799268,,,,,,,,,,,,,,,,,198.27648779199808,198.6392250419885,199.44748366699787,199.4355836249888,,,,,,,,,,,,,,,,199.4415275419888,199.44748366699787,199.44748366699787,200.3842504579952,g,1.0,0.917883542002528,,200.3849791669927,200.3938697079866,201.3873694169888,,,,,,,,,,,,,,,,,,,,sub-036,1,stroop_test,,
,,,,19.0,7.0,1.0,,,,,rot,red,r,1.0,r,1.0,0.8026630419917637,,,,,,,,,,,,,,1.0,7.0,19.0,0.0,,,,,201.39291858299111,,,,,,,,,,,,,,,,,201.3879805829929,202.5857694169972,203.38770987499447,203.3788322499895,,,,,,,,,,,,,,,,203.3823712919984,203.38770987499447,203.38770987499447,204.1944668749929,r,1.0,0.8026630419917637,,204.1952787499904,204.20405849999224,205.188862791998,205.19346429199504,,,,,,,,,,,,,,,,,,,sub-036,1,stroop_test,,
,,,,20.0,8.0,1.0,,,,,blau,red,r,0.0,r,1.0,1.4077507079928182,,,,,,,,,,,,,,1.0,8.0,20.0,4.0,,,,,205.19346429199504,,,,,,,,,,,,,,,,,205.1892654169933,205.5419186669897,206.34038208299896,206.3309170829889,,,,,,,,,,,,,,,,206.33438816700072,206.34038208299896,206.34038208299896,207.75753279199125,r,1.0,1.4077507079928182,,207.75829808299025,207.7675919169997,208.75316808299976,208.7670975829969,,,,,,,,,,,,,,,,,,,sub-036,1,stroop_test,,
,,,,21.0,9.0,1.0,,,,,rot,blue,b,0.0,b,1.0,2.1100162499933504,,,,,,,,,,,,,,1.0,9.0,21.0,2.0,,,,,208.7670975829969,,,,,,,,,,,,,,,,,208.7535768749949,209.972384416993,210.78295558299575,210.7730856249982,,,,,,,,,,,,,,,,210.776515791993,210.78295558299575,210.78295558299575,212.89477012499992,b,1.0,2.1100162499933504,,212.89512924999872,212.9002711249923,213.88663487498707,213.89199070799805,,,,,,,,,,,,,,,,,,,sub-036,1,stroop_test,,
,,,,22.0,10.0,1.0,,,,,gelb,yellow,g,1.0,g,1.0,1.082418666992453,,,,,,,,,,,,,,1.0,10.0,22.0,11.0,,,,,213.89199070799805,,,,,,,,,,,,,,,,,213.88697579198924,214.69310762498932,215.5051638749865,215.49425712499945,,,,,,,,,,,,,,,,215.49869291699724,215.5051638749865,215.5051638749865,216.5902083330002,g,1.0,1.082418666992453,,216.5909245829971,216.6007112919906,217.58773387499969,217.60873174999145,,,,,,,,,,,,,,,,,,,sub-036,1,stroop_test,,
,,,,23.0,11.0,1.0,,,,,rot,yellow,g,0.0,g,1.0,2.3759054580004886,,,,,,,,,,,,,,1.0,11.0,23.0,3.0,,,,,217.60873174999145,,,,,,,,,,,,,,,,,217.58813591698708,217.935497457991,218.72895129199603,218.7189789999975,,,,,,,,,,,,,,,,218.72248524999304,218.72895129199603,218.72895129199603,221.1075794169883,g,1.0,2.3759054580004886,,221.10810045799008,221.1199664579908,222.112414874995,,,,,,,,,,,,,,,,,,,,sub-036,1,stroop_test,,
,,,,,,,,,,,,,,,,,,,,,,,,,,,,,,,,,,,,,,,,,,,,,,,,,,,,,,,,,,,,,,,,,,,,,,,,,,,,,,,,,,,,,,,222.1125927499961,222.1197770419967,222.1197770419967,225.96107312499956,space,3.8373111669934583,,,,,,,,,,,,,sub-036,1,stroop_test,,
,,,,0.0,0.0,0.0,,,,,,,,,,,,,rot,red,r,1.0,r,1.0,0.9707367499941028,,,,,,,,,,0.0,0.0,0.0,1.0,225.982919874994,,,,,,,,,,,,,,,,,225.9748972919915,227.14833766699303,227.94009054198975,227.93205345798924,,,,,,,,,,,,,,,,,,,,,,,,,,,,,,,,,,,227.93548274999196,227.94009054198975,227.94009054198975,228.9201968749985,r,1.0,0.9707367499941028,,,,,sub-036,1,stroop_test,,
,,,,1.0,1.0,0.0,,,,,,,,,,,,,rot,blue,b,0.0,b,1.0,1.099358999999822,,,,,,,,,,0.0,1.0,1.0,2.0,228.9284442079952,,,,,,,,,,,,,,,,,228.92080391698985,229.28721112498897,230.08670837499085,230.07937837499776,,,,,,,,,,,,,,,,,,,,,,,,,,,,,,,,,,,230.08022358299056,230.08670837499085,230.08670837499085,231.18972595800005,b,1.0,1.099358999999822,,,,,sub-036,1,stroop_test,,
,,,,2.0,2.0,0.0,,,,,,,,,,,,,rot,yellow,g,0.0,g,1.0,1.1111064169963356,,,,,,,,,,0.0,2.0,2.0,3.0,231.19761758299137,,,,,,,,,,,,,,,,,231.190342707996,232.00409079199017,232.80341720799333,232.7920021669997,,,,,,,,,,,,,,,,,,,,,,,,,,,,,,,,,,,232.7925917499961,232.80341720799333,232.80341720799333,233.9222652499884,g,1.0,1.1111064169963356,,,,,sub-036,1,stroop_test,,
,,,,3.0,3.0,0.0,,,,,,,,,,,,,blau,red,r,0.0,r,1.0,1.867045124992728,,,,,,,,,,0.0,3.0,3.0,4.0,233.93102870800067,,,,,,,,,,,,,,,,,233.9228750829934,234.2614687079913,235.0638575419871,235.0551809999888,,,,,,,,,,,,,,,,,,,,,,,,,,,,,,,,,,,235.05947424999613,235.0638575419871,235.0638575419871,236.93986699999368,r,1.0,1.867045124992728,,,,,sub-036,1,stroop_test,,
,,,,4.0,4.0,0.0,,,,,,,,,,,,,gelb,yellow,g,1.0,g,1.0,1.0826572079968173,,,,,,,,,,0.0,4.0,4.0,10.0,236.9483902499924,,,,,,,,,,,,,,,,,236.94033895799657,237.02896341698943,237.8267777079891,237.8173178750003,,,,,,,,,,,,,,,,,,,,,,,,,,,,,,,,,,,237.820783749994,237.8267777079891,237.8267777079891,238.9239676669968,g,1.0,1.0826572079968173,,,,,sub-036,1,stroop_test,,
,,,,5.0,5.0,0.0,,,,,,,,,,,,,blau,blue,b,1.0,b,1.0,1.2505948330071988,,,,,,,,,,0.0,5.0,5.0,6.0,238.92856849999225,,,,,,,,,,,,,,,,,238.92458112500023,239.27520487499717,240.08390712499383,240.07233695799368,,,,,,,,,,,,,,,,,,,,,,,,,,,,,,,,,,,240.0776157079963,240.08390712499383,240.08390712499383,241.33692199998768,b,1.0,1.2505948330071988,,,,,sub-036,1,stroop_test,,
,,,,6.0,6.0,0.0,,,,,,,,,,,,,gelb,blue,b,0.0,b,1.0,1.2942479159974027,,,,,,,,,,0.0,6.0,6.0,9.0,241.34570041699044,,,,,,,,,,,,,,,,,241.3375361249928,241.68997762499205,242.4863924579986,242.4766080829868,,,,,,,,,,,,,,,,,,,,,,,,,,,,,,,,,,,242.4801259169908,242.4863924579986,242.4863924579986,243.78797174998908,b,1.0,1.2942479159974027,,,,,sub-036,1,stroop_test,,
,,,,7.0,7.0,0.0,,,,,,,,,,,,,gelb,yellow,g,1.0,g,1.0,1.1718107079941549,,,,,,,,,,0.0,7.0,7.0,11.0,243.7967168329924,,,,,,,,,,,,,,,,,243.7886128329992,243.8824150419969,244.67332949998672,244.6665857499902,,,,,,,,,,,,,,,,,,,,,,,,,,,,,,,,,,,244.6671564579883,244.67332949998672,244.67332949998672,245.8497049579892,g,1.0,1.1718107079941549,,,,,sub-036,1,stroop_test,,
,,,,8.0,8.0,0.0,,,,,,,,,,,,,rot,red,r,1.0,r,1.0,1.4185492910037285,,,,,,,,,,0.0,8.0,8.0,0.0,245.8574299999891,,,,,,,,,,,,,,,,,245.85026612499496,247.04420637499425,247.84240158299508,247.8304342499905,,,,,,,,,,,,,,,,,,,,,,,,,,,,,,,,,,,247.83622137499333,247.84240158299508,247.84240158299508,249.2724882079929,r,1.0,1.4185492910037285,,,,,sub-036,1,stroop_test,,
,,,,9.0,9.0,0.0,,,,,,,,,,,,,blau,blue,b,1.0,b,1.0,0.9313675000012154,,,,,,,,,,0.0,9.0,9.0,5.0,249.2812213750003,,,,,,,,,,,,,,,,,249.2731274169928,250.06987724998908,250.8718294579885,250.86064812498807,,,,,,,,,,,,,,,,,,,,,,,,,,,,,,,,,,,250.865461333,250.8718294579885,250.8718294579885,251.81455137499145,b,1.0,0.9313675000012154,,,,,sub-036,1,stroop_test,,
,,,,10.0,10.0,0.0,,,,,,,,,,,,,gelb,red,r,0.0,r,1.0,1.2761267079913523,,,,,,,,,,0.0,10.0,10.0,8.0,251.8232622499927,,,,,,,,,,,,,,,,,251.8152129999944,252.6185563749896,253.4167650419986,253.4081951249973,,,,,,,,,,,,,,,,,,,,,,,,,,,,,,,,,,,253.4116339169996,253.4167650419986,253.4167650419986,254.6949703329883,r,1.0,1.2761267079913523,,,,,sub-036,1,stroop_test,,
,,,,11.0,11.0,0.0,,,,,,,,,,,,,blau,yellow,g,0.0,g,1.0,1.199952958006179,,,,,,,,,,0.0,11.0,11.0,7.0,254.704118499998,,,,,,,,,,,,,,,,,254.69560929198636,255.88470179199064,256.6804204999935,256.67097620799905,,,,,,,,,,,,,,,,,,,,,,,,,,,,,,,,,,,256.6744114579924,256.6804204999935,256.6804204999935,257.8943769579928,g,1.0,1.199952958006179,,,,,sub-036,1,stroop_test,,
,,,,12.0,0.0,1.0,,,,,,,,,,,,,rot,red,r,1.0,r,1.0,1.129136916992138,,,,,,,,,,1.0,0.0,12.0,1.0,257.902252749991,,,,,,,,,,,,,,,,,257.8949484999903,257.9945344579901,258.792097832993,258.7783334579872,,,,,,,,,,,,,,,,,,,,,,,,,,,,,,,,,,,258.78142649999063,258.792097832993,258.792097832993,259.9247542919911,r,1.0,1.129136916992138,,,,,sub-036,1,stroop_test,,
,,,,13.0,1.0,1.0,,,,,,,,,,,,,blau,red,r,0.0,r,1.0,1.309346166002797,,,,,,,,,,1.0,1.0,13.0,4.0,259.9335792919883,,,,,,,,,,,,,,,,,259.92539345799014,261.13508029199147,261.9294081249973,261.9194735829951,,,,,,,,,,,,,,,,,,,,,,,,,,,,,,,,,,,261.9231361669954,261.9294081249973,261.9294081249973,263.2449464579986,r,1.0,1.309346166002797,,,,,sub-036,1,stroop_test,,
,,,,14.0,2.0,1.0,,,,,,,,,,,,,rot,yellow,g,0.0,g,1.0,1.7069760000013048,,,,,,,,,,1.0,2.0,14.0,3.0,263.2535874169989,,,,,,,,,,,,,,,,,263.24553204199765,263.33263679199445,264.1364874169958,264.1266287079925,,,,,,,,,,,,,,,,,,,,,,,,,,,,,,,,,,,264.1300425829977,264.1364874169958,264.1364874169958,265.84729004198743,g,1.0,1.7069760000013048,,,,,sub-036,1,stroop_test,,
,,,,15.0,3.0,1.0,,,,,,,,,,,,,rot,red,r,1.0,r,1.0,1.1989811660023406,,,,,,,,,,1.0,3.0,15.0,0.0,265.8709231249959,,,,,,,,,,,,,,,,,265.8479173749947,266.1926408329891,266.9832316249958,266.977245749993,,,,,,,,,,,,,,,,,,,,,,,,,,,,,,,,,,,266.9778264169872,266.9832316249958,266.9832316249958,268.2029621249967,r,1.0,1.1989811660023406,,,,,sub-036,1,stroop_test,,
,,,,16.0,4.0,1.0,,,,,,,,,,,,,blau,yellow,g,0.0,g,1.0,1.361828624998452,,,,,,,,,,1.0,4.0,16.0,7.0,268.2115937079943,,,,,,,,,,,,,,,,,268.203603624992,269.0077778329869,269.81104045799293,269.7992536669917,,,,,,,,,,,,,,,,,,,,,,,,,,,,,,,,,,,269.8046892919956,269.81104045799293,269.81104045799293,271.17614387499634,g,1.0,1.361828624998452,,,,,sub-036,1,stroop_test,,
,,,,17.0,5.0,1.0,,,,,,,,,,,,,gelb,blue,b,0.0,b,1.0,1.27505470799224,,,,,,,,,,1.0,5.0,17.0,9.0,271.18717691699567,,,,,,,,,,,,,,,,,271.17670970798645,271.97058645798825,272.76586958298867,272.75615445799485,,,,,,,,,,,,,,,,,,,,,,,,,,,,,,,,,,,272.7594837919896,272.76586958298867,272.76586958298867,274.0511328329885,b,1.0,1.27505470799224,,,,,sub-036,1,stroop_test,,
,,,,18.0,6.0,1.0,,,,,,,,,,,,,gelb,yellow,g,1.0,g,1.0,1.0688080420077313,,,,,,,,,,1.0,6.0,18.0,10.0,274.0586727919872,,,,,,,,,,,,,,,,,274.05168133298866,274.84268874999543,275.6452450829965,275.6396685419895,,,,,,,,,,,,,,,,,,,,,,,,,,,,,,,,,,,275.6402691669937,275.6452450829965,275.6452450829965,276.71903341698635,g,1.0,1.0688080420077313,,,,,sub-036,1,stroop_test,,
,,,,19.0,7.0,1.0,,,,,,,,,,,,,gelb,red,r,0.0,r,1.0,1.440630000011879,,,,,,,,,,1.0,7.0,19.0,8.0,276.7261940419994,,,,,,,,,,,,,,,,,276.71952524999506,277.52069970799494,278.3207087919873,278.30500391699024,,,,,,,,,,,,,,,,,,,,,,,,,,,,,,,,,,,278.3055601249944,278.3207087919873,278.3207087919873,279.7640462499985,r,1.0,1.440630000011879,,,,,sub-036,1,stroop_test,,
,,,,20.0,8.0,1.0,,,,,,,,,,,,,rot,blue,b,0.0,b,1.0,1.3522758339968275,,,,,,,,,,1.0,8.0,20.0,2.0,279.77159070799826,,,,,,,,,,,,,,,,,279.76463374999,280.1109551249974,280.9064546249865,280.89705849999154,,,,,,,,,,,,,,,,,,,,,,,,,,,,,,,,,,,280.90025679199607,280.9064546249865,280.9064546249865,282.26676120799675,b,1.0,1.3522758339968275,,,,,sub-036,1,stroop_test,,
,,,,21.0,9.0,1.0,,,,,,,,,,,,,gelb,yellow,g,1.0,g,1.0,1.1500747909885831,,,,,,,,,,1.0,9.0,21.0,11.0,282.275620417,,,,,,,,,,,,,,,,,282.2673981669941,283.05780758299807,283.8678709579981,283.857215541997,,,,,,,,,,,,,,,,,,,,,,,,,,,,,,,,,,,283.86158287498984,283.8678709579981,283.8678709579981,285.0221398329886,g,1.0,1.1500747909885831,,,,,sub-036,1,stroop_test,,
,,,,22.0,10.0,1.0,,,,,,,,,,,,,blau,blue,b,1.0,b,1.0,1.4214868749986636,,,,,,,,,,1.0,10.0,22.0,6.0,285.0293509579933,,,,,,,,,,,,,,,,,285.02252349999617,285.819408957992,286.6155097499868,286.6022058329981,,,,,,,,,,,,,,,,,,,,,,,,,,,,,,,,,,,286.6037550829933,286.6155097499868,286.6155097499868,288.0533511669928,b,1.0,1.4214868749986636,,,,,sub-036,1,stroop_test,,
,,,,23.0,11.0,1.0,,,,,,,,,,,,,blau,blue,b,1.0,b,1.0,0.8268739170016488,,,,,,,,,,1.0,11.0,23.0,5.0,288.06191866699373,,,,,,,,,,,,,,,,,288.0538752919965,288.14549566699134,288.9429244579951,288.9323773329961,,,,,,,,,,,,,,,,,,,,,,,,,,,,,,,,,,,288.93295104199206,288.9429244579951,288.9429244579951,289.7739566669916,b,1.0,0.8268739170016488,,,,,sub-036,1,stroop_test,,
,,,,24.0,0.0,2.0,,,,,,,,,,,,,blau,yellow,g,0.0,g,1.0,1.118634792001103,,,,,,,,,,2.0,0.0,24.0,7.0,289.785667499993,,,,,,,,,,,,,,,,,289.77457854199747,290.57451308298914,291.3877019169886,291.36683504199027,,,,,,,,,,,,,,,,,,,,,,,,,,,,,,,,,,,291.36731112499547,291.3877019169886,291.3877019169886,292.5097783749952,g,1.0,1.118634792001103,,,,,sub-036,1,stroop_test,,
,,,,25.0,1.0,2.0,,,,,,,,,,,,,rot,blue,b,0.0,b,1.0,1.7909669999935431,,,,,,,,,,2.0,1.0,25.0,2.0,292.51708916699863,,,,,,,,,,,,,,,,,292.51032004199806,293.70031699999527,294.50175008299993,294.4912580419914,,,,,,,,,,,,,,,,,,,,,,,,,,,,,,,,,,,294.4955136249919,294.50175008299993,294.50175008299993,296.2972790829954,b,1.0,1.7909669999935431,,,,,sub-036,1,stroop_test,,
,,,,26.0,2.0,2.0,,,,,,,,,,,,,rot,red,r,1.0,r,1.0,1.0454553330055203,,,,,,,,,,2.0,2.0,26.0,0.0,296.30719116699765,,,,,,,,,,,,,,,,,296.2976962919929,297.09545412499574,297.8999143330002,297.8783991249948,,,,,,,,,,,,,,,,,,,,,,,,,,,,,,,,,,,297.8788970829919,297.8999143330002,297.8999143330002,298.9593175829941,r,1.0,1.0454553330055203,,,,,sub-036,1,stroop_test,,
,,,,27.0,3.0,2.0,,,,,,,,,,,,,gelb,yellow,g,1.0,g,1.0,0.973494749996462,,,,,,,,,,2.0,3.0,27.0,10.0,298.967505291992,,,,,,,,,,,,,,,,,298.95984583300014,299.30632041698846,300.1049873749871,300.0961099579872,,,,,,,,,,,,,,,,,,,,,,,,,,,,,,,,,,,300.09992879199854,300.1049873749871,300.1049873749871,301.08539912498964,g,1.0,0.973494749996462,,,,,sub-036,1,stroop_test,,
,,,,28.0,4.0,2.0,,,,,,,,,,,,,rot,red,r,1.0,r,1.0,0.6172935420036083,,,,,,,,,,2.0,4.0,28.0,1.0,301.09380833299656,,,,,,,,,,,,,,,,,301.08586254199327,301.8731032079959,302.6742047079897,302.66477241698885,,,,,,,,,,,,,,,,,,,,,,,,,,,,,,,,,,,302.66812958299124,302.6742047079897,302.6742047079897,303.294335374987,r,1.0,0.6172935420036083,,,,,sub-036,1,stroop_test,,
,,,,29.0,5.0,2.0,,,,,,,,,,,,,blau,blue,b,1.0,b,1.0,1.0316282920102822,,,,,,,,,,2.0,5.0,29.0,6.0,303.30245995799487,,,,,,,,,,,,,,,,,303.2948824579944,303.3916004579951,304.1839357919962,304.17574929200055,,,,,,,,,,,,,,,,,,,,,,,,,,,,,,,,,,,304.1792352919874,304.1839357919962,304.1839357919962,305.2181649999984,b,1.0,1.0316282920102822,,,,,sub-036,1,stroop_test,,
,,,,30.0,6.0,2.0,,,,,,,,,,,,,blau,red,r,0.0,r,1.0,1.1389277919952292,,,,,,,,,,2.0,6.0,30.0,4.0,305.22521654199227,,,,,,,,,,,,,,,,,305.21862854198844,305.3080744579929,306.1248066669941,306.1025002919923,,,,,,,,,,,,,,,,,,,,,,,,,,,,,,,,,,,306.1029851249914,306.1248066669941,306.1248066669941,307.26786337498925,r,1.0,1.1389277919952292,,,,,sub-036,1,stroop_test,,
,,,,31.0,7.0,2.0,,,,,,,,,,,,,gelb,blue,b,0.0,r,0.0,1.8075411250028992,,,,,,,,,,2.0,7.0,31.0,9.0,307.2760540829913,,,,,,,,,,,,,,,,,307.2685049169959,308.46935091698833,309.2673614999949,309.2587445829995,,,,,,,,,,,,,,,,,,,,,,,,,,,,,,,,,,,309.26155862498854,309.2673614999949,309.2673614999949,311.0789475829952,r,0.0,1.8075411250028992,,,,,sub-036,1,stroop_test,,
,,,,32.0,8.0,2.0,,,,,,,,,,,,,gelb,yellow,g,1.0,g,1.0,1.5442167079891078,,,,,,,,,,2.0,8.0,32.0,11.0,311.0878321249911,,,,,,,,,,,,,,,,,311.07965495799726,311.4191264999972,312.2124438749888,312.20599224999023,,,,,,,,,,,,,,,,,,,,,,,,,,,,,,,,,,,312.2065427919879,312.2124438749888,312.2124438749888,313.76152295799693,g,1.0,1.5442167079891078,,,,,sub-036,1,stroop_test,,
,,,,33.0,9.0,2.0,,,,,,,,,,,,,rot,yellow,g,0.0,g,1.0,1.0106973329966422,,,,,,,,,,2.0,9.0,33.0,3.0,313.77022529199894,,,,,,,,,,,,,,,,,313.7621302079933,313.8680996669864,314.66205183298734,314.6523503329954,,,,,,,,,,,,,,,,,,,,,,,,,,,,,,,,,,,314.65598029199464,314.66205183298734,314.66205183298734,315.67987504199846,g,1.0,1.0106973329966422,,,,,sub-036,1,stroop_test,,
,,,,34.0,10.0,2.0,,,,,,,,,,,,,gelb,red,r,0.0,r,1.0,1.9104066250001777,,,,,,,,,,2.0,10.0,34.0,8.0,315.68856608298665,,,,,,,,,,,,,,,,,315.6804692919977,316.02198954198684,316.83237637499406,316.8223813329969,,,,,,,,,,,,,,,,,,,,,,,,,,,,,,,,,,,316.82679199999257,316.83237637499406,316.83237637499406,318.7474838749913,r,1.0,1.9104066250001777,,,,,sub-036,1,stroop_test,,
,,,,35.0,11.0,2.0,,,,,,,,,,,,,blau,blue,b,1.0,b,1.0,0.8398509159887908,,,,,,,,,,2.0,11.0,35.0,5.0,318.7552980420005,,,,,,,,,,,,,,,,,318.7478615419968,319.5402476669988,320.3354720419884,320.32555216699257,,,,,,,,,,,,,,,,,,,,,,,,,,,,,,,,,,,320.32934645799105,320.3354720419884,320.3354720419884,321.18604049998976,b,1.0,0.8398509159887908,,,,,sub-036,1,stroop_test,,
,,,,36.0,0.0,3.0,,,,,,,,,,,,,gelb,red,r,0.0,r,1.0,1.1403449159988668,,,,,,,,,,3.0,0.0,36.0,8.0,321.1947247079952,,,,,,,,,,,,,,,,,321.1866599579953,321.54270337498747,322.3447670829919,322.33391141699394,,,,,,,,,,,,,,,,,,,,,,,,,,,,,,,,,,,322.33844954198867,322.3447670829919,322.3447670829919,323.4878160829976,r,1.0,1.1403449159988668,,,,,sub-036,1,stroop_test,,
,,,,37.0,1.0,3.0,,,,,,,,,,,,,gelb,yellow,g,1.0,g,1.0,0.7857742499909364,,,,,,,,,,3.0,1.0,37.0,11.0,323.49836537499505,,,,,,,,,,,,,,,,,323.48836041698814,323.8455325419927,324.6452282919927,324.6387177919969,,,,,,,,,,,,,,,,,,,,,,,,,,,,,,,,,,,324.6393020830001,324.6452282919927,324.6452282919927,325.4344173749996,g,1.0,0.7857742499909364,,,,,sub-036,1,stroop_test,,
,,,,38.0,2.0,3.0,,,,,,,,,,,,,rot,red,r,1.0,r,1.0,0.8636095410038251,,,,,,,,,,3.0,2.0,38.0,0.0,325.4431631669868,,,,,,,,,,,,,,,,,325.435027332991,325.52599541698874,326.3296550829982,326.32097491699096,,,,,,,,,,,,,,,,,,,,,,,,,,,,,,,,,,,326.3243629169883,326.3296550829982,326.3296550829982,327.1953752079862,r,1.0,0.8636095410038251,,,,,sub-036,1,stroop_test,,
,,,,39.0,3.0,3.0,,,,,,,,,,,,,blau,blue,b,1.0,b,1.0,0.8190454580035293,,,,,,,,,,3.0,3.0,39.0,5.0,327.20379512499494,,,,,,,,,,,,,,,,,327.19596308299515,327.29117891698843,328.0910815829993,328.082742374987,,,,,,,,,,,,,,,,,,,,,,,,,,,,,,,,,,,328.0860602920002,328.0910815829993,328.0910815829993,328.91722320798726,b,1.0,0.8190454580035293,,,,,sub-036,1,stroop_test,,
,,,,40.0,4.0,3.0,,,,,,,,,,,,,gelb,yellow,g,1.0,g,1.0,1.0108003329951316,,,,,,,,,,3.0,4.0,40.0,10.0,328.9256882919872,,,,,,,,,,,,,,,,,328.9178285419912,329.01372858299874,329.8243019999936,329.81479666699306,,,,,,,,,,,,,,,,,,,,,,,,,,,,,,,,,,,329.8181814169948,329.8243019999936,329.8243019999936,330.8577340829943,g,1.0,1.0108003329951316,,,,,sub-036,1,stroop_test,,
,,,,41.0,5.0,3.0,,,,,,,,,,,,,rot,blue,b,0.0,b,1.0,1.3728440000122646,,,,,,,,,,3.0,5.0,41.0,2.0,330.866543207987,,,,,,,,,,,,,,,,,330.85835716698784,331.20441583299544,332.00201237500005,331.99165670799266,,,,,,,,,,,,,,,,,,,,,,,,,,,,,,,,,,,331.9957510419917,332.00201237500005,332.00201237500005,333.38562266698864,b,1.0,1.3728440000122646,,,,,sub-036,1,stroop_test,,
,,,,42.0,6.0,3.0,,,,,,,,,,,,,blau,yellow,g,0.0,g,1.0,1.6354937500000233,,,,,,,,,,3.0,6.0,42.0,7.0,333.3929397079919,,,,,,,,,,,,,,,,,333.3862189579959,333.7508683329943,334.5467303329933,334.53816112499044,,,,,,,,,,,,,,,,,,,,,,,,,,,,,,,,,,,334.5409624169988,334.5467303329933,334.5467303329933,336.18961175000004,g,1.0,1.6354937500000233,,,,,sub-036,1,stroop_test,,
,,,,43.0,7.0,3.0,,,,,,,,,,,,,rot,red,r,1.0,r,1.0,1.019352582996362,,,,,,,,,,3.0,7.0,43.0,1.0,336.1974497919873,,,,,,,,,,,,,,,,,336.1900277499953,336.98591995799507,337.7790211249958,337.7693887079949,,,,,,,,,,,,,,,,,,,,,,,,,,,,,,,,,,,337.77269516699016,337.7790211249958,337.7790211249958,338.81436954200035,r,1.0,1.019352582996362,,,,,sub-036,1,stroop_test,,
,,,,44.0,8.0,3.0,,,,,,,,,,,,,blau,blue,b,1.0,b,1.0,0.844349124992732,,,,,,,,,,3.0,8.0,44.0,6.0,338.8208352919901,,,,,,,,,,,,,,,,,338.8148957079975,339.15932199999224,339.9602894999989,339.9480216669908,,,,,,,,,,,,,,,,,,,,,,,,,,,,,,,,,,,339.95416833298805,339.9602894999989,339.9602894999989,340.809832125,b,1.0,0.844349124992732,,,,,sub-036,1,stroop_test,,
,,,,45.0,9.0,3.0,,,,,,,,,,,,,rot,yellow,g,0.0,g,1.0,1.1749711659940658,,,,,,,,,,3.0,9.0,45.0,3.0,340.8184000420006,,,,,,,,,,,,,,,,,340.81027766699845,341.1734591249988,341.97143574999063,341.9616604999901,,,,,,,,,,,,,,,,,,,,,,,,,,,,,,,,,,,341.9648362079897,341.97143574999063,341.97143574999063,343.1485621669999,g,1.0,1.1749711659940658,,,,,sub-036,1,stroop_test,,
,,,,46.0,10.0,3.0,,,,,,,,,,,,,blau,red,r,0.0,r,1.0,1.7226899160014,,,,,,,,,,3.0,10.0,46.0,4.0,343.15803195799526,,,,,,,,,,,,,,,,,343.14924770798825,343.4954456669948,344.30017724999925,344.29236633300025,,,,,,,,,,,,,,,,,,,,,,,,,,,,,,,,,,,344.2952143329894,344.30017724999925,344.30017724999925,346.0305976669915,r,1.0,1.7226899160014,,,,,sub-036,1,stroop_test,,
,,,,47.0,11.0,3.0,,,,,,,,,,,,,gelb,blue,b,0.0,g,0.0,1.218485416000476,,,,,,,,,,3.0,11.0,47.0,9.0,346.0387878749898,,,,,,,,,,,,,,,,,346.03116266698635,347.2332495419978,348.0303701669909,348.0198877919902,,,,,,,,,,,,,,,,,,,,,,,,,,,,,,,,,,,348.02419470799214,348.0303701669909,348.0303701669909,349.2581627499894,g,0.0,1.218485416000476,,,,,sub-036,1,stroop_test,,
,,,,48.0,0.0,4.0,,,,,,,,,,,,,rot,red,r,1.0,r,1.0,1.2678342500003057,,,,,,,,,,4.0,0.0,48.0,1.0,349.2659974999988,,,,,,,,,,,,,,,,,349.2588136669947,350.0525917499908,350.8462885419867,350.8361448749929,,,,,,,,,,,,,,,,,,,,,,,,,,,,,,,,,,,350.8409546669864,350.8462885419867,350.8462885419867,352.1230018329952,r,1.0,1.2678342500003057,,,,,sub-036,1,stroop_test,,
,,,,49.0,1.0,4.0,,,,,,,,,,,,,gelb,red,r,0.0,r,1.0,1.3488258750003297,,,,,,,,,,4.0,1.0,49.0,8.0,352.12782937499287,,,,,,,,,,,,,,,,,352.1232580829965,353.3170865419961,354.11523712499184,354.10539145799703,,,,,,,,,,,,,,,,,,,,,,,,,,,,,,,,,,,354.10895454199635,354.11523712499184,354.11523712499184,355.47833687499224,r,1.0,1.3488258750003297,,,,,sub-036,1,stroop_test,,
,,,,50.0,2.0,4.0,,,,,,,,,,,,,blau,blue,b,1.0,b,1.0,0.811540958005935,,,,,,,,,,4.0,2.0,50.0,6.0,355.48732429200027,,,,,,,,,,,,,,,,,355.4789402499882,356.669823624994,357.464772249994,357.45587245799834,,,,,,,,,,,,,,,,,,,,,,,,,,,,,,,,,,,357.4590713749931,357.464772249994,357.464772249994,358.2791492079996,b,1.0,0.811540958005935,,,,,sub-036,1,stroop_test,,
,,,,51.0,3.0,4.0,,,,,,,,,,,,,rot,yellow,g,0.0,g,1.0,1.499582583011943,,,,,,,,,,4.0,3.0,51.0,3.0,358.2908528329863,,,,,,,,,,,,,,,,,358.2794407919864,359.0677070829988,359.8739959999948,359.8629862499947,,,,,,,,,,,,,,,,,,,,,,,,,,,,,,,,,,,359.8677882919874,359.8739959999948,359.8739959999948,361.3912518750003,g,1.0,1.499582583011943,,,,,sub-036,1,stroop_test,,
,,,,52.0,4.0,4.0,,,,,,,,,,,,,gelb,blue,b,0.0,b,1.0,3.997553124994738,,,,,,,,,,4.0,4.0,52.0,9.0,361.3998694170005,,,,,,,,,,,,,,,,,361.3918093329994,361.4798598329944,362.2792878329929,362.2707176249969,,,,,,,,,,,,,,,,,,,,,,,,,,,,,,,,,,,362.2741098330007,362.2792878329929,362.2792878329929,366.2862817919959,b,1.0,3.997553124994738,,,,,sub-036,1,stroop_test,,
,,,,53.0,5.0,4.0,,,,,,,,,,,,,gelb,yellow,g,1.0,g,1.0,0.9261497920088004,,,,,,,,,,4.0,5.0,53.0,11.0,366.2946134169906,,,,,,,,,,,,,,,,,366.286898041988,367.4892757499911,368.28303391698864,368.2763542499888,,,,,,,,,,,,,,,,,,,,,,,,,,,,,,,,,,,368.2769102499879,368.28303391698864,368.28303391698864,369.21132991698687,g,1.0,0.9261497920088004,,,,,sub-036,1,stroop_test,,
,,,,54.0,6.0,4.0,,,,,,,,,,,,,rot,blue,b,0.0,r,0.0,1.2520336250017865,,,,,,,,,,4.0,6.0,54.0,2.0,369.2200722499984,,,,,,,,,,,,,,,,,369.21193704199686,369.3029394999903,370.09638666699175,370.0877425829967,,,,,,,,,,,,,,,,,,,,,,,,,,,,,,,,,,,370.09041408299527,370.09638666699175,370.09638666699175,371.3550792499882,r,0.0,1.2520336250017865,,,,,sub-036,1,stroop_test,,
,,,,55.0,7.0,4.0,,,,,,,,,,,,,blau,blue,b,1.0,b,1.0,1.210930000001099,,,,,,,,,,4.0,7.0,55.0,5.0,371.3649988749967,,,,,,,,,,,,,,,,,371.35568645798776,371.4465105419949,372.2495259999996,372.2399377919937,,,,,,,,,,,,,,,,,,,,,,,,,,,,,,,,,,,372.2433476669976,372.2495259999996,372.2495259999996,373.46337841700006,b,1.0,1.210930000001099,,,,,sub-036,1,stroop_test,,
,,,,56.0,8.0,4.0,,,,,,,,,,,,,blau,red,r,0.0,r,1.0,2.080700041988166,,,,,,,,,,4.0,8.0,56.0,4.0,373.4696532079979,,,,,,,,,,,,,,,,,373.4636409169907,374.6575668749865,375.4564107079932,375.4443541669898,,,,,,,,,,,,,,,,,,,,,,,,,,,,,,,,,,,375.4448250419955,375.4564107079932,375.4564107079932,377.53920608299086,r,1.0,2.080700041988166,,,,,sub-036,1,stroop_test,,
,,,,57.0,9.0,4.0,,,,,,,,,,,,,gelb,yellow,g,1.0,g,1.0,1.1465349580103066,,,,,,,,,,4.0,9.0,57.0,10.0,377.5461572919885,,,,,,,,,,,,,,,,,377.5397538749967,377.6391895419947,378.4401801669883,378.42920258299273,,,,,,,,,,,,,,,,,,,,,,,,,,,,,,,,,,,378.43380562499806,378.4401801669883,378.4401801669883,379.5894821249967,g,1.0,1.1465349580103066,,,,,sub-036,1,stroop_test,,
,,,,58.0,10.0,4.0,,,,,,,,,,,,,rot,red,r,1.0,r,1.0,1.0352737909997811,,,,,,,,,,4.0,10.0,58.0,0.0,379.5979423329991,,,,,,,,,,,,,,,,,379.5900905419985,379.6797136249952,380.4731472499989,380.4640135829977,,,,,,,,,,,,,,,,,,,,,,,,,,,,,,,,,,,380.467281833,380.4731472499989,380.4731472499989,381.5128834579955,r,1.0,1.0352737909997811,,,,,sub-036,1,stroop_test,,
,,,,59.0,11.0,4.0,,,,,,,,,,,,,blau,yellow,g,0.0,g,1.0,1.8314774169994048,,,,,,,,,,4.0,11.0,59.0,7.0,381.5219364999939,,,,,,,,,,,,,,,,,381.5136042079976,382.7161827499949,383.5135170419962,383.5046316249936,,,,,,,,,,,,,,,,,,,,,,,,,,,,,,,,,,,383.5078711669921,383.5135170419962,383.5135170419962,385.3562697499874,g,1.0,1.8314774169994048,,,,,sub-036,1,stroop_test,,
,,,,60.0,0.0,5.0,,,,,,,,,,,,,blau,red,r,0.0,r,1.0,1.553145207988564,,,,,,,,,,5.0,0.0,60.0,4.0,385.3640016249992,,,,,,,,,,,,,,,,,385.3568175419932,385.4609827079985,386.271519249989,386.2653523329936,,,,,,,,,,,,,,,,,,,,,,,,,,,,,,,,,,,386.2658834999893,386.271519249989,386.271519249989,387.8323266669904,r,1.0,1.553145207988564,,,,,sub-036,1,stroop_test,,
,,,,61.0,1.0,5.0,,,,,,,,,,,,,blau,blue,b,1.0,b,1.0,0.918850875008502,,,,,,,,,,5.0,1.0,61.0,5.0,387.8411887919938,,,,,,,,,,,,,,,,,387.8329123749864,387.9248447919963,388.7252766249876,388.70982716699655,,,,,,,,,,,,,,,,,,,,,,,,,,,,,,,,,,,388.7103645419993,388.7252766249876,388.7252766249876,389.6637996669888,b,1.0,0.918850875008502,,,,,sub-036,1,stroop_test,,
,,,,62.0,2.0,5.0,,,,,,,,,,,,,rot,blue,b,0.0,b,1.0,1.713462666986743,,,,,,,,,,5.0,2.0,62.0,2.0,389.6725534579891,,,,,,,,,,,,,,,,,389.6644132079964,390.4682549169957,391.2797964999918,391.2685339169984,,,,,,,,,,,,,,,,,,,,,,,,,,,,,,,,,,,391.2739415419928,391.2797964999918,391.2797964999918,393.0033179169986,b,1.0,1.713462666986743,,,,,sub-036,1,stroop_test,,
,,,,63.0,3.0,5.0,,,,,,,,,,,,,gelb,blue,b,0.0,b,1.0,1.315423958003521,,,,,,,,,,5.0,3.0,63.0,9.0,393.0121644579922,,,,,,,,,,,,,,,,,393.0040563329967,393.37204199998814,394.1674419999909,394.1572236249922,,,,,,,,,,,,,,,,,,,,,,,,,,,,,,,,,,,394.160683582988,394.1674419999909,394.1674419999909,395.4939811249933,b,1.0,1.315423958003521,,,,,sub-036,1,stroop_test,,
,,,,64.0,4.0,5.0,,,,,,,,,,,,,rot,yellow,g,0.0,r,0.0,1.890236459003063,,,,,,,,,,5.0,4.0,64.0,3.0,395.5022479170002,,,,,,,,,,,,,,,,,395.4946312079992,396.2840282499965,397.0799267080001,397.0709085829876,,,,,,,,,,,,,,,,,,,,,,,,,,,,,,,,,,,397.0739199169912,397.0799267080001,397.0799267080001,398.9720324579976,r,0.0,1.890236459003063,,,,,sub-036,1,stroop_test,,
,,,,65.0,5.0,5.0,,,,,,,,,,,,,gelb,red,r,0.0,r,1.0,2.2126927920035087,,,,,,,,,,5.0,5.0,65.0,8.0,398.9790282079921,,,,,,,,,,,,,,,,,398.9725617499935,399.32657358299184,400.12126762499975,400.1122117919877,,,,,,,,,,,,,,,,,,,,,,,,,,,,,,,,,,,400.1153957499919,400.12126762499975,400.12126762499975,402.3477012079966,r,1.0,2.2126927920035087,,,,,sub-036,1,stroop_test,,
,,,,66.0,6.0,5.0,,,,,,,,,,,,,gelb,yellow,g,1.0,g,1.0,1.5316167080018204,,,,,,,,,,5.0,6.0,66.0,10.0,402.3564939999924,,,,,,,,,,,,,,,,,402.3483184579964,403.1533669579949,403.94349983299617,403.9376762499887,,,,,,,,,,,,,,,,,,,,,,,,,,,,,,,,,,,403.93819420799264,403.94349983299617,403.94349983299617,405.4777540419891,g,1.0,1.5316167080018204,,,,,sub-036,1,stroop_test,,
,,,,67.0,7.0,5.0,,,,,,,,,,,,,blau,yellow,g,0.0,g,1.0,1.696314832995995,,,,,,,,,,5.0,7.0,67.0,7.0,405.4854153329943,,,,,,,,,,,,,,,,,405.47835970799497,406.666898749987,407.4756962919928,407.4660791669885,,,,,,,,,,,,,,,,,,,,,,,,,,,,,,,,,,,407.47037908299535,407.4756962919928,407.4756962919928,409.1827365829959,g,1.0,1.696314832995995,,,,,sub-036,1,stroop_test,,
,,,,68.0,8.0,5.0,,,,,,,,,,,,,blau,blue,b,1.0,b,1.0,2.181917791007436,,,,,,,,,,5.0,8.0,68.0,6.0,409.1864163329883,,,,,,,,,,,,,,,,,409.1831227919902,409.9787332079868,410.7752731669898,410.76244058299926,,,,,,,,,,,,,,,,,,,,,,,,,,,,,,,,,,,410.7630004579987,410.7752731669898,410.7752731669898,412.96118612498685,b,1.0,2.181917791007436,,,,,sub-036,1,stroop_test,,
,,,,69.0,9.0,5.0,,,,,,,,,,,,,rot,red,r,1.0,r,1.0,0.9791937090049032,,,,,,,,,,5.0,9.0,69.0,1.0,412.9697174999892,,,,,,,,,,,,,,,,,412.96186033298727,413.7536278749904,414.5509029169916,414.5376200419996,,,,,,,,,,,,,,,,,,,,,,,,,,,,,,,,,,,414.5408940829948,414.5509029169916,414.5509029169916,415.533145333,r,1.0,0.9791937090049032,,,,,sub-036,1,stroop_test,,
,,,,70.0,10.0,5.0,,,,,,,,,,,,,gelb,yellow,g,1.0,g,1.0,0.7687804159941152,,,,,,,,,,5.0,10.0,70.0,11.0,415.5419957079866,,,,,,,,,,,,,,,,,415.5337347079912,416.3361452079989,417.1396296249877,417.129293082995,,,,,,,,,,,,,,,,,,,,,,,,,,,,,,,,,,,417.1336055419961,417.1396296249877,417.1396296249877,417.9194268749998,g,1.0,0.7687804159941152,,,,,sub-036,1,stroop_test,,
,,,,71.0,11.0,5.0,,,,,,,,,,,,,rot,red,r,1.0,r,1.0,0.8295767500094371,,,,,,,,,,5.0,11.0,71.0,0.0,417.9281391669938,,,,,,,,,,,,,,,,,417.92006712500006,419.1259344579885,419.9226402499917,419.9133984579967,,,,,,,,,,,,,,,,,,,,,,,,,,,,,,,,,,,419.9166919579875,419.9226402499917,419.9226402499917,420.7650989579997,r,1.0,0.8295767500094371,,,,,sub-036,1,stroop_test,,
,,,,72.0,0.0,6.0,,,,,,,,,,,,,gelb,yellow,g,1.0,g,1.0,0.7106700000003912,,,,,,,,,,6.0,0.0,72.0,11.0,420.7738994579995,,,,,,,,,,,,,,,,,420.7656950829987,421.9527885829884,422.7588982919988,422.7473806249909,,,,,,,,,,,,,,,,,,,,,,,,,,,,,,,,,,,422.7521502079908,422.7588982919988,422.7588982919988,423.4726955419901,g,1.0,0.7106700000003912,,,,,sub-036,1,stroop_test,,
,,,,73.0,1.0,6.0,,,,,,,,,,,,,blau,blue,b,1.0,b,1.0,0.7751454590033973,,,,,,,,,,6.0,1.0,73.0,5.0,423.4813750419999,,,,,,,,,,,,,,,,,423.4733461249998,423.5829131669889,424.3788693329989,424.36917074999656,,,,,,,,,,,,,,,,,,,,,,,,,,,,,,,,,,,424.3725057919946,424.3788693329989,424.3788693329989,425.15926087499247,b,1.0,0.7751454590033973,,,,,sub-036,1,stroop_test,,
,,,,74.0,2.0,6.0,,,,,,,,,,,,,rot,red,r,1.0,r,1.0,0.8628464999928838,,,,,,,,,,6.0,2.0,74.0,1.0,425.1678426669969,,,,,,,,,,,,,,,,,425.1597212919878,425.2583616669872,426.0627480419935,426.0531944999966,,,,,,,,,,,,,,,,,,,,,,,,,,,,,,,,,,,426.0568677079864,426.0627480419935,426.0627480419935,426.92894766699465,r,1.0,0.8628464999928838,,,,,sub-036,1,stroop_test,,
,,,,75.0,3.0,6.0,,,,,,,,,,,,,gelb,blue,b,0.0,b,1.0,1.1017073749972042,,,,,,,,,,6.0,3.0,75.0,9.0,426.9372554999864,,,,,,,,,,,,,,,,,426.9295823749999,427.02827741699,427.8226900829905,427.8136509999895,,,,,,,,,,,,,,,,,,,,,,,,,,,,,,,,,,,427.8168427079945,427.8226900829905,427.8226900829905,428.9270881669945,b,1.0,1.1017073749972042,,,,,sub-036,1,stroop_test,,
,,,,76.0,4.0,6.0,,,,,,,,,,,,,rot,red,r,1.0,r,1.0,0.8083363339974312,,,,,,,,,,6.0,4.0,76.0,0.0,428.94182962499326,,,,,,,,,,,,,,,,,428.927471374991,429.2659849579941,430.06456441699993,430.0549078329932,,,,,,,,,,,,,,,,,,,,,,,,,,,,,,,,,,,430.05834883298667,430.06456441699993,430.06456441699993,430.88481320798746,r,1.0,0.8083363339974312,,,,,sub-036,1,stroop_test,,
,,,,77.0,5.0,6.0,,,,,,,,,,,,,blau,blue,b,1.0,b,1.0,0.6831595830008155,,,,,,,,,,6.0,5.0,77.0,6.0,430.8882530829869,,,,,,,,,,,,,,,,,430.8852124999976,430.9835769999918,431.7965024169971,431.78616187498847,,,,,,,,,,,,,,,,,,,,,,,,,,,,,,,,,,,431.7905050829868,431.7965024169971,431.7965024169971,432.4905391249922,b,1.0,0.6831595830008155,,,,,sub-036,1,stroop_test,,
,,,,78.0,6.0,6.0,,,,,,,,,,,,,blau,yellow,g,0.0,g,1.0,1.161815708008362,,,,,,,,,,6.0,6.0,78.0,7.0,432.4948056669964,,,,,,,,,,,,,,,,,432.49093424998864,433.2908467499946,434.08867954199377,434.0816127500002,,,,,,,,,,,,,,,,,,,,,,,,,,,,,,,,,,,434.0828194999922,434.08867954199377,434.08867954199377,435.2664974169893,g,1.0,1.161815708008362,,,,,sub-036,1,stroop_test,,
,,,,79.0,7.0,6.0,,,,,,,,,,,,,blau,red,r,0.0,b,0.0,1.3504323329980252,,,,,,,,,,6.0,7.0,79.0,4.0,435.27466654199816,,,,,,,,,,,,,,,,,435.2671664579975,436.0769508749945,436.8688969579962,436.86265654199815,,,,,,,,,,,,,,,,,,,,,,,,,,,,,,,,,,,436.8631608329888,436.8688969579962,436.8688969579962,438.2308042919904,b,0.0,1.3504323329980252,,,,,sub-036,1,stroop_test,,
,,,,80.0,8.0,6.0,,,,,,,,,,,,,rot,yellow,g,0.0,g,1.0,2.610610625008121,,,,,,,,,,6.0,8.0,80.0,3.0,438.2380480419961,,,,,,,,,,,,,,,,,438.2312807499984,439.42279425000015,440.2294966249901,440.2213039579947,,,,,,,,,,,,,,,,,,,,,,,,,,,,,,,,,,,440.22464583299006,440.2294966249901,440.2294966249901,442.8469797500002,g,1.0,2.610610625008121,,,,,sub-036,1,stroop_test,,
,,,,81.0,9.0,6.0,,,,,,,,,,,,,gelb,yellow,g,1.0,g,1.0,0.9028910409979288,,,,,,,,,,6.0,9.0,81.0,10.0,442.8559297920001,,,,,,,,,,,,,,,,,442.8474890829966,443.6412890829961,444.4368402919936,444.4252200419869,,,,,,,,,,,,,,,,,,,,,,,,,,,,,,,,,,,444.42854937499214,444.4368402919936,444.4368402919936,445.3535340419912,g,1.0,0.9028910409979288,,,,,sub-036,1,stroop_test,,
,,,,82.0,10.0,6.0,,,,,,,,,,,,,rot,blue,b,0.0,r,0.0,1.843684250008664,,,,,,,,,,6.0,10.0,82.0,2.0,445.3619945419923,,,,,,,,,,,,,,,,,445.35413849999895,446.5489708329988,447.3553790829901,447.3446843749989,,,,,,,,,,,,,,,,,,,,,,,,,,,,,,,,,,,447.3491774579888,447.3553790829901,447.3553790829901,449.20457254198845,r,0.0,1.843684250008664,,,,,sub-036,1,stroop_test,,
,,,,83.0,11.0,6.0,,,,,,,,,,,,,gelb,red,r,0.0,r,1.0,2.064173708000453,,,,,,,,,,6.0,11.0,83.0,8.0,449.2154105829977,,,,,,,,,,,,,,,,,449.2051370829868,449.5520317079936,450.3459170829883,450.3361926669895,,,,,,,,,,,,,,,,,,,,,,,,,,,,,,,,,,,450.33961499998986,450.3459170829883,450.3459170829883,452.4225148330006,r,1.0,2.064173708000453,,,,,sub-036,1,stroop_test,,
,,,,84.0,0.0,7.0,,,,,,,,,,,,,rot,blue,b,0.0,r,0.0,2.5906905840092804,,,,,,,,,,7.0,0.0,84.0,2.0,452.4305211669998,,,,,,,,,,,,,,,,,452.4231514169951,453.2267587919923,454.02111899999727,454.0106430419983,,,,,,,,,,,,,,,,,,,,,,,,,,,,,,,,,,,454.0139143749984,454.02111899999727,454.02111899999727,456.62640820798697,r,0.0,2.5906905840092804,,,,,sub-036,1,stroop_test,,
,,,,85.0,1.0,7.0,,,,,,,,,,,,,gelb,yellow,g,1.0,g,1.0,0.9778323749924313,,,,,,,,,,7.0,1.0,85.0,11.0,456.6316903329862,,,,,,,,,,,,,,,,,456.6270116249944,456.9764255829941,457.7710519579996,457.7606074579962,,,,,,,,,,,,,,,,,,,,,,,,,,,,,,,,,,,457.7649119169946,457.7710519579996,457.7710519579996,458.7519585419941,g,1.0,0.9778323749924313,,,,,sub-036,1,stroop_test,,
,,,,86.0,2.0,7.0,,,,,,,,,,,,,gelb,blue,b,0.0,g,0.0,1.419408666988602,,,,,,,,,,7.0,2.0,86.0,9.0,458.767009416988,,,,,,,,,,,,,,,,,458.752442291996,458.847814875,459.6368150829949,459.6311838749971,,,,,,,,,,,,,,,,,,,,,,,,,,,,,,,,,,,459.6317545419879,459.6368150829949,459.6368150829949,461.0680019579886,g,0.0,1.419408666988602,,,,,sub-036,1,stroop_test,,
,,,,87.0,3.0,7.0,,,,,,,,,,,,,gelb,red,r,0.0,r,1.0,1.0355814999929862,,,,,,,,,,7.0,3.0,87.0,8.0,461.07603679198655,,,,,,,,,,,,,,,,,461.0685703749914,461.87323254199873,462.66555129199696,462.65876749999006,,,,,,,,,,,,,,,,,,,,,,,,,,,,,,,,,,,462.6593361669948,462.66555129199696,462.66555129199696,463.70311999999103,r,1.0,1.0355814999929862,,,,,sub-036,1,stroop_test,,
,,,,88.0,4.0,7.0,,,,,,,,,,,,,rot,yellow,g,0.0,g,1.0,3.566612750000786,,,,,,,,,,7.0,4.0,88.0,3.0,463.7107568749925,,,,,,,,,,,,,,,,,463.7036190829968,464.0431737919862,464.8487394169933,464.83901570799935,,,,,,,,,,,,,,,,,,,,,,,,,,,,,,,,,,,464.8424887919973,464.8487394169933,464.8487394169933,468.4173964999936,g,1.0,3.566612750000786,,,,,sub-036,1,stroop_test,,
,,,,89.0,5.0,7.0,,,,,,,,,,,,,rot,red,r,1.0,r,1.0,1.760102874992299,,,,,,,,,,7.0,5.0,89.0,1.0,468.42988933299785,,,,,,,,,,,,,,,,,468.4177953329927,469.2089177079906,470.002422916994,469.9950883329875,,,,,,,,,,,,,,,,,,,,,,,,,,,,,,,,,,,469.9961007499951,470.002422916994,470.002422916994,471.7737238329864,r,1.0,1.760102874992299,,,,,sub-036,1,stroop_test,,
,,,,90.0,6.0,7.0,,,,,,,,,,,,,blau,yellow,g,0.0,b,0.0,0.8477084170008311,,,,,,,,,,7.0,6.0,90.0,7.0,471.7823725419876,,,,,,,,,,,,,,,,,471.7744177079876,472.9612886669929,473.7633317500004,473.7547852079879,,,,,,,,,,,,,,,,,,,,,,,,,,,,,,,,,,,473.7580807499908,473.7633317500004,473.7633317500004,474.613679541988,b,0.0,0.8477084170008311,,,,,sub-036,1,stroop_test,,
,,,,91.0,7.0,7.0,,,,,,,,,,,,,gelb,yellow,g,1.0,g,1.0,0.8808982909977203,,,,,,,,,,7.0,7.0,91.0,10.0,474.6206184999901,,,,,,,,,,,,,,,,,474.6142126669874,474.9579348329862,475.753994957995,475.7459196249984,,,,,,,,,,,,,,,,,,,,,,,,,,,,,,,,,,,475.7488309999899,475.753994957995,475.753994957995,476.6402606669872,g,1.0,0.8808982909977203,,,,,sub-036,1,stroop_test,,
,,,,92.0,8.0,7.0,,,,,,,,,,,,,blau,blue,b,1.0,b,1.0,0.9057372499955818,,,,,,,,,,7.0,8.0,92.0,6.0,476.6488072499924,,,,,,,,,,,,,,,,,476.64082112499455,476.7280238329986,477.5224322919967,477.5123692919879,,,,,,,,,,,,,,,,,,,,,,,,,,,,,,,,,,,477.5160731249925,477.5224322919967,477.5224322919967,478.43660254198767,b,1.0,0.9057372499955818,,,,,sub-036,1,stroop_test,,
,,,,93.0,9.0,7.0,,,,,,,,,,,,,rot,red,r,1.0,r,1.0,0.8327256250049686,,,,,,,,,,7.0,9.0,93.0,0.0,478.44514812499983,,,,,,,,,,,,,,,,,478.437151457998,479.6324191669992,480.4366959170002,480.426907666988,,,,,,,,,,,,,,,,,,,,,,,,,,,,,,,,,,,480.4303418749914,480.4366959170002,480.4366959170002,481.27811370798736,r,1.0,0.8327256250049686,,,,,sub-036,1,stroop_test,,
,,,,94.0,10.0,7.0,,,,,,,,,,,,,blau,blue,b,1.0,b,1.0,0.896377291996032,,,,,,,,,,7.0,10.0,94.0,5.0,481.2868911669939,,,,,,,,,,,,,,,,,481.2787374999898,481.3703575830005,482.1675166249916,482.1555671249953,,,,,,,,,,,,,,,,,,,,,,,,,,,,,,,,,,,482.1611407919991,482.1675166249916,482.1675166249916,483.069254749993,b,1.0,0.896377291996032,,,,,sub-036,1,stroop_test,,
,,,,95.0,11.0,7.0,,,,,,,,,,,,,blau,red,r,0.0,r,1.0,1.8801952920039184,,,,,,,,,,7.0,11.0,95.0,4.0,483.07389995799167,,,,,,,,,,,,,,,,,483.0695106249914,484.2770040829928,485.0779908330005,485.0710871249903,,,,,,,,,,,,,,,,,,,,,,,,,,,,,,,,,,,485.0716685829975,485.0779908330005,485.0779908330005,486.9606402079953,r,1.0,1.8801952920039184,,,,,sub-036,1,stroop_test,,
,,,,96.0,0.0,8.0,,,,,,,,,,,,,rot,red,r,1.0,r,1.0,0.7434580410044873,,,,,,,,,,8.0,0.0,96.0,1.0,486.96822216699366,,,,,,,,,,,,,,,,,486.9609596669907,487.3000242499984,488.0932829999947,488.08366033299535,,,,,,,,,,,,,,,,,,,,,,,,,,,,,,,,,,,488.0872301669879,488.0932829999947,488.0932829999947,488.8403549169889,r,1.0,0.7434580410044873,,,,,sub-036,1,stroop_test,,
,,,,97.0,1.0,8.0,,,,,,,,,,,,,blau,blue,b,1.0,b,1.0,0.7709564170072554,,,,,,,,,,8.0,1.0,97.0,6.0,488.8531823329977,,,,,,,,,,,,,,,,,488.8408429999981,489.6343242500007,490.4300311249972,490.4196388329874,,,,,,,,,,,,,,,,,,,,,,,,,,,,,,,,,,,490.4239841669914,490.4300311249972,490.4300311249972,491.2103760419996,b,1.0,0.7709564170072554,,,,,sub-036,1,stroop_test,,
,,,,98.0,2.0,8.0,,,,,,,,,,,,,gelb,yellow,g,1.0,g,1.0,0.7462577920086915,,,,,,,,,,8.0,2.0,98.0,10.0,491.2182719579869,,,,,,,,,,,,,,,,,491.21100191699225,491.56833695799287,492.3701497919974,492.36070974999166,,,,,,,,,,,,,,,,,,,,,,,,,,,,,,,,,,,492.3641866669932,492.3701497919974,492.3701497919974,493.1279451249866,g,1.0,0.7462577920086915,,,,,sub-036,1,stroop_test,,
,,,,99.0,3.0,8.0,,,,,,,,,,,,,gelb,yellow,g,1.0,g,1.0,0.7693593750009313,,,,,,,,,,8.0,3.0,99.0,11.0,493.1324840829912,,,,,,,,,,,,,,,,,493.1283288749983,493.4969381249976,494.2891020829993,494.283497832992,,,,,,,,,,,,,,,,,,,,,,,,,,,,,,,,,,,494.2840811249917,494.2891020829993,494.2891020829993,495.0757270829927,g,1.0,0.7693593750009313,,,,,sub-036,1,stroop_test,,
,,,,100.0,4.0,8.0,,,,,,,,,,,,,gelb,red,r,0.0,r,1.0,1.3718099169927882,,,,,,,,,,8.0,4.0,100.0,8.0,495.08447166699625,,,,,,,,,,,,,,,,,495.0762908329925,495.44188712499454,496.2463527919899,496.2399731669866,,,,,,,,,,,,,,,,,,,,,,,,,,,,,,,,,,,496.240534749988,496.2463527919899,496.2463527919899,497.6208932499867,r,1.0,1.3718099169927882,,,,,sub-036,1,stroop_test,,
,,,,101.0,5.0,8.0,,,,,,,,,,,,,blau,blue,b,1.0,b,1.0,0.802069457990001,,,,,,,,,,8.0,5.0,101.0,5.0,497.6289690829872,,,,,,,,,,,,,,,,,497.62136879199534,498.815268499995,499.6118349169992,499.5990133329906,,,,,,,,,,,,,,,,,,,,,,,,,,,,,,,,,,,499.604597499987,499.6118349169992,499.6118349169992,500.4222326669988,b,1.0,0.802069457990001,,,,,sub-036,1,stroop_test,,
,,,,102.0,6.0,8.0,,,,,,,,,,,,,blau,yellow,g,0.0,r,0.0,1.2758332079974934,,,,,,,,,,8.0,6.0,102.0,7.0,500.4306724999915,,,,,,,,,,,,,,,,,500.4228421669977,501.2110337919876,502.01339516699954,502.0088634169952,,,,,,,,,,,,,,,,,,,,,,,,,,,,,,,,,,,502.0095654579927,502.01339516699954,502.01339516699954,503.2928023329878,r,0.0,1.2758332079974934,,,,,sub-036,1,stroop_test,,
,,,,103.0,7.0,8.0,,,,,,,,,,,,,gelb,blue,b,0.0,b,1.0,1.678588791997754,,,,,,,,,,8.0,7.0,103.0,9.0,503.30154791699897,,,,,,,,,,,,,,,,,503.2934048749885,504.0843016669969,504.8771077499987,504.8675530420005,,,,,,,,,,,,,,,,,,,,,,,,,,,,,,,,,,,504.8709022080002,504.8771077499987,504.8771077499987,506.5600058329874,b,1.0,1.678588791997754,,,,,sub-036,1,stroop_test,,
,,,,104.0,8.0,8.0,,,,,,,,,,,,,rot,blue,b,0.0,b,1.0,1.6543797500053188,,,,,,,,,,8.0,8.0,104.0,2.0,506.5679093329964,,,,,,,,,,,,,,,,,506.5603986249917,506.6569365829928,507.4635438330006,507.4519651249866,,,,,,,,,,,,,,,,,,,,,,,,,,,,,,,,,,,507.4573972079961,507.4635438330006,507.4635438330006,509.1265296249912,b,1.0,1.6543797500053188,,,,,sub-036,1,stroop_test,,
,,,,105.0,9.0,8.0,,,,,,,,,,,,,rot,yellow,g,0.0,g,1.0,1.014067875003093,,,,,,,,,,8.0,9.0,105.0,3.0,509.1330549999984,,,,,,,,,,,,,,,,,509.1268083329924,509.226751707989,510.01605729199946,510.00982616699184,,,,,,,,,,,,,,,,,,,,,,,,,,,,,,,,,,,510.0103834579932,510.01605729199946,510.01605729199946,511.0320811249985,g,1.0,1.014067875003093,,,,,sub-036,1,stroop_test,,
,,,,106.0,10.0,8.0,,,,,,,,,,,,,blau,red,r,0.0,r,1.0,1.2098581250029383,,,,,,,,,,8.0,10.0,106.0,4.0,511.04005808298825,,,,,,,,,,,,,,,,,511.0326151249901,511.83353720798914,512.6306135419873,512.6210858749982,,,,,,,,,,,,,,,,,,,,,,,,,,,,,,,,,,,512.6245926669944,512.6306135419873,512.6306135419873,513.8522732919955,r,1.0,1.2098581250029383,,,,,sub-036,1,stroop_test,,
,,,,107.0,11.0,8.0,,,,,,,,,,,,,rot,red,r,1.0,r,1.0,1.6044005419971654,,,,,,,,,,8.0,11.0,107.0,0.0,513.8598466249969,,,,,,,,,,,,,,,,,513.8529037080007,515.0683864169987,515.8708984999976,515.8625049999973,,,,,,,,,,,,,,,,,,,,,,,,,,,,,,,,,,,515.8654758749908,515.8708984999976,515.8708984999976,517.4883692079893,r,1.0,1.6044005419971654,,,,,sub-036,1,stroop_test,,
,,,,108.0,0.0,9.0,,,,,,,,,,,,,blau,red,r,0.0,r,1.0,1.260323166003218,,,,,,,,,,9.0,0.0,108.0,4.0,517.4970927079994,,,,,,,,,,,,,,,,,517.4889727079862,518.2934129999921,519.1045667079889,519.0948213329975,,,,,,,,,,,,,,,,,,,,,,,,,,,,,,,,,,,519.0983705419931,519.1045667079889,519.1045667079889,520.3828716669959,r,1.0,1.260323166003218,,,,,sub-036,1,stroop_test,,
,,,,109.0,1.0,9.0,,,,,,,,,,,,,rot,red,r,1.0,r,1.0,1.003434541009483,,,,,,,,,,9.0,1.0,109.0,1.0,520.3911354579905,,,,,,,,,,,,,,,,,520.3834054999897,520.7458182079863,521.5507911249879,521.5419858749956,,,,,,,,,,,,,,,,,,,,,,,,,,,,,,,,,,,521.5450655829918,521.5507911249879,521.5507911249879,522.5565153329953,r,1.0,1.003434541009483,,,,,sub-036,1,stroop_test,,
,,,,110.0,2.0,9.0,,,,,,,,,,,,,gelb,yellow,g,1.0,g,1.0,1.31502808300138,,,,,,,,,,9.0,2.0,110.0,11.0,522.563904124996,,,,,,,,,,,,,,,,,522.5571219169942,523.3536817919958,524.1592264999927,524.1496588749869,,,,,,,,,,,,,,,,,,,,,,,,,,,,,,,,,,,524.1530267919879,524.1592264999927,524.1592264999927,525.4769769999984,g,1.0,1.31502808300138,,,,,sub-036,1,stroop_test,,
,,,,111.0,3.0,9.0,,,,,,,,,,,,,rot,blue,b,0.0,b,1.0,1.1057895840058336,,,,,,,,,,9.0,3.0,111.0,2.0,525.4837630830007,,,,,,,,,,,,,,,,,525.477437374997,526.6933446249895,527.492236207996,527.4793244579923,,,,,,,,,,,,,,,,,,,,,,,,,,,,,,,,,,,527.4823753749952,527.492236207996,527.492236207996,528.6012950000004,b,1.0,1.1057895840058336,,,,,sub-036,1,stroop_test,,
,,,,112.0,4.0,9.0,,,,,,,,,,,,,rot,yellow,g,0.0,g,1.0,2.0901266250002664,,,,,,,,,,9.0,4.0,112.0,3.0,528.6084027499892,,,,,,,,,,,,,,,,,528.6017982079939,529.8031854169967,530.6025398749916,530.5961644579947,,,,,,,,,,,,,,,,,,,,,,,,,,,,,,,,,,,530.5967230419919,530.6025398749916,530.6025398749916,532.705558207992,g,1.0,2.0901266250002664,,,,,sub-036,1,stroop_test,,
,,,,113.0,5.0,9.0,,,,,,,,,,,,,blau,blue,b,1.0,b,1.0,0.9881984579988056,,,,,,,,,,9.0,5.0,113.0,5.0,532.7140477499925,,,,,,,,,,,,,,,,,532.7061609999946,533.5114116669865,534.3260010829981,534.3149283749954,,,,,,,,,,,,,,,,,,,,,,,,,,,,,,,,,,,534.319527374988,534.3260010829981,534.3260010829981,535.3283135419915,b,1.0,0.9881984579988056,,,,,sub-036,1,stroop_test,,
,,,,114.0,6.0,9.0,,,,,,,,,,,,,gelb,blue,b,0.0,g,0.0,0.8637894579878775,,,,,,,,,,9.0,6.0,114.0,9.0,535.3370314169879,,,,,,,,,,,,,,,,,535.3289071249892,536.1198999169865,536.9161744169978,536.9031727499969,,,,,,,,,,,,,,,,,,,,,,,,,,,,,,,,,,,536.9061721670005,536.9161744169978,536.9161744169978,537.7843350419862,g,0.0,0.8637894579878775,,,,,sub-036,1,stroop_test,,
,,,,115.0,7.0,9.0,,,,,,,,,,,,,blau,blue,b,1.0,b,1.0,0.8495274589949986,,,,,,,,,,9.0,7.0,115.0,6.0,537.7959948749922,,,,,,,,,,,,,,,,,537.7847341669985,538.1298287919926,538.9262029999954,538.913062874999,,,,,,,,,,,,,,,,,,,,,,,,,,,,,,,,,,,538.9158170419978,538.9262029999954,538.9262029999954,539.7910681249923,b,1.0,0.8495274589949986,,,,,sub-036,1,stroop_test,,
,,,,116.0,8.0,9.0,,,,,,,,,,,,,gelb,red,r,0.0,r,1.0,0.903332625006442,,,,,,,,,,9.0,8.0,116.0,8.0,539.799795791987,,,,,,,,,,,,,,,,,539.7916663329961,540.9967215829965,541.7897947919992,541.7804794999975,,,,,,,,,,,,,,,,,,,,,,,,,,,,,,,,,,,541.7839669169916,541.7897947919992,541.7897947919992,542.7161176249938,r,1.0,0.903332625006442,,,,,sub-036,1,stroop_test,,
,,,,117.0,9.0,9.0,,,,,,,,,,,,,blau,yellow,g,0.0,g,1.0,1.836265457997797,,,,,,,,,,9.0,9.0,117.0,7.0,542.7248275829916,,,,,,,,,,,,,,,,,542.7167238330003,542.80768849999,543.6084684999951,543.5999058749876,,,,,,,,,,,,,,,,,,,,,,,,,,,,,,,,,,,543.6032495419931,543.6084684999951,543.6084684999951,545.4477382079931,g,1.0,1.836265457997797,,,,,sub-036,1,stroop_test,,
,,,,118.0,10.0,9.0,,,,,,,,,,,,,gelb,yellow,g,1.0,g,1.0,0.8104834590048995,,,,,,,,,,9.0,10.0,118.0,10.0,545.4591456249909,,,,,,,,,,,,,,,,,545.4482160829939,546.2501572919864,547.0547619169956,547.0454545829998,,,,,,,,,,,,,,,,,,,,,,,,,,,,,,,,,,,547.0487339999963,547.0547619169956,547.0547619169956,547.8753411249927,g,1.0,0.8104834590048995,,,,,sub-036,1,stroop_test,,
,,,,119.0,11.0,9.0,,,,,,,,,,,,,rot,red,r,1.0,r,1.0,0.9411930000060238,,,,,,,,,,9.0,11.0,119.0,0.0,547.895716125,,,,,,,,,,,,,,,,,547.875584999987,547.9623747079895,548.7579748329881,548.7487400829996,,,,,,,,,,,,,,,,,,,,,,,,,,,,,,,,,,,548.7516780419974,548.7579748329881,548.7579748329881,549.7031931669917,r,1.0,0.9411930000060238,,,,,sub-036,1,stroop_test,,
,,,,,,,,,,,,,,,,,,,,,,,,,,,,,,,,,,,,,,,,,,,,,,,,,,,,,,,,,,,,,,,,,,,,,,,,,,,,,,,,,,,,,,,,,,,,,,,,,,,,,,549.7034664579987,549.7132825829904,554.7128115829983,sub-036,1,stroop_test,,
