direction,corrAns,randomInstr,practice_trials.thisRepN,practice_trials.thisTrialN,practice_trials.thisN,practice_trials.thisIndex,instr_trials.thisRepN,instr_trials.thisTrialN,instr_trials.thisN,instr_trials.thisIndex,test_trials.thisRepN,test_trials.thisTrialN,test_trials.thisN,test_trials.thisIndex,thisRow.t,notes,general_instruction.started,textGeneralInstr.started,respGeneralInstr.started,general_instruction.stopped,respGeneralInstr.keys,respGeneralInstr.rt,respGeneralInstr.duration,ITI.started,fixcross.started,fixcross.stopped,ITI.stopped,dots.started,backgroundDots.started,stimulusDots.started,respDots.started,stimulusDots.stopped,dots.stopped,respDots.keys,respDots.corr,respDots.rt,respDots.duration,feedback.started,textFeedback.started,feedback.stopped,textFeedback.stopped,info.started,textInfo.started,keyRespInfo.started,info.stopped,keyRespInfo.keys,keyRespInfo.rt,keyRespInfo.duration,test_instruction.started,textTestInstr.started,respTestInstr.started,test_instruction.stopped,respTestInstr.keys,respTestInstr.rt,respTestInstr.duration,random_instruction.started,textRandomInstr.started,respRandomInstr.started,random_instruction.stopped,respRandomInstr.keys,respRandomInstr.rt,respRandomInstr.duration,goodbye.started,textGoodbye.started,goodbye.stopped,participant,session,expName,frameRate,Unnamed: 73
,,,,,,,,,,,,,,,,,0.1364330000360496,0.1760948000010103,0.1760948000010103,44.33195120003074,space,232.80148409999677,,,,,,,,,,,,,,,,,,,,,,,,,,,,,,,,,,,,,,,,,,,,sub-050,1.0,random_dot,60.044156459386414,
right,right,,0.0,0.0,0.0,1.0,,,,,,,,,44.35337680001976,,,,,,,,,44.34810580004705,45.54601470002672,46.36377480003284,46.33000980003271,46.3300546000246,46.36377480003284,46.36377480003284,46.36377480003284,51.34471470001154,51.76401760004228,right,1.0,194.0496337999939,,51.76621630002046,51.805236000043806,52.27700410003308,,,,,,,,,,,,,,,,,,,,,,,,,,sub-050,1.0,random_dot,60.044156459386414,
left,left,,0.0,1.0,1.0,0.0,,,,,,,,,52.29405120003503,,,,,,,,,52.27773640002124,53.47732880001422,54.27768769999966,54.26285240001744,54.26292180002201,54.27768769999966,54.27768769999966,54.27768769999966,,58.062838300014846,left,1.0,192.42413509998005,,58.06469389999984,58.07582610001555,58.56057710002642,58.57552130002296,,,,,,,,,,,,,,,,,,,,,,,,,sub-050,1.0,random_dot,60.044156459386414,
right,right,,1.0,0.0,2.0,1.0,,,,,,,,,58.57552130002296,,,,,,,,,58.561874700011685,59.37504700000864,60.17560539999977,60.159986500046216,60.16004560003057,60.17560539999977,60.17560539999977,60.17560539999977,,63.12813730002381,right,1.0,191.6060327999876,,63.12994910002453,63.14074390003225,63.62581490003504,63.64072320004925,,,,,,,,,,,,,,,,,,,,,,,,,sub-050,1.0,random_dot,60.044156459386414,
left,left,,1.0,1.0,3.0,0.0,,,,,,,,,63.64072320004925,,,,,,,,,63.62709430005634,63.99053910002112,64.79089000000386,64.77510740002617,64.775168400025,64.79089000000386,64.79089000000386,64.79089000000386,,67.94277680001687,left,1.0,191.799832199933,,67.9446000000462,67.95586540002842,68.44081390002975,68.45581850002054,,,,,,,,,,,,,,,,,,,,,,,,,sub-050,1.0,random_dot,60.044156459386414,
right,right,,2.0,0.0,4.0,1.0,,,,,,,,,68.45581850002054,,,,,,,,,68.44217940000817,69.65549940004712,70.45608960004756,70.44126210000832,70.44132360001095,70.45608960004756,70.45608960004756,70.45608960004756,,72.48986690002494,right,1.0,190.6884060999728,,72.4906661999994,72.50395090004895,72.98953020002227,73.00462880003033,,,,,,,,,,,,,,,,,,,,,,,,,sub-050,1.0,random_dot,60.044156459386414,
left,left,,2.0,1.0,5.0,0.0,,,,,,,,,73.00462880003033,,,,,,,,,72.99085650005145,73.80429610004649,74.60447120002937,74.58917900000233,74.58924200001638,74.60447120002937,74.60447120002937,74.60447120002937,,78.05650160001824,right,0.0,192.10436509992,,78.05842730001314,78.08825860003708,78.56969190004747,,,,,,,,,,,,,,,,,,,,,,,,,,sub-050,1.0,random_dot,60.044156459386414,
right,right,,3.0,0.0,6.0,1.0,,,,,,,,,78.58523990004323,,,,,,,,,78.57096390001243,78.91899640002521,79.71957130002556,79.70385380001971,79.70391740003834,79.71957130002556,79.71957130002556,79.71957130002556,,83.9714110000059,right,1.0,192.89212779991797,,83.9742645000224,83.99132770003052,84.48437600000761,,,,,,,,,,,,,,,,,,,,,,,,,,sub-050,1.0,random_dot,60.044156459386414,
left,left,,3.0,1.0,7.0,0.0,,,,,,,,,84.5008890000172,,,,,,,,,84.4856425000471,84.58432310004719,85.38472200004617,85.36876020004274,85.3688232000568,85.38472200004617,85.38472200004617,85.38472200004617,,88.53665400005411,left,1.0,191.7910331999301,,88.53861840005266,88.54967670002952,89.03297220001696,89.04887400002917,,,,,,,,,,,,,,,,,,,,,,,,,sub-050,1.0,random_dot,60.044156459386414,
left,left,,4.0,0.0,8.0,0.0,,,,,,,,,89.04887400002917,,,,,,,,,89.03346120001515,89.84908360004192,90.64931730000536,90.6333354000235,90.63339080003789,90.64931730000536,90.64931730000536,90.64931730000536,,94.86689830000978,left,1.0,192.86767139995936,,94.86814570002024,94.88038380001672,95.36471130000427,95.38024790002964,,,,,,,,,,,,,,,,,,,,,,,,,sub-050,1.0,random_dot,60.044156459386414,
right,right,,4.0,1.0,9.0,1.0,,,,,,,,,95.38024790002964,,,,,,,,,95.36541920003948,95.7300548000494,96.53143410000484,96.51629630004754,96.51640280004358,96.53143410000484,96.53143410000484,96.53143410000484,,99.49960330000611,right,1.0,191.6201601999928,,99.50150040001608,99.51267290004762,99.99765330000082,100.0124305000063,,,,,,,,,,,,,,,,,,,,,,,,,sub-050,1.0,random_dot,60.044156459386414,
right,right,,5.0,0.0,10.0,1.0,,,,,,,,,100.0124305000063,,,,,,,,,99.99893140001222,101.21252820000518,102.01267730002292,101.9970099000493,101.99707080004735,102.01267730002292,102.01267730002292,102.01267730002292,107.0108184000128,107.28198880003764,left,0.0,193.92253769992385,,107.28383950004354,107.30685060005636,107.79379700002028,,,,,,,,,,,,,,,,,,,,,,,,,,sub-050,1.0,random_dot,60.044156459386414,
left,left,,5.0,1.0,11.0,0.0,,,,,,,,,107.810211300035,,,,,,,,,107.79502040002262,107.89339240000118,108.69376960000956,108.67874270002358,108.67880660004448,108.69376960000956,108.69376960000956,108.69376960000956,,111.04659950005588,left,1.0,191.00012669997523,,111.048695400008,111.06752590002723,111.55920390004758,,,,,,,,,,,,,,,,,,,,,,,,,,sub-050,1.0,random_dot,60.044156459386414,
left,left,,6.0,0.0,12.0,0.0,,,,,,,,,111.57560530002227,,,,,,,,,111.56048100005135,112.75836660002824,113.5590561000281,113.54364000004716,113.54370230005588,113.5590561000281,113.5590561000281,113.5590561000281,,115.52783390000695,right,0.0,190.60998010000912,,115.52975190000144,115.54734580003424,116.0412063000258,,,,,,,,,,,,,,,,,,,,,,,,,,sub-050,1.0,random_dot,60.044156459386414,
right,right,,6.0,1.0,13.0,1.0,,,,,,,,,116.05756950000068,,,,,,,,,116.0424622000428,117.2406543000252,118.04105740005616,118.02550380001776,118.02558770001632,118.04105740005616,118.04105740005616,118.04105740005616,,121.82616789999884,right,1.0,192.42822769994385,,121.82809890003408,121.84482590004336,122.33929770003306,,,,,,,,,,,,,,,,,,,,,,,,,,sub-050,1.0,random_dot,60.044156459386414,
left,left,,7.0,0.0,14.0,0.0,,,,,,,,,122.35532250005052,,,,,,,,,122.3403211000259,122.43847780005308,123.2392882000422,123.22394490003352,123.22400750004454,123.2392882000422,123.2392882000422,123.2392882000422,,126.14157770003658,left,1.0,191.551694099966,,126.14360640000086,126.15447900001892,126.63900660001671,126.6541838000412,,,,,,,,,,,,,,,,,,,,,,,,,sub-050,1.0,random_dot,60.044156459386414,
right,right,,7.0,1.0,15.0,1.0,,,,,,,,,126.6541838000412,,,,,,,,,126.64025960001165,127.0040364000015,127.80451430001996,127.78878120001173,127.7888439000235,127.80451430001996,127.80451430001996,127.80451430001996,,128.99222420004662,right,1.0,189.84005060000345,,128.99416590004694,129.00525360001484,129.5035508000292,,,,,,,,,,,,,,,,,,,,,,,,,,sub-050,1.0,random_dot,60.044156459386414,
left,left,,8.0,0.0,16.0,0.0,,,,,,,,,129.52004810003564,,,,,,,,,129.50478840002324,130.70312230003765,131.5033192000119,131.48794190003537,131.48800890002167,131.5033192000119,131.5033192000119,131.5033192000119,,133.37234610004816,left,1.0,190.50942710001252,,133.3743527000188,133.3854954999988,133.87056630000006,133.88551270001335,,,,,,,,,,,,,,,,,,,,,,,,,sub-050,1.0,random_dot,60.044156459386414,
right,right,,8.0,1.0,17.0,1.0,,,,,,,,,133.88551270001335,,,,,,,,,133.8718932000338,134.68511240003863,135.48573970003054,135.47108430002118,135.47115740005393,135.48573970003054,135.48573970003054,135.48573970003054,,138.50452430004952,right,1.0,191.671768399945,,138.50634150003316,138.5173634000239,139.0020341000054,139.0170943000121,,,,,,,,,,,,,,,,,,,,,,,,,sub-050,1.0,random_dot,60.044156459386414,
right,right,,9.0,0.0,18.0,1.0,,,,,,,,,139.0170943000121,,,,,,,,,139.00330210005632,139.81694900000002,140.6173738000216,140.60176540003158,140.6018272000365,140.6173738000216,140.6173738000216,140.6173738000216,,142.4841851000092,right,1.0,190.5161232999526,,142.4853367000469,142.49870960001135,142.9842837000033,142.9991167000262,,,,,,,,,,,,,,,,,,,,,,,,,sub-050,1.0,random_dot,60.044156459386414,
left,left,,9.0,1.0,19.0,0.0,,,,,,,,,142.9991167000262,,,,,,,,,142.985937200021,143.7989161000005,144.59937690000515,144.58396390004782,144.58402460004436,144.59937690000515,144.59937690000515,144.59937690000515,,146.5847293000552,left,1.0,190.63866649993,,146.58658840000862,146.598307200009,147.0829418000067,147.0980922000017,,,,,,,,,,,,,,,,,,,,,,,,,sub-050,1.0,random_dot,60.044156459386414,
,,,,,,,,,,,,,,,,,,,,,,,,,,,,,,,,,,,,,,,,,,147.0831407000078,147.0980922000017,147.0980922000017,153.41385280003306,space,194.96735639992403,,,,,,,,,,,,,,,,,,,sub-050,1.0,random_dot,60.044156459386414,
,,,,,,,,,,,,,,,,,,,,,,,,,,,,,,,,,,,,,,,,,,,,,,,,,153.4139311000472,153.42911510000704,153.42911510000704,164.04603190004127,space,199.2660877999733,,,,,,,,,,,,sub-050,1.0,random_dot,60.044156459386414,
left,left,speed,,,,,0.0,0.0,0.0,1.0,0.0,0.0,0.0,0.0,167.7585571000236,,,,,,,,,167.75210260000313,168.54148530005477,169.3416484000045,169.32591970002977,169.32598720001988,169.3416484000045,169.3416484000045,169.3416484000045,,171.31260930001736,left,1.0,190.61889139993585,,,,,,,,,,,,,,,,,,,,164.0588370000478,164.13998500001617,164.13998500001617,167.72897840000223,space,192.2347454999108,,,,,sub-050,1.0,random_dot,60.044156459386414,
right,right,speed,,,,,0.0,0.0,0.0,1.0,0.0,1.0,1.0,1.0,171.32594000000972,,,,,,,,,171.31780509999953,171.6736279000179,172.47355270001572,172.4573443000554,172.45738430001074,172.47355270001572,172.47355270001572,172.47355270001572,,175.57612310000695,right,1.0,191.74914449994685,,,,,,,,,,,,,,,,,,,,,,,,,,,,,,sub-050,1.0,random_dot,60.044156459386414,
right,right,speed,,,,,0.0,0.0,0.0,1.0,1.0,0.0,2.0,1.0,175.58893910003826,,,,,,,,,175.5800988000119,175.68918780004606,176.48928040004105,176.47379240003647,176.4738534000353,176.48928040004105,176.48928040004105,176.48928040004105,,179.64206280000508,right,1.0,191.7967905999394,,,,,,,,,,,,,,,,,,,,,,,,,,,,,,sub-050,1.0,random_dot,60.044156459386414,
left,left,speed,,,,,0.0,0.0,0.0,1.0,1.0,1.0,3.0,0.0,179.65436220000265,,,,,,,,,179.6455773000489,180.4540529000224,181.25452160002897,181.23890680004843,181.23897250002483,181.25452160002897,181.25452160002897,181.25452160002897,,183.24065270001304,left,1.0,190.63002639997285,,,,,,,,,,,,,,,,,,,,,,,,,,,,,,sub-050,1.0,random_dot,60.044156459386414,
left,left,speed,,,,,0.0,0.0,0.0,1.0,2.0,0.0,4.0,0.0,183.2533143000328,,,,,,,,,183.2442850000225,184.052896600042,184.8534926000284,184.83781190001173,184.83789900003467,184.8534926000284,184.8534926000284,184.8534926000284,,186.6559424000443,left,1.0,190.453934799938,,,,,,,,,,,,,,,,,,,,,,,,,,,,,,sub-050,1.0,random_dot,60.044156459386414,
right,right,speed,,,,,0.0,0.0,0.0,1.0,2.0,1.0,5.0,1.0,186.66891810001107,,,,,,,,,186.65954740002053,187.01871130004287,187.81914130004589,187.80348890001187,187.8035535000381,187.81914130004589,187.81914130004589,187.81914130004589,,189.2052367000142,right,1.0,190.031687199953,,,,,,,,,,,,,,,,,,,,,,,,,,,,,,sub-050,1.0,random_dot,60.044156459386414,
left,left,speed,,,,,0.0,0.0,0.0,1.0,3.0,0.0,6.0,0.0,189.21830090001455,,,,,,,,,189.2089484000462,189.56801510002697,190.3684747000225,190.3528838000493,190.35294580005572,190.3684747000225,190.3684747000225,190.3684747000225,,191.88616390002423,left,1.0,190.1716046999209,,,,,,,,,,,,,,,,,,,,,,,,,,,,,,sub-050,1.0,random_dot,60.044156459386414,
right,right,speed,,,,,0.0,0.0,0.0,1.0,3.0,1.0,7.0,1.0,191.9000350999995,,,,,,,,,191.8879213000182,192.0000761000556,192.8008016000385,192.7848445000127,192.78488750004908,192.8008016000385,192.8008016000385,192.8008016000385,,194.2348818000173,right,1.0,190.08599529997448,,,,,,,,,,,,,,,,,,,,,,,,,,,,,,sub-050,1.0,random_dot,60.044156459386414,
left,left,speed,,,,,0.0,0.0,0.0,1.0,4.0,0.0,8.0,0.0,194.2494220000226,,,,,,,,,194.23690830002303,194.59946490003492,195.3995271000313,195.38322330004303,195.38325630000327,195.3995271000313,195.3995271000313,195.3995271000313,,196.85114350001092,left,1.0,190.1033264999278,,,,,,,,,,,,,,,,,,,,,,,,,,,,,,sub-050,1.0,random_dot,60.044156459386414,
right,right,speed,,,,,0.0,0.0,0.0,1.0,4.0,1.0,9.0,1.0,196.86543510004407,,,,,,,,,196.8532315000193,198.06489510001848,198.86534190003292,198.84889910003403,198.84893220005324,198.86534190003292,198.86534190003292,198.86534190003292,,201.1357005000464,right,1.0,190.9220260999282,,,,,,,,,,,,,,,,,,,,,,,,,,,,,,sub-050,1.0,random_dot,60.044156459386414,
right,right,speed,,,,,0.0,0.0,0.0,1.0,5.0,0.0,10.0,1.0,201.14776500000156,,,,,,,,,201.13940260000527,202.3473584000021,203.147689800011,203.1320273000165,203.13208800001303,203.147689800011,203.147689800011,203.147689800011,,205.1503752000281,right,1.0,190.64868409995688,,,,,,,,,,,,,,,,,,,,,,,,,,,,,,sub-050,1.0,random_dot,60.044156459386414,
left,left,speed,,,,,0.0,0.0,0.0,1.0,5.0,1.0,11.0,0.0,205.16320270003047,,,,,,,,,205.1539742000168,205.26306790002852,206.06357930001104,206.04823080002097,206.04835940001067,206.06357930001104,206.06357930001104,206.06357930001104,,207.08290050004143,left,1.0,189.6711248999345,,,,,,,,,,,,,,,,,,,,,,,,,,,,,,sub-050,1.0,random_dot,60.044156459386414,
left,left,speed,,,,,0.0,0.0,0.0,1.0,6.0,0.0,12.0,0.0,207.0958009000169,,,,,,,,,207.08656720002185,207.89568150002745,208.69596700003603,208.68023150000957,208.68029100005515,208.69596700003603,208.69596700003603,208.69596700003603,,210.5317913000472,left,1.0,190.477165899938,,,,,,,,,,,,,,,,,,,,,,,,,,,,,,sub-050,1.0,random_dot,60.044156459386414,
right,right,speed,,,,,0.0,0.0,0.0,1.0,6.0,1.0,13.0,1.0,210.5448264000006,,,,,,,,,210.53558980004163,211.74432830000296,212.5446314000292,212.5291158000473,212.52918110002065,212.5446314000292,212.5446314000292,212.5446314000292,,213.7310881000012,right,1.0,189.8334011999541,,,,,,,,,,,,,,,,,,,,,,,,,,,,,,sub-050,1.0,random_dot,60.044156459386414,
right,right,speed,,,,,0.0,0.0,0.0,1.0,7.0,0.0,14.0,1.0,213.7437567000161,,,,,,,,,213.73451390000992,214.0938294000225,214.8941437000176,214.87907610001275,214.87913770001612,214.8941437000176,214.8941437000176,214.8941437000176,,216.9631028000149,right,1.0,190.7098630999681,,,,,,,,,,,,,,,,,,,,,,,,,,,,,,sub-050,1.0,random_dot,60.044156459386414,
left,left,speed,,,,,0.0,0.0,0.0,1.0,7.0,1.0,15.0,0.0,216.97628400003305,,,,,,,,,216.9668044000282,217.3259618000011,218.12647340004327,218.11088089999976,218.1109633000451,218.12647340004327,218.12647340004327,218.12647340004327,,220.0287146000192,left,1.0,190.54239159997087,,,,,,,,,,,,,,,,,,,,,,,,,,,,,,sub-050,1.0,random_dot,60.044156459386414,
right,right,speed,,,,,0.0,0.0,0.0,1.0,8.0,0.0,16.0,1.0,220.0416782000102,,,,,,,,,220.0327639000025,220.14173560001652,220.9424283000408,220.9272033000016,220.92730300000403,220.9424283000408,220.9424283000408,220.9424283000408,,222.12846520001767,right,1.0,189.83905469992897,,,,,,,,,,,,,,,,,,,,,,,,,,,,,,sub-050,1.0,random_dot,60.044156459386414,
left,left,speed,,,,,0.0,0.0,0.0,1.0,8.0,1.0,17.0,0.0,222.1411487000296,,,,,,,,,222.1323553000111,222.2409635000513,223.0417186000268,223.02525100001367,223.0253050000174,223.0417186000268,223.0417186000268,223.0417186000268,,225.51054610003484,left,1.0,191.12170159997183,,,,,,,,,,,,,,,,,,,,,,,,,,,,,,sub-050,1.0,random_dot,60.044156459386414,
left,left,speed,,,,,0.0,0.0,0.0,1.0,9.0,0.0,18.0,0.0,225.5235514000524,,,,,,,,,225.51423010003052,225.6234316000482,226.4238359000301,226.4079324000049,226.40799260005588,226.4238359000301,226.4238359000301,226.4238359000301,,230.89318569999887,left,1.0,193.1181022999808,,,,,,,,,,,,,,,,,,,,,,,,,,,,,,sub-050,1.0,random_dot,60.044156459386414,
right,right,speed,,,,,0.0,0.0,0.0,1.0,9.0,1.0,19.0,1.0,230.90470500005176,,,,,,,,,230.8970410000184,232.10477140004517,232.92133550002472,232.90520720003408,232.9052384000388,232.92133550002472,232.92133550002472,232.92133550002472,,234.657541600056,right,1.0,190.3757331999368,,,,,,,,,,,,,,,,,,,,,,,,,,,,,,sub-050,1.0,random_dot,60.044156459386414,
left,left,speed,,,,,0.0,0.0,0.0,1.0,10.0,0.0,20.0,0.0,234.67072890000415,,,,,,,,,234.6611102000461,235.87024170003133,236.67050730000483,236.65539860003628,236.6554993000464,236.67050730000483,236.67050730000483,236.67050730000483,,238.8067553000292,left,1.0,190.78248169994916,,,,,,,,,,,,,,,,,,,,,,,,,,,,,,sub-050,1.0,random_dot,60.044156459386414,
right,right,speed,,,,,0.0,0.0,0.0,1.0,10.0,1.0,21.0,1.0,238.8185707000084,,,,,,,,,238.81054060003956,239.6189758000546,240.4192318000132,240.40447870001665,240.4045489000273,240.4192318000132,240.4192318000132,240.4192318000132,,241.6052954000188,right,1.0,189.82570659997876,,,,,,,,,,,,,,,,,,,,,,,,,,,,,,sub-050,1.0,random_dot,60.044156459386414,
left,left,speed,,,,,0.0,0.0,0.0,1.0,11.0,0.0,22.0,0.0,241.6184305000352,,,,,,,,,241.6090139000444,242.81770680000773,243.61840820004,243.6026724000112,243.6027340000146,243.61840820004,243.61840820004,243.61840820004,,244.7379103000276,left,1.0,189.7634692999418,,,,,,,,,,,,,,,,,,,,,,,,,,,,,,sub-050,1.0,random_dot,60.044156459386414,
right,right,speed,,,,,0.0,0.0,0.0,1.0,11.0,1.0,23.0,1.0,244.7508587000193,,,,,,,,,244.7414719000226,245.950300800032,246.7509366000304,246.7353160000057,246.73539450002136,246.7509366000304,246.7509366000304,246.7509366000304,,247.77136060001797,right,1.0,189.6724757999764,,,,,,,,,,,,,,,,,,,,,,,,,,,,,,sub-050,1.0,random_dot,60.044156459386414,
right,right,speed,,,,,0.0,0.0,0.0,1.0,12.0,0.0,24.0,1.0,247.78321360005063,,,,,,,,,247.77494520001343,248.58298320003087,249.3833316000528,249.3678136000526,249.3678739000461,249.3833316000528,249.3833316000528,249.3833316000528,,250.75269170000684,right,1.0,190.0135570999701,,,,,,,,,,,,,,,,,,,,,,,,,,,,,,sub-050,1.0,random_dot,60.044156459386414,
left,left,speed,,,,,0.0,0.0,0.0,1.0,12.0,1.0,25.0,0.0,250.7656284000259,,,,,,,,,250.756402500032,251.9651025000494,252.7651074000169,252.74915640003744,252.7491894000559,252.7651074000169,252.7651074000169,252.7651074000169,,254.80184440000448,left,1.0,190.67952619993596,,,,,,,,,,,,,,,,,,,,,,,,,,,,,,sub-050,1.0,random_dot,60.044156459386414,
left,left,speed,,,,,0.0,0.0,0.0,1.0,13.0,0.0,26.0,0.0,254.8144465000369,,,,,,,,,254.8053764000069,254.9140625,255.71460680000015,255.6990620000288,255.6991231000284,255.71460680000015,255.71460680000015,255.71460680000015,,257.5011849000002,left,1.0,190.44009929994357,,,,,,,,,,,,,,,,,,,,,,,,,,,,,,sub-050,1.0,random_dot,60.044156459386414,
right,right,speed,,,,,0.0,0.0,0.0,1.0,13.0,1.0,27.0,1.0,257.5135915999999,,,,,,,,,257.50519820000045,258.7132925000042,259.5134584000334,259.4976538000046,259.4977361000492,259.5134584000334,259.5134584000334,259.5134584000334,,261.33261790004326,left,0.0,190.4667300999863,,,,,,,,,,,,,,,,,,,,,,,,,,,,,,sub-050,1.0,random_dot,60.044156459386414,
left,left,speed,,,,,0.0,0.0,0.0,1.0,14.0,0.0,28.0,0.0,261.34577750001336,,,,,,,,,261.3364571000566,261.44552450004267,262.24607079999987,262.23062260000734,262.23069010005565,262.24607079999987,262.24607079999987,262.24607079999987,,265.99898510001367,left,1.0,192.40157649997852,,,,,,,,,,,,,,,,,,,,,,,,,,,,,,sub-050,1.0,random_dot,60.044156459386414,
right,right,speed,,,,,0.0,0.0,0.0,1.0,14.0,1.0,29.0,1.0,266.0110280000372,,,,,,,,,266.0025924000074,266.8105573000503,267.6108502999996,267.59522100002505,267.5952824000269,267.6108502999996,267.6108502999996,267.6108502999996,,268.2140158000402,right,1.0,189.25528719992144,,,,,,,,,,,,,,,,,,,,,,,,,,,,,,sub-050,1.0,random_dot,60.044156459386414,
right,right,speed,,,,,0.0,0.0,0.0,1.0,15.0,0.0,30.0,1.0,268.2266471000039,,,,,,,,,268.21772510005394,268.3263235000195,269.12716160004493,269.11177460005274,269.111837000004,269.12716160004493,269.12716160004493,269.12716160004493,,272.6778545000125,left,0.0,192.19485419994453,,,,,,,,,,,,,,,,,,,,,,,,,,,,,,sub-050,1.0,random_dot,60.044156459386414,
left,left,speed,,,,,0.0,0.0,0.0,1.0,15.0,1.0,31.0,0.0,272.691524200025,,,,,,,,,272.6799251000048,273.0416702000075,273.8420302000013,273.8256900000269,273.82572340004845,273.8420302000013,273.8420302000013,273.8420302000013,,276.01126090000616,left,1.0,190.8095657999511,,,,,,,,,,,,,,,,,,,,,,,,,,,,,,sub-050,1.0,random_dot,60.044156459386414,
left,left,speed,,,,,0.0,0.0,0.0,1.0,16.0,0.0,32.0,0.0,276.0243888000259,,,,,,,,,276.0148692000075,277.22358260001056,278.02391650003847,278.0076403000276,278.0076735000476,278.02391650003847,278.02391650003847,278.02391650003847,,280.4940635000239,left,1.0,191.12433729995973,,,,,,,,,,,,,,,,,,,,,,,,,,,,,,sub-050,1.0,random_dot,60.044156459386414,
right,right,speed,,,,,0.0,0.0,0.0,1.0,16.0,1.0,33.0,1.0,280.5060201000306,,,,,,,,,280.49791950004874,281.70609690004494,282.5064105000347,282.4908383000293,282.49090250005247,282.5064105000347,282.5064105000347,282.5064105000347,,286.1082240000251,right,1.0,192.2462606999325,,,,,,,,,,,,,,,,,,,,,,,,,,,,,,sub-050,1.0,random_dot,60.044156459386414,
left,left,speed,,,,,0.0,0.0,0.0,1.0,17.0,0.0,34.0,0.0,286.1213087000069,,,,,,,,,286.11195570003474,286.2212157000322,287.0213912000181,287.0060439000372,287.0061059000436,287.0213912000181,287.0213912000181,287.0213912000181,,289.0074141000514,left,1.0,190.6387773999595,,,,,,,,,,,,,,,,,,,,,,,,,,,,,,sub-050,1.0,random_dot,60.044156459386414,
right,right,speed,,,,,0.0,0.0,0.0,1.0,17.0,1.0,35.0,1.0,289.02028200001223,,,,,,,,,289.01122340001166,289.37022920005256,290.17077790002804,290.1562422999996,290.1563183000544,290.17077790002804,290.17077790002804,290.17077790002804,,292.3728386000148,left,0.0,190.8467630999512,,,,,,,,,,,,,,,,,,,,,,,,,,,,,,sub-050,1.0,random_dot,60.044156459386414,
left,left,speed,,,,,0.0,0.0,0.0,1.0,18.0,0.0,36.0,0.0,292.3859679000452,,,,,,,,,292.3766206,293.58573250001064,294.3860161000048,294.3701918000006,294.3702527000569,294.3860161000048,294.3860161000048,294.3860161000048,,296.02238070004387,left,1.0,190.28618859994455,,,,,,,,,,,,,,,,,,,,,,,,,,,,,,sub-050,1.0,random_dot,60.044156459386414,
right,right,speed,,,,,0.0,0.0,0.0,1.0,18.0,1.0,37.0,1.0,296.03483070002403,,,,,,,,,296.0260147000081,296.3846459000488,297.1852406000253,297.16964680003,297.16970650001895,297.1852406000253,297.1852406000253,297.1852406000253,,297.7211864000419,right,1.0,189.17970589996548,,,,,,,,,,,,,,,,,,,,,,,,,,,,,,sub-050,1.0,random_dot,60.044156459386414,
left,left,speed,,,,,0.0,0.0,0.0,1.0,19.0,0.0,38.0,0.0,297.734271000023,,,,,,,,,297.7248816000065,298.0841970000183,298.88464290002594,298.8691764000105,298.869237100007,298.88464290002594,298.88464290002594,298.88464290002594,,300.35382180003216,left,1.0,190.12235159991545,,,,,,,,,,,,,,,,,,,,,,,,,,,,,,sub-050,1.0,random_dot,60.044156459386414,
right,right,speed,,,,,0.0,0.0,0.0,1.0,19.0,1.0,39.0,1.0,300.36659260001034,,,,,,,,,300.35735760000534,300.46666150004603,301.26712550001685,301.2515586000518,301.25162049999926,301.26712550001685,301.26712550001685,301.26712550001685,,302.5031433000113,right,1.0,189.88412669993704,,,,,,,,,,,,,,,,,,,,,,,,,,,,,,sub-050,1.0,random_dot,60.044156459386414,
right,right,speed,,,,,0.0,0.0,0.0,1.0,20.0,0.0,40.0,1.0,302.51603190001333,,,,,,,,,302.50678680004785,302.61602930002846,303.41639710002346,303.4009810000425,303.40104530000826,303.41639710002346,303.41639710002346,303.41639710002346,,307.6680031000287,right,1.0,192.89360279997345,,,,,,,,,,,,,,,,,,,,,,,,,,,,,,sub-050,1.0,random_dot,60.044156459386414,
left,left,speed,,,,,0.0,0.0,0.0,1.0,20.0,1.0,41.0,0.0,307.68096450000303,,,,,,,,,307.67156420002,307.781020800001,308.5814158000285,308.56620900001144,308.56627110001864,308.5814158000285,308.5814158000285,308.5814158000285,,310.6009529000148,left,1.0,190.6672247999813,,,,,,,,,,,,,,,,,,,,,,,,,,,,,,sub-050,1.0,random_dot,60.044156459386414,
right,right,speed,,,,,0.0,0.0,0.0,1.0,21.0,0.0,42.0,1.0,310.61371890001465,,,,,,,,,310.6045697000227,310.7135346000432,311.51397890003864,311.4983379000332,311.4984043000149,311.51397890003864,311.51397890003864,311.51397890003864,,312.6001506000175,right,1.0,189.72761769994395,,,,,,,,,,,,,,,,,,,,,,,,,,,,,,sub-050,1.0,random_dot,60.044156459386414,
left,left,speed,,,,,0.0,0.0,0.0,1.0,21.0,1.0,43.0,0.0,312.6127234000014,,,,,,,,,312.6037048000144,312.7124024000368,313.51328470004955,313.4975262000225,313.49758730002213,313.51328470004955,313.51328470004955,313.51328470004955,,315.93237660004525,left,1.0,191.0653977999464,,,,,,,,,,,,,,,,,,,,,,,,,,,,,,sub-050,1.0,random_dot,60.044156459386414,
right,right,speed,,,,,0.0,0.0,0.0,1.0,22.0,0.0,44.0,1.0,315.9453122000559,,,,,,,,,315.9357246000436,316.2950477000559,317.09551850002026,317.0801069000154,317.0801713000401,317.09551850002026,317.09551850002026,317.09551850002026,,318.0984321000288,right,1.0,189.64479219994973,,,,,,,,,,,,,,,,,,,,,,,,,,,,,,sub-050,1.0,random_dot,60.044156459386414,
left,left,speed,,,,,0.0,0.0,0.0,1.0,22.0,1.0,45.0,0.0,318.11131330003263,,,,,,,,,318.1021659000544,318.9108808000456,319.7112968000001,319.69592820003163,319.69598950003274,319.7112968000001,319.7112968000001,319.7112968000001,,321.0139234000235,left,1.0,189.94488909991924,,,,,,,,,,,,,,,,,,,,,,,,,,,,,,sub-050,1.0,random_dot,60.044156459386414,
left,left,speed,,,,,0.0,0.0,0.0,1.0,23.0,0.0,46.0,0.0,321.02701970003545,,,,,,,,,321.0177717000479,321.3772111000144,322.17740700003924,322.1617377000512,322.16179910005303,322.17740700003924,322.17740700003924,322.17740700003924,,323.3626440000371,left,1.0,189.83251069992548,,,,,,,,,,,,,,,,,,,,,,,,,,,,,,sub-050,1.0,random_dot,60.044156459386414,
right,right,speed,,,,,0.0,0.0,0.0,1.0,23.0,1.0,47.0,1.0,323.3763231000048,,,,,,,,,323.3663231000537,323.72622630000114,324.52648210001644,324.5111529000569,324.5112350000418,324.52648210001644,324.52648210001644,324.52648210001644,,326.07956290000584,left,0.0,190.20518189994615,,,,,,,,,,,,,,,,,,,,,,,,,,,,,,sub-050,1.0,random_dot,60.044156459386414,
right,right,speed,,,,,0.0,0.0,0.0,1.0,24.0,0.0,48.0,1.0,326.0919966000365,,,,,,,,,326.083129900042,326.8919993000454,327.69210620003287,327.67658520000987,327.67667790001724,327.69210620003287,327.69210620003287,327.69210620003287,,331.6945262000081,left,0.0,192.64821869996376,,,,,,,,,,,,,,,,,,,,,,,,,,,,,,sub-050,1.0,random_dot,60.044156459386414,
left,left,speed,,,,,0.0,0.0,0.0,1.0,24.0,1.0,49.0,0.0,331.70694680005545,,,,,,,,,331.69820180005627,332.5065526000108,333.30735660000937,333.29081270005554,333.2908537000185,333.30735660000937,333.30735660000937,333.30735660000937,,334.2787137000123,right,0.0,189.6238771999488,,,,,,,,,,,,,,,,,,,,,,,,,,,,,,sub-050,1.0,random_dot,60.044156459386414,
left,left,speed,,,,,0.0,0.0,0.0,1.0,25.0,0.0,50.0,0.0,334.2895042000455,,,,,,,,,334.2827347000129,334.63938160002,335.4394482000498,335.42362230003346,335.42367640003795,335.4394482000498,335.4394482000498,335.4394482000498,,336.57514750002883,left,1.0,189.78641729993976,,,,,,,,,,,,,,,,,,,,,,,,,,,,,,sub-050,1.0,random_dot,60.044156459386414,
right,right,speed,,,,,0.0,0.0,0.0,1.0,25.0,1.0,51.0,1.0,336.5883113000309,,,,,,,,,336.57828940002946,337.7881000000052,338.58902210003,338.5735738000367,338.57366550003644,338.58902210003,338.58902210003,338.58902210003,,341.1579334000125,right,1.0,191.21891669993056,,,,,,,,,,,,,,,,,,,,,,,,,,,,,,sub-050,1.0,random_dot,60.044156459386414,
right,right,speed,,,,,0.0,0.0,0.0,1.0,26.0,0.0,52.0,1.0,341.170573600044,,,,,,,,,341.1614007000462,341.9700788000482,342.7704316000454,342.75402440002654,342.7540535000153,342.7704316000454,342.7704316000454,342.7704316000454,,344.17337060003774,right,1.0,190.0457626999705,,,,,,,,,,,,,,,,,,,,,,,,,,,,,,sub-050,1.0,random_dot,60.044156459386414,
left,left,speed,,,,,0.0,0.0,0.0,1.0,26.0,1.0,53.0,0.0,344.18638810003176,,,,,,,,,344.1772128000157,344.2864258000045,345.08674850000534,345.07105980004417,345.0711462000036,345.08674850000534,345.08674850000534,345.08674850000534,,346.4563355999999,left,1.0,190.01401689997877,,,,,,,,,,,,,,,,,,,,,,,,,,,,,,sub-050,1.0,random_dot,60.044156459386414,
right,right,speed,,,,,0.0,0.0,0.0,1.0,27.0,0.0,54.0,1.0,346.46907770005055,,,,,,,,,346.46013479999965,346.8191188000492,347.61921970004914,347.6035762000247,347.6036378000281,347.61921970004914,347.61921970004914,347.61921970004914,,348.45604250003817,right,1.0,189.4874902999727,,,,,,,,,,,,,,,,,,,,,,,,,,,,,,sub-050,1.0,random_dot,60.044156459386414,
left,left,speed,,,,,0.0,0.0,0.0,1.0,27.0,1.0,55.0,0.0,348.4684411000344,,,,,,,,,348.4596819000435,349.668051100045,350.4683246000204,350.4528117000009,350.4528731000028,350.4683246000204,350.4683246000204,350.4683246000204,,352.03753560001496,left,1.0,190.20844789996045,,,,,,,,,,,,,,,,,,,,,,,,,,,,,,sub-050,1.0,random_dot,60.044156459386414,
right,right,speed,,,,,0.0,0.0,0.0,1.0,28.0,0.0,56.0,1.0,352.0505611000117,,,,,,,,,352.0411798999994,353.2503547000233,354.0506358999992,354.034963800048,354.0350241000415,354.0506358999992,354.0506358999992,354.0506358999992,,356.003072600055,right,1.0,190.5926338999416,,,,,,,,,,,,,,,,,,,,,,,,,,,,,,sub-050,1.0,random_dot,60.044156459386414,
left,left,speed,,,,,0.0,0.0,0.0,1.0,28.0,1.0,57.0,0.0,356.0161376000033,,,,,,,,,356.00708100001793,357.21565780002857,358.0162440000568,358.00040870002704,358.00046890001977,358.0162440000568,358.0162440000568,358.0162440000568,,359.63504130003275,left,1.0,190.26765639992664,,,,,,,,,,,,,,,,,,,,,,,,,,,,,,sub-050,1.0,random_dot,60.044156459386414,
right,right,speed,,,,,0.0,0.0,0.0,1.0,29.0,0.0,58.0,1.0,359.6481763000484,,,,,,,,,359.63857210002607,360.8479375000461,361.6577033000067,361.6329794000485,361.633039700042,361.6577033000067,361.6577033000067,361.6577033000067,,363.88368090003496,right,1.0,190.86700929998187,,,,,,,,,,,,,,,,,,,,,,,,,,,,,,sub-050,1.0,random_dot,60.044156459386414,
left,left,speed,,,,,0.0,0.0,0.0,1.0,29.0,1.0,59.0,0.0,363.8969762000488,,,,,,,,,363.8874293000554,365.0965192000149,365.8970483000157,365.8815017000306,365.881562900031,365.8970483000157,365.8970483000157,365.8970483000157,,366.9162183000008,left,1.0,189.66957429994363,,,,,,,,,,,,,,,,,,,,,,,,,,,,,,sub-050,1.0,random_dot,60.044156459386414,
,,speed,,,,,0.0,0.0,0.0,1.0,,,,,,,,,,,,,,,,,,,,,,,,,,,,,,,,,,,,,,,,,,,,,,,,,,,,,,,,sub-050,1.0,random_dot,60.044156459386414,
right,right,accuracy,,,,,0.0,1.0,1.0,0.0,0.0,0.0,0.0,1.0,372.94347000005655,,,,,,,,,372.9387963000336,373.7441906000022,374.5443939000252,374.5293456000509,374.5294119000319,374.5443939000252,374.5443939000252,374.5443939000252,,378.9458694000496,right,1.0,193.0406746999361,,,,,,,,,,,,,,,,,,,,366.9199887000141,366.9552705000388,366.9552705000388,372.92850320000434,space,194.6272697999957,,,,,sub-050,1.0,random_dot,60.044156459386414,
left,left,accuracy,,,,,0.0,1.0,1.0,0.0,0.0,1.0,1.0,0.0,378.95886110002175,,,,,,,,,378.9502572000493,380.1584480000311,380.9588038000511,380.9435763000511,380.9436390000046,380.9588038000511,380.9588038000511,380.9588038000511,,383.0100176000269,left,1.0,190.70449359994385,,,,,,,,,,,,,,,,,,,,,,,,,,,,,,sub-050,1.0,random_dot,60.044156459386414,
right,right,accuracy,,,,,0.0,1.0,1.0,0.0,1.0,0.0,2.0,1.0,383.0237852000282,,,,,,,,,383.01158670004224,383.3744052000111,384.1745125000016,384.158890700026,384.1589511000202,384.1745125000016,384.1745125000016,384.1745125000016,,387.4766390000004,right,1.0,191.95538879995,,,,,,,,,,,,,,,,,,,,,,,,,,,,,,sub-050,1.0,random_dot,60.044156459386414,
left,left,accuracy,,,,,0.0,1.0,1.0,0.0,1.0,1.0,3.0,0.0,387.48941380000906,,,,,,,,,387.4802186000161,387.589598999999,388.389831700013,388.3740112000378,388.3740722000366,388.389831700013,388.389831700013,388.389831700013,,392.0093253000523,left,1.0,192.26791969995247,,,,,,,,,,,,,,,,,,,,,,,,,,,,,,sub-050,1.0,random_dot,60.044156459386414,
right,right,accuracy,,,,,0.0,1.0,1.0,0.0,2.0,0.0,4.0,1.0,392.0213130000048,,,,,,,,,392.01284200005466,393.2210622000275,394.0210052000475,394.0048951000208,394.0049293000484,394.0210052000475,394.0210052000475,394.0210052000475,,398.55698750005104,left,0.0,193.1900633999612,,,,,,,,,,,,,,,,,,,,,,,,,,,,,,sub-050,1.0,random_dot,60.044156459386414,
left,left,accuracy,,,,,0.0,1.0,1.0,0.0,2.0,1.0,5.0,0.0,398.5694833000307,,,,,,,,,398.5607090000413,398.66923980001593,399.4692351000267,399.4528850000352,399.4529183000559,399.4692351000267,399.4692351000267,399.4692351000267,,402.7537027000217,left,1.0,191.93992299993988,,,,,,,,,,,,,,,,,,,,,,,,,,,,,,sub-050,1.0,random_dot,60.044156459386414,
right,right,accuracy,,,,,0.0,1.0,1.0,0.0,3.0,0.0,6.0,1.0,402.76770710002165,,,,,,,,,402.7555381000275,403.5678368000081,404.3681033000466,404.3523151000263,404.3523760000244,404.3681033000466,404.3681033000466,404.3681033000466,,405.43755910004256,right,1.0,189.72276709991277,,,,,,,,,,,,,,,,,,,,,,,,,,,,,,sub-050,1.0,random_dot,60.044156459386414,
left,left,accuracy,,,,,0.0,1.0,1.0,0.0,3.0,1.0,7.0,0.0,405.4507828000351,,,,,,,,,405.4411109000212,405.5506765000173,406.35100580001017,406.33542170003057,406.335569100047,406.35100580001017,406.35100580001017,406.35100580001017,,409.7194879000308,left,1.0,192.0129938999889,,,,,,,,,,,,,,,,,,,,,,,,,,,,,,sub-050,1.0,random_dot,60.044156459386414,
left,left,accuracy,,,,,0.0,1.0,1.0,0.0,4.0,0.0,8.0,0.0,409.732817000011,,,,,,,,,409.723813300021,410.5324076000252,411.331693300046,411.317503200029,411.3175623000134,411.331693300046,411.331693300046,411.331693300046,,414.1355757000274,left,1.0,191.45655349991284,,,,,,,,,,,,,,,,,,,,,,,,,,,,,,sub-050,1.0,random_dot,60.044156459386414,
right,right,accuracy,,,,,0.0,1.0,1.0,0.0,4.0,1.0,9.0,1.0,414.1479914000374,,,,,,,,,414.1392308000359,414.4980577000533,415.2985978000215,415.2829243000015,415.2829836000456,415.2985978000215,415.2985978000215,415.2985978000215,,418.4667829000391,right,1.0,191.8072893999633,,,,,,,,,,,,,,,,,,,,,,,,,,,,,,sub-050,1.0,random_dot,60.044156459386414,
right,right,accuracy,,,,,0.0,1.0,1.0,0.0,5.0,0.0,10.0,1.0,418.4800773000461,,,,,,,,,418.47018320002826,418.5800406000344,419.3801766000106,419.36497090000194,419.3650329000084,419.3801766000106,419.3801766000106,419.3801766000106,,421.8991891000187,left,0.0,191.1627848999342,,,,,,,,,,,,,,,,,,,,,,,,,,,,,,sub-050,1.0,random_dot,60.044156459386414,
left,left,accuracy,,,,,0.0,1.0,1.0,0.0,5.0,1.0,11.0,0.0,421.91218970000045,,,,,,,,,421.9028829000308,423.1114177000127,423.9122685000184,423.8965901000192,423.8966499000089,423.9122685000184,423.9122685000184,423.9122685000184,,426.7643639000016,right,0.0,191.50477699993644,,,,,,,,,,,,,,,,,,,,,,,,,,,,,,sub-050,1.0,random_dot,60.044156459386414,
right,right,accuracy,,,,,0.0,1.0,1.0,0.0,6.0,0.0,12.0,1.0,426.7772724000388,,,,,,,,,426.7681027000072,427.5770004000515,428.37748680001823,428.361266300024,428.3613299000426,428.37748680001823,428.37748680001823,428.37748680001823,433.37547590001486,433.5802100000437,right,1.0,193.8524274999509,,,,,,,,,,,,,,,,,,,,,,,,,,,,,,sub-050,1.0,random_dot,60.044156459386414,
left,left,accuracy,,,,,0.0,1.0,1.0,0.0,6.0,1.0,13.0,0.0,433.59198050003033,,,,,,,,,433.5836731000454,433.9418469000375,434.7421818000148,434.7265196000226,434.7265798000153,434.7421818000148,434.7421818000148,434.7421818000148,,436.1785161000444,left,1.0,190.08576119993813,,,,,,,,,,,,,,,,,,,,,,,,,,,,,,sub-050,1.0,random_dot,60.044156459386414,
right,right,accuracy,,,,,0.0,1.0,1.0,0.0,7.0,0.0,14.0,1.0,436.1910007000552,,,,,,,,,436.18206280004233,436.9907228000229,437.791228600021,437.7755274000229,437.7755864000064,437.791228600021,437.791228600021,437.791228600021,,439.4606629000045,right,1.0,190.31467539997536,,,,,,,,,,,,,,,,,,,,,,,,,,,,,,sub-050,1.0,random_dot,60.044156459386414,
left,left,accuracy,,,,,0.0,1.0,1.0,0.0,7.0,1.0,15.0,0.0,439.47339250001824,,,,,,,,,439.4643409000128,440.2731704000034,441.0733955000178,441.0579338000389,441.0579938000301,441.0733955000178,441.0733955000178,441.0733955000178,,445.8749169000075,left,1.0,193.45346919994336,,,,,,,,,,,,,,,,,,,,,,,,,,,,,,sub-050,1.0,random_dot,60.044156459386414,
right,right,accuracy,,,,,0.0,1.0,1.0,0.0,8.0,0.0,16.0,1.0,445.8880539000384,,,,,,,,,445.8786569000222,446.68813610001234,447.4882246000343,447.4725298000267,447.4726125000161,447.4882246000343,447.4882246000343,447.4882246000343,,448.6905049000052,right,1.0,189.8512985999696,,,,,,,,,,,,,,,,,,,,,,,,,,,,,,sub-050,1.0,random_dot,60.044156459386414,
left,left,accuracy,,,,,0.0,1.0,1.0,0.0,8.0,1.0,17.0,0.0,448.7037176000304,,,,,,,,,448.6942381000263,449.9036087000277,450.7040202000062,450.6882574000047,450.6883173000533,450.7040202000062,450.7040202000062,450.7040202000062,,452.1394629999995,left,1.0,190.08769999997455,,,,,,,,,,,,,,,,,,,,,,,,,,,,,,sub-050,1.0,random_dot,60.044156459386414,
left,left,accuracy,,,,,0.0,1.0,1.0,0.0,9.0,0.0,18.0,0.0,452.152588500001,,,,,,,,,452.1430204000208,452.5026683000033,453.3029879000387,453.2871618000208,453.2872238000273,453.3029879000387,453.3029879000387,453.3029879000387,,455.0538644000189,left,1.0,190.39495699992403,,,,,,,,,,,,,,,,,,,,,,,,,,,,,,sub-050,1.0,random_dot,60.044156459386414,
right,right,accuracy,,,,,0.0,1.0,1.0,0.0,9.0,1.0,19.0,1.0,455.0681474000448,,,,,,,,,455.0557612000266,455.4180361000472,456.2183600999997,456.2019806000171,456.20201370003633,456.2183600999997,456.2183600999997,456.2183600999997,,458.4863325000042,right,1.0,190.92216039996129,,,,,,,,,,,,,,,,,,,,,,,,,,,,,,sub-050,1.0,random_dot,60.044156459386414,
right,right,accuracy,,,,,0.0,1.0,1.0,0.0,10.0,0.0,20.0,1.0,458.5002447000006,,,,,,,,,458.4882029000437,458.6003878000192,459.4012505999999,459.3856301000342,459.385693600052,459.4012505999999,459.4012505999999,459.4012505999999,,460.5708996000467,right,1.0,189.8211078000022,,,,,,,,,,,,,,,,,,,,,,,,,,,,,,sub-050,1.0,random_dot,60.044156459386414,
left,left,accuracy,,,,,0.0,1.0,1.0,0.0,10.0,1.0,21.0,0.0,460.58321580005577,,,,,,,,,460.5742623000406,460.933218500053,461.733400200028,461.7172719000373,461.71729510003934,461.733400200028,461.733400200028,461.733400200028,,463.102000200015,left,1.0,190.01981979998527,,,,,,,,,,,,,,,,,,,,,,,,,,,,,,sub-050,1.0,random_dot,60.044156459386414,
right,right,accuracy,,,,,0.0,1.0,1.0,0.0,11.0,0.0,22.0,1.0,463.1156360000023,,,,,,,,,463.1047094000387,463.4652878000052,464.2661773000145,464.2507445000229,464.2508056000224,464.2661773000145,464.2661773000145,464.2661773000145,,465.9527170000365,right,1.0,190.3409978999407,,,,,,,,,,,,,,,,,,,,,,,,,,,,,,sub-050,1.0,random_dot,60.044156459386414,
left,left,accuracy,,,,,0.0,1.0,1.0,0.0,11.0,1.0,23.0,0.0,465.965132100042,,,,,,,,,465.9566662000143,467.1647590000066,467.965004800004,467.9492183000548,467.9492792000528,467.965004800004,467.965004800004,467.965004800004,,469.0010424000211,left,1.0,189.678093799972,,,,,,,,,,,,,,,,,,,,,,,,,,,,,,sub-050,1.0,random_dot,60.044156459386414,
left,left,accuracy,,,,,0.0,1.0,1.0,0.0,12.0,0.0,24.0,0.0,469.0140749000129,,,,,,,,,469.0051501000417,469.11406300001545,469.9147068000166,469.8990422000061,469.89910310000414,469.9147068000166,469.9147068000166,469.9147068000166,,472.116706300003,left,1.0,190.84764309995808,,,,,,,,,,,,,,,,,,,,,,,,,,,,,,sub-050,1.0,random_dot,60.044156459386414,
right,right,accuracy,,,,,0.0,1.0,1.0,0.0,12.0,1.0,25.0,1.0,472.12984430004144,,,,,,,,,472.1202209000476,472.22987250000006,473.0297993000131,473.0134602000471,473.01349219999975,473.0297993000131,473.0297993000131,473.0297993000131,,474.41563570004655,right,1.0,190.0404590999242,,,,,,,,,,,,,,,,,,,,,,,,,,,,,,sub-050,1.0,random_dot,60.044156459386414,
left,left,accuracy,,,,,0.0,1.0,1.0,0.0,13.0,0.0,26.0,0.0,474.4288996000541,,,,,,,,,474.4179538000026,475.628797100042,476.42901810002513,476.4136651000008,476.41372580005554,476.42901810002513,476.42901810002513,476.42901810002513,,477.7485701000551,left,1.0,189.96614989999216,,,,,,,,,,,,,,,,,,,,,,,,,,,,,,sub-050,1.0,random_dot,60.044156459386414,
right,right,accuracy,,,,,0.0,1.0,1.0,0.0,13.0,1.0,27.0,1.0,477.761600900034,,,,,,,,,477.7521988000372,477.86136780004017,478.66198400000576,478.6462087000255,478.6462898000027,478.66198400000576,478.66198400000576,478.66198400000576,,481.0475594000309,right,1.0,191.02837019995783,,,,,,,,,,,,,,,,,,,,,,,,,,,,,,sub-050,1.0,random_dot,60.044156459386414,
right,right,accuracy,,,,,0.0,1.0,1.0,0.0,14.0,0.0,28.0,1.0,481.0603269000421,,,,,,,,,481.0510673000245,481.1602698000497,481.9608106000233,481.9449541000067,481.94501360005233,481.9608106000233,481.9608106000233,481.9608106000233,,483.4967478000326,right,1.0,190.18417229992335,,,,,,,,,,,,,,,,,,,,,,,,,,,,,,sub-050,1.0,random_dot,60.044156459386414,
left,left,accuracy,,,,,0.0,1.0,1.0,0.0,14.0,1.0,29.0,0.0,483.5094896000228,,,,,,,,,483.50042260001646,483.8595583999995,484.6597883000504,484.6441810000106,484.6442471000482,484.6597883000504,484.6597883000504,484.6597883000504,,486.429810200003,left,1.0,190.41753339994463,,,,,,,,,,,,,,,,,,,,,,,,,,,,,,sub-050,1.0,random_dot,60.044156459386414,
left,left,accuracy,,,,,0.0,1.0,1.0,0.0,15.0,0.0,30.0,0.0,486.4420788999996,,,,,,,,,486.43339180003386,486.542121800012,487.3425881000003,487.3270458000479,487.3271086000023,487.3425881000003,487.3425881000003,487.3425881000003,,489.0279945000075,right,0.0,190.3306912999251,,,,,,,,,,,,,,,,,,,,,,,,,,,,,,sub-050,1.0,random_dot,60.044156459386414,
right,right,accuracy,,,,,0.0,1.0,1.0,0.0,15.0,1.0,31.0,1.0,489.0412400000496,,,,,,,,,489.0315409000032,490.2411349000176,491.0412599000265,491.0255689000478,491.02562980004586,491.0412599000265,491.0412599000265,491.0412599000265,,492.7917314000079,right,1.0,190.3946509999805,,,,,,,,,,,,,,,,,,,,,,,,,,,,,,sub-050,1.0,random_dot,60.044156459386414,
left,left,accuracy,,,,,0.0,1.0,1.0,0.0,16.0,0.0,32.0,0.0,492.8062722000177,,,,,,,,,492.793463900045,494.0063093000208,494.8064253000193,494.7900404000538,494.7900739000179,494.8064253000193,494.8064253000193,494.8064253000193,,497.0589431000408,left,1.0,190.8919278999674,,,,,,,,,,,,,,,,,,,,,,,,,,,,,,sub-050,1.0,random_dot,60.044156459386414,
right,right,accuracy,,,,,0.0,1.0,1.0,0.0,16.0,1.0,33.0,1.0,497.0719649000093,,,,,,,,,497.06260150001617,497.8714295000536,498.67185340001015,498.65559020004,498.655625000014,498.67185340001015,498.67185340001015,498.67185340001015,,502.10749650001526,right,1.0,192.07583849999355,,,,,,,,,,,,,,,,,,,,,,,,,,,,,,sub-050,1.0,random_dot,60.044156459386414,
left,left,accuracy,,,,,0.0,1.0,1.0,0.0,17.0,0.0,34.0,0.0,502.120595000044,,,,,,,,,502.1123351000133,503.3203712000395,504.12027270003455,504.1044304000097,504.104497100052,504.12027270003455,504.12027270003455,504.12027270003455,,505.8896224000491,left,1.0,190.40962779993424,,,,,,,,,,,,,,,,,,,,,,,,,,,,,,sub-050,1.0,random_dot,60.044156459386414,
right,right,accuracy,,,,,0.0,1.0,1.0,0.0,17.0,1.0,35.0,1.0,505.90276350005297,,,,,,,,,505.8931789000053,506.00261120003415,506.8031002000207,506.7873896000092,506.7874499000027,506.8031002000207,506.8031002000207,506.8031002000207,,508.1055729000364,right,1.0,189.94941879995167,,,,,,,,,,,,,,,,,,,,,,,,,,,,,,sub-050,1.0,random_dot,60.044156459386414,
right,right,accuracy,,,,,0.0,1.0,1.0,0.0,18.0,0.0,36.0,1.0,508.1186574000167,,,,,,,,,508.1092410000274,508.9181673999992,509.7188107000548,509.70301340002334,509.7030740000191,509.7188107000548,509.7188107000548,509.7188107000548,,511.3558559000376,right,1.0,190.27563699998427,,,,,,,,,,,,,,,,,,,,,,,,,,,,,,sub-050,1.0,random_dot,60.044156459386414,
left,left,accuracy,,,,,0.0,1.0,1.0,0.0,18.0,1.0,37.0,0.0,511.3674310000497,,,,,,,,,511.3595303000184,511.71727700001793,512.5179720000015,512.5025223000557,512.5025874000276,512.5179720000015,512.5179720000015,512.5179720000015,,514.1854940000339,left,1.0,190.31998849997763,,,,,,,,,,,,,,,,,,,,,,,,,,,,,,sub-050,1.0,random_dot,60.044156459386414,
right,right,accuracy,,,,,0.0,1.0,1.0,0.0,19.0,0.0,38.0,1.0,514.1995622000541,,,,,,,,,514.1873274000245,514.549478400033,515.3502073000418,515.3345629000105,515.3346273000352,515.3502073000418,515.3502073000418,515.3502073000418,,516.6865180000314,right,1.0,189.9880387999583,,,,,,,,,,,,,,,,,,,,,,,,,,,,,,sub-050,1.0,random_dot,60.044156459386414,
left,left,accuracy,,,,,0.0,1.0,1.0,0.0,19.0,1.0,39.0,0.0,516.6992003000341,,,,,,,,,516.6899218000472,517.4991716000368,518.2995514000067,518.2837504000054,518.2838116000057,518.2995514000067,518.2995514000067,518.2995514000067,,520.0350892000133,left,1.0,190.3885694999481,,,,,,,,,,,,,,,,,,,,,,,,,,,,,,sub-050,1.0,random_dot,60.044156459386414,
right,right,accuracy,,,,,0.0,1.0,1.0,0.0,20.0,0.0,40.0,1.0,520.0482511000009,,,,,,,,,520.0389628000557,520.8482162000146,521.6486225000117,521.6328369000112,521.6328991000191,521.6486225000117,521.6486225000117,521.6486225000117,,523.3501164000481,right,1.0,190.34483969997385,,,,,,,,,,,,,,,,,,,,,,,,,,,,,,sub-050,1.0,random_dot,60.044156459386414,
left,left,accuracy,,,,,0.0,1.0,1.0,0.0,20.0,1.0,41.0,0.0,523.3638681000448,,,,,,,,,523.3537945999997,524.1637211000198,524.9639986000257,524.948751500051,524.9488222000073,524.9639986000257,524.9639986000257,524.9639986000257,,527.6494753000443,left,1.0,191.33519889996387,,,,,,,,,,,,,,,,,,,,,,,,,,,,,,sub-050,1.0,random_dot,60.044156459386414,
right,right,accuracy,,,,,0.0,1.0,1.0,0.0,21.0,0.0,42.0,1.0,527.6624245000421,,,,,,,,,527.6530060000368,528.8620819000062,529.6626801000093,529.6470527000492,529.6471127000405,529.6626801000093,529.6626801000093,529.6626801000093,,530.7318819000502,right,1.0,189.7120031999657,,,,,,,,,,,,,,,,,,,,,,,,,,,,,,sub-050,1.0,random_dot,60.044156459386414,
left,left,accuracy,,,,,0.0,1.0,1.0,0.0,21.0,1.0,43.0,0.0,530.7450128000346,,,,,,,,,530.73540830001,530.8449249000405,531.6451875000494,531.629644700035,531.6297506000265,531.6451875000494,531.6451875000494,531.6451875000494,,532.8626870000153,left,1.0,189.8691969999345,,,,,,,,,,,,,,,,,,,,,,,,,,,,,,sub-050,1.0,random_dot,60.044156459386414,
left,left,accuracy,,,,,0.0,1.0,1.0,0.0,22.0,0.0,44.0,0.0,532.8770793000003,,,,,,,,,532.8642654000432,533.227185500029,534.0278521000291,534.0122749000438,534.0123414000263,534.0278521000291,534.0278521000291,534.0278521000291,,535.8136936000083,left,1.0,190.43177959998135,,,,,,,,,,,,,,,,,,,,,,,,,,,,,,sub-050,1.0,random_dot,60.044156459386414,
right,right,accuracy,,,,,0.0,1.0,1.0,0.0,22.0,1.0,45.0,1.0,535.8266787000466,,,,,,,,,535.8174202000373,535.926659000048,536.7269359000493,536.7115772000398,536.7116394000477,536.7269359000493,536.7269359000493,536.7269359000493,,538.5797632000176,right,1.0,190.5050446999376,,,,,,,,,,,,,,,,,,,,,,,,,,,,,,sub-050,1.0,random_dot,60.044156459386414,
left,left,accuracy,,,,,0.0,1.0,1.0,0.0,23.0,0.0,46.0,0.0,538.5928480000002,,,,,,,,,538.5834584000404,539.7921700000297,540.5924898000085,540.576956600009,540.5770432000281,540.5924898000085,540.5924898000085,540.5924898000085,,542.9264204000356,left,1.0,190.9809768999694,,,,,,,,,,,,,,,,,,,,,,,,,,,,,,sub-050,1.0,random_dot,60.044156459386414,
right,right,accuracy,,,,,0.0,1.0,1.0,0.0,23.0,1.0,47.0,1.0,542.9407208000193,,,,,,,,,542.9283775000367,543.0405591000454,543.8413191,543.8255792999989,543.8256381000392,543.8413191,543.8413191,543.8413191,,545.5440339000197,right,1.0,190.3451190999476,,,,,,,,,,,,,,,,,,,,,,,,,,,,,,sub-050,1.0,random_dot,60.044156459386414,
left,left,accuracy,,,,,0.0,1.0,1.0,0.0,24.0,0.0,48.0,0.0,545.5570786000462,,,,,,,,,545.5475525000365,545.6569926000084,546.4572736000409,546.4419003000367,546.4419779000455,546.4572736000409,546.4572736000409,546.4572736000409,,548.1430392000475,left,1.0,190.33425349998288,,,,,,,,,,,,,,,,,,,,,,,,,,,,,,sub-050,1.0,random_dot,60.044156459386414,
right,right,accuracy,,,,,0.0,1.0,1.0,0.0,24.0,1.0,49.0,1.0,548.156238000025,,,,,,,,,548.1466233000392,548.2561601000489,549.0563747000415,549.0409457000205,549.0410072000232,549.0563747000415,549.0563747000415,549.0563747000415,,550.7757494000252,right,1.0,190.3647343999473,,,,,,,,,,,,,,,,,,,,,,,,,,,,,,sub-050,1.0,random_dot,60.044156459386414,
right,right,accuracy,,,,,0.0,1.0,1.0,0.0,25.0,0.0,50.0,1.0,550.7886677000206,,,,,,,,,550.7793358000345,550.8887616000138,551.688932900026,551.67340780003,551.6734676000196,551.688932900026,551.688932900026,551.688932900026,,553.6413304000162,left,0.0,190.6041070999927,,,,,,,,,,,,,,,,,,,,,,,,,,,,,,sub-050,1.0,random_dot,60.044156459386414,
left,left,accuracy,,,,,0.0,1.0,1.0,0.0,25.0,1.0,51.0,0.0,553.6543033000198,,,,,,,,,553.6450192000484,553.7543511000113,554.5547679000301,554.5392355000367,554.5392968000378,554.5547679000301,554.5547679000301,554.5547679000301,,555.6406301000388,right,0.0,189.7329144999967,,,,,,,,,,,,,,,,,,,,,,,,,,,,,,sub-050,1.0,random_dot,60.044156459386414,
right,right,accuracy,,,,,0.0,1.0,1.0,0.0,26.0,0.0,52.0,1.0,555.6536950000445,,,,,,,,,555.644165500009,556.0047191000194,556.8206809000112,556.805327100039,556.8053879000363,556.8206809000112,556.8206809000112,556.8206809000112,,558.5900298000197,right,1.0,190.4131587999873,,,,,,,,,,,,,,,,,,,,,,,,,,,,,,sub-050,1.0,random_dot,60.044156459386414,
left,left,accuracy,,,,,0.0,1.0,1.0,0.0,26.0,1.0,53.0,0.0,558.6030166000128,,,,,,,,,558.5935379000148,558.952794300043,559.7532194000087,559.7374432000215,559.7375029000104,559.7532194000087,559.7532194000087,559.7532194000087,,562.6051550000557,left,1.0,191.49228599993512,,,,,,,,,,,,,,,,,,,,,,,,,,,,,,sub-050,1.0,random_dot,60.044156459386414,
right,right,accuracy,,,,,0.0,1.0,1.0,0.0,27.0,0.0,54.0,1.0,562.6182324000401,,,,,,,,,562.6088312000502,563.4182196000475,564.2183904000558,564.2025724000414,564.2026320000296,564.2183904000558,564.2183904000558,564.2183904000558,,566.3876305000158,right,1.0,190.81751889997395,,,,,,,,,,,,,,,,,,,,,,,,,,,,,,sub-050,1.0,random_dot,60.044156459386414,
left,left,accuracy,,,,,0.0,1.0,1.0,0.0,27.0,1.0,55.0,0.0,566.4017710000044,,,,,,,,,566.3912949000369,566.5003844000166,567.3010002000374,567.2851729000104,567.2852546000504,567.3010002000374,567.3010002000374,567.3010002000374,,569.9032103000209,right,0.0,191.25097029993776,,,,,,,,,,,,,,,,,,,,,,,,,,,,,,sub-050,1.0,random_dot,60.044156459386414,
right,right,accuracy,,,,,0.0,1.0,1.0,0.0,28.0,0.0,56.0,1.0,569.9159516000072,,,,,,,,,569.9067280000309,570.7160578000476,571.5161413000314,571.5003896000562,571.5004494000459,571.5161413000314,571.5161413000314,571.5161413000314,,574.768132600002,right,1.0,191.89694649999728,,,,,,,,,,,,,,,,,,,,,,,,,,,,,,sub-050,1.0,random_dot,60.044156459386414,
left,left,accuracy,,,,,0.0,1.0,1.0,0.0,28.0,1.0,57.0,0.0,574.781206100015,,,,,,,,,574.7725891000009,575.5806280000252,576.3811694000033,576.3656249000342,576.3656845000223,576.3811694000033,576.3811694000033,576.3811694000033,,577.999250300054,left,1.0,190.2670060999808,,,,,,,,,,,,,,,,,,,,,,,,,,,,,,sub-050,1.0,random_dot,60.044156459386414,
left,left,accuracy,,,,,0.0,1.0,1.0,0.0,29.0,0.0,58.0,0.0,578.013027500012,,,,,,,,,578.001133600017,578.8129519000067,579.6132058000076,579.5973792000441,579.5974300000235,579.6132058000076,579.6132058000076,579.6132058000076,,581.0830893000239,left,1.0,190.1235460999305,,,,,,,,,,,,,,,,,,,,,,,,,,,,,,sub-050,1.0,random_dot,60.044156459386414,
right,right,accuracy,,,,,0.0,1.0,1.0,0.0,29.0,1.0,59.0,1.0,581.0961688000243,,,,,,,,,581.0866544000455,582.2954170000157,583.0954744000337,583.0793456000392,583.079387100006,583.0954744000337,583.0954744000337,583.0954744000337,,584.1987612000084,right,1.0,189.74864569993224,,,,,,,,,,,,,,,,,,,,,,,,,,,,,,sub-050,1.0,random_dot,60.044156459386414,
,,accuracy,,,,,0.0,1.0,1.0,0.0,,,,,,,,,,,,,,,,,,,,,,,,,,,,,,,,,,,,,,,,,,,,,,,,,,,,,,,,sub-050,1.0,random_dot,60.044156459386414,
,,,,,,,,,,,,,,,,,,,,,,,,,,,,,,,,,,,,,,,,,,,,,,,,,,,,,,,,,,,,,,,584.2013962000492,584.2114392000367,589.2102468000376,sub-050,,,,
