wordCTK,colorCTK,corrAnsCTK,congruentCTK,thisN,thisTrialN,thisRepN,keyResp_CTK.keys,keyResp_CTK.corr,keyResp_CTK.rt,keyResp_CTK.duration,wordPractice,colorPractice,corrAnsPractice,congruentPractice,respPractice.keys,respPractice.corr,respPractice.rt,respPractice.duration,word,color,corrAns,congruent,keyResp_test_run.keys,keyResp_test_run.corr,keyResp_test_run.rt,keyResp_test_run.duration,trials_CTK.thisRepN,trials_CTK.thisTrialN,trials_CTK.thisN,trials_CTK.thisIndex,trials_practice.thisRepN,trials_practice.thisTrialN,trials_practice.thisN,trials_practice.thisIndex,trials_test.thisRepN,trials_test.thisTrialN,trials_test.thisN,trials_test.thisIndex,thisRow.t,notes,instruction.started,instr_text.started,instr_image.started,instr_resp.started,instruction.stopped,instr_resp.keys,instr_resp.rt,instr_resp.duration,instr_color_to_key.started,instr_ctk.started,resp_ctk.started,instr_color_to_key.stopped,resp_ctk.keys,resp_ctk.rt,resp_ctk.duration,ITI.started,fixcross.started,fixcross.stopped,ITI.stopped,color_to_key_run.started,stimulus_CTK.started,keyResp_CTK.started,color_to_key_run.stopped,trials_CTK.keyResp_CTK.keys,trials_CTK.keyResp_CTK.corr,trials_CTK.keyResp_CTK.rt,trials_CTK.keyResp_CTK.duration,instr_practice.started,instr_practice_text.started,instr_practice_resp.started,instr_practice.stopped,instr_practice_resp.keys,instr_practice_resp.rt,instr_practice_resp.duration,practice_run.started,stimulus_practice.started,respPractice.started,practice_run.stopped,trials_practice.respPractice.keys,trials_practice.respPractice.corr,trials_practice.respPractice.rt,trials_practice.respPractice.duration,feedback.started,textFeedback.started,feedback.stopped,textFeedback.stopped,instr_test.started,instr_test_text.started,instr_test_resp.started,instr_test.stopped,instr_test_resp.keys,instr_test_resp.rt,instr_test_resp.duration,test_run.started,stimulus_test_run.started,keyResp_test_run.started,test_run.stopped,trials_test.keyResp_test_run.keys,trials_test.keyResp_test_run.corr,trials_test.keyResp_test_run.rt,trials_test.keyResp_test_run.duration,goodbye.started,textGoodbye.started,textGoodbye.stopped,goodbye.stopped,participant,session,expName,frameRate,Unnamed: 113
,,,,,,,,,,,,,,,,,,,,,,,,,,,,,,,,,,,,,,,,,0.007870916990214,0.0175196249911095,0.0175196249911095,0.0175196249911095,80.17805558399414,space,80.12146045899135,,,,,,,,,,,,,,,,,,,,,,,,,,,,,,,,,,,,,,,,,,,,,,,,,,,,,,,,,,,sub-100,1,stroop_test,,
,,,,,,,,,,,,,,,,,,,,,,,,,,,,,,,,,,,,,,,,,,,,,,,,,80.17812987499929,80.197165458987,80.197165458987,90.06472154198855,space,9.8476027079887,,,,,,,,,,,,,,,,,,,,,,,,,,,,,,,,,,,,,,,,,,,,,,,,,,,,sub-100,1,stroop_test,,
test,red,r,1.0,0.0,0.0,0.0,r,1.0,0.7107413749909028,,,,,,,,,,,,,,,,,,0.0,0.0,0.0,0.0,,,,,,,,,90.0813842919888,,,,,,,,,,,,,,,,,90.07766424999863,90.40899516698846,91.2099009169906,91.19460637499289,91.20288574999722,91.2099009169906,91.2099009169906,91.9293167089927,r,1.0,0.7107413749909028,,,,,,,,,,,,,,,,,,,,,,,,,,,,,,,,,,,,,,,,sub-100,1,stroop_test,,
test,yellow,g,1.0,1.0,1.0,0.0,g,1.0,1.2162725829984993,,,,,,,,,,,,,,,,,,0.0,1.0,1.0,1.0,,,,,,,,,91.93962358399584,,,,,,,,,,,,,,,,,91.92989366699476,93.12711104199116,93.9193436249916,93.91138983400016,93.91214254198712,93.9193436249916,93.9193436249916,95.14590695899096,g,1.0,1.2162725829984993,,,,,,,,,,,,,,,,,,,,,,,,,,,,,,,,,,,,,,,,sub-100,1,stroop_test,,
test,blue,b,1.0,2.0,2.0,0.0,b,1.0,0.6293896659917664,,,,,,,,,,,,,,,,,,0.0,2.0,2.0,2.0,,,,,,,,,95.15603191699483,,,,,,,,,,,,,,,,,95.14644458399562,95.4939575419994,96.285686874995,96.27800570899852,96.2787492919888,96.285686874995,96.285686874995,96.91832854200038,b,1.0,0.6293896659917664,,,,,,,,,,,,,,,,,,,,,,,,,,,,,,,,,,,,,,,,sub-100,1,stroop_test,,
test,yellow,g,1.0,3.0,0.0,1.0,g,1.0,2.23489795900241,,,,,,,,,,,,,,,,,,1.0,0.0,3.0,1.0,,,,,,,,,96.92888241699256,,,,,,,,,,,,,,,,,96.91884791699704,97.26756583398674,98.06929408399446,98.06144991698966,98.0622322089912,98.06929408399446,98.06929408399446,100.312555624987,g,1.0,2.23489795900241,,,,,,,,,,,,,,,,,,,,,,,,,,,,,,,,,,,,,,,,sub-100,1,stroop_test,,
test,red,r,1.0,4.0,1.0,1.0,r,1.0,0.9918716670072172,,,,,,,,,,,,,,,,,,1.0,1.0,4.0,0.0,,,,,,,,,100.32271295899407,,,,,,,,,,,,,,,,,100.31310066700098,100.66054808399348,101.45267124999371,101.44475162499292,101.44552091699734,101.45267124999371,101.45267124999371,102.45895662499242,r,1.0,0.9918716670072172,,,,,,,,,,,,,,,,,,,,,,,,,,,,,,,,,,,,,,,,sub-100,1,stroop_test,,
test,blue,b,1.0,5.0,2.0,1.0,b,1.0,1.1962517500069223,,,,,,,,,,,,,,,,,,1.0,2.0,5.0,2.0,,,,,,,,,102.46386033399904,,,,,,,,,,,,,,,,,102.45938716699312,102.54958695899404,103.3423281669966,103.33378170899232,103.3343512499996,103.3423281669966,103.3423281669966,104.54597633398951,b,1.0,1.1962517500069223,,,,,,,,,,,,,,,,,,,,,,,,,,,,,,,,,,,,,,,,sub-100,1,stroop_test,,
test,blue,b,1.0,6.0,0.0,2.0,b,1.0,1.0646521659946302,,,,,,,,,,,,,,,,,,2.0,0.0,6.0,2.0,,,,,,,,,104.55716083399602,,,,,,,,,,,,,,,,,104.54653570899973,104.89401687499776,105.68622554199828,105.67801445900112,105.67876333399909,105.68622554199828,105.68622554199828,106.76272587499987,b,1.0,1.0646521659946302,,,,,,,,,,,,,,,,,,,,,,,,,,,,,,,,,,,,,,,,sub-100,1,stroop_test,,
test,yellow,g,1.0,7.0,1.0,2.0,g,1.0,1.810409583005821,,,,,,,,,,,,,,,,,,2.0,1.0,7.0,1.0,,,,,,,,,106.77447529199708,,,,,,,,,,,,,,,,,106.76335549999204,107.96074320899788,108.75207112499628,108.74460441699192,108.74533487499866,108.75207112499628,108.75207112499628,110.56895799998892,g,1.0,1.810409583005821,,,,,,,,,,,,,,,,,,,,,,,,,,,,,,,,,,,,,,,,sub-100,1,stroop_test,,
test,red,r,1.0,8.0,2.0,2.0,r,1.0,1.3691614999988817,,,,,,,,,,,,,,,,,,2.0,2.0,8.0,0.0,,,,,,,,,110.5794850839884,,,,,,,,,,,,,,,,,110.56944620898868,110.66608179199102,111.45909674999712,111.45018208399416,111.45075483398978,111.45909674999712,111.45909674999712,112.83547129199724,r,1.0,1.3691614999988817,,,,,,,,,,,,,,,,,,,,,,,,,,,,,,,,,,,,,,,,sub-100,1,stroop_test,,
test,yellow,g,1.0,9.0,0.0,3.0,g,1.0,1.375303958004224,,,,,,,,,,,,,,,,,,3.0,0.0,9.0,1.0,,,,,,,,,112.84610141698796,,,,,,,,,,,,,,,,,112.8360070419876,113.63343574998726,114.4260334589926,114.41658216698852,114.41716774999804,114.4260334589926,114.4260334589926,115.81249616699644,g,1.0,1.375303958004224,,,,,,,,,,,,,,,,,,,,,,,,,,,,,,,,,,,,,,,,sub-100,1,stroop_test,,
test,red,r,1.0,10.0,1.0,3.0,r,1.0,1.0541502080013745,,,,,,,,,,,,,,,,,,3.0,1.0,10.0,0.0,,,,,,,,,115.82320912499564,,,,,,,,,,,,,,,,,115.81306116699125,116.61061549998703,117.40263658399635,117.39494433399524,117.39571620899368,117.40263658399635,117.40263658399635,118.4624419999891,r,1.0,1.0541502080013745,,,,,,,,,,,,,,,,,,,,,,,,,,,,,,,,,,,,,,,,sub-100,1,stroop_test,,
test,blue,b,1.0,11.0,2.0,3.0,b,1.0,1.12941912500537,,,,,,,,,,,,,,,,,,3.0,2.0,11.0,2.0,,,,,,,,,118.47325437499968,,,,,,,,,,,,,,,,,118.46296612499282,118.8106052499934,119.60262783399958,119.59469516699028,119.59544445898791,119.60262783399958,119.60262783399958,120.74474004199146,b,1.0,1.12941912500537,,,,,,,,,,,,,,,,,,,,,,,,,,,,,,,,,,,,,,,,sub-100,1,stroop_test,,
,,,,,,,,,,,,,,,,,,,,,,,,,,,,,,,,,,,,,,,,,,,,,,,,,,,,,,,,,,,,,,,,,,,,120.74492629199813,120.7535422499932,120.7535422499932,130.43538699999044,space,9.676077832991725,,,,,,,,,,,,,,,,,,,,,,,,,,,,,,,,,sub-100,1,stroop_test,,
,,,,0.0,0.0,0.0,,,,,rot,red,r,1.0,r,1.0,2.048407458001748,,,,,,,,,,,,,,0.0,0.0,0.0,0.0,,,,,130.45935554199968,,,,,,,,,,,,,,,,,130.45155974999943,130.53229550000106,131.3302193749987,131.31734770898765,,,,,,,,,,,,,,,,131.32363691698993,131.3302193749987,131.3302193749987,133.38540804199874,r,1.0,2.048407458001748,,133.39477154199267,133.4036867919931,134.3940205839899,,,,,,,,,,,,,,,,,,,,,sub-100,1,stroop_test,,
,,,,1.0,1.0,0.0,,,,,gelb,yellow,g,1.0,g,1.0,1.413752124994062,,,,,,,,,,,,,,0.0,1.0,1.0,10.0,,,,,134.3998394169903,,,,,,,,,,,,,,,,,134.39460474999214,135.18354220899346,135.9804989999975,135.96778954198817,,,,,,,,,,,,,,,,135.97369816699938,135.9804989999975,135.9804989999975,137.39684333399055,g,1.0,1.413752124994062,,137.39781345899974,137.40984762499284,138.3948246669897,138.4007287919958,,,,,,,,,,,,,,,,,,,,sub-100,1,stroop_test,,
,,,,2.0,2.0,0.0,,,,,gelb,red,r,0.0,r,1.0,2.98454474999744,,,,,,,,,,,,,,0.0,2.0,2.0,8.0,,,,,138.4007287919958,,,,,,,,,,,,,,,,,138.39537808399473,138.74386062499252,139.5352419999981,139.5279457919969,,,,,,,,,,,,,,,,139.52856066699314,139.5352419999981,139.5352419999981,142.5294442089944,r,1.0,2.98454474999744,,142.5303849169868,142.54192170899478,143.5279921249894,143.53355737499078,,,,,,,,,,,,,,,,,,,,sub-100,1,stroop_test,,
,,,,3.0,3.0,0.0,,,,,rot,red,r,1.0,r,1.0,1.7627544999995737,,,,,,,,,,,,,,0.0,3.0,3.0,1.0,,,,,143.53355737499078,,,,,,,,,,,,,,,,,143.5284229999961,143.62717741698725,144.42275549999613,144.4112955419987,,,,,,,,,,,,,,,,144.41541779199906,144.42275549999613,144.42275549999613,146.19597758399323,r,1.0,1.7627544999995737,,146.19687970899395,146.2090161669912,147.19481041700055,147.20050595900102,,,,,,,,,,,,,,,,,,,,sub-100,1,stroop_test,,
,,,,4.0,4.0,0.0,,,,,blau,blue,b,1.0,b,1.0,1.8530458750028629,,,,,,,,,,,,,,0.0,4.0,4.0,6.0,,,,,147.20050595900102,,,,,,,,,,,,,,,,,147.19531458399433,147.2937770839926,148.09173970899428,148.0780692499975,,,,,,,,,,,,,,,,148.08483266699477,148.09173970899428,148.09173970899428,149.95117645899882,b,1.0,1.8530458750028629,,149.95201374999306,149.96268395899097,150.95083220899687,150.96055991698813,,,,,,,,,,,,,,,,,,,,sub-100,1,stroop_test,,
,,,,5.0,5.0,0.0,,,,,blau,blue,b,1.0,b,1.0,0.8395937919995049,,,,,,,,,,,,,,0.0,5.0,5.0,5.0,,,,,150.96055991698813,,,,,,,,,,,,,,,,,150.9512364169932,151.7500939169986,152.54241279199778,152.53379324999696,,,,,,,,,,,,,,,,152.5343664999964,152.54241279199778,152.54241279199778,153.38511620899953,b,1.0,0.8395937919995049,,153.38584541699674,153.39797637499578,154.3835675839946,154.39392570899508,,,,,,,,,,,,,,,,,,,,sub-100,1,stroop_test,,
,,,,6.0,6.0,0.0,,,,,gelb,yellow,g,1.0,g,1.0,1.514927334006643,,,,,,,,,,,,,,0.0,6.0,6.0,11.0,,,,,154.39392570899508,,,,,,,,,,,,,,,,,154.3839753749926,155.5841730839893,156.37933058399358,156.36761658400064,,,,,,,,,,,,,,,,156.37221808399772,156.37933058399358,156.37933058399358,157.89678574999562,g,1.0,1.514927334006643,,157.89776108399383,157.9091677499964,158.89452874999552,158.8998270000011,,,,,,,,,,,,,,,,,,,,sub-100,1,stroop_test,,
,,,,7.0,7.0,0.0,,,,,gelb,blue,b,0.0,g,0.0,0.937419250010862,,,,,,,,,,,,,,0.0,7.0,7.0,9.0,,,,,158.8998270000011,,,,,,,,,,,,,,,,,158.89495141699445,160.09402095898986,160.8850964999874,160.87789733399404,,,,,,,,,,,,,,,,160.87849058400025,160.8850964999874,160.8850964999874,161.82940995899844,g,0.0,0.937419250010862,,161.8365354169946,161.84651287499582,162.83256908399926,,,,,,,,,,,,,,,,,,,,,sub-100,1,stroop_test,,
,,,,8.0,8.0,0.0,,,,,rot,yellow,g,0.0,g,1.0,3.1840407920099096,,,,,,,,,,,,,,0.0,8.0,8.0,3.0,,,,,162.84395220899023,,,,,,,,,,,,,,,,,162.83304770899122,164.02753537498938,164.82269716699375,164.81136737499037,,,,,,,,,,,,,,,,164.81556862499565,164.82269716699375,164.82269716699375,168.01260649999313,g,1.0,3.1840407920099096,,168.01793849999376,168.02943845899426,169.01623324998943,,,,,,,,,,,,,,,,,,,,,sub-100,1,stroop_test,,
,,,,9.0,9.0,0.0,,,,,rot,blue,b,0.0,b,1.0,1.4203307920106454,,,,,,,,,,,,,,0.0,9.0,9.0,2.0,,,,,169.02713462499378,,,,,,,,,,,,,,,,,169.0167324590002,169.36078112499672,170.15251854198868,170.14476637500047,,,,,,,,,,,,,,,,170.1455208749976,170.15251854198868,170.15251854198868,171.5793549999944,b,1.0,1.4203307920106454,,171.5803352919902,171.5918996669934,172.5778805000009,172.58318574998702,,,,,,,,,,,,,,,,,,,,sub-100,1,stroop_test,,
,,,,10.0,10.0,0.0,,,,,blau,yellow,g,0.0,g,1.0,1.8282978749921317,,,,,,,,,,,,,,0.0,10.0,10.0,7.0,,,,,172.58318574998702,,,,,,,,,,,,,,,,,172.57832262499142,173.77736733399797,174.5723403749871,174.56127166700026,,,,,,,,,,,,,,,,174.56527066699346,174.5723403749871,174.5723403749871,176.41345933399862,g,1.0,1.8282978749921317,,176.4139450419898,176.42712045898952,177.41118233399175,177.41673758398974,,,,,,,,,,,,,,,,,,,,sub-100,1,stroop_test,,
,,,,11.0,11.0,0.0,,,,,blau,red,r,0.0,r,1.0,0.99567695800215,,,,,,,,,,,,,,0.0,11.0,11.0,4.0,,,,,177.41673758398974,,,,,,,,,,,,,,,,,177.41165354198893,178.21061229199404,179.0023686249915,178.9947906669986,,,,,,,,,,,,,,,,178.99554158399403,179.0023686249915,179.0023686249915,180.00195033400087,r,1.0,0.99567695800215,,180.00270170898875,180.01434812499792,181.0003996669984,181.01022520900003,,,,,,,,,,,,,,,,,,,,sub-100,1,stroop_test,,
,,,,12.0,0.0,1.0,,,,,blau,yellow,g,0.0,g,1.0,1.8354904999869175,,,,,,,,,,,,,,1.0,0.0,12.0,7.0,,,,,181.01022520900003,,,,,,,,,,,,,,,,,181.00081670899817,182.2002835419989,182.99235837499145,182.9839191249921,,,,,,,,,,,,,,,,182.98450383399904,182.99235837499145,182.99235837499145,184.83081145898905,g,1.0,1.8354904999869175,,184.8318747919984,184.84494933398676,185.82799499999965,185.833535999991,,,,,,,,,,,,,,,,,,,,sub-100,1,stroop_test,,
,,,,13.0,1.0,1.0,,,,,rot,red,r,1.0,r,1.0,1.518426584007102,,,,,,,,,,,,,,1.0,1.0,13.0,0.0,,,,,185.833535999991,,,,,,,,,,,,,,,,,185.8284412919893,187.0272389169986,187.822649291993,187.8113389169885,,,,,,,,,,,,,,,,187.81518829199197,187.822649291993,187.822649291993,189.3460746249912,r,1.0,1.518426584007102,,189.3470605420007,189.35875737499737,190.34456116698857,190.3501497499965,,,,,,,,,,,,,,,,,,,,sub-100,1,stroop_test,,
,,,,14.0,2.0,1.0,,,,,blau,blue,b,1.0,b,1.0,1.5381166250008391,,,,,,,,,,,,,,1.0,2.0,14.0,5.0,,,,,190.3501497499965,,,,,,,,,,,,,,,,,190.3449738749914,191.54400104199885,192.34077608399093,192.3280852089956,,,,,,,,,,,,,,,,192.33373616699828,192.34077608399093,192.34077608399093,193.88532887499605,b,1.0,1.5381166250008391,,193.88618804200087,193.89790941699172,194.8837303339969,194.89381258399223,,,,,,,,,,,,,,,,,,,,sub-100,1,stroop_test,,
,,,,15.0,3.0,1.0,,,,,gelb,blue,b,0.0,b,1.0,0.8670952499960549,,,,,,,,,,,,,,1.0,3.0,15.0,9.0,,,,,194.89381258399223,,,,,,,,,,,,,,,,,194.88413449999643,196.0835569169867,196.87876870899345,196.86725241699605,,,,,,,,,,,,,,,,196.87095458399563,196.87876870899345,196.87876870899345,197.75236420899452,b,1.0,0.8670952499960549,,197.75315979198783,197.7642552499892,198.74980970899924,198.7606584999885,,,,,,,,,,,,,,,,,,,,sub-100,1,stroop_test,,
,,,,16.0,4.0,1.0,,,,,rot,yellow,g,0.0,r,0.0,1.1567271249950863,,,,,,,,,,,,,,1.0,4.0,16.0,3.0,,,,,198.7606584999885,,,,,,,,,,,,,,,,,198.7502199169976,199.10033291699077,199.89594366699748,199.88401283399435,,,,,,,,,,,,,,,,199.88769041698836,199.89594366699748,199.89594366699748,201.06302837499243,r,0.0,1.1567271249950863,,201.0683510839881,201.07801804199696,202.06138712499524,202.0669621249981,,,,,,,,,,,,,,,,,,,,sub-100,1,stroop_test,,
,,,,17.0,5.0,1.0,,,,,blau,red,r,0.0,r,1.0,2.194722541011288,,,,,,,,,,,,,,1.0,5.0,17.0,4.0,,,,,202.0669621249981,,,,,,,,,,,,,,,,,202.06190133398923,202.16057662499952,202.95577041700017,202.9447158339899,,,,,,,,,,,,,,,,202.94865216698963,202.95577041700017,202.95577041700017,205.1530915420008,r,1.0,2.194722541011288,,205.1585359169985,205.1692562919925,206.15972870899716,,,,,,,,,,,,,,,,,,,,,sub-100,1,stroop_test,,
,,,,18.0,6.0,1.0,,,,,gelb,yellow,g,1.0,g,1.0,1.8100259579950944,,,,,,,,,,,,,,1.0,6.0,18.0,10.0,,,,,206.1638735839952,,,,,,,,,,,,,,,,,206.1601565839956,206.94842545899155,207.74297199999276,207.73163737499272,,,,,,,,,,,,,,,,207.7343447919993,207.74297199999276,207.74297199999276,209.56323704199167,g,1.0,1.8100259579950944,,209.56432058398784,209.576807999998,210.5614294589905,210.5672579589882,,,,,,,,,,,,,,,,,,,,sub-100,1,stroop_test,,
,,,,19.0,7.0,1.0,,,,,gelb,yellow,g,1.0,g,1.0,1.929247374995612,,,,,,,,,,,,,,1.0,7.0,19.0,11.0,,,,,210.5672579589882,,,,,,,,,,,,,,,,,210.56195104199287,211.7606893749908,212.55202770899632,212.5448322089942,,,,,,,,,,,,,,,,212.54543374999776,212.55202770899632,212.55202770899632,214.4859800839913,g,1.0,1.929247374995612,,214.48676799998796,214.49794808399747,215.483610958996,215.4939515839942,,,,,,,,,,,,,,,,,,,,sub-100,1,stroop_test,,
,,,,20.0,8.0,1.0,,,,,rot,red,r,1.0,r,1.0,1.3816994579974562,,,,,,,,,,,,,,1.0,8.0,20.0,1.0,,,,,215.4939515839942,,,,,,,,,,,,,,,,,215.4840264999948,216.68282754199757,217.47915887499403,217.4670174169878,,,,,,,,,,,,,,,,217.47186112499912,217.47915887499403,217.47915887499403,218.8639810839959,r,1.0,1.3816994579974562,,218.8649612500012,218.87651395899596,219.86128520900093,219.86678745898823,,,,,,,,,,,,,,,,,,,,sub-100,1,stroop_test,,
,,,,21.0,9.0,1.0,,,,,gelb,red,r,0.0,r,1.0,1.606343499996001,,,,,,,,,,,,,,1.0,9.0,21.0,8.0,,,,,219.86678745898823,,,,,,,,,,,,,,,,,219.86171808399376,219.96063437499103,220.75657645899628,220.744734833992,,,,,,,,,,,,,,,,220.74926199999757,220.75657645899628,220.75657645899628,222.36858983399,r,1.0,1.606343499996001,,222.36937524999664,222.38158341699452,223.3666439169901,223.3771814169886,,,,,,,,,,,,,,,,,,,,sub-100,1,stroop_test,,
,,,,22.0,10.0,1.0,,,,,blau,blue,b,1.0,b,1.0,2.3158660419867374,,,,,,,,,,,,,,1.0,10.0,22.0,6.0,,,,,223.3771814169886,,,,,,,,,,,,,,,,,223.36706049999336,223.7168181249872,224.51208341699385,224.50047566699504,,,,,,,,,,,,,,,,224.50414833398827,224.51208341699385,224.51208341699385,226.84093545899668,b,1.0,2.3158660419867374,,226.841479374998,226.847894874998,227.8333909590001,227.84404499999076,,,,,,,,,,,,,,,,,,,,sub-100,1,stroop_test,,
,,,,23.0,11.0,1.0,,,,,rot,blue,b,0.0,b,1.0,1.0256177080009363,,,,,,,,,,,,,,1.0,11.0,23.0,2.0,,,,,227.84404499999076,,,,,,,,,,,,,,,,,227.8336993749981,229.0336036249937,229.8292077090009,229.81748516699008,,,,,,,,,,,,,,,,229.82124108399148,229.8292077090009,229.8292077090009,230.86275916699375,b,1.0,1.0256177080009363,,230.86370708399045,230.8762588339887,231.8612316249928,231.8691170839884,,,,,,,,,,,,,,,,,,,,sub-100,1,stroop_test,,
,,,,,,,,,,,,,,,,,,,,,,,,,,,,,,,,,,,,,,,,,,,,,,,,,,,,,,,,,,,,,,,,,,,,,,,,,,,,,,,,,,,,,,,231.86140024999625,231.8691170839884,231.8691170839884,241.1128073339933,space,9.237323833003757,,,,,,,,,,,,,,sub-100,1,stroop_test,,
,,,,0.0,0.0,0.0,,,,,,,,,,,,,rot,yellow,g,0.0,g,1.0,1.0377782080031466,,,,,,,,,,0.0,0.0,0.0,3.0,241.1368228749925,,,,,,,,,,,,,,,,,241.1290152089932,242.3107072499988,243.10681562499667,243.094829499998,,,,,,,,,,,,,,,,,,,,,,,,,,,,,,,,,,,243.09943629198824,243.10681562499667,243.10681562499667,244.15765541698784,g,1.0,1.0377782080031466,,,,,,sub-100,1,stroop_test,,
,,,,1.0,1.0,0.0,,,,,,,,,,,,,gelb,yellow,g,1.0,g,1.0,0.9823254580114736,,,,,,,,,,0.0,1.0,1.0,11.0,244.1619309999951,,,,,,,,,,,,,,,,,244.15807545899588,244.949998333992,245.74541987499103,245.733192959,,,,,,,,,,,,,,,,,,,,,,,,,,,,,,,,,,,245.73745229199997,245.74541987499103,245.74541987499103,246.73046804199112,g,1.0,0.9823254580114736,,,,,,sub-100,1,stroop_test,,
,,,,2.0,2.0,0.0,,,,,,,,,,,,,blau,blue,b,1.0,b,1.0,0.9219341249990975,,,,,,,,,,0.0,2.0,2.0,6.0,246.74113516698708,,,,,,,,,,,,,,,,,246.7311830839899,247.0772978749883,247.87276745899,247.86125495898887,,,,,,,,,,,,,,,,,,,,,,,,,,,,,,,,,,,247.8655075419956,247.87276745899,247.87276745899,248.80790849999173,b,1.0,0.9219341249990975,,,,,,sub-100,1,stroop_test,,
,,,,3.0,3.0,0.0,,,,,,,,,,,,,blau,blue,b,1.0,b,1.0,0.973148790988489,,,,,,,,,,0.0,3.0,3.0,5.0,248.81240795899063,,,,,,,,,,,,,,,,,248.80835133399523,250.00040237499343,250.79238291698857,250.78403020898983,,,,,,,,,,,,,,,,,,,,,,,,,,,,,,,,,,,250.7846011669899,250.79238291698857,250.79238291698857,251.76809329199023,b,1.0,0.973148790988489,,,,,,sub-100,1,stroop_test,,
,,,,4.0,4.0,0.0,,,,,,,,,,,,,rot,blue,b,0.0,b,1.0,0.9944509580091108,,,,,,,,,,0.0,4.0,4.0,2.0,251.7764175839984,,,,,,,,,,,,,,,,,251.7685279589932,252.96678795899788,253.76239754199923,253.7508605839976,,,,,,,,,,,,,,,,,,,,,,,,,,,,,,,,,,,253.7544914589962,253.76239754199923,253.76239754199923,254.76273233399843,b,1.0,0.9944509580091108,,,,,,sub-100,1,stroop_test,,
,,,,5.0,5.0,0.0,,,,,,,,,,,,,gelb,blue,b,0.0,b,1.0,1.1384064169978956,,,,,,,,,,0.0,5.0,5.0,9.0,254.7724821669981,,,,,,,,,,,,,,,,,254.763413416993,255.11067520899812,255.9063507499959,255.89478833400065,,,,,,,,,,,,,,,,,,,,,,,,,,,,,,,,,,,255.8991576249973,255.9063507499959,255.9063507499959,257.0591264169925,b,1.0,1.1384064169978956,,,,,,sub-100,1,stroop_test,,
,,,,6.0,6.0,0.0,,,,,,,,,,,,,gelb,yellow,g,1.0,g,1.0,0.9261562089959624,,,,,,,,,,0.0,6.0,6.0,10.0,257.0643211669958,,,,,,,,,,,,,,,,,257.05965166699025,257.1494707499951,257.94237504199555,257.9338627089892,,,,,,,,,,,,,,,,,,,,,,,,,,,,,,,,,,,257.9344420419948,257.94237504199555,257.94237504199555,258.8796035419946,g,1.0,0.9261562089959624,,,,,,sub-100,1,stroop_test,,
,,,,7.0,7.0,0.0,,,,,,,,,,,,,blau,red,r,0.0,r,1.0,0.911337541998364,,,,,,,,,,0.0,7.0,7.0,4.0,258.8895602089906,,,,,,,,,,,,,,,,,258.8803088749992,260.077357541988,260.87343916700047,260.86146991699934,,,,,,,,,,,,,,,,,,,,,,,,,,,,,,,,,,,260.8661457919952,260.87343916700047,260.87343916700047,261.7957214999915,r,1.0,0.911337541998364,,,,,,sub-100,1,stroop_test,,
,,,,8.0,8.0,0.0,,,,,,,,,,,,,rot,red,r,1.0,r,1.0,0.7781474590010475,,,,,,,,,,0.0,8.0,8.0,0.0,261.8035785839893,,,,,,,,,,,,,,,,,261.7962102499878,262.59388616700016,263.38935220899293,263.3780157089932,,,,,,,,,,,,,,,,,,,,,,,,,,,,,,,,,,,263.3818174999906,263.38935220899293,263.38935220899293,264.1795343749982,r,1.0,0.7781474590010475,,,,,,sub-100,1,stroop_test,,
,,,,9.0,9.0,0.0,,,,,,,,,,,,,blau,yellow,g,0.0,g,1.0,1.072388208005577,,,,,,,,,,0.0,9.0,9.0,7.0,264.1894119589997,,,,,,,,,,,,,,,,,264.1802756669931,264.2772998339933,265.0743347499956,265.0613176249899,,,,,,,,,,,,,,,,,,,,,,,,,,,,,,,,,,,265.0670774999889,265.0743347499956,265.0743347499956,266.15237791699474,g,1.0,1.072388208005577,,,,,,sub-100,1,stroop_test,,
,,,,10.0,10.0,0.0,,,,,,,,,,,,,rot,red,r,1.0,r,1.0,1.065555792010855,,,,,,,,,,0.0,10.0,10.0,1.0,266.16257416699955,,,,,,,,,,,,,,,,,266.15293587499764,266.2501509589929,267.04575099999784,267.0340759169921,,,,,,,,,,,,,,,,,,,,,,,,,,,,,,,,,,,267.0376736670005,267.04575099999784,267.04575099999784,268.12525283399737,r,1.0,1.065555792010855,,,,,,sub-100,1,stroop_test,,
,,,,11.0,11.0,0.0,,,,,,,,,,,,,gelb,red,r,0.0,r,1.0,0.9068749579892028,,,,,,,,,,0.0,11.0,11.0,8.0,268.1303756249981,,,,,,,,,,,,,,,,,268.12577520898776,269.3170872089977,270.1270076669898,270.100553708995,,,,,,,,,,,,,,,,,,,,,,,,,,,,,,,,,,,270.1041606669896,270.1270076669898,270.1270076669898,271.036428499996,r,1.0,0.9068749579892028,,,,,,sub-100,1,stroop_test,,
,,,,12.0,0.0,1.0,,,,,,,,,,,,,gelb,yellow,g,1.0,g,1.0,0.8021236669883365,,,,,,,,,,1.0,0.0,12.0,11.0,271.0490060000011,,,,,,,,,,,,,,,,,271.0371263749985,271.8341150419874,272.62570679199416,272.61731229200086,,,,,,,,,,,,,,,,,,,,,,,,,,,,,,,,,,,272.617897374992,272.62570679199416,272.62570679199416,273.43053887499264,g,1.0,0.8021236669883365,,,,,,sub-100,1,stroop_test,,
,,,,13.0,1.0,1.0,,,,,,,,,,,,,rot,yellow,g,0.0,g,1.0,1.1000187919999007,,,,,,,,,,1.0,1.0,13.0,3.0,273.4411192499974,,,,,,,,,,,,,,,,,273.4312789999967,274.62726091699733,275.42355974999373,275.4116364999936,,,,,,,,,,,,,,,,,,,,,,,,,,,,,,,,,,,275.4162929999875,275.42355974999373,275.42355974999373,276.52988599998935,g,1.0,1.1000187919999007,,,,,,sub-100,1,stroop_test,,
,,,,14.0,2.0,1.0,,,,,,,,,,,,,gelb,blue,b,0.0,b,1.0,0.9718168339895784,,,,,,,,,,1.0,2.0,14.0,9.0,276.54091041699576,,,,,,,,,,,,,,,,,276.53073199999926,277.3272435839899,278.122789666988,278.1113883749931,,,,,,,,,,,,,,,,,,,,,,,,,,,,,,,,,,,278.11565820898977,278.122789666988,278.122789666988,279.10826283399365,b,1.0,0.9718168339895784,,,,,,sub-100,1,stroop_test,,
,,,,15.0,3.0,1.0,,,,,,,,,,,,,rot,red,r,1.0,r,1.0,1.083935249989736,,,,,,,,,,1.0,3.0,15.0,0.0,279.1134217919898,,,,,,,,,,,,,,,,,279.1087337919889,279.4498960839992,280.2456574169919,280.23385387499,,,,,,,,,,,,,,,,,,,,,,,,,,,,,,,,,,,280.23746545899485,280.2456574169919,280.2456574169919,281.3351427499874,r,1.0,1.083935249989736,,,,,,sub-100,1,stroop_test,,
,,,,16.0,4.0,1.0,,,,,,,,,,,,,rot,blue,b,0.0,b,1.0,1.275340000007418,,,,,,,,,,1.0,4.0,16.0,2.0,281.3438395839912,,,,,,,,,,,,,,,,,281.3356397089956,282.1335241669876,282.93560633399466,282.9281472500006,,,,,,,,,,,,,,,,,,,,,,,,,,,,,,,,,,,282.92889016699337,282.93560633399466,282.93560633399466,284.2134815419995,b,1.0,1.275340000007418,,,,,,sub-100,1,stroop_test,,
,,,,17.0,5.0,1.0,,,,,,,,,,,,,gelb,yellow,g,1.0,g,1.0,0.7897880829987116,,,,,,,,,,1.0,5.0,17.0,10.0,284.2235345419904,,,,,,,,,,,,,,,,,284.2142569169955,284.5607467919908,285.3582638339867,285.3450284169958,,,,,,,,,,,,,,,,,,,,,,,,,,,,,,,,,,,285.3509452500002,285.3582638339867,285.3582638339867,286.1520469169918,g,1.0,0.7897880829987116,,,,,,sub-100,1,stroop_test,,
,,,,18.0,6.0,1.0,,,,,,,,,,,,,blau,red,r,0.0,r,1.0,1.2388566250010626,,,,,,,,,,1.0,6.0,18.0,4.0,286.1622105839924,,,,,,,,,,,,,,,,,286.152688666989,287.35087824999937,288.1460999589908,288.1342911669926,,,,,,,,,,,,,,,,,,,,,,,,,,,,,,,,,,,288.13805624999804,288.1460999589908,288.1460999589908,289.3962193339976,r,1.0,1.2388566250010626,,,,,,sub-100,1,stroop_test,,
,,,,19.0,7.0,1.0,,,,,,,,,,,,,blau,yellow,g,0.0,g,1.0,1.1259580409969203,,,,,,,,,,1.0,7.0,19.0,7.0,289.4063948749972,,,,,,,,,,,,,,,,,289.396920291998,290.5939072499896,291.38544645899674,291.3780712919979,,,,,,,,,,,,,,,,,,,,,,,,,,,,,,,,,,,291.3786601249885,291.38544645899674,291.38544645899674,292.52470041699416,g,1.0,1.1259580409969203,,,,,,sub-100,1,stroop_test,,
,,,,20.0,8.0,1.0,,,,,,,,,,,,,blau,blue,b,1.0,b,1.0,1.1120097499951953,,,,,,,,,,1.0,8.0,20.0,5.0,292.52998404199025,,,,,,,,,,,,,,,,,292.5251611249987,292.8668363339966,293.6590964999923,293.65043770898774,,,,,,,,,,,,,,,,,,,,,,,,,,,,,,,,,,,293.6510445839958,293.6590964999923,293.6590964999923,294.7796368339914,b,1.0,1.1120097499951953,,,,,,sub-100,1,stroop_test,,
,,,,21.0,9.0,1.0,,,,,,,,,,,,,blau,blue,b,1.0,b,1.0,0.541421582995099,,,,,,,,,,1.0,9.0,21.0,6.0,294.7914957499888,,,,,,,,,,,,,,,,,294.7804333339882,295.5773582499969,296.36934704199666,296.361446416995,,,,,,,,,,,,,,,,,,,,,,,,,,,,,,,,,,,296.3621784999996,296.36934704199666,296.36934704199666,296.9134515839978,b,1.0,0.541421582995099,,,,,,sub-100,1,stroop_test,,
,,,,22.0,10.0,1.0,,,,,,,,,,,,,gelb,red,r,0.0,r,1.0,1.0405917500029318,,,,,,,,,,1.0,10.0,22.0,8.0,296.92510233398934,,,,,,,,,,,,,,,,,296.9142155419977,297.71072512499813,298.5060754169972,298.4946304999903,,,,,,,,,,,,,,,,,,,,,,,,,,,,,,,,,,,298.4989771669934,298.5060754169972,298.5060754169972,299.5529660419997,r,1.0,1.0405917500029318,,,,,,sub-100,1,stroop_test,,
,,,,23.0,11.0,1.0,,,,,,,,,,,,,rot,red,r,1.0,r,1.0,0.7904474590031896,,,,,,,,,,1.0,11.0,23.0,1.0,299.56561866699485,,,,,,,,,,,,,,,,,299.5536217919871,299.9001000839926,300.6963930839993,300.6837288339884,,,,,,,,,,,,,,,,,,,,,,,,,,,,,,,,,,,300.68754529199214,300.6963930839993,300.6963930839993,301.4966291669989,r,1.0,0.7904474590031896,,,,,,sub-100,1,stroop_test,,
,,,,24.0,0.0,2.0,,,,,,,,,,,,,blau,blue,b,1.0,b,1.0,0.8036536250001518,,,,,,,,,,2.0,0.0,24.0,5.0,301.50884354198934,,,,,,,,,,,,,,,,,301.49750133400084,301.59394370899827,302.390663083992,302.3784154999885,,,,,,,,,,,,,,,,,,,,,,,,,,,,,,,,,,,302.383102916996,302.390663083992,302.390663083992,303.19767262499954,b,1.0,0.8036536250001518,,,,,,sub-100,1,stroop_test,,
,,,,25.0,1.0,2.0,,,,,,,,,,,,,rot,blue,b,0.0,b,1.0,0.5719392089959001,,,,,,,,,,2.0,1.0,25.0,2.0,303.20953395898687,,,,,,,,,,,,,,,,,303.198414708997,304.3940618749912,305.18912995899154,305.17792504199315,,,,,,,,,,,,,,,,,,,,,,,,,,,,,,,,,,,305.1817364169983,305.18912995899154,305.18912995899154,305.7637466669985,b,1.0,0.5719392089959001,,,,,,sub-100,1,stroop_test,,
,,,,26.0,2.0,2.0,,,,,,,,,,,,,rot,red,r,1.0,g,0.0,1.0422457920067243,,,,,,,,,,2.0,2.0,26.0,0.0,305.7754449169879,,,,,,,,,,,,,,,,,305.76450512500014,306.9608059589955,307.75237699999707,307.7449050839932,,,,,,,,,,,,,,,,,,,,,,,,,,,,,,,,,,,307.74564691699925,307.75237699999707,307.75237699999707,308.7979507919954,g,0.0,1.0422457920067243,,,,,,sub-100,1,stroop_test,,
,,,,27.0,3.0,2.0,,,,,,,,,,,,,gelb,blue,b,0.0,b,1.0,1.088792917013052,,,,,,,,,,2.0,3.0,27.0,9.0,308.8096439590008,,,,,,,,,,,,,,,,,308.7987261669914,309.593918958999,310.3909368339955,310.37820691699744,,,,,,,,,,,,,,,,,,,,,,,,,,,,,,,,,,,310.38391587499063,310.3909368339955,310.3909368339955,311.4860407919914,b,1.0,1.088792917013052,,,,,,sub-100,1,stroop_test,,
,,,,28.0,4.0,2.0,,,,,,,,,,,,,gelb,yellow,g,1.0,g,1.0,1.656639749999158,,,,,,,,,,2.0,4.0,28.0,10.0,311.49813512498804,,,,,,,,,,,,,,,,,311.48672924999846,311.5830436249962,312.3757526249974,312.367671791988,,,,,,,,,,,,,,,,,,,,,,,,,,,,,,,,,,,312.3682546669879,312.3757526249974,312.3757526249974,314.03512745899206,g,1.0,1.656639749999158,,,,,,sub-100,1,stroop_test,,
,,,,29.0,5.0,2.0,,,,,,,,,,,,,blau,red,r,0.0,r,1.0,0.9082878329936648,,,,,,,,,,2.0,5.0,29.0,4.0,314.045763541988,,,,,,,,,,,,,,,,,314.03572387500026,314.38402049998695,315.17884004199004,315.1672278749902,,,,,,,,,,,,,,,,,,,,,,,,,,,,,,,,,,,315.1708874589968,315.17884004199004,315.17884004199004,316.0961609169899,r,1.0,0.9082878329936648,,,,,,sub-100,1,stroop_test,,
,,,,30.0,6.0,2.0,,,,,,,,,,,,,blau,blue,b,1.0,b,1.0,0.9599613750033312,,,,,,,,,,2.0,6.0,30.0,6.0,316.10688020900125,,,,,,,,,,,,,,,,,316.0968408339977,317.29414812498726,318.085469749989,318.0781422500004,,,,,,,,,,,,,,,,,,,,,,,,,,,,,,,,,,,318.078737333999,318.085469749989,318.085469749989,319.052343916992,b,1.0,0.9599613750033312,,,,,,sub-100,1,stroop_test,,
,,,,31.0,7.0,2.0,,,,,,,,,,,,,blau,yellow,g,0.0,g,1.0,0.9911144579964456,,,,,,,,,,2.0,7.0,31.0,7.0,319.0629773339897,,,,,,,,,,,,,,,,,319.05295120899973,319.4002475839952,320.192402124987,320.18393004199606,,,,,,,,,,,,,,,,,,,,,,,,,,,,,,,,,,,320.1845128749992,320.192402124987,320.192402124987,321.18649249999726,g,1.0,0.9911144579964456,,,,,,sub-100,1,stroop_test,,
,,,,32.0,8.0,2.0,,,,,,,,,,,,,gelb,yellow,g,1.0,g,1.0,0.6915273749909829,,,,,,,,,,2.0,8.0,32.0,11.0,321.19825058399874,,,,,,,,,,,,,,,,,321.1872295840003,322.383937791994,323.1790097089979,323.1670932919951,,,,,,,,,,,,,,,,,,,,,,,,,,,,,,,,,,,323.17075691699574,323.1790097089979,323.1790097089979,323.8795360419899,g,1.0,0.6915273749909829,,,,,,sub-100,1,stroop_test,,
,,,,33.0,9.0,2.0,,,,,,,,,,,,,rot,red,r,1.0,r,1.0,0.6722293749917299,,,,,,,,,,2.0,9.0,33.0,1.0,323.8903921249876,,,,,,,,,,,,,,,,,323.88025649999327,325.0774357499904,325.8726834169938,325.8613565419946,,,,,,,,,,,,,,,,,,,,,,,,,,,,,,,,,,,325.86527195898816,325.8726834169938,325.8726834169938,326.55841845899704,r,1.0,0.6722293749917299,,,,,,sub-100,1,stroop_test,,
,,,,34.0,10.0,2.0,,,,,,,,,,,,,rot,yellow,g,0.0,r,0.0,0.9823526249965652,,,,,,,,,,2.0,10.0,34.0,3.0,326.5636674589914,,,,,,,,,,,,,,,,,326.5589159169904,327.3510388339928,328.1520944590011,328.1446536250005,,,,,,,,,,,,,,,,,,,,,,,,,,,,,,,,,,,328.1453063339868,328.1520944590011,328.1520944590011,329.1466330419935,r,0.0,0.9823526249965652,,,,,,sub-100,1,stroop_test,,
,,,,35.0,11.0,2.0,,,,,,,,,,,,,gelb,red,r,0.0,r,1.0,3.27713279199088,,,,,,,,,,2.0,11.0,35.0,8.0,329.1575834589894,,,,,,,,,,,,,,,,,329.1474259589886,329.49411499999405,330.289022166995,330.2780193749932,,,,,,,,,,,,,,,,,,,,,,,,,,,,,,,,,,,330.28191720899486,330.289022166995,330.289022166995,333.5688608749915,r,1.0,3.27713279199088,,,,,,sub-100,1,stroop_test,,
,,,,36.0,0.0,3.0,,,,,,,,,,,,,blau,yellow,g,0.0,g,1.0,1.9662398329965072,,,,,,,,,,3.0,0.0,36.0,7.0,333.57916608398955,,,,,,,,,,,,,,,,,333.5694346249948,333.9171831669955,334.71255608399224,334.7009152089886,,,,,,,,,,,,,,,,,,,,,,,,,,,,,,,,,,,334.70461941699614,334.71255608399224,334.71255608399224,336.68548966699746,g,1.0,1.9662398329965072,,,,,,sub-100,1,stroop_test,,
,,,,37.0,1.0,3.0,,,,,,,,,,,,,blau,blue,b,1.0,b,1.0,1.3729926249943674,,,,,,,,,,3.0,1.0,37.0,6.0,336.69618933399033,,,,,,,,,,,,,,,,,336.686069916992,336.7837101670011,337.5757960839983,337.56752783399133,,,,,,,,,,,,,,,,,,,,,,,,,,,,,,,,,,,337.56810904199665,337.5757960839983,337.5757960839983,338.9522453339887,b,1.0,1.3729926249943674,,,,,,sub-100,1,stroop_test,,
,,,,38.0,2.0,3.0,,,,,,,,,,,,,gelb,blue,b,0.0,b,1.0,0.655423583011725,,,,,,,,,,3.0,2.0,38.0,9.0,338.96282699999574,,,,,,,,,,,,,,,,,338.95284783399256,339.2999798339879,340.09709312499035,340.08349108399125,,,,,,,,,,,,,,,,,,,,,,,,,,,,,,,,,,,340.09050379198743,340.09709312499035,340.09709312499035,340.7628092919913,b,1.0,0.655423583011725,,,,,,sub-100,1,stroop_test,,
,,,,39.0,3.0,3.0,,,,,,,,,,,,,blau,blue,b,1.0,b,1.0,0.5893295830028364,,,,,,,,,,3.0,3.0,39.0,5.0,340.7736366249883,,,,,,,,,,,,,,,,,340.7635699999955,341.56063454199466,342.35559962499246,342.34456162499555,,,,,,,,,,,,,,,,,,,,,,,,,,,,,,,,,,,342.3484697919921,342.35559962499246,342.35559962499246,342.9519003339956,b,1.0,0.5893295830028364,,,,,,sub-100,1,stroop_test,,
,,,,40.0,4.0,3.0,,,,,,,,,,,,,rot,red,r,1.0,r,1.0,0.8204116249980871,,,,,,,,,,3.0,4.0,40.0,0.0,342.96258537498943,,,,,,,,,,,,,,,,,342.9524712499988,343.75030595899443,344.54563454199524,344.5336008749873,,,,,,,,,,,,,,,,,,,,,,,,,,,,,,,,,,,344.537180208994,344.54563454199524,344.54563454199524,345.36898279198795,r,1.0,0.8204116249980871,,,,,,sub-100,1,stroop_test,,
,,,,41.0,5.0,3.0,,,,,,,,,,,,,rot,red,r,1.0,r,1.0,0.7952294999995502,,,,,,,,,,3.0,5.0,41.0,1.0,345.3796731249895,,,,,,,,,,,,,,,,,345.3695521249901,346.5667803749966,347.35912033398927,347.350739083995,,,,,,,,,,,,,,,,,,,,,,,,,,,,,,,,,,,347.351314708998,347.35912033398927,347.35912033398927,348.16283708398987,r,1.0,0.7952294999995502,,,,,,sub-100,1,stroop_test,,
,,,,42.0,6.0,3.0,,,,,,,,,,,,,rot,blue,b,0.0,b,1.0,1.4486980420042528,,,,,,,,,,3.0,6.0,42.0,2.0,348.1737652089941,,,,,,,,,,,,,,,,,348.16350533399964,348.26078349999443,349.0526347499981,349.044908166994,,,,,,,,,,,,,,,,,,,,,,,,,,,,,,,,,,,349.045661791999,349.0526347499981,349.0526347499981,350.5129923749919,b,1.0,1.4486980420042528,,,,,,sub-100,1,stroop_test,,
,,,,43.0,7.0,3.0,,,,,,,,,,,,,gelb,yellow,g,1.0,g,1.0,1.0949362090032082,,,,,,,,,,3.0,7.0,43.0,10.0,350.52395191699907,,,,,,,,,,,,,,,,,350.51373762499134,351.71078479199787,352.5067270419968,352.49478670899407,,,,,,,,,,,,,,,,,,,,,,,,,,,,,,,,,,,352.4993972089869,352.5067270419968,352.5067270419968,353.6126572919893,g,1.0,1.0949362090032082,,,,,,sub-100,1,stroop_test,,
,,,,44.0,8.0,3.0,,,,,,,,,,,,,rot,yellow,g,0.0,g,1.0,0.6748999590054154,,,,,,,,,,3.0,8.0,44.0,3.0,353.62323141699017,,,,,,,,,,,,,,,,,353.6133770419983,354.4107335419976,355.2063234589877,355.19469454199134,,,,,,,,,,,,,,,,,,,,,,,,,,,,,,,,,,,355.19890591700096,355.2063234589877,355.2063234589877,355.88516783399973,g,1.0,0.6748999590054154,,,,,,sub-100,1,stroop_test,,
,,,,45.0,9.0,3.0,,,,,,,,,,,,,gelb,red,r,0.0,r,1.0,1.1529166250111302,,,,,,,,,,3.0,9.0,45.0,8.0,355.89615712499653,,,,,,,,,,,,,,,,,355.88572620898776,357.08348912499787,357.87923595900065,357.8677920839982,,,,,,,,,,,,,,,,,,,,,,,,,,,,,,,,,,,357.8715243339975,357.87923595900065,357.87923595900065,359.0352453339874,r,1.0,1.1529166250111302,,,,,,sub-100,1,stroop_test,,
,,,,46.0,10.0,3.0,,,,,,,,,,,,,gelb,yellow,g,1.0,g,1.0,1.5429265830025545,,,,,,,,,,3.0,10.0,46.0,11.0,359.0462019999977,,,,,,,,,,,,,,,,,359.035827374988,359.8344220839936,360.63517920899903,360.6279104589921,,,,,,,,,,,,,,,,,,,,,,,,,,,,,,,,,,,360.62851762499486,360.63517920899903,360.63517920899903,362.1931992499885,g,1.0,1.5429265830025545,,,,,,sub-100,1,stroop_test,,
,,,,47.0,11.0,3.0,,,,,,,,,,,,,blau,red,r,0.0,r,1.0,0.8719347500009462,,,,,,,,,,3.0,11.0,47.0,4.0,362.19823558400094,,,,,,,,,,,,,,,,,362.1936481249868,362.9844289999892,363.7907216669992,363.77812804198766,,,,,,,,,,,,,,,,,,,,,,,,,,,,,,,,,,,363.7836936249951,363.7907216669992,363.7907216669992,364.6688089169911,r,1.0,0.8719347500009462,,,,,,sub-100,1,stroop_test,,
,,,,48.0,0.0,4.0,,,,,,,,,,,,,rot,red,r,1.0,r,1.0,1.4037109579949174,,,,,,,,,,4.0,0.0,48.0,0.0,364.6820905839995,,,,,,,,,,,,,,,,,364.6694419169944,365.0167453749891,365.82710479199886,365.800057208995,,,,,,,,,,,,,,,,,,,,,,,,,,,,,,,,,,,365.8036923749896,365.82710479199886,365.82710479199886,367.2358162499877,r,1.0,1.4037109579949174,,,,,,sub-100,1,stroop_test,,
,,,,49.0,1.0,4.0,,,,,,,,,,,,,rot,red,r,1.0,r,1.0,0.8566992090054555,,,,,,,,,,4.0,1.0,49.0,1.0,367.2462486669974,,,,,,,,,,,,,,,,,367.2364056249935,368.0334926669893,368.8257765839953,368.8171289169986,,,,,,,,,,,,,,,,,,,,,,,,,,,,,,,,,,,368.817730499999,368.8257765839953,368.8257765839953,369.6853348339937,r,1.0,0.8566992090054555,,,,,,sub-100,1,stroop_test,,
,,,,50.0,2.0,4.0,,,,,,,,,,,,,gelb,red,r,0.0,r,1.0,1.1775997079967055,,,,,,,,,,4.0,2.0,50.0,8.0,369.6960972499946,,,,,,,,,,,,,,,,,369.68590674999,370.48327379199327,371.27915341699554,371.2674823749985,,,,,,,,,,,,,,,,,,,,,,,,,,,,,,,,,,,371.2711489169888,371.27915341699554,371.27915341699554,372.46267687498766,r,1.0,1.1775997079967055,,,,,,sub-100,1,stroop_test,,
,,,,51.0,3.0,4.0,,,,,,,,,,,,,blau,blue,b,1.0,b,1.0,1.021083708998049,,,,,,,,,,4.0,3.0,51.0,5.0,372.4736864999868,,,,,,,,,,,,,,,,,372.4634094169887,372.5607738749968,373.3566810839984,373.34491504199104,,,,,,,,,,,,,,,,,,,,,,,,,,,,,,,,,,,373.3495042089926,373.3566810839984,373.3566810839984,374.3809736249968,b,1.0,1.021083708998049,,,,,,sub-100,1,stroop_test,,
,,,,52.0,4.0,4.0,,,,,,,,,,,,,blau,yellow,g,0.0,g,1.0,0.9257537499943282,,,,,,,,,,4.0,4.0,52.0,7.0,374.39209233399015,,,,,,,,,,,,,,,,,374.3817257089977,374.4772667090001,375.2686065419985,375.26136170899554,,,,,,,,,,,,,,,,,,,,,,,,,,,,,,,,,,,375.2619834169891,375.2686065419985,375.2686065419985,376.1973672919994,g,1.0,0.9257537499943282,,,,,,sub-100,1,stroop_test,,
,,,,53.0,5.0,4.0,,,,,,,,,,,,,blau,blue,b,1.0,b,1.0,1.000961041005212,,,,,,,,,,4.0,5.0,53.0,6.0,376.20844358399336,,,,,,,,,,,,,,,,,376.1981537089887,376.2940644589981,377.08538204198703,377.07809662498767,,,,,,,,,,,,,,,,,,,,,,,,,,,,,,,,,,,377.078701624996,377.08538204198703,377.08538204198703,378.0964802089875,b,1.0,1.000961041005212,,,,,,sub-100,1,stroop_test,,
,,,,54.0,6.0,4.0,,,,,,,,,,,,,rot,blue,b,0.0,b,1.0,1.0978140420047566,,,,,,,,,,4.0,6.0,54.0,2.0,378.1078940839943,,,,,,,,,,,,,,,,,378.0973079169926,378.1939460419962,378.99004654199234,378.97844220898696,,,,,,,,,,,,,,,,,,,,,,,,,,,,,,,,,,,378.982407833988,378.99004654199234,378.99004654199234,380.0964864999987,b,1.0,1.0978140420047566,,,,,,sub-100,1,stroop_test,,
,,,,55.0,7.0,4.0,,,,,,,,,,,,,gelb,yellow,g,1.0,g,1.0,0.9837939999997616,,,,,,,,,,4.0,7.0,55.0,10.0,380.107507416993,,,,,,,,,,,,,,,,,380.0972406669898,381.2941142919881,382.0893228749919,382.0780693339912,,,,,,,,,,,,,,,,,,,,,,,,,,,,,,,,,,,382.082318374989,382.0893228749919,382.0893228749919,383.0796813749912,g,1.0,0.9837939999997616,,,,,,sub-100,1,stroop_test,,
,,,,56.0,8.0,4.0,,,,,,,,,,,,,gelb,blue,b,0.0,b,1.0,1.6191355420014588,,,,,,,,,,4.0,8.0,56.0,9.0,383.0908402499917,,,,,,,,,,,,,,,,,383.08046349999495,383.177361708993,383.96936787499,383.9615077499912,,,,,,,,,,,,,,,,,,,,,,,,,,,,,,,,,,,383.9622607919882,383.96936787499,383.96936787499,385.5964319169871,b,1.0,1.6191355420014588,,,,,,sub-100,1,stroop_test,,
,,,,57.0,9.0,4.0,,,,,,,,,,,,,gelb,yellow,g,1.0,g,1.0,1.0852307079912862,,,,,,,,,,4.0,9.0,57.0,11.0,385.6075662919902,,,,,,,,,,,,,,,,,385.5972261669958,386.3941374999995,387.1858786249941,387.17818999999145,,,,,,,,,,,,,,,,,,,,,,,,,,,,,,,,,,,387.1789125840005,387.1858786249941,387.1858786249941,388.2796389169962,g,1.0,1.0852307079912862,,,,,,sub-100,1,stroop_test,,
,,,,58.0,10.0,4.0,,,,,,,,,,,,,blau,red,r,0.0,r,1.0,0.8664706249983283,,,,,,,,,,4.0,10.0,58.0,4.0,388.290695083997,,,,,,,,,,,,,,,,,388.2803695420007,389.07742787498864,389.8747479169979,389.8615278340003,,,,,,,,,,,,,,,,,,,,,,,,,,,,,,,,,,,389.8674900839978,389.8747479169979,389.8747479169979,390.74607741698856,r,1.0,0.8664706249983283,,,,,,sub-100,1,stroop_test,,
,,,,59.0,11.0,4.0,,,,,,,,,,,,,rot,yellow,g,0.0,g,1.0,0.9275669169874164,,,,,,,,,,4.0,11.0,59.0,3.0,390.7573677089968,,,,,,,,,,,,,,,,,390.7467787499918,391.9440084999951,392.73979841699474,392.7282625419903,,,,,,,,,,,,,,,,,,,,,,,,,,,,,,,,,,,392.7325284589897,392.73979841699474,392.73979841699474,393.6803927919973,g,1.0,0.9275669169874164,,,,,,sub-100,1,stroop_test,,
,,,,60.0,0.0,5.0,,,,,,,,,,,,,gelb,yellow,g,1.0,g,1.0,0.8729365830076858,,,,,,,,,,5.0,0.0,60.0,10.0,393.6940652919875,,,,,,,,,,,,,,,,,393.6808506669913,393.7773394999968,394.5723262089887,394.5613174589962,,,,,,,,,,,,,,,,,,,,,,,,,,,,,,,,,,,394.56516916699184,394.5723262089887,394.5723262089887,395.4522472089884,g,1.0,0.8729365830076858,,,,,,sub-100,1,stroop_test,,
,,,,61.0,1.0,5.0,,,,,,,,,,,,,rot,red,r,1.0,r,1.0,0.6327631250023842,,,,,,,,,,5.0,1.0,61.0,1.0,395.46307154199167,,,,,,,,,,,,,,,,,395.4527879169909,396.6501301249955,397.4456842919899,397.4340008339932,,,,,,,,,,,,,,,,,,,,,,,,,,,,,,,,,,,397.4374867089937,397.4456842919899,397.4456842919899,398.0857187499933,r,1.0,0.6327631250023842,,,,,,sub-100,1,stroop_test,,
,,,,62.0,2.0,5.0,,,,,,,,,,,,,blau,blue,b,1.0,b,1.0,0.9169505000027128,,,,,,,,,,5.0,2.0,62.0,6.0,398.0963096249907,,,,,,,,,,,,,,,,,398.08629595898674,398.8836264589918,399.6789778749953,399.6673118749896,,,,,,,,,,,,,,,,,,,,,,,,,,,,,,,,,,,399.6708797089959,399.6789778749953,399.6789778749953,400.6021222089912,b,1.0,0.9169505000027128,,,,,,sub-100,1,stroop_test,,
,,,,63.0,3.0,5.0,,,,,,,,,,,,,gelb,yellow,g,1.0,g,1.0,1.1255750830023317,,,,,,,,,,5.0,3.0,63.0,11.0,400.6131822499883,,,,,,,,,,,,,,,,,400.602693791996,401.4003834999894,402.19575254200026,402.18415458399977,,,,,,,,,,,,,,,,,,,,,,,,,,,,,,,,,,,402.1878092499974,402.19575254200026,402.19575254200026,403.3298336669977,g,1.0,1.1255750830023317,,,,,,sub-100,1,stroop_test,,
,,,,64.0,4.0,5.0,,,,,,,,,,,,,blau,yellow,g,0.0,g,1.0,0.5576235839980654,,,,,,,,,,5.0,4.0,64.0,7.0,403.3401897089934,,,,,,,,,,,,,,,,,403.3305477499962,403.67740741699527,404.4730608339887,404.4615023749938,,,,,,,,,,,,,,,,,,,,,,,,,,,,,,,,,,,404.4659852499899,404.4730608339887,404.4730608339887,405.0355212499999,g,1.0,0.5576235839980654,,,,,,sub-100,1,stroop_test,,
,,,,65.0,5.0,5.0,,,,,,,,,,,,,gelb,red,r,0.0,r,1.0,1.4146491249994142,,,,,,,,,,5.0,5.0,65.0,8.0,405.04589616699377,,,,,,,,,,,,,,,,,405.03608862499823,405.3844155839906,406.1798559169984,406.1677180839906,,,,,,,,,,,,,,,,,,,,,,,,,,,,,,,,,,,406.1728419169958,406.1798559169984,406.1798559169984,407.605413792,r,1.0,1.4146491249994142,,,,,,sub-100,1,stroop_test,,
,,,,66.0,6.0,5.0,,,,,,,,,,,,,blau,blue,b,1.0,b,1.0,1.0224069170071743,,,,,,,,,,5.0,6.0,66.0,5.0,407.609519583988,,,,,,,,,,,,,,,,,407.6057599169872,408.4004355419893,409.19565720899845,409.1841126249929,,,,,,,,,,,,,,,,,,,,,,,,,,,,,,,,,,,409.1877606249909,409.19565720899845,409.19565720899845,410.2205620419991,b,1.0,1.0224069170071743,,,,,,sub-100,1,stroop_test,,
,,,,67.0,7.0,5.0,,,,,,,,,,,,,rot,yellow,g,0.0,g,1.0,1.5274965839926151,,,,,,,,,,5.0,7.0,67.0,3.0,410.23223949999374,,,,,,,,,,,,,,,,,410.2212451249943,411.41719170899887,412.2226857919886,412.2114157499891,,,,,,,,,,,,,,,,,,,,,,,,,,,,,,,,,,,412.2154347920005,412.2226857919886,412.2226857919886,413.7526812089927,g,1.0,1.5274965839926151,,,,,,sub-100,1,stroop_test,,
,,,,68.0,8.0,5.0,,,,,,,,,,,,,rot,red,r,1.0,r,1.0,0.9555402499972844,,,,,,,,,,5.0,8.0,68.0,0.0,413.76310220899177,,,,,,,,,,,,,,,,,413.7533371669997,414.1002436669951,414.8924625840009,414.883931666991,,,,,,,,,,,,,,,,,,,,,,,,,,,,,,,,,,,414.884508416988,414.8924625840009,414.8924625840009,415.8528630419896,r,1.0,0.9555402499972844,,,,,,sub-100,1,stroop_test,,
,,,,69.0,9.0,5.0,,,,,,,,,,,,,rot,blue,b,0.0,b,1.0,1.3916333340021083,,,,,,,,,,5.0,9.0,69.0,2.0,415.86563524999656,,,,,,,,,,,,,,,,,415.8534682499885,416.2008112499898,417.0029420840001,416.9950072919892,,,,,,,,,,,,,,,,,,,,,,,,,,,,,,,,,,,416.9957562499913,417.0029420840001,417.0029420840001,418.3976066670002,b,1.0,1.3916333340021083,,,,,,sub-100,1,stroop_test,,
,,,,70.0,10.0,5.0,,,,,,,,,,,,,blau,red,r,0.0,r,1.0,1.9950433329941009,,,,,,,,,,5.0,10.0,70.0,4.0,418.4079022090009,,,,,,,,,,,,,,,,,418.3982926669996,418.7440595839871,419.5398657919868,419.52816220899695,,,,,,,,,,,,,,,,,,,,,,,,,,,,,,,,,,,419.5325367089972,419.5398657919868,419.5398657919868,421.5502461669967,r,1.0,1.9950433329941009,,,,,,sub-100,1,stroop_test,,
,,,,71.0,11.0,5.0,,,,,,,,,,,,,gelb,blue,b,0.0,b,1.0,0.9386158340057592,,,,,,,,,,5.0,11.0,71.0,9.0,421.5607522499922,,,,,,,,,,,,,,,,,421.5506767919869,422.3509320839949,423.1558712499973,423.1447454169975,,,,,,,,,,,,,,,,,,,,,,,,,,,,,,,,,,,423.1486212089949,423.1558712499973,423.1558712499973,424.0974380419939,b,1.0,0.9386158340057592,,,,,,sub-100,1,stroop_test,,
,,,,72.0,0.0,6.0,,,,,,,,,,,,,blau,yellow,g,0.0,g,1.0,0.5246762919996399,,,,,,,,,,6.0,0.0,72.0,7.0,424.1084387919982,,,,,,,,,,,,,,,,,424.09811666699534,424.4441196669941,425.2400450839923,425.22830354199687,,,,,,,,,,,,,,,,,,,,,,,,,,,,,,,,,,,425.2329449589888,425.2400450839923,425.2400450839923,425.7693715839996,g,1.0,0.5246762919996399,,,,,,sub-100,1,stroop_test,,
,,,,73.0,1.0,6.0,,,,,,,,,,,,,gelb,red,r,0.0,r,1.0,0.708301582999411,,,,,,,,,,6.0,1.0,73.0,8.0,425.782428874998,,,,,,,,,,,,,,,,,425.7699373340001,425.8662321249867,426.6630587089894,426.65097233399865,,,,,,,,,,,,,,,,,,,,,,,,,,,,,,,,,,,426.6560516249883,426.6630587089894,426.6630587089894,427.3796734999924,r,1.0,0.708301582999411,,,,,,sub-100,1,stroop_test,,
,,,,74.0,2.0,6.0,,,,,,,,,,,,,rot,red,r,1.0,r,1.0,1.112179499992635,,,,,,,,,,6.0,2.0,74.0,0.0,427.390839374988,,,,,,,,,,,,,,,,,427.3803917919868,427.7274956670008,428.5235704999941,428.51165254198713,,,,,,,,,,,,,,,,,,,,,,,,,,,,,,,,,,,428.5162122089969,428.5235704999941,428.5235704999941,429.6462022919877,r,1.0,1.112179499992635,,,,,,sub-100,1,stroop_test,,
,,,,75.0,3.0,6.0,,,,,,,,,,,,,gelb,yellow,g,1.0,g,1.0,0.6941461250098655,,,,,,,,,,6.0,3.0,75.0,11.0,429.65706020899233,,,,,,,,,,,,,,,,,429.6468582499947,430.4440947089897,431.2392726249964,431.2281516249932,,,,,,,,,,,,,,,,,,,,,,,,,,,,,,,,,,,431.2321305839869,431.2392726249964,431.2392726249964,431.93587541699526,g,1.0,0.6941461250098655,,,,,,sub-100,1,stroop_test,,
,,,,76.0,4.0,6.0,,,,,,,,,,,,,rot,red,r,1.0,r,1.0,0.7853494159935508,,,,,,,,,,6.0,4.0,76.0,1.0,431.9463693750004,,,,,,,,,,,,,,,,,431.936559416994,432.73364537498855,433.5288672919996,433.5172534999874,,,,,,,,,,,,,,,,,,,,,,,,,,,,,,,,,,,433.52081375000125,433.5288672919996,433.5288672919996,434.3186444999883,r,1.0,0.7853494159935508,,,,,,sub-100,1,stroop_test,,
,,,,77.0,5.0,6.0,,,,,,,,,,,,,gelb,blue,b,0.0,b,1.0,0.7309632079995936,,,,,,,,,,6.0,5.0,77.0,9.0,434.3297487089876,,,,,,,,,,,,,,,,,434.3192108749936,434.66666350000014,435.4771269589983,435.4501614999899,,,,,,,,,,,,,,,,,,,,,,,,,,,,,,,,,,,435.4538614169869,435.4771269589983,435.4771269589983,436.2127855419967,b,1.0,0.7309632079995936,,,,,,sub-100,1,stroop_test,,
,,,,78.0,6.0,6.0,,,,,,,,,,,,,rot,blue,b,0.0,b,1.0,1.6259301669924753,,,,,,,,,,6.0,6.0,78.0,2.0,436.22393779199047,,,,,,,,,,,,,,,,,436.213428499992,437.4107691669924,438.2067744169908,438.19477945899416,,,,,,,,,,,,,,,,,,,,,,,,,,,,,,,,,,,438.1993495839997,438.2067744169908,438.2067744169908,439.83573787499336,b,1.0,1.6259301669924753,,,,,,sub-100,1,stroop_test,,
,,,,79.0,7.0,6.0,,,,,,,,,,,,,blau,blue,b,1.0,b,1.0,0.8057407080050325,,,,,,,,,,6.0,7.0,79.0,5.0,439.846230708994,,,,,,,,,,,,,,,,,439.8363127499906,439.9330448339897,440.7293543749984,440.7174581250001,,,,,,,,,,,,,,,,,,,,,,,,,,,,,,,,,,,440.7213373749983,440.7293543749984,440.7293543749984,441.5498491249891,b,1.0,0.8057407080050325,,,,,,sub-100,1,stroop_test,,
,,,,80.0,8.0,6.0,,,,,,,,,,,,,rot,yellow,g,0.0,b,0.0,0.037142874993151,,,,,,,,,,6.0,8.0,80.0,3.0,441.5606414590002,,,,,,,,,,,,,,,,,441.5501895839989,442.34392387499975,443.14095216699934,443.12805745899095,,,,,,,,,,,,,,,,,,,,,,,,,,,,,,,,,,,443.1334004999953,443.14095216699934,443.14095216699934,443.185174541999,b,0.0,0.037142874993151,,,,,,sub-100,1,stroop_test,,
,,,,81.0,9.0,6.0,,,,,,,,,,,,,gelb,yellow,g,1.0,g,1.0,2.1492386250029085,,,,,,,,,,6.0,9.0,81.0,10.0,443.1932354589953,,,,,,,,,,,,,,,,,443.1855805419909,443.53369250000105,444.3392021670006,444.3281106249924,,,,,,,,,,,,,,,,,,,,,,,,,,,,,,,,,,,444.3319789169909,444.3392021670006,444.3392021670006,446.4961512499867,g,1.0,2.1492386250029085,,,,,,sub-100,1,stroop_test,,
,,,,82.0,10.0,6.0,,,,,,,,,,,,,blau,red,r,0.0,r,1.0,0.9339987919956912,,,,,,,,,,6.0,10.0,82.0,4.0,446.5063940419932,,,,,,,,,,,,,,,,,446.4967732919904,447.6940999169892,448.4900951249874,448.47844899998745,,,,,,,,,,,,,,,,,,,,,,,,,,,,,,,,,,,448.48295079199306,448.4900951249874,448.4900951249874,449.4294816670008,r,1.0,0.9339987919956912,,,,,,sub-100,1,stroop_test,,
,,,,83.0,11.0,6.0,,,,,,,,,,,,,blau,blue,b,1.0,b,1.0,0.9709092080011033,,,,,,,,,,6.0,11.0,83.0,6.0,449.4398535419896,,,,,,,,,,,,,,,,,449.4300945839932,449.7774428339908,450.56873449998966,450.5614739169978,,,,,,,,,,,,,,,,,,,,,,,,,,,,,,,,,,,450.5620759589947,450.56873449998966,450.56873449998966,451.5462250839919,b,1.0,0.9709092080011033,,,,,,sub-100,1,stroop_test,,
,,,,84.0,0.0,7.0,,,,,,,,,,,,,rot,yellow,g,0.0,g,1.0,2.4378306250000605,,,,,,,,,,7.0,0.0,84.0,3.0,451.5565592919884,,,,,,,,,,,,,,,,,451.5468581669993,451.8939433749911,452.6902530839871,452.678322458989,,,,,,,,,,,,,,,,,,,,,,,,,,,,,,,,,,,452.6829081249889,452.6902530839871,452.6902530839871,455.14120279198687,g,1.0,2.4378306250000605,,,,,,sub-100,1,stroop_test,,
,,,,85.0,1.0,7.0,,,,,,,,,,,,,gelb,yellow,g,1.0,g,1.0,0.688907540999935,,,,,,,,,,7.0,1.0,85.0,11.0,455.1456264169974,,,,,,,,,,,,,,,,,455.14163020899286,455.9345355839905,456.7391570420005,456.7281069169985,,,,,,,,,,,,,,,,,,,,,,,,,,,,,,,,,,,456.73197179198905,456.7391570420005,456.7391570420005,457.4410237499978,g,1.0,0.688907540999935,,,,,,sub-100,1,stroop_test,,
,,,,86.0,2.0,7.0,,,,,,,,,,,,,gelb,yellow,g,1.0,g,1.0,0.6022652499959804,,,,,,,,,,7.0,2.0,86.0,10.0,457.44526549999136,,,,,,,,,,,,,,,,,457.4414255419979,458.63398570899153,459.4258868339966,459.4171261250012,,,,,,,,,,,,,,,,,,,,,,,,,,,,,,,,,,,459.4178649169917,459.4258868339966,459.4258868339966,460.04132774999016,g,1.0,0.6022652499959804,,,,,,sub-100,1,stroop_test,,
,,,,87.0,3.0,7.0,,,,,,,,,,,,,rot,red,r,1.0,r,1.0,0.7991917500039563,,,,,,,,,,7.0,3.0,87.0,0.0,460.04663170898857,,,,,,,,,,,,,,,,,460.0417777919938,460.1338259170007,460.9288308749965,460.9172581669991,,,,,,,,,,,,,,,,,,,,,,,,,,,,,,,,,,,460.9208288339869,460.9288308749965,460.9288308749965,461.7309174169932,r,1.0,0.7991917500039563,,,,,,sub-100,1,stroop_test,,
,,,,88.0,4.0,7.0,,,,,,,,,,,,,rot,red,r,1.0,r,1.0,0.6802871660038363,,,,,,,,,,7.0,4.0,88.0,1.0,461.7413182089949,,,,,,,,,,,,,,,,,461.7315832919994,462.07748633399024,462.8687932920002,462.8615775840008,,,,,,,,,,,,,,,,,,,,,,,,,,,,,,,,,,,462.862162874997,462.8687932920002,462.8687932920002,463.552563041987,r,1.0,0.6802871660038363,,,,,,sub-100,1,stroop_test,,
,,,,89.0,5.0,7.0,,,,,,,,,,,,,gelb,blue,b,0.0,b,1.0,0.9149936670000898,,,,,,,,,,7.0,5.0,89.0,9.0,463.5630117919936,,,,,,,,,,,,,,,,,463.55313179199584,463.90079895898816,464.69648470899847,464.6840289589891,,,,,,,,,,,,,,,,,,,,,,,,,,,,,,,,,,,464.6892046669964,464.69648470899847,464.69648470899847,465.6249567499908,b,1.0,0.9149936670000898,,,,,,sub-100,1,stroop_test,,
,,,,90.0,6.0,7.0,,,,,,,,,,,,,blau,blue,b,1.0,b,1.0,0.4924487500102259,,,,,,,,,,7.0,6.0,90.0,6.0,465.630165124996,,,,,,,,,,,,,,,,,465.625436916991,465.9676629589958,466.7727390419896,466.7615852919989,,,,,,,,,,,,,,,,,,,,,,,,,,,,,,,,,,,466.7655182089948,466.7727390419896,466.7727390419896,467.26897525000095,b,1.0,0.4924487500102259,,,,,,sub-100,1,stroop_test,,
,,,,91.0,7.0,7.0,,,,,,,,,,,,,gelb,red,r,0.0,r,1.0,1.6595952089992352,,,,,,,,,,7.0,7.0,91.0,8.0,467.2789004169899,,,,,,,,,,,,,,,,,467.2694948749995,467.3666447089927,468.16048166700057,468.15003520899336,,,,,,,,,,,,,,,,,,,,,,,,,,,,,,,,,,,468.1536111669993,468.16048166700057,468.16048166700057,469.8296374589991,r,1.0,1.6595952089992352,,,,,,sub-100,1,stroop_test,,
,,,,92.0,8.0,7.0,,,,,,,,,,,,,blau,yellow,g,0.0,g,1.0,1.4947262500063516,,,,,,,,,,7.0,8.0,92.0,7.0,469.8401746249874,,,,,,,,,,,,,,,,,469.8303485419892,470.6276800839987,471.4230804589897,471.4114503339952,,,,,,,,,,,,,,,,,,,,,,,,,,,,,,,,,,,471.41602345899446,471.4230804589897,471.4230804589897,472.92945783399045,g,1.0,1.4947262500063516,,,,,,sub-100,1,stroop_test,,
,,,,93.0,9.0,7.0,,,,,,,,,,,,,blau,red,r,0.0,r,1.0,1.3631395830016118,,,,,,,,,,7.0,9.0,93.0,4.0,472.9406777089898,,,,,,,,,,,,,,,,,472.9302238749952,473.27745237499767,474.0693529169948,474.0615224590001,,,,,,,,,,,,,,,,,,,,,,,,,,,,,,,,,,,474.06228195899166,474.0693529169948,474.0693529169948,475.435227791997,r,1.0,1.3631395830016118,,,,,,sub-100,1,stroop_test,,
,,,,94.0,10.0,7.0,,,,,,,,,,,,,rot,blue,b,0.0,b,1.0,1.1021477920003235,,,,,,,,,,7.0,10.0,94.0,2.0,475.4459871250001,,,,,,,,,,,,,,,,,475.43580324998766,475.7834605419921,476.57876829199085,476.5672024999949,,,,,,,,,,,,,,,,,,,,,,,,,,,,,,,,,,,476.5707942500012,476.57876829199085,476.57876829199085,477.6858256669948,b,1.0,1.1021477920003235,,,,,,sub-100,1,stroop_test,,
,,,,95.0,11.0,7.0,,,,,,,,,,,,,blau,blue,b,1.0,b,1.0,0.7153821669926401,,,,,,,,,,7.0,11.0,95.0,5.0,477.6959901669906,,,,,,,,,,,,,,,,,477.686411333998,478.0340108749952,478.82865054199647,478.8172286669869,,,,,,,,,,,,,,,,,,,,,,,,,,,,,,,,,,,478.820862291992,478.82865054199647,478.82865054199647,479.5466442089965,b,1.0,0.7153821669926401,,,,,,sub-100,1,stroop_test,,
,,,,96.0,0.0,8.0,,,,,,,,,,,,,rot,blue,b,0.0,b,1.0,1.0720087500085356,,,,,,,,,,8.0,0.0,96.0,2.0,479.5580264169985,,,,,,,,,,,,,,,,,479.5475364589947,479.8941415839945,480.6902423339925,480.6782061249978,,,,,,,,,,,,,,,,,,,,,,,,,,,,,,,,,,,480.6821789589885,480.6902423339925,480.6902423339925,481.76918304199353,b,1.0,1.0720087500085356,,,,,,sub-100,1,stroop_test,,
,,,,97.0,1.0,8.0,,,,,,,,,,,,,blau,red,r,0.0,r,1.0,0.9323196250043112,,,,,,,,,,8.0,1.0,97.0,4.0,481.7821791669994,,,,,,,,,,,,,,,,,481.7698438340012,482.9674343340012,483.76264479199017,483.75066795900057,,,,,,,,,,,,,,,,,,,,,,,,,,,,,,,,,,,483.75546662499255,483.76264479199017,483.76264479199017,484.7096136249893,r,1.0,0.9323196250043112,,,,,,sub-100,1,stroop_test,,
,,,,98.0,2.0,8.0,,,,,,,,,,,,,blau,blue,b,1.0,b,1.0,0.8137604169896804,,,,,,,,,,8.0,2.0,98.0,5.0,484.7146363339998,,,,,,,,,,,,,,,,,484.7100367499952,485.0509037499869,485.8522431249876,485.844841416998,,,,,,,,,,,,,,,,,,,,,,,,,,,,,,,,,,,485.8454321669997,485.8522431249876,485.8522431249876,486.6686409589893,b,1.0,0.8137604169896804,,,,,,sub-100,1,stroop_test,,
,,,,99.0,3.0,8.0,,,,,,,,,,,,,gelb,blue,b,0.0,b,1.0,0.6992418750014622,,,,,,,,,,8.0,3.0,99.0,9.0,486.6796352919919,,,,,,,,,,,,,,,,,486.6692056249885,487.4668916669907,488.26250529199024,488.2510103339882,,,,,,,,,,,,,,,,,,,,,,,,,,,,,,,,,,,488.2548114589881,488.26250529199024,488.26250529199024,488.9689412500011,b,1.0,0.6992418750014622,,,,,,sub-100,1,stroop_test,,
,,,,100.0,4.0,8.0,,,,,,,,,,,,,gelb,yellow,g,1.0,g,1.0,0.5662593330052914,,,,,,,,,,8.0,4.0,100.0,11.0,488.9793184589944,,,,,,,,,,,,,,,,,488.9695169999905,489.7668092499953,490.5592162919929,490.55092899999,,,,,,,,,,,,,,,,,,,,,,,,,,,,,,,,,,,490.5515034589917,490.5592162919929,490.5592162919929,491.130142916998,g,1.0,0.5662593330052914,,,,,,sub-100,1,stroop_test,,
,,,,101.0,5.0,8.0,,,,,,,,,,,,,blau,blue,b,1.0,b,1.0,0.8097200000047451,,,,,,,,,,8.0,5.0,101.0,6.0,491.14063895899744,,,,,,,,,,,,,,,,,491.13088945898926,491.9275269169884,492.7229472499894,492.71157216699794,,,,,,,,,,,,,,,,,,,,,,,,,,,,,,,,,,,492.7159184169868,492.7229472499894,492.7229472499894,493.5356059999904,b,1.0,0.8097200000047451,,,,,,sub-100,1,stroop_test,,
,,,,102.0,6.0,8.0,,,,,,,,,,,,,blau,yellow,g,0.0,r,0.0,1.3296080000000077,,,,,,,,,,8.0,6.0,102.0,7.0,493.5461165419984,,,,,,,,,,,,,,,,,493.53622787499626,494.3342667919933,495.1258558749978,495.1174693339999,,,,,,,,,,,,,,,,,,,,,,,,,,,,,,,,,,,495.1180601249944,495.1258558749978,495.1258558749978,496.46287833398674,r,0.0,1.3296080000000077,,,,,,sub-100,1,stroop_test,,
,,,,103.0,7.0,8.0,,,,,,,,,,,,,rot,red,r,1.0,r,1.0,0.8959169590089004,,,,,,,,,,8.0,7.0,103.0,0.0,496.4737978749909,,,,,,,,,,,,,,,,,496.4635675419995,497.6608097499993,498.4572058749909,498.4448645839875,,,,,,,,,,,,,,,,,,,,,,,,,,,,,,,,,,,498.44947283399233,498.4572058749909,498.4572058749909,499.3629529589962,r,1.0,0.8959169590089004,,,,,,sub-100,1,stroop_test,,
,,,,104.0,8.0,8.0,,,,,,,,,,,,,gelb,yellow,g,1.0,g,1.0,1.5555759999988368,,,,,,,,,,8.0,8.0,104.0,10.0,499.3744654589973,,,,,,,,,,,,,,,,,499.36371487499855,499.4607852919871,500.2566420840012,500.24498479199247,,,,,,,,,,,,,,,,,,,,,,,,,,,,,,,,,,,500.2494776669919,500.2566420840012,500.2566420840012,501.81857324999874,g,1.0,1.5555759999988368,,,,,,sub-100,1,stroop_test,,
,,,,105.0,9.0,8.0,,,,,,,,,,,,,rot,yellow,g,0.0,g,1.0,0.7456591669906629,,,,,,,,,,8.0,9.0,105.0,3.0,501.8272260419908,,,,,,,,,,,,,,,,,501.81909283399,502.16703783399134,502.973428583995,502.9617729169986,,,,,,,,,,,,,,,,,,,,,,,,,,,,,,,,,,,502.9661378339952,502.973428583995,502.973428583995,503.72978670899465,g,1.0,0.7456591669906629,,,,,,sub-100,1,stroop_test,,
,,,,106.0,10.0,8.0,,,,,,,,,,,,,gelb,red,r,0.0,r,1.0,1.3601805829966906,,,,,,,,,,8.0,10.0,106.0,8.0,503.7401236250007,,,,,,,,,,,,,,,,,503.7305458339979,504.52730583399534,505.3243840419891,505.3115732919978,,,,,,,,,,,,,,,,,,,,,,,,,,,,,,,,,,,505.317175291988,505.3243840419891,505.3243840419891,506.6971459589986,r,1.0,1.3601805829966906,,,,,,sub-100,1,stroop_test,,
,,,,107.0,11.0,8.0,,,,,,,,,,,,,rot,red,r,1.0,r,1.0,0.7458370000094874,,,,,,,,,,8.0,11.0,107.0,1.0,506.7107841669931,,,,,,,,,,,,,,,,,506.6975207919895,507.4941217089945,508.28964420899865,508.2782897089928,,,,,,,,,,,,,,,,,,,,,,,,,,,,,,,,,,,508.2822498339956,508.28964420899865,508.28964420899865,509.046185166997,r,1.0,0.7458370000094874,,,,,,sub-100,1,stroop_test,,
,,,,108.0,0.0,9.0,,,,,,,,,,,,,gelb,blue,b,0.0,b,1.0,0.7218771250045393,,,,,,,,,,9.0,0.0,108.0,9.0,509.056135833991,,,,,,,,,,,,,,,,,509.04677224998886,509.394076749988,510.1894744589954,510.17816704198776,,,,,,,,,,,,,,,,,,,,,,,,,,,,,,,,,,,510.1825612919929,510.1894744589954,510.1894744589954,510.92421804199694,b,1.0,0.7218771250045393,,,,,,sub-100,1,stroop_test,,
,,,,109.0,1.0,9.0,,,,,,,,,,,,,blau,red,r,0.0,r,1.0,0.7584795000002487,,,,,,,,,,9.0,1.0,109.0,4.0,510.9285533340008,,,,,,,,,,,,,,,,,510.9246509999939,512.1173426249879,512.9122167089954,512.9005343339959,,,,,,,,,,,,,,,,,,,,,,,,,,,,,,,,,,,512.9041786669986,512.9122167089954,512.9122167089954,513.6795836669917,r,1.0,0.7584795000002487,,,,,,sub-100,1,stroop_test,,
,,,,110.0,2.0,9.0,,,,,,,,,,,,,gelb,yellow,g,1.0,g,1.0,1.332021916998201,,,,,,,,,,9.0,2.0,110.0,10.0,513.6899346249993,,,,,,,,,,,,,,,,,513.680253958999,513.777389541996,514.5725762919901,514.5613927919912,,,,,,,,,,,,,,,,,,,,,,,,,,,,,,,,,,,514.5654036249907,514.5725762919901,514.5725762919901,515.9133599999914,g,1.0,1.332021916998201,,,,,,sub-100,1,stroop_test,,
,,,,111.0,3.0,9.0,,,,,,,,,,,,,blau,blue,b,1.0,b,1.0,1.1709661670029163,,,,,,,,,,9.0,3.0,111.0,6.0,515.9230837919895,,,,,,,,,,,,,,,,,515.9140265419992,517.1106687499996,517.9065322499955,517.8949543749914,,,,,,,,,,,,,,,,,,,,,,,,,,,,,,,,,,,517.899494917001,517.9065322499955,517.9065322499955,519.07999745899,b,1.0,1.1709661670029163,,,,,,sub-100,1,stroop_test,,
,,,,112.0,4.0,9.0,,,,,,,,,,,,,rot,blue,b,0.0,b,1.0,0.7206100420007715,,,,,,,,,,9.0,4.0,112.0,2.0,519.090242249993,,,,,,,,,,,,,,,,,519.0807058749924,519.1775315839914,519.9734833749972,519.9616043749993,,,,,,,,,,,,,,,,,,,,,,,,,,,,,,,,,,,519.9660022919998,519.9734833749972,519.9734833749972,520.6966471249907,b,1.0,0.7206100420007715,,,,,,sub-100,1,stroop_test,,
,,,,113.0,5.0,9.0,,,,,,,,,,,,,rot,yellow,g,0.0,g,1.0,1.9985220420057883,,,,,,,,,,9.0,5.0,113.0,3.0,520.7073195419944,,,,,,,,,,,,,,,,,520.6974629999895,521.8941118749935,522.6852614169911,522.6780472499959,,,,,,,,,,,,,,,,,,,,,,,,,,,,,,,,,,,522.6786400839919,522.6852614169911,522.6852614169911,524.6862589169905,g,1.0,1.9985220420057883,,,,,,sub-100,1,stroop_test,,
,,,,114.0,6.0,9.0,,,,,,,,,,,,,rot,red,r,1.0,r,1.0,0.8646311669872375,,,,,,,,,,9.0,6.0,114.0,1.0,524.696310542,,,,,,,,,,,,,,,,,524.6869582919899,525.4834169589885,526.2758452919952,526.2675459999882,,,,,,,,,,,,,,,,,,,,,,,,,,,,,,,,,,,526.2681218340003,526.2758452919952,526.2758452919952,527.146643125001,r,1.0,0.8646311669872375,,,,,,sub-100,1,stroop_test,,
,,,,115.0,7.0,9.0,,,,,,,,,,,,,blau,yellow,g,0.0,g,1.0,1.3037097499909578,,,,,,,,,,9.0,7.0,115.0,7.0,527.1571415419894,,,,,,,,,,,,,,,,,527.1474783339945,528.3443764589902,529.1407915839955,529.1282019589999,,,,,,,,,,,,,,,,,,,,,,,,,,,,,,,,,,,529.1335693750007,529.1407915839955,529.1407915839955,530.4474104589899,g,1.0,1.3037097499909578,,,,,,sub-100,1,stroop_test,,
,,,,116.0,8.0,9.0,,,,,,,,,,,,,blau,blue,b,1.0,b,1.0,0.8166137090011034,,,,,,,,,,9.0,8.0,116.0,5.0,530.4589962499886,,,,,,,,,,,,,,,,,530.4481576669932,530.7940706669906,531.5858643749962,531.5782943749946,,,,,,,,,,,,,,,,,,,,,,,,,,,,,,,,,,,531.5790599169995,531.5858643749962,531.5858643749962,532.412863458987,b,1.0,0.8166137090011034,,,,,,sub-100,1,stroop_test,,
,,,,117.0,9.0,9.0,,,,,,,,,,,,,rot,red,r,1.0,r,1.0,0.8151625410100678,,,,,,,,,,9.0,9.0,117.0,0.0,532.4239144589956,,,,,,,,,,,,,,,,,532.413590791999,533.2109280419972,534.00695825,533.9950471669872,,,,,,,,,,,,,,,,,,,,,,,,,,,,,,,,,,,533.9996035419899,534.00695825,534.00695825,534.8295545839937,r,1.0,0.8151625410100678,,,,,,sub-100,1,stroop_test,,
,,,,118.0,10.0,9.0,,,,,,,,,,,,,gelb,red,r,0.0,r,1.0,0.6520388749922859,,,,,,,,,,9.0,10.0,118.0,8.0,534.8391259999917,,,,,,,,,,,,,,,,,534.8302672499995,535.6273210840009,536.423390416996,536.4116779999895,,,,,,,,,,,,,,,,,,,,,,,,,,,,,,,,,,,536.4162768749957,536.423390416996,536.423390416996,537.079567333989,r,1.0,0.6520388749922859,,,,,,sub-100,1,stroop_test,,
,,,,119.0,11.0,9.0,,,,,,,,,,,,,gelb,yellow,g,1.0,g,1.0,1.0314314999995986,,,,,,,,,,9.0,11.0,119.0,11.0,537.0899356250011,,,,,,,,,,,,,,,,,537.0802820419922,538.2774712089886,539.0696992919984,539.0618738339981,,,,,,,,,,,,,,,,,,,,,,,,,,,,,,,,,,,539.0626551669993,539.0696992919984,539.0696992919984,540.1129046669957,g,1.0,1.0314314999995986,,,,,,sub-100,1,stroop_test,,
,,,,,,,,,,,,,,,,,,,,,,,,,,,,,,,,,,,,,,,,,,,,,,,,,,,,,,,,,,,,,,,,,,,,,,,,,,,,,,,,,,,,,,,,,,,,,,,,,,,,,,540.1132072499895,540.1250028749928,545.1154002089897,545.1114268339879,sub-100,1,stroop_test,,
