direction,corrAns,thisN,thisTrialN,thisRepN,respDots.keys,respDots.corr,respDots.rt,respDots.duration,randomInstr,respRandomInstr.keys,respRandomInstr.rt,respRandomInstr.duration,practice_trials.thisRepN,practice_trials.thisTrialN,practice_trials.thisN,practice_trials.thisIndex,instr_trials.thisRepN,instr_trials.thisTrialN,instr_trials.thisN,instr_trials.thisIndex,test_trials.thisRepN,test_trials.thisTrialN,test_trials.thisN,test_trials.thisIndex,thisRow.t,notes,general_instruction.started,textGeneralInstr.started,respGeneralInstr.started,general_instruction.stopped,respGeneralInstr.keys,respGeneralInstr.rt,respGeneralInstr.duration,ITI.started,fixcross.started,fixcross.stopped,ITI.stopped,dots.started,backgroundDots.started,stimulusDots.started,respDots.started,dots.stopped,practice_trials.respDots.keys,practice_trials.respDots.corr,practice_trials.respDots.rt,practice_trials.respDots.duration,feedback.started,textFeedback.started,feedback.stopped,textFeedback.stopped,info.started,textInfo.started,keyRespInfo.started,info.stopped,keyRespInfo.keys,keyRespInfo.rt,keyRespInfo.duration,test_instruction.started,textTestInstr.started,respTestInstr.started,test_instruction.stopped,respTestInstr.keys,respTestInstr.rt,respTestInstr.duration,random_instruction.started,textRandomInstr.started,respRandomInstr.started,random_instruction.stopped,instr_trials.respRandomInstr.keys,instr_trials.respRandomInstr.rt,instr_trials.respRandomInstr.duration,test_trials.respDots.keys,test_trials.respDots.corr,test_trials.respDots.rt,test_trials.respDots.duration,stimulusDots.stopped,goodbye.started,textGoodbye.started,goodbye.stopped,participant,session,expName,frameRate,Unnamed: 87
,,,,,,,,,,,,,,,,,,,,,,,,,,,0.0071916250017238,0.0148784159973729,0.0148784159973729,30.268282749995706,space,30.248474749998422,,,,,,,,,,,,,,,,,,,,,,,,,,,,,,,,,,,,,,,,,,,,,,,,sub-044,1,random_dot,,
right,right,0.0,0.0,0.0,right,1.0,2.350922500001616,,,,,,0.0,0.0,0.0,1.0,,,,,,,,,30.29828245799581,,,,,,,,,30.28573133300233,30.376264416001504,31.177814166003373,31.16105345799588,31.1618020409951,31.177814166003373,31.177814166003373,31.177814166003373,33.536066583008505,right,1.0,2.350922500001616,,33.54646604100708,33.58680937500321,34.044041333007044,,,,,,,,,,,,,,,,,,,,,,,,,,,,,,,sub-044,1,random_dot,,
left,left,1.0,1.0,0.0,right,0.0,1.7500513749982929,,,,,,0.0,1.0,1.0,0.0,,,,,,,,,34.04976824999903,,,,,,,,,34.044739125005435,34.13332254100533,34.925635166000575,34.916811250004685,34.917282291004085,34.925635166000575,34.925635166000575,34.925635166000575,36.68656720800209,right,0.0,1.7500513749982929,,36.69399887499458,36.69895933300722,37.18326520800474,37.19385779100412,,,,,,,,,,,,,,,,,,,,,,,,,,,,,,sub-044,1,random_dot,,
right,right,2.0,0.0,1.0,left,0.0,2.0307107499975245,,,,,,1.0,0.0,2.0,1.0,,,,,,,,,37.19385779100412,,,,,,,,,37.18365620799887,37.28246729100647,38.07698620800511,38.06557841600443,38.06611954100663,38.07698620800511,38.07698620800511,38.07698620800511,40.11102199999732,left,0.0,2.0307107499975245,,40.111199791004765,40.119414500004495,40.61096429100144,40.61652020800102,,,,,,,,,,,,,,,,,,,,,,,,,,,,,,sub-044,1,random_dot,,
left,left,3.0,1.0,1.0,right,0.0,1.0378082079987507,,,,,,1.0,1.0,3.0,0.0,,,,,,,,,40.61652020800102,,,,,,,,,40.61160533300426,40.69990562500607,41.49277825000172,41.482656332998886,41.48309925000649,41.49277825000172,41.49277825000172,41.49277825000172,42.53470383300737,right,0.0,1.0378082079987507,,42.53484687500168,42.54324279099819,43.02765529100725,43.033286624995526,,,,,,,,,,,,,,,,,,,,,,,,,,,,,,sub-044,1,random_dot,,
right,right,4.0,0.0,2.0,right,1.0,2.5694495829957305,,,,,,2.0,0.0,4.0,1.0,,,,,,,,,43.033286624995526,,,,,,,,,43.02826125000138,43.38346454099519,44.17620912499842,44.166146208008286,44.16662637500849,44.17620912499842,44.17620912499842,44.17620912499842,46.752210916005424,right,1.0,2.5694495829957305,,46.7563636249979,46.76564541600237,47.250104874998215,47.26066416599497,,,,,,,,,,,,,,,,,,,,,,,,,,,,,,sub-044,1,random_dot,,
left,left,5.0,1.0,2.0,right,0.0,1.5240916670009028,,,,,,2.0,1.0,5.0,0.0,,,,,,,,,47.26066416599497,,,,,,,,,47.25049541599583,48.04965675000858,48.8421970000054,48.833479082997655,48.83392516600725,48.8421970000054,48.8421970000054,48.8421970000054,50.36762537500181,right,0.0,1.5240916670009028,,50.371447458004695,50.381015833001584,50.866981540995766,50.87728716600395,,,,,,,,,,,,,,,,,,,,,,,,,,,,,,sub-044,1,random_dot,,
left,left,6.0,0.0,3.0,left,1.0,1.2502547920012148,,,,,,3.0,0.0,6.0,0.0,,,,,,,,,50.87728716600395,,,,,,,,,50.867442707996815,52.0667803749966,52.8588632500032,52.85004908300471,52.85050083299575,52.8588632500032,52.8588632500032,52.8588632500032,54.1105050000042,left,1.0,1.2502547920012148,,54.11455549999664,54.123747250007,54.610878916006186,,,,,,,,,,,,,,,,,,,,,,,,,,,,,,,sub-044,1,random_dot,,
right,right,7.0,1.0,3.0,right,1.0,1.2637072920042556,,,,,,3.0,1.0,7.0,1.0,,,,,,,,,54.61649066599784,,,,,,,,,54.61156066600233,55.40019704100269,56.19229929099674,56.18344933299522,56.18389924999792,56.19229929099674,56.19229929099674,56.19229929099674,57.46104808300152,right,1.0,1.2637072920042556,,57.46123324999644,57.47047808300704,57.961043540999526,57.96649975000764,,,,,,,,,,,,,,,,,,,,,,,,,,,,,,sub-044,1,random_dot,,
right,right,8.0,0.0,4.0,left,0.0,1.2698215409909608,,,,,,4.0,0.0,8.0,1.0,,,,,,,,,57.96649975000764,,,,,,,,,57.961652833007975,58.74984120800218,59.552178124999045,59.54433400000562,59.54506787500577,59.552178124999045,59.552178124999045,59.552178124999045,60.8285587910068,left,0.0,1.2698215409909608,,60.833814875004464,60.84318745799828,61.32752154099581,61.33279629099707,,,,,,,,,,,,,,,,,,,,,,,,,,,,,,sub-044,1,random_dot,,
left,left,9.0,1.0,4.0,right,0.0,1.1448058340029093,,,,,,4.0,1.0,9.0,0.0,,,,,,,,,61.33279629099707,,,,,,,,,61.32802337499743,61.67722466599662,62.46910924999975,62.46108500000264,62.46181445800176,62.46910924999975,62.46910924999975,62.46910924999975,63.61931066600664,right,0.0,1.1448058340029093,,63.61945941600425,63.62917975000164,64.11674275000405,64.12729662499623,,,,,,,,,,,,,,,,,,,,,,,,,,,,,,sub-044,1,random_dot,,
right,right,10.0,0.0,5.0,left,0.0,1.2909894999902465,,,,,,5.0,0.0,10.0,1.0,,,,,,,,,64.12729662499623,,,,,,,,,64.11714800000482,64.91610337499878,65.7178572499979,65.71028208300413,65.71108424999693,65.7178572499979,65.7178572499979,65.7178572499979,67.01171999999497,left,0.0,1.2909894999902465,,67.01192362500296,67.02195479099464,67.51100100000622,67.51684625000053,,,,,,,,,,,,,,,,,,,,,,,,,,,,,,sub-044,1,random_dot,,
left,left,11.0,1.0,5.0,right,0.0,0.8000275829981547,,,,,,5.0,1.0,11.0,0.0,,,,,,,,,67.51684625000053,,,,,,,,,67.51162900000054,68.31044800000382,69.10272420800175,69.09417412499897,69.09489158300858,69.10272420800175,69.10272420800175,69.10272420800175,69.91109224999673,right,0.0,0.8000275829981547,,69.91125637499499,69.92081525000685,70.41105320800852,70.41689445800148,,,,,,,,,,,,,,,,,,,,,,,,,,,,,,sub-044,1,random_dot,,
left,left,12.0,0.0,6.0,left,1.0,1.1329030000051716,,,,,,6.0,0.0,12.0,0.0,,,,,,,,,70.41689445800148,,,,,,,,,70.41165837500012,70.50057874999766,71.30276849999791,71.29439999999886,71.29509416599467,71.30276849999791,71.30276849999791,71.30276849999791,72.4442824160069,left,1.0,1.1329030000051716,,72.4489410410024,72.45858783299627,72.94435229100054,72.95002262499474,,,,,,,,,,,,,,,,,,,,,,,,,,,,,,sub-044,1,random_dot,,
right,right,13.0,1.0,6.0,left,0.0,1.211148417001823,,,,,,6.0,1.0,13.0,1.0,,,,,,,,,72.95002262499474,,,,,,,,,72.94498075000593,73.03350416600006,73.82553554100741,73.81682908300718,73.8172737910063,73.82553554100741,73.82553554100741,73.82553554100741,75.04422262500157,left,0.0,1.211148417001823,,75.04862195800524,75.05736649999744,75.54409154099994,75.54932637499587,,,,,,,,,,,,,,,,,,,,,,,,,,,,,,sub-044,1,random_dot,,
right,right,14.0,0.0,7.0,right,1.0,1.094061708994559,,,,,,7.0,0.0,14.0,1.0,,,,,,,,,75.54932637499587,,,,,,,,,75.54459295800189,76.33232745800342,77.12556987500284,77.11683349999657,77.11741829100356,77.12556987500284,77.12556987500284,77.12556987500284,78.22874470800161,right,1.0,1.094061708994559,,78.23279662500136,78.2411391659989,78.72728037499473,78.73150116599572,,,,,,,,,,,,,,,,,,,,,,,,,,,,,,sub-044,1,random_dot,,
left,left,15.0,1.0,7.0,right,0.0,1.5973315000010189,,,,,,7.0,1.0,15.0,0.0,,,,,,,,,78.73150116599572,,,,,,,,,78.72769791599421,79.52736700000241,80.31918579099874,80.3108457079943,80.31153000000631,80.31918579099874,80.31918579099874,80.31918579099874,81.92858766599966,right,0.0,1.5973315000010189,,81.93279966599948,81.94247991600423,82.42785266600549,82.43366091599455,,,,,,,,,,,,,,,,,,,,,,,,,,,,,,sub-044,1,random_dot,,
right,right,16.0,0.0,8.0,left,0.0,2.0061125829961384,,,,,,8.0,0.0,16.0,1.0,,,,,,,,,82.43366091599455,,,,,,,,,82.42848116600362,83.62729254100122,84.41905837500235,84.41092916599882,84.41164087499783,84.41905837500235,84.41905837500235,84.41905837500235,86.4269763330085,left,0.0,2.0061125829961384,,86.42711441600113,86.43605729100818,86.92766283299716,,,,,,,,,,,,,,,,,,,,,,,,,,,,,,,sub-044,1,random_dot,,
left,left,17.0,1.0,8.0,right,0.0,1.2847420000034615,,,,,,8.0,1.0,17.0,0.0,,,,,,,,,86.93350962499972,,,,,,,,,86.92836325000098,88.11631029100681,88.91930791600316,88.91103495800053,88.91175079099776,88.91930791600316,88.91930791600316,88.91930791600316,90.21122854099669,right,0.0,1.2847420000034615,,90.21142554099788,90.22031808299651,90.71104204100266,90.71658620800008,,,,,,,,,,,,,,,,,,,,,,,,,,,,,,sub-044,1,random_dot,,
right,right,18.0,0.0,9.0,right,1.0,1.246529666997958,,,,,,9.0,0.0,18.0,1.0,,,,,,,,,90.71658620800008,,,,,,,,,90.71167545800564,91.4998567080038,92.29243558300368,92.2833441660041,92.28379983300692,92.29243558300368,92.29243558300368,92.29243558300368,93.54412820799917,right,1.0,1.246529666997958,,93.54918987500425,93.55838979099644,94.04437016599697,94.05002833300388,,,,,,,,,,,,,,,,,,,,,,,,,,,,,,sub-044,1,random_dot,,
left,left,19.0,1.0,9.0,left,1.0,1.7762047909927787,,,,,,9.0,1.0,19.0,0.0,,,,,,,,,94.05002833300388,,,,,,,,,94.04501266599982,94.38343983300727,95.17552249999426,95.16699079099637,95.16752920800354,95.17552249999426,95.17552249999426,95.17552249999426,96.96037795800656,left,1.0,1.7762047909927787,,96.96051779099798,96.9693985000049,97.46068208300858,,,,,,,,,,,,,,,,,,,,,,,,,,,,,,,sub-044,1,random_dot,,
,,,,,,,,,,,,,,,,,,,,,,,,,,,,,,,,,,,,,,,,,,,,,,,,,,,97.460927291002,97.46829625000828,97.46829625000828,112.312250707997,space,14.835127333994024,,,,,,,,,,,,,,,,,,,,,,,,sub-044,1,random_dot,,
,,,,,,,,,,,,,,,,,,,,,,,,,,,,,,,,,,,,,,,,,,,,,,,,,,,,,,,,,,112.31234658299944,112.32571195800848,112.32571195800848,117.36845845800416,space,5.0377870419906685,,,,,,,,,,,,,,,,,sub-044,1,random_dot,,
left,left,0.0,0.0,0.0,right,0.0,1.7311378750018775,,accuracy,space,7.554140874999575,,,,,,0.0,0.0,0.0,0.0,0.0,0.0,0.0,0.0,124.98256529100765,,,,,,,,,124.9752187080012,125.0605727910006,125.85969495799507,125.8475773329992,125.84803783299868,125.85969495799507,125.85969495799507,125.85969495799507,127.59464091599511,,,,,,,,,,,,,,,,,,,,,,,117.39098758299951,117.39915112500604,117.39915112500604,124.96280970799852,space,7.554140874999575,,right,0.0,1.7311378750018775,,,,,,sub-044,1,random_dot,,
right,right,1.0,1.0,0.0,right,1.0,1.970314292004332,,accuracy,space,7.554140874999575,,,,,,0.0,0.0,0.0,0.0,0.0,1.0,1.0,1.0,127.60358958299912,,,,,,,,,127.59534512499522,127.93380779100698,128.72554699999455,128.7168528750044,128.71730358300556,128.72554699999455,128.72554699999455,128.72554699999455,130.70264670799952,,,,,,,,,,,,,,,,,,,,,,,,,,,,,,right,1.0,1.970314292004332,,,,,,sub-044,1,random_dot,,
left,left,2.0,0.0,1.0,left,1.0,1.1793217500089668,,accuracy,space,7.554140874999575,,,,,,0.0,0.0,0.0,0.0,1.0,0.0,2.0,0.0,130.7125475829962,,,,,,,,,130.70314187499753,131.9000732910063,132.69243220800126,132.68337729100313,132.68383599999652,132.69243220800126,132.69243220800126,132.69243220800126,133.87869533299818,,,,,,,,,,,,,,,,,,,,,,,,,,,,,,left,1.0,1.1793217500089668,,,,,,sub-044,1,random_dot,,
right,right,3.0,1.0,1.0,left,0.0,1.9107991670025517,,accuracy,space,7.554140874999575,,,,,,0.0,0.0,0.0,0.0,1.0,1.0,3.0,1.0,133.88776949999738,,,,,,,,,133.87941216600302,133.9773122080078,134.76980937500775,134.761217916006,134.76194341600058,134.76980937500775,134.76980937500775,134.76980937500775,136.68489408299502,,,,,,,,,,,,,,,,,,,,,,,,,,,,,,left,0.0,1.9107991670025517,,,,,,sub-044,1,random_dot,,
left,left,4.0,0.0,2.0,right,0.0,1.7000354579940904,,accuracy,space,7.554140874999575,,,,,,0.0,0.0,0.0,0.0,2.0,0.0,4.0,0.0,136.7104341249942,,,,,,,,,136.6853920830035,136.78338195799734,137.57553645799635,137.56714241599548,137.5675917500048,137.57553645799635,137.57553645799635,137.57553645799635,139.27749420799955,,,,,,,,,,,,,,,,,,,,,,,,,,,,,,right,0.0,1.7000354579940904,,,,,,sub-044,1,random_dot,,
right,right,5.0,1.0,2.0,right,1.0,2.134535666991724,,accuracy,space,7.554140874999575,,,,,,0.0,0.0,0.0,0.0,2.0,1.0,5.0,1.0,139.2832931659941,,,,,,,,,139.27814591600327,140.0661339579965,140.8589208330086,140.8500834160077,140.85062754100363,140.8589208330086,140.8589208330086,140.8589208330086,142.99537679100467,,,,,,,,,,,,,,,,,,,,,,,,,,,,,,right,1.0,2.134535666991724,,,,,,sub-044,1,random_dot,,
right,right,6.0,0.0,3.0,left,0.0,1.6923290830018232,,accuracy,space,7.554140874999575,,,,,,0.0,0.0,0.0,0.0,3.0,0.0,6.0,1.0,143.00112120799895,,,,,,,,,142.99607062499854,143.79383337500622,144.5860050409974,144.5777767499967,144.57848608300264,144.5860050409974,144.5860050409974,144.5860050409974,146.28643012500834,,,,,,,,,,,,,,,,,,,,,,,,,,,,,,left,0.0,1.6923290830018232,,,,,,sub-044,1,random_dot,,
left,left,7.0,1.0,3.0,left,1.0,1.2284058750083204,,accuracy,space,7.554140874999575,,,,,,0.0,0.0,0.0,0.0,3.0,1.0,7.0,0.0,146.29747120800312,,,,,,,,,146.2869942910038,147.48330279100628,148.27594683300413,148.26657404100115,148.2670286250068,148.27594683300413,148.27594683300413,148.27594683300413,149.51103550000698,,,,,,,,,,,,,,,,,,,,,,,,,,,,,,left,1.0,1.2284058750083204,,,,,,sub-044,1,random_dot,,
left,left,8.0,0.0,4.0,right,0.0,1.6990242910105735,,accuracy,space,7.554140874999575,,,,,,0.0,0.0,0.0,0.0,4.0,0.0,8.0,0.0,149.52057466600672,,,,,,,,,149.5117382909957,149.600469625002,150.39225691600586,150.3835621659964,150.38410929100064,150.39225691600586,150.39225691600586,150.39225691600586,152.09365237499878,,,,,,,,,,,,,,,,,,,,,,,,,,,,,,right,0.0,1.6990242910105735,,,,,,sub-044,1,random_dot,,
right,right,9.0,1.0,4.0,right,1.0,1.8753397919936103,,accuracy,space,7.554140874999575,,,,,,0.0,0.0,0.0,0.0,4.0,1.0,9.0,1.0,152.09903016600583,,,,,,,,,152.09414475000813,152.18321583300713,152.9758076660073,152.96672991600644,152.96718350000447,152.9758076660073,152.9758076660073,152.9758076660073,154.86203175000264,,,,,,,,,,,,,,,,,,,,,,,,,,,,,,right,1.0,1.8753397919936103,,,,,,sub-044,1,random_dot,,
right,right,10.0,0.0,5.0,left,0.0,1.7437828330002958,,accuracy,space,7.554140874999575,,,,,,0.0,0.0,0.0,0.0,5.0,0.0,10.0,1.0,154.87131029099692,,,,,,,,,154.86275483299687,154.96049862500513,155.75244183299947,155.7443289579969,155.7450409160083,155.75244183299947,155.75244183299947,155.75244183299947,157.50258645799477,,,,,,,,,,,,,,,,,,,,,,,,,,,,,,left,0.0,1.7437828330002958,,,,,,sub-044,1,random_dot,,
left,left,11.0,1.0,5.0,left,1.0,2.12651470900164,,accuracy,space,7.554140874999575,,,,,,0.0,0.0,0.0,0.0,5.0,1.0,11.0,0.0,157.51217400000314,,,,,,,,,157.50307645800058,157.60031666600844,158.39261966600316,158.38324454100805,158.3837068330031,158.39261966600316,158.39261966600316,158.39261966600316,160.52855783300765,,,,,,,,,,,,,,,,,,,,,,,,,,,,,,left,1.0,2.12651470900164,,,,,,sub-044,1,random_dot,,
left,left,12.0,0.0,6.0,left,1.0,1.7489556670043385,,accuracy,space,7.554140874999575,,,,,,0.0,0.0,0.0,0.0,6.0,0.0,12.0,0.0,160.53769720799755,,,,,,,,,160.5290885410068,161.32721825000772,162.11907570800395,162.1110997079959,162.1116608750017,162.11907570800395,162.11907570800395,162.11907570800395,163.87875562500267,,,,,,,,,,,,,,,,,,,,,,,,,,,,,,left,1.0,1.7489556670043385,,,,,,sub-044,1,random_dot,,
right,right,13.0,1.0,6.0,right,1.0,1.7495310829981463,,accuracy,space,7.554140874999575,,,,,,0.0,0.0,0.0,0.0,6.0,1.0,13.0,1.0,163.88821112499863,,,,,,,,,163.8795722079958,164.6772947080026,165.46943537499465,165.46094350000203,165.46166733300197,165.46943537499465,165.46943537499465,165.46943537499465,167.2288086250046,,,,,,,,,,,,,,,,,,,,,,,,,,,,,,right,1.0,1.7495310829981463,,,,,,sub-044,1,random_dot,,
left,left,14.0,0.0,7.0,right,0.0,1.9793621659919156,,accuracy,space,7.554140874999575,,,,,,0.0,0.0,0.0,0.0,7.0,0.0,14.0,0.0,167.23813358299958,,,,,,,,,167.22953533299733,168.42718174999754,169.21851700000116,169.2107498330006,169.2113260000042,169.21851700000116,169.21851700000116,169.21851700000116,171.20240516599733,,,,,,,,,,,,,,,,,,,,,,,,,,,,,,right,0.0,1.9793621659919156,,,,,,sub-044,1,random_dot,,
right,right,15.0,1.0,7.0,left,0.0,1.896342708001612,,accuracy,space,7.554140874999575,,,,,,0.0,0.0,0.0,0.0,7.0,1.0,15.0,1.0,171.2123308750015,,,,,,,,,171.20292079099454,172.40035158299725,173.19237516600697,173.18348320800578,173.1839340000006,173.19237516600697,173.19237516600697,173.19237516600697,175.09401270799572,,,,,,,,,,,,,,,,,,,,,,,,,,,,,,left,0.0,1.896342708001612,,,,,,sub-044,1,random_dot,,
left,left,16.0,0.0,8.0,left,1.0,2.11601204200997,,accuracy,space,7.554140874999575,,,,,,0.0,0.0,0.0,0.0,8.0,0.0,16.0,0.0,175.10307070800627,,,,,,,,,175.09451191600238,175.43346804099565,176.22571991600853,176.21712724999816,176.21770666600787,176.22571991600853,176.22571991600853,176.22571991600853,178.3438105410023,,,,,,,,,,,,,,,,,,,,,,,,,,,,,,left,1.0,2.11601204200997,,,,,,sub-044,1,random_dot,,
right,right,17.0,1.0,8.0,right,1.0,1.920496708000428,,accuracy,space,7.554140874999575,,,,,,0.0,0.0,0.0,0.0,8.0,1.0,17.0,1.0,178.3527929999982,,,,,,,,,178.3443070409994,179.13360295799794,179.9362053329969,179.9277912079997,179.92852083299658,179.9362053329969,179.9362053329969,179.9362053329969,181.86197112500668,,,,,,,,,,,,,,,,,,,,,,,,,,,,,,right,1.0,1.920496708000428,,,,,,sub-044,1,random_dot,,
right,right,18.0,0.0,9.0,right,1.0,1.9202197499980684,,accuracy,space,7.554140874999575,,,,,,0.0,0.0,0.0,0.0,9.0,0.0,18.0,1.0,181.8708492910082,,,,,,,,,181.8625151250017,182.2106671250076,183.00234037499467,182.9943293749966,182.9950467909948,183.00234037499467,183.00234037499467,183.00234037499467,184.92845512500207,,,,,,,,,,,,,,,,,,,,,,,,,,,,,,right,1.0,1.9202197499980684,,,,,,sub-044,1,random_dot,,
left,left,19.0,1.0,9.0,left,1.0,1.860812541999621,,accuracy,space,7.554140874999575,,,,,,0.0,0.0,0.0,0.0,9.0,1.0,19.0,0.0,184.93776575000084,,,,,,,,,184.92898754100315,186.12731066600827,186.91960333300813,186.91104020799685,186.9117714580061,186.91960333300813,186.91960333300813,186.91960333300813,188.7847672909993,,,,,,,,,,,,,,,,,,,,,,,,,,,,,,left,1.0,1.860812541999621,,,,,,sub-044,1,random_dot,,
right,right,20.0,0.0,10.0,left,0.0,1.81565491600486,,accuracy,space,7.554140874999575,,,,,,0.0,0.0,0.0,0.0,10.0,0.0,20.0,1.0,188.81063129099493,,,,,,,,,188.78527304100865,188.88268658300512,189.67573699999772,189.6669306660042,189.6673760410049,189.67573699999772,189.67573699999772,189.67573699999772,191.49451583300836,,,,,,,,,,,,,,,,,,,,,,,,,,,,,,left,0.0,1.81565491600486,,,,,,sub-044,1,random_dot,,
left,left,21.0,1.0,10.0,left,1.0,2.5877178329974413,,accuracy,space,7.554140874999575,,,,,,0.0,0.0,0.0,0.0,10.0,1.0,21.0,0.0,191.5039109159989,,,,,,,,,191.49514754100528,192.28373745799763,193.0756865410076,193.067110916003,193.0676705000078,193.0756865410076,193.0756865410076,193.0756865410076,195.66952483300705,,,,,,,,,,,,,,,,,,,,,,,,,,,,,,left,1.0,2.5877178329974413,,,,,,sub-044,1,random_dot,,
left,left,22.0,0.0,11.0,right,0.0,1.815275917004328,,accuracy,space,7.554140874999575,,,,,,0.0,0.0,0.0,0.0,11.0,0.0,22.0,0.0,195.6794404579996,,,,,,,,,195.6700238330086,196.4671404580004,197.2696677500062,197.26117650000376,197.26189445800264,197.2696677500062,197.2696677500062,197.2696677500062,199.0956287910085,,,,,,,,,,,,,,,,,,,,,,,,,,,,,,right,0.0,1.815275917004328,,,,,,sub-044,1,random_dot,,
right,right,23.0,1.0,11.0,right,1.0,1.8152975830016655,,accuracy,space,7.554140874999575,,,,,,0.0,0.0,0.0,0.0,11.0,1.0,23.0,1.0,199.10517350000737,,,,,,,,,199.0963448749972,200.29405270800635,201.0864877080021,201.0777130409988,201.07843520800816,201.0864877080021,201.0864877080021,201.0864877080021,202.91116616599905,,,,,,,,,,,,,,,,,,,,,,,,,,,,,,right,1.0,1.8152975830016655,,,,,,sub-044,1,random_dot,,
left,left,24.0,0.0,12.0,right,0.0,2.4526530830044067,,accuracy,space,7.554140874999575,,,,,,0.0,0.0,0.0,0.0,12.0,0.0,24.0,0.0,202.92012908299512,,,,,,,,,202.911698750002,204.1002670000016,204.89221662499767,204.8833826659975,204.8839201660012,204.89221662499767,204.89221662499767,204.89221662499767,207.3524786659982,,,,,,,,,,,,,,,,,,,,,,,,,,,,,,right,0.0,2.4526530830044067,,,,,,sub-044,1,random_dot,,
right,right,25.0,1.0,12.0,right,1.0,2.810471500008134,,accuracy,space,7.554140874999575,,,,,,0.0,0.0,0.0,0.0,12.0,1.0,25.0,1.0,207.3622575830086,,,,,,,,,207.3529573749984,207.7002102080005,208.4998810410034,208.49355800000197,208.4940194999945,208.4998810410034,208.4998810410034,208.4998810410034,211.31196375000584,,,,,,,,,,,,,,,,,,,,,,,,,,,,,,right,1.0,2.810471500008134,,,,,,sub-044,1,random_dot,,
left,left,26.0,0.0,13.0,left,1.0,2.664541083999211,,accuracy,space,7.554140874999575,,,,,,0.0,0.0,0.0,0.0,13.0,0.0,26.0,0.0,211.317612208004,,,,,,,,,211.3126326250058,212.1105854579946,212.9019815829961,212.8941468330013,212.8947099579964,212.9019815829961,212.9019815829961,212.9019815829961,215.56915512500564,,,,,,,,,,,,,,,,,,,,,,,,,,,,,,left,1.0,2.664541083999211,,,,,,sub-044,1,random_dot,,
right,right,27.0,1.0,13.0,left,0.0,2.0499072080128826,,accuracy,space,7.554140874999575,,,,,,0.0,0.0,0.0,0.0,13.0,1.0,27.0,1.0,215.57887495799517,,,,,,,,,215.56963033300417,216.3661964579951,217.15895712500787,217.15045120799917,217.15098579099867,217.15895712500787,217.15895712500787,217.15895712500787,219.2104585829948,,,,,,,,,,,,,,,,,,,,,,,,,,,,,,left,0.0,2.0499072080128826,,,,,,sub-044,1,random_dot,,
left,left,28.0,0.0,14.0,left,1.0,2.3796132910065357,,accuracy,space,7.554140874999575,,,,,,0.0,0.0,0.0,0.0,14.0,0.0,28.0,0.0,219.21586075000232,,,,,,,,,219.21093512499647,219.5501590000058,220.34232237499964,220.33370724999983,220.3342630410043,220.34232237499964,220.34232237499964,220.34232237499964,222.72890445799567,,,,,,,,,,,,,,,,,,,,,,,,,,,,,,left,1.0,2.3796132910065357,,,,,,sub-044,1,random_dot,,
right,right,29.0,1.0,14.0,right,1.0,2.163344165994204,,accuracy,space,7.554140874999575,,,,,,0.0,0.0,0.0,0.0,14.0,1.0,29.0,1.0,222.7384329159977,,,,,,,,,222.72960379099823,223.52727424999463,224.31948583299527,224.31117437500507,224.3119133750006,224.31948583299527,224.31948583299527,224.31948583299527,226.495656375002,,,,,,,,,,,,,,,,,,,,,,,,,,,,,,right,1.0,2.163344165994204,,,,,,sub-044,1,random_dot,,
left,left,30.0,0.0,15.0,right,0.0,2.407170083009987,,accuracy,space,7.554140874999575,,,,,,0.0,0.0,0.0,0.0,15.0,0.0,30.0,0.0,226.50492054100323,,,,,,,,,226.49634800000055,226.59401070799504,227.3865231249947,227.377908208,227.37864587499644,227.3865231249947,227.3865231249947,227.3865231249947,229.800843791003,,,,,,,,,,,,,,,,,,,,,,,,,,,,,,right,0.0,2.407170083009987,,,,,,sub-044,1,random_dot,,
right,right,31.0,1.0,15.0,left,0.0,2.611469166993629,,accuracy,space,7.554140874999575,,,,,,0.0,0.0,0.0,0.0,15.0,1.0,31.0,1.0,229.80997804099752,,,,,,,,,229.80134066600291,229.90028520800115,230.692252000008,230.6836208750028,230.68407108300016,230.692252000008,230.692252000008,230.692252000008,233.31197245800288,,,,,,,,,,,,,,,,,,,,,,,,,,,,,,left,0.0,2.611469166993629,,,,,,sub-044,1,random_dot,,
right,right,32.0,0.0,16.0,right,1.0,2.293156833009561,,accuracy,space,7.554140874999575,,,,,,0.0,0.0,0.0,0.0,16.0,0.0,32.0,1.0,233.3206523330009,,,,,,,,,233.3124824999977,234.5106703329948,235.30157558299837,235.29417562500748,235.29470995800511,235.30157558299837,235.30157558299837,235.30157558299837,237.60158258299637,,,,,,,,,,,,,,,,,,,,,,,,,,,,,,right,1.0,2.293156833009561,,,,,,sub-044,1,random_dot,,
left,left,33.0,1.0,16.0,left,1.0,2.067463916988345,,accuracy,space,7.554140874999575,,,,,,0.0,0.0,0.0,0.0,16.0,1.0,33.0,0.0,237.62706829099625,,,,,,,,,237.602079083008,237.9497797910008,238.74264525000763,238.7333326250082,238.73377716599495,238.74264525000763,238.74264525000763,238.74264525000763,240.8175014580047,,,,,,,,,,,,,,,,,,,,,,,,,,,,,,left,1.0,2.067463916988345,,,,,,sub-044,1,random_dot,,
left,left,34.0,0.0,17.0,right,0.0,2.46524129199679,,accuracy,space,7.554140874999575,,,,,,0.0,0.0,0.0,0.0,17.0,0.0,34.0,0.0,240.82619449999763,,,,,,,,,240.8179752080032,241.1665159999975,241.9589203329961,241.95001704100287,241.95045666600345,241.9589203329961,241.9589203329961,241.9589203329961,244.42883737500236,,,,,,,,,,,,,,,,,,,,,,,,,,,,,,right,0.0,2.46524129199679,,,,,,sub-044,1,random_dot,,
right,right,35.0,1.0,17.0,right,1.0,2.041472666998743,,accuracy,space,7.554140874999575,,,,,,0.0,0.0,0.0,0.0,17.0,1.0,35.0,1.0,244.43813033300103,,,,,,,,,244.4295351250039,245.627270625002,246.41952145799587,246.4110804160009,246.411780208,246.41952145799587,246.41952145799587,246.41952145799587,248.4696862080018,,,,,,,,,,,,,,,,,,,,,,,,,,,,,,right,1.0,2.041472666998743,,,,,,sub-044,1,random_dot,,
left,left,36.0,0.0,18.0,right,0.0,2.0891997080034344,,accuracy,space,7.554140874999575,,,,,,0.0,0.0,0.0,0.0,18.0,0.0,36.0,0.0,248.47915020800428,,,,,,,,,248.4702072910004,248.8170000829996,249.60890433299937,249.60005420800007,249.60059712499788,249.60890433299937,249.60890433299937,249.60890433299937,251.70092570800625,,,,,,,,,,,,,,,,,,,,,,,,,,,,,,right,0.0,2.0891997080034344,,,,,,sub-044,1,random_dot,,
right,right,37.0,1.0,18.0,left,0.0,2.2664028340077493,,accuracy,space,7.554140874999575,,,,,,0.0,0.0,0.0,0.0,18.0,1.0,37.0,1.0,251.7097013330058,,,,,,,,,251.70142145799764,251.7999740410014,252.5923909580015,252.5834717079997,252.583905624997,252.5923909580015,252.5923909580015,252.5923909580015,254.862199915995,,,,,,,,,,,,,,,,,,,,,,,,,,,,,,left,0.0,2.2664028340077493,,,,,,sub-044,1,random_dot,,
left,left,38.0,0.0,19.0,left,1.0,2.3629320840118453,,accuracy,space,7.554140874999575,,,,,,0.0,0.0,0.0,0.0,19.0,0.0,38.0,0.0,254.87151599999925,,,,,,,,,254.8629193749948,254.96068995799575,255.7518903750024,255.74418262499967,255.74476558300373,255.7518903750024,255.7518903750024,255.7518903750024,258.1192614580068,,,,,,,,,,,,,,,,,,,,,,,,,,,,,,left,1.0,2.3629320840118453,,,,,,sub-044,1,random_dot,,
right,right,39.0,1.0,19.0,right,1.0,2.4297832920128712,,accuracy,space,7.554140874999575,,,,,,0.0,0.0,0.0,0.0,19.0,1.0,39.0,1.0,258.12907312500465,,,,,,,,,258.1197925000015,258.4670961660013,259.2589589160052,259.2502492909989,259.25079600000754,259.2589589160052,259.2589589160052,259.2589589160052,261.69493645800685,,,,,,,,,,,,,,,,,,,,,,,,,,,,,,right,1.0,2.4297832920128712,,,,,,sub-044,1,random_dot,,
left,left,40.0,0.0,20.0,left,1.0,2.7120806669991,,accuracy,space,7.554140874999575,,,,,,0.0,0.0,0.0,0.0,20.0,0.0,40.0,0.0,261.7043209160038,,,,,,,,,261.69566537499486,261.7939244580048,262.5856561249966,262.5775318329979,262.57828312499623,262.5856561249966,262.5856561249966,262.5856561249966,265.3005458749976,,,,,,,,,,,,,,,,,,,,,,,,,,,,,,left,1.0,2.7120806669991,,,,,,sub-044,1,random_dot,,
right,right,41.0,1.0,20.0,right,1.0,2.245383583998773,,accuracy,space,7.554140874999575,,,,,,0.0,0.0,0.0,0.0,20.0,1.0,41.0,1.0,265.3093376659963,,,,,,,,,265.30102637500386,265.4003076250083,266.1923012500047,266.18365662499855,266.1841872500081,266.1923012500047,266.1923012500047,266.1923012500047,268.4452560409991,,,,,,,,,,,,,,,,,,,,,,,,,,,,,,right,1.0,2.245383583998773,,,,,,sub-044,1,random_dot,,
right,right,42.0,0.0,21.0,left,0.0,2.314246541995089,,accuracy,space,7.554140874999575,,,,,,0.0,0.0,0.0,0.0,21.0,0.0,42.0,1.0,268.45443949999753,,,,,,,,,268.44593854100094,268.79396758299845,269.5861595830065,269.5776352499961,269.5783402079978,269.5861595830065,269.5861595830065,269.5861595830065,271.9118087079987,,,,,,,,,,,,,,,,,,,,,,,,,,,,,,left,0.0,2.314246541995089,,,,,,sub-044,1,random_dot,,
left,left,43.0,1.0,21.0,left,1.0,2.564122959011001,,accuracy,space,7.554140874999575,,,,,,0.0,0.0,0.0,0.0,21.0,1.0,43.0,0.0,271.9206583329942,,,,,,,,,271.9123317080084,272.2607496660057,273.05227816599654,273.0441469159996,273.0447039999999,273.05227816599654,273.05227816599654,273.05227816599654,275.62899916600145,,,,,,,,,,,,,,,,,,,,,,,,,,,,,,left,1.0,2.564122959011001,,,,,,sub-044,1,random_dot,,
right,right,44.0,0.0,22.0,right,1.0,2.206035791998147,,accuracy,space,7.554140874999575,,,,,,0.0,0.0,0.0,0.0,22.0,0.0,44.0,1.0,275.6385056250001,,,,,,,,,275.62967725000635,275.72735775000183,276.51931945800607,276.5109747910028,276.51168879099714,276.51931945800607,276.51931945800607,276.51931945800607,278.72873724999954,,,,,,,,,,,,,,,,,,,,,,,,,,,,,,right,1.0,2.206035791998147,,,,,,sub-044,1,random_dot,,
left,left,45.0,1.0,22.0,right,0.0,1.7780783330090344,,accuracy,space,7.554140874999575,,,,,,0.0,0.0,0.0,0.0,22.0,1.0,45.0,0.0,278.7382074579946,,,,,,,,,278.7294463750004,279.07737612500205,279.8691999580042,279.8611078749964,279.86184295799467,279.8691999580042,279.8691999580042,279.8691999580042,281.65285179100465,,,,,,,,,,,,,,,,,,,,,,,,,,,,,,right,0.0,1.7780783330090344,,,,,,sub-044,1,random_dot,,
left,left,46.0,0.0,23.0,left,1.0,1.9759603749989765,,accuracy,space,7.554140874999575,,,,,,0.0,0.0,0.0,0.0,23.0,0.0,46.0,0.0,281.6626660000038,,,,,,,,,281.6533440829953,282.85019516600005,283.6422157079942,283.63307058300416,283.6336271659966,283.6422157079942,283.6422157079942,283.6422157079942,285.6291423750081,,,,,,,,,,,,,,,,,,,,,,,,,,,,,,left,1.0,1.9759603749989765,,,,,,sub-044,1,random_dot,,
right,right,47.0,1.0,23.0,left,0.0,2.5701045409950893,,accuracy,space,7.554140874999575,,,,,,0.0,0.0,0.0,0.0,23.0,1.0,47.0,1.0,285.6399672080006,,,,,,,,,285.6298737500037,286.82751279100194,287.61970024999755,287.61098820800544,287.61169762500504,287.61970024999755,287.61970024999755,287.61970024999755,290.19414287499967,,,,,,,,,,,,,,,,,,,,,,,,,,,,,,left,0.0,2.5701045409950893,,,,,,sub-044,1,random_dot,,
right,right,48.0,0.0,24.0,right,1.0,1.8703262089984487,,accuracy,space,7.554140874999575,,,,,,0.0,0.0,0.0,0.0,24.0,0.0,48.0,1.0,290.2002618330007,,,,,,,,,290.19490841600054,290.53384829100105,291.32604195800377,291.3166191659984,291.31707366599585,291.32604195800377,291.32604195800377,291.32604195800377,293.20249233300274,,,,,,,,,,,,,,,,,,,,,,,,,,,,,,right,1.0,1.8703262089984487,,,,,,sub-044,1,random_dot,,
left,left,49.0,1.0,24.0,left,1.0,2.561702291990514,,accuracy,space,7.554140874999575,,,,,,0.0,0.0,0.0,0.0,24.0,1.0,49.0,0.0,293.2122284579964,,,,,,,,,293.20298554100737,294.0002033329947,294.7924352080008,294.7834696659993,294.7839166659978,294.7924352080008,294.7924352080008,294.7924352080008,297.3608019999956,,,,,,,,,,,,,,,,,,,,,,,,,,,,,,left,1.0,2.561702291990514,,,,,,sub-044,1,random_dot,,
right,right,50.0,0.0,25.0,left,0.0,3.260994582989952,,accuracy,space,7.554140874999575,,,,,,0.0,0.0,0.0,0.0,25.0,0.0,50.0,1.0,297.36956200000714,,,,,,,,,297.3613089999999,298.1494464999996,298.9422487910051,298.9336748329952,298.934243583004,298.9422487910051,298.9422487910051,298.9422487910051,302.2106191250059,,,,,,,,,,,,,,,,,,,,,,,,,,,,,,left,0.0,3.260994582989952,,,,,,sub-044,1,random_dot,,
left,left,51.0,1.0,25.0,right,0.0,1.842535666000913,,accuracy,space,7.554140874999575,,,,,,0.0,0.0,0.0,0.0,25.0,1.0,51.0,0.0,302.2195753330016,,,,,,,,,302.2111131660058,302.55060533300275,303.3422859160055,303.3334493750008,303.3338767499954,303.3422859160055,303.3422859160055,303.3422859160055,305.1956619160046,,,,,,,,,,,,,,,,,,,,,,,,,,,,,,right,0.0,1.842535666000913,,,,,,sub-044,1,random_dot,,
right,right,52.0,0.0,26.0,left,0.0,2.5247808340063784,,accuracy,space,7.554140874999575,,,,,,0.0,0.0,0.0,0.0,26.0,0.0,52.0,1.0,305.2049982909957,,,,,,,,,305.1963283329969,305.54396920799627,306.3358025829948,306.3276143330004,306.3283440829982,306.3358025829948,306.3358025829948,306.3358025829948,308.862043000001,,,,,,,,,,,,,,,,,,,,,,,,,,,,,,left,0.0,2.5247808340063784,,,,,,sub-044,1,random_dot,,
left,left,53.0,1.0,26.0,left,1.0,3.180486707991804,,accuracy,space,7.554140874999575,,,,,,0.0,0.0,0.0,0.0,26.0,1.0,53.0,0.0,308.8675371660065,,,,,,,,,308.86269045800145,308.9607116660045,309.7530580409948,309.7444029580074,309.74511629100016,309.7530580409948,309.7530580409948,309.7530580409948,312.9455060830078,,,,,,,,,,,,,,,,,,,,,,,,,,,,,,left,1.0,3.180486707991804,,,,,,sub-044,1,random_dot,,
right,right,54.0,0.0,27.0,right,1.0,2.413595833000727,,accuracy,space,7.554140874999575,,,,,,0.0,0.0,0.0,0.0,27.0,0.0,54.0,1.0,312.9546625410003,,,,,,,,,312.9461815410032,313.2940475829964,314.08600404100434,314.0777533329965,314.07845124999585,314.08600404100434,314.08600404100434,314.08600404100434,316.50236054099514,,,,,,,,,,,,,,,,,,,,,,,,,,,,,,right,1.0,2.413595833000727,,,,,,sub-044,1,random_dot,,
left,left,55.0,1.0,27.0,left,1.0,5.184720916004153,,accuracy,space,7.554140874999575,,,,,,0.0,0.0,0.0,0.0,27.0,1.0,55.0,0.0,316.5122167500085,,,,,,,,,316.5028429160011,316.8494950409949,317.6424057080003,317.63346037500014,317.6339155000024,317.6424057080003,317.6424057080003,317.6424057080003,322.82918412500294,,,,,,,,,,,,,,,,,,,,,,,,,,,,,,left,1.0,5.184720916004153,,322.6273409580026,,,,sub-044,1,random_dot,,
left,left,56.0,0.0,28.0,right,0.0,2.5901664170087315,,accuracy,space,7.554140874999575,,,,,,0.0,0.0,0.0,0.0,28.0,0.0,56.0,0.0,322.8351314580068,,,,,,,,,322.8301490410085,323.6274197080056,324.4195406660001,324.41099908300384,324.41174858300656,324.4195406660001,324.4195406660001,324.4195406660001,327.0122357500077,,,,,,,,,,,,,,,,,,,,,,,,,,,,,,right,0.0,2.5901664170087315,,,,,,sub-044,1,random_dot,,
right,right,57.0,1.0,28.0,right,1.0,1.7714299579965882,,accuracy,space,7.554140874999575,,,,,,0.0,0.0,0.0,0.0,28.0,1.0,57.0,1.0,327.021238500005,,,,,,,,,327.0128705410025,328.2107432909979,329.0027280409995,328.9946819159959,328.9952282500017,329.0027280409995,329.0027280409995,329.0027280409995,330.778857790996,,,,,,,,,,,,,,,,,,,,,,,,,,,,,,right,1.0,1.7714299579965882,,,,,,sub-044,1,random_dot,,
right,right,58.0,0.0,29.0,right,1.0,1.7442669999873033,,accuracy,space,7.554140874999575,,,,,,0.0,0.0,0.0,0.0,29.0,0.0,58.0,1.0,330.78793824999593,,,,,,,,,330.7795006249944,331.1273398330086,331.91886112499924,331.9110344579967,331.91173537500435,331.91886112499924,331.91886112499924,331.91886112499924,333.66930733299523,,,,,,,,,,,,,,,,,,,,,,,,,,,,,,right,1.0,1.7442669999873033,,,,,,sub-044,1,random_dot,,
left,left,59.0,1.0,29.0,left,1.0,2.557073207994108,,accuracy,space,7.554140874999575,,,,,,0.0,0.0,0.0,0.0,29.0,1.0,59.0,0.0,333.6790373749973,,,,,,,,,333.6697962909966,334.46612283300783,335.2589445409976,335.2503807500034,335.2509013329982,335.2589445409976,335.2589445409976,335.2589445409976,337.81962004100205,,,,,,,,,,,,,,,,,,,,,,,,,,,,,,left,1.0,2.557073207994108,,,,,,sub-044,1,random_dot,,
,,0.0,0.0,0.0,,,,,accuracy,space,7.554140874999575,,,,,,0.0,0.0,0.0,0.0,,,,,,,,,,,,,,,,,,,,,,,,,,,,,,,,,,,,,,,,,,,,,,,,,,,,,,,,,,,,sub-044,1,random_dot,,
left,left,0.0,0.0,0.0,right,0.0,0.6276279169978807,,speed,space,6.922462290996919,,,,,,0.0,1.0,1.0,1.0,0.0,0.0,0.0,0.0,344.78620200000296,,,,,,,,,344.777606165997,345.96684429100424,346.7595602910005,346.7501531250018,346.75059762499586,346.7595602910005,346.7595602910005,346.7595602910005,347.3954917499941,,,,,,,,,,,,,,,,,,,,,,,337.8365982079995,337.8442496659991,337.8442496659991,344.7681420410081,space,6.922462290996919,,right,0.0,0.6276279169978807,,,,,,sub-044,1,random_dot,,
right,right,1.0,1.0,0.0,left,0.0,0.9933549999987008,,speed,space,6.922462290996919,,,,,,0.0,1.0,1.0,1.0,0.0,1.0,1.0,1.0,347.40402874999563,,,,,,,,,347.3962332499941,348.5940577080037,349.3857716250059,349.3776985410077,349.3783912079962,349.3857716250059,349.3857716250059,349.3857716250059,350.38432358299906,,,,,,,,,,,,,,,,,,,,,,,,,,,,,,left,0.0,0.9933549999987008,,,,,,sub-044,1,random_dot,,
right,right,2.0,0.0,1.0,left,0.0,1.2007504170032917,,speed,space,6.922462290996919,,,,,,0.0,1.0,1.0,1.0,1.0,0.0,2.0,1.0,350.3923710410017,,,,,,,,,350.38481600000523,351.5836085409974,352.3762419160048,352.3668869999965,352.3674374580005,352.3762419160048,352.3762419160048,352.3762419160048,353.5846399160073,,,,,,,,,,,,,,,,,,,,,,,,,,,,,,left,0.0,1.2007504170032917,,,,,,sub-044,1,random_dot,,
left,left,3.0,1.0,1.0,right,0.0,1.2478935410035774,,speed,space,6.922462290996919,,,,,,0.0,1.0,1.0,1.0,1.0,1.0,3.0,0.0,353.59285395800543,,,,,,,,,353.5851196250005,354.7834906250064,355.576018125008,355.56694950000383,355.56741899999906,355.576018125008,355.576018125008,355.576018125008,356.8287541250029,,,,,,,,,,,,,,,,,,,,,,,,,,,,,,right,0.0,1.2478935410035774,,,,,,sub-044,1,random_dot,,
right,right,4.0,0.0,2.0,right,1.0,1.0725006249995204,,speed,space,6.922462290996919,,,,,,0.0,1.0,1.0,1.0,2.0,0.0,4.0,1.0,356.837787166005,,,,,,,,,356.82946974999504,358.0273743750004,358.8193769159989,358.8110222499963,358.8117390410044,358.8193769159989,358.8193769159989,358.8193769159989,359.89553866599454,,,,,,,,,,,,,,,,,,,,,,,,,,,,,,right,1.0,1.0725006249995204,,,,,,sub-044,1,random_dot,,
left,left,5.0,1.0,2.0,right,0.0,1.2066153330088127,,speed,space,6.922462290996919,,,,,,0.0,1.0,1.0,1.0,2.0,1.0,5.0,0.0,359.9050059160072,,,,,,,,,359.8962501250062,360.243946290997,361.03617599999416,361.0277016659966,361.0284384999977,361.03617599999416,361.03617599999416,361.03617599999416,362.24551662500016,,,,,,,,,,,,,,,,,,,,,,,,,,,,,,right,0.0,1.2066153330088127,,,,,,sub-044,1,random_dot,,
right,right,6.0,0.0,3.0,right,1.0,1.5210489169985522,,speed,space,6.922462290996919,,,,,,0.0,1.0,1.0,1.0,3.0,0.0,6.0,1.0,362.25476979100495,,,,,,,,,362.2461831660039,363.4441043330007,364.235660499995,364.2274685410084,364.2280352499947,364.235660499995,364.235660499995,364.235660499995,365.7605967080017,,,,,,,,,,,,,,,,,,,,,,,,,,,,,,right,1.0,1.5210489169985522,,,,,,sub-044,1,random_dot,,
left,left,7.0,1.0,3.0,left,1.0,1.3230190000031143,,speed,space,6.922462290996919,,,,,,0.0,1.0,1.0,1.0,3.0,1.0,7.0,0.0,365.7696370829945,,,,,,,,,365.76110504100507,366.1000113330083,366.8926608750044,366.88308554100513,366.88355858299474,366.8926608750044,366.8926608750044,366.8926608750044,368.21783420800057,,,,,,,,,,,,,,,,,,,,,,,,,,,,,,left,1.0,1.3230190000031143,,,,,,sub-044,1,random_dot,,
left,left,8.0,0.0,4.0,left,1.0,1.472628582996549,,speed,space,6.922462290996919,,,,,,0.0,1.0,1.0,1.0,4.0,0.0,8.0,0.0,368.22680012500496,,,,,,,,,368.2183078749949,369.4171201660065,370.2090002080077,370.200200916006,370.2006535830005,370.2090002080077,370.2090002080077,370.2090002080077,371.6852658330026,,,,,,,,,,,,,,,,,,,,,,,,,,,,,,left,1.0,1.472628582996549,,,,,,sub-044,1,random_dot,,
right,right,9.0,1.0,4.0,right,1.0,1.2708083339966834,,speed,space,6.922462290996919,,,,,,0.0,1.0,1.0,1.0,4.0,1.0,9.0,1.0,371.695576625003,,,,,,,,,371.68574645799526,371.7834105410002,372.5757610830042,372.56695708300686,372.567401458,372.5757610830042,372.5757610830042,372.5757610830042,373.8526715000044,,,,,,,,,,,,,,,,,,,,,,,,,,,,,,right,1.0,1.2708083339966834,,,,,,sub-044,1,random_dot,,
left,left,10.0,0.0,5.0,right,0.0,1.0049930420063902,,speed,space,6.922462290996919,,,,,,0.0,1.0,1.0,1.0,5.0,0.0,10.0,0.0,373.862385415996,,,,,,,,,373.8531750830007,375.05047658299736,375.8425237909978,375.8334944579983,375.8339416660019,375.8425237909978,375.8425237909978,375.8425237909978,376.85281812500034,,,,,,,,,,,,,,,,,,,,,,,,,,,,,,right,0.0,1.0049930420063902,,,,,,sub-044,1,random_dot,,
right,right,11.0,1.0,5.0,left,0.0,1.417719874996692,,speed,space,6.922462290996919,,,,,,0.0,1.0,1.0,1.0,5.0,1.0,11.0,1.0,376.8626075829961,,,,,,,,,376.853289125007,377.6493761659949,378.4425247909967,378.4335657500051,378.4340029580053,378.4425247909967,378.4425247909967,378.4425247909967,379.8684268750076,,,,,,,,,,,,,,,,,,,,,,,,,,,,,,left,0.0,1.417719874996692,,,,,,sub-044,1,random_dot,,
left,left,12.0,0.0,6.0,right,0.0,1.1004612910037397,,speed,space,6.922462290996919,,,,,,0.0,1.0,1.0,1.0,6.0,0.0,12.0,0.0,379.8938229579944,,,,,,,,,379.8689009999944,380.6660925000033,381.4688650830067,381.4608931660041,381.4614748750028,381.4688650830067,381.4688650830067,381.4688650830067,382.5786565409944,,,,,,,,,,,,,,,,,,,,,,,,,,,,,,right,0.0,1.1004612910037397,,,,,,sub-044,1,random_dot,,
right,right,13.0,1.0,6.0,right,1.0,1.4759992499893997,,speed,space,6.922462290996919,,,,,,0.0,1.0,1.0,1.0,6.0,1.0,13.0,1.0,382.587345041,,,,,,,,,382.5791622910037,382.9271835410036,383.71916454100574,383.7110561660084,383.7117524579953,383.71916454100574,383.71916454100574,383.71916454100574,385.2017466249963,,,,,,,,,,,,,,,,,,,,,,,,,,,,,,right,1.0,1.4759992499893997,,,,,,sub-044,1,random_dot,,
right,right,14.0,0.0,7.0,left,0.0,1.420892666996224,,speed,space,6.922462290996919,,,,,,0.0,1.0,1.0,1.0,7.0,0.0,14.0,1.0,385.2270405409945,,,,,,,,,385.20223479099513,385.5503118750057,386.3423113330064,386.3336319579976,386.3341554159997,386.3423113330064,386.3423113330064,386.3423113330064,387.7693556250015,,,,,,,,,,,,,,,,,,,,,,,,,,,,,,left,0.0,1.420892666996224,,,,,,sub-044,1,random_dot,,
left,left,15.0,1.0,7.0,left,1.0,1.6546250419924036,,speed,space,6.922462290996919,,,,,,0.0,1.0,1.0,1.0,7.0,1.0,15.0,0.0,387.7789670000057,,,,,,,,,387.7698614160036,388.5670692910062,389.36856008300674,389.3611739159969,389.361686749995,389.36856008300674,389.36856008300674,389.36856008300674,391.02871433300606,,,,,,,,,,,,,,,,,,,,,,,,,,,,,,left,1.0,1.6546250419924036,,,,,,sub-044,1,random_dot,,
left,left,16.0,0.0,8.0,left,1.0,1.3108434999885503,,speed,space,6.922462290996919,,,,,,0.0,1.0,1.0,1.0,8.0,0.0,16.0,0.0,391.0380525829969,,,,,,,,,391.02938920800807,391.1273160410056,391.9192196250078,391.9110588330077,391.9117919580021,391.9192196250078,391.9192196250078,391.9192196250078,393.2360785829951,,,,,,,,,,,,,,,,,,,,,,,,,,,,,,left,1.0,1.3108434999885503,,,,,,sub-044,1,random_dot,,
right,right,17.0,1.0,8.0,right,1.0,0.9692773749993648,,speed,space,6.922462290996919,,,,,,0.0,1.0,1.0,1.0,8.0,1.0,17.0,1.0,393.2456727079989,,,,,,,,,393.2365730409947,393.5831969580031,394.375756916008,394.3667645829992,394.3672043749975,394.375756916008,394.375756916008,394.375756916008,395.351405666006,,,,,,,,,,,,,,,,,,,,,,,,,,,,,,right,1.0,0.9692773749993648,,,,,,sub-044,1,random_dot,,
right,right,18.0,0.0,9.0,right,1.0,1.268233249997138,,speed,space,6.922462290996919,,,,,,0.0,1.0,1.0,1.0,9.0,0.0,18.0,1.0,395.3601282080053,,,,,,,,,395.3518791249953,395.7002520829992,396.5026932500041,396.4944625000062,396.4951838749985,396.5026932500041,396.5026932500041,396.5026932500041,397.7777337080042,,,,,,,,,,,,,,,,,,,,,,,,,,,,,,right,1.0,1.268233249997138,,,,,,sub-044,1,random_dot,,
left,left,19.0,1.0,9.0,right,0.0,1.4312229579954874,,speed,space,6.922462290996919,,,,,,0.0,1.0,1.0,1.0,9.0,1.0,19.0,0.0,397.78703537500405,,,,,,,,,397.7783777910081,397.8672165409953,398.6694497499993,398.6610129580076,398.6617618750024,398.6694497499993,398.6694497499993,398.6694497499993,400.1023392079951,,,,,,,,,,,,,,,,,,,,,,,,,,,,,,right,0.0,1.4312229579954874,,,,,,sub-044,1,random_dot,,
right,right,20.0,0.0,10.0,left,0.0,1.7437762089975877,,speed,space,6.922462290996919,,,,,,0.0,1.0,1.0,1.0,10.0,0.0,20.0,1.0,400.1090545000043,,,,,,,,,400.102805750008,401.3008392500051,402.10313725000015,402.09437900000194,402.0951173750073,402.10313725000015,402.10313725000015,402.10313725000015,403.8509095830086,,,,,,,,,,,,,,,,,,,,,,,,,,,,,,left,0.0,1.7437762089975877,,,,,,sub-044,1,random_dot,,
left,left,21.0,1.0,10.0,left,1.0,1.3144521670037648,,speed,space,6.922462290996919,,,,,,0.0,1.0,1.0,1.0,10.0,1.0,21.0,0.0,403.8599660409964,,,,,,,,,403.851390833006,403.9507400830044,404.74244279100094,404.7338145829999,404.7342689579964,404.74244279100094,404.74244279100094,404.74244279100094,406.0621867500013,,,,,,,,,,,,,,,,,,,,,,,,,,,,,,left,1.0,1.3144521670037648,,,,,,sub-044,1,random_dot,,
right,right,22.0,0.0,11.0,right,1.0,1.199209625003277,,speed,space,6.922462290996919,,,,,,0.0,1.0,1.0,1.0,11.0,0.0,22.0,1.0,406.0719487500028,,,,,,,,,406.0628932079999,406.1606056659948,406.9526004579966,406.9442870000057,406.9450402079965,406.9526004579966,406.9526004579966,406.9526004579966,408.1623525409959,,,,,,,,,,,,,,,,,,,,,,,,,,,,,,right,1.0,1.199209625003277,,,,,,sub-044,1,random_dot,,
left,left,23.0,1.0,11.0,left,1.0,1.1596380000119098,,speed,space,6.922462290996919,,,,,,0.0,1.0,1.0,1.0,11.0,1.0,23.0,0.0,408.1718245410011,,,,,,,,,408.1630378749978,408.9604877910024,409.75308166600007,409.7443435830064,409.7450867910084,409.75308166600007,409.75308166600007,409.75308166600007,410.9188319160021,,,,,,,,,,,,,,,,,,,,,,,,,,,,,,left,1.0,1.1596380000119098,,,,,,sub-044,1,random_dot,,
right,right,24.0,0.0,12.0,right,1.0,1.069612249993952,,speed,space,6.922462290996919,,,,,,0.0,1.0,1.0,1.0,12.0,0.0,24.0,1.0,410.929092624996,,,,,,,,,410.9193288329989,411.0170862079976,411.8089838330052,411.8003600410011,411.8009280410042,411.8089838330052,411.8089838330052,411.8089838330052,412.8859543330036,,,,,,,,,,,,,,,,,,,,,,,,,,,,,,right,1.0,1.069612249993952,,,,,,sub-044,1,random_dot,,
left,left,25.0,1.0,12.0,left,1.0,0.9579268340021372,,speed,space,6.922462290996919,,,,,,0.0,1.0,1.0,1.0,12.0,1.0,25.0,0.0,412.895592832996,,,,,,,,,412.8864454160066,413.2335836660058,414.02559504100645,414.0171522500023,414.0176707079954,414.02559504100645,414.02559504100645,414.02559504100645,414.9955817500013,,,,,,,,,,,,,,,,,,,,,,,,,,,,,,left,1.0,0.9579268340021372,,,,,,sub-044,1,random_dot,,
right,right,26.0,0.0,13.0,left,0.0,1.3075110000063432,,speed,space,6.922462290996919,,,,,,0.0,1.0,1.0,1.0,13.0,0.0,26.0,1.0,415.0048783329985,,,,,,,,,414.9962675410061,415.7941467500059,416.5850184580049,416.5774877079966,416.5780537499959,416.5850184580049,416.5850184580049,416.5850184580049,417.89503762499953,,,,,,,,,,,,,,,,,,,,,,,,,,,,,,left,0.0,1.3075110000063432,,,,,,sub-044,1,random_dot,,
left,left,27.0,1.0,13.0,right,0.0,1.0986713750025956,,speed,space,6.922462290996919,,,,,,0.0,1.0,1.0,1.0,13.0,1.0,27.0,0.0,417.9042154579947,,,,,,,,,417.89554287500505,419.0941907499946,419.8857057080022,419.8778092080029,419.87854354099545,419.8857057080022,419.8857057080022,419.8857057080022,420.99527279099857,,,,,,,,,,,,,,,,,,,,,,,,,,,,,,right,0.0,1.0986713750025956,,,,,,sub-044,1,random_dot,,
right,right,28.0,0.0,14.0,right,1.0,1.242660750009236,,speed,space,6.922462290996919,,,,,,0.0,1.0,1.0,1.0,14.0,0.0,28.0,1.0,421.0039579580043,,,,,,,,,420.99577845800377,421.7939055409952,422.5866987909976,422.5779005829973,422.5786097499949,422.5866987909976,422.5866987909976,422.5866987909976,423.8361810409988,,,,,,,,,,,,,,,,,,,,,,,,,,,,,,right,1.0,1.242660750009236,,,,,,sub-044,1,random_dot,,
left,left,29.0,1.0,14.0,left,1.0,1.2245244170044316,,speed,space,6.922462290996919,,,,,,0.0,1.0,1.0,1.0,14.0,1.0,29.0,0.0,423.8457511250017,,,,,,,,,423.8366777909978,424.18377637500816,424.9757085409947,424.96709583299526,424.9675293330074,424.9757085409947,424.9757085409947,424.9757085409947,426.2023551250022,,,,,,,,,,,,,,,,,,,,,,,,,,,,,,left,1.0,1.2245244170044316,,,,,,sub-044,1,random_dot,,
left,left,30.0,0.0,15.0,left,1.0,1.247633582999697,,speed,space,6.922462290996919,,,,,,0.0,1.0,1.0,1.0,15.0,0.0,30.0,0.0,426.2122803749953,,,,,,,,,426.2028157500026,426.99928916600766,427.7927003750083,427.7832445410022,427.7836778329947,427.7927003750083,427.7927003750083,427.7927003750083,429.0455524580029,,,,,,,,,,,,,,,,,,,,,,,,,,,,,,left,1.0,1.247633582999697,,,,,,sub-044,1,random_dot,,
right,right,31.0,1.0,15.0,right,1.0,0.9435464999987744,,speed,space,6.922462290996919,,,,,,0.0,1.0,1.0,1.0,15.0,1.0,31.0,1.0,429.05505424999865,,,,,,,,,429.0462520410074,430.2439956659946,431.0356875830039,431.02780195800005,431.0285074580024,431.0356875830039,431.0356875830039,431.0356875830039,431.9841034160054,,,,,,,,,,,,,,,,,,,,,,,,,,,,,,right,1.0,0.9435464999987744,,,,,,sub-044,1,random_dot,,
left,left,32.0,0.0,16.0,left,1.0,1.2236886250029784,,speed,space,6.922462290996919,,,,,,0.0,1.0,1.0,1.0,16.0,0.0,32.0,0.0,431.9930414580013,,,,,,,,,431.98457808300736,432.7835584160057,433.5854812500038,433.5777908330056,433.5785127499985,433.5854812500038,433.5854812500038,433.5854812500038,434.8107363750023,,,,,,,,,,,,,,,,,,,,,,,,,,,,,,left,1.0,1.2236886250029784,,,,,,sub-044,1,random_dot,,
right,right,33.0,1.0,16.0,right,1.0,1.412737709004432,,speed,space,6.922462290996919,,,,,,0.0,1.0,1.0,1.0,16.0,1.0,33.0,1.0,434.8160678330023,,,,,,,,,434.81121733300097,435.9991647910065,436.79235708300257,436.7838138329971,436.78424816600455,436.79235708300257,436.79235708300257,436.79235708300257,438.21226479100005,,,,,,,,,,,,,,,,,,,,,,,,,,,,,,right,1.0,1.412737709004432,,,,,,sub-044,1,random_dot,,
right,right,34.0,0.0,17.0,right,1.0,1.2438691659917822,,speed,space,6.922462290996919,,,,,,0.0,1.0,1.0,1.0,17.0,0.0,34.0,1.0,438.2216621249973,,,,,,,,,438.2129408750043,439.4107712499972,440.2010504579957,440.194070041005,440.1945196659945,440.2010504579957,440.2010504579957,440.2010504579957,441.4530883330008,,,,,,,,,,,,,,,,,,,,,,,,,,,,,,right,1.0,1.2438691659917822,,,,,,sub-044,1,random_dot,,
left,left,35.0,1.0,17.0,left,1.0,1.325591875007376,,speed,space,6.922462290996919,,,,,,0.0,1.0,1.0,1.0,17.0,1.0,35.0,0.0,441.4626224999956,,,,,,,,,441.4535575000045,442.6498504159972,443.44230075000087,443.43344241600425,443.4339792910032,443.44230075000087,443.44230075000087,443.44230075000087,444.76938995800447,,,,,,,,,,,,,,,,,,,,,,,,,,,,,,left,1.0,1.325591875007376,,,,,,sub-044,1,random_dot,,
left,left,36.0,0.0,18.0,right,0.0,1.2549575830053072,,speed,space,6.922462290996919,,,,,,0.0,1.0,1.0,1.0,18.0,0.0,36.0,0.0,444.7757965000055,,,,,,,,,444.7698647500074,445.11684095799865,445.9089884999994,445.9001452910016,445.90069325000513,445.9089884999994,445.9089884999994,445.9089884999994,447.1668499160005,,,,,,,,,,,,,,,,,,,,,,,,,,,,,,right,0.0,1.2549575830053072,,,,,,sub-044,1,random_dot,,
right,right,37.0,1.0,18.0,left,0.0,1.3254077500023411,,speed,space,6.922462290996919,,,,,,0.0,1.0,1.0,1.0,18.0,1.0,37.0,1.0,447.1764156660065,,,,,,,,,447.1673283749988,448.36613383299846,449.1593860830035,449.1499271250068,449.1503658750007,449.1593860830035,449.1593860830035,449.1593860830035,450.4938766660053,,,,,,,,,,,,,,,,,,,,,,,,,,,,,,left,0.0,1.3254077500023411,,,,,,sub-044,1,random_dot,,
right,right,38.0,0.0,19.0,left,0.0,1.3962303750013234,,speed,space,6.922462290996919,,,,,,0.0,1.0,1.0,1.0,19.0,0.0,38.0,1.0,450.5026324579958,,,,,,,,,450.4943972080073,450.5836552910041,451.3855519159988,451.3776790410048,451.3783613330015,451.3855519159988,451.3855519159988,451.3855519159988,452.7857231660018,,,,,,,,,,,,,,,,,,,,,,,,,,,,,,left,0.0,1.3962303750013234,,,,,,sub-044,1,random_dot,,
left,left,39.0,1.0,19.0,right,0.0,1.1589684589998797,,speed,space,6.922462290996919,,,,,,0.0,1.0,1.0,1.0,19.0,1.0,39.0,0.0,452.7955961660045,,,,,,,,,452.7862020409957,452.8834094579943,453.67567500000587,453.6668662080047,453.6673907910008,453.67567500000587,453.67567500000587,453.67567500000587,454.84581425000215,,,,,,,,,,,,,,,,,,,,,,,,,,,,,,right,0.0,1.1589684589998797,,,,,,sub-044,1,random_dot,,
right,right,40.0,0.0,20.0,right,1.0,1.2124013749998994,,speed,space,6.922462290996919,,,,,,0.0,1.0,1.0,1.0,20.0,0.0,40.0,1.0,454.855087791002,,,,,,,,,454.8465203329979,455.6439561250008,456.4362370000017,456.4278446660028,456.4285550409986,456.4362370000017,456.4362370000017,456.4362370000017,457.6505383330077,,,,,,,,,,,,,,,,,,,,,,,,,,,,,,right,1.0,1.2124013749998994,,,,,,sub-044,1,random_dot,,
left,left,41.0,1.0,20.0,right,0.0,1.3481373329996131,,speed,space,6.922462290996919,,,,,,0.0,1.0,1.0,1.0,20.0,1.0,41.0,0.0,457.66073783300817,,,,,,,,,457.6510026659962,457.749896541005,458.5423158330086,458.53340233300696,458.5339585000038,458.5423158330086,458.5423158330086,458.5423158330086,459.8943133330031,,,,,,,,,,,,,,,,,,,,,,,,,,,,,,right,0.0,1.3481373329996131,,,,,,sub-044,1,random_dot,,
left,left,42.0,0.0,21.0,right,0.0,1.4038140409975313,,speed,space,6.922462290996919,,,,,,0.0,1.0,1.0,1.0,21.0,0.0,42.0,0.0,459.90023500000825,,,,,,,,,459.8950234160002,460.2335914580035,461.02568895800505,461.01714500000526,461.0175950410048,461.02568895800505,461.02568895800505,461.02568895800505,462.4349562080024,,,,,,,,,,,,,,,,,,,,,,,,,,,,,,right,0.0,1.4038140409975313,,,,,,sub-044,1,random_dot,,
right,right,43.0,1.0,21.0,left,0.0,1.31975391600281,,speed,space,6.922462290996919,,,,,,0.0,1.0,1.0,1.0,21.0,1.0,43.0,1.0,462.4607361249946,,,,,,,,,462.43545483300113,462.7829194160004,463.5757148749981,463.5672154579952,463.56779954100784,463.5757148749981,463.5757148749981,463.5757148749981,464.9025760410004,,,,,,,,,,,,,,,,,,,,,,,,,,,,,,left,0.0,1.31975391600281,,,,,,sub-044,1,random_dot,,
left,left,44.0,0.0,22.0,left,1.0,1.1130978749861242,,speed,space,6.922462290996919,,,,,,0.0,1.0,1.0,1.0,22.0,0.0,44.0,0.0,464.9123024160072,,,,,,,,,464.903063040998,465.0008741250058,465.8033194580057,465.7947657909972,465.79548225000326,465.8033194580057,465.8033194580057,465.8033194580057,466.9195807500073,,,,,,,,,,,,,,,,,,,,,,,,,,,,,,left,1.0,1.1130978749861242,,,,,,sub-044,1,random_dot,,
right,right,45.0,1.0,22.0,left,0.0,1.3644682909944097,,speed,space,6.922462290996919,,,,,,0.0,1.0,1.0,1.0,22.0,1.0,45.0,1.0,466.929463249995,,,,,,,,,466.92007254100463,467.716982583006,468.50896858300257,468.5003438330023,468.5007958750066,468.50896858300257,468.50896858300257,468.50896858300257,469.87874854099937,,,,,,,,,,,,,,,,,,,,,,,,,,,,,,left,0.0,1.3644682909944097,,,,,,sub-044,1,random_dot,,
left,left,46.0,0.0,23.0,right,0.0,1.1389430840063142,,speed,space,6.922462290996919,,,,,,0.0,1.0,1.0,1.0,23.0,0.0,46.0,0.0,469.8883129580063,,,,,,,,,469.8794242500008,470.2272997499968,471.01936400000704,471.0111459580076,471.0118549159961,471.01936400000704,471.01936400000704,471.01936400000704,472.16187979100505,,,,,,,,,,,,,,,,,,,,,,,,,,,,,,right,0.0,1.1389430840063142,,,,,,sub-044,1,random_dot,,
right,right,47.0,1.0,23.0,right,1.0,1.3935842500068247,,speed,space,6.922462290996919,,,,,,0.0,1.0,1.0,1.0,23.0,1.0,47.0,1.0,472.1712138750008,,,,,,,,,472.1623965409962,472.51057345799927,473.3016075829946,473.2941451660008,473.2946794159943,473.3016075829946,473.3016075829946,473.3016075829946,474.70229241599736,,,,,,,,,,,,,,,,,,,,,,,,,,,,,,right,1.0,1.3935842500068247,,,,,,sub-044,1,random_dot,,
left,left,48.0,0.0,24.0,left,1.0,1.267376624993631,,speed,space,6.922462290996919,,,,,,0.0,1.0,1.0,1.0,24.0,0.0,48.0,0.0,474.7122769580019,,,,,,,,,474.7027794580063,475.0504258750007,475.8427440829983,475.83322229099576,475.8336846250022,475.8427440829983,475.8427440829983,475.8427440829983,477.1172694580018,,,,,,,,,,,,,,,,,,,,,,,,,,,,,,left,1.0,1.267376624993631,,,,,,sub-044,1,random_dot,,
right,right,49.0,1.0,24.0,left,0.0,1.1858836250030436,,speed,space,6.922462290996919,,,,,,0.0,1.0,1.0,1.0,24.0,1.0,49.0,1.0,477.1260322080052,,,,,,,,,477.117759707995,477.2170176660002,478.00922024999454,478.00030812500336,478.0008376250044,478.00922024999454,478.00922024999454,478.00922024999454,479.2016466250061,,,,,,,,,,,,,,,,,,,,,,,,,,,,,,left,0.0,1.1858836250030436,,,,,,sub-044,1,random_dot,,
left,left,50.0,0.0,25.0,right,0.0,0.9080996249977034,,speed,space,6.922462290996919,,,,,,0.0,1.0,1.0,1.0,25.0,0.0,50.0,0.0,479.2270797910023,,,,,,,,,479.20213550000335,479.5494361250021,480.3439475829946,480.3329206250055,480.333410457999,480.3439475829946,480.3439475829946,480.3439475829946,481.26086325000506,,,,,,,,,,,,,,,,,,,,,,,,,,,,,,right,0.0,0.9080996249977034,,,,,,sub-044,1,random_dot,,
right,right,51.0,1.0,25.0,right,1.0,0.9810429159988416,,speed,space,6.922462290996919,,,,,,0.0,1.0,1.0,1.0,25.0,1.0,51.0,1.0,481.2701788330014,,,,,,,,,481.2615031250025,482.05076149999513,482.8529890409991,482.8445283330075,482.8452551250084,482.8529890409991,482.8529890409991,482.8529890409991,483.83631087500544,,,,,,,,,,,,,,,,,,,,,,,,,,,,,,right,1.0,0.9810429159988416,,,,,,sub-044,1,random_dot,,
right,right,52.0,0.0,26.0,left,0.0,0.9537980830064045,,speed,space,6.922462290996919,,,,,,0.0,1.0,1.0,1.0,26.0,0.0,52.0,1.0,483.8460215410014,,,,,,,,,483.8368024579977,483.9333012080024,484.72614416600845,484.71608429099433,484.7165532079962,484.72614416600845,484.72614416600845,484.72614416600845,485.6840352080035,,,,,,,,,,,,,,,,,,,,,,,,,,,,,,left,0.0,0.9537980830064045,,,,,,sub-044,1,random_dot,,
left,left,53.0,1.0,26.0,left,1.0,1.051851208001608,,speed,space,6.922462290996919,,,,,,0.0,1.0,1.0,1.0,26.0,1.0,53.0,0.0,485.6930761660042,,,,,,,,,485.6845239999966,486.4835659579985,487.2861282499944,487.2776128330006,487.2781965000031,487.2861282499944,487.2861282499944,487.2861282499944,488.34401070799504,,,,,,,,,,,,,,,,,,,,,,,,,,,,,,left,1.0,1.051851208001608,,,,,,sub-044,1,random_dot,,
right,right,54.0,0.0,27.0,left,0.0,1.077139792003436,,speed,space,6.922462290996919,,,,,,0.0,1.0,1.0,1.0,27.0,0.0,54.0,1.0,488.35324425,,,,,,,,,488.3445632079965,488.68325200000254,489.4757134579995,489.467118665998,489.467655415996,489.4757134579995,489.4757134579995,489.4757134579995,490.5620094159967,,,,,,,,,,,,,,,,,,,,,,,,,,,,,,left,0.0,1.077139792003436,,,,,,sub-044,1,random_dot,,
left,left,55.0,1.0,27.0,right,0.0,1.074219249989255,,speed,space,6.922462290996919,,,,,,0.0,1.0,1.0,1.0,27.0,1.0,55.0,0.0,490.5708785000024,,,,,,,,,490.56254054099554,491.7608845000068,492.5526019579993,492.54463312499865,492.5452089159953,492.5526019579993,492.5526019579993,492.5526019579993,493.6287107079988,,,,,,,,,,,,,,,,,,,,,,,,,,,,,,right,0.0,1.074219249989255,,,,,,sub-044,1,random_dot,,
left,left,56.0,0.0,28.0,right,0.0,1.3313872500002617,,speed,space,6.922462290996919,,,,,,0.0,1.0,1.0,1.0,28.0,0.0,56.0,0.0,493.6346526249981,,,,,,,,,493.6293675409979,494.8274214999983,495.6192452499963,495.61109150000266,495.611800957995,495.6192452499963,495.6192452499963,495.6192452499963,496.9619615410047,,,,,,,,,,,,,,,,,,,,,,,,,,,,,,right,0.0,1.3313872500002617,,,,,,sub-044,1,random_dot,,
right,right,57.0,1.0,28.0,left,0.0,1.151849916001083,,speed,space,6.922462290996919,,,,,,0.0,1.0,1.0,1.0,28.0,1.0,57.0,1.0,496.9710861659987,,,,,,,,,496.9624839580065,497.0606542080059,497.852836541002,497.8445634999953,497.8452430000034,497.852836541002,497.852836541002,497.852836541002,499.01141187500616,,,,,,,,,,,,,,,,,,,,,,,,,,,,,,left,0.0,1.151849916001083,,,,,,sub-044,1,random_dot,,
left,left,58.0,0.0,29.0,left,1.0,1.104258708000998,,speed,space,6.922462290996919,,,,,,0.0,1.0,1.0,1.0,29.0,0.0,58.0,0.0,499.0204383749952,,,,,,,,,499.0119415000081,499.10007716600376,499.8923310410028,499.883869665995,499.8843127080036,499.8923310410028,499.8923310410028,499.8923310410028,501.0025932080025,,,,,,,,,,,,,,,,,,,,,,,,,,,,,,left,1.0,1.104258708000998,,,,,,sub-044,1,random_dot,,
right,right,59.0,1.0,29.0,right,1.0,1.0651728329976322,,speed,space,6.922462290996919,,,,,,0.0,1.0,1.0,1.0,29.0,1.0,59.0,1.0,501.0125037499965,,,,,,,,,501.0030926250038,501.80002437499934,502.5923989580042,502.5836199159967,502.5840745830064,502.5923989580042,502.5923989580042,502.5923989580042,503.66188470799534,,,,,,,,,,,,,,,,,,,,,,,,,,,,,,right,1.0,1.0651728329976322,,,,,,sub-044,1,random_dot,,
,,1.0,1.0,0.0,,,,,speed,space,6.922462290996919,,,,,,0.0,1.0,1.0,1.0,,,,,,,,,,,,,,,,,,,,,,,,,,,,,,,,,,,,,,,,,,,,,,,,,,,,,,,,,,,,sub-044,1,random_dot,,
,,,,,,,,,,,,,,,,,,,,,,,,,,,,,,,,,,,,,,,,,,,,,,,,,,,,,,,,,,,,,,,,,,,,,,,,,,,,,503.6702922499972,503.6801399579999,508.66647220800223,sub-044,1,random_dot,,
