direction,corrAns,randomInstr,practice_trials.thisRepN,practice_trials.thisTrialN,practice_trials.thisN,practice_trials.thisIndex,instr_trials.thisRepN,instr_trials.thisTrialN,instr_trials.thisN,instr_trials.thisIndex,test_trials.thisRepN,test_trials.thisTrialN,test_trials.thisN,test_trials.thisIndex,thisRow.t,notes,general_instruction.started,textGeneralInstr.started,respGeneralInstr.started,general_instruction.stopped,respGeneralInstr.keys,respGeneralInstr.rt,respGeneralInstr.duration,ITI.started,fixcross.started,fixcross.stopped,ITI.stopped,dots.started,backgroundDots.started,stimulusDots.started,respDots.started,stimulusDots.stopped,dots.stopped,respDots.keys,respDots.corr,respDots.rt,respDots.duration,feedback.started,textFeedback.started,feedback.stopped,textFeedback.stopped,info.started,textInfo.started,keyRespInfo.started,info.stopped,keyRespInfo.keys,keyRespInfo.rt,keyRespInfo.duration,test_instruction.started,textTestInstr.started,respTestInstr.started,test_instruction.stopped,respTestInstr.keys,respTestInstr.rt,respTestInstr.duration,random_instruction.started,textRandomInstr.started,respRandomInstr.started,random_instruction.stopped,respRandomInstr.keys,respRandomInstr.rt,respRandomInstr.duration,goodbye.started,textGoodbye.started,goodbye.stopped,participant,session,expName,frameRate,Unnamed: 73
,,,,,,,,,,,,,,,,,0.0093635999946855,0.0212252000055741,0.0212252000055741,63.19028909999179,space,190.319980899978,,,,,,,,,,,,,,,,,,,,,,,,,,,,,,,,,,,,,,,,,,,,sub-236,1.0,random_dot,97.73422741323289,
left,left,,0.0,0.0,0.0,0.0,,,,,,,,,63.2441519999993,,,,,,,,,63.237454499991145,64.39446159999352,65.23123050000868,65.19120770000154,65.1912685999996,65.23123050000868,65.23123050000868,65.23123050000868,70.19958960000076,76.46776289999252,left,1.0,138.38968489997205,,76.47146380000049,76.51087190001272,76.97408069999074,,,,,,,,,,,,,,,,,,,,,,,,,,sub-236,1.0,random_dot,97.73422741323289,
right,right,,0.0,1.0,1.0,1.0,,,,,,,,,76.98214209999423,,,,,,,,,76.97482160001528,78.17377809999743,78.97778560000006,78.96512159999111,78.96517790001235,78.97778560000006,78.97778560000006,78.97778560000006,,80.90921209999942,right,1.0,129.0761896999611,,80.91072820001864,80.92149199999403,81.41253140001209,,,,,,,,,,,,,,,,,,,,,,,,,,sub-236,1.0,random_dot,97.73422741323289,
right,right,,1.0,0.0,2.0,1.0,,,,,,,,,81.4185959000024,,,,,,,,,81.41369869999471,82.61703860000125,83.42054280001321,83.40864470001543,83.4086990999931,83.42054280001321,83.42054280001321,83.42054280001321,,84.59288939999533,right,1.0,128.3297210999881,,84.59449970000423,84.6071140000131,85.09728770001675,,,,,,,,,,,,,,,,,,,,,,,,,,sub-236,1.0,random_dot,97.73422741323289,
left,left,,1.0,1.0,3.0,0.0,,,,,,,,,85.1053694000002,,,,,,,,,85.0984803000174,86.2980979999993,87.10033430001931,87.08848550001858,87.08854200001224,87.10033430001931,87.10033430001931,87.10033430001931,,88.05429649999132,left,1.0,128.11044619997847,,88.05601639999077,88.06576640001731,88.55570060000173,88.56267300000763,,,,,,,,,,,,,,,,,,,,,,,,,sub-236,1.0,random_dot,97.73422741323289,
left,left,,2.0,0.0,4.0,0.0,,,,,,,,,88.56267300000763,,,,,,,,,88.55687299999408,88.90475580000202,89.70868040001369,89.69733960001031,89.69739849999314,89.70868040001369,89.70868040001369,89.70868040001369,,90.5405727000034,right,0.0,127.98983319997204,,90.54323070001556,90.57938969999668,91.04555480001729,,,,,,,,,,,,,,,,,,,,,,,,,,sub-236,1.0,random_dot,97.73422741323289,
right,right,,2.0,1.0,5.0,1.0,,,,,,,,,91.0537728999916,,,,,,,,,91.0465710000135,92.2455087999988,93.0556026000122,93.03682080001454,93.03692710000904,93.0556026000122,93.0556026000122,93.0556026000122,,94.19058130000484,right,1.0,128.2909609999915,,94.19217120000394,94.20936040001106,94.69427490001544,,,,,,,,,,,,,,,,,,,,,,,,,,sub-236,1.0,random_dot,97.73422741323289,
left,left,,3.0,0.0,6.0,0.0,,,,,,,,,94.70241669999086,,,,,,,,,94.6949225999997,95.89455830000225,96.70175979999476,96.68970750001608,96.68980620001092,96.70175979999476,96.70175979999476,96.70175979999476,,97.1995428999944,right,0.0,127.65672079997604,,97.2012112000084,97.22017929999856,97.70250929999747,,,,,,,,,,,,,,,,,,,,,,,,,,sub-236,1.0,random_dot,97.73422741323289,
right,right,,3.0,1.0,7.0,1.0,,,,,,,,,97.71020080000744,,,,,,,,,97.70383020001464,98.50161870001466,99.30831990001025,99.29451160001918,99.29460510000354,99.30831990001025,99.30831990001025,99.30831990001025,,101.15553210000508,right,1.0,128.9970996999764,,101.15713360000518,101.1732159999956,101.65805500000717,,,,,,,,,,,,,,,,,,,,,,,,,,sub-236,1.0,random_dot,97.73422741323289,
left,left,,4.0,0.0,8.0,0.0,,,,,,,,,101.66594750000512,,,,,,,,,101.65940910001518,102.45956099999604,103.26341849999152,103.25177830000756,103.25187609999556,103.26341849999152,103.26341849999152,103.26341849999152,,104.45723289999296,right,0.0,128.3431271999725,,104.45879570001853,104.47601380001288,104.96072279999498,,,,,,,,,,,,,,,,,,,,,,,,,,sub-236,1.0,random_dot,97.73422741323289,
right,right,,4.0,1.0,9.0,1.0,,,,,,,,,104.96632850001332,,,,,,,,,104.96197400000528,105.75800689999596,106.5668563999934,106.55420460001916,106.55426750000332,106.5668563999934,106.5668563999934,106.5668563999934,,108.82644090001122,right,1.0,129.41141459997743,,108.8272443000169,108.83793650000008,109.33219899999676,,,,,,,,,,,,,,,,,,,,,,,,,,sub-236,1.0,random_dot,97.73422741323289,
right,right,,5.0,0.0,10.0,1.0,,,,,,,,,109.34041999999316,,,,,,,,,109.33342870001798,110.13278489999357,110.93405810001424,110.92268419999164,110.92273779999232,110.93405810001424,110.93405810001424,110.93405810001424,,112.43593150001834,left,0.0,128.66011179998168,,112.43776760000036,112.45474139999716,112.93927560001612,,,,,,,,,,,,,,,,,,,,,,,,,,sub-236,1.0,random_dot,97.73422741323289,
left,left,,5.0,1.0,11.0,0.0,,,,,,,,,112.94745080001304,,,,,,,,,112.94015440001384,113.73898349999216,114.54503969999496,114.5320558999956,114.53211289999308,114.54503969999496,114.54503969999496,114.54503969999496,,115.93355990000418,right,0.0,128.54413029996795,,115.93521240001428,115.94709920001333,116.44249929999933,,,,,,,,,,,,,,,,,,,,,,,,,,sub-236,1.0,random_dot,97.73422741323289,
left,left,,6.0,0.0,12.0,0.0,,,,,,,,,116.44861220000894,,,,,,,,,116.44354609999571,116.7883787000028,117.592138100008,117.58108060000814,117.58113599999342,117.592138100008,117.592138100008,117.592138100008,,119.76820700001554,right,0.0,129.33287539999583,,119.76978229999077,119.781000100018,120.27081499999622,,,,,,,,,,,,,,,,,,,,,,,,,,sub-236,1.0,random_dot,97.73422741323289,
right,right,,6.0,1.0,13.0,1.0,,,,,,,,,120.2789211999916,,,,,,,,,120.2719946000143,121.47021970001516,122.27563210000515,122.2633846999961,122.2634398000082,122.27563210000515,122.27563210000515,122.27563210000515,,123.56251409999096,left,0.0,128.445093599963,,123.56473610000104,123.5744731000159,124.06970250001176,,,,,,,,,,,,,,,,,,,,,,,,,,sub-236,1.0,random_dot,97.73422741323289,
left,left,,7.0,0.0,14.0,0.0,,,,,,,,,124.07802119999542,,,,,,,,,124.07072809999228,124.86951550000232,125.6712550999946,125.6618768000044,125.66192879999288,125.6712550999946,125.6712550999946,125.6712550999946,,127.59433670001454,right,0.0,129.0792994000076,,127.59589580001192,127.60920750000514,128.09929020001437,,,,,,,,,,,,,,,,,,,,,,,,,,sub-236,1.0,random_dot,97.73422741323289,
right,right,,7.0,1.0,15.0,1.0,,,,,,,,,128.10776380001334,,,,,,,,,128.10152930000913,128.8932948000147,129.69364030001452,129.68521250001504,129.68524500000058,129.69364030001452,129.69364030001452,129.69364030001452,,130.43959809999797,right,1.0,127.8944807999651,,130.44238640001277,130.4631817000045,130.94784730000538,,,,,,,,,,,,,,,,,,,,,,,,,,sub-236,1.0,random_dot,97.73422741323289,
left,left,,8.0,0.0,16.0,0.0,,,,,,,,,130.9547128000122,,,,,,,,,130.9494222000067,131.29275190000772,132.10403350001434,132.08979009999894,132.08988070001942,132.10403350001434,132.10403350001434,132.10403350001434,,133.11216479999712,right,0.0,128.1561386999674,,133.11448750001728,133.13470409999718,133.61974960000953,,,,,,,,,,,,,,,,,,,,,,,,,,sub-236,1.0,random_dot,97.73422741323289,
right,right,,8.0,1.0,17.0,1.0,,,,,,,,,133.62577569999848,,,,,,,,,133.62095989999943,133.9668248000089,134.77291309999418,134.7601835000096,134.76028580000275,134.77291309999418,134.77291309999418,134.77291309999418,,136.59348889999092,right,1.0,128.97746759999427,,136.59538740001153,136.61216600000623,137.09952720001456,,,,,,,,,,,,,,,,,,,,,,,,,,sub-236,1.0,random_dot,97.73422741323289,
right,right,,9.0,0.0,18.0,1.0,,,,,,,,,137.1076100000064,,,,,,,,,137.10062340000877,137.44890580000356,138.2536720999924,138.24204640000244,138.24210360000143,138.2536720999924,138.2536720999924,138.2536720999924,,140.4153418999922,right,1.0,129.3189558999729,,140.4169201000186,140.4261478999979,140.91658439999446,140.92324040000676,,,,,,,,,,,,,,,,,,,,,,,,,sub-236,1.0,random_dot,97.73422741323289,
left,left,,9.0,1.0,19.0,0.0,,,,,,,,,140.92324040000676,,,,,,,,,140.91763979999814,141.0149029000022,141.82407510001212,141.8112749000138,141.81133090000367,141.82407510001212,141.82407510001212,141.82407510001212,,143.99589670001296,right,0.0,129.3137992999691,,143.99797359999502,144.01595520001138,144.49999280000338,,,,,,,,,,,,,,,,,,,,,,,,,,sub-236,1.0,random_dot,97.73422741323289,
,,,,,,,,,,,,,,,,,,,,,,,,,,,,,,,,,,,,,,,,,,144.50014240000746,144.5082403999986,144.5082403999986,152.44410680001602,space,135.09333179995883,,,,,,,,,,,,,,,,,,,sub-236,1.0,random_dot,97.73422741323289,
,,,,,,,,,,,,,,,,,,,,,,,,,,,,,,,,,,,,,,,,,,,,,,,,,152.44420140000875,152.4548872000014,152.4548872000014,165.0807657999976,space,139.7729166999925,,,,,,,,,,,,sub-236,1.0,random_dot,97.73422741323289,
right,right,accuracy,,,,,0.0,0.0,0.0,0.0,0.0,0.0,0.0,1.0,170.19148969999517,,,,,,,,,170.18698759999825,170.27380510000512,171.0786624000175,171.06705710000824,171.06715280000935,171.0786624000175,171.0786624000175,171.0786624000175,,175.17113360000076,right,1.0,131.24803759998758,,,,,,,,,,,,,,,,,,,,165.09336880000774,165.142880600004,165.142880600004,170.16740979999304,space,132.17949979996774,,,,,sub-236,1.0,random_dot,97.73422741323289,
left,left,accuracy,,,,,0.0,0.0,0.0,0.0,0.0,1.0,1.0,0.0,175.1825666000077,,,,,,,,,175.17506750000757,175.52194420000887,176.33690960000968,176.31937209999887,176.31946270001936,176.33690960000968,176.33690960000968,176.33690960000968,,179.4211784999934,left,1.0,130.23069619995658,,,,,,,,,,,,,,,,,,,,,,,,,,,,,,sub-236,1.0,random_dot,97.73422741323289,
left,left,accuracy,,,,,0.0,0.0,0.0,0.0,1.0,0.0,2.0,0.0,179.43049080000492,,,,,,,,,179.4241561999952,180.2207379000029,181.02495890000137,181.0134870000184,181.01354129999527,181.02495890000137,181.02495890000137,181.02495890000137,186.0166863999912,186.7083691000007,left,1.0,132.84192720000283,,,,,,,,,,,,,,,,,,,,,,,,,,,,,,sub-236,1.0,random_dot,97.73422741323289,
right,right,accuracy,,,,,0.0,0.0,0.0,0.0,1.0,1.0,3.0,1.0,186.72108049999224,,,,,,,,,186.71386750001693,187.91251550000743,188.7108671000169,188.7023268000048,188.70235999999568,188.7108671000169,188.7108671000169,188.7108671000169,,192.0772635000176,right,1.0,130.52350329997716,,,,,,,,,,,,,,,,,,,,,,,,,,,,,,sub-236,1.0,random_dot,97.73422741323289,
right,right,accuracy,,,,,0.0,0.0,0.0,0.0,2.0,0.0,4.0,1.0,192.09224950001223,,,,,,,,,192.0855087999953,193.2839851000172,194.087629799993,194.0764882999938,194.0765428000013,194.087629799993,194.087629799993,194.087629799993,,197.79430050001247,left,0.0,130.8624597999733,,,,,,,,,,,,,,,,,,,,,,,,,,,,,,sub-236,1.0,random_dot,97.73422741323289,
left,left,accuracy,,,,,0.0,0.0,0.0,0.0,2.0,1.0,5.0,0.0,197.8056700000016,,,,,,,,,197.7977096000104,198.1490243000153,198.9495138000057,198.9411594000121,198.941195499996,198.9495138000057,198.9495138000057,198.9495138000057,,202.21938850000151,left,1.0,130.42821889999323,,,,,,,,,,,,,,,,,,,,,,,,,,,,,,sub-236,1.0,random_dot,97.73422741323289,
left,left,accuracy,,,,,0.0,0.0,0.0,0.0,3.0,0.0,6.0,0.0,202.23096200000143,,,,,,,,,202.2224133000127,202.57302280000292,203.37801430001852,203.36569189999136,203.3657689999964,203.37801430001852,203.37801430001852,203.37801430001852,,208.34194869999192,left,1.0,132.10769259996596,,,,,,,,,,,,,,,,,,,,,,,,,,,,,,sub-236,1.0,random_dot,97.73422741323289,
right,right,accuracy,,,,,0.0,0.0,0.0,0.0,3.0,1.0,7.0,1.0,208.3524046000093,,,,,,,,,208.3454370000109,209.5458556000085,210.3571462999971,210.34516349999467,210.3452219000028,210.3571462999971,210.3571462999971,210.3571462999971,,213.3018948000099,right,1.0,130.08769049998955,,,,,,,,,,,,,,,,,,,,,,,,,,,,,,sub-236,1.0,random_dot,97.73422741323289,
right,right,accuracy,,,,,0.0,0.0,0.0,0.0,4.0,0.0,8.0,1.0,213.31021460000196,,,,,,,,,213.30518130000564,214.502882700006,215.3133486000006,215.29855860001408,215.29865420001445,215.3133486000006,215.3133486000006,215.3133486000006,,219.8262093999947,right,1.0,131.657298599981,,,,,,,,,,,,,,,,,,,,,,,,,,,,,,sub-236,1.0,random_dot,97.73422741323289,
left,left,accuracy,,,,,0.0,0.0,0.0,0.0,4.0,1.0,9.0,0.0,219.83540380001068,,,,,,,,,219.8290419999976,219.92638320001424,220.72683739999772,220.71851470001275,220.7185429999954,220.72683739999772,220.72683739999772,220.72683739999772,225.72212809999476,228.20716510000057,left,1.0,134.6363859999983,,,,,,,,,,,,,,,,,,,,,,,,,,,,,,sub-236,1.0,random_dot,97.73422741323289,
left,left,accuracy,,,,,0.0,0.0,0.0,0.0,5.0,0.0,10.0,0.0,228.22056970000267,,,,,,,,,228.2114712000184,229.00835459999507,229.8139881000097,229.8004382000072,229.80053430001132,229.8139881000097,229.8139881000097,229.8139881000097,234.80301400000465,235.72604340000544,left,1.0,133.06878919998417,,,,,,,,,,,,,,,,,,,,,,,,,,,,,,sub-236,1.0,random_dot,97.73422741323289,
right,right,accuracy,,,,,0.0,0.0,0.0,0.0,5.0,1.0,11.0,1.0,235.7364893000049,,,,,,,,,235.7298117000028,235.83283610001672,236.63649370000348,236.6250274000049,236.6250827000185,236.63649370000348,236.63649370000348,236.63649370000348,,239.2309739000048,right,1.0,129.74507399997674,,,,,,,,,,,,,,,,,,,,,,,,,,,,,,sub-236,1.0,random_dot,97.73422741323289,
left,left,accuracy,,,,,0.0,0.0,0.0,0.0,6.0,0.0,12.0,0.0,239.23932980000973,,,,,,,,,239.23418319999476,239.58825550001347,240.395257199998,240.38288360001752,240.3829393000051,240.395257199998,240.395257199998,240.395257199998,,243.36300919999485,left,1.0,130.1252858999942,,,,,,,,,,,,,,,,,,,,,,,,,,,,,,sub-236,1.0,random_dot,97.73422741323289,
right,right,accuracy,,,,,0.0,0.0,0.0,0.0,6.0,1.0,13.0,1.0,243.37196170000243,,,,,,,,,243.36614709999407,244.56946530001005,245.3747488000081,245.36242960000527,245.3624849000189,245.3747488000081,245.3747488000081,245.3747488000081,,248.05317719999584,right,1.0,129.82092729999567,,,,,,,,,,,,,,,,,,,,,,,,,,,,,,sub-236,1.0,random_dot,97.73422741323289,
left,left,accuracy,,,,,0.0,0.0,0.0,0.0,7.0,0.0,14.0,0.0,248.0622547999956,,,,,,,,,248.05660559999524,248.16248590001487,248.97849219999625,248.9585316000157,248.9586393999925,248.97849219999625,248.97849219999625,248.97849219999625,,252.59631019999503,right,0.0,130.76750159997027,,,,,,,,,,,,,,,,,,,,,,,,,,,,,,sub-236,1.0,random_dot,97.73422741323289,
right,right,accuracy,,,,,0.0,0.0,0.0,0.0,7.0,1.0,15.0,1.0,252.60615890001645,,,,,,,,,252.5992399000097,252.7005863999948,253.5064058999997,253.49374070001068,253.49380029999884,253.5064058999997,253.5064058999997,253.5064058999997,,256.8747546999948,right,1.0,130.51990789998672,,,,,,,,,,,,,,,,,,,,,,,,,,,,,,sub-236,1.0,random_dot,97.73422741323289,
left,left,accuracy,,,,,0.0,0.0,0.0,0.0,8.0,0.0,16.0,0.0,256.88752899999963,,,,,,,,,256.8794349000091,257.6829073000117,258.48961150000105,258.4761941000179,258.47625910001807,258.48961150000105,258.48961150000105,258.48961150000105,,262.49978489999194,left,1.0,131.15551579996827,,,,,,,,,,,,,,,,,,,,,,,,,,,,,,sub-236,1.0,random_dot,97.73422741323289,
right,right,accuracy,,,,,0.0,0.0,0.0,0.0,8.0,1.0,17.0,1.0,262.5098428000056,,,,,,,,,262.50289550001617,263.30781490000663,264.1184072000033,264.10392560000764,264.1040368000104,264.1184072000033,264.1184072000033,264.1184072000033,,268.86283220001496,left,0.0,131.89577760000248,,,,,,,,,,,,,,,,,,,,,,,,,,,,,,sub-236,1.0,random_dot,97.73422741323289,
left,left,accuracy,,,,,0.0,0.0,0.0,0.0,9.0,0.0,18.0,0.0,268.87622470001224,,,,,,,,,268.86589859999367,269.21270010000444,270.0214177000162,270.0101532000117,270.010265000019,270.0214177000162,270.0214177000162,270.0214177000162,275.0080106999958,275.5554936999979,right,0.0,132.69166349997977,,,,,,,,,,,,,,,,,,,,,,,,,,,,,,sub-236,1.0,random_dot,97.73422741323289,
right,right,accuracy,,,,,0.0,0.0,0.0,0.0,9.0,1.0,19.0,1.0,275.5644634999917,,,,,,,,,275.558634999994,275.6608938999998,276.46758530000807,276.4560985999997,276.45615350001026,276.46758530000807,276.46758530000807,276.46758530000807,,280.6814169000136,right,1.0,131.36481699999422,,,,,,,,,,,,,,,,,,,,,,,,,,,,,,sub-236,1.0,random_dot,97.73422741323289,
right,right,accuracy,,,,,0.0,0.0,0.0,0.0,10.0,0.0,20.0,1.0,280.69119340000907,,,,,,,,,280.6855049000005,281.0344488999981,281.8388380999968,281.82722680000006,281.8272809000045,281.8388380999968,281.8388380999968,281.8388380999968,,286.11357370001497,left,0.0,131.42499019997194,,,,,,,,,,,,,,,,,,,,,,,,,,,,,,sub-236,1.0,random_dot,97.73422741323289,
left,left,accuracy,,,,,0.0,0.0,0.0,0.0,10.0,1.0,21.0,0.0,286.125409100001,,,,,,,,,286.1164497999998,286.46714270001394,287.2721414999978,287.26040250001824,287.26045649999287,287.2721414999978,287.2721414999978,287.2721414999978,,289.91028209999786,left,1.0,129.78462889997172,,,,,,,,,,,,,,,,,,,,,,,,,,,,,,sub-236,1.0,random_dot,97.73422741323289,
right,right,accuracy,,,,,0.0,0.0,0.0,0.0,11.0,0.0,22.0,1.0,289.91998540001805,,,,,,,,,289.9143894000153,291.11501490001683,291.9234706000134,291.9075965000084,291.90769540000474,291.9234706000134,291.9234706000134,291.9234706000134,,293.2368389000185,right,1.0,128.4674032999901,,,,,,,,,,,,,,,,,,,,,,,,,,,,,,sub-236,1.0,random_dot,97.73422741323289,
left,left,accuracy,,,,,0.0,0.0,0.0,0.0,11.0,1.0,23.0,0.0,293.2433624000114,,,,,,,,,293.2395102000155,293.5895017000148,294.39709099999163,294.3850158000132,294.38507469999604,294.39709099999163,294.39709099999163,294.39709099999163,,297.8473828000133,left,1.0,130.6000834000006,,,,,,,,,,,,,,,,,,,,,,,,,,,,,,sub-236,1.0,random_dot,97.73422741323289,
left,left,accuracy,,,,,0.0,0.0,0.0,0.0,12.0,0.0,24.0,0.0,297.85678289999487,,,,,,,,,297.85088630000246,298.2086341000104,299.0192660000175,299.00593740001204,299.00600210000994,299.0192660000175,299.0192660000175,299.0192660000175,,302.3562882000115,left,1.0,130.49335599996266,,,,,,,,,,,,,,,,,,,,,,,,,,,,,,sub-236,1.0,random_dot,97.73422741323289,
right,right,accuracy,,,,,0.0,0.0,0.0,0.0,12.0,1.0,25.0,1.0,302.363175800012,,,,,,,,,302.3586883000098,302.4617902000027,303.2675559000054,303.25615420000395,303.25621550000506,303.2675559000054,303.2675559000054,303.2675559000054,308.26630580000347,308.9783180000086,right,1.0,132.86609219998354,,,,,,,,,,,,,,,,,,,,,,,,,,,,,,sub-236,1.0,random_dot,97.73422741323289,
right,right,accuracy,,,,,0.0,0.0,0.0,0.0,13.0,0.0,26.0,1.0,308.99247950001154,,,,,,,,,308.9824096999946,309.3354016999947,310.14338960000896,310.1271347000147,310.12723990000086,310.14338960000896,310.14338960000896,310.14338960000896,,311.336220600002,right,1.0,128.34339849997195,,,,,,,,,,,,,,,,,,,,,,,,,,,,,,sub-236,1.0,random_dot,97.73422741323289,
left,left,accuracy,,,,,0.0,0.0,0.0,0.0,13.0,1.0,27.0,0.0,311.3456721999973,,,,,,,,,311.3398869000084,311.4425648000033,312.2487057000108,312.2362437999982,312.23629930001334,312.2487057000108,312.2487057000108,312.2487057000108,,315.0533956,left,1.0,129.95582679999643,,,,,,,,,,,,,,,,,,,,,,,,,,,,,,sub-236,1.0,random_dot,97.73422741323289,
right,right,accuracy,,,,,0.0,0.0,0.0,0.0,14.0,0.0,28.0,1.0,315.06157930000336,,,,,,,,,315.05647880001925,315.8581271000148,316.6641534999944,316.6515912000032,316.6516649000114,316.6641534999944,316.6641534999944,316.6641534999944,,319.1274465000024,left,0.0,129.6117456999782,,,,,,,,,,,,,,,,,,,,,,,,,,,,,,sub-236,1.0,random_dot,97.73422741323289,
left,left,accuracy,,,,,0.0,0.0,0.0,0.0,14.0,1.0,29.0,0.0,319.13754660001723,,,,,,,,,319.13147419999586,319.93226249999134,320.73571969999466,320.7246927999949,320.72474770000554,320.73571969999466,320.73571969999466,320.73571969999466,,323.7094146000163,left,1.0,130.12547079997603,,,,,,,,,,,,,,,,,,,,,,,,,,,,,,sub-236,1.0,random_dot,97.73422741323289,
left,left,accuracy,,,,,0.0,0.0,0.0,0.0,15.0,0.0,30.0,0.0,323.7174879999948,,,,,,,,,323.7122963000147,324.913953100011,325.7205086000031,325.7070136000111,325.70711190000293,325.7205086000031,325.7205086000031,325.7205086000031,,329.6173017999972,left,1.0,131.0501232999959,,,,,,,,,,,,,,,,,,,,,,,,,,,,,,sub-236,1.0,random_dot,97.73422741323289,
right,right,accuracy,,,,,0.0,0.0,0.0,0.0,15.0,1.0,31.0,1.0,329.6285681000154,,,,,,,,,329.62324210000224,329.72065770000336,330.5247267000086,330.51375770001323,330.5138122999924,330.5247267000086,330.5247267000086,330.5247267000086,,331.7241038999928,right,1.0,128.35061959997984,,,,,,,,,,,,,,,,,,,,,,,,,,,,,,sub-236,1.0,random_dot,97.73422741323289,
left,left,accuracy,,,,,0.0,0.0,0.0,0.0,16.0,0.0,32.0,0.0,331.73290740000084,,,,,,,,,331.7278534999932,332.9283975000144,333.73064399999566,333.7184066000045,333.71854440000607,333.73064399999566,333.73064399999566,333.73064399999566,,335.91213640000205,right,0.0,129.31959779997123,,,,,,,,,,,,,,,,,,,,,,,,,,,,,,sub-236,1.0,random_dot,97.73422741323289,
right,right,accuracy,,,,,0.0,0.0,0.0,0.0,16.0,1.0,33.0,1.0,335.9241594000196,,,,,,,,,335.91762710001785,337.1189165000105,337.92864289999125,337.9152169000008,337.91528020001715,337.92864289999125,337.92864289999125,337.92864289999125,,340.42904129999806,right,1.0,129.65811709998525,,,,,,,,,,,,,,,,,,,,,,,,,,,,,,sub-236,1.0,random_dot,97.73422741323289,
right,right,accuracy,,,,,0.0,0.0,0.0,0.0,17.0,0.0,34.0,1.0,340.4381978000165,,,,,,,,,340.4321544000122,340.5346314999915,341.3510904000141,341.3324509999948,341.3325588000007,341.3510904000141,341.3510904000141,341.3510904000141,,342.7348316000134,right,1.0,128.52670269997907,,,,,,,,,,,,,,,,,,,,,,,,,,,,,,sub-236,1.0,random_dot,97.73422741323289,
left,left,accuracy,,,,,0.0,0.0,0.0,0.0,17.0,1.0,35.0,0.0,342.744749400008,,,,,,,,,342.73782370000845,343.5337783000141,344.3398751000059,344.3283134000085,344.3283725999936,344.3398751000059,344.3398751000059,344.3398751000059,,345.5320437999908,left,1.0,128.34376180000254,,,,,,,,,,,,,,,,,,,,,,,,,,,,,,sub-236,1.0,random_dot,97.73422741323289,
right,right,accuracy,,,,,0.0,0.0,0.0,0.0,18.0,0.0,36.0,1.0,345.5418290999951,,,,,,,,,345.53530829999363,346.7328741000092,347.5445679000113,347.52985220000846,347.5299169000064,347.5445679000113,347.5445679000113,347.5445679000113,,348.86010730001726,right,1.0,128.47395819998928,,,,,,,,,,,,,,,,,,,,,,,,,,,,,,sub-236,1.0,random_dot,97.73422741323289,
left,left,accuracy,,,,,0.0,0.0,0.0,0.0,18.0,1.0,37.0,0.0,348.87210159999086,,,,,,,,,348.864665400004,348.96781790000387,349.77009669999825,349.7585318000056,349.7586147999973,349.77009669999825,349.77009669999825,349.77009669999825,,350.5964865999995,right,0.0,127.97735059997648,,,,,,,,,,,,,,,,,,,,,,,,,,,,,,sub-236,1.0,random_dot,97.73422741323289,
right,right,accuracy,,,,,0.0,0.0,0.0,0.0,19.0,0.0,38.0,1.0,350.6055304000038,,,,,,,,,350.60051190000377,350.69894070000737,351.50391600001603,351.49089690000983,351.49099459999707,351.50391600001603,351.50391600001603,351.50391600001603,,352.20495350001147,right,1.0,127.85677769995527,,,,,,,,,,,,,,,,,,,,,,,,,,,,,,sub-236,1.0,random_dot,97.73422741323289,
left,left,accuracy,,,,,0.0,0.0,0.0,0.0,19.0,1.0,39.0,0.0,352.21833619999234,,,,,,,,,352.20872580001014,352.3071670999925,353.113746899995,353.1020894999965,353.10218849999364,353.113746899995,353.113746899995,353.113746899995,,354.70484180000494,left,1.0,128.750508099969,,,,,,,,,,,,,,,,,,,,,,,,,,,,,,sub-236,1.0,random_dot,97.73422741323289,
left,left,accuracy,,,,,0.0,0.0,0.0,0.0,20.0,0.0,40.0,0.0,354.71208850000403,,,,,,,,,354.7067453000054,355.50521370000206,356.31057930001407,356.29838920000475,356.29844690000755,356.31057930001407,356.31057930001407,356.31057930001407,,358.6861547000008,right,0.0,129.51648279998335,,,,,,,,,,,,,,,,,,,,,,,,,,,,,,sub-236,1.0,random_dot,97.73422741323289,
right,right,accuracy,,,,,0.0,0.0,0.0,0.0,20.0,1.0,41.0,1.0,358.6964215000044,,,,,,,,,358.69039190001786,359.487672999996,360.2918501000095,360.2805936000077,360.2806474000099,360.2918501000095,360.2918501000095,360.2918501000095,,361.3976380999957,left,0.0,128.26392069997382,,,,,,,,,,,,,,,,,,,,,,,,,,,,,,sub-236,1.0,random_dot,97.73422741323289,
right,right,accuracy,,,,,0.0,0.0,0.0,0.0,21.0,0.0,42.0,1.0,361.40902029999415,,,,,,,,,361.40135450000525,361.5041434000013,362.31139799999073,362.3001645000186,362.30021919999854,362.31139799999073,362.31139799999073,362.31139799999073,,363.1362970000191,right,1.0,127.98123539998778,,,,,,,,,,,,,,,,,,,,,,,,,,,,,,sub-236,1.0,random_dot,97.73422741323289,
left,left,accuracy,,,,,0.0,0.0,0.0,0.0,21.0,1.0,43.0,0.0,363.1468811999948,,,,,,,,,363.1398104999971,363.4873059999954,364.2913546999917,364.279320600006,364.2793757000181,364.2913546999917,364.2913546999917,364.2913546999917,,366.7130150000157,left,1.0,129.57781190000242,,,,,,,,,,,,,,,,,,,,,,,,,,,,,,sub-236,1.0,random_dot,97.73422741323289,
right,right,accuracy,,,,,0.0,0.0,0.0,0.0,22.0,0.0,44.0,1.0,366.7224557000154,,,,,,,,,366.715947299992,367.9186724000028,368.719668100006,368.7106158999959,368.7106505999982,368.719668100006,368.719668100006,368.719668100006,,369.4061873000173,left,0.0,127.83688629997778,,,,,,,,,,,,,,,,,,,,,,,,,,,,,,sub-236,1.0,random_dot,97.73422741323289,
left,left,accuracy,,,,,0.0,0.0,0.0,0.0,22.0,1.0,45.0,0.0,369.4175887000165,,,,,,,,,369.40922440000577,370.2097028999997,371.0175858000002,371.0019017000159,371.00193620001664,371.0175858000002,371.0175858000002,371.0175858000002,,372.3660544000159,right,0.0,128.48994859997765,,,,,,,,,,,,,,,,,,,,,,,,,,,,,,sub-236,1.0,random_dot,97.73422741323289,
right,right,accuracy,,,,,0.0,0.0,0.0,0.0,23.0,0.0,46.0,1.0,372.3751554000192,,,,,,,,,372.370107099996,373.167190600012,373.9720226000063,373.96134460001485,373.9613990999933,373.9720226000063,373.9720226000063,373.9720226000063,,374.8780945000181,right,1.0,128.06427519998397,,,,,,,,,,,,,,,,,,,,,,,,,,,,,,sub-236,1.0,random_dot,97.73422741323289,
left,left,accuracy,,,,,0.0,0.0,0.0,0.0,23.0,1.0,47.0,0.0,374.8900590999983,,,,,,,,,374.8821668000018,374.98315400001593,375.7873898000107,375.77639119999367,375.7764483999927,375.7873898000107,375.7873898000107,375.7873898000107,,378.2017044000095,left,1.0,129.57212789996993,,,,,,,,,,,,,,,,,,,,,,,,,,,,,,sub-236,1.0,random_dot,97.73422741323289,
left,left,accuracy,,,,,0.0,0.0,0.0,0.0,24.0,0.0,48.0,0.0,378.2127114000032,,,,,,,,,378.204905999999,379.4072691000183,380.2216451000131,380.20740600000136,380.2075093000021,380.2216451000131,380.2216451000131,380.2216451000131,,382.34236410001176,left,1.0,129.27944909996586,,,,,,,,,,,,,,,,,,,,,,,,,,,,,,sub-236,1.0,random_dot,97.73422741323289,
right,right,accuracy,,,,,0.0,0.0,0.0,0.0,24.0,1.0,49.0,1.0,382.3546495000192,,,,,,,,,382.34540130000096,382.69817780001904,383.50242180001806,383.49079539999366,383.4908965000068,383.50242180001806,383.50242180001806,383.50242180001806,,386.505608300009,right,1.0,130.1501662999799,,,,,,,,,,,,,,,,,,,,,,,,,,,,,,sub-236,1.0,random_dot,97.73422741323289,
left,left,accuracy,,,,,0.0,0.0,0.0,0.0,25.0,0.0,50.0,0.0,386.51468210000894,,,,,,,,,386.5091661000042,386.6068516999949,387.4115286000015,387.40066370001296,387.400718799996,387.4115286000015,387.4115286000015,387.4115286000015,,388.9095798000053,left,1.0,128.64800459999242,,,,,,,,,,,,,,,,,,,,,,,,,,,,,,sub-236,1.0,random_dot,97.73422741323289,
right,right,accuracy,,,,,0.0,0.0,0.0,0.0,25.0,1.0,51.0,1.0,388.9192543000099,,,,,,,,,388.9142597000173,389.2625498000125,390.067203100014,390.0556815000018,390.0557558000146,390.067203100014,390.067203100014,390.067203100014,,394.9290548000136,right,1.0,132.00341059998027,,,,,,,,,,,,,,,,,,,,,,,,,,,,,,sub-236,1.0,random_dot,97.73422741323289,
left,left,accuracy,,,,,0.0,0.0,0.0,0.0,26.0,0.0,52.0,0.0,394.9377013000194,,,,,,,,,394.9323951000115,395.2860529000173,396.0969659000111,396.0831976000045,396.0832863000105,396.0969659000111,396.0969659000111,396.0969659000111,,397.87398820000817,left,1.0,128.93596069997875,,,,,,,,,,,,,,,,,,,,,,,,,,,,,,sub-236,1.0,random_dot,97.73422741323289,
right,right,accuracy,,,,,0.0,0.0,0.0,0.0,26.0,1.0,53.0,1.0,397.8869083000173,,,,,,,,,397.8776833000011,399.0767302000022,399.8806825999927,399.8698090999969,399.8698719000095,399.8806825999927,399.8806825999927,399.8806825999927,,401.2996938000142,right,1.0,128.56668729995727,,,,,,,,,,,,,,,,,,,,,,,,,,,,,,sub-236,1.0,random_dot,97.73422741323289,
right,right,accuracy,,,,,0.0,0.0,0.0,0.0,27.0,0.0,54.0,1.0,401.3136671000102,,,,,,,,,401.3043074000161,401.4018454000179,402.2119954999944,402.1969241000188,402.196988700016,402.2119954999944,402.2119954999944,402.2119954999944,,406.3121617000143,right,1.0,131.25422149998485,,,,,,,,,,,,,,,,,,,,,,,,,,,,,,sub-236,1.0,random_dot,97.73422741323289,
left,left,accuracy,,,,,0.0,0.0,0.0,0.0,27.0,1.0,55.0,0.0,406.3235238000052,,,,,,,,,406.3156189000001,407.11617320001824,407.9209466000029,407.9088757999998,407.9089332000003,407.9209466000029,407.9209466000029,407.9209466000029,,408.7079564000014,right,0.0,127.938585099997,,,,,,,,,,,,,,,,,,,,,,,,,,,,,,sub-236,1.0,random_dot,97.73422741323289,
right,right,accuracy,,,,,0.0,0.0,0.0,0.0,28.0,0.0,56.0,1.0,408.71948230001726,,,,,,,,,408.7123100000026,409.50830010001664,410.3111044999969,410.29994570001145,410.3000000000175,410.3111044999969,410.3111044999969,410.3111044999969,,411.1699982999999,right,1.0,128.01355069997953,,,,,,,,,,,,,,,,,,,,,,,,,,,,,,sub-236,1.0,random_dot,97.73422741323289,
left,left,accuracy,,,,,0.0,0.0,0.0,0.0,28.0,1.0,57.0,0.0,411.18108890001895,,,,,,,,,411.1733326000103,411.2752391000104,412.0775966999936,412.0662376999972,412.06629590000375,412.0775966999936,412.0775966999936,412.0775966999936,,413.2026486000104,left,1.0,128.2737259999849,,,,,,,,,,,,,,,,,,,,,,,,,,,,,,sub-236,1.0,random_dot,97.73422741323289,
right,right,accuracy,,,,,0.0,0.0,0.0,0.0,29.0,0.0,58.0,1.0,413.21254249999765,,,,,,,,,413.20580860000337,414.0056778000144,414.80999929999234,414.79868130001705,414.7987362999993,414.80999929999234,414.80999929999234,414.80999929999234,,416.0135986999958,right,1.0,128.35644740000134,,,,,,,,,,,,,,,,,,,,,,,,,,,,,,sub-236,1.0,random_dot,97.73422741323289,
left,left,accuracy,,,,,0.0,0.0,0.0,0.0,29.0,1.0,59.0,0.0,416.0239827000187,,,,,,,,,416.0174356999924,416.1136566000059,416.9186578000081,416.9065540000156,416.9066126999969,416.9186578000081,416.9186578000081,416.9186578000081,,419.3875876000093,left,1.0,129.62623159997747,,,,,,,,,,,,,,,,,,,,,,,,,,,,,,sub-236,1.0,random_dot,97.73422741323289,
,,accuracy,,,,,0.0,0.0,0.0,0.0,,,,,,,,,,,,,,,,,,,,,,,,,,,,,,,,,,,,,,,,,,,,,,,,,,,,,,,,sub-236,1.0,random_dot,97.73422741323289,
left,left,speed,,,,,0.0,1.0,1.0,1.0,0.0,0.0,0.0,0.0,423.5512777999975,,,,,,,,,423.5459751000162,423.61992190001183,424.4332639999921,424.41988940001465,424.419948099996,424.4332639999921,424.4332639999921,424.4332639999921,,425.9711376999912,left,1.0,128.6911694999726,,,,,,,,,,,,,,,,,,,,419.3907520000066,419.42697699999553,419.42697699999553,423.521278900007,space,131.2469516999845,,,,,sub-236,1.0,random_dot,97.73422741323289,
right,right,speed,,,,,0.0,1.0,1.0,1.0,0.0,1.0,1.0,1.0,425.9795143000083,,,,,,,,,425.9737820000155,427.177774700016,427.981973499991,427.97014799999306,427.9702294000017,427.981973499991,427.981973499991,427.981973499991,,428.9100196000072,right,1.0,128.08088579998002,,,,,,,,,,,,,,,,,,,,,,,,,,,,,,sub-236,1.0,random_dot,97.73422741323289,
left,left,speed,,,,,0.0,1.0,1.0,1.0,1.0,0.0,2.0,0.0,428.9187198000145,,,,,,,,,428.9136609999987,429.7099680000101,430.51469549999456,430.5026742000191,430.5027285999968,430.51469549999456,430.51469549999456,430.51469549999456,,431.6237234,left,1.0,128.26673139998456,,,,,,,,,,,,,,,,,,,,,,,,,,,,,,sub-236,1.0,random_dot,97.73422741323289,
right,right,speed,,,,,0.0,1.0,1.0,1.0,1.0,1.0,3.0,1.0,431.6343909999996,,,,,,,,,431.62737830000697,431.9757297000033,432.7800594000146,432.7689642000187,432.769042800006,432.7800594000146,432.7800594000146,432.7800594000146,,433.7222127999994,right,1.0,128.09246369995526,,,,,,,,,,,,,,,,,,,,,,,,,,,,,,sub-236,1.0,random_dot,97.73422741323289,
left,left,speed,,,,,0.0,1.0,1.0,1.0,2.0,0.0,4.0,0.0,433.7343048000184,,,,,,,,,433.72855329999584,434.0753325000114,434.885578699992,434.86638890000177,434.8664958000009,434.885578699992,434.885578699992,434.885578699992,,436.0671166999964,left,1.0,128.33042059998843,,,,,,,,,,,,,,,,,,,,,,,,,,,,,,sub-236,1.0,random_dot,97.73422741323289,
right,right,speed,,,,,0.0,1.0,1.0,1.0,2.0,1.0,5.0,1.0,436.0807374000142,,,,,,,,,436.0728202000028,436.87451630001306,437.67916970001534,437.6676499000168,437.66770520000136,437.67916970001534,437.67916970001534,437.67916970001534,,438.9993891000049,right,1.0,128.46899459999986,,,,,,,,,,,,,,,,,,,,,,,,,,,,,,sub-236,1.0,random_dot,97.73422741323289,
left,left,speed,,,,,0.0,1.0,1.0,1.0,3.0,0.0,6.0,0.0,439.00977790000616,,,,,,,,,439.0032045000116,439.7988123999967,440.6025558999973,440.5916406000033,440.5916952000116,440.6025558999973,440.6025558999973,440.6025558999973,,441.8933847000008,left,1.0,128.43712399996002,,,,,,,,,,,,,,,,,,,,,,,,,,,,,,sub-236,1.0,random_dot,97.73422741323289,
right,right,speed,,,,,0.0,1.0,1.0,1.0,3.0,1.0,7.0,1.0,441.9032515000145,,,,,,,,,441.8971713999927,442.2481351000024,443.0522264000029,443.0411413999973,443.0412003000092,443.0522264000029,443.0522264000029,443.0522264000029,,444.67005859999335,right,1.0,128.77171499998076,,,,,,,,,,,,,,,,,,,,,,,,,,,,,,sub-236,1.0,random_dot,97.73422741323289,
left,left,speed,,,,,0.0,1.0,1.0,1.0,4.0,0.0,8.0,0.0,444.6756755000097,,,,,,,,,444.6718208999955,445.8729798000131,446.6736735000159,446.6648070999945,446.664848400018,446.6736735000159,446.6736735000159,446.6736735000159,,447.7759361999924,left,1.0,128.2602910999849,,,,,,,,,,,,,,,,,,,,,,,,,,,,,,sub-236,1.0,random_dot,97.73422741323289,
right,right,speed,,,,,0.0,1.0,1.0,1.0,4.0,1.0,9.0,1.0,447.7860301000183,,,,,,,,,447.77941550000105,448.1299299999955,448.9374733000004,448.9238649000181,448.9239319000044,448.9374733000004,448.9374733000004,448.9374733000004,,449.9749998000043,right,1.0,128.18182009999873,,,,,,,,,,,,,,,,,,,,,,,,,,,,,,sub-236,1.0,random_dot,97.73422741323289,
right,right,speed,,,,,0.0,1.0,1.0,1.0,5.0,0.0,10.0,1.0,449.9838885999925,,,,,,,,,449.9786016000144,450.0822030999989,450.883748399996,450.8722789000021,450.8723364000034,450.883748399996,450.883748399996,450.883748399996,,451.6648736000061,right,1.0,127.93099059996894,,,,,,,,,,,,,,,,,,,,,,,,,,,,,,sub-236,1.0,random_dot,97.73422741323289,
left,left,speed,,,,,0.0,1.0,1.0,1.0,5.0,1.0,11.0,0.0,451.67881310000666,,,,,,,,,451.6711819000193,452.8741139000049,453.6826153000002,453.6712880000123,453.6713415000122,453.6826153000002,453.6826153000002,453.6826153000002,,454.844787900016,left,1.0,128.31945229999835,,,,,,,,,,,,,,,,,,,,,,,,,,,,,,sub-236,1.0,random_dot,97.73422741323289,
right,right,speed,,,,,0.0,1.0,1.0,1.0,6.0,0.0,12.0,1.0,454.8554654000036,,,,,,,,,454.847758399992,456.04505730001256,456.844823499996,456.83637309999904,456.8364048000076,456.844823499996,456.844823499996,456.844823499996,,458.0635241999989,left,0.0,128.36877999996068,,,,,,,,,,,,,,,,,,,,,,,,,,,,,,sub-236,1.0,random_dot,97.73422741323289,
left,left,speed,,,,,0.0,1.0,1.0,1.0,6.0,1.0,13.0,0.0,458.0720355999947,,,,,,,,,458.0674168000114,459.269492499996,460.07250280000153,460.0613251000177,460.0613816000114,460.07250280000153,460.07250280000153,460.07250280000153,,461.5987449999957,left,1.0,128.67747709999094,,,,,,,,,,,,,,,,,,,,,,,,,,,,,,sub-236,1.0,random_dot,97.73422741323289,
right,right,speed,,,,,0.0,1.0,1.0,1.0,7.0,0.0,14.0,1.0,461.607059300004,,,,,,,,,461.6020630999992,462.8007389999984,463.6110159000091,463.5938138999918,463.5938682999986,463.6110159000091,463.6110159000091,463.6110159000091,,465.09540049999487,left,0.0,128.64317149997805,,,,,,,,,,,,,,,,,,,,,,,,,,,,,,sub-236,1.0,random_dot,97.73422741323289,
left,left,speed,,,,,0.0,1.0,1.0,1.0,7.0,1.0,15.0,0.0,465.1066075999988,,,,,,,,,465.0983457000111,466.2999134999991,467.1016190999944,467.0921513999929,467.0921850000159,467.1016190999944,467.1016190999944,467.1016190999944,,469.1316268999944,left,1.0,129.18443889997434,,,,,,,,,,,,,,,,,,,,,,,,,,,,,,sub-236,1.0,random_dot,97.73422741323289,
left,left,speed,,,,,0.0,1.0,1.0,1.0,8.0,0.0,16.0,0.0,469.1412691000151,,,,,,,,,469.135368999996,469.9323442000023,470.7369643000129,470.7251846000145,470.7252439000004,470.7369643000129,470.7369643000129,470.7369643000129,,471.8448658999987,left,1.0,128.26444119997905,,,,,,,,,,,,,,,,,,,,,,,,,,,,,,sub-236,1.0,random_dot,97.73422741323289,
right,right,speed,,,,,0.0,1.0,1.0,1.0,8.0,1.0,17.0,1.0,471.85464870001306,,,,,,,,,471.8490087999962,473.0482057000045,473.8550439999962,473.8428789000027,473.8429385999916,473.8550439999962,473.8550439999962,473.8550439999962,,474.9516736000078,right,1.0,128.23934429997462,,,,,,,,,,,,,,,,,,,,,,,,,,,,,,sub-236,1.0,random_dot,97.73422741323289,
right,right,speed,,,,,0.0,1.0,1.0,1.0,9.0,0.0,18.0,1.0,474.964209400001,,,,,,,,,474.95687300001737,475.7555749000167,476.5577193000063,476.5465764999972,476.5466295999941,476.5577193000063,476.5577193000063,476.5577193000063,,477.91813760000514,right,1.0,128.51049399998735,,,,,,,,,,,,,,,,,,,,,,,,,,,,,,sub-236,1.0,random_dot,97.73422741323289,
left,left,speed,,,,,0.0,1.0,1.0,1.0,9.0,1.0,19.0,0.0,477.9260909000004,,,,,,,,,477.9211508000153,478.7213417000021,479.52853219999815,479.5164197999984,479.5164739000029,479.52853219999815,479.52853219999815,479.52853219999815,,480.92026089999126,right,0.0,128.53707119997125,,,,,,,,,,,,,,,,,,,,,,,,,,,,,,sub-236,1.0,random_dot,97.73422741323289,
right,right,speed,,,,,0.0,1.0,1.0,1.0,10.0,0.0,20.0,1.0,480.9293666000012,,,,,,,,,480.923245700018,482.1216839000117,482.93679540001904,482.920094400004,482.92017040000064,482.93679540001904,482.93679540001904,482.93679540001904,,484.1241726000153,right,1.0,128.33819969999604,,,,,,,,,,,,,,,,,,,,,,,,,,,,,,sub-236,1.0,random_dot,97.73422741323289,
left,left,speed,,,,,0.0,1.0,1.0,1.0,10.0,1.0,21.0,0.0,484.1355748999922,,,,,,,,,484.1289766000118,484.9279600000009,485.7328542000032,485.72068880000734,485.7207429000118,485.7328542000032,485.7328542000032,485.7328542000032,,486.5029787000094,left,1.0,127.92824680000194,,,,,,,,,,,,,,,,,,,,,,,,,,,,,,sub-236,1.0,random_dot,97.73422741323289,
right,right,speed,,,,,0.0,1.0,1.0,1.0,11.0,0.0,22.0,1.0,486.5139458000194,,,,,,,,,486.5060162000009,487.7021912999917,488.5077692999912,488.4951290000172,488.4951831999933,488.5077692999912,488.5077692999912,488.5077692999912,,489.85422599999583,left,0.0,128.50211419997504,,,,,,,,,,,,,,,,,,,,,,,,,,,,,,sub-236,1.0,random_dot,97.73422741323289,
left,left,speed,,,,,0.0,1.0,1.0,1.0,11.0,1.0,23.0,0.0,489.8637066000083,,,,,,,,,489.8576913000143,489.9612128000008,490.7715459000028,490.7571033000131,490.75718780001625,490.7715459000028,490.7715459000028,490.7715459000028,,491.97612120001577,left,1.0,128.35418799999752,,,,,,,,,,,,,,,,,,,,,,,,,,,,,,sub-236,1.0,random_dot,97.73422741323289,
right,right,speed,,,,,0.0,1.0,1.0,1.0,12.0,0.0,24.0,1.0,491.9902058000153,,,,,,,,,491.9823643999989,493.1858986000007,493.9880980000016,493.9767127000087,493.9767701000092,493.9880980000016,493.9880980000016,493.9880980000016,,495.48869100000593,left,0.0,128.65025549998973,,,,,,,,,,,,,,,,,,,,,,,,,,,,,,sub-236,1.0,random_dot,97.73422741323289,
left,left,speed,,,,,0.0,1.0,1.0,1.0,12.0,1.0,25.0,0.0,495.49711970001226,,,,,,,,,495.49171080000815,495.59159180001006,496.396650300012,496.3845153000148,496.384570299997,496.396650300012,496.396650300012,496.396650300012,,497.6228504000173,left,1.0,128.37662819997058,,,,,,,,,,,,,,,,,,,,,,,,,,,,,,sub-236,1.0,random_dot,97.73422741323289,
left,left,speed,,,,,0.0,1.0,1.0,1.0,13.0,0.0,26.0,0.0,497.6326114000112,,,,,,,,,497.625858400017,498.82433370000217,499.6297598000092,499.6172577000106,499.61734570001136,499.6297598000092,499.6297598000092,499.6297598000092,,500.70577920001233,left,1.0,128.2351707999769,,,,,,,,,,,,,,,,,,,,,,,,,,,,,,sub-236,1.0,random_dot,97.73422741323289,
right,right,speed,,,,,0.0,1.0,1.0,1.0,13.0,1.0,27.0,1.0,500.71552800000063,,,,,,,,,500.7087619999948,501.0583269000053,501.86347780001233,501.8515494000167,501.8516040999966,501.86347780001233,501.86347780001233,501.86347780001233,,502.5126645000128,right,1.0,127.80734010000016,,,,,,,,,,,,,,,,,,,,,,,,,,,,,,sub-236,1.0,random_dot,97.73422741323289,
left,left,speed,,,,,0.0,1.0,1.0,1.0,14.0,0.0,28.0,0.0,502.51884699999937,,,,,,,,,502.5144264000119,502.8646330999909,503.6705976999947,503.6603639000096,503.6604122999997,503.6705976999947,503.6705976999947,503.6705976999947,,504.4126455000078,left,1.0,127.90032889999566,,,,,,,,,,,,,,,,,,,,,,,,,,,,,,sub-236,1.0,random_dot,97.73422741323289,
right,right,speed,,,,,0.0,1.0,1.0,1.0,14.0,1.0,29.0,1.0,504.42144440000993,,,,,,,,,504.4156988000032,504.76536380001926,505.56913960000384,505.5557461999997,505.55581150000216,505.56913960000384,505.56913960000384,505.56913960000384,,506.429845000006,right,1.0,128.00857099998393,,,,,,,,,,,,,,,,,,,,,,,,,,,,,,sub-236,1.0,random_dot,97.73422741323289,
left,left,speed,,,,,0.0,1.0,1.0,1.0,15.0,0.0,30.0,0.0,506.4400397000136,,,,,,,,,506.43461329999263,506.7802822999947,507.5849633000034,507.5718996000069,507.5719586000196,507.5849633000034,507.5849633000034,507.5849633000034,,508.5051261000044,left,1.0,128.07485179998912,,,,,,,,,,,,,,,,,,,,,,,,,,,,,,sub-236,1.0,random_dot,97.73422741323289,
right,right,speed,,,,,0.0,1.0,1.0,1.0,15.0,1.0,31.0,1.0,508.51487089999137,,,,,,,,,508.5084118999948,509.3050746000081,510.1076327000046,510.0954870000133,510.09554410001147,510.1076327000046,510.1076327000046,510.1076327000046,,510.8322377000004,left,0.0,127.87631519997376,,,,,,,,,,,,,,,,,,,,,,,,,,,,,,sub-236,1.0,random_dot,97.73422741323289,
right,right,speed,,,,,0.0,1.0,1.0,1.0,16.0,0.0,32.0,1.0,510.8413576000021,,,,,,,,,510.8351690999989,512.0374914999993,512.8474139000173,512.8328810000094,512.8329473000194,512.8474139000173,512.8474139000173,512.8474139000173,,513.6323241000064,left,0.0,127.93567989999428,,,,,,,,,,,,,,,,,,,,,,,,,,,,,,sub-236,1.0,random_dot,97.73422741323289,
left,left,speed,,,,,0.0,1.0,1.0,1.0,16.0,1.0,33.0,0.0,513.6411603000015,,,,,,,,,513.6359752000135,514.8363188999938,515.6388256000064,515.6271448000043,515.6272402000031,515.6388256000064,515.6388256000064,515.6388256000064,,516.3129203999997,left,1.0,127.83003349998036,,,,,,,,,,,,,,,,,,,,,,,,,,,,,,sub-236,1.0,random_dot,97.73422741323289,
right,right,speed,,,,,0.0,1.0,1.0,1.0,17.0,0.0,34.0,1.0,516.3242467000091,,,,,,,,,516.3166497999919,516.4191857000114,517.2234814999974,517.2125793000159,517.2126357000088,517.2234814999974,517.2234814999974,517.2234814999974,,517.9992618999968,right,1.0,127.92746310000076,,,,,,,,,,,,,,,,,,,,,,,,,,,,,,sub-236,1.0,random_dot,97.73422741323289,
left,left,speed,,,,,0.0,1.0,1.0,1.0,17.0,1.0,35.0,0.0,518.0075407999975,,,,,,,,,518.0022851999965,518.1018307000049,518.9061992999923,518.8951462999976,518.8952029999928,518.9061992999923,518.9061992999923,518.9061992999923,,519.7257235000143,right,0.0,127.96149359998526,,,,,,,,,,,,,,,,,,,,,,,,,,,,,,sub-236,1.0,random_dot,97.73422741323289,
left,left,speed,,,,,0.0,1.0,1.0,1.0,18.0,0.0,36.0,0.0,519.7349634999991,,,,,,,,,519.7295577000186,519.8272215000179,520.6352196999942,520.6198915000132,520.6199999999953,520.6352196999942,520.6352196999942,520.6352196999942,,521.4859029999934,right,0.0,127.9954722999828,,,,,,,,,,,,,,,,,,,,,,,,,,,,,,sub-236,1.0,random_dot,97.73422741323289,
right,right,speed,,,,,0.0,1.0,1.0,1.0,18.0,1.0,37.0,1.0,521.4952459000051,,,,,,,,,521.4888730999955,521.5929483000073,522.3975407000107,522.3855082000082,522.3855642999988,522.3975407000107,522.3975407000107,522.3975407000107,,523.0207019000081,right,1.0,127.77602299998398,,,,,,,,,,,,,,,,,,,,,,,,,,,,,,sub-236,1.0,random_dot,97.73422741323289,
left,left,speed,,,,,0.0,1.0,1.0,1.0,19.0,0.0,38.0,0.0,523.0288786000165,,,,,,,,,523.0238366000121,523.8205716999946,524.6305607999966,524.6158914999978,524.6159782000177,524.6305607999966,524.6305607999966,524.6305607999966,,525.3301065000123,right,0.0,127.85490749997552,,,,,,,,,,,,,,,,,,,,,,,,,,,,,,sub-236,1.0,random_dot,97.73422741323289,
right,right,speed,,,,,0.0,1.0,1.0,1.0,19.0,1.0,39.0,1.0,525.3431856000097,,,,,,,,,525.3335791999998,525.6833454000007,526.4891634999949,526.4769548000186,526.4770416000101,526.4891634999949,526.4891634999949,526.4891634999949,,527.488784599991,right,1.0,128.14846149997902,,,,,,,,,,,,,,,,,,,,,,,,,,,,,,sub-236,1.0,random_dot,97.73422741323289,
right,right,speed,,,,,0.0,1.0,1.0,1.0,20.0,0.0,40.0,1.0,527.4970827999932,,,,,,,,,527.4920806000009,527.8421259000024,528.6543747000105,528.6405177999986,528.6405987000035,528.6543747000105,528.6543747000105,528.6543747000105,,529.2173512000008,left,0.0,127.71411449997686,,,,,,,,,,,,,,,,,,,,,,,,,,,,,,sub-236,1.0,random_dot,97.73422741323289,
left,left,speed,,,,,0.0,1.0,1.0,1.0,20.0,1.0,41.0,0.0,529.2268708999909,,,,,,,,,529.2203530000115,530.4253279000113,531.2361176999984,531.2221552999981,531.2222421000188,531.2361176999984,531.2361176999984,531.2361176999984,,531.9697343000153,right,0.0,127.89218779999646,,,,,,,,,,,,,,,,,,,,,,,,,,,,,,sub-236,1.0,random_dot,97.73422741323289,
right,right,speed,,,,,0.0,1.0,1.0,1.0,21.0,0.0,42.0,1.0,531.9809613999969,,,,,,,,,531.9727118000155,533.1729532000027,533.9793295999989,533.9665538000118,533.9666149000113,533.9793295999989,533.9793295999989,533.9793295999989,,535.8743254000146,right,1.0,129.0534295999969,,,,,,,,,,,,,,,,,,,,,,,,,,,,,,sub-236,1.0,random_dot,97.73422741323289,
left,left,speed,,,,,0.0,1.0,1.0,1.0,21.0,1.0,43.0,0.0,535.8855192000046,,,,,,,,,535.8773738000018,535.9812827999995,536.7847146000131,536.7733294999925,536.7733860000153,536.7847146000131,536.7847146000131,536.7847146000131,,537.5510721000028,left,1.0,127.9119592999632,,,,,,,,,,,,,,,,,,,,,,,,,,,,,,sub-236,1.0,random_dot,97.73422741323289,
left,left,speed,,,,,0.0,1.0,1.0,1.0,22.0,0.0,44.0,0.0,537.5611696999986,,,,,,,,,537.5558871999965,538.3548622000089,539.1591627000016,539.1477637999924,539.1478439999919,539.1591627000016,539.1591627000016,539.1591627000016,,540.21940490001,left,1.0,128.20658069997444,,,,,,,,,,,,,,,,,,,,,,,,,,,,,,sub-236,1.0,random_dot,97.73422741323289,
right,right,speed,,,,,0.0,1.0,1.0,1.0,22.0,1.0,45.0,1.0,540.2287372999999,,,,,,,,,540.2233491000079,541.4224567000056,542.2333645000181,542.2210784000054,542.2211387999996,542.2333645000181,542.2333645000181,542.2333645000181,,543.2394987000152,left,0.0,128.156682300003,,,,,,,,,,,,,,,,,,,,,,,,,,,,,,sub-236,1.0,random_dot,97.73422741323289,
left,left,speed,,,,,0.0,1.0,1.0,1.0,23.0,0.0,46.0,0.0,543.2476043000061,,,,,,,,,543.2425855000038,543.5950464000052,544.403633000009,544.3918883000151,544.3919669000024,544.403633000009,544.403633000009,544.403633000009,,545.4042315999977,left,1.0,128.15500609995797,,,,,,,,,,,,,,,,,,,,,,,,,,,,,,sub-236,1.0,random_dot,97.73422741323289,
right,right,speed,,,,,0.0,1.0,1.0,1.0,23.0,1.0,47.0,1.0,545.4206403999997,,,,,,,,,545.4109122999944,546.2109965000127,547.0187240999949,547.0074321000138,547.0074885000067,547.0187240999949,547.0187240999949,547.0187240999949,,547.765969,right,1.0,127.88990619996912,,,,,,,,,,,,,,,,,,,,,,,,,,,,,,sub-236,1.0,random_dot,97.73422741323289,
right,right,speed,,,,,0.0,1.0,1.0,1.0,24.0,0.0,48.0,1.0,547.7765086000145,,,,,,,,,547.7693339000107,547.8689865999913,548.6740114999993,548.6606863999914,548.6607509000169,548.6740114999993,548.6740114999993,548.6740114999993,,549.2845882000111,right,1.0,127.76769449998392,,,,,,,,,,,,,,,,,,,,,,,,,,,,,,sub-236,1.0,random_dot,97.73422741323289,
left,left,speed,,,,,0.0,1.0,1.0,1.0,24.0,1.0,49.0,0.0,549.2988074000168,,,,,,,,,549.2888739000191,550.0849465999927,550.8869287999987,550.8771387000161,550.8771792000043,550.8869287999987,550.8869287999987,550.8869287999987,,551.5989234000153,left,1.0,127.87056859998847,,,,,,,,,,,,,,,,,,,,,,,,,,,,,,sub-236,1.0,random_dot,97.73422741323289,
left,left,speed,,,,,0.0,1.0,1.0,1.0,25.0,0.0,50.0,0.0,551.6097903000191,,,,,,,,,551.6018102999951,551.7016618000052,552.5059770999942,552.492865600012,552.4929291000008,552.5059770999942,552.5059770999942,552.5059770999942,,553.3138485999953,left,1.0,127.9624036999885,,,,,,,,,,,,,,,,,,,,,,,,,,,,,,sub-236,1.0,random_dot,97.73422741323289,
right,right,speed,,,,,0.0,1.0,1.0,1.0,25.0,1.0,51.0,1.0,553.3209151999908,,,,,,,,,553.3160812999995,553.6680641999992,554.4730445000168,554.459941100009,554.4600310999958,554.4730445000168,554.4730445000168,554.4730445000168,,555.6328998999961,left,0.0,128.3079142999777,,,,,,,,,,,,,,,,,,,,,,,,,,,,,,sub-236,1.0,random_dot,97.73422741323289,
right,right,speed,,,,,0.0,1.0,1.0,1.0,26.0,0.0,52.0,1.0,555.6408497999946,,,,,,,,,555.6358061000064,556.8343746000028,557.648019300017,557.631684699998,557.6317430000054,557.648019300017,557.648019300017,557.648019300017,,558.3024501000182,left,0.0,127.81288429995766,,,,,,,,,,,,,,,,,,,,,,,,,,,,,,sub-236,1.0,random_dot,97.73422741323289,
left,left,speed,,,,,0.0,1.0,1.0,1.0,26.0,1.0,53.0,0.0,558.3118342999951,,,,,,,,,558.3059680000006,558.6575940000184,559.4614721999969,559.450211599993,559.450267600012,559.4614721999969,559.4614721999969,559.4614721999969,,560.0753385999997,left,1.0,127.7723254999728,,,,,,,,,,,,,,,,,,,,,,,,,,,,,,sub-236,1.0,random_dot,97.73422741323289,
left,left,speed,,,,,0.0,1.0,1.0,1.0,27.0,0.0,54.0,0.0,560.087973799993,,,,,,,,,560.0782787000062,560.4238944000099,561.2242703000084,561.2157563999936,561.215787299996,561.2242703000084,561.2242703000084,561.2242703000084,,562.0066886999994,left,1.0,127.93500219998532,,,,,,,,,,,,,,,,,,,,,,,,,,,,,,sub-236,1.0,random_dot,97.73422741323289,
right,right,speed,,,,,0.0,1.0,1.0,1.0,27.0,1.0,55.0,1.0,562.0155623000173,,,,,,,,,562.0104076999996,563.2063463999948,564.0111057000177,563.9990433999919,563.9990965000179,564.0111057000177,564.0111057000177,564.0111057000177,,564.8504815000051,left,0.0,127.9944223999628,,,,,,,,,,,,,,,,,,,,,,,,,,,,,,sub-236,1.0,random_dot,97.73422741323289,
right,right,speed,,,,,0.0,1.0,1.0,1.0,28.0,0.0,56.0,1.0,564.8603972000128,,,,,,,,,564.8540661000006,565.2054337000009,566.0138116000162,566.0026961000112,566.0027502000157,566.0138116000162,566.0138116000162,566.0138116000162,,566.6489709000161,left,0.0,127.78463709997597,,,,,,,,,,,,,,,,,,,,,,,,,,,,,,sub-236,1.0,random_dot,97.73422741323289,
left,left,speed,,,,,0.0,1.0,1.0,1.0,28.0,1.0,57.0,0.0,566.6581166000105,,,,,,,,,566.6526497000013,567.4566685000027,568.2590349999955,568.247993500001,568.2480495999916,568.2590349999955,568.2590349999955,568.2590349999955,,568.9528450999933,left,1.0,127.84400659997482,,,,,,,,,,,,,,,,,,,,,,,,,,,,,,sub-236,1.0,random_dot,97.73422741323289,
right,right,speed,,,,,0.0,1.0,1.0,1.0,29.0,0.0,58.0,1.0,568.960465000011,,,,,,,,,568.9555146000057,569.0543827000074,569.8593250999984,569.8478109000134,569.8478895000007,569.8593250999984,569.8593250999984,569.8593250999984,,570.687112500018,right,1.0,127.9868400999694,,,,,,,,,,,,,,,,,,,,,,,,,,,,,,sub-236,1.0,random_dot,97.73422741323289,
left,left,speed,,,,,0.0,1.0,1.0,1.0,29.0,1.0,59.0,0.0,570.6969630999956,,,,,,,,,570.6910333000124,571.8872203000064,572.694441700005,572.6822106000036,572.6822759000061,572.694441700005,572.694441700005,572.694441700005,,573.4091942000086,right,0.0,127.86546339999768,,,,,,,,,,,,,,,,,,,,,,,,,,,,,,sub-236,1.0,random_dot,97.73422741323289,
,,speed,,,,,0.0,1.0,1.0,1.0,,,,,,,,,,,,,,,,,,,,,,,,,,,,,,,,,,,,,,,,,,,,,,,,,,,,,,,,sub-236,1.0,random_dot,97.73422741323289,
,,,,,,,,,,,,,,,,,,,,,,,,,,,,,,,,,,,,,,,,,,,,,,,,,,,,,,,,,,,,,,,573.4119653000089,573.4225511999975,578.417709900008,sub-236,,,,
