direction,corrAns,thisN,thisTrialN,thisRepN,respDots.keys,respDots.corr,respDots.rt,respDots.duration,randomInstr,respRandomInstr.keys,respRandomInstr.rt,respRandomInstr.duration,practice_trials.thisRepN,practice_trials.thisTrialN,practice_trials.thisN,practice_trials.thisIndex,instr_trials.thisRepN,instr_trials.thisTrialN,instr_trials.thisN,instr_trials.thisIndex,test_trials.thisRepN,test_trials.thisTrialN,test_trials.thisN,test_trials.thisIndex,thisRow.t,notes,general_instruction.started,textGeneralInstr.started,respGeneralInstr.started,general_instruction.stopped,respGeneralInstr.keys,respGeneralInstr.rt,respGeneralInstr.duration,ITI.started,fixcross.started,fixcross.stopped,ITI.stopped,dots.started,backgroundDots.started,stimulusDots.started,respDots.started,dots.stopped,practice_trials.respDots.keys,practice_trials.respDots.corr,practice_trials.respDots.rt,practice_trials.respDots.duration,feedback.started,textFeedback.started,feedback.stopped,textFeedback.stopped,info.started,textInfo.started,keyRespInfo.started,info.stopped,keyRespInfo.keys,keyRespInfo.rt,keyRespInfo.duration,test_instruction.started,textTestInstr.started,respTestInstr.started,test_instruction.stopped,respTestInstr.keys,respTestInstr.rt,respTestInstr.duration,random_instruction.started,textRandomInstr.started,respRandomInstr.started,random_instruction.stopped,instr_trials.respRandomInstr.keys,instr_trials.respRandomInstr.rt,instr_trials.respRandomInstr.duration,test_trials.respDots.keys,test_trials.respDots.corr,test_trials.respDots.rt,test_trials.respDots.duration,goodbye.started,textGoodbye.started,goodbye.stopped,participant,session,expName,frameRate,Unnamed: 86
,,,,,,,,,,,,,,,,,,,,,,,,,,,0.0249810889945365,0.0450393520004581,0.0450393520004581,31.848252221010625,space,31.799158298992552,,,,,,,,,,,,,,,,,,,,,,,,,,,,,,,,,,,,,,,,,,,,,,,sub-007,1,random_dot,89.00730262374209,
left,left,0.0,0.0,0.0,left,1.0,3.103218452015426,,,,,,0.0,0.0,0.0,0.0,,,,,,,,,31.911904829001287,,,,,,,,,31.89788494398817,31.947261721012183,32.7751626370009,32.75007436299347,32.750456095993286,32.7751626370009,32.7751626370009,32.7751626370009,35.88809891499113,left,1.0,3.103218452015426,,35.894570658012526,36.03152462499565,36.40116091299569,,,,,,,,,,,,,,,,,,,,,,,,,,,,,,sub-007,1,random_dot,89.00730262374209,
right,right,1.0,1.0,0.0,right,1.0,2.7485470050014555,,,,,,0.0,1.0,1.0,1.0,,,,,,,,,36.40898717701202,,,,,,,,,36.40176817099564,36.74381922199973,37.5389348900062,37.52820992001216,37.52892844099552,37.5389348900062,37.5389348900062,37.5389348900062,40.29942449499504,right,1.0,2.7485470050014555,,40.29955884499941,40.31265528599033,40.816646013001446,,,,,,,,,,,,,,,,,,,,,,,,,,,,,,sub-007,1,random_dot,89.00730262374209,
right,right,2.0,0.0,1.0,left,0.0,1.215188586997101,,,,,,1.0,0.0,2.0,1.0,,,,,,,,,40.83485821299837,,,,,,,,,40.81731150401174,41.15100115400856,41.95003559600445,41.93902051000623,41.93968795798719,41.95003559600445,41.95003559600445,41.95003559600445,43.1698439400061,left,0.0,1.215188586997101,,43.17896336398553,43.189308714994695,43.68445034101023,,,,,,,,,,,,,,,,,,,,,,,,,,,,,,sub-007,1,random_dot,89.00730262374209,
left,left,3.0,1.0,1.0,left,1.0,1.8581206050002947,,,,,,1.0,1.0,3.0,0.0,,,,,,,,,43.693688905012095,,,,,,,,,43.68503247099579,44.88325905599049,45.70091470700572,45.68418851800379,45.684698141994886,45.70091470700572,45.70091470700572,45.70091470700572,47.58651410098537,left,1.0,1.8581206050002947,,47.5905915889889,47.60278581100283,48.087276314996416,48.10026113400818,,,,,,,,,,,,,,,,,,,,,,,,,,,,,sub-007,1,random_dot,89.00730262374209,
left,left,4.0,0.0,2.0,right,0.0,0.7943349150009453,,,,,,2.0,0.0,4.0,0.0,,,,,,,,,48.10026113400818,,,,,,,,,48.08773175900569,48.88547538401326,49.70052595000016,49.68408574498608,49.68479241000023,49.70052595000016,49.70052595000016,49.70052595000016,50.507647679012734,right,0.0,0.7943349150009453,,50.51095515600173,50.52150541500305,51.01735261300928,,,,,,,,,,,,,,,,,,,,,,,,,,,,,,sub-007,1,random_dot,89.00730262374209,
right,right,5.0,1.0,2.0,left,0.0,3.188505313999485,,,,,,2.0,1.0,5.0,1.0,,,,,,,,,51.02475271900767,,,,,,,,,51.01777317200322,51.81005247699795,52.61226381600136,52.601666953007225,52.60216925700661,52.61226381600136,52.61226381600136,52.61226381600136,55.80480212799739,left,0.0,3.188505313999485,,55.80501969100442,55.81549812300364,56.30280086598941,56.31678016099613,,,,,,,,,,,,,,,,,,,,,,,,,,,,,sub-007,1,random_dot,89.00730262374209,
left,left,6.0,0.0,3.0,right,0.0,2.0754669810121413,,,,,,3.0,0.0,6.0,0.0,,,,,,,,,56.31678016099613,,,,,,,,,56.30325065398938,56.66779016100918,57.48337500999333,57.468053668009816,57.46876398700988,57.48337500999333,57.48337500999333,57.48337500999333,59.569036153989146,right,0.0,2.0754669810121413,,59.56914644999779,59.5775340780092,60.06769982399419,60.075440184999024,,,,,,,,,,,,,,,,,,,,,,,,,,,,,sub-007,1,random_dot,89.00730262374209,
right,right,7.0,1.0,3.0,left,0.0,3.8662395529972855,,,,,,3.0,1.0,7.0,1.0,,,,,,,,,60.075440184999024,,,,,,,,,60.06812798700412,60.41797128098551,61.21864799701143,61.20254096799181,61.20333508300246,61.21864799701143,61.21864799701143,61.21864799701143,65.1015917120094,left,0.0,3.8662395529972855,,65.10177754898905,65.11039330399944,65.59924456701265,65.61060308999731,,,,,,,,,,,,,,,,,,,,,,,,,,,,,sub-007,1,random_dot,89.00730262374209,
right,right,8.0,0.0,4.0,left,0.0,0.8006196320056915,,,,,,4.0,0.0,8.0,1.0,,,,,,,,,65.61060308999731,,,,,,,,,65.59993925198796,65.70237917100894,66.49935079898569,66.48785889300052,66.48832393600605,66.49935079898569,66.49935079898569,66.49935079898569,67.30443054198986,left,0.0,0.8006196320056915,,67.30465340299997,67.31551510098507,67.80052948699449,67.8084645929921,,,,,,,,,,,,,,,,,,,,,,,,,,,,,sub-007,1,random_dot,89.00730262374209,
left,left,9.0,1.0,4.0,right,0.0,3.7869969620078336,,,,,,4.0,1.0,9.0,0.0,,,,,,,,,67.8084645929921,,,,,,,,,67.80105834099231,68.16602309199516,68.9630965719989,68.95229993900284,68.95278680100455,68.9630965719989,68.9630965719989,68.9630965719989,72.75359004799975,right,0.0,3.7869969620078336,,72.75372334598796,72.76435097600915,73.25205674400786,73.25946677100728,,,,,,,,,,,,,,,,,,,,,,,,,,,,,sub-007,1,random_dot,89.00730262374209,
right,right,10.0,0.0,5.0,right,1.0,2.047937939001713,,,,,,5.0,0.0,10.0,1.0,,,,,,,,,73.25946677100728,,,,,,,,,73.25249378100852,74.45184182998491,75.26679027100909,75.25091899500694,75.25152743599028,75.26679027100909,75.26679027100909,75.26679027100909,77.3256677169993,right,1.0,2.047937939001713,,77.33002712301095,77.34080165700288,77.82594128599158,77.83457080999506,,,,,,,,,,,,,,,,,,,,,,,,,,,,,sub-007,1,random_dot,89.00730262374209,
left,left,11.0,1.0,5.0,left,1.0,0.8377901479834691,,,,,,5.0,1.0,11.0,0.0,,,,,,,,,77.83457080999506,,,,,,,,,77.82635493800626,79.03419193500304,79.83372848000727,79.81959123600973,79.82009798500803,79.83372848000727,79.83372848000727,79.83372848000727,80.67471753800055,left,1.0,0.8377901479834691,,80.67487038098625,80.68747881500167,81.1760747609951,,,,,,,,,,,,,,,,,,,,,,,,,,,,,,sub-007,1,random_dot,89.00730262374209,
right,right,12.0,0.0,6.0,right,1.0,0.5120510059932712,,,,,,6.0,0.0,12.0,1.0,,,,,,,,,81.1874371310114,,,,,,,,,81.17675186198903,82.38334026301163,83.17955469700973,83.1682224170072,83.1689174429921,83.17955469700973,83.17955469700973,83.17955469700973,83.69828334299382,right,1.0,0.5120510059932712,,83.6984272399859,83.7087190200109,84.2002844089875,,,,,,,,,,,,,,,,,,,,,,,,,,,,,,sub-007,1,random_dot,89.00730262374209,
left,left,13.0,1.0,6.0,left,1.0,0.5939502959954552,,,,,,6.0,1.0,13.0,0.0,,,,,,,,,84.20882378899842,,,,,,,,,84.20077510600095,85.40037435598788,86.19942982899374,86.18617414298933,86.1866932369885,86.19942982899374,86.19942982899374,86.19942982899374,86.79900221899152,left,1.0,0.5939502959954552,,86.79916383899399,86.81091460998869,87.30203185099526,,,,,,,,,,,,,,,,,,,,,,,,,,,,,,sub-007,1,random_dot,89.00730262374209,
right,right,14.0,0.0,7.0,left,0.0,0.6317274450266268,,,,,,7.0,0.0,14.0,1.0,,,,,,,,,87.31806538000819,,,,,,,,,87.30270220298553,88.49652749099187,89.30770257298718,89.2873094480019,89.28816076999647,89.30770257298718,89.30770257298718,89.30770257298718,89.95975339101278,left,0.0,0.6317274450266268,,89.96786420801072,89.9848142649862,90.46576057499624,,,,,,,,,,,,,,,,,,,,,,,,,,,,,,sub-007,1,random_dot,89.00730262374209,
left,left,15.0,1.0,7.0,right,0.0,0.544098837999627,,,,,,7.0,1.0,15.0,0.0,,,,,,,,,90.48390104199645,,,,,,,,,90.46637556201313,90.80975616100476,91.63307447900296,91.61735464600496,91.6180692980124,91.63307447900296,91.63307447900296,91.63307447900296,92.18800043698866,right,0.0,0.544098837999627,,92.18815149899456,92.19986206199974,92.68899780098582,92.69779629498952,,,,,,,,,,,,,,,,,,,,,,,,,,,,,sub-007,1,random_dot,89.00730262374209,
left,left,16.0,0.0,8.0,left,1.0,0.6252236299915239,,,,,,8.0,0.0,16.0,0.0,,,,,,,,,92.69779629498952,,,,,,,,,92.6896814389911,93.04238924800302,93.84011513000588,93.8277129390044,93.82847536599728,93.84011513000588,93.84011513000588,93.84011513000588,94.47943226300411,left,1.0,0.6252236299915239,,94.48408162299891,94.49577571300324,94.98537138701067,,,,,,,,,,,,,,,,,,,,,,,,,,,,,,sub-007,1,random_dot,89.00730262374209,
right,right,17.0,1.0,8.0,left,0.0,1.0090208819892723,,,,,,8.0,1.0,17.0,1.0,,,,,,,,,95.0001840860059,,,,,,,,,94.9861069160106,96.17487185500796,96.97155283999746,96.95982562098652,96.9607131970115,96.97155283999746,96.97155283999746,96.97155283999746,97.9992894770112,left,0.0,1.0090208819892723,,98.00387193699136,98.01350963799632,98.50061555000138,,,,,,,,,,,,,,,,,,,,,,,,,,,,,,sub-007,1,random_dot,89.00730262374209,
right,right,18.0,0.0,9.0,right,1.0,1.3498920100100804,,,,,,9.0,0.0,18.0,1.0,,,,,,,,,98.50871920300416,,,,,,,,,98.50102987600258,98.8426068109984,99.66622783898492,99.65067596099108,99.65137378999498,99.66622783898492,99.66622783898492,99.66622783898492,101.0194048479898,right,1.0,1.3498920100100804,,101.02377390200854,101.03688312601298,101.5326133510098,,,,,,,,,,,,,,,,,,,,,,,,,,,,,,sub-007,1,random_dot,89.00730262374209,
left,left,19.0,1.0,9.0,right,0.0,0.6016232900146861,,,,,,9.0,1.0,19.0,0.0,,,,,,,,,101.55026442799137,,,,,,,,,101.53322525898692,102.31477128199184,103.11177122799565,103.10080009201192,103.10129716500524,103.11177122799565,103.11177122799565,103.11177122799565,103.72560973098734,right,0.0,0.6016232900146861,,103.72993532998952,103.74076029198476,104.23345409100877,,,,,,,,,,,,,,,,,,,,,,,,,,,,,,sub-007,1,random_dot,89.00730262374209,
,,,,,,,,,,,,,,,,,,,,,,,,,,,,,,,,,,,,,,,,,,,,,,,,,,,104.2336245070037,104.244849212002,104.244849212002,110.07978426699992,space,5.823658899986185,,,,,,,,,,,,,,,,,,,,,,,sub-007,1,random_dot,89.00730262374209,
,,,,,,,,,,,,,,,,,,,,,,,,,,,,,,,,,,,,,,,,,,,,,,,,,,,,,,,,,,110.07994200699612,110.09370596701046,110.09370596701046,125.08071401101188,space,14.982404003007105,,,,,,,,,,,,,,,,sub-007,1,random_dot,89.00730262374209,
right,right,0.0,0.0,0.0,right,1.0,0.653702184004942,,speed,space,4.506360347993905,,,,,,0.0,0.0,0.0,1.0,0.0,0.0,0.0,1.0,129.6666927250044,,,,,,,,,129.65453435998643,130.4365313570015,131.24937476898776,131.23350463301176,131.23421667001094,131.24937476898776,131.24937476898776,131.24937476898776,131.91674236900872,,,,,,,,,,,,,,,,,,,,,,,125.110743311001,125.12331454298692,125.12331454298692,129.64219421701273,space,4.506360347993905,,right,1.0,0.653702184004942,,,,,sub-007,1,random_dot,89.00730262374209,
left,left,1.0,1.0,0.0,right,0.0,0.5821857969858684,,speed,space,4.506360347993905,,,,,,0.0,0.0,0.0,1.0,0.0,1.0,1.0,0.0,131.9284605460125,,,,,,,,,131.91730954998638,132.26589653399424,133.0612925220048,133.05071588300052,133.0512028330122,133.0612925220048,133.0612925220048,133.0612925220048,133.64788406700245,,,,,,,,,,,,,,,,,,,,,,,,,,,,,,right,0.0,0.5821857969858684,,,,,sub-007,1,random_dot,89.00730262374209,
left,left,2.0,0.0,1.0,left,1.0,1.3868370629788842,,speed,space,4.506360347993905,,,,,,0.0,0.0,0.0,1.0,1.0,0.0,2.0,0.0,133.65584243298508,,,,,,,,,133.64835863100598,133.99941018701065,134.79774227700543,134.78559418101213,134.78613295700052,134.79774227700543,134.79774227700543,134.79774227700543,136.19804297099472,,,,,,,,,,,,,,,,,,,,,,,,,,,,,,left,1.0,1.3868370629788842,,,,,sub-007,1,random_dot,89.00730262374209,
right,right,3.0,1.0,1.0,right,1.0,0.9550370539946016,,speed,space,4.506360347993905,,,,,,0.0,0.0,0.0,1.0,1.0,1.0,3.0,1.0,136.21147368798847,,,,,,,,,136.19878378199064,136.54269738099538,137.34600451000733,137.33462043799227,137.3351004399883,137.34600451000733,137.34600451000733,137.34600451000733,138.31495784499566,,,,,,,,,,,,,,,,,,,,,,,,,,,,,,right,1.0,0.9550370539946016,,,,,sub-007,1,random_dot,89.00730262374209,
left,left,4.0,0.0,2.0,right,0.0,0.4990127049968578,,speed,space,4.506360347993905,,,,,,0.0,0.0,0.0,1.0,2.0,0.0,4.0,0.0,138.32616570199025,,,,,,,,,138.31547722101095,139.51736299399636,140.31665111499024,140.3051217260072,140.30573656098568,140.31665111499024,140.31665111499024,140.31665111499024,140.82653033398674,,,,,,,,,,,,,,,,,,,,,,,,,,,,,,right,0.0,0.4990127049968578,,,,,sub-007,1,random_dot,89.00730262374209,
right,right,5.0,1.0,2.0,left,0.0,0.692695937003009,,speed,space,4.506360347993905,,,,,,0.0,0.0,0.0,1.0,2.0,1.0,5.0,1.0,140.84088108499418,,,,,,,,,140.82746256998507,141.62344714900246,142.42256831299164,142.40931652201107,142.40998890300398,142.42256831299164,142.42256831299164,142.42256831299164,143.12100005100365,,,,,,,,,,,,,,,,,,,,,,,,,,,,,,left,0.0,0.692695937003009,,,,,sub-007,1,random_dot,89.00730262374209,
left,left,6.0,0.0,3.0,left,1.0,1.4911363090213854,,speed,space,4.506360347993905,,,,,,0.0,0.0,0.0,1.0,3.0,0.0,6.0,0.0,143.13248708899482,,,,,,,,,143.12156723599765,143.46893137998995,144.28233773101238,144.2666515329911,144.26736742199864,144.28233773101238,144.28233773101238,144.28233773101238,145.78562310899724,,,,,,,,,,,,,,,,,,,,,,,,,,,,,,left,1.0,1.4911363090213854,,,,,sub-007,1,random_dot,89.00730262374209,
right,right,7.0,1.0,3.0,right,1.0,1.0496100910240784,,speed,space,4.506360347993905,,,,,,0.0,0.0,0.0,1.0,3.0,1.0,7.0,1.0,145.7982823769853,,,,,,,,,145.78620683500776,146.58246714700363,147.3823012530047,147.37021305400413,147.37072788499063,147.3823012530047,147.3823012530047,147.3823012530047,148.44856486399658,,,,,,,,,,,,,,,,,,,,,,,,,,,,,,right,1.0,1.0496100910240784,,,,,sub-007,1,random_dot,89.00730262374209,
left,left,8.0,0.0,4.0,right,0.0,0.690777653013356,,speed,space,4.506360347993905,,,,,,0.0,0.0,0.0,1.0,4.0,0.0,8.0,0.0,148.4630413709965,,,,,,,,,148.4492493190046,149.6411630389921,150.43842514499556,150.42620091501158,150.42698879301315,150.43842514499556,150.43842514499556,150.43842514499556,151.13877130299807,,,,,,,,,,,,,,,,,,,,,,,,,,,,,,right,0.0,0.690777653013356,,,,,sub-007,1,random_dot,89.00730262374209,
right,right,9.0,1.0,4.0,left,0.0,0.7930621260020416,,speed,space,4.506360347993905,,,,,,0.0,0.0,0.0,1.0,4.0,1.0,9.0,1.0,151.1646958850033,,,,,,,,,151.1392589279858,152.3349423549953,153.13322381098988,153.12052707499242,153.12121730999206,153.13322381098988,153.13322381098988,153.13322381098988,153.9405603169871,,,,,,,,,,,,,,,,,,,,,,,,,,,,,,left,0.0,0.7930621260020416,,,,,sub-007,1,random_dot,89.00730262374209,
right,right,10.0,0.0,5.0,left,0.0,0.8268609819933772,,speed,space,4.506360347993905,,,,,,0.0,0.0,0.0,1.0,5.0,0.0,10.0,1.0,153.95347853199928,,,,,,,,,153.94113655999536,154.03387735999422,154.83625563399983,154.8253712040023,154.82589038601145,154.83625563399983,154.83625563399983,154.83625563399983,155.6753877839947,,,,,,,,,,,,,,,,,,,,,,,,,,,,,,left,0.0,0.8268609819933772,,,,,sub-007,1,random_dot,89.00730262374209,
left,left,11.0,1.0,5.0,left,1.0,0.6459884689829778,,speed,space,4.506360347993905,,,,,,0.0,0.0,0.0,1.0,5.0,1.0,11.0,0.0,155.68648579198634,,,,,,,,,155.67596727600903,156.86902018100955,157.6685712079925,157.65710844198475,157.65759814801277,157.6685712079925,157.6685712079925,157.6685712079925,158.31908010298503,,,,,,,,,,,,,,,,,,,,,,,,,,,,,,left,1.0,0.6459884689829778,,,,,sub-007,1,random_dot,89.00730262374209,
right,right,12.0,0.0,6.0,right,1.0,0.6331646920007188,,speed,space,4.506360347993905,,,,,,0.0,0.0,0.0,1.0,6.0,0.0,12.0,1.0,158.32963615001063,,,,,,,,,158.3195782449911,158.6819491579954,159.48106795101194,159.4686922029941,159.46921939600725,159.48106795101194,159.48106795101194,159.48106795101194,160.11833260100684,,,,,,,,,,,,,,,,,,,,,,,,,,,,,,right,1.0,0.6331646920007188,,,,,sub-007,1,random_dot,89.00730262374209,
left,left,13.0,1.0,6.0,left,1.0,2.0124097369844094,,speed,space,4.506360347993905,,,,,,0.0,0.0,0.0,1.0,6.0,1.0,13.0,0.0,160.12792992399773,,,,,,,,,160.1188267749967,160.21992692898493,161.02493883200805,161.01187946199207,161.01257947599515,161.02493883200805,161.02493883200805,161.02493883200805,163.04804801399587,,,,,,,,,,,,,,,,,,,,,,,,,,,,,,left,1.0,2.0124097369844094,,,,,sub-007,1,random_dot,89.00730262374209,
right,right,14.0,0.0,7.0,right,1.0,1.5446416180056983,,speed,space,4.506360347993905,,,,,,0.0,0.0,0.0,1.0,7.0,0.0,14.0,1.0,163.05867451700033,,,,,,,,,163.04853349999755,163.84175295601017,164.6441575729987,164.63342407200253,164.6339125300001,164.6441575729987,164.6441575729987,164.6441575729987,166.2027570870123,,,,,,,,,,,,,,,,,,,,,,,,,,,,,,right,1.0,1.5446416180056983,,,,,sub-007,1,random_dot,89.00730262374209,
left,left,15.0,1.0,7.0,left,1.0,0.6679176430043299,,speed,space,4.506360347993905,,,,,,0.0,0.0,0.0,1.0,7.0,1.0,15.0,0.0,166.21441637800308,,,,,,,,,166.20329931000015,167.4164480449981,168.21486763001303,168.20064955000998,168.20112957400852,168.21486763001303,168.21486763001303,168.21486763001303,168.89165701001184,,,,,,,,,,,,,,,,,,,,,,,,,,,,,,left,1.0,0.6679176430043299,,,,,sub-007,1,random_dot,89.00730262374209,
left,left,16.0,0.0,8.0,right,0.0,0.4975939879950601,,speed,space,4.506360347993905,,,,,,0.0,0.0,0.0,1.0,8.0,0.0,16.0,0.0,168.9029257830116,,,,,,,,,168.89212286198745,170.09087974298745,170.89482298700025,170.88375808901037,170.8842983529903,170.89482298700025,170.89482298700025,170.89482298700025,171.39778144299635,,,,,,,,,,,,,,,,,,,,,,,,,,,,,,right,0.0,0.4975939879950601,,,,,sub-007,1,random_dot,89.00730262374209,
right,right,17.0,1.0,8.0,left,0.0,0.651215924997814,,speed,space,4.506360347993905,,,,,,0.0,0.0,0.0,1.0,8.0,1.0,17.0,1.0,171.41065969699412,,,,,,,,,171.39836192599614,172.19925379101187,172.99659454700304,172.98403179598972,172.98461310198763,172.99659454700304,172.99659454700304,172.99659454700304,173.66082105599344,,,,,,,,,,,,,,,,,,,,,,,,,,,,,,left,0.0,0.651215924997814,,,,,sub-007,1,random_dot,89.00730262374209,
left,left,18.0,0.0,9.0,left,1.0,0.5430917819903698,,speed,space,4.506360347993905,,,,,,0.0,0.0,0.0,1.0,9.0,0.0,18.0,0.0,173.67108092000126,,,,,,,,,173.66158395601087,174.85808172100224,175.66403662698576,175.6440573509899,175.64546987699578,175.66403662698576,175.66403662698576,175.66403662698576,176.21740121601033,,,,,,,,,,,,,,,,,,,,,,,,,,,,,,left,1.0,0.5430917819903698,,,,,sub-007,1,random_dot,89.00730262374209,
right,right,19.0,1.0,9.0,right,1.0,0.5566201559850015,,speed,space,4.506360347993905,,,,,,0.0,0.0,0.0,1.0,9.0,1.0,19.0,1.0,176.23228426399874,,,,,,,,,176.21784748800565,176.58301334900898,177.37723880898557,177.36730467199231,177.36774716200307,177.37723880898557,177.37723880898557,177.37723880898557,177.9562451739912,,,,,,,,,,,,,,,,,,,,,,,,,,,,,,right,1.0,0.5566201559850015,,,,,sub-007,1,random_dot,89.00730262374209,
left,left,20.0,0.0,10.0,left,1.0,0.4827190469950437,,speed,space,4.506360347993905,,,,,,0.0,0.0,0.0,1.0,10.0,0.0,20.0,0.0,177.9742815560021,,,,,,,,,177.957454813004,178.308357100992,179.11501380600384,179.0988962620031,179.09960209400742,179.11501380600384,179.11501380600384,179.11501380600384,179.60885774999042,,,,,,,,,,,,,,,,,,,,,,,,,,,,,,left,1.0,0.4827190469950437,,,,,sub-007,1,random_dot,89.00730262374209,
right,right,21.0,1.0,10.0,left,0.0,0.8668012569833081,,speed,space,4.506360347993905,,,,,,0.0,0.0,0.0,1.0,10.0,1.0,21.0,1.0,179.620782648999,,,,,,,,,179.60949145100312,180.4159728889936,181.2154150230053,181.20188892699665,181.20237310699304,181.2154150230053,181.2154150230053,181.2154150230053,182.0930656889977,,,,,,,,,,,,,,,,,,,,,,,,,,,,,,left,0.0,0.8668012569833081,,,,,sub-007,1,random_dot,89.00730262374209,
right,right,22.0,0.0,11.0,right,1.0,0.7348007249820512,,speed,space,4.506360347993905,,,,,,0.0,0.0,0.0,1.0,11.0,0.0,22.0,1.0,182.1052406009985,,,,,,,,,182.09363155200845,182.2000985140039,183.00521522198687,182.9937968190061,182.9944733660086,183.00521522198687,183.00521522198687,183.00521522198687,183.7536970640067,,,,,,,,,,,,,,,,,,,,,,,,,,,,,,right,1.0,0.7348007249820512,,,,,sub-007,1,random_dot,89.00730262374209,
left,left,23.0,1.0,11.0,left,1.0,0.981428858009167,,speed,space,4.506360347993905,,,,,,0.0,0.0,0.0,1.0,11.0,1.0,23.0,0.0,183.7657906569948,,,,,,,,,183.75426263400004,183.8660278239986,184.66505564001272,184.650871255988,184.6514045369986,184.66505564001272,184.66505564001272,184.66505564001272,185.65157190099129,,,,,,,,,,,,,,,,,,,,,,,,,,,,,,left,1.0,0.981428858009167,,,,,sub-007,1,random_dot,89.00730262374209,
right,right,24.0,0.0,12.0,left,0.0,3.0150057210121304,,speed,space,4.506360347993905,,,,,,0.0,0.0,0.0,1.0,12.0,0.0,24.0,1.0,185.6653491820034,,,,,,,,,185.65217684500385,186.8481188339938,187.6477936489973,187.63538793000043,187.63586531201145,187.6477936489973,187.6477936489973,187.6477936489973,190.68399855599276,,,,,,,,,,,,,,,,,,,,,,,,,,,,,,left,0.0,3.0150057210121304,,,,,sub-007,1,random_dot,89.00730262374209,
left,left,25.0,1.0,12.0,right,0.0,0.5192105419992004,,speed,space,4.506360347993905,,,,,,0.0,0.0,0.0,1.0,12.0,1.0,25.0,0.0,190.69806914200308,,,,,,,,,190.6845408049994,190.78204804399863,191.5823641509924,191.57067568300408,191.57114543099303,191.5823641509924,191.5823641509924,191.5823641509924,192.1060878009885,,,,,,,,,,,,,,,,,,,,,,,,,,,,,,right,0.0,0.5192105419992004,,,,,sub-007,1,random_dot,89.00730262374209,
left,left,26.0,0.0,13.0,left,1.0,0.6844778259983286,,speed,space,4.506360347993905,,,,,,0.0,0.0,0.0,1.0,13.0,0.0,26.0,0.0,192.1198579269985,,,,,,,,,192.107112142985,192.90659643299296,193.70161883500987,193.6903401130112,193.69082957299543,193.70161883500987,193.70161883500987,193.70161883500987,194.4011320490099,,,,,,,,,,,,,,,,,,,,,,,,,,,,,,left,1.0,0.6844778259983286,,,,,sub-007,1,random_dot,89.00730262374209,
right,right,27.0,1.0,13.0,right,1.0,0.5927728179958649,,speed,space,4.506360347993905,,,,,,0.0,0.0,0.0,1.0,13.0,1.0,27.0,1.0,194.4145900630101,,,,,,,,,194.40163630299503,194.51612917199964,195.31974637400708,195.30745475698492,195.30797346201143,195.31974637400708,195.31974637400708,195.31974637400708,195.92002829001285,,,,,,,,,,,,,,,,,,,,,,,,,,,,,,right,1.0,0.5927728179958649,,,,,sub-007,1,random_dot,89.00730262374209,
left,left,28.0,0.0,14.0,left,1.0,0.5409987060120329,,speed,space,4.506360347993905,,,,,,0.0,0.0,0.0,1.0,14.0,0.0,28.0,0.0,195.9307721829973,,,,,,,,,195.92056008501092,196.73215344999332,197.54036853500293,197.52049350200105,197.52184914899408,197.54036853500293,197.54036853500293,197.54036853500293,198.10036077399852,,,,,,,,,,,,,,,,,,,,,,,,,,,,,,left,1.0,0.5409987060120329,,,,,sub-007,1,random_dot,89.00730262374209,
right,right,29.0,1.0,14.0,right,1.0,1.1444460850034377,,speed,space,4.506360347993905,,,,,,0.0,0.0,0.0,1.0,14.0,1.0,29.0,1.0,198.1102155979897,,,,,,,,,198.1012342569884,198.45698506198823,199.27259213200887,199.25142754000265,199.252621394,199.27259213200887,199.27259213200887,199.27259213200887,200.42896160800592,,,,,,,,,,,,,,,,,,,,,,,,,,,,,,right,1.0,1.1444460850034377,,,,,sub-007,1,random_dot,89.00730262374209,
left,left,30.0,0.0,15.0,right,0.0,1.1182322090025991,,speed,space,4.506360347993905,,,,,,0.0,0.0,0.0,1.0,15.0,0.0,30.0,0.0,200.4401334440045,,,,,,,,,200.42969115599408,201.2243341889989,202.02785552898425,202.01656379699125,202.01706751500024,202.02785552898425,202.02785552898425,202.02785552898425,203.1581735429936,,,,,,,,,,,,,,,,,,,,,,,,,,,,,,right,0.0,1.1182322090025991,,,,,sub-007,1,random_dot,89.00730262374209,
right,right,31.0,1.0,15.0,right,1.0,1.254419136006618,,speed,space,4.506360347993905,,,,,,0.0,0.0,0.0,1.0,15.0,1.0,31.0,1.0,203.1688413730008,,,,,,,,,203.15867468400396,203.9653251350101,204.7787994139944,204.7584243419988,204.7596645529848,204.7787994139944,204.7787994139944,204.7787994139944,206.0528815150028,,,,,,,,,,,,,,,,,,,,,,,,,,,,,,right,1.0,1.254419136006618,,,,,sub-007,1,random_dot,89.00730262374209,
right,right,32.0,0.0,16.0,right,1.0,1.0014082590059843,,speed,space,4.506360347993905,,,,,,0.0,0.0,0.0,1.0,16.0,0.0,32.0,1.0,206.07191582900123,,,,,,,,,206.05411254800856,206.1481479649956,206.9606222540024,206.94435061400875,206.94518779599457,206.9606222540024,206.9606222540024,206.9606222540024,207.97503783600405,,,,,,,,,,,,,,,,,,,,,,,,,,,,,,right,1.0,1.0014082590059843,,,,,sub-007,1,random_dot,89.00730262374209,
left,left,33.0,1.0,16.0,left,1.0,0.5977668770065065,,speed,space,4.506360347993905,,,,,,0.0,0.0,0.0,1.0,16.0,1.0,33.0,0.0,207.98654929100303,,,,,,,,,207.97563587798504,208.0737119250116,208.87857426298436,208.8662579240045,208.86682700901287,208.87857426298436,208.87857426298436,208.87857426298436,209.4840566549974,,,,,,,,,,,,,,,,,,,,,,,,,,,,,,left,1.0,0.5977668770065065,,,,,sub-007,1,random_dot,89.00730262374209,
right,right,34.0,0.0,17.0,right,1.0,2.474312873004237,,speed,space,4.506360347993905,,,,,,0.0,0.0,0.0,1.0,17.0,0.0,34.0,1.0,209.49817927199183,,,,,,,,,209.48453983600484,210.68427338500624,211.49827842001105,211.4823051049898,211.48299824498827,211.49827842001105,211.49827842001105,211.49827842001105,213.986050920008,,,,,,,,,,,,,,,,,,,,,,,,,,,,,,right,1.0,2.474312873004237,,,,,sub-007,1,random_dot,89.00730262374209,
left,left,35.0,1.0,17.0,left,1.0,0.642220592009835,,speed,space,4.506360347993905,,,,,,0.0,0.0,0.0,1.0,17.0,1.0,35.0,0.0,213.99824820199865,,,,,,,,,213.98661108501256,215.1838293740002,215.98806304400205,215.9753344859928,215.97627981600817,215.98806304400205,215.98806304400205,215.98806304400205,216.64854831399865,,,,,,,,,,,,,,,,,,,,,,,,,,,,,,left,1.0,0.642220592009835,,,,,sub-007,1,random_dot,89.00730262374209,
left,left,36.0,0.0,18.0,left,1.0,0.9212008950125892,,speed,space,4.506360347993905,,,,,,0.0,0.0,0.0,1.0,18.0,0.0,36.0,0.0,216.6573014630121,,,,,,,,,216.64939906599463,216.7485071650008,217.5478886560013,217.53541388298615,217.5361449249904,217.5478886560013,217.5478886560013,217.5478886560013,218.47772786498533,,,,,,,,,,,,,,,,,,,,,,,,,,,,,,left,1.0,0.9212008950125892,,,,,sub-007,1,random_dot,89.00730262374209,
right,right,37.0,1.0,18.0,right,1.0,0.727403121010866,,speed,space,4.506360347993905,,,,,,0.0,0.0,0.0,1.0,18.0,1.0,37.0,1.0,218.48915013301303,,,,,,,,,218.4783873260021,219.27425489900637,220.0717347099853,220.0601109380077,220.06079557098565,220.0717347099853,220.0717347099853,220.0717347099853,220.81460323900683,,,,,,,,,,,,,,,,,,,,,,,,,,,,,,right,1.0,0.727403121010866,,,,,sub-007,1,random_dot,89.00730262374209,
left,left,38.0,0.0,19.0,left,1.0,0.8110523670038674,,speed,space,4.506360347993905,,,,,,0.0,0.0,0.0,1.0,19.0,0.0,38.0,0.0,220.82210247698825,,,,,,,,,220.81527065401315,221.1565011650091,221.95254245901012,221.94062895598472,221.9411127229978,221.95254245901012,221.95254245901012,221.95254245901012,222.7731552440091,,,,,,,,,,,,,,,,,,,,,,,,,,,,,,left,1.0,0.8110523670038674,,,,,sub-007,1,random_dot,89.00730262374209,
right,right,39.0,1.0,19.0,right,1.0,1.2210957419883923,,speed,space,4.506360347993905,,,,,,0.0,0.0,0.0,1.0,19.0,1.0,39.0,1.0,222.78558460899512,,,,,,,,,222.7736588169937,223.1165291169891,223.915659041988,223.90230123500805,223.90299740698535,223.915659041988,223.915659041988,223.915659041988,225.1519002080022,,,,,,,,,,,,,,,,,,,,,,,,,,,,,,right,1.0,1.2210957419883923,,,,,sub-007,1,random_dot,89.00730262374209,
right,right,40.0,0.0,20.0,left,0.0,2.265891946008196,,speed,space,4.506360347993905,,,,,,0.0,0.0,0.0,1.0,20.0,0.0,40.0,1.0,225.1640921049984,,,,,,,,,225.1524379189941,225.94966688600837,226.76434172599693,226.7373151119973,226.73801472998457,226.76434172599693,226.76434172599693,226.76434172599693,229.04279081799905,,,,,,,,,,,,,,,,,,,,,,,,,,,,,,left,0.0,2.265891946008196,,,,,sub-007,1,random_dot,89.00730262374209,
left,left,41.0,1.0,20.0,right,0.0,0.8681544100109022,,speed,space,4.506360347993905,,,,,,0.0,0.0,0.0,1.0,20.0,1.0,41.0,0.0,229.05367752799063,,,,,,,,,229.04328992700903,229.1662132589845,229.9643022689852,229.9508197839896,229.95129747598548,229.9643022689852,229.9643022689852,229.9643022689852,230.84809988399505,,,,,,,,,,,,,,,,,,,,,,,,,,,,,,right,0.0,0.8681544100109022,,,,,sub-007,1,random_dot,89.00730262374209,
left,left,42.0,0.0,21.0,right,0.0,0.8086701880092733,,speed,space,4.506360347993905,,,,,,0.0,0.0,0.0,1.0,21.0,0.0,42.0,0.0,230.8557476220012,,,,,,,,,230.84883735800395,231.2155076109921,232.01158262399255,231.9993802329991,231.9999213250121,232.01158262399255,232.01158262399255,232.01158262399255,232.8243879330112,,,,,,,,,,,,,,,,,,,,,,,,,,,,,,right,0.0,0.8086701880092733,,,,,sub-007,1,random_dot,89.00730262374209,
right,right,43.0,1.0,21.0,right,1.0,1.1103108690003864,,speed,space,4.506360347993905,,,,,,0.0,0.0,0.0,1.0,21.0,1.0,43.0,1.0,232.83715235401175,,,,,,,,,232.82501312700333,234.0183702190116,234.82120099998428,234.80992684798548,234.8104212229955,234.82120099998428,234.82120099998428,234.82120099998428,235.93801738900947,,,,,,,,,,,,,,,,,,,,,,,,,,,,,,right,1.0,1.1103108690003864,,,,,sub-007,1,random_dot,89.00730262374209,
left,left,44.0,0.0,22.0,left,1.0,0.5318918150151148,,speed,space,4.506360347993905,,,,,,0.0,0.0,0.0,1.0,22.0,0.0,44.0,0.0,235.95031446201028,,,,,,,,,235.9385477429896,236.28015550298733,237.082421463012,237.06953415999303,237.07023182400732,237.082421463012,237.082421463012,237.082421463012,237.62639293799293,,,,,,,,,,,,,,,,,,,,,,,,,,,,,,left,1.0,0.5318918150151148,,,,,sub-007,1,random_dot,89.00730262374209,
right,right,45.0,1.0,22.0,left,0.0,0.6996139079856221,,speed,space,4.506360347993905,,,,,,0.0,0.0,0.0,1.0,22.0,1.0,45.0,1.0,237.6379970400012,,,,,,,,,237.62700967199635,238.8235127700027,239.62908226400032,239.6165919629857,239.6171264529985,239.62908226400032,239.62908226400032,239.62908226400032,240.3399877669872,,,,,,,,,,,,,,,,,,,,,,,,,,,,,,left,0.0,0.6996139079856221,,,,,sub-007,1,random_dot,89.00730262374209,
left,left,46.0,0.0,23.0,right,0.0,0.6147154979989864,,speed,space,4.506360347993905,,,,,,0.0,0.0,0.0,1.0,23.0,0.0,46.0,0.0,240.35284629798844,,,,,,,,,240.3405460979848,240.435190950986,241.23303363999003,241.2200578479969,241.22077362099665,241.23303363999003,241.23303363999003,241.23303363999003,241.85215554299063,,,,,,,,,,,,,,,,,,,,,,,,,,,,,,right,0.0,0.6147154979989864,,,,,sub-007,1,random_dot,89.00730262374209,
right,right,47.0,1.0,23.0,right,1.0,0.805975010007387,,speed,space,4.506360347993905,,,,,,0.0,0.0,0.0,1.0,23.0,1.0,47.0,1.0,241.8639132670069,,,,,,,,,241.85271962400293,243.0523842370021,243.8521258450055,243.84030719898877,243.84082060298533,243.8521258450055,243.8521258450055,243.8521258450055,244.66377752198605,,,,,,,,,,,,,,,,,,,,,,,,,,,,,,right,1.0,0.805975010007387,,,,,sub-007,1,random_dot,89.00730262374209,
right,right,48.0,0.0,24.0,left,0.0,0.533303417993011,,speed,space,4.506360347993905,,,,,,0.0,0.0,0.0,1.0,24.0,0.0,48.0,1.0,244.6760451399896,,,,,,,,,244.66434230300365,245.46508176700445,246.2812532719981,246.2655964209989,246.2662913739914,246.2812532719981,246.2812532719981,246.2812532719981,246.8289623959863,,,,,,,,,,,,,,,,,,,,,,,,,,,,,,left,0.0,0.533303417993011,,,,,sub-007,1,random_dot,89.00730262374209,
left,left,49.0,1.0,24.0,left,1.0,0.7137456299969926,,speed,space,4.506360347993905,,,,,,0.0,0.0,0.0,1.0,24.0,1.0,49.0,0.0,246.8421201079909,,,,,,,,,246.82958336701267,248.0313324329909,248.83121106799808,248.81752245500684,248.81807540898444,248.83121106799808,248.83121106799808,248.83121106799808,249.5537671739876,,,,,,,,,,,,,,,,,,,,,,,,,,,,,,left,1.0,0.7137456299969926,,,,,sub-007,1,random_dot,89.00730262374209,
left,left,50.0,0.0,25.0,left,1.0,1.372262419987237,,speed,space,4.506360347993905,,,,,,0.0,0.0,0.0,1.0,25.0,0.0,50.0,0.0,249.56466968299355,,,,,,,,,249.55424959599625,249.915163305006,250.7155797430023,250.70179063398973,250.70238500001145,250.7155797430023,250.7155797430023,250.7155797430023,252.1038002079877,,,,,,,,,,,,,,,,,,,,,,,,,,,,,,left,1.0,1.372262419987237,,,,,sub-007,1,random_dot,89.00730262374209,
right,right,51.0,1.0,25.0,left,0.0,1.0869245780049823,,speed,space,4.506360347993905,,,,,,0.0,0.0,0.0,1.0,25.0,1.0,51.0,1.0,252.11831125000023,,,,,,,,,252.10436553298496,252.9067101819965,253.7093527459947,253.69863298800192,253.6991190139961,253.7093527459947,253.7093527459947,253.7093527459947,254.81398142199032,,,,,,,,,,,,,,,,,,,,,,,,,,,,,,left,0.0,1.0869245780049823,,,,,sub-007,1,random_dot,89.00730262374209,
left,left,52.0,0.0,26.0,right,0.0,0.7234832679969259,,speed,space,4.506360347993905,,,,,,0.0,0.0,0.0,1.0,26.0,0.0,52.0,0.0,254.82210261799628,,,,,,,,,254.81472729099917,255.63148153599468,256.4439917700074,256.4333468719851,256.43383016300504,256.4439917700074,256.4439917700074,256.4439917700074,257.17463732199394,,,,,,,,,,,,,,,,,,,,,,,,,,,,,,right,0.0,0.7234832679969259,,,,,sub-007,1,random_dot,89.00730262374209,
right,right,53.0,1.0,26.0,right,1.0,1.4510530830011703,,speed,space,4.506360347993905,,,,,,0.0,0.0,0.0,1.0,26.0,1.0,53.0,1.0,257.1850554099947,,,,,,,,,257.17519902600907,257.2728382280038,258.078197010007,258.0659394300019,258.0664504680026,258.078197010007,258.078197010007,258.078197010007,259.5334032840037,,,,,,,,,,,,,,,,,,,,,,,,,,,,,,right,1.0,1.4510530830011703,,,,,sub-007,1,random_dot,89.00730262374209,
left,left,54.0,0.0,27.0,left,1.0,0.6784558510116767,,speed,space,4.506360347993905,,,,,,0.0,0.0,0.0,1.0,27.0,0.0,54.0,0.0,259.54777552498854,,,,,,,,,259.5339563309972,260.3321568740066,261.1472928969888,261.13151893700706,261.13221684799646,261.1472928969888,261.1472928969888,261.1472928969888,261.833642816986,,,,,,,,,,,,,,,,,,,,,,,,,,,,,,left,1.0,0.6784558510116767,,,,,sub-007,1,random_dot,89.00730262374209,
right,right,55.0,1.0,27.0,right,1.0,0.8473520900006406,,speed,space,4.506360347993905,,,,,,0.0,0.0,0.0,1.0,27.0,1.0,55.0,1.0,261.8471682090021,,,,,,,,,261.8341008340067,262.63117185101146,263.4307315610058,263.41843638400314,263.4190182419843,263.4307315610058,263.4307315610058,263.4307315610058,264.2924502789974,,,,,,,,,,,,,,,,,,,,,,,,,,,,,,right,1.0,0.8473520900006406,,,,,sub-007,1,random_dot,89.00730262374209,
left,left,56.0,0.0,28.0,left,1.0,0.7275912819895893,,speed,space,4.506360347993905,,,,,,0.0,0.0,0.0,1.0,28.0,0.0,56.0,0.0,264.3052796359989,,,,,,,,,264.2930224199954,265.48891068800003,266.28564124400145,266.2740018129989,266.2744992139924,266.28564124400145,266.28564124400145,266.28564124400145,267.0329339019954,,,,,,,,,,,,,,,,,,,,,,,,,,,,,,left,1.0,0.7275912819895893,,,,,sub-007,1,random_dot,89.00730262374209,
right,right,57.0,1.0,28.0,right,1.0,0.6694350820034742,,speed,space,4.506360347993905,,,,,,0.0,0.0,0.0,1.0,28.0,1.0,57.0,1.0,267.0426453920081,,,,,,,,,267.0334901319875,267.1403014519892,267.96425404198817,267.94791049300693,267.94840972099337,267.96425404198817,267.96425404198817,267.96425404198817,268.63776464399416,,,,,,,,,,,,,,,,,,,,,,,,,,,,,,right,1.0,0.6694350820034742,,,,,sub-007,1,random_dot,89.00730262374209,
left,left,58.0,0.0,29.0,left,1.0,0.7005079390073661,,speed,space,4.506360347993905,,,,,,0.0,0.0,0.0,1.0,29.0,0.0,58.0,0.0,268.6514442639891,,,,,,,,,268.63851329201134,268.9891152170021,269.7953686040128,269.7836204339983,269.7841087100096,269.7953686040128,269.7953686040128,269.7953686040128,270.500877109007,,,,,,,,,,,,,,,,,,,,,,,,,,,,,,left,1.0,0.7005079390073661,,,,,sub-007,1,random_dot,89.00730262374209,
right,right,59.0,1.0,29.0,right,1.0,1.625271103985142,,speed,space,4.506360347993905,,,,,,0.0,0.0,0.0,1.0,29.0,1.0,59.0,1.0,270.5144360580016,,,,,,,,,270.5015929219953,271.29974733901327,272.1026941119926,272.0912009130116,272.09201811099774,272.1026941119926,272.1026941119926,272.1026941119926,273.7390629290021,,,,,,,,,,,,,,,,,,,,,,,,,,,,,,right,1.0,1.625271103985142,,,,,sub-007,1,random_dot,89.00730262374209,
,,0.0,0.0,0.0,,,,,speed,space,4.506360347993905,,,,,,0.0,0.0,0.0,1.0,,,,,,,,,,,,,,,,,,,,,,,,,,,,,,,,,,,,,,,,,,,,,,,,,,,,,,,,,,,sub-007,1,random_dot,89.00730262374209,
left,left,0.0,0.0,0.0,left,1.0,3.202538326993817,,accuracy,space,4.503802159015322,,,,,,0.0,1.0,1.0,0.0,0.0,0.0,0.0,0.0,278.31077599400305,,,,,,,,,278.2994181799877,279.48488239300787,280.29331446799915,280.2816613219911,280.28215467600967,280.29331446799915,280.29331446799915,280.29331446799915,283.51555185299367,,,,,,,,,,,,,,,,,,,,,,,273.76589269100805,273.77737659899867,273.77737659899867,278.2885298609908,space,4.503802159015322,,left,1.0,3.202538326993817,,,,,sub-007,1,random_dot,89.00730262374209,
right,right,1.0,1.0,0.0,right,1.0,2.429072544007795,,accuracy,space,4.503802159015322,,,,,,0.0,1.0,1.0,0.0,0.0,1.0,1.0,1.0,283.5246869639959,,,,,,,,,283.5164186639886,284.3108805369993,285.11287334599183,285.10110683599487,285.1015871390118,285.11287334599183,285.11287334599183,285.11287334599183,287.54963942299946,,,,,,,,,,,,,,,,,,,,,,,,,,,,,,right,1.0,2.429072544007795,,,,,sub-007,1,random_dot,89.00730262374209,
left,left,2.0,0.0,1.0,left,1.0,2.374152248026803,,accuracy,space,4.503802159015322,,,,,,0.0,1.0,1.0,0.0,1.0,0.0,2.0,0.0,287.5603092930105,,,,,,,,,287.5502544149931,287.9027692450036,288.7051883119857,288.693021271989,288.6936520989984,288.7051883119857,288.7051883119857,288.7051883119857,291.0830448610068,,,,,,,,,,,,,,,,,,,,,,,,,,,,,,left,1.0,2.374152248026803,,,,,sub-007,1,random_dot,89.00730262374209,
right,right,3.0,1.0,1.0,right,1.0,0.9037768570124172,,accuracy,space,4.503802159015322,,,,,,0.0,1.0,1.0,0.0,1.0,1.0,3.0,1.0,291.097195061011,,,,,,,,,291.08355458799633,291.88980081898626,292.6869886170025,292.6757287149958,292.67645268898923,292.6869886170025,292.6869886170025,292.6869886170025,293.60583067999687,,,,,,,,,,,,,,,,,,,,,,,,,,,,,,right,1.0,0.9037768570124172,,,,,sub-007,1,random_dot,89.00730262374209,
left,left,4.0,0.0,2.0,left,1.0,1.6017887449997943,,accuracy,space,4.503802159015322,,,,,,0.0,1.0,1.0,0.0,2.0,0.0,4.0,0.0,293.6173314799962,,,,,,,,,293.6063410239876,294.81055203199503,295.61122467700625,295.59897479601204,295.5994880360085,295.61122467700625,295.61122467700625,295.61122467700625,297.2249200649967,,,,,,,,,,,,,,,,,,,,,,,,,,,,,,left,1.0,1.6017887449997943,,,,,sub-007,1,random_dot,89.00730262374209,
right,right,5.0,1.0,2.0,right,1.0,1.053150755004026,,accuracy,space,4.503802159015322,,,,,,0.0,1.0,1.0,0.0,2.0,1.0,5.0,1.0,297.2366682369902,,,,,,,,,297.2255105979857,297.59777274899534,298.39276196600986,298.3815248069877,298.3819986759918,298.39276196600986,298.39276196600986,298.39276196600986,299.457435016986,,,,,,,,,,,,,,,,,,,,,,,,,,,,,,right,1.0,1.053150755004026,,,,,sub-007,1,random_dot,89.00730262374209,
right,right,6.0,0.0,3.0,right,1.0,0.5916953629930504,,accuracy,space,4.503802159015322,,,,,,0.0,1.0,1.0,0.0,3.0,0.0,6.0,1.0,299.46797531700577,,,,,,,,,299.45802630099934,300.25614966399735,301.06030067199026,301.0486352329899,301.0491498160118,301.06030067199026,301.06030067199026,301.06030067199026,301.66498389298795,,,,,,,,,,,,,,,,,,,,,,,,,,,,,,right,1.0,0.5916953629930504,,,,,sub-007,1,random_dot,89.00730262374209,
left,left,7.0,1.0,3.0,right,0.0,0.6888272020150907,,accuracy,space,4.503802159015322,,,,,,0.0,1.0,1.0,0.0,3.0,1.0,7.0,0.0,301.67656920000445,,,,,,,,,301.6655176730128,302.01356399198994,302.8082052989921,302.798272680986,302.798704285,302.8082052989921,302.8082052989921,302.8082052989921,303.5032921689853,,,,,,,,,,,,,,,,,,,,,,,,,,,,,,right,0.0,0.6888272020150907,,,,,sub-007,1,random_dot,89.00730262374209,
left,left,8.0,0.0,4.0,right,0.0,1.11094832100207,,accuracy,space,4.503802159015322,,,,,,0.0,1.0,1.0,0.0,4.0,0.0,8.0,0.0,303.51566308600013,,,,,,,,,303.50385630200617,304.7025332589983,305.504349439987,305.49124766900786,305.49207111398573,305.504349439987,305.504349439987,305.504349439987,306.6288676580007,,,,,,,,,,,,,,,,,,,,,,,,,,,,,,right,0.0,1.11094832100207,,,,,sub-007,1,random_dot,89.00730262374209,
right,right,9.0,1.0,4.0,left,0.0,2.467081987997517,,accuracy,space,4.503802159015322,,,,,,0.0,1.0,1.0,0.0,4.0,1.0,9.0,1.0,306.63939646899235,,,,,,,,,306.6293840330036,307.825955517008,308.62654426699737,308.61508491198765,308.6156102709938,308.62654426699737,308.62654426699737,308.62654426699737,311.10772084401106,,,,,,,,,,,,,,,,,,,,,,,,,,,,,,left,0.0,2.467081987997517,,,,,sub-007,1,random_dot,89.00730262374209,
left,left,10.0,0.0,5.0,left,1.0,1.1223689969920088,,accuracy,space,4.503802159015322,,,,,,0.0,1.0,1.0,0.0,5.0,0.0,10.0,0.0,311.12062531898846,,,,,,,,,311.1084182790073,311.20748102199286,312.01501154800644,312.00068828399526,312.0011863920081,312.01501154800644,312.01501154800644,312.01501154800644,313.15283569699386,,,,,,,,,,,,,,,,,,,,,,,,,,,,,,left,1.0,1.1223689969920088,,,,,sub-007,1,random_dot,89.00730262374209,
right,right,11.0,1.0,5.0,right,1.0,2.174978230992565,,accuracy,space,4.503802159015322,,,,,,0.0,1.0,1.0,0.0,5.0,1.0,11.0,1.0,313.16390166198835,,,,,,,,,313.1533748850052,314.3568173109961,315.160122723988,315.1484750339878,315.14894612599164,315.160122723988,315.160122723988,315.160122723988,317.3470739379991,,,,,,,,,,,,,,,,,,,,,,,,,,,,,,right,1.0,2.174978230992565,,,,,sub-007,1,random_dot,89.00730262374209,
left,left,12.0,0.0,6.0,left,1.0,0.7607009850034956,,accuracy,space,4.503802159015322,,,,,,0.0,1.0,1.0,0.0,6.0,0.0,12.0,0.0,317.3575016820105,,,,,,,,,317.34753242100123,317.4404997070087,318.2461979769869,318.2324721860059,318.232898857008,318.2461979769869,318.2461979769869,318.2461979769869,319.0158097439853,,,,,,,,,,,,,,,,,,,,,,,,,,,,,,left,1.0,0.7607009850034956,,,,,sub-007,1,random_dot,89.00730262374209,
right,right,13.0,1.0,6.0,right,1.0,0.4645495590229984,,accuracy,space,4.503802159015322,,,,,,0.0,1.0,1.0,0.0,6.0,1.0,13.0,1.0,319.03004014099133,,,,,,,,,319.01628481500666,319.3645740849897,320.15854487600154,320.1478376640007,320.1483244719857,320.15854487600154,320.15854487600154,320.15854487600154,320.63422337398515,,,,,,,,,,,,,,,,,,,,,,,,,,,,,,right,1.0,0.4645495590229984,,,,,sub-007,1,random_dot,89.00730262374209,
right,right,14.0,0.0,7.0,left,0.0,0.5288650869915728,,accuracy,space,4.503802159015322,,,,,,0.0,1.0,1.0,0.0,7.0,0.0,14.0,1.0,320.6447310229996,,,,,,,,,320.63467296698946,321.4328824169934,322.2418158199871,322.2317933519953,322.23227115900954,322.2418158199871,322.2418158199871,322.2418158199871,322.7799780140049,,,,,,,,,,,,,,,,,,,,,,,,,,,,,,left,0.0,0.5288650869915728,,,,,sub-007,1,random_dot,89.00730262374209,
left,left,15.0,1.0,7.0,right,0.0,0.7451747640152462,,accuracy,space,4.503802159015322,,,,,,0.0,1.0,1.0,0.0,7.0,1.0,15.0,0.0,322.7895374090004,,,,,,,,,322.7804752709926,322.8723341010045,323.6687037429947,323.6570804709918,323.6580689380062,323.6687037429947,323.6687037429947,323.6687037429947,324.4243850480125,,,,,,,,,,,,,,,,,,,,,,,,,,,,,,right,0.0,0.7451747640152462,,,,,sub-007,1,random_dot,89.00730262374209,
left,left,16.0,0.0,8.0,right,0.0,0.8090632729872596,,accuracy,space,4.503802159015322,,,,,,0.0,1.0,1.0,0.0,8.0,0.0,16.0,0.0,324.43560954599525,,,,,,,,,324.4249013439985,324.78033090999816,325.575554251991,325.5645587799954,325.5650299699919,325.575554251991,325.575554251991,325.575554251991,326.39805682800943,,,,,,,,,,,,,,,,,,,,,,,,,,,,,,right,0.0,0.8090632729872596,,,,,sub-007,1,random_dot,89.00730262374209,
right,right,17.0,1.0,8.0,right,1.0,0.7831038799777161,,accuracy,space,4.503802159015322,,,,,,0.0,1.0,1.0,0.0,8.0,1.0,17.0,1.0,326.4102378679964,,,,,,,,,326.3985729049891,327.1995337360131,328.0000135639857,327.98991694601136,327.99040108599,328.0000135639857,328.0000135639857,328.0000135639857,328.78664034200483,,,,,,,,,,,,,,,,,,,,,,,,,,,,,,right,1.0,0.7831038799777161,,,,,sub-007,1,random_dot,89.00730262374209,
left,left,18.0,0.0,9.0,left,1.0,0.8282582849788014,,accuracy,space,4.503802159015322,,,,,,0.0,1.0,1.0,0.0,9.0,0.0,18.0,0.0,328.8127410169982,,,,,,,,,328.78714849299286,329.981721196993,330.7813191729947,330.76937830098905,330.7700735600083,330.7813191729947,330.7813191729947,330.7813191729947,331.6172162879957,,,,,,,,,,,,,,,,,,,,,,,,,,,,,,left,1.0,0.8282582849788014,,,,,sub-007,1,random_dot,89.00730262374209,
right,right,19.0,1.0,9.0,right,1.0,1.1693157179979607,,accuracy,space,4.503802159015322,,,,,,0.0,1.0,1.0,0.0,9.0,1.0,19.0,1.0,331.630055148009,,,,,,,,,331.6176627090026,332.4222354920057,333.21835436401307,333.20783539500553,333.20831923899823,333.21835436401307,333.21835436401307,333.21835436401307,334.4004122350016,,,,,,,,,,,,,,,,,,,,,,,,,,,,,,right,1.0,1.1693157179979607,,,,,sub-007,1,random_dot,89.00730262374209,
right,right,20.0,0.0,10.0,right,1.0,0.7787900049879681,,accuracy,space,4.503802159015322,,,,,,0.0,1.0,1.0,0.0,10.0,0.0,20.0,1.0,334.4117905810126,,,,,,,,,334.400926405011,334.75688020599773,335.5536134610011,335.54114489798667,335.541829697002,335.5536134610011,335.5536134610011,335.5536134610011,336.33883156298543,,,,,,,,,,,,,,,,,,,,,,,,,,,,,,right,1.0,0.7787900049879681,,,,,sub-007,1,random_dot,89.00730262374209,
left,left,21.0,1.0,10.0,left,1.0,0.6355932770238724,,accuracy,space,4.503802159015322,,,,,,0.0,1.0,1.0,0.0,10.0,1.0,21.0,0.0,336.3498621339968,,,,,,,,,336.33921896398533,336.6882686110039,337.49243008799385,337.48144255799707,337.48193190500024,337.49243008799385,337.49243008799385,337.49243008799385,338.1342081739858,,,,,,,,,,,,,,,,,,,,,,,,,,,,,,left,1.0,0.6355932770238724,,,,,sub-007,1,random_dot,89.00730262374209,
right,right,22.0,0.0,11.0,left,0.0,0.778476703009801,,accuracy,space,4.503802159015322,,,,,,0.0,1.0,1.0,0.0,11.0,0.0,22.0,1.0,338.1441318310099,,,,,,,,,338.1346671390056,338.93924254499143,339.7431638650014,339.7322517519933,339.73271343600936,339.7431638650014,339.7431638650014,339.7431638650014,340.53399958400405,,,,,,,,,,,,,,,,,,,,,,,,,,,,,,left,0.0,0.778476703009801,,,,,sub-007,1,random_dot,89.00730262374209,
left,left,23.0,1.0,11.0,right,0.0,0.7521655220189132,,accuracy,space,4.503802159015322,,,,,,0.0,1.0,1.0,0.0,11.0,1.0,23.0,0.0,340.5450517710124,,,,,,,,,340.53444484600914,341.7383267499972,342.5356928390101,342.5235563509923,342.5245810250053,342.5356928390101,342.5356928390101,342.5356928390101,343.2991340419976,,,,,,,,,,,,,,,,,,,,,,,,,,,,,,right,0.0,0.7521655220189132,,,,,sub-007,1,random_dot,89.00730262374209,
right,right,24.0,0.0,12.0,right,1.0,1.0817921569978353,,accuracy,space,4.503802159015322,,,,,,0.0,1.0,1.0,0.0,12.0,0.0,24.0,1.0,343.3103553940018,,,,,,,,,343.2995971339988,344.09922070999164,344.89557777298614,344.8841425369901,344.884612867987,344.89557777298614,344.89557777298614,344.89557777298614,345.99335465198965,,,,,,,,,,,,,,,,,,,,,,,,,,,,,,right,1.0,1.0817921569978353,,,,,sub-007,1,random_dot,89.00730262374209,
left,left,25.0,1.0,12.0,left,1.0,0.7289276200172026,,accuracy,space,4.503802159015322,,,,,,0.0,1.0,1.0,0.0,12.0,1.0,25.0,0.0,346.00148469398846,,,,,,,,,345.993976800004,346.088169382012,346.8851553160057,346.8727917690121,346.8735067649977,346.8851553160057,346.8851553160057,346.8851553160057,347.6192561269854,,,,,,,,,,,,,,,,,,,,,,,,,,,,,,left,1.0,0.7289276200172026,,,,,sub-007,1,random_dot,89.00730262374209,
left,left,26.0,0.0,13.0,right,0.0,0.6410033909778576,,accuracy,space,4.503802159015322,,,,,,0.0,1.0,1.0,0.0,13.0,0.0,26.0,0.0,347.64569740300067,,,,,,,,,347.6197152269888,348.8213436510123,349.62563843099633,349.6145266419917,349.61500269398675,349.62563843099633,349.62563843099633,349.62563843099633,350.2784543870075,,,,,,,,,,,,,,,,,,,,,,,,,,,,,,right,0.0,0.6410033909778576,,,,,sub-007,1,random_dot,89.00730262374209,
right,right,27.0,1.0,13.0,right,1.0,1.388255672995001,,accuracy,space,4.503802159015322,,,,,,0.0,1.0,1.0,0.0,13.0,1.0,27.0,1.0,350.2887824210047,,,,,,,,,350.2789103059913,351.47319443899323,352.2737808189995,352.2640147480124,352.264452886011,352.2737808189995,352.2737808189995,352.2737808189995,353.6668407410034,,,,,,,,,,,,,,,,,,,,,,,,,,,,,,right,1.0,1.388255672995001,,,,,sub-007,1,random_dot,89.00730262374209,
right,right,28.0,0.0,14.0,right,1.0,2.8971810969815124,,accuracy,space,4.503802159015322,,,,,,0.0,1.0,1.0,0.0,14.0,0.0,28.0,1.0,353.6781124949921,,,,,,,,,353.667304698989,354.016398976004,354.8171645340044,354.8060432859929,354.8066899869882,354.8171645340044,354.8171645340044,354.8171645340044,357.73059842700604,,,,,,,,,,,,,,,,,,,,,,,,,,,,,,right,1.0,2.8971810969815124,,,,,sub-007,1,random_dot,89.00730262374209,
left,left,29.0,1.0,14.0,left,1.0,0.7219163769914303,,accuracy,space,4.503802159015322,,,,,,0.0,1.0,1.0,0.0,14.0,1.0,29.0,0.0,357.7387925160001,,,,,,,,,357.7313220470096,358.93040926899994,359.72884256299585,359.71670941699995,359.71741457798635,359.72884256299585,359.72884256299585,359.72884256299585,360.45493925598566,,,,,,,,,,,,,,,,,,,,,,,,,,,,,,left,1.0,0.7219163769914303,,,,,sub-007,1,random_dot,89.00730262374209,
left,left,30.0,0.0,15.0,left,1.0,1.9318050300062168,,accuracy,space,4.503802159015322,,,,,,0.0,1.0,1.0,0.0,15.0,0.0,30.0,0.0,360.4659569550131,,,,,,,,,360.45573116999,360.56378005899023,361.36118891698425,361.3495857660018,361.3501130329969,361.36118891698425,361.36118891698425,361.36118891698425,363.3033652569866,,,,,,,,,,,,,,,,,,,,,,,,,,,,,,left,1.0,1.9318050300062168,,,,,sub-007,1,random_dot,89.00730262374209,
right,right,31.0,1.0,15.0,right,1.0,0.7601151300186757,,accuracy,space,4.503802159015322,,,,,,0.0,1.0,1.0,0.0,15.0,1.0,31.0,1.0,363.31624129699776,,,,,,,,,363.3038106749882,364.4990497030085,365.30077527300455,365.2891006919963,365.2896168449952,365.30077527300455,365.30077527300455,365.30077527300455,366.0720768950123,,,,,,,,,,,,,,,,,,,,,,,,,,,,,,right,1.0,0.7601151300186757,,,,,sub-007,1,random_dot,89.00730262374209,
right,right,32.0,0.0,16.0,right,1.0,1.1137607440177817,,accuracy,space,4.503802159015322,,,,,,0.0,1.0,1.0,0.0,16.0,0.0,32.0,1.0,366.08243286199286,,,,,,,,,366.0725277549936,367.2714260900102,368.0732819109981,368.0626493899909,368.0631760389952,368.0732819109981,368.0732819109981,368.0732819109981,369.1984810369904,,,,,,,,,,,,,,,,,,,,,,,,,,,,,,right,1.0,1.1137607440177817,,,,,sub-007,1,random_dot,89.00730262374209,
left,left,33.0,1.0,16.0,left,1.0,0.998034304997418,,accuracy,space,4.503802159015322,,,,,,0.0,1.0,1.0,0.0,16.0,1.0,33.0,0.0,369.20963145198766,,,,,,,,,369.1989432130067,369.2952541229897,370.0960830349941,370.08062070800224,370.081341660989,370.0960830349941,370.0960830349941,370.0960830349941,371.10653731098864,,,,,,,,,,,,,,,,,,,,,,,,,,,,,,left,1.0,0.998034304997418,,,,,sub-007,1,random_dot,89.00730262374209,
left,left,34.0,0.0,17.0,left,1.0,1.0802933749801014,,accuracy,space,4.503802159015322,,,,,,0.0,1.0,1.0,0.0,17.0,0.0,34.0,0.0,371.1176148479863,,,,,,,,,371.1070940509962,371.9021051180025,372.700848478009,372.6892627539928,372.68977238598745,372.700848478009,372.700848478009,372.700848478009,373.79115547798574,,,,,,,,,,,,,,,,,,,,,,,,,,,,,,left,1.0,1.0802933749801014,,,,,sub-007,1,random_dot,89.00730262374209,
right,right,35.0,1.0,17.0,left,0.0,0.6651208589901216,,accuracy,space,4.503802159015322,,,,,,0.0,1.0,1.0,0.0,17.0,1.0,35.0,1.0,373.80212257700623,,,,,,,,,373.7916254209995,374.136911848007,374.9411882039858,374.93027723999694,374.9307518590067,374.9411882039858,374.9411882039858,374.9411882039858,375.615684799006,,,,,,,,,,,,,,,,,,,,,,,,,,,,,,left,0.0,0.6651208589901216,,,,,sub-007,1,random_dot,89.00730262374209,
right,right,36.0,0.0,18.0,left,0.0,0.9182767949823756,,accuracy,space,4.503802159015322,,,,,,0.0,1.0,1.0,0.0,18.0,0.0,36.0,1.0,375.626168177987,,,,,,,,,375.6161466290068,375.7147267939872,376.5169259620016,376.5055620909843,376.5063167100016,376.5169259620016,376.5169259620016,376.5169259620016,377.4652727519861,,,,,,,,,,,,,,,,,,,,,,,,,,,,,,left,0.0,0.9182767949823756,,,,,sub-007,1,random_dot,89.00730262374209,
left,left,37.0,1.0,18.0,right,0.0,0.7368979490129277,,accuracy,space,4.503802159015322,,,,,,0.0,1.0,1.0,0.0,18.0,1.0,37.0,0.0,377.4792396989942,,,,,,,,,377.466024119989,378.66399751699646,379.4740430249949,379.45551037200494,379.45636151800863,379.4740430249949,379.4740430249949,379.4740430249949,380.2278887220018,,,,,,,,,,,,,,,,,,,,,,,,,,,,,,right,0.0,0.7368979490129277,,,,,sub-007,1,random_dot,89.00730262374209,
right,right,38.0,0.0,19.0,left,0.0,0.6607465150009375,,accuracy,space,4.503802159015322,,,,,,0.0,1.0,1.0,0.0,19.0,0.0,38.0,1.0,380.24223105900455,,,,,,,,,380.2285665629897,380.596221580985,381.4080664920039,381.3884073490044,381.389345751988,381.4080664920039,381.4080664920039,381.4080664920039,382.0994795350125,,,,,,,,,,,,,,,,,,,,,,,,,,,,,,left,0.0,0.6607465150009375,,,,,sub-007,1,random_dot,89.00730262374209,
left,left,39.0,1.0,19.0,left,1.0,0.77087768597994,,accuracy,space,4.503802159015322,,,,,,0.0,1.0,1.0,0.0,19.0,1.0,39.0,0.0,382.11172172799706,,,,,,,,,382.1006684509921,382.4499886200065,383.2573300540098,383.24316865499713,383.2438486680039,383.2573300540098,383.2573300540098,383.2573300540098,384.0379148520005,,,,,,,,,,,,,,,,,,,,,,,,,,,,,,left,1.0,0.77087768597994,,,,,sub-007,1,random_dot,89.00730262374209,
right,right,40.0,0.0,20.0,right,1.0,0.6446225279942155,,accuracy,space,4.503802159015322,,,,,,0.0,1.0,1.0,0.0,20.0,0.0,40.0,1.0,384.0499164040084,,,,,,,,,384.0384267549962,384.3969084779965,385.212071936985,385.19815494600334,385.19863536200137,385.212071936985,385.212071936985,385.212071936985,385.86476551700616,,,,,,,,,,,,,,,,,,,,,,,,,,,,,,right,1.0,0.6446225279942155,,,,,sub-007,1,random_dot,89.00730262374209,
left,left,41.0,1.0,20.0,left,1.0,0.6984252739930525,,accuracy,space,4.503802159015322,,,,,,0.0,1.0,1.0,0.0,20.0,1.0,41.0,0.0,385.8740243620123,,,,,,,,,385.8652080500033,387.0718374350108,387.87447018298553,387.86413682901184,387.86463087200536,387.87447018298553,387.87447018298553,387.87447018298553,388.5786891529861,,,,,,,,,,,,,,,,,,,,,,,,,,,,,,left,1.0,0.6984252739930525,,,,,sub-007,1,random_dot,89.00730262374209,
right,right,42.0,0.0,21.0,left,0.0,1.2699516830034554,,accuracy,space,4.503802159015322,,,,,,0.0,1.0,1.0,0.0,21.0,0.0,42.0,1.0,388.5905025049869,,,,,,,,,388.5791886730003,389.3794072330056,390.1745214370021,390.163850151992,390.1642878220009,390.1745214370021,390.1745214370021,390.1745214370021,391.4486580129888,,,,,,,,,,,,,,,,,,,,,,,,,,,,,,left,0.0,1.2699516830034554,,,,,sub-007,1,random_dot,89.00730262374209,
left,left,43.0,1.0,21.0,left,1.0,0.7547958219947759,,accuracy,space,4.503802159015322,,,,,,0.0,1.0,1.0,0.0,21.0,1.0,43.0,0.0,391.462237595988,,,,,,,,,391.4492137079942,392.24615286299377,393.04139892201056,393.0304312559893,393.0309341670072,393.04139892201056,393.04139892201056,393.04139892201056,393.8044842089876,,,,,,,,,,,,,,,,,,,,,,,,,,,,,,left,1.0,0.7547958219947759,,,,,sub-007,1,random_dot,89.00730262374209,
right,right,44.0,0.0,22.0,right,1.0,0.8146571560064331,,accuracy,space,4.503802159015322,,,,,,0.0,1.0,1.0,0.0,22.0,0.0,44.0,1.0,393.8157430370047,,,,,,,,,393.8050037040084,394.5979103890131,395.3999324050092,395.3887700769992,395.389414078003,395.3999324050092,395.3999324050092,395.3999324050092,396.22673033500905,,,,,,,,,,,,,,,,,,,,,,,,,,,,,,right,1.0,0.8146571560064331,,,,,sub-007,1,random_dot,89.00730262374209,
left,left,45.0,1.0,22.0,left,1.0,0.7368469699868001,,accuracy,space,4.503802159015322,,,,,,0.0,1.0,1.0,0.0,22.0,1.0,45.0,0.0,396.2360044670058,,,,,,,,,396.2272933280037,397.4463514479867,398.2450940829876,398.2326769909996,398.2332506439998,398.2450940829876,398.2450940829876,398.2450940829876,398.9941192039987,,,,,,,,,,,,,,,,,,,,,,,,,,,,,,left,1.0,0.7368469699868001,,,,,sub-007,1,random_dot,89.00730262374209,
right,right,46.0,0.0,23.0,right,1.0,0.6911237750027794,,accuracy,space,4.503802159015322,,,,,,0.0,1.0,1.0,0.0,23.0,0.0,46.0,1.0,399.0054943989962,,,,,,,,,398.9945902249892,399.33683183501125,400.1454865100095,400.1311761440011,400.1316451099992,400.1454865100095,400.1454865100095,400.1454865100095,400.85232584000914,,,,,,,,,,,,,,,,,,,,,,,,,,,,,,right,1.0,0.6911237750027794,,,,,sub-007,1,random_dot,89.00730262374209,
left,left,47.0,1.0,23.0,left,1.0,1.5009391639905516,,accuracy,space,4.503802159015322,,,,,,0.0,1.0,1.0,0.0,23.0,1.0,47.0,0.0,400.8645641540061,,,,,,,,,400.8528599890124,401.6633013749961,402.4615196679952,402.4496195219981,402.4501731210039,402.4615196679952,402.4615196679952,402.4615196679952,403.9735522450064,,,,,,,,,,,,,,,,,,,,,,,,,,,,,,left,1.0,1.5009391639905516,,,,,sub-007,1,random_dot,89.00730262374209,
left,left,48.0,0.0,24.0,left,1.0,1.3950709080090746,,accuracy,space,4.503802159015322,,,,,,0.0,1.0,1.0,0.0,24.0,0.0,48.0,0.0,403.9846662759956,,,,,,,,,403.9741027560085,404.7791062610049,405.5775322039845,405.5655778500077,405.5660541889956,405.5775322039845,405.5775322039845,405.5775322039845,406.9776702770032,,,,,,,,,,,,,,,,,,,,,,,,,,,,,,left,1.0,1.3950709080090746,,,,,sub-007,1,random_dot,89.00730262374209,
right,right,49.0,1.0,24.0,left,0.0,0.9310937570116948,,accuracy,space,4.503802159015322,,,,,,0.0,1.0,1.0,0.0,24.0,1.0,49.0,1.0,406.9886478830013,,,,,,,,,406.97821381498943,407.0696884939971,407.87814304599306,407.8642789209844,407.8649676149944,407.87814304599306,407.87814304599306,407.87814304599306,408.8210017039965,,,,,,,,,,,,,,,,,,,,,,,,,,,,,,left,0.0,0.9310937570116948,,,,,sub-007,1,random_dot,89.00730262374209,
right,right,50.0,0.0,25.0,right,1.0,1.2880252649774775,,accuracy,space,4.503802159015322,,,,,,0.0,1.0,1.0,0.0,25.0,0.0,50.0,1.0,408.8323718669999,,,,,,,,,408.821458454011,409.61945604599896,410.42550422699424,410.4142743010016,410.4147648499929,410.42550422699424,410.42550422699424,410.42550422699424,411.7305504810065,,,,,,,,,,,,,,,,,,,,,,,,,,,,,,right,1.0,1.2880252649774775,,,,,sub-007,1,random_dot,89.00730262374209,
left,left,51.0,1.0,25.0,right,0.0,1.8195152189873625,,accuracy,space,4.503802159015322,,,,,,0.0,1.0,1.0,0.0,25.0,1.0,51.0,0.0,411.73908488001325,,,,,,,,,411.7313264810073,412.095052329998,412.8935379809991,412.8821385799965,412.88261684199097,412.8935379809991,412.8935379809991,412.8935379809991,414.7227560940082,,,,,,,,,,,,,,,,,,,,,,,,,,,,,,right,0.0,1.8195152189873625,,,,,sub-007,1,random_dot,89.00730262374209,
left,left,52.0,0.0,26.0,right,0.0,1.4493583280127496,,accuracy,space,4.503802159015322,,,,,,0.0,1.0,1.0,0.0,26.0,0.0,52.0,0.0,414.7333736740111,,,,,,,,,414.7233884499874,415.92058443298447,416.7171617900021,416.7045267669892,416.7050461350009,416.7171617900021,416.7171617900021,416.7171617900021,418.1790121019876,,,,,,,,,,,,,,,,,,,,,,,,,,,,,,right,0.0,1.4493583280127496,,,,,sub-007,1,random_dot,89.00730262374209,
right,right,53.0,1.0,26.0,left,0.0,1.4303116720111575,,accuracy,space,4.503802159015322,,,,,,0.0,1.0,1.0,0.0,26.0,1.0,53.0,1.0,418.1905350000016,,,,,,,,,418.1795159059984,418.9734280309931,419.77270092099207,419.7627345969959,419.7633199680131,419.77270092099207,419.77270092099207,419.77270092099207,421.2138997729926,,,,,,,,,,,,,,,,,,,,,,,,,,,,,,left,0.0,1.4303116720111575,,,,,sub-007,1,random_dot,89.00730262374209,
right,right,54.0,0.0,27.0,right,1.0,3.639306388999103,,accuracy,space,4.503802159015322,,,,,,0.0,1.0,1.0,0.0,27.0,0.0,54.0,1.0,421.2246411959932,,,,,,,,,421.2144085470063,422.4111319369986,423.207432619005,423.1969932479842,423.1974740859878,423.207432619005,423.207432619005,423.207432619005,426.8627503429889,,,,,,,,,,,,,,,,,,,,,,,,,,,,,,right,1.0,3.639306388999103,,,,,sub-007,1,random_dot,89.00730262374209,
left,left,55.0,1.0,27.0,left,1.0,1.3449495490058323,,accuracy,space,4.503802159015322,,,,,,0.0,1.0,1.0,0.0,27.0,1.0,55.0,0.0,426.8701447669882,,,,,,,,,426.8634782599984,427.2046323579853,428.008272105013,427.9967572419846,427.9972302689857,428.008272105013,428.008272105013,428.008272105013,429.36638438899536,,,,,,,,,,,,,,,,,,,,,,,,,,,,,,left,1.0,1.3449495490058323,,,,,sub-007,1,random_dot,89.00730262374209,
left,left,56.0,0.0,28.0,left,1.0,1.1589072489878165,,accuracy,space,4.503802159015322,,,,,,0.0,1.0,1.0,0.0,28.0,0.0,56.0,0.0,429.37823604399455,,,,,,,,,429.3669324259972,429.7135084870097,430.5114647760056,430.49817152600735,430.49863041201024,430.5114647760056,430.5114647760056,430.5114647760056,431.6756110200077,,,,,,,,,,,,,,,,,,,,,,,,,,,,,,left,1.0,1.1589072489878165,,,,,sub-007,1,random_dot,89.00730262374209,
right,right,57.0,1.0,28.0,right,1.0,0.9886651120032184,,accuracy,space,4.503802159015322,,,,,,0.0,1.0,1.0,0.0,28.0,1.0,57.0,1.0,431.6859759159852,,,,,,,,,431.6762043439958,431.7962906979956,432.595389183989,432.5836411929922,432.5843638030056,432.595389183989,432.595389183989,432.595389183989,433.603132985998,,,,,,,,,,,,,,,,,,,,,,,,,,,,,,right,1.0,0.9886651120032184,,,,,sub-007,1,random_dot,89.00730262374209,
right,right,58.0,0.0,29.0,left,0.0,3.967169876996195,,accuracy,space,4.503802159015322,,,,,,0.0,1.0,1.0,0.0,29.0,0.0,58.0,1.0,433.61181218599086,,,,,,,,,433.6036386020132,434.7973927549901,435.599851409992,435.5888335680065,435.5896044349938,435.599851409992,435.599851409992,435.599851409992,439.5724247749895,,,,,,,,,,,,,,,,,,,,,,,,,,,,,,left,0.0,3.967169876996195,,,,,sub-007,1,random_dot,89.00730262374209,
left,left,59.0,1.0,29.0,left,1.0,1.5551870590134058,,accuracy,space,4.503802159015322,,,,,,0.0,1.0,1.0,0.0,29.0,1.0,59.0,0.0,439.58386233099736,,,,,,,,,439.57301883600303,439.6787408310047,440.47405585699016,440.463023357006,440.4635078200081,440.47405585699016,440.47405585699016,440.47405585699016,442.0322962999926,,,,,,,,,,,,,,,,,,,,,,,,,,,,,,left,1.0,1.5551870590134058,,,,,sub-007,1,random_dot,89.00730262374209,
,,1.0,1.0,0.0,,,,,accuracy,space,4.503802159015322,,,,,,0.0,1.0,1.0,0.0,,,,,,,,,,,,,,,,,,,,,,,,,,,,,,,,,,,,,,,,,,,,,,,,,,,,,,,,,,,sub-007,1,random_dot,89.00730262374209,
,,,,,,,,,,,,,,,,,,,,,,,,,,,,,,,,,,,,,,,,,,,,,,,,,,,,,,,,,,,,,,,,,,,,,,,,,,,,442.03910954800085,442.05276916601,447.0376073769876,sub-007,1,random_dot,89.00730262374209,
