direction,corrAns,randomInstr,practice_trials.thisRepN,practice_trials.thisTrialN,practice_trials.thisN,practice_trials.thisIndex,instr_trials.thisRepN,instr_trials.thisTrialN,instr_trials.thisN,instr_trials.thisIndex,test_trials.thisRepN,test_trials.thisTrialN,test_trials.thisN,test_trials.thisIndex,thisRow.t,notes,general_instruction.started,textGeneralInstr.started,respGeneralInstr.started,general_instruction.stopped,respGeneralInstr.keys,respGeneralInstr.rt,respGeneralInstr.duration,ITI.started,fixcross.started,fixcross.stopped,ITI.stopped,dots.started,backgroundDots.started,stimulusDots.started,respDots.started,stimulusDots.stopped,dots.stopped,respDots.keys,respDots.corr,respDots.rt,respDots.duration,feedback.started,textFeedback.started,feedback.stopped,textFeedback.stopped,info.started,textInfo.started,keyRespInfo.started,info.stopped,keyRespInfo.keys,keyRespInfo.rt,keyRespInfo.duration,test_instruction.started,textTestInstr.started,respTestInstr.started,test_instruction.stopped,respTestInstr.keys,respTestInstr.rt,respTestInstr.duration,random_instruction.started,textRandomInstr.started,respRandomInstr.started,random_instruction.stopped,respRandomInstr.keys,respRandomInstr.rt,respRandomInstr.duration,goodbye.started,textGoodbye.started,goodbye.stopped,participant,session,expName,frameRate,Unnamed: 73
,,,,,,,,,,,,,,,,,0.0147334999928716,0.0367048000043723,0.0367048000043723,37.03539179998916,space,66.9800271000131,,,,,,,,,,,,,,,,,,,,,,,,,,,,,,,,,,,,,,,,,,,,sub-055,1.0,random_dot,59.97184921605492,
left,left,,0.0,0.0,0.0,0.0,,,,,,,,,37.06079429999227,,,,,,,,,37.05368069998804,37.85096019998309,38.65344210001058,38.63442089999444,38.63446840000688,38.65344210001058,38.65344210001058,38.65344210001058,43.64974920000532,88.42881650000345,left,1.0,79.75933220001752,,88.43048879998969,88.46006990000024,88.94471700000577,,,,,,,,,,,,,,,,,,,,,,,,,,sub-055,1.0,random_dot,59.97184921605492,
right,right,,0.0,1.0,1.0,1.0,,,,,,,,,88.96101179998368,,,,,,,,,88.94547820001026,89.04392589998315,89.84416909998981,89.8283034999913,89.82834629999707,89.84416909998981,89.84416909998981,89.84416909998981,94.84353749998265,100.91085489999386,right,1.0,41.0582626000396,,100.91158459999131,100.9257796999882,101.41010660000028,101.42612290001124,,,,,,,,,,,,,,,,,,,,,,,,,sub-055,1.0,random_dot,59.97184921605492,
left,left,,1.0,0.0,2.0,0.0,,,,,,,,,101.42612290001124,,,,,,,,,101.41059489999316,101.52583989998676,102.32561539998278,102.30976040000678,102.3097909000062,102.32561539998278,102.32561539998278,102.32561539998278,107.32508249999955,108.96010629998636,right,0.0,36.62771650002105,,108.96123640000587,108.98788709999644,109.47535180000703,,,,,,,,,,,,,,,,,,,,,,,,,,sub-055,1.0,random_dot,59.97184921605492,
right,right,,1.0,1.0,3.0,1.0,,,,,,,,,109.49176999999328,,,,,,,,,109.47606939999967,110.67464779998409,111.47483389999252,111.45897209999384,111.45899439998902,111.47483389999252,111.47483389999252,111.47483389999252,116.47390449998784,117.5256115999946,right,1.0,36.03596130001824,,117.52674199998728,117.54169809998712,118.04068539998843,,,,,,,,,,,,,,,,,,,,,,,,,,sub-055,1.0,random_dot,59.97184921605492,
right,right,,2.0,0.0,4.0,1.0,,,,,,,,,118.05675119999796,,,,,,,,,118.04149979999056,118.3910940999922,119.20687379999436,119.19073549998576,119.19076910000877,119.20687379999436,119.20687379999436,119.20687379999436,124.20606110000516,125.1584251000022,left,0.0,35.94624690001365,,125.15956830000503,125.17507430000114,125.6727525999886,,,,,,,,,,,,,,,,,,,,,,,,,,sub-055,1.0,random_dot,59.97184921605492,
left,left,,2.0,1.0,5.0,0.0,,,,,,,,,125.68929959999514,,,,,,,,,125.67333250000956,126.02307999998447,126.82253740000306,126.80666870001004,126.80674120000911,126.82253740000306,126.82253740000306,126.82253740000306,131.82147309998982,132.5238638999872,right,0.0,35.69416190002812,,132.52529160000267,132.53886939998483,133.0222240999865,133.03820589999668,,,,,,,,,,,,,,,,,,,,,,,,,sub-055,1.0,random_dot,59.97184921605492,
right,right,,3.0,0.0,6.0,1.0,,,,,,,,,133.03820589999668,,,,,,,,,133.02279230000568,134.23869090000517,135.0382862999977,135.02225629999884,135.02227819999098,135.0382862999977,135.0382862999977,135.0382862999977,140.03753460000735,150.38737660000334,left,0.0,45.33604240001296,,150.3880964999844,150.40257849998306,150.88663719999022,150.90262929999153,,,,,,,,,,,,,,,,,,,,,,,,,sub-055,1.0,random_dot,59.97184921605492,
left,left,,3.0,1.0,7.0,0.0,,,,,,,,,150.90262929999153,,,,,,,,,150.88711399998283,151.0035199999984,151.81922020000638,151.8034015999874,151.8034231000056,151.81922020000638,151.81922020000638,151.81922020000638,156.80242819999694,159.53661869998905,right,0.0,37.7120107000228,,159.5373403999838,159.55161480000243,160.0354931000038,160.0510643000016,,,,,,,,,,,,,,,,,,,,,,,,,sub-055,1.0,random_dot,59.97184921605492,
right,right,,4.0,0.0,8.0,1.0,,,,,,,,,160.0510643000016,,,,,,,,,160.03607410000404,161.2510578999936,162.05120379998698,162.0350335999974,162.03506870000274,162.05120379998698,162.05120379998698,162.05120379998698,167.0345066000009,167.9848396999878,right,1.0,35.916754900012165,,167.98543130001053,168.00010679999832,168.48477390001062,168.5004675000091,,,,,,,,,,,,,,,,,,,,,,,,,sub-055,1.0,random_dot,59.97184921605492,
left,left,,4.0,1.0,9.0,0.0,,,,,,,,,168.5004675000091,,,,,,,,,168.48552359998575,168.8507338000054,169.6503958000103,169.63509699999122,169.63513419998344,169.6503958000103,169.6503958000103,169.6503958000103,174.6498072000104,175.25081269998918,left,1.0,35.59451010002522,,175.25167520000832,175.26630899999873,175.751391400001,175.76668639999116,,,,,,,,,,,,,,,,,,,,,,,,,sub-055,1.0,random_dot,59.97184921605492,
left,left,,5.0,0.0,10.0,0.0,,,,,,,,,175.76668639999116,,,,,,,,,175.75208750000456,176.96650290000252,177.7658977000101,177.75007229999756,177.7501132999896,177.7658977000101,177.7658977000101,177.7658977000101,182.7652861000097,183.5330215999857,left,1.0,35.75350130000152,,183.533844199992,183.54820839999596,184.03210680000484,184.04826789998333,,,,,,,,,,,,,,,,,,,,,,,,,sub-055,1.0,random_dot,59.97184921605492,
right,right,,5.0,1.0,11.0,1.0,,,,,,,,,184.04826789998333,,,,,,,,,184.0325814000098,185.2483821999922,186.048521299992,186.033047200006,186.03308449999892,186.048521299992,186.048521299992,186.048521299992,191.0473675999965,191.71572439998272,right,1.0,35.66084039999987,,191.7165377000056,191.73082029999927,192.21478829998523,192.23028379998868,,,,,,,,,,,,,,,,,,,,,,,,,sub-055,1.0,random_dot,59.97184921605492,
left,left,,6.0,0.0,12.0,0.0,,,,,,,,,192.23028379998868,,,,,,,,,192.21528479998236,192.33043780000295,193.13084249998792,193.11516650000704,193.1152028999932,193.13084249998792,193.13084249998792,193.13084249998792,198.1303779000009,198.73103799999808,left,1.0,35.57971270001144,,198.73187610000605,198.74652049998983,199.23071969999,199.24644479999552,,,,,,,,,,,,,,,,,,,,,,,,,sub-055,1.0,random_dot,59.97184921605492,
right,right,,6.0,1.0,13.0,1.0,,,,,,,,,199.24644479999552,,,,,,,,,199.23129440000048,200.04649059998337,200.8462368999899,200.83083779999288,200.8308680999908,200.8462368999899,200.8462368999899,200.8462368999899,205.8454853000003,206.48074030000132,right,1.0,35.62721929998952,,206.4815413999895,206.49566330001107,206.9794244999939,206.9954569999827,,,,,,,,,,,,,,,,,,,,,,,,,sub-055,1.0,random_dot,59.97184921605492,
left,left,,7.0,0.0,14.0,0.0,,,,,,,,,206.9954569999827,,,,,,,,,206.97997670000768,207.095058899984,207.89634479998492,207.87995470000897,207.8799851000076,207.89634479998492,207.89634479998492,207.89634479998492,212.8944602999836,213.9295337999938,left,1.0,36.0162963999901,,213.9305753000081,213.94473819999257,214.42859789999784,214.44445179999457,,,,,,,,,,,,,,,,,,,,,,,,,sub-055,1.0,random_dot,59.97184921605492,
right,right,,7.0,1.0,15.0,1.0,,,,,,,,,214.44445179999457,,,,,,,,,214.429178099992,215.245141899999,216.0447140999895,216.0286998999945,216.02872110001044,216.0447140999895,216.0447140999895,216.0447140999895,221.04330499999924,221.8947038000042,left,0.0,35.838325399992755,,221.8954304000072,221.91006659998675,222.39426669999372,222.4100004000065,,,,,,,,,,,,,,,,,,,,,,,,,sub-055,1.0,random_dot,59.97184921605492,
left,left,,8.0,0.0,16.0,0.0,,,,,,,,,222.4100004000065,,,,,,,,,222.394887500006,223.6099298000045,224.40968680000515,224.39360949999536,224.3936308999837,224.40968680000515,224.40968680000515,224.40968680000515,229.4089538999833,229.92705359999675,left,1.0,35.5041773999983,,229.9279009999882,229.95116840000264,230.44277990001137,,,,,,,,,,,,,,,,,,,,,,,,,,sub-055,1.0,random_dot,59.97184921605492,
right,right,,8.0,1.0,17.0,1.0,,,,,,,,,230.4591288999945,,,,,,,,,230.44343369998387,230.7922779000073,231.5928319999948,231.57671359999225,231.5767333999975,231.5928319999948,231.5928319999948,231.5928319999948,236.59182130001136,237.07613649999257,left,0.0,35.47683890000917,,237.07689689999097,237.09205750000547,237.5753030999913,237.59127780000563,,,,,,,,,,,,,,,,,,,,,,,,,sub-055,1.0,random_dot,59.97184921605492,
left,left,,9.0,0.0,18.0,0.0,,,,,,,,,237.59127780000563,,,,,,,,,237.57581469998692,237.94152689998737,238.74162640000577,238.72576349999872,238.7258183000085,238.74162640000577,238.74162640000577,238.74162640000577,243.7406590000028,244.3931510999973,left,1.0,35.64557409999543,,244.3939868999878,244.40947849999063,244.9073638999835,,,,,,,,,,,,,,,,,,,,,,,,,,sub-055,1.0,random_dot,59.97184921605492,
right,right,,9.0,1.0,19.0,1.0,,,,,,,,,244.923913000006,,,,,,,,,244.90800319999107,245.70693079999185,246.50698780000675,246.49098020000383,246.49101639998844,246.50698780000675,246.50698780000675,246.50698780000675,251.50651400000788,252.1913324999914,left,0.0,35.677923600014765,,252.19213239999956,252.2074876999832,252.70637450000504,,,,,,,,,,,,,,,,,,,,,,,,,,sub-055,1.0,random_dot,59.97184921605492,
,,,,,,,,,,,,,,,,,,,,,,,,,,,,,,,,,,,,,,,,,,252.7064468000026,252.72274569998265,252.72274569998265,267.0221871999965,space,44.284183200012194,,,,,,,,,,,,,,,,,,,sub-055,1.0,random_dot,59.97184921605492,
,,,,,,,,,,,,,,,,,,,,,,,,,,,,,,,,,,,,,,,,,,,,,,,,,267.02222270000493,267.03745149998576,267.03745149998576,291.43608879999374,space,54.38190070001292,,,,,,,,,,,,sub-055,1.0,random_dot,59.97184921605492,
right,right,accuracy,,,,,0.0,0.0,0.0,0.0,0.0,0.0,0.0,1.0,297.10727380000753,,,,,,,,,297.1007600000012,297.9002537000051,298.700605799997,298.68474060000153,298.68479229998775,298.700605799997,298.700605799997,298.700605799997,303.6996710000094,304.61776359999203,right,1.0,35.91012499999488,,,,,,,,,,,,,,,,,,,,291.44228300001123,291.4997087999945,291.4997087999945,297.0855486000073,space,35.578440300014336,,,,,sub-055,1.0,random_dot,59.97184921605492,
left,left,accuracy,,,,,0.0,0.0,0.0,0.0,0.0,1.0,1.0,0.0,304.633247699996,,,,,,,,,304.61982540000463,304.98218269998324,305.78254789998755,305.7670530999894,305.7670720999886,305.78254789998755,305.78254789998755,305.78254789998755,310.78196580000804,311.7161865000089,left,1.0,35.92244799999753,,,,,,,,,,,,,,,,,,,,,,,,,,,,,,sub-055,1.0,random_dot,59.97184921605492,
left,left,accuracy,,,,,0.0,0.0,0.0,0.0,1.0,0.0,2.0,0.0,311.73154589999467,,,,,,,,,311.71742699999595,312.5320909000002,313.331446199998,313.31569260000833,313.315712599986,313.331446199998,313.331446199998,313.331446199998,318.31488739998895,319.2002341999905,left,1.0,35.85653430002276,,,,,,,,,,,,,,,,,,,,,,,,,,,,,,sub-055,1.0,random_dot,59.97184921605492,
right,right,accuracy,,,,,0.0,0.0,0.0,0.0,1.0,1.0,3.0,1.0,319.2142162999953,,,,,,,,,319.2028401999851,320.41417470001034,321.2141656999884,321.1983067999827,321.19832699999097,321.2141656999884,321.2141656999884,321.2141656999884,326.21375699999044,327.08100939998985,left,0.0,35.850303400016855,,,,,,,,,,,,,,,,,,,,,,,,,,,,,,sub-055,1.0,random_dot,59.97184921605492,
right,right,accuracy,,,,,0.0,0.0,0.0,0.0,2.0,0.0,4.0,1.0,327.0964781999937,,,,,,,,,327.0824704999977,327.89612640001,328.69679439999163,328.6816059999983,328.6816289999988,328.69679439999163,328.69679439999163,328.69679439999163,333.6962928999856,334.48043369999505,right,1.0,35.77844720002031,,,,,,,,,,,,,,,,,,,,,,,,,,,,,,sub-055,1.0,random_dot,59.97184921605492,
left,left,accuracy,,,,,0.0,0.0,0.0,0.0,2.0,1.0,5.0,0.0,334.4953785999969,,,,,,,,,334.4818207999924,334.8455712999857,335.645520399994,335.62928459999966,335.6293238000071,335.645520399994,335.645520399994,335.645520399994,340.64440119999927,341.27933839999605,left,1.0,35.62457510002423,,,,,,,,,,,,,,,,,,,,,,,,,,,,,,sub-055,1.0,random_dot,59.97184921605492,
left,left,accuracy,,,,,0.0,0.0,0.0,0.0,3.0,0.0,6.0,0.0,341.2943588999915,,,,,,,,,341.280617899989,341.6444396000006,342.4448076999979,342.4293955999892,342.4294258999871,342.4448076999979,342.4448076999979,342.4448076999979,347.4441514000064,348.42922170000384,right,0.0,35.97116310001002,,,,,,,,,,,,,,,,,,,,,,,,,,,,,,sub-055,1.0,random_dot,59.97184921605492,
right,right,accuracy,,,,,0.0,0.0,0.0,0.0,3.0,1.0,7.0,1.0,348.4447443000099,,,,,,,,,348.4320319000108,348.54395150000346,349.3435429999954,349.32800270000007,349.3280270000105,349.3435429999954,349.3435429999954,349.3435429999954,354.34349860000657,355.0277569000027,right,1.0,35.66384240001207,,,,,,,,,,,,,,,,,,,,,,,,,,,,,,sub-055,1.0,random_dot,59.97184921605492,
right,right,accuracy,,,,,0.0,0.0,0.0,0.0,4.0,0.0,8.0,1.0,355.0428023999848,,,,,,,,,355.029355799983,355.1429656999826,355.9427769999893,355.92741390000447,355.92744959998527,355.9427769999893,355.9427769999893,355.9427769999893,360.9428283000016,362.77671179999015,left,0.0,36.826320400025,,,,,,,,,,,,,,,,,,,,,,,,,,,,,,sub-055,1.0,random_dot,59.97184921605492,
left,left,accuracy,,,,,0.0,0.0,0.0,0.0,4.0,1.0,9.0,0.0,362.7920537999889,,,,,,,,,362.7780776,363.5919192000001,364.3919728999899,364.3758291999984,364.375847599993,364.3919728999899,364.3919728999899,364.3919728999899,369.3743314000021,370.0921727000096,left,1.0,35.680827600037446,,,,,,,,,,,,,,,,,,,,,,,,,,,,,,sub-055,1.0,random_dot,59.97184921605492,
right,right,accuracy,,,,,0.0,0.0,0.0,0.0,5.0,0.0,10.0,1.0,370.1076608999865,,,,,,,,,370.0938078000036,370.2083909999928,371.0086120000051,370.9928644000029,370.9928899999941,371.0086120000051,371.0086120000051,371.0086120000051,376.0064999999886,376.709331799997,right,1.0,35.69152840002789,,,,,,,,,,,,,,,,,,,,,,,,,,,,,,sub-055,1.0,random_dot,59.97184921605492,
left,left,accuracy,,,,,0.0,0.0,0.0,0.0,5.0,1.0,11.0,0.0,376.7242917999975,,,,,,,,,376.7124398000015,377.0734003999969,377.8740121999872,377.8574798000045,377.8575259000063,377.8740121999872,377.8740121999872,377.8740121999872,382.8563758000091,383.75776420001057,left,1.0,35.86427029999322,,,,,,,,,,,,,,,,,,,,,,,,,,,,,,sub-055,1.0,random_dot,59.97184921605492,
left,left,accuracy,,,,,0.0,0.0,0.0,0.0,6.0,0.0,12.0,0.0,383.7731370000111,,,,,,,,,383.7602507999982,384.9729294999852,385.77263349998975,385.7573715999897,385.7574026999937,385.77263349998975,385.77263349998975,385.77263349998975,390.756160799996,391.7404712999996,right,0.0,35.962494400009746,,,,,,,,,,,,,,,,,,,,,,,,,,,,,,sub-055,1.0,random_dot,59.97184921605492,
right,right,accuracy,,,,,0.0,0.0,0.0,0.0,6.0,1.0,13.0,1.0,391.7552435999969,,,,,,,,,391.7425045999989,392.9549716000038,393.75500340000144,393.7389659000037,393.7389884000004,393.75500340000144,393.75500340000144,393.75500340000144,398.7541224999877,399.455773499998,right,1.0,35.680200700007845,,,,,,,,,,,,,,,,,,,,,,,,,,,,,,sub-055,1.0,random_dot,59.97184921605492,
left,left,accuracy,,,,,0.0,0.0,0.0,0.0,7.0,0.0,14.0,0.0,399.4707090999873,,,,,,,,,399.4584937999898,400.270296200004,401.0704601999896,401.0550947999873,401.0551291999873,401.0704601999896,401.0704601999896,401.0704601999896,406.0701438999968,407.1719786000031,right,0.0,36.08467829998699,,,,,,,,,,,,,,,,,,,,,,,,,,,,,,sub-055,1.0,random_dot,59.97184921605492,
right,right,accuracy,,,,,0.0,0.0,0.0,0.0,7.0,1.0,15.0,1.0,407.1869490999961,,,,,,,,,407.17440940000233,407.98632900000666,408.7860356000019,408.7701906999864,408.7702124000061,408.7860356000019,408.7860356000019,408.7860356000019,413.7855972999823,415.3538714000024,left,0.0,36.5626881000353,,,,,,,,,,,,,,,,,,,,,,,,,,,,,,sub-055,1.0,random_dot,59.97184921605492,
left,left,accuracy,,,,,0.0,0.0,0.0,0.0,8.0,0.0,16.0,0.0,415.3688724999956,,,,,,,,,415.35536230000434,415.71874959999695,416.5184132999857,416.50264379999135,416.5026669999934,416.5184132999857,416.5184132999857,416.5184132999857,421.51808119998896,422.5532455999928,right,0.0,36.02868590003345,,,,,,,,,,,,,,,,,,,,,,,,,,,,,,sub-055,1.0,random_dot,59.97184921605492,
right,right,accuracy,,,,,0.0,0.0,0.0,0.0,8.0,1.0,17.0,1.0,422.567361399997,,,,,,,,,422.554581400007,423.76776200000313,424.5676533000078,424.5518699999957,424.5518999999913,424.5676533000078,424.5676533000078,424.5676533000078,429.5668141999922,430.5184035999992,right,1.0,35.92963300002157,,,,,,,,,,,,,,,,,,,,,,,,,,,,,,sub-055,1.0,random_dot,59.97184921605492,
left,left,accuracy,,,,,0.0,0.0,0.0,0.0,9.0,0.0,18.0,0.0,430.5335635000083,,,,,,,,,430.5206415999856,431.3337186999852,432.13269830000354,432.1171272000065,432.1171608000004,432.13269830000354,432.13269830000354,432.13269830000354,437.13258549998864,437.9170477000007,left,1.0,35.76668240001891,,,,,,,,,,,,,,,,,,,,,,,,,,,,,,sub-055,1.0,random_dot,59.97184921605492,
right,right,accuracy,,,,,0.0,0.0,0.0,0.0,9.0,1.0,19.0,1.0,437.9326796999958,,,,,,,,,437.9186641999986,438.7327909999876,439.5325615000038,439.5168246999965,439.5168572000112,439.5325615000038,439.5325615000038,439.5325615000038,444.5318416999944,445.2833837000071,left,0.0,35.73607169999741,,,,,,,,,,,,,,,,,,,,,,,,,,,,,,sub-055,1.0,random_dot,59.97184921605492,
left,left,accuracy,,,,,0.0,0.0,0.0,0.0,10.0,0.0,20.0,0.0,445.2984057999856,,,,,,,,,445.2857469999872,445.648122899991,446.4479983999918,446.432830100006,446.4328665999929,446.4479983999918,446.4479983999918,446.4479983999918,451.4474238999828,452.2823777000012,left,1.0,35.82739320001565,,,,,,,,,,,,,,,,,,,,,,,,,,,,,,sub-055,1.0,random_dot,59.97184921605492,
right,right,accuracy,,,,,0.0,0.0,0.0,0.0,10.0,1.0,21.0,1.0,452.2975352999929,,,,,,,,,452.2847727999906,453.4970500000054,454.2969617999916,454.28148999999394,454.281523099984,454.2969617999916,454.2969617999916,454.2969617999916,459.2967819999904,460.33310560000245,right,1.0,36.02433540002676,,,,,,,,,,,,,,,,,,,,,,,,,,,,,,sub-055,1.0,random_dot,59.97184921605492,
left,left,accuracy,,,,,0.0,0.0,0.0,0.0,11.0,0.0,22.0,0.0,460.3465605000092,,,,,,,,,460.3359775999852,460.6962996000075,461.4960812999925,461.4802304999903,461.4802544999984,461.4960812999925,461.4960812999925,461.4960812999925,466.4956416999921,467.2306790000002,left,1.0,35.71813049999764,,,,,,,,,,,,,,,,,,,,,,,,,,,,,,sub-055,1.0,random_dot,59.97184921605492,
right,right,accuracy,,,,,0.0,0.0,0.0,0.0,11.0,1.0,23.0,1.0,467.2455307999917,,,,,,,,,467.2332207,468.4452178000065,469.2451211999869,469.22929349998594,469.22933070000727,469.2451211999869,469.2451211999869,469.2451211999869,474.2440125999856,474.94610380000086,right,1.0,35.69539850001456,,,,,,,,,,,,,,,,,,,,,,,,,,,,,,sub-055,1.0,random_dot,59.97184921605492,
left,left,accuracy,,,,,0.0,0.0,0.0,0.0,12.0,0.0,24.0,0.0,474.9610488000035,,,,,,,,,474.9482399999979,475.0610928999959,475.8610666999885,475.84517829999095,475.8452111000079,475.8610666999885,475.8610666999885,475.8610666999885,480.8602748999838,481.6947919999948,left,1.0,35.815763100021286,,,,,,,,,,,,,,,,,,,,,,,,,,,,,,sub-055,1.0,random_dot,59.97184921605492,
right,right,accuracy,,,,,0.0,0.0,0.0,0.0,12.0,1.0,25.0,1.0,481.7100463999959,,,,,,,,,481.6968229000049,482.91065569999046,483.7099265999859,483.694216200005,483.6942501000012,483.7099265999859,483.7099265999859,483.7099265999859,488.7094025999832,489.61052459999337,left,0.0,35.88170210001408,,,,,,,,,,,,,,,,,,,,,,,,,,,,,,sub-055,1.0,random_dot,59.97184921605492,
left,left,accuracy,,,,,0.0,0.0,0.0,0.0,13.0,0.0,26.0,0.0,489.62543939999887,,,,,,,,,489.6128253999923,490.425594100001,491.2257041999837,491.20990059999167,491.2099384999892,491.2257041999837,491.2257041999837,491.2257041999837,496.2248976999836,497.06037960000685,left,1.0,35.81291920001968,,,,,,,,,,,,,,,,,,,,,,,,,,,,,,sub-055,1.0,random_dot,59.97184921605492,
right,right,accuracy,,,,,0.0,0.0,0.0,0.0,13.0,1.0,27.0,1.0,497.0754543000076,,,,,,,,,497.0628272999893,498.2752676999953,499.0746483999828,499.0588250999863,499.058859199984,499.0746483999828,499.0746483999828,499.0746483999828,504.0742464000068,504.7753167999908,right,1.0,35.67958470000303,,,,,,,,,,,,,,,,,,,,,,,,,,,,,,sub-055,1.0,random_dot,59.97184921605492,
left,left,accuracy,,,,,0.0,0.0,0.0,0.0,14.0,0.0,28.0,0.0,504.79025429999456,,,,,,,,,504.7771701999882,505.1405173999956,505.940370700002,505.9246039999998,505.9246359000099,505.940370700002,505.940370700002,505.940370700002,510.93946649998543,511.62459699998726,left,1.0,35.67038600001251,,,,,,,,,,,,,,,,,,,,,,,,,,,,,,sub-055,1.0,random_dot,59.97184921605492,
right,right,accuracy,,,,,0.0,0.0,0.0,0.0,14.0,1.0,29.0,1.0,511.6399966999888,,,,,,,,,511.6268561999896,512.43995,513.2393070999824,513.2239259000053,513.2239576999855,513.2393070999824,513.2393070999824,513.2393070999824,518.2385059999942,518.8735850999947,right,1.0,35.6199626000016,,,,,,,,,,,,,,,,,,,,,,,,,,,,,,sub-055,1.0,random_dot,59.97184921605492,
left,left,accuracy,,,,,0.0,0.0,0.0,0.0,15.0,0.0,30.0,0.0,518.8885327999888,,,,,,,,,518.8752882999834,520.0883474999864,520.8884375999914,520.8727135999943,520.8727918000077,520.8884375999914,520.8884375999914,520.8884375999914,525.8876433999976,526.6559531000094,left,1.0,35.753031900007045,,,,,,,,,,,,,,,,,,,,,,,,,,,,,,sub-055,1.0,random_dot,59.97184921605492,
right,right,accuracy,,,,,0.0,0.0,0.0,0.0,15.0,1.0,31.0,1.0,526.6709822999837,,,,,,,,,526.6579632000066,527.4708871000039,528.2707158999983,528.255018900003,528.2550508999848,528.2707158999983,528.2707158999983,528.2707158999983,533.2698894999921,533.9052566000028,right,1.0,35.6272354000248,,,,,,,,,,,,,,,,,,,,,,,,,,,,,,sub-055,1.0,random_dot,59.97184921605492,
left,left,accuracy,,,,,0.0,0.0,0.0,0.0,16.0,0.0,32.0,0.0,533.9203381999978,,,,,,,,,533.9075416999985,534.7199660000042,535.5198699999892,535.5043292999908,535.5043638999923,535.5198699999892,535.5198699999892,535.5198699999892,540.519048599992,541.3206025999971,left,1.0,35.779606299998704,,,,,,,,,,,,,,,,,,,,,,,,,,,,,,sub-055,1.0,random_dot,59.97184921605492,
right,right,accuracy,,,,,0.0,0.0,0.0,0.0,16.0,1.0,33.0,1.0,541.3359588999883,,,,,,,,,541.3233821000031,542.1357005999889,542.9353603000054,542.9197223999945,542.9197467000049,542.9353603000054,542.9353603000054,542.9353603000054,547.9346592999937,548.6526929000102,right,1.0,35.70153270001174,,,,,,,,,,,,,,,,,,,,,,,,,,,,,,sub-055,1.0,random_dot,59.97184921605492,
left,left,accuracy,,,,,0.0,0.0,0.0,0.0,17.0,0.0,34.0,0.0,548.6679728000017,,,,,,,,,548.6549090000044,549.4680530999904,550.2686606000061,550.25277739999,550.2528248000017,550.2686606000061,550.2686606000061,550.2686606000061,555.2672620000085,556.1345816999965,left,1.0,35.85142570003518,,,,,,,,,,,,,,,,,,,,,,,,,,,,,,sub-055,1.0,random_dot,59.97184921605492,
right,right,accuracy,,,,,0.0,0.0,0.0,0.0,17.0,1.0,35.0,1.0,556.1503537000099,,,,,,,,,556.1359659000009,556.9503522999876,557.7503419999848,557.7345554000058,557.734589300002,557.7503419999848,557.7503419999848,557.7503419999848,562.7496500999841,563.417867000011,right,1.0,35.64788289999706,,,,,,,,,,,,,,,,,,,,,,,,,,,,,,sub-055,1.0,random_dot,59.97184921605492,
right,right,accuracy,,,,,0.0,0.0,0.0,0.0,18.0,0.0,36.0,1.0,563.4329324999999,,,,,,,,,563.4201525000099,564.2329353000096,565.0326152000052,565.0170447999844,565.0170759999892,565.0326152000052,565.0326152000052,565.0326152000052,570.0323255000112,570.6173079999862,right,1.0,35.579295000003185,,,,,,,,,,,,,,,,,,,,,,,,,,,,,,sub-055,1.0,random_dot,59.97184921605492,
left,left,accuracy,,,,,0.0,0.0,0.0,0.0,18.0,1.0,37.0,0.0,570.6336987999966,,,,,,,,,570.6194243000064,570.981956100004,571.7816954999871,571.7660334999964,571.7660672999918,571.7816954999871,571.7816954999871,571.7816954999871,576.7810590000008,577.3324806999881,left,1.0,35.53133940001135,,,,,,,,,,,,,,,,,,,,,,,,,,,,,,sub-055,1.0,random_dot,59.97184921605492,
left,left,accuracy,,,,,0.0,0.0,0.0,0.0,19.0,0.0,38.0,0.0,577.347377099999,,,,,,,,,577.3349129999988,577.6976002999872,578.4976929000113,578.4818450000021,578.4818766000099,578.4976929000113,578.4976929000113,578.4976929000113,,581.6508132999879,left,1.0,33.145774500007974,,,,,,,,,,,,,,,,,,,,,,,,,,,,,,sub-055,1.0,random_dot,59.97184921605492,
right,right,accuracy,,,,,0.0,0.0,0.0,0.0,19.0,1.0,39.0,1.0,581.6642523999908,,,,,,,,,581.6531445999863,582.4638850000047,583.2639387999952,583.2479751000064,583.2480057000066,583.2639387999952,583.2639387999952,583.2639387999952,588.2632342999859,588.8650910999859,right,1.0,35.58317470000475,,,,,,,,,,,,,,,,,,,,,,,,,,,,,,sub-055,1.0,random_dot,59.97184921605492,
right,right,accuracy,,,,,0.0,0.0,0.0,0.0,20.0,0.0,40.0,1.0,588.8795817999926,,,,,,,,,588.8677820999874,590.0790374999924,590.8796896999993,590.8645103999879,590.864548099984,590.8796896999993,590.8796896999993,590.8796896999993,595.879162600002,596.3129437000025,right,1.0,35.4185870999936,,,,,,,,,,,,,,,,,,,,,,,,,,,,,,sub-055,1.0,random_dot,59.97184921605492,
left,left,accuracy,,,,,0.0,0.0,0.0,0.0,20.0,1.0,41.0,0.0,596.3284970000095,,,,,,,,,596.314357700001,597.1286877999955,597.9283450999937,597.9124427000061,597.9124638999929,597.9283450999937,597.9283450999937,597.9283450999937,,599.080014200008,left,1.0,31.139937700034352,,,,,,,,,,,,,,,,,,,,,,,,,,,,,,sub-055,1.0,random_dot,59.97184921605492,
right,right,accuracy,,,,,0.0,0.0,0.0,0.0,21.0,0.0,42.0,1.0,599.0947375000105,,,,,,,,,599.0820066999877,600.2949245999916,601.0946040999843,601.0785794999974,601.0786128999898,601.0946040999843,601.0946040999843,601.0946040999843,,603.9963239000062,right,1.0,32.89600490001612,,,,,,,,,,,,,,,,,,,,,,,,,,,,,,sub-055,1.0,random_dot,59.97184921605492,
left,left,accuracy,,,,,0.0,0.0,0.0,0.0,21.0,1.0,43.0,0.0,604.0111552999879,,,,,,,,,603.9977467999852,604.8109517999983,605.6108206000063,605.5948355,605.5948706000054,605.6108206000063,605.6108206000063,605.6108206000063,610.6099855999928,610.7114044000045,left,1.0,35.08839990000706,,,,,,,,,,,,,,,,,,,,,,,,,,,,,,sub-055,1.0,random_dot,59.97184921605492,
left,left,accuracy,,,,,0.0,0.0,0.0,0.0,22.0,0.0,44.0,0.0,610.7263440999959,,,,,,,,,610.7135266000114,611.0769435999973,611.8764442999964,611.8606965999934,611.8607484000095,611.8764442999964,611.8764442999964,611.8764442999964,,613.7779995999881,left,1.0,31.886980500014037,,,,,,,,,,,,,,,,,,,,,,,,,,,,,,sub-055,1.0,random_dot,59.97184921605492,
right,right,accuracy,,,,,0.0,0.0,0.0,0.0,22.0,1.0,45.0,1.0,613.793128099991,,,,,,,,,613.7803573999845,614.1430251999991,614.9427435999969,614.9270535999967,614.9270836999931,614.9427435999969,614.9427435999969,614.9427435999969,,619.2600732999854,right,1.0,34.29792090001865,,,,,,,,,,,,,,,,,,,,,,,,,,,,,,sub-055,1.0,random_dot,59.97184921605492,
left,left,accuracy,,,,,0.0,0.0,0.0,0.0,23.0,0.0,46.0,0.0,619.2755843999912,,,,,,,,,619.262436399993,620.0754250999889,620.8759336000076,620.8601054000028,620.8601411999844,620.8759336000076,620.8759336000076,620.8759336000076,,622.8932612999924,left,1.0,32.00879150000401,,,,,,,,,,,,,,,,,,,,,,,,,,,,,,sub-055,1.0,random_dot,59.97184921605492,
right,right,accuracy,,,,,0.0,0.0,0.0,0.0,23.0,1.0,47.0,1.0,622.9085750000086,,,,,,,,,622.8950432999991,623.0083448000078,623.808491600008,623.79242350001,623.7924462000083,623.808491600008,623.808491600008,623.808491600008,,627.7592754999932,right,1.0,33.93751330001396,,,,,,,,,,,,,,,,,,,,,,,,,,,,,,sub-055,1.0,random_dot,59.97184921605492,
left,left,accuracy,,,,,0.0,0.0,0.0,0.0,24.0,0.0,48.0,0.0,627.7751341999974,,,,,,,,,627.760933099984,628.5748405999911,629.3742431999999,629.3583675999835,629.358398899989,629.3742431999999,629.3742431999999,629.3742431999999,,632.0919066999923,left,1.0,32.70309220001218,,,,,,,,,,,,,,,,,,,,,,,,,,,,,,sub-055,1.0,random_dot,59.97184921605492,
right,right,accuracy,,,,,0.0,0.0,0.0,0.0,24.0,1.0,49.0,1.0,632.107370999991,,,,,,,,,632.0942127000017,632.4571060999879,633.2577184999827,633.2418288000044,633.2418610999885,633.2577184999827,633.2577184999827,633.2577184999827,,634.7975307999877,right,1.0,31.522035400004825,,,,,,,,,,,,,,,,,,,,,,,,,,,,,,sub-055,1.0,random_dot,59.97184921605492,
left,left,accuracy,,,,,0.0,0.0,0.0,0.0,25.0,0.0,50.0,0.0,634.808323300007,,,,,,,,,634.7998062999977,635.606945699983,636.406765599997,636.3910712999932,636.3911050999886,636.406765599997,636.406765599997,636.406765599997,,639.0740007999993,left,1.0,32.64749090000987,,,,,,,,,,,,,,,,,,,,,,,,,,,,,,sub-055,1.0,random_dot,59.97184921605492,
right,right,accuracy,,,,,0.0,0.0,0.0,0.0,25.0,1.0,51.0,1.0,639.0895340999996,,,,,,,,,639.076150000008,639.8896354000026,640.6895896999922,640.673549900006,640.673604599986,640.6895896999922,640.6895896999922,640.6895896999922,645.6723846000095,646.0569816000061,left,0.0,35.35860040000989,,,,,,,,,,,,,,,,,,,,,,,,,,,,,,sub-055,1.0,random_dot,59.97184921605492,
left,left,accuracy,,,,,0.0,0.0,0.0,0.0,26.0,0.0,52.0,0.0,646.0721522000094,,,,,,,,,646.0594014000089,646.1722200000077,646.971996999986,646.9562877999851,646.956319799996,646.971996999986,646.971996999986,646.971996999986,,648.1905104999896,left,1.0,31.21309030003613,,,,,,,,,,,,,,,,,,,,,,,,,,,,,,sub-055,1.0,random_dot,59.97184921605492,
right,right,accuracy,,,,,0.0,0.0,0.0,0.0,26.0,1.0,53.0,1.0,648.205312200007,,,,,,,,,648.1927536999865,649.4050353000057,650.204934999987,650.1890509999939,650.1890824000002,650.204934999987,650.204934999987,650.204934999987,,651.7396981999918,right,1.0,31.520426500035683,,,,,,,,,,,,,,,,,,,,,,,,,,,,,,sub-055,1.0,random_dot,59.97184921605492,
left,left,accuracy,,,,,0.0,0.0,0.0,0.0,27.0,0.0,54.0,0.0,651.7546838999842,,,,,,,,,651.7418710000056,652.9544165999978,653.7544328999938,653.738442700007,653.7384738999826,653.7544328999938,653.7544328999938,653.7544328999938,,654.9388879000035,left,1.0,31.16626910000923,,,,,,,,,,,,,,,,,,,,,,,,,,,,,,sub-055,1.0,random_dot,59.97184921605492,
right,right,accuracy,,,,,0.0,0.0,0.0,0.0,27.0,1.0,55.0,1.0,654.9543184000067,,,,,,,,,654.9410075999913,655.054147399991,655.8540370999835,655.8384472999896,655.8384794000012,655.8540370999835,655.8540370999835,655.8540370999835,,658.0881493999914,right,1.0,32.223231000010855,,,,,,,,,,,,,,,,,,,,,,,,,,,,,,sub-055,1.0,random_dot,59.97184921605492,
left,left,accuracy,,,,,0.0,0.0,0.0,0.0,28.0,0.0,56.0,0.0,658.103735599987,,,,,,,,,658.0893894000037,658.9039016999886,659.7041201000102,659.6883293999999,659.6883666999929,659.7041201000102,659.7041201000102,659.7041201000102,,663.4050163000065,left,1.0,33.69330520002404,,,,,,,,,,,,,,,,,,,,,,,,,,,,,,sub-055,1.0,random_dot,59.97184921605492,
right,right,accuracy,,,,,0.0,0.0,0.0,0.0,28.0,1.0,57.0,1.0,663.4200218000042,,,,,,,,,663.4073540999962,664.2198609999905,665.0196175999881,665.0037395000109,665.0037695000065,665.0196175999881,665.0196175999881,665.0196175999881,670.0190527999948,670.7870096999977,right,1.0,35.75143640002352,,,,,,,,,,,,,,,,,,,,,,,,,,,,,,sub-055,1.0,random_dot,59.97184921605492,
left,left,accuracy,,,,,0.0,0.0,0.0,0.0,29.0,0.0,58.0,0.0,670.8022172999918,,,,,,,,,670.7892379999976,670.9018973000057,671.7023014999868,671.6863695000065,671.6864021999936,671.7023014999868,671.7023014999868,671.7023014999868,,673.2538216999965,left,1.0,31.545825400040485,,,,,,,,,,,,,,,,,,,,,,,,,,,,,,sub-055,1.0,random_dot,59.97184921605492,
right,right,accuracy,,,,,0.0,0.0,0.0,0.0,29.0,1.0,59.0,1.0,673.2686932999932,,,,,,,,,673.2552396999963,673.6186062000052,674.4185705999844,674.4028719000053,674.4029923999915,674.4185705999844,674.4185705999844,674.4185705999844,,677.3530010000104,left,0.0,32.92235790000996,,,,,,,,,,,,,,,,,,,,,,,,,,,,,,sub-055,1.0,random_dot,59.97184921605492,
,,accuracy,,,,,0.0,0.0,0.0,0.0,,,,,,,,,,,,,,,,,,,,,,,,,,,,,,,,,,,,,,,,,,,,,,,,,,,,,,,,sub-055,1.0,random_dot,59.97184921605492,
left,left,speed,,,,,0.0,1.0,1.0,1.0,0.0,0.0,0.0,0.0,682.2685746999923,,,,,,,,,682.2617589999863,683.4507110999839,684.2507089999854,684.2348843000073,684.2349191000103,684.2507089999854,684.2507089999854,684.2507089999854,,684.9185819999839,left,1.0,30.65486310000415,,,,,,,,,,,,,,,,,,,,677.3553774000029,677.3809453999856,677.3809453999856,682.2439526999951,space,34.84835580002982,,,,,sub-055,1.0,random_dot,59.97184921605492,
right,right,speed,,,,,0.0,1.0,1.0,1.0,0.0,1.0,1.0,1.0,684.9340286999941,,,,,,,,,684.9208993999928,685.0338001000055,685.8337969999993,685.8177024000033,685.8177414000093,685.8337969999993,685.8337969999993,685.8337969999993,,686.4183690999926,left,0.0,30.565766100015026,,,,,,,,,,,,,,,,,,,,,,,,,,,,,,sub-055,1.0,random_dot,59.97184921605492,
left,left,speed,,,,,0.0,1.0,1.0,1.0,1.0,0.0,2.0,0.0,686.4335509999946,,,,,,,,,686.4206746999989,686.7834490000096,687.5833902999875,687.5676240999892,687.5676554999955,687.5833902999875,687.5833902999875,687.5833902999875,,688.0852206999843,left,1.0,30.488138900022022,,,,,,,,,,,,,,,,,,,,,,,,,,,,,,sub-055,1.0,random_dot,59.97184921605492,
right,right,speed,,,,,0.0,1.0,1.0,1.0,1.0,1.0,3.0,1.0,688.1000365999935,,,,,,,,,688.0876072999963,689.3002762999968,690.0997910999868,690.0838578999974,690.0838903999829,690.0997910999868,690.0997910999868,690.0997910999868,,691.4012454999902,left,0.0,31.289394900028128,,,,,,,,,,,,,,,,,,,,,,,,,,,,,,sub-055,1.0,random_dot,59.97184921605492,
right,right,speed,,,,,0.0,1.0,1.0,1.0,2.0,0.0,4.0,1.0,691.4166182999907,,,,,,,,,691.4038045000052,692.6162910999847,693.4160750999872,693.4001556999865,693.4001886000042,693.4160750999872,693.4160750999872,693.4160750999872,,694.8971975999884,left,0.0,31.455023300019093,,,,,,,,,,,,,,,,,,,,,,,,,,,,,,sub-055,1.0,random_dot,59.97184921605492,
left,left,speed,,,,,0.0,1.0,1.0,1.0,2.0,1.0,5.0,0.0,694.9060493999859,,,,,,,,,694.8995476999844,695.6993438999925,696.4988235000055,696.4832972000004,696.4833293999836,696.4988235000055,696.4988235000055,696.4988235000055,,698.0526031999907,left,1.0,31.53563880000729,,,,,,,,,,,,,,,,,,,,,,,,,,,,,,sub-055,1.0,random_dot,59.97184921605492,
right,right,speed,,,,,0.0,1.0,1.0,1.0,3.0,0.0,6.0,1.0,698.0658977999992,,,,,,,,,698.0553472999891,698.4153937000083,699.2154276999936,699.1995740999992,699.1996093000052,699.2154276999936,699.2154276999936,699.2154276999936,,700.9676179999951,left,0.0,31.74639240000397,,,,,,,,,,,,,,,,,,,,,,,,,,,,,,sub-055,1.0,random_dot,59.97184921605492,
left,left,speed,,,,,0.0,1.0,1.0,1.0,3.0,1.0,7.0,0.0,700.982053899992,,,,,,,,,700.9700710999896,701.0817305000091,701.8817960000015,701.8659331999952,701.8659671999922,701.8817960000015,701.8817960000015,701.8817960000015,,704.2827066000027,left,1.0,32.38649490001262,,,,,,,,,,,,,,,,,,,,,,,,,,,,,,sub-055,1.0,random_dot,59.97184921605492,
right,right,speed,,,,,0.0,1.0,1.0,1.0,4.0,0.0,8.0,1.0,704.2978626999829,,,,,,,,,704.2847660999978,705.4976882000046,706.2977089000051,706.2820385000086,706.2820740999887,706.2977089000051,706.2977089000051,706.2977089000051,,708.9306675999833,left,0.0,32.606686999992235,,,,,,,,,,,,,,,,,,,,,,,,,,,,,,sub-055,1.0,random_dot,59.97184921605492,
left,left,speed,,,,,0.0,1.0,1.0,1.0,4.0,1.0,9.0,0.0,708.9394615000056,,,,,,,,,708.9330789000087,709.0471185999922,709.8470960999839,709.8314372999885,709.8314802999957,709.8470960999839,709.8470960999839,709.8470960999839,,712.8768811000045,left,1.0,32.983750300016254,,,,,,,,,,,,,,,,,,,,,,,,,,,,,,sub-055,1.0,random_dot,59.97184921605492,
right,right,speed,,,,,0.0,1.0,1.0,1.0,5.0,0.0,10.0,1.0,712.885549700004,,,,,,,,,712.8791101000097,713.2300264000078,714.0302402999951,714.0145046999969,714.0145397000015,714.0302402999951,714.0302402999951,714.0302402999951,719.0294613000005,719.647223500011,left,0.0,35.59834710002178,,,,,,,,,,,,,,,,,,,,,,,,,,,,,,sub-055,1.0,random_dot,59.97184921605492,
left,left,speed,,,,,0.0,1.0,1.0,1.0,5.0,1.0,11.0,0.0,719.6625112000038,,,,,,,,,719.6493406000081,720.4624153999903,721.2624084999843,721.2465877000068,721.2466175000009,721.2624084999843,721.2624084999843,721.2624084999843,,724.3366144000029,left,1.0,33.05780610002694,,,,,,,,,,,,,,,,,,,,,,,,,,,,,,sub-055,1.0,random_dot,59.97184921605492,
right,right,speed,,,,,0.0,1.0,1.0,1.0,6.0,0.0,12.0,1.0,724.3469438999891,,,,,,,,,724.3387826999824,725.1452217999904,725.945057999983,725.9290753999958,725.9291085999866,725.945057999983,725.945057999983,725.945057999983,,730.8125316000078,left,0.0,34.84870620002039,,,,,,,,,,,,,,,,,,,,,,,,,,,,,,sub-055,1.0,random_dot,59.97184921605492,
left,left,speed,,,,,0.0,1.0,1.0,1.0,6.0,1.0,13.0,0.0,730.8279203999846,,,,,,,,,730.8147681999835,731.6277100000007,732.4275067999843,732.4116491999885,732.4116810999985,732.4275067999843,732.4275067999843,732.4275067999843,737.4268238999939,737.9449180999945,left,1.0,35.50611459999345,,,,,,,,,,,,,,,,,,,,,,,,,,,,,,sub-055,1.0,random_dot,59.97184921605492,
right,right,speed,,,,,0.0,1.0,1.0,1.0,7.0,0.0,14.0,1.0,737.9600759999885,,,,,,,,,737.9471558000077,738.7600231000106,739.559929399984,739.5442932999867,739.54432429999,739.559929399984,739.559929399984,739.559929399984,,744.0440022000112,left,0.0,34.47077139999601,,,,,,,,,,,,,,,,,,,,,,,,,,,,,,sub-055,1.0,random_dot,59.97184921605492,
left,left,speed,,,,,0.0,1.0,1.0,1.0,7.0,1.0,15.0,0.0,744.0591462999873,,,,,,,,,744.0460120000062,744.1592483999848,744.95940230001,744.9435349999985,744.9435666000063,744.95940230001,744.95940230001,744.95940230001,749.9587127999985,750.3766071999853,right,0.0,35.397067200014135,,,,,,,,,,,,,,,,,,,,,,,,,,,,,,sub-055,1.0,random_dot,59.97184921605492,
right,right,speed,,,,,0.0,1.0,1.0,1.0,8.0,0.0,16.0,1.0,750.3917803000077,,,,,,,,,750.3786910999916,751.1919279999856,751.9915311000077,751.9758663999964,751.9758978000027,751.9915311000077,751.9915311000077,751.9915311000077,,756.2439621000085,right,1.0,34.24519479999435,,,,,,,,,,,,,,,,,,,,,,,,,,,,,,sub-055,1.0,random_dot,59.97184921605492,
left,left,speed,,,,,0.0,1.0,1.0,1.0,8.0,1.0,17.0,0.0,756.2578903000103,,,,,,,,,756.2461899000045,757.0577107999998,757.857591899985,757.8422256000049,757.8422614999872,757.857591899985,757.857591899985,757.857591899985,,760.6259704999975,left,1.0,32.7626123999944,,,,,,,,,,,,,,,,,,,,,,,,,,,,,,sub-055,1.0,random_dot,59.97184921605492,
right,right,speed,,,,,0.0,1.0,1.0,1.0,9.0,0.0,18.0,1.0,760.6405152000079,,,,,,,,,760.6281227,761.8405864000088,762.6407586999994,762.624677499989,762.6247119999898,762.6407586999994,762.6407586999994,762.6407586999994,,765.4797286000103,right,1.0,32.82929319998948,,,,,,,,,,,,,,,,,,,,,,,,,,,,,,sub-055,1.0,random_dot,59.97184921605492,
left,left,speed,,,,,0.0,1.0,1.0,1.0,9.0,1.0,19.0,0.0,765.4910640000016,,,,,,,,,765.4820609999879,765.8401137999899,766.6405562,766.6242772999976,766.6243137999845,766.6405562,766.6405562,766.6405562,,768.3747227999847,left,1.0,31.721928600018146,,,,,,,,,,,,,,,,,,,,,,,,,,,,,,sub-055,1.0,random_dot,59.97184921605492,
right,right,speed,,,,,0.0,1.0,1.0,1.0,10.0,0.0,20.0,1.0,768.3898763000034,,,,,,,,,768.3769888000097,768.7395833999908,769.5400168999913,769.5236317999952,769.5236644000106,769.5400168999913,769.5400168999913,769.5400168999913,,770.6416050999833,left,0.0,31.08436380000785,,,,,,,,,,,,,,,,,,,,,,,,,,,,,,sub-055,1.0,random_dot,59.97184921605492,
left,left,speed,,,,,0.0,1.0,1.0,1.0,10.0,1.0,21.0,0.0,770.6565358999942,,,,,,,,,770.6439873999916,771.0064692999877,771.8058911999979,771.7900235999841,771.7900552999927,771.8058911999979,771.8058911999979,771.8058911999979,,774.1754463000107,left,1.0,32.36202400003094,,,,,,,,,,,,,,,,,,,,,,,,,,,,,,sub-055,1.0,random_dot,59.97184921605492,
left,left,speed,,,,,0.0,1.0,1.0,1.0,11.0,0.0,22.0,0.0,774.1889330999984,,,,,,,,,774.1777514999849,775.3886232000077,776.1886081999983,776.1729151000036,776.1729468999838,776.1886081999983,776.1886081999983,776.1886081999983,,778.7300391999888,left,1.0,32.516055100015365,,,,,,,,,,,,,,,,,,,,,,,,,,,,,,sub-055,1.0,random_dot,59.97184921605492,
right,right,speed,,,,,0.0,1.0,1.0,1.0,11.0,1.0,23.0,1.0,778.7403855999873,,,,,,,,,778.7322139999887,779.9383940999978,780.7382732999977,780.7227442000003,780.7227802999842,780.7382732999977,780.7382732999977,780.7382732999977,,783.9390683000092,right,1.0,33.1824225000164,,,,,,,,,,,,,,,,,,,,,,,,,,,,,,sub-055,1.0,random_dot,59.97184921605492,
right,right,speed,,,,,0.0,1.0,1.0,1.0,12.0,0.0,24.0,1.0,783.954054700007,,,,,,,,,783.9412168999843,784.3041663999902,785.1040147999884,785.0882071999949,785.0882388000027,785.1040147999884,785.1040147999884,785.1040147999884,,786.7553354999982,right,1.0,31.64011189999292,,,,,,,,,,,,,,,,,,,,,,,,,,,,,,sub-055,1.0,random_dot,59.97184921605492,
left,left,speed,,,,,0.0,1.0,1.0,1.0,12.0,1.0,25.0,0.0,786.7705532999826,,,,,,,,,786.7575802000065,787.1203087999893,787.9203973999829,787.9047495999839,787.9047862000007,787.9203973999829,787.9203973999829,787.9203973999829,,790.2432359000086,right,0.0,32.29662190002273,,,,,,,,,,,,,,,,,,,,,,,,,,,,,,sub-055,1.0,random_dot,59.97184921605492,
left,left,speed,,,,,0.0,1.0,1.0,1.0,13.0,0.0,26.0,0.0,790.2542874999926,,,,,,,,,790.2454098000017,790.3531928999873,791.1533068999997,791.1374016999907,791.137433099997,791.1533068999997,791.1533068999997,791.1533068999997,,793.6895343000069,right,0.0,32.529199300013715,,,,,,,,,,,,,,,,,,,,,,,,,,,,,,sub-055,1.0,random_dot,59.97184921605492,
right,right,speed,,,,,0.0,1.0,1.0,1.0,13.0,1.0,27.0,1.0,793.7029639999964,,,,,,,,,793.6917821000097,793.802957500011,794.6028078999952,794.5868982000102,794.5869299999904,794.6028078999952,794.6028078999952,794.6028078999952,799.6022284000064,799.6368775999872,right,1.0,35.017032100004144,,,,,,,,,,,,,,,,,,,,,,,,,,,,,,sub-055,1.0,random_dot,59.97184921605492,
right,right,speed,,,,,0.0,1.0,1.0,1.0,14.0,0.0,28.0,1.0,799.6521930999879,,,,,,,,,799.6389545999991,800.8519566000032,801.652319899993,801.6360043000022,801.6360404999868,801.652319899993,801.652319899993,801.652319899993,,804.9234080000024,right,1.0,33.26260450002155,,,,,,,,,,,,,,,,,,,,,,,,,,,,,,sub-055,1.0,random_dot,59.97184921605492,
left,left,speed,,,,,0.0,1.0,1.0,1.0,14.0,1.0,29.0,0.0,804.9355241000012,,,,,,,,,804.9256732999929,806.1346646999882,806.9345552999876,806.9188248999999,806.9188558000023,806.9345552999876,806.9345552999876,806.9345552999876,,808.6717655000102,left,1.0,31.72852180001792,,,,,,,,,,,,,,,,,,,,,,,,,,,,,,sub-055,1.0,random_dot,59.97184921605492,
left,left,speed,,,,,0.0,1.0,1.0,1.0,15.0,0.0,30.0,0.0,808.684459799988,,,,,,,,,808.6740698000067,809.8841991999943,810.6841888999916,810.6684431000031,810.6684798999922,810.6841888999916,810.6841888999916,810.6841888999916,,812.0020307000086,left,1.0,31.304167399997823,,,,,,,,,,,,,,,,,,,,,,,,,,,,,,sub-055,1.0,random_dot,59.97184921605492,
right,right,speed,,,,,0.0,1.0,1.0,1.0,15.0,1.0,31.0,1.0,812.0170861000079,,,,,,,,,812.0042497999966,812.117172600003,812.9170311999915,812.9013212999853,812.9013540000014,812.9170311999915,812.9170311999915,812.9170311999915,,814.6520683999988,right,1.0,31.72919210002874,,,,,,,,,,,,,,,,,,,,,,,,,,,,,,sub-055,1.0,random_dot,59.97184921605492,
right,right,speed,,,,,0.0,1.0,1.0,1.0,16.0,0.0,32.0,1.0,814.6667108999973,,,,,,,,,814.6542734999966,815.466763400007,816.2665591000114,816.2507913000009,816.2508260000031,816.2665591000114,816.2665591000114,816.2665591000114,,818.1180602000095,right,1.0,31.83704110002145,,,,,,,,,,,,,,,,,,,,,,,,,,,,,,sub-055,1.0,random_dot,59.97184921605492,
left,left,speed,,,,,0.0,1.0,1.0,1.0,16.0,1.0,33.0,0.0,818.1332320999936,,,,,,,,,818.1203231000109,819.3328858999885,820.1328055000049,820.1170300999947,820.1170632999856,820.1328055000049,820.1328055000049,820.1328055000049,825.1321879999887,825.7666975999891,left,1.0,35.61396119999699,,,,,,,,,,,,,,,,,,,,,,,,,,,,,,sub-055,1.0,random_dot,59.97184921605492,
right,right,speed,,,,,0.0,1.0,1.0,1.0,17.0,0.0,34.0,1.0,825.7821307999839,,,,,,,,,825.7688855000015,826.1321432999976,826.9319360000081,826.9159700000018,826.9160011000058,826.9319360000081,826.9319360000081,826.9319360000081,,831.8326556000102,right,1.0,34.88622270000633,,,,,,,,,,,,,,,,,,,,,,,,,,,,,,sub-055,1.0,random_dot,59.97184921605492,
left,left,speed,,,,,0.0,1.0,1.0,1.0,17.0,1.0,35.0,0.0,831.8480365999858,,,,,,,,,831.8348398999951,831.9478641999885,832.7478970999946,832.7319948000077,832.7320262999856,832.7478970999946,832.7478970999946,832.7478970999946,,835.5156575999863,right,0.0,32.7479421000171,,,,,,,,,,,,,,,,,,,,,,,,,,,,,,sub-055,1.0,random_dot,59.97184921605492,
left,left,speed,,,,,0.0,1.0,1.0,1.0,18.0,0.0,36.0,0.0,835.530973099987,,,,,,,,,835.5178477999871,835.8808391999919,836.6808174999896,836.664927100006,836.6649584999832,836.6808174999896,836.6808174999896,836.6808174999896,,839.3649930999964,left,1.0,32.67095560001326,,,,,,,,,,,,,,,,,,,,,,,,,,,,,,sub-055,1.0,random_dot,59.97184921605492,
right,right,speed,,,,,0.0,1.0,1.0,1.0,18.0,1.0,37.0,1.0,839.3803703000012,,,,,,,,,839.3671945999959,840.5802667000098,841.3801081999845,841.3643449000083,841.36437570001,841.3801081999845,841.3801081999845,841.3801081999845,,845.9807780999981,right,1.0,34.587907900015125,,,,,,,,,,,,,,,,,,,,,,,,,,,,,,sub-055,1.0,random_dot,59.97184921605492,
left,left,speed,,,,,0.0,1.0,1.0,1.0,19.0,0.0,38.0,0.0,845.9967177000071,,,,,,,,,845.983137800009,847.1960220999899,847.9959106000024,847.9800595999986,847.9800916000095,847.9959106000024,847.9959106000024,847.9959106000024,,851.2635334999941,left,1.0,33.25218170002336,,,,,,,,,,,,,,,,,,,,,,,,,,,,,,sub-055,1.0,random_dot,59.97184921605492,
right,right,speed,,,,,0.0,1.0,1.0,1.0,19.0,1.0,39.0,1.0,851.2787799999933,,,,,,,,,851.2657152999891,851.6287519999896,852.4285565000027,852.4128076999914,852.4128422999929,852.4285565000027,852.4285565000027,852.4285565000027,,856.8961099000007,right,1.0,34.4510715000215,,,,,,,,,,,,,,,,,,,,,,,,,,,,,,sub-055,1.0,random_dot,59.97184921605492,
left,left,speed,,,,,0.0,1.0,1.0,1.0,20.0,0.0,40.0,0.0,856.9112664999848,,,,,,,,,856.8982795999909,857.0114116999903,857.8112754999893,857.7952069999883,857.7952387999976,857.8112754999893,857.8112754999893,857.8112754999893,,859.0461885000113,left,1.0,31.213590700004715,,,,,,,,,,,,,,,,,,,,,,,,,,,,,,sub-055,1.0,random_dot,59.97184921605492,
right,right,speed,,,,,0.0,1.0,1.0,1.0,20.0,1.0,41.0,1.0,859.0611624000012,,,,,,,,,859.0484208999842,860.2608669000037,861.0610816999979,861.0454743999871,861.0455038000073,861.0610816999979,861.0610816999979,861.0610816999979,,862.12919040001,right,1.0,31.050638300017454,,,,,,,,,,,,,,,,,,,,,,,,,,,,,,sub-055,1.0,random_dot,59.97184921605492,
left,left,speed,,,,,0.0,1.0,1.0,1.0,21.0,0.0,42.0,0.0,862.1440915999992,,,,,,,,,862.1315316999971,862.4940276999841,863.2937995000102,863.2779783000005,863.2780022000079,863.2937995000102,863.2937995000102,863.2937995000102,,866.5283963999827,right,0.0,33.22757710001315,,,,,,,,,,,,,,,,,,,,,,,,,,,,,,sub-055,1.0,random_dot,59.97184921605492,
right,right,speed,,,,,0.0,1.0,1.0,1.0,21.0,1.0,43.0,1.0,866.5435079000017,,,,,,,,,866.5307030999975,866.8934834999964,867.693257100007,867.677557499992,867.6775890999998,867.693257100007,867.693257100007,867.693257100007,,871.5777806999977,right,1.0,33.86822620002204,,,,,,,,,,,,,,,,,,,,,,,,,,,,,,sub-055,1.0,random_dot,59.97184921605492,
left,left,speed,,,,,0.0,1.0,1.0,1.0,22.0,0.0,44.0,0.0,871.5929192999902,,,,,,,,,871.580071000004,872.7927100000088,873.5925810000044,873.5767709999927,873.5767977999931,873.5925810000044,873.5925810000044,873.5925810000044,,875.443869699986,left,1.0,31.83855250000488,,,,,,,,,,,,,,,,,,,,,,,,,,,,,,sub-055,1.0,random_dot,59.97184921605492,
right,right,speed,,,,,0.0,1.0,1.0,1.0,22.0,1.0,45.0,1.0,875.4589239000052,,,,,,,,,875.4461044000054,875.5589326999907,876.3589525999851,876.3431441999855,876.3431827999884,876.3589525999851,876.3589525999851,876.3589525999851,,878.8802879999857,right,1.0,32.48994679999305,,,,,,,,,,,,,,,,,,,,,,,,,,,,,,sub-055,1.0,random_dot,59.97184921605492,
left,left,speed,,,,,0.0,1.0,1.0,1.0,23.0,0.0,46.0,0.0,878.8890097000112,,,,,,,,,878.8825370999984,880.0921111000062,880.8916304000013,880.8757098999922,880.8757405999932,880.8916304000013,880.8916304000013,880.8916304000013,,884.6258450000023,left,1.0,33.713957300031325,,,,,,,,,,,,,,,,,,,,,,,,,,,,,,sub-055,1.0,random_dot,59.97184921605492,
right,right,speed,,,,,0.0,1.0,1.0,1.0,23.0,1.0,47.0,1.0,884.6411185000034,,,,,,,,,884.6278604000108,884.9909515999898,885.7910434000078,885.7751302999968,885.7751601999917,885.7910434000078,885.7910434000078,885.7910434000078,,888.5089555000013,right,1.0,32.71008350001648,,,,,,,,,,,,,,,,,,,,,,,,,,,,,,sub-055,1.0,random_dot,59.97184921605492,
left,left,speed,,,,,0.0,1.0,1.0,1.0,24.0,0.0,48.0,0.0,888.5240495000035,,,,,,,,,888.5111761000007,889.723800000007,890.5240667999897,890.5078838999907,890.5079142999894,890.5240667999897,890.5240667999897,890.5240667999897,,892.2753401999944,left,1.0,31.73090580001008,,,,,,,,,,,,,,,,,,,,,,,,,,,,,,sub-055,1.0,random_dot,59.97184921605492,
right,right,speed,,,,,0.0,1.0,1.0,1.0,24.0,1.0,49.0,1.0,892.29035570001,,,,,,,,,892.2778381000098,892.6402035999927,893.4398702000035,893.4242093999928,893.4242424999829,893.4398702000035,893.4398702000035,893.4398702000035,,897.4756711999944,right,1.0,34.03017539999564,,,,,,,,,,,,,,,,,,,,,,,,,,,,,,sub-055,1.0,random_dot,59.97184921605492,
right,right,speed,,,,,0.0,1.0,1.0,1.0,25.0,0.0,50.0,1.0,897.4896602999943,,,,,,,,,897.4781307000085,897.5897354999906,898.3897380999988,898.3737942999869,898.3739023999951,898.3897380999988,898.3897380999988,898.3897380999988,903.3888573999866,904.4901543000014,left,0.0,36.0940835000074,,,,,,,,,,,,,,,,,,,,,,,,,,,,,,sub-055,1.0,random_dot,59.97184921605492,
left,left,speed,,,,,0.0,1.0,1.0,1.0,25.0,1.0,51.0,0.0,904.5054814000032,,,,,,,,,904.4923439999984,905.30501750001,906.104603099986,906.0883794999972,906.0884048999868,906.104603099986,906.104603099986,906.104603099986,,907.339947200002,left,1.0,31.22316860000137,,,,,,,,,,,,,,,,,,,,,,,,,,,,,,sub-055,1.0,random_dot,59.97184921605492,
left,left,speed,,,,,0.0,1.0,1.0,1.0,26.0,0.0,52.0,0.0,907.354933399998,,,,,,,,,907.3428226000104,907.7052117999992,908.5045076000096,908.4888527999864,908.4888825000088,908.5045076000096,908.5045076000096,908.5045076000096,,910.5755642000004,left,1.0,32.0607862000179,,,,,,,,,,,,,,,,,,,,,,,,,,,,,,sub-055,1.0,random_dot,59.97184921605492,
right,right,speed,,,,,0.0,1.0,1.0,1.0,26.0,1.0,53.0,1.0,910.5877600999956,,,,,,,,,910.5776613999916,910.6879389999958,911.4881329000054,911.472032699996,911.4720695999858,911.4881329000054,911.4881329000054,911.4881329000054,,914.7888005999848,right,1.0,33.28262360001099,,,,,,,,,,,,,,,,,,,,,,,,,,,,,,sub-055,1.0,random_dot,59.97184921605492,
left,left,speed,,,,,0.0,1.0,1.0,1.0,27.0,0.0,54.0,0.0,914.803991599998,,,,,,,,,914.7909821000068,914.90398860001,915.7037161999906,915.687965499994,915.6879990999878,915.7037161999906,915.7037161999906,915.7037161999906,,918.521159099997,right,0.0,32.79818479999085,,,,,,,,,,,,,,,,,,,,,,,,,,,,,,sub-055,1.0,random_dot,59.97184921605492,
right,right,speed,,,,,0.0,1.0,1.0,1.0,27.0,1.0,55.0,1.0,918.5366305999923,,,,,,,,,918.523021400004,919.7364920999972,920.5367542000022,920.5212096000032,920.5212418999872,920.5367542000022,920.5367542000022,920.5367542000022,,922.4538724999876,left,0.0,31.911185900011333,,,,,,,,,,,,,,,,,,,,,,,,,,,,,,sub-055,1.0,random_dot,59.97184921605492,
left,left,speed,,,,,0.0,1.0,1.0,1.0,28.0,0.0,56.0,0.0,922.468940599996,,,,,,,,,922.4548612000071,923.2688748000072,924.0689354999922,924.0530828000046,924.0531011999992,924.0689354999922,924.0689354999922,924.0689354999922,,927.5038387000096,left,1.0,33.42856289999327,,,,,,,,,,,,,,,,,,,,,,,,,,,,,,sub-055,1.0,random_dot,59.97184921605492,
right,right,speed,,,,,0.0,1.0,1.0,1.0,28.0,1.0,57.0,1.0,927.518850099994,,,,,,,,,927.5056460000052,928.3182934999932,929.1183016999858,929.1020161999912,929.1020425999886,929.1183016999858,929.1183016999858,929.1183016999858,,932.3524798,right,1.0,33.22876690002158,,,,,,,,,,,,,,,,,,,,,,,,,,,,,,sub-055,1.0,random_dot,59.97184921605492,
left,left,speed,,,,,0.0,1.0,1.0,1.0,29.0,0.0,58.0,0.0,932.3673096999992,,,,,,,,,932.3538504999888,933.1675101,933.9674401000084,933.9514282000018,933.9514488999848,933.9674401000084,933.9674401000084,933.9674401000084,,935.901787699986,left,1.0,31.926304600026924,,,,,,,,,,,,,,,,,,,,,,,,,,,,,,sub-055,1.0,random_dot,59.97184921605492,
right,right,speed,,,,,0.0,1.0,1.0,1.0,29.0,1.0,59.0,1.0,935.917040100001,,,,,,,,,935.9031829999876,936.7172974999994,937.517528700002,937.501105400006,937.5011531999916,937.517528700002,937.517528700002,937.517528700002,,939.319696999999,right,1.0,31.788479400012875,,,,,,,,,,,,,,,,,,,,,,,,,,,,,,sub-055,1.0,random_dot,59.97184921605492,
,,speed,,,,,0.0,1.0,1.0,1.0,,,,,,,,,,,,,,,,,,,,,,,,,,,,,,,,,,,,,,,,,,,,,,,,,,,,,,,,sub-055,1.0,random_dot,59.97184921605492,
,,,,,,,,,,,,,,,,,,,,,,,,,,,,,,,,,,,,,,,,,,,,,,,,,,,,,,,,,,,,,,,939.3212737999856,939.3344270999952,944.333024499996,sub-055,,,,
