direction,corrAns,randomInstr,practice_trials.thisRepN,practice_trials.thisTrialN,practice_trials.thisN,practice_trials.thisIndex,instr_trials.thisRepN,instr_trials.thisTrialN,instr_trials.thisN,instr_trials.thisIndex,test_trials.thisRepN,test_trials.thisTrialN,test_trials.thisN,test_trials.thisIndex,thisRow.t,notes,general_instruction.started,textGeneralInstr.started,respGeneralInstr.started,general_instruction.stopped,respGeneralInstr.keys,respGeneralInstr.rt,respGeneralInstr.duration,ITI.started,fixcross.started,fixcross.stopped,ITI.stopped,dots.started,backgroundDots.started,stimulusDots.started,respDots.started,stimulusDots.stopped,dots.stopped,respDots.keys,respDots.corr,respDots.rt,respDots.duration,feedback.started,textFeedback.started,textFeedback.stopped,feedback.stopped,info.started,textInfo.started,keyRespInfo.started,info.stopped,keyRespInfo.keys,keyRespInfo.rt,keyRespInfo.duration,test_instruction.started,textTestInstr.started,respTestInstr.started,test_instruction.stopped,respTestInstr.keys,respTestInstr.rt,respTestInstr.duration,random_instruction.started,textRandomInstr.started,respRandomInstr.started,random_instruction.stopped,respRandomInstr.keys,respRandomInstr.rt,respRandomInstr.duration,goodbye.started,textGoodbye.started,goodbye.stopped,participant,session,expName,frameRate,Unnamed: 73
,,,,,,,,,,,,,,,,,0.0028431999999156,0.0153264999971725,0.0153264999971725,18.88078359999781,space,18.852109699997527,,,,,,,,,,,,,,,,,,,,,,,,,,,,,,,,,,,,,,,,,,,,sub-084,1.0,random_dot,59.91669183076626,
left,left,,0.0,0.0,0.0,0.0,,,,,,,,,18.896178399998465,,,,,,,,,18.891252099998383,18.995881399998325,19.795573199997307,19.779772599998974,19.77979469999991,19.795573199997307,19.795573199997307,19.795573199997307,24.79436849999911,26.012817999999243,left,1.0,6.201261099999101,,26.01373639999656,26.028204999998707,26.528081999997084,26.512113299999328,,,,,,,,,,,,,,,,,,,,,,,,,sub-084,1.0,random_dot,59.91669183076626,
right,right,,0.0,1.0,1.0,1.0,,,,,,,,,26.528081999997084,,,,,,,,,26.51251559999946,27.328019900000072,28.127401499998086,28.11098979999952,28.111008299998502,28.127401499998086,28.127401499998086,28.127401499998086,,30.911910899998475,left,0.0,2.779309400000784,,30.912444899997357,30.926777899996523,31.42718959999911,31.411315499997727,,,,,,,,,,,,,,,,,,,,,,,,,sub-084,1.0,random_dot,59.91669183076626,
left,left,,1.0,0.0,2.0,0.0,,,,,,,,,31.42718959999911,,,,,,,,,31.41172169999845,31.777290999998517,32.577450699998735,32.561363699998765,32.56138879999708,32.577450699998735,32.577450699998735,32.577450699998735,37.57657990000007,38.37813919999826,left,1.0,5.785411900000327,,38.37875480000002,38.39321159999963,38.89211919999798,38.87629469999956,,,,,,,,,,,,,,,,,,,,,,,,,sub-084,1.0,random_dot,59.91669183076626,
right,right,,1.0,1.0,3.0,1.0,,,,,,,,,38.89211919999798,,,,,,,,,38.876566699997056,40.0918047999985,40.89299099999698,40.87684119999904,40.87686909999684,40.89299099999698,40.89299099999698,40.89299099999698,,43.89347029999772,right,1.0,2.991663699998753,,43.8940866999983,43.908821799999714,44.40809719999743,44.391686399998434,,,,,,,,,,,,,,,,,,,,,,,,,sub-084,1.0,random_dot,59.91669183076626,
left,left,,2.0,0.0,4.0,0.0,,,,,,,,,44.40809719999743,,,,,,,,,44.39196119999906,45.6085693999994,46.40751439999804,46.3914085999968,46.39142459999857,46.40751439999804,46.40751439999804,46.40751439999804,,48.49411799999871,right,0.0,2.081160000001546,,48.49489349999931,48.50903899999685,49.00815359999979,48.99230179999722,,,,,,,,,,,,,,,,,,,,,,,,,sub-084,1.0,random_dot,59.91669183076626,
right,right,,2.0,1.0,5.0,1.0,,,,,,,,,49.00815359999979,,,,,,,,,48.99276729999838,49.80772199999774,50.60777419999795,50.59176419999858,50.591789099999005,50.60777419999795,50.60777419999795,50.60777419999795,,53.35840359999929,right,1.0,2.734483000000182,,53.3590194999997,53.37399439999717,53.8740461999987,53.8578869999983,,,,,,,,,,,,,,,,,,,,,,,,,sub-084,1.0,random_dot,59.91669183076626,
right,right,,3.0,0.0,6.0,1.0,,,,,,,,,53.8740461999987,,,,,,,,,53.858334499997,55.07356879999861,55.87354939999932,55.85738329999731,55.8574050999996,55.87354939999932,55.87354939999932,55.87354939999932,,57.42489329999808,left,0.0,1.5499524000006204,,57.42542779999712,57.43992679999792,57.93985839999732,57.92385849999846,,,,,,,,,,,,,,,,,,,,,,,,,sub-084,1.0,random_dot,59.91669183076626,
left,left,,3.0,1.0,7.0,0.0,,,,,,,,,57.93985839999732,,,,,,,,,57.92425109999749,59.13913319999847,59.93954589999703,59.923396299996966,59.92341699999815,59.93954589999703,59.93954589999703,59.93954589999703,,64.8389552999979,left,1.0,4.893447800001013,,64.83931819999998,64.8546529999985,65.35468369999944,65.33944299999712,,,,,,,,,,,,,,,,,,,,,,,,,sub-084,1.0,random_dot,59.91669183076626,
right,right,,4.0,0.0,8.0,1.0,,,,,,,,,65.35468369999944,,,,,,,,,65.33971739999834,65.43891669999721,66.23853999999847,66.2223473999984,66.22237029999815,66.23853999999847,66.23853999999847,66.23853999999847,,67.84021589999975,right,1.0,1.5909628000008524,,67.84079269999711,67.85401969999657,68.35478659999717,68.33878609999738,,,,,,,,,,,,,,,,,,,,,,,,,sub-084,1.0,random_dot,59.91669183076626,
left,left,,4.0,1.0,9.0,0.0,,,,,,,,,68.35478659999717,,,,,,,,,68.33919059999971,68.70453749999797,69.50483839999652,69.4889157999969,69.48894089999885,69.50483839999652,69.50483839999652,69.50483839999652,74.50314749999961,75.10378219999984,right,0.0,5.584254399997008,,75.10410669999692,75.119543599998,75.61998759999915,75.60371399999713,,,,,,,,,,,,,,,,,,,,,,,,,sub-084,1.0,random_dot,59.91669183076626,
left,left,,5.0,0.0,10.0,0.0,,,,,,,,,75.61998759999915,,,,,,,,,75.60398099999657,75.95343539999885,76.75337149999905,76.7374850999986,76.73750709999877,76.75337149999905,76.75337149999905,76.75337149999905,,78.90362129999994,left,1.0,2.1473974000000453,,78.90405239999745,78.91941569999835,79.41939939999793,79.40292289999707,,,,,,,,,,,,,,,,,,,,,,,,,sub-084,1.0,random_dot,59.91669183076626,
right,right,,5.0,1.0,11.0,1.0,,,,,,,,,79.41939939999793,,,,,,,,,79.40321909999693,79.50313979999919,80.30310329999702,80.28699169999891,80.28701719999663,80.30310329999702,80.30310329999702,80.30310329999702,,84.07022429999779,right,1.0,3.7585085000027902,,84.07083249999778,84.08571089999896,84.58582669999669,84.56995039999674,,,,,,,,,,,,,,,,,,,,,,,,,sub-084,1.0,random_dot,59.91669183076626,
right,right,,6.0,0.0,12.0,1.0,,,,,,,,,84.58582669999669,,,,,,,,,84.57044679999672,84.93493889999809,85.73524329999782,85.71936339999957,85.71938509999745,85.73524329999782,85.73524329999782,85.73524329999782,90.7342632,91.21781419999752,right,1.0,5.478073599999334,,91.21814619999714,91.23367099999814,91.73400019999826,91.7179554999966,,,,,,,,,,,,,,,,,,,,,,,,,sub-084,1.0,random_dot,59.91669183076626,
left,left,,6.0,1.0,13.0,0.0,,,,,,,,,91.73400019999826,,,,,,,,,91.71830429999682,92.51724059999832,93.31824029999916,93.30247729999974,93.30250929999966,93.31824029999916,93.31824029999916,93.31824029999916,98.31716609999783,100.5679805999971,right,0.0,7.248170099999697,,100.5686229999992,100.58318419999704,101.08312899999872,101.06751899999654,,,,,,,,,,,,,,,,,,,,,,,,,sub-084,1.0,random_dot,59.91669183076626,
left,left,,7.0,0.0,14.0,0.0,,,,,,,,,101.08312899999872,,,,,,,,,101.06800379999912,102.28274529999908,103.08238849999908,103.06632809999792,103.0663483999997,103.08238849999908,103.08238849999908,103.08238849999908,,104.28317759999844,left,1.0,1.1860849000004237,,104.28364779999902,104.29830999999832,104.79891439999848,104.78297419999944,,,,,,,,,,,,,,,,,,,,,,,,,sub-084,1.0,random_dot,59.91669183076626,
right,right,,7.0,1.0,15.0,1.0,,,,,,,,,104.79891439999848,,,,,,,,,104.78338039999652,105.58295839999846,106.39832299999762,106.38214769999831,106.38216399999874,106.39832299999762,106.39832299999762,106.39832299999762,,108.76684959999692,left,0.0,2.365319900000032,,108.76750600000014,108.78206279999722,,109.28123159999814,,,,,,,,,,,,,,,,,,,,,,,,,sub-084,1.0,random_dot,59.91669183076626,
left,left,,8.0,0.0,16.0,0.0,,,,,,,,,109.29810859999998,,,,,,,,,109.281570799998,109.63179369999852,110.43147189999944,110.41519089999927,110.41521179999836,110.43147189999944,110.43147189999944,110.43147189999944,,114.1655170999984,right,0.0,3.729983200002607,,114.16612529999838,114.18100439999762,114.6810508999988,114.6651572999981,,,,,,,,,,,,,,,,,,,,,,,,,sub-084,1.0,random_dot,59.91669183076626,
right,right,,8.0,1.0,17.0,1.0,,,,,,,,,114.6810508999988,,,,,,,,,114.6656348999968,115.03105319999668,115.83061639999868,115.8145399999994,115.81457279999812,115.83061639999868,115.83061639999868,115.83061639999868,,118.04803459999675,left,0.0,2.2131069999995816,,118.0485654999975,118.06353489999674,118.5638762999988,118.54772819999926,,,,,,,,,,,,,,,,,,,,,,,,,sub-084,1.0,random_dot,59.91669183076626,
right,right,,9.0,0.0,18.0,1.0,,,,,,,,,118.5638762999988,,,,,,,,,118.54818089999752,118.66365769999902,119.46377959999882,119.44775789999768,119.44778450000013,119.46377959999882,119.46377959999882,119.46377959999882,,121.98059499999728,right,1.0,2.504805300002772,,121.98112649999894,121.9963366999982,122.4964979999968,122.4805099999976,,,,,,,,,,,,,,,,,,,,,,,,,sub-084,1.0,random_dot,59.91669183076626,
left,left,,9.0,1.0,19.0,0.0,,,,,,,,,122.4964979999968,,,,,,,,,122.48096609999992,122.84626429999844,123.64617149999684,123.630184499998,123.630210299998,123.64617149999684,123.64617149999684,123.64617149999684,128.64527029999954,129.06318569999712,left,1.0,5.40294360000189,,129.06380419999914,129.07873389999804,129.5783401999979,129.56235869999728,,,,,,,,,,,,,,,,,,,,,,,,,sub-084,1.0,random_dot,59.91669183076626,
,,,,,,,,,,,,,,,,,,,,,,,,,,,,,,,,,,,,,,,,,,129.56242429999838,129.5783401999979,129.5783401999979,132.9953652999975,space,3.4114464999984198,,,,,,,,,,,,,,,,,,,sub-084,1.0,random_dot,59.91669183076626,
,,,,,,,,,,,,,,,,,,,,,,,,,,,,,,,,,,,,,,,,,,,,,,,,,132.99540329999945,133.0111642999982,133.0111642999982,138.6618953999969,space,5.639993000000686,,,,,,,,,,,,sub-084,1.0,random_dot,59.91669183076626,
right,right,accuracy,,,,,0.0,0.0,0.0,0.0,0.0,0.0,0.0,1.0,142.10961499999758,,,,,,,,,142.10257609999826,142.2097158999968,143.0098807999966,142.9937503000001,142.99377939999977,143.0098807999966,143.0098807999966,143.0098807999966,,144.01150159999816,right,1.0,1.000098500000604,,,,,,,,,,,,,,,,,,,,138.667238799997,138.68469819999882,138.68469819999882,142.09447849999924,space,3.407818399999087,,,,,sub-084,1.0,random_dot,59.91669183076626,
left,left,accuracy,,,,,0.0,0.0,0.0,0.0,0.0,1.0,1.0,0.0,144.02620479999678,,,,,,,,,144.0131374999983,144.3757982999996,145.17627289999655,145.16023759999734,145.16026379999676,145.17627289999655,145.17627289999655,145.17627289999655,,146.19333099999858,left,1.0,1.0125514999999723,,,,,,,,,,,,,,,,,,,,,,,,,,,,,,sub-084,1.0,random_dot,59.91669183076626,
left,left,accuracy,,,,,0.0,0.0,0.0,0.0,1.0,0.0,2.0,0.0,146.20894129999942,,,,,,,,,146.19436959999803,146.30926889999682,147.10904149999988,147.09298959999796,147.09301399999822,147.10904149999988,147.10904149999988,147.10904149999988,,149.4924039999969,left,1.0,2.3736165999980585,,,,,,,,,,,,,,,,,,,,,,,,,,,,,,sub-084,1.0,random_dot,59.91669183076626,
right,right,accuracy,,,,,0.0,0.0,0.0,0.0,1.0,1.0,3.0,1.0,149.50814989999708,,,,,,,,,149.49321749999945,150.70761729999867,151.50841509999736,151.49240669999926,151.4924315999997,151.50841509999736,151.50841509999736,151.50841509999736,,152.7424125999969,right,1.0,1.2299398000031945,,,,,,,,,,,,,,,,,,,,,,,,,,,,,,sub-084,1.0,random_dot,59.91669183076626,
left,left,accuracy,,,,,0.0,0.0,0.0,0.0,2.0,0.0,4.0,0.0,152.75787129999662,,,,,,,,,152.7434484999976,153.1074086999979,153.9081217999992,153.89209699999992,153.8921217999996,153.9081217999992,153.9081217999992,153.9081217999992,,155.0253651999992,right,0.0,1.1020606000020052,,,,,,,,,,,,,,,,,,,,,,,,,,,,,,sub-084,1.0,random_dot,59.91669183076626,
right,right,accuracy,,,,,0.0,0.0,0.0,0.0,2.0,1.0,5.0,1.0,155.0408783999992,,,,,,,,,155.02646979999918,155.39083959999698,156.19107019999865,156.17495629999758,156.1749826999985,156.19107019999865,156.19107019999865,156.19107019999865,,159.6234314999965,left,0.0,3.4191940000018803,,,,,,,,,,,,,,,,,,,,,,,,,,,,,,sub-084,1.0,random_dot,59.91669183076626,
right,right,accuracy,,,,,0.0,0.0,0.0,0.0,3.0,0.0,6.0,1.0,159.63925109999764,,,,,,,,,159.62403730000003,159.7240165999974,160.52346619999662,160.5075183999979,160.5075446999981,160.52346619999662,160.52346619999662,160.52346619999662,,162.45871449999686,left,0.0,1.933527699999104,,,,,,,,,,,,,,,,,,,,,,,,,,,,,,sub-084,1.0,random_dot,59.91669183076626,
left,left,accuracy,,,,,0.0,0.0,0.0,0.0,3.0,1.0,7.0,0.0,162.47325649999766,,,,,,,,,162.45991179999692,162.57328899999993,163.3888713999986,163.3725693999986,163.3725822999986,163.3888713999986,163.3888713999986,163.3888713999986,168.37248349999936,168.7890958999997,left,1.0,5.39227199999732,,,,,,,,,,,,,,,,,,,,,,,,,,,,,,sub-084,1.0,random_dot,59.91669183076626,
left,left,accuracy,,,,,0.0,0.0,0.0,0.0,4.0,0.0,8.0,0.0,168.8049103999983,,,,,,,,,168.78977739999755,169.13913879999745,169.93768139999884,169.9220736999996,169.9220847999968,169.93768139999884,169.93768139999884,169.93768139999884,,171.4715621999967,left,1.0,1.5175190000009025,,,,,,,,,,,,,,,,,,,,,,,,,,,,,,sub-084,1.0,random_dot,59.91669183076626,
right,right,accuracy,,,,,0.0,0.0,0.0,0.0,4.0,1.0,9.0,1.0,171.48763209999743,,,,,,,,,171.47215999999753,172.27110119999998,173.07077159999972,173.054332599997,173.05434779999996,173.07077159999972,173.07077159999972,173.07077159999972,,174.38832529999854,right,1.0,1.3006875999999463,,,,,,,,,,,,,,,,,,,,,,,,,,,,,,sub-084,1.0,random_dot,59.91669183076626,
right,right,accuracy,,,,,0.0,0.0,0.0,0.0,5.0,0.0,10.0,1.0,174.4037862999976,,,,,,,,,174.38915949999864,175.18850859999657,176.00412089999736,175.988193899997,175.98821580000003,176.00412089999736,176.00412089999736,176.00412089999736,,176.82193039999763,right,1.0,0.812827699999616,,,,,,,,,,,,,,,,,,,,,,,,,,,,,,sub-084,1.0,random_dot,59.91669183076626,
left,left,accuracy,,,,,0.0,0.0,0.0,0.0,5.0,1.0,11.0,0.0,176.83798589999788,,,,,,,,,176.82315319999907,177.18729769999845,177.98727139999755,177.9712045999986,177.97122679999666,177.98727139999755,177.98727139999755,177.98727139999755,,181.4050049999969,left,1.0,3.4138208999975177,,,,,,,,,,,,,,,,,,,,,,,,,,,,,,sub-084,1.0,random_dot,59.91669183076626,
right,right,accuracy,,,,,0.0,0.0,0.0,0.0,6.0,0.0,12.0,1.0,181.42034459999925,,,,,,,,,181.40624189999653,181.5201978999976,182.32042189999996,182.30436839999675,182.3043949999992,182.32042189999996,182.32042189999996,182.32042189999996,,184.03781009999875,right,1.0,1.7020392999984324,,,,,,,,,,,,,,,,,,,,,,,,,,,,,,sub-084,1.0,random_dot,59.91669183076626,
left,left,accuracy,,,,,0.0,0.0,0.0,0.0,6.0,1.0,13.0,0.0,184.05322329999763,,,,,,,,,184.03908409999715,184.4024398999973,185.2021085999986,185.1856615999968,185.18567559999792,185.2021085999986,185.2021085999986,185.2021085999986,,187.30261969999992,left,1.0,2.090308599999844,,,,,,,,,,,,,,,,,,,,,,,,,,,,,,sub-084,1.0,random_dot,59.91669183076626,
right,right,accuracy,,,,,0.0,0.0,0.0,0.0,7.0,0.0,14.0,1.0,187.3183499999977,,,,,,,,,187.3033155999983,187.65239179999844,188.45259619999703,188.43651879999743,188.4365446999982,188.45259619999703,188.45259619999703,188.45259619999703,,189.6702372999971,right,1.0,1.2055394999988494,,,,,,,,,,,,,,,,,,,,,,,,,,,,,,sub-084,1.0,random_dot,59.91669183076626,
left,left,accuracy,,,,,0.0,0.0,0.0,0.0,7.0,1.0,15.0,0.0,189.685713699997,,,,,,,,,189.67144019999975,189.78541219999897,190.5855347999968,190.56933639999988,190.56935989999693,190.5855347999968,190.5855347999968,190.5855347999968,,191.7685696999979,left,1.0,1.1766425000023446,,,,,,,,,,,,,,,,,,,,,,,,,,,,,,sub-084,1.0,random_dot,59.91669183076626,
left,left,accuracy,,,,,0.0,0.0,0.0,0.0,8.0,0.0,16.0,0.0,191.78459739999744,,,,,,,,,191.7692599999973,192.1183334999987,192.91803819999768,192.90210819999996,192.9021302999972,192.91803819999768,192.91803819999768,192.91803819999768,,194.15230719999815,left,1.0,1.2201017000006686,,,,,,,,,,,,,,,,,,,,,,,,,,,,,,sub-084,1.0,random_dot,59.91669183076626,
right,right,accuracy,,,,,0.0,0.0,0.0,0.0,8.0,1.0,17.0,1.0,194.1681131999976,,,,,,,,,194.1533320999988,195.36720429999696,196.16789099999733,196.1521049999974,196.15213169999697,196.16789099999733,196.16789099999733,196.16789099999733,,197.08440129999872,right,1.0,0.91538429999855,,,,,,,,,,,,,,,,,,,,,,,,,,,,,,sub-084,1.0,random_dot,59.91669183076626,
right,right,accuracy,,,,,0.0,0.0,0.0,0.0,9.0,0.0,18.0,1.0,197.1000039999999,,,,,,,,,197.0850494999977,197.8844324999991,198.6830703999985,198.66838579999967,198.66841229999773,198.6830703999985,198.6830703999985,198.6830703999985,,199.96838039999784,right,1.0,1.270918199999869,,,,,,,,,,,,,,,,,,,,,,,,,,,,,,sub-084,1.0,random_dot,59.91669183076626,
left,left,accuracy,,,,,0.0,0.0,0.0,0.0,9.0,1.0,19.0,0.0,199.98393039999792,,,,,,,,,199.9695998999996,201.18382139999807,201.983686399999,201.96772520000013,201.9677500999969,201.983686399999,201.983686399999,201.983686399999,,202.6677104999981,left,1.0,0.6774977999994007,,,,,,,,,,,,,,,,,,,,,,,,,,,,,,sub-084,1.0,random_dot,59.91669183076626,
right,right,accuracy,,,,,0.0,0.0,0.0,0.0,10.0,0.0,20.0,1.0,202.6832994999968,,,,,,,,,202.66875549999892,203.03325109999787,203.83320959999764,203.8172805999966,203.8173057999993,203.83320959999764,203.83320959999764,203.83320959999764,,204.96759949999975,right,1.0,1.1304077000022517,,,,,,,,,,,,,,,,,,,,,,,,,,,,,,sub-084,1.0,random_dot,59.91669183076626,
left,left,accuracy,,,,,0.0,0.0,0.0,0.0,10.0,1.0,21.0,0.0,204.98311699999977,,,,,,,,,204.9689039999976,205.3322905999994,206.13286819999848,206.11693620000003,206.11695789999797,206.13286819999848,206.13286819999848,206.13286819999848,,207.10022519999984,left,1.0,0.953935100002127,,,,,,,,,,,,,,,,,,,,,,,,,,,,,,sub-084,1.0,random_dot,59.91669183076626,
left,left,accuracy,,,,,0.0,0.0,0.0,0.0,11.0,0.0,22.0,0.0,207.1157647,,,,,,,,,207.101267799997,207.4661425999984,208.26587369999837,208.250079999998,208.2501049999992,208.26587369999837,208.26587369999837,208.26587369999837,,209.31684119999773,left,1.0,1.0417317999999796,,,,,,,,,,,,,,,,,,,,,,,,,,,,,,sub-084,1.0,random_dot,59.91669183076626,
right,right,accuracy,,,,,0.0,0.0,0.0,0.0,11.0,1.0,23.0,1.0,209.33211719999963,,,,,,,,,209.31805429999804,209.43206049999932,210.23204929999704,210.21593399999983,210.21595559999696,210.23204929999704,210.23204929999704,210.23204929999704,,211.4330930999968,left,0.0,1.1861446000002616,,,,,,,,,,,,,,,,,,,,,,,,,,,,,,sub-084,1.0,random_dot,59.91669183076626,
left,left,accuracy,,,,,0.0,0.0,0.0,0.0,12.0,0.0,24.0,0.0,211.44870850000007,,,,,,,,,211.43429560000004,212.64834779999728,213.44774569999936,213.4319278999974,213.43194779999976,213.44774569999936,213.44774569999936,213.44774569999936,,215.0158459999984,left,1.0,1.554937199998676,,,,,,,,,,,,,,,,,,,,,,,,,,,,,,sub-084,1.0,random_dot,59.91669183076626,
right,right,accuracy,,,,,0.0,0.0,0.0,0.0,12.0,1.0,25.0,1.0,215.03142789999765,,,,,,,,,215.01703989999805,215.13152739999717,215.93144819999725,215.9154583999989,215.91548399999735,215.93144819999725,215.93144819999725,215.93144819999725,,216.79916109999976,right,1.0,0.8606223000024329,,,,,,,,,,,,,,,,,,,,,,,,,,,,,,sub-084,1.0,random_dot,59.91669183076626,
right,right,accuracy,,,,,0.0,0.0,0.0,0.0,13.0,0.0,26.0,1.0,216.81460650000008,,,,,,,,,216.80035519999728,217.16456529999775,217.96506979999683,217.9485160999975,217.9485422999969,217.96506979999683,217.96506979999683,217.96506979999683,,219.998975399998,right,1.0,2.032116499998665,,,,,,,,,,,,,,,,,,,,,,,,,,,,,,sub-084,1.0,random_dot,59.91669183076626,
left,left,accuracy,,,,,0.0,0.0,0.0,0.0,13.0,1.0,27.0,0.0,220.01412269999852,,,,,,,,,220.00019209999664,220.81399319999764,221.6136827999981,221.59767029999784,221.59769169999709,221.6136827999981,221.6136827999981,221.6136827999981,,222.49794779999863,left,1.0,0.8802721000029123,,,,,,,,,,,,,,,,,,,,,,,,,,,,,,sub-084,1.0,random_dot,59.91669183076626,
left,left,accuracy,,,,,0.0,0.0,0.0,0.0,14.0,0.0,28.0,0.0,222.51341559999852,,,,,,,,,222.49897409999903,223.3128077000001,224.11365779999687,224.0973978999973,224.09742419999748,224.11365779999687,224.11365779999687,224.11365779999687,,225.39697179999712,left,1.0,1.2821936000000278,,,,,,,,,,,,,,,,,,,,,,,,,,,,,,sub-084,1.0,random_dot,59.91669183076626,
right,right,accuracy,,,,,0.0,0.0,0.0,0.0,14.0,1.0,29.0,1.0,225.4124930999969,,,,,,,,,225.39765929999703,226.613149599998,227.41235679999957,227.3963515999967,227.39637139999832,227.41235679999957,227.41235679999957,227.41235679999957,,228.31382669999948,right,1.0,0.8922550000024785,,,,,,,,,,,,,,,,,,,,,,,,,,,,,,sub-084,1.0,random_dot,59.91669183076626,
left,left,accuracy,,,,,0.0,0.0,0.0,0.0,15.0,0.0,30.0,0.0,228.32958159999907,,,,,,,,,228.31502759999785,228.6791051,229.4791959999966,229.46319329999824,229.4632180999979,229.4791959999966,229.4791959999966,229.4791959999966,,230.24675879999995,left,1.0,0.7505767000002379,,,,,,,,,,,,,,,,,,,,,,,,,,,,,,sub-084,1.0,random_dot,59.91669183076626,
right,right,accuracy,,,,,0.0,0.0,0.0,0.0,15.0,1.0,31.0,1.0,230.2624108999989,,,,,,,,,230.24794589999877,230.6124549999986,231.41200089999984,231.3960647999993,231.39608679999947,231.41200089999984,231.41200089999984,231.41200089999984,,232.2795385999998,right,1.0,0.8606598000005761,,,,,,,,,,,,,,,,,,,,,,,,,,,,,,sub-084,1.0,random_dot,59.91669183076626,
left,left,accuracy,,,,,0.0,0.0,0.0,0.0,16.0,0.0,32.0,0.0,232.2952906999999,,,,,,,,,232.2805883000001,233.4949442999969,234.29494789999808,234.2788843999988,234.2789067999984,234.29494789999808,234.29494789999808,234.29494789999808,,235.2124440999978,left,1.0,0.9136147999997776,,,,,,,,,,,,,,,,,,,,,,,,,,,,,,sub-084,1.0,random_dot,59.91669183076626,
right,right,accuracy,,,,,0.0,0.0,0.0,0.0,16.0,1.0,33.0,1.0,235.22797480000008,,,,,,,,,235.21346529999937,235.32735709999903,236.1281889999991,236.11226739999984,236.112291999998,236.1281889999991,236.1281889999991,236.1281889999991,,236.91241709999667,right,1.0,0.7765214000028209,,,,,,,,,,,,,,,,,,,,,,,,,,,,,,sub-084,1.0,random_dot,59.91669183076626,
right,right,accuracy,,,,,0.0,0.0,0.0,0.0,17.0,0.0,34.0,1.0,236.92803469999853,,,,,,,,,236.91361289999983,238.12802649999867,238.9277570999984,238.9117587000001,238.9117829999996,238.9277570999984,238.9277570999984,238.9277570999984,,239.5452534999968,right,1.0,0.6114086999987194,,,,,,,,,,,,,,,,,,,,,,,,,,,,,,sub-084,1.0,random_dot,59.91669183076626,
left,left,accuracy,,,,,0.0,0.0,0.0,0.0,17.0,1.0,35.0,0.0,239.5610009999982,,,,,,,,,239.5464256999985,240.7605223999999,241.56016259999888,241.54409359999767,241.544113699998,241.56016259999888,241.56016259999888,241.56016259999888,,242.22839789999853,left,1.0,0.6600689000006241,,,,,,,,,,,,,,,,,,,,,,,,,,,,,,sub-084,1.0,random_dot,59.91669183076626,
right,right,accuracy,,,,,0.0,0.0,0.0,0.0,18.0,0.0,36.0,1.0,242.24394519999987,,,,,,,,,242.22960299999977,243.44362489999912,244.2435680999988,244.22757369999815,244.2276000999991,244.2435680999988,244.2435680999988,244.2435680999988,,245.09467529999893,right,1.0,0.8381492000007711,,,,,,,,,,,,,,,,,,,,,,,,,,,,,,sub-084,1.0,random_dot,59.91669183076626,
left,left,accuracy,,,,,0.0,0.0,0.0,0.0,18.0,1.0,37.0,0.0,245.11035749999792,,,,,,,,,245.0959477999968,245.2102150999999,246.01000269999716,245.99406049999743,245.99408649999896,246.01000269999716,246.01000269999716,246.01000269999716,,246.7275742999991,left,1.0,0.7135990999995556,,,,,,,,,,,,,,,,,,,,,,,,,,,,,,sub-084,1.0,random_dot,59.91669183076626,
right,right,accuracy,,,,,0.0,0.0,0.0,0.0,19.0,0.0,38.0,1.0,246.7430494,,,,,,,,,246.72878219999984,246.84321439999985,247.6430298999985,247.62694429999829,247.6269695999981,247.6430298999985,247.6430298999985,247.6430298999985,,248.3106530999976,right,1.0,0.6618692000010924,,,,,,,,,,,,,,,,,,,,,,,,,,,,,,sub-084,1.0,random_dot,59.91669183076626,
left,left,accuracy,,,,,0.0,0.0,0.0,0.0,19.0,1.0,39.0,0.0,248.3261576999976,,,,,,,,,248.3118607999968,248.6760430999966,249.4917762999976,249.4761925999992,249.4762123999972,249.4917762999976,249.4917762999976,249.4917762999976,,250.42656879999777,left,1.0,0.9331783999987238,,,,,,,,,,,,,,,,,,,,,,,,,,,,,,sub-084,1.0,random_dot,59.91669183076626,
left,left,accuracy,,,,,0.0,0.0,0.0,0.0,20.0,0.0,40.0,0.0,250.44138199999725,,,,,,,,,250.4273993999996,250.7916624999998,251.59230439999735,251.57637949999844,251.5764050999969,251.59230439999735,251.59230439999735,251.59230439999735,,254.44190609999717,left,1.0,2.835748999998032,,,,,,,,,,,,,,,,,,,,,,,,,,,,,,sub-084,1.0,random_dot,59.91669183076626,
right,right,accuracy,,,,,0.0,0.0,0.0,0.0,20.0,1.0,41.0,1.0,254.4577892999987,,,,,,,,,254.4425999999985,255.2423268999992,256.0411957999968,256.0253769999981,256.0253997999971,256.0411957999968,256.0411957999968,256.0411957999968,,256.6255769999989,right,1.0,0.5707216000009794,,,,,,,,,,,,,,,,,,,,,,,,,,,,,,sub-084,1.0,random_dot,59.91669183076626,
left,left,accuracy,,,,,0.0,0.0,0.0,0.0,21.0,0.0,42.0,0.0,256.6413101999969,,,,,,,,,256.6266238999997,256.7413968000001,257.5414633999972,257.5257271999981,257.52575389999765,257.5414633999972,257.5414633999972,257.5414633999972,,258.1922335999989,left,1.0,0.6346072999986063,,,,,,,,,,,,,,,,,,,,,,,,,,,,,,sub-084,1.0,random_dot,59.91669183076626,
right,right,accuracy,,,,,0.0,0.0,0.0,0.0,21.0,1.0,43.0,1.0,258.2077160999979,,,,,,,,,258.1932782999975,259.0077375999972,259.8076974999967,259.7917903999987,259.79181679999965,259.8076974999967,259.8076974999967,259.8076974999967,,260.392344099997,right,1.0,0.5767740000010235,,,,,,,,,,,,,,,,,,,,,,,,,,,,,,sub-084,1.0,random_dot,59.91669183076626,
left,left,accuracy,,,,,0.0,0.0,0.0,0.0,22.0,0.0,44.0,0.0,260.40761139999813,,,,,,,,,260.39358199999697,261.2076974999982,262.00751789999777,261.9914347999984,261.99146039999687,262.00751789999777,262.00751789999777,262.00751789999777,,262.65862919999927,left,1.0,0.6463838999989093,,,,,,,,,,,,,,,,,,,,,,,,,,,,,,sub-084,1.0,random_dot,59.91669183076626,
right,right,accuracy,,,,,0.0,0.0,0.0,0.0,22.0,1.0,45.0,1.0,262.6739869999983,,,,,,,,,262.65982769999755,263.87379899999723,264.6733934999975,264.65720659999715,264.65722849999656,264.6733934999975,264.6733934999975,264.6733934999975,,265.3242915999981,right,1.0,0.6381164999984321,,,,,,,,,,,,,,,,,,,,,,,,,,,,,,sub-084,1.0,random_dot,59.91669183076626,
right,right,accuracy,,,,,0.0,0.0,0.0,0.0,23.0,0.0,46.0,1.0,265.3399400999988,,,,,,,,,265.3253181999971,266.1401382999975,266.9397566999978,266.92355099999986,266.92357349999656,266.9397566999978,266.9397566999978,266.9397566999978,,267.55727879999904,right,1.0,0.6135996000011801,,,,,,,,,,,,,,,,,,,,,,,,,,,,,,sub-084,1.0,random_dot,59.91669183076626,
left,left,accuracy,,,,,0.0,0.0,0.0,0.0,23.0,1.0,47.0,0.0,267.572962299997,,,,,,,,,267.558324499998,267.67290389999835,268.4732325999976,268.4569814999996,268.4570077999997,268.4732325999976,268.4732325999976,268.4732325999976,,269.0747518999997,left,1.0,0.5920535000004747,,,,,,,,,,,,,,,,,,,,,,,,,,,,,,sub-084,1.0,random_dot,59.91669183076626,
left,left,accuracy,,,,,0.0,0.0,0.0,0.0,24.0,0.0,48.0,0.0,269.0897780999985,,,,,,,,,269.0760169999994,270.28948519999904,271.0892924999971,271.0730392999976,271.0730644999967,271.0892924999971,271.0892924999971,271.0892924999971,,271.75703839999915,right,0.0,0.6521506999997655,,,,,,,,,,,,,,,,,,,,,,,,,,,,,,sub-084,1.0,random_dot,59.91669183076626,
right,right,accuracy,,,,,0.0,0.0,0.0,0.0,24.0,1.0,49.0,1.0,271.7724896,,,,,,,,,271.75824029999785,272.97195809999903,273.77236149999953,273.7563647999996,273.756390999999,273.77236149999953,273.77236149999953,273.77236149999953,,274.9899398999987,right,1.0,1.2107819999982894,,,,,,,,,,,,,,,,,,,,,,,,,,,,,,sub-084,1.0,random_dot,59.91669183076626,
right,right,accuracy,,,,,0.0,0.0,0.0,0.0,25.0,0.0,50.0,1.0,275.0051730999985,,,,,,,,,274.99114839999675,276.2046941999979,277.0048031999977,276.9887678999985,276.9887897999979,277.0048031999977,277.0048031999977,277.0048031999977,,277.6065381999979,right,1.0,0.6002707999978156,,,,,,,,,,,,,,,,,,,,,,,,,,,,,,sub-084,1.0,random_dot,59.91669183076626,
left,left,accuracy,,,,,0.0,0.0,0.0,0.0,25.0,1.0,51.0,0.0,277.62151959999755,,,,,,,,,277.6077347999999,278.82122399999935,279.6210769999998,279.60493589999896,279.6049585999972,279.6210769999998,279.6210769999998,279.6210769999998,,280.20531309999933,left,1.0,0.5704026999992493,,,,,,,,,,,,,,,,,,,,,,,,,,,,,,sub-084,1.0,random_dot,59.91669183076626,
left,left,accuracy,,,,,0.0,0.0,0.0,0.0,26.0,0.0,52.0,0.0,280.2207634999977,,,,,,,,,280.20637179999903,281.419982899999,282.2208331999973,282.20508869999685,282.20511540000007,282.2208331999973,282.2208331999973,282.2208331999973,,285.6554369999976,left,1.0,3.4269700000004377,,,,,,,,,,,,,,,,,,,,,,,,,,,,,,sub-084,1.0,random_dot,59.91669183076626,
right,right,accuracy,,,,,0.0,0.0,0.0,0.0,26.0,1.0,53.0,1.0,285.6703531999992,,,,,,,,,285.6566363999991,285.7704298999997,286.56993039999725,286.55386559999897,286.5538882000001,286.56993039999725,286.56993039999725,286.56993039999725,,287.4207490999979,right,1.0,0.8407479999987117,,,,,,,,,,,,,,,,,,,,,,,,,,,,,,sub-084,1.0,random_dot,59.91669183076626,
right,right,accuracy,,,,,0.0,0.0,0.0,0.0,27.0,0.0,54.0,1.0,287.43563249999715,,,,,,,,,287.4217755999998,288.2365527999973,289.0360920999992,289.0202011000001,289.0202232999982,289.0360920999992,289.0360920999992,289.0360920999992,,290.00381489999927,right,1.0,0.9514238000010664,,,,,,,,,,,,,,,,,,,,,,,,,,,,,,sub-084,1.0,random_dot,59.91669183076626,
left,left,accuracy,,,,,0.0,0.0,0.0,0.0,27.0,1.0,55.0,0.0,290.0193948999986,,,,,,,,,290.0048629999983,291.21928229999685,292.01938229999723,292.0034450999992,292.0034718999996,292.01938229999723,292.01938229999723,292.01938229999723,,294.08658809999906,left,1.0,2.0631592999998247,,,,,,,,,,,,,,,,,,,,,,,,,,,,,,sub-084,1.0,random_dot,59.91669183076626,
right,right,accuracy,,,,,0.0,0.0,0.0,0.0,28.0,0.0,56.0,1.0,294.10194649999903,,,,,,,,,294.08762739999656,294.4512262999997,295.2517264999988,295.23576219999813,295.23578409999755,295.2517264999988,295.2517264999988,295.2517264999988,,295.9365992999992,right,1.0,0.681211600000097,,,,,,,,,,,,,,,,,,,,,,,,,,,,,,sub-084,1.0,random_dot,59.91669183076626,
left,left,accuracy,,,,,0.0,0.0,0.0,0.0,28.0,1.0,57.0,0.0,295.951971399998,,,,,,,,,295.9377900999971,296.3018607999984,297.10180809999656,297.08588569999847,297.0859114999985,297.10180809999656,297.10180809999656,297.10180809999656,,297.9194518999975,right,0.0,0.8136568000008992,,,,,,,,,,,,,,,,,,,,,,,,,,,,,,sub-084,1.0,random_dot,59.91669183076626,
left,left,accuracy,,,,,0.0,0.0,0.0,0.0,29.0,0.0,58.0,0.0,297.93493189999936,,,,,,,,,297.92064709999977,298.7350710999999,299.5348027,299.5185078999966,299.5185332999972,299.5348027,299.5348027,299.5348027,,300.60303479999857,left,1.0,1.0665947000015876,,,,,,,,,,,,,,,,,,,,,,,,,,,,,,sub-084,1.0,random_dot,59.91669183076626,
right,right,accuracy,,,,,0.0,0.0,0.0,0.0,29.0,1.0,59.0,1.0,300.6179581999968,,,,,,,,,300.6042944999972,301.81768049999664,302.61740669999926,302.6004938999977,302.6005097999987,302.61740669999926,302.61740669999926,302.61740669999926,,303.31816479999907,right,1.0,0.6851119999992079,,,,,,,,,,,,,,,,,,,,,,,,,,,,,,sub-084,1.0,random_dot,59.91669183076626,
,,accuracy,,,,,0.0,0.0,0.0,0.0,,,,,,,,,,,,,,,,,,,,,,,,,,,,,,,,,,,,,,,,,,,,,,,,,,,,,,,,sub-084,1.0,random_dot,59.91669183076626,
left,left,speed,,,,,0.0,1.0,1.0,1.0,0.0,0.0,0.0,0.0,306.5675278999988,,,,,,,,,306.5615184999988,307.76684289999685,308.5665085999972,308.55068949999986,308.55071769999995,308.5665085999972,308.5665085999972,308.5665085999972,,309.7174332999966,left,1.0,1.1360870999997132,,,,,,,,,,,,,,,,,,,,303.31915509999817,303.33378789999915,303.33378789999915,306.55174329999863,space,3.209761400001298,,,,,sub-084,1.0,random_dot,59.91669183076626,
right,right,speed,,,,,0.0,1.0,1.0,1.0,0.0,1.0,1.0,1.0,309.7329871999973,,,,,,,,,309.71897989999707,310.93259749999925,311.73270919999777,311.7169090999996,311.7169342999987,311.73270919999777,311.73270919999777,311.73270919999777,,312.86700539999947,right,1.0,1.1284737999994832,,,,,,,,,,,,,,,,,,,,,,,,,,,,,,sub-084,1.0,random_dot,59.91669183076626,
left,left,speed,,,,,0.0,1.0,1.0,1.0,1.0,0.0,2.0,0.0,312.88251859999946,,,,,,,,,312.868186599997,313.2325230999995,314.0320075999989,314.01591559999724,314.0159360999969,314.0320075999989,314.0320075999989,314.0320075999989,,315.03296409999894,left,1.0,0.9954877000018314,,,,,,,,,,,,,,,,,,,,,,,,,,,,,,sub-084,1.0,random_dot,59.91669183076626,
right,right,speed,,,,,0.0,1.0,1.0,1.0,1.0,1.0,3.0,1.0,315.04862559999674,,,,,,,,,315.0339970999994,316.2488326999992,317.0482280999968,317.03228390000004,317.0323051999985,317.0482280999968,317.0482280999968,317.0482280999968,,321.7986826999986,right,1.0,4.741032600002654,,,,,,,,,,,,,,,,,,,,,,,,,,,,,,sub-084,1.0,random_dot,59.91669183076626,
right,right,speed,,,,,0.0,1.0,1.0,1.0,2.0,0.0,4.0,1.0,321.81437339999684,,,,,,,,,321.799744699998,322.16414859999713,322.9640652999988,322.94842849999986,322.9484537999997,322.9640652999988,322.9640652999988,322.9640652999988,,324.481044199998,left,0.0,1.5034917000011774,,,,,,,,,,,,,,,,,,,,,,,,,,,,,,sub-084,1.0,random_dot,59.91669183076626,
left,left,speed,,,,,0.0,1.0,1.0,1.0,2.0,1.0,5.0,0.0,324.49663789999977,,,,,,,,,324.4817890999984,325.6969950999992,326.49720559999696,326.4808989999983,326.4809242999981,326.49720559999696,326.49720559999696,326.49720559999696,,327.731194699998,left,1.0,1.2252585999995065,,,,,,,,,,,,,,,,,,,,,,,,,,,,,,sub-084,1.0,random_dot,59.91669183076626,
right,right,speed,,,,,0.0,1.0,1.0,1.0,3.0,0.0,6.0,1.0,327.7467743999987,,,,,,,,,327.73239589999866,327.8480481999977,328.6635807999992,328.6474354999991,328.6474625999981,328.6635807999992,328.6635807999992,328.6635807999992,,329.86403959999734,right,1.0,1.1844027000006463,,,,,,,,,,,,,,,,,,,,,,,,,,,,,,sub-084,1.0,random_dot,59.91669183076626,
left,left,speed,,,,,0.0,1.0,1.0,1.0,3.0,1.0,7.0,0.0,329.87970129999667,,,,,,,,,329.8650733999966,329.97965320000003,330.7798644999966,330.76377559999673,330.76381219999894,330.7798644999966,330.7798644999966,330.7798644999966,,332.1639815999988,left,1.0,1.3678899000005913,,,,,,,,,,,,,,,,,,,,,,,,,,,,,,sub-084,1.0,random_dot,59.91669183076626,
right,right,speed,,,,,0.0,1.0,1.0,1.0,4.0,0.0,8.0,1.0,332.1793693,,,,,,,,,332.16518579999683,332.97958279999875,333.7793611999987,333.7633797999988,333.7634049999979,333.7793611999987,333.7793611999987,333.7793611999987,,334.7136724999982,right,1.0,0.9214135999973224,,,,,,,,,,,,,,,,,,,,,,,,,,,,,,sub-084,1.0,random_dot,59.91669183076626,
left,left,speed,,,,,0.0,1.0,1.0,1.0,4.0,1.0,9.0,0.0,334.7290960999999,,,,,,,,,334.71485849999954,335.07903389999774,335.8790201999982,335.8629360999985,335.8629621,335.8790201999982,335.8790201999982,335.8790201999982,,336.8632762999987,left,1.0,0.9801360000019486,,,,,,,,,,,,,,,,,,,,,,,,,,,,,,sub-084,1.0,random_dot,59.91669183076626,
left,left,speed,,,,,0.0,1.0,1.0,1.0,5.0,0.0,10.0,0.0,336.8787433999969,,,,,,,,,336.864536699999,337.2288966999986,338.02859779999926,338.0125687,338.0125945999971,338.02859779999926,338.02859779999926,338.02859779999926,,338.94643,left,1.0,0.90462209999896,,,,,,,,,,,,,,,,,,,,,,,,,,,,,,sub-084,1.0,random_dot,59.91669183076626,
right,right,speed,,,,,0.0,1.0,1.0,1.0,5.0,1.0,11.0,1.0,338.9619427999969,,,,,,,,,338.9476797999996,339.7617809999974,340.56080959999963,340.5448200999999,340.54483809999874,340.56080959999963,340.56080959999963,340.56080959999963,,341.2122157999984,right,1.0,0.6354706999991322,,,,,,,,,,,,,,,,,,,,,,,,,,,,,,sub-084,1.0,random_dot,59.91669183076626,
right,right,speed,,,,,0.0,1.0,1.0,1.0,6.0,0.0,12.0,1.0,341.22775099999853,,,,,,,,,341.2132543999978,341.5778324999992,342.3777906999967,342.3619884999971,342.3620128999973,342.3777906999967,342.3777906999967,342.3777906999967,,343.22840709999946,right,1.0,0.8374402000008558,,,,,,,,,,,,,,,,,,,,,,,,,,,,,,sub-084,1.0,random_dot,59.91669183076626,
left,left,speed,,,,,0.0,1.0,1.0,1.0,6.0,1.0,13.0,0.0,343.2438951999975,,,,,,,,,343.2293961999967,344.4434371999996,345.2442117999999,345.2281695999991,345.2281950999968,345.2442117999999,345.2442117999999,345.2442117999999,,346.0785806999993,left,1.0,0.826177999999345,,,,,,,,,,,,,,,,,,,,,,,,,,,,,,sub-084,1.0,random_dot,59.91669183076626,
right,right,speed,,,,,0.0,1.0,1.0,1.0,7.0,0.0,14.0,1.0,346.094113799998,,,,,,,,,346.0797738000001,346.89349279999806,347.6930954999989,347.67722129999675,347.67724039999666,347.6930954999989,347.6930954999989,347.6930954999989,,348.39449909999894,right,1.0,0.6963219999997818,,,,,,,,,,,,,,,,,,,,,,,,,,,,,,sub-084,1.0,random_dot,59.91669183076626,
left,left,speed,,,,,0.0,1.0,1.0,1.0,7.0,1.0,15.0,0.0,348.4098247999973,,,,,,,,,348.39553129999695,349.20975089999774,350.00999709999815,349.99410609999904,349.9941317999983,350.00999709999815,350.00999709999815,350.00999709999815,,350.8776663999997,left,1.0,0.8508535000000848,,,,,,,,,,,,,,,,,,,,,,,,,,,,,,sub-084,1.0,random_dot,59.91669183076626,
left,left,speed,,,,,0.0,1.0,1.0,1.0,8.0,0.0,16.0,0.0,350.89323689999947,,,,,,,,,350.87886399999843,352.09270370000013,352.89288189999934,352.87708829999974,352.8771145999999,352.89288189999934,352.89288189999934,352.89288189999934,,353.8771717999989,left,1.0,0.9803536999970676,,,,,,,,,,,,,,,,,,,,,,,,,,,,,,sub-084,1.0,random_dot,59.91669183076626,
right,right,speed,,,,,0.0,1.0,1.0,1.0,8.0,1.0,17.0,1.0,353.8921331999991,,,,,,,,,353.87821619999886,354.2423721999985,355.04268429999865,355.0265634999996,355.02659009999843,355.04268429999865,355.04268429999865,355.04268429999865,,355.76024529999995,right,1.0,0.7144069999994827,,,,,,,,,,,,,,,,,,,,,,,,,,,,,,sub-084,1.0,random_dot,59.91669183076626,
right,right,speed,,,,,0.0,1.0,1.0,1.0,9.0,0.0,18.0,1.0,355.7757438999979,,,,,,,,,355.7615059999989,356.97559089999777,357.7755077999973,357.75940289999926,357.7594279999976,357.7755077999973,357.7755077999973,357.7755077999973,,358.5587353999981,right,1.0,0.7727305999978853,,,,,,,,,,,,,,,,,,,,,,,,,,,,,,sub-084,1.0,random_dot,59.91669183076626,
left,left,speed,,,,,0.0,1.0,1.0,1.0,9.0,1.0,19.0,0.0,358.5749239999968,,,,,,,,,358.55948929999795,359.7747728999966,360.5749478999969,360.5581300999984,360.5581480999972,360.5749478999969,360.5749478999969,360.5749478999969,,361.5926067999972,left,1.0,1.0055890000003274,,,,,,,,,,,,,,,,,,,,,,,,,,,,,,sub-084,1.0,random_dot,59.91669183076626,
left,left,speed,,,,,0.0,1.0,1.0,1.0,10.0,0.0,20.0,0.0,361.6082307999968,,,,,,,,,361.5938033999992,361.7080634999984,362.5081422999974,362.4919312999991,362.4919571999999,362.5081422999974,362.5081422999974,362.5081422999974,,363.64217109999663,right,0.0,1.1191135000008217,,,,,,,,,,,,,,,,,,,,,,,,,,,,,,sub-084,1.0,random_dot,59.91669183076626,
right,right,speed,,,,,0.0,1.0,1.0,1.0,10.0,1.0,21.0,1.0,363.6578062999979,,,,,,,,,363.6433470999982,364.457638099997,365.2574480999974,365.2410462999978,365.24106619999657,365.2574480999974,365.2574480999974,365.2574480999974,,366.3086592,left,0.0,1.0472105000008014,,,,,,,,,,,,,,,,,,,,,,,,,,,,,,sub-084,1.0,random_dot,59.91669183076626,
right,right,speed,,,,,0.0,1.0,1.0,1.0,11.0,0.0,22.0,1.0,366.3243541999982,,,,,,,,,366.3099094999998,367.5230961999987,368.3237846999982,368.3077206999988,368.3077469999989,368.3237846999982,368.3237846999982,368.3237846999982,,368.9746611999981,right,1.0,0.6458616000018083,,,,,,,,,,,,,,,,,,,,,,,,,,,,,,sub-084,1.0,random_dot,59.91669183076626,
left,left,speed,,,,,0.0,1.0,1.0,1.0,11.0,1.0,23.0,0.0,368.9899534999968,,,,,,,,,368.9756969999981,369.3399095999994,370.1398969999973,370.1239118999984,370.123933699997,370.1398969999973,370.1398969999973,370.1398969999973,375.1389036000001,378.2230374999999,right,0.0,8.076710900000762,,,,,,,,,,,,,,,,,,,,,,,,,,,,,,sub-084,1.0,random_dot,59.91669183076626,
right,right,speed,,,,,0.0,1.0,1.0,1.0,12.0,0.0,24.0,1.0,378.23861829999805,,,,,,,,,378.22405709999657,379.0386992999993,379.83851859999777,379.82269169999927,379.8227176999972,379.83851859999777,379.83851859999777,379.83851859999777,,380.571889699997,right,1.0,0.7181033999986539,,,,,,,,,,,,,,,,,,,,,,,,,,,,,,sub-084,1.0,random_dot,59.91669183076626,
left,left,speed,,,,,0.0,1.0,1.0,1.0,12.0,1.0,25.0,0.0,380.5879478999996,,,,,,,,,380.57271729999775,381.77136999999857,382.5707902999966,382.554607799997,382.5546240999975,382.5707902999966,382.5707902999966,382.5707902999966,,383.6050529999993,right,0.0,1.0219010000000708,,,,,,,,,,,,,,,,,,,,,,,,,,,,,,sub-084,1.0,random_dot,59.91669183076626,
left,left,speed,,,,,0.0,1.0,1.0,1.0,13.0,0.0,26.0,0.0,383.62082929999815,,,,,,,,,383.6059734999981,384.4209302999989,385.2206292999981,385.2047548999981,385.2047877999976,385.2206292999981,385.2206292999981,385.2206292999981,,386.2049950999972,left,1.0,0.9731298000006064,,,,,,,,,,,,,,,,,,,,,,,,,,,,,,sub-084,1.0,random_dot,59.91669183076626,
right,right,speed,,,,,0.0,1.0,1.0,1.0,13.0,1.0,27.0,1.0,386.2205469999972,,,,,,,,,386.2060386999983,387.4205349999975,388.2202225999972,388.2042552999992,388.2042767999992,388.2202225999972,388.2202225999972,388.2202225999972,,388.8379546999968,right,1.0,0.6138408000006166,,,,,,,,,,,,,,,,,,,,,,,,,,,,,,sub-084,1.0,random_dot,59.91669183076626,
left,left,speed,,,,,0.0,1.0,1.0,1.0,14.0,0.0,28.0,0.0,388.85341340000014,,,,,,,,,388.8390067,389.65346839999984,390.4535644999996,390.4371619999984,390.4371844999987,390.4535644999996,390.4535644999996,390.4535644999996,,391.4045014999974,left,1.0,0.940407199999754,,,,,,,,,,,,,,,,,,,,,,,,,,,,,,sub-084,1.0,random_dot,59.91669183076626,
right,right,speed,,,,,0.0,1.0,1.0,1.0,14.0,1.0,29.0,1.0,391.4198862999983,,,,,,,,,391.40570059999663,391.7698531999995,392.5698407999989,392.5538708999993,392.553895699999,392.5698407999989,392.5698407999989,392.5698407999989,,393.57096669999737,right,1.0,0.9974666999987676,,,,,,,,,,,,,,,,,,,,,,,,,,,,,,sub-084,1.0,random_dot,59.91669183076626,
right,right,speed,,,,,0.0,1.0,1.0,1.0,15.0,0.0,30.0,1.0,393.58637149999777,,,,,,,,,393.5721904999991,394.7861859999976,395.5859574999995,395.5701222999997,395.5701478999981,395.5859574999995,395.5859574999995,395.5859574999995,,396.30368029999954,right,1.0,0.7009842000006756,,,,,,,,,,,,,,,,,,,,,,,,,,,,,,sub-084,1.0,random_dot,59.91669183076626,
left,left,speed,,,,,0.0,1.0,1.0,1.0,15.0,1.0,31.0,0.0,396.3191591999967,,,,,,,,,396.304862099998,396.66877399999794,397.46884099999806,397.4526521999978,397.45267469999817,397.46884099999806,397.46884099999806,397.46884099999806,,398.1533190999981,left,1.0,0.6813537000016368,,,,,,,,,,,,,,,,,,,,,,,,,,,,,,sub-084,1.0,random_dot,59.91669183076626,
right,right,speed,,,,,0.0,1.0,1.0,1.0,16.0,0.0,32.0,1.0,398.1686106999987,,,,,,,,,398.1543576999975,398.2690732999981,399.0687191999969,399.0528153999985,399.0528403999997,399.0687191999969,399.0687191999969,399.0687191999969,,399.85299109999687,right,1.0,0.7669939000006707,,,,,,,,,,,,,,,,,,,,,,,,,,,,,,sub-084,1.0,random_dot,59.91669183076626,
left,left,speed,,,,,0.0,1.0,1.0,1.0,16.0,1.0,33.0,0.0,399.8686157999982,,,,,,,,,399.8542002999966,400.6685857999983,401.4684971999996,401.45240029999695,401.4524253999989,401.4684971999996,401.4684971999996,401.4684971999996,,402.2028149999969,left,1.0,0.7264075999992201,,,,,,,,,,,,,,,,,,,,,,,,,,,,,,sub-084,1.0,random_dot,59.91669183076626,
left,left,speed,,,,,0.0,1.0,1.0,1.0,17.0,0.0,34.0,0.0,402.2183800999992,,,,,,,,,402.20399149999866,403.41780669999935,404.2181008999978,404.20230049999736,404.2023268999983,404.2181008999978,404.2181008999978,404.2181008999978,,404.9686211999978,left,1.0,0.7415834999992512,,,,,,,,,,,,,,,,,,,,,,,,,,,,,,sub-084,1.0,random_dot,59.91669183076626,
right,right,speed,,,,,0.0,1.0,1.0,1.0,17.0,1.0,35.0,1.0,404.98433959999966,,,,,,,,,404.96966939999766,405.0835623999992,405.8842573999973,405.86846089999744,405.8684859999994,405.8842573999973,405.8842573999973,405.8842573999973,,406.535687399999,right,1.0,0.6485471999985748,,,,,,,,,,,,,,,,,,,,,,,,,,,,,,sub-084,1.0,random_dot,59.91669183076626,
right,right,speed,,,,,0.0,1.0,1.0,1.0,18.0,0.0,36.0,1.0,406.5509985999997,,,,,,,,,406.5368912999984,406.6508758999989,407.45069469999726,407.4348983999989,407.434922999997,407.45069469999726,407.45069469999726,407.45069469999726,,408.35169589999714,right,1.0,0.8970857000022079,,,,,,,,,,,,,,,,,,,,,,,,,,,,,,sub-084,1.0,random_dot,59.91669183076626,
left,left,speed,,,,,0.0,1.0,1.0,1.0,18.0,1.0,37.0,0.0,408.36724369999865,,,,,,,,,408.3528894999981,409.56671639999695,410.3668436999978,410.3508305999967,410.3508522999982,410.3668436999978,410.3668436999978,410.3668436999978,415.366086799997,415.6006148999986,left,1.0,5.221502699998382,,,,,,,,,,,,,,,,,,,,,,,,,,,,,,sub-084,1.0,random_dot,59.91669183076626,
left,left,speed,,,,,0.0,1.0,1.0,1.0,19.0,0.0,38.0,0.0,415.6160409999975,,,,,,,,,415.6018107999989,416.8159926999979,417.6149845,417.59892959999706,417.5989453999973,417.6149845,417.6149845,417.6149845,,418.6164828000001,left,1.0,0.9900266999975428,,,,,,,,,,,,,,,,,,,,,,,,,,,,,,sub-084,1.0,random_dot,59.91669183076626,
right,right,speed,,,,,0.0,1.0,1.0,1.0,19.0,1.0,39.0,1.0,418.63204479999695,,,,,,,,,418.61752139999953,418.9818796,419.7817961999972,419.76588459999766,419.7659058999998,419.7817961999972,419.7817961999972,419.7817961999972,,420.8996255999991,right,1.0,1.1127296999984535,,,,,,,,,,,,,,,,,,,,,,,,,,,,,,sub-084,1.0,random_dot,59.91669183076626,
right,right,speed,,,,,0.0,1.0,1.0,1.0,20.0,0.0,40.0,1.0,420.91495649999706,,,,,,,,,420.90069069999663,421.0150700999984,421.8153082999997,421.79944429999887,421.7994712,421.8153082999997,421.8153082999997,421.8153082999997,,423.8160081999995,right,1.0,1.9937565000000177,,,,,,,,,,,,,,,,,,,,,,,,,,,,,,sub-084,1.0,random_dot,59.91669183076626,
left,left,speed,,,,,0.0,1.0,1.0,1.0,20.0,1.0,41.0,0.0,423.8315027999997,,,,,,,,,423.8172067999985,423.9314376999973,424.7313074999984,424.71533369999815,424.7153585999986,424.7313074999984,424.7313074999984,424.7313074999984,,425.8475986999984,left,1.0,1.111375999997108,,,,,,,,,,,,,,,,,,,,,,,,,,,,,,sub-084,1.0,random_dot,59.91669183076626,
right,right,speed,,,,,0.0,1.0,1.0,1.0,21.0,0.0,42.0,1.0,425.8635701999992,,,,,,,,,425.8481608999973,425.9479992999986,426.7477500999994,426.7316942999969,426.7317205,426.7477500999994,426.7477500999994,426.7477500999994,,427.7489438999983,right,1.0,0.997920099998737,,,,,,,,,,,,,,,,,,,,,,,,,,,,,,sub-084,1.0,random_dot,59.91669183076626,
left,left,speed,,,,,0.0,1.0,1.0,1.0,21.0,1.0,43.0,0.0,427.7643594000001,,,,,,,,,427.75020799999766,428.1142712000001,428.91384539999854,428.8978587999991,428.89788289999706,428.91384539999854,428.91384539999854,428.91384539999854,,429.9985930999974,left,1.0,1.0752530000027036,,,,,,,,,,,,,,,,,,,,,,,,,,,,,,sub-084,1.0,random_dot,59.91669183076626,
left,left,speed,,,,,0.0,1.0,1.0,1.0,22.0,0.0,44.0,0.0,430.01407019999897,,,,,,,,,429.9998659999983,430.8139139999985,431.61380219999774,431.5977121999968,431.5977384999969,431.61380219999774,431.61380219999774,431.61380219999774,,432.7315180999976,left,1.0,1.1007380000010016,,,,,,,,,,,,,,,,,,,,,,,,,,,,,,sub-084,1.0,random_dot,59.91669183076626,
right,right,speed,,,,,0.0,1.0,1.0,1.0,22.0,1.0,45.0,1.0,432.7467020999975,,,,,,,,,432.7327910999993,432.84684899999775,433.6466459999974,433.6306917999973,433.6307174999965,433.6466459999974,433.6466459999974,433.6466459999974,,434.4300699999985,right,1.0,0.7814850000031583,,,,,,,,,,,,,,,,,,,,,,,,,,,,,,sub-084,1.0,random_dot,59.91669183076626,
right,right,speed,,,,,0.0,1.0,1.0,1.0,23.0,0.0,46.0,1.0,434.4456142999989,,,,,,,,,434.4307739999968,434.7960650999994,435.5960010999988,435.5800946999989,435.5801169999977,435.5960010999988,435.5960010999988,435.5960010999988,,436.6302719999985,right,1.0,1.0216781999988598,,,,,,,,,,,,,,,,,,,,,,,,,,,,,,sub-084,1.0,random_dot,59.91669183076626,
left,left,speed,,,,,0.0,1.0,1.0,1.0,23.0,1.0,47.0,0.0,436.6458628,,,,,,,,,436.6313084999965,437.44660419999855,438.2459351999969,438.2299763999981,438.2300011999978,438.2459351999969,438.2459351999969,438.2459351999969,,439.579963199998,right,0.0,1.3295990000005986,,,,,,,,,,,,,,,,,,,,,,,,,,,,,,sub-084,1.0,random_dot,59.91669183076626,
right,right,speed,,,,,0.0,1.0,1.0,1.0,24.0,0.0,48.0,1.0,439.5954253999989,,,,,,,,,439.5810091999992,440.3953691999996,441.1954258999976,441.1794850999977,441.1795100999989,441.1954258999976,441.1954258999976,441.1954258999976,,442.3963986999988,right,1.0,1.1876731000011205,,,,,,,,,,,,,,,,,,,,,,,,,,,,,,sub-084,1.0,random_dot,59.91669183076626,
left,left,speed,,,,,0.0,1.0,1.0,1.0,24.0,1.0,49.0,0.0,442.4119974999994,,,,,,,,,442.397595399998,442.7615355999988,443.5606960999976,443.5445169999985,443.5445321999978,443.5606960999976,443.5606960999976,443.5606960999976,,446.2781464,left,1.0,2.7087953000009293,,,,,,,,,,,,,,,,,,,,,,,,,,,,,,sub-084,1.0,random_dot,59.91669183076626,
right,right,speed,,,,,0.0,1.0,1.0,1.0,25.0,0.0,50.0,1.0,446.2942622999981,,,,,,,,,446.2790691999981,447.47771680000005,448.2774496999991,448.2614926999995,448.261516999999,448.2774496999991,448.2774496999991,448.2774496999991,,449.0119537999999,right,1.0,0.7267405000020517,,,,,,,,,,,,,,,,,,,,,,,,,,,,,,sub-084,1.0,random_dot,59.91669183076626,
left,left,speed,,,,,0.0,1.0,1.0,1.0,25.0,1.0,51.0,0.0,449.0273863999973,,,,,,,,,449.0131478999974,449.82649449999735,450.6263527999981,450.6101494999966,450.6101645999988,450.6263527999981,450.6263527999981,450.6263527999981,,451.6778334999981,left,1.0,1.037817799999175,,,,,,,,,,,,,,,,,,,,,,,,,,,,,,sub-084,1.0,random_dot,59.91669183076626,
left,left,speed,,,,,0.0,1.0,1.0,1.0,26.0,0.0,52.0,0.0,451.6934769,,,,,,,,,451.6788734999973,451.7935238999999,452.5926647999986,452.5763947999985,452.5764096999992,452.5926647999986,452.5926647999986,452.5926647999986,,455.3607963999966,right,0.0,2.7640258999999787,,,,,,,,,,,,,,,,,,,,,,,,,,,,,,sub-084,1.0,random_dot,59.91669183076626,
right,right,speed,,,,,0.0,1.0,1.0,1.0,26.0,1.0,53.0,1.0,455.37621509999735,,,,,,,,,455.3618319999987,455.47622559999945,456.2764897999986,456.2603036,456.2603294999972,456.2764897999986,456.2764897999986,456.2764897999986,,457.1275532999971,right,1.0,0.8416542999984813,,,,,,,,,,,,,,,,,,,,,,,,,,,,,,sub-084,1.0,random_dot,59.91669183076626,
left,left,speed,,,,,0.0,1.0,1.0,1.0,27.0,0.0,54.0,0.0,457.1430286999967,,,,,,,,,457.1288151999979,457.2428682999998,458.04275289999714,458.0268659999965,458.026893299997,458.04275289999714,458.04275289999714,458.04275289999714,,459.226921999998,left,1.0,1.168316400002368,,,,,,,,,,,,,,,,,,,,,,,,,,,,,,sub-084,1.0,random_dot,59.91669183076626,
right,right,speed,,,,,0.0,1.0,1.0,1.0,27.0,1.0,55.0,1.0,459.2426602999985,,,,,,,,,459.22811569999976,459.5916832999974,460.3923051999991,460.3764252000001,460.3764503999992,460.3923051999991,460.3923051999991,460.3923051999991,,461.3267359999991,right,1.0,0.920941299998958,,,,,,,,,,,,,,,,,,,,,,,,,,,,,,sub-084,1.0,random_dot,59.91669183076626,
left,left,speed,,,,,0.0,1.0,1.0,1.0,28.0,0.0,56.0,0.0,461.3422700999981,,,,,,,,,461.3279326999982,462.1417838999987,462.9418941999975,462.9260437999983,462.9260687999995,462.9418941999975,462.9418941999975,462.9418941999975,,463.9094977999994,left,1.0,0.9636501999993924,,,,,,,,,,,,,,,,,,,,,,,,,,,,,,sub-084,1.0,random_dot,59.91669183076626,
right,right,speed,,,,,0.0,1.0,1.0,1.0,28.0,1.0,57.0,1.0,463.9250631999967,,,,,,,,,463.9107112999991,464.2749291,465.07378569999855,465.0577619999967,465.0577813999989,465.07378569999855,465.07378569999855,465.07378569999855,,466.14251949999743,right,1.0,1.051680500000657,,,,,,,,,,,,,,,,,,,,,,,,,,,,,,sub-084,1.0,random_dot,59.91669183076626,
left,left,speed,,,,,0.0,1.0,1.0,1.0,29.0,0.0,58.0,0.0,466.1580337999985,,,,,,,,,466.1437045999992,466.957695699999,467.75716569999713,467.7411113999988,467.7411317999977,467.75716569999713,467.75716569999713,467.75716569999713,,468.4583346,left,1.0,0.6903203000001668,,,,,,,,,,,,,,,,,,,,,,,,,,,,,,sub-084,1.0,random_dot,59.91669183076626,
right,right,speed,,,,,0.0,1.0,1.0,1.0,29.0,1.0,59.0,1.0,468.47415199999887,,,,,,,,,468.4593781999975,469.2743929999997,470.0741159999998,470.05801470000006,470.0580396999976,470.0741159999998,470.0741159999998,470.0741159999998,,470.8255781999978,right,1.0,0.7479620999984036,,,,,,,,,,,,,,,,,,,,,,,,,,,,,,sub-084,1.0,random_dot,59.91669183076626,
,,speed,,,,,0.0,1.0,1.0,1.0,,,,,,,,,,,,,,,,,,,,,,,,,,,,,,,,,,,,,,,,,,,,,,,,,,,,,,,,sub-084,1.0,random_dot,59.91669183076626,
,,,,,,,,,,,,,,,,,,,,,,,,,,,,,,,,,,,,,,,,,,,,,,,,,,,,,,,,,,,,,,,470.826471999997,470.8406439999999,475.83960269999807,sub-084,,,,
