wordCTK,colorCTK,corrAnsCTK,congruentCTK,thisN,thisTrialN,thisRepN,keyResp_CTK.keys,keyResp_CTK.corr,keyResp_CTK.rt,keyResp_CTK.duration,wordPractice,colorPractice,corrAnsPractice,congruentPractice,respPractice.keys,respPractice.corr,respPractice.rt,respPractice.duration,word,color,corrAns,congruent,keyResp_test_run.keys,keyResp_test_run.corr,keyResp_test_run.rt,keyResp_test_run.duration,trials_CTK.thisRepN,trials_CTK.thisTrialN,trials_CTK.thisN,trials_CTK.thisIndex,trials_practice.thisRepN,trials_practice.thisTrialN,trials_practice.thisN,trials_practice.thisIndex,trials_test.thisRepN,trials_test.thisTrialN,trials_test.thisN,trials_test.thisIndex,thisRow.t,notes,instruction.started,instr_text.started,instr_image.started,instr_resp.started,instruction.stopped,instr_resp.keys,instr_resp.rt,instr_resp.duration,instr_color_to_key.started,instr_ctk.started,resp_ctk.started,instr_color_to_key.stopped,resp_ctk.keys,resp_ctk.rt,resp_ctk.duration,ITI.started,fixcross.started,fixcross.stopped,ITI.stopped,color_to_key_run.started,stimulus_CTK.started,keyResp_CTK.started,color_to_key_run.stopped,trials_CTK.keyResp_CTK.keys,trials_CTK.keyResp_CTK.corr,trials_CTK.keyResp_CTK.rt,trials_CTK.keyResp_CTK.duration,instr_practice.started,instr_practice_text.started,instr_practice_resp.started,instr_practice.stopped,instr_practice_resp.keys,instr_practice_resp.rt,instr_practice_resp.duration,practice_run.started,stimulus_practice.started,respPractice.started,practice_run.stopped,trials_practice.respPractice.keys,trials_practice.respPractice.corr,trials_practice.respPractice.rt,trials_practice.respPractice.duration,feedback.started,textFeedback.started,feedback.stopped,textFeedback.stopped,instr_test.started,instr_test_text.started,instr_test_resp.started,instr_test.stopped,instr_test_resp.keys,instr_test_resp.rt,instr_test_resp.duration,test_run.started,stimulus_test_run.started,keyResp_test_run.started,test_run.stopped,trials_test.keyResp_test_run.keys,trials_test.keyResp_test_run.corr,trials_test.keyResp_test_run.rt,trials_test.keyResp_test_run.duration,goodbye.started,textGoodbye.started,textGoodbye.stopped,goodbye.stopped,participant,session,expName,frameRate,Unnamed: 113
,,,,,,,,,,,,,,,,,,,,,,,,,,,,,,,,,,,,,,,,,0.0108738749986514,0.060125167001388,0.060125167001388,0.060125167001388,68.37822450000385,space,68.27796300000045,,,,,,,,,,,,,,,,,,,,,,,,,,,,,,,,,,,,,,,,,,,,,,,,,,,,,,,,,,,sub-209,1,stroop_test,,
,,,,,,,,,,,,,,,,,,,,,,,,,,,,,,,,,,,,,,,,,,,,,,,,,68.37830137499259,68.40282324999862,68.40282324999862,75.04676937499607,space,6.639051874997676,,,,,,,,,,,,,,,,,,,,,,,,,,,,,,,,,,,,,,,,,,,,,,,,,,,,sub-209,1,stroop_test,,
test,blue,b,1.0,0.0,0.0,0.0,b,1.0,2.1426079999946523,,,,,,,,,,,,,,,,,,0.0,0.0,0.0,2.0,,,,,,,,,75.08260483399499,,,,,,,,,,,,,,,,,75.06587024999317,75.14463008400344,75.9428517500055,75.92864316700434,75.93665720899298,75.9428517500055,75.9428517500055,78.09671974999947,b,1.0,2.1426079999946523,,,,,,,,,,,,,,,,,,,,,,,,,,,,,,,,,,,,,,,,sub-209,1,stroop_test,,
test,red,r,1.0,1.0,1.0,0.0,r,1.0,1.4984355829947162,,,,,,,,,,,,,,,,,,0.0,1.0,1.0,0.0,,,,,,,,,78.10617441700015,,,,,,,,,,,,,,,,,78.09732783399522,78.89458966700477,79.68568224999763,79.67863883399696,79.6793577089993,79.68568224999763,79.68568224999763,81.21256404199812,r,1.0,1.4984355829947162,,,,,,,,,,,,,,,,,,,,,,,,,,,,,,,,,,,,,,,,sub-209,1,stroop_test,,
test,yellow,g,1.0,2.0,2.0,0.0,g,1.0,1.0533229169959668,,,,,,,,,,,,,,,,,,0.0,2.0,2.0,1.0,,,,,,,,,81.22838966699783,,,,,,,,,,,,,,,,,81.213001333992,81.56136962499295,82.35217091700179,82.34551358400495,82.34612795899739,82.35217091700179,82.35217091700179,83.41348337499949,g,1.0,1.0533229169959668,,,,,,,,,,,,,,,,,,,,,,,,,,,,,,,,,,,,,,,,sub-209,1,stroop_test,,
test,yellow,g,1.0,3.0,0.0,1.0,g,1.0,0.5204274170100689,,,,,,,,,,,,,,,,,,1.0,0.0,3.0,1.0,,,,,,,,,83.42350595899916,,,,,,,,,,,,,,,,,83.41429099999368,84.61108099999547,85.40276866700151,85.39551741699688,85.39627054199809,85.40276866700151,85.40276866700151,85.93031704200257,g,1.0,0.5204274170100689,,,,,,,,,,,,,,,,,,,,,,,,,,,,,,,,,,,,,,,,sub-209,1,stroop_test,,
test,blue,b,1.0,4.0,1.0,1.0,b,1.0,0.7827653330023168,,,,,,,,,,,,,,,,,,1.0,1.0,4.0,2.0,,,,,,,,,85.94001012499211,,,,,,,,,,,,,,,,,85.93089941699873,86.72777899999346,87.51899766699353,87.51200679199246,87.51260908400582,87.51899766699353,87.51899766699353,88.31333670900494,b,1.0,0.7827653330023168,,,,,,,,,,,,,,,,,,,,,,,,,,,,,,,,,,,,,,,,sub-209,1,stroop_test,,
test,red,r,1.0,5.0,2.0,1.0,r,1.0,0.5656887500081211,,,,,,,,,,,,,,,,,,1.0,2.0,5.0,0.0,,,,,,,,,88.32322237499466,,,,,,,,,,,,,,,,,88.31388487499498,89.11110145899875,89.90333016699878,89.89557858399348,89.89626749999297,89.90333016699878,89.90333016699878,90.47979691700311,r,1.0,0.5656887500081211,,,,,,,,,,,,,,,,,,,,,,,,,,,,,,,,,,,,,,,,sub-209,1,stroop_test,,
test,blue,b,1.0,6.0,0.0,2.0,b,1.0,1.7366702500003155,,,,,,,,,,,,,,,,,,2.0,0.0,6.0,2.0,,,,,,,,,90.4898450000037,,,,,,,,,,,,,,,,,90.48031645899756,91.2777685839974,92.0687585419946,92.06210579199252,92.06269470900588,92.0687585419946,92.0687585419946,93.81324212500476,b,1.0,1.7366702500003155,,,,,,,,,,,,,,,,,,,,,,,,,,,,,,,,,,,,,,,,sub-209,1,stroop_test,,
test,red,r,1.0,7.0,1.0,2.0,r,1.0,1.049883250001585,,,,,,,,,,,,,,,,,,2.0,1.0,7.0,0.0,,,,,,,,,93.82314387499356,,,,,,,,,,,,,,,,,93.81379562499932,93.91150724999898,94.70207229199876,94.69513141700008,94.69577187500543,94.70207229199876,94.70207229199876,95.76337141699332,r,1.0,1.049883250001585,,,,,,,,,,,,,,,,,,,,,,,,,,,,,,,,,,,,,,,,sub-209,1,stroop_test,,
test,yellow,g,1.0,8.0,2.0,2.0,g,1.0,1.5097205420024693,,,,,,,,,,,,,,,,,,2.0,2.0,8.0,1.0,,,,,,,,,95.77268341700255,,,,,,,,,,,,,,,,,95.76399962499272,96.11100995900053,96.9020401250018,96.89533808399574,96.89595266699324,96.9020401250018,96.9020401250018,98.4147509589966,g,1.0,1.5097205420024693,,,,,,,,,,,,,,,,,,,,,,,,,,,,,,,,,,,,,,,,sub-209,1,stroop_test,,
test,red,r,1.0,9.0,0.0,3.0,r,1.0,0.493775833005202,,,,,,,,,,,,,,,,,,3.0,0.0,9.0,0.0,,,,,,,,,98.4246032499941,,,,,,,,,,,,,,,,,98.41541662499368,99.21096941699216,100.00276000000304,99.9954144999938,99.99618012500288,100.00276000000304,100.00276000000304,100.5019231250044,r,1.0,0.493775833005202,,,,,,,,,,,,,,,,,,,,,,,,,,,,,,,,,,,,,,,,sub-209,1,stroop_test,,
test,blue,b,1.0,10.0,1.0,3.0,b,1.0,0.8714155420020688,,,,,,,,,,,,,,,,,,3.0,1.0,10.0,2.0,,,,,,,,,100.52789333400142,,,,,,,,,,,,,,,,,100.50238829199225,101.7002482090029,102.49437641700206,102.48357650000251,102.4841632500029,102.49437641700206,102.49437641700206,103.36853300000077,b,1.0,0.8714155420020688,,,,,,,,,,,,,,,,,,,,,,,,,,,,,,,,,,,,,,,,sub-209,1,stroop_test,,
test,yellow,g,1.0,11.0,2.0,3.0,g,1.0,1.1088445839995984,,,,,,,,,,,,,,,,,,3.0,2.0,11.0,1.0,,,,,,,,,103.39448037500551,,,,,,,,,,,,,,,,,103.3690164169966,103.46745654199913,104.26086304199998,104.2510915419989,104.25167312499252,104.26086304199998,104.26086304199998,105.37984795900412,g,1.0,1.1088445839995984,,,,,,,,,,,,,,,,,,,,,,,,,,,,,,,,,,,,,,,,sub-209,1,stroop_test,,
,,,,,,,,,,,,,,,,,,,,,,,,,,,,,,,,,,,,,,,,,,,,,,,,,,,,,,,,,,,,,,,,,,,,105.38007741699404,105.39175204199272,105.39175204199272,114.14697866699134,space,8.742835291996016,,,,,,,,,,,,,,,,,,,,,,,,,,,,,,,,,sub-209,1,stroop_test,,
,,,,0.0,0.0,0.0,,,,,blau,red,r,0.0,r,1.0,3.096212959004333,,,,,,,,,,,,,,0.0,0.0,0.0,4.0,,,,,114.1625508750003,,,,,,,,,,,,,,,,,114.15842387499288,115.34446662499975,116.1433113749954,116.128651084,,,,,,,,,,,,,,,,116.13651116700204,116.1433113749954,116.1433113749954,119.2465286670049,r,1.0,3.096212959004333,,119.25548620900372,119.26467516699633,120.24984770899756,,,,,,,,,,,,,,,,,,,,,sub-209,1,stroop_test,,
,,,,1.0,1.0,0.0,,,,,blau,blue,b,1.0,b,1.0,1.1650722500053234,,,,,,,,,,,,,,0.0,1.0,1.0,5.0,,,,,120.26099237499876,,,,,,,,,,,,,,,,,120.25031779200071,120.34433195900056,121.13586149999172,121.12853062499198,,,,,,,,,,,,,,,,121.12940270900437,121.13586149999172,121.13586149999172,122.31291350000538,b,1.0,1.1650722500053234,,122.31357308400038,122.32157654200272,123.31179208400135,123.31693020899549,,,,,,,,,,,,,,,,,,,,sub-209,1,stroop_test,,
,,,,2.0,2.0,0.0,,,,,rot,blue,b,0.0,b,1.0,1.136035957999411,,,,,,,,,,,,,,0.0,2.0,2.0,2.0,,,,,123.31693020899549,,,,,,,,,,,,,,,,,123.31237870900075,124.5108846249932,125.3095556670014,125.29522562499916,,,,,,,,,,,,,,,,125.30255833400588,125.3095556670014,125.3095556670014,126.45671266700084,b,1.0,1.136035957999411,,126.45752416699544,126.463458541999,127.4506304999959,127.46094637499482,,,,,,,,,,,,,,,,,,,,sub-209,1,stroop_test,,
,,,,3.0,3.0,0.0,,,,,gelb,red,r,0.0,r,1.0,0.7448346250021132,,,,,,,,,,,,,,0.0,3.0,3.0,8.0,,,,,127.46094637499482,,,,,,,,,,,,,,,,,127.4510670419986,127.5500987090054,128.34408087500196,128.33383033399878,,,,,,,,,,,,,,,,128.3374999170046,128.34408087500196,128.34408087500196,129.09656133399403,r,1.0,0.7448346250021132,,129.09751787499408,129.1081933749956,130.09503850000328,130.09990033399663,,,,,,,,,,,,,,,,,,,,sub-209,1,stroop_test,,
,,,,4.0,4.0,0.0,,,,,gelb,blue,b,0.0,b,1.0,0.7861534999974538,,,,,,,,,,,,,,0.0,4.0,4.0,9.0,,,,,130.09990033399663,,,,,,,,,,,,,,,,,130.09551037500205,130.44437854200078,131.2354383339989,131.22825837500568,,,,,,,,,,,,,,,,131.22902179199446,131.2354383339989,131.2354383339989,132.02952537499368,b,1.0,0.7861534999974538,,132.03027758399548,132.0412130420009,133.02871670899913,133.033983041998,,,,,,,,,,,,,,,,,,,,sub-209,1,stroop_test,,
,,,,5.0,5.0,0.0,,,,,rot,red,r,1.0,r,1.0,0.7047023329942022,,,,,,,,,,,,,,0.0,5.0,5.0,0.0,,,,,133.033983041998,,,,,,,,,,,,,,,,,133.02925945899915,134.32665787500446,135.12385154199728,135.1119870840048,,,,,,,,,,,,,,,,135.1169248340011,135.12385154199728,135.12385154199728,135.8379950840026,r,1.0,0.7047023329942022,,135.8384810419957,135.84340458399674,136.82855495899275,136.83366812499298,,,,,,,,,,,,,,,,,,,,sub-209,1,stroop_test,,
,,,,6.0,6.0,0.0,,,,,gelb,yellow,g,1.0,g,1.0,0.6848781250009779,,,,,,,,,,,,,,0.0,6.0,6.0,10.0,,,,,136.83366812499298,,,,,,,,,,,,,,,,,136.8290144999919,137.63309624999238,138.426700875003,138.41666166699724,,,,,,,,,,,,,,,,138.4204100420029,138.426700875003,138.426700875003,139.12400337499275,g,1.0,0.6848781250009779,,139.12453820899827,139.12979162500417,140.11692633399798,140.12747550000495,,,,,,,,,,,,,,,,,,,,sub-209,1,stroop_test,,
,,,,7.0,7.0,0.0,,,,,gelb,yellow,g,1.0,g,1.0,0.6384884169965517,,,,,,,,,,,,,,0.0,7.0,7.0,11.0,,,,,140.12747550000495,,,,,,,,,,,,,,,,,140.1173355840001,141.31773850000172,142.11938191700028,142.11200583400205,,,,,,,,,,,,,,,,142.11278304200096,142.11938191700028,142.11938191700028,142.76274554200063,g,1.0,0.6384884169965517,,142.7636502499954,142.7758157089993,143.76180341700092,143.76705433399184,,,,,,,,,,,,,,,,,,,,sub-209,1,stroop_test,,
,,,,8.0,8.0,0.0,,,,,blau,yellow,g,0.0,g,1.0,0.9811648329923628,,,,,,,,,,,,,,0.0,8.0,8.0,7.0,,,,,143.76705433399184,,,,,,,,,,,,,,,,,143.76234499999555,144.56084829199244,145.35634445899632,145.3453403750027,,,,,,,,,,,,,,,,145.34979237499647,145.35634445899632,145.35634445899632,146.34611104200303,g,1.0,0.9811648329923628,,146.3469445840019,146.35810541699175,147.3453855419939,147.35069649999787,,,,,,,,,,,,,,,,,,,,sub-209,1,stroop_test,,
,,,,9.0,9.0,0.0,,,,,rot,yellow,g,0.0,g,1.0,0.7540767909958959,,,,,,,,,,,,,,0.0,9.0,9.0,3.0,,,,,147.35069649999787,,,,,,,,,,,,,,,,,147.3459110840049,147.69446241699916,148.49135875000502,148.478533083995,,,,,,,,,,,,,,,,148.4844421250018,148.49135875000502,148.49135875000502,149.2569410839933,g,1.0,0.7540767909958959,,149.2576644590008,149.263311333998,150.2502227090008,150.2610966249922,,,,,,,,,,,,,,,,,,,,sub-209,1,stroop_test,,
,,,,10.0,10.0,0.0,,,,,blau,blue,b,1.0,b,1.0,0.6851264580036514,,,,,,,,,,,,,,0.0,10.0,10.0,6.0,,,,,150.2610966249922,,,,,,,,,,,,,,,,,150.25063762499485,150.34965154199745,151.1431496669975,151.1331509169977,,,,,,,,,,,,,,,,151.13685700000497,151.1431496669975,151.1431496669975,151.84097933399607,b,1.0,0.6851264580036514,,151.84153958399838,151.84634537500096,152.8326107920002,152.84421754199138,,,,,,,,,,,,,,,,,,,,sub-209,1,stroop_test,,
,,,,11.0,11.0,0.0,,,,,rot,red,r,1.0,r,1.0,0.4848840839986224,,,,,,,,,,,,,,0.0,11.0,11.0,1.0,,,,,152.84421754199138,,,,,,,,,,,,,,,,,152.8330190419947,152.93326175000402,153.72736416700354,153.71691499999724,,,,,,,,,,,,,,,,153.7205591249949,153.72736416700354,153.72736416700354,154.223379499992,r,1.0,0.4848840839986224,,154.22405533399433,154.230010416999,155.21678141699522,155.22743887499382,,,,,,,,,,,,,,,,,,,,sub-209,1,stroop_test,,
,,,,12.0,0.0,1.0,,,,,blau,blue,b,1.0,b,1.0,0.877022875007242,,,,,,,,,,,,,,1.0,0.0,12.0,5.0,,,,,155.22743887499382,,,,,,,,,,,,,,,,,155.21720662499138,156.0171000840055,156.81027649999305,156.80028412499814,,,,,,,,,,,,,,,,156.80389779199322,156.81027649999305,156.81027649999305,157.6963458340033,b,1.0,0.877022875007242,,157.6972276250017,157.7081364589976,158.69476879200374,158.6994889589987,,,,,,,,,,,,,,,,,,,,sub-209,1,stroop_test,,
,,,,13.0,1.0,1.0,,,,,rot,blue,b,0.0,b,1.0,0.9741869160061468,,,,,,,,,,,,,,1.0,1.0,13.0,2.0,,,,,158.6994889589987,,,,,,,,,,,,,,,,,158.69520362500043,159.49406479200115,160.28971687499143,160.27834312499908,,,,,,,,,,,,,,,,160.2829954589979,160.28971687499143,160.28971687499143,161.26793445899966,b,1.0,0.9741869160061468,,161.26863241699175,161.2797032919916,162.26718479199917,162.27727158399648,,,,,,,,,,,,,,,,,,,,sub-209,1,stroop_test,,
,,,,14.0,2.0,1.0,,,,,blau,yellow,g,0.0,g,1.0,0.6876185419969261,,,,,,,,,,,,,,1.0,2.0,14.0,7.0,,,,,162.27727158399648,,,,,,,,,,,,,,,,,162.26758658399922,162.6164312500041,163.41060266700515,163.40043179200438,,,,,,,,,,,,,,,,163.4040600839944,163.41060266700515,163.41060266700515,164.10103058400273,g,1.0,0.6876185419969261,,164.10171987500507,164.11263674999643,165.10031266699662,165.11062987499463,,,,,,,,,,,,,,,,,,,,sub-209,1,stroop_test,,
,,,,15.0,3.0,1.0,,,,,rot,red,r,1.0,r,1.0,0.558949208992999,,,,,,,,,,,,,,1.0,3.0,15.0,0.0,,,,,165.11062987499463,,,,,,,,,,,,,,,,,165.10071791699738,165.90004954200413,166.70698674999585,166.69488454199745,,,,,,,,,,,,,,,,166.69994750000478,166.70698674999585,166.70698674999585,167.26867725000193,r,1.0,0.558949208992999,,167.26952975000313,167.28164991700032,168.266402209003,168.2775402499974,,,,,,,,,,,,,,,,,,,,sub-209,1,stroop_test,,
,,,,16.0,4.0,1.0,,,,,gelb,yellow,g,1.0,b,0.0,0.4552315000037197,,,,,,,,,,,,,,1.0,4.0,16.0,11.0,,,,,168.2775402499974,,,,,,,,,,,,,,,,,168.2668143750052,168.3669910000026,169.17284949999885,169.16173774999334,,,,,,,,,,,,,,,,169.16623837499355,169.17284949999885,169.17284949999885,169.63066570900264,b,0.0,0.4552315000037197,,169.63816666700586,169.64705620899622,170.63276737500564,,,,,,,,,,,,,,,,,,,,,sub-209,1,stroop_test,,
,,,,17.0,5.0,1.0,,,,,gelb,blue,b,0.0,b,1.0,0.7296228330087615,,,,,,,,,,,,,,1.0,5.0,17.0,9.0,,,,,170.64419929200085,,,,,,,,,,,,,,,,,170.6334471250011,170.72763174999272,171.51871891699557,171.51179108400538,,,,,,,,,,,,,,,,171.51237408399174,171.51871891699557,171.51871891699557,172.2520475420024,b,1.0,0.7296228330087615,,172.25680724999984,172.2654995000048,173.25042749999557,173.2609993340011,,,,,,,,,,,,,,,,,,,,sub-209,1,stroop_test,,
,,,,18.0,6.0,1.0,,,,,blau,red,r,0.0,r,1.0,0.8182758340117289,,,,,,,,,,,,,,1.0,6.0,18.0,4.0,,,,,173.2609993340011,,,,,,,,,,,,,,,,,173.2508333339938,173.3505385000026,174.16100829199422,174.1339019589941,,,,,,,,,,,,,,,,174.1376332499931,174.16100829199422,174.16100829199422,174.98473762499634,r,1.0,0.8182758340117289,,174.98553491699568,174.99579179199645,175.98335724999197,175.9941487920005,,,,,,,,,,,,,,,,,,,,sub-209,1,stroop_test,,
,,,,19.0,7.0,1.0,,,,,rot,red,r,1.0,r,1.0,0.5545424580050167,,,,,,,,,,,,,,1.0,7.0,19.0,1.0,,,,,175.9941487920005,,,,,,,,,,,,,,,,,175.98376375000225,176.08386400000018,176.8899260420003,176.87823770899558,,,,,,,,,,,,,,,,176.8827824589971,176.8899260420003,176.8899260420003,177.4469771669974,r,1.0,0.5545424580050167,,177.44797399999516,177.45697337499587,178.44488125000498,178.45001995899656,,,,,,,,,,,,,,,,,,,,sub-209,1,stroop_test,,
,,,,20.0,8.0,1.0,,,,,gelb,yellow,g,1.0,g,1.0,0.6284540409978945,,,,,,,,,,,,,,1.0,8.0,20.0,10.0,,,,,178.45001995899656,,,,,,,,,,,,,,,,,178.44543320899538,178.7942464999942,179.58983687500586,179.5784060839942,,,,,,,,,,,,,,,,179.58308720900095,179.58983687500586,179.58983687500586,180.2294511249929,g,1.0,0.6284540409978945,,180.23028537500068,180.24111745899427,181.2283367089985,181.23345712499577,,,,,,,,,,,,,,,,,,,,sub-209,1,stroop_test,,
,,,,21.0,9.0,1.0,,,,,blau,blue,b,1.0,b,1.0,0.4995723340107361,,,,,,,,,,,,,,1.0,9.0,21.0,6.0,,,,,181.23345712499577,,,,,,,,,,,,,,,,,181.22887833400452,181.32767062500352,182.1236648339982,182.11172416699992,,,,,,,,,,,,,,,,182.117355209004,182.1236648339982,182.1236648339982,182.6294959999941,b,1.0,0.4995723340107361,,182.6303218749963,182.64114841699484,183.6283763340034,183.63348520899308,,,,,,,,,,,,,,,,,,,,sub-209,1,stroop_test,,
,,,,22.0,10.0,1.0,,,,,rot,yellow,g,0.0,g,1.0,0.989070499999798,,,,,,,,,,,,,,1.0,10.0,22.0,3.0,,,,,183.63348520899308,,,,,,,,,,,,,,,,,183.62889479199657,183.7273504170007,184.52362095899295,184.51181820899365,,,,,,,,,,,,,,,,184.51676258399675,184.52362095899295,184.52362095899295,185.5180298750056,g,1.0,0.989070499999798,,185.51874595899423,185.52928220899776,186.51725224999245,186.5275153749972,,,,,,,,,,,,,,,,,,,,sub-209,1,stroop_test,,
,,,,23.0,11.0,1.0,,,,,gelb,red,r,0.0,r,1.0,0.5314068750012666,,,,,,,,,,,,,,1.0,11.0,23.0,8.0,,,,,186.5275153749972,,,,,,,,,,,,,,,,,186.5176470419974,187.71653854199397,188.5100518749969,188.49972749999145,,,,,,,,,,,,,,,,188.50344670900083,188.5100518749969,188.5100518749969,189.04607654199933,r,1.0,0.5314068750012666,,189.04690849999315,189.0572862090048,190.04485370899783,190.05179858399788,,,,,,,,,,,,,,,,,,,,sub-209,1,stroop_test,,
,,,,,,,,,,,,,,,,,,,,,,,,,,,,,,,,,,,,,,,,,,,,,,,,,,,,,,,,,,,,,,,,,,,,,,,,,,,,,,,,,,,,,,,190.04502462499656,190.05179858399788,190.05179858399788,193.31288475000477,space,3.2530451659986284,,,,,,,,,,,,,,sub-209,1,stroop_test,,
,,,,0.0,0.0,0.0,,,,,,,,,,,,,rot,red,r,1.0,r,1.0,0.5857904580043396,,,,,,,,,,0.0,0.0,0.0,0.0,193.3380391249957,,,,,,,,,,,,,,,,,193.33025083399843,193.6597467919928,194.4537427920004,194.44474191700283,,,,,,,,,,,,,,,,,,,,,,,,,,,,,,,,,,,194.44815466699947,194.4537427920004,194.4537427920004,195.04616679200265,r,1.0,0.5857904580043396,,,,,,sub-209,1,stroop_test,,
,,,,1.0,1.0,0.0,,,,,,,,,,,,,gelb,yellow,g,1.0,g,1.0,0.710934166010702,,,,,,,,,,0.0,1.0,1.0,10.0,195.05745595900223,,,,,,,,,,,,,,,,,195.04699558399443,195.39370612500352,196.1888510419958,196.1780312089977,,,,,,,,,,,,,,,,,,,,,,,,,,,,,,,,,,,196.1822440840042,196.1888510419958,196.1888510419958,196.9019168340019,g,1.0,0.710934166010702,,,,,,sub-209,1,stroop_test,,
,,,,2.0,2.0,0.0,,,,,,,,,,,,,blau,blue,b,1.0,b,1.0,0.3859737090097042,,,,,,,,,,0.0,2.0,2.0,6.0,196.91279750000103,,,,,,,,,,,,,,,,,196.90257833400392,198.0991968339949,198.8932702500024,198.88238554200507,,,,,,,,,,,,,,,,,,,,,,,,,,,,,,,,,,,198.8868250420055,198.8932702500024,198.8932702500024,199.2845456249925,b,1.0,0.3859737090097042,,,,,,sub-209,1,stroop_test,,
,,,,3.0,3.0,0.0,,,,,,,,,,,,,rot,yellow,g,0.0,r,0.0,0.6120706249930663,,,,,,,,,,0.0,3.0,3.0,3.0,199.2956822499982,,,,,,,,,,,,,,,,,199.2850999999937,200.48282620900136,201.27684345899613,201.2666141249938,,,,,,,,,,,,,,,,,,,,,,,,,,,,,,,,,,,201.27023279199784,201.27684345899613,201.27684345899613,201.89612720899456,r,0.0,0.6120706249930663,,,,,,sub-209,1,stroop_test,,
,,,,4.0,4.0,0.0,,,,,,,,,,,,,blau,red,r,0.0,r,1.0,1.2729679999902146,,,,,,,,,,0.0,4.0,4.0,4.0,201.90637570900435,,,,,,,,,,,,,,,,,201.8968887499941,201.9941808750009,202.78866158399612,202.77804325000037,,,,,,,,,,,,,,,,,,,,,,,,,,,,,,,,,,,202.7822555419989,202.78866158399612,202.78866158399612,204.07260987500197,r,1.0,1.2729679999902146,,,,,,sub-209,1,stroop_test,,
,,,,5.0,5.0,0.0,,,,,,,,,,,,,gelb,blue,b,0.0,b,1.0,0.765339874997153,,,,,,,,,,0.0,5.0,5.0,9.0,204.09395479199884,,,,,,,,,,,,,,,,,204.073124417002,204.41654929200013,205.2099460419995,205.199958792,,,,,,,,,,,,,,,,,,,,,,,,,,,,,,,,,,,205.20359458400344,205.2099460419995,205.2099460419995,205.97944354200445,b,1.0,0.765339874997153,,,,,,sub-209,1,stroop_test,,
,,,,6.0,6.0,0.0,,,,,,,,,,,,,gelb,red,r,0.0,r,1.0,0.92854000000807,,,,,,,,,,0.0,6.0,6.0,8.0,205.9896359169943,,,,,,,,,,,,,,,,,205.98009224999987,207.1774940839969,207.96852854199824,207.96122533400197,,,,,,,,,,,,,,,,,,,,,,,,,,,,,,,,,,,207.9620359590044,207.96852854199824,207.96852854199824,208.9008894169965,r,1.0,0.92854000000807,,,,,,sub-209,1,stroop_test,,
,,,,7.0,7.0,0.0,,,,,,,,,,,,,rot,red,r,1.0,r,1.0,0.5824297910003224,,,,,,,,,,0.0,7.0,7.0,1.0,208.92719870900328,,,,,,,,,,,,,,,,,208.90148512499584,210.09856254199985,210.8929770419927,210.88270245899912,,,,,,,,,,,,,,,,,,,,,,,,,,,,,,,,,,,210.88628533399609,210.8929770419927,210.8929770419927,211.4789434169943,r,1.0,0.5824297910003224,,,,,,sub-209,1,stroop_test,,
,,,,8.0,8.0,0.0,,,,,,,,,,,,,blau,blue,b,1.0,b,1.0,0.5744067499908851,,,,,,,,,,0.0,8.0,8.0,5.0,211.48911370900169,,,,,,,,,,,,,,,,,211.47953475000395,211.57755916699531,212.3724547500024,212.36148162500467,,,,,,,,,,,,,,,,,,,,,,,,,,,,,,,,,,,212.3654701670021,212.3724547500024,212.3724547500024,212.9508499999938,b,1.0,0.5744067499908851,,,,,,sub-209,1,stroop_test,,
,,,,9.0,9.0,0.0,,,,,,,,,,,,,blau,yellow,g,0.0,g,1.0,1.4026417919958476,,,,,,,,,,0.0,9.0,9.0,7.0,212.96050041700076,,,,,,,,,,,,,,,,,212.95140541699948,214.14986579200195,214.9436879169953,214.93320183399192,,,,,,,,,,,,,,,,,,,,,,,,,,,,,,,,,,,214.93376625000383,214.9436879169953,214.9436879169953,216.35125104199687,g,1.0,1.4026417919958476,,,,,,sub-209,1,stroop_test,,
,,,,10.0,10.0,0.0,,,,,,,,,,,,,rot,blue,b,0.0,b,1.0,1.2386255840101512,,,,,,,,,,0.0,10.0,10.0,2.0,216.3771698339988,,,,,,,,,,,,,,,,,216.35181445900523,217.1494680839969,217.94583070899532,217.9333559999941,,,,,,,,,,,,,,,,,,,,,,,,,,,,,,,,,,,217.9385146249988,217.94583070899532,217.94583070899532,219.2124641249975,b,1.0,1.2386255840101512,,,,,,sub-209,1,stroop_test,,
,,,,11.0,11.0,0.0,,,,,,,,,,,,,gelb,yellow,g,1.0,g,1.0,0.7565878329914995,,,,,,,,,,0.0,11.0,11.0,11.0,219.22702904199832,,,,,,,,,,,,,,,,,219.2131905839924,219.309691167,220.1047463339928,220.09438354200392,,,,,,,,,,,,,,,,,,,,,,,,,,,,,,,,,,,220.0981268750038,220.1047463339928,220.1047463339928,220.872707292001,g,1.0,0.7565878329914995,,,,,,sub-209,1,stroop_test,,
,,,,12.0,0.0,1.0,,,,,,,,,,,,,gelb,yellow,g,1.0,g,1.0,0.6769072089955444,,,,,,,,,,1.0,0.0,12.0,11.0,220.8937480839959,,,,,,,,,,,,,,,,,220.8731708340056,221.2160839169956,222.01039987499823,221.99927287499304,,,,,,,,,,,,,,,,,,,,,,,,,,,,,,,,,,,221.99987658399917,222.01039987499823,222.01039987499823,222.69575845899817,g,1.0,0.6769072089955444,,,,,,sub-209,1,stroop_test,,
,,,,13.0,1.0,1.0,,,,,,,,,,,,,blau,yellow,g,0.0,g,1.0,0.8023769589926815,,,,,,,,,,1.0,1.0,13.0,7.0,222.70519020900247,,,,,,,,,,,,,,,,,222.6962971250032,223.8936970420036,224.68903945900087,224.6778093750036,,,,,,,,,,,,,,,,,,,,,,,,,,,,,,,,,,,224.68221558400543,224.68903945900087,224.68903945900087,225.4957558750029,g,1.0,0.8023769589926815,,,,,,sub-209,1,stroop_test,,
,,,,14.0,2.0,1.0,,,,,,,,,,,,,rot,blue,b,0.0,r,0.0,0.8586228330095764,,,,,,,,,,1.0,2.0,14.0,2.0,225.5058019589924,,,,,,,,,,,,,,,,,225.49644074999375,225.59371695900336,226.3873203749972,226.37769958400168,,,,,,,,,,,,,,,,,,,,,,,,,,,,,,,,,,,226.3810959169932,226.3873203749972,226.3873203749972,227.2513294999953,r,0.0,0.8586228330095764,,,,,,sub-209,1,stroop_test,,
,,,,15.0,3.0,1.0,,,,,,,,,,,,,rot,red,r,1.0,r,1.0,1.7152332080004271,,,,,,,,,,1.0,3.0,15.0,1.0,227.2619939169963,,,,,,,,,,,,,,,,,227.2518823339924,228.4493861249939,229.25178533399597,229.2444447089947,,,,,,,,,,,,,,,,,,,,,,,,,,,,,,,,,,,229.2451875419938,229.25178533399597,229.25178533399597,230.9791142920003,r,1.0,1.7152332080004271,,,,,,sub-209,1,stroop_test,,
,,,,16.0,4.0,1.0,,,,,,,,,,,,,rot,yellow,g,0.0,g,1.0,0.961158334001084,,,,,,,,,,1.0,4.0,16.0,3.0,230.98983345899612,,,,,,,,,,,,,,,,,230.97984270899903,231.0770013750007,231.8677179590013,231.8610742919991,,,,,,,,,,,,,,,,,,,,,,,,,,,,,,,,,,,231.86168262499268,231.8677179590013,231.8677179590013,232.8343307920004,g,1.0,0.961158334001084,,,,,,sub-209,1,stroop_test,,
,,,,17.0,5.0,1.0,,,,,,,,,,,,,blau,blue,b,1.0,b,1.0,0.9451426250016084,,,,,,,,,,1.0,5.0,17.0,5.0,232.84550304200093,,,,,,,,,,,,,,,,,232.83490179199725,232.9322622920008,233.72653054200052,233.71634458399785,,,,,,,,,,,,,,,,,,,,,,,,,,,,,,,,,,,233.720119916994,233.72653054200052,233.72653054200052,234.67925958399428,b,1.0,0.9451426250016084,,,,,,sub-209,1,stroop_test,,
,,,,18.0,6.0,1.0,,,,,,,,,,,,,gelb,blue,b,0.0,b,1.0,0.5632162089896156,,,,,,,,,,1.0,6.0,18.0,9.0,234.6900967919937,,,,,,,,,,,,,,,,,234.67996245900576,235.02681949999533,235.82175695900517,235.81108916699304,,,,,,,,,,,,,,,,,,,,,,,,,,,,,,,,,,,235.8152564589982,235.82175695900517,235.82175695900517,236.395561708996,b,1.0,0.5632162089896156,,,,,,sub-209,1,stroop_test,,
,,,,19.0,7.0,1.0,,,,,,,,,,,,,gelb,yellow,g,1.0,g,1.0,0.5795769999967888,,,,,,,,,,1.0,7.0,19.0,10.0,236.4048048340046,,,,,,,,,,,,,,,,,236.3961421669956,237.59367866699176,238.3856167920021,238.37782487500223,,,,,,,,,,,,,,,,,,,,,,,,,,,,,,,,,,,238.37864345900016,238.3856167920021,238.3856167920021,238.96764437499223,g,1.0,0.5795769999967888,,,,,,sub-209,1,stroop_test,,
,,,,20.0,8.0,1.0,,,,,,,,,,,,,gelb,red,r,0.0,r,1.0,0.8993623749993276,,,,,,,,,,1.0,8.0,20.0,8.0,238.9764821249992,,,,,,,,,,,,,,,,,238.9681135839928,239.3169804999925,240.11827808400267,240.1111985000025,,,,,,,,,,,,,,,,,,,,,,,,,,,,,,,,,,,240.11197899999388,240.11827808400267,240.11827808400267,241.02919704199303,r,1.0,0.8993623749993276,,,,,,sub-209,1,stroop_test,,
,,,,21.0,9.0,1.0,,,,,,,,,,,,,rot,red,r,1.0,r,1.0,0.4881802500021877,,,,,,,,,,1.0,9.0,21.0,0.0,241.03867508399708,,,,,,,,,,,,,,,,,241.02986212499675,242.2271289170021,243.02362820900453,243.0111129589932,,,,,,,,,,,,,,,,,,,,,,,,,,,,,,,,,,,243.0167655419937,243.02362820900453,243.02362820900453,243.5222706249915,r,1.0,0.4881802500021877,,,,,,sub-209,1,stroop_test,,
,,,,22.0,10.0,1.0,,,,,,,,,,,,,blau,red,r,0.0,r,1.0,0.404545124998549,,,,,,,,,,1.0,10.0,22.0,4.0,243.5436634170037,,,,,,,,,,,,,,,,,243.52277174999472,243.8648612090037,244.65986679200432,244.6497930839978,,,,,,,,,,,,,,,,,,,,,,,,,,,,,,,,,,,244.6534633340052,244.65986679200432,244.65986679200432,245.06833445899247,r,1.0,0.404545124998549,,,,,,sub-209,1,stroop_test,,
,,,,23.0,11.0,1.0,,,,,,,,,,,,,blau,blue,b,1.0,b,1.0,0.5811923330038553,,,,,,,,,,1.0,11.0,23.0,6.0,245.0789579169941,,,,,,,,,,,,,,,,,245.06890216699685,246.2660947090044,247.06020945899945,247.04948583399528,,,,,,,,,,,,,,,,,,,,,,,,,,,,,,,,,,,247.0500675420044,247.06020945899945,247.06020945899945,247.64598970899533,b,1.0,0.5811923330038553,,,,,,sub-209,1,stroop_test,,
,,,,24.0,0.0,2.0,,,,,,,,,,,,,rot,red,r,1.0,r,1.0,0.7054088750010123,,,,,,,,,,2.0,0.0,24.0,1.0,247.65579829200576,,,,,,,,,,,,,,,,,247.64670133400068,248.84352604199373,249.6391745419969,249.6277224170044,,,,,,,,,,,,,,,,,,,,,,,,,,,,,,,,,,,249.63223579199985,249.6391745419969,249.6391745419969,250.355534250004,r,1.0,0.7054088750010123,,,,,,sub-209,1,stroop_test,,
,,,,25.0,1.0,2.0,,,,,,,,,,,,,rot,yellow,g,0.0,g,1.0,0.50105279199488,,,,,,,,,,2.0,1.0,25.0,3.0,250.37714545900235,,,,,,,,,,,,,,,,,250.35610704199644,250.6991743749968,251.4936577920016,251.4829555000033,,,,,,,,,,,,,,,,,,,,,,,,,,,,,,,,,,,251.4835527090036,251.4936577920016,251.4936577920016,252.00752883400128,g,1.0,0.50105279199488,,,,,,sub-209,1,stroop_test,,
,,,,26.0,2.0,2.0,,,,,,,,,,,,,gelb,yellow,g,1.0,g,1.0,0.5187331659981282,,,,,,,,,,2.0,2.0,26.0,10.0,252.0113448750053,,,,,,,,,,,,,,,,,252.0079689169943,252.34909295900437,253.1428445420024,253.13261783399503,,,,,,,,,,,,,,,,,,,,,,,,,,,,,,,,,,,253.13636904199663,253.1428445420024,253.1428445420024,253.67251895899244,g,1.0,0.5187331659981282,,,,,,sub-209,1,stroop_test,,
,,,,27.0,3.0,2.0,,,,,,,,,,,,,gelb,yellow,g,1.0,g,1.0,0.3852292910014512,,,,,,,,,,2.0,3.0,27.0,11.0,253.67880120899645,,,,,,,,,,,,,,,,,253.67314899999477,254.0159592090058,254.81006483400412,254.799917833996,,,,,,,,,,,,,,,,,,,,,,,,,,,,,,,,,,,254.80052012500528,254.81006483400412,254.81006483400412,255.20061066700143,g,1.0,0.3852292910014512,,,,,,sub-209,1,stroop_test,,
,,,,28.0,4.0,2.0,,,,,,,,,,,,,gelb,red,r,0.0,r,1.0,1.0131671670096694,,,,,,,,,,2.0,4.0,28.0,8.0,255.20994983399575,,,,,,,,,,,,,,,,,255.20116754199265,255.5491954589961,256.3435338749987,256.3329153340019,,,,,,,,,,,,,,,,,,,,,,,,,,,,,,,,,,,256.3335234169936,256.3435338749987,256.3435338749987,257.36243816699425,r,1.0,1.0131671670096694,,,,,,sub-209,1,stroop_test,,
,,,,29.0,5.0,2.0,,,,,,,,,,,,,blau,blue,b,1.0,b,1.0,1.40617887499684,,,,,,,,,,2.0,5.0,29.0,6.0,257.37209116699523,,,,,,,,,,,,,,,,,257.36316150000494,258.560199708998,259.3558144169947,259.3444743750006,,,,,,,,,,,,,,,,,,,,,,,,,,,,,,,,,,,259.3492765419942,259.3558144169947,259.3558144169947,260.7675558339979,b,1.0,1.40617887499684,,,,,,sub-209,1,stroop_test,,
,,,,30.0,6.0,2.0,,,,,,,,,,,,,gelb,blue,b,0.0,b,1.0,0.5466481670009671,,,,,,,,,,2.0,6.0,30.0,9.0,260.7937451250036,,,,,,,,,,,,,,,,,260.7681307089952,261.96608795899374,262.7725122499978,262.76110137499927,,,,,,,,,,,,,,,,,,,,,,,,,,,,,,,,,,,262.7656718749932,262.7725122499978,262.7725122499978,263.3288630839961,b,1.0,0.5466481670009671,,,,,,sub-209,1,stroop_test,,
,,,,31.0,7.0,2.0,,,,,,,,,,,,,blau,yellow,g,0.0,g,1.0,1.0813906249968568,,,,,,,,,,2.0,7.0,31.0,7.0,263.3387293749984,,,,,,,,,,,,,,,,,263.32955854199827,264.12681512499694,264.9234044170007,264.9110740000033,,,,,,,,,,,,,,,,,,,,,,,,,,,,,,,,,,,264.91677654199884,264.9234044170007,264.9234044170007,266.0122812500049,g,1.0,1.0813906249968568,,,,,,sub-209,1,stroop_test,,
,,,,32.0,8.0,2.0,,,,,,,,,,,,,blau,blue,b,1.0,b,1.0,1.1328121249971446,,,,,,,,,,2.0,8.0,32.0,5.0,266.0222877089982,,,,,,,,,,,,,,,,,266.0129610000004,266.1102294169977,266.90131237500464,266.8942545839964,,,,,,,,,,,,,,,,,,,,,,,,,,,,,,,,,,,266.8948832919996,266.90131237500464,266.90131237500464,268.0454343750025,b,1.0,1.1328121249971446,,,,,,sub-209,1,stroop_test,,
,,,,33.0,9.0,2.0,,,,,,,,,,,,,blau,red,r,0.0,r,1.0,0.738813999996637,,,,,,,,,,2.0,9.0,33.0,4.0,268.05526508399635,,,,,,,,,,,,,,,,,268.0460229589953,268.1434830840008,268.9349348340038,268.92752024999936,,,,,,,,,,,,,,,,,,,,,,,,,,,,,,,,,,,268.9282968750049,268.9349348340038,268.9349348340038,269.6794404999964,r,1.0,0.738813999996637,,,,,,sub-209,1,stroop_test,,
,,,,34.0,10.0,2.0,,,,,,,,,,,,,rot,red,r,1.0,r,1.0,0.5474552910018247,,,,,,,,,,2.0,10.0,34.0,0.0,269.6895113339997,,,,,,,,,,,,,,,,,269.6802282919962,270.87709337500564,271.6720175840019,271.6610842090013,,,,,,,,,,,,,,,,,,,,,,,,,,,,,,,,,,,271.66527108399896,271.6720175840019,271.6720175840019,272.2286866670038,r,1.0,0.5474552910018247,,,,,,sub-209,1,stroop_test,,
,,,,35.0,11.0,2.0,,,,,,,,,,,,,rot,blue,b,0.0,b,1.0,0.8596719159977511,,,,,,,,,,2.0,11.0,35.0,2.0,272.23881475000235,,,,,,,,,,,,,,,,,272.2293700419977,272.32679037499474,273.118118583996,273.1109467089991,,,,,,,,,,,,,,,,,,,,,,,,,,,,,,,,,,,273.11171425000066,273.118118583996,273.118118583996,273.99004054200486,b,1.0,0.8596719159977511,,,,,,sub-209,1,stroop_test,,
,,,,36.0,0.0,3.0,,,,,,,,,,,,,rot,red,r,1.0,r,1.0,0.6424751250015106,,,,,,,,,,3.0,0.0,36.0,0.0,273.9951242919924,,,,,,,,,,,,,,,,,273.9904472089984,274.78240483399713,275.57564112500404,275.5673109999916,,,,,,,,,,,,,,,,,,,,,,,,,,,,,,,,,,,275.5678982919926,275.57564112500404,275.57564112500404,276.2289263339917,r,1.0,0.6424751250015106,,,,,,sub-209,1,stroop_test,,
,,,,37.0,1.0,3.0,,,,,,,,,,,,,blau,blue,b,1.0,b,1.0,0.6934489580016816,,,,,,,,,,3.0,1.0,37.0,6.0,276.23880054199253,,,,,,,,,,,,,,,,,276.22958741699404,276.3270198340033,277.12241329200333,277.11094566699467,,,,,,,,,,,,,,,,,,,,,,,,,,,,,,,,,,,277.11550791699847,277.12241329200333,277.12241329200333,277.81807695899624,b,1.0,0.6934489580016816,,,,,,sub-209,1,stroop_test,,
,,,,38.0,2.0,3.0,,,,,,,,,,,,,gelb,yellow,g,1.0,g,1.0,0.4264103329915087,,,,,,,,,,3.0,2.0,38.0,11.0,277.8289532089984,,,,,,,,,,,,,,,,,277.81882029199915,278.615597875003,279.4098599999997,279.3998174169974,,,,,,,,,,,,,,,,,,,,,,,,,,,,,,,,,,,279.4035144590016,279.4098599999997,279.4098599999997,279.8454696249973,g,1.0,0.4264103329915087,,,,,,sub-209,1,stroop_test,,
,,,,39.0,3.0,3.0,,,,,,,,,,,,,gelb,yellow,g,1.0,g,1.0,0.7554796250042273,,,,,,,,,,3.0,3.0,39.0,10.0,279.8546745000058,,,,,,,,,,,,,,,,,279.8461089170014,279.9436393749929,280.73481679199904,280.7275205000042,,,,,,,,,,,,,,,,,,,,,,,,,,,,,,,,,,,280.7283184590051,280.73481679199904,280.73481679199904,281.495642666996,g,1.0,0.7554796250042273,,,,,,sub-209,1,stroop_test,,
,,,,40.0,4.0,3.0,,,,,,,,,,,,,blau,blue,b,1.0,r,0.0,0.8439249170041876,,,,,,,,,,3.0,4.0,40.0,5.0,281.505158999993,,,,,,,,,,,,,,,,,281.49638858399703,281.8432648339949,282.63940054200066,282.62810499999614,,,,,,,,,,,,,,,,,,,,,,,,,,,,,,,,,,,282.6322359170008,282.63940054200066,282.63940054200066,283.49586454199743,r,0.0,0.8439249170041876,,,,,,sub-209,1,stroop_test,,
,,,,41.0,5.0,3.0,,,,,,,,,,,,,rot,yellow,g,0.0,g,1.0,0.8276568750006845,,,,,,,,,,3.0,5.0,41.0,3.0,283.5102262089931,,,,,,,,,,,,,,,,,283.4962378749915,284.6933065839985,285.4889594999986,285.4776439589914,,,,,,,,,,,,,,,,,,,,,,,,,,,,,,,,,,,285.4821375839965,285.4889594999986,285.4889594999986,286.32876925000164,g,1.0,0.8276568750006845,,,,,,sub-209,1,stroop_test,,
,,,,42.0,6.0,3.0,,,,,,,,,,,,,blau,red,r,0.0,r,1.0,1.259657208007411,,,,,,,,,,3.0,6.0,42.0,4.0,286.33869745899574,,,,,,,,,,,,,,,,,286.3294114589953,287.12681291700574,287.923529666994,287.9108603749919,,,,,,,,,,,,,,,,,,,,,,,,,,,,,,,,,,,287.9168421670038,287.923529666994,287.923529666994,289.194217708995,r,1.0,1.259657208007411,,,,,,sub-209,1,stroop_test,,
,,,,43.0,7.0,3.0,,,,,,,,,,,,,gelb,red,r,0.0,r,1.0,0.5105743750027614,,,,,,,,,,3.0,7.0,43.0,8.0,289.19928625000466,,,,,,,,,,,,,,,,,289.1947083749983,289.53234529199835,290.32597062499553,290.3159793340019,,,,,,,,,,,,,,,,,,,,,,,,,,,,,,,,,,,290.3196750839997,290.32597062499553,290.32597062499553,290.84525487499195,r,1.0,0.5105743750027614,,,,,,sub-209,1,stroop_test,,
,,,,44.0,8.0,3.0,,,,,,,,,,,,,gelb,blue,b,0.0,b,1.0,0.6103954579884885,,,,,,,,,,3.0,8.0,44.0,9.0,290.8555788340018,,,,,,,,,,,,,,,,,290.8458571670053,291.6439430000028,292.4339690000052,292.4273104169988,,,,,,,,,,,,,,,,,,,,,,,,,,,,,,,,,,,292.42789958399953,292.4339690000052,292.4339690000052,293.05793174999417,b,1.0,0.6103954579884885,,,,,,sub-209,1,stroop_test,,
,,,,45.0,9.0,3.0,,,,,,,,,,,,,rot,blue,b,0.0,b,1.0,0.6569990419957321,,,,,,,,,,3.0,9.0,45.0,2.0,293.0622245419945,,,,,,,,,,,,,,,,,293.0583412499982,293.8491086669965,294.6428465839999,294.6325473339966,,,,,,,,,,,,,,,,,,,,,,,,,,,,,,,,,,,294.6361954169988,294.6428465839999,294.6428465839999,295.3110982920043,b,1.0,0.6569990419957321,,,,,,sub-209,1,stroop_test,,
,,,,46.0,10.0,3.0,,,,,,,,,,,,,rot,red,r,1.0,g,0.0,0.747924833005527,,,,,,,,,,3.0,10.0,46.0,1.0,295.3161756250047,,,,,,,,,,,,,,,,,295.3117517089995,296.1106641249935,296.9015962919948,296.8942381670058,,,,,,,,,,,,,,,,,,,,,,,,,,,,,,,,,,,296.8949918750004,296.9015962919948,296.9015962919948,297.6516591249965,g,0.0,0.747924833005527,,,,,,sub-209,1,stroop_test,,
,,,,47.0,11.0,3.0,,,,,,,,,,,,,blau,yellow,g,0.0,g,1.0,0.4436377910024021,,,,,,,,,,3.0,11.0,47.0,7.0,297.6626009169995,,,,,,,,,,,,,,,,,297.6524654169916,298.84866737500124,299.6427660420013,299.6325629170024,,,,,,,,,,,,,,,,,,,,,,,,,,,,,,,,,,,299.6363507920032,299.6427660420013,299.6427660420013,300.09560816700105,g,1.0,0.4436377910024021,,,,,,sub-209,1,stroop_test,,
,,,,48.0,0.0,4.0,,,,,,,,,,,,,gelb,yellow,g,1.0,g,1.0,0.3756937500002095,,,,,,,,,,4.0,0.0,48.0,11.0,300.1064210839977,,,,,,,,,,,,,,,,,300.09634537500096,300.44341333399643,301.23898508399725,301.2277843750053,,,,,,,,,,,,,,,,,,,,,,,,,,,,,,,,,,,301.23248108399275,301.23898508399725,301.23898508399725,301.61810037499527,g,1.0,0.3756937500002095,,,,,,sub-209,1,stroop_test,,
,,,,49.0,1.0,4.0,,,,,,,,,,,,,blau,red,r,0.0,r,1.0,0.9341430829954334,,,,,,,,,,4.0,1.0,49.0,4.0,301.62888541699795,,,,,,,,,,,,,,,,,301.61863399999856,302.8154711249954,303.6096954169916,303.59964362499886,,,,,,,,,,,,,,,,,,,,,,,,,,,,,,,,,,,303.6033930419944,303.6096954169916,303.6096954169916,304.5572616249992,r,1.0,0.9341430829954334,,,,,,sub-209,1,stroop_test,,
,,,,50.0,2.0,4.0,,,,,,,,,,,,,rot,blue,b,0.0,b,1.0,1.0246409170067636,,,,,,,,,,4.0,2.0,50.0,2.0,304.56092416700267,,,,,,,,,,,,,,,,,304.5576954169956,304.64829708400066,305.4453629589989,305.43291491699347,,,,,,,,,,,,,,,,,,,,,,,,,,,,,,,,,,,305.4380736250023,305.4453629589989,305.4453629589989,306.47804345899203,b,1.0,1.0246409170067636,,,,,,sub-209,1,stroop_test,,
,,,,51.0,3.0,4.0,,,,,,,,,,,,,blau,yellow,g,0.0,g,1.0,1.1924883749888977,,,,,,,,,,4.0,3.0,51.0,7.0,306.4861332089931,,,,,,,,,,,,,,,,,306.4786038750026,307.6766266250052,308.47252383400337,308.4608854169928,,,,,,,,,,,,,,,,,,,,,,,,,,,,,,,,,,,308.46554737500264,308.47252383400337,308.47252383400337,309.667621917004,g,1.0,1.1924883749888977,,,,,,sub-209,1,stroop_test,,
,,,,52.0,4.0,4.0,,,,,,,,,,,,,gelb,blue,b,0.0,b,1.0,1.0099822499905713,,,,,,,,,,4.0,4.0,52.0,9.0,309.67885770900466,,,,,,,,,,,,,,,,,309.66821745899506,310.0157547919953,310.8096232090029,310.79946237499826,,,,,,,,,,,,,,,,,,,,,,,,,,,,,,,,,,,310.8032069589972,310.8096232090029,310.8096232090029,311.8288491669955,b,1.0,1.0099822499905713,,,,,,sub-209,1,stroop_test,,
,,,,53.0,5.0,4.0,,,,,,,,,,,,,blau,blue,b,1.0,b,1.0,0.6758072090015048,,,,,,,,,,4.0,5.0,53.0,6.0,311.8396782089985,,,,,,,,,,,,,,,,,311.82956054199894,312.6265327919973,313.42112133400224,313.4104739589966,,,,,,,,,,,,,,,,,,,,,,,,,,,,,,,,,,,313.41445037499943,313.42112133400224,313.42112133400224,314.1005439169967,b,1.0,0.6758072090015048,,,,,,sub-209,1,stroop_test,,
,,,,54.0,6.0,4.0,,,,,,,,,,,,,rot,red,r,1.0,r,1.0,0.8681455839978298,,,,,,,,,,4.0,6.0,54.0,0.0,314.11181800000486,,,,,,,,,,,,,,,,,314.1011048340006,314.8993549589941,315.7099524590012,315.68278466700576,,,,,,,,,,,,,,,,,,,,,,,,,,,,,,,,,,,315.6864632920042,315.7099524590012,315.7099524590012,316.58982270899287,r,1.0,0.8681455839978298,,,,,,sub-209,1,stroop_test,,
,,,,55.0,7.0,4.0,,,,,,,,,,,,,rot,yellow,g,0.0,g,1.0,0.8950982499954989,,,,,,,,,,4.0,7.0,55.0,3.0,316.59528012499504,,,,,,,,,,,,,,,,,316.59034991699446,317.78225883399136,318.57638783399307,318.5664266249951,,,,,,,,,,,,,,,,,,,,,,,,,,,,,,,,,,,318.5669972500036,318.57638783399307,318.57638783399307,319.47855879200506,g,1.0,0.8950982499954989,,,,,,sub-209,1,stroop_test,,
,,,,56.0,8.0,4.0,,,,,,,,,,,,,blau,blue,b,1.0,b,1.0,0.5227927499945508,,,,,,,,,,4.0,8.0,56.0,5.0,319.48934916699363,,,,,,,,,,,,,,,,,319.4791504589957,319.5765418749943,320.3709415839985,320.36042270899634,,,,,,,,,,,,,,,,,,,,,,,,,,,,,,,,,,,320.3643056669971,320.3709415839985,320.3709415839985,320.9067534999922,b,1.0,0.5227927499945508,,,,,,sub-209,1,stroop_test,,
,,,,57.0,9.0,4.0,,,,,,,,,,,,,gelb,red,r,0.0,r,1.0,1.011608333006734,,,,,,,,,,4.0,9.0,57.0,8.0,320.9114011670026,,,,,,,,,,,,,,,,,320.90718179200485,321.2491431249946,322.04285829199944,322.0327124589967,,,,,,,,,,,,,,,,,,,,,,,,,,,,,,,,,,,322.03647120899404,322.04285829199944,322.04285829199944,323.0618519589916,r,1.0,1.011608333006734,,,,,,sub-209,1,stroop_test,,
,,,,58.0,10.0,4.0,,,,,,,,,,,,,rot,red,r,1.0,r,1.0,2.242335208007717,,,,,,,,,,4.0,10.0,58.0,1.0,323.0724291249935,,,,,,,,,,,,,,,,,323.06245283399767,324.2597424169944,325.0565032089944,325.0439441250055,,,,,,,,,,,,,,,,,,,,,,,,,,,,,,,,,,,325.0496737920039,325.0565032089944,325.0565032089944,327.31225854199147,r,1.0,2.242335208007717,,,,,,sub-209,1,stroop_test,,
,,,,59.0,11.0,4.0,,,,,,,,,,,,,gelb,yellow,g,1.0,b,0.0,0.6388586669927463,,,,,,,,,,4.0,11.0,59.0,10.0,327.3266285839927,,,,,,,,,,,,,,,,,327.31262899999274,328.50985345899244,329.30525145899446,329.29394370899536,,,,,,,,,,,,,,,,,,,,,,,,,,,,,,,,,,,329.29853466700297,329.30525145899446,329.30525145899446,329.9571895840054,b,0.0,0.6388586669927463,,,,,,sub-209,1,stroop_test,,
,,,,60.0,0.0,5.0,,,,,,,,,,,,,rot,red,r,1.0,r,1.0,1.520047625002917,,,,,,,,,,5.0,0.0,60.0,0.0,329.96128420899913,,,,,,,,,,,,,,,,,329.9576137499971,330.7488052499976,331.5598706250021,331.5328597500047,,,,,,,,,,,,,,,,,,,,,,,,,,,,,,,,,,,331.5366002499941,331.5598706250021,331.5598706250021,333.0837519170018,r,1.0,1.520047625002917,,,,,,sub-209,1,stroop_test,,
,,,,61.0,1.0,5.0,,,,,,,,,,,,,blau,blue,b,1.0,b,1.0,0.6630798330006655,,,,,,,,,,5.0,1.0,61.0,6.0,333.10977754200576,,,,,,,,,,,,,,,,,333.08424291700067,333.88245783399907,334.6762436249992,334.666147291995,,,,,,,,,,,,,,,,,,,,,,,,,,,,,,,,,,,334.6698332919914,334.6762436249992,334.6762436249992,335.3455291249993,b,1.0,0.6630798330006655,,,,,,sub-209,1,stroop_test,,
,,,,62.0,2.0,5.0,,,,,,,,,,,,,rot,red,r,1.0,r,1.0,0.839632041999721,,,,,,,,,,5.0,2.0,62.0,1.0,335.3559452500049,,,,,,,,,,,,,,,,,335.34615791699616,336.5430267089978,337.33929575000366,337.32776854200347,,,,,,,,,,,,,,,,,,,,,,,,,,,,,,,,,,,337.3323119590059,337.33929575000366,337.33929575000366,338.18426920899947,r,1.0,0.839632041999721,,,,,,sub-209,1,stroop_test,,
,,,,63.0,3.0,5.0,,,,,,,,,,,,,gelb,yellow,g,1.0,g,1.0,0.5107834999944316,,,,,,,,,,5.0,3.0,63.0,11.0,338.1954067500046,,,,,,,,,,,,,,,,,338.1848212089972,339.3818450419931,340.17606412500027,340.16594787499344,,,,,,,,,,,,,,,,,,,,,,,,,,,,,,,,,,,340.16958099999465,340.17606412500027,340.17606412500027,340.69509645899234,g,1.0,0.5107834999944316,,,,,,sub-209,1,stroop_test,,
,,,,64.0,4.0,5.0,,,,,,,,,,,,,blau,yellow,g,0.0,g,1.0,1.0021413749927888,,,,,,,,,,5.0,4.0,64.0,7.0,340.70550358400214,,,,,,,,,,,,,,,,,340.6956456670014,340.7933497920021,341.58864995899785,341.57727804199385,,,,,,,,,,,,,,,,,,,,,,,,,,,,,,,,,,,341.5818221249938,341.58864995899785,341.58864995899785,342.59518470900366,g,1.0,1.0021413749927888,,,,,,sub-209,1,stroop_test,,
,,,,65.0,5.0,5.0,,,,,,,,,,,,,gelb,red,r,0.0,r,1.0,1.6230727079964709,,,,,,,,,,5.0,5.0,65.0,8.0,342.6056248749956,,,,,,,,,,,,,,,,,342.5957602090057,343.7931597499992,344.5924817920022,344.5774934999936,,,,,,,,,,,,,,,,,,,,,,,,,,,,,,,,,,,344.5862036250037,344.5924817920022,344.5924817920022,346.2265238340042,r,1.0,1.6230727079964709,,,,,,sub-209,1,stroop_test,,
,,,,66.0,6.0,5.0,,,,,,,,,,,,,gelb,yellow,g,1.0,g,1.0,1.7234056670131397,,,,,,,,,,5.0,6.0,66.0,10.0,346.2307806250028,,,,,,,,,,,,,,,,,346.2268961670052,346.3154788749962,347.1098016670003,347.0994052919996,,,,,,,,,,,,,,,,,,,,,,,,,,,,,,,,,,,347.09999204199994,347.1098016670003,347.1098016670003,348.84507250000024,g,1.0,1.7234056670131397,,,,,,sub-209,1,stroop_test,,
,,,,67.0,7.0,5.0,,,,,,,,,,,,,gelb,blue,b,0.0,b,1.0,0.4430921250022948,,,,,,,,,,5.0,7.0,67.0,9.0,348.8560696670029,,,,,,,,,,,,,,,,,348.8457436250028,349.19290125000407,349.984108042001,349.9770818340039,,,,,,,,,,,,,,,,,,,,,,,,,,,,,,,,,,,349.97786816699954,349.984108042001,349.984108042001,350.43022162499256,b,1.0,0.4430921250022948,,,,,,sub-209,1,stroop_test,,
,,,,68.0,8.0,5.0,,,,,,,,,,,,,blau,blue,b,1.0,b,1.0,0.7777435419993708,,,,,,,,,,5.0,8.0,68.0,5.0,350.4412969999976,,,,,,,,,,,,,,,,,350.43105162499705,351.2262121669919,352.0212698749965,352.0103467089939,,,,,,,,,,,,,,,,,,,,,,,,,,,,,,,,,,,352.01468116699834,352.0212698749965,352.0212698749965,352.80122354200284,b,1.0,0.7777435419993708,,,,,,sub-209,1,stroop_test,,
,,,,69.0,9.0,5.0,,,,,,,,,,,,,blau,red,r,0.0,r,1.0,1.218684416002361,,,,,,,,,,5.0,9.0,69.0,4.0,352.81217191700125,,,,,,,,,,,,,,,,,352.802038541995,353.14872716700484,353.94281366700307,353.9324024999951,,,,,,,,,,,,,,,,,,,,,,,,,,,,,,,,,,,353.93299404199934,353.94281366700307,353.94281366700307,355.1669181670004,r,1.0,1.218684416002361,,,,,,sub-209,1,stroop_test,,
,,,,70.0,10.0,5.0,,,,,,,,,,,,,rot,yellow,g,0.0,g,1.0,1.3787406670016935,,,,,,,,,,5.0,10.0,70.0,3.0,355.17500341699633,,,,,,,,,,,,,,,,,355.1673684999987,355.26452129200334,356.05939058399235,356.049120124997,,,,,,,,,,,,,,,,,,,,,,,,,,,,,,,,,,,356.0526507089962,356.05939058399235,356.05939058399235,357.44514654199884,g,1.0,1.3787406670016935,,,,,,sub-209,1,stroop_test,,
,,,,71.0,11.0,5.0,,,,,,,,,,,,,rot,blue,b,0.0,r,0.0,3.2069101670058444,,,,,,,,,,5.0,11.0,71.0,2.0,357.4558728340053,,,,,,,,,,,,,,,,,357.4457984589972,357.5427397089952,358.3344999999972,358.327177625004,,,,,,,,,,,,,,,,,,,,,,,,,,,,,,,,,,,358.3279184589919,358.3344999999972,358.3344999999972,361.545177958993,r,0.0,3.2069101670058444,,,,,,sub-209,1,stroop_test,,
,,,,72.0,0.0,6.0,,,,,,,,,,,,,rot,red,r,1.0,r,1.0,0.6089214160019765,,,,,,,,,,6.0,0.0,72.0,1.0,361.5554748750001,,,,,,,,,,,,,,,,,361.54586820899567,362.3429475839948,363.13477375000366,363.12740083399694,,,,,,,,,,,,,,,,,,,,,,,,,,,,,,,,,,,363.1281736669917,363.13477375000366,363.13477375000366,363.7563288340025,r,1.0,0.6089214160019765,,,,,,sub-209,1,stroop_test,,
,,,,73.0,1.0,6.0,,,,,,,,,,,,,rot,blue,b,0.0,b,1.0,1.4183549169974867,,,,,,,,,,6.0,1.0,73.0,2.0,363.7614090839925,,,,,,,,,,,,,,,,,363.75668487499934,364.94815666700015,365.74257658400165,365.7328834999935,,,,,,,,,,,,,,,,,,,,,,,,,,,,,,,,,,,365.73347537500376,365.74257658400165,365.74257658400165,367.1661612919997,b,1.0,1.4183549169974867,,,,,,sub-209,1,stroop_test,,
,,,,74.0,2.0,6.0,,,,,,,,,,,,,gelb,yellow,g,1.0,g,1.0,0.8593579589942237,,,,,,,,,,6.0,2.0,74.0,10.0,367.1749175419973,,,,,,,,,,,,,,,,,367.1666006250016,368.3653824590001,369.15899704200274,369.14881337499537,,,,,,,,,,,,,,,,,,,,,,,,,,,,,,,,,,,369.15246666700114,369.15899704200274,369.15899704200274,370.0283743750042,g,1.0,0.8593579589942237,,,,,,sub-209,1,stroop_test,,
,,,,75.0,3.0,6.0,,,,,,,,,,,,,gelb,yellow,g,1.0,g,1.0,0.5297887909982819,,,,,,,,,,6.0,3.0,75.0,11.0,370.03790970900445,,,,,,,,,,,,,,,,,370.0289983749972,370.1260926249961,370.9180836250016,370.910872374996,,,,,,,,,,,,,,,,,,,,,,,,,,,,,,,,,,,370.91165275000094,370.9180836250016,370.9180836250016,371.4501645839919,g,1.0,0.5297887909982819,,,,,,sub-209,1,stroop_test,,
,,,,76.0,4.0,6.0,,,,,,,,,,,,,gelb,red,r,0.0,r,1.0,0.7452847079985077,,,,,,,,,,6.0,4.0,76.0,8.0,371.4594663339958,,,,,,,,,,,,,,,,,371.4507019589946,372.2483840839996,373.0431847500004,373.0313767920016,,,,,,,,,,,,,,,,,,,,,,,,,,,,,,,,,,,373.03196520899655,373.0431847500004,373.0431847500004,373.7950605840015,r,1.0,0.7452847079985077,,,,,,sub-209,1,stroop_test,,
,,,,77.0,5.0,6.0,,,,,,,,,,,,,gelb,blue,b,0.0,b,1.0,0.7256975000054808,,,,,,,,,,6.0,5.0,77.0,9.0,373.80492125000455,,,,,,,,,,,,,,,,,373.7956776670035,374.142892459,374.9344261249935,374.9273028750031,,,,,,,,,,,,,,,,,,,,,,,,,,,,,,,,,,,374.92804275000526,374.9344261249935,374.9344261249935,375.6718917919934,b,1.0,0.7256975000054808,,,,,,sub-209,1,stroop_test,,
,,,,78.0,6.0,6.0,,,,,,,,,,,,,blau,yellow,g,0.0,g,1.0,1.024220208011684,,,,,,,,,,6.0,6.0,78.0,7.0,375.692896499997,,,,,,,,,,,,,,,,,375.67231087500113,376.8656460420025,377.6733190420055,377.6605728339928,,,,,,,,,,,,,,,,,,,,,,,,,,,,,,,,,,,377.6666003339924,377.6733190420055,377.6733190420055,378.7011934589973,g,1.0,1.024220208011684,,,,,,sub-209,1,stroop_test,,
,,,,79.0,7.0,6.0,,,,,,,,,,,,,blau,blue,b,1.0,b,1.0,1.3986668750003446,,,,,,,,,,6.0,7.0,79.0,6.0,378.7115345420025,,,,,,,,,,,,,,,,,378.70174262499495,379.8984873339941,380.6926449589955,380.6816939169949,,,,,,,,,,,,,,,,,,,,,,,,,,,,,,,,,,,380.68227666699386,380.6926449589955,380.6926449589955,382.0952682920033,b,1.0,1.3986668750003446,,,,,,sub-209,1,stroop_test,,
,,,,80.0,8.0,6.0,,,,,,,,,,,,,blau,blue,b,1.0,b,1.0,0.6399077079986455,,,,,,,,,,6.0,8.0,80.0,5.0,382.10519320900494,,,,,,,,,,,,,,,,,382.0959130840056,382.1916992089973,382.9844714589999,382.97734508400026,,,,,,,,,,,,,,,,,,,,,,,,,,,,,,,,,,,382.9781043749972,382.9844714589999,382.9844714589999,383.6285387499957,b,1.0,0.6399077079986455,,,,,,sub-209,1,stroop_test,,
,,,,81.0,9.0,6.0,,,,,,,,,,,,,rot,yellow,g,0.0,g,1.0,1.9104395000031216,,,,,,,,,,6.0,9.0,81.0,3.0,383.63865541700216,,,,,,,,,,,,,,,,,383.6292720420024,384.8259817920043,385.6213416249957,385.6104455839959,,,,,,,,,,,,,,,,,,,,,,,,,,,,,,,,,,,385.6143925840006,385.6213416249957,385.6213416249957,387.5339256669977,g,1.0,1.9104395000031216,,,,,,sub-209,1,stroop_test,,
,,,,82.0,10.0,6.0,,,,,,,,,,,,,blau,red,r,0.0,r,1.0,1.5191212909994647,,,,,,,,,,6.0,10.0,82.0,4.0,387.5446955840016,,,,,,,,,,,,,,,,,387.5346064170008,387.88169995900535,388.6749491249939,388.664673709005,,,,,,,,,,,,,,,,,,,,,,,,,,,,,,,,,,,388.668335209004,388.6749491249939,388.6749491249939,390.205095583995,r,1.0,1.5191212909994647,,,,,,sub-209,1,stroop_test,,
,,,,83.0,11.0,6.0,,,,,,,,,,,,,rot,red,r,1.0,r,1.0,1.8358840419969056,,,,,,,,,,6.0,11.0,83.0,0.0,390.2111102500057,,,,,,,,,,,,,,,,,390.2055974999967,390.2980897499947,391.0923119170038,391.0819054169988,,,,,,,,,,,,,,,,,,,,,,,,,,,,,,,,,,,391.08555004200025,391.0923119170038,391.0923119170038,392.93389816700073,r,1.0,1.8358840419969056,,,,,,sub-209,1,stroop_test,,
,,,,84.0,0.0,7.0,,,,,,,,,,,,,rot,yellow,g,0.0,g,1.0,0.727693332999479,,,,,,,,,,7.0,0.0,84.0,3.0,392.9446647919976,,,,,,,,,,,,,,,,,392.9344730000012,393.7311062090012,394.5259679589944,394.51581091700064,,,,,,,,,,,,,,,,,,,,,,,,,,,,,,,,,,,394.51638904199353,394.5259679589944,394.5259679589944,395.2617654589994,g,1.0,0.727693332999479,,,,,,sub-209,1,stroop_test,,
,,,,85.0,1.0,7.0,,,,,,,,,,,,,gelb,yellow,g,1.0,g,1.0,0.5663862910005264,,,,,,,,,,7.0,1.0,85.0,11.0,395.2719597499963,,,,,,,,,,,,,,,,,395.2624862920056,395.35978220899415,396.1548547499988,396.143822041995,,,,,,,,,,,,,,,,,,,,,,,,,,,,,,,,,,,396.1482414999919,396.1548547499988,396.1548547499988,396.72812716699264,g,1.0,0.5663862910005264,,,,,,sub-209,1,stroop_test,,
,,,,86.0,2.0,7.0,,,,,,,,,,,,,rot,blue,b,0.0,b,1.0,0.5362302499997895,,,,,,,,,,7.0,2.0,86.0,2.0,396.7383635839942,,,,,,,,,,,,,,,,,396.7288015420054,397.5259292499977,398.3219198339939,398.3104505420051,,,,,,,,,,,,,,,,,,,,,,,,,,,,,,,,,,,398.3150006249925,398.3219198339939,398.3219198339939,398.8615589169931,b,1.0,0.5362302499997895,,,,,,sub-209,1,stroop_test,,
,,,,87.0,3.0,7.0,,,,,,,,,,,,,blau,blue,b,1.0,r,0.0,3.2378799169964623,,,,,,,,,,7.0,3.0,87.0,6.0,398.8716591669945,,,,,,,,,,,,,,,,,398.862205708996,400.0594275420008,400.8555042090011,400.8433446669951,,,,,,,,,,,,,,,,,,,,,,,,,,,,,,,,,,,400.8490489169926,400.8555042090011,400.8555042090011,404.1050357089989,r,0.0,3.2378799169964623,,,,,,sub-209,1,stroop_test,,
,,,,88.0,4.0,7.0,,,,,,,,,,,,,blau,red,r,0.0,r,1.0,1.2679171249910723,,,,,,,,,,7.0,4.0,88.0,4.0,404.12606691700057,,,,,,,,,,,,,,,,,404.105480667,404.8984574589995,405.6926072920032,405.682133209004,,,,,,,,,,,,,,,,,,,,,,,,,,,,,,,,,,,405.6827078749921,405.6926072920032,405.6926072920032,406.9718151249981,r,1.0,1.2679171249910723,,,,,,sub-209,1,stroop_test,,
,,,,89.0,5.0,7.0,,,,,,,,,,,,,rot,red,r,1.0,r,1.0,0.6889502919948427,,,,,,,,,,7.0,5.0,89.0,1.0,406.9777579999936,,,,,,,,,,,,,,,,,406.97228841700417,407.765206666998,408.5615054590016,408.5495743749925,,,,,,,,,,,,,,,,,,,,,,,,,,,,,,,,,,,408.5534096670017,408.5615054590016,408.5615054590016,409.2617595000047,r,1.0,0.6889502919948427,,,,,,sub-209,1,stroop_test,,
,,,,90.0,6.0,7.0,,,,,,,,,,,,,rot,red,r,1.0,r,1.0,0.5875014160119463,,,,,,,,,,7.0,6.0,90.0,0.0,409.2715901250049,,,,,,,,,,,,,,,,,409.26247225000407,410.0596727499942,410.8502156250033,410.8433848749992,,,,,,,,,,,,,,,,,,,,,,,,,,,,,,,,,,,410.8440151249961,410.8502156250033,410.8502156250033,411.4447932920011,r,1.0,0.5875014160119463,,,,,,sub-209,1,stroop_test,,
,,,,91.0,7.0,7.0,,,,,,,,,,,,,blau,yellow,g,0.0,g,1.0,1.0982646659977036,,,,,,,,,,7.0,7.0,91.0,7.0,411.45503095899767,,,,,,,,,,,,,,,,,411.4454585420026,411.5420773749938,412.3386829999945,412.32722620900313,,,,,,,,,,,,,,,,,,,,,,,,,,,,,,,,,,,412.3320590420044,412.3386829999945,412.3386829999945,413.4444918340014,g,1.0,1.0982646659977036,,,,,,sub-209,1,stroop_test,,
,,,,92.0,8.0,7.0,,,,,,,,,,,,,blau,blue,b,1.0,b,1.0,0.8121580000006361,,,,,,,,,,7.0,8.0,92.0,5.0,413.45453654200537,,,,,,,,,,,,,,,,,413.44506741699297,413.7926458750008,414.5837069590052,414.5768697089952,,,,,,,,,,,,,,,,,,,,,,,,,,,,,,,,,,,414.5775609590055,414.5837069590052,414.5837069590052,415.4004506670026,b,1.0,0.8121580000006361,,,,,,sub-209,1,stroop_test,,
,,,,93.0,9.0,7.0,,,,,,,,,,,,,gelb,blue,b,0.0,b,1.0,1.2294331659941236,,,,,,,,,,7.0,9.0,93.0,9.0,415.41111987500335,,,,,,,,,,,,,,,,,415.4009760000045,415.7485528749967,416.5425848750019,416.5322026249924,,,,,,,,,,,,,,,,,,,,,,,,,,,,,,,,,,,416.5357090000034,416.5425848750019,416.5425848750019,417.7785109169927,b,1.0,1.2294331659941236,,,,,,sub-209,1,stroop_test,,
,,,,94.0,10.0,7.0,,,,,,,,,,,,,gelb,red,r,0.0,r,1.0,2.126001458003884,,,,,,,,,,7.0,10.0,94.0,8.0,417.7881378750026,,,,,,,,,,,,,,,,,417.77928649999376,418.12576825,418.91749116699793,418.9103472089919,,,,,,,,,,,,,,,,,,,,,,,,,,,,,,,,,,,418.911113833994,418.91749116699793,418.91749116699793,421.0558357499976,r,1.0,2.126001458003884,,,,,,sub-209,1,stroop_test,,
,,,,95.0,11.0,7.0,,,,,,,,,,,,,gelb,yellow,g,1.0,g,1.0,1.874928334000288,,,,,,,,,,7.0,11.0,95.0,10.0,421.0610534169973,,,,,,,,,,,,,,,,,421.05623945899424,421.84842195900274,422.6429539590026,422.63177545899816,,,,,,,,,,,,,,,,,,,,,,,,,,,,,,,,,,,422.6323919169954,422.6429539590026,422.6429539590026,424.528313584,g,1.0,1.874928334000288,,,,,,sub-209,1,stroop_test,,
,,,,96.0,0.0,8.0,,,,,,,,,,,,,gelb,red,r,0.0,r,1.0,4.125686625004164,,,,,,,,,,8.0,0.0,96.0,8.0,424.5385998749989,,,,,,,,,,,,,,,,,424.5290563750023,424.87628320899967,425.66754037499777,425.6601259169984,,,,,,,,,,,,,,,,,,,,,,,,,,,,,,,,,,,425.6609168339928,425.66754037499777,425.66754037499777,429.80590854199545,r,1.0,4.125686625004164,,,,,,sub-209,1,stroop_test,,
,,,,97.0,1.0,8.0,,,,,,,,,,,,,rot,red,r,1.0,r,1.0,0.6945879580016481,,,,,,,,,,8.0,1.0,97.0,1.0,429.81110179200186,,,,,,,,,,,,,,,,,429.80634866699984,430.5975345420011,431.3946463750035,431.3827691250044,,,,,,,,,,,,,,,,,,,,,,,,,,,,,,,,,,,431.3865544169967,431.3946463750035,431.3946463750035,432.0944182499952,r,1.0,0.6945879580016481,,,,,,sub-209,1,stroop_test,,
,,,,98.0,2.0,8.0,,,,,,,,,,,,,blau,blue,b,1.0,b,1.0,0.6441964999976335,,,,,,,,,,8.0,2.0,98.0,5.0,432.1032251249999,,,,,,,,,,,,,,,,,432.0949561669986,432.8923842499935,433.6893161670014,433.67679324999335,,,,,,,,,,,,,,,,,,,,,,,,,,,,,,,,,,,433.68268970899226,433.6893161670014,433.6893161670014,434.34433095899294,b,1.0,0.6441964999976335,,,,,,sub-209,1,stroop_test,,
,,,,99.0,3.0,8.0,,,,,,,,,,,,,blau,blue,b,1.0,b,1.0,1.1328400000056718,,,,,,,,,,8.0,3.0,99.0,6.0,434.3516450839961,,,,,,,,,,,,,,,,,434.3446975840052,435.5424373749993,436.333291834002,436.3266304999997,,,,,,,,,,,,,,,,,,,,,,,,,,,,,,,,,,,436.3272561670019,436.333291834002,436.333291834002,437.4774932089931,b,1.0,1.1328400000056718,,,,,,sub-209,1,stroop_test,,
,,,,100.0,4.0,8.0,,,,,,,,,,,,,gelb,yellow,g,1.0,g,1.0,1.1892575410020072,,,,,,,,,,8.0,4.0,100.0,11.0,437.4853906249919,,,,,,,,,,,,,,,,,437.47797758399975,438.6761295000033,439.4711057499953,439.4600456670014,,,,,,,,,,,,,,,,,,,,,,,,,,,,,,,,,,,439.46407887499663,439.4711057499953,439.4711057499953,440.67167333399993,g,1.0,1.1892575410020072,,,,,,sub-209,1,stroop_test,,
,,,,101.0,5.0,8.0,,,,,,,,,,,,,blau,red,r,0.0,r,1.0,0.8042884999886155,,,,,,,,,,8.0,5.0,101.0,4.0,440.67763799999375,,,,,,,,,,,,,,,,,440.6721723749943,441.866225292004,442.6699439170043,442.659703917001,,,,,,,,,,,,,,,,,,,,,,,,,,,,,,,,,,,442.66353212499234,442.6699439170043,442.6699439170043,443.47739891699166,r,1.0,0.8042884999886155,,,,,,sub-209,1,stroop_test,,
,,,,102.0,6.0,8.0,,,,,,,,,,,,,rot,yellow,g,0.0,g,1.0,1.338922791997902,,,,,,,,,,8.0,6.0,102.0,3.0,443.4846046669991,,,,,,,,,,,,,,,,,443.47773579199566,443.8256959589926,444.62155574999633,444.6101384170033,,,,,,,,,,,,,,,,,,,,,,,,,,,,,,,,,,,444.6146397499979,444.62155574999633,444.62155574999633,445.9712082920014,g,1.0,1.338922791997902,,,,,,sub-209,1,stroop_test,,
,,,,103.0,7.0,8.0,,,,,,,,,,,,,rot,blue,b,0.0,b,1.0,0.8850504579895642,,,,,,,,,,8.0,7.0,103.0,2.0,445.9925279589952,,,,,,,,,,,,,,,,,445.9716906669928,446.31492104199424,447.1089485419943,447.0984580420045,,,,,,,,,,,,,,,,,,,,,,,,,,,,,,,,,,,447.0990294999938,447.1089485419943,447.1089485419943,447.99968008400174,b,1.0,0.8850504579895642,,,,,,sub-209,1,stroop_test,,
,,,,104.0,8.0,8.0,,,,,,,,,,,,,rot,red,r,1.0,r,1.0,0.8776709160010796,,,,,,,,,,8.0,8.0,104.0,0.0,448.02573395900254,,,,,,,,,,,,,,,,,448.0002148749918,448.7982808749948,449.5916984170035,449.5818629169953,,,,,,,,,,,,,,,,,,,,,,,,,,,,,,,,,,,449.58244458399713,449.5916984170035,449.5916984170035,450.47781729200506,r,1.0,0.8776709160010796,,,,,,sub-209,1,stroop_test,,
,,,,105.0,9.0,8.0,,,,,,,,,,,,,blau,yellow,g,0.0,g,1.0,1.238892332999967,,,,,,,,,,8.0,9.0,105.0,7.0,450.487438791999,,,,,,,,,,,,,,,,,450.4784160419949,450.57566524999856,451.3710358340031,451.359803208994,,,,,,,,,,,,,,,,,,,,,,,,,,,,,,,,,,,451.3643372920051,451.3710358340031,451.3710358340031,452.6220913750003,g,1.0,1.238892332999967,,,,,,sub-209,1,stroop_test,,
,,,,106.0,10.0,8.0,,,,,,,,,,,,,gelb,blue,b,0.0,b,1.0,0.8680492499988759,,,,,,,,,,8.0,10.0,106.0,9.0,452.6274191249977,,,,,,,,,,,,,,,,,452.62251429200114,453.8147670420003,454.6079266250017,454.597891708996,,,,,,,,,,,,,,,,,,,,,,,,,,,,,,,,,,,454.6014842089935,454.6079266250017,454.6079266250017,455.4778688749939,b,1.0,0.8680492499988759,,,,,,sub-209,1,stroop_test,,
,,,,107.0,11.0,8.0,,,,,,,,,,,,,gelb,yellow,g,1.0,g,1.0,1.769576417005737,,,,,,,,,,8.0,11.0,107.0,10.0,455.4853209589928,,,,,,,,,,,,,,,,,455.4784145000013,455.8258769590029,456.6168649589963,456.6095517089998,,,,,,,,,,,,,,,,,,,,,,,,,,,,,,,,,,,456.6103410840005,456.6168649589963,456.6168649589963,458.3946552090056,g,1.0,1.769576417005737,,,,,,sub-209,1,stroop_test,,
,,,,108.0,0.0,9.0,,,,,,,,,,,,,rot,red,r,1.0,r,1.0,0.4977911669993773,,,,,,,,,,9.0,0.0,108.0,0.0,458.40495429199655,,,,,,,,,,,,,,,,,458.3953320839937,459.1922747089993,459.9889932090009,459.9765250000055,,,,,,,,,,,,,,,,,,,,,,,,,,,,,,,,,,,459.9821372919978,459.9889932090009,459.9889932090009,460.4941577089921,r,1.0,0.4977911669993773,,,,,,sub-209,1,stroop_test,,
,,,,109.0,1.0,9.0,,,,,,,,,,,,,gelb,yellow,g,1.0,g,1.0,0.6899744170077611,,,,,,,,,,9.0,1.0,109.0,11.0,460.5046022919996,,,,,,,,,,,,,,,,,460.494719084003,460.8422911249945,461.6366972499964,461.626279959004,,,,,,,,,,,,,,,,,,,,,,,,,,,,,,,,,,,461.63009520899504,461.6366972499964,461.6366972499964,462.3378170420037,g,1.0,0.6899744170077611,,,,,,sub-209,1,stroop_test,,
,,,,110.0,2.0,9.0,,,,,,,,,,,,,gelb,yellow,g,1.0,g,1.0,5.893253458998515,,,,,,,,,,9.0,2.0,110.0,10.0,462.3589959999954,,,,,,,,,,,,,,,,,462.33830237499205,463.532290749994,464.3330492919922,464.3261774169951,,,,,,,,,,,,,,,,,,,,,,,,,,,,,,,,,,,464.3268050000042,464.3330492919922,464.3330492919922,470.2395431670011,g,1.0,5.893253458998515,,,,,,sub-209,1,stroop_test,,
,,,,111.0,3.0,9.0,,,,,,,,,,,,,gelb,red,r,0.0,r,1.0,0.6557652079936815,,,,,,,,,,9.0,3.0,111.0,8.0,470.24402199999895,,,,,,,,,,,,,,,,,470.23991420899983,471.4315978749946,472.2255459589942,472.2146219999995,,,,,,,,,,,,,,,,,,,,,,,,,,,,,,,,,,,472.21518383399234,472.2255459589942,472.2255459589942,472.8834147919988,r,1.0,0.6557652079936815,,,,,,sub-209,1,stroop_test,,
,,,,112.0,4.0,9.0,,,,,,,,,,,,,rot,yellow,g,0.0,g,1.0,0.6406962500041118,,,,,,,,,,9.0,4.0,112.0,3.0,472.8946239999932,,,,,,,,,,,,,,,,,472.8841450000036,472.980851417,473.7923165419925,473.765519624998,,,,,,,,,,,,,,,,,,,,,,,,,,,,,,,,,,,473.7692106250033,473.7923165419925,473.7923165419925,474.4440346670017,g,1.0,0.6406962500041118,,,,,,sub-209,1,stroop_test,,
,,,,113.0,5.0,9.0,,,,,,,,,,,,,rot,red,r,1.0,r,1.0,0.4810454590042354,,,,,,,,,,9.0,5.0,113.0,1.0,474.4549326249981,,,,,,,,,,,,,,,,,474.4446020000032,475.6422359589924,476.4339542499947,476.4263631249924,,,,,,,,,,,,,,,,,,,,,,,,,,,,,,,,,,,476.427135083999,476.4339542499947,476.4339542499947,476.9256144999963,r,1.0,0.4810454590042354,,,,,,sub-209,1,stroop_test,,
,,,,114.0,6.0,9.0,,,,,,,,,,,,,blau,blue,b,1.0,b,1.0,0.6234186670044437,,,,,,,,,,9.0,6.0,114.0,6.0,476.92869866700494,,,,,,,,,,,,,,,,,476.92592870899534,477.0142889169947,477.8085252919991,477.7982237499964,,,,,,,,,,,,,,,,,,,,,,,,,,,,,,,,,,,477.8019429169945,477.8085252919991,477.8085252919991,478.4424982500059,b,1.0,0.6234186670044437,,,,,,sub-209,1,stroop_test,,
,,,,115.0,7.0,9.0,,,,,,,,,,,,,blau,blue,b,1.0,b,1.0,0.663942416998907,,,,,,,,,,9.0,7.0,115.0,5.0,478.446893625005,,,,,,,,,,,,,,,,,478.442896499997,479.23243362500216,480.03323037500377,480.02616820900585,,,,,,,,,,,,,,,,,,,,,,,,,,,,,,,,,,,480.0269528749923,480.03323037500377,480.03323037500377,480.6999689170043,b,1.0,0.663942416998907,,,,,,sub-209,1,stroop_test,,
,,,,116.0,8.0,9.0,,,,,,,,,,,,,blau,red,r,0.0,r,1.0,3.627597583006718,,,,,,,,,,9.0,8.0,116.0,4.0,480.7107930000057,,,,,,,,,,,,,,,,,480.70048400000087,481.4977852500015,482.292069624993,482.2820412919973,,,,,,,,,,,,,,,,,,,,,,,,,,,,,,,,,,,482.2826022090012,482.292069624993,482.292069624993,485.92748099999153,r,1.0,3.627597583006718,,,,,,sub-209,1,stroop_test,,
,,,,117.0,9.0,9.0,,,,,,,,,,,,,rot,blue,b,0.0,b,1.0,1.7911814999970377,,,,,,,,,,9.0,9.0,117.0,2.0,485.9371177499997,,,,,,,,,,,,,,,,,485.92803308399743,487.1255179169966,487.9213825420011,487.9096756670042,,,,,,,,,,,,,,,,,,,,,,,,,,,,,,,,,,,487.91435379200266,487.9213825420011,487.9213825420011,489.7161278749991,b,1.0,1.7911814999970377,,,,,,sub-209,1,stroop_test,,
,,,,118.0,10.0,9.0,,,,,,,,,,,,,gelb,blue,b,0.0,b,1.0,0.5940467090113088,,,,,,,,,,9.0,10.0,118.0,9.0,489.7272009169974,,,,,,,,,,,,,,,,,489.716702042002,490.9146795419947,491.71050020899565,491.6978517919924,,,,,,,,,,,,,,,,,,,,,,,,,,,,,,,,,,,491.703006249998,491.71050020899565,491.71050020899565,492.31096845900174,b,1.0,0.5940467090113088,,,,,,sub-209,1,stroop_test,,
,,,,119.0,11.0,9.0,,,,,,,,,,,,,blau,yellow,g,0.0,g,1.0,1.0658475840027677,,,,,,,,,,9.0,11.0,119.0,7.0,492.32162545899337,,,,,,,,,,,,,,,,,492.3115651249973,492.6593894169928,493.45332912499725,493.44297049999295,,,,,,,,,,,,,,,,,,,,,,,,,,,,,,,,,,,493.4468349170056,493.45332912499725,493.45332912499725,494.5275366669957,g,1.0,1.0658475840027677,,,,,,sub-209,1,stroop_test,,
,,,,,,,,,,,,,,,,,,,,,,,,,,,,,,,,,,,,,,,,,,,,,,,,,,,,,,,,,,,,,,,,,,,,,,,,,,,,,,,,,,,,,,,,,,,,,,,,,,,,,,494.5278469170007,494.5394890419993,499.5306874170056,499.526314792005,sub-209,1,stroop_test,,
