direction,corrAns,randomInstr,practice_trials.thisRepN,practice_trials.thisTrialN,practice_trials.thisN,practice_trials.thisIndex,instr_trials.thisRepN,instr_trials.thisTrialN,instr_trials.thisN,instr_trials.thisIndex,test_trials.thisRepN,test_trials.thisTrialN,test_trials.thisN,test_trials.thisIndex,thisRow.t,notes,general_instruction.started,textGeneralInstr.started,respGeneralInstr.started,general_instruction.stopped,respGeneralInstr.keys,respGeneralInstr.rt,respGeneralInstr.duration,ITI.started,fixcross.started,fixcross.stopped,ITI.stopped,dots.started,backgroundDots.started,stimulusDots.started,respDots.started,dots.stopped,respDots.keys,respDots.corr,respDots.rt,respDots.duration,feedback.started,textFeedback.started,textFeedback.stopped,feedback.stopped,info.started,textInfo.started,keyRespInfo.started,info.stopped,keyRespInfo.keys,keyRespInfo.rt,keyRespInfo.duration,test_instruction.started,textTestInstr.started,respTestInstr.started,test_instruction.stopped,respTestInstr.keys,respTestInstr.rt,respTestInstr.duration,random_instruction.started,textRandomInstr.started,respRandomInstr.started,random_instruction.stopped,respRandomInstr.keys,respRandomInstr.rt,respRandomInstr.duration,goodbye.started,textGoodbye.started,textGoodbye.stopped,goodbye.stopped,participant,session,expName,frameRate,Unnamed: 73
,,,,,,,,,,,,,,,,,0.0068630999885499,0.0244908999884501,0.0244908999884501,9.457279499969443,space,23.07539800001541,,,,,,,,,,,,,,,,,,,,,,,,,,,,,,,,,,,,,,,,,,,,sub-032,1.0,random_dot,60.17115082874797,
left,left,,0.0,0.0,0.0,0.0,,,,,,,,,9.473337499948684,,,,,,,,,9.463085700001102,9.55711860000156,10.356506199983414,10.340654200001154,10.34066940000048,10.356506199983414,10.356506199983414,10.356506199983414,11.873827299976256,left,1.0,15.165295600017998,,11.874416899983771,11.889890299993567,12.390520999964792,12.373987899976784,,,,,,,,,,,,,,,,,,,,,,,,,,sub-032,1.0,random_dot,60.17115082874797,
right,right,,0.0,1.0,1.0,1.0,,,,,,,,,12.390520999964792,,,,,,,,,12.374349599995185,13.1735918999766,13.973538799968082,13.957242799981032,13.957260399998631,13.973538799968082,13.973538799968082,13.973538799968082,14.74043859995436,left,0.0,14.416984700015746,,14.740845299966168,14.756524299969897,15.256985699990764,15.240561499958858,,,,,,,,,,,,,,,,,,,,,,,,,,sub-032,1.0,random_dot,60.17115082874797,
right,right,,1.0,0.0,2.0,1.0,,,,,,,,,15.256985699990764,,,,,,,,,15.240922699973453,16.456301899976097,17.256908799987286,17.2400278999703,17.2400454999879,17.256908799987286,17.256908799987286,17.256908799987286,19.39021679997677,right,1.0,15.781220000004396,,19.39062769996235,19.40702240000246,19.906182000006083,19.889892199949827,,,,,,,,,,,,,,,,,,,,,,,,,,sub-032,1.0,random_dot,60.17115082874797,
left,left,,1.0,1.0,3.0,0.0,,,,,,,,,19.906182000006083,,,,,,,,,19.890214999963064,19.98953479999909,20.78951249999227,20.773329499992546,20.773349999974016,20.78951249999227,20.78951249999227,20.78951249999227,23.040226999961305,left,1.0,15.904486600018572,,23.040560299996287,23.057030399970245,23.55696560000069,23.540345099987466,,,,,,,,,,,,,,,,,,,,,,,,,,sub-032,1.0,random_dot,60.17115082874797,
left,left,,2.0,0.0,4.0,0.0,,,,,,,,,23.55696560000069,,,,,,,,,23.540719099983107,24.739720099954862,25.539942499948665,25.523470099957198,25.5234907999984,25.539942499948665,25.539942499948665,25.539942499948665,27.673547899990808,left,1.0,15.780922900012229,,27.67393349995837,27.689431999984663,28.18994690000545,28.1732288999483,,,,,,,,,,,,,,,,,,,,,,,,,,sub-032,1.0,random_dot,60.17115082874797,
right,right,,2.0,1.0,5.0,1.0,,,,,,,,,28.18994690000545,,,,,,,,,28.173605699965265,28.272748599993065,29.072689099994022,29.05644539999776,29.05646150000393,29.072689099994022,29.072689099994022,29.072689099994022,30.12363349995576,right,1.0,14.698440700070933,,30.123994099965785,30.139795599970967,30.639337199972942,30.62396539998008,,,,,,,,,,,,,,,,,,,,,,,,,,sub-032,1.0,random_dot,60.17115082874797,
right,right,,3.0,0.0,6.0,1.0,,,,,,,,,30.639337199972942,,,,,,,,,30.624403099995103,31.839528599986807,32.63926819997141,32.62361109995982,32.623629899986554,32.63926819997141,32.63926819997141,32.63926819997141,34.02316669997526,right,1.0,15.037601000047289,,34.023512199986726,34.03936569998041,34.539254699950106,34.52303139999276,,,,,,,,,,,,,,,,,,,,,,,,,,sub-032,1.0,random_dot,60.17115082874797,
left,left,,3.0,1.0,7.0,0.0,,,,,,,,,34.539254699950106,,,,,,,,,34.52333120000549,35.72243109997362,36.52286139997887,36.50665100000333,36.506669399968814,36.52286139997887,36.52286139997887,36.52286139997887,37.97392039996339,left,1.0,15.093660000013188,,37.97431540000253,37.98959269997431,38.48935619997792,38.47302340000169,,,,,,,,,,,,,,,,,,,,,,,,,,sub-032,1.0,random_dot,60.17115082874797,
left,left,,4.0,0.0,8.0,0.0,,,,,,,,,38.48935619997792,,,,,,,,,38.47339449997526,38.57238959998358,39.3724857000052,39.356063299987,39.35608319996391,39.3724857000052,39.3724857000052,39.3724857000052,40.5897757000057,left,1.0,14.868841500021516,,40.590121799963526,40.60659559996566,41.10653190000448,41.08994459995301,,,,,,,,,,,,,,,,,,,,,,,,,,sub-032,1.0,random_dot,60.17115082874797,
right,right,,4.0,1.0,9.0,1.0,,,,,,,,,41.10653190000448,,,,,,,,,41.09029169997666,41.18895129999146,41.98956779995933,41.97355489997426,41.97357259999262,41.98956779995933,41.98956779995933,41.98956779995933,43.13975689996733,right,1.0,14.795656999980563,,43.14011119998759,43.15657979995012,43.65643099998124,43.63951199996518,,,,,,,,,,,,,,,,,,,,,,,,,,sub-032,1.0,random_dot,60.17115082874797,
left,left,,5.0,0.0,10.0,0.0,,,,,,,,,43.65643099998124,,,,,,,,,43.639772599970456,44.43906129995594,45.23888520000037,45.222607899981085,45.22262379998574,45.23888520000037,45.23888520000037,45.23888520000037,47.42304480000166,left,1.0,15.824733300018124,,47.42342309997184,47.43888849997893,47.93887809995795,47.92260549997445,,,,,,,,,,,,,,,,,,,,,,,,,,sub-032,1.0,random_dot,60.17115082874797,
right,right,,5.0,1.0,11.0,1.0,,,,,,,,,47.93887809995795,,,,,,,,,47.92290979996324,48.722721299971454,49.52221500000451,49.50615599995945,49.50617169996258,49.52221500000451,49.52221500000451,49.52221500000451,50.3060633999994,right,1.0,14.437009400047828,,50.30641459999606,50.32269790000282,50.82272179995198,50.80668139999034,,,,,,,,,,,,,,,,,,,,,,,,,,sub-032,1.0,random_dot,60.17115082874797,
left,left,,6.0,0.0,12.0,0.0,,,,,,,,,50.82272179995198,,,,,,,,,50.807075699965935,51.15592749998905,51.95568809995893,51.93918200000189,51.9391956999898,51.95568809995893,51.95568809995893,51.95568809995893,53.106111000000965,left,1.0,14.79050250002183,,53.10651249997318,53.122095999948215,53.62209509999957,53.60577159997774,,,,,,,,,,,,,,,,,,,,,,,,,,sub-032,1.0,random_dot,60.17115082874797,
right,right,,6.0,1.0,13.0,1.0,,,,,,,,,53.62209509999957,,,,,,,,,53.60611999995308,54.42202929995256,55.22201729996596,55.2056762999855,55.20569350000005,55.22201729996596,55.22201729996596,55.22201729996596,56.10579839994898,right,1.0,14.53733199997805,,56.10613069997635,56.12252649996663,56.62254479998956,56.60609999997541,,,,,,,,,,,,,,,,,,,,,,,,,,sub-032,1.0,random_dot,60.17115082874797,
left,left,,7.0,0.0,14.0,0.0,,,,,,,,,56.62254479998956,,,,,,,,,56.60639799997443,57.80548449995695,58.605287299957126,58.588967699965,58.58898209995823,58.605287299957126,58.605287299957126,58.605287299957126,59.7231873999699,right,0.0,14.77224900003057,,59.723529699957,59.73920499999076,60.23856349999551,60.2224326999858,,,,,,,,,,,,,,,,,,,,,,,,,,sub-032,1.0,random_dot,60.17115082874797,
right,right,,7.0,1.0,15.0,1.0,,,,,,,,,60.23856349999551,,,,,,,,,60.22279859997798,60.58902339998167,61.38872339995578,61.3723425999633,61.37235659995349,61.38872339995578,61.38872339995578,61.38872339995578,62.40588589996332,right,1.0,14.658180400030687,,62.406292199972086,62.4223953000037,62.92195970000466,62.90611639997224,,,,,,,,,,,,,,,,,,,,,,,,,,sub-032,1.0,random_dot,60.17115082874797,
left,left,,8.0,0.0,16.0,0.0,,,,,,,,,62.92195970000466,,,,,,,,,62.906419799954165,63.25596189999487,64.05512649996672,64.03891899995506,64.03893929999322,64.05512649996672,64.05512649996672,64.05512649996672,64.82264999998733,left,1.0,14.417415000032634,,64.82306599995354,64.83867460000329,65.33892859995831,65.32276409998303,,,,,,,,,,,,,,,,,,,,,,,,,,sub-032,1.0,random_dot,60.17115082874797,
right,right,,8.0,1.0,17.0,1.0,,,,,,,,,65.33892859995831,,,,,,,,,65.32311419997131,65.67246459994931,66.47241889999714,66.45607269997708,66.45609599997988,66.47241889999714,66.47241889999714,66.47241889999714,69.87278259999584,left,0.0,17.054133300029207,,69.87312549998751,69.88858769997023,70.38848589995177,70.37291189999087,,,,,,,,,,,,,,,,,,,,,,,,,,sub-032,1.0,random_dot,60.17115082874797,
right,right,,9.0,0.0,18.0,1.0,,,,,,,,,70.38848589995177,,,,,,,,,70.37327539996477,71.17232289997628,71.97176679997938,71.95546379999723,71.95548609999241,71.97176679997938,71.97176679997938,71.97176679997938,73.87228670000331,left,0.0,15.554328700061888,,73.87261729995953,73.88818809995428,74.38817629998084,74.3720420000027,,,,,,,,,,,,,,,,,,,,,,,,,,sub-032,1.0,random_dot,60.17115082874797,
left,left,,9.0,1.0,19.0,0.0,,,,,,,,,74.38817629998084,,,,,,,,,74.3723231999902,75.17213899997296,75.97146029997384,75.95510249998188,75.95511829998577,75.97146029997384,75.97146029997384,75.97146029997384,77.77244309999514,right,0.0,15.449333800002933,,77.77287599997362,77.7887501999503,78.28861809999216,78.27235889999429,,,,,,,,,,,,,,,,,,,,,,,,,,sub-032,1.0,random_dot,60.17115082874797,
,,,,,,,,,,,,,,,,,,,,,,,,,,,,,,,,,,,,,,,,,78.27241839998169,78.28861809999216,78.28861809999216,81.98885229998268,space,17.35444190003909,,,,,,,,,,,,,,,,,,,,sub-032,1.0,random_dot,60.17115082874797,
,,,,,,,,,,,,,,,,,,,,,,,,,,,,,,,,,,,,,,,,,,,,,,,,81.98887719999766,82.00472849997459,82.00472849997459,87.62249669997254,space,19.257247300061863,,,,,,,,,,,,,sub-032,1.0,random_dot,60.17115082874797,
left,left,speed,,,,,0.0,0.0,0.0,1.0,0.0,0.0,0.0,0.0,91.28795389999868,,,,,,,,,91.27643659996102,92.4717543000006,93.2716434999602,93.25524499994935,93.25527029996738,93.2716434999602,93.2716434999602,93.2716434999602,93.93938489997528,left,1.0,14.311855600040872,,,,,,,,,,,,,,,,,,,,87.63307139999233,87.65509389998624,87.65509389998624,91.27183869999136,space,17.26046880002832,,,,,,sub-032,1.0,random_dot,60.17115082874797,
right,right,speed,,,,,0.0,0.0,0.0,1.0,0.0,1.0,1.0,1.0,93.9547101999633,,,,,,,,,93.94025709998095,95.15453339996748,95.95488729997304,95.93910239997786,95.93912639998598,95.95488729997304,95.95488729997304,95.95488729997304,96.72297790000448,left,0.0,14.422195600054692,,,,,,,,,,,,,,,,,,,,,,,,,,,,,,,sub-032,1.0,random_dot,60.17115082874797,
right,right,speed,,,,,0.0,0.0,0.0,1.0,1.0,0.0,2.0,1.0,96.73777349997545,,,,,,,,,96.72359209996648,97.93827499996404,98.73760059999768,98.7221462999587,98.7221638999763,98.73760059999768,98.73760059999768,98.73760059999768,99.40573429997312,right,1.0,14.30642750003608,,,,,,,,,,,,,,,,,,,,,,,,,,,,,,,sub-032,1.0,random_dot,60.17115082874797,
left,left,speed,,,,,0.0,0.0,0.0,1.0,1.0,1.0,3.0,0.0,99.421489499975,,,,,,,,,99.40644439996686,99.52149539999664,100.3209944999544,100.30446529999608,100.30448039999465,100.3209944999544,100.3209944999544,100.3209944999544,101.07224169996334,right,0.0,14.40532560000429,,,,,,,,,,,,,,,,,,,,,,,,,,,,,,,sub-032,1.0,random_dot,60.17115082874797,
left,left,speed,,,,,0.0,0.0,0.0,1.0,2.0,0.0,4.0,0.0,101.0883081999491,,,,,,,,,101.0728645999916,101.4213494999567,102.2208937999676,102.2044377999846,102.20445379999,102.2208937999676,102.2208937999676,102.2208937999676,103.0550900999806,left,1.0,14.483553200028837,,,,,,,,,,,,,,,,,,,,,,,,,,,,,,,sub-032,1.0,random_dot,60.17115082874797,
right,right,speed,,,,,0.0,0.0,0.0,1.0,2.0,1.0,5.0,1.0,103.07132369995816,,,,,,,,,103.05574270000216,103.15424649999476,103.95481480000308,103.93808249995344,103.93810029997258,103.95481480000308,103.95481480000308,103.95481480000308,104.82124329998624,left,0.0,14.519640300015451,,,,,,,,,,,,,,,,,,,,,,,,,,,,,,,sub-032,1.0,random_dot,60.17115082874797,
right,right,speed,,,,,0.0,0.0,0.0,1.0,3.0,0.0,6.0,1.0,104.837582499953,,,,,,,,,104.82191159995271,104.92093039996688,105.72133169998416,105.70499209995614,105.70501129998593,105.72133169998416,105.72133169998416,105.72133169998416,106.2217454999918,right,1.0,14.141341599985026,,,,,,,,,,,,,,,,,,,,,,,,,,,,,,,sub-032,1.0,random_dot,60.17115082874797,
left,left,speed,,,,,0.0,0.0,0.0,1.0,3.0,1.0,7.0,0.0,106.23813859996152,,,,,,,,,106.2224709999864,106.33755699999163,107.1379644999979,107.12166509998497,107.12168499996189,107.1379644999979,107.1379644999979,107.1379644999979,107.77168700000038,left,1.0,14.281373800011352,,,,,,,,,,,,,,,,,,,,,,,,,,,,,,,sub-032,1.0,random_dot,60.17115082874797,
right,right,speed,,,,,0.0,0.0,0.0,1.0,4.0,0.0,8.0,1.0,107.78772709995974,,,,,,,,,107.7724216999486,107.88795889995528,108.6878746000002,108.6712441999698,108.67126159998588,108.6878746000002,108.6878746000002,108.6878746000002,109.438640999957,right,1.0,14.394995500042567,,,,,,,,,,,,,,,,,,,,,,,,,,,,,,,sub-032,1.0,random_dot,60.17115082874797,
left,left,speed,,,,,0.0,0.0,0.0,1.0,4.0,1.0,9.0,0.0,109.45453769998858,,,,,,,,,109.43937759997787,110.65461809997214,111.4539875999908,111.43777550000232,111.43779679998988,111.4539875999908,111.4539875999908,111.4539875999908,112.08816369995476,left,1.0,14.273266200034412,,,,,,,,,,,,,,,,,,,,,,,,,,,,,,,sub-032,1.0,random_dot,60.17115082874797,
left,left,speed,,,,,0.0,0.0,0.0,1.0,5.0,0.0,10.0,0.0,112.10453309997683,,,,,,,,,112.08882770000491,112.45449739997277,113.25459749996662,113.23814139998284,113.23815849999664,113.25459749996662,113.25459749996662,113.25459749996662,113.75434889999453,left,1.0,14.15269190003164,,,,,,,,,,,,,,,,,,,,,,,,,,,,,,,sub-032,1.0,random_dot,60.17115082874797,
right,right,speed,,,,,0.0,0.0,0.0,1.0,5.0,1.0,11.0,1.0,113.77111189998686,,,,,,,,,113.75499359995592,114.5544473999762,115.35458629997449,115.33806789998198,115.338084899995,115.35458629997449,115.35458629997449,115.35458629997449,115.75455879996298,right,1.0,14.046391700045206,,,,,,,,,,,,,,,,,,,,,,,,,,,,,,,sub-032,1.0,random_dot,60.17115082874797,
right,right,speed,,,,,0.0,0.0,0.0,1.0,6.0,0.0,12.0,1.0,115.7714359999518,,,,,,,,,115.7553092999733,116.95469399995636,117.75379409996094,117.73756829998456,117.73758559999987,117.75379409996094,117.75379409996094,117.75379409996094,118.38803659996483,right,1.0,14.282203699985985,,,,,,,,,,,,,,,,,,,,,,,,,,,,,,,sub-032,1.0,random_dot,60.17115082874797,
left,left,speed,,,,,0.0,0.0,0.0,1.0,6.0,1.0,13.0,0.0,118.40445229999024,,,,,,,,,118.38877359998878,119.20442189997992,120.0037312999484,119.98794779996388,119.98796489997768,120.0037312999484,120.0037312999484,120.0037312999484,121.53767709998648,right,0.0,15.182997500000056,,,,,,,,,,,,,,,,,,,,,,,,,,,,,,,sub-032,1.0,random_dot,60.17115082874797,
left,left,speed,,,,,0.0,0.0,0.0,1.0,7.0,0.0,14.0,0.0,121.55368610000004,,,,,,,,,121.53844159998698,122.73765799996907,123.53713509999216,123.52145659999223,123.52147370000604,123.53713509999216,123.53713509999216,123.53713509999216,124.08783569996012,left,1.0,14.20445129997097,,,,,,,,,,,,,,,,,,,,,,,,,,,,,,,sub-032,1.0,random_dot,60.17115082874797,
right,right,speed,,,,,0.0,0.0,0.0,1.0,7.0,1.0,15.0,1.0,124.10363169998163,,,,,,,,,124.08846519998042,124.45355849998305,125.25452339998446,125.23790999996709,125.23793049994856,125.25452339998446,125.25452339998446,125.25452339998446,125.82120750000468,right,1.0,14.208662699966226,,,,,,,,,,,,,,,,,,,,,,,,,,,,,,,sub-032,1.0,random_dot,60.17115082874797,
right,right,speed,,,,,0.0,0.0,0.0,1.0,8.0,0.0,16.0,1.0,125.8371048999834,,,,,,,,,125.82191439997403,127.03748649999034,127.8374339999864,127.82073969999328,127.82075679994888,127.8374339999864,127.8374339999864,127.8374339999864,128.45400989998598,right,1.0,14.265723399992568,,,,,,,,,,,,,,,,,,,,,,,,,,,,,,,sub-032,1.0,random_dot,60.17115082874797,
left,left,speed,,,,,0.0,0.0,0.0,1.0,8.0,1.0,17.0,0.0,128.47075649996987,,,,,,,,,128.45467029995052,128.5535291999695,129.3543711999664,129.33768999995664,129.33770749997348,129.3543711999664,129.3543711999664,129.3543711999664,129.9052675999701,left,1.0,14.192072100064252,,,,,,,,,,,,,,,,,,,,,,,,,,,,,,,sub-032,1.0,random_dot,60.17115082874797,
right,right,speed,,,,,0.0,0.0,0.0,1.0,9.0,0.0,18.0,1.0,129.9207616999629,,,,,,,,,129.90591949998634,130.02068869996583,130.82073229999514,130.80448069999693,130.80449789995328,130.82073229999514,130.82073229999514,130.82073229999514,131.22106859995984,left,0.0,14.03891070006648,,,,,,,,,,,,,,,,,,,,,,,,,,,,,,,sub-032,1.0,random_dot,60.17115082874797,
left,left,speed,,,,,0.0,0.0,0.0,1.0,9.0,1.0,19.0,0.0,131.2369924999657,,,,,,,,,131.22170199995162,132.42007299995748,133.22079329995904,133.20424859999912,133.20426529995166,133.22079329995904,133.22079329995904,133.22079329995904,134.0541997999535,left,1.0,14.481771800026763,,,,,,,,,,,,,,,,,,,,,,,,,,,,,,,sub-032,1.0,random_dot,60.17115082874797,
left,left,speed,,,,,0.0,0.0,0.0,1.0,10.0,0.0,20.0,0.0,134.07070389995351,,,,,,,,,134.05485949997092,134.40358489996288,135.2040524999611,135.18732579995412,135.18734829995083,135.2040524999611,135.2040524999611,135.2040524999611,135.8709630999947,right,0.0,14.314404600008857,,,,,,,,,,,,,,,,,,,,,,,,,,,,,,,sub-032,1.0,random_dot,60.17115082874797,
right,right,speed,,,,,0.0,0.0,0.0,1.0,10.0,1.0,21.0,1.0,135.8873088999535,,,,,,,,,135.87169070000527,137.07008139998652,137.8706588000059,137.85376109997742,137.8537766999798,137.8706588000059,137.8706588000059,137.8706588000059,138.55473179998808,right,1.0,14.331138200010171,,,,,,,,,,,,,,,,,,,,,,,,,,,,,,,sub-032,1.0,random_dot,60.17115082874797,
right,right,speed,,,,,0.0,0.0,0.0,1.0,11.0,0.0,22.0,1.0,138.57013700000243,,,,,,,,,138.55541639996227,139.77046969998628,140.5701063000015,140.553958399978,140.55397569999332,140.5701063000015,140.5701063000015,140.5701063000015,141.25416489999043,right,1.0,14.330487100058235,,,,,,,,,,,,,,,,,,,,,,,,,,,,,,,sub-032,1.0,random_dot,60.17115082874797,
left,left,speed,,,,,0.0,0.0,0.0,1.0,11.0,1.0,23.0,0.0,141.27034069999354,,,,,,,,,141.2548021999537,141.35385289997794,142.1532466999488,142.13699929998256,142.13701389997732,142.1532466999488,142.1532466999488,142.1532466999488,142.75520339998184,left,1.0,14.256248600024264,,,,,,,,,,,,,,,,,,,,,,,,,,,,,,,sub-032,1.0,random_dot,60.17115082874797,
left,left,speed,,,,,0.0,0.0,0.0,1.0,12.0,0.0,24.0,0.0,142.7704664999619,,,,,,,,,142.7558713000035,143.97030819999054,144.76997999998275,144.75345899997046,144.75347219995456,144.76997999998275,144.76997999998275,144.76997999998275,146.1877423999831,left,1.0,15.059964700019918,,,,,,,,,,,,,,,,,,,,,,,,,,,,,,,sub-032,1.0,random_dot,60.17115082874797,
right,right,speed,,,,,0.0,0.0,0.0,1.0,12.0,1.0,25.0,1.0,146.2035692000063,,,,,,,,,146.18846569996094,146.5537674999796,147.35382799996296,147.3370147999958,147.33703609998338,147.35382799996296,147.35382799996296,147.35382799996296,148.2206050999812,right,1.0,14.510918900021352,,,,,,,,,,,,,,,,,,,,,,,,,,,,,,,sub-032,1.0,random_dot,60.17115082874797,
left,left,speed,,,,,0.0,0.0,0.0,1.0,13.0,0.0,26.0,0.0,148.23661199997878,,,,,,,,,148.22124379995512,148.5702894999995,149.37023129995214,149.3540071999887,149.35402440000323,149.37023129995214,149.37023129995214,149.37023129995214,150.1204380999552,left,1.0,14.399857000040356,,,,,,,,,,,,,,,,,,,,,,,,,,,,,,,sub-032,1.0,random_dot,60.17115082874797,
right,right,speed,,,,,0.0,0.0,0.0,1.0,13.0,1.0,27.0,1.0,150.13710769999307,,,,,,,,,150.12110599997686,150.21985199995106,151.02031009999337,151.00414199999068,151.00415890000295,151.02031009999337,151.02031009999337,151.02031009999337,152.2035394999548,right,1.0,14.823451600037515,,,,,,,,,,,,,,,,,,,,,,,,,,,,,,,sub-032,1.0,random_dot,60.17115082874797,
right,right,speed,,,,,0.0,0.0,0.0,1.0,14.0,0.0,28.0,1.0,152.21964109997498,,,,,,,,,152.20429249998415,153.00303309998708,153.8034533999744,153.786781599978,153.7868024999625,153.8034533999744,153.8034533999744,153.8034533999744,154.37041709996993,right,1.0,14.217990800039845,,,,,,,,,,,,,,,,,,,,,,,,,,,,,,,sub-032,1.0,random_dot,60.17115082874797,
left,left,speed,,,,,0.0,0.0,0.0,1.0,14.0,1.0,29.0,0.0,154.38642749999417,,,,,,,,,154.37111639999785,154.4867492999765,155.2869877999765,155.27040359994862,155.2704209999647,155.2869877999765,155.2869877999765,155.2869877999765,155.78739769995445,left,1.0,14.15438790002372,,,,,,,,,,,,,,,,,,,,,,,,,,,,,,,sub-032,1.0,random_dot,60.17115082874797,
right,right,speed,,,,,0.0,0.0,0.0,1.0,15.0,0.0,30.0,1.0,155.80308979999973,,,,,,,,,155.78805959998863,156.58643069997197,157.3870358999702,157.3704349999898,157.37045589997433,157.3870358999702,157.3870358999702,157.3870358999702,157.97025969997048,right,1.0,14.224333500023931,,,,,,,,,,,,,,,,,,,,,,,,,,,,,,,sub-032,1.0,random_dot,60.17115082874797,
left,left,speed,,,,,0.0,0.0,0.0,1.0,15.0,1.0,31.0,0.0,157.98608119995333,,,,,,,,,157.97096199996304,159.17004419997102,159.9699655000004,159.9538201999967,159.9538408999797,159.9699655000004,159.9699655000004,159.9699655000004,160.48695099999895,left,1.0,14.167009700031484,,,,,,,,,,,,,,,,,,,,,,,,,,,,,,,sub-032,1.0,random_dot,60.17115082874797,
left,left,speed,,,,,0.0,0.0,0.0,1.0,16.0,0.0,32.0,0.0,160.5032094999915,,,,,,,,,160.48762489994988,161.68673869996564,162.48675179999557,162.47026469995035,162.470282699971,162.48675179999557,162.48675179999557,162.48675179999557,163.13696099998197,left,1.0,14.300041700014845,,,,,,,,,,,,,,,,,,,,,,,,,,,,,,,sub-032,1.0,random_dot,60.17115082874797,
right,right,speed,,,,,0.0,0.0,0.0,1.0,16.0,1.0,33.0,1.0,163.15317929995945,,,,,,,,,163.13758719997713,163.23671899997862,164.03669499995885,164.02027439995436,164.0202918999712,164.03669499995885,164.03669499995885,164.03669499995885,164.93656499998178,right,1.0,14.53887869999744,,,,,,,,,,,,,,,,,,,,,,,,,,,,,,,sub-032,1.0,random_dot,60.17115082874797,
right,right,speed,,,,,0.0,0.0,0.0,1.0,17.0,0.0,34.0,1.0,164.95346879999852,,,,,,,,,164.937347900006,165.73621179995826,166.53611519996775,166.52029620000394,166.52031289995648,166.53611519996775,166.53611519996775,166.53611519996775,168.33703609998338,right,1.0,15.439320400008,,,,,,,,,,,,,,,,,,,,,,,,,,,,,,,sub-032,1.0,random_dot,60.17115082874797,
left,left,speed,,,,,0.0,0.0,0.0,1.0,17.0,1.0,35.0,0.0,168.35298999998486,,,,,,,,,168.33773809997365,169.55278019997058,170.35265029995935,170.336795399955,170.33681159996195,170.35265029995935,170.35265029995935,170.35265029995935,171.05352069996297,right,0.0,14.343206199991982,,,,,,,,,,,,,,,,,,,,,,,,,,,,,,,sub-032,1.0,random_dot,60.17115082874797,
left,left,speed,,,,,0.0,0.0,0.0,1.0,18.0,0.0,36.0,0.0,171.06939799996326,,,,,,,,,171.05418149998877,171.40300599997863,172.20344159996603,172.1865038999822,172.18651749996934,172.20344159996603,172.20344159996603,172.20344159996603,173.40315179998288,left,1.0,14.845397200027946,,,,,,,,,,,,,,,,,,,,,,,,,,,,,,,sub-032,1.0,random_dot,60.17115082874797,
right,right,speed,,,,,0.0,0.0,0.0,1.0,18.0,1.0,37.0,1.0,173.41914640000323,,,,,,,,,173.40389449999202,173.51905819994863,174.31914729997516,174.30295899999328,174.30298269999912,174.31914729997516,174.31914729997516,174.31914729997516,175.63655619998462,right,1.0,14.96654250001302,,,,,,,,,,,,,,,,,,,,,,,,,,,,,,,sub-032,1.0,random_dot,60.17115082874797,
right,right,speed,,,,,0.0,0.0,0.0,1.0,19.0,0.0,38.0,1.0,175.65298029995756,,,,,,,,,175.63726769998902,175.7362654999597,176.53625730000203,176.5199024999747,176.51992309995694,176.53625730000203,176.53625730000203,176.53625730000203,177.23695789999329,right,1.0,14.347749300068244,,,,,,,,,,,,,,,,,,,,,,,,,,,,,,,sub-032,1.0,random_dot,60.17115082874797,
left,left,speed,,,,,0.0,0.0,0.0,1.0,19.0,1.0,39.0,0.0,177.25297059997683,,,,,,,,,177.23763789999066,178.452724999981,179.25276790000498,179.2359086999786,179.23592619999545,179.25276790000498,179.25276790000498,179.25276790000498,179.86978079995606,left,1.0,14.265253200021109,,,,,,,,,,,,,,,,,,,,,,,,,,,,,,,sub-032,1.0,random_dot,60.17115082874797,
left,left,speed,,,,,0.0,0.0,0.0,1.0,20.0,0.0,40.0,0.0,179.886123699951,,,,,,,,,179.8704727999866,181.06947159999984,181.8690660999855,181.85311269998783,181.8531308999518,181.8690660999855,181.8690660999855,181.8690660999855,182.5366571999621,left,1.0,14.32178500003647,,,,,,,,,,,,,,,,,,,,,,,,,,,,,,,sub-032,1.0,random_dot,60.17115082874797,
right,right,speed,,,,,0.0,0.0,0.0,1.0,20.0,1.0,41.0,1.0,182.55222249997317,,,,,,,,,182.53732499998296,182.902692499978,183.7027766999672,183.6866202999954,183.68663700000616,183.7027766999672,183.7027766999672,183.7027766999672,184.3534531999612,right,1.0,14.291065300058108,,,,,,,,,,,,,,,,,,,,,,,,,,,,,,,sub-032,1.0,random_dot,60.17115082874797,
left,left,speed,,,,,0.0,0.0,0.0,1.0,21.0,0.0,42.0,0.0,184.36966799997023,,,,,,,,,184.3541036999668,184.71925749996444,185.51899579999736,185.5027566999779,185.50277909997385,185.51899579999736,185.51899579999736,185.51899579999736,186.0861710999743,left,1.0,14.2185257000383,,,,,,,,,,,,,,,,,,,,,,,,,,,,,,,sub-032,1.0,random_dot,60.17115082874797,
right,right,speed,,,,,0.0,0.0,0.0,1.0,21.0,1.0,43.0,1.0,186.1028169000056,,,,,,,,,186.08694179996385,186.1861272999668,186.9857050999999,186.9700316999806,186.9700499000028,186.9857050999999,186.9857050999999,186.9857050999999,187.75299819995416,right,1.0,14.41576800000621,,,,,,,,,,,,,,,,,,,,,,,,,,,,,,,sub-032,1.0,random_dot,60.17115082874797,
right,right,speed,,,,,0.0,0.0,0.0,1.0,22.0,0.0,44.0,1.0,187.76918699999808,,,,,,,,,187.7536312000011,188.1028013000032,188.90263209998372,188.8859145999886,188.88593549997316,188.90263209998372,188.90263209998372,188.90263209998372,189.53585389995715,right,1.0,14.285593900014646,,,,,,,,,,,,,,,,,,,,,,,,,,,,,,,sub-032,1.0,random_dot,60.17115082874797,
left,left,speed,,,,,0.0,0.0,0.0,1.0,22.0,1.0,45.0,0.0,189.5526799999643,,,,,,,,,189.53658429998904,190.73592609999469,191.53532450000057,191.51902269996936,191.5190432999516,191.53532450000057,191.53532450000057,191.53532450000057,192.13585859996965,left,1.0,14.247901700029615,,,,,,,,,,,,,,,,,,,,,,,,,,,,,,,sub-032,1.0,random_dot,60.17115082874797,
left,left,speed,,,,,0.0,0.0,0.0,1.0,23.0,0.0,46.0,0.0,192.15194809995592,,,,,,,,,192.13666679995367,192.93527489999545,193.7357935999753,193.7195404999657,193.71955579996572,193.7357935999753,193.7357935999753,193.7357935999753,194.48696089995792,left,1.0,14.394459200033452,,,,,,,,,,,,,,,,,,,,,,,,,,,,,,,sub-032,1.0,random_dot,60.17115082874797,
right,right,speed,,,,,0.0,0.0,0.0,1.0,23.0,1.0,47.0,1.0,194.50224099995103,,,,,,,,,194.48772139998616,194.6024234999786,195.40203409997048,195.3857981999754,195.38581159996104,195.40203409997048,195.40203409997048,195.40203409997048,196.702375199995,right,1.0,14.953221200034022,,,,,,,,,,,,,,,,,,,,,,,,,,,,,,,sub-032,1.0,random_dot,60.17115082874797,
right,right,speed,,,,,0.0,0.0,0.0,1.0,24.0,0.0,48.0,1.0,196.7186518999515,,,,,,,,,196.70302089996403,197.0517867999733,197.8519109999761,197.83597479999295,197.8359920999501,197.8519109999761,197.8519109999761,197.8519109999761,199.13566019997236,right,1.0,14.937437399988994,,,,,,,,,,,,,,,,,,,,,,,,,,,,,,,sub-032,1.0,random_dot,60.17115082874797,
left,left,speed,,,,,0.0,0.0,0.0,1.0,24.0,1.0,49.0,0.0,199.1523381999577,,,,,,,,,199.1362979999976,199.2357019999763,200.0356785999611,200.01946559996577,200.01949340000283,200.0356785999611,200.0356785999611,200.0356785999611,200.6358522999799,left,1.0,14.243899400054945,,,,,,,,,,,,,,,,,,,,,,,,,,,,,,,sub-032,1.0,random_dot,60.17115082874797,
left,left,speed,,,,,0.0,0.0,0.0,1.0,25.0,0.0,50.0,0.0,200.6523240999668,,,,,,,,,200.63650909997523,201.4356485999888,202.2357063999516,202.21942699997453,202.2194549999549,202.2357063999516,202.2357063999516,202.2357063999516,202.88584389997413,left,1.0,14.296228900027929,,,,,,,,,,,,,,,,,,,,,,,,,,,,,,,sub-032,1.0,random_dot,60.17115082874797,
right,right,speed,,,,,0.0,0.0,0.0,1.0,25.0,1.0,51.0,1.0,202.90170319995377,,,,,,,,,202.88671829999657,204.08547859999817,204.88582029996903,204.8693943999824,204.86941759998444,204.88582029996903,204.88582029996903,204.88582029996903,205.88585039996545,right,1.0,14.639066300005652,,,,,,,,,,,,,,,,,,,,,,,,,,,,,,,sub-032,1.0,random_dot,60.17115082874797,
left,left,speed,,,,,0.0,0.0,0.0,1.0,26.0,0.0,52.0,0.0,205.90165640000487,,,,,,,,,205.8864881999907,206.2354672999936,207.035511199967,207.01926979998825,207.0192871000036,207.035511199967,207.035511199967,207.035511199967,207.88588499999605,left,1.0,14.496077399991918,,,,,,,,,,,,,,,,,,,,,,,,,,,,,,,sub-032,1.0,random_dot,60.17115082874797,
right,right,speed,,,,,0.0,0.0,0.0,1.0,26.0,1.0,53.0,1.0,207.90188339998716,,,,,,,,,207.8865254999837,207.98593419999816,208.78539129998532,208.76916569995228,208.76918859995203,208.78539129998532,208.78539129998532,208.78539129998532,210.21916839998448,right,1.0,15.080204500001855,,,,,,,,,,,,,,,,,,,,,,,,,,,,,,,sub-032,1.0,random_dot,60.17115082874797,
right,right,speed,,,,,0.0,0.0,0.0,1.0,27.0,0.0,54.0,1.0,210.2353964999784,,,,,,,,,210.2201212999644,211.03486659994812,211.8353920999798,211.8187745999894,211.81879519997165,211.8353920999798,211.8353920999798,211.8353920999798,212.40205330000023,right,1.0,14.220020800014026,,,,,,,,,,,,,,,,,,,,,,,,,,,,,,,sub-032,1.0,random_dot,60.17115082874797,
left,left,speed,,,,,0.0,0.0,0.0,1.0,27.0,1.0,55.0,0.0,212.41876219998807,,,,,,,,,212.40269489999628,213.60161389998396,214.40138779999688,214.38548389996868,214.3855113000027,214.40138779999688,214.40138779999688,214.40138779999688,215.1024505999521,left,1.0,14.343710899993312,,,,,,,,,,,,,,,,,,,,,,,,,,,,,,,sub-032,1.0,random_dot,60.17115082874797,
right,right,speed,,,,,0.0,0.0,0.0,1.0,28.0,0.0,56.0,1.0,215.11836949997812,,,,,,,,,215.1030996000045,215.2187632999849,216.01858829997943,216.00200219999533,216.0020248999936,216.01858829997943,216.01858829997943,216.01858829997943,216.50228339998284,right,1.0,14.131882900022902,,,,,,,,,,,,,,,,,,,,,,,,,,,,,,,sub-032,1.0,random_dot,60.17115082874797,
left,left,speed,,,,,0.0,0.0,0.0,1.0,28.0,1.0,57.0,0.0,216.51816089998465,,,,,,,,,216.5030221999623,217.71847139997408,218.5185840000049,218.501974099956,218.501986999996,218.5185840000049,218.5185840000049,218.5185840000049,219.0018370999605,left,1.0,14.136611200054176,,,,,,,,,,,,,,,,,,,,,,,,,,,,,,,sub-032,1.0,random_dot,60.17115082874797,
right,right,speed,,,,,0.0,0.0,0.0,1.0,29.0,0.0,58.0,1.0,219.01803779997863,,,,,,,,,219.00249220000117,219.35183399997183,220.1520915000001,220.13559989997884,220.1356167999911,220.1520915000001,220.1520915000001,220.1520915000001,220.76860199996736,right,1.0,14.266686199989635,,,,,,,,,,,,,,,,,,,,,,,,,,,,,,,sub-032,1.0,random_dot,60.17115082874797,
left,left,speed,,,,,0.0,0.0,0.0,1.0,29.0,1.0,59.0,0.0,220.78522799996423,,,,,,,,,220.76933349994945,221.9685300999554,222.7684234000044,222.7518234999734,222.75184449995868,222.7684234000044,222.7684234000044,222.7684234000044,223.33527300000424,left,1.0,14.212132300017402,,,,,,,,,,,,,,,,,,,,,,,,,,,,,,,sub-032,1.0,random_dot,60.17115082874797,
,,speed,,,,,0.0,0.0,0.0,1.0,,,,,,,,,,,,,,,,,,,,,,,,,,,,,,,,,,,,,,,,,,,,,,,,,,,,,,,,sub-032,1.0,random_dot,60.17115082874797,
right,right,accuracy,,,,,0.0,1.0,1.0,0.0,0.0,0.0,0.0,1.0,230.23498939996352,,,,,,,,,230.2229826999828,231.41826069995292,232.21826080000028,232.2021941999556,232.2022134999861,232.21826080000028,232.21826080000028,232.21826080000028,232.91919029998823,right,1.0,14.34125750005478,,,,,,,,,,,,,,,,,,,,223.33587779995287,223.35137769998985,223.35137769998985,230.2184372000047,space,20.51720700005535,,,,,,sub-032,1.0,random_dot,60.17115082874797,
left,left,accuracy,,,,,0.0,1.0,1.0,0.0,0.0,1.0,1.0,0.0,232.9347915999824,,,,,,,,,232.9200315999915,233.28448679996652,234.0849106999813,234.06826759997057,234.06828759994823,234.0849106999813,234.0849106999813,234.0849106999813,234.73525069997413,left,1.0,14.29326350003248,,,,,,,,,,,,,,,,,,,,,,,,,,,,,,,sub-032,1.0,random_dot,60.17115082874797,
left,left,accuracy,,,,,0.0,1.0,1.0,0.0,1.0,0.0,2.0,0.0,234.75148109998557,,,,,,,,,234.73597749997865,235.55087609996556,236.35144229995785,236.3354210999678,236.3354386999854,236.35144229995785,236.35144229995785,236.35144229995785,238.06960119999712,right,0.0,15.372436100034976,,,,,,,,,,,,,,,,,,,,,,,,,,,,,,,sub-032,1.0,random_dot,60.17115082874797,
right,right,accuracy,,,,,0.0,1.0,1.0,0.0,1.0,1.0,3.0,1.0,238.08474979997845,,,,,,,,,238.07026909996057,238.18467200000305,238.9843882999849,238.96846129995535,238.9684790999745,238.9843882999849,238.9843882999849,238.9843882999849,239.78540029999567,right,1.0,14.439682900032494,,,,,,,,,,,,,,,,,,,,,,,,,,,,,,,sub-032,1.0,random_dot,60.17115082874797,
right,right,accuracy,,,,,0.0,1.0,1.0,0.0,2.0,0.0,4.0,1.0,239.8016495999764,,,,,,,,,239.78607459994964,240.13427989999764,240.9348394999979,240.9184416999924,240.91846559999976,240.9348394999979,240.9348394999979,240.9348394999979,241.68486059998395,right,1.0,14.401538399979472,,,,,,,,,,,,,,,,,,,,,,,,,,,,,,,sub-032,1.0,random_dot,60.17115082874797,
left,left,accuracy,,,,,0.0,1.0,1.0,0.0,2.0,1.0,5.0,0.0,241.70129299996188,,,,,,,,,241.6855338999885,242.9007098999573,243.70118159998677,243.68475159996888,243.68477239995264,243.70118159998677,243.70118159998677,243.70118159998677,244.76803859998472,left,1.0,14.72052120004082,,,,,,,,,,,,,,,,,,,,,,,,,,,,,,,sub-032,1.0,random_dot,60.17115082874797,
left,left,accuracy,,,,,0.0,1.0,1.0,0.0,3.0,0.0,6.0,0.0,244.78420890000416,,,,,,,,,244.76867469999704,245.9679828999797,246.76743869995695,246.75143389997535,246.75145179999527,246.76743869995695,246.76743869995695,246.76743869995695,247.8515673999791,left,1.0,14.727950800035616,,,,,,,,,,,,,,,,,,,,,,,,,,,,,,,sub-032,1.0,random_dot,60.17115082874797,
right,right,accuracy,,,,,0.0,1.0,1.0,0.0,3.0,1.0,7.0,1.0,247.8681202000007,,,,,,,,,247.8523230999708,248.21732870000412,249.0178560999921,249.00165489997016,249.001671999984,249.0178560999921,249.0178560999921,249.0178560999921,249.66787489998387,right,1.0,14.290560299996288,,,,,,,,,,,,,,,,,,,,,,,,,,,,,,,sub-032,1.0,random_dot,60.17115082874797,
right,right,accuracy,,,,,0.0,1.0,1.0,0.0,4.0,0.0,8.0,1.0,249.68393529998136,,,,,,,,,249.6685301999678,250.86734669998987,251.6676644999534,251.6517202999676,251.6517377999844,251.6676644999534,251.6676644999534,251.6676644999534,252.7017922999803,right,1.0,14.688527400023304,,,,,,,,,,,,,,,,,,,,,,,,,,,,,,,sub-032,1.0,random_dot,60.17115082874797,
left,left,accuracy,,,,,0.0,1.0,1.0,0.0,4.0,1.0,9.0,0.0,252.71765179996143,,,,,,,,,252.70247499999823,253.06734059995503,253.86767740000505,253.8510175999836,253.85103499999968,253.86767740000505,253.86767740000505,253.86767740000505,254.8346612000023,left,1.0,14.6204573000432,,,,,,,,,,,,,,,,,,,,,,,,,,,,,,,sub-032,1.0,random_dot,60.17115082874797,
right,right,accuracy,,,,,0.0,1.0,1.0,0.0,5.0,0.0,10.0,1.0,254.8506206999882,,,,,,,,,254.8353902999661,255.2004484999925,256.0009098000009,255.9849877999513,255.98500519996745,256.0009098000009,256.0009098000009,256.0009098000009,256.5683202999644,right,1.0,14.22150420001708,,,,,,,,,,,,,,,,,,,,,,,,,,,,,,,sub-032,1.0,random_dot,60.17115082874797,
left,left,accuracy,,,,,0.0,1.0,1.0,0.0,5.0,1.0,11.0,0.0,256.5842780999956,,,,,,,,,256.5690014999709,256.9176059999736,257.7175309999729,257.7012701999629,257.70128739997745,257.7175309999729,257.7175309999729,257.7175309999729,258.7679038999486,left,1.0,14.701878599997144,,,,,,,,,,,,,,,,,,,,,,,,,,,,,,,sub-032,1.0,random_dot,60.17115082874797,
right,right,accuracy,,,,,0.0,1.0,1.0,0.0,6.0,0.0,12.0,1.0,258.7838400999899,,,,,,,,,258.7685296999989,259.1175916999928,259.917538299982,259.90154099999927,259.9015647000051,259.917538299982,259.917538299982,259.917538299982,260.53456959995674,right,1.0,14.267289900046308,,,,,,,,,,,,,,,,,,,,,,,,,,,,,,,sub-032,1.0,random_dot,60.17115082874797,
left,left,accuracy,,,,,0.0,1.0,1.0,0.0,6.0,1.0,13.0,0.0,260.5508295999607,,,,,,,,,260.53521979996003,261.75021669996204,262.5508037999971,262.534521900001,262.53453979996266,262.5508037999971,262.5508037999971,262.5508037999971,263.1507295999909,left,1.0,14.253034399996976,,,,,,,,,,,,,,,,,,,,,,,,,,,,,,,sub-032,1.0,random_dot,60.17115082874797,
left,left,accuracy,,,,,0.0,1.0,1.0,0.0,7.0,0.0,14.0,0.0,263.1669801999815,,,,,,,,,263.1513672999572,263.50105359999,264.30068279994885,264.2840418999549,264.2840587999672,264.30068279994885,264.30068279994885,264.30068279994885,265.08424239995657,left,1.0,14.434482800017577,,,,,,,,,,,,,,,,,,,,,,,,,,,,,,,sub-032,1.0,random_dot,60.17115082874797,
right,right,accuracy,,,,,0.0,1.0,1.0,0.0,7.0,1.0,15.0,1.0,265.1003323000041,,,,,,,,,265.084935699997,265.8835567999631,266.6841082999599,266.66730809997534,266.6673254999914,266.6841082999599,266.6841082999599,266.6841082999599,267.2843500999734,right,1.0,14.24468559998786,,,,,,,,,,,,,,,,,,,,,,,,,,,,,,,sub-032,1.0,random_dot,60.17115082874797,
left,left,accuracy,,,,,0.0,1.0,1.0,0.0,8.0,0.0,16.0,0.0,267.30084169999463,,,,,,,,,267.2850162999821,268.0840000999742,268.8842928999802,268.8674298999831,268.86744379997253,268.8842928999802,268.8842928999802,268.8842928999802,271.41767419996904,left,1.0,16.18751820002217,,,,,,,,,,,,,,,,,,,,,,,,,,,,,,,sub-032,1.0,random_dot,60.17115082874797,
right,right,accuracy,,,,,0.0,1.0,1.0,0.0,8.0,1.0,17.0,1.0,271.4341740999953,,,,,,,,,271.4183148999582,271.7672842000029,272.56661359994905,272.55049209995195,272.5505077999551,272.56661359994905,272.56661359994905,272.56661359994905,273.301175999979,right,1.0,14.38869660004275,,,,,,,,,,,,,,,,,,,,,,,,,,,,,,,sub-032,1.0,random_dot,60.17115082874797,
right,right,accuracy,,,,,0.0,1.0,1.0,0.0,9.0,0.0,18.0,1.0,273.3167490999913,,,,,,,,,273.3019240999711,274.50010209996253,275.30019019998144,275.2836729999981,275.28368890000274,275.30019019998144,275.30019019998144,275.30019019998144,276.8511032999959,right,1.0,15.193023800035007,,,,,,,,,,,,,,,,,,,,,,,,,,,,,,,sub-032,1.0,random_dot,60.17115082874797,
left,left,accuracy,,,,,0.0,1.0,1.0,0.0,9.0,1.0,19.0,0.0,276.86686660000123,,,,,,,,,276.8518859999604,277.2165922999848,278.01653429999715,278.0001538999495,278.0001714999671,278.01653429999715,278.01653429999715,278.01653429999715,278.7008784999489,left,1.0,14.326994500006547,,,,,,,,,,,,,,,,,,,,,,,,,,,,,,,sub-032,1.0,random_dot,60.17115082874797,
left,left,accuracy,,,,,0.0,1.0,1.0,0.0,10.0,0.0,20.0,0.0,278.7166869999492,,,,,,,,,278.7015190999955,278.81675080000423,279.61662489996525,279.6000957999495,279.6001133999671,279.61662489996525,279.61662489996525,279.61662489996525,280.8004471999593,left,1.0,14.83196839998709,,,,,,,,,,,,,,,,,,,,,,,,,,,,,,,sub-032,1.0,random_dot,60.17115082874797,
right,right,accuracy,,,,,0.0,1.0,1.0,0.0,10.0,1.0,21.0,1.0,280.81655200000387,,,,,,,,,280.8011785999988,281.616512699984,282.41723119997187,282.4006465999992,282.400663599954,282.41723119997187,282.41723119997187,282.41723119997187,283.1339172999724,right,1.0,14.366427399974782,,,,,,,,,,,,,,,,,,,,,,,,,,,,,,,sub-032,1.0,random_dot,60.17115082874797,
left,left,accuracy,,,,,0.0,1.0,1.0,0.0,11.0,0.0,22.0,0.0,283.1506149999914,,,,,,,,,283.1346623999998,283.4997272999608,284.30016379995504,284.28412819997175,284.28414579998935,284.30016379995504,284.30016379995504,284.30016379995504,285.21707590000005,left,1.0,14.556548800028397,,,,,,,,,,,,,,,,,,,,,,,,,,,,,,,sub-032,1.0,random_dot,60.17115082874797,
right,right,accuracy,,,,,0.0,1.0,1.0,0.0,11.0,1.0,23.0,1.0,285.2336110000033,,,,,,,,,285.21782829996664,286.4168320999597,287.2168270999682,287.2006888999604,287.20070909999777,287.2168270999682,287.2168270999682,287.2168270999682,287.88433989998884,right,1.0,14.308302599994931,,,,,,,,,,,,,,,,,,,,,,,,,,,,,,,sub-032,1.0,random_dot,60.17115082874797,
left,left,accuracy,,,,,0.0,1.0,1.0,0.0,12.0,0.0,24.0,0.0,287.9001483999891,,,,,,,,,287.88503789994866,288.6995936000021,289.49964699998964,289.4832963999943,289.48331329994835,289.49964699998964,289.49964699998964,289.49964699998964,290.55041039997013,left,1.0,14.697148800012656,,,,,,,,,,,,,,,,,,,,,,,,,,,,,,,sub-032,1.0,random_dot,60.17115082874797,
right,right,accuracy,,,,,0.0,1.0,1.0,0.0,12.0,1.0,25.0,1.0,290.5668085999787,,,,,,,,,290.5511310999864,291.366262800002,292.1669050999917,292.15041689999634,292.15043139999034,292.1669050999917,292.1669050999917,292.1669050999917,292.7832372999983,right,1.0,14.269068000023251,,,,,,,,,,,,,,,,,,,,,,,,,,,,,,,sub-032,1.0,random_dot,60.17115082874797,
left,left,accuracy,,,,,0.0,1.0,1.0,0.0,13.0,0.0,26.0,0.0,292.79954519995954,,,,,,,,,292.7840087999939,292.8829588999506,293.6830296999542,293.6671327999793,293.66715339996153,293.6830296999542,293.6830296999542,293.6830296999542,294.9673353999969,left,1.0,14.933542300015688,,,,,,,,,,,,,,,,,,,,,,,,,,,,,,,sub-032,1.0,random_dot,60.17115082874797,
right,right,accuracy,,,,,0.0,1.0,1.0,0.0,13.0,1.0,27.0,1.0,294.98301709996304,,,,,,,,,294.96800519997487,295.083396299975,295.88324749999447,295.867264200002,295.86728179996135,295.88324749999447,295.88324749999447,295.88324749999447,296.53415199997835,right,1.0,14.293114500003869,,,,,,,,,,,,,,,,,,,,,,,,,,,,,,,sub-032,1.0,random_dot,60.17115082874797,
left,left,accuracy,,,,,0.0,1.0,1.0,0.0,14.0,0.0,28.0,0.0,296.5501814999734,,,,,,,,,296.5347859999747,297.75004379998427,298.5493757999502,298.53296240000054,298.53297579998616,298.5493757999502,298.5493757999502,298.5493757999502,299.233541900001,left,1.0,14.327528099995106,,,,,,,,,,,,,,,,,,,,,,,,,,,,,,,sub-032,1.0,random_dot,60.17115082874797,
right,right,accuracy,,,,,0.0,1.0,1.0,0.0,14.0,1.0,29.0,1.0,299.2499510999769,,,,,,,,,299.23420769994846,299.583246299997,300.3828052000026,300.36659879999934,300.3666156999534,300.3828052000026,300.3828052000026,300.3828052000026,301.16680149995955,right,1.0,14.430289200041445,,,,,,,,,,,,,,,,,,,,,,,,,,,,,,,sub-032,1.0,random_dot,60.17115082874797,
right,right,accuracy,,,,,0.0,1.0,1.0,0.0,15.0,0.0,30.0,1.0,301.18316959997173,,,,,,,,,301.16748969996115,301.26657360000536,302.0661203999771,302.0502037999686,302.0502205999801,302.0661203999771,302.0661203999771,302.0661203999771,302.8499198999489,right,1.0,14.436861800029874,,,,,,,,,,,,,,,,,,,,,,,,,,,,,,,sub-032,1.0,random_dot,60.17115082874797,
left,left,accuracy,,,,,0.0,1.0,1.0,0.0,15.0,1.0,31.0,0.0,302.866058399959,,,,,,,,,302.8506674999953,302.9497304999968,303.750018599967,303.73324579995824,303.73326029995224,303.750018599967,303.750018599967,303.750018599967,304.3999316999689,right,0.0,14.292730199988,,,,,,,,,,,,,,,,,,,,,,,,,,,,,,,sub-032,1.0,random_dot,60.17115082874797,
left,left,accuracy,,,,,0.0,1.0,1.0,0.0,16.0,0.0,32.0,0.0,304.4164636999485,,,,,,,,,304.4006492999615,305.59981339995284,306.39928499999223,306.38352519995533,306.383549399965,306.39928499999223,306.39928499999223,306.39928499999223,307.1505375999841,left,1.0,14.396431000030134,,,,,,,,,,,,,,,,,,,,,,,,,,,,,,,sub-032,1.0,random_dot,60.17115082874797,
right,right,accuracy,,,,,0.0,1.0,1.0,0.0,16.0,1.0,33.0,1.0,307.1660355000058,,,,,,,,,307.1512017999776,307.49965680000605,308.2997662999551,308.28303479996976,308.28305579995504,308.2997662999551,308.2997662999551,308.2997662999551,309.0170896999771,right,1.0,14.357372700003909,,,,,,,,,,,,,,,,,,,,,,,,,,,,,,,sub-032,1.0,random_dot,60.17115082874797,
right,right,accuracy,,,,,0.0,1.0,1.0,0.0,17.0,0.0,34.0,1.0,309.032718500006,,,,,,,,,309.0177503000013,309.3826153999544,310.18291829997906,310.16662949998863,310.1666564999614,310.18291829997906,310.18291829997906,310.18291829997906,310.93374499998754,right,1.0,14.390070600027684,,,,,,,,,,,,,,,,,,,,,,,,,,,,,,,sub-032,1.0,random_dot,60.17115082874797,
left,left,accuracy,,,,,0.0,1.0,1.0,0.0,17.0,1.0,35.0,0.0,310.9497972999816,,,,,,,,,310.93436849996215,311.7495669999625,312.5498293999699,312.53328039997723,312.533297499991,312.5498293999699,312.5498293999699,312.5498293999699,313.73315629997524,left,1.0,14.828478700015694,,,,,,,,,,,,,,,,,,,,,,,,,,,,,,,sub-032,1.0,random_dot,60.17115082874797,
right,right,accuracy,,,,,0.0,1.0,1.0,0.0,18.0,0.0,36.0,1.0,313.7496457999805,,,,,,,,,313.7338571999572,314.54968979995465,315.34898670000257,315.332748899993,315.33276439999463,315.34898670000257,315.34898670000257,315.34898670000257,316.0666363000055,right,1.0,14.359361900016664,,,,,,,,,,,,,,,,,,,,,,,,,,,,,,,sub-032,1.0,random_dot,60.17115082874797,
left,left,accuracy,,,,,0.0,1.0,1.0,0.0,18.0,1.0,37.0,0.0,316.08268439996755,,,,,,,,,316.06769419997,317.2828921999899,318.0826848999713,318.0661656999728,318.066185899952,318.0826848999713,318.0826848999713,318.0826848999713,319.4501811999944,left,1.0,15.021512200008146,,,,,,,,,,,,,,,,,,,,,,,,,,,,,,,sub-032,1.0,random_dot,60.17115082874797,
right,right,accuracy,,,,,0.0,1.0,1.0,0.0,19.0,0.0,38.0,1.0,319.46611709997524,,,,,,,,,319.45080669998424,319.5655986999627,320.36599999998,320.34976269997424,320.34978210000554,320.36599999998,320.36599999998,320.36599999998,321.3829857999808,right,1.0,14.666974400053732,,,,,,,,,,,,,,,,,,,,,,,,,,,,,,,sub-032,1.0,random_dot,60.17115082874797,
left,left,accuracy,,,,,0.0,1.0,1.0,0.0,19.0,1.0,39.0,0.0,321.3989905999624,,,,,,,,,321.3836633999599,322.59878259996185,323.3996549999574,323.38328249996994,323.38331479998305,323.3996549999574,323.3996549999574,323.3996549999574,324.69995679997373,left,1.0,14.938728299981449,,,,,,,,,,,,,,,,,,,,,,,,,,,,,,,sub-032,1.0,random_dot,60.17115082874797,
left,left,accuracy,,,,,0.0,1.0,1.0,0.0,20.0,0.0,40.0,0.0,324.7161391999689,,,,,,,,,324.7005989999743,325.0492290999973,325.84864339994965,325.8323005999555,325.83231649996014,325.84864339994965,325.84864339994965,325.84864339994965,326.7498565999558,left,1.0,14.541110300051514,,,,,,,,,,,,,,,,,,,,,,,,,,,,,,,sub-032,1.0,random_dot,60.17115082874797,
right,right,accuracy,,,,,0.0,1.0,1.0,0.0,20.0,1.0,41.0,1.0,326.7659927000059,,,,,,,,,326.7505147999618,327.5658031999483,328.3661500999588,328.3495839999523,328.34960379998665,328.3661500999588,328.3661500999588,328.3661500999588,329.9326597999898,right,1.0,15.207817299989983,,,,,,,,,,,,,,,,,,,,,,,,,,,,,,,sub-032,1.0,random_dot,60.17115082874797,
right,right,accuracy,,,,,0.0,1.0,1.0,0.0,21.0,0.0,42.0,1.0,329.94876820000354,,,,,,,,,329.93335299997125,330.03237219998846,330.831855299999,330.8155027999892,330.81552020000527,330.831855299999,330.831855299999,330.831855299999,331.7000396999647,right,1.0,14.516752500028815,,,,,,,,,,,,,,,,,,,,,,,,,,,,,,,sub-032,1.0,random_dot,60.17115082874797,
left,left,accuracy,,,,,0.0,1.0,1.0,0.0,21.0,1.0,43.0,0.0,331.71575899998425,,,,,,,,,331.7008197999676,332.9151664999663,333.7152092999895,333.69976809999207,333.69978599995375,333.7152092999895,333.7152092999895,333.7152092999895,334.7993977000005,left,1.0,14.734314600005746,,,,,,,,,,,,,,,,,,,,,,,,,,,,,,,sub-032,1.0,random_dot,60.17115082874797,
left,left,accuracy,,,,,0.0,1.0,1.0,0.0,22.0,0.0,44.0,0.0,334.8152323999675,,,,,,,,,334.80003029998625,334.9151436999673,335.7155901999795,335.6995772999944,335.699600699998,335.7155901999795,335.7155901999795,335.7155901999795,336.3655020999722,left,1.0,14.3012705000001,,,,,,,,,,,,,,,,,,,,,,,,,,,,,,,sub-032,1.0,random_dot,60.17115082874797,
right,right,accuracy,,,,,0.0,1.0,1.0,0.0,22.0,1.0,45.0,1.0,336.3818267000024,,,,,,,,,336.3662210999755,337.1659537999658,337.96557109995047,337.9492365999613,337.94925740000326,337.96557109995047,337.96557109995047,337.96557109995047,338.61554319999414,right,1.0,14.303249399992636,,,,,,,,,,,,,,,,,,,,,,,,,,,,,,,sub-032,1.0,random_dot,60.17115082874797,
left,left,accuracy,,,,,0.0,1.0,1.0,0.0,23.0,0.0,46.0,0.0,338.6322946999572,,,,,,,,,338.6161763999844,338.96554449998075,339.76556359999813,339.74923919996945,339.7492573999916,339.76556359999813,339.76556359999813,339.76556359999813,341.01587010000367,left,1.0,14.896949500020128,,,,,,,,,,,,,,,,,,,,,,,,,,,,,,,sub-032,1.0,random_dot,60.17115082874797,
right,right,accuracy,,,,,0.0,1.0,1.0,0.0,23.0,1.0,47.0,1.0,341.03232979995664,,,,,,,,,341.0166279999539,341.11551679996774,341.9154125999776,341.89937249996,341.89938949997304,341.9154125999776,341.9154125999776,341.9154125999776,342.71599439997226,right,1.0,14.454680200025903,,,,,,,,,,,,,,,,,,,,,,,,,,,,,,,sub-032,1.0,random_dot,60.17115082874797,
right,right,accuracy,,,,,0.0,1.0,1.0,0.0,24.0,0.0,48.0,1.0,342.7319237999618,,,,,,,,,342.71662359999027,342.83214439998847,343.63229229999706,343.615369099949,343.6153828999959,343.63229229999706,343.63229229999706,343.63229229999706,345.5656983999652,right,1.0,15.58506449998822,,,,,,,,,,,,,,,,,,,,,,,,,,,,,,,sub-032,1.0,random_dot,60.17115082874797,
left,left,accuracy,,,,,0.0,1.0,1.0,0.0,24.0,1.0,49.0,0.0,345.58182339998893,,,,,,,,,345.56639910000376,345.9156663999893,346.7150090999785,346.69914129999233,346.69915859994944,346.7150090999785,346.7150090999785,346.7150090999785,347.66566080000484,left,1.0,14.594260999991093,,,,,,,,,,,,,,,,,,,,,,,,,,,,,,,sub-032,1.0,random_dot,60.17115082874797,
left,left,accuracy,,,,,0.0,1.0,1.0,0.0,25.0,0.0,50.0,0.0,347.68142189999344,,,,,,,,,347.6663728999556,348.0320356999873,348.831396900001,348.8151302000042,348.8151500999811,348.831396900001,348.831396900001,348.831396900001,349.6989659999963,left,1.0,14.5214791999897,,,,,,,,,,,,,,,,,,,,,,,,,,,,,,,sub-032,1.0,random_dot,60.17115082874797,
right,right,accuracy,,,,,0.0,1.0,1.0,0.0,25.0,1.0,51.0,1.0,349.71493669995107,,,,,,,,,349.6995948999538,350.49862859997666,351.2986039999523,351.28193339996506,351.2819466999499,351.2986039999523,351.2986039999523,351.2986039999523,351.93228469998576,right,1.0,14.27833030000329,,,,,,,,,,,,,,,,,,,,,,,,,,,,,,,sub-032,1.0,random_dot,60.17115082874797,
left,left,accuracy,,,,,0.0,1.0,1.0,0.0,26.0,0.0,52.0,0.0,351.9485803999705,,,,,,,,,351.9329223999521,352.0320004999521,352.83191259996966,352.81564489996526,352.81566099997144,352.83191259996966,352.83191259996966,352.83191259996966,353.648502099968,left,1.0,14.470245200034697,,,,,,,,,,,,,,,,,,,,,,,,,,,,,,,sub-032,1.0,random_dot,60.17115082874797,
right,right,accuracy,,,,,0.0,1.0,1.0,0.0,26.0,1.0,53.0,1.0,353.66470139997546,,,,,,,,,353.6491272999556,354.4479726999998,355.24798409995856,355.23222539998824,355.2322426000028,355.24798409995856,355.24798409995856,355.24798409995856,356.18208109994885,right,1.0,14.573700300010389,,,,,,,,,,,,,,,,,,,,,,,,,,,,,,,sub-032,1.0,random_dot,60.17115082874797,
left,left,accuracy,,,,,0.0,1.0,1.0,0.0,27.0,0.0,54.0,0.0,356.19801529997494,,,,,,,,,356.1827474999591,356.5319935999578,357.33183649997227,357.31545870000264,357.3154760999605,357.33183649997227,357.33183649997227,357.33183649997227,358.53169619996333,left,1.0,14.84931969997706,,,,,,,,,,,,,,,,,,,,,,,,,,,,,,,sub-032,1.0,random_dot,60.17115082874797,
right,right,accuracy,,,,,0.0,1.0,1.0,0.0,27.0,1.0,55.0,1.0,358.54841429996304,,,,,,,,,358.5323541999678,358.632012499962,359.4316860999679,359.41541289997986,359.41543339996133,359.4316860999679,359.4316860999679,359.4316860999679,360.0651043999824,right,1.0,14.286927700042725,,,,,,,,,,,,,,,,,,,,,,,,,,,,,,,sub-032,1.0,random_dot,60.17115082874797,
left,left,accuracy,,,,,0.0,1.0,1.0,0.0,28.0,0.0,56.0,0.0,360.0811512999935,,,,,,,,,360.0657236999832,360.8646187999984,361.6649774999824,361.648637199949,361.6486597000039,361.6649774999824,361.6649774999824,361.6649774999824,362.3821020000032,left,1.0,14.362870600016322,,,,,,,,,,,,,,,,,,,,,,,,,,,,,,,sub-032,1.0,random_dot,60.17115082874797,
right,right,accuracy,,,,,0.0,1.0,1.0,0.0,28.0,1.0,57.0,1.0,362.39797989994986,,,,,,,,,362.3827416999848,362.4812187000061,363.2817880999646,363.265431399981,363.265451699961,363.2817880999646,363.2817880999646,363.2817880999646,363.9484142999863,right,1.0,14.315761400037443,,,,,,,,,,,,,,,,,,,,,,,,,,,,,,,sub-032,1.0,random_dot,60.17115082874797,
left,left,accuracy,,,,,0.0,1.0,1.0,0.0,29.0,0.0,58.0,0.0,363.9652926999843,,,,,,,,,363.9490894000046,364.0484392999788,364.8478981999797,364.8322958999779,364.8323093999643,364.8478981999797,364.8478981999797,364.8478981999797,365.3148127999739,right,0.0,14.113302700046916,,,,,,,,,,,,,,,,,,,,,,,,,,,,,,,sub-032,1.0,random_dot,60.17115082874797,
right,right,accuracy,,,,,0.0,1.0,1.0,0.0,29.0,1.0,59.0,1.0,365.33107119996566,,,,,,,,,365.3154644999886,365.6649161999812,366.4650685999659,366.4481235999847,366.4481367999688,366.4650685999659,366.4650685999659,366.4650685999659,367.2153316999902,right,1.0,14.398802799987608,,,,,,,,,,,,,,,,,,,,,,,,,,,,,,,sub-032,1.0,random_dot,60.17115082874797,
,,accuracy,,,,,0.0,1.0,1.0,0.0,,,,,,,,,,,,,,,,,,,,,,,,,,,,,,,,,,,,,,,,,,,,,,,,,,,,,,,,sub-032,1.0,random_dot,60.17115082874797,
,,,,,,,,,,,,,,,,,,,,,,,,,,,,,,,,,,,,,,,,,,,,,,,,,,,,,,,,,,,,,,367.2158119999804,367.23123749997467,372.2314567999565,372.2154358999687,sub-032,,,,
