wordCTK,colorCTK,corrAnsCTK,congruentCTK,thisN,thisTrialN,thisRepN,keyResp_CTK.keys,keyResp_CTK.corr,keyResp_CTK.rt,keyResp_CTK.duration,wordPractice,colorPractice,corrAnsPractice,congruentPractice,respPractice.keys,respPractice.corr,respPractice.rt,respPractice.duration,word,color,corrAns,congruent,keyResp_test_run.keys,keyResp_test_run.corr,keyResp_test_run.rt,keyResp_test_run.duration,trials_CTK.thisRepN,trials_CTK.thisTrialN,trials_CTK.thisN,trials_CTK.thisIndex,trials_practice.thisRepN,trials_practice.thisTrialN,trials_practice.thisN,trials_practice.thisIndex,trials_test.thisRepN,trials_test.thisTrialN,trials_test.thisN,trials_test.thisIndex,thisRow.t,notes,instruction.started,instr_text.started,instr_image.started,instr_resp.started,instruction.stopped,instr_resp.keys,instr_resp.rt,instr_resp.duration,instr_color_to_key.started,instr_ctk.started,resp_ctk.started,instr_color_to_key.stopped,resp_ctk.keys,resp_ctk.rt,resp_ctk.duration,ITI.started,fixcross.started,fixcross.stopped,ITI.stopped,color_to_key_run.started,stimulus_CTK.started,keyResp_CTK.started,color_to_key_run.stopped,trials_CTK.keyResp_CTK.keys,trials_CTK.keyResp_CTK.corr,trials_CTK.keyResp_CTK.rt,trials_CTK.keyResp_CTK.duration,instr_practice.started,instr_practice_text.started,instr_practice_resp.started,instr_practice.stopped,instr_practice_resp.keys,instr_practice_resp.rt,instr_practice_resp.duration,practice_run.started,stimulus_practice.started,respPractice.started,practice_run.stopped,trials_practice.respPractice.keys,trials_practice.respPractice.corr,trials_practice.respPractice.rt,trials_practice.respPractice.duration,feedback.started,textFeedback.started,feedback.stopped,textFeedback.stopped,instr_test.started,instr_test_text.started,instr_test_resp.started,instr_test.stopped,instr_test_resp.keys,instr_test_resp.rt,instr_test_resp.duration,test_run.started,stimulus_test_run.started,keyResp_test_run.started,test_run.stopped,trials_test.keyResp_test_run.keys,trials_test.keyResp_test_run.corr,trials_test.keyResp_test_run.rt,trials_test.keyResp_test_run.duration,goodbye.started,textGoodbye.started,goodbye.stopped,participant,session,expName,frameRate,Unnamed: 112
,,,,,,,,,,,,,,,,,,,,,,,,,,,,,,,,,,,,,,,,,0.0026348999999754,0.1060883999998623,0.1060883999998623,0.1060883999998623,23.824186400001054,space,23.6870416999991,,,,,,,,,,,,,,,,,,,,,,,,,,,,,,,,,,,,,,,,,,,,,,,,,,,,,,,,,,sub-069,1,stroop_test,59.99221301082133,
,,,,,,,,,,,,,,,,,,,,,,,,,,,,,,,,,,,,,,,,,,,,,,,,,23.824280000000726,23.832020900001226,23.832020900001226,27.834906500000216,space,3.991480500000762,,,,,,,,,,,,,,,,,,,,,,,,,,,,,,,,,,,,,,,,,,,,,,,,,,,sub-069,1,stroop_test,59.99221301082133,
test,yellow,g,1.0,0.0,0.0,0.0,g,1.0,0.6998788999990211,,,,,,,,,,,,,,,,,,0.0,0.0,0.0,1.0,,,,,,,,,27.855977999999595,,,,,,,,,,,,,,,,,27.85159520000161,28.649399699999776,29.457612000001973,29.434021299999586,29.449337699999887,29.457612000001973,29.457612000001973,30.16836179999882,g,1.0,0.6998788999990211,,,,,,,,,,,,,,,,,,,,,,,,,,,,,,,,,,,,,,,sub-069,1,stroop_test,59.99221301082133,
test,red,r,1.0,1.0,1.0,0.0,r,1.0,0.7133734000017284,,,,,,,,,,,,,,,,,,0.0,1.0,1.0,0.0,,,,,,,,,30.182125899998937,,,,,,,,,,,,,,,,,30.16911859999891,31.38185489999887,32.18170829999872,32.16638590000002,32.167532100000244,32.18170829999872,32.18170829999872,32.900707200002216,r,1.0,0.7133734000017284,,,,,,,,,,,,,,,,,,,,,,,,,,,,,,,,,,,,,,,sub-069,1,stroop_test,59.99221301082133,
test,blue,b,1.0,2.0,2.0,0.0,b,1.0,0.5277086000023701,,,,,,,,,,,,,,,,,,0.0,2.0,2.0,2.0,,,,,,,,,32.914605400001165,,,,,,,,,,,,,,,,,32.90148880000197,34.114318700001604,34.91431999999986,34.89879470000233,34.899949800001195,34.91431999999986,34.91431999999986,35.4498777000008,b,1.0,0.5277086000023701,,,,,,,,,,,,,,,,,,,,,,,,,,,,,,,,,,,,,,,sub-069,1,stroop_test,59.99221301082133,
test,red,r,1.0,3.0,0.0,1.0,r,1.0,0.5931287999992492,,,,,,,,,,,,,,,,,,1.0,0.0,3.0,0.0,,,,,,,,,35.4638887000001,,,,,,,,,,,,,,,,,35.450639700000465,36.26344529999915,37.06381340000007,37.04836609999984,37.04966029999923,37.06381340000007,37.06381340000007,37.66603419999956,r,1.0,0.5931287999992492,,,,,,,,,,,,,,,,,,,,,,,,,,,,,,,,,,,,,,,sub-069,1,stroop_test,59.99221301082133,
test,yellow,g,1.0,4.0,1.0,1.0,g,1.0,0.8036639000019932,,,,,,,,,,,,,,,,,,1.0,1.0,4.0,1.0,,,,,,,,,37.68001699999877,,,,,,,,,,,,,,,,,37.66693010000017,38.029823799999576,38.82947340000101,38.81406760000027,38.81523089999973,38.82947340000101,38.82947340000101,39.64852640000026,g,1.0,0.8036639000019932,,,,,,,,,,,,,,,,,,,,,,,,,,,,,,,,,,,,,,,sub-069,1,stroop_test,59.99221301082133,
test,blue,b,1.0,5.0,2.0,1.0,b,1.0,0.3699224999982107,,,,,,,,,,,,,,,,,,1.0,2.0,5.0,2.0,,,,,,,,,39.66252370000075,,,,,,,,,,,,,,,,,39.64932680000129,40.462304000000586,41.26232439999876,41.24678810000114,41.24792679999882,41.26232439999876,41.26232439999876,41.64803820000088,b,1.0,0.3699224999982107,,,,,,,,,,,,,,,,,,,,,,,,,,,,,,,,,,,,,,,sub-069,1,stroop_test,59.99221301082133,
test,red,r,1.0,6.0,0.0,2.0,r,1.0,0.5957047000010789,,,,,,,,,,,,,,,,,,2.0,0.0,6.0,0.0,,,,,,,,,41.661944100000255,,,,,,,,,,,,,,,,,41.648774299999786,42.01183859999946,42.81178830000135,42.79641999999876,42.79758489999949,42.81178830000135,42.81178830000135,43.41416630000094,r,1.0,0.5957047000010789,,,,,,,,,,,,,,,,,,,,,,,,,,,,,,,,,,,,,,,sub-069,1,stroop_test,59.99221301082133,
test,blue,b,1.0,7.0,1.0,2.0,b,1.0,0.4748726999969221,,,,,,,,,,,,,,,,,,2.0,1.0,7.0,2.0,,,,,,,,,43.42801669999972,,,,,,,,,,,,,,,,,43.41490730000078,44.62705890000143,45.42757060000076,45.41227179999987,45.413443800000096,45.42757060000076,45.42757060000076,45.91346820000035,b,1.0,0.4748726999969221,,,,,,,,,,,,,,,,,,,,,,,,,,,,,,,,,,,,,,,sub-069,1,stroop_test,59.99221301082133,
test,yellow,g,1.0,8.0,2.0,2.0,g,1.0,0.9345877000014298,,,,,,,,,,,,,,,,,,2.0,2.0,8.0,1.0,,,,,,,,,45.92724739999903,,,,,,,,,,,,,,,,,45.91427979999935,47.12681069999962,47.92680019999898,47.91151109999919,47.91280270000061,47.92680019999898,47.92680019999898,48.87884510000004,g,1.0,0.9345877000014298,,,,,,,,,,,,,,,,,,,,,,,,,,,,,,,,,,,,,,,sub-069,1,stroop_test,59.99221301082133,
test,red,r,1.0,9.0,0.0,3.0,r,1.0,0.7356283000008261,,,,,,,,,,,,,,,,,,3.0,0.0,9.0,0.0,,,,,,,,,48.8929644000018,,,,,,,,,,,,,,,,,48.87963800000216,50.09264220000114,50.89235990000088,50.87694960000226,50.877975600000354,50.89235990000088,50.89235990000088,51.64443749999919,r,1.0,0.7356283000008261,,,,,,,,,,,,,,,,,,,,,,,,,,,,,,,,,,,,,,,sub-069,1,stroop_test,59.99221301082133,
test,blue,b,1.0,10.0,1.0,3.0,b,1.0,0.5750425000005635,,,,,,,,,,,,,,,,,,3.0,1.0,10.0,2.0,,,,,,,,,51.65862750000088,,,,,,,,,,,,,,,,,51.645082200000616,51.75860920000196,52.55853170000046,52.5431505000015,52.54419070000222,52.55853170000046,52.55853170000046,53.14406550000058,b,1.0,0.5750425000005635,,,,,,,,,,,,,,,,,,,,,,,,,,,,,,,,,,,,,,,sub-069,1,stroop_test,59.99221301082133,
test,yellow,g,1.0,11.0,2.0,3.0,g,1.0,0.6791632999993453,,,,,,,,,,,,,,,,,,3.0,2.0,11.0,1.0,,,,,,,,,53.15827720000016,,,,,,,,,,,,,,,,,53.1447064999993,53.95824129999892,54.75762640000176,54.74170520000189,54.74237859999994,54.75762640000176,54.75762640000176,55.44367079999938,g,1.0,0.6791632999993453,,,,,,,,,,,,,,,,,,,,,,,,,,,,,,,,,,,,,,,sub-069,1,stroop_test,59.99221301082133,
,,,,,,,,,,,,,,,,,,,,,,,,,,,,,,,,,,,,,,,,,,,,,,,,,,,,,,,,,,,,,,,,,,,,55.444033700001455,55.45780780000132,55.45780780000132,61.37549310000031,space,5.902243099997577,,,,,,,,,,,,,,,,,,,,,,,,,,,,,,,,sub-069,1,stroop_test,59.99221301082133,
,,,,0.0,0.0,0.0,,,,,gelb,yellow,g,1.0,g,1.0,1.1773033000026771,,,,,,,,,,,,,,0.0,0.0,0.0,10.0,,,,,61.40193770000042,,,,,,,,,,,,,,,,,61.39712539999891,62.18884180000168,62.997379600001295,62.97356360000049,,,,,,,,,,,,,,,,62.99009730000034,62.997379600001295,62.997379600001295,64.19141010000021,g,1.0,1.1773033000026771,,64.21354810000048,64.21978809999928,65.20509930000117,,,,,,,,,,,,,,,,,,,,sub-069,1,stroop_test,59.99221301082133,
,,,,1.0,1.0,0.0,,,,,rot,blue,b,0.0,b,1.0,0.7357202000021061,,,,,,,,,,,,,,0.0,1.0,1.0,2.0,,,,,65.22132169999895,,,,,,,,,,,,,,,,,65.20597780000026,65.55461750000177,66.3616303000017,66.33930239999972,,,,,,,,,,,,,,,,66.35205209999913,66.3616303000017,66.3616303000017,67.10706779999964,b,1.0,0.7357202000021061,,67.10852220000015,67.12079760000051,68.10545320000165,68.12049990000014,,,,,,,,,,,,,,,,,,,sub-069,1,stroop_test,59.99221301082133,
,,,,2.0,2.0,0.0,,,,,blau,blue,b,1.0,b,1.0,0.3783193999988725,,,,,,,,,,,,,,0.0,2.0,2.0,6.0,,,,,68.12049990000014,,,,,,,,,,,,,,,,,68.10627329999988,68.47032279999985,69.2769799000016,69.25499420000051,,,,,,,,,,,,,,,,69.27014229999986,69.2769799000016,69.2769799000016,69.67282630000045,b,1.0,0.3783193999988725,,69.67423640000197,69.6867671,70.67167580000023,70.68624479999926,,,,,,,,,,,,,,,,,,,sub-069,1,stroop_test,59.99221301082133,
,,,,3.0,3.0,0.0,,,,,rot,yellow,g,0.0,g,1.0,0.4168484000001626,,,,,,,,,,,,,,0.0,3.0,3.0,3.0,,,,,70.68624479999926,,,,,,,,,,,,,,,,,70.67245750000075,71.48600960000113,72.28870280000046,72.27077660000214,,,,,,,,,,,,,,,,72.28005269999994,72.28870280000046,72.28870280000046,72.71954109999933,g,1.0,0.4168484000001626,,72.72000710000066,72.73504460000186,73.71862770000007,73.73469309999928,,,,,,,,,,,,,,,,,,,sub-069,1,stroop_test,59.99221301082133,
,,,,4.0,4.0,0.0,,,,,blau,blue,b,1.0,b,1.0,0.6969261999984155,,,,,,,,,,,,,,0.0,4.0,4.0,5.0,,,,,73.73469309999928,,,,,,,,,,,,,,,,,73.7188567000012,74.08460299999933,74.8887309999991,74.8700503,,,,,,,,,,,,,,,,74.87903630000073,74.8887309999991,74.8887309999991,75.60187719999885,b,1.0,0.6969261999984155,,75.60231209999984,75.61751310000182,76.60112200000003,76.617113100001,,,,,,,,,,,,,,,,,,,sub-069,1,stroop_test,59.99221301082133,
,,,,5.0,5.0,0.0,,,,,gelb,blue,b,0.0,b,1.0,0.5249532000016188,,,,,,,,,,,,,,0.0,5.0,5.0,9.0,,,,,76.617113100001,,,,,,,,,,,,,,,,,76.60137730000133,76.96690420000232,77.77057290000084,77.75235520000206,,,,,,,,,,,,,,,,77.76173589999962,77.77057290000084,77.77057290000084,78.3048118000006,b,1.0,0.5249532000016188,,78.30631379999977,78.31712179999886,79.30131990000154,79.31659489999947,,,,,,,,,,,,,,,,,,,sub-069,1,stroop_test,59.99221301082133,
,,,,6.0,6.0,0.0,,,,,rot,red,r,1.0,r,1.0,0.6668078000002424,,,,,,,,,,,,,,0.0,6.0,6.0,1.0,,,,,79.31659489999947,,,,,,,,,,,,,,,,,79.30186600000161,80.11654800000179,80.91830370000025,80.90134380000018,,,,,,,,,,,,,,,,80.90932590000011,80.91830370000025,80.91830370000025,81.60250350000206,r,1.0,0.6668078000002424,,81.60373510000136,81.61624089999896,82.60075680000227,82.61580030000187,,,,,,,,,,,,,,,,,,,sub-069,1,stroop_test,59.99221301082133,
,,,,7.0,7.0,0.0,,,,,gelb,red,r,0.0,r,1.0,1.3103000999981305,,,,,,,,,,,,,,0.0,7.0,7.0,8.0,,,,,82.61580030000187,,,,,,,,,,,,,,,,,82.60144320000109,83.81521260000227,84.6174940000019,84.60040759999902,,,,,,,,,,,,,,,,84.60828690000199,84.6174940000019,84.6174940000019,85.93427750000046,r,1.0,1.3103000999981305,,85.93554640000002,85.94817719999992,86.93267610000112,86.94781839999996,,,,,,,,,,,,,,,,,,,sub-069,1,stroop_test,59.99221301082133,
,,,,8.0,8.0,0.0,,,,,blau,red,r,0.0,r,1.0,1.049278200000117,,,,,,,,,,,,,,0.0,8.0,8.0,4.0,,,,,86.94781839999996,,,,,,,,,,,,,,,,,86.93337520000205,87.04775620000146,87.85204000000158,87.83274080000047,,,,,,,,,,,,,,,,87.84161840000161,87.85204000000158,87.85204000000158,88.91709249999985,r,1.0,1.049278200000117,,88.91850970000087,88.93070490000173,89.9155090000022,89.9302975999999,,,,,,,,,,,,,,,,,,,sub-069,1,stroop_test,59.99221301082133,
,,,,9.0,9.0,0.0,,,,,rot,red,r,1.0,r,1.0,0.5085335000003397,,,,,,,,,,,,,,0.0,9.0,9.0,0.0,,,,,89.9302975999999,,,,,,,,,,,,,,,,,89.91630499999883,90.28033850000064,91.07977400000163,91.06415339999876,,,,,,,,,,,,,,,,91.07015300000056,91.07977400000163,91.07977400000163,91.59965150000062,r,1.0,0.5085335000003397,,91.6010939000007,91.61318920000122,92.59764070000163,92.61264800000208,,,,,,,,,,,,,,,,,,,sub-069,1,stroop_test,59.99221301082133,
,,,,10.0,10.0,0.0,,,,,gelb,yellow,g,1.0,g,1.0,0.5517123000026913,,,,,,,,,,,,,,0.0,10.0,10.0,11.0,,,,,92.61264800000208,,,,,,,,,,,,,,,,,92.5983555999992,92.96268190000046,93.76324300000124,93.74716999999872,,,,,,,,,,,,,,,,93.75501200000144,93.76324300000124,93.76324300000124,94.33143760000166,g,1.0,0.5517123000026913,,94.33267329999944,94.34560400000191,95.33010250000008,95.3451019000022,,,,,,,,,,,,,,,,,,,sub-069,1,stroop_test,59.99221301082133,
,,,,11.0,11.0,0.0,,,,,blau,yellow,g,0.0,g,1.0,1.1115738000007696,,,,,,,,,,,,,,0.0,11.0,11.0,7.0,,,,,95.3451019000022,,,,,,,,,,,,,,,,,95.33086879999972,95.695073400002,96.49785060000067,96.4798765000014,,,,,,,,,,,,,,,,96.48902330000055,96.49785060000067,96.49785060000067,97.61402850000012,g,1.0,1.1115738000007696,,97.6153974000008,97.6278779000022,98.61250389999988,98.62749239999904,,,,,,,,,,,,,,,,,,,sub-069,1,stroop_test,59.99221301082133,
,,,,12.0,0.0,1.0,,,,,gelb,blue,b,0.0,b,1.0,0.5197392000009131,,,,,,,,,,,,,,1.0,0.0,12.0,9.0,,,,,98.62749239999904,,,,,,,,,,,,,,,,,98.61322389999988,99.4274633999994,100.2275765000013,100.21174990000144,,,,,,,,,,,,,,,,100.2189130000006,100.2275765000013,100.2275765000013,100.76279250000152,b,1.0,0.5197392000009131,,100.76410889999896,100.77688449999914,101.7614364000001,101.77634409999882,,,,,,,,,,,,,,,,,,,sub-069,1,stroop_test,59.99221301082133,
,,,,13.0,1.0,1.0,,,,,rot,red,r,1.0,r,1.0,0.618613099999493,,,,,,,,,,,,,,1.0,1.0,13.0,1.0,,,,,101.77634409999882,,,,,,,,,,,,,,,,,101.76219140000104,102.97590029999992,103.77563079999892,103.75921609999932,,,,,,,,,,,,,,,,103.7627719000011,103.77563079999892,103.77563079999892,104.41181680000228,r,1.0,0.618613099999493,,104.41324180000085,104.42593530000158,105.4098135000022,105.425235900002,,,,,,,,,,,,,,,,,,,sub-069,1,stroop_test,59.99221301082133,
,,,,14.0,2.0,1.0,,,,,rot,red,r,1.0,r,1.0,0.5503737999970326,,,,,,,,,,,,,,1.0,2.0,14.0,0.0,,,,,105.425235900002,,,,,,,,,,,,,,,,,105.41038300000218,105.52527960000224,106.3253302000012,106.31021640000108,,,,,,,,,,,,,,,,106.31156120000014,106.3253302000012,106.3253302000012,106.8790924999994,r,1.0,0.5503737999970326,,106.88047870000082,106.89171250000072,107.87643709999976,107.89134399999966,,,,,,,,,,,,,,,,,,,sub-069,1,stroop_test,59.99221301082133,
,,,,15.0,3.0,1.0,,,,,gelb,red,r,0.0,r,1.0,0.7347851999984414,,,,,,,,,,,,,,1.0,3.0,15.0,8.0,,,,,107.89134399999966,,,,,,,,,,,,,,,,,107.87720740000076,108.69115990000137,109.49325220000172,109.4759355999995,,,,,,,,,,,,,,,,109.48400100000072,109.49325220000172,109.49325220000172,110.24334839999938,r,1.0,0.7347851999984414,,110.24469130000216,110.2572848000018,111.24203019999914,111.25694360000124,,,,,,,,,,,,,,,,,,,sub-069,1,stroop_test,59.99221301082133,
,,,,16.0,4.0,1.0,,,,,rot,yellow,g,0.0,g,1.0,0.849284500000067,,,,,,,,,,,,,,1.0,4.0,16.0,3.0,,,,,111.25694360000124,,,,,,,,,,,,,,,,,111.24290630000178,112.05677769999966,112.8611005999992,112.8414687000004,,,,,,,,,,,,,,,,112.85118779999902,112.8611005999992,112.8611005999992,113.72582289999993,g,1.0,0.849284500000067,,113.7272981999995,113.73967189999894,114.72438870000042,114.7390630000009,,,,,,,,,,,,,,,,,,,sub-069,1,stroop_test,59.99221301082133,
,,,,17.0,5.0,1.0,,,,,blau,blue,b,1.0,b,1.0,0.5655265999994299,,,,,,,,,,,,,,1.0,5.0,17.0,5.0,,,,,114.7390630000009,,,,,,,,,,,,,,,,,114.7252179999996,115.93890530000137,116.73834390000049,116.7229647000022,,,,,,,,,,,,,,,,116.7303310999996,116.73834390000049,116.73834390000049,117.30825600000026,b,1.0,0.5655265999994299,,117.30944440000168,117.3215925000004,118.30632239999976,118.32140179999988,,,,,,,,,,,,,,,,,,,sub-069,1,stroop_test,59.99221301082133,
,,,,18.0,6.0,1.0,,,,,gelb,yellow,g,1.0,g,1.0,1.7129534000014246,,,,,,,,,,,,,,1.0,6.0,18.0,10.0,,,,,118.32140179999988,,,,,,,,,,,,,,,,,118.30709760000173,119.52115100000084,120.32101030000194,120.30564090000188,,,,,,,,,,,,,,,,120.31280360000164,120.32101030000194,120.32101030000194,122.03870889999962,g,1.0,1.7129534000014246,,122.0396413999988,122.05342459999883,123.0381798999988,123.05332550000094,,,,,,,,,,,,,,,,,,,sub-069,1,stroop_test,59.99221301082133,
,,,,19.0,7.0,1.0,,,,,blau,red,r,0.0,r,1.0,0.8375492999984999,,,,,,,,,,,,,,1.0,7.0,19.0,4.0,,,,,123.05332550000094,,,,,,,,,,,,,,,,,123.03888500000176,123.15322519999972,123.9549779000008,123.93784460000096,,,,,,,,,,,,,,,,123.9458255999998,123.9549779000008,123.9549779000008,124.80591310000092,r,1.0,0.8375492999984999,,124.80738030000066,124.8192162000014,125.80417619999936,125.81867870000131,,,,,,,,,,,,,,,,,,,sub-069,1,stroop_test,59.99221301082133,
,,,,20.0,8.0,1.0,,,,,blau,blue,b,1.0,b,1.0,1.1101444999985688,,,,,,,,,,,,,,1.0,8.0,20.0,6.0,,,,,125.81867870000131,,,,,,,,,,,,,,,,,125.80487920000088,127.01866940000036,127.8181900999989,127.80330279999907,,,,,,,,,,,,,,,,127.80440219999946,127.8181900999989,127.8181900999989,128.93753669999933,b,1.0,1.1101444999985688,,128.9388285999994,128.9515050000009,129.9360244999989,129.95099130000017,,,,,,,,,,,,,,,,,,,sub-069,1,stroop_test,59.99221301082133,
,,,,21.0,9.0,1.0,,,,,rot,blue,b,0.0,b,1.0,0.7273259999965376,,,,,,,,,,,,,,1.0,9.0,21.0,2.0,,,,,129.95099130000017,,,,,,,,,,,,,,,,,129.93676380000034,130.30102700000134,131.10403380000207,131.0854787999997,,,,,,,,,,,,,,,,131.09390039999926,131.10403380000207,131.10403380000207,131.83625250000114,b,1.0,0.7273259999965376,,131.8373446000005,131.85059980000003,132.8337515000021,132.8494806000017,,,,,,,,,,,,,,,,,,,sub-069,1,stroop_test,59.99221301082133,
,,,,22.0,10.0,1.0,,,,,blau,yellow,g,0.0,g,1.0,0.712720100000297,,,,,,,,,,,,,,1.0,10.0,22.0,7.0,,,,,132.8494806000017,,,,,,,,,,,,,,,,,132.8339601000007,134.04926559999876,134.85195450000174,134.83489969999937,,,,,,,,,,,,,,,,134.84434580000016,134.85195450000174,134.85195450000174,135.56642869999996,g,1.0,0.712720100000297,,135.56681730000128,135.58209550000174,136.56563499999902,136.58175960000153,,,,,,,,,,,,,,,,,,,sub-069,1,stroop_test,59.99221301082133,
,,,,23.0,11.0,1.0,,,,,gelb,yellow,g,1.0,g,1.0,0.4524055000001681,,,,,,,,,,,,,,1.0,11.0,23.0,11.0,,,,,136.58175960000153,,,,,,,,,,,,,,,,,136.56586940000125,137.3655214999999,138.182753699999,138.1660464000015,,,,,,,,,,,,,,,,138.17413840000154,138.182753699999,138.182753699999,138.6507283999999,g,1.0,0.4524055000001681,,138.65219459999935,138.66438070000004,139.64896729999964,139.6641038000016,,,,,,,,,,,,,,,,,,,sub-069,1,stroop_test,59.99221301082133,
,,,,,,,,,,,,,,,,,,,,,,,,,,,,,,,,,,,,,,,,,,,,,,,,,,,,,,,,,,,,,,,,,,,,,,,,,,,,,,,,,,,,,,,139.6492825000023,139.6641038000016,139.6641038000016,141.74902029999794,space,2.0798479999975825,,,,,,,,,,,,,sub-069,1,stroop_test,59.99221301082133,
,,,,0.0,0.0,0.0,,,,,,,,,,,,,rot,yellow,g,0.0,g,1.0,0.6110025000016321,,,,,,,,,,0.0,0.0,0.0,3.0,141.77842010000313,,,,,,,,,,,,,,,,,141.7745712000033,141.8632327000014,142.66290789999766,142.64747199999692,,,,,,,,,,,,,,,,,,,,,,,,,,,,,,,,,,,142.65462829999888,142.66290789999766,142.66290789999766,143.28289329999825,g,1.0,0.6110025000016321,,,,,sub-069,1,stroop_test,59.99221301082133,
,,,,1.0,1.0,0.0,,,,,,,,,,,,,rot,blue,b,0.0,b,1.0,0.5262671000018599,,,,,,,,,,0.0,1.0,1.0,2.0,143.29621290000068,,,,,,,,,,,,,,,,,143.28391849999753,143.396041400003,144.19594009999855,144.18113150000136,,,,,,,,,,,,,,,,,,,,,,,,,,,,,,,,,,,144.18249710000237,144.19594009999855,144.19594009999855,144.73131580000336,b,1.0,0.5262671000018599,,,,,sub-069,1,stroop_test,59.99221301082133,
,,,,2.0,2.0,0.0,,,,,,,,,,,,,blau,yellow,g,0.0,g,1.0,0.5164828999986639,,,,,,,,,,0.0,2.0,2.0,7.0,144.74523030000273,,,,,,,,,,,,,,,,,144.73206409999693,144.84565879999718,145.6453240999981,145.63027470000088,,,,,,,,,,,,,,,,,,,,,,,,,,,,,,,,,,,145.63749860000098,145.6453240999981,145.6453240999981,146.16479880000406,g,1.0,0.5164828999986639,,,,,sub-069,1,stroop_test,59.99221301082133,
,,,,3.0,3.0,0.0,,,,,,,,,,,,,gelb,red,r,0.0,r,1.0,0.623014199998579,,,,,,,,,,0.0,3.0,3.0,8.0,146.17847400000028,,,,,,,,,,,,,,,,,146.1655716000023,146.2783752000032,147.07821839999815,147.06290050000098,,,,,,,,,,,,,,,,,,,,,,,,,,,,,,,,,,,147.06993309999962,147.07821839999815,147.07821839999815,147.713717300001,r,1.0,0.623014199998579,,,,,sub-069,1,stroop_test,59.99221301082133,
,,,,4.0,4.0,0.0,,,,,,,,,,,,,gelb,yellow,g,1.0,g,1.0,0.5850546000001486,,,,,,,,,,0.0,4.0,4.0,11.0,147.72798499999772,,,,,,,,,,,,,,,,,147.7144621999978,148.52791189999698,149.32755600000382,149.31167979999736,,,,,,,,,,,,,,,,,,,,,,,,,,,,,,,,,,,149.3127203999975,149.32755600000382,149.32755600000382,149.92965820000245,g,1.0,0.5850546000001486,,,,,sub-069,1,stroop_test,59.99221301082133,
,,,,5.0,5.0,0.0,,,,,,,,,,,,,blau,red,r,0.0,r,1.0,0.7474608999982593,,,,,,,,,,0.0,5.0,5.0,4.0,149.94390230000135,,,,,,,,,,,,,,,,,149.93040160000237,150.2939097999988,151.09545849999995,151.0785679000037,,,,,,,,,,,,,,,,,,,,,,,,,,,,,,,,,,,151.0872159999999,151.09545849999995,151.09545849999995,151.84623029999784,r,1.0,0.7474608999982593,,,,,sub-069,1,stroop_test,59.99221301082133,
,,,,6.0,6.0,0.0,,,,,,,,,,,,,rot,red,r,1.0,r,1.0,0.6669155999989016,,,,,,,,,,0.0,6.0,6.0,1.0,151.8599030999976,,,,,,,,,,,,,,,,,151.84709250000014,152.21003380000184,153.01618340000277,152.99524720000045,,,,,,,,,,,,,,,,,,,,,,,,,,,,,,,,,,,153.00709490000008,153.01618340000277,153.01618340000277,153.6960489999983,r,1.0,0.6669155999989016,,,,,sub-069,1,stroop_test,59.99221301082133,
,,,,7.0,7.0,0.0,,,,,,,,,,,,,gelb,yellow,g,1.0,g,1.0,0.6009089999934076,,,,,,,,,,0.0,7.0,7.0,10.0,153.70964169999934,,,,,,,,,,,,,,,,,153.69708060000266,154.5094367999991,155.31008060000022,155.29375930000242,,,,,,,,,,,,,,,,,,,,,,,,,,,,,,,,,,,155.3009263999993,155.31008060000022,155.31008060000022,155.9276355999973,g,1.0,0.6009089999934076,,,,,sub-069,1,stroop_test,59.99221301082133,
,,,,8.0,8.0,0.0,,,,,,,,,,,,,gelb,blue,b,0.0,b,1.0,0.5676103000005241,,,,,,,,,,0.0,8.0,8.0,9.0,155.94205250000232,,,,,,,,,,,,,,,,,155.9282949999979,156.74218929999915,157.54188669999712,157.52674220000335,,,,,,,,,,,,,,,,,,,,,,,,,,,,,,,,,,,157.52795740000147,157.54188669999712,157.54188669999712,158.1273121999984,b,1.0,0.5676103000005241,,,,,sub-069,1,stroop_test,59.99221301082133,
,,,,9.0,9.0,0.0,,,,,,,,,,,,,blau,blue,b,1.0,b,1.0,0.6126556000017445,,,,,,,,,,0.0,9.0,9.0,6.0,158.14141380000365,,,,,,,,,,,,,,,,,158.12819119999767,158.94119900000078,159.7436452000038,159.72584630000347,,,,,,,,,,,,,,,,,,,,,,,,,,,,,,,,,,,159.7353144000008,159.7436452000038,159.7436452000038,160.36112490000232,b,1.0,0.6126556000017445,,,,,sub-069,1,stroop_test,59.99221301082133,
,,,,10.0,10.0,0.0,,,,,,,,,,,,,rot,red,r,1.0,r,1.0,0.6830865000010817,,,,,,,,,,0.0,10.0,10.0,0.0,160.3741758000033,,,,,,,,,,,,,,,,,160.36213059999864,160.4743290999977,161.27640249999968,161.25909089999914,,,,,,,,,,,,,,,,,,,,,,,,,,,,,,,,,,,161.26855500000238,161.27640249999968,161.27640249999968,161.97539420000248,r,1.0,0.6830865000010817,,,,,sub-069,1,stroop_test,59.99221301082133,
,,,,11.0,11.0,0.0,,,,,,,,,,,,,blau,blue,b,1.0,b,1.0,0.4935158000007504,,,,,,,,,,0.0,11.0,11.0,5.0,161.9901000000027,,,,,,,,,,,,,,,,,161.9760626999996,162.79011239999818,163.59281519999786,163.57491960000334,,,,,,,,,,,,,,,,,,,,,,,,,,,,,,,,,,,163.58446659999754,163.59281519999786,163.59281519999786,164.09249930000078,b,1.0,0.4935158000007504,,,,,sub-069,1,stroop_test,59.99221301082133,
,,,,12.0,0.0,1.0,,,,,,,,,,,,,blau,blue,b,1.0,b,1.0,0.5515143000011449,,,,,,,,,,1.0,0.0,12.0,6.0,164.10632450000412,,,,,,,,,,,,,,,,,164.09345410000242,164.9062017000033,165.7058584999977,165.69088069999998,,,,,,,,,,,,,,,,,,,,,,,,,,,,,,,,,,,165.69206459999987,165.7058584999977,165.7058584999977,166.27449060000072,b,1.0,0.5515143000011449,,,,,sub-069,1,stroop_test,59.99221301082133,
,,,,13.0,1.0,1.0,,,,,,,,,,,,,rot,red,r,1.0,r,1.0,0.7687607000043499,,,,,,,,,,1.0,1.0,13.0,1.0,166.2888258000021,,,,,,,,,,,,,,,,,166.27521980000165,166.38870640000096,167.1884046999985,167.1732744999972,,,,,,,,,,,,,,,,,,,,,,,,,,,,,,,,,,,167.18063529999927,167.1884046999985,167.1884046999985,167.9741434000025,r,1.0,0.7687607000043499,,,,,sub-069,1,stroop_test,59.99221301082133,
,,,,14.0,2.0,1.0,,,,,,,,,,,,,gelb,red,r,0.0,r,1.0,0.6601402000014787,,,,,,,,,,1.0,2.0,14.0,8.0,167.988360000003,,,,,,,,,,,,,,,,,167.97491609999997,169.18807879999804,169.9877009999982,169.972254100001,,,,,,,,,,,,,,,,,,,,,,,,,,,,,,,,,,,169.9793761999972,169.9877009999982,169.9877009999982,170.6565327999997,r,1.0,0.6601402000014787,,,,,sub-069,1,stroop_test,59.99221301082133,
,,,,15.0,3.0,1.0,,,,,,,,,,,,,rot,red,r,1.0,r,1.0,0.6204062000033446,,,,,,,,,,1.0,3.0,15.0,0.0,170.67078339999716,,,,,,,,,,,,,,,,,170.6572701000041,171.4705238000024,172.27408350000042,172.25575350000145,,,,,,,,,,,,,,,,,,,,,,,,,,,,,,,,,,,172.2649831000017,172.27408350000042,172.27408350000042,172.9053761000032,r,1.0,0.6204062000033446,,,,,sub-069,1,stroop_test,59.99221301082133,
,,,,16.0,4.0,1.0,,,,,,,,,,,,,gelb,blue,b,0.0,b,1.0,0.7140864999964833,,,,,,,,,,1.0,4.0,16.0,9.0,172.91986950000137,,,,,,,,,,,,,,,,,172.90602349999972,173.02025880000292,173.82133759999851,173.80490860000282,,,,,,,,,,,,,,,,,,,,,,,,,,,,,,,,,,,173.81349690000206,173.82133759999851,173.82133759999851,174.5392154000001,b,1.0,0.7140864999964833,,,,,sub-069,1,stroop_test,59.99221301082133,
,,,,17.0,5.0,1.0,,,,,,,,,,,,,gelb,yellow,g,1.0,g,1.0,0.5652438000033726,,,,,,,,,,1.0,5.0,17.0,11.0,174.55267460000323,,,,,,,,,,,,,,,,,174.54009080000105,174.65309420000267,175.452727099997,175.4372685999988,,,,,,,,,,,,,,,,,,,,,,,,,,,,,,,,,,,175.43839750000188,175.452727099997,175.452727099997,176.02160390000063,g,1.0,0.5652438000033726,,,,,sub-069,1,stroop_test,59.99221301082133,
,,,,18.0,6.0,1.0,,,,,,,,,,,,,gelb,yellow,g,1.0,g,1.0,0.5924346000028891,,,,,,,,,,1.0,6.0,18.0,10.0,176.03578150000249,,,,,,,,,,,,,,,,,176.0223668000035,177.23559480000404,178.0351970999982,178.02009089999774,,,,,,,,,,,,,,,,,,,,,,,,,,,,,,,,,,,178.0212853999983,178.0351970999982,178.0351970999982,178.6375590000025,g,1.0,0.5924346000028891,,,,,sub-069,1,stroop_test,59.99221301082133,
,,,,19.0,7.0,1.0,,,,,,,,,,,,,rot,yellow,g,0.0,g,1.0,0.5067865000019083,,,,,,,,,,1.0,7.0,19.0,3.0,178.65167590000055,,,,,,,,,,,,,,,,,178.6383644000016,179.00160019999748,179.80265489999874,179.7862047000017,,,,,,,,,,,,,,,,,,,,,,,,,,,,,,,,,,,179.79439970000385,179.80265489999874,179.80265489999874,180.31974990000165,g,1.0,0.5067865000019083,,,,,sub-069,1,stroop_test,59.99221301082133,
,,,,20.0,8.0,1.0,,,,,,,,,,,,,blau,blue,b,1.0,b,1.0,0.6009724999967148,,,,,,,,,,1.0,8.0,20.0,5.0,180.33445310000388,,,,,,,,,,,,,,,,,180.3203840999995,180.43455510000055,181.23414819999743,181.21851759999845,,,,,,,,,,,,,,,,,,,,,,,,,,,,,,,,,,,181.22448710000023,181.23414819999743,181.23414819999743,181.85225799999895,b,1.0,0.6009724999967148,,,,,sub-069,1,stroop_test,59.99221301082133,
,,,,21.0,9.0,1.0,,,,,,,,,,,,,blau,yellow,g,0.0,g,1.0,0.8003208000009181,,,,,,,,,,1.0,9.0,21.0,7.0,181.867224499998,,,,,,,,,,,,,,,,,181.85289349999948,182.66716489999817,183.4669539000024,183.4519833000013,,,,,,,,,,,,,,,,,,,,,,,,,,,,,,,,,,,183.4532887000023,183.4669539000024,183.4669539000024,184.2852119000017,g,1.0,0.8003208000009181,,,,,sub-069,1,stroop_test,59.99221301082133,
,,,,22.0,10.0,1.0,,,,,,,,,,,,,blau,red,r,0.0,r,1.0,0.9599269999962416,,,,,,,,,,1.0,10.0,22.0,4.0,184.29981570000385,,,,,,,,,,,,,,,,,184.28588950000267,184.3997765000022,185.19979020000028,185.18443439999828,,,,,,,,,,,,,,,,,,,,,,,,,,,,,,,,,,,185.1854719000039,185.19979020000028,185.19979020000028,186.16838670000288,r,1.0,0.9599269999962416,,,,,sub-069,1,stroop_test,59.99221301082133,
,,,,23.0,11.0,1.0,,,,,,,,,,,,,rot,blue,b,0.0,b,1.0,0.6753585999977076,,,,,,,,,,1.0,11.0,23.0,2.0,186.18265480000264,,,,,,,,,,,,,,,,,186.1691212000005,186.9823851000037,187.78312310000183,187.76681320000355,,,,,,,,,,,,,,,,,,,,,,,,,,,,,,,,,,,187.77534490000107,187.78312310000183,187.78312310000183,188.46769949999725,b,1.0,0.6753585999977076,,,,,sub-069,1,stroop_test,59.99221301082133,
,,,,24.0,0.0,2.0,,,,,,,,,,,,,rot,blue,b,0.0,b,1.0,0.7453442999976687,,,,,,,,,,2.0,0.0,24.0,2.0,188.481918700003,,,,,,,,,,,,,,,,,188.468438099997,189.68163710000223,190.48099699999875,190.4649977000008,,,,,,,,,,,,,,,,,,,,,,,,,,,,,,,,,,,190.465454600002,190.48099699999875,190.48099699999875,191.23376350000035,b,1.0,0.7453442999976687,,,,,sub-069,1,stroop_test,59.99221301082133,
,,,,25.0,1.0,2.0,,,,,,,,,,,,,rot,red,r,1.0,r,1.0,0.5936923999979626,,,,,,,,,,2.0,1.0,25.0,0.0,191.24781220000293,,,,,,,,,,,,,,,,,191.2346390000021,192.0479353999981,192.8468118000019,192.8309628999996,,,,,,,,,,,,,,,,,,,,,,,,,,,,,,,,,,,192.83133480000103,192.8468118000019,192.8468118000019,193.44831169999816,r,1.0,0.5936923999979626,,,,,sub-069,1,stroop_test,59.99221301082133,
,,,,26.0,2.0,2.0,,,,,,,,,,,,,gelb,yellow,g,1.0,g,1.0,0.8280565999957616,,,,,,,,,,2.0,2.0,26.0,10.0,193.46327159999785,,,,,,,,,,,,,,,,,193.4488755999992,193.56327109999984,194.36299139999755,194.34716130000012,,,,,,,,,,,,,,,,,,,,,,,,,,,,,,,,,,,194.3495124999972,194.36299139999755,194.36299139999755,195.1995139999999,g,1.0,0.8280565999957616,,,,,sub-069,1,stroop_test,59.99221301082133,
,,,,27.0,3.0,2.0,,,,,,,,,,,,,gelb,yellow,g,1.0,g,1.0,0.7926322999992408,,,,,,,,,,2.0,3.0,27.0,11.0,195.21339219999936,,,,,,,,,,,,,,,,,195.20048269999825,195.31308559999889,196.11246579999715,196.0968079000013,,,,,,,,,,,,,,,,,,,,,,,,,,,,,,,,,,,196.09729620000144,196.11246579999715,196.11246579999715,196.91334369999825,g,1.0,0.7926322999992408,,,,,sub-069,1,stroop_test,59.99221301082133,
,,,,28.0,4.0,2.0,,,,,,,,,,,,,blau,yellow,g,0.0,g,1.0,0.6541096000000834,,,,,,,,,,2.0,4.0,28.0,7.0,196.92881060000215,,,,,,,,,,,,,,,,,196.91367229999744,197.0288243000032,197.8290553999977,197.81441910000285,,,,,,,,,,,,,,,,,,,,,,,,,,,,,,,,,,,197.82129590000116,197.8290553999977,197.8290553999977,198.49733969999943,g,1.0,0.6541096000000834,,,,,sub-069,1,stroop_test,59.99221301082133,
,,,,29.0,5.0,2.0,,,,,,,,,,,,,gelb,blue,b,0.0,b,1.0,1.0664688999968348,,,,,,,,,,2.0,5.0,29.0,9.0,198.51201189999847,,,,,,,,,,,,,,,,,198.49799989999883,199.31171229999745,200.1116037000029,200.09673029999976,,,,,,,,,,,,,,,,,,,,,,,,,,,,,,,,,,,200.1037731000033,200.1116037000029,200.1116037000029,201.1815604000003,b,1.0,1.0664688999968348,,,,,sub-069,1,stroop_test,59.99221301082133,
,,,,30.0,6.0,2.0,,,,,,,,,,,,,blau,red,r,0.0,r,1.0,0.6822698999967542,,,,,,,,,,2.0,6.0,30.0,4.0,201.19483539999783,,,,,,,,,,,,,,,,,201.18250329999864,201.9945064999993,202.79719820000173,202.77922820000092,,,,,,,,,,,,,,,,,,,,,,,,,,,,,,,,,,,202.78797510000004,202.79719820000173,202.79719820000173,203.4967886000013,r,1.0,0.6822698999967542,,,,,sub-069,1,stroop_test,59.99221301082133,
,,,,31.0,7.0,2.0,,,,,,,,,,,,,blau,blue,b,1.0,b,1.0,0.7405035999981919,,,,,,,,,,2.0,7.0,31.0,5.0,203.51057939999737,,,,,,,,,,,,,,,,,203.4976319999987,204.3105180999992,205.11042420000007,205.0955202000041,,,,,,,,,,,,,,,,,,,,,,,,,,,,,,,,,,,205.09688180000376,205.11042420000007,205.11042420000007,205.8632273999974,b,1.0,0.7405035999981919,,,,,sub-069,1,stroop_test,59.99221301082133,
,,,,32.0,8.0,2.0,,,,,,,,,,,,,blau,blue,b,1.0,b,1.0,0.4621557999998913,,,,,,,,,,2.0,8.0,32.0,6.0,205.87666989999707,,,,,,,,,,,,,,,,,205.864184500002,206.2265660999983,207.0264129999996,207.01163230000384,,,,,,,,,,,,,,,,,,,,,,,,,,,,,,,,,,,207.01315720000275,207.0264129999996,207.0264129999996,207.4967657000016,b,1.0,0.4621557999998913,,,,,sub-069,1,stroop_test,59.99221301082133,
,,,,33.0,9.0,2.0,,,,,,,,,,,,,rot,yellow,g,0.0,g,1.0,1.165604900001199,,,,,,,,,,2.0,9.0,33.0,3.0,207.509444000003,,,,,,,,,,,,,,,,,207.4977588000038,208.30887639999852,209.11295260000043,209.094107900004,,,,,,,,,,,,,,,,,,,,,,,,,,,,,,,,,,,209.1047526999973,209.11295260000043,209.11295260000043,210.2948430000033,g,1.0,1.165604900001199,,,,,sub-069,1,stroop_test,59.99221301082133,
,,,,34.0,10.0,2.0,,,,,,,,,,,,,gelb,red,r,0.0,r,1.0,0.6022148000047309,,,,,,,,,,2.0,10.0,34.0,8.0,210.3080153999981,,,,,,,,,,,,,,,,,210.29583200000343,210.4085724000033,211.2125667,211.19390620000195,,,,,,,,,,,,,,,,,,,,,,,,,,,,,,,,,,,211.20298629999888,211.2125667,211.2125667,211.82661489999737,r,1.0,0.6022148000047309,,,,,sub-069,1,stroop_test,59.99221301082133,
,,,,35.0,11.0,2.0,,,,,,,,,,,,,rot,red,r,1.0,r,1.0,0.4793137999949977,,,,,,,,,,2.0,11.0,35.0,1.0,211.8409248000025,,,,,,,,,,,,,,,,,211.82725129999744,212.1912943999996,212.990847699999,212.97585470000195,,,,,,,,,,,,,,,,,,,,,,,,,,,,,,,,,,,212.9833702000033,212.990847699999,212.990847699999,213.47688280000148,r,1.0,0.4793137999949977,,,,,sub-069,1,stroop_test,59.99221301082133,
,,,,36.0,0.0,3.0,,,,,,,,,,,,,rot,yellow,g,0.0,g,1.0,0.4509312000009231,,,,,,,,,,3.0,0.0,36.0,3.0,213.49093790000188,,,,,,,,,,,,,,,,,213.47769990000236,213.8407692000037,214.64047559999744,214.62500539999743,,,,,,,,,,,,,,,,,,,,,,,,,,,,,,,,,,,214.6260473000002,214.64047559999744,214.64047559999744,215.10915450000172,g,1.0,0.4509312000009231,,,,,sub-069,1,stroop_test,59.99221301082133,
,,,,37.0,1.0,3.0,,,,,,,,,,,,,rot,blue,b,0.0,b,1.0,0.4290130999943358,,,,,,,,,,3.0,1.0,37.0,2.0,215.12357989999876,,,,,,,,,,,,,,,,,215.10995209999965,215.4734088999976,216.27342070000304,216.25806300000116,,,,,,,,,,,,,,,,,,,,,,,,,,,,,,,,,,,216.2590888999985,216.27342070000304,216.27342070000304,216.7090288999971,b,1.0,0.4290130999943358,,,,,sub-069,1,stroop_test,59.99221301082133,
,,,,38.0,2.0,3.0,,,,,,,,,,,,,gelb,red,r,0.0,r,1.0,1.0890750999969896,,,,,,,,,,3.0,2.0,38.0,8.0,216.7231219000023,,,,,,,,,,,,,,,,,216.70974079999723,217.922928,218.72248460000264,218.7070567999981,,,,,,,,,,,,,,,,,,,,,,,,,,,,,,,,,,,218.71314169999823,218.72248460000264,218.72248460000264,219.82455080000364,r,1.0,1.0890750999969896,,,,,sub-069,1,stroop_test,59.99221301082133,
,,,,39.0,3.0,3.0,,,,,,,,,,,,,rot,red,r,1.0,r,1.0,0.5682012000033865,,,,,,,,,,3.0,3.0,39.0,1.0,219.83876240000245,,,,,,,,,,,,,,,,,219.82532679999716,220.6386179000037,221.438378400002,221.42290489999868,,,,,,,,,,,,,,,,,,,,,,,,,,,,,,,,,,,221.42999299999792,221.438378400002,221.438378400002,222.02394300000012,r,1.0,0.5682012000033865,,,,,sub-069,1,stroop_test,59.99221301082133,
,,,,40.0,4.0,3.0,,,,,,,,,,,,,blau,yellow,g,0.0,g,1.0,0.9345395999989704,,,,,,,,,,3.0,4.0,40.0,7.0,222.0379155999981,,,,,,,,,,,,,,,,,222.02468719999888,222.3880758000014,223.1932308000032,223.1733738000039,,,,,,,,,,,,,,,,,,,,,,,,,,,,,,,,,,,223.18399270000373,223.1932308000032,223.1932308000032,224.14080269999977,g,1.0,0.9345395999989704,,,,,sub-069,1,stroop_test,59.99221301082133,
,,,,41.0,5.0,3.0,,,,,,,,,,,,,blau,red,r,0.0,r,1.0,0.6410710999989533,,,,,,,,,,3.0,5.0,41.0,4.0,224.1544559000031,,,,,,,,,,,,,,,,,224.14181629999803,225.3540366000016,226.1531428000017,226.1390715000016,,,,,,,,,,,,,,,,,,,,,,,,,,,,,,,,,,,226.1410981000008,226.1531428000017,226.1531428000017,226.80663179999829,r,1.0,0.6410710999989533,,,,,sub-069,1,stroop_test,59.99221301082133,
,,,,42.0,6.0,3.0,,,,,,,,,,,,,blau,blue,b,1.0,b,1.0,0.4372713999982807,,,,,,,,,,3.0,6.0,42.0,5.0,226.8197932999974,,,,,,,,,,,,,,,,,226.8075828000001,228.019331800002,228.8192772999973,228.80540279999693,,,,,,,,,,,,,,,,,,,,,,,,,,,,,,,,,,,228.8078804000033,228.8192772999973,228.8192772999973,229.2698700000037,b,1.0,0.4372713999982807,,,,,sub-069,1,stroop_test,59.99221301082133,
,,,,43.0,7.0,3.0,,,,,,,,,,,,,gelb,yellow,g,1.0,g,1.0,0.5856492999955663,,,,,,,,,,3.0,7.0,43.0,10.0,229.28553120000288,,,,,,,,,,,,,,,,,229.27016059999733,230.48558500000215,231.28679269999705,231.2701089999973,,,,,,,,,,,,,,,,,,,,,,,,,,,,,,,,,,,231.27829070000007,231.28679269999705,231.28679269999705,231.8877969000023,g,1.0,0.5856492999955663,,,,,sub-069,1,stroop_test,59.99221301082133,
,,,,44.0,8.0,3.0,,,,,,,,,,,,,gelb,yellow,g,1.0,g,1.0,0.4810758000021451,,,,,,,,,,3.0,8.0,44.0,11.0,231.90177720000065,,,,,,,,,,,,,,,,,231.88862779999909,233.10149749999985,233.9014077000029,233.886130400002,,,,,,,,,,,,,,,,,,,,,,,,,,,,,,,,,,,233.8872360000023,233.9014077000029,233.9014077000029,234.38717819999877,g,1.0,0.4810758000021451,,,,,sub-069,1,stroop_test,59.99221301082133,
,,,,45.0,9.0,3.0,,,,,,,,,,,,,gelb,blue,b,0.0,b,1.0,0.524340799995116,,,,,,,,,,3.0,9.0,45.0,9.0,234.40104119999887,,,,,,,,,,,,,,,,,234.38805510000384,235.20095839999703,236.00046809999915,235.98500259999852,,,,,,,,,,,,,,,,,,,,,,,,,,,,,,,,,,,235.9859127000018,236.00046809999915,236.00046809999915,236.5355921000009,b,1.0,0.524340799995116,,,,,sub-069,1,stroop_test,59.99221301082133,
,,,,46.0,10.0,3.0,,,,,,,,,,,,,rot,red,r,1.0,r,1.0,0.9288788000048952,,,,,,,,,,3.0,10.0,46.0,0.0,236.55028850000235,,,,,,,,,,,,,,,,,236.53621269999712,236.650215200003,237.45293230000243,237.43538529999933,,,,,,,,,,,,,,,,,,,,,,,,,,,,,,,,,,,237.44320220000373,237.45293230000243,237.45293230000243,238.3867492999998,r,1.0,0.9288788000048952,,,,,sub-069,1,stroop_test,59.99221301082133,
,,,,47.0,11.0,3.0,,,,,,,,,,,,,blau,blue,b,1.0,b,1.0,0.7223788000046625,,,,,,,,,,3.0,11.0,47.0,6.0,238.39983159999971,,,,,,,,,,,,,,,,,238.38770179999847,238.4997321999981,239.3035724000001,239.28455910000048,,,,,,,,,,,,,,,,,,,,,,,,,,,,,,,,,,,239.29379229999904,239.3035724000001,239.3035724000001,240.0349658999985,b,1.0,0.7223788000046625,,,,,sub-069,1,stroop_test,59.99221301082133,
,,,,48.0,0.0,4.0,,,,,,,,,,,,,rot,yellow,g,0.0,r,0.0,0.7496417000002111,,,,,,,,,,4.0,0.0,48.0,3.0,240.04918790000372,,,,,,,,,,,,,,,,,240.0357110999976,240.8489955000041,241.64861409999867,241.6334360999972,,,,,,,,,,,,,,,,,,,,,,,,,,,,,,,,,,,241.64072979999764,241.64861409999867,241.64861409999867,242.4013106999992,r,0.0,0.7496417000002111,,,,,sub-069,1,stroop_test,59.99221301082133,
,,,,49.0,1.0,4.0,,,,,,,,,,,,,gelb,yellow,g,1.0,g,1.0,0.6729415000008885,,,,,,,,,,4.0,1.0,49.0,10.0,242.41518879999785,,,,,,,,,,,,,,,,,242.40209750000213,243.2149237999984,244.0149059000032,243.99933720000263,,,,,,,,,,,,,,,,,,,,,,,,,,,,,,,,,,,244.00573520000037,244.0149059000032,244.0149059000032,244.70035949999877,g,1.0,0.6729415000008885,,,,,sub-069,1,stroop_test,59.99221301082133,
,,,,50.0,2.0,4.0,,,,,,,,,,,,,blau,yellow,g,0.0,g,1.0,0.4768761999948765,,,,,,,,,,4.0,2.0,50.0,7.0,244.7144909999988,,,,,,,,,,,,,,,,,244.70116170000256,244.8143391999984,245.6143923999989,245.59893520000333,,,,,,,,,,,,,,,,,,,,,,,,,,,,,,,,,,,245.60666849999689,245.6143923999989,245.6143923999989,246.0996746000019,g,1.0,0.4768761999948765,,,,,sub-069,1,stroop_test,59.99221301082133,
,,,,51.0,3.0,4.0,,,,,,,,,,,,,blau,blue,b,1.0,b,1.0,0.8428849999982049,,,,,,,,,,4.0,3.0,51.0,5.0,246.11403520000025,,,,,,,,,,,,,,,,,246.10045089999767,247.3135287999976,248.1134613000031,248.09812390000295,,,,,,,,,,,,,,,,,,,,,,,,,,,,,,,,,,,248.09914310000025,248.1134613000031,248.1134613000031,248.9658113999976,b,1.0,0.8428849999982049,,,,,sub-069,1,stroop_test,59.99221301082133,
,,,,52.0,4.0,4.0,,,,,,,,,,,,,blau,blue,b,1.0,b,1.0,0.3825080000024172,,,,,,,,,,4.0,4.0,52.0,6.0,248.9799039999998,,,,,,,,,,,,,,,,,248.96654940000008,250.179715899998,250.97916460000124,250.96362110000337,,,,,,,,,,,,,,,,,,,,,,,,,,,,,,,,,,,250.9645727000025,250.97916460000124,250.97916460000124,251.3644151999979,b,1.0,0.3825080000024172,,,,,sub-069,1,stroop_test,59.99221301082133,
,,,,53.0,5.0,4.0,,,,,,,,,,,,,rot,red,r,1.0,r,1.0,0.5927454000047874,,,,,,,,,,4.0,5.0,53.0,1.0,251.37878890000135,,,,,,,,,,,,,,,,,251.36510740000085,252.17889480000304,252.9947052999996,252.97877439999863,,,,,,,,,,,,,,,,,,,,,,,,,,,,,,,,,,,252.9815240000025,252.9947052999996,252.9947052999996,253.59539470000163,r,1.0,0.5927454000047874,,,,,sub-069,1,stroop_test,59.99221301082133,
,,,,54.0,6.0,4.0,,,,,,,,,,,,,rot,blue,b,0.0,g,0.0,0.6465917000023182,,,,,,,,,,4.0,6.0,54.0,2.0,253.6111747000032,,,,,,,,,,,,,,,,,253.59565740000107,253.6945921000006,254.4942480000027,254.47812729999717,,,,,,,,,,,,,,,,,,,,,,,,,,,,,,,,,,,254.4785000999982,254.4942480000027,254.4942480000027,255.1476337999993,g,0.0,0.6465917000023182,,,,,sub-069,1,stroop_test,59.99221301082133,
,,,,55.0,7.0,4.0,,,,,,,,,,,,,gelb,yellow,g,1.0,g,1.0,1.696550100001332,,,,,,,,,,4.0,7.0,55.0,11.0,255.1612657000005,,,,,,,,,,,,,,,,,255.1486191000004,255.9604601000028,256.7601777000018,256.7440306999997,,,,,,,,,,,,,,,,,,,,,,,,,,,,,,,,,,,256.7460913000032,256.7601777000018,256.7601777000018,258.4625457000002,g,1.0,1.696550100001332,,,,,sub-069,1,stroop_test,59.99221301082133,
,,,,56.0,8.0,4.0,,,,,,,,,,,,,gelb,blue,b,0.0,b,1.0,0.5279470000023139,,,,,,,,,,4.0,8.0,56.0,9.0,258.4767063000036,,,,,,,,,,,,,,,,,258.46326430000045,259.67647510000097,260.47654429999966,260.4617750999969,,,,,,,,,,,,,,,,,,,,,,,,,,,,,,,,,,,260.4630619000018,260.47654429999966,260.47654429999966,261.0142600000036,b,1.0,0.5279470000023139,,,,,sub-069,1,stroop_test,59.99221301082133,
,,,,57.0,9.0,4.0,,,,,,,,,,,,,gelb,red,r,0.0,r,1.0,0.6515696000060416,,,,,,,,,,4.0,9.0,57.0,8.0,261.02639869999985,,,,,,,,,,,,,,,,,261.01536730000225,261.3762876999972,262.1757546000008,262.16065589999926,,,,,,,,,,,,,,,,,,,,,,,,,,,,,,,,,,,262.16201600000204,262.1757546000008,262.1757546000008,262.84506390000024,r,1.0,0.6515696000060416,,,,,sub-069,1,stroop_test,59.99221301082133,
,,,,58.0,10.0,4.0,,,,,,,,,,,,,blau,red,r,0.0,r,1.0,1.3273241999995662,,,,,,,,,,4.0,10.0,58.0,4.0,262.85894689999986,,,,,,,,,,,,,,,,,262.8459901000024,263.2087470999977,264.0125143000041,263.9938761000012,,,,,,,,,,,,,,,,,,,,,,,,,,,,,,,,,,,264.0030460999988,264.0125143000041,264.0125143000041,265.34396749999723,r,1.0,1.3273241999995662,,,,,sub-069,1,stroop_test,59.99221301082133,
,,,,59.0,11.0,4.0,,,,,,,,,,,,,rot,red,r,1.0,r,1.0,0.5446590999999898,,,,,,,,,,4.0,11.0,59.0,0.0,265.3581011999995,,,,,,,,,,,,,,,,,265.34471250000206,265.70789669999795,266.5074590000004,266.4925676999992,,,,,,,,,,,,,,,,,,,,,,,,,,,,,,,,,,,266.4995720000006,266.5074590000004,266.5074590000004,267.0599597000037,r,1.0,0.5446590999999898,,,,,sub-069,1,stroop_test,59.99221301082133,
,,,,60.0,0.0,5.0,,,,,,,,,,,,,rot,yellow,g,0.0,g,1.0,1.1085467000011704,,,,,,,,,,5.0,0.0,60.0,3.0,267.0741534999979,,,,,,,,,,,,,,,,,267.06067769999936,268.2737591000041,269.0736956000037,269.0591224000018,,,,,,,,,,,,,,,,,,,,,,,,,,,,,,,,,,,269.0603555999988,269.0736956000037,269.0736956000037,270.1925593999986,g,1.0,1.1085467000011704,,,,,sub-069,1,stroop_test,59.99221301082133,
,,,,61.0,1.0,5.0,,,,,,,,,,,,,gelb,yellow,g,1.0,g,1.0,0.8109111999947345,,,,,,,,,,5.0,1.0,61.0,11.0,270.2065642000016,,,,,,,,,,,,,,,,,270.1934134999974,270.3065569000028,271.10610989999986,271.0910284999991,,,,,,,,,,,,,,,,,,,,,,,,,,,,,,,,,,,271.0980867000035,271.10610989999986,271.10610989999986,271.9247594999979,g,1.0,0.8109111999947345,,,,,sub-069,1,stroop_test,59.99221301082133,
,,,,62.0,2.0,5.0,,,,,,,,,,,,,rot,red,r,1.0,r,1.0,0.6784328000067035,,,,,,,,,,5.0,2.0,62.0,0.0,271.93919879999885,,,,,,,,,,,,,,,,,271.9254263999974,272.28925549999985,273.08872269999847,273.0730221999984,,,,,,,,,,,,,,,,,,,,,,,,,,,,,,,,,,,273.0764205000014,273.08872269999847,273.08872269999847,273.77554789999704,r,1.0,0.6784328000067035,,,,,sub-069,1,stroop_test,59.99221301082133,
,,,,63.0,3.0,5.0,,,,,,,,,,,,,blau,blue,b,1.0,b,1.0,0.8060571000023629,,,,,,,,,,5.0,3.0,63.0,6.0,273.7887458000041,,,,,,,,,,,,,,,,,273.7766474000018,273.88884569999937,274.6922771000027,274.6741026000018,,,,,,,,,,,,,,,,,,,,,,,,,,,,,,,,,,,274.6833159000016,274.6922771000027,274.6922771000027,275.50732060000155,b,1.0,0.8060571000023629,,,,,sub-069,1,stroop_test,59.99221301082133,
,,,,64.0,4.0,5.0,,,,,,,,,,,,,gelb,red,r,0.0,r,1.0,0.7645038999980898,,,,,,,,,,5.0,4.0,64.0,8.0,275.52151559999766,,,,,,,,,,,,,,,,,275.50811960000283,276.72133990000293,277.5210092999987,277.5058680000002,,,,,,,,,,,,,,,,,,,,,,,,,,,,,,,,,,,277.5125814999992,277.5210092999987,277.5210092999987,278.2901867000037,r,1.0,0.7645038999980898,,,,,sub-069,1,stroop_test,59.99221301082133,
,,,,65.0,5.0,5.0,,,,,,,,,,,,,blau,red,r,0.0,r,1.0,0.7466410999986692,,,,,,,,,,5.0,5.0,65.0,4.0,278.30412539999816,,,,,,,,,,,,,,,,,278.2910219999976,279.50359690000187,280.3032525000017,280.2872522000034,,,,,,,,,,,,,,,,,,,,,,,,,,,,,,,,,,,280.291326999999,280.3032525000017,280.3032525000017,281.05724770000234,r,1.0,0.7466410999986692,,,,,sub-069,1,stroop_test,59.99221301082133,
,,,,66.0,6.0,5.0,,,,,,,,,,,,,gelb,blue,b,0.0,b,1.0,0.7315825999976369,,,,,,,,,,5.0,6.0,66.0,9.0,281.0700132999991,,,,,,,,,,,,,,,,,281.05843769999774,281.1700237999976,281.97039270000096,281.95452549999754,,,,,,,,,,,,,,,,,,,,,,,,,,,,,,,,,,,281.96240119999857,281.97039270000096,281.97039270000096,282.70588970000244,b,1.0,0.7315825999976369,,,,,sub-069,1,stroop_test,59.99221301082133,
,,,,67.0,7.0,5.0,,,,,,,,,,,,,rot,blue,b,0.0,b,1.0,0.7630578999960562,,,,,,,,,,5.0,7.0,67.0,2.0,282.7193430999978,,,,,,,,,,,,,,,,,282.70688569999766,283.0688458000004,283.8703059999971,283.85397869999724,,,,,,,,,,,,,,,,,,,,,,,,,,,,,,,,,,,283.8621555999998,283.8703059999971,283.8703059999971,284.6380675999972,b,1.0,0.7630578999960562,,,,,sub-069,1,stroop_test,59.99221301082133,
,,,,68.0,8.0,5.0,,,,,,,,,,,,,gelb,yellow,g,1.0,g,1.0,0.7011839999977383,,,,,,,,,,5.0,8.0,68.0,10.0,284.6520193000033,,,,,,,,,,,,,,,,,284.6389522000027,285.45190770000045,286.2514904999989,286.2364987999972,,,,,,,,,,,,,,,,,,,,,,,,,,,,,,,,,,,286.2433400000009,286.2514904999989,286.2514904999989,286.97029610000027,g,1.0,0.7011839999977383,,,,,sub-069,1,stroop_test,59.99221301082133,
,,,,69.0,9.0,5.0,,,,,,,,,,,,,rot,red,r,1.0,r,1.0,0.5635160999954678,,,,,,,,,,5.0,9.0,69.0,1.0,286.98462460000155,,,,,,,,,,,,,,,,,286.9711540999997,287.78440989999945,288.5864661000014,288.56877410000016,,,,,,,,,,,,,,,,,,,,,,,,,,,,,,,,,,,288.5779857000016,288.5864661000014,288.5864661000014,289.15382800000225,r,1.0,0.5635160999954678,,,,,sub-069,1,stroop_test,59.99221301082133,
,,,,70.0,10.0,5.0,,,,,,,,,,,,,blau,yellow,g,0.0,g,1.0,0.8139434999975492,,,,,,,,,,5.0,10.0,70.0,7.0,289.1673942999987,,,,,,,,,,,,,,,,,289.15471239999897,290.3667187000028,291.1678708000036,291.15174169999955,,,,,,,,,,,,,,,,,,,,,,,,,,,,,,,,,,,291.1596942000033,291.1678708000036,291.1678708000036,291.9860489999992,g,1.0,0.8139434999975492,,,,,sub-069,1,stroop_test,59.99221301082133,
,,,,71.0,11.0,5.0,,,,,,,,,,,,,blau,blue,b,1.0,b,1.0,0.8186605000009877,,,,,,,,,,5.0,11.0,71.0,5.0,291.99988889999804,,,,,,,,,,,,,,,,,291.98688879999827,292.0997974999991,292.89958740000293,292.88442360000045,,,,,,,,,,,,,,,,,,,,,,,,,,,,,,,,,,,292.88557939999737,292.89958740000293,292.89958740000293,293.73509139999805,b,1.0,0.8186605000009877,,,,,sub-069,1,stroop_test,59.99221301082133,
,,,,72.0,0.0,6.0,,,,,,,,,,,,,blau,yellow,g,0.0,g,1.0,1.2346238999962225,,,,,,,,,,6.0,0.0,72.0,7.0,293.74929749999865,,,,,,,,,,,,,,,,,293.73587950000365,293.84926350000023,294.6489892000027,294.6338876000009,,,,,,,,,,,,,,,,,,,,,,,,,,,,,,,,,,,294.6350714,294.6489892000027,294.6489892000027,295.9006034999984,g,1.0,1.2346238999962225,,,,,sub-069,1,stroop_test,59.99221301082133,
,,,,73.0,1.0,6.0,,,,,,,,,,,,,rot,blue,b,0.0,b,1.0,0.7641836000038893,,,,,,,,,,6.0,1.0,73.0,2.0,295.91499040000053,,,,,,,,,,,,,,,,,295.901305899999,297.1147284000035,297.91453799999726,297.8990077999988,,,,,,,,,,,,,,,,,,,,,,,,,,,,,,,,,,,297.9059256999972,297.91453799999726,297.91453799999726,298.6838256999981,b,1.0,0.7641836000038893,,,,,sub-069,1,stroop_test,59.99221301082133,
,,,,74.0,2.0,6.0,,,,,,,,,,,,,rot,red,r,1.0,r,1.0,0.4893119999978808,,,,,,,,,,6.0,2.0,74.0,0.0,298.6977521000008,,,,,,,,,,,,,,,,,298.6846818999984,299.8972967000009,300.69715500000166,300.68211500000325,,,,,,,,,,,,,,,,,,,,,,,,,,,,,,,,,,,300.6834116000027,300.69715500000166,300.69715500000166,301.20002029999887,r,1.0,0.4893119999978808,,,,,sub-069,1,stroop_test,59.99221301082133,
,,,,75.0,3.0,6.0,,,,,,,,,,,,,blau,red,r,0.0,r,1.0,0.6076481999989483,,,,,,,,,,6.0,3.0,75.0,4.0,301.2136782000016,,,,,,,,,,,,,,,,,301.20099080000364,301.3130478000021,302.11625690000074,302.0983290000004,,,,,,,,,,,,,,,,,,,,,,,,,,,,,,,,,,,302.1071723999994,302.11625690000074,302.11625690000074,302.73135270000057,r,1.0,0.6076481999989483,,,,,sub-069,1,stroop_test,59.99221301082133,
,,,,76.0,4.0,6.0,,,,,,,,,,,,,gelb,blue,b,0.0,b,1.0,0.6211182999977609,,,,,,,,,,6.0,4.0,76.0,9.0,302.7461726000038,,,,,,,,,,,,,,,,,302.73195800000394,302.84619869999733,303.6470999000012,303.6311618000036,,,,,,,,,,,,,,,,,,,,,,,,,,,,,,,,,,,303.6392030999996,303.6470999000012,303.6470999000012,304.2809880999994,b,1.0,0.6211182999977609,,,,,sub-069,1,stroop_test,59.99221301082133,
,,,,77.0,5.0,6.0,,,,,,,,,,,,,rot,yellow,g,0.0,g,1.0,0.626745800000208,,,,,,,,,,6.0,5.0,77.0,3.0,304.295873199997,,,,,,,,,,,,,,,,,304.28164359999937,305.09591550000187,305.8952277999997,305.8795250000039,,,,,,,,,,,,,,,,,,,,,,,,,,,,,,,,,,,305.88643669999874,305.8952277999997,305.8952277999997,306.53053530000034,g,1.0,0.626745800000208,,,,,sub-069,1,stroop_test,59.99221301082133,
,,,,78.0,6.0,6.0,,,,,,,,,,,,,rot,red,r,1.0,r,1.0,0.6003484999964712,,,,,,,,,,6.0,6.0,78.0,1.0,306.5450456000035,,,,,,,,,,,,,,,,,306.5311666999987,307.7447508000041,308.5447114999988,308.5294415000026,,,,,,,,,,,,,,,,,,,,,,,,,,,,,,,,,,,308.5306094999978,308.5447114999988,308.5447114999988,309.14760589999787,r,1.0,0.6003484999964712,,,,,sub-069,1,stroop_test,59.99221301082133,
,,,,79.0,7.0,6.0,,,,,,,,,,,,,blau,blue,b,1.0,b,1.0,0.5490624000012758,,,,,,,,,,6.0,7.0,79.0,6.0,309.16113020000194,,,,,,,,,,,,,,,,,309.1484307999999,309.51105950000056,310.3128394000014,310.2956897999975,,,,,,,,,,,,,,,,,,,,,,,,,,,,,,,,,,,310.3048039999994,310.3128394000014,310.3128394000014,310.8795057000025,b,1.0,0.5490624000012758,,,,,sub-069,1,stroop_test,59.99221301082133,
,,,,80.0,8.0,6.0,,,,,,,,,,,,,gelb,red,r,0.0,r,1.0,0.711489100001927,,,,,,,,,,6.0,8.0,80.0,8.0,310.8938699999999,,,,,,,,,,,,,,,,,310.88036110000394,312.09363609999855,312.8927717999977,312.8767422000019,,,,,,,,,,,,,,,,,,,,,,,,,,,,,,,,,,,312.87924880000355,312.8927717999977,312.8927717999977,313.6101781000034,r,1.0,0.711489100001927,,,,,sub-069,1,stroop_test,59.99221301082133,
,,,,81.0,9.0,6.0,,,,,,,,,,,,,blau,blue,b,1.0,b,1.0,0.4680240000016056,,,,,,,,,,6.0,9.0,81.0,5.0,313.6258951999989,,,,,,,,,,,,,,,,,313.6105773000017,314.4256518999973,315.2287662000017,315.2106863000008,,,,,,,,,,,,,,,,,,,,,,,,,,,,,,,,,,,315.2198447999981,315.2287662000017,315.2287662000017,315.7100075999988,b,1.0,0.4680240000016056,,,,,sub-069,1,stroop_test,59.99221301082133,
,,,,82.0,10.0,6.0,,,,,,,,,,,,,gelb,yellow,g,1.0,g,1.0,0.5458129000035115,,,,,,,,,,6.0,10.0,82.0,10.0,315.7252019000007,,,,,,,,,,,,,,,,,315.7105728000024,316.074998600001,316.8747568000035,316.8586792999995,,,,,,,,,,,,,,,,,,,,,,,,,,,,,,,,,,,316.8609526,316.8747568000035,316.8747568000035,317.4285119999986,g,1.0,0.5458129000035115,,,,,sub-069,1,stroop_test,59.99221301082133,
,,,,83.0,11.0,6.0,,,,,,,,,,,,,gelb,yellow,g,1.0,g,1.0,0.5905585000000428,,,,,,,,,,6.0,11.0,83.0,11.0,317.4420035000003,,,,,,,,,,,,,,,,,317.42949450000015,317.54195240000263,318.34179179999774,318.32686970000213,,,,,,,,,,,,,,,,,,,,,,,,,,,,,,,,,,,318.32858059999853,318.34179179999774,318.34179179999774,318.94403030000103,g,1.0,0.5905585000000428,,,,,sub-069,1,stroop_test,59.99221301082133,
,,,,84.0,0.0,7.0,,,,,,,,,,,,,blau,blue,b,1.0,b,1.0,0.5432591999997385,,,,,,,,,,7.0,0.0,84.0,6.0,318.9578972000017,,,,,,,,,,,,,,,,,318.944774100004,319.057807899997,319.8575464000023,319.84240249999857,,,,,,,,,,,,,,,,,,,,,,,,,,,,,,,,,,,319.84946219999983,319.8575464000023,319.8575464000023,320.40992969999934,b,1.0,0.5432591999997385,,,,,sub-069,1,stroop_test,59.99221301082133,
,,,,85.0,1.0,7.0,,,,,,,,,,,,,gelb,blue,b,0.0,b,1.0,0.5771145999970031,,,,,,,,,,7.0,1.0,85.0,9.0,320.4241353999969,,,,,,,,,,,,,,,,,320.41071119999833,321.6239446000036,322.4272681000002,322.4086647000004,,,,,,,,,,,,,,,,,,,,,,,,,,,,,,,,,,,322.41844680000213,322.4272681000002,322.4272681000002,323.00759169999947,b,1.0,0.5771145999970031,,,,,sub-069,1,stroop_test,59.99221301082133,
,,,,86.0,2.0,7.0,,,,,,,,,,,,,rot,blue,b,0.0,b,1.0,0.6941768000033335,,,,,,,,,,7.0,2.0,86.0,2.0,323.0229685000013,,,,,,,,,,,,,,,,,323.0079735000036,323.3565786000036,324.1599896999978,324.14175760000217,,,,,,,,,,,,,,,,,,,,,,,,,,,,,,,,,,,324.15110450000066,324.1599896999978,324.1599896999978,324.8594930000036,b,1.0,0.6941768000033335,,,,,sub-069,1,stroop_test,59.99221301082133,
,,,,87.0,3.0,7.0,,,,,,,,,,,,,rot,red,r,1.0,r,1.0,0.6093160000018543,,,,,,,,,,7.0,3.0,87.0,0.0,324.8731043000007,,,,,,,,,,,,,,,,,324.8604121000026,326.0728960999986,326.87224270000297,326.85735230000137,,,,,,,,,,,,,,,,,,,,,,,,,,,,,,,,,,,326.8586385000017,326.87224270000297,326.87224270000297,327.4920915000039,r,1.0,0.6093160000018543,,,,,sub-069,1,stroop_test,59.99221301082133,
,,,,88.0,4.0,7.0,,,,,,,,,,,,,blau,red,r,0.0,r,1.0,0.6571243999933358,,,,,,,,,,7.0,4.0,88.0,4.0,327.5053926999972,,,,,,,,,,,,,,,,,327.4931113999992,327.855392700003,328.6598965000012,328.6405264999994,,,,,,,,,,,,,,,,,,,,,,,,,,,,,,,,,,,328.6497262999983,328.6598965000012,328.6598965000012,329.32473339999706,r,1.0,0.6571243999933358,,,,,sub-069,1,stroop_test,59.99221301082133,
,,,,89.0,5.0,7.0,,,,,,,,,,,,,blau,blue,b,1.0,b,1.0,0.6322852000012062,,,,,,,,,,7.0,5.0,89.0,5.0,329.33822460000374,,,,,,,,,,,,,,,,,329.3256937999977,330.13806699999986,330.93764809999993,330.9226912000013,,,,,,,,,,,,,,,,,,,,,,,,,,,,,,,,,,,330.92393150000134,330.93764809999993,330.93764809999993,331.57243089999974,b,1.0,0.6322852000012062,,,,,sub-069,1,stroop_test,59.99221301082133,
,,,,90.0,6.0,7.0,,,,,,,,,,,,,gelb,yellow,g,1.0,g,1.0,0.5369817999962834,,,,,,,,,,7.0,6.0,90.0,11.0,331.5871668999971,,,,,,,,,,,,,,,,,331.57289380000293,332.7874398999993,333.5867139000038,333.572293899997,,,,,,,,,,,,,,,,,,,,,,,,,,,,,,,,,,,333.57993539999734,333.5867139000038,333.5867139000038,334.1391063999981,g,1.0,0.5369817999962834,,,,,sub-069,1,stroop_test,59.99221301082133,
,,,,91.0,7.0,7.0,,,,,,,,,,,,,gelb,red,r,0.0,r,1.0,1.091621400002623,,,,,,,,,,7.0,7.0,91.0,8.0,334.1532473999978,,,,,,,,,,,,,,,,,334.1398494000023,335.35278400000243,336.1525344999973,336.1373557999977,,,,,,,,,,,,,,,,,,,,,,,,,,,,,,,,,,,336.1383283000032,336.1525344999973,336.1525344999973,337.2557980999991,r,1.0,1.091621400002623,,,,,sub-069,1,stroop_test,59.99221301082133,
,,,,92.0,8.0,7.0,,,,,,,,,,,,,gelb,yellow,g,1.0,g,1.0,0.6371461000017007,,,,,,,,,,7.0,8.0,92.0,10.0,337.26909490000253,,,,,,,,,,,,,,,,,337.2567243000012,338.06865890000336,338.8685129000005,338.8536862999972,,,,,,,,,,,,,,,,,,,,,,,,,,,,,,,,,,,338.8550432999982,338.8685129000005,338.8685129000005,339.5212917000026,g,1.0,0.6371461000017007,,,,,sub-069,1,stroop_test,59.99221301082133,
,,,,93.0,9.0,7.0,,,,,,,,,,,,,rot,yellow,g,0.0,g,1.0,0.5757845999978599,,,,,,,,,,7.0,9.0,93.0,3.0,339.5350376999995,,,,,,,,,,,,,,,,,339.52232119999826,340.7348044000028,341.53696969999874,341.5194263000012,,,,,,,,,,,,,,,,,,,,,,,,,,,,,,,,,,,341.528873700001,341.53696969999874,341.53696969999874,342.1198083999989,g,1.0,0.5757845999978599,,,,,sub-069,1,stroop_test,59.99221301082133,
,,,,94.0,10.0,7.0,,,,,,,,,,,,,blau,yellow,g,0.0,g,1.0,0.4263923999969847,,,,,,,,,,7.0,10.0,94.0,7.0,342.1341181000025,,,,,,,,,,,,,,,,,342.1205268999984,343.3339122000034,344.1374739000021,344.11940830000094,,,,,,,,,,,,,,,,,,,,,,,,,,,,,,,,,,,344.1318700999982,344.1374739000021,344.1374739000021,344.5687096000038,g,1.0,0.4263923999969847,,,,,sub-069,1,stroop_test,59.99221301082133,
,,,,95.0,11.0,7.0,,,,,,,,,,,,,rot,red,r,1.0,r,1.0,0.6970580999986851,,,,,,,,,,7.0,11.0,95.0,1.0,344.58345810000174,,,,,,,,,,,,,,,,,344.5694167000038,344.6832538000017,345.4830667999995,345.4676690999986,,,,,,,,,,,,,,,,,,,,,,,,,,,,,,,,,,,345.4743989999988,345.4830667999995,345.4830667999995,346.1848040000041,r,1.0,0.6970580999986851,,,,,sub-069,1,stroop_test,59.99221301082133,
,,,,96.0,0.0,8.0,,,,,,,,,,,,,blau,red,r,0.0,r,1.0,0.6563199000011082,,,,,,,,,,8.0,0.0,96.0,4.0,346.199475100002,,,,,,,,,,,,,,,,,346.1854555000027,346.9991485999999,347.7989951999989,347.7836045000004,,,,,,,,,,,,,,,,,,,,,,,,,,,,,,,,,,,347.7905021999977,347.7989951999989,347.7989951999989,348.46758679999766,r,1.0,0.6563199000011082,,,,,sub-069,1,stroop_test,59.99221301082133,
,,,,97.0,1.0,8.0,,,,,,,,,,,,,gelb,yellow,g,1.0,g,1.0,0.6634103000033065,,,,,,,,,,8.0,1.0,97.0,11.0,348.48196330000064,,,,,,,,,,,,,,,,,348.4682640000028,349.28195660000347,350.08335900000384,350.0666471000004,,,,,,,,,,,,,,,,,,,,,,,,,,,,,,,,,,,350.074884200003,350.08335900000384,350.08335900000384,350.7514293999993,g,1.0,0.6634103000033065,,,,,sub-069,1,stroop_test,59.99221301082133,
,,,,98.0,2.0,8.0,,,,,,,,,,,,,rot,yellow,g,0.0,g,1.0,0.8681104999996023,,,,,,,,,,8.0,2.0,98.0,3.0,350.76493029999983,,,,,,,,,,,,,,,,,350.7523671000017,351.1142153999972,351.91558649999934,351.8994248000017,,,,,,,,,,,,,,,,,,,,,,,,,,,,,,,,,,,351.9074080999999,351.91558649999934,351.91558649999934,352.8004989999972,g,1.0,0.8681104999996023,,,,,sub-069,1,stroop_test,59.99221301082133,
,,,,99.0,3.0,8.0,,,,,,,,,,,,,blau,yellow,g,0.0,g,1.0,0.6292277000029571,,,,,,,,,,8.0,3.0,99.0,7.0,352.8140276999984,,,,,,,,,,,,,,,,,352.80137130000367,353.6140868000002,354.41544299999805,354.39855479999824,,,,,,,,,,,,,,,,,,,,,,,,,,,,,,,,,,,354.4069144000023,354.41544299999805,354.41544299999805,355.04917930000374,g,1.0,0.6292277000029571,,,,,sub-069,1,stroop_test,59.99221301082133,
,,,,100.0,4.0,8.0,,,,,,,,,,,,,blau,blue,b,1.0,b,1.0,0.6991429000045173,,,,,,,,,,8.0,4.0,100.0,6.0,355.06338739999774,,,,,,,,,,,,,,,,,355.04995300000155,356.2630130999969,357.0628609999985,357.0475344000006,,,,,,,,,,,,,,,,,,,,,,,,,,,,,,,,,,,357.0485387000008,357.0628609999985,357.0628609999985,357.76514060000045,b,1.0,0.6991429000045173,,,,,sub-069,1,stroop_test,59.99221301082133,
,,,,101.0,5.0,8.0,,,,,,,,,,,,,blau,blue,b,1.0,b,1.0,0.4325435999999172,,,,,,,,,,8.0,5.0,101.0,5.0,357.77927310000086,,,,,,,,,,,,,,,,,357.76588880000054,358.129230999999,358.9288077000019,358.91350819999934,,,,,,,,,,,,,,,,,,,,,,,,,,,,,,,,,,,358.9145086999997,358.9288077000019,358.9288077000019,359.3647084999975,b,1.0,0.4325435999999172,,,,,sub-069,1,stroop_test,59.99221301082133,
,,,,102.0,6.0,8.0,,,,,,,,,,,,,rot,red,r,1.0,r,1.0,0.5885332000034396,,,,,,,,,,8.0,6.0,102.0,1.0,359.37872320000315,,,,,,,,,,,,,,,,,359.3654893999992,359.728635200001,360.5312021999998,360.513025799999,,,,,,,,,,,,,,,,,,,,,,,,,,,,,,,,,,,360.5231915999975,360.5312021999998,360.5312021999998,361.13152059999993,r,1.0,0.5885332000034396,,,,,sub-069,1,stroop_test,59.99221301082133,
,,,,103.0,7.0,8.0,,,,,,,,,,,,,gelb,yellow,g,1.0,g,1.0,0.5907003999964218,,,,,,,,,,8.0,7.0,103.0,10.0,361.14507530000265,,,,,,,,,,,,,,,,,361.1325036999988,361.49499769999966,362.2956544999979,362.2795371000029,,,,,,,,,,,,,,,,,,,,,,,,,,,,,,,,,,,362.2875284999973,362.2956544999979,362.2956544999979,362.8958963999976,g,1.0,0.5907003999964218,,,,,sub-069,1,stroop_test,59.99221301082133,
,,,,104.0,8.0,8.0,,,,,,,,,,,,,gelb,blue,b,0.0,b,1.0,0.7072483000010834,,,,,,,,,,8.0,8.0,104.0,9.0,362.910887799997,,,,,,,,,,,,,,,,,362.8965049000035,363.710702000004,364.5106758000038,364.4954693999971,,,,,,,,,,,,,,,,,,,,,,,,,,,,,,,,,,,364.49669639999775,364.5106758000038,364.5106758000038,365.2295720000038,b,1.0,0.7072483000010834,,,,,sub-069,1,stroop_test,59.99221301082133,
,,,,105.0,9.0,8.0,,,,,,,,,,,,,gelb,red,r,0.0,r,1.0,0.5412114999999176,,,,,,,,,,8.0,9.0,105.0,8.0,365.2437381999989,,,,,,,,,,,,,,,,,365.2303982000012,366.043588200002,366.8430931000039,366.8280439000009,,,,,,,,,,,,,,,,,,,,,,,,,,,,,,,,,,,366.8291262999992,366.8430931000039,366.8430931000039,367.3959299999988,r,1.0,0.5412114999999176,,,,,sub-069,1,stroop_test,59.99221301082133,
,,,,106.0,10.0,8.0,,,,,,,,,,,,,rot,red,r,1.0,r,1.0,0.5139455999960774,,,,,,,,,,8.0,10.0,106.0,0.0,367.4095410000009,,,,,,,,,,,,,,,,,367.39680470000167,367.759492899997,368.5606782000032,368.54416579999815,,,,,,,,,,,,,,,,,,,,,,,,,,,,,,,,,,,368.55245370000193,368.5606782000032,368.5606782000032,369.0776523000022,r,1.0,0.5139455999960774,,,,,sub-069,1,stroop_test,59.99221301082133,
,,,,107.0,11.0,8.0,,,,,,,,,,,,,rot,blue,b,0.0,b,1.0,1.1145948999983375,,,,,,,,,,8.0,11.0,107.0,2.0,369.09225629999855,,,,,,,,,,,,,,,,,369.07824309999705,369.192787,369.99214490000304,369.97661510000034,,,,,,,,,,,,,,,,,,,,,,,,,,,,,,,,,,,369.977498799999,369.99214490000304,369.99214490000304,371.1118303999974,b,1.0,1.1145948999983375,,,,,sub-069,1,stroop_test,59.99221301082133,
,,,,108.0,0.0,9.0,,,,,,,,,,,,,rot,red,r,1.0,r,1.0,0.7140821000066353,,,,,,,,,,9.0,0.0,108.0,0.0,371.1253599999982,,,,,,,,,,,,,,,,,371.1127325999987,372.3248873999983,373.1240781000015,373.107808599998,,,,,,,,,,,,,,,,,,,,,,,,,,,,,,,,,,,373.10813710000366,373.1240781000015,373.1240781000015,373.8413217999987,r,1.0,0.7140821000066353,,,,,sub-069,1,stroop_test,59.99221301082133,
,,,,109.0,1.0,9.0,,,,,,,,,,,,,blau,red,r,0.0,r,1.0,0.6600375000052736,,,,,,,,,,9.0,1.0,109.0,4.0,373.857085100004,,,,,,,,,,,,,,,,,373.841582400004,373.95701279999776,374.7609138999978,374.7422927000007,,,,,,,,,,,,,,,,,,,,,,,,,,,,,,,,,,,374.7516925000018,374.7609138999978,374.7609138999978,375.4265893999982,r,1.0,0.6600375000052736,,,,,sub-069,1,stroop_test,59.99221301082133,
,,,,110.0,2.0,9.0,,,,,,,,,,,,,rot,red,r,1.0,r,1.0,0.6178730999963591,,,,,,,,,,9.0,2.0,110.0,1.0,375.4402444000007,,,,,,,,,,,,,,,,,375.4274310999972,375.53979609999806,376.3407369999986,376.3246591999996,,,,,,,,,,,,,,,,,,,,,,,,,,,,,,,,,,,376.33315169999696,376.3407369999986,376.3407369999986,376.9764424000023,r,1.0,0.6178730999963591,,,,,sub-069,1,stroop_test,59.99221301082133,
,,,,111.0,3.0,9.0,,,,,,,,,,,,,gelb,red,r,0.0,r,1.0,0.5832582000002731,,,,,,,,,,9.0,3.0,111.0,8.0,376.9900989000016,,,,,,,,,,,,,,,,,376.9774191000033,378.1895777000027,378.9934719000012,378.9748608000009,,,,,,,,,,,,,,,,,,,,,,,,,,,,,,,,,,,378.98441900000034,378.9934719000012,378.9934719000012,379.5910602000004,r,1.0,0.5832582000002731,,,,,sub-069,1,stroop_test,59.99221301082133,
,,,,112.0,4.0,9.0,,,,,,,,,,,,,blau,yellow,g,0.0,g,1.0,1.3457298999928753,,,,,,,,,,9.0,4.0,112.0,7.0,379.605622199997,,,,,,,,,,,,,,,,,379.5916935999994,379.7055047000031,380.50777050000033,380.4905467999997,,,,,,,,,,,,,,,,,,,,,,,,,,,,,,,,,,,380.4986285999985,380.50777050000033,380.50777050000033,381.8555763999975,g,1.0,1.3457298999928753,,,,,sub-069,1,stroop_test,59.99221301082133,
,,,,113.0,5.0,9.0,,,,,,,,,,,,,blau,blue,b,1.0,b,1.0,0.8267541000022902,,,,,,,,,,9.0,5.0,113.0,6.0,381.8712927000015,,,,,,,,,,,,,,,,,381.8558692000006,382.2212875999976,383.02105180000217,383.0050476000033,,,,,,,,,,,,,,,,,,,,,,,,,,,,,,,,,,,383.0055986000007,383.02105180000217,383.02105180000217,383.8557596000028,b,1.0,0.8267541000022902,,,,,sub-069,1,stroop_test,59.99221301082133,
,,,,114.0,6.0,9.0,,,,,,,,,,,,,gelb,yellow,g,1.0,r,0.0,0.8519051000039326,,,,,,,,,,9.0,6.0,114.0,10.0,383.8707295999993,,,,,,,,,,,,,,,,,383.8562458000015,383.9709655999977,384.7706571000017,384.7547535999984,,,,,,,,,,,,,,,,,,,,,,,,,,,,,,,,,,,384.7585978999996,384.7706571000017,384.7706571000017,385.6388651000016,r,0.0,0.8519051000039326,,,,,sub-069,1,stroop_test,59.99221301082133,
,,,,115.0,7.0,9.0,,,,,,,,,,,,,rot,blue,b,0.0,b,1.0,1.0649918999988586,,,,,,,,,,9.0,7.0,115.0,2.0,385.6538768000028,,,,,,,,,,,,,,,,,385.6394708000007,385.7537228000001,386.5535441000029,386.5380021000019,,,,,,,,,,,,,,,,,,,,,,,,,,,,,,,,,,,386.5439667000028,386.5535441000029,386.5535441000029,387.6218369999988,b,1.0,1.0649918999988586,,,,,sub-069,1,stroop_test,59.99221301082133,
,,,,116.0,8.0,9.0,,,,,,,,,,,,,gelb,blue,b,0.0,b,1.0,0.6680067000052077,,,,,,,,,,9.0,8.0,116.0,9.0,387.6365522999986,,,,,,,,,,,,,,,,,387.6224058000007,388.8360144000035,389.6360163999998,389.6204479000007,,,,,,,,,,,,,,,,,,,,,,,,,,,,,,,,,,,389.6256078000006,389.6360163999998,389.6360163999998,390.32053579999774,b,1.0,0.6680067000052077,,,,,sub-069,1,stroop_test,59.99221301082133,
,,,,117.0,9.0,9.0,,,,,,,,,,,,,rot,yellow,g,0.0,g,1.0,1.1837257999941355,,,,,,,,,,9.0,9.0,117.0,3.0,390.3355859000003,,,,,,,,,,,,,,,,,390.3211005999983,390.6851551,391.4852171000021,391.4698360000039,,,,,,,,,,,,,,,,,,,,,,,,,,,,,,,,,,,391.47803170000407,391.4852171000021,391.4852171000021,392.686380799998,g,1.0,1.1837257999941355,,,,,sub-069,1,stroop_test,59.99221301082133,
,,,,118.0,10.0,9.0,,,,,,,,,,,,,blau,blue,b,1.0,b,1.0,0.7320404999991297,,,,,,,,,,9.0,10.0,118.0,5.0,392.70154360000015,,,,,,,,,,,,,,,,,392.6869646999985,392.8016261000012,393.6014212000009,393.5854713000008,,,,,,,,,,,,,,,,,,,,,,,,,,,,,,,,,,,393.5921301999988,393.6014212000009,393.6014212000009,394.336501400001,b,1.0,0.7320404999991297,,,,,sub-069,1,stroop_test,59.99221301082133,
,,,,119.0,11.0,9.0,,,,,,,,,,,,,gelb,yellow,g,1.0,g,1.0,1.0583082000011927,,,,,,,,,,9.0,11.0,119.0,11.0,394.3509342000034,,,,,,,,,,,,,,,,,394.3371493000013,395.5506517000031,396.35056189999887,396.3354607000001,,,,,,,,,,,,,,,,,,,,,,,,,,,,,,,,,,,396.3426091000001,396.35056189999887,396.35056189999887,397.4197408000037,g,1.0,1.0583082000011927,,,,,sub-069,1,stroop_test,59.99221301082133,
,,,,,,,,,,,,,,,,,,,,,,,,,,,,,,,,,,,,,,,,,,,,,,,,,,,,,,,,,,,,,,,,,,,,,,,,,,,,,,,,,,,,,,,,,,,,,,,,,,,,,,397.4201853999985,397.4338647999976,402.4321559000018,sub-069,1,stroop_test,59.99221301082133,
