direction,corrAns,thisN,thisTrialN,thisRepN,respDots.keys,respDots.corr,respDots.rt,respDots.duration,randomInstr,respRandomInstr.keys,respRandomInstr.rt,respRandomInstr.duration,practice_trials.thisRepN,practice_trials.thisTrialN,practice_trials.thisN,practice_trials.thisIndex,instr_trials.thisRepN,instr_trials.thisTrialN,instr_trials.thisN,instr_trials.thisIndex,test_trials.thisRepN,test_trials.thisTrialN,test_trials.thisN,test_trials.thisIndex,thisRow.t,notes,general_instruction.started,textGeneralInstr.started,respGeneralInstr.started,general_instruction.stopped,respGeneralInstr.keys,respGeneralInstr.rt,respGeneralInstr.duration,ITI.started,fixcross.started,fixcross.stopped,ITI.stopped,dots.started,backgroundDots.started,stimulusDots.started,respDots.started,stimulusDots.stopped,dots.stopped,practice_trials.respDots.keys,practice_trials.respDots.corr,practice_trials.respDots.rt,practice_trials.respDots.duration,feedback.started,textFeedback.started,feedback.stopped,textFeedback.stopped,info.started,textInfo.started,keyRespInfo.started,info.stopped,keyRespInfo.keys,keyRespInfo.rt,keyRespInfo.duration,test_instruction.started,textTestInstr.started,respTestInstr.started,test_instruction.stopped,respTestInstr.keys,respTestInstr.rt,respTestInstr.duration,random_instruction.started,textRandomInstr.started,respRandomInstr.started,random_instruction.stopped,instr_trials.respRandomInstr.keys,instr_trials.respRandomInstr.rt,instr_trials.respRandomInstr.duration,test_trials.respDots.keys,test_trials.respDots.corr,test_trials.respDots.rt,test_trials.respDots.duration,goodbye.started,textGoodbye.started,textGoodbye.stopped,goodbye.stopped,participant,session,expName,frameRate,Unnamed: 88
,,,,,,,,,,,,,,,,,,,,,,,,,,,0.0083632080059032,0.2041677500092191,0.2041677500092191,121.32280308300687,space,121.11114220799936,,,,,,,,,,,,,,,,,,,,,,,,,,,,,,,,,,,,,,,,,,,,,,,,,sub-180,1,random_dot,,
right,right,0.0,0.0,0.0,right,1.0,16.481394750007894,,,,,,0.0,0.0,0.0,1.0,,,,,,,,,121.3699458750052,,,,,,,,,121.3556373330066,122.53290537500288,123.36004374999902,123.32266183300815,123.323604833,123.36004374999902,123.36004374999902,123.36004374999902,128.32169079199957,139.84604466700694,right,1.0,16.481394750007894,,139.85890704201302,139.99025454200455,140.35467566701118,,,,,,,,,,,,,,,,,,,,,,,,,,,,,,,sub-180,1,random_dot,,
left,left,1.0,1.0,0.0,right,0.0,7.701693958006217,,,,,,0.0,1.0,1.0,0.0,,,,,,,,,140.3589940830134,,,,,,,,,140.35511345800478,140.69454425000004,141.4963427920011,141.4888451250008,141.48944320800365,141.4963427920011,141.4963427920011,141.4963427920011,146.47650562500348,149.2072999580123,right,0.0,7.701693958006217,,149.21616337500743,149.22637658299936,149.710526750001,,,,,,,,,,,,,,,,,,,,,,,,,,,,,,,sub-180,1,random_dot,,
right,right,2.0,0.0,1.0,left,0.0,4.835875124990707,,,,,,1.0,0.0,2.0,1.0,,,,,,,,,149.72142520800116,,,,,,,,,149.7109612080094,150.90474258300674,151.6955732080096,151.6886534170044,151.6891340000002,151.6955732080096,151.6955732080096,151.6955732080096,,156.53939954200175,left,0.0,4.835875124990707,,156.5395274580078,156.54628833300376,157.03931133300648,157.0448355000117,,,,,,,,,,,,,,,,,,,,,,,,,,,,,,sub-180,1,random_dot,,
left,left,3.0,1.0,1.0,right,0.0,5.9091899580089375,,,,,,1.0,1.0,3.0,0.0,,,,,,,,,157.0448355000117,,,,,,,,,157.03991845800192,157.38791733300604,158.1795849170012,158.1720388750109,158.1726513330068,158.1795849170012,158.1795849170012,158.1795849170012,163.1595119170088,164.0987093750009,right,0.0,5.9091899580089375,,164.09883612500562,164.1037288330117,164.5886797500134,164.59378633300366,,,,,,,,,,,,,,,,,,,,,,,,,,,,,,sub-180,1,random_dot,,
left,left,4.0,0.0,2.0,left,1.0,5.794653582997853,,,,,,2.0,0.0,4.0,0.0,,,,,,,,,164.59378633300366,,,,,,,,,164.58916991700244,164.69365408300655,165.48783487500623,165.4775526250014,165.47796666700742,165.48783487500623,165.48783487500623,165.48783487500623,170.47654783300823,171.2907834170037,left,1.0,5.794653582997853,,171.29537391700433,171.3032412080065,171.7889500420133,171.79415754201182,,,,,,,,,,,,,,,,,,,,,,,,,,,,,,sub-180,1,random_dot,,
right,right,5.0,1.0,2.0,right,1.0,8.679013375003706,,,,,,2.0,1.0,5.0,1.0,,,,,,,,,171.79415754201182,,,,,,,,,171.78942654200364,171.88783954200335,172.67941129200335,172.67214325000532,172.67271450000408,172.67941129200335,172.67941129200335,172.67941129200335,177.65830933301186,181.3625255000079,right,1.0,8.679013375003706,,181.3627085000044,181.37331000000995,181.86172795800667,181.871776333006,,,,,,,,,,,,,,,,,,,,,,,,,,,,,,sub-180,1,random_dot,,
right,right,6.0,0.0,3.0,right,1.0,5.885934833000647,,,,,,3.0,0.0,6.0,1.0,,,,,,,,,181.871776333006,,,,,,,,,181.8620836670016,182.65964662500485,183.45402841700707,183.44395866700503,183.44445254201128,183.45402841700707,183.45402841700707,183.45402841700707,188.4379882080102,189.34558508300688,right,1.0,5.885934833000647,,189.3457322500035,189.3561810420069,189.8435487080133,189.85472037500583,,,,,,,,,,,,,,,,,,,,,,,,,,,,,,sub-180,1,random_dot,,
left,left,7.0,1.0,3.0,right,0.0,5.80737570799829,,,,,,3.0,1.0,7.0,0.0,,,,,,,,,189.85472037500583,,,,,,,,,189.84390800000983,190.6430217920133,191.4375298330124,191.42756066701256,191.42798016700544,191.4375298330124,191.4375298330124,191.4375298330124,196.4212745830009,197.25581541701104,right,0.0,5.80737570799829,,197.26001770800207,197.26488875001087,197.75468054201335,197.75874241700512,,,,,,,,,,,,,,,,,,,,,,,,,,,,,,sub-180,1,random_dot,,
left,left,8.0,0.0,4.0,right,0.0,5.768804332998116,,,,,,4.0,0.0,8.0,0.0,,,,,,,,,197.75874241700512,,,,,,,,,197.75503562499944,198.553526542004,199.34596850001253,199.3386862920015,199.3391705000104,199.34596850001253,199.34596850001253,199.34596850001253,204.32648150000023,205.1232309580082,right,0.0,5.768804332998116,,205.1233876250044,205.13306441700843,205.6221136670065,205.6272829170048,,,,,,,,,,,,,,,,,,,,,,,,,,,,,,sub-180,1,random_dot,,
right,right,9.0,1.0,4.0,left,0.0,6.155252917000325,,,,,,4.0,1.0,9.0,1.0,,,,,,,,,205.6272829170048,,,,,,,,,205.6225709170103,206.8210267079994,207.6132385000092,207.605394875005,207.60614450000867,207.6132385000092,207.6132385000092,207.6132385000092,212.5927023330005,213.7733735830116,left,0.0,6.155252917000325,,213.77355670800895,213.7829534170014,214.2719939580129,214.27712762501324,,,,,,,,,,,,,,,,,,,,,,,,,,,,,,sub-180,1,random_dot,,
left,left,10.0,0.0,5.0,right,0.0,5.351507916013361,,,,,,5.0,0.0,10.0,0.0,,,,,,,,,214.27712762501324,,,,,,,,,214.27244749999957,214.3710439580027,215.1626759580104,215.15516104199924,215.15577350000967,215.1626759580104,215.1626759580104,215.1626759580104,220.14276045800943,220.5232362920069,right,0.0,5.351507916013361,,220.5234534580086,220.5329256670084,221.02180687501092,221.02689000000828,,,,,,,,,,,,,,,,,,,,,,,,,,,,,,sub-180,1,random_dot,,
right,right,11.0,1.0,5.0,left,0.0,3.978483541010064,,,,,,5.0,1.0,11.0,1.0,,,,,,,,,221.02689000000828,,,,,,,,,221.0223075000104,222.22083766700237,223.0129011250101,223.0056062080112,223.00616900000023,223.0129011250101,223.0129011250101,223.0129011250101,,226.9945482500043,left,0.0,3.978483541010064,,226.9946495830081,227.00374525001095,227.48863195801096,227.49390495801345,,,,,,,,,,,,,,,,,,,,,,,,,,,,,,sub-180,1,random_dot,,
left,left,12.0,0.0,6.0,right,0.0,5.3175227910105605,,,,,,6.0,0.0,12.0,0.0,,,,,,,,,227.49390495801345,,,,,,,,,227.48908920800025,227.5936626670009,228.38738445800848,228.3768836250092,228.3773296670115,228.38738445800848,228.38738445800848,228.38738445800848,233.37106779200255,233.7171489169996,right,0.0,5.3175227910105605,,233.7172737500077,233.7226889580052,234.20978891701088,234.2207302500028,,,,,,,,,,,,,,,,,,,,,,,,,,,,,,sub-180,1,random_dot,,
right,right,13.0,1.0,6.0,left,0.0,5.694150625000475,,,,,,6.0,1.0,13.0,1.0,,,,,,,,,234.2207302500028,,,,,,,,,234.21014541700424,234.3111026250117,235.1122536670009,235.1049763750052,235.105545917002,235.1122536670009,235.1122536670009,235.1122536670009,240.092940292001,240.81252225000932,left,0.0,5.694150625000475,,240.8126797920122,240.822626417008,241.3090972920036,241.32094775000587,,,,,,,,,,,,,,,,,,,,,,,,,,,,,,sub-180,1,random_dot,,
left,left,14.0,0.0,7.0,left,1.0,5.288767124991864,,,,,,7.0,0.0,14.0,0.0,,,,,,,,,241.32094775000587,,,,,,,,,241.30944779200945,241.41003133301277,242.20479629200415,242.19341891701333,242.1938777500036,242.20479629200415,242.20479629200415,242.20479629200415,247.18765254200844,247.4958770420053,left,1.0,5.288767124991864,,247.50042837500223,247.5088647920056,247.9940655829996,248.00398712500464,,,,,,,,,,,,,,,,,,,,,,,,,,,,,,sub-180,1,random_dot,,
right,right,15.0,1.0,7.0,right,1.0,5.506481625008746,,,,,,7.0,1.0,15.0,1.0,,,,,,,,,248.00398712500464,,,,,,,,,247.99443425000936,248.0934662500076,248.88732116699973,248.87685608300671,248.87727608300335,248.88732116699973,248.88732116699973,248.88732116699973,253.87461420800537,254.39613229200768,right,1.0,5.506481625008746,,254.39634020801168,254.4062341250101,254.89324266700717,254.90398358300445,,,,,,,,,,,,,,,,,,,,,,,,,,,,,,sub-180,1,random_dot,,
right,right,16.0,0.0,8.0,right,1.0,4.818737708003027,,,,,,8.0,0.0,16.0,1.0,,,,,,,,,254.90398358300445,,,,,,,,,254.89360137500623,254.9929376670043,255.78731495801185,255.7766462920117,255.77707408300196,255.78731495801185,255.78731495801185,255.78731495801185,,260.6116913330043,right,1.0,4.818737708003027,,260.61179441701097,260.61944554200454,261.10488341700693,261.10985937500664,,,,,,,,,,,,,,,,,,,,,,,,,,,,,,sub-180,1,random_dot,,
left,left,17.0,1.0,8.0,right,0.0,5.570408958999906,,,,,,8.0,1.0,17.0,0.0,,,,,,,,,261.10985937500664,,,,,,,,,261.1053790420119,261.459210083005,262.2536335420009,262.2439805000031,262.2444029170001,262.2536335420009,262.2536335420009,262.2536335420009,267.2375360420119,267.8286427500134,right,0.0,5.570408958999906,,267.8329656670103,267.8410338750109,268.3268490000046,268.3372727080132,,,,,,,,,,,,,,,,,,,,,,,,,,,,,,sub-180,1,random_dot,,
right,right,18.0,0.0,9.0,left,0.0,5.448637791996589,,,,,,9.0,0.0,18.0,1.0,,,,,,,,,268.3372727080132,,,,,,,,,268.3272056670103,268.6763567080052,269.4704914169997,269.4604099999997,269.4608267920121,269.4704914169997,269.4704914169997,269.4704914169997,274.45814133300155,274.9233721250057,left,0.0,5.448637791996589,,274.9235632500058,274.9329823330045,275.4212288750132,275.4261240830092,,,,,,,,,,,,,,,,,,,,,,,,,,,,,,sub-180,1,random_dot,,
left,left,19.0,1.0,9.0,left,1.0,5.603536582988454,,,,,,9.0,1.0,19.0,0.0,,,,,,,,,275.4261240830092,,,,,,,,,275.4217363750068,275.7705589170073,276.56131895800354,276.55450199999905,276.554983250011,276.56131895800354,276.56131895800354,276.56131895800354,281.5422690000123,282.1728650830046,left,1.0,5.603536582988454,,282.17763125000056,282.18690804200014,282.67161216700333,282.67908079200424,,,,,,,,,,,,,,,,,,,,,,,,,,,,,,sub-180,1,random_dot,,
,,,,,,,,,,,,,,,,,,,,,,,,,,,,,,,,,,,,,,,,,,,,,,,,,,,,282.6718230000115,282.67908079200424,282.67908079200424,286.25721883300866,space,3.575487958994927,,,,,,,,,,,,,,,,,,,,,,,,sub-180,1,random_dot,,
,,,,,,,,,,,,,,,,,,,,,,,,,,,,,,,,,,,,,,,,,,,,,,,,,,,,,,,,,,,286.25739233300555,286.2713463330001,286.2713463330001,294.5896723330079,space,8.310397000008379,,,,,,,,,,,,,,,,,sub-180,1,random_dot,,
left,left,0.0,0.0,0.0,right,0.0,5.484739250008715,,accuracy,space,3.299906000000192,,,,,,0.0,0.0,0.0,0.0,0.0,0.0,0.0,0.0,297.9461364170129,,,,,,,,,297.939437042005,298.2761224999995,299.06996074999915,299.0601096669998,299.0605507500004,299.06996074999915,299.06996074999915,299.06996074999915,304.0539090000093,304.5667657080048,,,,,,,,,,,,,,,,,,,,,,,294.6149160000059,294.6231840830005,294.6231840830005,297.92855175001023,space,3.299906000000192,,right,0.0,5.484739250008715,,,,,,sub-180,1,random_dot,,
right,right,1.0,1.0,0.0,right,1.0,5.57534070899419,,accuracy,space,3.299906000000192,,,,,,0.0,0.0,0.0,0.0,0.0,1.0,1.0,1.0,304.57205895800143,,,,,,,,,304.56723191701167,305.75927900000534,306.5536100419995,306.5425987080089,306.5430099170044,306.5536100419995,306.5536100419995,306.5536100419995,311.53725258300256,312.13935920801305,,,,,,,,,,,,,,,,,,,,,,,,,,,,,,right,1.0,5.57534070899419,,,,,,sub-180,1,random_dot,,
left,left,2.0,0.0,1.0,right,0.0,5.446386625000741,,accuracy,space,3.299906000000192,,,,,,0.0,0.0,0.0,0.0,1.0,0.0,2.0,0.0,312.1485871670011,,,,,,,,,312.1400282500108,312.9372523330094,313.7283832920075,313.7212727080041,313.7218479170115,313.7283832920075,313.7283832920075,313.7283832920075,318.72055708301195,319.17736312501074,,,,,,,,,,,,,,,,,,,,,,,,,,,,,,right,0.0,5.446386625000741,,,,,,sub-180,1,random_dot,,
right,right,3.0,1.0,1.0,left,0.0,4.44465633398795,,accuracy,space,3.299906000000192,,,,,,0.0,0.0,0.0,0.0,1.0,1.0,3.0,1.0,319.1862984170002,,,,,,,,,319.17790533301013,319.5248652080045,320.320115333001,320.3097350419994,320.3101965000096,320.320115333001,320.320115333001,320.320115333001,,324.7717384999996,,,,,,,,,,,,,,,,,,,,,,,,,,,,,,left,0.0,4.44465633398795,,,,,,sub-180,1,random_dot,,
left,left,4.0,0.0,2.0,left,1.0,5.414660041002207,,accuracy,space,3.299906000000192,,,,,,0.0,0.0,0.0,0.0,2.0,0.0,4.0,0.0,324.7783216670068,,,,,,,,,324.77210924999963,325.1204011250084,325.9129226250079,325.9045243750006,325.905096958013,325.9129226250079,325.9129226250079,325.9129226250079,330.892196167013,331.338822500009,,,,,,,,,,,,,,,,,,,,,,,,,,,,,,left,1.0,5.414660041002207,,,,,,sub-180,1,random_dot,,
right,right,5.0,1.0,2.0,left,0.0,5.471287416003179,,accuracy,space,3.299906000000192,,,,,,0.0,0.0,0.0,0.0,2.0,1.0,5.0,1.0,331.3481152500026,,,,,,,,,331.3394062080042,331.437029083012,332.2283552500012,332.2212225000112,332.2218040000007,332.2283552500012,332.2283552500012,332.2283552500012,337.22037208300026,337.70588212501025,,,,,,,,,,,,,,,,,,,,,,,,,,,,,,left,0.0,5.471287416003179,,,,,,sub-180,1,random_dot,,
right,right,6.0,0.0,3.0,left,0.0,5.5437883749982575,,accuracy,space,3.299906000000192,,,,,,0.0,0.0,0.0,0.0,3.0,0.0,6.0,1.0,337.7150940830033,,,,,,,,,337.7064844580018,337.8038378330093,338.5949726670078,338.58791491700686,338.5884525420115,338.5949726670078,338.5949726670078,338.5949726670078,343.5870717920043,344.1443070000096,,,,,,,,,,,,,,,,,,,,,,,,,,,,,,left,0.0,5.5437883749982575,,,,,,sub-180,1,random_dot,,
left,left,7.0,1.0,3.0,left,1.0,5.491795083988109,,accuracy,space,3.299906000000192,,,,,,0.0,0.0,0.0,0.0,3.0,1.0,7.0,0.0,344.15336037499947,,,,,,,,,344.1448279580072,344.9427105830109,345.73618841700954,345.7268112919992,345.7272332499997,345.73618841700954,345.73618841700954,345.73618841700954,350.72041095800523,351.23924383301346,,,,,,,,,,,,,,,,,,,,,,,,,,,,,,left,1.0,5.491795083988109,,,,,,sub-180,1,random_dot,,
right,right,8.0,0.0,4.0,right,1.0,5.548796290997416,,accuracy,space,3.299906000000192,,,,,,0.0,0.0,0.0,0.0,4.0,0.0,8.0,1.0,351.2494348330074,,,,,,,,,351.2400917920022,352.43682870799967,353.22871245800343,353.2213842920028,353.22197970800335,353.22871245800343,353.22871245800343,353.22871245800343,358.2202919580013,358.7887219580007,,,,,,,,,,,,,,,,,,,,,,,,,,,,,,right,1.0,5.548796290997416,,,,,,sub-180,1,random_dot,,
left,left,9.0,1.0,4.0,left,1.0,2.81759362500452,,accuracy,space,3.299906000000192,,,,,,0.0,0.0,0.0,0.0,4.0,1.0,9.0,0.0,358.79789529200934,,,,,,,,,358.78929900001094,358.8870576670015,359.6783934170089,359.6709767499997,359.67159012499906,359.6783934170089,359.6783934170089,359.6783934170089,,362.5054257500015,,,,,,,,,,,,,,,,,,,,,,,,,,,,,,left,1.0,2.81759362500452,,,,,,sub-180,1,random_dot,,
right,right,10.0,0.0,5.0,left,0.0,5.371631957998034,,accuracy,space,3.299906000000192,,,,,,0.0,0.0,0.0,0.0,5.0,0.0,10.0,1.0,362.51236191700445,,,,,,,,,362.5058987920056,363.3037275829993,364.0954865420063,364.0880881670018,364.0888014580123,364.0954865420063,364.0954865420063,364.0954865420063,369.0868645830051,369.47273258300265,,,,,,,,,,,,,,,,,,,,,,,,,,,,,,left,0.0,5.371631957998034,,,,,,sub-180,1,random_dot,,
left,left,11.0,1.0,5.0,right,0.0,4.277840333001223,,accuracy,space,3.299906000000192,,,,,,0.0,0.0,0.0,0.0,5.0,1.0,11.0,0.0,369.48185679200105,,,,,,,,,369.4734730420023,370.6703633750003,371.46152362501016,371.4543610420078,371.45491637500527,371.46152362501016,371.46152362501016,371.46152362501016,,375.7435801250104,,,,,,,,,,,,,,,,,,,,,,,,,,,,,,right,0.0,4.277840333001223,,,,,,sub-180,1,random_dot,,
left,left,12.0,0.0,6.0,left,1.0,5.561360541003523,,accuracy,space,3.299906000000192,,,,,,0.0,0.0,0.0,0.0,6.0,0.0,12.0,0.0,375.7534143330122,,,,,,,,,375.7439164579992,375.8420094169997,376.63661954201234,376.625887333008,376.6263177080109,376.63661954201234,376.63661954201234,376.63661954201234,381.6198314170033,382.20512666700233,,,,,,,,,,,,,,,,,,,,,,,,,,,,,,left,1.0,5.561360541003523,,,,,,sub-180,1,random_dot,,
right,right,13.0,1.0,6.0,right,1.0,6.132734416009043,,accuracy,space,3.299906000000192,,,,,,0.0,0.0,0.0,0.0,6.0,1.0,13.0,1.0,382.21426320800674,,,,,,,,,382.2056900000025,382.303464667013,383.09480104201066,383.08720183301193,383.08774000000267,383.09480104201066,383.09480104201066,383.09480104201066,388.07420125001227,389.2387925000076,,,,,,,,,,,,,,,,,,,,,,,,,,,,,,right,1.0,6.132734416009043,,,,,,sub-180,1,random_dot,,
left,left,14.0,0.0,7.0,left,1.0,5.682377457997063,,accuracy,space,3.299906000000192,,,,,,0.0,0.0,0.0,0.0,7.0,0.0,14.0,0.0,389.2479928329994,,,,,,,,,389.239413333009,389.33649583300576,390.1278348750057,390.12081633300113,390.1213900830044,390.1278348750057,390.1278348750057,390.1278348750057,395.1074401670048,395.8376597500028,,,,,,,,,,,,,,,,,,,,,,,,,,,,,,left,1.0,5.682377457997063,,,,,,sub-180,1,random_dot,,
right,right,15.0,1.0,7.0,left,0.0,5.270771583003807,,accuracy,space,3.299906000000192,,,,,,0.0,0.0,0.0,0.0,7.0,1.0,15.0,1.0,395.8535070830112,,,,,,,,,395.8381584580056,396.1761871670024,396.9698159170075,396.95953000000736,396.9599646250135,396.9698159170075,396.9698159170075,396.9698159170075,401.9533379580098,402.2453947920003,,,,,,,,,,,,,,,,,,,,,,,,,,,,,,left,0.0,5.270771583003807,,,,,,sub-180,1,random_dot,,
right,right,16.0,0.0,8.0,right,1.0,5.667451749992324,,accuracy,space,3.299906000000192,,,,,,0.0,0.0,0.0,0.0,8.0,0.0,16.0,1.0,402.25534512501326,,,,,,,,,402.245926292002,403.04218029200274,403.8363475420047,403.8263053330011,403.8267347080109,403.8363475420047,403.8363475420047,403.8363475420047,408.8200427920092,409.5158207080094,,,,,,,,,,,,,,,,,,,,,,,,,,,,,,right,1.0,5.667451749992324,,,,,,sub-180,1,random_dot,,
left,left,17.0,1.0,8.0,right,0.0,6.26777145799133,,accuracy,space,3.299906000000192,,,,,,0.0,0.0,0.0,0.0,8.0,1.0,17.0,0.0,409.5364573750121,,,,,,,,,409.51626033301,409.8588822919992,410.6530322080071,410.6424812500045,410.6429016670008,410.6530322080071,410.6530322080071,410.6530322080071,415.6366647920077,416.9313807920116,,,,,,,,,,,,,,,,,,,,,,,,,,,,,,right,0.0,6.26777145799133,,,,,,sub-180,1,random_dot,,
left,left,18.0,0.0,9.0,right,0.0,5.733944749998045,,accuracy,space,3.299906000000192,,,,,,0.0,0.0,0.0,0.0,9.0,0.0,18.0,0.0,416.9531563750061,,,,,,,,,416.9319332920131,417.2756016670028,418.0700359580078,418.058745458009,418.0591899170104,418.0700359580078,418.0700359580078,418.0700359580078,423.0533922920004,423.8144660420076,,,,,,,,,,,,,,,,,,,,,,,,,,,,,,right,0.0,5.733944749998045,,,,,,sub-180,1,random_dot,,
right,right,19.0,1.0,9.0,right,1.0,5.865513625001768,,accuracy,space,3.299906000000192,,,,,,0.0,0.0,0.0,0.0,9.0,1.0,19.0,1.0,423.8196108330012,,,,,,,,,423.81502237501263,425.0097201250028,425.8112713750015,425.8036542500049,425.8041428330034,425.8112713750015,425.8112713750015,425.8112713750015,430.7922757080087,431.6874112080113,,,,,,,,,,,,,,,,,,,,,,,,,,,,,,right,1.0,5.865513625001768,,,,,,sub-180,1,random_dot,,
left,left,20.0,0.0,10.0,left,1.0,5.439473042002646,,accuracy,space,3.299906000000192,,,,,,0.0,0.0,0.0,0.0,10.0,0.0,20.0,0.0,431.6926332080038,,,,,,,,,431.68809954200697,431.7749544170074,432.5695942500024,432.55908158300736,432.5595040420012,432.5695942500024,432.5695942500024,432.5695942500024,437.5532293330034,438.0112862920069,,,,,,,,,,,,,,,,,,,,,,,,,,,,,,left,1.0,5.439473042002646,,,,,,sub-180,1,random_dot,,
right,right,21.0,1.0,10.0,right,1.0,4.940109374991152,,accuracy,space,3.299906000000192,,,,,,0.0,0.0,0.0,0.0,10.0,1.0,21.0,1.0,438.0214852920035,,,,,,,,,438.0119060830039,439.2089716670016,440.0029155420052,439.9922950000037,439.99270920800336,440.0029155420052,440.0029155420052,440.0029155420052,,444.9530543330038,,,,,,,,,,,,,,,,,,,,,,,,,,,,,,right,1.0,4.940109374991152,,,,,,sub-180,1,random_dot,,
right,right,22.0,0.0,11.0,left,0.0,5.639963833004003,,accuracy,space,3.299906000000192,,,,,,0.0,0.0,0.0,0.0,11.0,0.0,22.0,1.0,444.9568482080067,,,,,,,,,444.95338941700174,445.2926765830052,446.094918917006,446.0874468330003,446.0881830420112,446.094918917006,446.094918917006,446.094918917006,451.0749543750135,451.7382578750112,,,,,,,,,,,,,,,,,,,,,,,,,,,,,,left,0.0,5.639963833004003,,,,,,sub-180,1,random_dot,,
left,left,23.0,1.0,11.0,left,1.0,5.664655250002397,,accuracy,space,3.299906000000192,,,,,,0.0,0.0,0.0,0.0,11.0,1.0,23.0,0.0,451.74731533300655,,,,,,,,,451.73885633300233,452.9362276250031,453.7282827500021,453.720799667004,453.7213440830092,453.7282827500021,453.7282827500021,453.7282827500021,458.71977916700416,459.4203748330037,,,,,,,,,,,,,,,,,,,,,,,,,,,,,,left,1.0,5.664655250002397,,,,,,sub-180,1,random_dot,,
left,left,24.0,0.0,12.0,right,0.0,2.708805249989382,,accuracy,space,3.299906000000192,,,,,,0.0,0.0,0.0,0.0,12.0,0.0,24.0,0.0,459.436314333012,,,,,,,,,459.4208718750015,459.5092347919999,460.3112198330055,460.3039482500026,460.3045240830106,460.3112198330055,460.3112198330055,460.3112198330055,,463.030170375001,,,,,,,,,,,,,,,,,,,,,,,,,,,,,,right,0.0,2.708805249989382,,,,,,sub-180,1,random_dot,,
right,right,25.0,1.0,12.0,right,1.0,3.906781708006747,,accuracy,space,3.299906000000192,,,,,,0.0,0.0,0.0,0.0,12.0,1.0,25.0,1.0,463.0348311250127,,,,,,,,,463.0305235420092,463.3762881670118,464.17782504200295,464.1704115830071,464.17099875000713,464.17782504200295,464.17782504200295,464.17782504200295,,468.0877512920124,,,,,,,,,,,,,,,,,,,,,,,,,,,,,,right,1.0,3.906781708006747,,,,,,sub-180,1,random_dot,,
left,left,26.0,0.0,13.0,right,0.0,5.477665124999476,,accuracy,space,3.299906000000192,,,,,,0.0,0.0,0.0,0.0,13.0,0.0,26.0,0.0,468.094611833003,,,,,,,,,468.08822283300105,468.8865280830069,469.6772045000107,469.6704244170105,469.67089891700016,469.6772045000107,469.6772045000107,469.6772045000107,474.6577318330092,475.1610243330069,,,,,,,,,,,,,,,,,,,,,,,,,,,,,,right,0.0,5.477665124999476,,,,,,sub-180,1,random_dot,,
right,right,27.0,1.0,13.0,right,1.0,2.885499832991627,,accuracy,space,3.299906000000192,,,,,,0.0,0.0,0.0,0.0,13.0,1.0,27.0,1.0,475.1710812500096,,,,,,,,,475.16157550000935,475.508432875009,476.3024502500048,476.2929455830017,476.29335308300506,476.3024502500048,476.3024502500048,476.3024502500048,,479.1920642500045,,,,,,,,,,,,,,,,,,,,,,,,,,,,,,right,1.0,2.885499832991627,,,,,,sub-180,1,random_dot,,
left,left,28.0,0.0,14.0,left,1.0,6.367581999991671,,accuracy,space,3.299906000000192,,,,,,0.0,0.0,0.0,0.0,14.0,0.0,28.0,0.0,479.2016364170122,,,,,,,,,479.19234529200185,479.5423212500027,480.3360002080008,480.3255219999992,480.3259764579998,480.3360002080008,480.3360002080008,480.3360002080008,485.3196361250011,486.7162777920021,,,,,,,,,,,,,,,,,,,,,,,,,,,,,,left,1.0,6.367581999991671,,,,,,sub-180,1,random_dot,,
right,right,29.0,1.0,14.0,right,1.0,4.705898000000161,,accuracy,space,3.299906000000192,,,,,,0.0,0.0,0.0,0.0,14.0,1.0,29.0,1.0,486.7208425420104,,,,,,,,,486.716708042004,487.9093094580021,488.7106670830108,488.7034910830116,488.70406983300927,488.7106670830108,488.7106670830108,488.7106670830108,,493.4211782080092,,,,,,,,,,,,,,,,,,,,,,,,,,,,,,right,1.0,4.705898000000161,,,,,,sub-180,1,random_dot,,
right,right,30.0,0.0,15.0,right,1.0,5.464211416998296,,accuracy,space,3.299906000000192,,,,,,0.0,0.0,0.0,0.0,15.0,0.0,30.0,1.0,493.4277842500014,,,,,,,,,493.421543125005,494.6194225830113,495.4109624580015,495.4034994579997,495.4040929580078,495.4109624580015,495.4109624580015,495.4109624580015,500.4029180830112,500.877475833011,,,,,,,,,,,,,,,,,,,,,,,,,,,,,,right,1.0,5.464211416998296,,,,,,sub-180,1,random_dot,,
left,left,31.0,1.0,15.0,right,0.0,5.6679538329917705,,accuracy,space,3.299906000000192,,,,,,0.0,0.0,0.0,0.0,15.0,1.0,31.0,0.0,500.8877400420024,,,,,,,,,500.8781816670089,501.6743318750087,502.4691660829994,502.45868675000384,502.4591211250081,502.4691660829994,502.4691660829994,502.4691660829994,507.4526176250074,508.1499956250045,,,,,,,,,,,,,,,,,,,,,,,,,,,,,,right,0.0,5.6679538329917705,,,,,,sub-180,1,random_dot,,
left,left,32.0,0.0,16.0,right,0.0,5.455608125004801,,accuracy,space,3.299906000000192,,,,,,0.0,0.0,0.0,0.0,16.0,0.0,32.0,0.0,508.1540250830003,,,,,,,,,508.1504402080027,508.24135904200375,509.0358866250026,509.0250515830121,509.0254674169992,509.0358866250026,509.0358866250026,509.0358866250026,514.0194078750064,514.4941192920087,,,,,,,,,,,,,,,,,,,,,,,,,,,,,,right,0.0,5.455608125004801,,,,,,sub-180,1,random_dot,,
right,right,33.0,1.0,16.0,left,0.0,4.808732208999572,,accuracy,space,3.299906000000192,,,,,,0.0,0.0,0.0,0.0,16.0,1.0,33.0,1.0,514.5042174580012,,,,,,,,,514.4947052500065,514.8416447500058,515.6444992920005,515.637223083002,515.6377637920086,515.6444992920005,515.6444992920005,515.6444992920005,,520.4636635420029,,,,,,,,,,,,,,,,,,,,,,,,,,,,,,left,0.0,4.808732208999572,,,,,,sub-180,1,random_dot,,
right,right,34.0,0.0,17.0,left,0.0,5.384911500004819,,accuracy,space,3.299906000000192,,,,,,0.0,0.0,0.0,0.0,17.0,0.0,34.0,1.0,520.4678975830029,,,,,,,,,520.4640061250102,520.8086043330113,521.6024604580016,521.5917824170028,521.592199250008,521.6024604580016,521.6024604580016,521.6024604580016,526.5859662500006,526.9978585420031,,,,,,,,,,,,,,,,,,,,,,,,,,,,,,left,0.0,5.384911500004819,,,,,,sub-180,1,random_dot,,
left,left,35.0,1.0,17.0,right,0.0,3.673505458005821,,accuracy,space,3.299906000000192,,,,,,0.0,0.0,0.0,0.0,17.0,1.0,35.0,0.0,527.01926929201,,,,,,,,,526.998339208003,527.0916488750081,527.8857065830089,527.8747855000111,527.8752041250118,527.8857065830089,527.8857065830089,527.8857065830089,,531.570735500005,,,,,,,,,,,,,,,,,,,,,,,,,,,,,,right,0.0,3.673505458005821,,,,,,sub-180,1,random_dot,,
left,left,36.0,0.0,18.0,left,1.0,5.431918875008705,,accuracy,space,3.299906000000192,,,,,,0.0,0.0,0.0,0.0,18.0,0.0,36.0,0.0,531.5771805420081,,,,,,,,,531.571073375002,532.7692921250127,533.560944249999,533.5533970000106,533.5539827920002,533.560944249999,533.560944249999,533.560944249999,538.5407755830092,539.004929667004,,,,,,,,,,,,,,,,,,,,,,,,,,,,,,left,1.0,5.431918875008705,,,,,,sub-180,1,random_dot,,
right,right,37.0,1.0,18.0,right,1.0,5.626882374999696,,accuracy,space,3.299906000000192,,,,,,0.0,0.0,0.0,0.0,18.0,1.0,37.0,1.0,539.0141543330101,,,,,,,,,539.0056854170107,539.1024339170108,539.8937387080077,539.8865032500034,539.887055750005,539.8937387080077,539.8937387080077,539.8937387080077,544.8859565420134,545.5266919580026,,,,,,,,,,,,,,,,,,,,,,,,,,,,,,right,1.0,5.626882374999696,,,,,,sub-180,1,random_dot,,
left,left,38.0,0.0,19.0,left,1.0,5.134495749996859,,accuracy,space,3.299906000000192,,,,,,0.0,0.0,0.0,0.0,19.0,0.0,38.0,0.0,545.5356771250081,,,,,,,,,545.5272546670021,546.724921083005,547.5185515420017,547.5089675000054,547.5093987500004,547.5185515420017,547.5185515420017,547.5185515420017,552.5064935000119,552.6658372080128,,,,,,,,,,,,,,,,,,,,,,,,,,,,,,left,1.0,5.134495749996859,,,,,,sub-180,1,random_dot,,
right,right,39.0,1.0,19.0,right,1.0,3.5047919170028763,,accuracy,space,3.299906000000192,,,,,,0.0,0.0,0.0,0.0,19.0,1.0,39.0,1.0,552.670461917005,,,,,,,,,552.6662393750012,553.4579893750051,554.2522186250135,554.2416928750026,554.2421066670067,554.2522186250135,554.2522186250135,554.2522186250135,,557.759735167012,,,,,,,,,,,,,,,,,,,,,,,,,,,,,,right,1.0,3.5047919170028763,,,,,,sub-180,1,random_dot,,
left,left,40.0,0.0,20.0,right,0.0,4.534368249995168,,accuracy,space,3.299906000000192,,,,,,0.0,0.0,0.0,0.0,20.0,0.0,40.0,0.0,557.7676674579998,,,,,,,,,557.7600820420048,558.9582205000042,559.7522089170088,559.7418376670103,559.7422690420062,559.7522089170088,559.7522089170088,559.7522089170088,,564.290871707999,,,,,,,,,,,,,,,,,,,,,,,,,,,,,,right,0.0,4.534368249995168,,,,,,sub-180,1,random_dot,,
right,right,41.0,1.0,20.0,right,1.0,5.609815707997768,,accuracy,space,3.299906000000192,,,,,,0.0,0.0,0.0,0.0,20.0,1.0,41.0,1.0,564.3023692920106,,,,,,,,,564.2912245830084,565.0858424580074,565.8771905830072,565.8699520000082,565.870507042011,565.8771905830072,565.8771905830072,565.8771905830072,570.8576942080108,571.4977910000016,,,,,,,,,,,,,,,,,,,,,,,,,,,,,,right,1.0,5.609815707997768,,,,,,sub-180,1,random_dot,,
right,right,42.0,0.0,21.0,right,1.0,6.042335250007454,,accuracy,space,3.299906000000192,,,,,,0.0,0.0,0.0,0.0,21.0,0.0,42.0,1.0,571.5189486670133,,,,,,,,,571.498336500008,571.5921756669995,572.3939382080134,572.3866507500061,572.3872010420018,572.3939382080134,572.3939382080134,572.3939382080134,577.3744654170005,578.4493530000036,,,,,,,,,,,,,,,,,,,,,,,,,,,,,,right,1.0,6.042335250007454,,,,,,sub-180,1,random_dot,,
left,left,43.0,1.0,21.0,right,0.0,6.1180725840094965,,accuracy,space,3.299906000000192,,,,,,0.0,0.0,0.0,0.0,21.0,1.0,43.0,0.0,578.4535170830059,,,,,,,,,578.4498182500101,579.6414550830086,580.4354162920063,580.4247848750092,580.4252130829991,580.4354162920063,580.4354162920063,580.4354162920063,585.4240826250025,586.5638438330061,,,,,,,,,,,,,,,,,,,,,,,,,,,,,,right,0.0,6.1180725840094965,,,,,,sub-180,1,random_dot,,
right,right,44.0,0.0,22.0,right,1.0,5.930765124998288,,accuracy,space,3.299906000000192,,,,,,0.0,0.0,0.0,0.0,22.0,0.0,44.0,1.0,586.5685387920093,,,,,,,,,586.5642933330091,587.7581423330121,588.5520390830061,588.5415414170129,588.5419613330014,588.5520390830061,588.5520390830061,588.5520390830061,593.5386976670125,594.4873664580082,,,,,,,,,,,,,,,,,,,,,,,,,,,,,,right,1.0,5.930765124998288,,,,,,sub-180,1,random_dot,,
left,left,45.0,1.0,22.0,left,1.0,2.5157015419972595,,accuracy,space,3.299906000000192,,,,,,0.0,0.0,0.0,0.0,22.0,1.0,45.0,0.0,594.4968705000065,,,,,,,,,594.4880734580074,594.585724250006,595.3770176250109,595.3695378750126,595.3701289580058,595.3770176250109,595.3770176250109,595.3770176250109,,597.904067542011,,,,,,,,,,,,,,,,,,,,,,,,,,,,,,left,1.0,2.5157015419972595,,,,,,sub-180,1,random_dot,,
right,right,46.0,0.0,23.0,right,1.0,6.835196625004755,,accuracy,space,3.299906000000192,,,,,,0.0,0.0,0.0,0.0,23.0,0.0,46.0,1.0,597.911266250012,,,,,,,,,597.9045055000024,598.2522678750101,599.0445386670035,599.0366732920083,599.0372042080126,599.0445386670035,599.0445386670035,599.0445386670035,604.0356026250083,605.8879043750057,,,,,,,,,,,,,,,,,,,,,,,,,,,,,,right,1.0,6.835196625004755,,,,,,sub-180,1,random_dot,,
left,left,47.0,1.0,23.0,left,1.0,5.403433749990654,,accuracy,space,3.299906000000192,,,,,,0.0,0.0,0.0,0.0,23.0,1.0,47.0,0.0,605.897390750004,,,,,,,,,605.8886638330005,606.6854285000009,607.4763650000095,607.4696256250027,607.4700916670117,607.4763650000095,607.4763650000095,607.4763650000095,612.4688567500125,612.8874840830103,,,,,,,,,,,,,,,,,,,,,,,,,,,,,,left,1.0,5.403433749990654,,,,,,sub-180,1,random_dot,,
right,right,48.0,0.0,24.0,left,0.0,4.754866500006756,,accuracy,space,3.299906000000192,,,,,,0.0,0.0,0.0,0.0,24.0,0.0,48.0,1.0,612.896943292013,,,,,,,,,612.8881049170013,613.6853673330043,614.4764580830088,614.4694567500119,614.4700210420124,614.4764580830088,614.4764580830088,614.4764580830088,,619.2367007499997,,,,,,,,,,,,,,,,,,,,,,,,,,,,,,left,0.0,4.754866500006756,,,,,,sub-180,1,random_dot,,
left,left,49.0,1.0,24.0,right,0.0,2.635516833004658,,accuracy,space,3.299906000000192,,,,,,0.0,0.0,0.0,0.0,24.0,1.0,49.0,0.0,619.2433955000015,,,,,,,,,619.2370383330126,620.4353638750035,621.2263977080001,621.2195256670093,621.2199805000128,621.2263977080001,621.2263977080001,621.2263977080001,,623.8703286670061,,,,,,,,,,,,,,,,,,,,,,,,,,,,,,right,0.0,2.635516833004658,,,,,,sub-180,1,random_dot,,
left,left,50.0,0.0,25.0,left,1.0,4.038046707995818,,accuracy,space,3.299906000000192,,,,,,0.0,0.0,0.0,0.0,25.0,0.0,50.0,0.0,623.8771807500016,,,,,,,,,623.8707808330073,623.9685176670027,624.7599363330082,624.7526658330025,624.7531269169995,624.7599363330082,624.7599363330082,624.7599363330082,,628.8036682080128,,,,,,,,,,,,,,,,,,,,,,,,,,,,,,left,1.0,4.038046707995818,,,,,,sub-180,1,random_dot,,
right,right,51.0,1.0,25.0,right,1.0,5.829518708997057,,accuracy,space,3.299906000000192,,,,,,0.0,0.0,0.0,0.0,25.0,1.0,51.0,1.0,628.8103321250092,,,,,,,,,628.8041459170054,629.1520544580126,629.9434156250063,629.9361206670001,629.9366709580063,629.9434156250063,629.9434156250063,629.9434156250063,634.9224102080043,635.7761865000066,,,,,,,,,,,,,,,,,,,,,,,,,,,,,,right,1.0,5.829518708997057,,,,,,sub-180,1,random_dot,,
right,right,52.0,0.0,26.0,left,0.0,4.725304708001204,,accuracy,space,3.299906000000192,,,,,,0.0,0.0,0.0,0.0,26.0,0.0,52.0,1.0,635.8020062920114,,,,,,,,,635.7767706670129,636.9743484580104,637.7684630000003,637.7578088330047,637.7582312080049,637.7684630000003,637.7684630000003,637.7684630000003,,642.503813333009,,,,,,,,,,,,,,,,,,,,,,,,,,,,,,left,0.0,4.725304708001204,,,,,,sub-180,1,random_dot,,
left,left,53.0,1.0,26.0,right,0.0,1.926217500003986,,accuracy,space,3.299906000000192,,,,,,0.0,0.0,0.0,0.0,26.0,1.0,53.0,0.0,642.5107873330126,,,,,,,,,642.5043432080129,642.8517747920123,643.6436013750063,643.6359941250121,643.6365895830095,643.6436013750063,643.6436013750063,643.6436013750063,,645.5785614580091,,,,,,,,,,,,,,,,,,,,,,,,,,,,,,right,0.0,1.926217500003986,,,,,,sub-180,1,random_dot,,
left,left,54.0,0.0,27.0,left,1.0,3.5026015839976026,,accuracy,space,3.299906000000192,,,,,,0.0,0.0,0.0,0.0,27.0,0.0,54.0,0.0,645.5838305420039,,,,,,,,,645.578906833005,645.9243290420127,646.7187392080086,646.7074601670029,646.7078795830021,646.7187392080086,646.7187392080086,646.7187392080086,,650.2251473330107,,,,,,,,,,,,,,,,,,,,,,,,,,,,,,left,1.0,3.5026015839976026,,,,,,sub-180,1,random_dot,,
right,right,55.0,1.0,27.0,right,1.0,3.057415375005803,,accuracy,space,3.299906000000192,,,,,,0.0,0.0,0.0,0.0,27.0,1.0,55.0,1.0,650.2351029580022,,,,,,,,,650.2255722500122,650.5743946250004,651.3762006670004,651.3692063750059,651.3696592500055,651.3762006670004,651.3762006670004,651.3762006670004,,654.4367470830039,,,,,,,,,,,,,,,,,,,,,,,,,,,,,,right,1.0,3.057415375005803,,,,,,sub-180,1,random_dot,,
left,left,56.0,0.0,28.0,left,1.0,2.6126025410048896,,accuracy,space,3.299906000000192,,,,,,0.0,0.0,0.0,0.0,28.0,0.0,56.0,0.0,654.4437992500025,,,,,,,,,654.4371685000078,655.6351731250033,656.427016667003,656.4195655420044,656.4203160000034,656.427016667003,656.427016667003,656.427016667003,,659.0424666250037,,,,,,,,,,,,,,,,,,,,,,,,,,,,,,left,1.0,2.6126025410048896,,,,,,sub-180,1,random_dot,,
right,right,57.0,1.0,28.0,right,1.0,3.727882709004916,,accuracy,space,3.299906000000192,,,,,,0.0,0.0,0.0,0.0,28.0,1.0,57.0,1.0,659.0507392920117,,,,,,,,,659.042794500012,659.840471833013,660.6350234999991,660.6243427500012,660.6247867080092,660.6350234999991,660.6350234999991,660.6350234999991,,664.3697820000089,,,,,,,,,,,,,,,,,,,,,,,,,,,,,,right,1.0,3.727882709004916,,,,,,sub-180,1,random_dot,,
right,right,58.0,0.0,29.0,right,1.0,6.060892250010511,,accuracy,space,3.299906000000192,,,,,,0.0,0.0,0.0,0.0,29.0,0.0,58.0,1.0,664.376376500004,,,,,,,,,664.3701087080117,665.5682043330016,666.3593662080093,666.3525222080061,666.3530984579993,666.3593662080093,666.3593662080093,666.3593662080093,671.3399431670114,672.4260408750124,,,,,,,,,,,,,,,,,,,,,,,,,,,,,,right,1.0,6.060892250010511,,,,,,sub-180,1,random_dot,,
left,left,59.0,1.0,29.0,right,0.0,5.55269062500156,,accuracy,space,3.299906000000192,,,,,,0.0,0.0,0.0,0.0,29.0,1.0,59.0,0.0,672.4516592080035,,,,,,,,,672.426606167006,673.2232327500096,674.0181991249992,674.0077604580001,674.0081840000057,674.0181991249992,674.0181991249992,674.0181991249992,679.0013060420024,679.5760577500041,,,,,,,,,,,,,,,,,,,,,,,,,,,,,,right,0.0,5.55269062500156,,,,,,sub-180,1,random_dot,,
,,0.0,0.0,0.0,,,,,accuracy,space,3.299906000000192,,,,,,0.0,0.0,0.0,0.0,,,,,,,,,,,,,,,,,,,,,,,,,,,,,,,,,,,,,,,,,,,,,,,,,,,,,,,,,,,,,sub-180,1,random_dot,,
left,left,0.0,0.0,0.0,right,0.0,1.12368529199739,,speed,space,2.8489264579984592,,,,,,0.0,1.0,1.0,1.0,0.0,0.0,0.0,0.0,682.485855292005,,,,,,,,,682.4819148330134,683.2573465830064,684.0514681670029,684.0407361250109,684.0411932080024,684.0514681670029,684.0514681670029,684.0514681670029,,685.1851242500124,,,,,,,,,,,,,,,,,,,,,,,679.5976249170053,679.6041967080091,679.6041967080091,682.4662526250031,space,2.8489264579984592,,right,0.0,1.12368529199739,,,,,,sub-180,1,random_dot,,
right,right,1.0,1.0,0.0,left,0.0,1.426904666994233,,speed,space,2.8489264579984592,,,,,,0.0,1.0,1.0,1.0,0.0,1.0,1.0,1.0,685.189213583013,,,,,,,,,685.1855063750118,685.9734337500122,686.7670658330026,686.7586422080058,686.7590507080022,686.7670658330026,686.7670658330026,686.7670658330026,,688.2024732920108,,,,,,,,,,,,,,,,,,,,,,,,,,,,,,left,0.0,1.426904666994233,,,,,,sub-180,1,random_dot,,
left,left,2.0,0.0,1.0,left,1.0,2.025901708009769,,speed,space,2.8489264579984592,,,,,,0.0,1.0,1.0,1.0,1.0,0.0,2.0,0.0,688.2089025000023,,,,,,,,,688.2028176250024,689.0014722920023,689.7923167920089,689.7854084580031,689.7859131250007,689.7923167920089,689.7923167920089,689.7923167920089,,691.820142667013,,,,,,,,,,,,,,,,,,,,,,,,,,,,,,left,1.0,2.025901708009769,,,,,,sub-180,1,random_dot,,
right,right,3.0,1.0,1.0,right,1.0,2.2981993749999674,,speed,space,2.8489264579984592,,,,,,0.0,1.0,1.0,1.0,1.0,1.0,3.0,1.0,691.8268652920087,,,,,,,,,691.8206136250083,692.1680932920135,692.9599066670053,692.9527850000013,692.9535050830018,692.9599066670053,692.9599066670053,692.9599066670053,,695.269259083012,,,,,,,,,,,,,,,,,,,,,,,,,,,,,,right,1.0,2.2981993749999674,,,,,,sub-180,1,random_dot,,
right,right,4.0,0.0,2.0,left,0.0,4.605241791010485,,speed,space,2.8489264579984592,,,,,,0.0,1.0,1.0,1.0,2.0,0.0,4.0,1.0,695.2754842920112,,,,,,,,,695.2695742920041,695.6181475420017,696.4088035419991,696.4020746669994,696.4025501670112,696.4088035419991,696.4088035419991,696.4088035419991,,701.019429292006,,,,,,,,,,,,,,,,,,,,,,,,,,,,,,left,0.0,4.605241791010485,,,,,,sub-180,1,random_dot,,
left,left,5.0,1.0,2.0,right,0.0,1.166418374996283,,speed,space,2.8489264579984592,,,,,,0.0,1.0,1.0,1.0,2.0,1.0,5.0,0.0,701.0259695000132,,,,,,,,,701.0197607920127,701.3681939170056,702.1593509580125,702.1524235830002,702.1529575419991,702.1593509580125,702.1593509580125,702.1593509580125,,703.3366000000096,,,,,,,,,,,,,,,,,,,,,,,,,,,,,,right,0.0,1.166418374996283,,,,,,sub-180,1,random_dot,,
left,left,6.0,0.0,3.0,right,0.0,1.1270536660013022,,speed,space,2.8489264579984592,,,,,,0.0,1.0,1.0,1.0,3.0,0.0,6.0,0.0,703.3429811670067,,,,,,,,,703.33703241701,703.434857625005,704.2266925420117,704.2192991250049,704.2198714170081,704.2266925420117,704.2266925420117,704.2266925420117,,705.3581067080086,,,,,,,,,,,,,,,,,,,,,,,,,,,,,,right,0.0,1.1270536660013022,,,,,,sub-180,1,random_dot,,
right,right,7.0,1.0,3.0,left,0.0,1.624490957998205,,speed,space,2.8489264579984592,,,,,,0.0,1.0,1.0,1.0,3.0,1.0,7.0,1.0,705.3681540000107,,,,,,,,,705.3584226250096,706.5571947920107,707.3515705830068,707.3409803329996,707.3414109580044,707.3515705830068,707.3515705830068,707.3515705830068,,708.986460125001,,,,,,,,,,,,,,,,,,,,,,,,,,,,,,left,0.0,1.624490957998205,,,,,,sub-180,1,random_dot,,
right,right,8.0,0.0,4.0,right,1.0,1.9762820839969208,,speed,space,2.8489264579984592,,,,,,0.0,1.0,1.0,1.0,4.0,0.0,8.0,1.0,708.9929706670082,,,,,,,,,708.9868947080104,710.1850264170062,710.9766285420046,710.9692225000035,710.9696847080049,710.9766285420046,710.9766285420046,710.9766285420046,,712.9623312500044,,,,,,,,,,,,,,,,,,,,,,,,,,,,,,right,1.0,1.9762820839969208,,,,,,sub-180,1,random_dot,,
left,left,9.0,1.0,4.0,left,1.0,1.9558854589995465,,speed,space,2.8489264579984592,,,,,,0.0,1.0,1.0,1.0,4.0,1.0,9.0,0.0,712.9668663330085,,,,,,,,,712.9626595420123,714.157547499999,714.9509229579999,714.9415151249996,714.941946292005,714.9509229579999,714.9509229579999,714.9509229579999,,716.9087792500068,,,,,,,,,,,,,,,,,,,,,,,,,,,,,,left,1.0,1.9558854589995465,,,,,,sub-180,1,random_dot,,
right,right,10.0,0.0,5.0,right,1.0,4.775030749995494,,speed,space,2.8489264579984592,,,,,,0.0,1.0,1.0,1.0,5.0,0.0,10.0,1.0,716.9173115000012,,,,,,,,,716.9091222499992,717.2575275420095,718.0516676670086,718.0404674580059,718.0408787500055,718.0516676670086,718.0516676670086,718.0516676670086,,722.8365334170085,,,,,,,,,,,,,,,,,,,,,,,,,,,,,,right,1.0,4.775030749995494,,,,,,sub-180,1,random_dot,,
left,left,11.0,1.0,5.0,right,0.0,5.606656874995679,,speed,space,2.8489264579984592,,,,,,0.0,1.0,1.0,1.0,5.0,1.0,11.0,0.0,722.8433693750121,,,,,,,,,722.8369715000008,722.9345347500057,723.7258694170014,723.7186466250132,723.7191485000076,723.7258694170014,723.7258694170014,723.7258694170014,728.7051049170113,729.3364659170038,,,,,,,,,,,,,,,,,,,,,,,,,,,,,,right,0.0,5.606656874995679,,,,,,sub-180,1,random_dot,,
left,left,12.0,0.0,6.0,right,0.0,2.1549084580037743,,speed,space,2.8489264579984592,,,,,,0.0,1.0,1.0,1.0,6.0,0.0,12.0,0.0,729.3454714170075,,,,,,,,,729.3370121670014,729.4339700420096,730.2258245000121,730.2188756670075,730.2194248330052,730.2258245000121,730.2258245000121,730.2258245000121,,732.386201958012,,,,,,,,,,,,,,,,,,,,,,,,,,,,,,right,0.0,2.1549084580037743,,,,,,sub-180,1,random_dot,,
right,right,13.0,1.0,6.0,left,0.0,2.876861374999862,,speed,space,2.8489264579984592,,,,,,0.0,1.0,1.0,1.0,6.0,1.0,13.0,1.0,732.3929325000063,,,,,,,,,732.3866620420013,732.7347025000054,733.52559879201,733.5188490830042,733.5192972080113,733.52559879201,733.52559879201,733.52559879201,,736.4073034580069,,,,,,,,,,,,,,,,,,,,,,,,,,,,,,left,0.0,2.876861374999862,,,,,,sub-180,1,random_dot,,
left,left,14.0,0.0,7.0,left,1.0,3.719675957996514,,speed,space,2.8489264579984592,,,,,,0.0,1.0,1.0,1.0,7.0,0.0,14.0,0.0,736.4181075830129,,,,,,,,,736.4076200830023,736.5061757080111,737.301191208011,737.2900676249992,737.2904798750096,737.301191208011,737.301191208011,737.301191208011,,741.0237614170037,,,,,,,,,,,,,,,,,,,,,,,,,,,,,,left,1.0,3.719675957996514,,,,,,sub-180,1,random_dot,,
right,right,15.0,1.0,7.0,right,1.0,1.8045502909953937,,speed,space,2.8489264579984592,,,,,,0.0,1.0,1.0,1.0,7.0,1.0,15.0,1.0,741.0347457919997,,,,,,,,,741.0240691670042,741.8248421669996,742.6257409579994,742.6187045420083,742.6192632919992,742.6257409579994,742.6257409579994,742.6257409579994,,744.4356895830133,,,,,,,,,,,,,,,,,,,,,,,,,,,,,,right,1.0,1.8045502909953937,,,,,,sub-180,1,random_dot,,
right,right,16.0,0.0,8.0,right,1.0,1.1690810000000056,,speed,space,2.8489264579984592,,,,,,0.0,1.0,1.0,1.0,8.0,0.0,16.0,1.0,744.442183792009,,,,,,,,,744.4360433750116,744.5343547920056,745.3259461250127,745.3188391250005,745.3194278330047,745.3259461250127,745.3259461250127,745.3259461250127,,746.5023107920133,,,,,,,,,,,,,,,,,,,,,,,,,,,,,,right,1.0,1.1690810000000056,,,,,,sub-180,1,random_dot,,
left,left,17.0,1.0,8.0,right,0.0,1.319721624997328,,speed,space,2.8489264579984592,,,,,,0.0,1.0,1.0,1.0,8.0,1.0,17.0,0.0,746.5086246249994,,,,,,,,,746.5026522920089,746.6011503750051,747.3925489170069,747.3853683750058,747.3859475000063,747.3925489170069,747.3925489170069,747.3925489170069,,748.7197493749991,,,,,,,,,,,,,,,,,,,,,,,,,,,,,,right,0.0,1.319721624997328,,,,,,sub-180,1,random_dot,,
left,left,18.0,0.0,9.0,left,1.0,1.309538290995988,,speed,space,2.8489264579984592,,,,,,0.0,1.0,1.0,1.0,9.0,0.0,18.0,0.0,748.726434917,,,,,,,,,748.7202249170077,749.0681578750082,749.8590567500069,749.8519572080113,749.8525455000054,749.8590567500069,749.8590567500069,749.8590567500069,,751.1784630420007,,,,,,,,,,,,,,,,,,,,,,,,,,,,,,left,1.0,1.309538290995988,,,,,,sub-180,1,random_dot,,
right,right,19.0,1.0,9.0,right,1.0,0.7568716670066351,,speed,space,2.8489264579984592,,,,,,0.0,1.0,1.0,1.0,9.0,1.0,19.0,1.0,751.1832138750033,,,,,,,,,751.1787870000117,751.2727448330115,752.0677777080127,752.0569011670013,752.0573296250077,752.0677777080127,752.0677777080127,752.0677777080127,,752.8266826670006,,,,,,,,,,,,,,,,,,,,,,,,,,,,,,right,1.0,0.7568716670066351,,,,,,sub-180,1,random_dot,,
left,left,20.0,0.0,10.0,left,1.0,0.9078057909937344,,speed,space,2.8489264579984592,,,,,,0.0,1.0,1.0,1.0,10.0,0.0,20.0,0.0,752.8333997080044,,,,,,,,,752.8271575420076,754.0223721250077,754.8178148750012,754.8072955829994,754.8077359170129,754.8178148750012,754.8178148750012,754.8178148750012,,755.7357435000013,,,,,,,,,,,,,,,,,,,,,,,,,,,,,,left,1.0,0.9078057909937344,,,,,,sub-180,1,random_dot,,
right,right,21.0,1.0,10.0,right,1.0,0.6928315409895731,,speed,space,2.8489264579984592,,,,,,0.0,1.0,1.0,1.0,10.0,1.0,21.0,1.0,755.7420078330033,,,,,,,,,755.73606616701,756.9345183330006,757.7254342080123,757.718564750001,757.7190659580083,757.7254342080123,757.7254342080123,757.7254342080123,,758.4273501249991,,,,,,,,,,,,,,,,,,,,,,,,,,,,,,right,1.0,0.6928315409895731,,,,,,sub-180,1,random_dot,,
left,left,22.0,0.0,11.0,left,1.0,0.8062752919940976,,speed,space,2.8489264579984592,,,,,,0.0,1.0,1.0,1.0,11.0,0.0,22.0,0.0,758.4345277500106,,,,,,,,,758.4276795830083,759.6233730000095,760.4172514170059,760.4075386670011,760.4079720420123,760.4172514170059,760.4172514170059,760.4172514170059,,761.2360977920034,,,,,,,,,,,,,,,,,,,,,,,,,,,,,,left,1.0,0.8062752919940976,,,,,,sub-180,1,random_dot,,
right,right,23.0,1.0,11.0,right,1.0,0.7599510419968283,,speed,space,2.8489264579984592,,,,,,0.0,1.0,1.0,1.0,11.0,1.0,23.0,1.0,761.2401817920036,,,,,,,,,761.2364104170119,761.3343302920111,762.1254268750054,762.1186462080077,762.1190744170017,762.1254268750054,762.1254268750054,762.1254268750054,,762.8943316670047,,,,,,,,,,,,,,,,,,,,,,,,,,,,,,right,1.0,0.7599510419968283,,,,,,sub-180,1,random_dot,,
right,right,24.0,0.0,12.0,right,1.0,1.953509708007914,,speed,space,2.8489264579984592,,,,,,0.0,1.0,1.0,1.0,12.0,0.0,24.0,1.0,762.8998337920057,,,,,,,,,762.8946509580128,764.0900282500079,764.8843552920007,764.8737056250102,764.8741310830083,764.8843552920007,764.8843552920007,764.8843552920007,,766.8405214580125,,,,,,,,,,,,,,,,,,,,,,,,,,,,,,right,1.0,1.953509708007914,,,,,,sub-180,1,random_dot,,
left,left,25.0,1.0,12.0,right,0.0,1.2846831250062678,,speed,space,2.8489264579984592,,,,,,0.0,1.0,1.0,1.0,12.0,1.0,25.0,0.0,766.8511065420025,,,,,,,,,766.8408429580013,766.9399185420043,767.7342827500106,767.724127583002,767.7245499580022,767.7342827500106,767.7342827500106,767.7342827500106,,769.0239711670001,,,,,,,,,,,,,,,,,,,,,,,,,,,,,,right,0.0,1.2846831250062678,,,,,,sub-180,1,random_dot,,
left,left,26.0,0.0,13.0,right,0.0,1.7443714160035595,,speed,space,2.8489264579984592,,,,,,0.0,1.0,1.0,1.0,13.0,0.0,26.0,0.0,769.0344967500132,,,,,,,,,769.0242910420056,769.1233439580101,769.9176832500088,769.9068060830032,769.9072343330045,769.9176832500088,769.9176832500088,769.9176832500088,,771.6692546250124,,,,,,,,,,,,,,,,,,,,,,,,,,,,,,right,0.0,1.7443714160035595,,,,,,sub-180,1,random_dot,,
right,right,27.0,1.0,13.0,right,1.0,0.7098168340016855,,speed,space,2.8489264579984592,,,,,,0.0,1.0,1.0,1.0,13.0,1.0,27.0,1.0,771.6760765830113,,,,,,,,,771.6696826670086,772.0176490420126,772.8091384580039,772.8020348330028,772.8024950000108,772.8091384580039,772.8091384580039,772.8091384580039,,773.5277197500109,,,,,,,,,,,,,,,,,,,,,,,,,,,,,,right,1.0,0.7098168340016855,,,,,,sub-180,1,random_dot,,
left,left,28.0,0.0,14.0,right,0.0,0.667097957993974,,speed,space,2.8489264579984592,,,,,,0.0,1.0,1.0,1.0,14.0,0.0,28.0,0.0,773.5330307920085,,,,,,,,,773.5280402920034,774.3232031250081,775.1176211250131,775.1071205000044,775.1075456670078,775.1176211250131,775.1176211250131,775.1176211250131,,775.7862378749996,,,,,,,,,,,,,,,,,,,,,,,,,,,,,,right,0.0,0.667097957993974,,,,,,sub-180,1,random_dot,,
right,right,29.0,1.0,14.0,right,1.0,0.6775118749937974,,speed,space,2.8489264579984592,,,,,,0.0,1.0,1.0,1.0,14.0,1.0,29.0,1.0,775.7925470420014,,,,,,,,,775.7865564170061,776.9847476670111,777.775562958006,777.7685543330008,777.7691362500045,777.775562958006,777.775562958006,777.775562958006,,778.4587581670057,,,,,,,,,,,,,,,,,,,,,,,,,,,,,,right,1.0,0.6775118749937974,,,,,,sub-180,1,random_dot,,
left,left,30.0,0.0,15.0,right,0.0,0.6248531669989461,,speed,space,2.8489264579984592,,,,,,0.0,1.0,1.0,1.0,15.0,0.0,30.0,0.0,778.4667861670023,,,,,,,,,778.4590776250116,778.5560137920111,779.350397208007,779.340960417001,779.3414062920056,779.350397208007,779.350397208007,779.350397208007,,779.9859722500114,,,,,,,,,,,,,,,,,,,,,,,,,,,,,,right,0.0,0.6248531669989461,,,,,,sub-180,1,random_dot,,
right,right,31.0,1.0,15.0,right,1.0,0.4848591249901801,,speed,space,2.8489264579984592,,,,,,0.0,1.0,1.0,1.0,15.0,1.0,31.0,1.0,779.9927993330057,,,,,,,,,779.9863750000077,780.3344844580133,781.1258227080107,781.1188795000053,781.1194462500134,781.1258227080107,781.1258227080107,781.1258227080107,,781.6195838749991,,,,,,,,,,,,,,,,,,,,,,,,,,,,,,right,1.0,0.4848591249901801,,,,,,sub-180,1,random_dot,,
left,left,32.0,0.0,16.0,right,0.0,0.5262905420095194,,speed,space,2.8489264579984592,,,,,,0.0,1.0,1.0,1.0,16.0,0.0,32.0,0.0,781.6262070000084,,,,,,,,,781.6200365000113,782.8184348330105,783.6094702080009,783.6020571670088,783.6026743750117,783.6094702080009,783.6094702080009,783.6094702080009,,784.1449002080044,,,,,,,,,,,,,,,,,,,,,,,,,,,,,,right,0.0,0.5262905420095194,,,,,,sub-180,1,random_dot,,
right,right,33.0,1.0,16.0,right,1.0,0.6922095409972826,,speed,space,2.8489264579984592,,,,,,0.0,1.0,1.0,1.0,16.0,1.0,33.0,1.0,784.1497504170111,,,,,,,,,784.1452839580015,784.2394017080078,785.0342027080042,785.0236415000109,785.0240672080108,785.0342027080042,785.0342027080042,785.0342027080042,,785.7357675830135,,,,,,,,,,,,,,,,,,,,,,,,,,,,,,right,1.0,0.6922095409972826,,,,,,sub-180,1,random_dot,,
left,left,34.0,0.0,17.0,right,0.0,0.493239084011293,,speed,space,2.8489264579984592,,,,,,0.0,1.0,1.0,1.0,17.0,0.0,34.0,0.0,785.7426515830011,,,,,,,,,785.7361988330085,786.5344541250088,787.3260508330131,787.3188437500066,787.3193749580096,787.3260508330131,787.3260508330131,787.3260508330131,,787.825025625003,,,,,,,,,,,,,,,,,,,,,,,,,,,,,,right,0.0,0.493239084011293,,,,,,sub-180,1,random_dot,,
right,right,35.0,1.0,17.0,right,1.0,0.7910784580017207,,speed,space,2.8489264579984592,,,,,,0.0,1.0,1.0,1.0,17.0,1.0,35.0,1.0,787.833520375003,,,,,,,,,787.8253549580113,789.0232822079997,789.8174352920032,789.8071142080007,789.8075233750133,789.8174352920032,789.8174352920032,789.8174352920032,,790.6175512920017,,,,,,,,,,,,,,,,,,,,,,,,,,,,,,right,1.0,0.7910784580017207,,,,,,sub-180,1,random_dot,,
right,right,36.0,0.0,18.0,right,1.0,0.5910802500002319,,speed,space,2.8489264579984592,,,,,,0.0,1.0,1.0,1.0,18.0,0.0,36.0,1.0,790.621261917011,,,,,,,,,790.6178937080113,791.8074067080015,792.6007043330028,792.5905217920081,792.5909615420096,792.6007043330028,792.6007043330028,792.6007043330028,,793.2008774999995,,,,,,,,,,,,,,,,,,,,,,,,,,,,,,right,1.0,0.5910802500002319,,,,,,sub-180,1,random_dot,,
left,left,37.0,1.0,18.0,right,0.0,0.8098569589928957,,speed,space,2.8489264579984592,,,,,,0.0,1.0,1.0,1.0,18.0,1.0,37.0,0.0,793.205047667012,,,,,,,,,793.2012023330026,793.289528792011,794.0841466250131,794.0735716250056,794.0740074170026,794.0841466250131,794.0841466250131,794.0841466250131,,794.9023724170111,,,,,,,,,,,,,,,,,,,,,,,,,,,,,,right,0.0,0.8098569589928957,,,,,,sub-180,1,random_dot,,
left,left,38.0,0.0,19.0,right,0.0,0.8963195420074044,,speed,space,2.8489264579984592,,,,,,0.0,1.0,1.0,1.0,19.0,0.0,38.0,0.0,794.9083961249999,,,,,,,,,794.9026862080063,795.2512883330055,796.0423515830043,796.0351073330094,796.0356867920054,796.0423515830043,796.0423515830043,796.0423515830043,,796.9512884580035,,,,,,,,,,,,,,,,,,,,,,,,,,,,,,right,0.0,0.8963195420074044,,,,,,sub-180,1,random_dot,,
right,right,39.0,1.0,19.0,right,1.0,1.073121417008224,,speed,space,2.8489264579984592,,,,,,0.0,1.0,1.0,1.0,19.0,1.0,39.0,1.0,796.9548263330071,,,,,,,,,796.9516114580038,797.7411332500051,798.5420915420109,798.5352564580098,798.5356840830063,798.5420915420109,798.5420915420109,798.5420915420109,,799.6189390830114,,,,,,,,,,,,,,,,,,,,,,,,,,,,,,right,1.0,1.073121417008224,,,,,,sub-180,1,random_dot,,
left,left,40.0,0.0,20.0,right,0.0,1.5880400000023656,,speed,space,2.8489264579984592,,,,,,0.0,1.0,1.0,1.0,20.0,0.0,40.0,0.0,799.6251223750005,,,,,,,,,799.6192509579996,799.9674952920032,800.7590520420054,800.7516736250109,800.7522767080081,800.7590520420054,800.7590520420054,800.7590520420054,,802.3520643750089,,,,,,,,,,,,,,,,,,,,,,,,,,,,,,right,0.0,1.5880400000023656,,,,,,sub-180,1,random_dot,,
right,right,41.0,1.0,20.0,right,1.0,2.612778332986636,,speed,space,2.8489264579984592,,,,,,0.0,1.0,1.0,1.0,20.0,1.0,41.0,1.0,802.3582710420014,,,,,,,,,802.3523855000094,802.6900585000112,803.4842012080044,803.4732500420068,803.4736742080131,803.4842012080044,803.4842012080044,803.4842012080044,,806.1020801250124,,,,,,,,,,,,,,,,,,,,,,,,,,,,,,right,1.0,2.612778332986636,,,,,,sub-180,1,random_dot,,
right,right,42.0,0.0,21.0,right,1.0,4.961725332992501,,speed,space,2.8489264579984592,,,,,,0.0,1.0,1.0,1.0,21.0,0.0,42.0,1.0,806.1081826670124,,,,,,,,,806.1024048750114,806.8894017500133,807.6839285419992,807.6739550000057,807.6743994580029,807.6839285419992,807.6839285419992,807.6839285419992,,812.6525670830015,,,,,,,,,,,,,,,,,,,,,,,,,,,,,,right,1.0,4.961725332992501,,,,,,sub-180,1,random_dot,,
left,left,43.0,1.0,21.0,right,0.0,8.98771412500355,,speed,space,2.8489264579984592,,,,,,0.0,1.0,1.0,1.0,21.0,1.0,43.0,0.0,812.6592730420089,,,,,,,,,812.653014083,813.451151375004,814.2422296250006,814.2351836670132,814.2357272080117,814.2422296250006,814.2422296250006,814.2422296250006,819.221257792,823.2363862080092,,,,,,,,,,,,,,,,,,,,,,,,,,,,,,right,0.0,8.98771412500355,,,,,,sub-180,1,random_dot,,
left,left,44.0,0.0,22.0,left,1.0,1.175416458005202,,speed,space,2.8489264579984592,,,,,,0.0,1.0,1.0,1.0,22.0,0.0,44.0,0.0,823.2453793750028,,,,,,,,,823.23702270801,823.3345739580109,824.1259350000037,824.1184140420082,824.1189447920042,824.1259350000037,824.1259350000037,824.1259350000037,,825.3108897080092,,,,,,,,,,,,,,,,,,,,,,,,,,,,,,left,1.0,1.175416458005202,,,,,,sub-180,1,random_dot,,
right,right,45.0,1.0,22.0,left,0.0,2.6276341670018155,,speed,space,2.8489264579984592,,,,,,0.0,1.0,1.0,1.0,22.0,1.0,45.0,1.0,825.3162085000076,,,,,,,,,825.3112150830129,825.6568020830018,826.450686125012,826.4399523330067,826.4403643330006,826.450686125012,826.450686125012,826.450686125012,,829.0855554580048,,,,,,,,,,,,,,,,,,,,,,,,,,,,,,left,0.0,2.6276341670018155,,,,,,sub-180,1,random_dot,,
left,left,46.0,0.0,23.0,left,1.0,1.8891997079917928,,speed,space,2.8489264579984592,,,,,,0.0,1.0,1.0,1.0,23.0,0.0,46.0,0.0,829.0919510000094,,,,,,,,,829.0858954580035,829.8843365000066,830.6754224169999,830.6682925420027,830.6688880000002,830.6754224169999,830.6754224169999,830.6754224169999,,832.5692871250067,,,,,,,,,,,,,,,,,,,,,,,,,,,,,,left,1.0,1.8891997079917928,,,,,,sub-180,1,random_dot,,
right,right,47.0,1.0,23.0,left,0.0,1.356139916999382,,speed,space,2.8489264579984592,,,,,,0.0,1.0,1.0,1.0,23.0,1.0,47.0,1.0,832.5761120420066,,,,,,,,,832.5697412080044,832.9174356670119,833.7085379170021,833.7016343330033,833.7021086669993,833.7085379170021,833.7085379170021,833.7085379170021,,835.0690502920042,,,,,,,,,,,,,,,,,,,,,,,,,,,,,,left,0.0,1.356139916999382,,,,,,sub-180,1,random_dot,,
right,right,48.0,0.0,24.0,left,0.0,1.4596568339911755,,speed,space,2.8489264579984592,,,,,,0.0,1.0,1.0,1.0,24.0,0.0,48.0,1.0,835.0753559580044,,,,,,,,,835.0693894580036,836.2677533750102,837.0585309580056,837.0515452500113,837.0520026250015,837.0585309580056,837.0585309580056,837.0585309580056,,838.52672441701,,,,,,,,,,,,,,,,,,,,,,,,,,,,,,left,0.0,1.4596568339911755,,,,,,sub-180,1,random_dot,,
left,left,49.0,1.0,24.0,right,0.0,4.163297041988699,,speed,space,2.8489264579984592,,,,,,0.0,1.0,1.0,1.0,24.0,1.0,49.0,0.0,838.5334038750007,,,,,,,,,838.527195875009,838.6238028750086,839.4161329580093,839.407333916999,839.4077964580065,839.4161329580093,839.4161329580093,839.4161329580093,,843.5854582500033,,,,,,,,,,,,,,,,,,,,,,,,,,,,,,right,0.0,4.163297041988699,,,,,,sub-180,1,random_dot,,
left,left,50.0,0.0,25.0,left,1.0,5.054182374995435,,speed,space,2.8489264579984592,,,,,,0.0,1.0,1.0,1.0,25.0,0.0,50.0,0.0,843.5918353330053,,,,,,,,,843.5857958330016,843.9342964170064,844.725370708009,844.7182512500003,844.7188135420001,844.725370708009,844.725370708009,844.725370708009,849.7060644580051,849.7860224580072,,,,,,,,,,,,,,,,,,,,,,,,,,,,,,left,1.0,5.054182374995435,,,,,,sub-180,1,random_dot,,
right,right,51.0,1.0,25.0,left,0.0,2.249228207991109,,speed,space,2.8489264579984592,,,,,,0.0,1.0,1.0,1.0,25.0,1.0,51.0,1.0,849.7948600830132,,,,,,,,,849.7866757080046,850.1337664170132,850.9251717080042,850.91807754201,850.9186280830036,850.9251717080042,850.9251717080042,850.9251717080042,,853.183982750008,,,,,,,,,,,,,,,,,,,,,,,,,,,,,,left,0.0,2.249228207991109,,,,,,sub-180,1,random_dot,,
right,right,52.0,0.0,26.0,left,0.0,1.417973957999493,,speed,space,2.8489264579984592,,,,,,0.0,1.0,1.0,1.0,26.0,0.0,52.0,1.0,853.1882790420059,,,,,,,,,853.1843569170014,853.9724336250074,854.767092042006,854.7565140420047,854.7569244580081,854.767092042006,854.767092042006,854.767092042006,,856.1935934170033,,,,,,,,,,,,,,,,,,,,,,,,,,,,,,left,0.0,1.417973957999493,,,,,,sub-180,1,random_dot,,
left,left,53.0,1.0,26.0,left,1.0,2.167331165997893,,speed,space,2.8489264579984592,,,,,,0.0,1.0,1.0,1.0,26.0,1.0,53.0,0.0,856.1998682500125,,,,,,,,,856.1939260000072,856.9893736250087,857.7843113330018,857.7731140830001,857.7735542500013,857.7843113330018,857.7843113330018,857.7843113330018,,859.9596468330128,,,,,,,,,,,,,,,,,,,,,,,,,,,,,,left,1.0,2.167331165997893,,,,,,sub-180,1,random_dot,,
left,left,54.0,0.0,27.0,left,1.0,2.602943667006912,,speed,space,2.8489264579984592,,,,,,0.0,1.0,1.0,1.0,27.0,0.0,54.0,0.0,859.9669491670065,,,,,,,,,859.959957583007,860.756100292012,861.5504306670045,861.5399920830096,861.5404163330095,861.5504306670045,861.5504306670045,861.5504306670045,,864.1571055420063,,,,,,,,,,,,,,,,,,,,,,,,,,,,,,left,1.0,2.602943667006912,,,,,,sub-180,1,random_dot,,
right,right,55.0,1.0,27.0,left,0.0,2.044256624998525,,speed,space,2.8489264579984592,,,,,,0.0,1.0,1.0,1.0,27.0,1.0,55.0,1.0,864.1673348330078,,,,,,,,,864.1574528330093,864.9570751670108,865.758588333003,865.7514269580133,865.751984292001,865.758588333003,865.758588333003,865.758588333003,,867.8081243330089,,,,,,,,,,,,,,,,,,,,,,,,,,,,,,left,0.0,2.044256624998525,,,,,,sub-180,1,random_dot,,
right,right,56.0,0.0,28.0,left,0.0,5.674600500002271,,speed,space,2.8489264579984592,,,,,,0.0,1.0,1.0,1.0,28.0,0.0,56.0,1.0,867.816094083013,,,,,,,,,867.8084342500078,868.6058717500127,869.4004148330132,869.3899527500034,869.3903676250047,869.4004148330132,869.4004148330132,869.4004148330132,874.3879926670052,875.085609042013,,,,,,,,,,,,,,,,,,,,,,,,,,,,,,left,0.0,5.674600500002271,,,,,,sub-180,1,random_dot,,
left,left,57.0,1.0,28.0,left,1.0,3.0011912079935428,,speed,space,2.8489264579984592,,,,,,0.0,1.0,1.0,1.0,28.0,1.0,57.0,0.0,875.0948447080009,,,,,,,,,875.0861714580096,876.2838042080111,877.0748681670084,877.0679046250007,877.0684856250009,877.0748681670084,877.0748681670084,877.0748681670084,,880.0854900000122,,,,,,,,,,,,,,,,,,,,,,,,,,,,,,left,1.0,3.0011912079935428,,,,,,sub-180,1,random_dot,,
left,left,58.0,0.0,29.0,left,1.0,1.9319643750059183,,speed,space,2.8489264579984592,,,,,,0.0,1.0,1.0,1.0,29.0,0.0,58.0,0.0,880.0921810830041,,,,,,,,,880.0859053750028,880.1836215830117,880.9754274580046,880.9680710420071,880.9686352080025,880.9754274580046,880.9754274580046,880.9754274580046,,882.9187779580097,,,,,,,,,,,,,,,,,,,,,,,,,,,,,,left,1.0,1.9319643750059183,,,,,,sub-180,1,random_dot,,
right,right,59.0,1.0,29.0,left,0.0,2.1210035830008565,,speed,space,2.8489264579984592,,,,,,0.0,1.0,1.0,1.0,29.0,1.0,59.0,1.0,882.9254592920042,,,,,,,,,882.9191951670073,884.1171110830037,884.9087121670018,884.901614500006,884.9021627500042,884.9087121670018,884.9087121670018,884.9087121670018,,887.0355172500131,,,,,,,,,,,,,,,,,,,,,,,,,,,,,,left,0.0,2.1210035830008565,,,,,,sub-180,1,random_dot,,
,,1.0,1.0,0.0,,,,,speed,space,2.8489264579984592,,,,,,0.0,1.0,1.0,1.0,,,,,,,,,,,,,,,,,,,,,,,,,,,,,,,,,,,,,,,,,,,,,,,,,,,,,,,,,,,,,sub-180,1,random_dot,,
,,,,,,,,,,,,,,,,,,,,,,,,,,,,,,,,,,,,,,,,,,,,,,,,,,,,,,,,,,,,,,,,,,,,,,,,,,,,,887.0411556670006,887.0490895000112,892.0380486670037,892.0343760830001,sub-180,1,random_dot,,
