direction,corrAns,thisN,thisTrialN,thisRepN,respDots.keys,respDots.corr,respDots.rt,respDots.duration,randomInstr,respRandomInstr.keys,respRandomInstr.rt,respRandomInstr.duration,practice_trials.thisRepN,practice_trials.thisTrialN,practice_trials.thisN,practice_trials.thisIndex,instr_trials.thisRepN,instr_trials.thisTrialN,instr_trials.thisN,instr_trials.thisIndex,test_trials.thisRepN,test_trials.thisTrialN,test_trials.thisN,test_trials.thisIndex,thisRow.t,notes,general_instruction.started,textGeneralInstr.started,respGeneralInstr.started,general_instruction.stopped,respGeneralInstr.keys,respGeneralInstr.rt,respGeneralInstr.duration,ITI.started,fixcross.started,fixcross.stopped,ITI.stopped,dots.started,backgroundDots.started,stimulusDots.started,respDots.started,stimulusDots.stopped,dots.stopped,practice_trials.respDots.keys,practice_trials.respDots.corr,practice_trials.respDots.rt,practice_trials.respDots.duration,feedback.started,textFeedback.started,feedback.stopped,textFeedback.stopped,info.started,textInfo.started,keyRespInfo.started,info.stopped,keyRespInfo.keys,keyRespInfo.rt,keyRespInfo.duration,test_instruction.started,textTestInstr.started,respTestInstr.started,test_instruction.stopped,respTestInstr.keys,respTestInstr.rt,respTestInstr.duration,random_instruction.started,textRandomInstr.started,respRandomInstr.started,random_instruction.stopped,instr_trials.respRandomInstr.keys,instr_trials.respRandomInstr.rt,instr_trials.respRandomInstr.duration,test_trials.respDots.keys,test_trials.respDots.corr,test_trials.respDots.rt,test_trials.respDots.duration,goodbye.started,textGoodbye.started,goodbye.stopped,participant,session,expName,frameRate,Unnamed: 87
,,,,,,,,,,,,,,,,,,,,,,,,,,,0.0017793999995774,0.0046321999998326,0.0046321999998326,18.90939140000046,space,18.88714919999984,,,,,,,,,,,,,,,,,,,,,,,,,,,,,,,,,,,,,,,,,,,,,,,,sub-041,1,random_dot,59.93798815734868,
right,right,0.0,0.0,0.0,right,1.0,5.487385999998878,,,,,,0.0,0.0,0.0,1.0,,,,,,,,,18.92107769999893,,,,,,,,,18.91817470000024,19.7215412000005,20.535751600000367,20.505448899999465,20.50640410000051,20.535751600000367,20.535751600000367,20.535751600000367,25.52067279999937,26.038735500000257,right,1.0,5.487385999998878,,26.056865700000344,26.061854100000343,26.55424089999906,,,,,,,,,,,,,,,,,,,,,,,,,,,,,,sub-041,1,random_dot,59.93798815734868,
left,left,1.0,1.0,0.0,left,1.0,2.3391212000005908,,,,,,0.0,1.0,1.0,0.0,,,,,,,,,26.57044599999972,,,,,,,,,26.554974599999696,26.65384780000022,27.454630799998995,27.43767189999926,27.43852189999961,27.454630799998995,27.454630799998995,27.454630799998995,,29.80529960000058,left,1.0,2.3391212000005908,,29.805609999999437,29.820161100000405,30.304340999999116,30.31996260000051,,,,,,,,,,,,,,,,,,,,,,,,,,,,,sub-041,1,random_dot,59.93798815734868,
right,right,2.0,0.0,1.0,right,1.0,2.772401299998819,,,,,,1.0,0.0,2.0,1.0,,,,,,,,,30.31996260000051,,,,,,,,,30.30509750000056,30.42007999999987,31.22097079999912,31.20380490000025,31.20471729999917,31.22097079999912,31.22097079999912,31.22097079999912,,34.00409839999884,right,1.0,2.772401299998819,,34.004268599999705,34.01943869999923,34.503684400000566,34.51960440000039,,,,,,,,,,,,,,,,,,,,,,,,,,,,,sub-041,1,random_dot,59.93798815734868,
left,left,3.0,1.0,1.0,right,0.0,2.854306700000961,,,,,,1.0,1.0,3.0,0.0,,,,,,,,,34.51960440000039,,,,,,,,,34.50447879999956,34.619488599999386,35.42042129999936,35.40340929999911,35.40433099999973,35.42042129999936,35.42042129999936,35.42042129999936,,38.28593120000005,right,0.0,2.854306700000961,,38.30162569999993,38.30638279999948,38.8020147999996,,,,,,,,,,,,,,,,,,,,,,,,,,,,,,sub-041,1,random_dot,59.93798815734868,
left,left,4.0,0.0,2.0,left,1.0,1.1101886999986164,,,,,,2.0,0.0,4.0,0.0,,,,,,,,,38.81795509999938,,,,,,,,,38.80292809999992,40.00152229999912,40.80162199999904,40.78507809999974,40.7860254999996,40.80162199999904,40.80162199999904,40.80162199999904,,41.91841199999908,left,1.0,1.1101886999986164,,41.923721600000135,41.934185300000536,42.418082700000014,42.43430459999945,,,,,,,,,,,,,,,,,,,,,,,,,,,,,sub-041,1,random_dot,59.93798815734868,
right,right,5.0,1.0,2.0,left,0.0,2.480987400000231,,,,,,2.0,1.0,5.0,1.0,,,,,,,,,42.43430459999945,,,,,,,,,42.41884240000036,42.51768489999995,43.31810099999893,43.30169620000015,43.30273639999905,43.31810099999893,43.31810099999893,43.31810099999893,,45.80189479999899,left,0.0,2.480987400000231,,45.80925629999911,45.81721859999925,46.30160309999883,46.31757499999912,,,,,,,,,,,,,,,,,,,,,,,,,,,,,sub-041,1,random_dot,59.93798815734868,
left,left,6.0,0.0,3.0,right,0.0,1.935098400001152,,,,,,3.0,0.0,6.0,0.0,,,,,,,,,46.31757499999912,,,,,,,,,46.30233729999964,46.41770419999921,47.21843529999933,47.20159760000024,47.20250049999959,47.21843529999933,47.21843529999933,47.21843529999933,,49.169666300000245,right,0.0,1.935098400001152,,49.169968099999096,49.18444789999921,49.66854269999931,49.684331099999326,,,,,,,,,,,,,,,,,,,,,,,,,,,,,sub-041,1,random_dot,59.93798815734868,
right,right,7.0,1.0,3.0,left,0.0,2.1166197000002285,,,,,,3.0,1.0,7.0,1.0,,,,,,,,,49.684331099999326,,,,,,,,,49.66955459999917,50.48417460000019,51.2851200999994,51.26821699999891,51.26910870000029,51.2851200999994,51.2851200999994,51.2851200999994,,53.418063600000096,left,0.0,2.1166197000002285,,53.41821689999961,53.43318550000004,53.917758600000525,53.93380419999994,,,,,,,,,,,,,,,,,,,,,,,,,,,,,sub-041,1,random_dot,59.93798815734868,
right,right,8.0,0.0,4.0,right,1.0,2.23446690000128,,,,,,4.0,0.0,8.0,1.0,,,,,,,,,53.93380419999994,,,,,,,,,53.918506300000445,54.28338669999903,55.08372260000033,55.066301900000326,55.06659059999947,55.08372260000033,55.08372260000033,55.08372260000033,,57.33470630000011,right,1.0,2.23446690000128,,57.34253799999897,57.34959159999926,57.83274729999903,57.84903420000046,,,,,,,,,,,,,,,,,,,,,,,,,,,,,sub-041,1,random_dot,59.93798815734868,
left,left,9.0,1.0,4.0,right,0.0,1.4121782000001986,,,,,,4.0,1.0,9.0,0.0,,,,,,,,,57.84903420000046,,,,,,,,,57.83301930000016,59.04963850000058,59.85058889999891,59.8335289000006,59.83432679999896,59.85058889999891,59.85058889999891,59.85058889999891,,61.26756709999973,right,0.0,1.4121782000001986,,61.27590919999966,61.28245219999917,61.7668948999999,61.78282649999892,,,,,,,,,,,,,,,,,,,,,,,,,,,,,sub-041,1,random_dot,59.93798815734868,
right,right,10.0,0.0,5.0,right,1.0,1.7017176000008476,,,,,,5.0,0.0,10.0,1.0,,,,,,,,,61.78282649999892,,,,,,,,,61.767633399998886,62.582726900000125,63.3835366000003,63.36666069999956,63.36754579999979,63.3835366000003,63.3835366000003,63.3835366000003,,65.10039979999965,right,1.0,1.7017176000008476,,65.10582849999992,65.11537589999898,65.5998682999998,65.61530420000054,,,,,,,,,,,,,,,,,,,,,,,,,,,,,sub-041,1,random_dot,59.93798815734868,
left,left,11.0,1.0,5.0,left,1.0,0.9973569000012504,,,,,,5.0,1.0,11.0,0.0,,,,,,,,,65.61530420000054,,,,,,,,,65.60089789999984,65.96559119999984,66.76642460000039,66.74971189999997,66.75072829999954,66.76642460000039,66.76642460000039,66.76642460000039,,67.76736170000004,left,1.0,0.9973569000012504,,67.76780289999988,67.78213169999981,68.26605539999946,68.28205979999984,,,,,,,,,,,,,,,,,,,,,,,,,,,,,sub-041,1,random_dot,59.93798815734868,
left,left,12.0,0.0,6.0,right,0.0,1.808821900000112,,,,,,6.0,0.0,12.0,0.0,,,,,,,,,68.28205979999984,,,,,,,,,68.26680039999883,69.08188179999888,69.88278270000046,69.86582330000056,69.86677059999965,69.88278270000046,69.88278270000046,69.88278270000046,,71.69983019999927,right,0.0,1.808821900000112,,71.70542980000027,71.71447479999915,72.19871289999901,72.21466979999968,,,,,,,,,,,,,,,,,,,,,,,,,,,,,sub-041,1,random_dot,59.93798815734868,
right,right,13.0,1.0,6.0,left,0.0,0.799329299999954,,,,,,6.0,1.0,13.0,1.0,,,,,,,,,72.21466979999968,,,,,,,,,72.19935479999913,72.56478059999972,73.36560449999888,73.3485426999996,73.34945049999988,73.36560449999888,73.36560449999888,73.36560449999888,,74.18125589999909,left,0.0,0.799329299999954,,74.18132849999893,74.19682459999967,74.68152410000039,,,,,,,,,,,,,,,,,,,,,,,,,,,,,,sub-041,1,random_dot,59.93798815734868,
right,right,14.0,0.0,7.0,right,1.0,1.3168702999992092,,,,,,7.0,0.0,14.0,1.0,,,,,,,,,74.6978493000006,,,,,,,,,74.6823715999999,74.78118080000058,75.58194589999948,75.56507659999988,75.56599900000037,75.58194589999948,75.58194589999948,75.58194589999948,,76.91461159999926,right,1.0,1.3168702999992092,,76.9216381999995,76.92951790000006,77.41377789999933,77.42974080000022,,,,,,,,,,,,,,,,,,,,,,,,,,,,,sub-041,1,random_dot,59.93798815734868,
left,left,15.0,1.0,7.0,left,1.0,2.5492923999991035,,,,,,7.0,1.0,15.0,0.0,,,,,,,,,77.42974080000022,,,,,,,,,77.41455039999892,77.52980410000055,78.33023180000055,78.31376549999914,78.31477669999913,78.33023180000055,78.33023180000055,78.33023180000055,,80.88118380000014,left,1.0,2.5492923999991035,,80.8814610999998,80.89602689999992,81.38031140000021,81.39630360000046,,,,,,,,,,,,,,,,,,,,,,,,,,,,,sub-041,1,random_dot,59.93798815734868,
left,left,16.0,0.0,8.0,right,0.0,1.8012586000004376,,,,,,8.0,0.0,16.0,0.0,,,,,,,,,81.39630360000046,,,,,,,,,81.38110880000022,82.5964125999999,83.39723009999943,83.3804500999995,83.38137529999949,83.39723009999943,83.39723009999943,83.39723009999943,,85.2154673999994,right,0.0,1.8012586000004376,,85.2255198999992,85.23122700000022,85.7299194999996,,,,,,,,,,,,,,,,,,,,,,,,,,,,,,sub-041,1,random_dot,59.93798815734868,
right,right,17.0,1.0,8.0,left,0.0,1.742344599999342,,,,,,8.0,1.0,17.0,1.0,,,,,,,,,85.74631369999952,,,,,,,,,85.7305923999993,86.07980150000003,86.88061740000012,86.86362679999911,86.86463650000042,86.88061740000012,86.88061740000012,86.88061740000012,,88.62952099999893,left,0.0,1.742344599999342,,88.62958439999966,88.64504970000053,89.12849629999982,89.14492430000064,,,,,,,,,,,,,,,,,,,,,,,,,,,,,sub-041,1,random_dot,59.93798815734868,
right,right,18.0,0.0,9.0,right,1.0,1.4865820000013628,,,,,,9.0,0.0,18.0,1.0,,,,,,,,,89.14492430000064,,,,,,,,,89.12870029999976,89.4791838000001,90.27915050000048,90.26169429999936,90.2619295000004,90.27915050000048,90.27915050000048,90.27915050000048,,91.78029549999884,right,1.0,1.4865820000013628,,91.78788770000028,91.7951675000004,92.27936369999952,92.29543509999894,,,,,,,,,,,,,,,,,,,,,,,,,,,,,sub-041,1,random_dot,59.93798815734868,
left,left,19.0,1.0,9.0,left,1.0,2.0426308999994944,,,,,,9.0,1.0,19.0,0.0,,,,,,,,,92.29543509999894,,,,,,,,,92.28002779999952,93.4953306999996,94.29612389999966,94.27907479999884,94.2799269999996,94.29612389999966,94.29612389999966,94.29612389999966,,96.3467970999991,left,1.0,2.0426308999994944,,96.3471255000004,96.3615221,96.8457385999991,96.8615805999998,,,,,,,,,,,,,,,,,,,,,,,,,,,,,sub-041,1,random_dot,59.93798815734868,
,,,,,,,,,,,,,,,,,,,,,,,,,,,,,,,,,,,,,,,,,,,,,,,,,,,,96.84604279999984,96.8615805999998,96.8615805999998,98.27889390000018,space,1.413416600000346,,,,,,,,,,,,,,,,,,,,,,,sub-041,1,random_dot,59.93798815734868,
,,,,,,,,,,,,,,,,,,,,,,,,,,,,,,,,,,,,,,,,,,,,,,,,,,,,,,,,,,,98.27909,98.29493039999944,98.29493039999944,103.31059230000028,space,5.004180599999017,,,,,,,,,,,,,,,,sub-041,1,random_dot,59.93798815734868,
right,right,0.0,0.0,0.0,right,1.0,0.9429653999995936,,speed,space,2.293446900001072,,,,,,0.0,0.0,0.0,1.0,0.0,0.0,0.0,1.0,105.64921820000018,,,,,,,,,105.64456529999916,106.44386769999984,107.2445542000005,107.22742879999896,107.22835680000026,107.2445542000005,107.2445542000005,107.2445542000005,,108.193903899999,,,,,,,,,,,,,,,,,,,,,,,103.32617140000002,103.32975380000062,103.32975380000062,105.62812900000064,space,2.293446900001072,,right,1.0,0.9429653999995936,,,,,sub-041,1,random_dot,59.93798815734868,
left,left,1.0,1.0,0.0,left,1.0,1.1243178000004264,,speed,space,2.293446900001072,,,,,,0.0,0.0,0.0,1.0,0.0,1.0,1.0,0.0,108.2089362000006,,,,,,,,,108.19501089999903,109.00903780000044,109.80938570000036,109.79273490000014,109.79367289999936,109.80938570000036,109.80938570000036,109.80938570000036,,110.94375740000032,,,,,,,,,,,,,,,,,,,,,,,,,,,,,,left,1.0,1.1243178000004264,,,,,sub-041,1,random_dot,59.93798815734868,
left,left,2.0,0.0,1.0,left,1.0,1.8262216000002809,,speed,space,2.293446900001072,,,,,,0.0,0.0,0.0,1.0,1.0,0.0,2.0,0.0,110.95867050000015,,,,,,,,,110.94482579999932,111.30894369999989,112.10913699999946,112.09337349999988,112.0942591999992,112.10913699999946,112.10913699999946,112.10913699999946,,113.94232849999936,,,,,,,,,,,,,,,,,,,,,,,,,,,,,,left,1.0,1.8262216000002809,,,,,sub-041,1,random_dot,59.93798815734868,
right,right,3.0,1.0,1.0,right,1.0,1.4670280999998797,,speed,space,2.293446900001072,,,,,,0.0,0.0,0.0,1.0,1.0,1.0,3.0,1.0,113.95798130000004,,,,,,,,,113.94252909999886,114.2914056999998,115.09291549999944,115.07625939999888,115.07714920000036,115.09291549999944,115.09291549999944,115.09291549999944,,116.57598569999936,,,,,,,,,,,,,,,,,,,,,,,,,,,,,,right,1.0,1.4670280999998797,,,,,sub-041,1,random_dot,59.93798815734868,
left,left,4.0,0.0,2.0,left,1.0,1.0929739000002885,,speed,space,2.293446900001072,,,,,,0.0,0.0,0.0,1.0,2.0,0.0,4.0,0.0,116.59130729999924,,,,,,,,,116.57701499999894,116.9411739999996,117.74107279999951,117.7241197000003,117.7244585999997,117.74107279999951,117.74107279999951,117.74107279999951,,118.84284339999977,,,,,,,,,,,,,,,,,,,,,,,,,,,,,,left,1.0,1.0929739000002885,,,,,sub-041,1,random_dot,59.93798815734868,
right,right,5.0,1.0,2.0,right,1.0,2.2479763999999705,,speed,space,2.293446900001072,,,,,,0.0,0.0,0.0,1.0,2.0,1.0,5.0,1.0,118.85776110000006,,,,,,,,,118.84382879999976,119.65789210000004,120.45777429999907,120.44076829999904,120.44115369999965,120.45777429999907,120.45777429999907,120.45777429999907,,122.70941139999924,,,,,,,,,,,,,,,,,,,,,,,,,,,,,,right,1.0,2.2479763999999705,,,,,sub-041,1,random_dot,59.93798815734868,
left,left,6.0,0.0,3.0,left,1.0,4.613304099999368,,speed,space,2.293446900001072,,,,,,0.0,0.0,0.0,1.0,3.0,0.0,6.0,0.0,122.72439060000032,,,,,,,,,122.71042320000016,123.52384489999896,124.3252107999997,124.30782709999949,124.30806699999994,124.3252107999997,124.3252107999997,124.3252107999997,,128.94281690000025,,,,,,,,,,,,,,,,,,,,,,,,,,,,,,left,1.0,4.613304099999368,,,,,sub-041,1,random_dot,59.93798815734868,
right,right,7.0,1.0,3.0,right,1.0,1.5756982000002608,,speed,space,2.293446900001072,,,,,,0.0,0.0,0.0,1.0,3.0,1.0,7.0,1.0,128.95752589999938,,,,,,,,,128.94396120000056,129.05733990000044,129.8583505000006,129.84130499999992,129.84228690000054,129.8583505000006,129.8583505000006,129.8583505000006,,131.44220010000026,,,,,,,,,,,,,,,,,,,,,,,,,,,,,,right,1.0,1.5756982000002608,,,,,sub-041,1,random_dot,59.93798815734868,
left,left,8.0,0.0,4.0,left,1.0,1.3125254000005953,,speed,space,2.293446900001072,,,,,,0.0,0.0,0.0,1.0,4.0,0.0,8.0,0.0,131.45721599999888,,,,,,,,,131.44328049999967,131.80718609999894,132.62319779999962,132.60651639999924,132.6074912999993,132.62319779999962,132.62319779999962,132.62319779999962,,133.94037240000034,,,,,,,,,,,,,,,,,,,,,,,,,,,,,,left,1.0,1.3125254000005953,,,,,sub-041,1,random_dot,59.93798815734868,
right,right,9.0,1.0,4.0,left,0.0,1.3659395999984554,,speed,space,2.293446900001072,,,,,,0.0,0.0,0.0,1.0,4.0,1.0,9.0,1.0,133.95569439999963,,,,,,,,,133.94133669999974,134.05595129999892,134.8562062000001,134.83993720000035,134.8411488999991,134.8562062000001,134.8562062000001,134.8562062000001,,136.2237084999997,,,,,,,,,,,,,,,,,,,,,,,,,,,,,,left,0.0,1.3659395999984554,,,,,sub-041,1,random_dot,59.93798815734868,
right,right,10.0,0.0,5.0,right,1.0,2.6796088999999483,,speed,space,2.293446900001072,,,,,,0.0,0.0,0.0,1.0,5.0,0.0,10.0,1.0,136.2391263999998,,,,,,,,,136.22458939999888,136.33911810000063,137.1397434999999,137.1232476999994,137.12416689999918,137.1397434999999,137.1397434999999,137.1397434999999,,139.8241371999993,,,,,,,,,,,,,,,,,,,,,,,,,,,,,,right,1.0,2.6796088999999483,,,,,sub-041,1,random_dot,59.93798815734868,
left,left,11.0,1.0,5.0,left,1.0,2.118335900000602,,speed,space,2.293446900001072,,,,,,0.0,0.0,0.0,1.0,5.0,1.0,11.0,0.0,139.83907089999957,,,,,,,,,139.8251540000001,139.9395814999989,140.7554522999999,140.7389893999989,140.73986849999892,140.7554522999999,140.7554522999999,140.7554522999999,,142.8896463000001,,,,,,,,,,,,,,,,,,,,,,,,,,,,,,left,1.0,2.118335900000602,,,,,sub-041,1,random_dot,59.93798815734868,
right,right,12.0,0.0,6.0,right,1.0,2.036579499999789,,speed,space,2.293446900001072,,,,,,0.0,0.0,0.0,1.0,6.0,0.0,12.0,1.0,142.90461669999968,,,,,,,,,142.89058599999953,143.00480140000036,143.80533149999974,143.78884889999972,143.7897479000003,143.80533149999974,143.80533149999974,143.80533149999974,,145.85532179999973,,,,,,,,,,,,,,,,,,,,,,,,,,,,,,right,1.0,2.036579499999789,,,,,sub-041,1,random_dot,59.93798815734868,
left,left,13.0,1.0,6.0,left,1.0,2.2331801999989693,,speed,space,2.293446900001072,,,,,,0.0,0.0,0.0,1.0,6.0,1.0,13.0,0.0,145.87079730000005,,,,,,,,,145.85632219999934,147.07063410000046,147.87140329999966,147.85492059999888,147.85589140000047,147.87140329999966,147.87140329999966,147.87140329999966,,150.10554469999988,,,,,,,,,,,,,,,,,,,,,,,,,,,,,,left,1.0,2.2331801999989693,,,,,sub-041,1,random_dot,59.93798815734868,
right,right,14.0,0.0,7.0,right,1.0,0.977687500000684,,speed,space,2.293446900001072,,,,,,0.0,0.0,0.0,1.0,7.0,0.0,14.0,1.0,150.1205587000004,,,,,,,,,150.10637309999947,151.32069670000055,152.1216330999996,152.10509830000046,152.105974099999,152.1216330999996,152.1216330999996,152.1216330999996,,153.10633359999883,,,,,,,,,,,,,,,,,,,,,,,,,,,,,,right,1.0,0.977687500000684,,,,,sub-041,1,random_dot,59.93798815734868,
left,left,15.0,1.0,7.0,left,1.0,1.4954389999984414,,speed,space,2.293446900001072,,,,,,0.0,0.0,0.0,1.0,7.0,1.0,15.0,0.0,153.1211261999997,,,,,,,,,153.10739119999926,153.92009030000008,154.7209088999989,154.70351879999907,154.7038088999998,154.7209088999989,154.7209088999989,154.7209088999989,,156.2221398999991,,,,,,,,,,,,,,,,,,,,,,,,,,,,,,left,1.0,1.4954389999984414,,,,,sub-041,1,random_dot,59.93798815734868,
right,right,16.0,0.0,8.0,right,1.0,1.9662567999985183,,speed,space,2.293446900001072,,,,,,0.0,0.0,0.0,1.0,8.0,0.0,16.0,1.0,156.23692579999988,,,,,,,,,156.22308329999942,156.33663049999996,157.13724860000002,157.1197759000006,157.12002679999932,157.13724860000002,157.13724860000002,157.13724860000002,,159.10553439999967,,,,,,,,,,,,,,,,,,,,,,,,,,,,,,right,1.0,1.9662567999985183,,,,,sub-041,1,random_dot,59.93798815734868,
left,left,17.0,1.0,8.0,left,1.0,2.620148500000141,,speed,space,2.293446900001072,,,,,,0.0,0.0,0.0,1.0,8.0,1.0,17.0,0.0,159.12008409999908,,,,,,,,,159.10654930000055,159.92027939999934,160.72097530000065,160.7039248000001,160.70474749999994,160.72097530000065,160.72097530000065,160.72097530000065,,163.35483810000005,,,,,,,,,,,,,,,,,,,,,,,,,,,,,,left,1.0,2.620148500000141,,,,,sub-041,1,random_dot,59.93798815734868,
right,right,18.0,0.0,9.0,right,1.0,1.623445499999434,,speed,space,2.293446900001072,,,,,,0.0,0.0,0.0,1.0,9.0,0.0,18.0,1.0,163.36969619999945,,,,,,,,,163.3559048999996,164.1697108999997,164.97032620000027,164.95385150000038,164.9548775000003,164.97032620000027,164.97032620000027,164.97032620000027,,166.6037207999998,,,,,,,,,,,,,,,,,,,,,,,,,,,,,,right,1.0,1.623445499999434,,,,,sub-041,1,random_dot,59.93798815734868,
left,left,19.0,1.0,9.0,left,1.0,2.8411529999993945,,speed,space,2.293446900001072,,,,,,0.0,0.0,0.0,1.0,9.0,1.0,19.0,0.0,166.61893450000025,,,,,,,,,166.60439079999924,166.9689514999991,167.76998079999976,167.75265430000036,167.7534517999993,167.76998079999976,167.76998079999976,167.76998079999976,,170.62066969999978,,,,,,,,,,,,,,,,,,,,,,,,,,,,,,left,1.0,2.8411529999993945,,,,,sub-041,1,random_dot,59.93798815734868,
right,right,20.0,0.0,10.0,right,1.0,1.1791180000000168,,speed,space,2.293446900001072,,,,,,0.0,0.0,0.0,1.0,10.0,0.0,20.0,1.0,170.63529220000055,,,,,,,,,170.6217020999993,171.43546649999917,172.2514269000003,172.2349558000005,172.2358277000003,172.2514269000003,172.2514269000003,172.2514269000003,,173.43535449999945,,,,,,,,,,,,,,,,,,,,,,,,,,,,,,right,1.0,1.1791180000000168,,,,,sub-041,1,random_dot,59.93798815734868,
left,left,21.0,1.0,10.0,left,1.0,4.806942600000184,,speed,space,2.293446900001072,,,,,,0.0,0.0,0.0,1.0,10.0,1.0,21.0,0.0,173.45039019999967,,,,,,,,,173.43637709999894,174.25086550000017,175.051351099999,175.03478910000013,175.03576969999995,175.051351099999,175.051351099999,175.051351099999,,179.86806869999964,,,,,,,,,,,,,,,,,,,,,,,,,,,,,,left,1.0,4.806942600000184,,,,,sub-041,1,random_dot,59.93798815734868,
right,right,22.0,0.0,11.0,right,1.0,1.753576899998734,,speed,space,2.293446900001072,,,,,,0.0,0.0,0.0,1.0,11.0,0.0,22.0,1.0,179.88300179999896,,,,,,,,,179.86908930000027,179.98294010000063,180.7836516999996,180.76712509999925,180.768150599999,180.7836516999996,180.7836516999996,180.7836516999996,,182.5497634000003,,,,,,,,,,,,,,,,,,,,,,,,,,,,,,right,1.0,1.753576899998734,,,,,sub-041,1,random_dot,59.93798815734868,
left,left,23.0,1.0,11.0,left,1.0,4.380883300000278,,speed,space,2.293446900001072,,,,,,0.0,0.0,0.0,1.0,11.0,1.0,23.0,0.0,182.5653930999997,,,,,,,,,182.5501654,182.64887660000025,183.4502114999996,183.43373839999916,183.43471490000047,183.4502114999996,183.4502114999996,183.4502114999996,,187.83351500000023,,,,,,,,,,,,,,,,,,,,,,,,,,,,,,left,1.0,4.380883300000278,,,,,sub-041,1,random_dot,59.93798815734868,
right,right,24.0,0.0,12.0,right,1.0,5.6914791999988665,,speed,space,2.293446900001072,,,,,,0.0,0.0,0.0,1.0,12.0,0.0,24.0,1.0,187.84882560000003,,,,,,,,,187.8344921999997,188.6488193999994,189.4491908,189.43278479999933,189.43376369999896,189.4491908,189.4491908,189.4491908,194.4324519999991,195.1501750999996,,,,,,,,,,,,,,,,,,,,,,,,,,,,,,right,1.0,5.6914791999988665,,,,,sub-041,1,random_dot,59.93798815734868,
left,left,25.0,1.0,12.0,left,1.0,1.00418929999978,,speed,space,2.293446900001072,,,,,,0.0,0.0,0.0,1.0,12.0,1.0,25.0,0.0,195.16500619999897,,,,,,,,,195.1510847999998,195.51550719999975,196.3316603000003,196.31516460000057,196.3160312,196.3316603000003,196.3316603000003,196.3316603000003,,197.34915009999892,,,,,,,,,,,,,,,,,,,,,,,,,,,,,,left,1.0,1.00418929999978,,,,,sub-041,1,random_dot,59.93798815734868,
right,right,26.0,0.0,13.0,left,0.0,2.5550363000002108,,speed,space,2.293446900001072,,,,,,0.0,0.0,0.0,1.0,13.0,0.0,26.0,1.0,197.3642572999997,,,,,,,,,197.3501849000004,197.4643383999992,198.2645768999992,198.24834629999896,198.2492573999989,198.2645768999992,198.2645768999992,198.2645768999992,,200.83257310000045,,,,,,,,,,,,,,,,,,,,,,,,,,,,,,left,0.0,2.5550363000002108,,,,,sub-041,1,random_dot,59.93798815734868,
left,left,27.0,1.0,13.0,left,1.0,2.4910371999994823,,speed,space,2.293446900001072,,,,,,0.0,0.0,0.0,1.0,13.0,1.0,27.0,0.0,200.84773589999892,,,,,,,,,200.83361259999947,200.9472996000004,201.74821530000008,201.73163879999996,201.73252449999927,201.74821530000008,201.74821530000008,201.74821530000008,,204.2480842999994,,,,,,,,,,,,,,,,,,,,,,,,,,,,,,left,1.0,2.4910371999994823,,,,,sub-041,1,random_dot,59.93798815734868,
right,right,28.0,0.0,14.0,right,1.0,4.107821300000069,,speed,space,2.293446900001072,,,,,,0.0,0.0,0.0,1.0,14.0,0.0,28.0,1.0,204.26337179999973,,,,,,,,,204.24894739999945,205.06339429999932,205.86388350000016,205.84753660000024,205.8485669999991,205.86388350000016,205.86388350000016,205.86388350000016,,209.9809528999995,,,,,,,,,,,,,,,,,,,,,,,,,,,,,,right,1.0,4.107821300000069,,,,,sub-041,1,random_dot,59.93798815734868,
left,left,29.0,1.0,14.0,left,1.0,1.5762399999985064,,speed,space,2.293446900001072,,,,,,0.0,0.0,0.0,1.0,14.0,1.0,29.0,0.0,209.9962990000004,,,,,,,,,209.98156819999892,210.79680860000008,211.59759040000063,211.5808216000005,211.5817146999998,211.59759040000063,211.59759040000063,211.59759040000063,,213.18049509999943,,,,,,,,,,,,,,,,,,,,,,,,,,,,,,left,1.0,1.5762399999985064,,,,,sub-041,1,random_dot,59.93798815734868,
left,left,30.0,0.0,15.0,left,1.0,1.1216229000001476,,speed,space,2.293446900001072,,,,,,0.0,0.0,0.0,1.0,15.0,0.0,30.0,0.0,213.19533670000052,,,,,,,,,213.1814883999996,213.99573240000063,214.79615999999987,214.77972690000024,214.78064280000035,214.79615999999987,214.79615999999987,214.79615999999987,,215.9293276999997,,,,,,,,,,,,,,,,,,,,,,,,,,,,,,left,1.0,1.1216229000001476,,,,,sub-041,1,random_dot,59.93798815734868,
right,right,31.0,1.0,15.0,right,1.0,1.5356783999995969,,speed,space,2.293446900001072,,,,,,0.0,0.0,0.0,1.0,15.0,1.0,31.0,1.0,215.9453723000006,,,,,,,,,215.929817799999,216.2790578999993,217.07950209999944,217.06295839999984,217.06394439999892,217.07950209999944,217.07950209999944,217.07950209999944,,218.63080769999945,,,,,,,,,,,,,,,,,,,,,,,,,,,,,,right,1.0,1.5356783999995969,,,,,sub-041,1,random_dot,59.93798815734868,
right,right,32.0,0.0,16.0,right,1.0,1.5352791999994224,,speed,space,2.293446900001072,,,,,,0.0,0.0,0.0,1.0,16.0,0.0,32.0,1.0,218.64549309999893,,,,,,,,,218.63183969999957,219.44582069999888,220.2615225999998,220.24502089999987,220.24601789999903,220.2615225999998,220.2615225999998,220.2615225999998,,221.8125473,,,,,,,,,,,,,,,,,,,,,,,,,,,,,,right,1.0,1.5352791999994224,,,,,sub-041,1,random_dot,59.93798815734868,
left,left,33.0,1.0,16.0,left,1.0,2.189250900000843,,speed,space,2.293446900001072,,,,,,0.0,0.0,0.0,1.0,16.0,1.0,33.0,0.0,221.8277233999997,,,,,,,,,221.8135199999997,222.17798629999925,222.9781695999991,222.96192209999936,222.9629927000005,222.9781695999991,222.9781695999991,222.9781695999991,,225.17933339999945,,,,,,,,,,,,,,,,,,,,,,,,,,,,,,left,1.0,2.189250900000843,,,,,sub-041,1,random_dot,59.93798815734868,
right,right,34.0,0.0,17.0,right,1.0,1.146034299999883,,speed,space,2.293446900001072,,,,,,0.0,0.0,0.0,1.0,17.0,0.0,34.0,1.0,225.1942022000003,,,,,,,,,225.1803562000005,226.39450000000036,227.19541079999908,227.17864759999972,227.17962239999903,227.19541079999908,227.19541079999908,227.19541079999908,,228.34643359999973,,,,,,,,,,,,,,,,,,,,,,,,,,,,,,right,1.0,1.146034299999883,,,,,sub-041,1,random_dot,59.93798815734868,
left,left,35.0,1.0,17.0,left,1.0,1.8849900999994131,,speed,space,2.293446900001072,,,,,,0.0,0.0,0.0,1.0,17.0,1.0,35.0,0.0,228.36147039999923,,,,,,,,,228.34744630000023,229.16139049999947,229.9617051999994,229.9444786999993,229.94494789999956,229.9617051999994,229.9617051999994,229.9617051999994,,231.8613803999997,,,,,,,,,,,,,,,,,,,,,,,,,,,,,,left,1.0,1.8849900999994131,,,,,sub-041,1,random_dot,59.93798815734868,
left,left,36.0,0.0,18.0,left,1.0,0.8629261000005499,,speed,space,2.293446900001072,,,,,,0.0,0.0,0.0,1.0,18.0,0.0,36.0,0.0,231.8765270999993,,,,,,,,,231.8624091999991,231.97617059999905,232.77701109999907,232.76056099999917,232.7615664999994,232.77701109999907,232.77701109999907,232.77701109999907,,233.64398869999968,,,,,,,,,,,,,,,,,,,,,,,,,,,,,,left,1.0,0.8629261000005499,,,,,sub-041,1,random_dot,59.93798815734868,
right,right,37.0,1.0,18.0,right,1.0,1.049584499998673,,speed,space,2.293446900001072,,,,,,0.0,0.0,0.0,1.0,18.0,1.0,37.0,1.0,233.65958839999985,,,,,,,,,233.64484289999928,234.85884369999985,235.6591023000001,235.64239780000025,235.64261909999917,235.6591023000001,235.6591023000001,235.6591023000001,,236.7092202999993,,,,,,,,,,,,,,,,,,,,,,,,,,,,,,right,1.0,1.049584499998673,,,,,sub-041,1,random_dot,59.93798815734868,
right,right,38.0,0.0,19.0,right,1.0,1.6533653999995297,,speed,space,2.293446900001072,,,,,,0.0,0.0,0.0,1.0,19.0,0.0,38.0,1.0,236.72513609999987,,,,,,,,,236.70952299999956,237.05838989999936,237.85911859999945,237.84543789999952,237.8467462999997,237.85911859999945,237.85911859999945,237.85911859999945,,239.5254850000001,,,,,,,,,,,,,,,,,,,,,,,,,,,,,,right,1.0,1.6533653999995297,,,,,sub-041,1,random_dot,59.93798815734868,
left,left,39.0,1.0,19.0,left,1.0,1.1488607999999658,,speed,space,2.293446900001072,,,,,,0.0,0.0,0.0,1.0,19.0,1.0,39.0,0.0,239.5414712999991,,,,,,,,,239.52571279999935,239.87471410000035,240.67522649999955,240.65845900000025,240.6589451,240.67522649999955,240.67522649999955,240.67522649999955,,241.8256003000006,,,,,,,,,,,,,,,,,,,,,,,,,,,,,,left,1.0,1.1488607999999658,,,,,sub-041,1,random_dot,59.93798815734868,
left,left,40.0,0.0,20.0,left,1.0,1.273912200000268,,speed,space,2.293446900001072,,,,,,0.0,0.0,0.0,1.0,20.0,0.0,40.0,0.0,241.84116129999893,,,,,,,,,241.82596919999924,242.1911526999993,242.9917064000001,242.9746051000002,242.9748557999992,242.9917064000001,242.9917064000001,242.9917064000001,,244.27531090000048,,,,,,,,,,,,,,,,,,,,,,,,,,,,,,left,1.0,1.273912200000268,,,,,sub-041,1,random_dot,59.93798815734868,
right,right,41.0,1.0,20.0,right,1.0,1.888176000000385,,speed,space,2.293446900001072,,,,,,0.0,0.0,0.0,1.0,20.0,1.0,41.0,1.0,244.2909672999995,,,,,,,,,244.27572169999985,245.09083239999927,245.89129719999983,245.8741623000005,245.87442650000048,245.89129719999983,245.89129719999983,245.89129719999983,,247.79133469999945,,,,,,,,,,,,,,,,,,,,,,,,,,,,,,right,1.0,1.888176000000385,,,,,sub-041,1,random_dot,59.93798815734868,
right,right,42.0,0.0,21.0,right,1.0,1.816514400001324,,speed,space,2.293446900001072,,,,,,0.0,0.0,0.0,1.0,21.0,0.0,42.0,1.0,247.80710829999956,,,,,,,,,247.79169349999935,249.00691050000023,249.80745190000016,249.79030489999968,249.7906583999993,249.80745190000016,249.80745190000016,249.80745190000016,,251.62453939999975,,,,,,,,,,,,,,,,,,,,,,,,,,,,,,right,1.0,1.816514400001324,,,,,sub-041,1,random_dot,59.93798815734868,
left,left,43.0,1.0,21.0,left,1.0,2.310888399999385,,speed,space,2.293446900001072,,,,,,0.0,0.0,0.0,1.0,21.0,1.0,43.0,0.0,251.64000870000015,,,,,,,,,251.6249652000006,252.4397871000001,253.24056369999929,253.22355789999887,253.22396470000055,253.24056369999929,253.24056369999929,253.24056369999929,,255.5572104999992,,,,,,,,,,,,,,,,,,,,,,,,,,,,,,left,1.0,2.310888399999385,,,,,sub-041,1,random_dot,59.93798815734868,
left,left,44.0,0.0,22.0,left,1.0,1.6116501999986212,,speed,space,2.293446900001072,,,,,,0.0,0.0,0.0,1.0,22.0,0.0,44.0,0.0,255.5727461000006,,,,,,,,,255.5576335000005,255.9062697999998,256.707133599999,256.6903739999998,256.6911380999991,256.707133599999,256.707133599999,256.707133599999,,258.3244491000005,,,,,,,,,,,,,,,,,,,,,,,,,,,,,,left,1.0,1.6116501999986212,,,,,sub-041,1,random_dot,59.93798815734868,
right,right,45.0,1.0,22.0,right,1.0,1.3912190000010014,,speed,space,2.293446900001072,,,,,,0.0,0.0,0.0,1.0,22.0,1.0,45.0,1.0,258.3398101999992,,,,,,,,,258.32535239999925,259.53974000000017,260.3399893000005,260.3234749000003,260.3243160999991,260.3399893000005,260.3399893000005,260.3399893000005,,261.7411093999999,,,,,,,,,,,,,,,,,,,,,,,,,,,,,,right,1.0,1.3912190000010014,,,,,sub-041,1,random_dot,59.93798815734868,
left,left,46.0,0.0,23.0,right,0.0,2.3244243999997707,,speed,space,2.293446900001072,,,,,,0.0,0.0,0.0,1.0,23.0,0.0,46.0,0.0,261.7562146,,,,,,,,,261.74211040000046,262.95623720000003,263.7566776999993,263.74034519999987,263.74153490000026,263.7566776999993,263.7566776999993,263.7566776999993,,266.09037480000006,,,,,,,,,,,,,,,,,,,,,,,,,,,,,,right,0.0,2.3244243999997707,,,,,sub-041,1,random_dot,59.93798815734868,
right,right,47.0,1.0,23.0,right,1.0,1.005095299999084,,speed,space,2.293446900001072,,,,,,0.0,0.0,0.0,1.0,23.0,1.0,47.0,1.0,266.1054712999994,,,,,,,,,266.09139419999883,267.3052917999994,268.10552180000013,268.0888543000001,268.08964489999926,268.10552180000013,268.10552180000013,268.10552180000013,,269.122856,,,,,,,,,,,,,,,,,,,,,,,,,,,,,,right,1.0,1.005095299999084,,,,,sub-041,1,random_dot,59.93798815734868,
left,left,48.0,0.0,24.0,left,1.0,1.581982899999275,,speed,space,2.293446900001072,,,,,,0.0,0.0,0.0,1.0,24.0,0.0,48.0,0.0,269.1384006999997,,,,,,,,,269.12347509999927,269.2220226999998,270.02159759999995,270.0055565999992,270.0064306999993,270.02159759999995,270.02159759999995,270.02159759999995,,271.60560799999985,,,,,,,,,,,,,,,,,,,,,,,,,,,,,,left,1.0,1.581982899999275,,,,,sub-041,1,random_dot,59.93798815734868,
right,right,49.0,1.0,24.0,right,1.0,1.692271299998538,,speed,space,2.293446900001072,,,,,,0.0,0.0,0.0,1.0,24.0,1.0,49.0,1.0,271.6210336000004,,,,,,,,,271.6059081000003,271.7210654999999,272.5221354000005,272.504782,272.5050479999991,272.5221354000005,272.5221354000005,272.5221354000005,,274.22285399999964,,,,,,,,,,,,,,,,,,,,,,,,,,,,,,right,1.0,1.692271299998538,,,,,sub-041,1,random_dot,59.93798815734868,
left,left,50.0,0.0,25.0,left,1.0,2.289330699999482,,speed,space,2.293446900001072,,,,,,0.0,0.0,0.0,1.0,25.0,0.0,50.0,0.0,274.2384287999994,,,,,,,,,274.2231981999994,275.43811370000003,276.2394260000001,276.22242539999934,276.2233149999993,276.2394260000001,276.2394260000001,276.2394260000001,,278.53827289999936,,,,,,,,,,,,,,,,,,,,,,,,,,,,,,left,1.0,2.289330699999482,,,,,sub-041,1,random_dot,59.93798815734868,
right,right,51.0,1.0,25.0,right,1.0,1.8765966999999364,,speed,space,2.293446900001072,,,,,,0.0,0.0,0.0,1.0,25.0,1.0,51.0,1.0,278.5539706,,,,,,,,,278.539261599999,279.3534829,280.1542362,280.1375499000005,280.13833519999935,280.1542362,280.1542362,280.1542362,,282.03826929999923,,,,,,,,,,,,,,,,,,,,,,,,,,,,,,right,1.0,1.8765966999999364,,,,,sub-041,1,random_dot,59.93798815734868,
right,right,52.0,0.0,26.0,right,1.0,0.9434677999997804,,speed,space,2.293446900001072,,,,,,0.0,0.0,0.0,1.0,26.0,0.0,52.0,1.0,282.0532366999996,,,,,,,,,282.0392988000003,283.2531316000004,284.0538856999992,284.03723379999974,284.0381591999994,284.0538856999992,284.0538856999992,284.0538856999992,,285.0044120999992,,,,,,,,,,,,,,,,,,,,,,,,,,,,,,right,1.0,0.9434677999997804,,,,,sub-041,1,random_dot,59.93798815734868,
left,left,53.0,1.0,26.0,left,1.0,1.1310391999995772,,speed,space,2.293446900001072,,,,,,0.0,0.0,0.0,1.0,26.0,1.0,53.0,0.0,285.0199472000004,,,,,,,,,285.0053021999993,285.11985879999884,285.92037750000054,285.90394670000023,285.9048399000003,285.92037750000054,285.92037750000054,285.92037750000054,,287.0543775999995,,,,,,,,,,,,,,,,,,,,,,,,,,,,,,left,1.0,1.1310391999995772,,,,,sub-041,1,random_dot,59.93798815734868,
right,right,54.0,0.0,27.0,right,1.0,1.334679600000527,,speed,space,2.293446900001072,,,,,,0.0,0.0,0.0,1.0,27.0,0.0,54.0,1.0,287.0696664999996,,,,,,,,,287.0552800000005,288.2698084000004,289.07047799999964,289.0538514999989,289.05460159999893,289.07047799999964,289.07047799999964,289.07047799999964,,290.42205769999964,,,,,,,,,,,,,,,,,,,,,,,,,,,,,,right,1.0,1.334679600000527,,,,,sub-041,1,random_dot,59.93798815734868,
left,left,55.0,1.0,27.0,right,0.0,4.641583900000114,,speed,space,2.293446900001072,,,,,,0.0,0.0,0.0,1.0,27.0,1.0,55.0,0.0,290.43642980000004,,,,,,,,,290.4229857999999,290.7870160000002,291.6037729,291.58651689999897,291.5868687000002,291.6037729,291.6037729,291.6037729,,296.2530465999989,,,,,,,,,,,,,,,,,,,,,,,,,,,,,,right,0.0,4.641583900000114,,,,,sub-041,1,random_dot,59.93798815734868,
right,right,56.0,0.0,28.0,right,1.0,1.8721755000005944,,speed,space,2.293446900001072,,,,,,0.0,0.0,0.0,1.0,28.0,0.0,56.0,1.0,296.2683907999999,,,,,,,,,296.2540274999992,296.3684646999991,297.1687929,297.1523739999993,297.1531503999995,297.1687929,297.1687929,297.1687929,,299.0528895999996,,,,,,,,,,,,,,,,,,,,,,,,,,,,,,right,1.0,1.8721755000005944,,,,,sub-041,1,random_dot,59.93798815734868,
left,left,57.0,1.0,28.0,left,1.0,1.7977352999987488,,speed,space,2.293446900001072,,,,,,0.0,0.0,0.0,1.0,28.0,1.0,57.0,0.0,299.0677343999996,,,,,,,,,299.05389359999936,299.4178470999996,300.21857959999943,300.20202339999923,300.20304399999986,300.21857959999943,300.21857959999943,300.21857959999943,,302.0192053999999,,,,,,,,,,,,,,,,,,,,,,,,,,,,,,left,1.0,1.7977352999987488,,,,,sub-041,1,random_dot,59.93798815734868,
right,right,58.0,0.0,29.0,right,1.0,1.120476799998869,,speed,space,2.293446900001072,,,,,,0.0,0.0,0.0,1.0,29.0,0.0,58.0,1.0,302.0343455000002,,,,,,,,,302.0202014999996,302.1345115000004,302.93503409999903,302.9181222999996,302.9188873000003,302.93503409999903,302.93503409999903,302.93503409999903,,304.0681683999992,,,,,,,,,,,,,,,,,,,,,,,,,,,,,,right,1.0,1.120476799998869,,,,,sub-041,1,random_dot,59.93798815734868,
left,left,59.0,1.0,29.0,left,1.0,1.6643010000007052,,speed,space,2.293446900001072,,,,,,0.0,0.0,0.0,1.0,29.0,1.0,59.0,0.0,304.0837460999992,,,,,,,,,304.06847430000016,304.4338399999997,305.23512909999954,305.21768840000004,305.2179620999996,305.23512909999954,305.23512909999954,305.23512909999954,,306.902795,,,,,,,,,,,,,,,,,,,,,,,,,,,,,,left,1.0,1.6643010000007052,,,,,sub-041,1,random_dot,59.93798815734868,
,,0.0,0.0,0.0,,,,,speed,space,2.293446900001072,,,,,,0.0,0.0,0.0,1.0,,,,,,,,,,,,,,,,,,,,,,,,,,,,,,,,,,,,,,,,,,,,,,,,,,,,,,,,,,,,sub-041,1,random_dot,59.93798815734868,
left,left,0.0,0.0,0.0,right,0.0,2.934870299999602,,accuracy,space,1.8909425999991072,,,,,,0.0,1.0,1.0,0.0,0.0,0.0,0.0,0.0,308.8545892000002,,,,,,,,,308.8507776000006,310.0506165999996,310.8518043000004,310.8349122999989,310.83585219999986,310.8518043000004,310.8518043000004,310.8518043000004,,313.80222329999924,,,,,,,,,,,,,,,,,,,,,,,306.9317632000002,306.9360123999995,306.9360123999995,308.83519089999936,space,1.8909425999991072,,right,0.0,2.934870299999602,,,,,sub-041,1,random_dot,59.93798815734868,
right,right,1.0,1.0,0.0,right,1.0,2.809590799999569,,accuracy,space,1.8909425999991072,,,,,,0.0,1.0,1.0,0.0,0.0,1.0,1.0,1.0,313.8168929000003,,,,,,,,,313.8031226999992,314.61723130000064,315.4177614,315.40086209999936,315.40170020000005,315.4177614,315.4177614,315.4177614,,318.2350845000001,,,,,,,,,,,,,,,,,,,,,,,,,,,,,,right,1.0,2.809590799999569,,,,,sub-041,1,random_dot,59.93798815734868,
left,left,2.0,0.0,1.0,left,1.0,2.00634010000067,,accuracy,space,1.8909425999991072,,,,,,0.0,1.0,1.0,0.0,1.0,0.0,2.0,0.0,318.2499355,,,,,,,,,318.2360680999991,318.34994480000023,319.15050189999965,319.1334071000001,319.13417389999995,319.15050189999965,319.15050189999965,319.15050189999965,,321.16817679999986,,,,,,,,,,,,,,,,,,,,,,,,,,,,,,left,1.0,2.00634010000067,,,,,sub-041,1,random_dot,59.93798815734868,
right,right,3.0,1.0,1.0,right,1.0,1.4860445000012987,,accuracy,space,1.8909425999991072,,,,,,0.0,1.0,1.0,0.0,1.0,1.0,3.0,1.0,321.18293040000026,,,,,,,,,321.16914499999984,321.28252369999973,322.08220699999947,322.0656044999996,322.066607499999,322.08220699999947,322.08220699999947,322.08220699999947,,323.5828189999993,,,,,,,,,,,,,,,,,,,,,,,,,,,,,,right,1.0,1.4860445000012987,,,,,sub-041,1,random_dot,59.93798815734868,
left,left,4.0,0.0,2.0,left,1.0,2.845215900000767,,accuracy,space,1.8909425999991072,,,,,,0.0,1.0,1.0,0.0,2.0,0.0,4.0,0.0,323.59814650000044,,,,,,,,,323.58377010000004,323.94785729999967,324.7487110999991,324.7322144999998,324.7331959000003,324.7487110999991,324.7487110999991,324.7487110999991,,327.5996909000005,,,,,,,,,,,,,,,,,,,,,,,,,,,,,,left,1.0,2.845215900000767,,,,,sub-041,1,random_dot,59.93798815734868,
right,right,5.0,1.0,2.0,right,1.0,1.238968899999236,,accuracy,space,1.8909425999991072,,,,,,0.0,1.0,1.0,0.0,2.0,1.0,5.0,1.0,327.61479879999933,,,,,,,,,327.6007601000001,327.7148237000001,328.5154423000004,328.4988952999993,328.4998006000005,328.5154423000004,328.5154423000004,328.5154423000004,,329.766655899999,,,,,,,,,,,,,,,,,,,,,,,,,,,,,,right,1.0,1.238968899999236,,,,,sub-041,1,random_dot,59.93798815734868,
left,left,6.0,0.0,3.0,left,1.0,4.770424399999683,,accuracy,space,1.8909425999991072,,,,,,0.0,1.0,1.0,0.0,3.0,0.0,6.0,0.0,329.78055089999907,,,,,,,,,329.7677184000004,330.1305271000001,330.93104459999995,330.9144395000003,330.9154381999997,330.93104459999995,330.93104459999995,330.93104459999995,,335.71454110000013,,,,,,,,,,,,,,,,,,,,,,,,,,,,,,left,1.0,4.770424399999683,,,,,sub-041,1,random_dot,59.93798815734868,
right,right,7.0,1.0,3.0,right,1.0,3.115705500000331,,accuracy,space,1.8909425999991072,,,,,,0.0,1.0,1.0,0.0,3.0,1.0,7.0,1.0,335.72971920000055,,,,,,,,,335.71554730000025,336.9291677000001,337.72971700000016,337.7127832999995,337.71311810000043,337.72971700000016,337.72971700000016,337.72971700000016,,340.84833830000025,,,,,,,,,,,,,,,,,,,,,,,,,,,,,,right,1.0,3.115705500000331,,,,,sub-041,1,random_dot,59.93798815734868,
left,left,8.0,0.0,4.0,left,1.0,3.0059203000000707,,accuracy,space,1.8909425999991072,,,,,,0.0,1.0,1.0,0.0,4.0,0.0,8.0,0.0,340.86334259999967,,,,,,,,,340.8492934999995,341.2134038999993,342.0295535000005,342.01272359999894,342.0135885999989,342.0295535000005,342.0295535000005,342.0295535000005,,345.0466875000002,,,,,,,,,,,,,,,,,,,,,,,,,,,,,,left,1.0,3.0059203000000707,,,,,sub-041,1,random_dot,59.93798815734868,
right,right,9.0,1.0,4.0,right,1.0,4.234652900000583,,accuracy,space,1.8909425999991072,,,,,,0.0,1.0,1.0,0.0,4.0,1.0,9.0,1.0,345.0620072999991,,,,,,,,,345.0475850999992,346.2620869000002,347.0623037000005,347.0457556000001,347.0468383999996,347.0623037000005,347.0623037000005,347.0623037000005,,351.31216940000013,,,,,,,,,,,,,,,,,,,,,,,,,,,,,,right,1.0,4.234652900000583,,,,,sub-041,1,random_dot,59.93798815734868,
left,left,10.0,0.0,5.0,left,1.0,1.0122258999999758,,accuracy,space,1.8909425999991072,,,,,,0.0,1.0,1.0,0.0,5.0,0.0,10.0,0.0,351.3278862999996,,,,,,,,,351.3125822000002,351.6614334999995,352.4623689,352.44574939999984,352.4467174000001,352.4623689,352.4623689,352.4623689,,353.4801527,,,,,,,,,,,,,,,,,,,,,,,,,,,,,,left,1.0,1.0122258999999758,,,,,sub-041,1,random_dot,59.93798815734868,
right,right,11.0,1.0,5.0,right,1.0,1.5915103999996063,,accuracy,space,1.8909425999991072,,,,,,0.0,1.0,1.0,0.0,5.0,1.0,11.0,1.0,353.4951060000003,,,,,,,,,353.48112760000004,353.84547629999906,354.66099829999985,354.64442339999914,354.64525909999975,354.66099829999985,354.66099829999985,354.66099829999985,,356.2616349,,,,,,,,,,,,,,,,,,,,,,,,,,,,,,right,1.0,1.5915103999996063,,,,,sub-041,1,random_dot,59.93798815734868,
left,left,12.0,0.0,6.0,left,1.0,1.2303637000004528,,accuracy,space,1.8909425999991072,,,,,,0.0,1.0,1.0,0.0,6.0,0.0,12.0,0.0,356.27731649999987,,,,,,,,,356.2623115999995,356.3775588999997,357.1779802000001,357.16142839999884,357.1625516000004,357.1779802000001,357.1779802000001,357.1779802000001,,358.4119105999998,,,,,,,,,,,,,,,,,,,,,,,,,,,,,,left,1.0,1.2303637000004528,,,,,sub-041,1,random_dot,59.93798815734868,
right,right,13.0,1.0,6.0,left,0.0,2.20423590000064,,accuracy,space,1.8909425999991072,,,,,,0.0,1.0,1.0,0.0,6.0,1.0,13.0,1.0,358.4272156999996,,,,,,,,,358.41288969999914,359.2264118000003,360.0279260999996,360.0116306,360.0129108000001,360.0279260999996,360.0279260999996,360.0279260999996,,362.2445227999997,,,,,,,,,,,,,,,,,,,,,,,,,,,,,,left,0.0,2.20423590000064,,,,,sub-041,1,random_dot,59.93798815734868,
left,left,14.0,0.0,7.0,right,0.0,6.381203100001585,,accuracy,space,1.8909425999991072,,,,,,0.0,1.0,1.0,0.0,7.0,0.0,14.0,0.0,362.25963169999886,,,,,,,,,362.2455102000004,363.0597617999993,363.8604266999992,363.8439366999992,363.8449022000004,363.8604266999992,363.8604266999992,363.8604266999992,368.84294509999927,370.2420069999989,,,,,,,,,,,,,,,,,,,,,,,,,,,,,,right,0.0,6.381203100001585,,,,,sub-041,1,random_dot,59.93798815734868,
right,right,15.0,1.0,7.0,right,1.0,1.2345545000007403,,accuracy,space,1.8909425999991072,,,,,,0.0,1.0,1.0,0.0,7.0,1.0,15.0,1.0,370.2579676999994,,,,,,,,,370.24233939999976,371.0412565000006,371.8424049999994,371.82579649999934,371.8265505999989,371.8424049999994,371.8424049999994,371.8424049999994,,373.0931486999998,,,,,,,,,,,,,,,,,,,,,,,,,,,,,,right,1.0,1.2345545000007403,,,,,sub-041,1,random_dot,59.93798815734868,
right,right,16.0,0.0,8.0,right,1.0,3.810468399999081,,accuracy,space,1.8909425999991072,,,,,,0.0,1.0,1.0,0.0,8.0,0.0,16.0,1.0,373.1084637000004,,,,,,,,,373.094017899999,374.3083234000005,375.1092386,375.09267910000017,375.0935776000006,375.1092386,375.1092386,375.1092386,,378.9269554000002,,,,,,,,,,,,,,,,,,,,,,,,,,,,,,right,1.0,3.810468399999081,,,,,sub-041,1,random_dot,59.93798815734868,
left,left,17.0,1.0,8.0,left,1.0,1.014167899998938,,accuracy,space,1.8909425999991072,,,,,,0.0,1.0,1.0,0.0,8.0,1.0,17.0,0.0,378.9417788999999,,,,,,,,,378.9278352000001,379.04218109999965,379.84272319999945,379.8261588000005,379.8269289999989,379.84272319999945,379.84272319999945,379.84272319999945,,380.8602849999989,,,,,,,,,,,,,,,,,,,,,,,,,,,,,,left,1.0,1.014167899998938,,,,,sub-041,1,random_dot,59.93798815734868,
right,right,18.0,0.0,9.0,right,1.0,1.8043818999994985,,accuracy,space,1.8909425999991072,,,,,,0.0,1.0,1.0,0.0,9.0,0.0,18.0,1.0,380.8750834999992,,,,,,,,,380.8611738999989,381.2252073999989,382.0411805999993,382.0245130999992,382.0252995999999,382.0411805999993,382.0411805999993,382.0411805999993,,383.8583149999995,,,,,,,,,,,,,,,,,,,,,,,,,,,,,,right,1.0,1.8043818999994985,,,,,sub-041,1,random_dot,59.93798815734868,
left,left,19.0,1.0,9.0,left,1.0,2.477472199998374,,accuracy,space,1.8909425999991072,,,,,,0.0,1.0,1.0,0.0,9.0,1.0,19.0,0.0,383.87370460000056,,,,,,,,,383.8593165000002,385.0737793999997,385.8740947999995,385.8575325999991,385.8584056999989,385.8740947999995,385.8740947999995,385.8740947999995,,388.3587002999993,,,,,,,,,,,,,,,,,,,,,,,,,,,,,,left,1.0,2.477472199998374,,,,,sub-041,1,random_dot,59.93798815734868,
right,right,20.0,0.0,10.0,right,1.0,1.341108799999347,,accuracy,space,1.8909425999991072,,,,,,0.0,1.0,1.0,0.0,10.0,0.0,20.0,1.0,388.37355170000046,,,,,,,,,388.3596756000006,389.5737069000006,390.3749862000004,390.3577423999996,390.3586701999993,390.3749862000004,390.3749862000004,390.3749862000004,,391.7250745000001,,,,,,,,,,,,,,,,,,,,,,,,,,,,,,right,1.0,1.341108799999347,,,,,sub-041,1,random_dot,59.93798815734868,
left,left,21.0,1.0,10.0,right,0.0,1.1746673000016017,,accuracy,space,1.8909425999991072,,,,,,0.0,1.0,1.0,0.0,10.0,1.0,21.0,0.0,391.7401484000002,,,,,,,,,391.72574059999897,392.0902630000001,392.8911382999995,392.8741480999997,392.8749038000005,392.8911382999995,392.8911382999995,392.8911382999995,,394.0750322000004,,,,,,,,,,,,,,,,,,,,,,,,,,,,,,right,0.0,1.1746673000016017,,,,,sub-041,1,random_dot,59.93798815734868,
right,right,22.0,0.0,11.0,right,1.0,1.8146692999998777,,accuracy,space,1.8909425999991072,,,,,,0.0,1.0,1.0,0.0,11.0,0.0,22.0,1.0,394.09007369999927,,,,,,,,,394.0759091,395.29015359999903,396.09090280000055,396.0740692999989,396.07506289999947,396.09090280000055,396.09090280000055,396.09090280000055,,397.9082488999993,,,,,,,,,,,,,,,,,,,,,,,,,,,,,,right,1.0,1.8146692999998777,,,,,sub-041,1,random_dot,59.93798815734868,
left,left,23.0,1.0,11.0,left,1.0,1.7386162000002514,,accuracy,space,1.8909425999991072,,,,,,0.0,1.0,1.0,0.0,11.0,1.0,23.0,0.0,397.9225865999997,,,,,,,,,397.9093049000003,399.12300049999976,399.9234619999989,399.90640189999976,399.90702539999984,399.9234619999989,399.9234619999989,399.9234619999989,,401.6741882000006,,,,,,,,,,,,,,,,,,,,,,,,,,,,,,left,1.0,1.7386162000002514,,,,,sub-041,1,random_dot,59.93798815734868,
left,left,24.0,0.0,12.0,left,1.0,1.154912999998487,,accuracy,space,1.8909425999991072,,,,,,0.0,1.0,1.0,0.0,12.0,0.0,24.0,0.0,401.6891311999989,,,,,,,,,401.6750766999994,402.88820099999975,403.6889379999993,403.6716815,403.6719047000006,403.6889379999993,403.6889379999993,403.6889379999993,,404.8570944000003,,,,,,,,,,,,,,,,,,,,,,,,,,,,,,left,1.0,1.154912999998487,,,,,sub-041,1,random_dot,59.93798815734868,
right,right,25.0,1.0,12.0,right,1.0,1.320610200000374,,accuracy,space,1.8909425999991072,,,,,,0.0,1.0,1.0,0.0,12.0,1.0,25.0,1.0,404.8718190999989,,,,,,,,,404.8580069999989,404.9717223999996,405.7720747999993,405.7547491999994,405.7550697000006,405.7720747999993,405.7720747999993,405.7720747999993,,407.10680019999927,,,,,,,,,,,,,,,,,,,,,,,,,,,,,,right,1.0,1.320610200000374,,,,,sub-041,1,random_dot,59.93798815734868,
right,right,26.0,0.0,13.0,right,1.0,1.5197635000004084,,accuracy,space,1.8909425999991072,,,,,,0.0,1.0,1.0,0.0,13.0,0.0,26.0,1.0,407.1216081000002,,,,,,,,,407.10775289999947,407.9217921,408.7225710000002,408.7055402999995,408.7062929999993,408.7225710000002,408.7225710000002,408.7225710000002,,410.2566810999997,,,,,,,,,,,,,,,,,,,,,,,,,,,,,,right,1.0,1.5197635000004084,,,,,sub-041,1,random_dot,59.93798815734868,
left,left,27.0,1.0,13.0,left,1.0,1.8118881000009424,,accuracy,space,1.8909425999991072,,,,,,0.0,1.0,1.0,0.0,13.0,1.0,27.0,0.0,410.2714426000002,,,,,,,,,410.2576663,411.0713569,411.87187260000064,411.85476949999975,411.8555988999997,411.87187260000064,411.87187260000064,411.87187260000064,,413.688553,,,,,,,,,,,,,,,,,,,,,,,,,,,,,,left,1.0,1.8118881000009424,,,,,sub-041,1,random_dot,59.93798815734868,
left,left,28.0,0.0,14.0,right,0.0,4.373276099999202,,accuracy,space,1.8909425999991072,,,,,,0.0,1.0,1.0,0.0,14.0,0.0,28.0,0.0,413.7041952999989,,,,,,,,,413.68922980000025,414.054282699999,414.85476329999983,414.8374229000001,414.8378221999992,414.85476329999983,414.85476329999983,414.85476329999983,,419.2373406999996,,,,,,,,,,,,,,,,,,,,,,,,,,,,,,right,0.0,4.373276099999202,,,,,sub-041,1,random_dot,59.93798815734868,
right,right,29.0,1.0,14.0,right,1.0,3.284018100001049,,accuracy,space,1.8909425999991072,,,,,,0.0,1.0,1.0,0.0,14.0,1.0,29.0,1.0,419.25242459999936,,,,,,,,,419.2384547999991,419.352546099999,420.15315550000014,420.1366149000005,420.1375905999994,420.15315550000014,420.15315550000014,420.15315550000014,,423.45258619999913,,,,,,,,,,,,,,,,,,,,,,,,,,,,,,right,1.0,3.284018100001049,,,,,sub-041,1,random_dot,59.93798815734868,
right,right,30.0,0.0,15.0,right,1.0,2.481358099999852,,accuracy,space,1.8909425999991072,,,,,,0.0,1.0,1.0,0.0,15.0,0.0,30.0,1.0,423.46839940000064,,,,,,,,,423.4530524999991,423.551872,424.35251160000007,424.33591220000017,424.3367942999994,424.35251160000007,424.35251160000007,424.35251160000007,,426.8363903999998,,,,,,,,,,,,,,,,,,,,,,,,,,,,,,right,1.0,2.481358099999852,,,,,sub-041,1,random_dot,59.93798815734868,
left,left,31.0,1.0,15.0,left,1.0,2.656855799999903,,accuracy,space,1.8909425999991072,,,,,,0.0,1.0,1.0,0.0,15.0,1.0,31.0,0.0,426.8514171999996,,,,,,,,,426.8373491000002,426.9513344999996,427.7520091000006,427.7354787999993,427.7363855000003,427.7520091000006,427.7520091000006,427.7520091000006,,430.4191169000005,,,,,,,,,,,,,,,,,,,,,,,,,,,,,,left,1.0,2.656855799999903,,,,,sub-041,1,random_dot,59.93798815734868,
right,right,32.0,0.0,16.0,right,1.0,1.9776318000003807,,accuracy,space,1.8909425999991072,,,,,,0.0,1.0,1.0,0.0,16.0,0.0,32.0,1.0,430.4344662000003,,,,,,,,,430.4199747999992,430.5344994999996,431.3348643999998,431.3183706999989,431.3192393999998,431.3348643999998,431.3348643999998,431.3348643999998,,433.31815710000046,,,,,,,,,,,,,,,,,,,,,,,,,,,,,,right,1.0,1.9776318000003807,,,,,sub-041,1,random_dot,59.93798815734868,
left,left,33.0,1.0,16.0,left,1.0,3.2771857999996428,,accuracy,space,1.8909425999991072,,,,,,0.0,1.0,1.0,0.0,16.0,1.0,33.0,0.0,433.334302199999,,,,,,,,,433.3187347000003,433.66766330000064,434.4837891999996,434.4666579000004,434.4669094000001,434.4837891999996,434.4837891999996,434.4837891999996,,437.7669848000005,,,,,,,,,,,,,,,,,,,,,,,,,,,,,,left,1.0,3.2771857999996428,,,,,sub-041,1,random_dot,59.93798815734868,
right,right,34.0,0.0,17.0,right,1.0,1.663188299999092,,accuracy,space,1.8909425999991072,,,,,,0.0,1.0,1.0,0.0,17.0,0.0,34.0,1.0,437.7828233,,,,,,,,,437.7672483999995,438.96670149999954,439.7677034999997,439.7509799999989,439.75191859999904,439.7677034999997,439.7677034999997,439.7677034999997,,441.4354289999992,,,,,,,,,,,,,,,,,,,,,,,,,,,,,,right,1.0,1.663188299999092,,,,,sub-041,1,random_dot,59.93798815734868,
left,left,35.0,1.0,17.0,left,1.0,2.0240104000004067,,accuracy,space,1.8909425999991072,,,,,,0.0,1.0,1.0,0.0,17.0,1.0,35.0,0.0,441.45053650000045,,,,,,,,,441.4369599999991,442.65065969999887,443.4516084000006,443.4343943999993,443.43531090000033,443.4516084000006,443.4516084000006,443.4516084000006,,445.4856882000004,,,,,,,,,,,,,,,,,,,,,,,,,,,,,,left,1.0,2.0240104000004067,,,,,sub-041,1,random_dot,59.93798815734868,
right,right,36.0,0.0,18.0,right,1.0,0.9470686999993632,,accuracy,space,1.8909425999991072,,,,,,0.0,1.0,1.0,0.0,18.0,0.0,36.0,1.0,445.4998259000004,,,,,,,,,445.4866712999992,445.6003010000004,446.4008417999994,446.38388359999954,446.3848352999994,446.4008417999994,446.4008417999994,446.4008417999994,,447.3509515000005,,,,,,,,,,,,,,,,,,,,,,,,,,,,,,right,1.0,0.9470686999993632,,,,,sub-041,1,random_dot,59.93798815734868,
left,left,37.0,1.0,18.0,left,1.0,1.8900060999985728,,accuracy,space,1.8909425999991072,,,,,,0.0,1.0,1.0,0.0,18.0,1.0,37.0,0.0,447.3664276,,,,,,,,,447.35151140000016,448.5665845000003,449.3672016,449.3502425999996,449.3511202999998,449.3672016,449.3672016,449.3672016,,451.2681336000005,,,,,,,,,,,,,,,,,,,,,,,,,,,,,,left,1.0,1.8900060999985728,,,,,sub-041,1,random_dot,59.93798815734868,
right,right,38.0,0.0,19.0,right,1.0,1.315429000000222,,accuracy,space,1.8909425999991072,,,,,,0.0,1.0,1.0,0.0,19.0,0.0,38.0,1.0,451.2828962000003,,,,,,,,,451.2691106000002,451.3828672,452.18370610000056,452.1667791,452.1677665999996,452.18370610000056,452.18370610000056,452.18370610000056,,453.5008739000005,,,,,,,,,,,,,,,,,,,,,,,,,,,,,,right,1.0,1.315429000000222,,,,,sub-041,1,random_dot,59.93798815734868,
left,left,39.0,1.0,19.0,left,1.0,1.65523740000026,,accuracy,space,1.8909425999991072,,,,,,0.0,1.0,1.0,0.0,19.0,1.0,39.0,0.0,453.5156133,,,,,,,,,453.5017138000003,453.6159244999999,454.43125770000006,454.4140219000001,454.4142088999997,454.43125770000006,454.43125770000006,454.43125770000006,,456.09921679999934,,,,,,,,,,,,,,,,,,,,,,,,,,,,,,left,1.0,1.65523740000026,,,,,sub-041,1,random_dot,59.93798815734868,
left,left,40.0,0.0,20.0,left,1.0,5.180250699999306,,accuracy,space,1.8909425999991072,,,,,,0.0,1.0,1.0,0.0,20.0,0.0,40.0,0.0,456.1143393999992,,,,,,,,,456.1001808000001,456.2145134000002,457.01531989999967,456.9985784,456.9992664000001,457.01531989999967,457.01531989999967,457.01531989999967,462.0142495,462.1983732999997,,,,,,,,,,,,,,,,,,,,,,,,,,,,,,left,1.0,5.180250699999306,,,,,sub-041,1,random_dot,59.93798815734868,
right,right,41.0,1.0,20.0,right,1.0,0.7929244000006292,,accuracy,space,1.8909425999991072,,,,,,0.0,1.0,1.0,0.0,20.0,1.0,41.0,1.0,462.2135152999999,,,,,,,,,462.1994224999999,463.0136948999989,463.8140368000004,463.7975501000001,463.7984209999995,463.8140368000004,463.8140368000004,463.8140368000004,,464.6146205999994,,,,,,,,,,,,,,,,,,,,,,,,,,,,,,right,1.0,0.7929244000006292,,,,,sub-041,1,random_dot,59.93798815734868,
right,right,42.0,0.0,21.0,right,1.0,1.1214397999992798,,accuracy,space,1.8909425999991072,,,,,,0.0,1.0,1.0,0.0,21.0,0.0,42.0,1.0,464.6298093999994,,,,,,,,,464.6156307000001,464.98023789999934,465.780741999999,465.76411240000016,465.7649411000002,465.780741999999,465.780741999999,465.780741999999,,466.9149376000005,,,,,,,,,,,,,,,,,,,,,,,,,,,,,,right,1.0,1.1214397999992798,,,,,sub-041,1,random_dot,59.93798815734868,
left,left,43.0,1.0,21.0,left,1.0,1.368944400001055,,accuracy,space,1.8909425999991072,,,,,,0.0,1.0,1.0,0.0,21.0,1.0,43.0,0.0,466.9301997000002,,,,,,,,,466.9159280999993,467.0300533999998,467.82981800000016,467.81285220000063,467.8130738999989,467.82981800000016,467.82981800000016,467.82981800000016,,469.2138715000001,,,,,,,,,,,,,,,,,,,,,,,,,,,,,,left,1.0,1.368944400001055,,,,,sub-041,1,random_dot,59.93798815734868,
right,right,44.0,0.0,22.0,right,1.0,0.9726132999985566,,accuracy,space,1.8909425999991072,,,,,,0.0,1.0,1.0,0.0,22.0,0.0,44.0,1.0,469.2293919999993,,,,,,,,,469.21418880000056,470.01363889999993,470.8136749000005,470.7962470000002,470.79647660000046,470.8136749000005,470.8136749000005,470.8136749000005,,471.7988986,,,,,,,,,,,,,,,,,,,,,,,,,,,,,,right,1.0,0.9726132999985566,,,,,sub-041,1,random_dot,59.93798815734868,
left,left,45.0,1.0,22.0,left,1.0,1.3293727000000215,,accuracy,space,1.8909425999991072,,,,,,0.0,1.0,1.0,0.0,22.0,1.0,45.0,0.0,471.81358869999895,,,,,,,,,471.7999003999994,472.6135309000001,473.4140688999996,473.3972116999994,473.3980957999993,473.4140688999996,473.4140688999996,473.4140688999996,,474.7481248000004,,,,,,,,,,,,,,,,,,,,,,,,,,,,,,left,1.0,1.3293727000000215,,,,,sub-041,1,random_dot,59.93798815734868,
left,left,46.0,0.0,23.0,left,1.0,4.011327400001392,,accuracy,space,1.8909425999991072,,,,,,0.0,1.0,1.0,0.0,23.0,0.0,46.0,0.0,474.76326530000006,,,,,,,,,474.7491011000002,475.563140799999,476.3638905999997,476.34707720000006,476.3480134999991,476.3638905999997,476.3638905999997,476.3638905999997,,480.3786827999993,,,,,,,,,,,,,,,,,,,,,,,,,,,,,,left,1.0,4.011327400001392,,,,,sub-041,1,random_dot,59.93798815734868,
right,right,47.0,1.0,23.0,right,1.0,0.9889823000012256,,accuracy,space,1.8909425999991072,,,,,,0.0,1.0,1.0,0.0,23.0,1.0,47.0,1.0,480.3940662999994,,,,,,,,,480.3792338999992,481.1780010000002,481.9781084999995,481.9618625999992,481.9628293000005,481.9781084999995,481.9781084999995,481.9781084999995,,482.9793577,,,,,,,,,,,,,,,,,,,,,,,,,,,,,,right,1.0,0.9889823000012256,,,,,sub-041,1,random_dot,59.93798815734868,
right,right,48.0,0.0,24.0,right,1.0,4.142008000000715,,accuracy,space,1.8909425999991072,,,,,,0.0,1.0,1.0,0.0,24.0,0.0,48.0,1.0,482.99402779999946,,,,,,,,,482.9803484999993,483.7943536999992,484.5949266999996,484.5785582999997,484.5795204999995,484.5949266999996,484.5949266999996,484.5949266999996,,488.7465437999999,,,,,,,,,,,,,,,,,,,,,,,,,,,,,,right,1.0,4.142008000000715,,,,,sub-041,1,random_dot,59.93798815734868,
left,left,49.0,1.0,24.0,left,1.0,3.685101199998826,,accuracy,space,1.8909425999991072,,,,,,0.0,1.0,1.0,0.0,24.0,1.0,49.0,0.0,488.7612807000005,,,,,,,,,488.74757540000064,489.9610346999998,490.76176309999937,490.7452637000006,490.7461738000002,490.76176309999937,490.76176309999937,490.76176309999937,,494.4625901999989,,,,,,,,,,,,,,,,,,,,,,,,,,,,,,left,1.0,3.685101199998826,,,,,sub-041,1,random_dot,59.93798815734868,
right,right,50.0,0.0,25.0,right,1.0,3.880990300000122,,accuracy,space,1.8909425999991072,,,,,,0.0,1.0,1.0,0.0,25.0,0.0,50.0,1.0,494.47735099999954,,,,,,,,,494.4635682999997,494.577338699999,495.378079099999,495.3610393999989,495.3617893999999,495.378079099999,495.378079099999,495.378079099999,,499.2603715999994,,,,,,,,,,,,,,,,,,,,,,,,,,,,,,right,1.0,3.880990300000122,,,,,sub-041,1,random_dot,59.93798815734868,
left,left,51.0,1.0,25.0,left,1.0,1.379741599999761,,accuracy,space,1.8909425999991072,,,,,,0.0,1.0,1.0,0.0,25.0,1.0,51.0,0.0,499.2757273999996,,,,,,,,,499.2612405,499.625734199999,500.4260857999998,500.4095254000004,500.41033609999977,500.4260857999998,500.4260857999998,500.4260857999998,,501.8105673999999,,,,,,,,,,,,,,,,,,,,,,,,,,,,,,left,1.0,1.379741599999761,,,,,sub-041,1,random_dot,59.93798815734868,
left,left,52.0,0.0,26.0,right,0.0,3.79645840000012,,accuracy,space,1.8909425999991072,,,,,,0.0,1.0,1.0,0.0,26.0,0.0,52.0,0.0,501.8255771000004,,,,,,,,,501.8116042999991,502.1758212000004,502.9766739000006,502.95998659999896,502.960887199999,502.9766739000006,502.9766739000006,502.9766739000006,,506.77739329999895,,,,,,,,,,,,,,,,,,,,,,,,,,,,,,right,0.0,3.79645840000012,,,,,sub-041,1,random_dot,59.93798815734868,
right,right,53.0,1.0,26.0,right,1.0,2.2616989000016474,,accuracy,space,1.8909425999991072,,,,,,0.0,1.0,1.0,0.0,26.0,1.0,53.0,1.0,506.79228929999954,,,,,,,,,506.7784319999992,507.991044299999,508.7916273999999,508.7751122999998,508.7759788999993,508.7916273999999,508.7916273999999,508.7916273999999,,511.0590959000001,,,,,,,,,,,,,,,,,,,,,,,,,,,,,,right,1.0,2.2616989000016474,,,,,sub-041,1,random_dot,59.93798815734868,
right,right,54.0,0.0,27.0,right,1.0,3.006874899998365,,accuracy,space,1.8909425999991072,,,,,,0.0,1.0,1.0,0.0,27.0,0.0,54.0,1.0,511.0742277999998,,,,,,,,,511.06005319999895,511.1742983999993,511.9745516999992,511.957907,511.9587004999994,511.9745516999992,511.9745516999992,511.9745516999992,,514.9916383999989,,,,,,,,,,,,,,,,,,,,,,,,,,,,,,right,1.0,3.006874899998365,,,,,sub-041,1,random_dot,59.93798815734868,
left,left,55.0,1.0,27.0,left,1.0,1.441223200001332,,accuracy,space,1.8909425999991072,,,,,,0.0,1.0,1.0,0.0,27.0,1.0,55.0,0.0,515.0071838999993,,,,,,,,,514.9920153999992,515.3408805999989,516.1420330000001,516.1251768000002,516.1260720999999,516.1420330000001,516.1420330000001,516.1420330000001,,517.5924458999998,,,,,,,,,,,,,,,,,,,,,,,,,,,,,,left,1.0,1.441223200001332,,,,,sub-041,1,random_dot,59.93798815734868,
right,right,56.0,0.0,28.0,left,0.0,3.1181039000002784,,accuracy,space,1.8909425999991072,,,,,,0.0,1.0,1.0,0.0,28.0,0.0,56.0,1.0,517.6075903000001,,,,,,,,,517.5932395999989,517.7077305999992,518.5081503999991,518.4915925000005,518.4924726999998,518.5081503999991,518.5081503999991,518.5081503999991,,521.6424465,,,,,,,,,,,,,,,,,,,,,,,,,,,,,,left,0.0,3.1181039000002784,,,,,sub-041,1,random_dot,59.93798815734868,
left,left,57.0,1.0,28.0,right,0.0,3.583836499999961,,accuracy,space,1.8909425999991072,,,,,,0.0,1.0,1.0,0.0,28.0,1.0,57.0,0.0,521.6572407999993,,,,,,,,,521.6434198999996,521.7572013999998,522.5578401000002,522.540923999999,522.5418389000006,522.5578401000002,522.5578401000002,522.5578401000002,,526.1568812000005,,,,,,,,,,,,,,,,,,,,,,,,,,,,,,right,0.0,3.583836499999961,,,,,sub-041,1,random_dot,59.93798815734868,
right,right,58.0,0.0,29.0,right,1.0,4.669145699999717,,accuracy,space,1.8909425999991072,,,,,,0.0,1.0,1.0,0.0,29.0,0.0,58.0,1.0,526.1723084000005,,,,,,,,,526.1578874999996,527.3722612999991,528.1724644999995,528.1559778999999,528.1568370999994,528.1724644999995,528.1724644999995,528.1724644999995,,532.8563266000001,,,,,,,,,,,,,,,,,,,,,,,,,,,,,,right,1.0,4.669145699999717,,,,,sub-041,1,random_dot,59.93798815734868,
left,left,59.0,1.0,29.0,left,1.0,5.758724900000743,,accuracy,space,1.8909425999991072,,,,,,0.0,1.0,1.0,0.0,29.0,1.0,59.0,0.0,532.8712990000004,,,,,,,,,532.8573137999992,533.2213437999999,534.0218222000003,534.0052696999992,534.0061968999998,534.0218222000003,534.0218222000003,534.0218222000003,539.0044120999992,539.7893211999999,,,,,,,,,,,,,,,,,,,,,,,,,,,,,,left,1.0,5.758724900000743,,,,,sub-041,1,random_dot,59.93798815734868,
,,1.0,1.0,0.0,,,,,accuracy,space,1.8909425999991072,,,,,,0.0,1.0,1.0,0.0,,,,,,,,,,,,,,,,,,,,,,,,,,,,,,,,,,,,,,,,,,,,,,,,,,,,,,,,,,,,sub-041,1,random_dot,59.93798815734868,
,,,,,,,,,,,,,,,,,,,,,,,,,,,,,,,,,,,,,,,,,,,,,,,,,,,,,,,,,,,,,,,,,,,,,,,,,,,,,539.8012118999995,539.8070778999991,544.8039669999998,sub-041,1,random_dot,59.93798815734868,
