wordCTK,colorCTK,corrAnsCTK,congruentCTK,thisN,thisTrialN,thisRepN,keyResp_CTK.keys,keyResp_CTK.corr,keyResp_CTK.rt,keyResp_CTK.duration,wordPractice,colorPractice,corrAnsPractice,congruentPractice,respPractice.keys,respPractice.corr,respPractice.rt,respPractice.duration,word,color,corrAns,congruent,keyResp_test_run.keys,keyResp_test_run.corr,keyResp_test_run.rt,keyResp_test_run.duration,trials_CTK.thisRepN,trials_CTK.thisTrialN,trials_CTK.thisN,trials_CTK.thisIndex,trials_practice.thisRepN,trials_practice.thisTrialN,trials_practice.thisN,trials_practice.thisIndex,trials_test.thisRepN,trials_test.thisTrialN,trials_test.thisN,trials_test.thisIndex,thisRow.t,notes,instruction.started,instr_text.started,instr_image.started,instr_resp.started,instruction.stopped,instr_resp.keys,instr_resp.rt,instr_resp.duration,instr_color_to_key.started,instr_ctk.started,resp_ctk.started,instr_color_to_key.stopped,resp_ctk.keys,resp_ctk.rt,resp_ctk.duration,ITI.started,fixcross.started,fixcross.stopped,ITI.stopped,color_to_key_run.started,stimulus_CTK.started,keyResp_CTK.started,color_to_key_run.stopped,trials_CTK.keyResp_CTK.keys,trials_CTK.keyResp_CTK.corr,trials_CTK.keyResp_CTK.rt,trials_CTK.keyResp_CTK.duration,instr_practice.started,instr_practice_text.started,instr_practice_resp.started,instr_practice.stopped,instr_practice_resp.keys,instr_practice_resp.rt,instr_practice_resp.duration,practice_run.started,stimulus_practice.started,respPractice.started,practice_run.stopped,trials_practice.respPractice.keys,trials_practice.respPractice.corr,trials_practice.respPractice.rt,trials_practice.respPractice.duration,feedback.started,textFeedback.started,feedback.stopped,textFeedback.stopped,instr_test.started,instr_test_text.started,instr_test_resp.started,instr_test.stopped,instr_test_resp.keys,instr_test_resp.rt,instr_test_resp.duration,test_run.started,stimulus_test_run.started,keyResp_test_run.started,test_run.stopped,trials_test.keyResp_test_run.keys,trials_test.keyResp_test_run.corr,trials_test.keyResp_test_run.rt,trials_test.keyResp_test_run.duration,goodbye.started,textGoodbye.started,goodbye.stopped,participant,session,expName,frameRate,Unnamed: 112
,,,,,,,,,,,,,,,,,,,,,,,,,,,,,,,,,,,,,,,,,0.0409299000020837,0.139109499999904,0.139109499999904,0.139109499999904,53.474396399993566,space,53.323034600005485,,,,,,,,,,,,,,,,,,,,,,,,,,,,,,,,,,,,,,,,,,,,,,,,,,,,,,,,,,sub-001,1,stroop_test,59.99545234326013,
,,,,,,,,,,,,,,,,,,,,,,,,,,,,,,,,,,,,,,,,,,,,,,,,,53.47450100000424,53.49199209999642,53.49199209999642,59.52513189999445,space,6.017036699995515,,,,,,,,,,,,,,,,,,,,,,,,,,,,,,,,,,,,,,,,,,,,,,,,,,,sub-001,1,stroop_test,59.99545234326013,
test,yellow,g,1.0,0.0,0.0,0.0,g,1.0,1.2769814999919618,,,,,,,,,,,,,,,,,,0.0,0.0,0.0,1.0,,,,,,,,,59.57408890000079,,,,,,,,,,,,,,,,,59.56700060000003,60.3378151999932,61.148854400002165,61.12167870000121,61.13694559999567,61.148854400002165,61.148854400002165,62.439625400002114,g,1.0,1.2769814999919618,,,,,,,,,,,,,,,,,,,,,,,,,,,,,,,,,,,,,,,sub-001,1,stroop_test,59.99545234326013,
test,red,r,1.0,1.0,1.0,0.0,r,1.0,0.443414200010011,,,,,,,,,,,,,,,,,,0.0,1.0,1.0,0.0,,,,,,,,,62.45466990000568,,,,,,,,,,,,,,,,,62.4401222000015,62.55421000000206,63.35975570000301,63.34422090000589,63.34531629999401,63.35975570000301,63.35975570000301,63.80525689999922,r,1.0,0.443414200010011,,,,,,,,,,,,,,,,,,,,,,,,,,,,,,,,,,,,,,,sub-001,1,stroop_test,59.99545234326013,
test,blue,b,1.0,2.0,2.0,0.0,b,1.0,0.6327911999978824,,,,,,,,,,,,,,,,,,0.0,2.0,2.0,2.0,,,,,,,,,63.82034950000525,,,,,,,,,,,,,,,,,63.805741100004525,65.02045169999474,65.8201992999966,65.80501320000621,65.80578939999396,65.8201992999966,65.8201992999966,66.45551179999893,b,1.0,0.6327911999978824,,,,,,,,,,,,,,,,,,,,,,,,,,,,,,,,,,,,,,,sub-001,1,stroop_test,59.99545234326013,
test,red,r,1.0,3.0,0.0,1.0,r,1.0,0.6840954000072088,,,,,,,,,,,,,,,,,,1.0,0.0,3.0,0.0,,,,,,,,,66.46989029999531,,,,,,,,,,,,,,,,,66.45605839999916,67.6688140000042,68.46954289999849,68.45389330000035,68.45464739999443,68.46954289999849,68.46954289999849,69.17058120000002,r,1.0,0.6840954000072088,,,,,,,,,,,,,,,,,,,,,,,,,,,,,,,,,,,,,,,sub-001,1,stroop_test,59.99545234326013,
test,blue,b,1.0,4.0,1.0,1.0,b,1.0,0.5509180999943055,,,,,,,,,,,,,,,,,,1.0,1.0,4.0,2.0,,,,,,,,,69.18537029999425,,,,,,,,,,,,,,,,,69.1710951999994,69.51892590000352,70.32350349999615,70.30876080000598,70.30984269999317,70.32350349999615,70.32350349999615,70.88690650000353,b,1.0,0.5509180999943055,,,,,,,,,,,,,,,,,,,,,,,,,,,,,,,,,,,,,,,sub-001,1,stroop_test,59.99545234326013,
test,yellow,g,1.0,5.0,2.0,1.0,g,1.0,0.3850432000035653,,,,,,,,,,,,,,,,,,1.0,2.0,5.0,1.0,,,,,,,,,70.90322199999355,,,,,,,,,,,,,,,,,70.88737599999877,72.1014359999972,72.90295350000088,72.88721889999579,72.88814779999666,72.90295350000088,72.90295350000088,73.30470749999222,g,1.0,0.3850432000035653,,,,,,,,,,,,,,,,,,,,,,,,,,,,,,,,,,,,,,,sub-001,1,stroop_test,59.99545234326013,
test,yellow,g,1.0,6.0,0.0,2.0,g,1.0,0.3239696999953594,,,,,,,,,,,,,,,,,,2.0,0.0,6.0,1.0,,,,,,,,,73.31963519999408,,,,,,,,,,,,,,,,,73.305283099995,73.66889020000235,74.48573559999932,74.46852009999566,74.46912969999539,74.48573559999932,74.48573559999932,74.81862540000293,g,1.0,0.3239696999953594,,,,,,,,,,,,,,,,,,,,,,,,,,,,,,,,,,,,,,,sub-001,1,stroop_test,59.99545234326013,
test,red,r,1.0,7.0,1.0,2.0,r,1.0,0.586797399999341,,,,,,,,,,,,,,,,,,2.0,1.0,7.0,0.0,,,,,,,,,74.83405170000333,,,,,,,,,,,,,,,,,74.81904639999266,76.03423839999596,76.83340780000435,76.81816779999644,76.81881470000371,76.83340780000435,76.83340780000435,77.43497170000046,r,1.0,0.586797399999341,,,,,,,,,,,,,,,,,,,,,,,,,,,,,,,,,,,,,,,sub-001,1,stroop_test,59.99545234326013,
test,blue,b,1.0,8.0,2.0,2.0,b,1.0,0.4288866999995662,,,,,,,,,,,,,,,,,,2.0,2.0,8.0,2.0,,,,,,,,,77.45015000000421,,,,,,,,,,,,,,,,,77.43543319999299,77.78469460000633,78.59978400000546,78.58396980000543,78.58460950000153,78.59978400000546,78.59978400000546,79.03540880000219,b,1.0,0.4288866999995662,,,,,,,,,,,,,,,,,,,,,,,,,,,,,,,,,,,,,,,sub-001,1,stroop_test,59.99545234326013,
test,blue,b,1.0,9.0,0.0,3.0,b,1.0,0.4081543000065721,,,,,,,,,,,,,,,,,,3.0,0.0,9.0,2.0,,,,,,,,,79.04995830000553,,,,,,,,,,,,,,,,,79.03586550000182,80.24951969999529,81.05012960000022,81.03448899999785,81.03517079999438,81.05012960000022,81.05012960000022,81.46787890000269,b,1.0,0.4081543000065721,,,,,,,,,,,,,,,,,,,,,,,,,,,,,,,,,,,,,,,sub-001,1,stroop_test,59.99545234326013,
test,yellow,g,1.0,10.0,1.0,3.0,r,0.0,0.4166862999991281,,,,,,,,,,,,,,,,,,3.0,1.0,10.0,1.0,,,,,,,,,81.48314820000087,,,,,,,,,,,,,,,,,81.468343799992,81.83313250000356,82.63261919999786,82.61677910000435,82.6174258999963,82.63261919999786,82.63261919999786,83.05115939999814,r,0.0,0.4166862999991281,,,,,,,,,,,,,,,,,,,,,,,,,,,,,,,,,,,,,,,sub-001,1,stroop_test,59.99545234326013,
test,red,r,1.0,11.0,2.0,3.0,r,1.0,0.4866438999888487,,,,,,,,,,,,,,,,,,3.0,2.0,11.0,0.0,,,,,,,,,83.06623670000408,,,,,,,,,,,,,,,,,83.05157759999565,83.86631820000184,84.66590059999726,84.65017379999335,84.65086619999784,84.66590059999726,84.66590059999726,85.16702389999409,r,1.0,0.4866438999888487,,,,,,,,,,,,,,,,,,,,,,,,,,,,,,,,,,,,,,,sub-001,1,stroop_test,59.99545234326013,
,,,,,,,,,,,,,,,,,,,,,,,,,,,,,,,,,,,,,,,,,,,,,,,,,,,,,,,,,,,,,,,,,,,,85.1672394000052,85.18223239999497,85.18223239999497,90.06668849999551,space,4.873928400003933,,,,,,,,,,,,,,,,,,,,,,,,,,,,,,,,sub-001,1,stroop_test,59.99545234326013,
,,,,0.0,0.0,0.0,,,,,gelb,yellow,g,1.0,g,1.0,0.5969112000020687,,,,,,,,,,,,,,0.0,0.0,0.0,11.0,,,,,90.10568559999228,,,,,,,,,,,,,,,,,90.09887699999672,91.28106870000192,92.08464370000002,92.0649323999969,,,,,,,,,,,,,,,,92.07548769999994,92.08464370000002,92.08464370000002,92.68302680000488,g,1.0,0.5969112000020687,,92.70098130000406,92.71028949999892,93.6974218999967,,,,,,,,,,,,,,,,,,,,sub-001,1,stroop_test,59.99545234326013,
,,,,1.0,1.0,0.0,,,,,blau,yellow,g,0.0,g,1.0,0.5824245999974664,,,,,,,,,,,,,,0.0,1.0,1.0,7.0,,,,,93.71407679999538,,,,,,,,,,,,,,,,,93.6979285999987,93.7973440999922,94.60505109999212,94.5823068000027,,,,,,,,,,,,,,,,94.59324339999876,94.60505109999212,94.60505109999212,95.19870439999796,g,1.0,0.5824245999974664,,95.19948999999906,95.213791999995,96.19790859999192,96.2141777999932,,,,,,,,,,,,,,,,,,,sub-001,1,stroop_test,59.99545234326013,
,,,,2.0,2.0,0.0,,,,,gelb,blue,b,0.0,b,1.0,0.5279640999942785,,,,,,,,,,,,,,0.0,2.0,2.0,9.0,,,,,96.2141777999932,,,,,,,,,,,,,,,,,96.19833489999291,97.01332470000489,97.81409909999638,97.79766189999646,,,,,,,,,,,,,,,,97.80188759999874,97.81409909999638,97.81409909999638,98.34948599999188,b,1.0,0.5279640999942785,,98.35022379999282,98.36350669999956,99.34731559999636,99.36322929999731,,,,,,,,,,,,,,,,,,,sub-001,1,stroop_test,59.99545234326013,
,,,,3.0,3.0,0.0,,,,,gelb,yellow,g,1.0,g,1.0,0.4849801999953342,,,,,,,,,,,,,,0.0,3.0,3.0,10.0,,,,,99.36322929999731,,,,,,,,,,,,,,,,,99.3477328000008,99.71307979999985,100.51297339999292,100.4973125999968,,,,,,,,,,,,,,,,100.49796039999636,100.51297339999292,100.51297339999292,101.01433710000128,g,1.0,0.4849801999953342,,101.01508090000424,101.02930439999908,102.01365360000636,102.02964300000168,,,,,,,,,,,,,,,,,,,sub-001,1,stroop_test,59.99545234326013,
,,,,4.0,4.0,0.0,,,,,blau,blue,b,1.0,b,1.0,0.4023954000003868,,,,,,,,,,,,,,0.0,4.0,4.0,5.0,,,,,102.02964300000168,,,,,,,,,,,,,,,,,102.01406030000362,102.82971059999544,103.63037830000394,103.61315869999817,,,,,,,,,,,,,,,,103.61803490000602,103.63037830000394,103.63037830000394,104.04682639999372,b,1.0,0.4023954000003868,,104.04753979999803,104.0618029000034,105.04664400000183,105.06206899999232,,,,,,,,,,,,,,,,,,,sub-001,1,stroop_test,59.99545234326013,
,,,,5.0,5.0,0.0,,,,,rot,yellow,g,0.0,g,1.0,0.4566607999877305,,,,,,,,,,,,,,0.0,5.0,5.0,3.0,,,,,105.06206899999232,,,,,,,,,,,,,,,,,105.04708190000385,105.41156350000529,106.21453880000628,106.196320499992,,,,,,,,,,,,,,,,106.20379319999483,106.21453880000628,106.21453880000628,106.6806987000018,g,1.0,0.4566607999877305,,106.68150120000064,106.69628619999276,107.68037639999238,107.69546299999638,,,,,,,,,,,,,,,,,,,sub-001,1,stroop_test,59.99545234326013,
,,,,6.0,6.0,0.0,,,,,gelb,red,r,0.0,r,1.0,0.3331985999975586,,,,,,,,,,,,,,0.0,6.0,6.0,8.0,,,,,107.69546299999638,,,,,,,,,,,,,,,,,107.68081879999954,108.89502240000002,109.6969237000012,109.67858399999386,,,,,,,,,,,,,,,,109.68315149999398,109.6969237000012,109.6969237000012,110.04589219999616,r,1.0,0.3331985999975586,,110.04664519999642,110.06122839999443,111.04508599999826,111.06108430000312,,,,,,,,,,,,,,,,,,,sub-001,1,stroop_test,59.99545234326013,
,,,,7.0,7.0,0.0,,,,,blau,red,r,0.0,r,1.0,0.3452300999924773,,,,,,,,,,,,,,0.0,7.0,7.0,4.0,,,,,111.06108430000312,,,,,,,,,,,,,,,,,111.04550199999358,111.16115149999678,111.9620045000047,111.9451040999993,,,,,,,,,,,,,,,,111.94976200000384,111.9620045000047,111.9620045000047,112.31242630000634,r,1.0,0.3452300999924773,,112.31317569999374,112.32803550000244,113.32815830000618,,,,,,,,,,,,,,,,,,,,sub-001,1,stroop_test,59.99545234326013,
,,,,8.0,8.0,0.0,,,,,blau,blue,b,1.0,b,1.0,0.4324355999997351,,,,,,,,,,,,,,0.0,8.0,8.0,6.0,,,,,113.34397180000089,,,,,,,,,,,,,,,,,113.32862659999228,114.12726290000136,114.92665219999616,114.91081580000171,,,,,,,,,,,,,,,,114.91145689999394,114.92665219999616,114.92665219999616,115.3618354999926,b,1.0,0.4324355999997351,,115.362590299992,115.37696389999472,116.36073960000068,116.37681630000588,,,,,,,,,,,,,,,,,,,sub-001,1,stroop_test,59.99545234326013,
,,,,9.0,9.0,0.0,,,,,rot,red,r,1.0,g,0.0,0.3821698999963701,,,,,,,,,,,,,,0.0,9.0,9.0,1.0,,,,,116.37681630000588,,,,,,,,,,,,,,,,,116.3611438999942,117.17654420000326,117.97722369999974,117.96029230000568,,,,,,,,,,,,,,,,117.9650718000048,117.97722369999974,117.97722369999974,118.36106080000172,g,0.0,0.3821698999963701,,118.36962189999758,118.38104900000326,119.37681529999828,,,,,,,,,,,,,,,,,,,,sub-001,1,stroop_test,59.99545234326013,
,,,,10.0,10.0,0.0,,,,,rot,red,r,1.0,r,1.0,0.4063542000076268,,,,,,,,,,,,,,0.0,10.0,10.0,0.0,,,,,119.39335899999423,,,,,,,,,,,,,,,,,119.3773116999946,120.17592270000024,120.97914599999784,120.96252970000204,,,,,,,,,,,,,,,,120.96393529999476,120.97914599999784,120.97914599999784,121.3963739000028,r,1.0,0.4063542000076268,,121.40930600000138,121.42399250000015,122.41035849999751,,,,,,,,,,,,,,,,,,,,sub-001,1,stroop_test,59.99545234326013,
,,,,11.0,11.0,0.0,,,,,rot,blue,b,0.0,b,1.0,0.5424555000063265,,,,,,,,,,,,,,0.0,11.0,11.0,2.0,,,,,122.42653120000614,,,,,,,,,,,,,,,,,122.4112613000034,123.21021920000204,124.01097030000528,123.99470749999456,,,,,,,,,,,,,,,,123.99604830000315,124.01097030000528,124.01097030000528,124.56225129999802,b,1.0,0.5424555000063265,,124.563713800002,124.57827470000484,125.576350000003,,,,,,,,,,,,,,,,,,,,sub-001,1,stroop_test,59.99545234326013,
,,,,12.0,0.0,1.0,,,,,gelb,yellow,g,1.0,g,1.0,0.6854793999955291,,,,,,,,,,,,,,1.0,0.0,12.0,10.0,,,,,125.59335799999826,,,,,,,,,,,,,,,,,125.57722500000092,125.92631840000104,126.73446979999426,126.710559500003,,,,,,,,,,,,,,,,126.72136710000632,126.73446979999426,126.73446979999426,127.42857220000587,g,1.0,0.6854793999955291,,127.43009069999972,127.44445019999694,128.44252690000576,,,,,,,,,,,,,,,,,,,,sub-001,1,stroop_test,59.99545234326013,
,,,,13.0,1.0,1.0,,,,,blau,yellow,g,0.0,g,1.0,0.4695780000038212,,,,,,,,,,,,,,1.0,1.0,13.0,7.0,,,,,128.45908939999936,,,,,,,,,,,,,,,,,128.44340200000445,128.54250349999347,129.35330180000165,129.32756540000264,,,,,,,,,,,,,,,,129.34010899999703,129.35330180000165,129.35330180000165,129.82806099999289,g,1.0,0.4695780000038212,,129.82952400000067,129.8440174999996,130.84088619999238,,,,,,,,,,,,,,,,,,,,sub-001,1,stroop_test,59.99545234326013,
,,,,14.0,2.0,1.0,,,,,rot,yellow,g,0.0,g,1.0,0.4792954000004101,,,,,,,,,,,,,,1.0,2.0,14.0,3.0,,,,,130.85722920000262,,,,,,,,,,,,,,,,,130.84132279999903,132.04028129999642,132.84090670000296,132.82419539999682,,,,,,,,,,,,,,,,132.8286786999961,132.84090670000296,132.84090670000296,133.3269952999981,g,1.0,0.4792954000004101,,133.327821400002,133.34088699999847,134.3242207000003,134.33980489999522,,,,,,,,,,,,,,,,,,,sub-001,1,stroop_test,59.99545234326013,
,,,,15.0,3.0,1.0,,,,,rot,blue,b,0.0,b,1.0,0.565895100007765,,,,,,,,,,,,,,1.0,3.0,15.0,2.0,,,,,134.33980489999522,,,,,,,,,,,,,,,,,134.32466260000365,135.14000319999468,135.9405531999946,135.92443980000098,,,,,,,,,,,,,,,,135.92514399999345,135.9405531999946,135.9405531999946,136.50831979999202,b,1.0,0.565895100007765,,136.50909829999728,136.52322030000505,137.50658839999232,137.5230673000042,,,,,,,,,,,,,,,,,,,sub-001,1,stroop_test,59.99545234326013,
,,,,16.0,4.0,1.0,,,,,rot,red,r,1.0,r,1.0,0.4483013999997638,,,,,,,,,,,,,,1.0,4.0,16.0,1.0,,,,,137.5230673000042,,,,,,,,,,,,,,,,,137.5070401999983,138.72309129999485,139.5227237999934,139.50720429999637,,,,,,,,,,,,,,,,139.5079243999935,139.5227237999934,139.5227237999934,139.9741597999964,r,1.0,0.4483013999997638,,139.97491720000107,139.98937559999467,140.9734419000015,140.98885350000637,,,,,,,,,,,,,,,,,,,sub-001,1,stroop_test,59.99545234326013,
,,,,17.0,5.0,1.0,,,,,blau,blue,b,1.0,b,1.0,0.5494115000037709,,,,,,,,,,,,,,1.0,5.0,17.0,6.0,,,,,140.98885350000637,,,,,,,,,,,,,,,,,140.97387790000357,142.1894628000009,143.00962979999895,142.99240550000104,,,,,,,,,,,,,,,,142.99841810000362,143.00962979999895,143.00962979999895,143.57371680000506,b,1.0,0.5494115000037709,,143.5744893999945,143.58874710000237,144.5723971999978,144.58864069999254,,,,,,,,,,,,,,,,,,,sub-001,1,stroop_test,59.99545234326013,
,,,,18.0,6.0,1.0,,,,,gelb,yellow,g,1.0,g,1.0,0.5090964999981225,,,,,,,,,,,,,,1.0,6.0,18.0,11.0,,,,,144.58864069999254,,,,,,,,,,,,,,,,,144.57282479999412,145.3878890000051,146.18830219999654,146.1715425000002,,,,,,,,,,,,,,,,146.17595360000269,146.18830219999654,146.18830219999654,146.70655659999466,g,1.0,0.5090964999981225,,146.7072998999938,146.72125159999996,147.70562229999632,147.7209673000034,,,,,,,,,,,,,,,,,,,sub-001,1,stroop_test,59.99545234326013,
,,,,19.0,7.0,1.0,,,,,blau,red,r,0.0,r,1.0,0.5590792000002693,,,,,,,,,,,,,,1.0,7.0,19.0,4.0,,,,,147.7209673000034,,,,,,,,,,,,,,,,,147.70607729999756,148.0711214000039,148.8734129999939,148.85527519999596,,,,,,,,,,,,,,,,148.86033250000037,148.8734129999939,148.8734129999939,149.43906419999257,r,1.0,0.5590792000002693,,149.43980039999587,149.45398099999875,150.4382481999928,150.4537788000016,,,,,,,,,,,,,,,,,,,sub-001,1,stroop_test,59.99545234326013,
,,,,20.0,8.0,1.0,,,,,gelb,blue,b,0.0,b,1.0,0.3467218000005232,,,,,,,,,,,,,,1.0,8.0,20.0,9.0,,,,,150.4537788000016,,,,,,,,,,,,,,,,,150.43869759999507,150.55385939999542,151.35546199999226,151.33831669999927,,,,,,,,,,,,,,,,151.34300179999263,151.35546199999226,151.35546199999226,151.70538990000205,b,1.0,0.3467218000005232,,151.70615080000425,151.72036350000417,152.70412300000316,152.71988989999227,,,,,,,,,,,,,,,,,,,sub-001,1,stroop_test,59.99545234326013,
,,,,21.0,9.0,1.0,,,,,rot,red,r,1.0,r,1.0,0.4620379000116372,,,,,,,,,,,,,,1.0,9.0,21.0,0.0,,,,,152.71988989999227,,,,,,,,,,,,,,,,,152.70456519999425,153.51955159999488,154.32199240000045,154.30412319999596,,,,,,,,,,,,,,,,154.3091526000062,154.32199240000045,154.32199240000045,154.78839889999654,r,1.0,0.4620379000116372,,154.78917889999866,154.80315239999618,155.78725239999767,155.80324660000042,,,,,,,,,,,,,,,,,,,sub-001,1,stroop_test,59.99545234326013,
,,,,22.0,10.0,1.0,,,,,blau,blue,b,1.0,b,1.0,0.466386699990835,,,,,,,,,,,,,,1.0,10.0,22.0,5.0,,,,,155.80324660000042,,,,,,,,,,,,,,,,,155.78768739999214,156.60256610000215,157.41473410000617,157.38692540000193,,,,,,,,,,,,,,,,157.39248539999244,157.41473410000617,157.41473410000617,157.88852350000525,b,1.0,0.466386699990835,,157.88928560000204,157.9030225000024,158.8865353000001,158.90355210000416,,,,,,,,,,,,,,,,,,,sub-001,1,stroop_test,59.99545234326013,
,,,,23.0,11.0,1.0,,,,,gelb,red,r,0.0,r,1.0,0.8025672999938251,,,,,,,,,,,,,,1.0,11.0,23.0,8.0,,,,,158.90355210000416,,,,,,,,,,,,,,,,,158.88698169999407,159.70231510000303,160.50425600000017,160.48644759999297,,,,,,,,,,,,,,,,160.49106679999386,160.50425600000017,160.50425600000017,161.31961960000626,r,1.0,0.8025672999938251,,161.3203601999994,161.33501660000184,162.31914730000426,162.3348779999942,,,,,,,,,,,,,,,,,,,sub-001,1,stroop_test,59.99545234326013,
,,,,,,,,,,,,,,,,,,,,,,,,,,,,,,,,,,,,,,,,,,,,,,,,,,,,,,,,,,,,,,,,,,,,,,,,,,,,,,,,,,,,,,,162.31934259999252,162.3348779999942,162.3348779999942,166.68695750000188,space,4.338577900009113,,,,,,,,,,,,,sub-001,1,stroop_test,59.99545234326013,
,,,,0.0,0.0,0.0,,,,,,,,,,,,,blau,blue,b,1.0,b,1.0,0.5784187999961432,,,,,,,,,,0.0,0.0,0.0,6.0,166.73299289999704,,,,,,,,,,,,,,,,,166.72583490000395,166.80121689999942,167.60741509999207,167.5865107999998,,,,,,,,,,,,,,,,,,,,,,,,,,,,,,,,,,,167.5932524999953,167.60741509999207,167.60741509999207,168.20239160000347,b,1.0,0.5784187999961432,,,,,sub-001,1,stroop_test,59.99545234326013,
,,,,1.0,1.0,0.0,,,,,,,,,,,,,blau,yellow,g,0.0,g,1.0,0.5499995999998646,,,,,,,,,,0.0,1.0,1.0,7.0,168.2177093000064,,,,,,,,,,,,,,,,,168.20289479999337,169.4176077000011,170.21695190000173,170.2010675000056,,,,,,,,,,,,,,,,,,,,,,,,,,,,,,,,,,,170.2017588000017,170.21695190000173,170.21695190000173,170.76865490000637,g,1.0,0.5499995999998646,,,,,sub-001,1,stroop_test,59.99545234326013,
,,,,2.0,2.0,0.0,,,,,,,,,,,,,blau,blue,b,1.0,b,1.0,0.5051559999992605,,,,,,,,,,0.0,2.0,2.0,5.0,170.7834406000038,,,,,,,,,,,,,,,,,170.76924160000635,171.98297949999687,172.78940700000385,172.77410120000422,,,,,,,,,,,,,,,,,,,,,,,,,,,,,,,,,,,172.77530749999278,172.78940700000385,172.78940700000385,173.30191789999662,b,1.0,0.5051559999992605,,,,,sub-001,1,stroop_test,59.99545234326013,
,,,,3.0,3.0,0.0,,,,,,,,,,,,,rot,red,r,1.0,r,1.0,0.4585865999979432,,,,,,,,,,0.0,3.0,3.0,0.0,173.3165944999928,,,,,,,,,,,,,,,,,173.30244119999406,174.11646360000304,174.92107300000498,174.90028980000352,,,,,,,,,,,,,,,,,,,,,,,,,,,,,,,,,,,174.90667840000242,174.92107300000498,174.92107300000498,175.38437810000323,r,1.0,0.4585865999979432,,,,,sub-001,1,stroop_test,59.99545234326013,
,,,,4.0,4.0,0.0,,,,,,,,,,,,,gelb,red,r,0.0,r,1.0,0.5008871999889379,,,,,,,,,,0.0,4.0,4.0,8.0,175.39956999999413,,,,,,,,,,,,,,,,,175.38490479999746,176.5993446999928,177.4002838000015,177.38331160000234,,,,,,,,,,,,,,,,,,,,,,,,,,,,,,,,,,,177.38785509999434,177.4002838000015,177.4002838000015,177.91668700000446,r,1.0,0.5008871999889379,,,,,sub-001,1,stroop_test,59.99545234326013,
,,,,5.0,5.0,0.0,,,,,,,,,,,,,rot,red,r,1.0,r,1.0,0.3508794999943347,,,,,,,,,,0.0,5.0,5.0,1.0,177.93271779999486,,,,,,,,,,,,,,,,,177.9172108000057,179.13211229999433,179.93378289999964,179.91594059999625,,,,,,,,,,,,,,,,,,,,,,,,,,,,,,,,,,,179.92081870000402,179.93378289999964,179.93378289999964,180.29966039999272,r,1.0,0.3508794999943347,,,,,sub-001,1,stroop_test,59.99545234326013,
,,,,6.0,6.0,0.0,,,,,,,,,,,,,gelb,yellow,g,1.0,g,1.0,0.3946838999981992,,,,,,,,,,0.0,6.0,6.0,10.0,180.3151588000037,,,,,,,,,,,,,,,,,180.3001690999954,181.51484370000253,182.3158317000052,182.29909190000035,,,,,,,,,,,,,,,,,,,,,,,,,,,,,,,,,,,182.30371150000428,182.3158317000052,182.3158317000052,182.71738170000023,g,1.0,0.3946838999981992,,,,,sub-001,1,stroop_test,59.99545234326013,
,,,,7.0,7.0,0.0,,,,,,,,,,,,,rot,yellow,g,0.0,r,0.0,0.7062460000015562,,,,,,,,,,0.0,7.0,7.0,3.0,182.73218890000132,,,,,,,,,,,,,,,,,182.71789679999347,183.9313422999985,184.73322270000065,184.71548579999944,,,,,,,,,,,,,,,,,,,,,,,,,,,,,,,,,,,184.72048960000396,184.73322270000065,184.73322270000065,185.4489582999959,r,0.0,0.7062460000015562,,,,,sub-001,1,stroop_test,59.99545234326013,
,,,,8.0,8.0,0.0,,,,,,,,,,,,,rot,blue,b,0.0,b,1.0,0.65336730000854,,,,,,,,,,0.0,8.0,8.0,2.0,185.46424919999845,,,,,,,,,,,,,,,,,185.44949270000507,186.24843619999592,187.0500822000031,187.0338894000015,,,,,,,,,,,,,,,,,,,,,,,,,,,,,,,,,,,187.0352572999982,187.0500822000031,187.0500822000031,187.71733369999856,b,1.0,0.65336730000854,,,,,sub-001,1,stroop_test,59.99545234326013,
,,,,9.0,9.0,0.0,,,,,,,,,,,,,blau,red,r,0.0,r,1.0,0.7911978000047384,,,,,,,,,,0.0,9.0,9.0,4.0,187.73142219999863,,,,,,,,,,,,,,,,,187.71839219999677,187.8314929000044,188.64235619999815,188.6158577000024,,,,,,,,,,,,,,,,,,,,,,,,,,,,,,,,,,,188.629219800001,188.64235619999815,188.64235619999815,189.45041920000224,r,1.0,0.7911978000047384,,,,,sub-001,1,stroop_test,59.99545234326013,
,,,,10.0,10.0,0.0,,,,,,,,,,,,,gelb,yellow,g,1.0,g,1.0,0.5508440000121482,,,,,,,,,,0.0,10.0,10.0,11.0,189.46468999999345,,,,,,,,,,,,,,,,,189.45144799999247,190.66427439999825,191.4731341000006,191.4491073999961,,,,,,,,,,,,,,,,,,,,,,,,,,,,,,,,,,,191.4605865000049,191.4731341000006,191.4731341000006,192.0314201000001,g,1.0,0.5508440000121482,,,,,sub-001,1,stroop_test,59.99545234326013,
,,,,11.0,11.0,0.0,,,,,,,,,,,,,gelb,blue,b,0.0,b,1.0,0.3291104000090854,,,,,,,,,,0.0,11.0,11.0,9.0,192.04592380000395,,,,,,,,,,,,,,,,,192.03190010000253,193.2294562000025,194.0308025999984,194.01455859999987,,,,,,,,,,,,,,,,,,,,,,,,,,,,,,,,,,,194.01534879999235,194.0308025999984,194.0308025999984,194.3654208999942,b,1.0,0.3291104000090854,,,,,sub-001,1,stroop_test,59.99545234326013,
,,,,12.0,0.0,1.0,,,,,,,,,,,,,blau,yellow,g,0.0,g,1.0,0.5171546000055969,,,,,,,,,,1.0,0.0,12.0,7.0,194.3801603000029,,,,,,,,,,,,,,,,,194.36600019999605,195.5790714000032,196.38036979999745,196.36283070000357,,,,,,,,,,,,,,,,,,,,,,,,,,,,,,,,,,,196.3678224000032,196.38036979999745,196.38036979999745,196.91383229999337,g,1.0,0.5171546000055969,,,,,sub-001,1,stroop_test,59.99545234326013,
,,,,13.0,1.0,1.0,,,,,,,,,,,,,blau,blue,b,1.0,b,1.0,0.5677388000040082,,,,,,,,,,1.0,1.0,13.0,5.0,196.9286209999991,,,,,,,,,,,,,,,,,196.91437589999987,197.27853979999784,198.07875679999412,198.06234699999916,,,,,,,,,,,,,,,,,,,,,,,,,,,,,,,,,,,198.06299710000167,198.07875679999412,198.07875679999412,198.6629549999925,b,1.0,0.5677388000040082,,,,,sub-001,1,stroop_test,59.99545234326013,
,,,,14.0,2.0,1.0,,,,,,,,,,,,,rot,red,r,1.0,r,1.0,0.4361716999992495,,,,,,,,,,1.0,2.0,14.0,0.0,198.67825230000017,,,,,,,,,,,,,,,,,198.6634689999919,199.87819699999815,200.68047910000317,200.66284380000437,,,,,,,,,,,,,,,,,,,,,,,,,,,,,,,,,,,200.66780739999376,200.68047910000317,200.68047910000317,201.12941310000315,r,1.0,0.4361716999992495,,,,,sub-001,1,stroop_test,59.99545234326013,
,,,,15.0,3.0,1.0,,,,,,,,,,,,,gelb,yellow,g,1.0,g,1.0,0.4990382999967551,,,,,,,,,,1.0,3.0,15.0,10.0,201.14491639999324,,,,,,,,,,,,,,,,,201.12992189999204,201.4786105999956,202.2966730000044,202.2791780999978,,,,,,,,,,,,,,,,,,,,,,,,,,,,,,,,,,,202.28375079999387,202.2966730000044,202.2966730000044,202.812494400001,g,1.0,0.4990382999967551,,,,,sub-001,1,stroop_test,59.99545234326013,
,,,,16.0,4.0,1.0,,,,,,,,,,,,,rot,red,r,1.0,r,1.0,0.4243013999948744,,,,,,,,,,1.0,4.0,16.0,1.0,202.8274253999989,,,,,,,,,,,,,,,,,202.81299639999636,204.02779379999265,204.8400767999992,204.8117048999993,,,,,,,,,,,,,,,,,,,,,,,,,,,,,,,,,,,204.8172568000009,204.8400767999992,204.8400767999992,205.2791184999951,r,1.0,0.4243013999948744,,,,,sub-001,1,stroop_test,59.99545234326013,
,,,,17.0,5.0,1.0,,,,,,,,,,,,,blau,blue,b,1.0,b,1.0,0.3678098999953363,,,,,,,,,,1.0,5.0,17.0,6.0,205.29384149999527,,,,,,,,,,,,,,,,,205.2796359000058,205.64392309999675,206.44963819999248,206.42821759999788,,,,,,,,,,,,,,,,,,,,,,,,,,,,,,,,,,,206.4332804000005,206.44963819999248,206.44963819999248,206.82836800000223,b,1.0,0.3678098999953363,,,,,sub-001,1,stroop_test,59.99545234326013,
,,,,18.0,6.0,1.0,,,,,,,,,,,,,gelb,blue,b,0.0,b,1.0,0.5065317999979015,,,,,,,,,,1.0,6.0,18.0,9.0,206.8435565999971,,,,,,,,,,,,,,,,,206.8289223000029,207.6437428999925,208.4443792999955,208.4275309999939,,,,,,,,,,,,,,,,,,,,,,,,,,,,,,,,,,,208.4319526000036,208.4443792999955,208.4443792999955,208.9610277000029,b,1.0,0.5065317999979015,,,,,sub-001,1,stroop_test,59.99545234326013,
,,,,19.0,7.0,1.0,,,,,,,,,,,,,rot,yellow,g,0.0,g,1.0,0.711746500004665,,,,,,,,,,1.0,7.0,19.0,3.0,208.97660150000596,,,,,,,,,,,,,,,,,208.9615059999924,209.07664410000143,209.87847510000572,209.86076359999424,,,,,,,,,,,,,,,,,,,,,,,,,,,,,,,,,,,209.86563329999623,209.87847510000572,209.87847510000572,210.59434260000128,g,1.0,0.711746500004665,,,,,sub-001,1,stroop_test,59.99545234326013,
,,,,20.0,8.0,1.0,,,,,,,,,,,,,gelb,red,r,0.0,r,1.0,0.5185504999972181,,,,,,,,,,1.0,8.0,20.0,8.0,210.6094738999964,,,,,,,,,,,,,,,,,210.59483159999945,211.80989509999927,212.61028150000493,212.59361189999615,,,,,,,,,,,,,,,,,,,,,,,,,,,,,,,,,,,212.59813879999277,212.61028150000493,212.61028150000493,213.14412959999757,r,1.0,0.5185504999972181,,,,,sub-001,1,stroop_test,59.99545234326013,
,,,,21.0,9.0,1.0,,,,,,,,,,,,,blau,red,r,0.0,r,1.0,0.5511796999926446,,,,,,,,,,1.0,9.0,21.0,4.0,213.15943410000185,,,,,,,,,,,,,,,,,213.14463650000107,213.9592986999924,214.771141499994,214.74317099999465,,,,,,,,,,,,,,,,,,,,,,,,,,,,,,,,,,,214.74873099999968,214.771141499994,214.771141499994,215.3278054999973,r,1.0,0.5511796999926446,,,,,sub-001,1,stroop_test,59.99545234326013,
,,,,22.0,10.0,1.0,,,,,,,,,,,,,rot,blue,b,0.0,b,1.0,0.5086833999957889,,,,,,,,,,1.0,10.0,22.0,2.0,215.3437680000061,,,,,,,,,,,,,,,,,215.32832109999435,215.44230249999964,216.24412669999583,216.22614389999944,,,,,,,,,,,,,,,,,,,,,,,,,,,,,,,,,,,216.23104539999625,216.24412669999583,216.24412669999583,216.7608743000019,b,1.0,0.5086833999957889,,,,,sub-001,1,stroop_test,59.99545234326013,
,,,,23.0,11.0,1.0,,,,,,,,,,,,,gelb,yellow,g,1.0,g,1.0,0.4479006999899866,,,,,,,,,,1.0,11.0,23.0,11.0,216.7751481000014,,,,,,,,,,,,,,,,,216.7613937999995,216.87567690000287,217.6769529000012,217.6593162000063,,,,,,,,,,,,,,,,,,,,,,,,,,,,,,,,,,,217.6641901999974,217.6769529000012,217.6769529000012,218.12678700000103,g,1.0,0.4479006999899866,,,,,sub-001,1,stroop_test,59.99545234326013,
,,,,24.0,0.0,2.0,,,,,,,,,,,,,blau,blue,b,1.0,b,1.0,0.5296971999923699,,,,,,,,,,2.0,0.0,24.0,5.0,218.14355720000455,,,,,,,,,,,,,,,,,218.12730259999807,218.941619499994,219.74375280000092,219.725812699995,,,,,,,,,,,,,,,,,,,,,,,,,,,,,,,,,,,219.73076930000389,219.74375280000092,219.74375280000092,220.27615299999889,b,1.0,0.5296971999923699,,,,,sub-001,1,stroop_test,59.99545234326013,
,,,,25.0,1.0,2.0,,,,,,,,,,,,,gelb,red,r,0.0,r,1.0,0.7842425999988336,,,,,,,,,,2.0,1.0,25.0,8.0,220.29439799999815,,,,,,,,,,,,,,,,,220.2766967000061,220.3913876000006,221.1922387999948,221.1753299999982,,,,,,,,,,,,,,,,,,,,,,,,,,,,,,,,,,,221.17992300000333,221.1922387999948,221.1922387999948,221.9928407999978,r,1.0,0.7842425999988336,,,,,sub-001,1,stroop_test,59.99545234326013,
,,,,26.0,2.0,2.0,,,,,,,,,,,,,gelb,yellow,g,1.0,g,1.0,0.4763235999998869,,,,,,,,,,2.0,2.0,26.0,11.0,222.00799270000425,,,,,,,,,,,,,,,,,221.99340530000336,222.3574129000044,223.15728149999632,223.1414833000017,,,,,,,,,,,,,,,,,,,,,,,,,,,,,,,,,,,223.1422137000045,223.15728149999632,223.15728149999632,223.6427060999995,g,1.0,0.4763235999998869,,,,,sub-001,1,stroop_test,59.99545234326013,
,,,,27.0,3.0,2.0,,,,,,,,,,,,,rot,red,r,1.0,r,1.0,0.3622576000052504,,,,,,,,,,2.0,3.0,27.0,1.0,223.6575351999927,,,,,,,,,,,,,,,,,223.6432316999999,224.85700859999636,225.66929799999343,225.64119599999685,,,,,,,,,,,,,,,,,,,,,,,,,,,,,,,,,,,225.6465457000013,225.66929799999343,225.66929799999343,226.0421639999986,r,1.0,0.3622576000052504,,,,,sub-001,1,stroop_test,59.99545234326013,
,,,,28.0,4.0,2.0,,,,,,,,,,,,,blau,yellow,g,0.0,g,1.0,0.790538800007198,,,,,,,,,,2.0,4.0,28.0,7.0,226.05684380000457,,,,,,,,,,,,,,,,,226.04268379999849,227.2562981999945,228.05835110000044,228.0408635000058,,,,,,,,,,,,,,,,,,,,,,,,,,,,,,,,,,,228.0456603000057,228.05835110000044,228.05835110000044,228.8583016000048,g,1.0,0.790538800007198,,,,,sub-001,1,stroop_test,59.99545234326013,
,,,,29.0,5.0,2.0,,,,,,,,,,,,,gelb,yellow,g,1.0,g,1.0,0.4662532000074861,,,,,,,,,,2.0,5.0,29.0,10.0,228.87300459999824,,,,,,,,,,,,,,,,,228.85881479999807,229.67297260000487,230.4743034999992,230.45699910000255,,,,,,,,,,,,,,,,,,,,,,,,,,,,,,,,,,,230.46119820000604,230.4743034999992,230.4743034999992,230.9575554000039,g,1.0,0.4662532000074861,,,,,sub-001,1,stroop_test,59.99545234326013,
,,,,30.0,6.0,2.0,,,,,,,,,,,,,blau,blue,b,1.0,b,1.0,0.4652209000050789,,,,,,,,,,2.0,6.0,30.0,6.0,230.972841099996,,,,,,,,,,,,,,,,,230.958069100001,231.3226449999929,232.1247532999987,232.1069531999965,,,,,,,,,,,,,,,,,,,,,,,,,,,,,,,,,,,232.11184559999677,232.1247532999987,232.1247532999987,232.607070500002,b,1.0,0.4652209000050789,,,,,sub-001,1,stroop_test,59.99545234326013,
,,,,31.0,7.0,2.0,,,,,,,,,,,,,rot,red,r,1.0,r,1.0,0.403334900009213,,,,,,,,,,2.0,7.0,31.0,0.0,232.6223597999924,,,,,,,,,,,,,,,,,232.6075908000057,232.9720692999981,233.7744756000029,233.75665219999792,,,,,,,,,,,,,,,,,,,,,,,,,,,,,,,,,,,233.76173199999903,233.7744756000029,233.7744756000029,234.19052229999212,r,1.0,0.403334900009213,,,,,sub-001,1,stroop_test,59.99545234326013,
,,,,32.0,8.0,2.0,,,,,,,,,,,,,gelb,blue,b,0.0,b,1.0,0.3943582999927457,,,,,,,,,,2.0,8.0,32.0,9.0,234.2055767999991,,,,,,,,,,,,,,,,,234.19104190000508,234.30539449999924,235.1065388999996,235.08913599999505,,,,,,,,,,,,,,,,,,,,,,,,,,,,,,,,,,,235.0941840000014,235.1065388999996,235.1065388999996,235.5073665999953,b,1.0,0.3943582999927457,,,,,sub-001,1,stroop_test,59.99545234326013,
,,,,33.0,9.0,2.0,,,,,,,,,,,,,blau,red,r,0.0,r,1.0,0.384349599989946,,,,,,,,,,2.0,9.0,33.0,4.0,235.5221040000033,,,,,,,,,,,,,,,,,235.5078891000012,235.8714395999996,236.6731068999943,236.65556440000364,,,,,,,,,,,,,,,,,,,,,,,,,,,,,,,,,,,236.66048629999568,236.6731068999943,236.6731068999943,237.0726907000062,r,1.0,0.384349599989946,,,,,sub-001,1,stroop_test,59.99545234326013,
,,,,34.0,10.0,2.0,,,,,,,,,,,,,rot,yellow,g,0.0,g,1.0,0.3577660000009928,,,,,,,,,,2.0,10.0,34.0,3.0,237.08833050000248,,,,,,,,,,,,,,,,,237.07318690000105,237.8882190000004,238.68950969999423,238.67174829999567,,,,,,,,,,,,,,,,,,,,,,,,,,,,,,,,,,,238.67676459999348,238.68950969999423,238.68950969999423,239.05625809999765,g,1.0,0.3577660000009928,,,,,sub-001,1,stroop_test,59.99545234326013,
,,,,35.0,11.0,2.0,,,,,,,,,,,,,rot,blue,b,0.0,b,1.0,0.3627304999972693,,,,,,,,,,2.0,11.0,35.0,2.0,239.0714328000031,,,,,,,,,,,,,,,,,239.05676370000583,240.2711206999957,241.07112069999857,241.0551764999982,,,,,,,,,,,,,,,,,,,,,,,,,,,,,,,,,,,241.05585609999247,241.07112069999857,241.07112069999857,241.4394174000045,b,1.0,0.3627304999972693,,,,,sub-001,1,stroop_test,59.99545234326013,
,,,,36.0,0.0,3.0,,,,,,,,,,,,,blau,red,r,0.0,g,0.0,0.4401568000030238,,,,,,,,,,3.0,0.0,36.0,4.0,241.4539243000036,,,,,,,,,,,,,,,,,241.439916599993,242.65428649999376,243.4561973999953,243.4379931000003,,,,,,,,,,,,,,,,,,,,,,,,,,,,,,,,,,,243.4429613999964,243.4561973999953,243.4561973999953,243.9053430000058,g,0.0,0.4401568000030238,,,,,sub-001,1,stroop_test,59.99545234326013,
,,,,37.0,1.0,3.0,,,,,,,,,,,,,blau,blue,b,1.0,b,1.0,0.5030450000049314,,,,,,,,,,3.0,1.0,37.0,5.0,243.9206878999976,,,,,,,,,,,,,,,,,243.90584180000587,244.27008170000045,245.07018149999203,245.05447780000395,,,,,,,,,,,,,,,,,,,,,,,,,,,,,,,,,,,245.0553153999936,245.07018149999203,245.07018149999203,245.58778060000623,b,1.0,0.5030450000049314,,,,,sub-001,1,stroop_test,59.99545234326013,
,,,,38.0,2.0,3.0,,,,,,,,,,,,,gelb,yellow,g,1.0,g,1.0,0.5639271999971243,,,,,,,,,,3.0,2.0,38.0,11.0,245.60316820000295,,,,,,,,,,,,,,,,,245.58831540000392,245.70330690000264,246.5047371999972,246.4872994000034,,,,,,,,,,,,,,,,,,,,,,,,,,,,,,,,,,,246.49193540000124,246.5047371999972,246.5047371999972,247.07109919999493,g,1.0,0.5639271999971243,,,,,sub-001,1,stroop_test,59.99545234326013,
,,,,39.0,3.0,3.0,,,,,,,,,,,,,blau,yellow,g,0.0,g,1.0,0.4767745999997714,,,,,,,,,,3.0,3.0,39.0,7.0,247.08645230000548,,,,,,,,,,,,,,,,,247.07161899999485,247.42014390000256,248.22169399999257,248.20365080000192,,,,,,,,,,,,,,,,,,,,,,,,,,,,,,,,,,,248.2090182999964,248.22169399999257,248.22169399999257,248.7047408999933,g,1.0,0.4767745999997714,,,,,sub-001,1,stroop_test,59.99545234326013,
,,,,40.0,4.0,3.0,,,,,,,,,,,,,rot,red,r,1.0,r,1.0,0.405146799996146,,,,,,,,,,3.0,4.0,40.0,1.0,248.71941859999788,,,,,,,,,,,,,,,,,248.70526590000367,249.91955629999572,250.7214141000004,250.70351530000332,,,,,,,,,,,,,,,,,,,,,,,,,,,,,,,,,,,250.70849059999452,250.7214141000004,250.7214141000004,251.1372929000063,r,1.0,0.405146799996146,,,,,sub-001,1,stroop_test,59.99545234326013,
,,,,41.0,5.0,3.0,,,,,,,,,,,,,gelb,yellow,g,1.0,r,0.0,0.3103618000022834,,,,,,,,,,3.0,5.0,41.0,10.0,251.1523204999976,,,,,,,,,,,,,,,,,251.13779540000544,252.35182120000536,253.1531449000031,253.13607619999675,,,,,,,,,,,,,,,,,,,,,,,,,,,,,,,,,,,253.14069080000627,253.1531449000031,253.1531449000031,253.4703531999985,r,0.0,0.3103618000022834,,,,,sub-001,1,stroop_test,59.99545234326013,
,,,,42.0,6.0,3.0,,,,,,,,,,,,,gelb,blue,b,0.0,b,1.0,1.1455834999942454,,,,,,,,,,3.0,6.0,42.0,9.0,253.48606719999225,,,,,,,,,,,,,,,,,253.4708568999922,254.2848820999934,255.08573160000375,255.0696877000009,,,,,,,,,,,,,,,,,,,,,,,,,,,,,,,,,,,255.0704087000049,255.08573160000375,255.08573160000375,256.23606650000147,b,1.0,1.1455834999942454,,,,,sub-001,1,stroop_test,59.99545234326013,
,,,,43.0,7.0,3.0,,,,,,,,,,,,,rot,yellow,g,0.0,g,1.0,1.46930070000235,,,,,,,,,,3.0,7.0,43.0,3.0,256.2511705999932,,,,,,,,,,,,,,,,,256.2365829000046,257.05122939999274,257.8536478000024,257.8357030000043,,,,,,,,,,,,,,,,,,,,,,,,,,,,,,,,,,,257.8405531000026,257.8536478000024,257.8536478000024,259.3353377000021,g,1.0,1.46930070000235,,,,,sub-001,1,stroop_test,59.99545234326013,
,,,,44.0,8.0,3.0,,,,,,,,,,,,,blau,blue,b,1.0,b,1.0,0.5154865000076825,,,,,,,,,,3.0,8.0,44.0,6.0,259.3503797000012,,,,,,,,,,,,,,,,,259.3358004000038,259.4506679000042,260.2520652999956,260.2347383000015,,,,,,,,,,,,,,,,,,,,,,,,,,,,,,,,,,,260.23957819999487,260.2520652999956,260.2520652999956,260.7691541999957,b,1.0,0.5154865000076825,,,,,sub-001,1,stroop_test,59.99545234326013,
,,,,45.0,9.0,3.0,,,,,,,,,,,,,rot,red,r,1.0,r,1.0,0.4745306000113487,,,,,,,,,,3.0,9.0,45.0,0.0,260.7842879999953,,,,,,,,,,,,,,,,,260.769676099997,260.88408119999804,261.68630020000273,261.6684005999996,,,,,,,,,,,,,,,,,,,,,,,,,,,,,,,,,,,261.67376859999786,261.68630020000273,261.68630020000273,262.1692105999973,r,1.0,0.4745306000113487,,,,,sub-001,1,stroop_test,59.99545234326013,
,,,,46.0,10.0,3.0,,,,,,,,,,,,,rot,blue,b,0.0,b,1.0,0.7419914000056451,,,,,,,,,,3.0,10.0,46.0,2.0,262.1838773000054,,,,,,,,,,,,,,,,,262.1697389000037,262.2833609999944,263.0837985999969,263.067847600003,,,,,,,,,,,,,,,,,,,,,,,,,,,,,,,,,,,263.068531500001,263.0837985999969,263.0837985999969,263.83506329999364,b,1.0,0.7419914000056451,,,,,sub-001,1,stroop_test,59.99545234326013,
,,,,47.0,11.0,3.0,,,,,,,,,,,,,gelb,red,r,0.0,r,1.0,0.5317625000025146,,,,,,,,,,3.0,11.0,47.0,8.0,263.8497478000063,,,,,,,,,,,,,,,,,263.8355656000058,263.95009250000294,264.7502042999986,264.7336295999994,,,,,,,,,,,,,,,,,,,,,,,,,,,,,,,,,,,264.7381733999937,264.7502042999986,264.7502042999986,265.2849137000012,r,1.0,0.5317625000025146,,,,,sub-001,1,stroop_test,59.99545234326013,
,,,,48.0,0.0,4.0,,,,,,,,,,,,,rot,blue,b,0.0,b,1.0,0.6493869999976596,,,,,,,,,,4.0,0.0,48.0,2.0,265.2999931999948,,,,,,,,,,,,,,,,,265.28545880000456,266.0995705999958,266.9014679999964,266.8835064000013,,,,,,,,,,,,,,,,,,,,,,,,,,,,,,,,,,,266.8885150999995,266.9014679999964,266.9014679999964,267.5681227000023,b,1.0,0.6493869999976596,,,,,sub-001,1,stroop_test,59.99545234326013,
,,,,49.0,1.0,4.0,,,,,,,,,,,,,gelb,blue,b,0.0,b,1.0,0.4374738999904366,,,,,,,,,,4.0,1.0,49.0,9.0,267.582788899992,,,,,,,,,,,,,,,,,267.56864129999303,267.6823283999984,268.4840349000005,268.4667180999968,,,,,,,,,,,,,,,,,,,,,,,,,,,,,,,,,,,268.471315200004,268.4840349000005,268.4840349000005,268.9337288999959,b,1.0,0.4374738999904366,,,,,sub-001,1,stroop_test,59.99545234326013,
,,,,50.0,2.0,4.0,,,,,,,,,,,,,gelb,yellow,g,1.0,g,1.0,1.164685499999905,,,,,,,,,,4.0,2.0,50.0,11.0,268.94891310000094,,,,,,,,,,,,,,,,,268.9342600999953,269.29889010000625,270.09869879999314,270.08336679999775,,,,,,,,,,,,,,,,,,,,,,,,,,,,,,,,,,,270.084065499992,270.09869879999314,270.09869879999314,271.2674706999969,g,1.0,1.164685499999905,,,,,sub-001,1,stroop_test,59.99545234326013,
,,,,51.0,3.0,4.0,,,,,,,,,,,,,rot,red,r,1.0,r,1.0,0.4383889000018826,,,,,,,,,,4.0,3.0,51.0,0.0,271.28171690000454,,,,,,,,,,,,,,,,,271.26801929999783,272.4819284999976,273.2846208999981,273.2658511000045,,,,,,,,,,,,,,,,,,,,,,,,,,,,,,,,,,,273.2719122999988,273.2846208999981,273.2846208999981,273.7332635000057,r,1.0,0.4383889000018826,,,,,sub-001,1,stroop_test,59.99545234326013,
,,,,52.0,4.0,4.0,,,,,,,,,,,,,rot,yellow,g,0.0,r,0.0,0.446618000001763,,,,,,,,,,4.0,4.0,52.0,3.0,273.74852459999966,,,,,,,,,,,,,,,,,273.73376439999265,274.0979160999996,274.8983150999993,274.88236429999233,,,,,,,,,,,,,,,,,,,,,,,,,,,,,,,,,,,274.88304600000265,274.8983150999993,274.8983150999993,275.34957170000416,r,0.0,0.446618000001763,,,,,sub-001,1,stroop_test,59.99545234326013,
,,,,53.0,5.0,4.0,,,,,,,,,,,,,rot,red,r,1.0,r,1.0,0.5618305999960285,,,,,,,,,,4.0,5.0,53.0,1.0,275.36469669999497,,,,,,,,,,,,,,,,,275.35009120000177,275.7144683999941,276.51440460000595,276.49859230000584,,,,,,,,,,,,,,,,,,,,,,,,,,,,,,,,,,,276.4992787999945,276.51440460000595,276.51440460000595,277.082825999998,r,1.0,0.5618305999960285,,,,,sub-001,1,stroop_test,59.99545234326013,
,,,,54.0,6.0,4.0,,,,,,,,,,,,,gelb,yellow,g,1.0,g,1.0,0.4901986000040779,,,,,,,,,,4.0,6.0,54.0,10.0,277.0978232000052,,,,,,,,,,,,,,,,,277.08336649999546,277.1974166,277.9992937000061,277.98160289999214,,,,,,,,,,,,,,,,,,,,,,,,,,,,,,,,,,,277.9867238000006,277.9992937000061,277.9992937000061,278.4990175999992,g,1.0,0.4901986000040779,,,,,sub-001,1,stroop_test,59.99545234326013,
,,,,55.0,7.0,4.0,,,,,,,,,,,,,blau,blue,b,1.0,b,1.0,0.4872956999897724,,,,,,,,,,4.0,7.0,55.0,6.0,278.51393980000285,,,,,,,,,,,,,,,,,278.49955110000155,279.3139100999979,280.1153281000006,280.09784930000023,,,,,,,,,,,,,,,,,,,,,,,,,,,,,,,,,,,280.1025416000048,280.1153281000006,280.1153281000006,280.6147711999947,b,1.0,0.4872956999897724,,,,,sub-001,1,stroop_test,59.99545234326013,
,,,,56.0,8.0,4.0,,,,,,,,,,,,,blau,red,r,0.0,r,1.0,0.9761426000040956,,,,,,,,,,4.0,8.0,56.0,4.0,280.6302144999936,,,,,,,,,,,,,,,,,280.6152884000039,281.41375710000284,282.2134162000002,282.1978100999986,,,,,,,,,,,,,,,,,,,,,,,,,,,,,,,,,,,282.19869279999693,282.2134162000002,282.2134162000002,283.198172000004,r,1.0,0.9761426000040956,,,,,sub-001,1,stroop_test,59.99545234326013,
,,,,57.0,9.0,4.0,,,,,,,,,,,,,blau,yellow,g,0.0,g,1.0,0.8149970999947982,,,,,,,,,,4.0,9.0,57.0,7.0,283.21309839999594,,,,,,,,,,,,,,,,,283.19869109999854,284.0132455999992,284.8128699999943,284.7977039999969,,,,,,,,,,,,,,,,,,,,,,,,,,,,,,,,,,,284.7983935999946,284.8128699999943,284.8128699999943,285.6309237999958,g,1.0,0.8149970999947982,,,,,sub-001,1,stroop_test,59.99545234326013,
,,,,58.0,10.0,4.0,,,,,,,,,,,,,gelb,red,r,0.0,r,1.0,1.1501125000067989,,,,,,,,,,4.0,10.0,58.0,8.0,285.64672269999573,,,,,,,,,,,,,,,,,285.63144509999256,285.7461934000021,286.54682040000625,286.5299629999936,,,,,,,,,,,,,,,,,,,,,,,,,,,,,,,,,,,286.53458029999456,286.54682040000625,286.54682040000625,287.7141496999975,r,1.0,1.1501125000067989,,,,,sub-001,1,stroop_test,59.99545234326013,
,,,,59.0,11.0,4.0,,,,,,,,,,,,,blau,blue,b,1.0,b,1.0,0.7016637999913655,,,,,,,,,,4.0,11.0,59.0,5.0,287.72926449999795,,,,,,,,,,,,,,,,,287.7146800000046,287.8290476999973,288.631286799995,288.61315509999986,,,,,,,,,,,,,,,,,,,,,,,,,,,,,,,,,,,288.6182109999936,288.631286799995,288.631286799995,289.3470843999967,b,1.0,0.7016637999913655,,,,,sub-001,1,stroop_test,59.99545234326013,
,,,,60.0,0.0,5.0,,,,,,,,,,,,,gelb,yellow,g,1.0,g,1.0,0.5197916000033729,,,,,,,,,,5.0,0.0,60.0,10.0,289.36213389999466,,,,,,,,,,,,,,,,,289.3477579000028,290.5619868999929,291.3626465999987,291.3460079999932,,,,,,,,,,,,,,,,,,,,,,,,,,,,,,,,,,,291.3504753000016,291.3626465999987,291.3626465999987,291.8964643999934,g,1.0,0.5197916000033729,,,,,sub-001,1,stroop_test,59.99545234326013,
,,,,61.0,1.0,5.0,,,,,,,,,,,,,gelb,red,r,0.0,r,1.0,0.7909990000043763,,,,,,,,,,5.0,1.0,61.0,8.0,291.9117165000061,,,,,,,,,,,,,,,,,291.8969648999919,293.1115950999956,293.91164249999565,293.89565330000187,,,,,,,,,,,,,,,,,,,,,,,,,,,,,,,,,,,293.8963564000005,293.91164249999565,293.91164249999565,294.7128217999998,r,1.0,0.7909990000043763,,,,,sub-001,1,stroop_test,59.99545234326013,
,,,,62.0,2.0,5.0,,,,,,,,,,,,,blau,blue,b,1.0,b,1.0,0.528417299996363,,,,,,,,,,5.0,2.0,62.0,6.0,294.7273387000023,,,,,,,,,,,,,,,,,294.71333389999927,294.8289652999956,295.6472913000034,295.62874770000053,,,,,,,,,,,,,,,,,,,,,,,,,,,,,,,,,,,295.6344106000033,295.6472913000034,295.6472913000034,296.1795487000054,b,1.0,0.528417299996363,,,,,sub-001,1,stroop_test,59.99545234326013,
,,,,63.0,3.0,5.0,,,,,,,,,,,,,rot,blue,b,0.0,b,1.0,0.4124385000031907,,,,,,,,,,5.0,3.0,63.0,2.0,296.1941703000048,,,,,,,,,,,,,,,,,296.18006590000005,296.29437780000444,297.095201300006,297.07791069999803,,,,,,,,,,,,,,,,,,,,,,,,,,,,,,,,,,,297.08268540000427,297.095201300006,297.095201300006,297.5123653000046,b,1.0,0.4124385000031907,,,,,sub-001,1,stroop_test,59.99545234326013,
,,,,64.0,4.0,5.0,,,,,,,,,,,,,rot,yellow,g,0.0,g,1.0,1.1919252000079723,,,,,,,,,,5.0,4.0,64.0,3.0,297.52736279999954,,,,,,,,,,,,,,,,,297.5128643000062,298.32732349999424,299.12706959999923,299.1112657000049,,,,,,,,,,,,,,,,,,,,,,,,,,,,,,,,,,,299.1119495000021,299.12706959999923,299.12706959999923,300.32981650000147,g,1.0,1.1919252000079723,,,,,sub-001,1,stroop_test,59.99545234326013,
,,,,65.0,5.0,5.0,,,,,,,,,,,,,blau,yellow,g,0.0,g,1.0,0.3689881000027526,,,,,,,,,,5.0,5.0,65.0,7.0,300.3434971999959,,,,,,,,,,,,,,,,,300.3303808000055,300.444848500003,301.2620745000022,301.24442079999426,,,,,,,,,,,,,,,,,,,,,,,,,,,,,,,,,,,301.2494274000055,301.2620745000022,301.2620745000022,301.6448856000061,g,1.0,0.3689881000027526,,,,,sub-001,1,stroop_test,59.99545234326013,
,,,,66.0,6.0,5.0,,,,,,,,,,,,,blau,red,r,0.0,r,1.0,0.7724807000049623,,,,,,,,,,5.0,6.0,66.0,4.0,301.6598704999924,,,,,,,,,,,,,,,,,301.6454745999945,302.4599836999987,303.2593035000027,303.24357659999805,,,,,,,,,,,,,,,,,,,,,,,,,,,,,,,,,,,303.2442897000001,303.2593035000027,303.2593035000027,304.0461209999921,r,1.0,0.7724807000049623,,,,,sub-001,1,stroop_test,59.99545234326013,
,,,,67.0,7.0,5.0,,,,,,,,,,,,,rot,red,r,1.0,r,1.0,0.4290940000064438,,,,,,,,,,5.0,7.0,67.0,1.0,304.0621886000008,,,,,,,,,,,,,,,,,304.04678609999246,304.8589932000032,305.6616850999999,305.64341109999805,,,,,,,,,,,,,,,,,,,,,,,,,,,,,,,,,,,305.6484703000024,305.6616850999999,305.6616850999999,306.0942039999936,r,1.0,0.4290940000064438,,,,,sub-001,1,stroop_test,59.99545234326013,
,,,,68.0,8.0,5.0,,,,,,,,,,,,,rot,red,r,1.0,r,1.0,0.3316812999983085,,,,,,,,,,5.0,8.0,68.0,0.0,306.10883319999266,,,,,,,,,,,,,,,,,306.09472249999817,306.2088778000034,307.0087061999948,306.99329519999446,,,,,,,,,,,,,,,,,,,,,,,,,,,,,,,,,,,306.9939527999959,307.0087061999948,307.0087061999948,307.3444899000024,r,1.0,0.3316812999983085,,,,,sub-001,1,stroop_test,59.99545234326013,
,,,,69.0,9.0,5.0,,,,,,,,,,,,,gelb,blue,b,0.0,g,0.0,0.6977954999892972,,,,,,,,,,5.0,9.0,69.0,9.0,307.35899389999395,,,,,,,,,,,,,,,,,307.3450271000038,308.55949549999787,309.3607399000029,309.3427490000031,,,,,,,,,,,,,,,,,,,,,,,,,,,,,,,,,,,309.3478712999932,309.3607399000029,309.3607399000029,310.0608845999959,g,0.0,0.6977954999892972,,,,,sub-001,1,stroop_test,59.99545234326013,
,,,,70.0,10.0,5.0,,,,,,,,,,,,,gelb,yellow,g,1.0,g,1.0,0.523457999996026,,,,,,,,,,5.0,10.0,70.0,11.0,310.0757236999925,,,,,,,,,,,,,,,,,310.06145449999894,310.42714640000486,311.23120239999844,311.2174429000006,,,,,,,,,,,,,,,,,,,,,,,,,,,,,,,,,,,311.21835629999987,311.23120239999844,311.23120239999844,311.76165420000325,g,1.0,0.523457999996026,,,,,sub-001,1,stroop_test,59.99545234326013,
,,,,71.0,11.0,5.0,,,,,,,,,,,,,blau,blue,b,1.0,b,1.0,0.5022171000018716,,,,,,,,,,5.0,11.0,71.0,5.0,311.7775724999956,,,,,,,,,,,,,,,,,311.7622337999928,312.9755349000043,313.7814608000044,313.7597781999939,,,,,,,,,,,,,,,,,,,,,,,,,,,,,,,,,,,313.76599010000064,313.7814608000044,313.7814608000044,314.29439339999226,b,1.0,0.5022171000018716,,,,,sub-001,1,stroop_test,59.99545234326013,
,,,,72.0,0.0,6.0,,,,,,,,,,,,,rot,red,r,1.0,g,0.0,0.4813775000075111,,,,,,,,,,6.0,0.0,72.0,1.0,314.30895469999814,,,,,,,,,,,,,,,,,314.29495830000087,314.40850469999714,315.21046119999664,315.1929314000008,,,,,,,,,,,,,,,,,,,,,,,,,,,,,,,,,,,315.1982754000055,315.21046119999664,315.21046119999664,315.70914779999293,g,0.0,0.4813775000075111,,,,,sub-001,1,stroop_test,59.99545234326013,
,,,,73.0,1.0,6.0,,,,,,,,,,,,,blau,red,r,0.0,r,1.0,0.5701811999897473,,,,,,,,,,6.0,1.0,73.0,4.0,315.72430919999897,,,,,,,,,,,,,,,,,315.70964800000365,316.9243912999955,317.7274510999996,317.70913400000427,,,,,,,,,,,,,,,,,,,,,,,,,,,,,,,,,,,317.7141680000059,317.7274510999996,317.7274510999996,318.31075679999776,r,1.0,0.5701811999897473,,,,,sub-001,1,stroop_test,59.99545234326013,
,,,,74.0,2.0,6.0,,,,,,,,,,,,,blau,blue,b,1.0,b,1.0,0.6001587000064319,,,,,,,,,,6.0,2.0,74.0,6.0,318.3262258000032,,,,,,,,,,,,,,,,,318.3113427000062,319.5237772999972,320.32482369999343,320.3082053999969,,,,,,,,,,,,,,,,,,,,,,,,,,,,,,,,,,,320.3089609000017,320.32482369999343,320.32482369999343,320.9418517000013,b,1.0,0.6001587000064319,,,,,sub-001,1,stroop_test,59.99545234326013,
,,,,75.0,3.0,6.0,,,,,,,,,,,,,gelb,yellow,g,1.0,g,1.0,0.574987299987697,,,,,,,,,,6.0,3.0,75.0,11.0,320.9568298999948,,,,,,,,,,,,,,,,,320.9424415999965,321.0571009999985,321.86051879999286,321.8418517999962,,,,,,,,,,,,,,,,,,,,,,,,,,,,,,,,,,,321.84696290000284,321.86051879999286,321.86051879999286,322.4419804000063,g,1.0,0.574987299987697,,,,,sub-001,1,stroop_test,59.99545234326013,
,,,,76.0,4.0,6.0,,,,,,,,,,,,,blau,blue,b,1.0,b,1.0,0.5023689999943599,,,,,,,,,,6.0,4.0,76.0,5.0,322.457158499994,,,,,,,,,,,,,,,,,322.44256809999933,322.809187699997,323.6272370999941,323.6077535999939,,,,,,,,,,,,,,,,,,,,,,,,,,,,,,,,,,,323.6146588999982,323.6272370999941,323.6272370999941,324.14168770000106,b,1.0,0.5023689999943599,,,,,sub-001,1,stroop_test,59.99545234326013,
,,,,77.0,5.0,6.0,,,,,,,,,,,,,gelb,red,r,0.0,r,1.0,0.8847010000026785,,,,,,,,,,6.0,5.0,77.0,8.0,324.1572969999979,,,,,,,,,,,,,,,,,324.1422824000037,325.3567426999944,326.1609166999988,326.1406921000016,,,,,,,,,,,,,,,,,,,,,,,,,,,,,,,,,,,326.14617979999457,326.1609166999988,326.1609166999988,327.05793209999683,r,1.0,0.8847010000026785,,,,,sub-001,1,stroop_test,59.99545234326013,
,,,,78.0,6.0,6.0,,,,,,,,,,,,,blau,yellow,g,0.0,g,1.0,0.618655199999921,,,,,,,,,,6.0,6.0,78.0,7.0,327.0726514999988,,,,,,,,,,,,,,,,,327.05850879999343,327.1723020000063,327.97633309999947,327.956071099994,,,,,,,,,,,,,,,,,,,,,,,,,,,,,,,,,,,327.9615425999946,327.97633309999947,327.97633309999947,328.60791710000194,g,1.0,0.618655199999921,,,,,sub-001,1,stroop_test,59.99545234326013,
,,,,79.0,7.0,6.0,,,,,,,,,,,,,gelb,blue,b,0.0,b,1.0,0.7829563999985112,,,,,,,,,,6.0,7.0,79.0,9.0,328.6227996999951,,,,,,,,,,,,,,,,,328.60846859999583,329.82163190000574,330.62552620000497,330.606102100006,,,,,,,,,,,,,,,,,,,,,,,,,,,,,,,,,,,330.61151170000085,330.62552620000497,330.62552620000497,331.4234258999932,b,1.0,0.7829563999985112,,,,,sub-001,1,stroop_test,59.99545234326013,
,,,,80.0,8.0,6.0,,,,,,,,,,,,,rot,red,r,1.0,r,1.0,0.454233699987526,,,,,,,,,,6.0,8.0,80.0,0.0,331.4410711999953,,,,,,,,,,,,,,,,,331.4239770999993,332.2385304000054,333.043628600004,333.0229949999921,,,,,,,,,,,,,,,,,,,,,,,,,,,,,,,,,,,333.02912079999805,333.043628600004,333.043628600004,333.5070407000021,r,1.0,0.454233699987526,,,,,sub-001,1,stroop_test,59.99545234326013,
,,,,81.0,9.0,6.0,,,,,,,,,,,,,rot,blue,b,0.0,b,1.0,0.657292600008077,,,,,,,,,,6.0,9.0,81.0,2.0,333.52168989999336,,,,,,,,,,,,,,,,,333.50761509999575,334.7210313999967,335.5219406999968,335.50563699999475,,,,,,,,,,,,,,,,,,,,,,,,,,,,,,,,,,,335.506409499998,335.5219406999968,335.5219406999968,336.1898407999979,b,1.0,0.657292600008077,,,,,sub-001,1,stroop_test,59.99545234326013,
,,,,82.0,10.0,6.0,,,,,,,,,,,,,gelb,yellow,g,1.0,r,0.0,0.5100051000044914,,,,,,,,,,6.0,10.0,82.0,10.0,336.2048708999937,,,,,,,,,,,,,,,,,336.19047610000416,337.00356949999696,337.8086884999939,337.78851040000154,,,,,,,,,,,,,,,,,,,,,,,,,,,,,,,,,,,337.79600299999584,337.8086884999939,337.8086884999939,338.32243849999213,r,0.0,0.5100051000044914,,,,,sub-001,1,stroop_test,59.99545234326013,
,,,,83.0,11.0,6.0,,,,,,,,,,,,,rot,yellow,g,0.0,g,1.0,0.7913699000055203,,,,,,,,,,6.0,11.0,83.0,3.0,338.33813960000407,,,,,,,,,,,,,,,,,338.322969300003,338.4201388999936,339.2233012999932,339.2043218000035,,,,,,,,,,,,,,,,,,,,,,,,,,,,,,,,,,,339.2094308999949,339.2233012999932,339.2233012999932,340.0220011000056,g,1.0,0.7913699000055203,,,,,sub-001,1,stroop_test,59.99545234326013,
,,,,84.0,0.0,7.0,,,,,,,,,,,,,gelb,yellow,g,1.0,g,1.0,0.3815194000053452,,,,,,,,,,7.0,0.0,84.0,10.0,340.03676129999803,,,,,,,,,,,,,,,,,340.02253380000184,340.38656990000163,341.18870840000454,341.17104509999626,,,,,,,,,,,,,,,,,,,,,,,,,,,,,,,,,,,341.17586279999523,341.18870840000454,341.18870840000454,341.58723020000616,g,1.0,0.3815194000053452,,,,,sub-001,1,stroop_test,59.99545234326013,
,,,,85.0,1.0,7.0,,,,,,,,,,,,,blau,blue,b,1.0,b,1.0,0.4599519000039436,,,,,,,,,,7.0,1.0,85.0,6.0,341.6024169000011,,,,,,,,,,,,,,,,,341.58775289999903,341.7026123999967,342.5049816999963,342.4870036999928,,,,,,,,,,,,,,,,,,,,,,,,,,,,,,,,,,,342.49188430000504,342.5049816999963,342.5049816999963,342.97142370000074,b,1.0,0.4599519000039436,,,,,sub-001,1,stroop_test,59.99545234326013,
,,,,86.0,2.0,7.0,,,,,,,,,,,,,rot,blue,b,0.0,b,1.0,0.4759377000009408,,,,,,,,,,7.0,2.0,86.0,2.0,342.98626419999346,,,,,,,,,,,,,,,,,342.9719613000052,343.085862699998,343.8874955999927,343.8696534000046,,,,,,,,,,,,,,,,,,,,,,,,,,,,,,,,,,,343.874602099997,343.8874955999927,343.8874955999927,344.37086769999587,b,1.0,0.4759377000009408,,,,,sub-001,1,stroop_test,59.99545234326013,
,,,,87.0,3.0,7.0,,,,,,,,,,,,,rot,red,r,1.0,r,1.0,0.5890095000067959,,,,,,,,,,7.0,3.0,87.0,1.0,344.3859267999942,,,,,,,,,,,,,,,,,344.3714134000038,344.4855596999987,345.2859402000031,345.2699416999967,,,,,,,,,,,,,,,,,,,,,,,,,,,,,,,,,,,345.27063980000094,345.2859402000031,345.2859402000031,345.8868253999972,r,1.0,0.5890095000067959,,,,,sub-001,1,stroop_test,59.99545234326013,
,,,,88.0,4.0,7.0,,,,,,,,,,,,,blau,yellow,g,0.0,g,1.0,0.4107767000095919,,,,,,,,,,7.0,4.0,88.0,7.0,345.9019116999989,,,,,,,,,,,,,,,,,345.88735129999986,346.70145170000615,347.50464959999954,347.48641009999847,,,,,,,,,,,,,,,,,,,,,,,,,,,,,,,,,,,347.4922351999994,347.50464959999954,347.50464959999954,347.9199549000041,g,1.0,0.4107767000095919,,,,,sub-001,1,stroop_test,59.99545234326013,
,,,,89.0,5.0,7.0,,,,,,,,,,,,,rot,yellow,g,0.0,g,1.0,0.3404032999969786,,,,,,,,,,7.0,5.0,89.0,3.0,347.9346768999967,,,,,,,,,,,,,,,,,347.9204793999961,348.73465820000274,349.53652090000105,349.51897330000065,,,,,,,,,,,,,,,,,,,,,,,,,,,,,,,,,,,349.5238795000041,349.53652090000105,349.53652090000105,349.8865466999996,g,1.0,0.3404032999969786,,,,,sub-001,1,stroop_test,59.99545234326013,
,,,,90.0,6.0,7.0,,,,,,,,,,,,,gelb,blue,b,0.0,b,1.0,0.6107708000054117,,,,,,,,,,7.0,6.0,90.0,9.0,349.9014097000036,,,,,,,,,,,,,,,,,349.88705109999864,351.1006878000044,351.9018020999938,351.88498869999603,,,,,,,,,,,,,,,,,,,,,,,,,,,,,,,,,,,351.8895373999985,351.9018020999938,351.9018020999938,352.5196583999932,b,1.0,0.6107708000054117,,,,,sub-001,1,stroop_test,59.99545234326013,
,,,,91.0,7.0,7.0,,,,,,,,,,,,,gelb,yellow,g,1.0,g,1.0,0.4490977999957977,,,,,,,,,,7.0,7.0,91.0,11.0,352.53430660000595,,,,,,,,,,,,,,,,,352.52016279999225,352.8838839999953,353.6837289999967,353.66778980000527,,,,,,,,,,,,,,,,,,,,,,,,,,,,,,,,,,,353.6684721000056,353.6837289999967,353.6837289999967,354.1358926999965,g,1.0,0.4490977999957977,,,,,sub-001,1,stroop_test,59.99545234326013,
,,,,92.0,8.0,7.0,,,,,,,,,,,,,blau,blue,b,1.0,b,1.0,0.4456257999991067,,,,,,,,,,7.0,8.0,92.0,5.0,354.1505552000017,,,,,,,,,,,,,,,,,354.1364481000055,354.95055680000223,355.76293189999706,355.7346460999979,,,,,,,,,,,,,,,,,,,,,,,,,,,,,,,,,,,355.7397328999941,355.76293189999706,355.76293189999706,356.2180907000002,b,1.0,0.4456257999991067,,,,,sub-001,1,stroop_test,59.99545234326013,
,,,,93.0,9.0,7.0,,,,,,,,,,,,,blau,red,r,0.0,r,1.0,0.4864788999984739,,,,,,,,,,7.0,9.0,93.0,4.0,356.23354489999474,,,,,,,,,,,,,,,,,356.21861110000464,356.5837370999943,357.383144899999,357.36730420000094,,,,,,,,,,,,,,,,,,,,,,,,,,,,,,,,,,,357.36794729999383,357.383144899999,357.383144899999,357.8844984000025,r,1.0,0.4864788999984739,,,,,sub-001,1,stroop_test,59.99545234326013,
,,,,94.0,10.0,7.0,,,,,,,,,,,,,rot,red,r,1.0,r,1.0,0.4460211999976309,,,,,,,,,,7.0,10.0,94.0,0.0,357.899911799992,,,,,,,,,,,,,,,,,357.88499720000254,358.6992207000003,359.5010717999976,359.4838499000034,,,,,,,,,,,,,,,,,,,,,,,,,,,,,,,,,,,359.4886750000005,359.5010717999976,359.5010717999976,359.9511521999957,r,1.0,0.4460211999976309,,,,,sub-001,1,stroop_test,59.99545234326013,
,,,,95.0,11.0,7.0,,,,,,,,,,,,,gelb,red,r,0.0,r,1.0,0.3827852999966126,,,,,,,,,,7.0,11.0,95.0,8.0,359.96618930000113,,,,,,,,,,,,,,,,,359.951667699992,360.316003999993,361.1175802999933,361.0995286999969,,,,,,,,,,,,,,,,,,,,,,,,,,,,,,,,,,,361.1049847999966,361.1175802999933,361.1175802999933,361.5173638999986,r,1.0,0.3827852999966126,,,,,sub-001,1,stroop_test,59.99545234326013,
,,,,96.0,0.0,8.0,,,,,,,,,,,,,rot,yellow,g,0.0,g,1.0,0.5582950999960303,,,,,,,,,,8.0,0.0,96.0,3.0,361.5329143999989,,,,,,,,,,,,,,,,,361.5179184000008,361.8821320999996,362.6950632999942,362.6669555999979,,,,,,,,,,,,,,,,,,,,,,,,,,,,,,,,,,,362.6718273000006,362.6950632999942,362.6950632999942,363.2669748000044,g,1.0,0.5582950999960303,,,,,sub-001,1,stroop_test,59.99545234326013,
,,,,97.0,1.0,8.0,,,,,,,,,,,,,rot,red,r,1.0,r,1.0,0.4329817999969236,,,,,,,,,,8.0,1.0,97.0,1.0,363.2821232999995,,,,,,,,,,,,,,,,,363.2674888000038,363.3816022999963,364.1816841999971,364.1657384999999,,,,,,,,,,,,,,,,,,,,,,,,,,,,,,,,,,,364.1664449999953,364.1816841999971,364.1816841999971,364.6167604999937,r,1.0,0.4329817999969236,,,,,sub-001,1,stroop_test,59.99545234326013,
,,,,98.0,2.0,8.0,,,,,,,,,,,,,blau,red,r,0.0,r,1.0,0.4334042000118643,,,,,,,,,,8.0,2.0,98.0,4.0,364.6317829000036,,,,,,,,,,,,,,,,,364.6172780000052,365.8318061000027,366.6441764000047,366.6159614000062,,,,,,,,,,,,,,,,,,,,,,,,,,,,,,,,,,,366.62084829999367,366.6441764000047,366.6441764000047,367.0836513999966,r,1.0,0.4334042000118643,,,,,sub-001,1,stroop_test,59.99545234326013,
,,,,99.0,3.0,8.0,,,,,,,,,,,,,gelb,yellow,g,1.0,g,1.0,0.5938495000009425,,,,,,,,,,8.0,3.0,99.0,10.0,367.0984007999941,,,,,,,,,,,,,,,,,367.0841916000063,368.2976343000046,369.0986903000012,369.0819094000035,,,,,,,,,,,,,,,,,,,,,,,,,,,,,,,,,,,369.08641020000505,369.0986903000012,369.0986903000012,369.6996553999925,g,1.0,0.5938495000009425,,,,,sub-001,1,stroop_test,59.99545234326013,
,,,,100.0,4.0,8.0,,,,,,,,,,,,,gelb,blue,b,0.0,b,1.0,0.4997566000092774,,,,,,,,,,8.0,4.0,100.0,9.0,369.7142040000035,,,,,,,,,,,,,,,,,369.700167899995,370.0642667999928,370.86415749999287,370.8482132000063,,,,,,,,,,,,,,,,,,,,,,,,,,,,,,,,,,,370.8489292000013,370.86415749999287,370.86415749999287,371.3653506999981,b,1.0,0.4997566000092774,,,,,sub-001,1,stroop_test,59.99545234326013,
,,,,101.0,5.0,8.0,,,,,,,,,,,,,blau,yellow,g,0.0,r,0.0,0.4992798000021139,,,,,,,,,,8.0,5.0,101.0,7.0,371.382889799992,,,,,,,,,,,,,,,,,371.3658411999932,372.5637438999984,373.36654689999705,373.347897899992,,,,,,,,,,,,,,,,,,,,,,,,,,,,,,,,,,,373.3529239000054,373.36654689999705,373.36654689999705,373.8817143000051,r,0.0,0.4992798000021139,,,,,sub-001,1,stroop_test,59.99545234326013,
,,,,102.0,6.0,8.0,,,,,,,,,,,,,rot,red,r,1.0,r,1.0,0.5413161999895237,,,,,,,,,,8.0,6.0,102.0,0.0,373.89743440000166,,,,,,,,,,,,,,,,,373.88221159999375,374.6968682000006,375.4985922000051,375.4803879999963,,,,,,,,,,,,,,,,,,,,,,,,,,,,,,,,,,,375.4857938000059,375.4985922000051,375.4985922000051,376.0486852000031,r,1.0,0.5413161999895237,,,,,sub-001,1,stroop_test,59.99545234326013,
,,,,103.0,7.0,8.0,,,,,,,,,,,,,gelb,yellow,g,1.0,g,1.0,0.4958620999968843,,,,,,,,,,8.0,7.0,103.0,11.0,376.06323800000246,,,,,,,,,,,,,,,,,376.0491882999922,376.4132100999996,377.21338000000105,377.1967633000022,,,,,,,,,,,,,,,,,,,,,,,,,,,,,,,,,,,377.2013237999927,377.21338000000105,377.21338000000105,377.714493099993,g,1.0,0.4958620999968843,,,,,sub-001,1,stroop_test,59.99545234326013,
,,,,104.0,8.0,8.0,,,,,,,,,,,,,rot,blue,b,0.0,b,1.0,0.5202561999903992,,,,,,,,,,8.0,8.0,104.0,2.0,377.72911650000606,,,,,,,,,,,,,,,,,377.7150265999953,378.52898560000176,379.3315659999935,379.31336319999536,,,,,,,,,,,,,,,,,,,,,,,,,,,,,,,,,,,379.3183621000062,379.3315659999935,379.3315659999935,379.8637130999996,b,1.0,0.5202561999903992,,,,,sub-001,1,stroop_test,59.99545234326013,
,,,,105.0,9.0,8.0,,,,,,,,,,,,,gelb,red,r,0.0,r,1.0,0.6621652000030736,,,,,,,,,,8.0,9.0,105.0,8.0,379.879400299993,,,,,,,,,,,,,,,,,379.8642305999965,380.67885739999474,381.4794484000013,381.462686999992,,,,,,,,,,,,,,,,,,,,,,,,,,,,,,,,,,,381.467275300005,381.4794484000013,381.4794484000013,382.1480390999932,r,1.0,0.6621652000030736,,,,,sub-001,1,stroop_test,59.99545234326013,
,,,,106.0,10.0,8.0,,,,,,,,,,,,,blau,blue,b,1.0,b,1.0,0.5264333999948576,,,,,,,,,,8.0,10.0,106.0,5.0,382.1617982000025,,,,,,,,,,,,,,,,,382.1485885000002,383.3619311999937,384.1643336999987,384.14680420000514,,,,,,,,,,,,,,,,,,,,,,,,,,,,,,,,,,,384.1519593999983,384.1643336999987,384.1643336999987,384.6972550999926,b,1.0,0.5264333999948576,,,,,sub-001,1,stroop_test,59.99545234326013,
,,,,107.0,11.0,8.0,,,,,,,,,,,,,blau,blue,b,1.0,b,1.0,0.4681048000056762,,,,,,,,,,8.0,11.0,107.0,6.0,384.7119974999951,,,,,,,,,,,,,,,,,384.6977662999998,385.06149079999886,385.86176400000113,385.8459471999959,,,,,,,,,,,,,,,,,,,,,,,,,,,,,,,,,,,385.846658399998,385.86176400000113,385.86176400000113,386.3458135999972,b,1.0,0.4681048000056762,,,,,sub-001,1,stroop_test,59.99545234326013,
,,,,108.0,0.0,9.0,,,,,,,,,,,,,rot,red,r,1.0,r,1.0,0.4816064000042388,,,,,,,,,,9.0,0.0,108.0,0.0,386.3613295999967,,,,,,,,,,,,,,,,,386.3463618999958,387.5610919000028,388.3737437999953,388.3539746000024,,,,,,,,,,,,,,,,,,,,,,,,,,,,,,,,,,,388.3642184000055,388.3737437999953,388.3737437999953,388.8630822999985,r,1.0,0.4816064000042388,,,,,sub-001,1,stroop_test,59.99545234326013,
,,,,109.0,1.0,9.0,,,,,,,,,,,,,blau,red,r,0.0,r,1.0,0.3198744000110309,,,,,,,,,,9.0,1.0,109.0,4.0,388.8775275999942,,,,,,,,,,,,,,,,,388.8636302999949,389.2269451000029,390.028665299993,390.0113324999984,,,,,,,,,,,,,,,,,,,,,,,,,,,,,,,,,,,390.0162211999996,390.028665299993,390.028665299993,390.3622128999996,r,1.0,0.3198744000110309,,,,,sub-001,1,stroop_test,59.99545234326013,
,,,,110.0,2.0,9.0,,,,,,,,,,,,,gelb,blue,b,0.0,b,1.0,0.5375658999982988,,,,,,,,,,9.0,2.0,110.0,9.0,390.3769361000013,,,,,,,,,,,,,,,,,390.3627356999932,391.5770707000047,392.378343599994,392.3610698999983,,,,,,,,,,,,,,,,,,,,,,,,,,,,,,,,,,,392.3653974000045,392.378343599994,392.378343599994,392.9285310999985,b,1.0,0.5375658999982988,,,,,sub-001,1,stroop_test,59.99545234326013,
,,,,111.0,3.0,9.0,,,,,,,,,,,,,rot,blue,b,0.0,b,1.0,0.4130097000015666,,,,,,,,,,9.0,3.0,111.0,2.0,392.9430536,,,,,,,,,,,,,,,,,392.92904129999806,393.2940458999946,394.0951755999995,394.077455599996,,,,,,,,,,,,,,,,,,,,,,,,,,,,,,,,,,,394.0822043999942,394.0951755999995,394.0951755999995,394.5113096999994,b,1.0,0.4130097000015666,,,,,sub-001,1,stroop_test,59.99545234326013,
,,,,112.0,4.0,9.0,,,,,,,,,,,,,gelb,red,r,0.0,r,1.0,0.5550076000072295,,,,,,,,,,9.0,4.0,112.0,8.0,394.5264101999928,,,,,,,,,,,,,,,,,394.5118210999936,395.7259998999944,396.5269236000022,396.5099291999941,,,,,,,,,,,,,,,,,,,,,,,,,,,,,,,,,,,396.51430520000577,396.5269236000022,396.5269236000022,397.0945131000044,r,1.0,0.5550076000072295,,,,,sub-001,1,stroop_test,59.99545234326013,
,,,,113.0,5.0,9.0,,,,,,,,,,,,,gelb,yellow,g,1.0,g,1.0,0.486180100007914,,,,,,,,,,9.0,5.0,113.0,10.0,397.1093758000061,,,,,,,,,,,,,,,,,397.0950267000008,397.4593021000037,398.2593435000017,398.24356040000566,,,,,,,,,,,,,,,,,,,,,,,,,,,,,,,,,,,398.2442574000015,398.2593435000017,398.2593435000017,398.7600803999958,g,1.0,0.486180100007914,,,,,sub-001,1,stroop_test,59.99545234326013,
,,,,114.0,6.0,9.0,,,,,,,,,,,,,rot,yellow,g,0.0,g,1.0,0.377446600003168,,,,,,,,,,9.0,6.0,114.0,3.0,398.7761365000042,,,,,,,,,,,,,,,,,398.7606072000053,399.9757465000002,400.7782645999978,400.75936729999376,,,,,,,,,,,,,,,,,,,,,,,,,,,,,,,,,,,400.7649212999968,400.7782645999978,400.7782645999978,401.1608919999999,g,1.0,0.377446600003168,,,,,sub-001,1,stroop_test,59.99545234326013,
,,,,115.0,7.0,9.0,,,,,,,,,,,,,blau,yellow,g,0.0,g,1.0,0.3118111000076169,,,,,,,,,,9.0,7.0,115.0,7.0,401.1755811000039,,,,,,,,,,,,,,,,,401.1614450000052,401.2754352000047,402.077589499997,402.059500000003,,,,,,,,,,,,,,,,,,,,,,,,,,,,,,,,,,,402.06447650000337,402.077589499997,402.077589499997,402.3933338999923,g,1.0,0.3118111000076169,,,,,sub-001,1,stroop_test,59.99545234326013,
,,,,116.0,8.0,9.0,,,,,,,,,,,,,blau,blue,b,1.0,b,1.0,0.4964134000038029,,,,,,,,,,9.0,8.0,116.0,6.0,402.4081414999964,,,,,,,,,,,,,,,,,402.3938414000004,403.6080782999925,404.40764609999314,404.39154670000426,,,,,,,,,,,,,,,,,,,,,,,,,,,,,,,,,,,404.3922508999967,404.40764609999314,404.40764609999314,404.9159154999943,b,1.0,0.4964134000038029,,,,,sub-001,1,stroop_test,59.99545234326013,
,,,,117.0,9.0,9.0,,,,,,,,,,,,,rot,red,r,1.0,r,1.0,0.5643066999909934,,,,,,,,,,9.0,9.0,117.0,1.0,404.9370664000016,,,,,,,,,,,,,,,,,404.9165321000037,405.0240632999921,405.8256189999957,405.8083727000048,,,,,,,,,,,,,,,,,,,,,,,,,,,,,,,,,,,405.8130798999919,405.8256189999957,405.8256189999957,406.3926848999981,r,1.0,0.5643066999909934,,,,,sub-001,1,stroop_test,59.99545234326013,
,,,,118.0,10.0,9.0,,,,,,,,,,,,,gelb,yellow,g,1.0,r,0.0,0.4036129999876721,,,,,,,,,,9.0,10.0,118.0,11.0,406.4075054999994,,,,,,,,,,,,,,,,,406.3931859000004,407.2074357999954,408.00834840000607,407.9913552999933,,,,,,,,,,,,,,,,,,,,,,,,,,,,,,,,,,,407.9959655999992,408.00834840000607,408.00834840000607,408.4296508999978,r,0.0,0.4036129999876721,,,,,sub-001,1,stroop_test,59.99545234326013,
,,,,119.0,11.0,9.0,,,,,,,,,,,,,blau,blue,b,1.0,b,1.0,0.545067500002915,,,,,,,,,,9.0,11.0,119.0,5.0,408.4413891000004,,,,,,,,,,,,,,,,,408.4301852999925,408.7914802000014,409.5925569999963,409.5749036000052,,,,,,,,,,,,,,,,,,,,,,,,,,,,,,,,,,,409.5798132000055,409.5925569999963,409.5925569999963,410.14223100000527,b,1.0,0.545067500002915,,,,,sub-001,1,stroop_test,59.99545234326013,
,,,,,,,,,,,,,,,,,,,,,,,,,,,,,,,,,,,,,,,,,,,,,,,,,,,,,,,,,,,,,,,,,,,,,,,,,,,,,,,,,,,,,,,,,,,,,,,,,,,,,,410.1424891999922,410.15750390000176,415.1564553000062,sub-001,1,stroop_test,59.99545234326013,
