direction,corrAns,randomInstr,practice_trials.thisRepN,practice_trials.thisTrialN,practice_trials.thisN,practice_trials.thisIndex,instr_trials.thisRepN,instr_trials.thisTrialN,instr_trials.thisN,instr_trials.thisIndex,test_trials.thisRepN,test_trials.thisTrialN,test_trials.thisN,test_trials.thisIndex,thisRow.t,notes,general_instruction.started,textGeneralInstr.started,respGeneralInstr.started,general_instruction.stopped,respGeneralInstr.keys,respGeneralInstr.rt,respGeneralInstr.duration,ITI.started,fixcross.started,fixcross.stopped,ITI.stopped,dots.started,backgroundDots.started,stimulusDots.started,respDots.started,stimulusDots.stopped,dots.stopped,respDots.keys,respDots.corr,respDots.rt,respDots.duration,feedback.started,textFeedback.started,textFeedback.stopped,feedback.stopped,info.started,textInfo.started,keyRespInfo.started,info.stopped,keyRespInfo.keys,keyRespInfo.rt,keyRespInfo.duration,test_instruction.started,textTestInstr.started,respTestInstr.started,test_instruction.stopped,respTestInstr.keys,respTestInstr.rt,respTestInstr.duration,random_instruction.started,textRandomInstr.started,respRandomInstr.started,random_instruction.stopped,respRandomInstr.keys,respRandomInstr.rt,respRandomInstr.duration,goodbye.started,textGoodbye.started,goodbye.stopped,participant,session,expName,frameRate,Unnamed: 73
,,,,,,,,,,,,,,,,,0.0113471000222489,0.0284584000473842,0.0284584000473842,16.821532499976456,space,39.19900180003606,,,,,,,,,,,,,,,,,,,,,,,,,,,,,,,,,,,,,,,,,,,,sub-177,1.0,random_dot,59.38252860402831,
left,left,,0.0,0.0,0.0,0.0,,,,,,,,,16.83667999994941,,,,,,,,,16.829711299971677,17.63557869999204,18.43441760004498,18.419380099978294,18.41940789995715,18.43441760004498,18.43441760004498,18.43441760004498,23.433552199974656,31.463966600014828,right,0.0,35.44965030008461,,31.464710099971853,31.479472500039265,31.979076800053008,31.963093900005333,,,,,,,,,,,,,,,,,,,,,,,,,sub-177,1.0,random_dot,59.38252860402831,
right,right,,0.0,1.0,1.0,1.0,,,,,,,,,31.979076800053008,,,,,,,,,31.96350319997873,32.77810939995106,33.57809439999983,33.56187920004595,33.561899499967694,33.57809439999983,33.57809439999983,33.57809439999983,38.57548520003911,39.642073999973945,left,0.0,28.471602200064808,,39.64262870000675,39.65749150002375,40.15809239994269,40.141824200050905,,,,,,,,,,,,,,,,,,,,,,,,,sub-177,1.0,random_dot,59.38252860402831,
left,left,,1.0,0.0,2.0,0.0,,,,,,,,,40.15809239994269,,,,,,,,,40.14220989996102,41.35743400000501,42.15679210005328,42.14046290004626,42.140487399999984,42.15679210005328,42.15679210005328,42.15679210005328,47.15447629999835,49.4047203999944,right,0.0,29.668205800000575,,49.405322000035085,49.41942629998084,49.91955120000057,49.90345920005348,,,,,,,,,,,,,,,,,,,,,,,,,sub-177,1.0,random_dot,59.38252860402831,
right,right,,1.0,1.0,3.0,1.0,,,,,,,,,49.91955120000057,,,,,,,,,49.90396330005024,51.11893220001366,51.91871580004226,51.90269589994568,51.90271619998384,51.91871580004226,51.91871580004226,51.91871580004226,56.91607200005092,61.0811665999936,left,0.0,31.58012019994203,,61.08165860001464,61.09644640004262,61.5967652000254,61.58096809999552,,,,,,,,,,,,,,,,,,,,,,,,,sub-177,1.0,random_dot,59.38252860402831,
right,right,,2.0,0.0,4.0,1.0,,,,,,,,,61.5967652000254,,,,,,,,,61.58141099999193,62.79634799994528,63.61273119994439,63.59638120001182,63.59640180005226,63.61273119994439,63.61273119994439,63.61273119994439,68.60939460003283,69.49429289996624,left,0.0,28.301531000062823,,69.4948503000196,69.50915089994669,70.00895879999734,69.99350800004322,,,,,,,,,,,,,,,,,,,,,,,,,sub-177,1.0,random_dot,59.38252860402831,
left,left,,2.0,1.0,5.0,0.0,,,,,,,,,70.00895879999734,,,,,,,,,69.99389759998303,70.10874699999113,70.9084554000292,70.89264320000075,70.8926612000214,70.9084554000292,70.9084554000292,70.9084554000292,75.90596520004328,82.53722049994394,left,1.0,34.048325399984606,,82.53775529994164,82.55272839998361,83.05268680001609,83.03667489998043,,,,,,,,,,,,,,,,,,,,,,,,,sub-177,1.0,random_dot,59.38252860402831,
right,right,,3.0,0.0,6.0,1.0,,,,,,,,,83.05268680001609,,,,,,,,,83.03710509999655,83.8520872000372,84.65158710000105,84.63503400003538,84.6350690999534,84.65158710000105,84.65158710000105,84.65158710000105,89.64882490003947,90.99968170002104,right,1.0,28.767046199995093,,91.00024930003563,91.01496749999932,91.51477649994196,91.4984517999692,,,,,,,,,,,,,,,,,,,,,,,,,sub-177,1.0,random_dot,59.38252860402831,
left,left,,3.0,1.0,7.0,0.0,,,,,,,,,91.51477649994196,,,,,,,,,91.49893090000842,92.31378029996996,93.11377479997464,93.09744889999274,93.0974758999655,93.11377479997464,93.11377479997464,93.11377479997464,98.11130059999414,99.17828140000348,right,0.0,28.47756130003836,,99.17880039999729,99.19374060002156,99.69325749995188,99.67742610001004,,,,,,,,,,,,,,,,,,,,,,,,,sub-177,1.0,random_dot,59.38252860402831,
left,left,,4.0,0.0,8.0,0.0,,,,,,,,,99.69325749995188,,,,,,,,,99.67783719999716,99.7937394999899,100.59308949997649,100.57739480002785,100.57741539995186,100.59308949997649,100.59308949997649,100.59308949997649,105.59017860004678,107.12404619995505,left,1.0,28.93996740004513,,107.12455980002414,107.13960400002544,107.63939120003488,107.62319830001798,,,,,,,,,,,,,,,,,,,,,,,,,sub-177,1.0,random_dot,59.38252860402831,
right,right,,4.0,1.0,9.0,1.0,,,,,,,,,107.63939120003488,,,,,,,,,107.62364550004712,107.98898150003517,108.7890035000164,108.77252670004964,108.77254649996758,108.7890035000164,108.7890035000164,108.7890035000164,113.78655169997364,115.20350259996484,left,0.0,28.832507000071928,,115.20401560002938,115.21915070002431,115.7190716000041,115.70272209995892,,,,,,,,,,,,,,,,,,,,,,,,,sub-177,1.0,random_dot,59.38252860402831,
left,left,,5.0,0.0,10.0,0.0,,,,,,,,,115.7190716000041,,,,,,,,,115.70312910003122,115.81806019996291,116.61823719996028,116.60227849998046,116.6023159000324,116.61823719996028,116.61823719996028,116.61823719996028,,119.76743260002696,right,0.0,25.556167300092056,,119.76794449996667,119.7823945999844,120.28282319998834,120.26689960004296,,,,,,,,,,,,,,,,,,,,,,,,,sub-177,1.0,random_dot,59.38252860402831,
right,right,,5.0,1.0,11.0,1.0,,,,,,,,,120.28282319998834,,,,,,,,,120.26728999998886,121.082424000022,121.88243240001611,121.86602049996144,121.86604590003844,121.88243240001611,121.88243240001611,121.88243240001611,126.87918080005328,137.20855970005505,left,0.0,37.73294060002081,,137.209100499982,137.22360659996048,137.7243596999906,137.7079677999718,,,,,,,,,,,,,,,,,,,,,,,,,sub-177,1.0,random_dot,59.38252860402831,
left,left,,6.0,0.0,12.0,0.0,,,,,,,,,137.7243596999906,,,,,,,,,137.70837100001518,138.9231971000554,139.72265270003118,139.70656469999813,139.70658869994804,139.72265270003118,139.72265270003118,139.72265270003118,144.7207083000103,145.30447600001935,right,0.0,28.001703900052235,,145.30508169997483,145.3193873000564,145.81924960005563,145.80295959999785,,,,,,,,,,,,,,,,,,,,,,,,,sub-177,1.0,random_dot,59.38252860402831,
right,right,,6.0,1.0,13.0,1.0,,,,,,,,,145.81924960005563,,,,,,,,,145.80333989998326,146.16907229996286,146.96910520002712,146.9529236999806,146.95294400001876,146.96910520002712,146.96910520002712,146.96910520002712,151.9665140999714,152.48424440005329,right,1.0,27.9273599999724,,152.48477400001138,152.4987020000117,152.9985995000461,152.98313730000518,,,,,,,,,,,,,,,,,,,,,,,,,sub-177,1.0,random_dot,59.38252860402831,
right,right,,7.0,0.0,14.0,1.0,,,,,,,,,152.9985995000461,,,,,,,,,152.98354429996107,153.79840129998047,154.5987570999423,154.58293070003856,154.58295349997934,154.5987570999423,154.5987570999423,154.5987570999423,,157.64793570002075,left,0.0,25.46907130000181,,157.64861659996677,157.66291469999123,158.16283599997405,158.1469073999906,,,,,,,,,,,,,,,,,,,,,,,,,sub-177,1.0,random_dot,59.38252860402831,
left,left,,7.0,1.0,15.0,0.0,,,,,,,,,158.16283599997405,,,,,,,,,158.14733099995647,159.36269119998906,160.16201249998994,160.14594029996078,160.1459606999997,160.16201249998994,160.16201249998994,160.16201249998994,165.15965789998882,165.74514170002658,right,0.0,28.003062700037844,,165.7456962999422,165.7589420999866,166.2590201999992,166.24282160005532,,,,,,,,,,,,,,,,,,,,,,,,,sub-177,1.0,random_dot,59.38252860402831,
left,left,,8.0,0.0,16.0,0.0,,,,,,,,,166.2590201999992,,,,,,,,,166.24322479998227,166.60863699996844,167.40803629998118,167.39242719998583,167.3924459000118,167.40803629998118,167.40803629998118,167.40803629998118,172.40542850003112,173.08970520005096,left,1.0,28.10003260010853,,173.09020540001802,173.1051417000126,173.60445240000263,173.5883676999947,,,,,,,,,,,,,,,,,,,,,,,,,sub-177,1.0,random_dot,59.38252860402831,
right,right,,8.0,1.0,17.0,1.0,,,,,,,,,173.60445240000263,,,,,,,,,173.58876109996345,174.4041818999685,175.20442960003857,175.18842499994207,175.18844529998023,175.20442960003857,175.20442960003857,175.20442960003857,,179.45277139998507,right,1.0,26.665373300085776,,179.4532744999742,179.46844219998457,179.96798890002538,179.95215979998466,,,,,,,,,,,,,,,,,,,,,,,,,sub-177,1.0,random_dot,59.38252860402831,
left,left,,9.0,0.0,18.0,0.0,,,,,,,,,179.96798890002538,,,,,,,,,179.95259500003883,180.06794300000183,180.8679119000444,180.85153650003485,180.85155569994825,180.8679119000444,180.8679119000444,180.8679119000444,,184.99988729995675,left,1.0,26.54821799998172,,185.00037420005535,185.01505329995416,185.5150154000148,185.49930080003105,,,,,,,,,,,,,,,,,,,,,,,,,sub-177,1.0,random_dot,59.38252860402831,
right,right,,9.0,1.0,19.0,1.0,,,,,,,,,185.5150154000148,,,,,,,,,185.49977690004744,186.714911499992,187.51474699995012,187.4984477000544,187.49846799997613,187.51474699995012,187.51474699995012,187.51474699995012,,190.04806810000449,right,1.0,24.944134700112045,,190.04857270000505,190.06252499995756,190.56302869995125,190.54676559998188,,,,,,,,,,,,,,,,,,,,,,,,,sub-177,1.0,random_dot,59.38252860402831,
,,,,,,,,,,,,,,,,,,,,,,,,,,,,,,,,,,,,,,,,,,190.5468385999557,190.56302869995125,190.56302869995125,194.5619117999449,space,26.411562200053595,,,,,,,,,,,,,,,,,,,sub-177,1.0,random_dot,59.38252860402831,
,,,,,,,,,,,,,,,,,,,,,,,,,,,,,,,,,,,,,,,,,,,,,,,,,194.5619459999725,194.5775791000342,194.5775791000342,195.79382260004056,space,23.62276370008476,,,,,,,,,,,,sub-177,1.0,random_dot,59.38252860402831,
left,left,speed,,,,,0.0,0.0,0.0,1.0,0.0,0.0,0.0,0.0,198.62417399999688,,,,,,,,,198.61601530003827,198.97432359994852,199.7743588000303,199.75876190001145,199.75879120000167,199.7743588000303,199.7743588000303,199.7743588000303,,202.45718310005032,right,0.0,25.092277199961245,,,,,,,,,,,,,,,,,,,,195.79747700004373,195.8262014000211,195.8262014000211,198.60930300003383,space,25.20333120005671,,,,,sub-177,1.0,random_dot,59.38252860402831,
right,right,speed,,,,,0.0,0.0,0.0,1.0,0.0,1.0,1.0,1.0,202.4719382999465,,,,,,,,,202.458432000014,203.67204079998191,204.47164010000412,204.4555186999496,204.45554310001896,204.47164010000412,204.47164010000412,204.47164010000412,,208.38710149994583,right,1.0,26.332035599974915,,,,,,,,,,,,,,,,,,,,,,,,,,,,,,sub-177,1.0,random_dot,59.38252860402831,
right,right,speed,,,,,0.0,0.0,0.0,1.0,1.0,0.0,2.0,1.0,208.4030515999766,,,,,,,,,208.38806959998328,208.7529795999872,209.55200739996508,209.5369320999598,209.53695109998807,209.55200739996508,209.55200739996508,209.55200739996508,,211.81784469995185,left,0.0,24.68118310009595,,,,,,,,,,,,,,,,,,,,,,,,,,,,,,sub-177,1.0,random_dot,59.38252860402831,
left,left,speed,,,,,0.0,0.0,0.0,1.0,1.0,1.0,3.0,0.0,211.8349927000236,,,,,,,,,211.8187728000339,212.63434969994705,213.43365879997145,213.41786279994997,213.41788069996983,213.43365879997145,213.43365879997145,213.43365879997145,,217.7152950000018,right,0.0,26.693319700076245,,,,,,,,,,,,,,,,,,,,,,,,,,,,,,sub-177,1.0,random_dot,59.38252860402831,
left,left,speed,,,,,0.0,0.0,0.0,1.0,2.0,0.0,4.0,0.0,217.7308557999786,,,,,,,,,217.716203100048,218.06481959996745,218.8641673000529,218.8488124000141,218.84883200004697,218.8641673000529,218.8641673000529,218.8641673000529,,220.5310241000261,left,1.0,24.08677870000247,,,,,,,,,,,,,,,,,,,,,,,,,,,,,,sub-177,1.0,random_dot,59.38252860402831,
right,right,speed,,,,,0.0,0.0,0.0,1.0,2.0,1.0,5.0,1.0,220.5461246999912,,,,,,,,,220.5319691000041,221.34634609997735,222.14586899999995,222.1294612999773,222.1294798000017,222.14586899999995,222.14586899999995,222.14586899999995,,226.8273522000527,right,1.0,27.095076900091957,,,,,,,,,,,,,,,,,,,,,,,,,,,,,,sub-177,1.0,random_dot,59.38252860402831,
right,right,speed,,,,,0.0,0.0,0.0,1.0,3.0,0.0,6.0,1.0,226.84250040003096,,,,,,,,,226.8282934000017,228.04285810003057,228.8428288999712,228.82634589995723,228.8263658999931,228.8428288999712,228.8428288999712,228.8428288999712,233.8396293000551,234.0904808000196,right,1.0,27.656175000127405,,,,,,,,,,,,,,,,,,,,,,,,,,,,,,sub-177,1.0,random_dot,59.38252860402831,
left,left,speed,,,,,0.0,0.0,0.0,1.0,3.0,1.0,7.0,0.0,234.10594140004832,,,,,,,,,234.0914243999869,235.3061515999725,236.10575740004424,236.0898516000016,236.08987180003896,236.10575740004424,236.10575740004424,236.10575740004424,,238.6545711000217,right,0.0,24.959904100047424,,,,,,,,,,,,,,,,,,,,,,,,,,,,,,sub-177,1.0,random_dot,59.38252860402831,
right,right,speed,,,,,0.0,0.0,0.0,1.0,4.0,0.0,8.0,1.0,238.6698898000177,,,,,,,,,238.6554939999478,239.86984649999067,240.66910069994628,240.65292759996373,240.65294699999504,240.66910069994628,240.66910069994628,240.66910069994628,245.6675223000348,245.9836362999631,right,1.0,27.72368940012529,,,,,,,,,,,,,,,,,,,,,,,,,,,,,,sub-177,1.0,random_dot,59.38252860402831,
left,left,speed,,,,,0.0,0.0,0.0,1.0,4.0,1.0,9.0,0.0,245.99922919995151,,,,,,,,,245.98454089998268,246.35016859997995,247.15013870003168,247.1333838000428,247.13340219995007,247.15013870003168,247.15013870003168,247.15013870003168,,252.0144870999502,right,0.0,27.272375000058677,,,,,,,,,,,,,,,,,,,,,,,,,,,,,,sub-177,1.0,random_dot,59.38252860402831,
right,right,speed,,,,,0.0,0.0,0.0,1.0,5.0,0.0,10.0,1.0,252.03060769999863,,,,,,,,,252.01535030000375,252.1301291000564,252.9296403999906,252.91353200003505,252.9135514999507,252.9296403999906,252.9296403999906,252.9296403999906,257.9273667000234,260.21088559995405,right,1.0,29.691826000111178,,,,,,,,,,,,,,,,,,,,,,,,,,,,,,sub-177,1.0,random_dot,59.38252860402831,
left,left,speed,,,,,0.0,0.0,0.0,1.0,5.0,1.0,11.0,0.0,260.2255395000102,,,,,,,,,260.21185790002346,260.3262198000448,261.1262679999927,261.10992279998027,261.10994280001614,261.1262679999927,261.1262679999927,261.1262679999927,,265.37460660003126,left,1.0,26.659257099963725,,,,,,,,,,,,,,,,,,,,,,,,,,,,,,sub-177,1.0,random_dot,59.38252860402831,
right,right,speed,,,,,0.0,0.0,0.0,1.0,6.0,0.0,12.0,1.0,265.3895357999718,,,,,,,,,265.3755342999939,266.18960749998223,266.9888984999852,266.9727350999601,266.9727577000158,266.9888984999852,266.9888984999852,266.9888984999852,271.9869175000349,273.0696891000261,right,1.0,28.495068400050517,,,,,,,,,,,,,,,,,,,,,,,,,,,,,,sub-177,1.0,random_dot,59.38252860402831,
left,left,speed,,,,,0.0,0.0,0.0,1.0,6.0,1.0,13.0,0.0,273.08600829995703,,,,,,,,,273.0706956000068,273.4361948999576,274.2517604000168,274.2349279000191,274.23494690004736,274.2517604000168,274.2517604000168,274.2517604000168,,278.8336117999861,left,1.0,26.996775900013745,,,,,,,,,,,,,,,,,,,,,,,,,,,,,,sub-177,1.0,random_dot,59.38252860402831,
left,left,speed,,,,,0.0,0.0,0.0,1.0,7.0,0.0,14.0,0.0,278.84916740003973,,,,,,,,,278.83460259996355,280.0490320000099,280.848138100002,280.8325387999648,280.83256180002354,280.848138100002,280.848138100002,280.848138100002,,284.38071639998816,right,0.0,25.94441760005429,,,,,,,,,,,,,,,,,,,,,,,,,,,,,,sub-177,1.0,random_dot,59.38252860402831,
right,right,speed,,,,,0.0,0.0,0.0,1.0,7.0,1.0,15.0,1.0,284.3961878999835,,,,,,,,,284.38177069998346,284.7470047000097,285.5459973999532,285.53050989995245,285.53052959998604,285.5459973999532,285.5459973999532,285.5459973999532,,289.57802350004204,right,1.0,26.450649700011127,,,,,,,,,,,,,,,,,,,,,,,,,,,,,,sub-177,1.0,random_dot,59.38252860402831,
left,left,speed,,,,,0.0,0.0,0.0,1.0,8.0,0.0,16.0,0.0,289.5940424000146,,,,,,,,,289.57897709996905,289.9268111999845,290.7273233999731,290.7111159999622,290.7111502999905,290.7273233999731,290.7273233999731,290.7273233999731,295.72369719995186,296.49103499995545,left,1.0,28.179817600059323,,,,,,,,,,,,,,,,,,,,,,,,,,,,,,sub-177,1.0,random_dot,59.38252860402831,
right,right,speed,,,,,0.0,0.0,0.0,1.0,8.0,1.0,17.0,1.0,296.5068698000396,,,,,,,,,296.492014199961,297.7066404999932,298.52251369995065,298.50618210004177,298.5062050999841,298.52251369995065,298.52251369995065,298.52251369995065,,301.00542039994616,right,1.0,24.889049599994905,,,,,,,,,,,,,,,,,,,,,,,,,,,,,,sub-177,1.0,random_dot,59.38252860402831,
right,right,speed,,,,,0.0,0.0,0.0,1.0,9.0,0.0,18.0,1.0,301.02053970005363,,,,,,,,,301.0063655000413,302.220901499968,303.0203759999713,303.0046092000557,303.0046290999744,303.0203759999713,303.0203759999713,303.0203759999713,,307.21978090004995,right,1.0,26.61139010009356,,,,,,,,,,,,,,,,,,,,,,,,,,,,,,sub-177,1.0,random_dot,59.38252860402831,
left,left,speed,,,,,0.0,0.0,0.0,1.0,9.0,1.0,19.0,0.0,307.233673300012,,,,,,,,,307.22075089998543,307.3345556999557,308.1336197999772,308.11824169999454,308.1182702999795,308.1336197999772,308.1336197999772,308.1336197999772,,312.9993256999878,right,0.0,27.285178600111976,,,,,,,,,,,,,,,,,,,,,,,,,,,,,,sub-177,1.0,random_dot,59.38252860402831,
right,right,speed,,,,,0.0,0.0,0.0,1.0,10.0,0.0,20.0,1.0,313.0148096999619,,,,,,,,,313.0005390000297,314.2140514999628,315.0136897000484,314.9975370999892,314.997576200054,315.0136897000484,315.0136897000484,315.0136897000484,320.01221800001804,320.3944003999932,right,1.0,27.799109200015664,,,,,,,,,,,,,,,,,,,,,,,,,,,,,,sub-177,1.0,random_dot,59.38252860402831,
left,left,speed,,,,,0.0,0.0,0.0,1.0,10.0,1.0,21.0,0.0,320.4107470000163,,,,,,,,,320.3954438000219,320.4940645999741,321.2939462000504,321.27777359995525,321.27780030004214,321.2939462000504,321.2939462000504,321.2939462000504,,325.29373989999294,left,1.0,26.404605300049298,,,,,,,,,,,,,,,,,,,,,,,,,,,,,,sub-177,1.0,random_dot,59.38252860402831,
right,right,speed,,,,,0.0,0.0,0.0,1.0,11.0,0.0,22.0,1.0,325.30876459996216,,,,,,,,,325.2947346000001,325.6586957999971,326.45795740000904,326.44294400000945,326.44296649994794,326.45795740000904,326.45795740000904,326.45795740000904,331.45613379997667,332.1894395999843,right,1.0,28.149668500060216,,,,,,,,,,,,,,,,,,,,,,,,,,,,,,sub-177,1.0,random_dot,59.38252860402831,
left,left,speed,,,,,0.0,0.0,0.0,1.0,11.0,1.0,23.0,0.0,332.2050025999779,,,,,,,,,332.1904078000225,333.0052872999804,333.80434889998287,333.78839360002894,333.7884130999446,333.80434889998287,333.80434889998287,333.80434889998287,338.8018051000545,341.00192269997206,right,0.0,29.617516300058924,,,,,,,,,,,,,,,,,,,,,,,,,,,,,,sub-177,1.0,random_dot,59.38252860402831,
left,left,speed,,,,,0.0,0.0,0.0,1.0,12.0,0.0,24.0,0.0,341.016765999957,,,,,,,,,341.0028437000001,342.2162036000518,343.0160705000162,343.0008015000494,343.00083429995,343.0160705000162,343.0160705000162,343.0160705000162,348.0141754000215,348.9803709000116,right,0.0,28.37006820004899,,,,,,,,,,,,,,,,,,,,,,,,,,,,,,sub-177,1.0,random_dot,59.38252860402831,
right,right,speed,,,,,0.0,0.0,0.0,1.0,12.0,1.0,25.0,1.0,348.9954733999912,,,,,,,,,348.9814689999912,349.09611579997,349.8964297999628,349.87996329995804,349.87998339999467,349.8964297999628,349.8964297999628,349.8964297999628,,354.42803099995945,left,0.0,26.94530730007682,,,,,,,,,,,,,,,,,,,,,,,,,,,,,,sub-177,1.0,random_dot,59.38252860402831,
left,left,speed,,,,,0.0,0.0,0.0,1.0,13.0,0.0,26.0,0.0,354.4441747999517,,,,,,,,,354.42903050000314,354.5439042999642,355.3428054000251,355.3276196999941,355.32763950002845,355.3428054000251,355.3428054000251,355.3428054000251,360.3414110000013,360.8239624999696,right,0.0,27.886978200054727,,,,,,,,,,,,,,,,,,,,,,,,,,,,,,sub-177,1.0,random_dot,59.38252860402831,
right,right,speed,,,,,0.0,0.0,0.0,1.0,13.0,1.0,27.0,1.0,360.8394895000383,,,,,,,,,360.82488560001366,360.9234599999618,361.72266540001146,361.7076465999708,361.707665199996,361.72266540001146,361.72266540001146,361.72266540001146,366.7205790999578,367.469905899954,right,1.0,28.16710060008336,,,,,,,,,,,,,,,,,,,,,,,,,,,,,,sub-177,1.0,random_dot,59.38252860402831,
right,right,speed,,,,,0.0,0.0,0.0,1.0,14.0,0.0,28.0,1.0,367.4857660999987,,,,,,,,,367.4708564999746,367.5694999999832,368.3694981000153,368.3538190999534,368.35384330002125,368.3694981000153,368.3694981000153,368.3694981000153,,372.8513428999577,right,1.0,26.90177290001884,,,,,,,,,,,,,,,,,,,,,,,,,,,,,,sub-177,1.0,random_dot,59.38252860402831,
left,left,speed,,,,,0.0,0.0,0.0,1.0,14.0,1.0,29.0,0.0,372.8666216999991,,,,,,,,,372.8523751000175,373.6679511000402,374.4836296000285,374.4676511000144,374.4676707000472,374.4836296000285,374.4836296000285,374.4836296000285,,377.7152787999949,left,1.0,25.640830699936487,,,,,,,,,,,,,,,,,,,,,,,,,,,,,,sub-177,1.0,random_dot,59.38252860402831,
right,right,speed,,,,,0.0,0.0,0.0,1.0,15.0,0.0,30.0,1.0,377.7316678999923,,,,,,,,,377.7162192000542,378.93129219999537,379.73077909997664,379.71421490004286,379.7142335999524,379.73077909997664,379.73077909997664,379.73077909997664,,384.34543049999047,right,1.0,27.02786290005315,,,,,,,,,,,,,,,,,,,,,,,,,,,,,,sub-177,1.0,random_dot,59.38252860402831,
left,left,speed,,,,,0.0,0.0,0.0,1.0,15.0,1.0,31.0,0.0,384.3613755999832,,,,,,,,,384.3464351999573,384.7118027999532,385.5276776000392,385.5113849999616,385.5114043999929,385.5276776000392,385.5276776000392,385.5276776000392,390.5248479000293,391.3584858999821,left,1.0,28.249307100079022,,,,,,,,,,,,,,,,,,,,,,,,,,,,,,sub-177,1.0,random_dot,59.38252860402831,
right,right,speed,,,,,0.0,0.0,0.0,1.0,16.0,0.0,32.0,1.0,391.3737298999913,,,,,,,,,391.3594360999996,392.1742785000242,392.9733127000509,392.957592700026,392.9576102000429,392.9733127000509,392.9733127000509,392.9733127000509,397.9712772000348,398.7547049999703,right,1.0,28.19815599999856,,,,,,,,,,,,,,,,,,,,,,,,,,,,,,sub-177,1.0,random_dot,59.38252860402831,
left,left,speed,,,,,0.0,0.0,0.0,1.0,16.0,1.0,33.0,0.0,398.7698164000176,,,,,,,,,398.7556844999781,398.8709957000101,399.6697061000159,399.6541458000429,399.6541661999654,399.6697061000159,399.6697061000159,399.6697061000159,,404.3683089000406,left,1.0,27.116535800043494,,,,,,,,,,,,,,,,,,,,,,,,,,,,,,sub-177,1.0,random_dot,59.38252860402831,
left,left,speed,,,,,0.0,0.0,0.0,1.0,17.0,0.0,34.0,0.0,404.3838566000341,,,,,,,,,404.3694632999832,404.4842419000343,405.30162579996977,405.2844795000274,405.2845023999689,405.30162579996977,405.30162579996977,405.30162579996977,,408.7490475999657,right,0.0,25.854011600022204,,,,,,,,,,,,,,,,,,,,,,,,,,,,,,sub-177,1.0,random_dot,59.38252860402831,
right,right,speed,,,,,0.0,0.0,0.0,1.0,17.0,1.0,35.0,1.0,408.76531000004616,,,,,,,,,408.7499585000333,409.9640839999775,410.7640067000175,410.7476890999824,410.7477101000258,410.7640067000175,410.7640067000175,410.7640067000175,415.7628217999591,417.2777625999879,left,0.0,28.918973400024697,,,,,,,,,,,,,,,,,,,,,,,,,,,,,,sub-177,1.0,random_dot,59.38252860402831,
left,left,speed,,,,,0.0,0.0,0.0,1.0,18.0,0.0,36.0,0.0,417.2933612000197,,,,,,,,,417.2786721000448,418.4771176000359,419.27627479995135,419.2606071999762,419.2606247999938,419.27627479995135,419.27627479995135,419.27627479995135,424.2728800999466,425.6739763000514,right,0.0,28.808883900055665,,,,,,,,,,,,,,,,,,,,,,,,,,,,,,sub-177,1.0,random_dot,59.38252860402831,
right,right,speed,,,,,0.0,0.0,0.0,1.0,18.0,1.0,37.0,1.0,425.68924450001214,,,,,,,,,425.674936400028,425.788995699957,426.58920199994463,426.57254439999815,426.572564000031,426.58920199994463,426.58920199994463,426.58920199994463,431.5863163999748,432.5203557000496,right,1.0,28.343318200088103,,,,,,,,,,,,,,,,,,,,,,,,,,,,,,sub-177,1.0,random_dot,59.38252860402831,
left,left,speed,,,,,0.0,0.0,0.0,1.0,19.0,0.0,38.0,0.0,432.53582180000376,,,,,,,,,432.52202439995017,432.8856007000432,433.6849771999987,433.6703447999898,433.6703643000219,433.6849771999987,433.6849771999987,433.6849771999987,438.6823031000095,440.1831007000292,left,1.0,28.913245200063106,,,,,,,,,,,,,,,,,,,,,,,,,,,,,,sub-177,1.0,random_dot,59.38252860402831,
right,right,speed,,,,,0.0,0.0,0.0,1.0,19.0,1.0,39.0,1.0,440.1978676000144,,,,,,,,,440.1840250999667,440.2822088999674,441.0811525000026,441.0652876000386,441.06530500005465,441.0811525000026,441.0811525000026,441.0811525000026,446.0787371000042,446.08003369998187,right,1.0,27.407496899948452,,,,,,,,,,,,,,,,,,,,,,,,,,,,,,sub-177,1.0,random_dot,59.38252860402831,
left,left,speed,,,,,0.0,0.0,0.0,1.0,20.0,0.0,40.0,0.0,446.09538059995975,,,,,,,,,446.0810199000407,446.89522679999936,447.6949841999449,447.6794366999529,447.679456599988,447.6949841999449,447.6949841999449,447.6949841999449,,452.5771790000144,left,1.0,27.29979600000661,,,,,,,,,,,,,,,,,,,,,,,,,,,,,,sub-177,1.0,random_dot,59.38252860402831,
right,right,speed,,,,,0.0,0.0,0.0,1.0,20.0,1.0,41.0,1.0,452.5919916999992,,,,,,,,,452.578224399942,453.7920991999563,454.5912910000188,454.5755553999916,454.5755892000161,454.5912910000188,454.5912910000188,454.5912910000188,,457.6902696000179,right,1.0,25.516371399979107,,,,,,,,,,,,,,,,,,,,,,,,,,,,,,sub-177,1.0,random_dot,59.38252860402831,
left,left,speed,,,,,0.0,0.0,0.0,1.0,21.0,0.0,42.0,0.0,457.7059327999596,,,,,,,,,457.6915786999744,458.90552589995787,459.7051679999568,459.68993989995215,459.6899611999979,459.7051679999568,459.7051679999568,459.7051679999568,,460.8555584000424,left,1.0,23.55499830003828,,,,,,,,,,,,,,,,,,,,,,,,,,,,,,sub-177,1.0,random_dot,59.38252860402831,
right,right,speed,,,,,0.0,0.0,0.0,1.0,21.0,1.0,43.0,1.0,460.8713994999416,,,,,,,,,460.85653230000753,461.6714539000532,462.4699820999522,462.4543111999519,462.4543368000304,462.4699820999522,462.4699820999522,462.4699820999522,,463.5868987999857,right,1.0,23.531678800005466,,,,,,,,,,,,,,,,,,,,,,,,,,,,,,sub-177,1.0,random_dot,59.38252860402831,
right,right,speed,,,,,0.0,0.0,0.0,1.0,22.0,0.0,44.0,1.0,463.6027571000159,,,,,,,,,463.5880035000155,464.8021020999877,465.601772999973,465.5870217999909,465.5870441000443,465.601772999973,465.601772999973,465.601772999973,,469.3347942000255,right,1.0,26.14268309995532,,,,,,,,,,,,,,,,,,,,,,,,,,,,,,sub-177,1.0,random_dot,59.38252860402831,
left,left,speed,,,,,0.0,0.0,0.0,1.0,22.0,1.0,45.0,0.0,469.3504481000127,,,,,,,,,469.3357524999883,469.4498060999904,470.2502108999761,470.2335815000115,470.2336002000375,470.2502108999761,470.2502108999761,470.2502108999761,,474.598288499983,right,0.0,26.758365100016817,,,,,,,,,,,,,,,,,,,,,,,,,,,,,,sub-177,1.0,random_dot,59.38252860402831,
right,right,speed,,,,,0.0,0.0,0.0,1.0,23.0,0.0,46.0,1.0,474.6135589999613,,,,,,,,,474.59921260003466,475.41378159995656,476.2136203000555,476.1974692000076,476.19748850003816,476.2136203000555,476.2136203000555,476.2136203000555,,480.478207499953,left,0.0,26.673801800003275,,,,,,,,,,,,,,,,,,,,,,,,,,,,,,sub-177,1.0,random_dot,59.38252860402831,
left,left,speed,,,,,0.0,0.0,0.0,1.0,23.0,1.0,47.0,0.0,480.4937857999466,,,,,,,,,480.4794352999888,481.69338670000434,482.4925962999696,482.4774611999746,482.47748550004326,482.4925962999696,482.4925962999696,482.4925962999696,487.4922526000301,487.65791479998734,right,0.0,27.583583900122903,,,,,,,,,,,,,,,,,,,,,,,,,,,,,,sub-177,1.0,random_dot,59.38252860402831,
left,left,speed,,,,,0.0,0.0,0.0,1.0,24.0,0.0,48.0,0.0,487.6741715000244,,,,,,,,,487.6588773999829,487.773478899966,488.573582699988,488.5581615000265,488.5581811999437,488.573582699988,488.573582699988,488.573582699988,493.57118269999046,493.9728152999887,left,1.0,27.817740199971013,,,,,,,,,,,,,,,,,,,,,,,,,,,,,,sub-177,1.0,random_dot,59.38252860402831,
right,right,speed,,,,,0.0,0.0,0.0,1.0,24.0,1.0,49.0,1.0,493.9879582000431,,,,,,,,,493.9737999000354,494.3380534000462,495.1526596000185,495.1370789000066,495.1370967000257,495.1526596000185,495.1526596000185,495.1526596000185,500.15117680002,500.80100099998526,left,0.0,28.065265999990515,,,,,,,,,,,,,,,,,,,,,,,,,,,,,,sub-177,1.0,random_dot,59.38252860402831,
left,left,speed,,,,,0.0,0.0,0.0,1.0,25.0,0.0,50.0,0.0,500.8167437999509,,,,,,,,,500.8018975999439,500.8997438000515,501.7002460999647,501.6839075000025,501.6839251000201,501.7002460999647,501.7002460999647,501.7002460999647,506.6965035999892,508.2966786000179,right,0.0,29.014183499966748,,,,,,,,,,,,,,,,,,,,,,,,,,,,,,sub-177,1.0,random_dot,59.38252860402831,
right,right,speed,,,,,0.0,0.0,0.0,1.0,25.0,1.0,51.0,1.0,508.31264240003657,,,,,,,,,508.29767330002505,509.1128565999679,509.9125936999917,509.8969111000188,509.89694500004407,509.9125936999917,509.9125936999917,509.9125936999917,514.9100684999721,515.6440419000573,right,1.0,28.14700440003071,,,,,,,,,,,,,,,,,,,,,,,,,,,,,,sub-177,1.0,random_dot,59.38252860402831,
right,right,speed,,,,,0.0,0.0,0.0,1.0,26.0,0.0,52.0,1.0,515.6588020999916,,,,,,,,,515.6449793999782,516.0097176999552,516.809633799945,516.7927052000305,516.7927298999857,516.809633799945,516.809633799945,516.809633799945,521.8059647999471,521.9907346999971,right,1.0,27.591132400091738,,,,,,,,,,,,,,,,,,,,,,,,,,,,,,sub-177,1.0,random_dot,59.38252860402831,
left,left,speed,,,,,0.0,0.0,0.0,1.0,26.0,1.0,53.0,0.0,522.005232400028,,,,,,,,,521.9917115999851,522.1057127000531,522.906399999978,522.889691999997,522.8897293000482,522.906399999978,522.906399999978,522.906399999978,,527.6716457000002,right,0.0,27.183377200039104,,,,,,,,,,,,,,,,,,,,,,,,,,,,,,sub-177,1.0,random_dot,59.38252860402831,
left,left,speed,,,,,0.0,0.0,0.0,1.0,27.0,0.0,54.0,0.0,527.6861597000388,,,,,,,,,527.6725804000162,528.4864407000132,529.2848236999707,529.2700776000274,529.2700971999438,529.2848236999707,529.2848236999707,529.2848236999707,534.2833288999973,534.5000982000493,left,1.0,27.631780500058085,,,,,,,,,,,,,,,,,,,,,,,,,,,,,,sub-177,1.0,random_dot,59.38252860402831,
right,right,speed,,,,,0.0,0.0,0.0,1.0,27.0,1.0,55.0,1.0,534.5157075000461,,,,,,,,,534.5010088999989,534.5989625999937,535.3999274000525,535.3832287000259,535.3832480000565,535.3999274000525,535.3999274000525,535.3999274000525,,537.532103799982,right,1.0,24.53994450008031,,,,,,,,,,,,,,,,,,,,,,,,,,,,,,sub-177,1.0,random_dot,59.38252860402831,
right,right,speed,,,,,0.0,0.0,0.0,1.0,28.0,0.0,56.0,1.0,537.5474550999934,,,,,,,,,537.5330287000397,537.6310140000423,538.4307230999693,538.415270700003,538.4152984999819,538.4307230999693,538.4307230999693,538.4307230999693,,542.5628073000116,right,1.0,26.547496000071988,,,,,,,,,,,,,,,,,,,,,,,,,,,,,,sub-177,1.0,random_dot,59.38252860402831,
left,left,speed,,,,,0.0,0.0,0.0,1.0,28.0,1.0,57.0,0.0,542.578568500001,,,,,,,,,542.563794799964,542.6781668999465,543.4781876000343,543.4634777000174,543.463522200007,543.4781876000343,543.4781876000343,543.4781876000343,548.4756369000534,549.0270006000064,right,0.0,27.96037109999452,,,,,,,,,,,,,,,,,,,,,,,,,,,,,,sub-177,1.0,random_dot,59.38252860402831,
right,right,speed,,,,,0.0,0.0,0.0,1.0,29.0,0.0,58.0,1.0,549.0421570000472,,,,,,,,,549.0279939000029,549.3916442999616,550.191151099978,550.1757758000167,550.1757958000526,550.191151099978,550.191151099978,550.191151099978,555.1889999000123,555.9730159000028,left,0.0,28.20075469999574,,,,,,,,,,,,,,,,,,,,,,,,,,,,,,sub-177,1.0,random_dot,59.38252860402831,
left,left,speed,,,,,0.0,0.0,0.0,1.0,29.0,1.0,59.0,0.0,555.9886401999975,,,,,,,,,555.97410760005,556.0879671999719,556.8879317999817,556.8723493999569,556.8723695999943,556.8879317999817,556.8879317999817,556.8879317999817,561.8860197999747,562.5516177000245,right,0.0,28.07438570004888,,,,,,,,,,,,,,,,,,,,,,,,,,,,,,sub-177,1.0,random_dot,59.38252860402831,
,,speed,,,,,0.0,0.0,0.0,1.0,,,,,,,,,,,,,,,,,,,,,,,,,,,,,,,,,,,,,,,,,,,,,,,,,,,,,,,,sub-177,1.0,random_dot,59.38252860402831,
left,left,accuracy,,,,,0.0,1.0,1.0,0.0,0.0,0.0,0.0,0.0,566.4828367000446,,,,,,,,,566.4743041000329,566.5665703000268,567.365837899968,567.3498171999818,567.3498387000291,567.365837899968,567.365837899968,567.365837899968,572.3640051999828,573.479989000014,right,0.0,28.532179500092752,,,,,,,,,,,,,,,,,,,,562.5524894000264,562.5680930999806,562.5680930999806,566.4676047000103,space,26.31522980006412,,,,,sub-177,1.0,random_dot,59.38252860402831,
right,right,accuracy,,,,,0.0,1.0,1.0,0.0,0.0,1.0,1.0,1.0,573.496496799984,,,,,,,,,573.4811824000208,574.695133900037,575.4952470000135,575.4790226999903,575.4790431000292,575.4952470000135,575.4952470000135,575.4952470000135,580.4924563999521,590.0881912000477,left,0.0,37.0028825000627,,,,,,,,,,,,,,,,,,,,,,,,,,,,,,sub-177,1.0,random_dot,59.38252860402831,
right,right,accuracy,,,,,0.0,1.0,1.0,0.0,1.0,0.0,2.0,1.0,590.1045268999878,,,,,,,,,590.0894196999725,590.2040364999557,591.0034175999463,590.9872379000299,590.9872642999981,591.0034175999463,591.0034175999463,591.0034175999463,,595.5689895000542,right,1.0,26.9857235000236,,,,,,,,,,,,,,,,,,,,,,,,,,,,,,sub-177,1.0,random_dot,59.38252860402831,
left,left,accuracy,,,,,0.0,1.0,1.0,0.0,1.0,1.0,3.0,0.0,595.584381600027,,,,,,,,,595.5699774000095,595.6842349000508,596.484454200021,596.4680112999631,596.4680313999997,596.484454200021,596.484454200021,596.484454200021,601.4818681000033,602.6817863000324,left,1.0,28.61302920000162,,,,,,,,,,,,,,,,,,,,,,,,,,,,,,sub-177,1.0,random_dot,59.38252860402831,
left,left,accuracy,,,,,0.0,1.0,1.0,0.0,2.0,0.0,4.0,0.0,602.6974907000549,,,,,,,,,602.6827376999427,603.8963136000093,604.6962664000457,604.6802516999887,604.6802718000254,604.6962664000457,604.6962664000457,604.6962664000457,609.6943410000531,610.8442303000484,right,0.0,28.56659960001707,,,,,,,,,,,,,,,,,,,,,,,,,,,,,,sub-177,1.0,random_dot,59.38252860402831,
right,right,accuracy,,,,,0.0,1.0,1.0,0.0,2.0,1.0,5.0,1.0,610.8588917000452,,,,,,,,,610.8453443000326,611.209905100055,612.009543800028,611.9931599999545,611.9931832000148,612.009543800028,612.009543800028,612.009543800028,617.0066748999525,617.1408808999695,right,1.0,27.54350750008598,,,,,,,,,,,,,,,,,,,,,,,,,,,,,,sub-177,1.0,random_dot,59.38252860402831,
left,left,accuracy,,,,,0.0,1.0,1.0,0.0,3.0,0.0,6.0,0.0,617.155956499977,,,,,,,,,617.1418188000098,617.2565553999739,618.0564624000108,618.0408775999676,618.0409011000302,618.0564624000108,618.0564624000108,618.0564624000108,,622.937874599942,left,1.0,27.294895200058814,,,,,,,,,,,,,,,,,,,,,,,,,,,,,,sub-177,1.0,random_dot,59.38252860402831,
right,right,accuracy,,,,,0.0,1.0,1.0,0.0,3.0,1.0,7.0,1.0,622.9526593999472,,,,,,,,,622.9388265999733,623.0529110999778,623.8539685000433,623.8375771000283,623.8375957000535,623.8539685000433,623.8539685000433,623.8539685000433,,628.4681872000219,right,1.0,27.030375400092453,,,,,,,,,,,,,,,,,,,,,,,,,,,,,,sub-177,1.0,random_dot,59.38252860402831,
left,left,accuracy,,,,,0.0,1.0,1.0,0.0,4.0,0.0,8.0,0.0,628.4838563000085,,,,,,,,,628.4691088000545,628.833444799995,629.6336422000313,629.6184450000292,629.6184655999532,629.6336422000313,629.6336422000313,629.6336422000313,634.6313119999832,634.8321239999495,left,1.0,27.614827000070363,,,,,,,,,,,,,,,,,,,,,,,,,,,,,,sub-177,1.0,random_dot,59.38252860402831,
right,right,accuracy,,,,,0.0,1.0,1.0,0.0,4.0,1.0,9.0,1.0,634.8466015999438,,,,,,,,,634.833271499956,636.0462278999621,636.8467285999795,636.8313825000077,636.8314012000337,636.8467285999795,636.8467285999795,636.8467285999795,641.8443282999797,642.9438129999908,right,1.0,28.507166500086896,,,,,,,,,,,,,,,,,,,,,,,,,,,,,,sub-177,1.0,random_dot,59.38252860402831,
left,left,accuracy,,,,,0.0,1.0,1.0,0.0,5.0,0.0,10.0,0.0,642.9605949999532,,,,,,,,,642.944759999984,644.1593532999977,644.9590113000013,644.943144800025,644.9431732000085,644.9590113000013,644.9590113000013,644.9590113000013,,648.658200899954,left,1.0,26.114868800039403,,,,,,,,,,,,,,,,,,,,,,,,,,,,,,sub-177,1.0,random_dot,59.38252860402831,
right,right,accuracy,,,,,0.0,1.0,1.0,0.0,5.0,1.0,11.0,1.0,648.6731704999693,,,,,,,,,648.6591469000559,649.4731016999576,650.2727169999853,650.2570266999537,650.2570578999585,650.2727169999853,650.2727169999853,650.2727169999853,655.2691028000554,661.2185323999729,right,1.0,33.36555019998923,,,,,,,,,,,,,,,,,,,,,,,,,,,,,,sub-177,1.0,random_dot,59.38252860402831,
right,right,accuracy,,,,,0.0,1.0,1.0,0.0,6.0,0.0,12.0,1.0,661.2327899000375,,,,,,,,,661.2198755999561,661.5841696000425,662.3999344999902,662.3842398000415,662.384260199964,662.3999344999902,662.3999344999902,662.3999344999902,667.3965729000047,688.0702002999606,right,1.0,48.08378320001066,,,,,,,,,,,,,,,,,,,,,,,,,,,,,,sub-177,1.0,random_dot,59.38252860402831,
left,left,accuracy,,,,,0.0,1.0,1.0,0.0,6.0,1.0,13.0,0.0,688.0861661999952,,,,,,,,,688.0711625999538,688.8859232000541,689.6856126999483,689.6696305000223,689.6696505999425,689.6856126999483,689.6856126999483,689.6856126999483,694.6827997999499,695.8496822000016,left,1.0,28.575238300021734,,,,,,,,,,,,,,,,,,,,,,,,,,,,,,sub-177,1.0,random_dot,59.38252860402831,
right,right,accuracy,,,,,0.0,1.0,1.0,0.0,7.0,0.0,14.0,1.0,695.8648848000448,,,,,,,,,695.8506643000292,697.064311999944,697.8641290999949,697.8486621000338,697.8486826999579,697.8641290999949,697.8641290999949,697.8641290999949,702.8620961999986,703.5954406999517,right,1.0,28.14594020007644,,,,,,,,,,,,,,,,,,,,,,,,,,,,,,sub-177,1.0,random_dot,59.38252860402831,
left,left,accuracy,,,,,0.0,1.0,1.0,0.0,7.0,1.0,15.0,0.0,703.6113563999534,,,,,,,,,703.5963885999518,703.9616590000223,704.7612536000088,704.745805399958,704.7458295000251,704.7612536000088,704.7612536000088,704.7612536000088,709.7590725000482,710.3931272999616,left,1.0,28.038672300055623,,,,,,,,,,,,,,,,,,,,,,,,,,,,,,sub-177,1.0,random_dot,59.38252860402831,
right,right,accuracy,,,,,0.0,1.0,1.0,0.0,8.0,0.0,16.0,1.0,710.4079665000318,,,,,,,,,710.3942566999467,711.2077893000096,712.0242190000135,712.0085747999838,712.0085981000448,712.0242190000135,712.0242190000135,712.0242190000135,717.0215479000472,717.3052655999782,left,0.0,27.69371460005641,,,,,,,,,,,,,,,,,,,,,,,,,,,,,,sub-177,1.0,random_dot,59.38252860402831,
left,left,accuracy,,,,,0.0,1.0,1.0,0.0,8.0,1.0,17.0,0.0,717.320838100044,,,,,,,,,717.306241299957,718.1210864000022,718.9372776000528,718.9211222999729,718.9211425000103,718.9372776000528,718.9372776000528,718.9372776000528,723.9349540000549,724.0176748000085,right,0.0,27.491353400051597,,,,,,,,,,,,,,,,,,,,,,,,,,,,,,sub-177,1.0,random_dot,59.38252860402831,
left,left,accuracy,,,,,0.0,1.0,1.0,0.0,9.0,0.0,18.0,0.0,724.0331465000054,,,,,,,,,724.0185943000251,724.3675555000082,725.1666584999766,725.1518638000125,725.1518828000408,725.1666584999766,725.1666584999766,725.1666584999766,730.1643425000366,730.8313077000203,left,1.0,28.0826090000337,,,,,,,,,,,,,,,,,,,,,,,,,,,,,,sub-177,1.0,random_dot,59.38252860402831,
right,right,accuracy,,,,,0.0,1.0,1.0,0.0,9.0,1.0,19.0,1.0,730.8468614999438,,,,,,,,,730.8322615999496,731.6466606999747,732.4464568999829,732.43111460004,732.4311377999838,732.4464568999829,732.4464568999829,732.4464568999829,,737.3124937999528,right,1.0,27.284435900044627,,,,,,,,,,,,,,,,,,,,,,,,,,,,,,sub-177,1.0,random_dot,59.38252860402831,
right,right,accuracy,,,,,0.0,1.0,1.0,0.0,10.0,0.0,20.0,1.0,737.3272123000352,,,,,,,,,737.3134285999695,738.126870600041,738.9427268999862,738.9266058000503,738.9266334000276,738.9427268999862,738.9427268999862,738.9427268999862,743.9407481000526,744.5583977999631,right,1.0,28.035647899960168,,,,,,,,,,,,,,,,,,,,,,,,,,,,,,sub-177,1.0,random_dot,59.38252860402831,
left,left,accuracy,,,,,0.0,1.0,1.0,0.0,10.0,1.0,21.0,0.0,744.5731454000343,,,,,,,,,744.5593749999534,745.3732695999788,746.1731126999948,746.1567676999839,746.1567874000175,746.1731126999948,746.1731126999948,746.1731126999948,,749.7890253999503,right,0.0,26.03430230007507,,,,,,,,,,,,,,,,,,,,,,,,,,,,,,sub-177,1.0,random_dot,59.38252860402831,
right,right,accuracy,,,,,0.0,1.0,1.0,0.0,11.0,0.0,22.0,1.0,749.8041588000488,,,,,,,,,749.7899724999443,750.1541521999752,750.9535226000007,750.9387168999529,750.9387365999864,750.9535226000007,750.9535226000007,750.9535226000007,755.9505334000569,756.0678592999466,right,1.0,27.527381600113586,,,,,,,,,,,,,,,,,,,,,,,,,,,,,,sub-177,1.0,random_dot,59.38252860402831,
left,left,accuracy,,,,,0.0,1.0,1.0,0.0,11.0,1.0,23.0,0.0,756.0835106000304,,,,,,,,,756.0691008999711,756.8841633000411,757.6994729000144,757.6835850999923,757.6836119999643,757.6994729000144,757.6994729000144,757.6994729000144,,761.8325558999786,left,1.0,26.54491900000721,,,,,,,,,,,,,,,,,,,,,,,,,,,,,,sub-177,1.0,random_dot,59.38252860402831,
right,right,accuracy,,,,,0.0,1.0,1.0,0.0,12.0,0.0,24.0,1.0,761.8472958999919,,,,,,,,,761.8338477000361,763.0471450999612,763.8467427999713,763.8306260999525,763.8306493000127,763.8467427999713,763.8467427999713,763.8467427999713,,767.6626199999591,right,1.0,26.22287990001496,,,,,,,,,,,,,,,,,,,,,,,,,,,,,,sub-177,1.0,random_dot,59.38252860402831,
left,left,accuracy,,,,,0.0,1.0,1.0,0.0,12.0,1.0,25.0,0.0,767.6788945000153,,,,,,,,,767.6635970999487,768.4786373999668,769.2934112000512,769.27762790001,769.2776503999485,769.2934112000512,769.2934112000512,769.2934112000512,,774.1418690000428,right,0.0,27.257038500043564,,,,,,,,,,,,,,,,,,,,,,,,,,,,,,sub-177,1.0,random_dot,59.38252860402831,
right,right,accuracy,,,,,0.0,1.0,1.0,0.0,13.0,0.0,26.0,1.0,774.157725200057,,,,,,,,,774.1435795000289,775.3579949999694,776.1573685000185,776.141746200039,776.1417689999798,776.1573685000185,776.1573685000185,776.1573685000185,781.154179599951,781.4715854000533,right,1.0,27.729189700097777,,,,,,,,,,,,,,,,,,,,,,,,,,,,,,sub-177,1.0,random_dot,59.38252860402831,
left,left,accuracy,,,,,0.0,1.0,1.0,0.0,13.0,1.0,27.0,0.0,781.4870753999567,,,,,,,,,781.4727077999851,782.2864533000393,783.0866989999777,783.0709603000432,783.0709806999657,783.0866989999777,783.0866989999777,783.0866989999777,788.0835375000024,788.3179389999714,left,1.0,27.64966740005184,,,,,,,,,,,,,,,,,,,,,,,,,,,,,,sub-177,1.0,random_dot,59.38252860402831,
right,right,accuracy,,,,,0.0,1.0,1.0,0.0,14.0,0.0,28.0,1.0,788.3342762000393,,,,,,,,,788.3192958999425,789.5344628000166,790.3328780999873,790.3176406000275,790.3176634999691,790.3328780999873,790.3328780999873,790.3328780999873,795.331217900035,795.7988923999947,left,0.0,27.880121700116437,,,,,,,,,,,,,,,,,,,,,,,,,,,,,,sub-177,1.0,random_dot,59.38252860402831,
left,left,accuracy,,,,,0.0,1.0,1.0,0.0,14.0,1.0,29.0,0.0,795.8130573000526,,,,,,,,,795.7998616000405,797.0123325999593,797.8119933999842,797.7962154999841,797.7962477999972,797.8119933999842,797.8119933999842,797.8119933999842,,801.4620757000521,right,0.0,26.070212900056504,,,,,,,,,,,,,,,,,,,,,,,,,,,,,,sub-177,1.0,random_dot,59.38252860402831,
left,left,accuracy,,,,,0.0,1.0,1.0,0.0,15.0,0.0,30.0,0.0,801.4771052999422,,,,,,,,,801.4630657000234,802.2774246999761,803.0758974000346,803.060715300031,803.0607491000555,803.0758974000346,803.0758974000346,803.0758974000346,,807.7588859000243,right,0.0,27.10332550003659,,,,,,,,,,,,,,,,,,,,,,,,,,,,,,sub-177,1.0,random_dot,59.38252860402831,
right,right,accuracy,,,,,0.0,1.0,1.0,0.0,15.0,1.0,31.0,1.0,807.7737674999516,,,,,,,,,807.7599239000119,808.1238875000272,808.9235728000058,808.906831500004,808.9068557999562,808.9235728000058,808.9235728000058,808.9235728000058,,811.5726883000461,left,0.0,25.06602110003587,,,,,,,,,,,,,,,,,,,,,,,,,,,,,,sub-177,1.0,random_dot,59.38252860402831,
left,left,accuracy,,,,,0.0,1.0,1.0,0.0,16.0,0.0,32.0,0.0,811.587903699954,,,,,,,,,811.5736323000165,811.9219059000025,812.7238764000358,812.7060435999883,812.7060627000174,812.7238764000358,812.7238764000358,812.7238764000358,,817.6195502999472,right,0.0,27.30159010004718,,,,,,,,,,,,,,,,,,,,,,,,,,,,,,sub-177,1.0,random_dot,59.38252860402831,
right,right,accuracy,,,,,0.0,1.0,1.0,0.0,16.0,1.0,33.0,1.0,817.6360265000258,,,,,,,,,817.6205067000119,817.7347760000266,818.5354633999523,818.5201026999857,818.5201341999928,818.5354633999523,818.5354633999523,818.5354633999523,823.5326859999914,823.9344483000459,right,1.0,27.819267499959096,,,,,,,,,,,,,,,,,,,,,,,,,,,,,,sub-177,1.0,random_dot,59.38252860402831,
right,right,accuracy,,,,,0.0,1.0,1.0,0.0,17.0,0.0,34.0,1.0,823.9483983999817,,,,,,,,,823.9354309999617,825.1486681000097,825.9483157000504,825.9329711999744,825.9330024999799,825.9483157000504,825.9483157000504,825.9483157000504,830.945360200014,831.5618326000404,right,1.0,28.025970999966376,,,,,,,,,,,,,,,,,,,,,,,,,,,,,,sub-177,1.0,random_dot,59.38252860402831,
left,left,accuracy,,,,,0.0,1.0,1.0,0.0,17.0,1.0,35.0,0.0,831.5774359999923,,,,,,,,,831.5627488000318,832.7607153999852,833.5599810000276,833.5441325999564,833.5441520999884,833.5599810000276,833.5599810000276,833.5599810000276,838.5586359000299,838.6085631999886,left,1.0,27.462462500086986,,,,,,,,,,,,,,,,,,,,,,,,,,,,,,sub-177,1.0,random_dot,59.38252860402831,
right,right,accuracy,,,,,0.0,1.0,1.0,0.0,18.0,0.0,36.0,1.0,838.6246991000371,,,,,,,,,838.6095022000372,838.7080531000393,839.508658500039,839.4919613000238,839.4919817999471,839.508658500039,839.508658500039,839.508658500039,844.5039006000152,845.004521899973,right,1.0,27.91342610004358,,,,,,,,,,,,,,,,,,,,,,,,,,,,,,sub-177,1.0,random_dot,59.38252860402831,
left,left,accuracy,,,,,0.0,1.0,1.0,0.0,18.0,1.0,37.0,0.0,845.0206629999448,,,,,,,,,845.005406799959,845.1050990000367,845.9041842999868,845.888105400023,845.8881254999433,845.9041842999868,845.9041842999868,845.9041842999868,850.9013393999776,851.7689213999547,left,1.0,28.278664899989963,,,,,,,,,,,,,,,,,,,,,,,,,,,,,,sub-177,1.0,random_dot,59.38252860402831,
right,right,accuracy,,,,,0.0,1.0,1.0,0.0,19.0,0.0,38.0,1.0,851.784284500056,,,,,,,,,851.7699045999907,852.13368920004,852.9336418999592,852.9182280000532,852.9182480999734,852.9336418999592,852.9336418999592,852.9336418999592,,857.1660502000013,right,1.0,26.64497400005348,,,,,,,,,,,,,,,,,,,,,,,,,,,,,,sub-177,1.0,random_dot,59.38252860402831,
left,left,accuracy,,,,,0.0,1.0,1.0,0.0,19.0,1.0,39.0,0.0,857.1811764000449,,,,,,,,,857.1670438000001,857.9814184999559,858.7977319000056,858.781183199957,858.7812072000233,858.7977319000056,858.7977319000056,858.7977319000056,863.7947453999659,864.4622773999581,right,0.0,28.08039070002269,,,,,,,,,,,,,,,,,,,,,,,,,,,,,,sub-177,1.0,random_dot,59.38252860402831,
right,right,accuracy,,,,,0.0,1.0,1.0,0.0,20.0,0.0,40.0,1.0,864.477287900052,,,,,,,,,864.4634308000095,865.6765414000256,866.4759091000305,866.4593732999638,866.4593924999936,866.4759091000305,866.4759091000305,866.4759091000305,871.4740950999549,872.7411550000543,right,1.0,28.675896000000648,,,,,,,,,,,,,,,,,,,,,,,,,,,,,,sub-177,1.0,random_dot,59.38252860402831,
left,left,accuracy,,,,,0.0,1.0,1.0,0.0,20.0,1.0,41.0,0.0,872.7561223000521,,,,,,,,,872.7421197999502,873.1068220000016,873.9053261999507,873.8929000999779,873.8929212000221,873.9053261999507,873.9053261999507,873.9053261999507,,876.1230649000499,left,1.0,24.630124800023623,,,,,,,,,,,,,,,,,,,,,,,,,,,,,,sub-177,1.0,random_dot,59.38252860402831,
right,right,accuracy,,,,,0.0,1.0,1.0,0.0,21.0,0.0,42.0,1.0,876.1380456000334,,,,,,,,,876.1247271000175,876.9384868999477,877.7378045000369,877.7215672000311,877.7215908999788,877.7378045000369,877.7378045000369,877.7378045000369,882.7342881000368,883.1698399999877,right,1.0,27.850525800022297,,,,,,,,,,,,,,,,,,,,,,,,,,,,,,sub-177,1.0,random_dot,59.38252860402831,
left,left,accuracy,,,,,0.0,1.0,1.0,0.0,21.0,1.0,43.0,0.0,883.1840987999458,,,,,,,,,883.1708174999803,883.9845736999996,884.7840125999646,884.7674462000141,884.7674652000424,884.7840125999646,884.7840125999646,884.7840125999646,,887.2835251999786,left,1.0,24.91985640011262,,,,,,,,,,,,,,,,,,,,,,,,,,,,,,sub-177,1.0,random_dot,59.38252860402831,
right,right,accuracy,,,,,0.0,1.0,1.0,0.0,22.0,0.0,44.0,1.0,887.2982555000344,,,,,,,,,887.2844696999528,888.0982353000436,888.8976992999669,888.8827062000055,888.8827335999813,888.8976992999669,888.8976992999669,888.8976992999669,,891.0812665000558,right,1.0,24.59947130002547,,,,,,,,,,,,,,,,,,,,,,,,,,,,,,sub-177,1.0,random_dot,59.38252860402831,
left,left,accuracy,,,,,0.0,1.0,1.0,0.0,22.0,1.0,45.0,0.0,891.0973779000342,,,,,,,,,891.082465399988,892.2955602000002,893.0958014000207,893.0798006999539,893.0798204999883,893.0958014000207,893.0958014000207,893.0958014000207,,896.5797471000114,right,0.0,25.8909792000195,,,,,,,,,,,,,,,,,,,,,,,,,,,,,,sub-177,1.0,random_dot,59.38252860402831,
right,right,accuracy,,,,,0.0,1.0,1.0,0.0,23.0,0.0,46.0,1.0,896.5940628000535,,,,,,,,,896.5807250000071,896.9439899000572,897.7435161999892,897.7273483000463,897.7273724999977,897.7435161999892,897.7435161999892,897.7435161999892,902.7417508000508,903.3080308999632,left,0.0,27.98253399995156,,,,,,,,,,,,,,,,,,,,,,,,,,,,,,sub-177,1.0,random_dot,59.38252860402831,
left,left,accuracy,,,,,0.0,1.0,1.0,0.0,23.0,1.0,47.0,0.0,903.3235606000526,,,,,,,,,903.3089880000334,903.6742316000164,904.47302819998,904.457746900036,904.4577672999584,904.47302819998,904.47302819998,904.47302819998,,908.206615800038,right,0.0,26.138620499987155,,,,,,,,,,,,,,,,,,,,,,,,,,,,,,sub-177,1.0,random_dot,59.38252860402831,
left,left,accuracy,,,,,0.0,1.0,1.0,0.0,24.0,0.0,48.0,0.0,908.2213524000254,,,,,,,,,908.2075655000516,909.4219672000036,910.236223999993,910.220737399999,910.2207606999436,910.236223999993,910.236223999993,910.236223999993,915.2336819999618,915.802922199946,right,0.0,27.97159810003359,,,,,,,,,,,,,,,,,,,,,,,,,,,,,,sub-177,1.0,random_dot,59.38252860402831,
right,right,accuracy,,,,,0.0,1.0,1.0,0.0,24.0,1.0,49.0,1.0,915.8173437999794,,,,,,,,,915.803848600015,916.616850499995,917.4169131000526,917.4011263999856,917.4011465000222,917.4169131000526,917.4169131000526,917.4169131000526,922.4139004000464,922.7821869000328,right,1.0,27.77345059998333,,,,,,,,,,,,,,,,,,,,,,,,,,,,,,sub-177,1.0,random_dot,59.38252860402831,
left,left,accuracy,,,,,0.0,1.0,1.0,0.0,25.0,0.0,50.0,0.0,922.7966638000216,,,,,,,,,922.7832001999486,923.99657009996,924.7952701000032,924.779374500038,924.7794055000412,924.7952701000032,924.7952701000032,924.7952701000032,929.7935207999544,930.6273752000416,right,0.0,28.24503580003511,,,,,,,,,,,,,,,,,,,,,,,,,,,,,,sub-177,1.0,random_dot,59.38252860402831,
right,right,accuracy,,,,,0.0,1.0,1.0,0.0,25.0,1.0,51.0,1.0,930.642120399978,,,,,,,,,930.6283151999814,931.4424752000486,932.242742100032,932.2267951000248,932.2268288000488,932.242742100032,932.242742100032,932.242742100032,,935.0083081000485,right,1.0,25.17805370001588,,,,,,,,,,,,,,,,,,,,,,,,,,,,,,sub-177,1.0,random_dot,59.38252860402831,
right,right,accuracy,,,,,0.0,1.0,1.0,0.0,26.0,0.0,52.0,1.0,935.0232582000316,,,,,,,,,935.0092444999608,936.2241493000184,937.0230716000078,937.0071051999694,937.0071250000036,937.0230716000078,937.0230716000078,937.0230716000078,,940.6565177999436,left,0.0,26.04755610006396,,,,,,,,,,,,,,,,,,,,,,,,,,,,,,sub-177,1.0,random_dot,59.38252860402831,
left,left,accuracy,,,,,0.0,1.0,1.0,0.0,26.0,1.0,53.0,0.0,940.6710867000512,,,,,,,,,940.6574721999932,941.021269400022,941.8208474999992,941.8058712000492,941.8059043999529,941.8208474999992,941.8208474999992,941.8208474999992,,943.2208138999996,left,1.0,23.818592800060287,,,,,,,,,,,,,,,,,,,,,,,,,,,,,,sub-177,1.0,random_dot,59.38252860402831,
left,left,accuracy,,,,,0.0,1.0,1.0,0.0,27.0,0.0,54.0,0.0,943.2356443000026,,,,,,,,,943.221742899972,943.569596300018,944.3696312999818,944.3532882999862,944.3533116000472,944.3696312999818,944.3696312999818,944.3696312999818,,948.668659899966,right,0.0,26.71916870004497,,,,,,,,,,,,,,,,,,,,,,,,,,,,,,sub-177,1.0,random_dot,59.38252860402831,
right,right,accuracy,,,,,0.0,1.0,1.0,0.0,27.0,1.0,55.0,1.0,948.6836265999592,,,,,,,,,948.6696043000557,949.8832992999814,950.682867800002,950.6669461999554,950.6669653999852,950.682867800002,950.682867800002,950.682867800002,955.6800936999498,956.2320547000272,right,1.0,27.958658200106584,,,,,,,,,,,,,,,,,,,,,,,,,,,,,,sub-177,1.0,random_dot,59.38252860402831,
left,left,accuracy,,,,,0.0,1.0,1.0,0.0,28.0,0.0,56.0,0.0,956.2463010000064,,,,,,,,,956.2329992000014,956.5962974999566,957.3956905000376,957.3797989999877,957.3798166000053,957.3956905000376,957.3956905000376,957.3956905000376,,961.7941979999888,left,1.0,26.8070969999535,,,,,,,,,,,,,,,,,,,,,,,,,,,,,,sub-177,1.0,random_dot,59.38252860402831,
right,right,accuracy,,,,,0.0,1.0,1.0,0.0,28.0,1.0,57.0,1.0,961.8094506999478,,,,,,,,,961.79514079995,962.1592119999696,962.9595221000492,962.944504700019,962.9445318999932,962.9595221000492,962.9595221000492,962.9595221000492,967.9577979999594,968.37431069999,right,1.0,27.831978800008077,,,,,,,,,,,,,,,,,,,,,,,,,,,,,,sub-177,1.0,random_dot,59.38252860402831,
left,left,accuracy,,,,,0.0,1.0,1.0,0.0,29.0,0.0,58.0,0.0,968.3895520999796,,,,,,,,,968.375260300003,969.5893405999524,970.3896524000448,970.3745256999972,970.3745533999754,970.3896524000448,970.3896524000448,970.3896524000448,,972.4216816000408,left,1.0,24.447123000049032,,,,,,,,,,,,,,,,,,,,,,,,,,,,,,sub-177,1.0,random_dot,59.38252860402831,
right,right,accuracy,,,,,0.0,1.0,1.0,0.0,29.0,1.0,59.0,1.0,972.4371891999616,,,,,,,,,972.4225436999697,972.771565199946,973.5708905999782,973.5555035000434,973.5555512000574,973.5708905999782,973.5708905999782,973.5708905999782,978.568331000046,979.184921600041,right,1.0,28.030709200073037,,,,,,,,,,,,,,,,,,,,,,,,,,,,,,sub-177,1.0,random_dot,59.38252860402831,
,,accuracy,,,,,0.0,1.0,1.0,0.0,,,,,,,,,,,,,,,,,,,,,,,,,,,,,,,,,,,,,,,,,,,,,,,,,,,,,,,,sub-177,1.0,random_dot,59.38252860402831,
,,,,,,,,,,,,,,,,,,,,,,,,,,,,,,,,,,,,,,,,,,,,,,,,,,,,,,,,,,,,,,,979.1855937000364,979.2005069999724,984.1994150000392,sub-177,,,,
