wordCTK,colorCTK,corrAnsCTK,congruentCTK,thisN,thisTrialN,thisRepN,keyResp_CTK.keys,keyResp_CTK.corr,keyResp_CTK.rt,keyResp_CTK.duration,wordPractice,colorPractice,corrAnsPractice,congruentPractice,respPractice.keys,respPractice.corr,respPractice.rt,respPractice.duration,word,color,corrAns,congruent,keyResp_test_run.keys,keyResp_test_run.corr,keyResp_test_run.rt,keyResp_test_run.duration,trials_CTK.thisRepN,trials_CTK.thisTrialN,trials_CTK.thisN,trials_CTK.thisIndex,trials_practice.thisRepN,trials_practice.thisTrialN,trials_practice.thisN,trials_practice.thisIndex,trials_test.thisRepN,trials_test.thisTrialN,trials_test.thisN,trials_test.thisIndex,thisRow.t,notes,instruction.started,instr_text.started,instr_image.started,instr_resp.started,instruction.stopped,instr_resp.keys,instr_resp.rt,instr_resp.duration,instr_color_to_key.started,instr_ctk.started,resp_ctk.started,instr_color_to_key.stopped,resp_ctk.keys,resp_ctk.rt,resp_ctk.duration,ITI.started,fixcross.started,fixcross.stopped,ITI.stopped,color_to_key_run.started,stimulus_CTK.started,keyResp_CTK.started,color_to_key_run.stopped,trials_CTK.keyResp_CTK.keys,trials_CTK.keyResp_CTK.corr,trials_CTK.keyResp_CTK.rt,trials_CTK.keyResp_CTK.duration,instr_practice.started,instr_practice_text.started,instr_practice_resp.started,instr_practice.stopped,instr_practice_resp.keys,instr_practice_resp.rt,instr_practice_resp.duration,practice_run.started,stimulus_practice.started,respPractice.started,practice_run.stopped,trials_practice.respPractice.keys,trials_practice.respPractice.corr,trials_practice.respPractice.rt,trials_practice.respPractice.duration,feedback.started,textFeedback.started,feedback.stopped,textFeedback.stopped,instr_test.started,instr_test_text.started,instr_test_resp.started,instr_test.stopped,instr_test_resp.keys,instr_test_resp.rt,instr_test_resp.duration,test_run.started,stimulus_test_run.started,keyResp_test_run.started,test_run.stopped,trials_test.keyResp_test_run.keys,trials_test.keyResp_test_run.corr,trials_test.keyResp_test_run.rt,trials_test.keyResp_test_run.duration,goodbye.started,textGoodbye.started,textGoodbye.stopped,goodbye.stopped,participant,session,expName,frameRate,Unnamed: 113
,,,,,,,,,,,,,,,,,,,,,,,,,,,,,,,,,,,,,,,,,0.0059258999972371,0.0906389999872772,0.0906389999872772,0.0906389999872772,71.18173039999965,space,71.06012309998914,,,,,,,,,,,,,,,,,,,,,,,,,,,,,,,,,,,,,,,,,,,,,,,,,,,,,,,,,,,sub-002,1,stroop_test,59.76153950166449,
,,,,,,,,,,,,,,,,,,,,,,,,,,,,,,,,,,,,,,,,,,,,,,,,,71.18182739999611,71.19097189999593,71.19097189999593,77.36400709999725,space,6.169465700004366,,,,,,,,,,,,,,,,,,,,,,,,,,,,,,,,,,,,,,,,,,,,,,,,,,,,sub-002,1,stroop_test,59.76153950166449,
test,yellow,g,1.0,0.0,0.0,0.0,g,1.0,0.8486402999988059,,,,,,,,,,,,,,,,,,0.0,0.0,0.0,1.0,,,,,,,,,77.39438719999453,,,,,,,,,,,,,,,,,77.38698709999153,78.17871549999109,78.982975299994,78.96322829999554,78.97445829999924,78.982975299994,78.982975299994,79.84671739999612,g,1.0,0.8486402999988059,,,,,,,,,,,,,,,,,,,,,,,,,,,,,,,,,,,,,,,,sub-002,1,stroop_test,59.76153950166449,
test,blue,b,1.0,1.0,1.0,0.0,b,1.0,0.5393723000015598,,,,,,,,,,,,,,,,,,0.0,1.0,1.0,2.0,,,,,,,,,79.86254339999869,,,,,,,,,,,,,,,,,79.84711599998991,80.21169359999476,81.01155669998843,80.99581139998918,80.99644009998883,81.01155669998843,81.01155669998843,81.5625616999896,b,1.0,0.5393723000015598,,,,,,,,,,,,,,,,,,,,,,,,,,,,,,,,,,,,,,,,sub-002,1,stroop_test,59.76153950166449,
test,red,r,1.0,2.0,2.0,0.0,r,1.0,0.6262140000035288,,,,,,,,,,,,,,,,,,0.0,2.0,2.0,0.0,,,,,,,,,81.57813899999019,,,,,,,,,,,,,,,,,81.56295509998745,81.92804849999084,82.72840029999497,82.7128115999949,82.71342289999302,82.72840029999497,82.72840029999497,83.36305299999367,r,1.0,0.6262140000035288,,,,,,,,,,,,,,,,,,,,,,,,,,,,,,,,,,,,,,,,sub-002,1,stroop_test,59.76153950166449,
test,red,r,1.0,3.0,0.0,1.0,r,1.0,0.6777440000005299,,,,,,,,,,,,,,,,,,1.0,0.0,3.0,0.0,,,,,,,,,83.37785019999137,,,,,,,,,,,,,,,,,83.36344609998923,84.5776496999897,85.37780489999568,85.3617407999991,85.36230569999316,85.37780489999568,85.37780489999568,86.06307169998763,r,1.0,0.6777440000005299,,,,,,,,,,,,,,,,,,,,,,,,,,,,,,,,,,,,,,,,sub-002,1,stroop_test,59.76153950166449,
test,blue,b,1.0,4.0,1.0,1.0,b,1.0,1.0447985000064364,,,,,,,,,,,,,,,,,,1.0,1.0,4.0,2.0,,,,,,,,,86.07765419999487,,,,,,,,,,,,,,,,,86.06347639999876,86.42720639999607,87.22706859999744,87.21106949998648,87.2116815999907,87.22706859999744,87.22706859999744,88.27918249998766,b,1.0,1.0447985000064364,,,,,,,,,,,,,,,,,,,,,,,,,,,,,,,,,,,,,,,,sub-002,1,stroop_test,59.76153950166449,
test,yellow,g,1.0,5.0,2.0,1.0,g,1.0,0.5687807000067551,,,,,,,,,,,,,,,,,,1.0,2.0,5.0,1.0,,,,,,,,,88.29393079999136,,,,,,,,,,,,,,,,,88.27960469998652,88.64333459999762,89.44344679999631,89.42747739999322,89.42808409999998,89.44344679999631,89.44344679999631,90.02831579999474,g,1.0,0.5687807000067551,,,,,,,,,,,,,,,,,,,,,,,,,,,,,,,,,,,,,,,,sub-002,1,stroop_test,59.76153950166449,
test,yellow,g,1.0,6.0,0.0,2.0,g,1.0,0.7064041000121506,,,,,,,,,,,,,,,,,,2.0,0.0,6.0,1.0,,,,,,,,,90.04362419999961,,,,,,,,,,,,,,,,,90.02871959999902,91.24345709999034,92.04296509998676,92.02692219999152,92.02753769999254,92.04296509998676,92.04296509998676,92.76111809999566,g,1.0,0.7064041000121506,,,,,,,,,,,,,,,,,,,,,,,,,,,,,,,,,,,,,,,,sub-002,1,stroop_test,59.76153950166449,
test,red,r,1.0,7.0,1.0,2.0,r,1.0,0.3993918999913148,,,,,,,,,,,,,,,,,,2.0,1.0,7.0,0.0,,,,,,,,,92.77602219999244,,,,,,,,,,,,,,,,,92.76152299999376,93.57623489999968,94.37584269999934,94.35996589998832,94.36059859998932,94.37584269999934,94.37584269999934,94.77756919999956,r,1.0,0.3993918999913148,,,,,,,,,,,,,,,,,,,,,,,,,,,,,,,,,,,,,,,,sub-002,1,stroop_test,59.76153950166449,
test,blue,b,1.0,8.0,2.0,2.0,b,1.0,0.4480753999960143,,,,,,,,,,,,,,,,,,2.0,2.0,8.0,2.0,,,,,,,,,94.79238169999736,,,,,,,,,,,,,,,,,94.77794819998962,95.59253909999096,96.39213809999636,96.37682119999954,96.37745059998996,96.39213809999636,96.39213809999636,96.8436163999868,b,1.0,0.4480753999960143,,,,,,,,,,,,,,,,,,,,,,,,,,,,,,,,,,,,,,,,sub-002,1,stroop_test,59.76153950166449,
test,yellow,g,1.0,9.0,0.0,3.0,g,1.0,0.5579697000066517,,,,,,,,,,,,,,,,,,3.0,0.0,9.0,1.0,,,,,,,,,96.85916649999854,,,,,,,,,,,,,,,,,96.84401029998844,97.20856389999972,98.00849999999627,97.99258759999066,97.99323889998776,98.00849999999627,98.00849999999627,98.5762565999903,g,1.0,0.5579697000066517,,,,,,,,,,,,,,,,,,,,,,,,,,,,,,,,,,,,,,,,sub-002,1,stroop_test,59.76153950166449,
test,red,r,1.0,10.0,1.0,3.0,r,1.0,0.4590768000052776,,,,,,,,,,,,,,,,,,3.0,1.0,10.0,0.0,,,,,,,,,98.59182769998732,,,,,,,,,,,,,,,,,98.57665079999424,98.94237269999576,99.74172689999978,99.72561869998754,99.72620089999693,99.74172689999978,99.74172689999978,100.20933669999069,r,1.0,0.4590768000052776,,,,,,,,,,,,,,,,,,,,,,,,,,,,,,,,,,,,,,,,sub-002,1,stroop_test,59.76153950166449,
test,blue,b,1.0,11.0,2.0,3.0,b,1.0,0.6104058000055375,,,,,,,,,,,,,,,,,,3.0,2.0,11.0,2.0,,,,,,,,,100.22472469999047,,,,,,,,,,,,,,,,,100.20972959999926,101.02488379999704,101.82503939999152,101.808953499989,101.80953769999904,101.82503939999152,101.82503939999152,102.44275019998896,b,1.0,0.6104058000055375,,,,,,,,,,,,,,,,,,,,,,,,,,,,,,,,,,,,,,,,sub-002,1,stroop_test,59.76153950166449,
,,,,,,,,,,,,,,,,,,,,,,,,,,,,,,,,,,,,,,,,,,,,,,,,,,,,,,,,,,,,,,,,,,,,102.4429403999966,102.45802529998764,102.45802529998764,109.44092470000032,space,6.969607199993334,,,,,,,,,,,,,,,,,,,,,,,,,,,,,,,,,sub-002,1,stroop_test,59.76153950166449,
,,,,0.0,0.0,0.0,,,,,rot,red,r,1.0,r,1.0,0.5596404000098119,,,,,,,,,,,,,,0.0,0.0,0.0,0.0,,,,,109.46054390000064,,,,,,,,,,,,,,,,,109.45382129999052,110.65697639998687,111.45830499999283,111.44101719999162,,,,,,,,,,,,,,,,111.44902049998927,111.45830499999283,111.45830499999283,112.0247379999928,r,1.0,0.5596404000098119,,112.03655629999412,112.04558479999832,113.03976089999196,,,,,,,,,,,,,,,,,,,,,sub-002,1,stroop_test,59.76153950166449,
,,,,1.0,1.0,0.0,,,,,blau,red,r,0.0,r,1.0,1.098676399997203,,,,,,,,,,,,,,0.0,1.0,1.0,4.0,,,,,113.05639309999242,,,,,,,,,,,,,,,,,113.0401802999986,114.2390866999922,115.0410097999993,115.02278769999975,,,,,,,,,,,,,,,,115.03168839999124,115.0410097999993,115.0410097999993,116.15693439998722,r,1.0,1.098676399997203,,116.15760199999204,116.17213799999443,117.15582139999606,117.1718101999868,,,,,,,,,,,,,,,,,,,,sub-002,1,stroop_test,59.76153950166449,
,,,,2.0,2.0,0.0,,,,,rot,blue,b,0.0,b,1.0,1.496135499997763,,,,,,,,,,,,,,0.0,2.0,2.0,2.0,,,,,117.1718101999868,,,,,,,,,,,,,,,,,117.15620329999363,117.27189079999516,118.07149479999498,118.05551369999012,,,,,,,,,,,,,,,,118.05953600000066,118.07149479999498,118.07149479999498,119.5733620999963,b,1.0,1.496135499997763,,119.57401779999782,119.5876702999958,120.57152179999684,120.58760269999038,,,,,,,,,,,,,,,,,,,,sub-002,1,stroop_test,59.76153950166449,
,,,,3.0,3.0,0.0,,,,,blau,blue,b,1.0,b,1.0,0.5236377000110224,,,,,,,,,,,,,,0.0,3.0,3.0,6.0,,,,,120.58760269999038,,,,,,,,,,,,,,,,,120.57191459999012,121.78790429999935,122.58738059998724,122.57170879999468,,,,,,,,,,,,,,,,122.57583299999531,122.58738059998724,122.58738059998724,123.121805399991,b,1.0,0.5236377000110224,,123.12248269999692,123.13713909999932,124.12104439998802,124.1371736000001,,,,,,,,,,,,,,,,,,,,sub-002,1,stroop_test,59.76153950166449,
,,,,4.0,4.0,0.0,,,,,rot,yellow,g,0.0,g,1.0,0.4809353000018745,,,,,,,,,,,,,,0.0,4.0,4.0,3.0,,,,,124.1371736000001,,,,,,,,,,,,,,,,,124.12144299999636,125.33740609999222,126.13681069998712,126.1214772999956,,,,,,,,,,,,,,,,126.12544920000072,126.13681069998712,126.13681069998712,126.62220929999604,g,1.0,0.4809353000018745,,126.6228809999884,126.63638060000083,127.6206577999983,127.63673449998896,,,,,,,,,,,,,,,,,,,,sub-002,1,stroop_test,59.76153950166449,
,,,,5.0,5.0,0.0,,,,,gelb,yellow,g,1.0,g,1.0,1.292059400002472,,,,,,,,,,,,,,0.0,5.0,5.0,10.0,,,,,127.63673449998896,,,,,,,,,,,,,,,,,127.62106179998956,127.73654729999544,128.53654229998938,128.52033079999092,,,,,,,,,,,,,,,,128.52486379999027,128.53654229998938,128.53654229998938,129.8382098999864,g,1.0,1.292059400002472,,129.83899809999275,129.85262949999014,130.83680879999883,130.85280329998932,,,,,,,,,,,,,,,,,,,,sub-002,1,stroop_test,59.76153950166449,
,,,,6.0,6.0,0.0,,,,,blau,blue,b,1.0,b,1.0,0.3899520999984815,,,,,,,,,,,,,,0.0,6.0,6.0,5.0,,,,,130.85280329998932,,,,,,,,,,,,,,,,,130.83719229999406,132.05274849999114,132.85243279999122,132.83629639999708,,,,,,,,,,,,,,,,132.84030879999045,132.85243279999122,132.85243279999122,133.25364989999798,b,1.0,0.3899520999984815,,133.25432739999087,133.26922499999637,134.25320349998947,134.26889599999413,,,,,,,,,,,,,,,,,,,,sub-002,1,stroop_test,59.76153950166449,
,,,,7.0,7.0,0.0,,,,,gelb,blue,b,0.0,b,1.0,0.7023706999898423,,,,,,,,,,,,,,0.0,7.0,7.0,9.0,,,,,134.26889599999413,,,,,,,,,,,,,,,,,134.25358619999315,135.46835919999285,136.26857179999934,136.25267489999533,,,,,,,,,,,,,,,,136.2567684999958,136.26857179999934,136.26857179999934,136.98618899998837,b,1.0,0.7023706999898423,,136.98686039999302,137.00140999999712,137.98608740000054,138.00137359999644,,,,,,,,,,,,,,,,,,,,sub-002,1,stroop_test,59.76153950166449,
,,,,8.0,8.0,0.0,,,,,blau,yellow,g,0.0,g,1.0,0.5244932000059634,,,,,,,,,,,,,,0.0,8.0,8.0,7.0,,,,,138.00137359999644,,,,,,,,,,,,,,,,,137.98648429999594,138.3513544999878,139.15118209998764,139.13545699999668,,,,,,,,,,,,,,,,139.13950359998853,139.15118209998764,139.15118209998764,139.68561409998802,g,1.0,0.5244932000059634,,139.68626159999985,139.70114619999367,140.6856345999986,140.70058759998938,,,,,,,,,,,,,,,,,,,,sub-002,1,stroop_test,59.76153950166449,
,,,,9.0,9.0,0.0,,,,,rot,red,r,1.0,r,1.0,0.3475653000059537,,,,,,,,,,,,,,0.0,9.0,9.0,1.0,,,,,140.70058759998938,,,,,,,,,,,,,,,,,140.6859931999934,141.9008007999946,142.70803579999483,142.68763149999722,,,,,,,,,,,,,,,,142.69407599999977,142.70803579999483,142.70803579999483,143.06979229999706,r,1.0,0.3475653000059537,,143.07066959999793,143.08560339998803,144.08385309998994,,,,,,,,,,,,,,,,,,,,,sub-002,1,stroop_test,59.76153950166449,
,,,,10.0,10.0,0.0,,,,,gelb,red,r,0.0,r,1.0,0.5343192000000272,,,,,,,,,,,,,,0.0,10.0,10.0,8.0,,,,,144.1006631999917,,,,,,,,,,,,,,,,,144.0843038999883,144.434053399993,145.23411909998686,145.2178552999976,,,,,,,,,,,,,,,,145.2224511999957,145.23411909998686,145.23411909998686,145.78488049999578,r,1.0,0.5343192000000272,,145.78555779998717,145.80005549998896,146.7842249999958,146.79939859999286,,,,,,,,,,,,,,,,,,,,sub-002,1,stroop_test,59.76153950166449,
,,,,11.0,11.0,0.0,,,,,gelb,yellow,g,1.0,g,1.0,1.062935699999798,,,,,,,,,,,,,,0.0,11.0,11.0,11.0,,,,,146.79939859999286,,,,,,,,,,,,,,,,,146.78464259998873,147.59995449999406,148.399396599998,148.38399909999862,,,,,,,,,,,,,,,,148.38463319999573,148.399396599998,148.399396599998,149.46805719999247,g,1.0,1.062935699999798,,149.4686890999874,149.48229639999045,150.46700999999302,150.48262929999328,,,,,,,,,,,,,,,,,,,,sub-002,1,stroop_test,59.76153950166449,
,,,,12.0,0.0,1.0,,,,,rot,yellow,g,0.0,g,1.0,0.9279574999964098,,,,,,,,,,,,,,1.0,0.0,12.0,3.0,,,,,150.48262929999328,,,,,,,,,,,,,,,,,150.46739700000035,151.6825395999913,152.48204709999845,152.46645549999084,,,,,,,,,,,,,,,,152.4705297999899,152.48204709999845,152.48204709999845,153.41727739998896,g,1.0,0.9279574999964098,,153.41793489998963,153.43154700000014,154.4159338999889,154.43179709999822,,,,,,,,,,,,,,,,,,,,sub-002,1,stroop_test,59.76153950166449,
,,,,13.0,1.0,1.0,,,,,gelb,yellow,g,1.0,g,1.0,0.6382142999937059,,,,,,,,,,,,,,1.0,1.0,13.0,10.0,,,,,154.43179709999822,,,,,,,,,,,,,,,,,154.4163133999973,155.23156659999222,156.03197839998757,156.01601179999125,,,,,,,,,,,,,,,,156.02028019999852,156.03197839998757,156.03197839998757,156.68312199998763,g,1.0,0.6382142999937059,,156.68379539999296,156.69751600000018,157.6816727999976,157.6975548999908,,,,,,,,,,,,,,,,,,,,sub-002,1,stroop_test,59.76153950166449,
,,,,14.0,2.0,1.0,,,,,gelb,blue,b,0.0,b,1.0,0.3613384000054793,,,,,,,,,,,,,,1.0,2.0,14.0,9.0,,,,,157.6975548999908,,,,,,,,,,,,,,,,,157.68205309999755,158.04777919998742,158.84745839999232,158.83133950000047,,,,,,,,,,,,,,,,158.83198039999115,158.84745839999232,158.84745839999232,159.21568319998914,b,1.0,0.3613384000054793,,159.21633469998778,159.2304463999899,160.2153258999897,160.23078339999483,,,,,,,,,,,,,,,,,,,,sub-002,1,stroop_test,59.76153950166449,
,,,,15.0,3.0,1.0,,,,,blau,yellow,g,0.0,g,1.0,0.9122260000003736,,,,,,,,,,,,,,1.0,3.0,15.0,7.0,,,,,160.23078339999483,,,,,,,,,,,,,,,,,160.21571609999228,161.03059169999324,161.83055499999318,161.81490269998903,,,,,,,,,,,,,,,,161.81897649999885,161.83055499999318,161.83055499999318,162.74818809999852,g,1.0,0.9122260000003736,,162.74889099999564,162.76363560000027,163.74739849999605,163.763612499999,,,,,,,,,,,,,,,,,,,,sub-002,1,stroop_test,59.76153950166449,
,,,,16.0,4.0,1.0,,,,,gelb,yellow,g,1.0,g,1.0,0.5860627999936696,,,,,,,,,,,,,,1.0,4.0,16.0,11.0,,,,,163.763612499999,,,,,,,,,,,,,,,,,163.74777769998764,164.96343839999463,165.76296419999562,165.7471710999962,,,,,,,,,,,,,,,,165.751176699996,165.76296419999562,165.76296419999562,166.36396930000046,g,1.0,0.5860627999936696,,166.36467159999302,166.37942509999266,167.3635350999975,167.3796139999904,,,,,,,,,,,,,,,,,,,,sub-002,1,stroop_test,59.76153950166449,
,,,,17.0,5.0,1.0,,,,,rot,red,r,1.0,r,1.0,0.5260319000080926,,,,,,,,,,,,,,1.0,5.0,17.0,0.0,,,,,167.3796139999904,,,,,,,,,,,,,,,,,167.36394909999217,167.72973099999945,168.52964529999008,168.51345699999365,,,,,,,,,,,,,,,,168.5179960999958,168.52964529999008,168.52964529999008,169.0642015999911,r,1.0,0.5260319000080926,,169.06490759999724,169.07972099998733,170.063198799995,170.07873069999914,,,,,,,,,,,,,,,,,,,,sub-002,1,stroop_test,59.76153950166449,
,,,,18.0,6.0,1.0,,,,,blau,red,r,0.0,r,1.0,0.8853902999981074,,,,,,,,,,,,,,1.0,6.0,18.0,4.0,,,,,170.07873069999914,,,,,,,,,,,,,,,,,170.063579499998,171.27870029999758,172.0785606999998,172.06295579999278,,,,,,,,,,,,,,,,172.06709669998963,172.0785606999998,172.0785606999998,172.9801543999929,r,1.0,0.8853902999981074,,172.9808306999912,172.99482959999295,173.9793925999984,173.994770099991,,,,,,,,,,,,,,,,,,,,sub-002,1,stroop_test,59.76153950166449,
,,,,19.0,7.0,1.0,,,,,gelb,red,r,0.0,r,1.0,0.8818344000028446,,,,,,,,,,,,,,1.0,7.0,19.0,8.0,,,,,173.994770099991,,,,,,,,,,,,,,,,,173.9798133000004,174.34452609998698,175.14477539999643,175.1289415999927,,,,,,,,,,,,,,,,175.13297619999503,175.14477539999643,175.14477539999643,176.02927909999562,r,1.0,0.8818344000028446,,176.02993079999578,176.04451329998847,177.02840509999078,177.04463309999846,,,,,,,,,,,,,,,,,,,,sub-002,1,stroop_test,59.76153950166449,
,,,,20.0,8.0,1.0,,,,,rot,red,r,1.0,r,1.0,0.6590792000060901,,,,,,,,,,,,,,1.0,8.0,20.0,1.0,,,,,177.04463309999846,,,,,,,,,,,,,,,,,177.0287849999877,178.24429679999594,179.04445199998736,179.02851530000044,,,,,,,,,,,,,,,,179.03266379999695,179.04445199998736,179.04445199998736,179.71203409999725,r,1.0,0.6590792000060901,,179.7127107999986,179.72676149998733,180.711229499997,180.7267255999905,,,,,,,,,,,,,,,,,,,,sub-002,1,stroop_test,59.76153950166449,
,,,,21.0,9.0,1.0,,,,,rot,blue,b,0.0,b,1.0,0.4644153999979608,,,,,,,,,,,,,,1.0,9.0,21.0,2.0,,,,,180.7267255999905,,,,,,,,,,,,,,,,,180.711616399989,181.076750799999,181.87683429999743,181.8613333999965,,,,,,,,,,,,,,,,181.8619195999927,181.87683429999743,181.87683429999743,182.34556729999892,b,1.0,0.4644153999979608,,182.3462565999944,182.35968819999837,183.34416319998851,183.36013199998703,,,,,,,,,,,,,,,,,,,,sub-002,1,stroop_test,59.76153950166449,
,,,,22.0,10.0,1.0,,,,,blau,blue,b,1.0,b,1.0,0.3907553000026382,,,,,,,,,,,,,,1.0,10.0,22.0,6.0,,,,,183.36013199998703,,,,,,,,,,,,,,,,,183.3445364999934,184.159267799987,184.95979409999563,184.94427219999488,,,,,,,,,,,,,,,,184.9483830999961,184.95979409999563,184.95979409999563,185.3605144999892,b,1.0,0.3907553000026382,,185.36118399999395,185.3759285999986,186.3606279999949,186.37592099999893,,,,,,,,,,,,,,,,,,,,sub-002,1,stroop_test,59.76153950166449,
,,,,23.0,11.0,1.0,,,,,blau,blue,b,1.0,b,1.0,0.6284733999927994,,,,,,,,,,,,,,1.0,11.0,23.0,5.0,,,,,186.37592099999893,,,,,,,,,,,,,,,,,186.36107849999095,187.175851699998,187.97547059999488,187.95957319998703,,,,,,,,,,,,,,,,187.96017549998945,187.97547059999488,187.97547059999488,188.61040169998887,b,1.0,0.6284733999927994,,188.61105499998664,188.62550889998963,189.60967799999344,189.62555469998915,,,,,,,,,,,,,,,,,,,,sub-002,1,stroop_test,59.76153950166449,
,,,,,,,,,,,,,,,,,,,,,,,,,,,,,,,,,,,,,,,,,,,,,,,,,,,,,,,,,,,,,,,,,,,,,,,,,,,,,,,,,,,,,,,189.60984109999845,189.62555469998915,189.62555469998915,208.80705789999047,space,19.17500590000418,,,,,,,,,,,,,,sub-002,1,stroop_test,59.76153950166449,
,,,,0.0,0.0,0.0,,,,,,,,,,,,,rot,red,r,1.0,r,1.0,0.7356312000047183,,,,,,,,,,0.0,0.0,0.0,0.0,208.82878479998908,,,,,,,,,,,,,,,,,208.82215299998643,210.02166749999745,210.82194859998708,210.8060846000008,,,,,,,,,,,,,,,,,,,,,,,,,,,,,,,,,,,210.8100936999981,210.82194859998708,210.82194859998708,211.57242249998671,r,1.0,0.7356312000047183,,,,,,sub-002,1,stroop_test,59.76153950166449,
,,,,1.0,1.0,0.0,,,,,,,,,,,,,gelb,yellow,g,1.0,g,1.0,0.6175774000003003,,,,,,,,,,0.0,1.0,1.0,10.0,211.5880918999901,,,,,,,,,,,,,,,,,211.57287799999176,211.67138580000028,212.4715957000008,212.45567119999032,,,,,,,,,,,,,,,,,,,,,,,,,,,,,,,,,,,212.45984519999183,212.4715957000008,212.4715957000008,213.1054344999866,g,1.0,0.6175774000003003,,,,,,sub-002,1,stroop_test,59.76153950166449,
,,,,2.0,2.0,0.0,,,,,,,,,,,,,gelb,red,r,0.0,r,1.0,0.7642224000010174,,,,,,,,,,0.0,2.0,2.0,8.0,213.1211129999865,,,,,,,,,,,,,,,,,213.10588350000037,213.9042340999877,214.70457509999687,214.68832859999384,,,,,,,,,,,,,,,,,,,,,,,,,,,,,,,,,,,214.6888958999916,214.70457509999687,214.70457509999687,215.4721812999924,r,1.0,0.7642224000010174,,,,,,sub-002,1,stroop_test,59.76153950166449,
,,,,3.0,3.0,0.0,,,,,,,,,,,,,rot,yellow,g,0.0,g,1.0,0.7096539000049233,,,,,,,,,,0.0,3.0,3.0,3.0,215.48702339999727,,,,,,,,,,,,,,,,,215.472624099988,215.8371640999976,216.63689619999784,216.6212788999983,,,,,,,,,,,,,,,,,,,,,,,,,,,,,,,,,,,216.62530299999344,216.63689619999784,216.63689619999784,217.3551879000006,g,1.0,0.7096539000049233,,,,,,sub-002,1,stroop_test,59.76153950166449,
,,,,4.0,4.0,0.0,,,,,,,,,,,,,rot,blue,b,0.0,b,1.0,0.6092023999954108,,,,,,,,,,0.0,4.0,4.0,2.0,217.3703461999976,,,,,,,,,,,,,,,,,217.35563839999668,218.57004969999247,219.3701413999952,219.3546286999917,,,,,,,,,,,,,,,,,,,,,,,,,,,,,,,,,,,219.3551892999967,219.3701413999952,219.3701413999952,219.9879074999917,b,1.0,0.6092023999954108,,,,,,sub-002,1,stroop_test,59.76153950166449,
,,,,5.0,5.0,0.0,,,,,,,,,,,,,blau,yellow,g,0.0,g,1.0,0.5257505000045057,,,,,,,,,,0.0,5.0,5.0,7.0,220.0034433999972,,,,,,,,,,,,,,,,,219.98835129999495,220.35313679999672,221.1551693999936,221.1379173999885,,,,,,,,,,,,,,,,,,,,,,,,,,,,,,,,,,,221.1425868999941,221.1551693999936,221.1551693999936,221.6876736999984,g,1.0,0.5257505000045057,,,,,,sub-002,1,stroop_test,59.76153950166449,
,,,,6.0,6.0,0.0,,,,,,,,,,,,,blau,blue,b,1.0,b,1.0,0.6986575000046287,,,,,,,,,,0.0,6.0,6.0,5.0,221.70329559998936,,,,,,,,,,,,,,,,,221.68811579998876,222.9029007999925,223.70264589998988,223.6872341999988,,,,,,,,,,,,,,,,,,,,,,,,,,,,,,,,,,,223.68783929999336,223.70264589998988,223.70264589998988,224.40434829999867,b,1.0,0.6986575000046287,,,,,,sub-002,1,stroop_test,59.76153950166449,
,,,,7.0,7.0,0.0,,,,,,,,,,,,,gelb,blue,b,0.0,b,1.0,0.6016893000050914,,,,,,,,,,0.0,7.0,7.0,9.0,224.41915229998995,,,,,,,,,,,,,,,,,224.4048054999876,225.61866109998664,226.42041209999297,226.40299759998743,,,,,,,,,,,,,,,,,,,,,,,,,,,,,,,,,,,226.40858939998725,226.42041209999297,226.42041209999297,227.0365940999909,b,1.0,0.6016893000050914,,,,,,sub-002,1,stroop_test,59.76153950166449,
,,,,8.0,8.0,0.0,,,,,,,,,,,,,blau,blue,b,1.0,b,1.0,0.5483398999931524,,,,,,,,,,0.0,8.0,8.0,6.0,227.05209139999351,,,,,,,,,,,,,,,,,227.03705369999807,227.4018240999867,228.2017746999918,228.1858894999896,,,,,,,,,,,,,,,,,,,,,,,,,,,,,,,,,,,228.18995259999065,228.2017746999918,228.2017746999918,228.75379629999225,b,1.0,0.5483398999931524,,,,,,sub-002,1,stroop_test,59.76153950166449,
,,,,9.0,9.0,0.0,,,,,,,,,,,,,gelb,yellow,g,1.0,g,1.0,0.5430198999965796,,,,,,,,,,0.0,9.0,9.0,11.0,228.76863609999415,,,,,,,,,,,,,,,,,228.75424379999455,229.5681859999895,230.3678641000006,230.35211490000077,,,,,,,,,,,,,,,,,,,,,,,,,,,,,,,,,,,230.35627509999904,230.3678641000006,230.3678641000006,230.9193637999997,g,1.0,0.5430198999965796,,,,,,sub-002,1,stroop_test,59.76153950166449,
,,,,10.0,10.0,0.0,,,,,,,,,,,,,blau,red,r,0.0,r,1.0,0.6798370000033174,,,,,,,,,,0.0,10.0,10.0,4.0,230.93468319998647,,,,,,,,,,,,,,,,,230.9198259999976,231.2848582000006,232.08458379999504,232.0689546999929,,,,,,,,,,,,,,,,,,,,,,,,,,,,,,,,,,,232.0728197999997,232.08458379999504,232.08458379999504,232.76981149999483,r,1.0,0.6798370000033174,,,,,,sub-002,1,stroop_test,59.76153950166449,
,,,,11.0,11.0,0.0,,,,,,,,,,,,,rot,red,r,1.0,r,1.0,0.6107399000029545,,,,,,,,,,0.0,11.0,11.0,1.0,232.78438479999025,,,,,,,,,,,,,,,,,232.77023349999217,233.13399209998897,233.9342362999887,233.9187252999982,,,,,,,,,,,,,,,,,,,,,,,,,,,,,,,,,,,233.92263219998856,233.9342362999887,233.9342362999887,234.55296159999853,r,1.0,0.6107399000029545,,,,,,sub-002,1,stroop_test,59.76153950166449,
,,,,12.0,0.0,1.0,,,,,,,,,,,,,gelb,blue,b,0.0,b,1.0,0.5479653000074904,,,,,,,,,,1.0,0.0,12.0,9.0,234.56773399999656,,,,,,,,,,,,,,,,,234.5534099999932,235.36698419999448,236.1672984999896,236.15154199999236,,,,,,,,,,,,,,,,,,,,,,,,,,,,,,,,,,,236.15566859999672,236.1672984999896,236.1672984999896,236.7185761000001,b,1.0,0.5479653000074904,,,,,,sub-002,1,stroop_test,59.76153950166449,
,,,,13.0,1.0,1.0,,,,,,,,,,,,,rot,red,r,1.0,r,1.0,0.5299980999989202,,,,,,,,,,1.0,1.0,13.0,0.0,236.7343456999952,,,,,,,,,,,,,,,,,236.7190496999974,237.93381069999305,238.7338049999962,238.71713929998805,,,,,,,,,,,,,,,,,,,,,,,,,,,,,,,,,,,238.72170209999604,238.7338049999962,238.7338049999962,239.2686293999868,r,1.0,0.5299980999989202,,,,,,sub-002,1,stroop_test,59.76153950166449,
,,,,14.0,2.0,1.0,,,,,,,,,,,,,blau,yellow,g,0.0,g,1.0,0.7746670999913476,,,,,,,,,,1.0,2.0,14.0,7.0,239.2833409999876,,,,,,,,,,,,,,,,,239.2690491999965,239.3838834999915,240.1833823999914,240.1675944999879,,,,,,,,,,,,,,,,,,,,,,,,,,,,,,,,,,,240.1716585999966,240.1833823999914,240.1833823999914,240.96772559999957,g,1.0,0.7746670999913476,,,,,,sub-002,1,stroop_test,59.76153950166449,
,,,,15.0,3.0,1.0,,,,,,,,,,,,,gelb,red,r,0.0,r,1.0,0.7114323999994667,,,,,,,,,,1.0,3.0,15.0,8.0,240.98327269998845,,,,,,,,,,,,,,,,,240.96817229999576,242.18236329998763,242.98230459999468,242.96626429999012,,,,,,,,,,,,,,,,,,,,,,,,,,,,,,,,,,,242.97043489999487,242.98230459999468,242.98230459999468,243.70099139999363,r,1.0,0.7114323999994667,,,,,,sub-002,1,stroop_test,59.76153950166449,
,,,,16.0,4.0,1.0,,,,,,,,,,,,,rot,yellow,g,0.0,g,1.0,1.359579800002393,,,,,,,,,,1.0,4.0,16.0,3.0,243.71564429999853,,,,,,,,,,,,,,,,,243.7014456999896,244.0652803999983,244.86647529999027,244.85001449999984,,,,,,,,,,,,,,,,,,,,,,,,,,,,,,,,,,,244.8543151999911,244.86647529999027,244.86647529999027,246.23338589999184,g,1.0,1.359579800002393,,,,,,sub-002,1,stroop_test,59.76153950166449,
,,,,17.0,5.0,1.0,,,,,,,,,,,,,gelb,yellow,g,1.0,g,1.0,0.5476127000001725,,,,,,,,,,1.0,5.0,17.0,10.0,246.24818389999564,,,,,,,,,,,,,,,,,246.23383589999867,247.0480712999997,247.84892109999785,247.8324217999907,,,,,,,,,,,,,,,,,,,,,,,,,,,,,,,,,,,247.8367411999934,247.84892109999785,247.84892109999785,248.4002222999989,g,1.0,0.5476127000001725,,,,,,sub-002,1,stroop_test,59.76153950166449,
,,,,18.0,6.0,1.0,,,,,,,,,,,,,rot,red,r,1.0,r,1.0,0.719366599994828,,,,,,,,,,1.0,6.0,18.0,1.0,248.41490329999945,,,,,,,,,,,,,,,,,248.400659299994,248.51502439999604,249.3148608999909,249.29921409999952,,,,,,,,,,,,,,,,,,,,,,,,,,,,,,,,,,,249.30319919998877,249.3148608999909,249.3148608999909,250.0492804999958,r,1.0,0.719366599994828,,,,,,sub-002,1,stroop_test,59.76153950166449,
,,,,19.0,7.0,1.0,,,,,,,,,,,,,gelb,yellow,g,1.0,g,1.0,0.842415399994934,,,,,,,,,,1.0,7.0,19.0,11.0,250.0643103999901,,,,,,,,,,,,,,,,,250.04973739999696,250.86434169999848,251.66491789999415,251.64831109999795,,,,,,,,,,,,,,,,,,,,,,,,,,,,,,,,,,,251.65313479999892,251.66491789999415,251.66491789999415,252.5158448000002,g,1.0,0.842415399994934,,,,,,sub-002,1,stroop_test,59.76153950166449,
,,,,20.0,8.0,1.0,,,,,,,,,,,,,rot,blue,b,0.0,b,1.0,1.092977799999062,,,,,,,,,,1.0,8.0,20.0,2.0,252.53069099999263,,,,,,,,,,,,,,,,,252.5162920999865,252.8808351999905,253.6802393999969,253.66482979999276,,,,,,,,,,,,,,,,,,,,,,,,,,,,,,,,,,,253.66883949999465,253.6802393999969,253.6802393999969,254.7817893999891,b,1.0,1.092977799999062,,,,,,sub-002,1,stroop_test,59.76153950166449,
,,,,21.0,9.0,1.0,,,,,,,,,,,,,blau,red,r,0.0,r,1.0,0.62161569998716,,,,,,,,,,1.0,9.0,21.0,4.0,254.79678309999872,,,,,,,,,,,,,,,,,254.7822446999926,255.59673009999096,256.39680119999684,256.3808616999886,,,,,,,,,,,,,,,,,,,,,,,,,,,,,,,,,,,256.3848461999878,256.39680119999684,256.39680119999684,257.03115939999407,r,1.0,0.62161569998716,,,,,,sub-002,1,stroop_test,59.76153950166449,
,,,,22.0,10.0,1.0,,,,,,,,,,,,,blau,blue,b,1.0,b,1.0,0.5234598999959417,,,,,,,,,,1.0,10.0,22.0,6.0,257.0461288999941,,,,,,,,,,,,,,,,,257.031611399987,257.1470163999911,257.9464308999886,257.9307509999926,,,,,,,,,,,,,,,,,,,,,,,,,,,,,,,,,,,257.9313129999937,257.9464308999886,257.9464308999886,258.480556399998,b,1.0,0.5234598999959417,,,,,,sub-002,1,stroop_test,59.76153950166449,
,,,,23.0,11.0,1.0,,,,,,,,,,,,,blau,blue,b,1.0,b,1.0,0.5946637000015471,,,,,,,,,,1.0,11.0,23.0,5.0,258.4961949999997,,,,,,,,,,,,,,,,,258.4809978999984,258.5959036999993,259.39629249999416,259.37997569999425,,,,,,,,,,,,,,,,,,,,,,,,,,,,,,,,,,,259.3805728999869,259.39629249999416,259.39629249999416,259.99769879999803,b,1.0,0.5946637000015471,,,,,,sub-002,1,stroop_test,59.76153950166449,
,,,,24.0,0.0,2.0,,,,,,,,,,,,,rot,blue,b,0.0,b,1.0,0.8442668999923626,,,,,,,,,,2.0,0.0,24.0,2.0,260.0123869999952,,,,,,,,,,,,,,,,,259.99814289998903,260.1124695999897,260.91277089998766,260.89702189998934,,,,,,,,,,,,,,,,,,,,,,,,,,,,,,,,,,,260.9008748999913,260.91277089998766,260.91277089998766,261.7645349999948,b,1.0,0.8442668999923626,,,,,,sub-002,1,stroop_test,59.76153950166449,
,,,,25.0,1.0,2.0,,,,,,,,,,,,,blau,blue,b,1.0,b,1.0,0.5369348999956856,,,,,,,,,,2.0,1.0,25.0,6.0,261.7792358999868,,,,,,,,,,,,,,,,,261.7649867,262.5790028999909,263.3788590999902,263.362990499998,,,,,,,,,,,,,,,,,,,,,,,,,,,,,,,,,,,263.3670134999993,263.3788590999902,263.3788590999902,263.93033509999805,b,1.0,0.5369348999956856,,,,,,sub-002,1,stroop_test,59.76153950166449,
,,,,26.0,2.0,2.0,,,,,,,,,,,,,gelb,red,r,0.0,r,1.0,1.2703347000060603,,,,,,,,,,2.0,2.0,26.0,8.0,263.9456306999928,,,,,,,,,,,,,,,,,263.93079269999,264.0450385999866,264.84569249999186,264.8293271000002,,,,,,,,,,,,,,,,,,,,,,,,,,,,,,,,,,,264.8338129999902,264.84569249999186,264.84569249999186,266.1299289999879,r,1.0,1.2703347000060603,,,,,,sub-002,1,stroop_test,59.76153950166449,
,,,,27.0,3.0,2.0,,,,,,,,,,,,,blau,blue,b,1.0,b,1.0,0.5239054999983637,,,,,,,,,,2.0,3.0,27.0,5.0,266.14462889998686,,,,,,,,,,,,,,,,,266.1303891999996,266.47831289999885,267.27805909999006,267.2625399999961,,,,,,,,,,,,,,,,,,,,,,,,,,,,,,,,,,,267.26670719998947,267.27805909999006,267.27805909999006,267.8125080999889,b,1.0,0.5239054999983637,,,,,,sub-002,1,stroop_test,59.76153950166449,
,,,,28.0,4.0,2.0,,,,,,,,,,,,,rot,yellow,g,0.0,g,1.0,0.4218385999993188,,,,,,,,,,2.0,4.0,28.0,3.0,267.8280119999981,,,,,,,,,,,,,,,,,267.81295419999515,269.0278741999937,269.827953,269.81246709999687,,,,,,,,,,,,,,,,,,,,,,,,,,,,,,,,,,,269.81658879999304,269.827953,269.827953,270.2621288999944,g,1.0,0.4218385999993188,,,,,,sub-002,1,stroop_test,59.76153950166449,
,,,,29.0,5.0,2.0,,,,,,,,,,,,,blau,yellow,g,0.0,g,1.0,0.5762079000123776,,,,,,,,,,2.0,5.0,29.0,7.0,270.2775631999976,,,,,,,,,,,,,,,,,270.2625726999977,270.62802979999105,271.42746209999314,271.4116718000005,,,,,,,,,,,,,,,,,,,,,,,,,,,,,,,,,,,271.4157443999866,271.42746209999314,271.42746209999314,272.0119694999885,g,1.0,0.5762079000123776,,,,,,sub-002,1,stroop_test,59.76153950166449,
,,,,30.0,6.0,2.0,,,,,,,,,,,,,gelb,yellow,g,1.0,g,1.0,0.4751683000067714,,,,,,,,,,2.0,6.0,30.0,10.0,272.0274037999916,,,,,,,,,,,,,,,,,272.0124222999875,272.1271207999962,272.9276456999942,272.91158989998803,,,,,,,,,,,,,,,,,,,,,,,,,,,,,,,,,,,272.9157389999891,272.9276456999942,272.9276456999942,273.41130979999434,g,1.0,0.4751683000067714,,,,,,sub-002,1,stroop_test,59.76153950166449,
,,,,31.0,7.0,2.0,,,,,,,,,,,,,rot,red,r,1.0,r,1.0,0.496189500001492,,,,,,,,,,2.0,7.0,31.0,0.0,273.4266191999923,,,,,,,,,,,,,,,,,273.41175609998754,273.5103291999985,274.3102026999986,274.29414499999257,,,,,,,,,,,,,,,,,,,,,,,,,,,,,,,,,,,274.2980542999867,274.3102026999986,274.3102026999986,274.811925099988,r,1.0,0.496189500001492,,,,,,sub-002,1,stroop_test,59.76153950166449,
,,,,32.0,8.0,2.0,,,,,,,,,,,,,gelb,yellow,g,1.0,g,1.0,0.9779594999999972,,,,,,,,,,2.0,8.0,32.0,11.0,274.8263278999948,,,,,,,,,,,,,,,,,274.8123906999972,275.6266193999909,276.4269509999868,276.4106778999994,,,,,,,,,,,,,,,,,,,,,,,,,,,,,,,,,,,276.415325199996,276.4269509999868,276.4269509999868,277.4116932999896,g,1.0,0.9779594999999972,,,,,,sub-002,1,stroop_test,59.76153950166449,
,,,,33.0,9.0,2.0,,,,,,,,,,,,,rot,red,r,1.0,r,1.0,0.5134339999931399,,,,,,,,,,2.0,9.0,33.0,1.0,277.42593469998974,,,,,,,,,,,,,,,,,277.41213029999926,278.6257176999934,279.4259185999981,279.41030579998915,,,,,,,,,,,,,,,,,,,,,,,,,,,,,,,,,,,279.4142412999936,279.4259185999981,279.4259185999981,279.9439934999973,r,1.0,0.5134339999931399,,,,,,sub-002,1,stroop_test,59.76153950166449,
,,,,34.0,10.0,2.0,,,,,,,,,,,,,gelb,blue,b,0.0,b,1.0,0.6065295000007609,,,,,,,,,,2.0,10.0,34.0,9.0,279.958813499994,,,,,,,,,,,,,,,,,279.94443749998754,280.7592718999949,281.558646999998,281.54288959999394,,,,,,,,,,,,,,,,,,,,,,,,,,,,,,,,,,,281.54705969999486,281.558646999998,281.558646999998,282.17658049998863,b,1.0,0.6065295000007609,,,,,,sub-002,1,stroop_test,59.76153950166449,
,,,,35.0,11.0,2.0,,,,,,,,,,,,,blau,red,r,0.0,r,1.0,0.4434505999961402,,,,,,,,,,2.0,11.0,35.0,4.0,282.19168089999584,,,,,,,,,,,,,,,,,282.1770438999956,283.39194309999584,284.191582799991,284.17589769999904,,,,,,,,,,,,,,,,,,,,,,,,,,,,,,,,,,,284.1799886999943,284.191582799991,284.191582799991,284.6436629999953,r,1.0,0.4434505999961402,,,,,,sub-002,1,stroop_test,59.76153950166449,
,,,,36.0,0.0,3.0,,,,,,,,,,,,,gelb,yellow,g,1.0,g,1.0,0.5951157999952557,,,,,,,,,,3.0,0.0,36.0,11.0,284.65833869999915,,,,,,,,,,,,,,,,,284.64411719999043,285.8579483999929,286.65806039999006,286.6423683999892,,,,,,,,,,,,,,,,,,,,,,,,,,,,,,,,,,,286.64652539999224,286.65806039999006,286.65806039999006,287.2599912000005,g,1.0,0.5951157999952557,,,,,,sub-002,1,stroop_test,59.76153950166449,
,,,,37.0,1.0,3.0,,,,,,,,,,,,,gelb,red,r,0.0,r,1.0,0.8671587999997428,,,,,,,,,,3.0,1.0,37.0,8.0,287.2746224000002,,,,,,,,,,,,,,,,,287.26045129999693,288.0746247999923,288.87427309999475,288.8585965999955,,,,,,,,,,,,,,,,,,,,,,,,,,,,,,,,,,,288.8592198999977,288.87427309999475,288.87427309999475,289.75848449999467,r,1.0,0.8671587999997428,,,,,,sub-002,1,stroop_test,59.76153950166449,
,,,,38.0,2.0,3.0,,,,,,,,,,,,,blau,yellow,g,0.0,g,1.0,0.9106719999981578,,,,,,,,,,3.0,2.0,38.0,7.0,289.7740874999872,,,,,,,,,,,,,,,,,289.7589571999997,290.5736431999976,291.3736158999964,291.35786029999144,,,,,,,,,,,,,,,,,,,,,,,,,,,,,,,,,,,291.36194029999024,291.3736158999964,291.3736158999964,292.29208669999207,g,1.0,0.9106719999981578,,,,,,sub-002,1,stroop_test,59.76153950166449,
,,,,39.0,3.0,3.0,,,,,,,,,,,,,blau,blue,b,1.0,b,1.0,0.5429730000032578,,,,,,,,,,3.0,3.0,39.0,5.0,292.3068612999923,,,,,,,,,,,,,,,,,292.2925016999943,292.656605199998,293.4563616999949,293.4406772999937,,,,,,,,,,,,,,,,,,,,,,,,,,,,,,,,,,,293.4412428999931,293.4563616999949,293.4563616999949,294.0078322999907,b,1.0,0.5429730000032578,,,,,,sub-002,1,stroop_test,59.76153950166449,
,,,,40.0,4.0,3.0,,,,,,,,,,,,,rot,red,r,1.0,r,1.0,0.512597499997355,,,,,,,,,,3.0,4.0,40.0,0.0,294.0229964999889,,,,,,,,,,,,,,,,,294.00827149998804,294.8229733999906,295.6232811999944,295.6070062999934,,,,,,,,,,,,,,,,,,,,,,,,,,,,,,,,,,,295.6114726999949,295.6232811999944,295.6232811999944,296.1412413999933,r,1.0,0.512597499997355,,,,,,sub-002,1,stroop_test,59.76153950166449,
,,,,41.0,5.0,3.0,,,,,,,,,,,,,rot,red,r,1.0,r,1.0,0.534359700002824,,,,,,,,,,3.0,5.0,41.0,1.0,296.15633759999764,,,,,,,,,,,,,,,,,296.1416863999912,296.50622060000023,297.3056426999974,297.2899824999913,,,,,,,,,,,,,,,,,,,,,,,,,,,,,,,,,,,297.2905929999979,297.3056426999974,297.3056426999974,297.85667729999113,r,1.0,0.534359700002824,,,,,,sub-002,1,stroop_test,59.76153950166449,
,,,,42.0,6.0,3.0,,,,,,,,,,,,,rot,blue,b,0.0,b,1.0,0.5705164999963017,,,,,,,,,,3.0,6.0,42.0,2.0,297.8727833999874,,,,,,,,,,,,,,,,,297.8571283999918,297.95589919999475,298.75580349999655,298.7396257999935,,,,,,,,,,,,,,,,,,,,,,,,,,,,,,,,,,,298.7402396999969,298.75580349999655,298.75580349999655,299.3400621999899,b,1.0,0.5705164999963017,,,,,,sub-002,1,stroop_test,59.76153950166449,
,,,,43.0,7.0,3.0,,,,,,,,,,,,,blau,red,r,0.0,r,1.0,0.8567261999996845,,,,,,,,,,3.0,7.0,43.0,4.0,299.35555239999667,,,,,,,,,,,,,,,,,299.3405080999946,300.1557968999987,300.9553631999879,300.93954789999407,,,,,,,,,,,,,,,,,,,,,,,,,,,,,,,,,,,300.9434540999937,300.9553631999879,300.9553631999879,301.82282829999167,r,1.0,0.8567261999996845,,,,,,sub-002,1,stroop_test,59.76153950166449,
,,,,44.0,8.0,3.0,,,,,,,,,,,,,gelb,yellow,g,1.0,g,1.0,0.4737375000113388,,,,,,,,,,3.0,8.0,44.0,10.0,301.83847859999514,,,,,,,,,,,,,,,,,301.8232710999873,303.02248719999625,303.82174329999543,303.805738799987,,,,,,,,,,,,,,,,,,,,,,,,,,,,,,,,,,,303.8101428999944,303.82174329999543,303.82174329999543,304.30597959998704,g,1.0,0.4737375000113388,,,,,,sub-002,1,stroop_test,59.76153950166449,
,,,,45.0,9.0,3.0,,,,,,,,,,,,,gelb,blue,b,0.0,b,1.0,0.323686199990334,,,,,,,,,,3.0,9.0,45.0,9.0,304.32153989998915,,,,,,,,,,,,,,,,,304.3064263999986,305.12171969999326,305.92088059999514,305.90520149999065,,,,,,,,,,,,,,,,,,,,,,,,,,,,,,,,,,,305.90583139999944,305.92088059999514,305.92088059999514,306.2552786999877,b,1.0,0.323686199990334,,,,,,sub-002,1,stroop_test,59.76153950166449,
,,,,46.0,10.0,3.0,,,,,,,,,,,,,rot,yellow,g,0.0,r,0.0,0.5164106000011088,,,,,,,,,,3.0,10.0,46.0,3.0,306.270652399995,,,,,,,,,,,,,,,,,306.2557358999911,306.35411999998905,307.1551318999991,307.13835259999905,,,,,,,,,,,,,,,,,,,,,,,,,,,,,,,,,,,307.1430137999996,307.1551318999991,307.1551318999991,307.6883791,r,0.0,0.5164106000011088,,,,,,sub-002,1,stroop_test,59.76153950166449,
,,,,47.0,11.0,3.0,,,,,,,,,,,,,blau,blue,b,1.0,b,1.0,0.5687042000063229,,,,,,,,,,3.0,11.0,47.0,6.0,307.7040261999937,,,,,,,,,,,,,,,,,307.6888280999992,308.5036942000006,309.30404909999925,309.2879691999988,,,,,,,,,,,,,,,,,,,,,,,,,,,,,,,,,,,309.29203319999215,309.30404909999925,309.30404909999925,309.88796409999486,b,1.0,0.5687042000063229,,,,,,sub-002,1,stroop_test,59.76153950166449,
,,,,48.0,0.0,4.0,,,,,,,,,,,,,blau,red,r,0.0,r,1.0,0.5828246000019135,,,,,,,,,,4.0,0.0,48.0,4.0,309.9034784999967,,,,,,,,,,,,,,,,,309.8884166999924,311.10368849999213,311.9030904999963,311.8873514000006,,,,,,,,,,,,,,,,,,,,,,,,,,,,,,,,,,,311.8879634999903,311.9030904999963,311.9030904999963,312.48823669999547,r,1.0,0.5828246000019135,,,,,,sub-002,1,stroop_test,59.76153950166449,
,,,,49.0,1.0,4.0,,,,,,,,,,,,,gelb,red,r,0.0,r,1.0,1.5119485000032,,,,,,,,,,4.0,1.0,49.0,8.0,312.5030998000002,,,,,,,,,,,,,,,,,312.4886870999908,313.3032513999933,314.1031265999918,314.0870503999904,,,,,,,,,,,,,,,,,,,,,,,,,,,,,,,,,,,314.0915607999923,314.1031265999918,314.1031265999918,315.6207466999913,r,1.0,1.5119485000032,,,,,,sub-002,1,stroop_test,59.76153950166449,
,,,,50.0,2.0,4.0,,,,,,,,,,,,,rot,blue,b,0.0,b,1.0,0.6612105999956839,,,,,,,,,,4.0,2.0,50.0,2.0,315.6357888999919,,,,,,,,,,,,,,,,,315.6211909999984,316.8354443999997,317.6358463999932,317.62002809999103,,,,,,,,,,,,,,,,,,,,,,,,,,,,,,,,,,,317.6240359999938,317.6358463999932,317.6358463999932,318.3076166999963,b,1.0,0.6612105999956839,,,,,,sub-002,1,stroop_test,59.76153950166449,
,,,,51.0,3.0,4.0,,,,,,,,,,,,,blau,blue,b,1.0,b,1.0,0.5018451000069035,,,,,,,,,,4.0,3.0,51.0,5.0,318.32223389999126,,,,,,,,,,,,,,,,,318.3081589999929,319.51826459998847,320.3182497999951,320.3025120999955,,,,,,,,,,,,,,,,,,,,,,,,,,,,,,,,,,,320.3065287999925,320.3182497999951,320.3182497999951,320.8363993999956,b,1.0,0.5018451000069035,,,,,,sub-002,1,stroop_test,59.76153950166449,
,,,,52.0,4.0,4.0,,,,,,,,,,,,,rot,red,r,1.0,r,1.0,0.6431166999973357,,,,,,,,,,4.0,4.0,52.0,1.0,320.8519278999884,,,,,,,,,,,,,,,,,320.83684069999435,321.6513758999936,322.4510924999922,322.43520019999414,,,,,,,,,,,,,,,,,,,,,,,,,,,,,,,,,,,322.43922960000054,322.4510924999922,322.4510924999922,323.1030078999902,r,1.0,0.6431166999973357,,,,,,sub-002,1,stroop_test,59.76153950166449,
,,,,53.0,5.0,4.0,,,,,,,,,,,,,blau,yellow,g,0.0,g,1.0,0.4417296000028727,,,,,,,,,,4.0,5.0,53.0,7.0,323.11797269999806,,,,,,,,,,,,,,,,,323.10346869999194,323.46782419999363,324.26794359998894,324.2517702999903,,,,,,,,,,,,,,,,,,,,,,,,,,,,,,,,,,,324.25582159998885,324.26794359998894,324.26794359998894,324.71917459998804,g,1.0,0.4417296000028727,,,,,,sub-002,1,stroop_test,59.76153950166449,
,,,,54.0,6.0,4.0,,,,,,,,,,,,,gelb,yellow,g,1.0,g,1.0,0.4746903999912319,,,,,,,,,,4.0,6.0,54.0,10.0,324.7340964999894,,,,,,,,,,,,,,,,,324.71962219999114,325.0839213,325.8844312999863,325.8684114999924,,,,,,,,,,,,,,,,,,,,,,,,,,,,,,,,,,,325.87272099999245,325.8844312999863,325.8844312999863,326.3686202999961,g,1.0,0.4746903999912319,,,,,,sub-002,1,stroop_test,59.76153950166449,
,,,,55.0,7.0,4.0,,,,,,,,,,,,,blau,blue,b,1.0,b,1.0,0.5479892000003019,,,,,,,,,,4.0,7.0,55.0,6.0,326.384470399993,,,,,,,,,,,,,,,,,326.36906589999853,326.4837957999989,327.2844662999996,327.2679685999901,,,,,,,,,,,,,,,,,,,,,,,,,,,,,,,,,,,327.27266889999737,327.2844662999996,327.2844662999996,327.8354024,b,1.0,0.5479892000003019,,,,,,sub-002,1,stroop_test,59.76153950166449,
,,,,56.0,8.0,4.0,,,,,,,,,,,,,gelb,yellow,g,1.0,g,1.0,0.6788283000059891,,,,,,,,,,4.0,8.0,56.0,11.0,327.8500500999944,,,,,,,,,,,,,,,,,327.8358508999954,327.95022609998705,328.75047109999286,328.7343531999941,,,,,,,,,,,,,,,,,,,,,,,,,,,,,,,,,,,328.7384195999912,328.75047109999286,328.75047109999286,329.4350431999919,g,1.0,0.6788283000059891,,,,,,sub-002,1,stroop_test,59.76153950166449,
,,,,57.0,9.0,4.0,,,,,,,,,,,,,gelb,blue,b,0.0,b,1.0,0.5334902999893529,,,,,,,,,,4.0,9.0,57.0,9.0,329.4500987999927,,,,,,,,,,,,,,,,,329.4355319999886,330.6502807999932,331.44953869999154,331.43378789999406,,,,,,,,,,,,,,,,,,,,,,,,,,,,,,,,,,,331.434388499998,331.44953869999154,331.44953869999154,331.98485919999075,b,1.0,0.5334902999893529,,,,,,sub-002,1,stroop_test,59.76153950166449,
,,,,58.0,10.0,4.0,,,,,,,,,,,,,rot,yellow,g,0.0,g,1.0,0.5155009000009159,,,,,,,,,,4.0,10.0,58.0,3.0,331.99941829999443,,,,,,,,,,,,,,,,,331.9853166999965,332.79978079999273,333.5997325999924,333.5838570999913,,,,,,,,,,,,,,,,,,,,,,,,,,,,,,,,,,,333.5879593999998,333.5997325999924,333.5997325999924,334.1174306999892,g,1.0,0.5155009000009159,,,,,,sub-002,1,stroop_test,59.76153950166449,
,,,,59.0,11.0,4.0,,,,,,,,,,,,,rot,red,r,1.0,r,1.0,0.4821786999964388,,,,,,,,,,4.0,11.0,59.0,0.0,334.1326681999926,,,,,,,,,,,,,,,,,334.1178695999988,334.23256419999234,335.03291919999174,335.0168171999976,,,,,,,,,,,,,,,,,,,,,,,,,,,,,,,,,,,335.0174384999991,335.03291919999174,335.03291919999174,335.5182177999959,r,1.0,0.4821786999964388,,,,,,sub-002,1,stroop_test,59.76153950166449,
,,,,60.0,0.0,5.0,,,,,,,,,,,,,blau,blue,b,1.0,b,1.0,0.4732041999959619,,,,,,,,,,5.0,0.0,60.0,5.0,335.53184639998653,,,,,,,,,,,,,,,,,335.51870749999944,335.6321642999974,336.4324077999918,336.41631349999807,,,,,,,,,,,,,,,,,,,,,,,,,,,,,,,,,,,336.42038839998713,336.4324077999918,336.4324077999918,336.91676709998865,b,1.0,0.4732041999959619,,,,,,sub-002,1,stroop_test,59.76153950166449,
,,,,61.0,1.0,5.0,,,,,,,,,,,,,rot,red,r,1.0,r,1.0,0.5719211999967229,,,,,,,,,,5.0,1.0,61.0,1.0,336.9326655999903,,,,,,,,,,,,,,,,,336.9172135999979,337.0153108999948,337.81547399998817,337.79902349998883,,,,,,,,,,,,,,,,,,,,,,,,,,,,,,,,,,,337.8031028999976,337.81547399998817,337.81547399998817,338.39926969999215,r,1.0,0.5719211999967229,,,,,,sub-002,1,stroop_test,59.76153950166449,
,,,,62.0,2.0,5.0,,,,,,,,,,,,,blau,yellow,g,0.0,g,1.0,0.8118887000018731,,,,,,,,,,5.0,2.0,62.0,7.0,338.415084799999,,,,,,,,,,,,,,,,,338.39971629998763,339.19839169998886,339.9980894999899,339.9823211999901,,,,,,,,,,,,,,,,,,,,,,,,,,,,,,,,,,,339.98629939999955,339.9980894999899,339.9980894999899,340.8162999999913,g,1.0,0.8118887000018731,,,,,,sub-002,1,stroop_test,59.76153950166449,
,,,,63.0,3.0,5.0,,,,,,,,,,,,,rot,yellow,g,0.0,g,1.0,0.6585120000090683,,,,,,,,,,5.0,3.0,63.0,3.0,340.8316795999999,,,,,,,,,,,,,,,,,340.8167423999985,342.0311112999916,342.83187159999216,342.8155412999913,,,,,,,,,,,,,,,,,,,,,,,,,,,,,,,,,,,342.8202304999868,342.83187159999216,342.83187159999216,343.4987101000006,g,1.0,0.6585120000090683,,,,,,sub-002,1,stroop_test,59.76153950166449,
,,,,64.0,4.0,5.0,,,,,,,,,,,,,gelb,yellow,g,1.0,g,1.0,0.6912740999978269,,,,,,,,,,5.0,4.0,64.0,10.0,343.5139868999977,,,,,,,,,,,,,,,,,343.49917309999,343.8645363999967,344.6642869999923,344.64803219999885,,,,,,,,,,,,,,,,,,,,,,,,,,,,,,,,,,,344.6521301999892,344.6642869999923,344.6642869999923,345.36519379999663,g,1.0,0.6912740999978269,,,,,,sub-002,1,stroop_test,59.76153950166449,
,,,,65.0,5.0,5.0,,,,,,,,,,,,,rot,red,r,1.0,r,1.0,0.4831922000012127,,,,,,,,,,5.0,5.0,65.0,0.0,345.38070779999543,,,,,,,,,,,,,,,,,345.36564299999736,345.4804538999888,346.28084029999445,346.2650064999907,,,,,,,,,,,,,,,,,,,,,,,,,,,,,,,,,,,346.26911909999035,346.28084029999445,346.28084029999445,346.76695689999906,r,1.0,0.4831922000012127,,,,,,sub-002,1,stroop_test,59.76153950166449,
,,,,66.0,6.0,5.0,,,,,,,,,,,,,blau,blue,b,1.0,b,1.0,0.4024473000026773,,,,,,,,,,5.0,6.0,66.0,6.0,346.7803559999884,,,,,,,,,,,,,,,,,346.76753029999963,347.58029119999264,348.3799320999969,348.3639693999867,,,,,,,,,,,,,,,,,,,,,,,,,,,,,,,,,,,348.36785289998807,348.3799320999969,348.3799320999969,348.7976799999888,b,1.0,0.4024473000026773,,,,,,sub-002,1,stroop_test,59.76153950166449,
,,,,67.0,7.0,5.0,,,,,,,,,,,,,gelb,red,r,0.0,g,0.0,0.6583006000000751,,,,,,,,,,5.0,7.0,67.0,8.0,348.8131861999864,,,,,,,,,,,,,,,,,348.7981243999966,348.89624069999263,349.6964929999958,349.68069169999217,,,,,,,,,,,,,,,,,,,,,,,,,,,,,,,,,,,349.68469399999594,349.6964929999958,349.6964929999958,350.3644225999888,g,0.0,0.6583006000000751,,,,,,sub-002,1,stroop_test,59.76153950166449,
,,,,68.0,8.0,5.0,,,,,,,,,,,,,rot,blue,b,0.0,b,1.0,1.5396967999986373,,,,,,,,,,5.0,8.0,68.0,2.0,350.37943769998674,,,,,,,,,,,,,,,,,350.36486370000057,351.1797708999948,351.98035459998937,351.96403999999166,,,,,,,,,,,,,,,,,,,,,,,,,,,,,,,,,,,351.9684222999931,351.98035459998937,351.98035459998937,353.53006439999444,b,1.0,1.5396967999986373,,,,,,sub-002,1,stroop_test,59.76153950166449,
,,,,69.0,9.0,5.0,,,,,,,,,,,,,gelb,yellow,g,1.0,g,1.0,0.4964004999928875,,,,,,,,,,5.0,9.0,69.0,11.0,353.54610089999915,,,,,,,,,,,,,,,,,353.53051819998655,353.64579549999326,354.44665410000016,354.42985109999427,,,,,,,,,,,,,,,,,,,,,,,,,,,,,,,,,,,354.43444149999414,354.44665410000016,354.44665410000016,354.94713509999565,g,1.0,0.4964004999928875,,,,,,sub-002,1,stroop_test,59.76153950166449,
,,,,70.0,10.0,5.0,,,,,,,,,,,,,gelb,blue,b,0.0,b,1.0,0.5540977999917232,,,,,,,,,,5.0,10.0,70.0,9.0,354.96198309998726,,,,,,,,,,,,,,,,,354.9475820999942,355.76189709999016,356.5617119999952,356.54621059999045,,,,,,,,,,,,,,,,,,,,,,,,,,,,,,,,,,,356.54682329999923,356.5617119999952,356.5617119999952,357.1293335999944,b,1.0,0.5540977999917232,,,,,,sub-002,1,stroop_test,59.76153950166449,
,,,,71.0,11.0,5.0,,,,,,,,,,,,,blau,red,r,0.0,r,1.0,0.6363700000074459,,,,,,,,,,5.0,11.0,71.0,4.0,357.1451881999965,,,,,,,,,,,,,,,,,357.1297859999904,357.4779825000005,358.2783974999911,358.2628463000001,,,,,,,,,,,,,,,,,,,,,,,,,,,,,,,,,,,358.266870499996,358.2783974999911,358.2783974999911,358.9299589000002,r,1.0,0.6363700000074459,,,,,,sub-002,1,stroop_test,59.76153950166449,
,,,,72.0,0.0,6.0,,,,,,,,,,,,,gelb,yellow,g,1.0,g,1.0,0.6084596000000602,,,,,,,,,,6.0,0.0,72.0,10.0,358.9449639999948,,,,,,,,,,,,,,,,,358.9304163999914,360.1450521999941,360.9445665999956,360.9284397999873,,,,,,,,,,,,,,,,,,,,,,,,,,,,,,,,,,,360.932501999996,360.9445665999956,360.9445665999956,361.5629794999986,g,1.0,0.6084596000000602,,,,,,sub-002,1,stroop_test,59.76153950166449,
,,,,73.0,1.0,6.0,,,,,,,,,,,,,gelb,yellow,g,1.0,g,1.0,0.5739734999951907,,,,,,,,,,6.0,1.0,73.0,11.0,361.5777317999891,,,,,,,,,,,,,,,,,361.56345619999047,361.9282516999956,362.7275649999938,362.71164419999695,,,,,,,,,,,,,,,,,,,,,,,,,,,,,,,,,,,362.7123026999907,362.7275649999938,362.7275649999938,363.311589799996,g,1.0,0.5739734999951907,,,,,,sub-002,1,stroop_test,59.76153950166449,
,,,,74.0,2.0,6.0,,,,,,,,,,,,,blau,yellow,g,0.0,g,1.0,0.6507376999943517,,,,,,,,,,6.0,2.0,74.0,7.0,363.32722889998695,,,,,,,,,,,,,,,,,363.3120440999919,363.6609832999966,364.4601566999918,364.44440609999583,,,,,,,,,,,,,,,,,,,,,,,,,,,,,,,,,,,364.4485572999984,364.4601566999918,364.4601566999918,365.12792099999206,g,1.0,0.6507376999943517,,,,,,sub-002,1,stroop_test,59.76153950166449,
,,,,75.0,3.0,6.0,,,,,,,,,,,,,rot,blue,b,0.0,b,1.0,0.5232469000038691,,,,,,,,,,6.0,3.0,75.0,2.0,365.1439040999976,,,,,,,,,,,,,,,,,365.1283739999926,365.9432105999877,366.7434953999909,366.7275507999875,,,,,,,,,,,,,,,,,,,,,,,,,,,,,,,,,,,366.7313565999939,366.7434953999909,366.7434953999909,367.278226399998,b,1.0,0.5232469000038691,,,,,,sub-002,1,stroop_test,59.76153950166449,
,,,,76.0,4.0,6.0,,,,,,,,,,,,,blau,blue,b,1.0,b,1.0,0.4798698000086006,,,,,,,,,,6.0,4.0,76.0,6.0,367.2930342999898,,,,,,,,,,,,,,,,,367.278684799996,367.393379599991,368.1945148999948,368.1776514999947,,,,,,,,,,,,,,,,,,,,,,,,,,,,,,,,,,,368.18224270000064,368.1945148999948,368.1945148999948,368.6777224999969,b,1.0,0.4798698000086006,,,,,,sub-002,1,stroop_test,59.76153950166449,
,,,,77.0,5.0,6.0,,,,,,,,,,,,,blau,blue,b,1.0,b,1.0,0.680491000006441,,,,,,,,,,6.0,5.0,77.0,5.0,368.69300259999,,,,,,,,,,,,,,,,,368.67816969999694,368.77593169998727,369.57629749999614,369.56070659999386,,,,,,,,,,,,,,,,,,,,,,,,,,,,,,,,,,,369.5612868999888,369.57629749999614,369.57629749999614,370.2611368999933,b,1.0,0.680491000006441,,,,,,sub-002,1,stroop_test,59.76153950166449,
,,,,78.0,6.0,6.0,,,,,,,,,,,,,rot,yellow,g,0.0,g,1.0,1.0728113999939524,,,,,,,,,,6.0,6.0,78.0,3.0,370.2760793999914,,,,,,,,,,,,,,,,,370.2615981999989,371.4754100999999,372.27567759998783,372.2594932999928,,,,,,,,,,,,,,,,,,,,,,,,,,,,,,,,,,,372.26348529999086,372.27567759998783,372.27567759998783,373.36038989998633,g,1.0,1.0728113999939524,,,,,,sub-002,1,stroop_test,59.76153950166449,
,,,,79.0,7.0,6.0,,,,,,,,,,,,,rot,red,r,1.0,r,1.0,0.564561599996523,,,,,,,,,,6.0,7.0,79.0,0.0,373.3753460999869,,,,,,,,,,,,,,,,,373.3608501999988,374.1750802999886,374.975540399988,374.9594830999995,,,,,,,,,,,,,,,,,,,,,,,,,,,,,,,,,,,374.9601024999865,374.975540399988,374.975540399988,375.54300299999886,r,1.0,0.564561599996523,,,,,,sub-002,1,stroop_test,59.76153950166449,
,,,,80.0,8.0,6.0,,,,,,,,,,,,,rot,red,r,1.0,r,1.0,0.7066350000095554,,,,,,,,,,6.0,8.0,80.0,1.0,375.5584780999925,,,,,,,,,,,,,,,,,375.5434457999945,375.6422664999991,376.4415239999944,376.4258488999913,,,,,,,,,,,,,,,,,,,,,,,,,,,,,,,,,,,376.4264346999989,376.4415239999944,376.4415239999944,377.1594097999914,r,1.0,0.7066350000095554,,,,,,sub-002,1,stroop_test,59.76153950166449,
,,,,81.0,9.0,6.0,,,,,,,,,,,,,gelb,blue,b,0.0,b,1.0,0.5180939999991097,,,,,,,,,,6.0,9.0,81.0,9.0,377.1748990999913,,,,,,,,,,,,,,,,,377.1598499999964,377.9743228999869,378.774734599996,378.7588784999971,,,,,,,,,,,,,,,,,,,,,,,,,,,,,,,,,,,378.7629304000002,378.774734599996,378.774734599996,379.30911649999325,b,1.0,0.5180939999991097,,,,,,sub-002,1,stroop_test,59.76153950166449,
,,,,82.0,10.0,6.0,,,,,,,,,,,,,gelb,red,r,0.0,r,1.0,0.5179924000112806,,,,,,,,,,6.0,10.0,82.0,8.0,379.3246203999879,,,,,,,,,,,,,,,,,379.3095651999902,380.1242423999938,380.9247099999921,380.9086332999868,,,,,,,,,,,,,,,,,,,,,,,,,,,,,,,,,,,380.9092104999872,380.9247099999921,380.9247099999921,381.4589644999942,r,1.0,0.5179924000112806,,,,,,sub-002,1,stroop_test,59.76153950166449,
,,,,83.0,11.0,6.0,,,,,,,,,,,,,blau,red,r,0.0,r,1.0,0.4757078000111505,,,,,,,,,,6.0,11.0,83.0,4.0,381.4738221999869,,,,,,,,,,,,,,,,,381.459431299998,382.6742301999912,383.4738216999976,383.4577560999896,,,,,,,,,,,,,,,,,,,,,,,,,,,,,,,,,,,383.4616684999928,383.4738216999976,383.4738216999976,383.9580384000001,r,1.0,0.4757078000111505,,,,,,sub-002,1,stroop_test,59.76153950166449,
,,,,84.0,0.0,7.0,,,,,,,,,,,,,rot,red,r,1.0,r,1.0,0.4680204000032972,,,,,,,,,,7.0,0.0,84.0,0.0,383.973230299991,,,,,,,,,,,,,,,,,383.9584845999925,385.173415799989,385.97321459998784,385.9569373999984,,,,,,,,,,,,,,,,,,,,,,,,,,,,,,,,,,,385.9608754999936,385.97321459998784,385.97321459998784,386.4575244000007,r,1.0,0.4680204000032972,,,,,,sub-002,1,stroop_test,59.76153950166449,
,,,,85.0,1.0,7.0,,,,,,,,,,,,,gelb,red,r,0.0,r,1.0,0.5333705999946687,,,,,,,,,,7.0,1.0,85.0,8.0,386.4731723000005,,,,,,,,,,,,,,,,,386.4579766999959,386.5731162999873,387.3735587999981,387.3570703000005,,,,,,,,,,,,,,,,,,,,,,,,,,,,,,,,,,,387.36159529999713,387.3735587999981,387.3735587999981,387.924325999993,r,1.0,0.5333705999946687,,,,,,sub-002,1,stroop_test,59.76153950166449,
,,,,86.0,2.0,7.0,,,,,,,,,,,,,gelb,yellow,g,1.0,g,1.0,1.103753400006099,,,,,,,,,,7.0,2.0,86.0,10.0,387.9397218999948,,,,,,,,,,,,,,,,,387.9247708999901,388.2894174999965,389.0892251999903,389.07412479999766,,,,,,,,,,,,,,,,,,,,,,,,,,,,,,,,,,,389.0747491999937,389.0892251999903,389.0892251999903,390.2069670999917,g,1.0,1.103753400006099,,,,,,sub-002,1,stroop_test,59.76153950166449,
,,,,87.0,3.0,7.0,,,,,,,,,,,,,blau,red,r,0.0,r,1.0,0.5262418000056641,,,,,,,,,,7.0,3.0,87.0,4.0,390.222591599988,,,,,,,,,,,,,,,,,390.2074047999922,390.5723680999945,391.3724290999962,391.3564585999993,,,,,,,,,,,,,,,,,,,,,,,,,,,,,,,,,,,391.3603928999946,391.3724290999962,391.3724290999962,391.9069889999955,r,1.0,0.5262418000056641,,,,,,sub-002,1,stroop_test,59.76153950166449,
,,,,88.0,4.0,7.0,,,,,,,,,,,,,gelb,blue,b,0.0,g,0.0,0.7710854000033578,,,,,,,,,,7.0,4.0,88.0,9.0,391.92264759998943,,,,,,,,,,,,,,,,,391.9074533999956,392.0227784999879,392.8220350999909,392.8060831999901,,,,,,,,,,,,,,,,,,,,,,,,,,,,,,,,,,,392.8100301999948,392.8220350999909,392.8220350999909,393.606111999994,g,0.0,0.7710854000033578,,,,,,sub-002,1,stroop_test,59.76153950166449,
,,,,89.0,5.0,7.0,,,,,,,,,,,,,rot,yellow,g,0.0,r,0.0,0.6227337000018451,,,,,,,,,,7.0,5.0,89.0,3.0,393.6217697999964,,,,,,,,,,,,,,,,,393.6065602999879,394.8221000999911,395.6216359999962,395.60547889999,,,,,,,,,,,,,,,,,,,,,,,,,,,,,,,,,,,395.6094157999905,395.6216359999962,395.6216359999962,396.2557766999962,r,0.0,0.6227337000018451,,,,,,sub-002,1,stroop_test,59.76153950166449,
,,,,90.0,6.0,7.0,,,,,,,,,,,,,blau,blue,b,1.0,b,1.0,0.9772856000054162,,,,,,,,,,7.0,6.0,90.0,5.0,396.2713924999989,,,,,,,,,,,,,,,,,396.2562211999903,397.054595499998,397.8550200999889,397.838691699988,,,,,,,,,,,,,,,,,,,,,,,,,,,,,,,,,,,397.8426364999905,397.8550200999889,397.8550200999889,398.8392842999892,b,1.0,0.9772856000054162,,,,,,sub-002,1,stroop_test,59.76153950166449,
,,,,91.0,7.0,7.0,,,,,,,,,,,,,rot,red,r,1.0,r,1.0,0.4813301999965915,,,,,,,,,,7.0,7.0,91.0,1.0,398.8542158999917,,,,,,,,,,,,,,,,,398.83975349999673,398.9544609999866,399.7547247999901,399.73875189998944,,,,,,,,,,,,,,,,,,,,,,,,,,,,,,,,,,,399.7426826999872,399.7547247999901,399.7547247999901,400.2385253999964,r,1.0,0.4813301999965915,,,,,,sub-002,1,stroop_test,59.76153950166449,
,,,,92.0,8.0,7.0,,,,,,,,,,,,,gelb,yellow,g,1.0,g,1.0,0.4242648000072222,,,,,,,,,,7.0,8.0,92.0,11.0,400.2543653999892,,,,,,,,,,,,,,,,,400.2389810999885,400.3546375999868,401.1554223999992,401.1386371999979,,,,,,,,,,,,,,,,,,,,,,,,,,,,,,,,,,,401.1439928999898,401.1554223999992,401.1554223999992,401.58818749999045,g,1.0,0.4242648000072222,,,,,,sub-002,1,stroop_test,59.76153950166449,
,,,,93.0,9.0,7.0,,,,,,,,,,,,,blau,yellow,g,0.0,b,0.0,0.6172290999966208,,,,,,,,,,7.0,9.0,93.0,7.0,401.6036358999991,,,,,,,,,,,,,,,,,401.5886590999871,401.95402959999046,402.7533040999988,402.7377128999942,,,,,,,,,,,,,,,,,,,,,,,,,,,,,,,,,,,402.741712499992,402.7533040999988,402.7533040999988,403.3723342999874,b,0.0,0.6172290999966208,,,,,,sub-002,1,stroop_test,59.76153950166449,
,,,,94.0,10.0,7.0,,,,,,,,,,,,,blau,blue,b,1.0,b,1.0,0.7196925999887753,,,,,,,,,,7.0,10.0,94.0,6.0,403.3871958999953,,,,,,,,,,,,,,,,,403.3727507000003,404.1865001999977,404.9862155999872,404.9704815999866,,,,,,,,,,,,,,,,,,,,,,,,,,,,,,,,,,,404.97107879999385,404.9862155999872,404.9862155999872,405.7211334999884,b,1.0,0.7196925999887753,,,,,,sub-002,1,stroop_test,59.76153950166449,
,,,,95.0,11.0,7.0,,,,,,,,,,,,,rot,blue,b,0.0,b,1.0,0.5851333999889903,,,,,,,,,,7.0,11.0,95.0,2.0,405.7361000999954,,,,,,,,,,,,,,,,,405.7215997999883,405.8363341999938,406.6381614999991,406.6205885999952,,,,,,,,,,,,,,,,,,,,,,,,,,,,,,,,,,,406.6247482999897,406.6381614999991,406.6381614999991,407.23759579999023,b,1.0,0.5851333999889903,,,,,,sub-002,1,stroop_test,59.76153950166449,
,,,,96.0,0.0,8.0,,,,,,,,,,,,,gelb,yellow,g,1.0,g,1.0,0.361639800001285,,,,,,,,,,8.0,0.0,96.0,11.0,407.2525958999904,,,,,,,,,,,,,,,,,407.2380504999892,408.4527578999987,409.252719799988,409.23630520000006,,,,,,,,,,,,,,,,,,,,,,,,,,,,,,,,,,,409.2404079999978,409.252719799988,409.252719799988,409.6205558999936,g,1.0,0.361639800001285,,,,,,sub-002,1,stroop_test,59.76153950166449,
,,,,97.0,1.0,8.0,,,,,,,,,,,,,rot,red,r,1.0,r,1.0,0.5239930000097957,,,,,,,,,,8.0,1.0,97.0,1.0,409.6352511999866,,,,,,,,,,,,,,,,,409.621013099997,409.73568699999305,410.5356793999963,410.5198655999993,,,,,,,,,,,,,,,,,,,,,,,,,,,,,,,,,,,410.5240093999892,410.5356793999963,410.5356793999963,411.06973899999866,r,1.0,0.5239930000097957,,,,,,sub-002,1,stroop_test,59.76153950166449,
,,,,98.0,2.0,8.0,,,,,,,,,,,,,rot,blue,b,0.0,g,0.0,0.9870322000060696,,,,,,,,,,8.0,2.0,98.0,2.0,411.0850165999873,,,,,,,,,,,,,,,,,411.0701872999925,411.885560499999,412.68507279999903,412.6695450999978,,,,,,,,,,,,,,,,,,,,,,,,,,,,,,,,,,,412.67017269998905,412.68507279999903,412.68507279999903,413.6862011999911,g,0.0,0.9870322000060696,,,,,,sub-002,1,stroop_test,59.76153950166449,
,,,,99.0,3.0,8.0,,,,,,,,,,,,,blau,red,r,0.0,r,1.0,1.3478442000050563,,,,,,,,,,8.0,3.0,99.0,4.0,413.7012352999882,,,,,,,,,,,,,,,,,413.6866521999909,414.5015158999886,415.3016900999937,415.2857560999983,,,,,,,,,,,,,,,,,,,,,,,,,,,,,,,,,,,415.29016579999006,415.3016900999937,415.3016900999937,416.6527506999992,r,1.0,1.3478442000050563,,,,,,sub-002,1,stroop_test,59.76153950166449,
,,,,100.0,4.0,8.0,,,,,,,,,,,,,blau,blue,b,1.0,b,1.0,0.9625149000057718,,,,,,,,,,8.0,4.0,100.0,6.0,416.6673011999956,,,,,,,,,,,,,,,,,416.6532034999982,417.8671452999988,418.66706859999977,418.6514666000003,,,,,,,,,,,,,,,,,,,,,,,,,,,,,,,,,,,418.6521136999945,418.66706859999977,418.66706859999977,419.6357624999946,b,1.0,0.9625149000057718,,,,,,sub-002,1,stroop_test,59.76153950166449,
,,,,101.0,5.0,8.0,,,,,,,,,,,,,gelb,red,r,0.0,r,1.0,0.7670786999951815,,,,,,,,,,8.0,5.0,101.0,8.0,419.6502654999931,,,,,,,,,,,,,,,,,419.6362059999956,420.8506032999867,421.6506869000005,421.6348498000007,,,,,,,,,,,,,,,,,,,,,,,,,,,,,,,,,,,421.6391062999901,421.6506869000005,421.6506869000005,422.4348672999913,r,1.0,0.7670786999951815,,,,,,sub-002,1,stroop_test,59.76153950166449,
,,,,102.0,6.0,8.0,,,,,,,,,,,,,blau,blue,b,1.0,b,1.0,0.5433349999948405,,,,,,,,,,8.0,6.0,102.0,5.0,422.4495756999968,,,,,,,,,,,,,,,,,422.4353300999937,422.7998781999922,423.5995855999936,423.5835550999909,,,,,,,,,,,,,,,,,,,,,,,,,,,,,,,,,,,423.5876147999952,423.5995855999936,423.5995855999936,424.1516116999992,b,1.0,0.5433349999948405,,,,,,sub-002,1,stroop_test,59.76153950166449,
,,,,103.0,7.0,8.0,,,,,,,,,,,,,rot,red,r,1.0,r,1.0,0.5616683000116609,,,,,,,,,,8.0,7.0,103.0,0.0,424.16625869998825,,,,,,,,,,,,,,,,,424.1520758999977,424.9658633999934,425.76688399999694,425.750546899988,,,,,,,,,,,,,,,,,,,,,,,,,,,,,,,,,,,425.75462159999006,425.76688399999694,425.76688399999694,426.3342386999866,r,1.0,0.5616683000116609,,,,,,sub-002,1,stroop_test,59.76153950166449,
,,,,104.0,8.0,8.0,,,,,,,,,,,,,blau,yellow,g,0.0,g,1.0,0.3376370000041788,,,,,,,,,,8.0,8.0,104.0,7.0,426.3490136999899,,,,,,,,,,,,,,,,,426.3346858000005,426.6989079999912,427.4996456999943,427.4835431999964,,,,,,,,,,,,,,,,,,,,,,,,,,,,,,,,,,,427.4876038999937,427.4996456999943,427.4996456999943,427.8502720999968,g,1.0,0.3376370000041788,,,,,,sub-002,1,stroop_test,59.76153950166449,
,,,,105.0,9.0,8.0,,,,,,,,,,,,,gelb,blue,b,0.0,b,1.0,0.3884794999903533,,,,,,,,,,8.0,9.0,105.0,9.0,427.86576659999264,,,,,,,,,,,,,,,,,427.85072069999296,428.6656549999898,429.4657201999944,429.449646299996,,,,,,,,,,,,,,,,,,,,,,,,,,,,,,,,,,,429.4536994999944,429.4657201999944,429.4657201999944,429.8661506999924,b,1.0,0.3884794999903533,,,,,,sub-002,1,stroop_test,59.76153950166449,
,,,,106.0,10.0,8.0,,,,,,,,,,,,,rot,yellow,g,0.0,g,1.0,0.5913580999913393,,,,,,,,,,8.0,10.0,106.0,3.0,429.8820531999954,,,,,,,,,,,,,,,,,429.8666115999949,429.9817589999875,430.7829375000001,430.7666383999895,,,,,,,,,,,,,,,,,,,,,,,,,,,,,,,,,,,430.7712491999992,430.7829375000001,430.7829375000001,431.3831369999971,g,1.0,0.5913580999913393,,,,,,sub-002,1,stroop_test,59.76153950166449,
,,,,107.0,11.0,8.0,,,,,,,,,,,,,gelb,yellow,g,1.0,g,1.0,0.5649623000063002,,,,,,,,,,8.0,11.0,107.0,10.0,431.3980626999983,,,,,,,,,,,,,,,,,431.3835865000001,432.1982938000001,432.9982164999965,432.98220729999593,,,,,,,,,,,,,,,,,,,,,,,,,,,,,,,,,,,432.9864954999939,432.9982164999965,432.9982164999965,433.5667569999932,g,1.0,0.5649623000063002,,,,,,sub-002,1,stroop_test,59.76153950166449,
,,,,108.0,0.0,9.0,,,,,,,,,,,,,rot,blue,b,0.0,b,1.0,0.3982591999956639,,,,,,,,,,9.0,0.0,108.0,2.0,433.5815653999889,,,,,,,,,,,,,,,,,433.5672437999892,434.3812478999898,435.18114579998655,435.1650678000005,,,,,,,,,,,,,,,,,,,,,,,,,,,,,,,,,,,435.1692741999868,435.18114579998655,435.18114579998655,435.582565299992,b,1.0,0.3982591999956639,,,,,,sub-002,1,stroop_test,59.76153950166449,
,,,,109.0,1.0,9.0,,,,,,,,,,,,,rot,yellow,g,0.0,g,1.0,1.03450320000411,,,,,,,,,,9.0,1.0,109.0,3.0,435.59748039999977,,,,,,,,,,,,,,,,,435.58304109999153,436.79708269999537,437.59703499999887,437.58170419999806,,,,,,,,,,,,,,,,,,,,,,,,,,,,,,,,,,,437.58237720000034,437.59703499999887,437.59703499999887,438.6479255999875,g,1.0,1.03450320000411,,,,,,sub-002,1,stroop_test,59.76153950166449,
,,,,110.0,2.0,9.0,,,,,,,,,,,,,blau,blue,b,1.0,b,1.0,0.4850852999952622,,,,,,,,,,9.0,2.0,110.0,6.0,438.6632813999895,,,,,,,,,,,,,,,,,438.6483703999984,439.4471449999983,440.2472390999901,440.2309476999944,,,,,,,,,,,,,,,,,,,,,,,,,,,,,,,,,,,440.2354329999944,440.2472390999901,440.2472390999901,440.74756419999176,b,1.0,0.4850852999952622,,,,,,sub-002,1,stroop_test,59.76153950166449,
,,,,111.0,3.0,9.0,,,,,,,,,,,,,rot,red,r,1.0,r,1.0,0.3327710000012303,,,,,,,,,,9.0,3.0,111.0,0.0,440.7632564999949,,,,,,,,,,,,,,,,,440.7480078999943,441.9633877999877,442.7626614999899,442.74699639999017,,,,,,,,,,,,,,,,,,,,,,,,,,,,,,,,,,,442.75096619999385,442.7626614999899,442.7626614999899,443.0977002,r,1.0,0.3327710000012303,,,,,,sub-002,1,stroop_test,59.76153950166449,
,,,,112.0,4.0,9.0,,,,,,,,,,,,,gelb,yellow,g,1.0,g,1.0,0.544512799999211,,,,,,,,,,9.0,4.0,112.0,10.0,443.1126887999999,,,,,,,,,,,,,,,,,443.0981437999872,443.4624574999907,444.2634753999882,444.247034,,,,,,,,,,,,,,,,,,,,,,,,,,,,,,,,,,,444.251208799993,444.2634753999882,444.2634753999882,444.8148476999922,g,1.0,0.544512799999211,,,,,,sub-002,1,stroop_test,59.76153950166449,
,,,,113.0,5.0,9.0,,,,,,,,,,,,,blau,blue,b,1.0,b,1.0,0.4601432000054046,,,,,,,,,,9.0,5.0,113.0,5.0,444.8291867999942,,,,,,,,,,,,,,,,,444.8153820000007,446.02777929999866,446.8299039999984,446.81360139999015,,,,,,,,,,,,,,,,,,,,,,,,,,,,,,,,,,,446.81818719999865,446.8299039999984,446.8299039999984,447.2974467999884,b,1.0,0.4601432000054046,,,,,,sub-002,1,stroop_test,59.76153950166449,
,,,,114.0,6.0,9.0,,,,,,,,,,,,,blau,yellow,g,0.0,g,1.0,0.4414182000036817,,,,,,,,,,9.0,6.0,114.0,7.0,447.3119312999916,,,,,,,,,,,,,,,,,447.2978937999869,447.4126396999927,448.211667999989,448.19590719998814,,,,,,,,,,,,,,,,,,,,,,,,,,,,,,,,,,,448.1965171999909,448.211667999989,448.211667999989,448.6632108999911,g,1.0,0.4414182000036817,,,,,,sub-002,1,stroop_test,59.76153950166449,
,,,,115.0,7.0,9.0,,,,,,,,,,,,,gelb,blue,b,0.0,b,1.0,0.8706938999966951,,,,,,,,,,9.0,7.0,115.0,9.0,448.67881469998974,,,,,,,,,,,,,,,,,448.6636544999928,449.0284580000007,449.82790739998745,449.8125192999869,,,,,,,,,,,,,,,,,,,,,,,,,,,,,,,,,,,449.8165241999959,449.82790739998745,449.82790739998745,450.7127788999933,b,1.0,0.8706938999966951,,,,,,sub-002,1,stroop_test,59.76153950166449,
,,,,116.0,8.0,9.0,,,,,,,,,,,,,blau,red,r,0.0,r,1.0,0.413133399997605,,,,,,,,,,9.0,8.0,116.0,4.0,450.728122799992,,,,,,,,,,,,,,,,,450.7132342999976,450.8282143999968,451.6285610999912,451.6128203999979,,,,,,,,,,,,,,,,,,,,,,,,,,,,,,,,,,,451.6168831999967,451.6285610999912,451.6285610999912,452.0458786999952,r,1.0,0.413133399997605,,,,,,sub-002,1,stroop_test,59.76153950166449,
,,,,117.0,9.0,9.0,,,,,,,,,,,,,rot,red,r,1.0,r,1.0,0.6237241999915568,,,,,,,,,,9.0,9.0,117.0,1.0,452.06123369999113,,,,,,,,,,,,,,,,,452.04632489998767,452.1612208000006,452.9610154999973,452.9454515999969,,,,,,,,,,,,,,,,,,,,,,,,,,,,,,,,,,,452.949418499993,452.9610154999973,452.9610154999973,453.59532709998894,r,1.0,0.6237241999915568,,,,,,sub-002,1,stroop_test,59.76153950166449,
,,,,118.0,10.0,9.0,,,,,,,,,,,,,gelb,yellow,g,1.0,g,1.0,0.462648500004434,,,,,,,,,,9.0,10.0,118.0,11.0,453.6109848999913,,,,,,,,,,,,,,,,,453.5957699999999,453.7113366999984,454.510966899994,454.49542479999945,,,,,,,,,,,,,,,,,,,,,,,,,,,,,,,,,,,454.4994001999876,454.510966899994,454.510966899994,454.9788999999873,g,1.0,0.462648500004434,,,,,,sub-002,1,stroop_test,59.76153950166449,
,,,,119.0,11.0,9.0,,,,,,,,,,,,,gelb,red,r,0.0,r,1.0,0.640898700003163,,,,,,,,,,9.0,11.0,119.0,8.0,454.993942199988,,,,,,,,,,,,,,,,,454.9793449999997,455.7937908999884,456.59401439999056,456.5777310999984,,,,,,,,,,,,,,,,,,,,,,,,,,,,,,,,,,,456.5783066000004,456.59401439999056,456.59401439999056,457.2447833999904,r,1.0,0.640898700003163,,,,,,sub-002,1,stroop_test,59.76153950166449,
,,,,,,,,,,,,,,,,,,,,,,,,,,,,,,,,,,,,,,,,,,,,,,,,,,,,,,,,,,,,,,,,,,,,,,,,,,,,,,,,,,,,,,,,,,,,,,,,,,,,,,457.2449942999956,457.25996949999535,462.25981439999305,462.24396379999234,sub-002,1,stroop_test,59.76153950166449,
