direction,corrAns,thisN,thisTrialN,thisRepN,respDots.keys,respDots.corr,respDots.rt,respDots.duration,randomInstr,respRandomInstr.keys,respRandomInstr.rt,respRandomInstr.duration,practice_trials.thisRepN,practice_trials.thisTrialN,practice_trials.thisN,practice_trials.thisIndex,instr_trials.thisRepN,instr_trials.thisTrialN,instr_trials.thisN,instr_trials.thisIndex,test_trials.thisRepN,test_trials.thisTrialN,test_trials.thisN,test_trials.thisIndex,thisRow.t,notes,general_instruction.started,textGeneralInstr.started,respGeneralInstr.started,general_instruction.stopped,respGeneralInstr.keys,respGeneralInstr.rt,respGeneralInstr.duration,ITI.started,fixcross.started,fixcross.stopped,ITI.stopped,dots.started,backgroundDots.started,stimulusDots.started,respDots.started,stimulusDots.stopped,dots.stopped,practice_trials.respDots.keys,practice_trials.respDots.corr,practice_trials.respDots.rt,practice_trials.respDots.duration,feedback.started,textFeedback.started,feedback.stopped,textFeedback.stopped,info.started,textInfo.started,keyRespInfo.started,info.stopped,keyRespInfo.keys,keyRespInfo.rt,keyRespInfo.duration,test_instruction.started,textTestInstr.started,respTestInstr.started,test_instruction.stopped,respTestInstr.keys,respTestInstr.rt,respTestInstr.duration,random_instruction.started,textRandomInstr.started,respRandomInstr.started,random_instruction.stopped,instr_trials.respRandomInstr.keys,instr_trials.respRandomInstr.rt,instr_trials.respRandomInstr.duration,test_trials.respDots.keys,test_trials.respDots.corr,test_trials.respDots.rt,test_trials.respDots.duration,goodbye.started,textGoodbye.started,goodbye.stopped,participant,session,expName,frameRate,Unnamed: 87
,,,,,,,,,,,,,,,,,,,,,,,,,,,0.0286407999228686,0.050646899966523,0.050646899966523,18.014429799979556,space,17.900218300055712,,,,,,,,,,,,,,,,,,,,,,,,,,,,,,,,,,,,,,,,,,,,,,,,sub-158,1,random_dot,59.90362705018264,
right,right,0.0,0.0,0.0,right,1.0,5.556635300046764,,,,,,0.0,0.0,0.0,1.0,,,,,,,,,18.1460522999987,,,,,,,,,18.13419299991801,18.378450899966992,19.195600599981844,19.16856999997981,19.169029099983163,19.195600599981844,19.195600599981844,19.195600599981844,24.2011208999902,24.76467419997789,right,1.0,5.556635300046764,,24.801424599951133,24.81731329998001,25.280299699981697,,,,,,,,,,,,,,,,,,,,,,,,,,,,,,sub-158,1,random_dot,59.90362705018264,
left,left,1.0,1.0,0.0,right,0.0,5.46194770000875,,,,,,0.0,1.0,1.0,0.0,,,,,,,,,25.30204480001703,,,,,,,,,25.28098639997188,25.38535949995276,26.218708799919117,26.19781769998372,26.19857609993778,26.218708799919117,26.218708799919117,26.218708799919117,31.20579329994507,31.686248200014237,right,0.0,5.46194770000875,,31.71104289998766,31.72223249997478,32.21877139993012,,,,,,,,,,,,,,,,,,,,,,,,,,,,,,sub-158,1,random_dot,59.90362705018264,
right,right,2.0,0.0,1.0,left,0.0,5.496553000062704,,,,,,1.0,0.0,2.0,1.0,,,,,,,,,32.24015590001363,,,,,,,,,32.21955119993072,33.407396299997345,34.22397579997778,34.20795439998619,34.20901439990848,34.22397579997778,34.22397579997778,34.22397579997778,39.24483250000048,39.724868499906734,left,0.0,5.496553000062704,,39.7252029000083,39.74512749991845,40.24078639992513,,,,,,,,,,,,,,,,,,,,,,,,,,,,,,sub-158,1,random_dot,59.90362705018264,
left,left,3.0,1.0,1.0,right,0.0,5.8176426000427455,,,,,,1.0,1.0,3.0,0.0,,,,,,,,,40.26182279991917,,,,,,,,,40.241477499948815,40.59566539991647,41.41289119992871,41.39368819992524,41.39450389996637,41.41289119992871,41.41289119992871,41.41289119992871,46.43302569992375,47.26245579996612,right,0.0,5.8176426000427455,,47.2627098999219,47.28342929994688,47.779731899965554,,,,,,,,,,,,,,,,,,,,,,,,,,,,,,sub-158,1,random_dot,59.90362705018264,
left,left,4.0,0.0,2.0,left,1.0,5.5729682999663055,,,,,,2.0,0.0,4.0,0.0,,,,,,,,,47.79996679991018,,,,,,,,,47.78041549993213,48.56625699996948,49.36772799992468,49.356228999909945,49.35660790000111,49.36772799992468,49.36772799992468,49.36772799992468,54.37113210000098,54.96751959994435,left,1.0,5.5729682999663055,,54.97716429992579,54.988403799943626,55.50067709991709,,,,,,,,,,,,,,,,,,,,,,,,,,,,,,sub-158,1,random_dot,59.90362705018264,
right,right,5.0,1.0,2.0,left,0.0,4.404626299976371,,,,,,2.0,1.0,5.0,1.0,,,,,,,,,55.52269799995702,,,,,,,,,55.501332100015134,56.28987559990492,57.10717360000126,57.08520809991751,57.08595949993469,57.10717360000126,57.10717360000126,57.10717360000126,,61.5227348000044,left,0.0,4.404626299976371,,61.53150469996035,61.54264899995178,62.0391876999056,,,,,,,,,,,,,,,,,,,,,,,,,,,,,,sub-158,1,random_dot,59.90362705018264,
left,left,6.0,0.0,3.0,left,1.0,1.3964630999835208,,,,,,3.0,0.0,6.0,0.0,,,,,,,,,62.05984279990662,,,,,,,,,62.03995469992515,62.41070199990645,63.24500999995507,63.22298039996531,63.22370729991235,63.24500999995507,63.24500999995507,63.24500999995507,,64.65631200000644,left,1.0,1.3964630999835208,,64.66597689990886,64.67828729993198,65.19003119994886,,,,,,,,,,,,,,,,,,,,,,,,,,,,,,sub-158,1,random_dot,59.90362705018264,
right,right,7.0,1.0,3.0,right,1.0,1.6089108999585733,,,,,,3.0,1.0,7.0,1.0,,,,,,,,,65.2126077999128,,,,,,,,,65.19069359998684,65.27934669994283,66.11260250001214,66.09160199994221,66.09234420000575,66.11260250001214,66.11260250001214,66.11260250001214,,67.72493969998322,right,1.0,1.6089108999585733,,67.72518459998537,67.74736619996838,68.24402939993888,,,,,,,,,,,,,,,,,,,,,,,,,,,,,,sub-158,1,random_dot,59.90362705018264,
right,right,8.0,0.0,4.0,left,0.0,2.9598636000882834,,,,,,4.0,0.0,8.0,1.0,,,,,,,,,68.26469420001376,,,,,,,,,68.24473589996342,69.44880289991852,70.28273440001067,70.26179309992585,70.26266140001826,70.28273440001067,70.28273440001067,70.28273440001067,,73.26300859998446,left,0.0,2.9598636000882834,,73.27127959998325,73.28418479999527,73.78010969993193,,,,,,,,,,,,,,,,,,,,,,,,,,,,,,sub-158,1,random_dot,59.90362705018264,
left,left,9.0,1.0,4.0,left,1.0,0.6020133000565693,,,,,,4.0,1.0,9.0,0.0,,,,,,,,,73.80184550001286,,,,,,,,,73.78087149991188,74.58579019992612,75.41984019998927,75.39931809995323,75.40017099992838,75.41984019998927,75.41984019998927,75.41984019998927,,76.0317403000081,left,1.0,0.6020133000565693,,76.04046849999577,76.05267839995213,76.53216960001737,,,,,,,,,,,,,,,,,,,,,,,,,,,,,,sub-158,1,random_dot,59.90362705018264,
right,right,10.0,0.0,5.0,left,0.0,2.3710411000065506,,,,,,5.0,0.0,10.0,1.0,,,,,,,,,76.5541614999529,,,,,,,,,76.5329109999584,76.65381889999844,77.47064159996808,77.44920659996569,77.44994929991663,77.47064159996808,77.47064159996808,77.47064159996808,,79.86714899993967,left,0.0,2.3710411000065506,,79.87551119993441,79.88917849992868,80.36881519993767,,,,,,,,,,,,,,,,,,,,,,,,,,,,,,sub-158,1,random_dot,59.90362705018264,
left,left,11.0,1.0,5.0,left,1.0,4.8709281999617815,,,,,,5.0,1.0,11.0,0.0,,,,,,,,,80.38925429992378,,,,,,,,,80.36957789992448,80.50644309993368,81.33996889996342,81.31866389990319,81.31941879994702,81.33996889996342,81.33996889996342,81.33996889996342,,86.2150850999169,left,1.0,4.8709281999617815,,86.21905479999259,86.2261774999788,86.71535269997548,86.72658259992022,,,,,,,,,,,,,,,,,,,,,,,,,,,,,sub-158,1,random_dot,59.90362705018264,
left,left,12.0,0.0,6.0,left,1.0,4.026864500017837,,,,,,6.0,0.0,12.0,0.0,,,,,,,,,86.72658259992022,,,,,,,,,86.71568349993322,87.94444300001487,88.74471100000665,88.73473189992364,88.73512540000957,88.74471100000665,88.74471100000665,88.74471100000665,,92.77648659993427,left,1.0,4.026864500017837,,92.77673009992576,92.79835249995811,93.29351270000916,,,,,,,,,,,,,,,,,,,,,,,,,,,,,,sub-158,1,random_dot,59.90362705018264,
right,right,13.0,1.0,6.0,left,0.0,4.328518699971028,,,,,,6.0,1.0,13.0,1.0,,,,,,,,,93.31498239992652,,,,,,,,,93.29419709998184,94.09914229996502,94.93286890001036,94.91098199994305,94.91171309992204,94.93286890001036,94.93286890001036,94.93286890001036,,99.2645244000014,left,0.0,4.328518699971028,,99.27348390000408,99.28589719999582,99.79782099998556,,,,,,,,,,,,,,,,,,,,,,,,,,,,,,sub-158,1,random_dot,59.90362705018264,
right,right,14.0,0.0,7.0,left,0.0,4.310722899972461,,,,,,7.0,0.0,14.0,1.0,,,,,,,,,99.81960189994425,,,,,,,,,99.79849029995968,100.58667009999044,101.42073639994489,101.39946240000428,101.40031049994286,101.42073639994489,101.42073639994489,101.42073639994489,,105.73557839996649,left,0.0,4.310722899972461,,105.7358186999336,105.75705529993866,106.23600359994452,,,,,,,,,,,,,,,,,,,,,,,,,,,,,,sub-158,1,random_dot,59.90362705018264,
left,left,15.0,1.0,7.0,left,1.0,1.6634318000869823,,,,,,7.0,1.0,15.0,0.0,,,,,,,,,106.2573425999144,,,,,,,,,106.23676010000054,106.62432219996116,107.45843899995089,107.43753459991422,107.43828399991617,107.45843899995089,107.45843899995089,107.45843899995089,,109.13720349990764,left,1.0,1.6634318000869823,,109.1452323999256,109.15868919994682,109.65486549993513,,,,,,,,,,,,,,,,,,,,,,,,,,,,,,sub-158,1,random_dot,59.90362705018264,
right,right,16.0,0.0,8.0,left,0.0,0.3014722999650985,,,,,,8.0,0.0,16.0,1.0,,,,,,,,,109.67636219994164,,,,,,,,,109.65553260000888,110.02659789996687,110.86083759996107,110.83825919998344,110.839448899962,110.86083759996107,110.86083759996107,110.86083759996107,,111.17210149997844,left,0.0,0.3014722999650985,,111.18067189992873,111.19436630001292,111.67281059990636,,,,,,,,,,,,,,,,,,,,,,,,,,,,,,sub-158,1,random_dot,59.90362705018264,
left,left,17.0,1.0,8.0,left,1.0,0.3031185999279842,,,,,,8.0,1.0,17.0,0.0,,,,,,,,,111.69464829994833,,,,,,,,,111.67349189997184,112.91195559990592,113.72855899995191,113.70587489998434,113.7066601999104,113.72855899995191,113.72855899995191,113.72855899995191,,114.04150359996127,left,1.0,0.3031185999279842,,114.05118419998324,114.06281369994394,114.55092349997722,,,,,,,,,,,,,,,,,,,,,,,,,,,,,,sub-158,1,random_dot,59.90362705018264,
left,left,18.0,0.0,9.0,left,1.0,0.3579843998886645,,,,,,9.0,0.0,18.0,0.0,,,,,,,,,114.5623329000082,,,,,,,,,114.55127289996015,114.93140629993286,115.76383379998153,115.743120500003,115.7438555000117,115.76383379998153,115.76383379998153,115.76383379998153,,116.14377919991966,left,1.0,0.3579843998886645,,116.14406680001412,116.16434539994223,116.65971129992975,,,,,,,,,,,,,,,,,,,,,,,,,,,,,,sub-158,1,random_dot,59.90362705018264,
right,right,19.0,1.0,9.0,right,1.0,0.3123387000523507,,,,,,9.0,1.0,19.0,1.0,,,,,,,,,116.68131189991254,,,,,,,,,116.66038369992748,117.01571389997844,117.84869289991912,117.82581680000294,117.82655729993712,117.84869289991912,117.84869289991912,117.84869289991912,,118.17099539993796,right,1.0,0.3123387000523507,,118.17114200000653,118.18143429991324,118.67052459996194,118.68166190001648,,,,,,,,,,,,,,,,,,,,,,,,,,,,,sub-158,1,random_dot,59.90362705018264,
,,,,,,,,,,,,,,,,,,,,,,,,,,,,,,,,,,,,,,,,,,,,,,,,,,,,118.67066199996044,118.68166190001648,118.68166190001648,124.88272419990972,space,6.1998693000059575,,,,,,,,,,,,,,,,,,,,,,,sub-158,1,random_dot,59.90362705018264,
,,,,,,,,,,,,,,,,,,,,,,,,,,,,,,,,,,,,,,,,,,,,,,,,,,,,,,,,,,,124.882904099999,124.90291559998876,124.90291559998876,132.6216844000155,space,7.709887999924831,,,,,,,,,,,,,,,,sub-158,1,random_dot,59.90362705018264,
right,right,0.0,0.0,0.0,left,0.0,5.483099499950185,,accuracy,space,4.205168999964371,,,,,,0.0,0.0,0.0,0.0,0.0,0.0,0.0,1.0,137.01196259993594,,,,,,,,,136.9917456000112,138.19591979996767,139.03005940001458,139.00933669996448,139.01026709994767,139.03005940001458,139.03005940001458,139.03005940001458,144.0501351999119,144.528964899946,,,,,,,,,,,,,,,,,,,,,,,132.7413525999291,132.75823869998567,132.75823869998567,136.973669399973,space,4.205168999964371,,left,0.0,5.483099499950185,,,,,sub-158,1,random_dot,59.90362705018264,
left,left,1.0,1.0,0.0,left,1.0,4.718078100006096,,accuracy,space,4.205168999964371,,,,,,0.0,0.0,0.0,0.0,0.0,1.0,1.0,0.0,144.5504795999732,,,,,,,,,144.5298393999692,145.36724940000568,146.1848553000018,146.1639685999835,146.1647172999801,146.1848553000018,146.1848553000018,146.1848553000018,,150.93340089998674,,,,,,,,,,,,,,,,,,,,,,,,,,,,,,left,1.0,4.718078100006096,,,,,sub-158,1,random_dot,59.90362705018264,
right,right,2.0,0.0,1.0,right,1.0,3.02902539994102,,accuracy,space,4.205168999964371,,,,,,0.0,0.0,0.0,0.0,1.0,0.0,2.0,1.0,150.9549080999568,,,,,,,,,150.93425249995198,152.15572829998564,152.97307569999248,152.9513032999821,152.95211499999277,152.97307569999248,152.97307569999248,152.97307569999248,,156.0133729999652,,,,,,,,,,,,,,,,,,,,,,,,,,,,,,right,1.0,3.02902539994102,,,,,sub-158,1,random_dot,59.90362705018264,
left,left,3.0,1.0,1.0,right,0.0,2.0631273000035435,,accuracy,space,4.205168999964371,,,,,,0.0,0.0,0.0,0.0,1.0,1.0,3.0,0.0,156.02419119991828,,,,,,,,,156.0138104999205,156.82457029994112,157.65917359991,157.63742569996975,157.6381956000114,157.65917359991,157.65917359991,157.65917359991,,159.7327256000135,,,,,,,,,,,,,,,,,,,,,,,,,,,,,,right,0.0,2.0631273000035435,,,,,sub-158,1,random_dot,59.90362705018264,
right,right,4.0,0.0,2.0,left,0.0,5.673986400011927,,accuracy,space,4.205168999964371,,,,,,0.0,0.0,0.0,0.0,2.0,0.0,4.0,1.0,159.7431739999447,,,,,,,,,159.7331828000024,160.11120489996392,160.928627199959,160.9067045999691,160.90742189995944,160.928627199959,160.928627199959,160.928627199959,165.9314224999398,166.61125199997332,,,,,,,,,,,,,,,,,,,,,,,,,,,,,,left,0.0,5.673986400011927,,,,,sub-158,1,random_dot,59.90362705018264,
left,left,5.0,1.0,2.0,left,1.0,3.715595200075768,,accuracy,space,4.205168999964371,,,,,,0.0,0.0,0.0,0.0,2.0,1.0,5.0,0.0,166.63235129998066,,,,,,,,,166.61212079995312,167.43299389991444,168.266532599926,168.24339329998477,168.24414620001335,168.266532599926,168.266532599926,168.266532599926,,171.99552559992298,,,,,,,,,,,,,,,,,,,,,,,,,,,,,,left,1.0,3.715595200075768,,,,,sub-158,1,random_dot,59.90362705018264,
left,left,6.0,0.0,3.0,right,0.0,4.059575099963695,,accuracy,space,4.205168999964371,,,,,,0.0,0.0,0.0,0.0,3.0,0.0,6.0,0.0,172.00206159998197,,,,,,,,,171.99608089996036,172.38607219990809,173.20315620000474,173.18124559998978,173.18202029995155,173.20315620000474,173.20315620000474,173.20315620000474,,177.28535869996995,,,,,,,,,,,,,,,,,,,,,,,,,,,,,,right,0.0,4.059575099963695,,,,,sub-158,1,random_dot,59.90362705018264,
right,right,7.0,1.0,3.0,right,1.0,5.415446600061841,,accuracy,space,4.205168999964371,,,,,,0.0,0.0,0.0,0.0,3.0,1.0,7.0,1.0,177.30628439993598,,,,,,,,,177.28622739994898,177.67315709998363,178.50711789994966,178.48617199994624,178.4869099999778,178.50711789994966,178.50711789994966,178.50711789994966,183.51078699994832,183.95636650000236,,,,,,,,,,,,,,,,,,,,,,,,,,,,,,right,1.0,5.415446600061841,,,,,sub-158,1,random_dot,59.90362705018264,
left,left,8.0,0.0,4.0,left,1.0,3.1408874000189826,,accuracy,space,4.205168999964371,,,,,,0.0,0.0,0.0,0.0,4.0,0.0,8.0,0.0,183.97756879997905,,,,,,,,,183.9572478999617,184.34443840000316,185.16162209992763,185.139674999984,185.14041889994405,185.16162209992763,185.16162209992763,185.16162209992763,,188.30976719991304,,,,,,,,,,,,,,,,,,,,,,,,,,,,,,left,1.0,3.1408874000189826,,,,,sub-158,1,random_dot,59.90362705018264,
right,right,9.0,1.0,4.0,right,1.0,4.957170300069265,,accuracy,space,4.205168999964371,,,,,,0.0,0.0,0.0,0.0,4.0,1.0,9.0,1.0,188.33042889996432,,,,,,,,,188.3107240999816,189.5312693999149,190.3654847999569,190.3437548999209,190.34460720000789,190.3654847999569,190.3654847999569,190.3654847999569,195.3687607999891,195.3481907999376,,,,,,,,,,,,,,,,,,,,,,,,,,,,,,right,1.0,4.957170300069265,,,,,sub-158,1,random_dot,59.90362705018264,
left,left,10.0,0.0,5.0,left,1.0,2.9878037000307813,,accuracy,space,4.205168999964371,,,,,,0.0,0.0,0.0,0.0,5.0,0.0,10.0,0.0,195.3687607999891,,,,,,,,,195.3491778000025,196.5696325999452,197.38614479999524,197.36627429991492,197.36705719993915,197.38614479999524,197.38614479999524,197.38614479999524,,200.40850309992675,,,,,,,,,,,,,,,,,,,,,,,,,,,,,,left,1.0,2.9878037000307813,,,,,sub-158,1,random_dot,59.90362705018264,
right,right,11.0,1.0,5.0,left,0.0,5.7768962000263855,,accuracy,space,4.205168999964371,,,,,,0.0,0.0,0.0,0.0,5.0,1.0,11.0,1.0,200.42130950000137,,,,,,,,,200.40948179992847,200.55554610001852,201.35615579993464,201.34480469999835,201.34518259996548,201.35615579993464,201.35615579993464,201.35615579993464,206.3919652999612,207.1479061999125,,,,,,,,,,,,,,,,,,,,,,,,,,,,,,left,0.0,5.7768962000263855,,,,,sub-158,1,random_dot,59.90362705018264,
left,left,12.0,0.0,6.0,left,1.0,3.703572499915026,,accuracy,space,4.205168999964371,,,,,,0.0,0.0,0.0,0.0,6.0,0.0,12.0,0.0,207.1595336999744,,,,,,,,,207.14837429998445,207.2595189999556,208.06015949998985,208.04856929997916,208.04896739998367,208.06015949998985,208.06015949998985,208.06015949998985,,211.79025789990555,,,,,,,,,,,,,,,,,,,,,,,,,,,,,,left,1.0,3.703572499915026,,,,,sub-158,1,random_dot,59.90362705018264,
right,right,13.0,1.0,6.0,right,1.0,4.036090299952775,,accuracy,space,4.205168999964371,,,,,,0.0,0.0,0.0,0.0,6.0,1.0,13.0,1.0,211.81289369997103,,,,,,,,,211.79110989999023,212.1637674999656,212.99757989996576,212.9754974999232,212.9762294999091,212.99757989996576,212.99757989996576,212.99757989996576,,217.04770250001457,,,,,,,,,,,,,,,,,,,,,,,,,,,,,,right,1.0,4.036090299952775,,,,,sub-158,1,random_dot,59.90362705018264,
left,left,14.0,0.0,7.0,left,1.0,4.542813400039449,,accuracy,space,4.205168999964371,,,,,,0.0,0.0,0.0,0.0,7.0,0.0,14.0,0.0,217.0668565999949,,,,,,,,,217.04872369999063,217.1674861999927,218.00084539991803,217.9794454999501,217.9802252999507,218.00084539991803,218.00084539991803,218.00084539991803,,222.5502024999587,,,,,,,,,,,,,,,,,,,,,,,,,,,,,,left,1.0,4.542813400039449,,,,,sub-158,1,random_dot,59.90362705018264,
right,right,15.0,1.0,7.0,right,1.0,2.4593124000821263,,accuracy,space,4.205168999964371,,,,,,0.0,0.0,0.0,0.0,7.0,1.0,15.0,1.0,222.57064769999124,,,,,,,,,222.55120380001608,223.7717408000026,224.604801199981,224.582500499906,224.58322349993975,224.604801199981,224.604801199981,224.604801199981,,227.08629379991908,,,,,,,,,,,,,,,,,,,,,,,,,,,,,,right,1.0,2.4593124000821263,,,,,sub-158,1,random_dot,59.90362705018264,
right,right,16.0,0.0,8.0,left,0.0,3.5122027999022976,,accuracy,space,4.205168999964371,,,,,,0.0,0.0,0.0,0.0,8.0,0.0,16.0,1.0,227.10714539990292,,,,,,,,,227.087286499911,227.2071769000031,228.0409123999998,228.0195328999544,228.02035519992933,228.0409123999998,228.0409123999998,228.0409123999998,,231.56576139992103,,,,,,,,,,,,,,,,,,,,,,,,,,,,,,left,0.0,3.5122027999022976,,,,,sub-158,1,random_dot,59.90362705018264,
left,left,17.0,1.0,8.0,right,0.0,3.105448200018145,,accuracy,space,4.205168999964371,,,,,,0.0,0.0,0.0,0.0,8.0,1.0,17.0,0.0,231.57594809995496,,,,,,,,,231.5662377999397,232.8110546999378,233.6275572999148,233.60717959993053,233.60794789996,233.6275572999148,233.6275572999148,233.6275572999148,,236.7352579999715,,,,,,,,,,,,,,,,,,,,,,,,,,,,,,right,0.0,3.105448200018145,,,,,sub-158,1,random_dot,59.90362705018264,
left,left,18.0,0.0,9.0,left,1.0,5.476626600022428,,accuracy,space,4.205168999964371,,,,,,0.0,0.0,0.0,0.0,9.0,0.0,18.0,0.0,236.74626339995305,,,,,,,,,236.73570989992004,236.84598139999437,237.64704339997843,237.63514679996297,237.6355373999104,237.64704339997843,237.64704339997843,237.64704339997843,242.6501926999772,243.1306489999406,,,,,,,,,,,,,,,,,,,,,,,,,,,,,,left,1.0,5.476626600022428,,,,,sub-158,1,random_dot,59.90362705018264,
right,right,19.0,1.0,9.0,right,1.0,1.404584000003524,,accuracy,space,4.205168999964371,,,,,,0.0,0.0,0.0,0.0,9.0,1.0,19.0,1.0,243.1520901999902,,,,,,,,,243.131487299921,243.50177829992023,244.31891939998604,244.29953590000517,244.3003027999075,244.31891939998604,244.31891939998604,244.31891939998604,,245.7305408999091,,,,,,,,,,,,,,,,,,,,,,,,,,,,,,right,1.0,1.404584000003524,,,,,sub-158,1,random_dot,59.90362705018264,
right,right,20.0,0.0,10.0,left,0.0,0.5637877000262961,,accuracy,space,4.205168999964371,,,,,,0.0,0.0,0.0,0.0,10.0,0.0,20.0,1.0,245.7532558999956,,,,,,,,,245.7313924999908,246.1031970999902,246.92044819996227,246.89710029994603,246.89782219997144,246.92044819996227,246.92044819996227,246.92044819996227,,247.4999524999876,,,,,,,,,,,,,,,,,,,,,,,,,,,,,,left,0.0,0.5637877000262961,,,,,sub-158,1,random_dot,59.90362705018264,
left,left,21.0,1.0,10.0,left,1.0,0.2776316999224946,,accuracy,space,4.205168999964371,,,,,,0.0,0.0,0.0,0.0,10.0,1.0,21.0,0.0,247.5203234999208,,,,,,,,,247.50084769993555,247.85716689995024,248.70579829998317,248.68316179991237,248.68392519990448,248.70579829998317,248.70579829998317,248.70579829998317,,248.98474949994124,,,,,,,,,,,,,,,,,,,,,,,,,,,,,,left,1.0,0.2776316999224946,,,,,sub-158,1,random_dot,59.90362705018264,
left,left,22.0,0.0,11.0,right,0.0,0.2943075000075623,,accuracy,space,4.205168999964371,,,,,,0.0,0.0,0.0,0.0,11.0,0.0,22.0,0.0,249.00562189996708,,,,,,,,,248.98576479998883,249.3556578999851,250.18953129998408,250.1677290999796,250.168573700008,250.18953129998408,250.18953129998408,250.18953129998408,,250.50267790001817,,,,,,,,,,,,,,,,,,,,,,,,,,,,,,right,0.0,0.2943075000075623,,,,,sub-158,1,random_dot,59.90362705018264,
right,right,23.0,1.0,11.0,left,0.0,0.3830639999359846,,accuracy,space,4.205168999964371,,,,,,0.0,0.0,0.0,0.0,11.0,1.0,23.0,1.0,250.5232999,,,,,,,,,250.5035879999632,250.8617907000007,251.69036489992868,251.66877150000076,251.6696489999304,251.69036489992868,251.69036489992868,251.69036489992868,,252.1036247999873,,,,,,,,,,,,,,,,,,,,,,,,,,,,,,left,0.0,0.3830639999359846,,,,,sub-158,1,random_dot,59.90362705018264,
left,left,24.0,0.0,12.0,right,0.0,0.3074619000544771,,accuracy,space,4.205168999964371,,,,,,0.0,0.0,0.0,0.0,12.0,0.0,24.0,0.0,252.12440550001335,,,,,,,,,252.10447379993275,253.3418706000084,254.17590679996647,254.153848499991,254.1546261999756,254.17590679996647,254.17590679996647,254.17590679996647,,254.4875718000112,,,,,,,,,,,,,,,,,,,,,,,,,,,,,,right,0.0,0.3074619000544771,,,,,sub-158,1,random_dot,59.90362705018264,
right,right,25.0,1.0,12.0,right,1.0,0.2797563000349328,,accuracy,space,4.205168999964371,,,,,,0.0,0.0,0.0,0.0,12.0,1.0,25.0,1.0,254.50922889995852,,,,,,,,,254.48844360001385,254.8588323999429,255.69366509991232,255.67225780000445,255.6730123999296,255.69366509991232,255.69366509991232,255.69366509991232,,256.0055917999707,,,,,,,,,,,,,,,,,,,,,,,,,,,,,,right,1.0,0.2797563000349328,,,,,sub-158,1,random_dot,59.90362705018264,
left,left,26.0,0.0,13.0,left,1.0,0.2960167999844998,,accuracy,space,4.205168999964371,,,,,,0.0,0.0,0.0,0.0,13.0,0.0,26.0,0.0,256.0267229999881,,,,,,,,,256.0064546999056,256.39391839993186,257.2281381000066,257.206283699954,257.20715449994896,257.2281381000066,257.2281381000066,257.2281381000066,,257.5397392999148,,,,,,,,,,,,,,,,,,,,,,,,,,,,,,left,1.0,0.2960167999844998,,,,,sub-158,1,random_dot,59.90362705018264,
right,right,27.0,1.0,13.0,right,1.0,0.3019153999630362,,accuracy,space,4.205168999964371,,,,,,0.0,0.0,0.0,0.0,13.0,1.0,27.0,1.0,257.56080719991587,,,,,,,,,257.54058419994544,257.928352399962,258.7621712000109,258.74035460001323,258.741073400015,258.7621712000109,258.7621712000109,258.7621712000109,,259.07445069996174,,,,,,,,,,,,,,,,,,,,,,,,,,,,,,right,1.0,0.3019153999630362,,,,,sub-158,1,random_dot,59.90362705018264,
left,left,28.0,0.0,14.0,right,0.0,0.423088299925439,,accuracy,space,4.205168999964371,,,,,,0.0,0.0,0.0,0.0,14.0,0.0,28.0,0.0,259.0950499000028,,,,,,,,,259.0753301999066,260.2964772999985,261.13074749999214,261.1091923000058,261.10995029995684,261.13074749999214,261.13074749999214,261.13074749999214,,261.5771229999373,,,,,,,,,,,,,,,,,,,,,,,,,,,,,,right,0.0,0.423088299925439,,,,,sub-158,1,random_dot,59.90362705018264,
right,right,29.0,1.0,14.0,left,0.0,0.5016441000625491,,accuracy,space,4.205168999964371,,,,,,0.0,0.0,0.0,0.0,14.0,1.0,29.0,1.0,261.59734929993283,,,,,,,,,261.57810419995803,261.6977450000122,262.53150439995807,262.50976679997984,262.5104904999025,262.53150439995807,262.53150439995807,262.53150439995807,,263.0450032999506,,,,,,,,,,,,,,,,,,,,,,,,,,,,,,left,0.0,0.5016441000625491,,,,,sub-158,1,random_dot,59.90362705018264,
right,right,30.0,0.0,15.0,left,0.0,0.4761501000029966,,accuracy,space,4.205168999964371,,,,,,0.0,0.0,0.0,0.0,15.0,0.0,30.0,1.0,263.06484729994554,,,,,,,,,263.04590979998466,263.8509171999758,264.6667762999423,264.6536272999365,264.65401649998967,264.6667762999423,264.6667762999423,264.6667762999423,,265.1548533999594,,,,,,,,,,,,,,,,,,,,,,,,,,,,,,left,0.0,0.4761501000029966,,,,,sub-158,1,random_dot,59.90362705018264,
left,left,31.0,1.0,15.0,left,1.0,0.3257626000558957,,accuracy,space,4.205168999964371,,,,,,0.0,0.0,0.0,0.0,15.0,1.0,31.0,0.0,265.165491099935,,,,,,,,,265.1553103999468,266.38373939995654,267.2176716999384,267.1964603000088,267.1972111999057,267.2176716999384,267.2176716999384,267.2176716999384,,267.5618324999232,,,,,,,,,,,,,,,,,,,,,,,,,,,,,,left,1.0,0.3257626000558957,,,,,sub-158,1,random_dot,59.90362705018264,
left,left,32.0,0.0,16.0,right,0.0,0.2552366000600159,,accuracy,space,4.205168999964371,,,,,,0.0,0.0,0.0,0.0,16.0,0.0,32.0,0.0,267.5839895999525,,,,,,,,,267.562727099983,268.7855810999172,269.6196817000164,269.597090199939,269.5978054999141,269.6196817000164,269.6196817000164,269.6196817000164,,269.89757159992587,,,,,,,,,,,,,,,,,,,,,,,,,,,,,,right,0.0,0.2552366000600159,,,,,sub-158,1,random_dot,59.90362705018264,
right,right,33.0,1.0,16.0,left,0.0,0.2671742000384256,,accuracy,space,4.205168999964371,,,,,,0.0,0.0,0.0,0.0,16.0,1.0,33.0,1.0,269.9197127999505,,,,,,,,,269.8984238000121,271.13758330000564,271.93717879999895,271.9257845999673,271.9261757999193,271.93717879999895,271.93717879999895,271.93717879999895,,272.2090220999671,,,,,,,,,,,,,,,,,,,,,,,,,,,,,,left,0.0,0.2671742000384256,,,,,sub-158,1,random_dot,59.90362705018264,
right,right,34.0,0.0,17.0,right,1.0,0.6321362999733537,,accuracy,space,4.205168999964371,,,,,,0.0,0.0,0.0,0.0,17.0,0.0,34.0,1.0,272.22090349998325,,,,,,,,,272.2094306999352,273.42151859996375,274.2220135999378,274.2105575000169,274.210932899965,274.2220135999378,274.2220135999378,274.2220135999378,,274.86145039997064,,,,,,,,,,,,,,,,,,,,,,,,,,,,,,right,1.0,0.6321362999733537,,,,,sub-158,1,random_dot,59.90362705018264,
left,left,35.0,1.0,17.0,left,1.0,1.2899238999234512,,accuracy,space,4.205168999964371,,,,,,0.0,0.0,0.0,0.0,17.0,1.0,35.0,0.0,274.8726722999709,,,,,,,,,274.8618989000097,276.0736790999072,276.87459929997567,276.86430979997385,276.8647900999058,276.87459929997567,276.87459929997567,276.87459929997567,,278.1693576999241,,,,,,,,,,,,,,,,,,,,,,,,,,,,,,left,1.0,1.2899238999234512,,,,,sub-158,1,random_dot,59.90362705018264,
left,left,36.0,0.0,18.0,right,0.0,0.6074814000166953,,accuracy,space,4.205168999964371,,,,,,0.0,0.0,0.0,0.0,18.0,0.0,36.0,0.0,278.19205529999454,,,,,,,,,278.17018559994176,279.00949379999656,279.8269218999194,279.80531429999974,279.806076799985,279.8269218999194,279.8269218999194,279.8269218999194,,280.43938240001444,,,,,,,,,,,,,,,,,,,,,,,,,,,,,,right,0.0,0.6074814000166953,,,,,sub-158,1,random_dot,59.90362705018264,
right,right,37.0,1.0,18.0,left,0.0,4.7292616999475285,,accuracy,space,4.205168999964371,,,,,,0.0,0.0,0.0,0.0,18.0,1.0,37.0,1.0,280.4604691999266,,,,,,,,,280.44026770000346,281.6612046000082,282.4957485999912,282.4738872000016,282.4746506999945,282.4957485999912,282.4957485999912,282.4957485999912,,287.24360960000195,,,,,,,,,,,,,,,,,,,,,,,,,,,,,,left,0.0,4.7292616999475285,,,,,sub-158,1,random_dot,59.90362705018264,
left,left,38.0,0.0,19.0,left,1.0,1.93802100000903,,accuracy,space,4.205168999964371,,,,,,0.0,0.0,0.0,0.0,19.0,0.0,38.0,0.0,287.26518629991915,,,,,,,,,287.2444762999657,287.364516899921,288.18633719999343,288.1585657999385,288.159269799944,288.18633719999343,288.18633719999343,288.18633719999343,,290.1266558999196,,,,,,,,,,,,,,,,,,,,,,,,,,,,,,left,1.0,1.93802100000903,,,,,sub-158,1,random_dot,59.90362705018264,
right,right,39.0,1.0,19.0,right,1.0,1.4896634999895468,,accuracy,space,4.205168999964371,,,,,,0.0,0.0,0.0,0.0,19.0,1.0,39.0,1.0,290.15033949993085,,,,,,,,,290.127524200012,290.95110159995966,291.78527130000293,291.7632914999267,291.76407329994254,291.78527130000293,291.78527130000293,291.78527130000293,,293.2986334000016,,,,,,,,,,,,,,,,,,,,,,,,,,,,,,right,1.0,1.4896634999895468,,,,,sub-158,1,random_dot,59.90362705018264,
left,left,40.0,0.0,20.0,left,1.0,3.3308558999560773,,accuracy,space,4.205168999964371,,,,,,0.0,0.0,0.0,0.0,20.0,0.0,40.0,0.0,293.3192919999128,,,,,,,,,293.29961009998806,294.1367000999162,294.9539431999437,294.9323678999208,294.93309269996826,294.9539431999437,294.9539431999437,294.9539431999437,,298.2997708999319,,,,,,,,,,,,,,,,,,,,,,,,,,,,,,left,1.0,3.3308558999560773,,,,,sub-158,1,random_dot,59.90362705018264,
right,right,41.0,1.0,20.0,right,1.0,1.976751699927263,,accuracy,space,4.205168999964371,,,,,,0.0,0.0,0.0,0.0,20.0,1.0,41.0,1.0,298.3226433999371,,,,,,,,,298.3006257999223,299.5236760999542,300.35761449998245,300.33624889992643,300.33703719999176,300.35761449998245,300.35761449998245,300.35761449998245,,302.3365874999436,,,,,,,,,,,,,,,,,,,,,,,,,,,,,,right,1.0,1.976751699927263,,,,,sub-158,1,random_dot,59.90362705018264,
right,right,42.0,0.0,21.0,left,0.0,5.881274400046095,,accuracy,space,4.205168999964371,,,,,,0.0,0.0,0.0,0.0,21.0,0.0,42.0,1.0,302.3586236999836,,,,,,,,,302.3374526000116,302.7256343999179,303.5426868000068,303.5208926999476,303.52165579993743,303.5426868000068,303.5426868000068,303.5426868000068,308.5291269000154,309.4347421999555,,,,,,,,,,,,,,,,,,,,,,,,,,,,,,left,0.0,5.881274400046095,,,,,sub-158,1,random_dot,59.90362705018264,
left,left,43.0,1.0,21.0,left,1.0,5.763306399923749,,accuracy,space,4.205168999964371,,,,,,0.0,0.0,0.0,0.0,21.0,1.0,43.0,0.0,309.44579279993195,,,,,,,,,309.43518479994964,310.66412809991743,311.4810027999338,311.4642082999926,311.4653992999811,311.4810027999338,311.4810027999338,311.4810027999338,316.48796960001346,317.247321199975,,,,,,,,,,,,,,,,,,,,,,,,,,,,,,left,1.0,5.763306399923749,,,,,sub-158,1,random_dot,59.90362705018264,
right,right,44.0,0.0,22.0,right,1.0,3.4315575000364333,,accuracy,space,4.205168999964371,,,,,,0.0,0.0,0.0,0.0,22.0,0.0,44.0,1.0,317.26847339991946,,,,,,,,,317.2481741999509,318.4699840999674,319.3036093999399,319.28302550001536,319.2837942999322,319.3036093999399,319.3036093999399,319.3036093999399,,322.7513459000038,,,,,,,,,,,,,,,,,,,,,,,,,,,,,,right,1.0,3.4315575000364333,,,,,sub-158,1,random_dot,59.90362705018264,
left,left,45.0,1.0,22.0,left,1.0,3.400655600009486,,accuracy,space,4.205168999964371,,,,,,0.0,0.0,0.0,0.0,22.0,1.0,45.0,0.0,322.7724816999398,,,,,,,,,322.75221529998817,323.97386329993606,324.7737899000058,324.76203370001167,324.7624221999431,324.7737899000058,324.7737899000058,324.7737899000058,,328.2035973999882,,,,,,,,,,,,,,,,,,,,,,,,,,,,,,left,1.0,3.400655600009486,,,,,sub-158,1,random_dot,59.90362705018264,
right,right,46.0,0.0,23.0,right,1.0,5.16088400001172,,accuracy,space,4.205168999964371,,,,,,0.0,0.0,0.0,0.0,23.0,0.0,46.0,1.0,328.22622840001713,,,,,,,,,328.2044604999246,329.0270852999529,329.8439276999561,329.8232973999111,329.8240396999754,329.8439276999561,329.8439276999561,329.8439276999561,334.84766929992475,335.0262989999028,,,,,,,,,,,,,,,,,,,,,,,,,,,,,,right,1.0,5.16088400001172,,,,,sub-158,1,random_dot,59.90362705018264,
left,left,47.0,1.0,23.0,left,1.0,2.186290299985558,,accuracy,space,4.205168999964371,,,,,,0.0,0.0,0.0,0.0,23.0,1.0,47.0,0.0,335.04783910000697,,,,,,,,,335.0271664999891,335.414987099939,336.2491167999105,336.22754449991044,336.2282777999062,336.2491167999105,336.2491167999105,336.2491167999105,,338.4631232999964,,,,,,,,,,,,,,,,,,,,,,,,,,,,,,left,1.0,2.186290299985558,,,,,sub-158,1,random_dot,59.90362705018264,
left,left,48.0,0.0,24.0,left,1.0,5.520863899961114,,accuracy,space,4.205168999964371,,,,,,0.0,0.0,0.0,0.0,24.0,0.0,48.0,0.0,338.4835224999115,,,,,,,,,338.46401489991695,338.8505352999782,339.6844906999031,339.6630783999572,339.663818800007,339.6844906999031,339.6844906999031,339.6844906999031,344.6715569999069,345.2108693999471,,,,,,,,,,,,,,,,,,,,,,,,,,,,,,left,1.0,5.520863899961114,,,,,sub-158,1,random_dot,59.90362705018264,
right,right,49.0,1.0,24.0,right,1.0,2.5036507999757305,,accuracy,space,4.205168999964371,,,,,,0.0,0.0,0.0,0.0,24.0,1.0,49.0,1.0,345.2206448999932,,,,,,,,,345.21132180001587,346.4216916000005,347.2226690999232,347.2105430999072,347.2109393000137,347.2226690999232,347.2226690999232,347.2226690999232,,349.7369270999916,,,,,,,,,,,,,,,,,,,,,,,,,,,,,,right,1.0,2.5036507999757305,,,,,sub-158,1,random_dot,59.90362705018264,
right,right,50.0,0.0,25.0,right,1.0,2.2565953000448644,,accuracy,space,4.205168999964371,,,,,,0.0,0.0,0.0,0.0,25.0,0.0,50.0,1.0,349.7580696999794,,,,,,,,,349.7377507999772,350.5753914999077,351.40901439997833,351.38862410001457,351.3894609999843,351.40901439997833,351.40901439997833,351.40901439997833,,353.6899347999133,,,,,,,,,,,,,,,,,,,,,,,,,,,,,,right,1.0,2.2565953000448644,,,,,sub-158,1,random_dot,59.90362705018264,
left,left,51.0,1.0,25.0,left,1.0,2.5807716000126675,,accuracy,space,4.205168999964371,,,,,,0.0,0.0,0.0,0.0,25.0,1.0,51.0,0.0,353.7108714999631,,,,,,,,,353.69093939999584,354.0610702999402,354.89477589994203,354.87353189999703,354.87438099994324,354.89477589994203,354.89477589994203,354.89477589994203,,357.50769879994914,,,,,,,,,,,,,,,,,,,,,,,,,,,,,,left,1.0,2.5807716000126675,,,,,sub-158,1,random_dot,59.90362705018264,
left,left,52.0,0.0,26.0,left,1.0,4.251612399937585,,accuracy,space,4.205168999964371,,,,,,0.0,0.0,0.0,0.0,26.0,0.0,52.0,0.0,357.5297887999332,,,,,,,,,357.5085607999936,357.880367500009,358.71377819997724,358.692486200016,358.6932260999456,358.71377819997724,358.71377819997724,358.71377819997724,,362.9960168999387,,,,,,,,,,,,,,,,,,,,,,,,,,,,,,left,1.0,4.251612399937585,,,,,sub-158,1,random_dot,59.90362705018264,
right,right,53.0,1.0,26.0,right,1.0,2.731543199974112,,accuracy,space,4.205168999964371,,,,,,0.0,0.0,0.0,0.0,26.0,1.0,53.0,1.0,363.0172000000021,,,,,,,,,362.9969086999772,363.117230999982,363.9342678999528,363.9131464000093,363.9138862999389,363.9342678999528,363.9342678999528,363.9342678999528,,366.6813495999668,,,,,,,,,,,,,,,,,,,,,,,,,,,,,,right,1.0,2.731543199974112,,,,,sub-158,1,random_dot,59.90362705018264,
left,left,54.0,0.0,27.0,left,1.0,2.358139699907042,,accuracy,space,4.205168999964371,,,,,,0.0,0.0,0.0,0.0,27.0,0.0,54.0,0.0,366.7028481999878,,,,,,,,,366.682222399977,367.5037850999506,368.3375609999057,368.3161731999135,368.3169089999283,368.3375609999057,368.3375609999057,368.3375609999057,,370.7189549999312,,,,,,,,,,,,,,,,,,,,,,,,,,,,,,left,1.0,2.358139699907042,,,,,sub-158,1,random_dot,59.90362705018264,
right,right,55.0,1.0,27.0,right,1.0,2.775164999999106,,accuracy,space,4.205168999964371,,,,,,0.0,0.0,0.0,0.0,27.0,1.0,55.0,1.0,370.73926509998273,,,,,,,,,370.7199747000122,371.9567888999591,372.7902844999917,372.76833089999855,372.7690623999806,372.7902844999917,372.7902844999917,372.7902844999917,,375.571339200018,,,,,,,,,,,,,,,,,,,,,,,,,,,,,,right,1.0,2.775164999999106,,,,,sub-158,1,random_dot,59.90362705018264,
left,left,56.0,0.0,28.0,left,1.0,3.0987247999291867,,accuracy,space,4.205168999964371,,,,,,0.0,0.0,0.0,0.0,28.0,0.0,56.0,0.0,375.592426899937,,,,,,,,,375.5721911999863,376.3745800999459,377.1762509999098,377.16446439991705,377.164870699984,377.1762509999098,377.1762509999098,377.1762509999098,,380.284055099939,,,,,,,,,,,,,,,,,,,,,,,,,,,,,,left,1.0,3.0987247999291867,,,,,sub-158,1,random_dot,59.90362705018264,
right,right,57.0,1.0,28.0,right,1.0,1.1790733000962064,,accuracy,space,4.205168999964371,,,,,,0.0,0.0,0.0,0.0,28.0,1.0,57.0,1.0,380.2949296999723,,,,,,,,,380.2846872999799,381.496407300001,382.2962827999145,382.2845740999328,382.2849571999395,382.2962827999145,382.2962827999145,382.2962827999145,,383.4916296999436,,,,,,,,,,,,,,,,,,,,,,,,,,,,,,right,1.0,1.1790733000962064,,,,,sub-158,1,random_dot,59.90362705018264,
left,left,58.0,0.0,29.0,left,1.0,1.710054500028491,,accuracy,space,4.205168999964371,,,,,,0.0,0.0,0.0,0.0,29.0,0.0,58.0,0.0,383.51447069994174,,,,,,,,,383.49248069990426,383.8810999999987,384.7153584999032,384.6939079000149,384.6946487999521,384.7153584999032,384.7153584999032,384.7153584999032,,386.4293943999801,,,,,,,,,,,,,,,,,,,,,,,,,,,,,,left,1.0,1.710054500028491,,,,,sub-158,1,random_dot,59.90362705018264,
right,right,59.0,1.0,29.0,right,1.0,1.7214962999569252,,accuracy,space,4.205168999964371,,,,,,0.0,0.0,0.0,0.0,29.0,1.0,59.0,1.0,386.44984289992135,,,,,,,,,386.4303840999492,387.2503206999973,388.0841326999944,388.0629637999227,388.06375550001394,388.0841326999944,388.0841326999944,388.0841326999944,,389.8316111000022,,,,,,,,,,,,,,,,,,,,,,,,,,,,,,right,1.0,1.7214962999569252,,,,,sub-158,1,random_dot,59.90362705018264,
,,0.0,0.0,0.0,,,,,accuracy,space,4.205168999964371,,,,,,0.0,0.0,0.0,0.0,,,,,,,,,,,,,,,,,,,,,,,,,,,,,,,,,,,,,,,,,,,,,,,,,,,,,,,,,,,,sub-158,1,random_dot,59.90362705018264,
left,left,0.0,0.0,0.0,left,1.0,1.7425500999670476,,speed,space,4.570946199935861,,,,,,0.0,1.0,1.0,1.0,0.0,0.0,0.0,0.0,394.5047159999376,,,,,,,,,394.4848150999751,394.85525709996,395.6727113999659,395.6522511999356,395.6530352999689,395.6727113999659,395.6727113999659,395.6727113999659,,397.4191098000156,,,,,,,,,,,,,,,,,,,,,,,389.8743967999472,389.8850542999571,389.8850542999571,394.4659887999296,space,4.570946199935861,,left,1.0,1.7425500999670476,,,,,sub-158,1,random_dot,59.90362705018264,
right,right,1.0,1.0,0.0,right,1.0,1.3339049000060186,,speed,space,4.570946199935861,,,,,,0.0,1.0,1.0,1.0,0.0,1.0,1.0,1.0,397.4415102999192,,,,,,,,,397.4199718999444,397.807786499965,398.641709699994,398.6193154999055,398.62006849993486,398.641709699994,398.641709699994,398.641709699994,,399.9884195999475,,,,,,,,,,,,,,,,,,,,,,,,,,,,,,right,1.0,1.3339049000060186,,,,,sub-158,1,random_dot,59.90362705018264,
left,left,2.0,0.0,1.0,left,1.0,1.3524840999161825,,speed,space,4.570946199935861,,,,,,0.0,1.0,1.0,1.0,1.0,0.0,2.0,0.0,400.0093746999046,,,,,,,,,399.9893360999413,400.3596888999455,401.19345749996137,401.1719689000165,401.17271179996897,401.19345749996137,401.19345749996137,401.19345749996137,,402.5738708999706,,,,,,,,,,,,,,,,,,,,,,,,,,,,,,left,1.0,1.3524840999161825,,,,,sub-158,1,random_dot,59.90362705018264,
right,right,3.0,1.0,1.0,right,1.0,0.817945700022392,,speed,space,4.570946199935861,,,,,,0.0,1.0,1.0,1.0,1.0,1.0,3.0,1.0,402.59392139990814,,,,,,,,,402.5747413999634,403.39512989996,404.22864429990295,404.2071150999982,404.2078410999384,404.22864429990295,404.22864429990295,404.22864429990295,,405.0745930999983,,,,,,,,,,,,,,,,,,,,,,,,,,,,,,right,1.0,0.817945700022392,,,,,sub-158,1,random_dot,59.90362705018264,
right,right,4.0,0.0,2.0,left,0.0,1.5580792999826372,,speed,space,4.570946199935861,,,,,,0.0,1.0,1.0,1.0,2.0,0.0,4.0,1.0,405.0959856999106,,,,,,,,,405.0754489999963,405.9132477999665,406.7288434999064,406.7104413999477,406.7112173999194,406.7288434999064,406.7288434999064,406.7288434999064,,408.31142539996654,,,,,,,,,,,,,,,,,,,,,,,,,,,,,,left,0.0,1.5580792999826372,,,,,sub-158,1,random_dot,59.90362705018264,
left,left,5.0,1.0,2.0,left,1.0,1.9134246000321584,,speed,space,4.570946199935861,,,,,,0.0,1.0,1.0,1.0,2.0,1.0,5.0,0.0,408.3317610999802,,,,,,,,,408.312387199956,408.6986420999747,409.5323975000065,409.5107596999733,409.5115229999647,409.5323975000065,409.5323975000065,409.5323975000065,,411.4535940999631,,,,,,,,,,,,,,,,,,,,,,,,,,,,,,left,1.0,1.9134246000321584,,,,,sub-158,1,random_dot,59.90362705018264,
left,left,6.0,0.0,3.0,right,0.0,5.498820099979639,,speed,space,4.570946199935861,,,,,,0.0,1.0,1.0,1.0,3.0,0.0,6.0,0.0,411.4654821999138,,,,,,,,,411.4539233999094,411.5665214000037,412.3671778999269,412.3557605999522,412.3561586999567,412.3671778999269,412.3671778999269,412.3671778999269,417.3705813999986,417.8763403999619,,,,,,,,,,,,,,,,,,,,,,,,,,,,,,right,0.0,5.498820099979639,,,,,sub-158,1,random_dot,59.90362705018264,
right,right,7.0,1.0,3.0,right,1.0,1.4767648000270128,,speed,space,4.570946199935861,,,,,,0.0,1.0,1.0,1.0,3.0,1.0,7.0,1.0,417.8873893999262,,,,,,,,,417.87678639998194,418.7054584999569,419.5395016999682,419.5182619999396,419.5192970999051,419.5395016999682,419.5395016999682,419.5395016999682,,421.0190765999723,,,,,,,,,,,,,,,,,,,,,,,,,,,,,,right,1.0,1.4767648000270128,,,,,sub-158,1,random_dot,59.90362705018264,
left,left,8.0,0.0,4.0,right,0.0,4.19145269994624,,speed,space,4.570946199935861,,,,,,0.0,1.0,1.0,1.0,4.0,0.0,8.0,0.0,421.0402747999178,,,,,,,,,421.01992130000144,422.2409434999572,423.0753014999209,423.05362759996206,423.0544711999828,423.0753014999209,423.0753014999209,423.0753014999209,,427.2901537999278,,,,,,,,,,,,,,,,,,,,,,,,,,,,,,right,0.0,4.19145269994624,,,,,sub-158,1,random_dot,59.90362705018264,
right,right,9.0,1.0,4.0,right,1.0,1.4100947000551969,,speed,space,4.570946199935861,,,,,,0.0,1.0,1.0,1.0,4.0,1.0,9.0,1.0,427.3113521999912,,,,,,,,,427.2911827999633,428.5121735999128,429.3461443999549,429.3246264999034,429.3254682999104,429.3461443999549,429.3461443999549,429.3461443999549,,430.7575482999673,,,,,,,,,,,,,,,,,,,,,,,,,,,,,,right,1.0,1.4100947000551969,,,,,sub-158,1,random_dot,59.90362705018264,
left,left,10.0,0.0,5.0,left,1.0,2.3054976999992505,,speed,space,4.570946199935861,,,,,,0.0,1.0,1.0,1.0,5.0,0.0,10.0,0.0,430.78020559996367,,,,,,,,,430.7583672999172,431.14743109990377,431.9813072999241,431.95962969993707,431.9603982999688,431.9813072999241,431.9813072999241,431.9813072999241,,434.3123506999109,,,,,,,,,,,,,,,,,,,,,,,,,,,,,,left,1.0,2.3054976999992505,,,,,sub-158,1,random_dot,59.90362705018264,
right,right,11.0,1.0,5.0,right,1.0,1.1717927999561653,,speed,space,4.570946199935861,,,,,,0.0,1.0,1.0,1.0,5.0,1.0,11.0,1.0,434.33268699992914,,,,,,,,,434.3133033999475,435.55037750001065,436.3846028000116,436.3633385999128,436.3641011000145,436.3846028000116,436.3846028000116,436.3846028000116,,437.564257799997,,,,,,,,,,,,,,,,,,,,,,,,,,,,,,right,1.0,1.1717927999561653,,,,,sub-158,1,random_dot,59.90362705018264,
left,left,12.0,0.0,6.0,left,1.0,1.7939940999494866,,speed,space,4.570946199935861,,,,,,0.0,1.0,1.0,1.0,6.0,0.0,12.0,0.0,437.5850183999864,,,,,,,,,437.56507499993313,437.685094299959,438.5025668999879,438.4809287999524,438.4817013000138,438.5025668999879,438.5025668999879,438.5025668999879,,440.3156740999548,,,,,,,,,,,,,,,,,,,,,,,,,,,,,,left,1.0,1.7939940999494866,,,,,sub-158,1,random_dot,59.90362705018264,
right,right,13.0,1.0,6.0,right,1.0,3.635696700075641,,speed,space,4.570946199935861,,,,,,0.0,1.0,1.0,1.0,6.0,1.0,13.0,1.0,440.3367652000161,,,,,,,,,440.316536600003,441.5548220999772,442.3708891000133,442.3496753999498,442.3504334000172,442.3708891000133,442.3708891000133,442.3708891000133,,446.0362886999501,,,,,,,,,,,,,,,,,,,,,,,,,,,,,,right,1.0,3.635696700075641,,,,,sub-158,1,random_dot,59.90362705018264,
left,left,14.0,0.0,7.0,left,1.0,1.785033000051044,,speed,space,4.570946199935861,,,,,,0.0,1.0,1.0,1.0,7.0,0.0,14.0,0.0,446.0568984999554,,,,,,,,,446.0371408999199,446.3898741999874,447.1910807999084,447.1794030999299,447.17980009992607,447.1910807999084,447.1910807999084,447.1910807999084,,448.9828036999097,,,,,,,,,,,,,,,,,,,,,,,,,,,,,,left,1.0,1.785033000051044,,,,,sub-158,1,random_dot,59.90362705018264,
right,right,15.0,1.0,7.0,right,1.0,1.3234083000570536,,speed,space,4.570946199935861,,,,,,0.0,1.0,1.0,1.0,7.0,1.0,15.0,1.0,448.99144819995854,,,,,,,,,448.98351149994414,449.09221789997537,449.8925721999258,449.88145039998926,449.88183719990775,449.8925721999258,449.8925721999258,449.8925721999258,,451.2323754999088,,,,,,,,,,,,,,,,,,,,,,,,,,,,,,right,1.0,1.3234083000570536,,,,,sub-158,1,random_dot,59.90362705018264,
right,right,16.0,0.0,8.0,left,0.0,1.1343954999465495,,speed,space,4.570946199935861,,,,,,0.0,1.0,1.0,1.0,8.0,0.0,16.0,1.0,451.24381419993006,,,,,,,,,451.2328269999707,452.4455991999712,453.2621891999152,453.2410777999321,453.2418404999189,453.2621891999152,453.2621891999152,453.2621891999152,,454.4073630999774,,,,,,,,,,,,,,,,,,,,,,,,,,,,,,left,0.0,1.1343954999465495,,,,,sub-158,1,random_dot,59.90362705018264,
left,left,17.0,1.0,8.0,left,1.0,2.145445500034839,,speed,space,4.570946199935861,,,,,,0.0,1.0,1.0,1.0,8.0,1.0,17.0,0.0,454.4295946999919,,,,,,,,,454.40822029998526,454.5466190999141,455.38091299997177,455.3592463999521,455.3600623999955,455.38091299997177,455.38091299997177,455.38091299997177,,457.5596810999559,,,,,,,,,,,,,,,,,,,,,,,,,,,,,,left,1.0,2.145445500034839,,,,,sub-158,1,random_dot,59.90362705018264,
left,left,18.0,0.0,9.0,right,0.0,3.3200266000349075,,speed,space,4.570946199935861,,,,,,0.0,1.0,1.0,1.0,9.0,0.0,18.0,0.0,457.5820688999957,,,,,,,,,457.5605216999538,457.9324050999712,458.7661133999936,458.7455195999937,458.7462742999196,458.7661133999936,458.7661133999936,458.7661133999936,,462.1140738999238,,,,,,,,,,,,,,,,,,,,,,,,,,,,,,right,0.0,3.3200266000349075,,,,,sub-158,1,random_dot,59.90362705018264,
right,right,19.0,1.0,9.0,right,1.0,4.260537400026806,,speed,space,4.570946199935861,,,,,,0.0,1.0,1.0,1.0,9.0,1.0,19.0,1.0,462.135369699914,,,,,,,,,462.1149144999217,462.23747209995054,463.0860616000136,463.06540119997226,463.0662846999476,463.0860616000136,463.0860616000136,463.0860616000136,,467.3672803000081,,,,,,,,,,,,,,,,,,,,,,,,,,,,,,right,1.0,4.260537400026806,,,,,sub-158,1,random_dot,59.90362705018264,
left,left,20.0,0.0,10.0,left,1.0,2.1945729999570176,,speed,space,4.570946199935861,,,,,,0.0,1.0,1.0,1.0,10.0,0.0,20.0,0.0,467.38909989991225,,,,,,,,,467.3681260999292,468.1897958999034,469.0233259999659,469.0011396999471,469.0018631999847,469.0233259999659,469.0233259999659,469.0233259999659,,471.2374322999967,,,,,,,,,,,,,,,,,,,,,,,,,,,,,,left,1.0,2.1945729999570176,,,,,sub-158,1,random_dot,59.90362705018264,
right,right,21.0,1.0,10.0,right,1.0,1.205379799939692,,speed,space,4.570946199935861,,,,,,0.0,1.0,1.0,1.0,10.0,1.0,21.0,1.0,471.25814119994175,,,,,,,,,471.2385274999542,471.6083839999046,472.4418774999213,472.420904199942,472.4216733999783,472.4418774999213,472.4418774999213,472.4418774999213,,473.653883199906,,,,,,,,,,,,,,,,,,,,,,,,,,,,,,right,1.0,1.205379799939692,,,,,sub-158,1,random_dot,59.90362705018264,
right,right,22.0,0.0,11.0,right,1.0,3.986615000059828,,speed,space,4.570946199935861,,,,,,0.0,1.0,1.0,1.0,11.0,0.0,22.0,1.0,473.6758762999671,,,,,,,,,473.6547006999608,473.7932509999955,474.61098799994215,474.5891792000039,474.590019299998,474.61098799994215,474.61098799994215,474.61098799994215,,478.6076285999734,,,,,,,,,,,,,,,,,,,,,,,,,,,,,,right,1.0,3.986615000059828,,,,,sub-158,1,random_dot,59.90362705018264,
left,left,23.0,1.0,11.0,left,1.0,4.503533000010066,,speed,space,4.570946199935861,,,,,,0.0,1.0,1.0,1.0,11.0,1.0,23.0,0.0,478.6295723000076,,,,,,,,,478.608529399964,478.9968383999076,479.8137313999469,479.7929291999899,479.7936965000117,479.8137313999469,479.8137313999469,479.8137313999469,,484.3224452999421,,,,,,,,,,,,,,,,,,,,,,,,,,,,,,left,1.0,4.503533000010066,,,,,sub-158,1,random_dot,59.90362705018264,
left,left,24.0,0.0,12.0,right,0.0,3.81629280000925,,speed,space,4.570946199935861,,,,,,0.0,1.0,1.0,1.0,12.0,0.0,24.0,0.0,484.33316409995314,,,,,,,,,484.32288839994,484.683273499948,485.501055700006,485.4785300999647,485.4792518999893,485.501055700006,485.501055700006,485.501055700006,,489.3311941999709,,,,,,,,,,,,,,,,,,,,,,,,,,,,,,right,0.0,3.81629280000925,,,,,sub-158,1,random_dot,59.90362705018264,
right,right,25.0,1.0,12.0,right,1.0,1.073075099964626,,speed,space,4.570946199935861,,,,,,0.0,1.0,1.0,1.0,12.0,1.0,25.0,1.0,489.353478099918,,,,,,,,,489.332046699943,489.47034389991313,490.30439710000064,490.2830084000016,490.2838074999163,490.30439710000064,490.30439710000064,490.30439710000064,,491.3845088999951,,,,,,,,,,,,,,,,,,,,,,,,,,,,,,right,1.0,1.073075099964626,,,,,sub-158,1,random_dot,59.90362705018264,
right,right,26.0,0.0,13.0,left,0.0,4.010665799956769,,speed,space,4.570946199935861,,,,,,0.0,1.0,1.0,1.0,13.0,0.0,26.0,1.0,491.4053299999796,,,,,,,,,491.3853470999748,492.2220789999701,493.0566880999832,493.0351658000145,493.0360362000065,493.0566880999832,493.0566880999832,493.0566880999832,,497.07180499995593,,,,,,,,,,,,,,,,,,,,,,,,,,,,,,left,0.0,4.010665799956769,,,,,sub-158,1,random_dot,59.90362705018264,
left,left,27.0,1.0,13.0,left,1.0,5.8207398999948055,,speed,space,4.570946199935861,,,,,,0.0,1.0,1.0,1.0,13.0,1.0,27.0,0.0,497.0940433999058,,,,,,,,,497.0726606999524,498.293506899965,499.1269062999636,499.1058714999817,499.1066445999313,499.1269062999636,499.1269062999636,499.1269062999636,504.11676919995807,504.95625930000097,,,,,,,,,,,,,,,,,,,,,,,,,,,,,,left,1.0,5.8207398999948055,,,,,sub-158,1,random_dot,59.90362705018264,
left,left,28.0,0.0,14.0,right,0.0,4.545955899986439,,speed,space,4.570946199935861,,,,,,0.0,1.0,1.0,1.0,14.0,0.0,28.0,0.0,504.9647708999692,,,,,,,,,504.9568722000113,505.0648426999105,505.88129309995566,505.8587052999064,505.85951350000687,505.88129309995566,505.88129309995566,505.88129309995566,,510.4299291999778,,,,,,,,,,,,,,,,,,,,,,,,,,,,,,right,0.0,4.545955899986439,,,,,sub-158,1,random_dot,59.90362705018264,
right,right,29.0,1.0,14.0,right,1.0,1.560577300027944,,speed,space,4.570946199935861,,,,,,0.0,1.0,1.0,1.0,14.0,1.0,29.0,1.0,510.4517508000136,,,,,,,,,510.4307698999765,511.2691744000185,512.0866974999662,512.0648038999643,512.065669799922,512.0866974999662,512.0866974999662,512.0866974999662,,513.6486623999663,,,,,,,,,,,,,,,,,,,,,,,,,,,,,,right,1.0,1.560577300027944,,,,,sub-158,1,random_dot,59.90362705018264,
right,right,30.0,0.0,15.0,right,1.0,3.5832227000501007,,speed,space,4.570946199935861,,,,,,0.0,1.0,1.0,1.0,15.0,0.0,30.0,1.0,513.670741799986,,,,,,,,,513.6495026999619,513.7706661999691,514.6037206000183,514.5834344999166,514.5841980999103,514.6037206000183,514.6037206000183,514.6037206000183,,518.1950827999972,,,,,,,,,,,,,,,,,,,,,,,,,,,,,,right,1.0,3.5832227000501007,,,,,sub-158,1,random_dot,59.90362705018264,
left,left,31.0,1.0,15.0,left,1.0,0.840316699934192,,speed,space,4.570946199935861,,,,,,0.0,1.0,1.0,1.0,15.0,1.0,31.0,0.0,518.2063874999294,,,,,,,,,518.1955278000096,519.00678289996,519.8076932999538,519.7962325999979,519.7966139999917,519.8076932999538,519.8076932999538,519.8076932999538,,520.654816999915,,,,,,,,,,,,,,,,,,,,,,,,,,,,,,left,1.0,0.840316699934192,,,,,sub-158,1,random_dot,59.90362705018264,
left,left,32.0,0.0,16.0,left,1.0,0.7283336999826133,,speed,space,4.570946199935861,,,,,,0.0,1.0,1.0,1.0,16.0,0.0,32.0,0.0,520.675656999927,,,,,,,,,520.6557759999996,521.0084121999098,521.8086312999949,521.797439499991,521.7978169999551,521.8086312999949,521.8086312999949,521.8086312999949,,522.5482605999568,,,,,,,,,,,,,,,,,,,,,,,,,,,,,,left,1.0,0.7283336999826133,,,,,sub-158,1,random_dot,59.90362705018264,
right,right,33.0,1.0,16.0,right,1.0,2.9125014999881387,,speed,space,4.570946199935861,,,,,,0.0,1.0,1.0,1.0,16.0,1.0,33.0,1.0,522.5592896000016,,,,,,,,,522.5487101000035,523.7606244999915,524.5948841999052,524.5716218999587,524.572424700018,524.5948841999052,524.5948841999052,524.5948841999052,,527.5093864999944,,,,,,,,,,,,,,,,,,,,,,,,,,,,,,right,1.0,2.9125014999881387,,,,,sub-158,1,random_dot,59.90362705018264,
right,right,34.0,0.0,17.0,right,1.0,3.803385699982755,,speed,space,4.570946199935861,,,,,,0.0,1.0,1.0,1.0,17.0,0.0,34.0,1.0,527.5295995000051,,,,,,,,,527.5102149000159,527.6302953999257,528.463879799936,528.4427114999853,528.4434661999112,528.463879799936,528.463879799936,528.463879799936,,532.2766579999588,,,,,,,,,,,,,,,,,,,,,,,,,,,,,,right,1.0,3.803385699982755,,,,,sub-158,1,random_dot,59.90362705018264,
left,left,35.0,1.0,17.0,right,0.0,2.652475000009872,,speed,space,4.570946199935861,,,,,,0.0,1.0,1.0,1.0,17.0,1.0,35.0,0.0,532.2995082999114,,,,,,,,,532.2775110999355,533.5023583999136,534.3348522000015,534.3115956999827,534.3123161999974,534.3348522000015,534.3348522000015,534.3348522000015,,537.0152118999977,,,,,,,,,,,,,,,,,,,,,,,,,,,,,,right,0.0,2.652475000009872,,,,,sub-158,1,random_dot,59.90362705018264,
left,left,36.0,0.0,18.0,left,1.0,5.751173999975435,,speed,space,4.570946199935861,,,,,,0.0,1.0,1.0,1.0,18.0,0.0,36.0,0.0,537.0358838000102,,,,,,,,,537.0160760999424,537.4038593999576,538.2372276999522,538.2169955999125,538.2177340999478,538.2372276999522,538.2372276999522,538.2372276999522,543.2575300999451,544.004832000006,,,,,,,,,,,,,,,,,,,,,,,,,,,,,,left,1.0,5.751173999975435,,,,,sub-158,1,random_dot,59.90362705018264,
right,right,37.0,1.0,18.0,right,1.0,1.679215500014834,,speed,space,4.570946199935861,,,,,,0.0,1.0,1.0,1.0,18.0,1.0,37.0,1.0,544.0248769000173,,,,,,,,,544.0057123999577,545.2254736999748,546.0594251999864,546.0392769000027,546.0401399999391,546.0594251999864,546.0594251999864,546.0594251999864,,547.7577270999318,,,,,,,,,,,,,,,,,,,,,,,,,,,,,,right,1.0,1.679215500014834,,,,,sub-158,1,random_dot,59.90362705018264,
right,right,38.0,0.0,19.0,left,0.0,2.377684299950488,,speed,space,4.570946199935861,,,,,,0.0,1.0,1.0,1.0,19.0,0.0,38.0,1.0,547.7774565999862,,,,,,,,,547.7587029999122,547.8778504999354,548.710976399947,548.6898606999312,548.6926756999455,548.710976399947,548.710976399947,548.710976399947,,551.1079332999652,,,,,,,,,,,,,,,,,,,,,,,,,,,,,,left,0.0,2.377684299950488,,,,,sub-158,1,random_dot,59.90362705018264,
left,left,39.0,1.0,19.0,left,1.0,4.04405340005178,,speed,space,4.570946199935861,,,,,,0.0,1.0,1.0,1.0,19.0,1.0,39.0,0.0,551.1298587999772,,,,,,,,,551.1087702999357,552.3128552999115,553.1137972999131,553.1022694999119,553.1026461999863,553.1137972999131,553.1137972999131,553.1137972999131,,557.1718165999046,,,,,,,,,,,,,,,,,,,,,,,,,,,,,,left,1.0,4.04405340005178,,,,,sub-158,1,random_dot,59.90362705018264,
left,left,40.0,0.0,20.0,left,1.0,4.201524099917151,,speed,space,4.570946199935861,,,,,,0.0,1.0,1.0,1.0,20.0,0.0,40.0,0.0,557.182825799915,,,,,,,,,557.1722632999299,557.28316240001,558.1175948999589,558.0943839999381,558.095103599946,558.1175948999589,558.1175948999589,558.1175948999589,,562.333110800013,,,,,,,,,,,,,,,,,,,,,,,,,,,,,,left,1.0,4.201524099917151,,,,,sub-158,1,random_dot,59.90362705018264,
right,right,41.0,1.0,20.0,right,1.0,1.663502800045535,,speed,space,4.570946199935861,,,,,,0.0,1.0,1.0,1.0,20.0,1.0,41.0,1.0,562.3540850999998,,,,,,,,,562.3339656000026,563.5715562999249,564.4053320999956,564.3843285000185,564.3850868999725,564.4053320999956,564.4053320999956,564.4053320999956,,566.0854052999057,,,,,,,,,,,,,,,,,,,,,,,,,,,,,,right,1.0,1.663502800045535,,,,,sub-158,1,random_dot,59.90362705018264,
right,right,42.0,0.0,21.0,left,0.0,1.1836470999987796,,speed,space,4.570946199935861,,,,,,0.0,1.0,1.0,1.0,21.0,0.0,42.0,1.0,566.106708599953,,,,,,,,,566.0863507000031,566.9073344999924,567.724733299925,567.7024003999541,567.7031343999552,567.724733299925,567.724733299925,567.724733299925,,568.937097899965,,,,,,,,,,,,,,,,,,,,,,,,,,,,,,left,0.0,1.1836470999987796,,,,,sub-158,1,random_dot,59.90362705018264,
left,left,43.0,1.0,21.0,left,1.0,1.7745777000673115,,speed,space,4.570946199935861,,,,,,0.0,1.0,1.0,1.0,21.0,1.0,43.0,0.0,568.9582679999294,,,,,,,,,568.9379676999524,570.1594477999024,570.9936362999724,570.9728094999446,570.973644200014,570.9936362999724,570.9936362999724,570.9936362999724,,572.7726096999831,,,,,,,,,,,,,,,,,,,,,,,,,,,,,,left,1.0,1.7745777000673115,,,,,sub-158,1,random_dot,59.90362705018264,
right,right,44.0,0.0,22.0,right,1.0,1.148782000062056,,speed,space,4.570946199935861,,,,,,0.0,1.0,1.0,1.0,22.0,0.0,44.0,1.0,572.7942628000164,,,,,,,,,572.7734614999499,573.9954400999704,574.8296761999372,574.8078677000012,574.8086032000137,574.8296761999372,574.8296761999372,574.8296761999372,,576.0094610999804,,,,,,,,,,,,,,,,,,,,,,,,,,,,,,right,1.0,1.148782000062056,,,,,sub-158,1,random_dot,59.90362705018264,
left,left,45.0,1.0,22.0,left,1.0,1.794043599977158,,speed,space,4.570946199935861,,,,,,0.0,1.0,1.0,1.0,22.0,1.0,45.0,0.0,576.0301962000085,,,,,,,,,576.0103893999476,577.2309335999889,578.0645131999627,578.0438219999196,578.0445648999885,578.0645131999627,578.0645131999627,578.0645131999627,,579.8780415999936,,,,,,,,,,,,,,,,,,,,,,,,,,,,,,left,1.0,1.794043599977158,,,,,sub-158,1,random_dot,59.90362705018264,
right,right,46.0,0.0,23.0,right,1.0,1.3283192999660969,,speed,space,4.570946199935861,,,,,,0.0,1.0,1.0,1.0,23.0,0.0,46.0,1.0,579.8996499999193,,,,,,,,,579.878882399993,580.0020923999837,580.849912900012,580.8277987999609,580.8286150000058,580.849912900012,580.849912900012,580.849912900012,,582.2113338999916,,,,,,,,,,,,,,,,,,,,,,,,,,,,,,right,1.0,1.3283192999660969,,,,,sub-158,1,random_dot,59.90362705018264,
left,left,47.0,1.0,23.0,left,1.0,0.8568905999418348,,speed,space,4.570946199935861,,,,,,0.0,1.0,1.0,1.0,23.0,1.0,47.0,0.0,582.2344078000169,,,,,,,,,582.2123375999508,582.5669538999209,583.4019445999293,583.3796782999998,583.3805494999979,583.4019445999293,583.4019445999293,583.4019445999293,,584.2822181999218,,,,,,,,,,,,,,,,,,,,,,,,,,,,,,left,1.0,0.8568905999418348,,,,,sub-158,1,random_dot,59.90362705018264,
right,right,48.0,0.0,24.0,right,1.0,1.2479771000798792,,speed,space,4.570946199935861,,,,,,0.0,1.0,1.0,1.0,24.0,0.0,48.0,1.0,584.3026114999084,,,,,,,,,584.2832399000181,584.4024496999336,585.2197835999541,585.1975255999714,585.1982405999443,585.2197835999541,585.2197835999541,585.2197835999541,,586.4741717999568,,,,,,,,,,,,,,,,,,,,,,,,,,,,,,right,1.0,1.2479771000798792,,,,,sub-158,1,random_dot,59.90362705018264,
left,left,49.0,1.0,24.0,right,0.0,5.020755099947564,,speed,space,4.570946199935861,,,,,,0.0,1.0,1.0,1.0,24.0,1.0,49.0,0.0,586.4860591000179,,,,,,,,,586.4745076999534,586.5860352999298,587.3875767999562,587.3759908999782,587.3763799999142,587.3875767999562,587.3875767999562,587.3875767999562,592.3906067999778,592.4162741999608,,,,,,,,,,,,,,,,,,,,,,,,,,,,,,right,0.0,5.020755099947564,,,,,sub-158,1,random_dot,59.90362705018264,
left,left,50.0,0.0,25.0,left,1.0,3.215913200052455,,speed,space,4.570946199935861,,,,,,0.0,1.0,1.0,1.0,25.0,0.0,50.0,0.0,592.424848799943,,,,,,,,,592.4168542999541,592.7739282000111,593.5922666999977,593.5704707999248,593.5712521999376,593.5922666999977,593.5922666999977,593.5922666999977,,596.8394501999719,,,,,,,,,,,,,,,,,,,,,,,,,,,,,,left,1.0,3.215913200052455,,,,,sub-158,1,random_dot,59.90362705018264,
right,right,51.0,1.0,25.0,right,1.0,1.382689099991694,,speed,space,4.570946199935861,,,,,,0.0,1.0,1.0,1.0,25.0,1.0,51.0,1.0,596.8611517999088,,,,,,,,,596.8402879999485,597.6782507000025,598.495484199957,598.4736516999546,598.4743961999193,598.495484199957,598.495484199957,598.495484199957,,599.9078707000008,,,,,,,,,,,,,,,,,,,,,,,,,,,,,,right,1.0,1.382689099991694,,,,,sub-158,1,random_dot,59.90362705018264,
left,left,52.0,0.0,26.0,left,1.0,3.1138289000373334,,speed,space,4.570946199935861,,,,,,0.0,1.0,1.0,1.0,26.0,0.0,52.0,0.0,599.9298568000086,,,,,,,,,599.908734699944,600.0301643999992,600.8638646999607,600.8430135999806,600.8438920999179,600.8638646999607,600.8638646999607,600.8638646999607,,603.987830099999,,,,,,,,,,,,,,,,,,,,,,,,,,,,,,left,1.0,3.1138289000373334,,,,,sub-158,1,random_dot,59.90362705018264,
right,right,53.0,1.0,26.0,left,0.0,1.6576757000293585,,speed,space,4.570946199935861,,,,,,0.0,1.0,1.0,1.0,26.0,1.0,53.0,1.0,603.9984733000165,,,,,,,,,603.9883524000179,605.216919099912,606.0506100999191,606.0306132999249,606.0315730000148,606.0506100999191,606.0506100999191,606.0506100999191,,607.7308018999174,,,,,,,,,,,,,,,,,,,,,,,,,,,,,,left,0.0,1.6576757000293585,,,,,sub-158,1,random_dot,59.90362705018264,
right,right,54.0,0.0,27.0,left,0.0,2.500492800027132,,speed,space,4.570946199935861,,,,,,0.0,1.0,1.0,1.0,27.0,0.0,54.0,1.0,607.7520946000004,,,,,,,,,607.7318030999741,607.8520771999611,608.6687533999793,608.6479256999446,608.648701799917,608.6687533999793,608.6687533999793,608.6687533999793,,611.1763878999045,,,,,,,,,,,,,,,,,,,,,,,,,,,,,,left,0.0,2.500492800027132,,,,,sub-158,1,random_dot,59.90362705018264,
left,left,55.0,1.0,27.0,left,1.0,3.235157600021921,,speed,space,4.570946199935861,,,,,,0.0,1.0,1.0,1.0,27.0,1.0,55.0,0.0,611.1864736999851,,,,,,,,,611.1768425999908,611.5376342999516,612.3546223000158,612.3344387999969,612.3351908000186,612.3546223000158,612.3546223000158,612.3546223000158,,615.6039853999391,,,,,,,,,,,,,,,,,,,,,,,,,,,,,,left,1.0,3.235157600021921,,,,,sub-158,1,random_dot,59.90362705018264,
right,right,56.0,0.0,28.0,right,1.0,0.8608753000153229,,speed,space,4.570946199935861,,,,,,0.0,1.0,1.0,1.0,28.0,0.0,56.0,1.0,615.6232842999743,,,,,,,,,615.604836500017,616.8076849000063,617.6085568999406,617.5981496999739,617.5986094999826,617.6085568999406,617.6085568999406,617.6085568999406,,618.4719685999444,,,,,,,,,,,,,,,,,,,,,,,,,,,,,,right,1.0,0.8608753000153229,,,,,sub-158,1,random_dot,59.90362705018264,
left,left,57.0,1.0,28.0,right,0.0,3.1716528999386355,,speed,space,4.570946199935861,,,,,,0.0,1.0,1.0,1.0,28.0,1.0,57.0,0.0,618.4928693999536,,,,,,,,,618.4729671999812,619.6935443999246,620.5275214000139,620.5055416999385,620.506294199964,620.5275214000139,620.5275214000139,620.5275214000139,,623.7079921999248,,,,,,,,,,,,,,,,,,,,,,,,,,,,,,right,0.0,3.1716528999386355,,,,,sub-158,1,random_dot,59.90362705018264,
left,left,58.0,0.0,29.0,left,1.0,1.0690863000927493,,speed,space,4.570946199935861,,,,,,0.0,1.0,1.0,1.0,29.0,0.0,58.0,0.0,623.7291485000169,,,,,,,,,623.7088942999253,624.0619682999095,624.8802844999591,624.859214499942,624.8600674999179,624.8802844999591,624.8802844999591,624.8802844999591,,625.9602471999824,,,,,,,,,,,,,,,,,,,,,,,,,,,,,,left,1.0,1.0690863000927493,,,,,sub-158,1,random_dot,59.90362705018264,
right,right,59.0,1.0,29.0,right,1.0,1.9456214000238103,,speed,space,4.570946199935861,,,,,,0.0,1.0,1.0,1.0,29.0,1.0,59.0,1.0,625.9803852000041,,,,,,,,,625.9611050999956,626.765458000009,627.5831734999083,627.5601614000043,627.560802699998,627.5831734999083,627.5831734999083,627.5831734999083,,629.5366720999591,,,,,,,,,,,,,,,,,,,,,,,,,,,,,,right,1.0,1.9456214000238103,,,,,sub-158,1,random_dot,59.90362705018264,
,,1.0,1.0,0.0,,,,,speed,space,4.570946199935861,,,,,,0.0,1.0,1.0,1.0,,,,,,,,,,,,,,,,,,,,,,,,,,,,,,,,,,,,,,,,,,,,,,,,,,,,,,,,,,,,sub-158,1,random_dot,59.90362705018264,
,,,,,,,,,,,,,,,,,,,,,,,,,,,,,,,,,,,,,,,,,,,,,,,,,,,,,,,,,,,,,,,,,,,,,,,,,,,,,629.5418345999205,629.5487536999863,634.5616594000021,sub-158,1,random_dot,59.90362705018264,
