direction,corrAns,thisN,thisTrialN,thisRepN,respDots.keys,respDots.corr,respDots.rt,respDots.duration,randomInstr,respRandomInstr.keys,respRandomInstr.rt,respRandomInstr.duration,practice_trials.thisRepN,practice_trials.thisTrialN,practice_trials.thisN,practice_trials.thisIndex,instr_trials.thisRepN,instr_trials.thisTrialN,instr_trials.thisN,instr_trials.thisIndex,test_trials.thisRepN,test_trials.thisTrialN,test_trials.thisN,test_trials.thisIndex,thisRow.t,notes,general_instruction.started,textGeneralInstr.started,respGeneralInstr.started,general_instruction.stopped,respGeneralInstr.keys,respGeneralInstr.rt,respGeneralInstr.duration,ITI.started,fixcross.started,fixcross.stopped,ITI.stopped,dots.started,backgroundDots.started,stimulusDots.started,respDots.started,dots.stopped,practice_trials.respDots.keys,practice_trials.respDots.corr,practice_trials.respDots.rt,practice_trials.respDots.duration,feedback.started,textFeedback.started,feedback.stopped,textFeedback.stopped,info.started,textInfo.started,keyRespInfo.started,info.stopped,keyRespInfo.keys,keyRespInfo.rt,keyRespInfo.duration,test_instruction.started,textTestInstr.started,respTestInstr.started,test_instruction.stopped,respTestInstr.keys,respTestInstr.rt,respTestInstr.duration,random_instruction.started,textRandomInstr.started,respRandomInstr.started,random_instruction.stopped,instr_trials.respRandomInstr.keys,instr_trials.respRandomInstr.rt,instr_trials.respRandomInstr.duration,test_trials.respDots.keys,test_trials.respDots.corr,test_trials.respDots.rt,test_trials.respDots.duration,stimulusDots.stopped,goodbye.started,textGoodbye.started,textGoodbye.stopped,goodbye.stopped,participant,session,expName,frameRate,Unnamed: 88
,,,,,,,,,,,,,,,,,,,,,,,,,,,0.0106842339955619,0.0342601979937171,0.0342601979937171,1.6154560249997303,space,1.443463294999674,,,,,,,,,,,,,,,,,,,,,,,,,,,,,,,,,,,,,,,,,,,,,,,,,sub-209,1,random_dot,85.51441629168541,
left,left,0.0,0.0,0.0,left,1.0,1.726184949002345,,,,,,0.0,0.0,0.0,0.0,,,,,,,,,1.6598040379976735,,,,,,,,,1.6430260209963308,2.8143720119987847,3.623494716994173,3.6047701249990496,3.6053254669968737,3.623494716994173,3.623494716994173,3.623494716994173,5.360527075994469,left,1.0,1.726184949002345,,5.366641135995451,5.406647557996621,5.861514765994798,,,,,,,,,,,,,,,,,,,,,,,,,,,,,,,,sub-209,1,random_dot,85.51441629168541,
right,right,1.0,1.0,0.0,left,0.0,0.7626424640038749,,,,,,0.0,1.0,1.0,1.0,,,,,,,,,5.871063977996528,,,,,,,,,5.862142118996417,5.954375176996109,6.746966286998941,6.7380227129979176,6.738542046994553,6.746966286998941,6.746966286998941,6.746966286998941,7.515406776998134,left,0.0,0.7626424640038749,,7.519790510996245,7.533375937993696,8.021241276997898,,,,,,,,,,,,,,,,,,,,,,,,,,,,,,,,sub-209,1,random_dot,85.51441629168541,
right,right,2.0,0.0,1.0,right,1.0,0.6511196589999599,,,,,,1.0,0.0,2.0,1.0,,,,,,,,,8.027979626996967,,,,,,,,,8.021715014998335,8.361220721999416,9.15449423300015,9.144905011999072,9.145489461996476,9.15449423300015,9.15449423300015,9.15449423300015,9.809921105996182,right,1.0,0.6511196589999599,,9.811761845994624,9.821167041998706,10.304664516996128,10.311327446994255,,,,,,,,,,,,,,,,,,,,,,,,,,,,,,,sub-209,1,random_dot,85.51441629168541,
left,left,3.0,1.0,1.0,right,0.0,0.8574020289961481,,,,,,1.0,1.0,3.0,0.0,,,,,,,,,10.311327446994255,,,,,,,,,10.30510504099948,10.404326159994524,11.196997355000349,11.18794303699542,11.188461024998103,11.196997355000349,11.196997355000349,11.196997355000349,12.056851914996514,right,0.0,0.8574020289961481,,12.059126381995156,12.06957527600025,12.554617183996015,12.561278455999854,,,,,,,,,,,,,,,,,,,,,,,,,,,,,,,sub-209,1,random_dot,85.51441629168541,
left,left,4.0,0.0,2.0,left,1.0,0.7262919069980853,,,,,,2.0,0.0,4.0,0.0,,,,,,,,,12.561278455999854,,,,,,,,,12.555061690996808,13.75424905699765,14.54697679799574,14.537925157994325,14.53844335499889,14.54697679799574,14.54697679799574,14.54697679799574,15.282653262998792,left,1.0,0.7262919069980853,,15.285476666998877,15.294089947994507,15.778786574999684,15.787840893994144,,,,,,,,,,,,,,,,,,,,,,,,,,,,,,,sub-209,1,random_dot,85.51441629168541,
right,right,5.0,1.0,2.0,left,0.0,0.7626896069996292,,,,,,2.0,1.0,5.0,1.0,,,,,,,,,15.787840893994144,,,,,,,,,15.7793551989962,16.97739760299737,17.771454719993926,17.761003649000486,17.761592819995712,17.771454719993926,17.771454719993926,17.771454719993926,18.54383514899382,left,0.0,0.7626896069996292,,18.546094504999928,18.554108448995976,19.03788203899603,19.044569457997568,,,,,,,,,,,,,,,,,,,,,,,,,,,,,,,sub-209,1,random_dot,85.51441629168541,
left,left,6.0,0.0,3.0,left,1.0,1.921838785005093,,,,,,3.0,0.0,6.0,0.0,,,,,,,,,19.044569457997568,,,,,,,,,19.03832494100061,19.137570222999784,19.930187785997987,19.9212011579948,19.92172026499611,19.930187785997987,19.930187785997987,19.930187785997987,21.859190405994013,left,1.0,1.921838785005093,,21.86166689599486,21.872000923998712,22.361220921993663,,,,,,,,,,,,,,,,,,,,,,,,,,,,,,,,sub-209,1,random_dot,85.51441629168541,
right,right,7.0,1.0,3.0,right,1.0,2.3909543520057923,,,,,,3.0,1.0,7.0,1.0,,,,,,,,,22.37081314299576,,,,,,,,,22.361826353997458,22.70415920099913,23.496841740998207,23.4878088589976,23.488322900993808,23.496841740998207,23.496841740998207,23.496841740998207,25.88912369899481,right,1.0,2.3909543520057923,,25.889209460998245,25.89603736799472,26.38775198899384,26.394503990995872,,,,,,,,,,,,,,,,,,,,,,,,,,,,,,,sub-209,1,random_dot,85.51441629168541,
left,left,8.0,0.0,4.0,left,1.0,0.7816574140015291,,,,,,4.0,0.0,8.0,0.0,,,,,,,,,26.394503990995872,,,,,,,,,26.388192508995417,27.587265340996964,28.380063093994977,28.37102275899815,28.37153553799726,28.380063093994977,28.380063093994977,28.380063093994977,29.16374460699444,left,1.0,0.7816574140015291,,29.163830736993987,29.170541363993834,29.654310139994777,29.661056432996705,,,,,,,,,,,,,,,,,,,,,,,,,,,,,,,sub-209,1,random_dot,85.51441629168541,
right,right,9.0,1.0,4.0,right,1.0,0.6405075419970672,,,,,,4.0,1.0,9.0,1.0,,,,,,,,,29.661056432996705,,,,,,,,,29.654784059996015,29.760915466998995,30.554087287993752,30.54453891299636,30.54514927899436,30.554087287993752,30.554087287993752,30.554087287993752,31.198148472998582,right,1.0,0.6405075419970672,,31.19823512599396,31.20847525899444,31.69457974100078,31.70401574999414,,,,,,,,,,,,,,,,,,,,,,,,,,,,,,,sub-209,1,random_dot,85.51441629168541,
right,right,10.0,0.0,5.0,right,1.0,0.6020643369993195,,,,,,5.0,0.0,10.0,1.0,,,,,,,,,31.70401574999414,,,,,,,,,31.69512658399617,32.49423510699853,33.28738818999409,33.27784083499864,33.27846564499487,33.28738818999409,33.28738818999409,33.28738818999409,33.898495629000536,right,1.0,0.6020643369993195,,33.89860404299543,33.90788465899823,34.394560859000194,34.40398466299666,,,,,,,,,,,,,,,,,,,,,,,,,,,,,,,sub-209,1,random_dot,85.51441629168541,
left,left,11.0,1.0,5.0,left,1.0,0.7399191980002797,,,,,,5.0,1.0,11.0,0.0,,,,,,,,,34.40398466299666,,,,,,,,,34.39506902699941,35.194177916993794,35.98741207699641,35.97783277299459,35.97845937099919,35.98741207699641,35.98741207699641,35.98741207699641,36.73094087899517,left,1.0,0.7399191980002797,,36.73102456500055,36.75352918399585,37.23734833699564,,,,,,,,,,,,,,,,,,,,,,,,,,,,,,,,sub-209,1,random_dot,85.51441629168541,
right,right,12.0,0.0,6.0,left,0.0,0.8176342799997656,,,,,,6.0,0.0,12.0,1.0,,,,,,,,,37.24408852899796,,,,,,,,,37.23782583499997,37.57755519000057,38.37070143199526,38.36111707999953,38.36173023199808,38.37070143199526,38.37070143199526,38.37070143199526,39.19836125800066,left,0.0,0.8176342799997656,,39.201070372000686,39.209731435999856,39.69440195199422,39.70387793999544,,,,,,,,,,,,,,,,,,,,,,,,,,,,,,,sub-209,1,random_dot,85.51441629168541,
left,left,13.0,1.0,6.0,right,0.0,0.6549846199995955,,,,,,6.0,1.0,13.0,0.0,,,,,,,,,39.70387793999544,,,,,,,,,39.69493978199898,40.4940594879954,41.28630192999845,41.27764204099367,41.27819530599663,41.28630192999845,41.28630192999845,41.28630192999845,41.94293815399578,right,0.0,0.6549846199995955,,41.94302767199406,41.9541722349968,42.43752210299863,42.444736241996,,,,,,,,,,,,,,,,,,,,,,,,,,,,,,,sub-209,1,random_dot,85.51441629168541,
left,left,14.0,0.0,7.0,left,1.0,0.6752335880009923,,,,,,7.0,0.0,14.0,0.0,,,,,,,,,42.444736241996,,,,,,,,,42.43797211999481,43.63719598999887,44.42983982299484,44.42083161999472,44.42134957799863,44.42983982299484,44.42983982299484,44.42983982299484,45.11349767600041,left,1.0,0.6752335880009923,,45.11616682399472,45.12503694499901,45.61108910599432,45.620463405997725,,,,,,,,,,,,,,,,,,,,,,,,,,,,,,,sub-209,1,random_dot,85.51441629168541,
right,right,15.0,1.0,7.0,left,0.0,0.7724432800023351,,,,,,7.0,1.0,15.0,1.0,,,,,,,,,45.620463405997725,,,,,,,,,45.61163686999498,46.41023230800056,47.20442845799698,47.19392211299419,47.19454883599974,47.20442845799698,47.20442845799698,47.20442845799698,47.98814746499556,left,0.0,0.7724432800023351,,47.99050701699889,47.99954529899696,48.487447994994,48.49417536099645,,,,,,,,,,,,,,,,,,,,,,,,,,,,,,,sub-209,1,random_dot,85.51441629168541,
right,right,16.0,0.0,8.0,left,0.0,1.160038081005041,,,,,,8.0,0.0,16.0,1.0,,,,,,,,,48.49417536099645,,,,,,,,,48.48789673599822,48.83688991499366,49.62982890299463,49.62075605899736,49.62127503100055,49.62982890299463,49.62982890299463,49.62982890299463,50.79231645499385,left,0.0,1.160038081005041,,50.79239766599494,50.80387640499976,51.28743028299505,51.29415224099648,,,,,,,,,,,,,,,,,,,,,,,,,,,,,,,sub-209,1,random_dot,85.51441629168541,
left,left,17.0,1.0,8.0,right,0.0,2.9879215070031933,,,,,,8.0,1.0,17.0,0.0,,,,,,,,,51.29415224099648,,,,,,,,,51.28787527600071,52.086786797997775,52.8793156929969,52.870521813994856,52.87104077199911,52.8793156929969,52.8793156929969,52.8793156929969,55.87060832299903,right,0.0,2.9879215070031933,,55.87068996299786,55.88741610299621,56.3706649109954,56.37738888099557,,,,,,,,,,,,,,,,,,,,,,,,,,,,,,,sub-209,1,random_dot,85.51441629168541,
left,left,18.0,0.0,9.0,right,0.0,1.1500518359971466,,,,,,9.0,0.0,18.0,0.0,,,,,,,,,56.37738888099557,,,,,,,,,56.37111563399958,56.46063434799726,57.2537513089992,57.24417940199783,57.24480625199794,57.2537513089992,57.2537513089992,57.2537513089992,58.4056628929975,right,0.0,1.1500518359971466,,58.40576790299383,58.4126185540008,58.9039489200004,58.91067041899805,,,,,,,,,,,,,,,,,,,,,,,,,,,,,,,sub-209,1,random_dot,85.51441629168541,
right,right,19.0,1.0,9.0,right,1.0,1.341611522002495,,,,,,9.0,1.0,19.0,1.0,,,,,,,,,58.91067041899805,,,,,,,,,58.90438957399601,60.10354868300056,60.89615378699818,60.88723462999769,60.88775033999991,60.89615378699818,60.89615378699818,60.89615378699818,62.2425254310001,right,1.0,1.341611522002495,,62.24460515199462,62.252543286995206,62.73721309699613,62.74760735999735,,,,,,,,,,,,,,,,,,,,,,,,,,,,,,,sub-209,1,random_dot,85.51441629168541,
,,,,,,,,,,,,,,,,,,,,,,,,,,,,,,,,,,,,,,,,,,,,,,,,,,,62.7373944869978,62.74760735999735,62.74760735999735,64.07099174699397,space,1.314816874000826,,,,,,,,,,,,,,,,,,,,,,,,,sub-209,1,random_dot,85.51441629168541,
,,,,,,,,,,,,,,,,,,,,,,,,,,,,,,,,,,,,,,,,,,,,,,,,,,,,,,,,,,64.07107542999438,64.08164849099558,64.08164849099558,64.99508152199996,space,0.9058398600027432,,,,,,,,,,,,,,,,,,sub-209,1,random_dot,85.51441629168541,
right,right,0.0,0.0,0.0,right,1.0,0.6514387339993846,,speed,space,0.151819828999578,,,,,,0.0,0.0,0.0,1.0,0.0,0.0,0.0,1.0,65.19163783299882,,,,,,,,,65.18192998099403,65.27661578599509,66.07091985499574,66.06039597599738,66.06099270800041,66.07091985499574,66.07091985499574,66.07091985499574,66.72953684799722,,,,,,,,,,,,,,,,,,,,,,,65.00830106799549,65.01955012999679,65.01955012999679,65.17824845399446,space,0.151819828999578,,right,1.0,0.6514387339993846,,,,,,,sub-209,1,random_dot,85.51441629168541,
left,left,1.0,1.0,0.0,left,1.0,1.2238061009993544,,speed,space,0.151819828999578,,,,,,0.0,0.0,0.0,1.0,0.0,1.0,1.0,0.0,66.73710622399813,,,,,,,,,66.72987614699377,67.92599376399448,68.71947481899406,68.7095250919956,68.71013139999559,68.71947481899406,68.71947481899406,68.71947481899406,69.94527186099731,,,,,,,,,,,,,,,,,,,,,,,,,,,,,,left,1.0,1.2238061009993544,,,,,,,sub-209,1,random_dot,85.51441629168541,
right,right,2.0,0.0,1.0,right,1.0,1.1051004589971851,,speed,space,0.151819828999578,,,,,,0.0,0.0,0.0,1.0,1.0,0.0,2.0,1.0,69.95269310199365,,,,,,,,,69.94555718799529,71.14224502299476,71.936138088,71.92591539799469,71.9264769529982,71.936138088,71.936138088,71.936138088,73.04481279599713,,,,,,,,,,,,,,,,,,,,,,,,,,,,,,right,1.0,1.1051004589971851,,,,,,,sub-209,1,random_dot,85.51441629168541,
left,left,3.0,1.0,1.0,right,0.0,1.14908052499959,,speed,space,0.151819828999578,,,,,,0.0,0.0,0.0,1.0,1.0,1.0,3.0,0.0,73.05281993099925,,,,,,,,,73.04508244199678,74.24218564299372,75.03598079799849,75.02556383599585,75.02613274399482,75.03598079799849,75.03598079799849,75.03598079799849,76.18673293699976,,,,,,,,,,,,,,,,,,,,,,,,,,,,,,right,0.0,1.14908052499959,,,,,,,sub-209,1,random_dot,85.51441629168541,
left,left,4.0,0.0,2.0,left,1.0,0.8967594130008365,,speed,space,0.151819828999578,,,,,,0.0,0.0,0.0,1.0,2.0,0.0,4.0,0.0,76.19212512999366,,,,,,,,,76.18700392900064,76.27489068399882,77.06922268299968,77.05885485399631,77.05944860399904,77.06922268299968,77.06922268299968,77.06922268299968,77.97099706899462,,,,,,,,,,,,,,,,,,,,,,,,,,,,,,left,1.0,0.8967594130008365,,,,,,,sub-209,1,random_dot,85.51441629168541,
right,right,5.0,1.0,2.0,right,1.0,0.8650263430026826,,speed,space,0.151819828999578,,,,,,0.0,0.0,0.0,1.0,2.0,1.0,5.0,1.0,77.97775318499771,,,,,,,,,77.97128234899719,79.1692727539994,79.960865559995,79.95296044799761,79.95347356199636,79.960865559995,79.960865559995,79.960865559995,80.82829067899729,,,,,,,,,,,,,,,,,,,,,,,,,,,,,,right,1.0,0.8650263430026826,,,,,,,sub-209,1,random_dot,85.51441629168541,
left,left,6.0,0.0,3.0,left,1.0,0.9754750579959364,,speed,space,0.151819828999578,,,,,,0.0,0.0,0.0,1.0,3.0,0.0,6.0,0.0,80.83596136099368,,,,,,,,,80.82858958099678,81.62574196599599,82.41932103399449,82.40937098999711,82.40995741899678,82.41932103399449,82.41932103399449,82.41932103399449,83.40413012999488,,,,,,,,,,,,,,,,,,,,,,,,,,,,,,left,1.0,0.9754750579959364,,,,,,,sub-209,1,random_dot,85.51441629168541,
right,right,7.0,1.0,3.0,left,0.0,1.3348229580005864,,speed,space,0.151819828999578,,,,,,0.0,0.0,0.0,1.0,3.0,1.0,7.0,1.0,83.41144983399863,,,,,,,,,83.40442148099828,84.20265947900043,84.99474710999493,84.9863919079944,84.98691009599861,84.99474710999493,84.99474710999493,84.99474710999493,86.33707997099555,,,,,,,,,,,,,,,,,,,,,,,,,,,,,,left,0.0,1.3348229580005864,,,,,,,sub-209,1,random_dot,85.51441629168541,
right,right,8.0,0.0,4.0,right,1.0,1.1458709849976003,,speed,space,0.151819828999578,,,,,,0.0,0.0,0.0,1.0,4.0,0.0,8.0,1.0,86.34401407199766,,,,,,,,,86.33737273699808,87.53582557699701,88.32672707599704,88.31916161399567,88.3195641919956,88.32672707599704,88.32672707599704,88.32672707599704,89.47803636099707,,,,,,,,,,,,,,,,,,,,,,,,,,,,,,right,1.0,1.1458709849976003,,,,,,,sub-209,1,random_dot,85.51441629168541,
left,left,9.0,1.0,4.0,right,0.0,1.0473303600010695,,speed,space,0.151819828999578,,,,,,0.0,0.0,0.0,1.0,4.0,1.0,9.0,0.0,89.48600783899747,,,,,,,,,89.4783044959986,90.27536465699814,91.06911756699992,91.05878122300057,91.05931317000068,91.06911756699992,91.06911756699992,91.06911756699992,92.12062683099794,,,,,,,,,,,,,,,,,,,,,,,,,,,,,,right,0.0,1.0473303600010695,,,,,,,sub-209,1,random_dot,85.51441629168541,
left,left,10.0,0.0,5.0,left,1.0,0.8236039210023591,,speed,space,0.151819828999578,,,,,,0.0,0.0,0.0,1.0,5.0,0.0,10.0,0.0,92.12741181999444,,,,,,,,,92.12090192199685,92.91907418999472,93.71072970999376,93.70284969699424,93.70336444999704,93.71072970999376,93.71072970999376,93.71072970999376,94.53674656799558,,,,,,,,,,,,,,,,,,,,,,,,,,,,,,left,1.0,0.8236039210023591,,,,,,,sub-209,1,random_dot,85.51441629168541,
right,right,11.0,1.0,5.0,right,1.0,0.6676345320011023,,speed,space,0.151819828999578,,,,,,0.0,0.0,0.0,1.0,5.0,1.0,11.0,1.0,94.543956128,,,,,,,,,94.5370380509994,95.73568897199584,96.52759672399408,96.51946258999668,96.51997493599627,96.52759672399408,96.52759672399408,96.52759672399408,97.20362711299822,,,,,,,,,,,,,,,,,,,,,,,,,,,,,,right,1.0,0.6676345320011023,,,,,,,sub-209,1,random_dot,85.51441629168541,
left,left,12.0,0.0,6.0,left,1.0,0.6444858530012425,,speed,space,0.151819828999578,,,,,,0.0,0.0,0.0,1.0,6.0,0.0,12.0,0.0,97.21041067799524,,,,,,,,,97.20388735799496,98.40235926999594,99.19358324399946,99.18563495499984,99.18604363499615,99.19358324399946,99.19358324399946,99.19358324399946,99.84410512599425,,,,,,,,,,,,,,,,,,,,,,,,,,,,,,left,1.0,0.6444858530012425,,,,,,,sub-209,1,random_dot,85.51441629168541,
right,right,13.0,1.0,6.0,right,1.0,1.4435356280009728,,speed,space,0.151819828999578,,,,,,0.0,0.0,0.0,1.0,6.0,1.0,13.0,1.0,99.85206811799436,,,,,,,,,99.84440390300006,99.94160265499522,100.73554485899513,100.72493972799566,100.72547153900086,100.73554485899513,100.73554485899513,100.73554485899513,102.18611739899644,,,,,,,,,,,,,,,,,,,,,,,,,,,,,,right,1.0,1.4435356280009728,,,,,,,sub-209,1,random_dot,85.51441629168541,
right,right,14.0,0.0,7.0,right,1.0,1.17305212100473,,speed,space,0.151819828999578,,,,,,0.0,0.0,0.0,1.0,7.0,0.0,14.0,1.0,102.19316898899706,,,,,,,,,102.18640214199696,102.2749892799984,103.06886588199995,103.0585593299984,103.05915132099472,103.06886588199995,103.06886588199995,103.06886588199995,104.24422076799964,,,,,,,,,,,,,,,,,,,,,,,,,,,,,,right,1.0,1.17305212100473,,,,,,,sub-209,1,random_dot,85.51441629168541,
left,left,15.0,1.0,7.0,right,0.0,0.9332863050003652,,speed,space,0.151819828999578,,,,,,0.0,0.0,0.0,1.0,7.0,1.0,15.0,0.0,104.25213222399908,,,,,,,,,104.2445094539944,104.341849163,105.13561351299722,105.12520816599864,105.12574152799787,105.13561351299722,105.13561351299722,105.13561351299722,106.07047523899382,,,,,,,,,,,,,,,,,,,,,,,,,,,,,,right,0.0,0.9332863050003652,,,,,,,sub-209,1,random_dot,85.51441629168541,
right,right,16.0,0.0,8.0,right,1.0,0.8879862629983108,,speed,space,0.151819828999578,,,,,,0.0,0.0,0.0,1.0,8.0,0.0,16.0,1.0,106.0769638329948,,,,,,,,,106.0708583079977,107.26901311199616,108.06072071899688,108.0527571509956,108.05327145199408,108.06072071899688,108.06072071899688,108.06072071899688,108.95967768799892,,,,,,,,,,,,,,,,,,,,,,,,,,,,,,right,1.0,0.8879862629983108,,,,,,,sub-209,1,random_dot,85.51441629168541,
left,left,17.0,1.0,8.0,left,1.0,0.6123935069990694,,speed,space,0.151819828999578,,,,,,0.0,0.0,0.0,1.0,8.0,1.0,17.0,0.0,108.9701761999968,,,,,,,,,108.96007326499966,109.75293236599828,110.54530248099763,110.53646164399834,110.53694435599756,110.54530248099763,110.54530248099763,110.54530248099763,111.16381224299404,,,,,,,,,,,,,,,,,,,,,,,,,,,,,,left,1.0,0.6123935069990694,,,,,,,sub-209,1,random_dot,85.51441629168541,
left,left,18.0,0.0,9.0,right,0.0,0.98888196900225,,speed,space,0.151819828999578,,,,,,0.0,0.0,0.0,1.0,9.0,0.0,18.0,0.0,111.17406749200018,,,,,,,,,111.16411003499525,111.5096841669947,112.30272367299769,112.29321117699874,112.2938160479971,112.30272367299769,112.30272367299769,112.30272367299769,113.29802869999548,,,,,,,,,,,,,,,,,,,,,,,,,,,,,,right,0.0,0.98888196900225,,,,,,,sub-209,1,random_dot,85.51441629168541,
right,right,19.0,1.0,9.0,right,1.0,1.8001941440015798,,speed,space,0.151819828999578,,,,,,0.0,0.0,0.0,1.0,9.0,1.0,19.0,1.0,113.30719085599412,,,,,,,,,113.29844744199364,113.39387190900015,114.19519951099936,114.18647013000007,114.18695450000088,114.19519951099936,114.19519951099936,114.19519951099936,116.00399607599684,,,,,,,,,,,,,,,,,,,,,,,,,,,,,,right,1.0,1.8001941440015798,,,,,,,sub-209,1,random_dot,85.51441629168541,
right,right,20.0,0.0,10.0,right,1.0,5.136333715003275,,speed,space,0.151819828999578,,,,,,0.0,0.0,0.0,1.0,10.0,0.0,20.0,1.0,116.01167540299502,,,,,,,,,116.00431762999506,116.34344075300032,117.13620382099909,117.12665956699492,117.12728177899407,117.13620382099909,117.13620382099909,117.13620382099909,122.27921856799368,,,,,,,,,,,,,,,,,,,,,,,,,,,,,,right,1.0,5.136333715003275,,122.1367597799981,,,,,sub-209,1,random_dot,85.51441629168541,
left,left,21.0,1.0,10.0,right,0.0,0.9693176849978044,,speed,space,0.151819828999578,,,,,,0.0,0.0,0.0,1.0,10.0,1.0,21.0,0.0,122.2863856059994,,,,,,,,,122.27950657600012,122.62732939099806,123.42869089499436,123.41967362699506,123.4201834150008,123.42869089499436,123.42869089499436,123.42869089499436,124.40367204499488,,,,,,,,,,,,,,,,,,,,,,,,,,,,,,right,0.0,0.9693176849978044,,,,,,,sub-209,1,random_dot,85.51441629168541,
right,right,22.0,0.0,11.0,right,1.0,0.9195027929963544,,speed,space,0.151819828999578,,,,,,0.0,0.0,0.0,1.0,11.0,0.0,22.0,1.0,124.41208709499917,,,,,,,,,124.40395949999947,124.75278049599729,125.5453315679988,125.53636057199763,125.536839235996,125.5453315679988,125.5453315679988,125.5453315679988,126.4760796720002,,,,,,,,,,,,,,,,,,,,,,,,,,,,,,right,1.0,0.9195027929963544,,,,,,,sub-209,1,random_dot,85.51441629168541,
left,left,23.0,1.0,11.0,left,1.0,1.1237914789962815,,speed,space,0.151819828999578,,,,,,0.0,0.0,0.0,1.0,11.0,1.0,23.0,0.0,126.48677004999628,,,,,,,,,126.47640312199655,126.81930093799748,127.6120692819968,127.60306672599836,127.60358110599918,127.6120692819968,127.6120692819968,127.6120692819968,128.74126746699767,,,,,,,,,,,,,,,,,,,,,,,,,,,,,,left,1.0,1.1237914789962815,,,,,,,sub-209,1,random_dot,85.51441629168541,
right,right,24.0,0.0,12.0,right,1.0,0.6961504370046896,,speed,space,0.151819828999578,,,,,,0.0,0.0,0.0,1.0,12.0,0.0,24.0,1.0,128.75250893799966,,,,,,,,,128.7415515429966,129.53602344499814,130.32863356899907,130.3196773210002,130.32016892699903,130.32863356899907,130.32863356899907,130.32863356899907,131.0303613549986,,,,,,,,,,,,,,,,,,,,,,,,,,,,,,right,1.0,0.6961504370046896,,,,,,,sub-209,1,random_dot,85.51441629168541,
left,left,25.0,1.0,12.0,left,1.0,0.9093178539988004,,speed,space,0.151819828999578,,,,,,0.0,0.0,0.0,1.0,12.0,1.0,25.0,0.0,131.04046916999505,,,,,,,,,131.03065744500054,131.37625018999825,132.16936582500057,132.15981290099444,132.16044586699718,132.16936582500057,132.16936582500057,132.16936582500057,133.0806793409938,,,,,,,,,,,,,,,,,,,,,,,,,,,,,,left,1.0,0.9093178539988004,,,,,,,sub-209,1,random_dot,85.51441629168541,
right,right,26.0,0.0,13.0,left,0.0,1.2141567950020544,,speed,space,0.151819828999578,,,,,,0.0,0.0,0.0,1.0,13.0,0.0,26.0,1.0,133.10224374399695,,,,,,,,,133.08095335399412,133.42618173099618,134.21936546999495,134.20981801799644,134.21043873999588,134.21936546999495,134.21936546999495,134.21936546999495,135.44215952800005,,,,,,,,,,,,,,,,,,,,,,,,,,,,,,left,0.0,1.2141567950020544,,,,,,,sub-209,1,random_dot,85.51441629168541,
left,left,27.0,1.0,13.0,right,0.0,0.6860382180020679,,speed,space,0.151819828999578,,,,,,0.0,0.0,0.0,1.0,13.0,1.0,27.0,0.0,135.4529157739962,,,,,,,,,135.44248429599975,136.63553386099375,137.42741071400087,137.41916342299373,137.41967422000016,137.42741071400087,137.42741071400087,137.42741071400087,138.136963895995,,,,,,,,,,,,,,,,,,,,,,,,,,,,,,right,0.0,0.6860382180020679,,,,,,,sub-209,1,random_dot,85.51441629168541,
right,right,28.0,0.0,14.0,left,0.0,0.7820103740014019,,speed,space,0.151819828999578,,,,,,0.0,0.0,0.0,1.0,14.0,0.0,28.0,1.0,138.15292314799444,,,,,,,,,138.1375371999966,138.2266391789963,139.01929061699775,139.00979790599376,139.01042625199625,139.01929061699775,139.01929061699775,139.01929061699775,139.80869206399802,,,,,,,,,,,,,,,,,,,,,,,,,,,,,,left,0.0,0.7820103740014019,,,,,,,sub-209,1,random_dot,85.51441629168541,
left,left,29.0,1.0,14.0,right,0.0,1.849048276002577,,speed,space,0.151819828999578,,,,,,0.0,0.0,0.0,1.0,14.0,1.0,29.0,0.0,139.81949782899756,,,,,,,,,139.80907519599714,140.15278636899893,140.94524264799838,140.93623303399363,140.9367518250001,140.94524264799838,140.94524264799838,140.94524264799838,142.80356989199936,,,,,,,,,,,,,,,,,,,,,,,,,,,,,,right,0.0,1.849048276002577,,,,,,,sub-209,1,random_dot,85.51441629168541,
left,left,30.0,0.0,15.0,right,0.0,1.2860785170050804,,speed,space,0.151819828999578,,,,,,0.0,0.0,0.0,1.0,15.0,0.0,30.0,0.0,142.8127385560001,,,,,,,,,142.80394623599568,144.00245442799496,144.79516941399925,144.78612268399593,144.78663591899385,144.79516941399925,144.79516941399925,144.79516941399925,146.08697630199458,,,,,,,,,,,,,,,,,,,,,,,,,,,,,,right,0.0,1.2860785170050804,,,,,,,sub-209,1,random_dot,85.51441629168541,
right,right,31.0,1.0,15.0,right,1.0,0.9827343669967376,,speed,space,0.151819828999578,,,,,,0.0,0.0,0.0,1.0,15.0,1.0,31.0,1.0,146.09594198899867,,,,,,,,,146.0872742079955,146.1766192629948,146.96921802499855,146.9596771119977,146.96030022899504,146.96921802499855,146.96921802499855,146.96921802499855,147.9627648539972,,,,,,,,,,,,,,,,,,,,,,,,,,,,,,right,1.0,0.9827343669967376,,,,,,,sub-209,1,random_dot,85.51441629168541,
right,right,32.0,0.0,16.0,left,0.0,1.112257631997636,,speed,space,0.151819828999578,,,,,,0.0,0.0,0.0,1.0,16.0,0.0,32.0,1.0,147.97426079199795,,,,,,,,,147.9634914749986,149.15929927699472,149.9526654769943,149.94297153099615,149.94358634999662,149.9526654769943,149.9526654769943,149.9526654769943,151.0755393319996,,,,,,,,,,,,,,,,,,,,,,,,,,,,,,left,0.0,1.112257631997636,,,,,,,sub-209,1,random_dot,85.51441629168541,
left,left,33.0,1.0,16.0,left,1.0,1.2280425879944232,,speed,space,0.151819828999578,,,,,,0.0,0.0,0.0,1.0,16.0,1.0,33.0,0.0,151.08599565499753,,,,,,,,,151.0759183229966,151.16964765000012,151.9617874799951,151.9527042569971,151.953219995994,151.9617874799951,151.9617874799951,151.9617874799951,153.1966626509966,,,,,,,,,,,,,,,,,,,,,,,,,,,,,,left,1.0,1.2280425879944232,,,,,,,sub-209,1,random_dot,85.51441629168541,
left,left,34.0,0.0,17.0,right,0.0,0.691827483002271,,speed,space,0.151819828999578,,,,,,0.0,0.0,0.0,1.0,17.0,0.0,34.0,0.0,153.20596723500057,,,,,,,,,153.19699132099777,153.54268857999705,154.33580342499772,154.32622616599838,154.32685224799934,154.33580342499772,154.33580342499772,154.33580342499772,155.03733323999768,,,,,,,,,,,,,,,,,,,,,,,,,,,,,,right,0.0,0.691827483002271,,,,,,,sub-209,1,random_dot,85.51441629168541,
right,right,35.0,1.0,17.0,left,0.0,0.5493457300035516,,speed,space,0.151819828999578,,,,,,0.0,0.0,0.0,1.0,17.0,1.0,35.0,1.0,155.04604013299831,,,,,,,,,155.03767927099398,156.2356561609995,157.02834301599796,157.0192940449997,157.01980633999483,157.02834301599796,157.02834301599796,157.02834301599796,157.58643812299852,,,,,,,,,,,,,,,,,,,,,,,,,,,,,,left,0.0,0.5493457300035516,,,,,,,sub-209,1,random_dot,85.51441629168541,
left,left,36.0,0.0,18.0,left,1.0,0.8959503420046531,,speed,space,0.151819828999578,,,,,,0.0,0.0,0.0,1.0,18.0,0.0,36.0,0.0,157.59543050799402,,,,,,,,,157.58677401099703,158.77588713799923,159.56954686099925,159.55929787899368,159.5599552509957,159.56954686099925,159.56954686099925,159.56954686099925,160.47468879499502,,,,,,,,,,,,,,,,,,,,,,,,,,,,,,left,1.0,0.8959503420046531,,,,,,,sub-209,1,random_dot,85.51441629168541,
right,right,37.0,1.0,18.0,right,1.0,0.7079362899967236,,speed,space,0.151819828999578,,,,,,0.0,0.0,0.0,1.0,18.0,1.0,37.0,1.0,160.48527514499438,,,,,,,,,160.47501190099865,161.26887481999438,162.06065142099396,162.05219593799848,162.05270562999794,162.06065142099396,162.06065142099396,162.06065142099396,162.7741115109966,,,,,,,,,,,,,,,,,,,,,,,,,,,,,,right,1.0,0.7079362899967236,,,,,,,sub-209,1,random_dot,85.51441629168541,
left,left,38.0,0.0,19.0,right,0.0,0.8458196159990621,,speed,space,0.151819828999578,,,,,,0.0,0.0,0.0,1.0,19.0,0.0,38.0,0.0,162.78521800499584,,,,,,,,,162.77437409699633,163.11887709899747,163.91149845600012,163.9025372670003,163.90304726699833,163.91149845600012,163.91149845600012,163.91149845600012,164.76345638199564,,,,,,,,,,,,,,,,,,,,,,,,,,,,,,right,0.0,0.8458196159990621,,,,,,,sub-209,1,random_dot,85.51441629168541,
right,right,39.0,1.0,19.0,right,1.0,0.6725149609992513,,speed,space,0.151819828999578,,,,,,0.0,0.0,0.0,1.0,19.0,1.0,39.0,1.0,164.77333561999694,,,,,,,,,164.76372264999372,165.95863166699564,166.752724512,166.74225683899567,166.74287754399847,166.752724512,166.752724512,166.752724512,167.42989490399486,,,,,,,,,,,,,,,,,,,,,,,,,,,,,,right,1.0,0.6725149609992513,,,,,,,sub-209,1,random_dot,85.51441629168541,
right,right,40.0,0.0,20.0,right,1.0,1.1561609090058482,,speed,space,0.151819828999578,,,,,,0.0,0.0,0.0,1.0,20.0,0.0,40.0,1.0,167.44003622599848,,,,,,,,,167.430195076995,168.62572988699685,169.41891877399758,169.40934932399978,169.40996927999367,169.41891877399758,169.41891877399758,169.41891877399758,170.58641693199752,,,,,,,,,,,,,,,,,,,,,,,,,,,,,,right,1.0,1.1561609090058482,,,,,,,sub-209,1,random_dot,85.51441629168541,
left,left,41.0,1.0,20.0,left,1.0,1.1030339709977852,,speed,space,0.151819828999578,,,,,,0.0,0.0,0.0,1.0,20.0,1.0,41.0,0.0,170.59545009199792,,,,,,,,,170.5867489489974,170.92625900299754,171.72809514699475,171.7190621549962,171.7195739969975,171.72809514699475,171.72809514699475,171.72809514699475,172.84223503899557,,,,,,,,,,,,,,,,,,,,,,,,,,,,,,left,1.0,1.1030339709977852,,,,,,,sub-209,1,random_dot,85.51441629168541,
left,left,42.0,0.0,21.0,right,0.0,0.974022030000924,,speed,space,0.151819828999578,,,,,,0.0,0.0,0.0,1.0,21.0,0.0,42.0,0.0,172.85247272099514,,,,,,,,,172.842519687998,173.1856939930003,173.97791347999737,173.96908781199454,173.9696086900003,173.97791347999737,173.97791347999737,173.97791347999737,174.95820168299542,,,,,,,,,,,,,,,,,,,,,,,,,,,,,,right,0.0,0.974022030000924,,,,,,,sub-209,1,random_dot,85.51441629168541,
right,right,43.0,1.0,21.0,right,1.0,0.94942013900436,,speed,space,0.151819828999578,,,,,,0.0,0.0,0.0,1.0,21.0,1.0,43.0,1.0,174.96930591699493,,,,,,,,,174.9585194109968,175.0526943609948,175.8444152919983,175.83614487299928,175.83650919199863,175.8444152919983,175.8444152919983,175.8444152919983,176.80286330799572,,,,,,,,,,,,,,,,,,,,,,,,,,,,,,right,1.0,0.94942013900436,,,,,,,sub-209,1,random_dot,85.51441629168541,
left,left,44.0,0.0,22.0,left,1.0,0.6674677690025419,,speed,space,0.151819828999578,,,,,,0.0,0.0,0.0,1.0,22.0,0.0,44.0,0.0,176.81115672499436,,,,,,,,,176.8031800549943,177.59224474799703,178.3854473149986,178.375879291998,178.37650848799967,178.3854473149986,178.3854473149986,178.3854473149986,179.05887417199847,,,,,,,,,,,,,,,,,,,,,,,,,,,,,,left,1.0,0.6674677690025419,,,,,,,sub-209,1,random_dot,85.51441629168541,
right,right,45.0,1.0,22.0,right,1.0,1.0100928499959991,,speed,space,0.151819828999578,,,,,,0.0,0.0,0.0,1.0,22.0,1.0,45.0,1.0,179.06911314199533,,,,,,,,,179.0591309579977,179.1522282789956,179.94465545799903,179.93558784799825,179.93610732299567,179.94465545799903,179.94465545799903,179.94465545799903,180.95776998999645,,,,,,,,,,,,,,,,,,,,,,,,,,,,,,right,1.0,1.0100928499959991,,,,,,,sub-209,1,random_dot,85.51441629168541,
right,right,46.0,0.0,23.0,right,1.0,1.4271206120029092,,speed,space,0.151819828999578,,,,,,0.0,0.0,0.0,1.0,23.0,0.0,46.0,1.0,180.96885668699545,,,,,,,,,180.9580294490006,181.7519422119949,182.544487717998,182.53572928799983,182.53624235299503,182.544487717998,182.544487717998,182.544487717998,183.97410004799892,,,,,,,,,,,,,,,,,,,,,,,,,,,,,,right,1.0,1.4271206120029092,,,,,,,sub-209,1,random_dot,85.51441629168541,
left,left,47.0,1.0,23.0,left,1.0,0.6810729360004188,,speed,space,0.151819828999578,,,,,,0.0,0.0,0.0,1.0,23.0,1.0,47.0,0.0,183.9854184829965,,,,,,,,,183.97436740899863,184.7688306259952,185.5613204179972,185.55222708999645,185.5527441259983,185.5613204179972,185.5613204179972,185.5613204179972,186.244882428,,,,,,,,,,,,,,,,,,,,,,,,,,,,,,left,1.0,0.6810729360004188,,,,,,,sub-209,1,random_dot,85.51441629168541,
right,right,48.0,0.0,24.0,right,1.0,1.5650435560019105,,speed,space,0.151819828999578,,,,,,0.0,0.0,0.0,1.0,24.0,0.0,48.0,1.0,186.2526899519944,,,,,,,,,186.24518214399723,186.59217754299607,187.38536781799485,187.3758210579981,187.37644150899723,187.38536781799485,187.38536781799485,187.38536781799485,188.95921640899903,,,,,,,,,,,,,,,,,,,,,,,,,,,,,,right,1.0,1.5650435560019105,,,,,,,sub-209,1,random_dot,85.51441629168541,
left,left,49.0,1.0,24.0,left,1.0,0.8977146530014579,,speed,space,0.151819828999578,,,,,,0.0,0.0,0.0,1.0,24.0,1.0,49.0,0.0,188.9690763489998,,,,,,,,,188.9595332109966,189.3020989270008,190.09464444199693,190.08559278900063,190.0861055429996,190.09464444199693,190.09464444199693,190.09464444199693,191.00293907499872,,,,,,,,,,,,,,,,,,,,,,,,,,,,,,left,1.0,0.8977146530014579,,,,,,,sub-209,1,random_dot,85.51441629168541,
right,right,50.0,0.0,25.0,left,0.0,0.7436078160026227,,speed,space,0.151819828999578,,,,,,0.0,0.0,0.0,1.0,25.0,0.0,50.0,1.0,191.01182618599705,,,,,,,,,191.00326450899595,191.09297668100044,191.88557109699468,191.87597307699616,191.87660117499763,191.88557109699468,191.88557109699468,191.88557109699468,192.65310467499512,,,,,,,,,,,,,,,,,,,,,,,,,,,,,,left,0.0,0.7436078160026227,,,,,,,sub-209,1,random_dot,85.51441629168541,
left,left,51.0,1.0,25.0,right,0.0,1.0125618949969066,,speed,space,0.151819828999578,,,,,,0.0,0.0,0.0,1.0,25.0,1.0,51.0,0.0,192.66925384199567,,,,,,,,,192.65370291900035,192.7434163739963,193.54450230599468,193.5355177389938,193.5360298939995,193.54450230599468,193.54450230599468,193.54450230599468,194.57011358299496,,,,,,,,,,,,,,,,,,,,,,,,,,,,,,right,0.0,1.0125618949969066,,,,,,,sub-209,1,random_dot,85.51441629168541,
right,right,52.0,0.0,26.0,right,1.0,0.7793771979995654,,speed,space,0.151819828999578,,,,,,0.0,0.0,0.0,1.0,26.0,0.0,52.0,1.0,194.5793765559938,,,,,,,,,194.5706765219948,195.3684299339948,196.1606709789994,196.15193631899456,196.15244808599527,196.1606709789994,196.1606709789994,196.1606709789994,196.9462975159986,,,,,,,,,,,,,,,,,,,,,,,,,,,,,,right,1.0,0.7793771979995654,,,,,,,sub-209,1,random_dot,85.51441629168541,
left,left,53.0,1.0,26.0,right,0.0,1.0593167039987748,,speed,space,0.151819828999578,,,,,,0.0,0.0,0.0,1.0,26.0,1.0,53.0,0.0,196.9561997130004,,,,,,,,,196.9465899459974,197.74200580199977,198.53563671199663,198.5256477579969,198.5262694339981,198.53563671199663,198.53563671199663,198.53563671199663,199.602315377997,,,,,,,,,,,,,,,,,,,,,,,,,,,,,,right,0.0,1.0593167039987748,,,,,,,sub-209,1,random_dot,85.51441629168541,
right,right,54.0,0.0,27.0,right,1.0,1.435789458999352,,speed,space,0.151819828999578,,,,,,0.0,0.0,0.0,1.0,27.0,0.0,54.0,1.0,199.6123290789983,,,,,,,,,199.60268469099535,200.39194245699764,201.18506249899656,201.17560131599748,201.17618690499512,201.18506249899656,201.18506249899656,201.18506249899656,202.62387741400016,,,,,,,,,,,,,,,,,,,,,,,,,,,,,,right,1.0,1.435789458999352,,,,,,,sub-209,1,random_dot,85.51441629168541,
left,left,55.0,1.0,27.0,right,0.0,1.1935232729956624,,speed,space,0.151819828999578,,,,,,0.0,0.0,0.0,1.0,27.0,1.0,55.0,0.0,202.6351176579992,,,,,,,,,202.62413902399567,202.96855848599807,203.7611635079957,203.7520208049973,203.75256370900024,203.7611635079957,203.7611635079957,203.7611635079957,204.96313576099783,,,,,,,,,,,,,,,,,,,,,,,,,,,,,,right,0.0,1.1935232729956624,,,,,,,sub-209,1,random_dot,85.51441629168541,
right,right,56.0,0.0,28.0,right,1.0,1.1822695480004768,,speed,space,0.151819828999578,,,,,,0.0,0.0,0.0,1.0,28.0,0.0,56.0,1.0,204.9729171169965,,,,,,,,,204.9635201469937,205.05933948799796,205.8524307539992,205.8424917559969,205.8429699679982,205.8524307539992,205.8524307539992,205.8524307539992,207.036317014994,,,,,,,,,,,,,,,,,,,,,,,,,,,,,,right,1.0,1.1822695480004768,,,,,,,sub-209,1,random_dot,85.51441629168541,
left,left,57.0,1.0,28.0,left,1.0,1.0690031109988922,,speed,space,0.151819828999578,,,,,,0.0,0.0,0.0,1.0,28.0,1.0,57.0,0.0,207.04312560099788,,,,,,,,,207.03657629499503,207.1351529479944,207.92769626799415,207.91868489999612,207.91920105099416,207.92769626799415,207.92769626799415,207.92769626799415,209.0020890339947,,,,,,,,,,,,,,,,,,,,,,,,,,,,,,left,1.0,1.0690031109988922,,,,,,,sub-209,1,random_dot,85.51441629168541,
left,left,58.0,0.0,29.0,left,1.0,1.0083900120007456,,speed,space,0.151819828999578,,,,,,0.0,0.0,0.0,1.0,29.0,0.0,58.0,0.0,209.00997074199404,,,,,,,,,209.00234570099565,209.7918589569963,210.5851119449944,210.57550895699387,210.57613379899703,210.5851119449944,210.5851119449944,210.5851119449944,211.59730219299672,,,,,,,,,,,,,,,,,,,,,,,,,,,,,,left,1.0,1.0083900120007456,,,,,,,sub-209,1,random_dot,85.51441629168541,
right,right,59.0,1.0,29.0,right,1.0,1.5174453790023108,,speed,space,0.151819828999578,,,,,,0.0,0.0,0.0,1.0,29.0,1.0,59.0,1.0,211.6069385679948,,,,,,,,,211.59759924899845,211.9418346539969,212.73498620499595,212.7254292279977,212.72605442599888,212.73498620499595,212.73498620499595,212.73498620499595,214.25716588000068,,,,,,,,,,,,,,,,,,,,,,,,,,,,,,right,1.0,1.5174453790023108,,,,,,,sub-209,1,random_dot,85.51441629168541,
,,0.0,0.0,0.0,,,,,speed,space,0.151819828999578,,,,,,0.0,0.0,0.0,1.0,,,,,,,,,,,,,,,,,,,,,,,,,,,,,,,,,,,,,,,,,,,,,,,,,,,,,,,,,,,,,sub-209,1,random_dot,85.51441629168541,
left,left,0.0,0.0,0.0,right,0.0,1.3542128240005695,,accuracy,space,1.7751700239969068,,,,,,0.0,1.0,1.0,0.0,0.0,0.0,0.0,0.0,216.0662651169987,,,,,,,,,216.0566301229992,216.1417919710002,216.9350631519992,216.92541892399456,216.9260793479989,216.9350631519992,216.9350631519992,216.9350631519992,218.30316972400036,,,,,,,,,,,,,,,,,,,,,,,214.2668222709981,214.27510075699684,214.27510075699684,216.05236335600057,space,1.7751700239969068,,right,0.0,1.3542128240005695,,,,,,,sub-209,1,random_dot,85.51441629168541,
right,right,1.0,1.0,0.0,right,1.0,1.0982437639977434,,accuracy,space,1.7751700239969068,,,,,,0.0,1.0,1.0,0.0,0.0,1.0,1.0,1.0,218.31260870299596,,,,,,,,,218.30379039599936,218.4017832009995,219.19368540700088,219.18496416799465,219.1854747409961,219.19368540700088,219.19368540700088,219.19368540700088,220.29570006399445,,,,,,,,,,,,,,,,,,,,,,,,,,,,,,right,1.0,1.0982437639977434,,,,,,,sub-209,1,random_dot,85.51441629168541,
left,left,2.0,0.0,1.0,left,1.0,0.8447740429983241,,accuracy,space,1.7751700239969068,,,,,,0.0,1.0,1.0,0.0,1.0,0.0,2.0,0.0,220.3058672879997,,,,,,,,,220.2959624110008,220.6417037089996,221.43436654899412,221.42532855699392,221.4260068959993,221.43436654899412,221.43436654899412,221.43436654899412,222.28571873699548,,,,,,,,,,,,,,,,,,,,,,,,,,,,,,left,1.0,0.8447740429983241,,,,,,,sub-209,1,random_dot,85.51441629168541,
right,right,3.0,1.0,1.0,left,0.0,0.8540683980027097,,accuracy,space,1.7751700239969068,,,,,,0.0,1.0,1.0,0.0,1.0,1.0,3.0,1.0,222.2941743949996,,,,,,,,,222.2860403919985,223.0847134739961,223.87781735899625,223.86836510599824,223.8688773850008,223.87781735899625,223.87781735899625,223.87781735899625,224.74116071599565,,,,,,,,,,,,,,,,,,,,,,,,,,,,,,left,0.0,0.8540683980027097,,,,,,,sub-209,1,random_dot,85.51441629168541,
right,right,4.0,0.0,2.0,left,0.0,0.8859591979999095,,accuracy,space,1.7751700239969068,,,,,,0.0,1.0,1.0,0.0,2.0,0.0,4.0,1.0,224.7516524649982,,,,,,,,,224.74155138799688,225.93449642400083,226.72694881799544,226.71815471399896,226.7186772149944,226.72694881799544,226.72694881799544,226.72694881799544,227.61846475600032,,,,,,,,,,,,,,,,,,,,,,,,,,,,,,left,0.0,0.8859591979999095,,,,,,,sub-209,1,random_dot,85.51441629168541,
left,left,5.0,1.0,2.0,right,0.0,0.7037440860003699,,accuracy,space,1.7751700239969068,,,,,,0.0,1.0,1.0,0.0,2.0,1.0,5.0,0.0,227.6264134349985,,,,,,,,,227.6187317959993,228.4081667089995,229.2019303829948,229.19141861999375,229.19204341599837,229.2019303829948,229.2019303829948,229.2019303829948,229.91133949600044,,,,,,,,,,,,,,,,,,,,,,,,,,,,,,right,0.0,0.7037440860003699,,,,,,,sub-209,1,random_dot,85.51441629168541,
left,left,6.0,0.0,3.0,left,1.0,0.7583763660004479,,accuracy,space,1.7751700239969068,,,,,,0.0,1.0,1.0,0.0,3.0,0.0,6.0,0.0,229.93404244799603,,,,,,,,,229.91160561300055,230.0087789639947,230.801344831998,230.79182435899563,230.7924146309961,230.801344831998,230.801344831998,230.801344831998,231.56216823099385,,,,,,,,,,,,,,,,,,,,,,,,,,,,,,left,1.0,0.7583763660004479,,,,,,,sub-209,1,random_dot,85.51441629168541,
right,right,7.0,1.0,3.0,left,0.0,0.9791485440000542,,accuracy,space,1.7751700239969068,,,,,,0.0,1.0,1.0,0.0,3.0,1.0,7.0,1.0,231.5725204929986,,,,,,,,,231.56246955299864,232.3581568139998,233.1514712360004,233.1418332489993,233.1424549469957,233.1514712360004,233.1514712360004,233.1514712360004,234.13592366999364,,,,,,,,,,,,,,,,,,,,,,,,,,,,,,left,0.0,0.9791485440000542,,,,,,,sub-209,1,random_dot,85.51441629168541,
left,left,8.0,0.0,4.0,right,0.0,0.8672753930004546,,accuracy,space,1.7751700239969068,,,,,,0.0,1.0,1.0,0.0,4.0,0.0,8.0,0.0,234.1446578799951,,,,,,,,,234.1362066169968,234.48482894499463,235.27723086699552,235.26823874699767,235.26875246999407,235.27723086699552,235.27723086699552,235.27723086699552,236.15173524299465,,,,,,,,,,,,,,,,,,,,,,,,,,,,,,right,0.0,0.8672753930004546,,,,,,,sub-209,1,random_dot,85.51441629168541,
right,right,9.0,1.0,4.0,right,1.0,1.9987370000017108,,accuracy,space,1.7751700239969068,,,,,,0.0,1.0,1.0,0.0,4.0,1.0,9.0,1.0,236.15942441899824,,,,,,,,,236.1521051249947,237.3414637559981,238.1345912809993,238.1250463789984,238.125696698,238.1345912809993,238.1345912809993,238.1345912809993,240.1349158879966,,,,,,,,,,,,,,,,,,,,,,,,,,,,,,right,1.0,1.9987370000017108,,,,,,,sub-209,1,random_dot,85.51441629168541,
left,left,10.0,0.0,5.0,right,0.0,0.8183304620033596,,accuracy,space,1.7751700239969068,,,,,,0.0,1.0,1.0,0.0,5.0,0.0,10.0,0.0,240.15188260300056,,,,,,,,,240.1351806159946,241.3247285999969,242.1179091629965,242.10835640399452,242.1089837649997,242.1179091629965,242.1179091629965,242.1179091629965,242.9469724409937,,,,,,,,,,,,,,,,,,,,,,,,,,,,,,right,0.0,0.8183304620033596,,,,,,,sub-209,1,random_dot,85.51441629168541,
right,right,11.0,1.0,5.0,right,1.0,3.4315086220012745,,accuracy,space,1.7751700239969068,,,,,,0.0,1.0,1.0,0.0,5.0,1.0,11.0,1.0,242.95618782199745,,,,,,,,,242.9473977969974,243.29186348899384,244.0846446859941,244.075077812995,244.07569736099688,244.0846446859941,244.0846446859941,244.0846446859941,247.52428567799507,,,,,,,,,,,,,,,,,,,,,,,,,,,,,,right,1.0,3.4315086220012745,,,,,,,sub-209,1,random_dot,85.51441629168541,
left,left,12.0,0.0,6.0,right,0.0,1.2783592369960388,,accuracy,space,1.7751700239969068,,,,,,0.0,1.0,1.0,0.0,6.0,0.0,12.0,0.0,247.53472332399545,,,,,,,,,247.52460590699772,247.8679814329953,248.66043377899769,248.65141711699837,248.651927946994,248.66043377899769,248.66043377899769,248.66043377899769,249.9519518559973,,,,,,,,,,,,,,,,,,,,,,,,,,,,,,right,0.0,1.2783592369960388,,,,,,,sub-209,1,random_dot,85.51441629168541,
right,right,13.0,1.0,6.0,left,0.0,0.8833091440028511,,accuracy,space,1.7751700239969068,,,,,,0.0,1.0,1.0,0.0,6.0,1.0,13.0,1.0,249.96812594199585,,,,,,,,,249.95249175299975,250.74128902899972,251.5346001939979,251.52500573399448,251.52561192699795,251.5346001939979,251.5346001939979,251.5346001939979,252.41916008800035,,,,,,,,,,,,,,,,,,,,,,,,,,,,,,left,0.0,0.8833091440028511,,,,,,,sub-209,1,random_dot,85.51441629168541,
right,right,14.0,0.0,7.0,left,0.0,1.5471600519958884,,accuracy,space,1.7751700239969068,,,,,,0.0,1.0,1.0,0.0,7.0,0.0,14.0,1.0,252.42592635999608,,,,,,,,,252.41943174100012,253.6176835389997,254.4104082729973,254.4013936939955,254.40190581099887,254.4104082729973,254.4104082729973,254.4104082729973,255.96879926199472,,,,,,,,,,,,,,,,,,,,,,,,,,,,,,left,0.0,1.5471600519958884,,,,,,,sub-209,1,random_dot,85.51441629168541,
left,left,15.0,1.0,7.0,right,0.0,1.378464810004516,,accuracy,space,1.7751700239969068,,,,,,0.0,1.0,1.0,0.0,7.0,1.0,15.0,0.0,255.9777774719987,,,,,,,,,255.9691188519937,256.05845294900064,256.8511330159963,256.84135084599984,256.84183151499747,256.8511330159963,256.8511330159963,256.8511330159963,258.2352964149977,,,,,,,,,,,,,,,,,,,,,,,,,,,,,,right,0.0,1.378464810004516,,,,,,,sub-209,1,random_dot,85.51441629168541,
left,left,16.0,0.0,8.0,left,1.0,1.672469358003582,,accuracy,space,1.7751700239969068,,,,,,0.0,1.0,1.0,0.0,8.0,0.0,16.0,0.0,258.2436877919972,,,,,,,,,258.235584557995,259.0342846929998,259.8269734019996,259.81794024799456,259.8184807289945,259.8269734019996,259.8269734019996,259.8269734019996,261.50208996499714,,,,,,,,,,,,,,,,,,,,,,,,,,,,,,left,1.0,1.672469358003582,,,,,,,sub-209,1,random_dot,85.51441629168541,
right,right,17.0,1.0,8.0,right,1.0,1.1618003149997094,,accuracy,space,1.7751700239969068,,,,,,0.0,1.0,1.0,0.0,8.0,1.0,17.0,1.0,261.51062910399924,,,,,,,,,261.50235599399457,262.3009244549976,263.09342320699943,263.08454791899567,263.085092452995,263.09342320699943,263.09342320699943,263.09342320699943,264.2623015739955,,,,,,,,,,,,,,,,,,,,,,,,,,,,,,right,1.0,1.1618003149997094,,,,,,,sub-209,1,random_dot,85.51441629168541,
right,right,18.0,0.0,9.0,left,0.0,1.1593965049978578,,accuracy,space,1.7751700239969068,,,,,,0.0,1.0,1.0,0.0,9.0,0.0,18.0,1.0,264.2720393349955,,,,,,,,,264.2626438909938,265.05785060799826,265.850777353,265.842049218998,265.8425268369974,265.850777353,265.850777353,265.850777353,267.0126462650005,,,,,,,,,,,,,,,,,,,,,,,,,,,,,,left,0.0,1.1593965049978578,,,,,,,sub-209,1,random_dot,85.51441629168541,
left,left,19.0,1.0,9.0,left,1.0,2.176187375000154,,accuracy,space,1.7751700239969068,,,,,,0.0,1.0,1.0,0.0,9.0,1.0,19.0,0.0,267.02260735699383,,,,,,,,,267.0130397649991,267.3577303899947,268.15093030099524,268.14138914999785,268.1420048649961,268.15093030099524,268.15093030099524,268.15093030099524,270.3352085999941,,,,,,,,,,,,,,,,,,,,,,,,,,,,,,left,1.0,2.176187375000154,,,,,,,sub-209,1,random_dot,85.51441629168541,
left,left,20.0,0.0,10.0,right,0.0,0.8252719869997236,,accuracy,space,1.7751700239969068,,,,,,0.0,1.0,1.0,0.0,10.0,0.0,20.0,0.0,270.3434554419946,,,,,,,,,270.3355803230006,271.1340532929971,271.92678923600033,271.9177638389956,271.9182765579972,271.92678923600033,271.92678923600033,271.92678923600033,272.7564865109962,,,,,,,,,,,,,,,,,,,,,,,,,,,,,,right,0.0,0.8252719869997236,,,,,,,sub-209,1,random_dot,85.51441629168541,
right,right,21.0,1.0,10.0,right,1.0,1.688922264998837,,accuracy,space,1.7751700239969068,,,,,,0.0,1.0,1.0,0.0,10.0,1.0,21.0,1.0,272.7675585179968,,,,,,,,,272.7567419879997,272.85435527399386,273.650917258994,273.6413393929979,273.6419574879983,273.650917258994,273.650917258994,273.650917258994,275.3445041519953,,,,,,,,,,,,,,,,,,,,,,,,,,,,,,right,1.0,1.688922264998837,,,,,,,sub-209,1,random_dot,85.51441629168541,
right,right,22.0,0.0,11.0,left,0.0,1.1366020280038356,,accuracy,space,1.7751700239969068,,,,,,0.0,1.0,1.0,0.0,11.0,0.0,22.0,1.0,275.35448031099804,,,,,,,,,275.34479537199513,276.1409578679959,276.934351125994,276.9246499929941,276.9252724199978,276.934351125994,276.934351125994,276.934351125994,278.0853181939965,,,,,,,,,,,,,,,,,,,,,,,,,,,,,,left,0.0,1.1366020280038356,,,,,,,sub-209,1,random_dot,85.51441629168541,
left,left,23.0,1.0,11.0,right,0.0,1.0214498939967598,,accuracy,space,1.7751700239969068,,,,,,0.0,1.0,1.0,0.0,11.0,1.0,23.0,0.0,278.10106714299764,,,,,,,,,278.08590075299435,278.4342385389973,279.2261922539983,279.21743635399616,279.2179480039995,279.2261922539983,279.2261922539983,279.2261922539983,280.257531256997,,,,,,,,,,,,,,,,,,,,,,,,,,,,,,right,0.0,1.0214498939967598,,,,,,,sub-209,1,random_dot,85.51441629168541,
right,right,24.0,0.0,12.0,left,0.0,0.7208010440008366,,accuracy,space,1.7751700239969068,,,,,,0.0,1.0,1.0,0.0,12.0,0.0,24.0,1.0,280.2677716949984,,,,,,,,,280.2577688659949,281.0559694809999,281.849945158996,281.8402230829961,281.8406575689951,281.849945158996,281.849945158996,281.849945158996,282.5754501079937,,,,,,,,,,,,,,,,,,,,,,,,,,,,,,left,0.0,0.7208010440008366,,,,,,,sub-209,1,random_dot,85.51441629168541,
left,left,25.0,1.0,12.0,right,0.0,1.2071763060012015,,accuracy,space,1.7751700239969068,,,,,,0.0,1.0,1.0,0.0,12.0,1.0,25.0,0.0,282.5838299199968,,,,,,,,,282.5757262659972,283.7734521370003,284.5673630999954,284.5571960640009,284.5578875649953,284.5673630999954,284.5673630999954,284.5673630999954,285.7818636699958,,,,,,,,,,,,,,,,,,,,,,,,,,,,,,right,0.0,1.2071763060012015,,,,,,,sub-209,1,random_dot,85.51441629168541,
left,left,26.0,0.0,13.0,left,1.0,0.7044733579969034,,accuracy,space,1.7751700239969068,,,,,,0.0,1.0,1.0,0.0,13.0,0.0,26.0,0.0,285.79201044199726,,,,,,,,,285.7822497719972,286.1236624749945,286.9178120289944,286.9073573200003,286.90793732900056,286.9178120289944,286.9178120289944,286.9178120289944,287.63520649699785,,,,,,,,,,,,,,,,,,,,,,,,,,,,,,left,1.0,0.7044733579969034,,,,,,,sub-209,1,random_dot,85.51441629168541,
right,right,27.0,1.0,13.0,right,1.0,0.8976915960010956,,accuracy,space,1.7751700239969068,,,,,,0.0,1.0,1.0,0.0,13.0,1.0,27.0,1.0,287.6437849569993,,,,,,,,,287.63565068499884,287.73416438999993,288.5265528689997,288.51753876499424,288.5180520499998,288.5265528689997,288.5265528689997,288.5265528689997,289.43497528299486,,,,,,,,,,,,,,,,,,,,,,,,,,,,,,right,1.0,0.8976915960010956,,,,,,,sub-209,1,random_dot,85.51441629168541,
left,left,28.0,0.0,14.0,left,1.0,0.6258530170016456,,accuracy,space,1.7751700239969068,,,,,,0.0,1.0,1.0,0.0,14.0,0.0,28.0,0.0,289.44416467299743,,,,,,,,,289.43534694599657,289.52465250800014,290.317336686996,290.30773817099544,290.30836421300046,290.317336686996,290.317336686996,290.317336686996,290.9514099839944,,,,,,,,,,,,,,,,,,,,,,,,,,,,,,left,1.0,0.6258530170016456,,,,,,,sub-209,1,random_dot,85.51441629168541,
right,right,29.0,1.0,14.0,right,1.0,1.3970087630004857,,accuracy,space,1.7751700239969068,,,,,,0.0,1.0,1.0,0.0,14.0,1.0,29.0,1.0,290.9605512439957,,,,,,,,,290.9517457129987,291.7504412799972,292.5431445379945,292.5341748409992,292.5346847629989,292.5431445379945,292.5431445379945,292.5431445379945,293.9449831969978,,,,,,,,,,,,,,,,,,,,,,,,,,,,,,right,1.0,1.3970087630004857,,,,,,,sub-209,1,random_dot,85.51441629168541,
right,right,30.0,0.0,15.0,left,0.0,0.7913880289997905,,accuracy,space,1.7751700239969068,,,,,,0.0,1.0,1.0,0.0,15.0,0.0,30.0,1.0,293.9550197089993,,,,,,,,,293.9452777099941,295.1402447359942,295.9345044750007,295.9239462849946,295.92456140499417,295.9345044750007,295.9345044750007,295.9345044750007,296.73413923299813,,,,,,,,,,,,,,,,,,,,,,,,,,,,,,left,0.0,0.7913880289997905,,,,,,,sub-209,1,random_dot,85.51441629168541,
left,left,31.0,1.0,15.0,left,1.0,0.7067189999943366,,accuracy,space,1.7751700239969068,,,,,,0.0,1.0,1.0,0.0,15.0,1.0,31.0,0.0,296.74173463299667,,,,,,,,,296.7344565229941,297.5240377839946,298.3172224049995,298.30762773699826,298.3082562339987,298.3172224049995,298.3172224049995,298.3172224049995,299.0279859599977,,,,,,,,,,,,,,,,,,,,,,,,,,,,,,left,1.0,0.7067189999943366,,,,,,,sub-209,1,random_dot,85.51441629168541,
left,left,32.0,0.0,16.0,right,0.0,0.6806855810064008,,accuracy,space,1.7751700239969068,,,,,,0.0,1.0,1.0,0.0,16.0,0.0,32.0,0.0,299.03737361399544,,,,,,,,,299.0282539139953,299.3742086679995,300.1671419619961,300.15758089899464,300.15820256399456,300.1671419619961,300.1671419619961,300.1671419619961,300.8509973209948,,,,,,,,,,,,,,,,,,,,,,,,,,,,,,right,0.0,0.6806855810064008,,,,,,,sub-209,1,random_dot,85.51441629168541,
right,right,33.0,1.0,16.0,left,0.0,0.9408693430013956,,accuracy,space,1.7751700239969068,,,,,,0.0,1.0,1.0,0.0,16.0,1.0,33.0,1.0,300.8590035189991,,,,,,,,,300.8512566529971,301.19055784399825,301.98383159099467,301.97430762300064,301.9749237959986,301.98383159099467,301.98383159099467,301.98383159099467,302.9345443619968,,,,,,,,,,,,,,,,,,,,,,,,,,,,,,left,0.0,0.9408693430013956,,,,,,,sub-209,1,random_dot,85.51441629168541,
left,left,34.0,0.0,17.0,right,0.0,0.7087488149991259,,accuracy,space,1.7751700239969068,,,,,,0.0,1.0,1.0,0.0,17.0,0.0,34.0,0.0,302.9426737449976,,,,,,,,,302.9348632199981,303.273950140996,304.0678139800002,304.0575834849951,304.0581225239948,304.0678139800002,304.0678139800002,304.0678139800002,304.78428284099937,,,,,,,,,,,,,,,,,,,,,,,,,,,,,,right,0.0,0.7087488149991259,,,,,,,sub-209,1,random_dot,85.51441629168541,
right,right,35.0,1.0,17.0,left,0.0,0.9304190170005312,,accuracy,space,1.7751700239969068,,,,,,0.0,1.0,1.0,0.0,17.0,1.0,35.0,1.0,304.7935385489982,,,,,,,,,304.7847028089964,305.9739562209943,306.7670571029957,306.75752287899377,306.7581400269992,306.7670571029957,306.7670571029957,306.7670571029957,307.7063645449962,,,,,,,,,,,,,,,,,,,,,,,,,,,,,,left,0.0,0.9304190170005312,,,,,,,sub-209,1,random_dot,85.51441629168541,
left,left,36.0,0.0,18.0,left,1.0,0.6924232430028496,,accuracy,space,1.7751700239969068,,,,,,0.0,1.0,1.0,0.0,18.0,0.0,36.0,0.0,307.7170254629964,,,,,,,,,307.706657155999,308.9002816969951,309.692961500994,309.68390933000046,309.6844270369984,309.692961500994,309.692961500994,309.692961500994,310.39475482499984,,,,,,,,,,,,,,,,,,,,,,,,,,,,,,left,1.0,0.6924232430028496,,,,,,,sub-209,1,random_dot,85.51441629168541,
right,right,37.0,1.0,18.0,right,1.0,0.7085366279934533,,accuracy,space,1.7751700239969068,,,,,,0.0,1.0,1.0,0.0,18.0,1.0,37.0,1.0,310.4042192759953,,,,,,,,,310.3951321429995,311.5904560939962,312.383761512996,312.3740702319992,312.37475406999874,312.383761512996,312.383761512996,312.383761512996,313.1011082049954,,,,,,,,,,,,,,,,,,,,,,,,,,,,,,right,1.0,0.7085366279934533,,,,,,,sub-209,1,random_dot,85.51441629168541,
left,left,38.0,0.0,19.0,left,1.0,0.7324022760003572,,accuracy,space,1.7751700239969068,,,,,,0.0,1.0,1.0,0.0,19.0,0.0,38.0,0.0,313.1093284449962,,,,,,,,,313.1014252739988,314.2909629739952,315.0837400639939,315.07416778399784,315.07480046499404,315.0837400639939,315.0837400639939,315.0837400639939,315.81838401999994,,,,,,,,,,,,,,,,,,,,,,,,,,,,,,left,1.0,0.7324022760003572,,,,,,,sub-209,1,random_dot,85.51441629168541,
right,right,39.0,1.0,19.0,left,0.0,0.994027275002736,,accuracy,space,1.7751700239969068,,,,,,0.0,1.0,1.0,0.0,19.0,1.0,39.0,1.0,315.8255377089954,,,,,,,,,315.81870356299623,316.1666301619989,316.959058223998,316.9502849749988,316.9507966729944,316.959058223998,316.959058223998,316.959058223998,317.96132975699584,,,,,,,,,,,,,,,,,,,,,,,,,,,,,,left,0.0,0.994027275002736,,,,,,,sub-209,1,random_dot,85.51441629168541,
left,left,40.0,0.0,20.0,left,1.0,1.2707658169965723,,accuracy,space,1.7751700239969068,,,,,,0.0,1.0,1.0,0.0,20.0,0.0,40.0,0.0,317.9712001589942,,,,,,,,,317.9617075789938,318.7575715950006,319.5502567919975,319.5406865029945,319.54130715000065,319.5502567919975,319.5502567919975,319.5502567919975,320.8226641379952,,,,,,,,,,,,,,,,,,,,,,,,,,,,,,left,1.0,1.2707658169965723,,,,,,,sub-209,1,random_dot,85.51441629168541,
right,right,41.0,1.0,20.0,right,1.0,0.552943687995139,,accuracy,space,1.7751700239969068,,,,,,0.0,1.0,1.0,0.0,20.0,1.0,41.0,1.0,320.8338982099958,,,,,,,,,320.82295115599845,321.6167414449956,322.408919194997,322.40019117799966,322.400704695996,322.408919194997,322.408919194997,322.408919194997,322.9695204699965,,,,,,,,,,,,,,,,,,,,,,,,,,,,,,right,1.0,0.552943687995139,,,,,,,sub-209,1,random_dot,85.51441629168541,
right,right,42.0,0.0,21.0,right,1.0,1.0562570649999543,,accuracy,space,1.7751700239969068,,,,,,0.0,1.0,1.0,0.0,21.0,0.0,42.0,1.0,322.9774242380008,,,,,,,,,322.9698373639985,323.3167038199972,324.10946221099584,324.1004498859984,324.10096460299974,324.10946221099584,324.10946221099584,324.10946221099584,325.16906358999404,,,,,,,,,,,,,,,,,,,,,,,,,,,,,,right,1.0,1.0562570649999543,,,,,,,sub-209,1,random_dot,85.51441629168541,
left,left,43.0,1.0,21.0,right,0.0,3.735548917997221,,accuracy,space,1.7751700239969068,,,,,,0.0,1.0,1.0,0.0,21.0,1.0,43.0,0.0,325.1778238869956,,,,,,,,,325.16939585199725,325.9667460109995,326.7596781129978,326.7503818959958,326.75089806399774,326.7596781129978,326.7596781129978,326.7596781129978,330.50164719999884,,,,,,,,,,,,,,,,,,,,,,,,,,,,,,right,0.0,3.735548917997221,,,,,,,sub-209,1,random_dot,85.51441629168541,
left,left,44.0,0.0,22.0,left,1.0,3.1701406490028603,,accuracy,space,1.7751700239969068,,,,,,0.0,1.0,1.0,0.0,22.0,0.0,44.0,0.0,330.5105995979975,,,,,,,,,330.50196770299954,331.69995540399395,332.4926536989951,332.48358727899904,332.4841059389946,332.4926536989951,332.4926536989951,332.4926536989951,335.6728502900005,,,,,,,,,,,,,,,,,,,,,,,,,,,,,,left,1.0,3.1701406490028603,,,,,,,sub-209,1,random_dot,85.51441629168541,
right,right,45.0,1.0,22.0,right,1.0,3.073655313004565,,accuracy,space,1.7751700239969068,,,,,,0.0,1.0,1.0,0.0,22.0,1.0,45.0,1.0,335.6832774279974,,,,,,,,,335.6731364099978,336.016561769,336.80913658899954,336.800084040995,336.80059939499915,336.80913658899954,336.80913658899954,336.80913658899954,339.8845537699963,,,,,,,,,,,,,,,,,,,,,,,,,,,,,,right,1.0,3.073655313004565,,,,,,,sub-209,1,random_dot,85.51441629168541,
left,left,46.0,0.0,23.0,left,1.0,1.4888026589978836,,accuracy,space,1.7751700239969068,,,,,,0.0,1.0,1.0,0.0,23.0,0.0,46.0,0.0,339.89217225599714,,,,,,,,,339.88481602299726,340.6831339339988,341.4764210499998,341.46658277299866,341.46709305200056,341.4764210499998,341.4764210499998,341.4764210499998,342.9681205289962,,,,,,,,,,,,,,,,,,,,,,,,,,,,,,left,1.0,1.4888026589978836,,,,,,,sub-209,1,random_dot,85.51441629168541,
right,right,47.0,1.0,23.0,right,1.0,1.0718887110051585,,accuracy,space,1.7751700239969068,,,,,,0.0,1.0,1.0,0.0,23.0,1.0,47.0,1.0,342.9770226039982,,,,,,,,,342.96841492299427,343.05808667299425,343.85917800799507,343.85021239199705,343.8507325409955,343.85917800799507,343.85917800799507,343.85917800799507,344.9396600209948,,,,,,,,,,,,,,,,,,,,,,,,,,,,,,right,1.0,1.0718887110051585,,,,,,,sub-209,1,random_dot,85.51441629168541,
right,right,48.0,0.0,24.0,left,0.0,0.7862652099938714,,accuracy,space,1.7751700239969068,,,,,,0.0,1.0,1.0,0.0,24.0,0.0,48.0,1.0,344.9499169549963,,,,,,,,,344.9399834939977,345.7336561129996,346.52566994699737,346.51651211999706,346.5170262440006,346.52566994699737,346.52566994699737,346.52566994699737,347.3169685019966,,,,,,,,,,,,,,,,,,,,,,,,,,,,,,left,0.0,0.7862652099938714,,,,,,,sub-209,1,random_dot,85.51441629168541,
left,left,49.0,1.0,24.0,left,1.0,0.77101514700189,,accuracy,space,1.7751700239969068,,,,,,0.0,1.0,1.0,0.0,24.0,1.0,49.0,0.0,347.3248311549978,,,,,,,,,347.3172328869987,347.4066478499953,348.19986607899773,348.1902940199943,348.19091926299734,348.19986607899773,348.19986607899773,348.19986607899773,348.97760335199564,,,,,,,,,,,,,,,,,,,,,,,,,,,,,,left,1.0,0.77101514700189,,,,,,,sub-209,1,random_dot,85.51441629168541,
left,left,50.0,0.0,25.0,left,1.0,0.8704343360004714,,accuracy,space,1.7751700239969068,,,,,,0.0,1.0,1.0,0.0,25.0,0.0,50.0,0.0,348.98752854999475,,,,,,,,,348.9779441149949,349.7732908679973,350.5664859649987,350.5569633479972,350.55755159699765,350.5664859649987,350.5664859649987,350.5664859649987,351.444803595994,,,,,,,,,,,,,,,,,,,,,,,,,,,,,,left,1.0,0.8704343360004714,,,,,,,sub-209,1,random_dot,85.51441629168541,
right,right,51.0,1.0,25.0,left,0.0,1.1796795810005278,,accuracy,space,1.7751700239969068,,,,,,0.0,1.0,1.0,0.0,25.0,1.0,51.0,1.0,351.45484517699515,,,,,,,,,351.44522272399627,352.6399553859956,353.4330310179939,353.4234965299984,353.42411132800044,353.4330310179939,353.4330310179939,353.4330310179939,354.6227999219991,,,,,,,,,,,,,,,,,,,,,,,,,,,,,,left,0.0,1.1796795810005278,,,,,,,sub-209,1,random_dot,85.51441629168541,
right,right,52.0,0.0,26.0,right,1.0,1.114544746997126,,accuracy,space,1.7751700239969068,,,,,,0.0,1.0,1.0,0.0,26.0,0.0,52.0,1.0,354.6331561799961,,,,,,,,,354.6231725299949,354.9663688379951,355.759003526,355.75000945699867,355.7505191809978,355.759003526,355.759003526,355.759003526,356.8770015619957,,,,,,,,,,,,,,,,,,,,,,,,,,,,,,right,1.0,1.114544746997126,,,,,,,sub-209,1,random_dot,85.51441629168541,
left,left,53.0,1.0,26.0,left,1.0,0.7862727179963258,,accuracy,space,1.7751700239969068,,,,,,0.0,1.0,1.0,0.0,26.0,1.0,53.0,0.0,356.8867627159998,,,,,,,,,356.87726474100054,356.9737772209992,357.7663587539937,357.7567595619985,357.7573865759987,357.7663587539937,357.7663587539937,357.7663587539937,358.56102966400067,,,,,,,,,,,,,,,,,,,,,,,,,,,,,,left,1.0,0.7862727179963258,,,,,,,sub-209,1,random_dot,85.51441629168541,
left,left,54.0,0.0,27.0,right,0.0,0.8198411609992036,,accuracy,space,1.7751700239969068,,,,,,0.0,1.0,1.0,0.0,27.0,0.0,54.0,0.0,358.57018201599567,,,,,,,,,358.56140771599894,359.756478421994,360.5496311850002,360.5401153829953,360.5407055579999,360.5496311850002,360.5496311850002,360.5496311850002,361.3774070629952,,,,,,,,,,,,,,,,,,,,,,,,,,,,,,right,0.0,0.8198411609992036,,,,,,,sub-209,1,random_dot,85.51441629168541,
right,right,55.0,1.0,27.0,right,1.0,0.7181304220066522,,accuracy,space,1.7751700239969068,,,,,,0.0,1.0,1.0,0.0,27.0,1.0,55.0,1.0,361.3874030509978,,,,,,,,,361.3777384139976,362.173710336996,362.9662251389964,362.9567071229976,362.9572951890004,362.9662251389964,362.9662251389964,362.9662251389964,363.688495426999,,,,,,,,,,,,,,,,,,,,,,,,,,,,,,right,1.0,0.7181304220066522,,,,,,,sub-209,1,random_dot,85.51441629168541,
right,right,56.0,0.0,28.0,right,1.0,1.3691681499985862,,accuracy,space,1.7751700239969068,,,,,,0.0,1.0,1.0,0.0,28.0,0.0,56.0,1.0,363.6996916899952,,,,,,,,,363.6887524619961,364.88272690300073,365.67502606500057,365.6663171359978,365.6668295889976,365.67502606500057,365.67502606500057,365.67502606500057,367.0552390519952,,,,,,,,,,,,,,,,,,,,,,,,,,,,,,right,1.0,1.3691681499985862,,,,,,,sub-209,1,random_dot,85.51441629168541,
left,left,57.0,1.0,28.0,left,1.0,1.5961559709976427,,accuracy,space,1.7751700239969068,,,,,,0.0,1.0,1.0,0.0,28.0,1.0,57.0,0.0,367.0660828709952,,,,,,,,,367.0558237149962,367.1495371559941,367.9421758459939,367.9331752319995,367.9336888269973,367.9421758459939,367.9421758459939,367.9421758459939,369.544173272996,,,,,,,,,,,,,,,,,,,,,,,,,,,,,,left,1.0,1.5961559709976427,,,,,,,sub-209,1,random_dot,85.51441629168541,
left,left,58.0,0.0,29.0,left,1.0,1.134247755006072,,accuracy,space,1.7751700239969068,,,,,,0.0,1.0,1.0,0.0,29.0,0.0,58.0,0.0,369.5538296640007,,,,,,,,,369.5444615909946,370.7396800419956,371.53288458699535,371.5233089339963,371.5239307039956,371.53288458699535,371.53288458699535,371.53288458699535,372.6766321069954,,,,,,,,,,,,,,,,,,,,,,,,,,,,,,left,1.0,1.134247755006072,,,,,,,sub-209,1,random_dot,85.51441629168541,
right,right,59.0,1.0,29.0,left,0.0,1.0856808539974736,,accuracy,space,1.7751700239969068,,,,,,0.0,1.0,1.0,0.0,29.0,1.0,59.0,1.0,372.6873402399942,,,,,,,,,372.67701398699865,373.87351875699824,374.6661191370004,374.6565458379992,374.6571659289984,374.6661191370004,374.6661191370004,374.6661191370004,375.7562819710001,,,,,,,,,,,,,,,,,,,,,,,,,,,,,,left,0.0,1.0856808539974736,,,,,,,sub-209,1,random_dot,85.51441629168541,
,,1.0,1.0,0.0,,,,,accuracy,space,1.7751700239969068,,,,,,0.0,1.0,1.0,0.0,,,,,,,,,,,,,,,,,,,,,,,,,,,,,,,,,,,,,,,,,,,,,,,,,,,,,,,,,,,,,sub-209,1,random_dot,85.51441629168541,
,,,,,,,,,,,,,,,,,,,,,,,,,,,,,,,,,,,,,,,,,,,,,,,,,,,,,,,,,,,,,,,,,,,,,,,,,,,,,375.7601377589963,375.77195806599775,380.7654626269941,380.7562664559955,sub-209,1,random_dot,85.51441629168541,
