direction,corrAns,randomInstr,practice_trials.thisRepN,practice_trials.thisTrialN,practice_trials.thisN,practice_trials.thisIndex,instr_trials.thisRepN,instr_trials.thisTrialN,instr_trials.thisN,instr_trials.thisIndex,test_trials.thisRepN,test_trials.thisTrialN,test_trials.thisN,test_trials.thisIndex,thisRow.t,notes,general_instruction.started,textGeneralInstr.started,respGeneralInstr.started,general_instruction.stopped,respGeneralInstr.keys,respGeneralInstr.rt,respGeneralInstr.duration,ITI.started,fixcross.started,fixcross.stopped,ITI.stopped,dots.started,backgroundDots.started,stimulusDots.started,respDots.started,dots.stopped,respDots.keys,respDots.corr,respDots.rt,respDots.duration,feedback.started,textFeedback.started,feedback.stopped,stimulusDots.stopped,textFeedback.stopped,info.started,textInfo.started,keyRespInfo.started,info.stopped,keyRespInfo.keys,keyRespInfo.rt,keyRespInfo.duration,test_instruction.started,textTestInstr.started,respTestInstr.started,test_instruction.stopped,respTestInstr.keys,respTestInstr.rt,respTestInstr.duration,random_instruction.started,textRandomInstr.started,respRandomInstr.started,random_instruction.stopped,respRandomInstr.keys,respRandomInstr.rt,respRandomInstr.duration,goodbye.started,textGoodbye.started,textGoodbye.stopped,goodbye.stopped,participant,session,expName,frameRate,Unnamed: 74
,,,,,,,,,,,,,,,,,0.0060696000000461,0.0212334999814629,0.0212334999814629,19.773181100026704,space,112.99141149991192,,,,,,,,,,,,,,,,,,,,,,,,,,,,,,,,,,,,,,,,,,,,,sub-239,3.0,random_dot,60.01817350157759,
left,left,,0.0,0.0,0.0,0.0,,,,,,,,,20.2090457000304,,,,,,,,,20.19816449994687,20.2090457000304,21.034296300029386,21.004511900013316,21.004574800026603,21.034296300029386,21.034296300029386,21.034296300029386,24.672767599928196,right,0.0,96.87205220002215,,24.676928899949417,24.70656419999432,25.186050300020725,,,,,,,,,,,,,,,,,,,,,,,,,,,,sub-239,3.0,random_dot,60.01817350157759,
right,right,,0.0,1.0,1.0,1.0,,,,,,,,,25.20234900002833,,,,,,,,,25.1871515000239,25.285668900003657,26.086385200032964,26.070395599934272,26.070458499947563,26.086385200032964,26.086385200032964,26.086385200032964,30.83859469997697,right,1.0,97.98345719999634,,30.840208799927492,30.86655709997285,31.351792500005104,,,,,,,,,,,,,,,,,,,,,,,,,,,,sub-239,3.0,random_dot,60.01817350157759,
right,right,,1.0,0.0,2.0,1.0,,,,,,,,,31.368354100035504,,,,,,,,,31.35290639998857,32.15154290001374,32.95221939997282,32.93621840002015,32.936279400018975,32.95221939997282,32.95221939997282,32.95221939997282,39.85415169992484,left,0.0,100.13164859998506,,39.85575390001759,39.87307410000358,40.36746540002059,37.95154599996749,,,,,,,,,,,,,,,,,,,,,,,,,,,sub-239,3.0,random_dot,60.01817350157759,
left,left,,1.0,1.0,3.0,0.0,,,,,,,,,40.38373430003412,,,,,,,,,40.36855449993163,41.166948799975216,41.96772399998736,41.95185900002252,41.951923099928536,41.96772399998736,41.96772399998736,41.96772399998736,47.61972960003186,right,0.0,98.882895299932,,47.62139739992563,47.63295739993919,48.11751140002161,46.9669577999739,48.13269619992934,,,,,,,,,,,,,,,,,,,,,,,,,,sub-239,3.0,random_dot,60.01817350157759,
left,left,,2.0,0.0,4.0,0.0,,,,,,,,,48.13269619992934,,,,,,,,,48.11860509996768,48.23261109995656,49.03306960000191,49.01625809993129,49.01629189995583,49.03306960000191,49.03306960000191,49.03306960000191,55.32820450002328,right,0.0,99.52786150004248,,55.33066460001282,55.33920809999108,55.832063999958336,54.0161334000295,,,,,,,,,,,,,,,,,,,,,,,,,,,sub-239,3.0,random_dot,60.01817350157759,
right,right,,2.0,1.0,5.0,1.0,,,,,,,,,55.8484627000289,,,,,,,,,55.83317410002928,57.03175329999067,57.83247599995229,57.81637320003938,57.81648779998068,57.83247599995229,57.83247599995229,57.83247599995229,62.93496919993777,left,0.0,98.33885399997234,,62.93663409992587,62.9474029999692,63.432282499969006,62.83177479996812,63.44752119993791,,,,,,,,,,,,,,,,,,,,,,,,,,sub-239,3.0,random_dot,60.01817350157759,
left,left,,3.0,0.0,6.0,0.0,,,,,,,,,63.44752119993791,,,,,,,,,63.43361629999709,64.64744099997915,65.44803269999102,65.43205239996314,65.43211449997034,65.44803269999102,65.44803269999102,65.44803269999102,71.43351759994403,right,0.0,99.22160769987386,,71.43513839994557,71.44632029999048,71.93117230001371,70.44734850001987,71.94632769993041,,,,,,,,,,,,,,,,,,,,,,,,,,sub-239,3.0,random_dot,60.01817350157759,
right,right,,3.0,1.0,7.0,1.0,,,,,,,,,71.94632769993041,,,,,,,,,71.9322964999592,72.04641219996847,72.84710399992764,72.8309476999566,72.83102369995322,72.84710399992764,72.84710399992764,72.84710399992764,79.66590639995411,right,1.0,100.05860170000231,,79.66755909996573,79.68539480003528,80.17889610002749,77.84644330001902,,,,,,,,,,,,,,,,,,,,,,,,,,,sub-239,3.0,random_dot,60.01817350157759,
right,right,,4.0,0.0,8.0,1.0,,,,,,,,,80.19527879997622,,,,,,,,,80.1799901999766,80.27853739995044,81.07927600003313,81.06337739992887,81.0634401999414,81.07927600003313,81.07927600003313,81.07927600003313,87.13145620003343,right,1.0,99.29232789995147,,87.13310340000317,87.14432069996838,87.62946269998793,86.07872260001022,87.64424709999003,,,,,,,,,,,,,,,,,,,,,,,,,,sub-239,3.0,random_dot,60.01817350157759,
left,left,,4.0,1.0,9.0,0.0,,,,,,,,,87.64424709999003,,,,,,,,,87.63060109992512,87.99419360002503,88.79497479996644,88.77896689996123,88.77902979997452,88.79497479996644,88.79497479996644,88.79497479996644,94.69698859995697,right,0.0,99.14488329994492,,94.69868599995972,94.7168722000206,95.21049720002338,93.79427930002566,,,,,,,,,,,,,,,,,,,,,,,,,,,sub-239,3.0,random_dot,60.01817350157759,
right,right,,5.0,0.0,10.0,1.0,,,,,,,,,95.22660890000408,,,,,,,,,95.21160789998248,95.31004899996331,96.11091869999656,96.09483339998404,96.09489539999048,96.11091869999656,96.11091869999656,96.11091869999656,101.96281749999616,left,0.0,99.0948672000086,,101.96433590003288,101.9757588999346,102.46061690000352,101.1100221000379,102.4757166999625,,,,,,,,,,,,,,,,,,,,,,,,,,sub-239,3.0,random_dot,60.01817350157759,
left,left,,5.0,1.0,11.0,0.0,,,,,,,,,102.4757166999625,,,,,,,,,102.46176269999704,102.57566129998304,103.37649209995288,103.36037220002618,103.36043460003566,103.37649209995288,103.37649209995288,103.37649209995288,109.69522280001549,left,1.0,99.55114029999822,,109.69689659995493,109.7133095000172,110.20851140003651,108.37568599998484,,,,,,,,,,,,,,,,,,,,,,,,,,,sub-239,3.0,random_dot,60.01817350157759,
right,right,,6.0,0.0,12.0,1.0,,,,,,,,,110.22484199993778,,,,,,,,,110.2095902999863,110.5580922999652,111.35870839993004,111.34275790001266,111.3428207000252,111.35870839993004,111.35870839993004,111.35870839993004,117.01077970000917,right,1.0,98.88930619996972,,117.01230780000331,117.02382619993296,117.5087796000298,116.3580933000194,117.52369009994436,,,,,,,,,,,,,,,,,,,,,,,,,,sub-239,3.0,random_dot,60.01817350157759,
left,left,,6.0,1.0,13.0,0.0,,,,,,,,,117.52369009994436,,,,,,,,,117.5099215999944,117.6237320000073,118.42448489996605,118.40844779997131,118.40850809996482,118.42448489996605,118.42448489996605,118.42448489996605,124.34298720001244,right,0.0,99.15133059991058,,124.34469089994673,124.362526300014,124.85659969993868,123.42385339993052,,,,,,,,,,,,,,,,,,,,,,,,,,,sub-239,3.0,random_dot,60.01817350157759,
right,right,,7.0,0.0,14.0,1.0,,,,,,,,,124.87289779994173,,,,,,,,,124.85774210002272,124.95614549994934,125.7569419000065,125.74101480003446,125.741076999926,125.7569419000065,125.7569419000065,125.7569419000065,131.5589054999873,left,0.0,99.03462929988746,,131.5605169000337,131.57188469998073,132.05680789996404,130.75619500002358,132.07195160002448,,,,,,,,,,,,,,,,,,,,,,,,,,sub-239,3.0,random_dot,60.01817350157759,
left,left,,7.0,1.0,15.0,0.0,,,,,,,,,132.07195160002448,,,,,,,,,132.0579704999691,132.4220676999539,133.22254979994614,133.20651569997426,133.2065786999883,133.22254979994614,133.22254979994614,133.22254979994614,139.17439920001198,right,0.0,99.18569750001188,,139.17612179997377,139.1875511999242,139.67238280002493,138.22181260003708,139.68762989994138,,,,,,,,,,,,,,,,,,,,,,,,,,sub-239,3.0,random_dot,60.01817350157759,
right,right,,8.0,0.0,16.0,1.0,,,,,,,,,139.68762989994138,,,,,,,,,139.6735067999689,139.78756349999458,140.5882655000314,140.57235999999102,140.57242219999898,140.5882655000314,140.5882655000314,140.5882655000314,146.34022519993596,right,1.0,98.99513219995424,,146.3418409000151,146.35936250002123,146.8537010999862,145.5876947999932,,,,,,,,,,,,,,,,,,,,,,,,,,,sub-239,3.0,random_dot,60.01817350157759,
left,left,,8.0,1.0,17.0,0.0,,,,,,,,,146.8701045999769,,,,,,,,,146.8547941999277,146.95332790003158,147.75416100001894,147.73800060001668,147.7380637000315,147.75416100001894,147.75416100001894,147.75416100001894,149.63984229997732,left,1.0,95.1259758999804,,149.64144429995213,149.65293909993488,150.13768079993315,,150.15283779997844,,,,,,,,,,,,,,,,,,,,,,,,,,sub-239,3.0,random_dot,60.01817350157759,
right,right,,9.0,0.0,18.0,1.0,,,,,,,,,150.15283779997844,,,,,,,,,150.1388177999761,151.3527846999932,152.15340409998316,152.13750850001816,152.1375718000345,152.15340409998316,152.15340409998316,152.15340409998316,154.35603519994766,left,0.0,95.43835139996372,,154.35761579999237,154.37454679992516,154.86925300001167,,,,,,,,,,,,,,,,,,,,,,,,,,,,sub-239,3.0,random_dot,60.01817350157759,
left,left,,9.0,1.0,19.0,0.0,,,,,,,,,154.8855130999582,,,,,,,,,154.87035849993117,155.669048700016,156.469818499987,156.45376149995718,156.453824599972,156.469818499987,156.469818499987,156.469818499987,161.65516169997863,right,0.0,98.42096819996368,,161.6567281000316,161.66799630003516,162.15171410003677,161.46892499993555,162.16768559999764,,,,,,,,,,,,,,,,,,,,,,,,,,sub-239,3.0,random_dot,60.01817350157759,
,,,,,,,,,,,,,,,,,,,,,,,,,,,,,,,,,,,,,,,,,,162.15181029995438,162.16768559999764,162.16768559999764,167.17053320002742,space,98.24040699994656,,,,,,,,,,,,,,,,,,,,sub-239,3.0,random_dot,60.01817350157759,
,,,,,,,,,,,,,,,,,,,,,,,,,,,,,,,,,,,,,,,,,,,,,,,,,167.170633599977,167.18437269993592,167.18437269993592,177.35257919994183,space,103.41033929993864,,,,,,,,,,,,,sub-239,3.0,random_dot,60.01817350157759,
right,right,speed,,,,,0.0,0.0,0.0,1.0,0.0,0.0,0.0,1.0,181.3800498000346,,,,,,,,,181.3738277000375,181.71554479992483,182.51627170003485,182.5003155999584,182.50039699999616,182.51627170003485,182.51627170003485,182.51627170003485,183.60240329999945,right,1.0,94.32154929987156,,,,,,,,,,,,,,,,,,,,,177.41290400002617,177.47119099996053,177.47119099996053,181.35149509995244,space,97.12099829991348,,,,,,sub-239,3.0,random_dot,60.01817350157759,
left,left,speed,,,,,0.0,0.0,0.0,1.0,0.0,1.0,1.0,0.0,183.61515139997937,,,,,,,,,183.60638949996792,184.81520690000616,185.61587530002,185.59992129995956,185.59998369996904,185.61587530002,185.61587530002,185.61587530002,188.11850199999756,left,1.0,95.7443400999764,,,,,,,,,,,,,,,,,,,,,,,,,,,,,,,,sub-239,3.0,random_dot,60.01817350157759,
right,right,speed,,,,,0.0,0.0,0.0,1.0,1.0,0.0,2.0,1.0,188.13121289992705,,,,,,,,,188.12179499992635,189.33120200003032,190.13185380003412,190.1157781999791,190.11584049998785,190.13185380003412,190.13185380003412,190.13185380003412,191.5010345999617,left,0.0,94.60411319998092,,,,,,,,,,,,,,,,,,,,,,,,,,,,,,,,sub-239,3.0,random_dot,60.01817350157759,
left,left,speed,,,,,0.0,0.0,0.0,1.0,1.0,1.0,3.0,0.0,191.51409269997384,,,,,,,,,191.50416220002808,191.8641735999845,192.66506899998055,192.64910649997185,192.6491696999874,192.66506899998055,192.66506899998055,192.66506899998055,194.7511341000209,right,0.0,95.32634729996788,,,,,,,,,,,,,,,,,,,,,,,,,,,,,,,,sub-239,3.0,random_dot,60.01817350157759,
left,left,speed,,,,,0.0,0.0,0.0,1.0,2.0,0.0,4.0,0.0,194.7637809999287,,,,,,,,,194.75433269992936,195.9636248999741,196.7643349999562,196.74833880004007,196.74840169993692,196.7643349999562,196.7643349999562,196.7643349999562,201.09984779998197,left,1.0,97.5654333999846,,,,,,,,,,,,,,,,,,,,,,,,,,,,,,,,sub-239,3.0,random_dot,60.01817350157759,
right,right,speed,,,,,0.0,0.0,0.0,1.0,2.0,1.0,5.0,1.0,201.1128709999612,,,,,,,,,201.10299259994645,201.46287389996,202.26363259996288,202.24772169999775,202.2477850000141,202.26363259996288,202.26363259996288,202.26363259996288,204.43290789995808,right,1.0,95.3980948999524,,,,,,,,,,,,,,,,,,,,,,,,,,,,,,,,sub-239,3.0,random_dot,60.01817350157759,
right,right,speed,,,,,0.0,0.0,0.0,1.0,3.0,0.0,6.0,1.0,204.44574929995,,,,,,,,,204.43600520002656,204.54595039994456,205.34663519996684,205.3305642999476,205.3306261999533,205.34663519996684,205.34663519996684,205.34663519996684,209.53230159997477,right,1.0,97.41720659995916,,,,,,,,,,,,,,,,,,,,,,,,,,,,,,,,sub-239,3.0,random_dot,60.01817350157759,
left,left,speed,,,,,0.0,0.0,0.0,1.0,3.0,1.0,7.0,0.0,209.54504569992423,,,,,,,,,209.5354101000121,209.6451743999496,210.44594569993205,210.429943599971,210.43000479997136,210.44594569993205,210.44594569993205,210.44594569993205,214.8647678999696,left,1.0,97.64804459991863,,,,,,,,,,,,,,,,,,,,,,,,,,,,,,,,sub-239,3.0,random_dot,60.01817350157759,
right,right,speed,,,,,0.0,0.0,0.0,1.0,4.0,0.0,8.0,1.0,214.87805509998,,,,,,,,,214.86775400000624,216.0776383000193,216.87860699999143,216.862392699928,216.8624547999352,216.87860699999143,216.87860699999143,216.87860699999143,219.6308719000081,left,0.0,95.9873621999286,,,,,,,,,,,,,,,,,,,,,,,,,,,,,,,,sub-239,3.0,random_dot,60.01817350157759,
left,left,speed,,,,,0.0,0.0,0.0,1.0,4.0,1.0,9.0,0.0,219.64385300001595,,,,,,,,,219.63395980000496,220.4439158999594,221.24462609994225,221.22856670001056,221.22863070003223,221.24462609994225,221.24462609994225,221.24462609994225,222.76365099998657,right,0.0,94.74826669995672,,,,,,,,,,,,,,,,,,,,,,,,,,,,,,,,sub-239,3.0,random_dot,60.01817350157759,
left,left,speed,,,,,0.0,0.0,0.0,1.0,5.0,0.0,10.0,0.0,222.77675219997764,,,,,,,,,222.76666149997615,223.9767122999765,224.77752210001927,224.76134189998265,224.76143349998165,224.77752210001927,224.77752210001927,224.77752210001927,229.41296310001053,left,1.0,97.86537010001484,,,,,,,,,,,,,,,,,,,,,,,,,,,,,,,,sub-239,3.0,random_dot,60.01817350157759,
right,right,speed,,,,,0.0,0.0,0.0,1.0,5.0,1.0,11.0,1.0,229.42588390002493,,,,,,,,,229.41626750002612,229.77589529997203,230.5766609000275,230.5605943999253,230.5606568999356,230.5766609000275,230.5766609000275,230.5766609000275,233.37914309999903,right,1.0,96.04384890000802,,,,,,,,,,,,,,,,,,,,,,,,,,,,,,,,sub-239,3.0,random_dot,60.01817350157759,
left,left,speed,,,,,0.0,0.0,0.0,1.0,6.0,0.0,12.0,0.0,233.39217699994333,,,,,,,,,233.38240410003343,234.19203719997316,234.9928850999568,234.976822800003,234.97688690002545,234.9928850999568,234.9928850999568,234.9928850999568,236.6287787000183,left,1.0,94.86632649996318,,,,,,,,,,,,,,,,,,,,,,,,,,,,,,,,sub-239,3.0,random_dot,60.01817350157759,
right,right,speed,,,,,0.0,0.0,0.0,1.0,6.0,1.0,13.0,1.0,236.64173050003592,,,,,,,,,236.6319460000377,237.84164230001625,238.6423170999624,238.6264273999259,238.6264901999384,238.6423170999624,238.6423170999624,238.6423170999624,242.29451519995928,left,0.0,96.88385109999216,,,,,,,,,,,,,,,,,,,,,,,,,,,,,,,,sub-239,3.0,random_dot,60.01817350157759,
right,right,speed,,,,,0.0,0.0,0.0,1.0,7.0,0.0,14.0,1.0,242.3075678999303,,,,,,,,,242.29754159995355,242.6575303999707,243.4583653999725,243.44225530000404,243.44231770001352,243.4583653999725,243.4583653999725,243.4583653999725,246.46110820001925,left,0.0,96.2333873999305,,,,,,,,,,,,,,,,,,,,,,,,,,,,,,,,sub-239,3.0,random_dot,60.01817350157759,
left,left,speed,,,,,0.0,0.0,0.0,1.0,7.0,1.0,15.0,0.0,246.47369120002256,,,,,,,,,246.4642840999877,246.8238986999495,247.62438309995923,247.60858589992856,247.60864729993045,247.62438309995923,247.62438309995923,247.62438309995923,249.860462200013,right,0.0,95.47915739996824,,,,,,,,,,,,,,,,,,,,,,,,,,,,,,,,sub-239,3.0,random_dot,60.01817350157759,
right,right,speed,,,,,0.0,0.0,0.0,1.0,8.0,0.0,16.0,1.0,249.8733607999748,,,,,,,,,249.86363219993652,250.22339950001333,251.0241389999865,251.0081482999958,251.00821030000225,251.0241389999865,251.0241389999865,251.0241389999865,254.17663689993788,left,0.0,96.39355369994882,,,,,,,,,,,,,,,,,,,,,,,,,,,,,,,,sub-239,3.0,random_dot,60.01817350157759,
left,left,speed,,,,,0.0,0.0,0.0,1.0,8.0,1.0,17.0,0.0,254.1893028999912,,,,,,,,,254.17978639993817,254.989181599929,255.7900484999409,255.77393489994571,255.7739907000214,255.7900484999409,255.7900484999409,255.7900484999409,256.8759297999786,left,1.0,94.32101850002071,,,,,,,,,,,,,,,,,,,,,,,,,,,,,,,,sub-239,3.0,random_dot,60.01817350157759,
right,right,speed,,,,,0.0,0.0,0.0,1.0,9.0,0.0,18.0,1.0,256.8889866999816,,,,,,,,,256.8793106999947,256.9889448999893,257.7897428999422,257.7738073000219,257.7738709000405,257.7897428999422,257.7897428999422,257.7897428999422,260.243195499992,right,1.0,95.69459550001191,,,,,,,,,,,,,,,,,,,,,,,,,,,,,,,,sub-239,3.0,random_dot,60.01817350157759,
left,left,speed,,,,,0.0,0.0,0.0,1.0,9.0,1.0,19.0,0.0,260.2551193999825,,,,,,,,,260.2465285999933,260.60488390002865,261.4060814999975,261.39033999992535,261.39041300001554,261.4060814999975,261.4060814999975,261.4060814999975,265.10865459998604,left,1.0,96.94626209989656,,,,,,,,,,,,,,,,,,,,,,,,,,,,,,,,sub-239,3.0,random_dot,60.01817350157759,
right,right,speed,,,,,0.0,0.0,0.0,1.0,10.0,0.0,20.0,1.0,265.1212314999429,,,,,,,,,265.1117730999831,265.2213355000131,266.0221746999305,266.00627090001944,266.00633300002664,266.0221746999305,266.0221746999305,266.0221746999305,267.7083207999822,left,0.0,94.92402409994976,,,,,,,,,,,,,,,,,,,,,,,,,,,,,,,,sub-239,3.0,random_dot,60.01817350157759,
left,left,speed,,,,,0.0,0.0,0.0,1.0,10.0,1.0,21.0,0.0,267.7209388000192,,,,,,,,,267.71142459998373,268.92091079999227,269.7216416000156,269.70558850001544,269.70565210003406,269.7216416000156,269.7216416000156,269.7216416000156,271.1578071999829,right,0.0,94.67830319993664,,,,,,,,,,,,,,,,,,,,,,,,,,,,,,,,sub-239,3.0,random_dot,60.01817350157759,
right,right,speed,,,,,0.0,0.0,0.0,1.0,11.0,0.0,22.0,1.0,271.1706601999467,,,,,,,,,271.1609795999248,271.9704769999953,272.7713007000275,272.75511309993453,272.75517489993945,272.7713007000275,272.7713007000275,272.7713007000275,275.57388429995626,right,1.0,96.03636579995508,,,,,,,,,,,,,,,,,,,,,,,,,,,,,,,,sub-239,3.0,random_dot,60.01817350157759,
left,left,speed,,,,,0.0,0.0,0.0,1.0,11.0,1.0,23.0,0.0,275.5866015999345,,,,,,,,,275.5772153999424,275.68657469993923,276.48732900002506,276.4712715999922,276.47133380000014,276.48732900002506,276.48732900002506,276.48732900002506,280.423013899941,right,0.0,97.17745049996302,,,,,,,,,,,,,,,,,,,,,,,,,,,,,,,,sub-239,3.0,random_dot,60.01817350157759,
left,left,speed,,,,,0.0,0.0,0.0,1.0,12.0,0.0,24.0,0.0,280.4358477999922,,,,,,,,,280.4263353999704,281.6360267000273,282.43650429998524,282.42055929999333,282.4206409000326,282.43650429998524,282.43650429998524,282.43650429998524,288.37234889995307,left,1.0,99.16597299999556,,,,,287.4358451999724,,,,,,,,,,,,,,,,,,,,,,,,,,,sub-239,3.0,random_dot,60.01817350157759,
right,right,speed,,,,,0.0,0.0,0.0,1.0,12.0,1.0,25.0,1.0,288.3848342000274,,,,,,,,,288.37537339993287,288.4850393999368,289.28584219992626,289.2697832999984,289.2698672999395,289.28584219992626,289.28584219992626,289.28584219992626,291.02157169999555,left,0.0,94.97338199999648,,,,,,,,,,,,,,,,,,,,,,,,,,,,,,,,sub-239,3.0,random_dot,60.01817350157759,
left,left,speed,,,,,0.0,0.0,0.0,1.0,13.0,0.0,26.0,0.0,291.03467960003763,,,,,,,,,291.0247262000339,291.3845528999809,292.18521919997875,292.16829539998434,292.168330000015,292.18521919997875,292.18521919997875,292.18521919997875,295.92119309992995,right,0.0,96.97921529994346,,,,,,,,,,,,,,,,,,,,,,,,,,,,,,,,sub-239,3.0,random_dot,60.01817350157759,
right,right,speed,,,,,0.0,0.0,0.0,1.0,13.0,1.0,27.0,1.0,295.9340929000173,,,,,,,,,295.92433820001315,296.2840229999274,297.0846632999601,297.0686819999246,297.06874290003907,297.0846632999601,297.0846632999601,297.0846632999601,300.8370439999271,left,0.0,96.99261859990656,,,,,,,,,,,,,,,,,,,,,,,,,,,,,,,,sub-239,3.0,random_dot,60.01817350157759,
right,right,speed,,,,,0.0,0.0,0.0,1.0,14.0,0.0,28.0,1.0,300.8499968999531,,,,,,,,,300.8402146999724,300.95007759996224,301.7507350000087,301.7348951000022,301.7349629999371,301.7507350000087,301.7507350000087,301.7507350000087,302.93660569994245,left,0.0,94.42964669992216,,,,,,,,,,,,,,,,,,,,,,,,,,,,,,,,sub-239,3.0,random_dot,60.01817350157759,
left,left,speed,,,,,0.0,0.0,0.0,1.0,14.0,1.0,29.0,0.0,302.9496802999638,,,,,,,,,302.93984260002617,303.2996466000332,304.1005778999533,304.0844054999761,304.08446729998104,304.1005778999533,304.1005778999533,304.1005778999533,307.4031235999428,right,0.0,96.54476940003224,,,,,,,,,,,,,,,,,,,,,,,,,,,,,,,,sub-239,3.0,random_dot,60.01817350157759,
left,left,speed,,,,,0.0,0.0,0.0,1.0,15.0,0.0,30.0,0.0,307.41581079992466,,,,,,,,,307.4063297000248,308.61572120001074,309.41655810002703,309.400405399967,309.40048860001843,309.41655810002703,309.41655810002703,309.41655810002703,313.43540189997293,right,0.0,97.25509220000822,,,,,,,,,,,,,,,,,,,,,,,,,,,,,,,,sub-239,3.0,random_dot,60.01817350157759,
right,right,speed,,,,,0.0,0.0,0.0,1.0,15.0,1.0,31.0,1.0,313.44846550002694,,,,,,,,,313.4386061000405,313.7985255999956,314.59912409994286,314.5829886000138,314.58305160002783,314.59912409994286,314.59912409994286,314.59912409994286,318.36833850003313,left,0.0,97.01178579998668,,,,,,,,,,,,,,,,,,,,,,,,,,,,,,,,sub-239,3.0,random_dot,60.01817350157759,
right,right,speed,,,,,0.0,0.0,0.0,1.0,16.0,0.0,32.0,1.0,318.3809520000359,,,,,,,,,318.3714931999566,318.4810366999591,319.2817308999365,319.26570999994874,319.26577309996355,319.2817308999365,319.2817308999365,319.2817308999365,324.3837358999299,left,0.0,98.3311960999854,,,,,324.28112459997647,,,,,,,,,,,,,,,,,,,,,,,,,,,sub-239,3.0,random_dot,60.01817350157759,
left,left,speed,,,,,0.0,0.0,0.0,1.0,16.0,1.0,33.0,0.0,324.3969586000312,,,,,,,,,324.38703690003604,324.7467639000388,325.5477039000252,325.53179709997494,325.5318634000141,325.5477039000252,325.5477039000252,325.5477039000252,329.79873279994354,right,0.0,97.48674519988708,,,,,,,,,,,,,,,,,,,,,,,,,,,,,,,,sub-239,3.0,random_dot,60.01817350157759,
right,right,speed,,,,,0.0,0.0,0.0,1.0,17.0,0.0,34.0,1.0,329.8125904999906,,,,,,,,,329.80041789996903,329.912951999926,330.7132888999768,330.69669389992487,330.6967273999471,330.7132888999768,330.7132888999768,330.7132888999768,336.23134159995243,right,1.0,98.7505478998646,,,,,335.6959560000105,,,,,,,,,,,,,,,,,,,,,,,,,,,sub-239,3.0,random_dot,60.01817350157759,
left,left,speed,,,,,0.0,0.0,0.0,1.0,17.0,1.0,35.0,0.0,336.24508230003994,,,,,,,,,336.2343618000159,336.3449087999761,337.14593030000106,337.12979060004,337.1298461999977,337.14593030000106,337.14593030000106,337.14593030000106,337.79850979999173,left,1.0,93.8959668999305,,,,,,,,,,,,,,,,,,,,,,,,,,,,,,,,sub-239,3.0,random_dot,60.01817350157759,
left,left,speed,,,,,0.0,0.0,0.0,1.0,18.0,0.0,36.0,0.0,337.81180929997936,,,,,,,,,337.8013387999963,339.01138639997225,339.8122657999629,339.7954693000065,339.7955018000212,339.8122657999629,339.8122657999629,339.8122657999629,342.8148978999816,left,1.0,96.24658140004613,,,,,,,,,,,,,,,,,,,,,,,,,,,,,,,,sub-239,3.0,random_dot,60.01817350157759,
right,right,speed,,,,,0.0,0.0,0.0,1.0,18.0,1.0,37.0,1.0,342.82791859994177,,,,,,,,,342.8180757999653,343.17777670000214,343.97822029993404,343.9614664999536,343.9615007999819,343.97822029993404,343.97822029993404,343.97822029993404,348.7458611000329,right,1.0,98.00675339996816,,,,,,,,,,,,,,,,,,,,,,,,,,,,,,,,sub-239,3.0,random_dot,60.01817350157759,
right,right,speed,,,,,0.0,0.0,0.0,1.0,19.0,0.0,38.0,1.0,348.7600512999343,,,,,,,,,348.7475006999448,349.1101141999243,349.9107352999272,349.8942465999862,349.8942804000108,349.9107352999272,349.9107352999272,349.9107352999272,353.04599110002164,left,0.0,96.3737937998958,,,,,,,,,,,,,,,,,,,,,,,,,,,,,,,,sub-239,3.0,random_dot,60.01817350157759,
left,left,speed,,,,,0.0,0.0,0.0,1.0,19.0,1.0,39.0,0.0,353.0595722999424,,,,,,,,,353.04806659999304,353.15952119999565,353.9606198000256,353.9436791000189,353.9437125000404,353.9606198000256,353.9606198000256,353.9606198000256,356.7110943000298,left,1.0,95.98206710000522,,,,,,,,,,,,,,,,,,,,,,,,,,,,,,,,sub-239,3.0,random_dot,60.01817350157759,
right,right,speed,,,,,0.0,0.0,0.0,1.0,20.0,0.0,40.0,1.0,356.72570700000506,,,,,,,,,356.71243559999857,357.9256690000184,358.72669789998326,358.71075959992595,358.71082479995675,358.72669789998326,358.72669789998326,358.72669789998326,364.1939075000119,right,1.0,98.70550969988108,,,,,363.7259415999288,,,,,,,,,,,,,,,,,,,,,,,,,,,sub-239,3.0,random_dot,60.01817350157759,
left,left,speed,,,,,0.0,0.0,0.0,1.0,20.0,1.0,41.0,0.0,364.20808489993215,,,,,,,,,364.1955840999726,365.4079378999304,366.2087455999572,366.19210179999936,366.1921358000254,366.2087455999572,366.2087455999572,366.2087455999572,369.876775200013,right,0.0,96.91132209997158,,,,,,,,,,,,,,,,,,,,,,,,,,,,,,,,sub-239,3.0,random_dot,60.01817350157759,
left,left,speed,,,,,0.0,0.0,0.0,1.0,21.0,0.0,42.0,0.0,369.8905425999546,,,,,,,,,369.87848930002656,370.2406060999492,371.0414027000079,371.0247086000163,371.02475199999753,371.0414027000079,371.0414027000079,371.0414027000079,374.8273809000384,left,1.0,97.02918670000508,,,,,,,,,,,,,,,,,,,,,,,,,,,,,,,,sub-239,3.0,random_dot,60.01817350157759,
right,right,speed,,,,,0.0,0.0,0.0,1.0,21.0,1.0,43.0,1.0,374.84039160003886,,,,,,,,,374.83050719997846,374.9403907000087,375.74122750002425,375.7251991999801,375.7252614999889,375.74122750002425,375.74122750002425,375.74122750002425,381.36000380001497,left,0.0,98.85096840001644,,,,,380.7404524999438,,,,,,,,,,,,,,,,,,,,,,,,,,,sub-239,3.0,random_dot,60.01817350157759,
left,left,speed,,,,,0.0,0.0,0.0,1.0,22.0,0.0,44.0,0.0,381.3730309000239,,,,,,,,,381.3632624000311,382.1729308000067,382.97373600001447,382.9577993999701,382.957863299991,382.97373600001447,382.97373600001447,382.97373600001447,387.6592500000261,right,0.0,97.91775599995162,,,,,,,,,,,,,,,,,,,,,,,,,,,,,,,,sub-239,3.0,random_dot,60.01817350157759,
right,right,speed,,,,,0.0,0.0,0.0,1.0,22.0,1.0,45.0,1.0,387.6722132000141,,,,,,,,,387.662545899977,388.872096200008,389.6726503999671,389.6568512000376,389.65691349992994,389.6726503999671,389.6726503999671,389.6726503999671,393.2585807000287,left,0.0,96.82965039997362,,,,,,,,,,,,,,,,,,,,,,,,,,,,,,,,sub-239,3.0,random_dot,60.01817350157759,
right,right,speed,,,,,0.0,0.0,0.0,1.0,23.0,0.0,46.0,1.0,393.2712623999687,,,,,,,,,393.2617243999848,393.37138279993087,394.172280699946,394.1561880999943,394.15625120000914,394.172280699946,394.172280699946,394.172280699946,397.05785390001256,left,0.0,96.12546769995242,,,,,,,,,,,,,,,,,,,,,,,,,,,,,,,,sub-239,3.0,random_dot,60.01817350157759,
left,left,speed,,,,,0.0,0.0,0.0,1.0,23.0,1.0,47.0,0.0,397.07096049992833,,,,,,,,,397.06119479995687,397.1708442999516,397.97162640001625,397.9557278000284,397.9557902000379,397.97162640001625,397.97162640001625,397.97162640001625,400.6076605999842,right,0.0,95.87893619993702,,,,,,,,,,,,,,,,,,,,,,,,,,,,,,,,sub-239,3.0,random_dot,60.01817350157759,
left,left,speed,,,,,0.0,0.0,0.0,1.0,24.0,0.0,48.0,0.0,400.6205306999618,,,,,,,,,400.6108379999641,401.42043129995,402.22101320000365,402.2052391000325,402.2053020999301,402.22101320000365,402.22101320000365,402.22101320000365,405.90710029995535,right,0.0,96.91618999990168,,,,,,,,,,,,,,,,,,,,,,,,,,,,,,,,sub-239,3.0,random_dot,60.01817350157759,
right,right,speed,,,,,0.0,0.0,0.0,1.0,24.0,1.0,49.0,1.0,405.91969589993823,,,,,,,,,405.9102932999376,407.1196960000088,407.9203344000271,407.9043104000157,407.90437390003353,407.9203344000271,407.9203344000271,407.9203344000271,412.4062537000282,left,0.0,97.73007559997497,,,,,,,,,,,,,,,,,,,,,,,,,,,,,,,,sub-239,3.0,random_dot,60.01817350157759,
left,left,speed,,,,,0.0,0.0,0.0,1.0,25.0,0.0,50.0,0.0,412.4188390999334,,,,,,,,,412.4094555999618,412.7688284999458,413.5696109000128,413.5536482000025,413.553711000015,413.5696109000128,413.5696109000128,413.5696109000128,417.1718115999829,right,0.0,96.83221300004516,,,,,,,,,,,,,,,,,,,,,,,,,,,,,,,,sub-239,3.0,random_dot,60.01817350157759,
right,right,speed,,,,,0.0,0.0,0.0,1.0,25.0,1.0,51.0,1.0,417.18493570003193,,,,,,,,,417.1750078999903,418.3850024000276,419.1855081999674,419.16962910001166,419.1696909000166,419.1855081999674,419.1855081999674,419.1855081999674,424.1542536999332,left,0.0,98.19989759998862,,,,,,,,,,,,,,,,,,,,,,,,,,,,,,,,sub-239,3.0,random_dot,60.01817350157759,
left,left,speed,,,,,0.0,0.0,0.0,1.0,26.0,0.0,52.0,0.0,424.1672868999885,,,,,,,,,424.15755280002486,424.9674326999812,425.76796969992574,425.7520611999789,425.7521233999869,425.76796969992574,425.76796969992574,425.76796969992574,431.3701115000295,right,0.0,98.8341647000052,,,,,430.7672959000338,,,,,,,,,,,,,,,,,,,,,,,,,,,sub-239,3.0,random_dot,60.01817350157759,
right,right,speed,,,,,0.0,0.0,0.0,1.0,26.0,1.0,53.0,1.0,431.3830726000015,,,,,,,,,431.3733368000248,432.5829743000213,433.3837175000226,433.3677957999753,433.367858099984,433.3837175000226,433.3837175000226,433.3837175000226,438.219176499988,right,1.0,98.07189669995569,,,,,,,,,,,,,,,,,,,,,,,,,,,,,,,,sub-239,3.0,random_dot,60.01817350157759,
right,right,speed,,,,,0.0,0.0,0.0,1.0,27.0,0.0,54.0,1.0,438.232296800008,,,,,,,,,438.2223420999944,439.03209350002,439.8330077999272,439.8170055999653,439.8170895000221,439.8330077999272,439.8330077999272,439.8330077999272,444.3684989999747,left,0.0,97.76765759999398,,,,,,,,,,,,,,,,,,,,,,,,,,,,,,,,sub-239,3.0,random_dot,60.01817350157759,
left,left,speed,,,,,0.0,0.0,0.0,1.0,27.0,1.0,55.0,0.0,444.38157229998615,,,,,,,,,444.3717915000161,444.4812652999535,445.2822211999446,445.266365999938,445.2664303999627,445.2822211999446,445.2822211999446,445.2822211999446,451.00079880002886,right,0.0,98.95317639992572,,,,,450.28144309995696,,,,,,,,,,,,,,,,,,,,,,,,,,,sub-239,3.0,random_dot,60.01817350157759,
right,right,speed,,,,,0.0,0.0,0.0,1.0,28.0,0.0,56.0,1.0,451.0139646999305,,,,,,,,,451.0041429999983,451.3638720000163,452.1646031999262,452.1485983999446,452.1486609999556,452.1646031999262,452.1646031999262,452.1646031999262,456.7168353999732,left,0.0,97.78262029995676,,,,,,,,,,,,,,,,,,,,,,,,,,,,,,,,sub-239,3.0,random_dot,60.01817350157759,
left,left,speed,,,,,0.0,0.0,0.0,1.0,28.0,1.0,57.0,0.0,456.72993249993306,,,,,,,,,456.7200096999295,457.92975699994713,458.7304126999807,458.7143596999813,458.7144236000022,458.7304126999807,458.7304126999807,458.7304126999807,463.91602400003467,left,1.0,98.42650779988617,,,,,463.7296930999728,,,,,,,,,,,,,,,,,,,,,,,,,,,sub-239,3.0,random_dot,60.01817350157759,
left,left,speed,,,,,0.0,0.0,0.0,1.0,29.0,0.0,58.0,0.0,463.9290362999309,,,,,,,,,463.919194099959,464.7287388000405,465.5296001000097,465.51359490002505,465.51365750003606,465.5296001000097,465.5296001000097,465.5296001000097,466.2321832999587,right,0.0,93.93756330001634,,,,,,,,,,,,,,,,,,,,,,,,,,,,,,,,sub-239,3.0,random_dot,60.01817350157759,
right,right,speed,,,,,0.0,0.0,0.0,1.0,29.0,1.0,59.0,1.0,466.245084599941,,,,,,,,,466.23528919997625,466.5951598000247,467.39601849997416,467.3800122999819,467.38007479999214,467.39601849997416,467.39601849997416,467.39601849997416,468.31536030001007,right,1.0,94.14919439994264,,,,,,,,,,,,,,,,,,,,,,,,,,,,,,,,sub-239,3.0,random_dot,60.01817350157759,
,,speed,,,,,0.0,0.0,0.0,1.0,,,,,,,,,,,,,,,,,,,,,,,,,,,,,,,,,,,,,,,,,,,,,,,,,,,,,,,,,sub-239,3.0,random_dot,60.01817350157759,
left,left,accuracy,,,,,0.0,1.0,1.0,0.0,0.0,0.0,0.0,0.0,472.6373915999429,,,,,,,,,472.6310989999911,473.361020399956,474.16174859995954,474.1460055999924,474.14610539993737,474.16174859995954,474.16174859995954,474.16174859995954,476.8474706999259,right,0.0,95.92292239994276,,,,,,,,,,,,,,,,,,,,,468.3184805000201,468.3518629999599,468.3518629999599,472.54767100000754,space,97.43237259995658,,,,,,sub-239,3.0,random_dot,60.01817350157759,
right,right,accuracy,,,,,0.0,1.0,1.0,0.0,0.0,1.0,1.0,1.0,476.86054609995335,,,,,,,,,476.85140189994127,478.0604999000207,478.8612253000029,478.84537749993615,478.84544169995934,478.8612253000029,478.8612253000029,478.8612253000029,484.5801971999463,left,0.0,98.9586888999911,,,,,483.86043639993295,,,,,,,,,,,,,,,,,,,,,,,,,,,sub-239,3.0,random_dot,60.01817350157759,
right,right,accuracy,,,,,0.0,1.0,1.0,0.0,1.0,0.0,2.0,1.0,484.5929711000063,,,,,,,,,484.5832359000342,485.79281569994055,486.5935461999616,486.5774887999287,486.57755409996025,486.5935461999616,486.5935461999616,486.5935461999616,492.61213829997,right,1.0,99.2536381998798,,,,,491.59284169995226,,,,,,,,,,,,,,,,,,,,,,,,,,,sub-239,3.0,random_dot,60.01817350157759,
left,left,accuracy,,,,,0.0,1.0,1.0,0.0,1.0,1.0,3.0,0.0,492.6251395000145,,,,,,,,,492.6152106999653,493.42518499994185,494.2257266000379,494.20877519994974,494.20880829996895,494.2257266000379,494.2257266000379,494.2257266000379,500.2445405999897,left,1.0,99.26059059996624,,,,,499.2086466000183,,,,,,,,,,,,,,,,,,,,,,,,,,,sub-239,3.0,random_dot,60.01817350157759,
right,right,accuracy,,,,,0.0,1.0,1.0,0.0,2.0,0.0,4.0,1.0,500.2575735999271,,,,,,,,,500.2477164999582,500.60747299995273,501.4082466999535,501.3922075999435,501.3922687999439,501.4082466999535,501.4082466999535,501.4082466999535,506.56021319993306,right,1.0,98.38800239993724,,,,,506.40752360003535,,,,,,,,,,,,,,,,,,,,,,,,,,,sub-239,3.0,random_dot,60.01817350157759,
left,left,accuracy,,,,,0.0,1.0,1.0,0.0,2.0,1.0,5.0,0.0,506.573341100011,,,,,,,,,506.5635615999345,507.7732201999752,508.5740924000274,508.5581325000385,508.5581973999506,508.5740924000274,508.5740924000274,508.5740924000274,513.7600942000281,left,1.0,98.4300421999069,,,,,513.57331779995,,,,,,,,,,,,,,,,,,,,,,,,,,,sub-239,3.0,random_dot,60.01817350157759,
left,left,accuracy,,,,,0.0,1.0,1.0,0.0,3.0,0.0,6.0,0.0,513.7723789999727,,,,,,,,,513.7632604000391,514.57241839997,515.3731206000084,515.3571596000111,515.3572219000198,515.3731206000084,515.3731206000084,515.3731206000084,520.4084375000093,right,0.0,98.26890140003523,,,,,520.3723913999274,,,,,,,,,,,,,,,,,,,,,,,,,,,sub-239,3.0,random_dot,60.01817350157759,
right,right,accuracy,,,,,0.0,1.0,1.0,0.0,3.0,1.0,7.0,1.0,520.4216897999868,,,,,,,,,520.4117746999254,520.5216928999871,521.3224521999946,521.3062802000204,521.3063426000299,521.3224521999946,521.3224521999946,521.3224521999946,526.3244083999889,left,0.0,98.24003309989348,,,,,526.3216166000348,,,,,,,,,,,,,,,,,,,,,,,,,,,sub-239,3.0,random_dot,60.01817350157759,
right,right,accuracy,,,,,0.0,1.0,1.0,0.0,4.0,0.0,8.0,1.0,526.3374680000124,,,,,,,,,526.3278729999438,526.6874154999387,527.488230500021,527.4722751999507,527.4723382999655,527.488230500021,527.488230500021,527.488230500021,533.0902311999816,right,1.0,98.84291600005236,,,,,532.4876612999942,,,,,,,,,,,,,,,,,,,,,,,,,,,sub-239,3.0,random_dot,60.01817350157759,
left,left,accuracy,,,,,0.0,1.0,1.0,0.0,4.0,1.0,9.0,0.0,533.1032313000178,,,,,,,,,533.0933723000344,533.2034157000016,534.0041982999537,533.9881917999592,533.9882550999755,534.0041982999537,534.0041982999537,534.0041982999537,538.2230456999969,right,0.0,97.451423099963,,,,,,,,,,,,,,,,,,,,,,,,,,,,,,,,sub-239,3.0,random_dot,60.01817350157759,
left,left,accuracy,,,,,0.0,1.0,1.0,0.0,5.0,0.0,10.0,0.0,538.2359068000223,,,,,,,,,538.22636900004,538.3359118000371,539.1367974999594,539.120683999965,539.120746999979,539.1367974999594,539.1367974999594,539.1367974999594,543.5890093999915,right,0.0,97.6899935998954,,,,,,,,,,,,,,,,,,,,,,,,,,,,,,,,sub-239,3.0,random_dot,60.01817350157759,
right,right,accuracy,,,,,0.0,1.0,1.0,0.0,5.0,1.0,11.0,1.0,543.6019879999803,,,,,,,,,543.5921407999704,543.7020715000108,544.5026394999586,544.4867091999622,544.4867717999732,544.5026394999586,544.5026394999586,544.5026394999586,547.1052565999562,left,0.0,95.84019759995864,,,,,,,,,,,,,,,,,,,,,,,,,,,,,,,,sub-239,3.0,random_dot,60.01817350157759,
right,right,accuracy,,,,,0.0,1.0,1.0,0.0,6.0,0.0,12.0,1.0,547.1180451000109,,,,,,,,,547.1083822000073,547.9180112000322,548.7189715999411,548.7028902999591,548.7029553999892,548.7189715999411,548.7189715999411,548.7189715999411,553.1044875000371,right,1.0,97.6247965999646,,,,,,,,,,,,,,,,,,,,,,,,,,,,,,,,sub-239,3.0,random_dot,60.01817350157759,
left,left,accuracy,,,,,0.0,1.0,1.0,0.0,6.0,1.0,13.0,0.0,553.1174278999679,,,,,,,,,553.1078452999936,554.317327399971,555.1180634000339,555.1021096999757,555.1021722999867,555.1180634000339,555.1180634000339,555.1180634000339,558.6535169000272,right,0.0,96.77195179986302,,,,,,,,,,,,,,,,,,,,,,,,,,,,,,,,sub-239,3.0,random_dot,60.01817350157759,
right,right,accuracy,,,,,0.0,1.0,1.0,0.0,7.0,0.0,14.0,1.0,558.6665661999723,,,,,,,,,558.6567601999268,558.7667418000055,559.5674615999451,559.5513899000362,559.5514520999277,559.5674615999451,559.5674615999451,559.5674615999451,562.8196967999684,left,0.0,96.48498329997528,,,,,,,,,,,,,,,,,,,,,,,,,,,,,,,,sub-239,3.0,random_dot,60.01817350157759,
left,left,accuracy,,,,,0.0,1.0,1.0,0.0,7.0,1.0,15.0,0.0,562.8326880999375,,,,,,,,,562.8229328999296,563.6325973999919,564.4334350000136,564.4173909999663,564.4174542999826,564.4334350000136,564.4334350000136,564.4334350000136,569.2355914999498,left,1.0,98.04289210005663,,,,,,,,,,,,,,,,,,,,,,,,,,,,,,,,sub-239,3.0,random_dot,60.01817350157759,
right,right,accuracy,,,,,0.0,1.0,1.0,0.0,8.0,0.0,16.0,1.0,569.2485467999941,,,,,,,,,569.2387793000089,570.4485127000371,571.249197499943,571.2331864000298,571.2332483000355,571.249197499943,571.249197499943,571.249197499943,573.0852678000228,right,1.0,95.07424320001157,,,,,,,,,,,,,,,,,,,,,,,,,,,,,,,,sub-239,3.0,random_dot,60.01817350157759,
left,left,accuracy,,,,,0.0,1.0,1.0,0.0,8.0,1.0,17.0,0.0,573.0979857000057,,,,,,,,,573.088517599972,574.2980679000029,575.0988635999383,575.0828302999726,575.0828937999904,575.0988635999383,575.0988635999383,575.0988635999383,577.3343929999974,right,0.0,95.46853479999118,,,,,,,,,,,,,,,,,,,,,,,,,,,,,,,,sub-239,3.0,random_dot,60.01817350157759,
left,left,accuracy,,,,,0.0,1.0,1.0,0.0,9.0,0.0,18.0,0.0,577.3474997000303,,,,,,,,,577.3374542000238,577.6975561999716,578.498416599934,578.482223900035,578.482285899925,578.498416599934,578.498416599934,578.498416599934,582.7673489999725,right,0.0,97.51149229996372,,,,,,,,,,,,,,,,,,,,,,,,,,,,,,,,sub-239,3.0,random_dot,60.01817350157759,
right,right,accuracy,,,,,0.0,1.0,1.0,0.0,9.0,1.0,19.0,1.0,582.7800965999486,,,,,,,,,582.7705638000043,583.1303176999791,583.930872399942,583.9149402999319,583.9150030999444,583.930872399942,583.930872399942,583.930872399942,588.0164768999675,left,0.0,97.31852069997694,,,,,,,,,,,,,,,,,,,,,,,,,,,,,,,,sub-239,3.0,random_dot,60.01817350157759,
left,left,accuracy,,,,,0.0,1.0,1.0,0.0,10.0,0.0,20.0,0.0,588.0294433999807,,,,,,,,,588.0196338000242,588.1294351000106,588.9302376999985,588.9142608999973,588.9143238000106,588.9302376999985,588.9302376999985,588.9302376999985,590.2497148000402,left,1.0,94.55909729993436,,,,,,,,,,,,,,,,,,,,,,,,,,,,,,,,sub-239,3.0,random_dot,60.01817350157759,
right,right,accuracy,,,,,0.0,1.0,1.0,0.0,10.0,1.0,21.0,1.0,590.2625594999408,,,,,,,,,590.2527790999738,591.4623697999632,592.2630086999852,592.2468917999649,592.2469581000041,592.2630086999852,592.2630086999852,592.2630086999852,597.7655683000339,right,1.0,98.7469244999811,,,,,597.2620859999442,,,,,,,,,,,,,,,,,,,,,,,,,,,sub-239,3.0,random_dot,60.01817350157759,
left,left,accuracy,,,,,0.0,1.0,1.0,0.0,11.0,0.0,22.0,0.0,597.7781445999863,,,,,,,,,597.7686061999993,598.1282161999261,598.9289142999332,598.9128896000329,598.9129533999367,598.9289142999332,598.9289142999332,598.9289142999332,600.7814860999351,right,0.0,95.0832404999528,,,,,,,,,,,,,,,,,,,,,,,,,,,,,,,,sub-239,3.0,random_dot,60.01817350157759,
right,right,accuracy,,,,,0.0,1.0,1.0,0.0,11.0,1.0,23.0,1.0,600.7944472000236,,,,,,,,,600.7847442999482,601.1444241999416,601.9450820999919,601.9290372999385,601.9291001999518,601.9450820999919,601.9450820999919,601.9450820999919,606.5640717999777,right,1.0,97.85516059992368,,,,,,,,,,,,,,,,,,,,,,,,,,,,,,,,sub-239,3.0,random_dot,60.01817350157759,
left,left,accuracy,,,,,0.0,1.0,1.0,0.0,12.0,0.0,24.0,0.0,606.5770908999257,,,,,,,,,606.5670839999802,607.377101299935,608.1777540999465,608.161879500025,608.1619411000283,608.1777540999465,608.1777540999465,608.1777540999465,613.246565499925,left,1.0,98.29905699996743,,,,,613.1770998999709,,,,,,,,,,,,,,,,,,,,,,,,,,,sub-239,3.0,random_dot,60.01817350157759,
right,right,accuracy,,,,,0.0,1.0,1.0,0.0,12.0,1.0,25.0,1.0,613.2597019999521,,,,,,,,,613.2497276000213,613.6097242999822,614.4104873000178,614.3943641999504,614.3944264999591,614.4104873000178,614.4104873000178,614.4104873000178,616.6132234999677,left,0.0,95.44588210002983,,,,,,,,,,,,,,,,,,,,,,,,,,,,,,,,sub-239,3.0,random_dot,60.01817350157759,
left,left,accuracy,,,,,0.0,1.0,1.0,0.0,13.0,0.0,26.0,0.0,616.625735700014,,,,,,,,,616.616462099948,617.8257121000206,618.6264893999323,618.6104884999804,618.6105517999968,618.6264893999323,618.6264893999323,618.6264893999323,621.3124529999914,right,0.0,95.92796779994389,,,,,,,,,,,,,,,,,,,,,,,,,,,,,,,,sub-239,3.0,random_dot,60.01817350157759,
right,right,accuracy,,,,,0.0,1.0,1.0,0.0,13.0,1.0,27.0,1.0,621.3252967000008,,,,,,,,,621.3156806000043,621.6752739000367,622.475971100037,622.4598677000031,622.4599314000225,622.475971100037,622.475971100037,622.475971100037,624.7451392000075,right,1.0,95.50760610005818,,,,,,,,,,,,,,,,,,,,,,,,,,,,,,,,sub-239,3.0,random_dot,60.01817350157759,
right,right,accuracy,,,,,0.0,1.0,1.0,0.0,14.0,0.0,28.0,1.0,624.7581735999556,,,,,,,,,624.7483094999334,624.8580468000146,625.6587843999732,625.6428316000383,625.6428932999261,625.6587843999732,625.6587843999732,625.6587843999732,630.7440401000204,right,1.0,98.31926949997433,,,,,630.6581273999764,,,,,,,,,,,,,,,,,,,,,,,,,,,sub-239,3.0,random_dot,60.01817350157759,
left,left,accuracy,,,,,0.0,1.0,1.0,0.0,14.0,1.0,29.0,0.0,630.7572929000016,,,,,,,,,630.7470642999979,631.9570858000079,632.7579752999591,632.741958300001,632.7420204000082,632.7579752999591,632.7579752999591,632.7579752999591,637.5933939999668,right,0.0,98.072909599985,,,,,,,,,,,,,,,,,,,,,,,,,,,,,,,,sub-239,3.0,random_dot,60.01817350157759,
left,left,accuracy,,,,,0.0,1.0,1.0,0.0,15.0,0.0,30.0,0.0,637.6063262999523,,,,,,,,,637.5967058000388,638.8065144999418,639.6070555000333,639.5910618000198,639.5911238000263,639.6070555000333,639.6070555000333,639.6070555000333,645.3255939999362,right,0.0,98.95736949995626,,,,,644.6062271000119,,,,,,,,,,,,,,,,,,,,,,,,,,,sub-239,3.0,random_dot,60.01817350157759,
right,right,accuracy,,,,,0.0,1.0,1.0,0.0,15.0,1.0,31.0,1.0,645.3388662999496,,,,,,,,,645.3288387999637,646.5387354999548,647.3393071999308,647.3233840999892,647.323448900017,647.3393071999308,647.3393071999308,647.3393071999308,648.9251743999775,left,0.0,94.81964740005787,,,,,,,,,,,,,,,,,,,,,,,,,,,,,,,,sub-239,3.0,random_dot,60.01817350157759,
right,right,accuracy,,,,,0.0,1.0,1.0,0.0,16.0,0.0,32.0,1.0,648.9382014999865,,,,,,,,,648.9283801999409,650.1381930999923,650.9384357000235,650.9218547999626,650.921889099991,650.9384357000235,650.9384357000235,650.9384357000235,652.3251343999291,left,0.0,94.6280791000463,,,,,,,,,,,,,,,,,,,,,,,,,,,,,,,,sub-239,3.0,random_dot,60.01817350157759,
left,left,accuracy,,,,,0.0,1.0,1.0,0.0,16.0,1.0,33.0,0.0,652.3377793999389,,,,,,,,,652.3282653000206,653.1377994000213,653.9384869999485,653.9226207999745,653.9226837999886,653.9384869999485,653.9384869999485,653.9384869999485,659.540659399936,right,0.0,98.84560020000208,,,,,658.9377782000229,,,,,,,,,,,,,,,,,,,,,,,,,,,sub-239,3.0,random_dot,60.01817350157759,
right,right,accuracy,,,,,0.0,1.0,1.0,0.0,17.0,0.0,34.0,1.0,659.5535574000096,,,,,,,,,659.5438082999317,660.7533884999575,661.5541528000031,661.5382638999727,661.5383273999905,661.5541528000031,661.5541528000031,661.5541528000031,664.8732044999488,right,1.0,96.54873899987432,,,,,,,,,,,,,,,,,,,,,,,,,,,,,,,,sub-239,3.0,random_dot,60.01817350157759,
left,left,accuracy,,,,,0.0,1.0,1.0,0.0,17.0,1.0,35.0,0.0,664.8863606000086,,,,,,,,,664.876301900018,664.9863638000097,665.7870088999625,665.7710008999566,665.7710640999721,665.7870088999625,665.7870088999625,665.7870088999625,668.6395606999286,right,0.0,96.09566240001004,,,,,,,,,,,,,,,,,,,,,,,,,,,,,,,,sub-239,3.0,random_dot,60.01817350157759,
left,left,accuracy,,,,,0.0,1.0,1.0,0.0,18.0,0.0,36.0,0.0,668.6524809999391,,,,,,,,,668.6427126999479,669.4524947999744,670.2529823000077,670.2370803999947,670.2371696999762,670.2529823000077,670.2529823000077,670.2529823000077,673.238703400013,right,0.0,96.2288935999386,,,,,,,,,,,,,,,,,,,,,,,,,,,,,,,,sub-239,3.0,random_dot,60.01817350157759,
right,right,accuracy,,,,,0.0,1.0,1.0,0.0,18.0,1.0,37.0,1.0,673.2518844000297,,,,,,,,,673.2416553000221,673.3519013000187,674.1523466999643,674.1362414000323,674.1363044999307,674.1523466999643,674.1523466999643,674.1523466999643,678.2387025000062,left,0.0,97.33064639999066,,,,,,,,,,,,,,,,,,,,,,,,,,,,,,,,sub-239,3.0,random_dot,60.01817350157759,
left,left,accuracy,,,,,0.0,1.0,1.0,0.0,19.0,0.0,38.0,0.0,678.2510763999308,,,,,,,,,678.2419137000106,678.3512535999762,679.151963799959,679.1358195999637,679.1358809999656,679.151963799959,679.151963799959,679.151963799959,681.9212942000013,right,0.0,96.01218799990602,,,,,,,,,,,,,,,,,,,,,,,,,,,,,,,,sub-239,3.0,random_dot,60.01817350157759,
right,right,accuracy,,,,,0.0,1.0,1.0,0.0,19.0,1.0,39.0,1.0,681.9341385000153,,,,,,,,,681.9244542999659,683.1337954000337,683.9346679999726,683.9186517000198,683.9187158999266,683.9346679999726,683.9346679999726,683.9346679999726,686.4370946999406,right,1.0,95.73868879990188,,,,,,,,,,,,,,,,,,,,,,,,,,,,,,,,sub-239,3.0,random_dot,60.01817350157759,
left,left,accuracy,,,,,0.0,1.0,1.0,0.0,20.0,0.0,40.0,0.0,686.4501521999482,,,,,,,,,686.4403691999614,686.8001119999681,687.6007708000252,687.584916700027,687.5849783000303,687.6007708000252,687.6007708000252,687.6007708000252,691.3530152000021,right,0.0,96.98289909993764,,,,,,,,,,,,,,,,,,,,,,,,,,,,,,,,sub-239,3.0,random_dot,60.01817350157759,
right,right,accuracy,,,,,0.0,1.0,1.0,0.0,20.0,1.0,41.0,1.0,691.3661990999244,,,,,,,,,691.3561053000158,692.5660648000194,693.3669325000374,693.3509363000048,693.351000100025,693.3669325000374,693.3669325000374,693.3669325000374,700.5184792999644,right,1.0,100.38051639997866,,,,,698.3660889000166,,,,,,,,,,,,,,,,,,,,,,,,,,,sub-239,3.0,random_dot,60.01817350157759,
right,right,accuracy,,,,,0.0,1.0,1.0,0.0,21.0,0.0,42.0,1.0,700.5317620999413,,,,,,,,,700.5214592999546,701.731580200023,702.5323409999255,702.5163630000316,702.5164239000296,702.5323409999255,702.5323409999255,702.5323409999255,710.7504224999575,left,0.0,101.451679199934,,,,,707.5315757000353,,,,,,,,,,,,,,,,,,,,,,,,,,,sub-239,3.0,random_dot,60.01817350157759,
left,left,accuracy,,,,,0.0,1.0,1.0,0.0,21.0,1.0,43.0,0.0,710.7637330000289,,,,,,,,,710.7535252999514,711.9634172000224,712.7643558999989,712.748227700009,712.7482914000284,712.7643558999989,712.7643558999989,712.7643558999989,716.2331592999399,right,0.0,96.70316060003825,,,,,,,,,,,,,,,,,,,,,,,,,,,,,,,,sub-239,3.0,random_dot,60.01817350157759,
right,right,accuracy,,,,,0.0,1.0,1.0,0.0,22.0,0.0,44.0,1.0,716.2463094999548,,,,,,,,,716.2363077999325,716.5964261000045,717.3970296999905,717.3808865000028,717.3809480000054,717.3970296999905,717.3970296999905,717.3970296999905,724.998814499937,right,1.0,100.84130510000978,,,,,722.3962980000069,,,,,,,,,,,,,,,,,,,,,,,,,,,sub-239,3.0,random_dot,60.01817350157759,
left,left,accuracy,,,,,0.0,1.0,1.0,0.0,22.0,1.0,45.0,0.0,725.0118182000006,,,,,,,,,725.002056999947,725.1117791000288,725.9126193999546,725.8965263999999,725.8966224000324,725.9126193999546,725.9126193999546,725.9126193999546,729.2484799999511,right,0.0,96.56535379996058,,,,,,,,,,,,,,,,,,,,,,,,,,,,,,,,sub-239,3.0,random_dot,60.01817350157759,
right,right,accuracy,,,,,0.0,1.0,1.0,0.0,23.0,0.0,46.0,1.0,729.2610676999902,,,,,,,,,729.2515054999385,730.0611156999366,730.861844399944,730.8458440999966,730.8459067000076,730.861844399944,730.861844399944,730.861844399944,736.1305249999277,right,1.0,98.50371650001034,,,,,735.861130299978,,,,,,,,,,,,,,,,,,,,,,,,,,,sub-239,3.0,random_dot,60.01817350157759,
left,left,accuracy,,,,,0.0,1.0,1.0,0.0,23.0,1.0,47.0,0.0,736.1436069000047,,,,,,,,,736.1336307999445,736.9435869000154,737.7444289999548,737.7283045999939,737.7283671000041,737.7444289999548,737.7444289999548,737.7444289999548,742.379754900001,right,0.0,97.86519310006406,,,,,,,,,,,,,,,,,,,,,,,,,,,,,,,,sub-239,3.0,random_dot,60.01817350157759,
right,right,accuracy,,,,,0.0,1.0,1.0,0.0,24.0,0.0,48.0,1.0,742.3927907999605,,,,,,,,,742.3830299000256,743.1928249000339,743.993540699943,743.9776580999605,743.9777206999715,743.993540699943,743.993540699943,743.993540699943,748.6955407999922,left,0.0,97.94041449995711,,,,,,,,,,,,,,,,,,,,,,,,,,,,,,,,sub-239,3.0,random_dot,60.01817350157759,
left,left,accuracy,,,,,0.0,1.0,1.0,0.0,24.0,1.0,49.0,0.0,748.7086253999732,,,,,,,,,748.6987050999887,749.058823099942,749.8593692999566,749.8433776999591,749.8434408999747,749.8593692999566,749.8593692999566,749.8593692999566,755.0284462999552,right,0.0,98.4105445999885,,,,,754.8586675999686,,,,,,,,,,,,,,,,,,,,,,,,,,,sub-239,3.0,random_dot,60.01817350157759,
left,left,accuracy,,,,,0.0,1.0,1.0,0.0,25.0,0.0,50.0,0.0,755.0412529000314,,,,,,,,,755.0315749000292,755.8409834000049,756.6418952000095,756.6258915000362,756.6259787000017,756.6418952000095,756.6418952000095,756.6418952000095,763.2441299000056,right,0.0,99.8443708999548,,,,,761.641139299958,,,,,,,,,,,,,,,,,,,,,,,,,,,sub-239,3.0,random_dot,60.01817350157759,
right,right,accuracy,,,,,0.0,1.0,1.0,0.0,25.0,1.0,51.0,1.0,763.2567835999653,,,,,,,,,763.2473588000285,764.0568548999727,764.857573700021,764.8414210999617,764.841486099991,764.857573700021,764.857573700021,764.857573700021,769.1433984999312,right,1.0,97.53027549991384,,,,,,,,,,,,,,,,,,,,,,,,,,,,,,,,sub-239,3.0,random_dot,60.01817350157759,
left,left,accuracy,,,,,0.0,1.0,1.0,0.0,26.0,0.0,52.0,0.0,769.1560768999625,,,,,,,,,769.1465094999876,769.2561415999662,770.0569162999745,770.0408754999517,770.0409626000328,770.0569162999745,770.0569162999745,770.0569162999745,773.8923885000404,left,1.0,97.0653971999418,,,,,,,,,,,,,,,,,,,,,,,,,,,,,,,,sub-239,3.0,random_dot,60.01817350157759,
right,right,accuracy,,,,,0.0,1.0,1.0,0.0,26.0,1.0,53.0,1.0,773.9054000999313,,,,,,,,,773.8953792999964,774.0054841999663,774.806293600006,774.7901436999673,774.7902051999699,774.806293600006,774.806293600006,774.806293600006,778.8084141999716,right,1.0,97.23176549992058,,,,,,,,,,,,,,,,,,,,,,,,,,,,,,,,sub-239,3.0,random_dot,60.01817350157759,
left,left,accuracy,,,,,0.0,1.0,1.0,0.0,27.0,0.0,54.0,0.0,778.8213855000213,,,,,,,,,778.811697899946,779.621357099968,780.4221804999979,780.4060733999358,780.4061569999903,780.4221804999979,780.4221804999979,780.4221804999979,785.6743679000065,left,1.0,98.49376169999596,,,,,785.4214057000354,,,,,,,,,,,,,,,,,,,,,,,,,,,sub-239,3.0,random_dot,60.01817350157759,
right,right,accuracy,,,,,0.0,1.0,1.0,0.0,27.0,1.0,55.0,1.0,785.6872413000092,,,,,,,,,785.6775065000402,785.7872292000102,786.5881177999545,786.5720985999797,786.5721606999869,786.5881177999545,786.5881177999545,786.5881177999545,789.057142799953,right,1.0,95.7046415999066,,,,,,,,,,,,,,,,,,,,,,,,,,,,,,,,sub-239,3.0,random_dot,60.01817350157759,
right,right,accuracy,,,,,0.0,1.0,1.0,0.0,28.0,0.0,56.0,1.0,789.0700554000214,,,,,,,,,789.0601961000357,790.27002549998,791.0706747999648,791.0548678999767,791.0549295999808,791.0706747999648,791.0706747999648,791.0706747999648,794.8231283000205,right,1.0,96.98946609999985,,,,,,,,,,,,,,,,,,,,,,,,,,,,,,,,sub-239,3.0,random_dot,60.01817350157759,
left,left,accuracy,,,,,0.0,1.0,1.0,0.0,28.0,1.0,57.0,0.0,794.8360170000233,,,,,,,,,794.8262550999643,795.6358708000043,796.4368138000136,796.4208189999918,796.4208825000096,796.4368138000136,796.4368138000136,796.4368138000136,799.8225544999586,left,1.0,96.62662060000002,,,,,,,,,,,,,,,,,,,,,,,,,,,,,,,,sub-239,3.0,random_dot,60.01817350157759,
left,left,accuracy,,,,,0.0,1.0,1.0,0.0,29.0,0.0,58.0,0.0,799.8353159000399,,,,,,,,,799.8257594000315,801.03537399997,801.8359599999385,801.8200095000211,801.820073000039,801.8359599999385,801.8359599999385,801.8359599999385,803.7556657999521,left,1.0,95.15295270003844,,,,,,,,,,,,,,,,,,,,,,,,,,,,,,,,sub-239,3.0,random_dot,60.01817350157759,
right,right,accuracy,,,,,0.0,1.0,1.0,0.0,29.0,1.0,59.0,1.0,803.7682168999454,,,,,,,,,803.75882680004,804.5681289000204,805.3689187000273,805.3528502000263,805.3529132999247,805.3689187000273,805.3689187000273,805.3689187000273,813.1038711000001,right,1.0,100.97521249996498,,,,,810.3681389000267,,,,,,,,,,,,,,,,,,,,,,,,,,,sub-239,3.0,random_dot,60.01817350157759,
,,accuracy,,,,,0.0,1.0,1.0,0.0,,,,,,,,,,,,,,,,,,,,,,,,,,,,,,,,,,,,,,,,,,,,,,,,,,,,,,,,,sub-239,3.0,random_dot,60.01817350157759,
,,,,,,,,,,,,,,,,,,,,,,,,,,,,,,,,,,,,,,,,,,,,,,,,,,,,,,,,,,,,,,,813.1062223999761,813.1170350000029,818.1163440999808,818.1014566000085,sub-239,,,,
