direction,corrAns,randomInstr,practice_trials.thisRepN,practice_trials.thisTrialN,practice_trials.thisN,practice_trials.thisIndex,instr_trials.thisRepN,instr_trials.thisTrialN,instr_trials.thisN,instr_trials.thisIndex,test_trials.thisRepN,test_trials.thisTrialN,test_trials.thisN,test_trials.thisIndex,thisRow.t,notes,general_instruction.started,textGeneralInstr.started,respGeneralInstr.started,general_instruction.stopped,respGeneralInstr.keys,respGeneralInstr.rt,respGeneralInstr.duration,ITI.started,fixcross.started,fixcross.stopped,ITI.stopped,dots.started,backgroundDots.started,stimulusDots.started,respDots.started,stimulusDots.stopped,dots.stopped,respDots.keys,respDots.corr,respDots.rt,respDots.duration,feedback.started,textFeedback.started,feedback.stopped,textFeedback.stopped,info.started,textInfo.started,keyRespInfo.started,info.stopped,keyRespInfo.keys,keyRespInfo.rt,keyRespInfo.duration,test_instruction.started,textTestInstr.started,respTestInstr.started,test_instruction.stopped,respTestInstr.keys,respTestInstr.rt,respTestInstr.duration,random_instruction.started,textRandomInstr.started,respRandomInstr.started,random_instruction.stopped,respRandomInstr.keys,respRandomInstr.rt,respRandomInstr.duration,goodbye.started,textGoodbye.started,textGoodbye.stopped,goodbye.stopped,participant,session,expName,frameRate,Unnamed: 74
,,,,,,,,,,,,,,,,,0.0432154999580234,0.0580955001059919,0.0580955001059919,55.82593540009111,space,77.31781830010004,,,,,,,,,,,,,,,,,,,,,,,,,,,,,,,,,,,,,,,,,,,,,sub-036,1.0,random_dot,60.4656702972709,
right,right,,0.0,0.0,0.0,1.0,,,,,,,,,55.884118099929765,,,,,,,,,55.87584670004435,56.63810819992796,57.44761119992472,57.42220890009776,57.42223070003092,57.44761119992472,57.44761119992472,57.44761119992472,62.422258500009775,80.32745569990948,left,0.0,44.439681499963626,,80.32931150007062,80.34688200009987,80.84362079994753,,,,,,,,,,,,,,,,,,,,,,,,,,,sub-036,1.0,random_dot,60.4656702972709,
left,left,,0.0,1.0,1.0,0.0,,,,,,,,,80.86013699998148,,,,,,,,,80.84406169992872,81.19212829996832,81.99299290007912,81.97605950012803,81.97608599998057,81.99299290007912,81.99299290007912,81.99299290007912,,84.87726820004173,left,1.0,24.432110900059342,,84.8779698999133,84.8928159000352,85.37701070006005,85.3925119000487,,,,,,,,,,,,,,,,,,,,,,,,,,sub-036,1.0,random_dot,60.4656702972709,
right,right,,1.0,0.0,2.0,1.0,,,,,,,,,85.3925119000487,,,,,,,,,85.37744150008075,86.59320349991322,87.39260099991225,87.37629100005142,87.37631179997697,87.39260099991225,87.39260099991225,87.39260099991225,,89.07830090005882,right,1.0,23.23638210003264,,89.07885859999806,89.09321480011567,89.57666009990498,89.59319650009274,,,,,,,,,,,,,,,,,,,,,,,,,,sub-036,1.0,random_dot,60.4656702972709,
left,left,,1.0,1.0,3.0,0.0,,,,,,,,,89.59319650009274,,,,,,,,,89.57706440007314,90.39171770005488,91.19383500004189,91.17632590001448,91.17634769994766,91.19383500004189,91.19383500004189,91.19383500004189,,93.11155720008536,left,1.0,23.47570120007731,,93.11211280012505,93.12606779998168,93.60933910007589,93.6256679999642,,,,,,,,,,,,,,,,,,,,,,,,,,sub-036,1.0,random_dot,60.4656702972709,
left,left,,2.0,0.0,4.0,0.0,,,,,,,,,93.6256679999642,,,,,,,,,93.60974749992602,93.70863700006156,94.50962139992043,94.49355240003206,94.49357510008848,94.50962139992043,94.50962139992043,94.50962139992043,,96.51100599998608,left,1.0,23.5544958000537,,96.51169449998996,96.52607270004228,97.0104883001186,97.02751079993322,,,,,,,,,,,,,,,,,,,,,,,,,,sub-036,1.0,random_dot,60.4656702972709,
right,right,,2.0,1.0,5.0,1.0,,,,,,,,,97.02751079993322,,,,,,,,,97.01088809990324,97.37660240009428,98.19304169993848,98.17634349991567,98.17636870010756,98.19304169993848,98.19304169993848,98.19304169993848,,99.7614581999369,right,1.0,23.12267379998229,,99.76202389993703,99.77639089990409,100.25993099994956,100.27520060003737,,,,,,,,,,,,,,,,,,,,,,,,,,sub-036,1.0,random_dot,60.4656702972709,
left,left,,3.0,0.0,6.0,0.0,,,,,,,,,100.27520060003737,,,,,,,,,100.26037360006012,101.07654440007173,101.87675329996272,101.86108350008726,101.86110919993372,101.87675329996272,101.87675329996272,101.87675329996272,,103.56038770009764,left,1.0,23.23963369987905,,103.56107780011372,103.5759769999422,104.0605953000486,104.07640139991418,,,,,,,,,,,,,,,,,,,,,,,,,,sub-036,1.0,random_dot,60.4656702972709,
right,right,,3.0,1.0,7.0,1.0,,,,,,,,,104.07640139991418,,,,,,,,,104.06102259992622,104.15914630005136,104.96062709996475,104.94411909999326,104.94414440006948,104.96062709996475,104.96062709996475,104.96062709996475,,106.7276787001174,left,0.0,23.313113499898463,,106.72831619996578,106.74235299997964,107.2269351000432,107.24234090000392,,,,,,,,,,,,,,,,,,,,,,,,,,sub-036,1.0,random_dot,60.4656702972709,
left,left,,4.0,0.0,8.0,0.0,,,,,,,,,107.24234090000392,,,,,,,,,107.22735870000906,108.04322439990938,108.8426419000607,108.82752769999206,108.8275510999374,108.8426419000607,108.8426419000607,108.8426419000607,,110.84417650010435,right,0.0,23.55886350013316,,110.84490319993348,110.85923720011488,111.34325030003674,111.3593208999373,,,,,,,,,,,,,,,,,,,,,,,,,,sub-036,1.0,random_dot,60.4656702972709,
right,right,,4.0,1.0,9.0,1.0,,,,,,,,,111.3593208999373,,,,,,,,,111.34375509992242,111.70966319995932,112.51045070006512,112.49338479992002,112.49340569996276,112.51045070006512,112.51045070006512,112.51045070006512,,114.16181330010296,left,0.0,23.20665620011277,,114.16247380012646,114.17590639996342,114.65997030003928,114.67566550010817,,,,,,,,,,,,,,,,,,,,,,,,,,sub-036,1.0,random_dot,60.4656702972709,
right,right,,5.0,0.0,10.0,1.0,,,,,,,,,114.67566550010817,,,,,,,,,114.66042630001904,115.02619979996234,115.82702199998312,115.81031289999372,115.8103368000593,115.82702199998312,115.82702199998312,115.82702199998312,,117.96119159995578,left,0.0,23.690159699879587,,117.96170830004849,117.97572900005616,118.45928839989938,118.47559839999305,,,,,,,,,,,,,,,,,,,,,,,,,,sub-036,1.0,random_dot,60.4656702972709,
left,left,,5.0,1.0,11.0,0.0,,,,,,,,,118.47559839999305,,,,,,,,,118.45968759991229,119.6764245000668,120.47671630000696,120.45956890005618,120.45959599991328,120.47671630000696,120.47671630000696,120.47671630000696,,122.29449689993636,right,0.0,23.36545010004193,,122.29514729999936,122.30883230012842,122.7941843001172,122.80964049999602,,,,,,,,,,,,,,,,,,,,,,,,,,sub-036,1.0,random_dot,60.4656702972709,
right,right,,6.0,0.0,12.0,1.0,,,,,,,,,122.80964049999602,,,,,,,,,122.79478490003385,124.00985989999026,124.80984480003826,124.79352280008608,124.79355860012583,124.80984480003826,124.80984480003826,124.80984480003826,,126.99398269993252,right,1.0,23.731024200096726,,126.99450329993851,127.0085517000407,127.49395289993844,127.50959439994767,,,,,,,,,,,,,,,,,,,,,,,,,,sub-036,1.0,random_dot,60.4656702972709,
left,left,,6.0,1.0,13.0,0.0,,,,,,,,,127.50959439994767,,,,,,,,,127.49462669994682,127.8588260000106,128.65969690005295,128.64354930003174,128.64356860006228,128.65969690005295,128.65969690005295,128.65969690005295,,133.1777663999237,right,0.0,26.06467120000161,,133.1783102999907,133.1926647000946,133.67654699995182,133.69308339990675,,,,,,,,,,,,,,,,,,,,,,,,,,sub-036,1.0,random_dot,60.4656702972709,
right,right,,7.0,0.0,14.0,1.0,,,,,,,,,133.69308339990675,,,,,,,,,133.67705709999427,134.89279889990576,135.69381160009652,135.67719560000114,135.67722099996172,135.69381160009652,135.69381160009652,135.69381160009652,,137.82723130006343,left,0.0,23.680620800005272,,137.82773940009065,137.84267899999395,138.3272607999388,138.34283940005116,,,,,,,,,,,,,,,,,,,,,,,,,,sub-036,1.0,random_dot,60.4656702972709,
left,left,,7.0,1.0,15.0,0.0,,,,,,,,,138.34283940005116,,,,,,,,,138.32773800008,138.69312179996632,139.49361989996396,139.47631660010666,139.47634449996983,139.49361989996396,139.49361989996396,139.49361989996396,,143.2774946000427,right,0.0,25.334384200163186,,143.27803439996205,143.2924659999553,143.77707460010424,143.79326210008003,,,,,,,,,,,,,,,,,,,,,,,,,,sub-036,1.0,random_dot,60.4656702972709,
left,left,,8.0,0.0,16.0,0.0,,,,,,,,,143.79326210008003,,,,,,,,,143.77749060001224,143.89255600003526,144.69309809990227,144.67694259993732,144.67696060007438,144.69309809990227,144.69309809990227,144.69309809990227,,147.46065409993753,left,1.0,24.32312720012851,,147.46115990006365,147.4750884999521,147.9595395999495,147.9760537999682,,,,,,,,,,,,,,,,,,,,,,,,,,sub-036,1.0,random_dot,60.4656702972709,
right,right,,8.0,1.0,17.0,1.0,,,,,,,,,147.9760537999682,,,,,,,,,147.95996410003863,148.77607739996165,149.57578630000353,149.5593252000399,149.55934550007805,149.57578630000353,149.57578630000353,149.57578630000353,,152.09404559992254,right,1.0,24.06414800020866,,152.09469910012558,152.1095982999541,152.5935832001269,152.6093327999115,,,,,,,,,,,,,,,,,,,,,,,,,,sub-036,1.0,random_dot,60.4656702972709,
left,left,,9.0,0.0,18.0,0.0,,,,,,,,,152.6093327999115,,,,,,,,,152.59398450003937,153.80865389993414,154.60988999996334,154.5932412999682,154.59326140000485,154.60988999996334,154.60988999996334,154.60988999996334,,157.3102675001137,right,0.0,24.252347799949348,,157.3108191001229,157.32565889996476,157.81045860005543,157.82675509992987,,,,,,,,,,,,,,,,,,,,,,,,,,sub-036,1.0,random_dot,60.4656702972709,
right,right,,9.0,1.0,19.0,1.0,,,,,,,,,157.82675509992987,,,,,,,,,157.81089349999093,158.6264675001148,159.42641500011086,159.4105181999039,159.41054140008055,159.42641500011086,159.42641500011086,159.42641500011086,,164.29403030010872,left,0.0,26.42685759998858,,164.29473279998638,164.31518279993907,164.80951809999533,,,,,,,,,,,,,,,,,,,,,,,,,,,sub-036,1.0,random_dot,60.4656702972709,
,,,,,,,,,,,,,,,,,,,,,,,,,,,,,,,,,,,,,,,,,,164.8096161999274,164.82612080010583,164.82612080010583,168.47727810009383,space,25.20928610023111,,,,,,,,,,,,,,,,,,,,sub-036,1.0,random_dot,60.4656702972709,
,,,,,,,,,,,,,,,,,,,,,,,,,,,,,,,,,,,,,,,,,,,,,,,,,168.47733779996634,168.4926593999844,168.4926593999844,177.1939397000242,space,30.252193600172177,,,,,,,,,,,,,sub-036,1.0,random_dot,60.4656702972709,
right,right,accuracy,,,,,0.0,0.0,0.0,0.0,0.0,0.0,0.0,1.0,188.26698660012332,,,,,,,,,188.2599275000393,189.06651009991765,189.8676795999054,189.85108810011295,189.8511141000781,189.8676795999054,189.8676795999054,189.8676795999054,,191.48676649993288,right,1.0,23.178393400041383,,,,,,,,,,,,,,,,,,,,177.2227177999448,177.24337389995344,177.24337389995344,188.25250820000656,space,32.55829819990322,,,,,,sub-036,1.0,random_dot,60.4656702972709,
left,left,accuracy,,,,,0.0,0.0,0.0,0.0,0.0,1.0,1.0,0.0,191.5004994000774,,,,,,,,,191.48799029993825,191.850279700011,192.65141970012337,192.6343783999328,192.63440539990552,192.65141970012337,192.65141970012337,192.65141970012337,,195.4688019999303,left,1.0,24.37460230011493,,,,,,,,,,,,,,,,,,,,,,,,,,,,,,,sub-036,1.0,random_dot,60.4656702972709,
left,left,accuracy,,,,,0.0,0.0,0.0,0.0,1.0,0.0,2.0,0.0,195.4839715999551,,,,,,,,,195.46974240010604,196.28386639989915,197.08501369995065,197.06847860012203,197.06849949993196,197.08501369995065,197.08501369995065,197.08501369995065,,199.0688932999037,left,1.0,23.54268880002201,,,,,,,,,,,,,,,,,,,,,,,,,,,,,,,sub-036,1.0,random_dot,60.4656702972709,
right,right,accuracy,,,,,0.0,0.0,0.0,0.0,1.0,1.0,3.0,1.0,199.08322310005315,,,,,,,,,199.06986059993503,199.18474010005596,199.9853491000831,199.9679024999496,199.96792230010035,199.9853491000831,199.9853491000831,199.9853491000831,,201.71918820007704,left,0.0,23.286204099887986,,,,,,,,,,,,,,,,,,,,,,,,,,,,,,,sub-036,1.0,random_dot,60.4656702972709,
right,right,accuracy,,,,,0.0,0.0,0.0,0.0,2.0,0.0,4.0,1.0,201.73411449999548,,,,,,,,,201.72017439990304,201.83484659995884,202.635084599955,202.61824740003797,202.6182685000822,202.635084599955,202.635084599955,202.635084599955,,203.869285200024,right,1.0,22.78431580006145,,,,,,,,,,,,,,,,,,,,,,,,,,,,,,,sub-036,1.0,random_dot,60.4656702972709,
left,left,accuracy,,,,,0.0,0.0,0.0,0.0,2.0,1.0,5.0,0.0,203.88412389997396,,,,,,,,,203.8703000000678,204.68448760011236,205.4850329000037,205.46788370003924,205.46790389996025,205.4850329000037,205.4850329000037,205.4850329000037,,209.18498670007105,left,1.0,25.25144850020297,,,,,,,,,,,,,,,,,,,,,,,,,,,,,,,sub-036,1.0,random_dot,60.4656702972709,
left,left,accuracy,,,,,0.0,0.0,0.0,0.0,3.0,0.0,6.0,0.0,209.19969279994257,,,,,,,,,209.1860130999703,209.53396159992556,210.33483979990703,210.3182580000721,210.31828240002503,210.33483979990703,210.33483979990703,210.33483979990703,,212.35206720000133,left,1.0,23.56238600006327,,,,,,,,,,,,,,,,,,,,,,,,,,,,,,,sub-036,1.0,random_dot,60.4656702972709,
right,right,accuracy,,,,,0.0,0.0,0.0,0.0,3.0,1.0,7.0,1.0,212.3666161000729,,,,,,,,,212.3537016999908,212.4665850000456,213.2682944999542,213.25208700005896,213.25210830010477,213.2682944999542,213.2682944999542,213.2682944999542,,217.11831680010076,right,1.0,25.39948710007593,,,,,,,,,,,,,,,,,,,,,,,,,,,,,,,sub-036,1.0,random_dot,60.4656702972709,
left,left,accuracy,,,,,0.0,0.0,0.0,0.0,4.0,0.0,8.0,0.0,217.1330478999298,,,,,,,,,217.11926830001173,217.48574570007625,218.3006543999072,218.2846639000345,218.28468809998597,218.3006543999072,218.3006543999072,218.3006543999072,,221.08565429993905,left,1.0,24.342384199844677,,,,,,,,,,,,,,,,,,,,,,,,,,,,,,,sub-036,1.0,random_dot,60.4656702972709,
right,right,accuracy,,,,,0.0,0.0,0.0,0.0,4.0,1.0,9.0,1.0,221.1001011999324,,,,,,,,,221.0865855999291,221.2009517000988,222.0174400000833,222.00031080003828,222.00033179996532,222.0174400000833,222.0174400000833,222.0174400000833,,223.3678454000037,right,1.0,22.90749470004812,,,,,,,,,,,,,,,,,,,,,,,,,,,,,,,sub-036,1.0,random_dot,60.4656702972709,
right,right,accuracy,,,,,0.0,0.0,0.0,0.0,5.0,0.0,10.0,1.0,223.38296209997495,,,,,,,,,223.3691229999531,224.16741409990937,224.968345399946,224.95166149991564,224.95168459997512,224.968345399946,224.968345399946,224.968345399946,,226.28504589991644,left,0.0,22.87280250014737,,,,,,,,,,,,,,,,,,,,,,,,,,,,,,,sub-036,1.0,random_dot,60.4656702972709,
left,left,accuracy,,,,,0.0,0.0,0.0,0.0,5.0,1.0,11.0,0.0,226.30037630000152,,,,,,,,,226.28602949995548,227.50075790006667,228.301052399911,228.28487879992463,228.28490280010735,228.301052399911,228.301052399911,228.301052399911,,229.769323799992,left,1.0,23.026609500171617,,,,,,,,,,,,,,,,,,,,,,,,,,,,,,,sub-036,1.0,random_dot,60.4656702972709,
left,left,accuracy,,,,,0.0,0.0,0.0,0.0,6.0,0.0,12.0,0.0,229.7832283999305,,,,,,,,,229.77029290003705,230.58413599990308,231.38499010005037,231.36756930011325,231.3675971000921,231.38499010005037,231.38499010005037,231.38499010005037,,232.4024235000834,right,0.0,22.567668499890715,,,,,,,,,,,,,,,,,,,,,,,,,,,,,,,sub-036,1.0,random_dot,60.4656702972709,
right,right,accuracy,,,,,0.0,0.0,0.0,0.0,6.0,1.0,13.0,1.0,232.4177339999005,,,,,,,,,232.40367919998243,233.217641599942,234.01782170007937,234.0015491000377,234.00157129997388,234.01782170007937,234.01782170007937,234.01782170007937,,235.435354599962,left,0.0,22.97426819987595,,,,,,,,,,,,,,,,,,,,,,,,,,,,,,,sub-036,1.0,random_dot,60.4656702972709,
right,right,accuracy,,,,,0.0,0.0,0.0,0.0,7.0,0.0,14.0,1.0,235.4500839000102,,,,,,,,,235.43639099993743,236.65105010010305,237.45166360004805,237.43532110005617,237.43534389999692,237.45166360004805,237.45166360004805,237.45166360004805,,239.419245300116,right,1.0,23.513219900196415,,,,,,,,,,,,,,,,,,,,,,,,,,,,,,,sub-036,1.0,random_dot,60.4656702972709,
left,left,accuracy,,,,,0.0,0.0,0.0,0.0,7.0,1.0,15.0,0.0,239.43421380012296,,,,,,,,,239.420264699962,240.63408500002697,241.43483370007016,241.41847899998535,241.41849899990484,241.43483370007016,241.43483370007016,241.43483370007016,,243.5356050999835,right,0.0,23.6547133999411,,,,,,,,,,,,,,,,,,,,,,,,,,,,,,,sub-036,1.0,random_dot,60.4656702972709,
left,left,accuracy,,,,,0.0,0.0,0.0,0.0,8.0,0.0,16.0,0.0,243.5502402000129,,,,,,,,,243.5366269999649,243.90111620002423,244.7014663000591,244.6853724999819,244.68539460003376,244.7014663000591,244.7014663000591,244.7014663000591,,246.1845378000289,left,1.0,23.042984899831936,,,,,,,,,,,,,,,,,,,,,,,,,,,,,,,sub-036,1.0,random_dot,60.4656702972709,
right,right,accuracy,,,,,0.0,0.0,0.0,0.0,8.0,1.0,17.0,1.0,246.19968899991363,,,,,,,,,246.1855738000013,246.5504586999305,247.3514370000921,247.3345238999464,247.33455609995872,247.3514370000921,247.3514370000921,247.3514370000921,,248.81851090001877,right,1.0,23.02468949998729,,,,,,,,,,,,,,,,,,,,,,,,,,,,,,,sub-036,1.0,random_dot,60.4656702972709,
right,right,accuracy,,,,,0.0,0.0,0.0,0.0,9.0,0.0,18.0,1.0,248.83338059997183,,,,,,,,,248.81948389997703,249.1668412999716,249.96804650011472,249.9516050000675,249.95162559999156,249.96804650011472,249.96804650011472,249.96804650011472,,251.035609100014,right,1.0,22.627576099941507,,,,,,,,,,,,,,,,,,,,,,,,,,,,,,,sub-036,1.0,random_dot,60.4656702972709,
left,left,accuracy,,,,,0.0,0.0,0.0,0.0,9.0,1.0,19.0,0.0,251.04992619995028,,,,,,,,,251.0368623000104,251.4009845000692,252.200839899946,252.183970999904,252.1839922000654,252.200839899946,252.200839899946,252.200839899946,,253.17395399999805,left,1.0,22.513182200025767,,,,,,,,,,,,,,,,,,,,,,,,,,,,,,,sub-036,1.0,random_dot,60.4656702972709,
right,right,accuracy,,,,,0.0,0.0,0.0,0.0,10.0,0.0,20.0,1.0,253.1829164000228,,,,,,,,,253.17491409997456,254.3839447000064,255.1845515000168,255.16811820003204,255.16813799995,255.1845515000168,255.1845515000168,255.1845515000168,,257.6851838999428,left,0.0,24.047106799902394,,,,,,,,,,,,,,,,,,,,,,,,,,,,,,,sub-036,1.0,random_dot,60.4656702972709,
left,left,accuracy,,,,,0.0,0.0,0.0,0.0,10.0,1.0,21.0,0.0,257.70135180000216,,,,,,,,,257.6861268999055,257.80071670003235,258.6013843000401,258.58465260011144,258.5846764999442,258.6013843000401,258.6013843000401,258.6013843000401,,260.2851760999765,right,0.0,23.230079000117257,,,,,,,,,,,,,,,,,,,,,,,,,,,,,,,sub-036,1.0,random_dot,60.4656702972709,
right,right,accuracy,,,,,0.0,0.0,0.0,0.0,11.0,0.0,22.0,1.0,260.3003450999968,,,,,,,,,260.2864612999838,260.40052010002546,261.2007506999653,261.1846473000478,261.1846678999718,261.2007506999653,261.2007506999653,261.2007506999653,,263.70213140011765,right,1.0,24.050422600004826,,,,,,,,,,,,,,,,,,,,,,,,,,,,,,,sub-036,1.0,random_dot,60.4656702972709,
left,left,accuracy,,,,,0.0,0.0,0.0,0.0,11.0,1.0,23.0,0.0,263.7172068001237,,,,,,,,,263.7031666999683,264.06763070006855,264.8675534001086,264.85170800006017,264.8517301999964,264.8675534001086,264.8675534001086,264.8675534001086,,266.5844384999946,right,0.0,23.265264299931005,,,,,,,,,,,,,,,,,,,,,,,,,,,,,,,sub-036,1.0,random_dot,60.4656702972709,
right,right,accuracy,,,,,0.0,0.0,0.0,0.0,12.0,0.0,24.0,1.0,266.5998889999464,,,,,,,,,266.5853393001016,267.4002805000637,268.2015210001264,268.1845957001205,268.18461759993806,268.2015210001264,268.2015210001264,268.2015210001264,,269.66871739993803,left,0.0,23.017918600002304,,,,,,,,,,,,,,,,,,,,,,,,,,,,,,,sub-036,1.0,random_dot,60.4656702972709,
left,left,accuracy,,,,,0.0,0.0,0.0,0.0,12.0,1.0,25.0,0.0,269.68453310010955,,,,,,,,,269.6697744000703,269.7839345999528,270.5848527001217,270.56694789999165,270.5669728999492,270.5848527001217,270.5848527001217,270.5848527001217,,272.751802300103,left,1.0,23.725389699917287,,,,,,,,,,,,,,,,,,,,,,,,,,,,,,,sub-036,1.0,random_dot,60.4656702972709,
left,left,accuracy,,,,,0.0,0.0,0.0,0.0,13.0,0.0,26.0,0.0,272.766694100108,,,,,,,,,272.75309480004944,273.11665700003505,273.9177616001107,273.90169420000166,273.9017189000733,273.9177616001107,273.9177616001107,273.9177616001107,,275.45235730009153,right,0.0,23.08372660004534,,,,,,,,,,,,,,,,,,,,,,,,,,,,,,,sub-036,1.0,random_dot,60.4656702972709,
right,right,accuracy,,,,,0.0,0.0,0.0,0.0,13.0,1.0,27.0,1.0,275.46707329992205,,,,,,,,,275.453810099978,275.81757499999367,276.61831080005504,276.6019093999639,276.60193080012687,276.61831080005504,276.61831080005504,276.61831080005504,,279.03543319995515,left,0.0,23.968367000110447,,,,,,,,,,,,,,,,,,,,,,,,,,,,,,,sub-036,1.0,random_dot,60.4656702972709,
right,right,accuracy,,,,,0.0,0.0,0.0,0.0,14.0,0.0,28.0,1.0,279.0504584000446,,,,,,,,,279.0367008999456,280.2506590001285,281.0512687000446,281.03466299991123,281.0346846000757,281.0512687000446,281.0512687000446,281.0512687000446,,282.3845949000679,left,0.0,22.88551270007156,,,,,,,,,,,,,,,,,,,,,,,,,,,,,,,sub-036,1.0,random_dot,60.4656702972709,
left,left,accuracy,,,,,0.0,0.0,0.0,0.0,14.0,1.0,29.0,0.0,282.3996536999475,,,,,,,,,282.3862195999827,282.5005371000152,283.3014676000457,283.2844809999224,283.2845050001051,283.3014676000457,283.3014676000457,283.3014676000457,,284.7017240000423,right,0.0,22.958539300132543,,,,,,,,,,,,,,,,,,,,,,,,,,,,,,,sub-036,1.0,random_dot,60.4656702972709,
left,left,accuracy,,,,,0.0,0.0,0.0,0.0,15.0,0.0,30.0,0.0,284.7161272999365,,,,,,,,,284.7026571999304,285.9173161999788,286.71803550003096,286.70041990000755,286.7004466999788,286.71803550003096,286.71803550003096,286.71803550003096,,289.1350847000722,right,0.0,23.97169009991921,,,,,,,,,,,,,,,,,,,,,,,,,,,,,,,sub-036,1.0,random_dot,60.4656702972709,
right,right,accuracy,,,,,0.0,0.0,0.0,0.0,15.0,1.0,31.0,1.0,289.1502193999477,,,,,,,,,289.13604749995284,289.9506310001016,290.7512898000423,290.73418630007654,290.73420899990015,290.7512898000423,290.7512898000423,290.7512898000423,,292.3182216999121,right,1.0,23.12700459989719,,,,,,,,,,,,,,,,,,,,,,,,,,,,,,,sub-036,1.0,random_dot,60.4656702972709,
left,left,accuracy,,,,,0.0,0.0,0.0,0.0,16.0,0.0,32.0,0.0,292.33260730002075,,,,,,,,,292.31920040003024,293.5337771999184,294.33481350005604,294.3178844000213,294.317905300064,294.33481350005604,294.33481350005604,294.33481350005604,,296.2188438999001,left,1.0,23.43278870009817,,,,,,,,,,,,,,,,,,,,,,,,,,,,,,,sub-036,1.0,random_dot,60.4656702972709,
right,right,accuracy,,,,,0.0,0.0,0.0,0.0,16.0,1.0,33.0,1.0,296.23327740002424,,,,,,,,,296.2197829999496,296.3339674999006,297.1346758999862,297.1182385000866,297.1182655999437,297.1346758999862,297.1346758999862,297.1346758999862,,299.51868920004927,left,0.0,23.944342900067568,,,,,,,,,,,,,,,,,,,,,,,,,,,,,,,sub-036,1.0,random_dot,60.4656702972709,
right,right,accuracy,,,,,0.0,0.0,0.0,0.0,17.0,0.0,34.0,1.0,299.53271170007065,,,,,,,,,299.51972360000946,299.88375780009665,300.6846543001011,300.6683134001214,300.6683348000515,300.6846543001011,300.6846543001011,300.6846543001011,,303.2022537000012,left,0.0,24.078110600123185,,,,,,,,,,,,,,,,,,,,,,,,,,,,,,,sub-036,1.0,random_dot,60.4656702972709,
left,left,accuracy,,,,,0.0,0.0,0.0,0.0,17.0,1.0,35.0,0.0,303.2166530000977,,,,,,,,,303.2032079000492,303.3170930000488,304.1177070999984,304.1018809999805,304.1019000001252,304.1177070999984,304.1177070999984,304.1177070999984,,306.0856685000472,right,0.0,23.528475899947807,,,,,,,,,,,,,,,,,,,,,,,,,,,,,,,sub-036,1.0,random_dot,60.4656702972709,
right,right,accuracy,,,,,0.0,0.0,0.0,0.0,18.0,0.0,36.0,1.0,306.1001309999265,,,,,,,,,306.08689210005105,306.20025609992445,307.0010162999388,306.9840293999296,306.9840549000073,307.0010162999388,307.0010162999388,307.0010162999388,,308.8185962999705,right,1.0,23.37515780003741,,,,,,,,,,,,,,,,,,,,,,,,,,,,,,,sub-036,1.0,random_dot,60.4656702972709,
left,left,accuracy,,,,,0.0,0.0,0.0,0.0,18.0,1.0,37.0,0.0,308.83314929995686,,,,,,,,,308.8195323001128,309.1839499999769,309.9846234000288,309.9684947000351,309.96851580007933,309.9846234000288,309.9846234000288,309.9846234000288,,312.21879329998046,left,1.0,23.78571359999478,,,,,,,,,,,,,,,,,,,,,,,,,,,,,,,sub-036,1.0,random_dot,60.4656702972709,
left,left,accuracy,,,,,0.0,0.0,0.0,0.0,19.0,0.0,38.0,0.0,312.23366259993054,,,,,,,,,312.2198517001234,313.43312739999965,314.234615100082,314.21792760002427,314.2179521000944,314.234615100082,314.234615100082,314.234615100082,,315.8018769000191,right,0.0,23.12791800010018,,,,,,,,,,,,,,,,,,,,,,,,,,,,,,,sub-036,1.0,random_dot,60.4656702972709,
right,right,accuracy,,,,,0.0,0.0,0.0,0.0,19.0,1.0,39.0,1.0,315.8166153999045,,,,,,,,,315.8031097999774,315.9174448000267,316.7174241000321,316.7011977999937,316.7012211000547,316.7174241000321,316.7174241000321,316.7174241000321,,319.3682816000656,right,1.0,24.20209280005656,,,,,,,,,,,,,,,,,,,,,,,,,,,,,,,sub-036,1.0,random_dot,60.4656702972709,
left,left,accuracy,,,,,0.0,0.0,0.0,0.0,20.0,0.0,40.0,0.0,319.3826210000552,,,,,,,,,319.3692783000879,320.18264540005475,320.9844082999043,320.9676461000927,320.9676671000197,320.9844082999043,320.9844082999043,320.9844082999043,,322.485010500066,right,0.0,23.05323929991573,,,,,,,,,,,,,,,,,,,,,,,,,,,,,,,sub-036,1.0,random_dot,60.4656702972709,
right,right,accuracy,,,,,0.0,0.0,0.0,0.0,20.0,1.0,41.0,1.0,322.49974170001224,,,,,,,,,322.48664960009046,323.30082269990817,324.11653030011803,324.1008562999777,324.1008794999216,324.11653030011803,324.11653030011803,324.11653030011803,,325.3350696999114,left,0.0,22.7779765999876,,,,,,,,,,,,,,,,,,,,,,,,,,,,,,,sub-036,1.0,random_dot,60.4656702972709,
right,right,accuracy,,,,,0.0,0.0,0.0,0.0,21.0,0.0,42.0,1.0,325.35015229997225,,,,,,,,,325.3360739001073,326.15015679993667,326.95016140001826,326.93462700000964,326.9346517000813,326.95016140001826,326.95016140001826,326.95016140001826,,328.4848567999434,right,1.0,23.08346080011688,,,,,,,,,,,,,,,,,,,,,,,,,,,,,,,sub-036,1.0,random_dot,60.4656702972709,
left,left,accuracy,,,,,0.0,0.0,0.0,0.0,21.0,1.0,43.0,0.0,328.4997529000975,,,,,,,,,328.4861560999416,328.85038359998725,329.6692939000204,329.6508754999377,329.6508951999713,329.6692939000204,329.6692939000204,329.6692939000204,,330.9019689001143,right,0.0,22.78868450014852,,,,,,,,,,,,,,,,,,,,,,,,,,,,,,,sub-036,1.0,random_dot,60.4656702972709,
right,right,accuracy,,,,,0.0,0.0,0.0,0.0,22.0,0.0,44.0,1.0,330.91645410005003,,,,,,,,,330.90292289992794,331.71720349998213,332.5172427000944,332.5013858000748,332.50140599999577,332.5172427000944,332.5172427000944,332.5172427000944,,333.7676564999856,left,0.0,22.807082599960268,,,,,,,,,,,,,,,,,,,,,,,,,,,,,,,sub-036,1.0,random_dot,60.4656702972709,
left,left,accuracy,,,,,0.0,0.0,0.0,0.0,22.0,1.0,45.0,0.0,333.7824512999505,,,,,,,,,333.7689440001268,333.8837073999457,334.6840673999395,334.667873099912,334.6678933999501,334.6840673999395,334.6840673999395,334.6840673999395,,336.1186373999808,left,1.0,22.98284100019373,,,,,,,,,,,,,,,,,,,,,,,,,,,,,,,sub-036,1.0,random_dot,60.4656702972709,
left,left,accuracy,,,,,0.0,0.0,0.0,0.0,23.0,0.0,46.0,0.0,336.1336070999969,,,,,,,,,336.1196548000444,336.23338009999134,337.034471699968,337.01756349997595,337.01758489990607,337.034471699968,337.034471699968,337.034471699968,,339.0182002999354,left,1.0,23.539370799902827,,,,,,,,,,,,,,,,,,,,,,,,,,,,,,,sub-036,1.0,random_dot,60.4656702972709,
right,right,accuracy,,,,,0.0,0.0,0.0,0.0,23.0,1.0,47.0,1.0,339.03314430010505,,,,,,,,,339.01958229998127,339.3832723000087,340.1841454000678,340.16784500004724,340.1678637999576,340.1841454000678,340.1841454000678,340.1841454000678,,341.5522388999816,right,1.0,22.923122399952263,,,,,,,,,,,,,,,,,,,,,,,,,,,,,,,sub-036,1.0,random_dot,60.4656702972709,
left,left,accuracy,,,,,0.0,0.0,0.0,0.0,24.0,0.0,48.0,0.0,341.56613210006617,,,,,,,,,341.5532571999356,342.3670962001197,343.167834199965,343.1505585999694,343.1505766999908,343.167834199965,343.167834199965,343.167834199965,,345.3858886999078,right,0.0,23.77784029999748,,,,,,,,,,,,,,,,,,,,,,,,,,,,,,,sub-036,1.0,random_dot,60.4656702972709,
right,right,accuracy,,,,,0.0,0.0,0.0,0.0,24.0,1.0,49.0,1.0,345.4001080999151,,,,,,,,,345.386867800029,346.2003721999936,347.0005876000505,346.98474540002644,346.9847756999079,347.0005876000505,347.0005876000505,347.0005876000505,,348.53473700000905,left,0.0,23.09434030018747,,,,,,,,,,,,,,,,,,,,,,,,,,,,,,,sub-036,1.0,random_dot,60.4656702972709,
left,left,accuracy,,,,,0.0,0.0,0.0,0.0,25.0,0.0,50.0,0.0,348.54975909995846,,,,,,,,,348.53600630001165,348.9008075001184,349.7008422999643,349.6838776001241,349.68390069995075,349.7008422999643,349.7008422999643,349.7008422999643,,351.43511190009303,left,1.0,23.29089870001189,,,,,,,,,,,,,,,,,,,,,,,,,,,,,,,sub-036,1.0,random_dot,60.4656702972709,
right,right,accuracy,,,,,0.0,0.0,0.0,0.0,25.0,1.0,51.0,1.0,351.44994279998355,,,,,,,,,351.4361447999254,352.2500092999544,353.0509864001069,353.0342425000854,353.0342671999242,353.0509864001069,353.0509864001069,353.0509864001069,,354.30150709999725,right,1.0,22.799783600028604,,,,,,,,,,,,,,,,,,,,,,,,,,,,,,,sub-036,1.0,random_dot,60.4656702972709,
left,left,accuracy,,,,,0.0,0.0,0.0,0.0,26.0,0.0,52.0,0.0,354.3161176999565,,,,,,,,,354.3024404000025,355.51693790010177,356.3183617000468,356.3011855999939,356.3012037000153,356.3183617000468,356.3183617000468,356.3183617000468,,357.5018380000256,right,0.0,22.73952419986017,,,,,,,,,,,,,,,,,,,,,,,,,,,,,,,sub-036,1.0,random_dot,60.4656702972709,
right,right,accuracy,,,,,0.0,0.0,0.0,0.0,26.0,1.0,53.0,1.0,357.5162595000584,,,,,,,,,357.5027799999807,358.7167696999386,359.5169047000818,359.5004658000544,359.5005135999527,359.5169047000818,359.5169047000818,359.5169047000818,,360.58568980009295,left,0.0,22.620417499914765,,,,,,,,,,,,,,,,,,,,,,,,,,,,,,,sub-036,1.0,random_dot,60.4656702972709,
right,right,accuracy,,,,,0.0,0.0,0.0,0.0,27.0,0.0,54.0,1.0,360.5994909000583,,,,,,,,,360.58667519991286,360.9497809000313,361.7508256000001,361.7346272999421,361.7346538000274,361.7508256000001,361.7508256000001,361.7508256000001,,363.5008535999805,right,1.0,23.30585790006444,,,,,,,,,,,,,,,,,,,,,,,,,,,,,,,sub-036,1.0,random_dot,60.4656702972709,
left,left,accuracy,,,,,0.0,0.0,0.0,0.0,27.0,1.0,55.0,0.0,363.5160878000315,,,,,,,,,363.50211030012,364.3163906999398,365.1178441999946,365.1009808001109,365.1010016000364,365.1178441999946,365.1178441999946,365.1178441999946,,366.7841358000878,left,1.0,23.221971899969503,,,,,,,,,,,,,,,,,,,,,,,,,,,,,,,sub-036,1.0,random_dot,60.4656702972709,
right,right,accuracy,,,,,0.0,0.0,0.0,0.0,28.0,0.0,56.0,1.0,366.79935240000486,,,,,,,,,366.7851730000693,367.1501299000811,367.9507641000673,367.9340633000247,367.9340884000994,367.9507641000673,367.9507641000673,367.9507641000673,,369.71812759991735,right,1.0,23.31286029983312,,,,,,,,,,,,,,,,,,,,,,,,,,,,,,,sub-036,1.0,random_dot,60.4656702972709,
left,left,accuracy,,,,,0.0,0.0,0.0,0.0,28.0,1.0,57.0,0.0,369.7332892999984,,,,,,,,,369.71912140003406,370.9337472000625,371.7339457999915,371.7171249000821,371.71714580012485,371.7339457999915,371.7339457999915,371.7339457999915,,373.8025752000976,right,0.0,23.62087510013953,,,,,,,,,,,,,,,,,,,,,,,,,,,,,,,sub-036,1.0,random_dot,60.4656702972709,
left,left,accuracy,,,,,0.0,0.0,0.0,0.0,29.0,0.0,58.0,0.0,373.8164880000986,,,,,,,,,373.8037799999584,374.1670576999895,374.9669922001194,374.95028949994594,374.9503140999004,374.9669922001194,374.9669922001194,374.9669922001194,,376.1012291999068,right,0.0,22.6856693001464,,,,,,,,,,,,,,,,,,,,,,,,,,,,,,,sub-036,1.0,random_dot,60.4656702972709,
right,right,accuracy,,,,,0.0,0.0,0.0,0.0,29.0,1.0,59.0,1.0,376.116237899987,,,,,,,,,376.10253649996594,376.91628280002624,377.7164398999885,377.6999979999382,377.7000186000951,377.7164398999885,377.7164398999885,377.7164398999885,,379.0350891998969,left,0.0,22.87408330012113,,,,,,,,,,,,,,,,,,,,,,,,,,,,,,,sub-036,1.0,random_dot,60.4656702972709,
,,accuracy,,,,,0.0,0.0,0.0,0.0,,,,,,,,,,,,,,,,,,,,,,,,,,,,,,,,,,,,,,,,,,,,,,,,,,,,,,,,,sub-036,1.0,random_dot,60.4656702972709,
right,right,speed,,,,,0.0,1.0,1.0,1.0,0.0,0.0,0.0,1.0,383.0327419000678,,,,,,,,,383.0249056001194,383.3831627999898,384.1836739000864,384.1675247999374,384.1675482001156,384.1836739000864,384.1836739000864,384.1836739000864,,384.88574109994806,right,1.0,22.261118000140414,,,,,,,,,,,,,,,,,,,,379.03618300007656,379.051384099992,379.051384099992,383.0172460000031,space,25.51303519983776,,,,,,sub-036,1.0,random_dot,60.4656702972709,
left,left,speed,,,,,0.0,1.0,1.0,1.0,0.0,1.0,1.0,0.0,384.9002712001093,,,,,,,,,384.8872740999796,385.70007060002536,386.5006198999472,386.4847176000476,386.4847405001056,386.5006198999472,386.5006198999472,386.5006198999472,,387.1847216000315,right,0.0,22.23842340009287,,,,,,,,,,,,,,,,,,,,,,,,,,,,,,,sub-036,1.0,random_dot,60.4656702972709,
right,right,speed,,,,,0.0,1.0,1.0,1.0,1.0,0.0,2.0,1.0,387.19907870003954,,,,,,,,,387.18600409990177,388.4001120999456,389.20027450006455,389.1844212999568,389.18444230011664,389.20027450006455,389.20027450006455,389.20027450006455,,389.5353035998996,left,0.0,21.88556100009009,,,,,,,,,,,,,,,,,,,,,,,,,,,,,,,sub-036,1.0,random_dot,60.4656702972709,
left,left,speed,,,,,0.0,1.0,1.0,1.0,1.0,1.0,3.0,0.0,389.5503026000224,,,,,,,,,389.53624589997344,390.7507724000607,391.5512431000825,391.5338997000363,391.5339305999223,391.5512431000825,391.5512431000825,391.5512431000825,,392.28514209995046,left,1.0,22.293138900073245,,,,,,,,,,,,,,,,,,,,,,,,,,,,,,,sub-036,1.0,random_dot,60.4656702972709,
left,left,speed,,,,,0.0,1.0,1.0,1.0,2.0,0.0,4.0,0.0,392.29926090012304,,,,,,,,,392.2864198999014,392.649951600004,393.4505992999766,393.4342777999118,393.4342958999332,393.4505992999766,393.4505992999766,393.4505992999766,,394.3855697000399,right,0.0,22.48061749991029,,,,,,,,,,,,,,,,,,,,,,,,,,,,,,,sub-036,1.0,random_dot,60.4656702972709,
right,right,speed,,,,,0.0,1.0,1.0,1.0,2.0,1.0,5.0,1.0,394.39982880000025,,,,,,,,,394.3866840000264,394.4995446999092,395.301066899905,395.2842242999468,395.2842479001265,395.301066899905,395.301066899905,395.301066899905,,396.2514925000724,left,0.0,22.49905849993229,,,,,,,,,,,,,,,,,,,,,,,,,,,,,,,sub-036,1.0,random_dot,60.4656702972709,
left,left,speed,,,,,0.0,1.0,1.0,1.0,3.0,0.0,6.0,0.0,396.2661305000074,,,,,,,,,396.2524216000456,397.4659804000985,398.26747229998,398.2509914999828,398.2510142000392,398.26747229998,398.26747229998,398.26747229998,,398.9516680000816,left,1.0,22.241203000070527,,,,,,,,,,,,,,,,,,,,,,,,,,,,,,,sub-036,1.0,random_dot,60.4656702972709,
right,right,speed,,,,,0.0,1.0,1.0,1.0,3.0,1.0,7.0,1.0,398.9667193000205,,,,,,,,,398.9527221999597,399.3157711001113,400.1174884000793,400.1007548000198,400.1007809001021,400.1174884000793,400.1174884000793,400.1174884000793,,400.95139660011046,right,1.0,22.3839487999212,,,,,,,,,,,,,,,,,,,,,,,,,,,,,,,sub-036,1.0,random_dot,60.4656702972709,
right,right,speed,,,,,0.0,1.0,1.0,1.0,4.0,0.0,8.0,1.0,400.96605470008217,,,,,,,,,400.9523479999043,401.3164786999114,402.11736640008166,402.1004916999955,402.1005152999424,402.11736640008166,402.11736640008166,402.11736640008166,,403.05210680002347,right,1.0,22.482293600216508,,,,,,,,,,,,,,,,,,,,,,,,,,,,,,,sub-036,1.0,random_dot,60.4656702972709,
left,left,speed,,,,,0.0,1.0,1.0,1.0,4.0,1.0,9.0,0.0,403.0664085999597,,,,,,,,,403.0530727999285,404.2659138001036,405.06708450010046,405.050024199998,405.0500604999252,405.06708450010046,405.06708450010046,405.06708450010046,,405.9682938999031,left,1.0,22.45930889993906,,,,,,,,,,,,,,,,,,,,,,,,,,,,,,,sub-036,1.0,random_dot,60.4656702972709,
left,left,speed,,,,,0.0,1.0,1.0,1.0,5.0,0.0,10.0,0.0,405.9830068999436,,,,,,,,,405.9692565998994,406.3335170000792,407.1329447000753,407.1195821999572,407.11960340011865,407.1329447000753,407.1329447000753,407.1329447000753,,408.1680815999862,right,0.0,22.585731900064275,,,,,,,,,,,,,,,,,,,,,,,,,,,,,,,sub-036,1.0,random_dot,60.4656702972709,
right,right,speed,,,,,0.0,1.0,1.0,1.0,5.0,1.0,11.0,1.0,408.1836926001124,,,,,,,,,408.16903280001134,408.9831841001287,409.7835152000189,409.7672826000489,409.7673025999684,409.7835152000189,409.7835152000189,409.7835152000189,,410.4345720000565,left,0.0,22.196924699936066,,,,,,,,,,,,,,,,,,,,,,,,,,,,,,,sub-036,1.0,random_dot,60.4656702972709,
right,right,speed,,,,,0.0,1.0,1.0,1.0,6.0,0.0,12.0,1.0,410.4498387000058,,,,,,,,,410.4358459999785,411.6493681001011,412.4501543000806,412.4334036000073,412.43342539994046,412.4501543000806,412.4501543000806,412.4501543000806,,413.5012050999794,left,0.0,22.60183299984783,,,,,,,,,,,,,,,,,,,,,,,,,,,,,,,sub-036,1.0,random_dot,60.4656702972709,
left,left,speed,,,,,0.0,1.0,1.0,1.0,6.0,1.0,13.0,0.0,413.5160070999991,,,,,,,,,413.5021216000896,414.7165890999604,415.5165840999689,415.50084999995306,415.500868299976,415.5165840999689,415.5165840999689,415.5165840999689,,416.6848585999105,right,0.0,22.72627059998922,,,,,,,,,,,,,,,,,,,,,,,,,,,,,,,sub-036,1.0,random_dot,60.4656702972709,
left,left,speed,,,,,0.0,1.0,1.0,1.0,7.0,0.0,14.0,0.0,416.6999621000141,,,,,,,,,416.6861819000914,416.7987864001189,417.6007218000013,417.5840060999617,417.584026500117,417.6007218000013,417.6007218000013,417.6007218000013,,418.517983000027,right,0.0,22.46328040002845,,,,,,,,,,,,,,,,,,,,,,,,,,,,,,,sub-036,1.0,random_dot,60.4656702972709,
right,right,speed,,,,,0.0,1.0,1.0,1.0,7.0,1.0,15.0,1.0,418.5333424001001,,,,,,,,,418.5192873000633,419.7333355001174,420.5336170000956,420.51758860005066,420.5176117001101,420.5336170000956,420.5336170000956,420.5336170000956,,421.33466270007193,right,1.0,22.34607760002837,,,,,,,,,,,,,,,,,,,,,,,,,,,,,,,sub-036,1.0,random_dot,60.4656702972709,
right,right,speed,,,,,0.0,1.0,1.0,1.0,8.0,0.0,16.0,1.0,421.3503113000188,,,,,,,,,421.33565040002577,421.6997696000617,422.5039707000833,422.4839884999674,422.4840100000147,422.5039707000833,422.5039707000833,422.5039707000833,,423.98453789995983,left,0.0,23.03864850010723,,,,,,,,,,,,,,,,,,,,,,,,,,,,,,,sub-036,1.0,random_dot,60.4656702972709,
left,left,speed,,,,,0.0,1.0,1.0,1.0,8.0,1.0,17.0,0.0,423.9988041000906,,,,,,,,,423.98561750003137,424.7998593999073,425.6006197000388,425.5833556998987,425.583381399978,425.6006197000388,425.6006197000388,425.6006197000388,,426.6343165000435,left,1.0,22.58152630017139,,,,,,,,,,,,,,,,,,,,,,,,,,,,,,,sub-036,1.0,random_dot,60.4656702972709,
left,left,speed,,,,,0.0,1.0,1.0,1.0,9.0,0.0,18.0,0.0,426.649349699961,,,,,,,,,426.6352733001113,427.44959249999374,428.2506327000447,428.23331509996206,428.2333386999089,428.2506327000447,428.2506327000447,428.2506327000447,,429.0859771000687,right,0.0,22.38151250011288,,,,,,,,,,,,,,,,,,,,,,,,,,,,,,,sub-036,1.0,random_dot,60.4656702972709,
right,right,speed,,,,,0.0,1.0,1.0,1.0,9.0,1.0,19.0,1.0,429.0992940000724,,,,,,,,,429.08705250010826,430.3001127000898,431.10069300001487,431.0838701000903,431.0838902001269,431.10069300001487,431.10069300001487,431.10069300001487,,432.25101169990376,right,1.0,22.702969300094992,,,,,,,,,,,,,,,,,,,,,,,,,,,,,,,sub-036,1.0,random_dot,60.4656702972709,
right,right,speed,,,,,0.0,1.0,1.0,1.0,10.0,0.0,20.0,1.0,432.2656429000199,,,,,,,,,432.2519429000095,432.34896300011314,433.15093529992737,433.1343473999296,433.1343682000879,433.15093529992737,433.15093529992737,433.15093529992737,,434.150965299923,left,0.0,22.558172600110996,,,,,,,,,,,,,,,,,,,,,,,,,,,,,,,sub-036,1.0,random_dot,60.4656702972709,
left,left,speed,,,,,0.0,1.0,1.0,1.0,10.0,1.0,21.0,0.0,434.1660076000262,,,,,,,,,434.1522564999759,434.266391800018,435.0668194000609,435.0511986999773,435.05124710011296,435.0668194000609,435.0668194000609,435.0668194000609,,436.6846672000829,left,1.0,23.16528269997798,,,,,,,,,,,,,,,,,,,,,,,,,,,,,,,sub-036,1.0,random_dot,60.4656702972709,
right,right,speed,,,,,0.0,1.0,1.0,1.0,11.0,0.0,22.0,1.0,436.7037943000905,,,,,,,,,436.6855760000181,437.8999087000266,438.6992440000176,438.68313929997385,438.6831634999253,438.6992440000176,438.6992440000176,438.6992440000176,,440.1011538999155,right,1.0,22.95034039998427,,,,,,,,,,,,,,,,,,,,,,,,,,,,,,,sub-036,1.0,random_dot,60.4656702972709,
left,left,speed,,,,,0.0,1.0,1.0,1.0,11.0,1.0,23.0,0.0,440.11520120012574,,,,,,,,,440.10213149990886,440.215199300088,441.0164846999105,441.0005638999865,441.0005878999364,441.0164846999105,441.0164846999105,441.0164846999105,,442.2678930000402,right,0.0,22.80902069993317,,,,,,,,,,,,,,,,,,,,,,,,,,,,,,,sub-036,1.0,random_dot,60.4656702972709,
right,right,speed,,,,,0.0,1.0,1.0,1.0,12.0,0.0,24.0,1.0,442.2827745999675,,,,,,,,,442.26881809998304,442.6321717000101,443.4327084000688,443.4163309000433,443.4163603000343,443.4327084000688,443.4327084000688,443.4327084000688,,444.6675521000288,left,0.0,22.78191480017267,,,,,,,,,,,,,,,,,,,,,,,,,,,,,,,sub-036,1.0,random_dot,60.4656702972709,
left,left,speed,,,,,0.0,1.0,1.0,1.0,12.0,1.0,25.0,0.0,444.6829369000625,,,,,,,,,444.66863740002736,445.4819050000515,446.2830358999781,446.26655970001593,446.2665848000906,446.2830358999781,446.2830358999781,446.2830358999781,,447.08477129996754,right,0.0,22.358326599933207,,,,,,,,,,,,,,,,,,,,,,,,,,,,,,,sub-036,1.0,random_dot,60.4656702972709,
right,right,speed,,,,,0.0,1.0,1.0,1.0,13.0,0.0,26.0,1.0,447.099225099897,,,,,,,,,447.08583329990506,447.4496488999576,448.2500609001145,448.23339039995335,448.2334229999688,448.2500609001145,448.2500609001145,448.2500609001145,,449.7513733999804,left,0.0,23.05933940014802,,,,,,,,,,,,,,,,,,,,,,,,,,,,,,,sub-036,1.0,random_dot,60.4656702972709,
left,left,speed,,,,,0.0,1.0,1.0,1.0,13.0,1.0,27.0,0.0,449.7657908999827,,,,,,,,,449.7523252000101,450.9664757999126,451.7669857000001,451.7501465000678,451.7501648999751,451.7669857000001,451.7669857000001,451.7669857000001,,452.3517617001198,right,0.0,22.136261200066656,,,,,,,,,,,,,,,,,,,,,,,,,,,,,,,sub-036,1.0,random_dot,60.4656702972709,
right,right,speed,,,,,0.0,1.0,1.0,1.0,14.0,0.0,28.0,1.0,452.36514210002497,,,,,,,,,452.3526872999501,453.1671333000995,453.9669093999546,453.9506379999221,453.9506630999968,453.9669093999546,453.9669093999546,453.9669093999546,,454.3514078001026,left,0.0,21.939874400151893,,,,,,,,,,,,,,,,,,,,,,,,,,,,,,,sub-036,1.0,random_dot,60.4656702972709,
left,left,speed,,,,,0.0,1.0,1.0,1.0,14.0,1.0,29.0,0.0,454.36590049997903,,,,,,,,,454.352358300006,455.1659854999744,455.9673486999236,455.9500786000863,455.9500990000088,455.9673486999236,455.9673486999236,455.9673486999236,,456.23522739997134,left,1.0,21.82830680022016,,,,,,,,,,,,,,,,,,,,,,,,,,,,,,,sub-036,1.0,random_dot,60.4656702972709,
left,left,speed,,,,,0.0,1.0,1.0,1.0,15.0,0.0,30.0,0.0,456.249224799918,,,,,,,,,456.2364225001074,457.0486067999154,457.8501438999083,457.83364540012553,457.8336690999568,457.8501438999083,457.8501438999083,457.8501438999083,,458.1015586000867,right,0.0,21.801188400015235,,,,,,,,,,,,,,,,,,,,,,,,,,,,,,,sub-036,1.0,random_dot,60.4656702972709,
right,right,speed,,,,,0.0,1.0,1.0,1.0,15.0,1.0,31.0,1.0,458.1159447999671,,,,,,,,,458.1025165000465,458.9160549999215,459.7160596000031,459.6993315001018,459.6993559000548,459.7160596000031,459.7160596000031,459.7160596000031,,459.93464850005694,left,0.0,21.76414530002512,,,,,,,,,,,,,,,,,,,,,,,,,,,,,,,sub-036,1.0,random_dot,60.4656702972709,
right,right,speed,,,,,0.0,1.0,1.0,1.0,16.0,0.0,32.0,1.0,459.95023819990456,,,,,,,,,459.935706499964,460.74926750012673,461.5511781999376,461.5334415999241,461.5334715999197,461.5511781999376,461.5511781999376,461.5511781999376,,461.75088370009325,left,0.0,21.75734580005519,,,,,,,,,,,,,,,,,,,,,,,,,,,,,,,sub-036,1.0,random_dot,60.4656702972709,
left,left,speed,,,,,0.0,1.0,1.0,1.0,16.0,1.0,33.0,0.0,461.7658613000531,,,,,,,,,461.7523821000941,461.86611979990266,462.6667104999069,462.6497190999799,462.649744000053,462.6667104999069,462.6667104999069,462.6667104999069,,463.2340957999695,left,1.0,22.117048300104216,,,,,,,,,,,,,,,,,,,,,,,,,,,,,,,sub-036,1.0,random_dot,60.4656702972709,
left,left,speed,,,,,0.0,1.0,1.0,1.0,17.0,0.0,34.0,0.0,463.251677500084,,,,,,,,,463.2349908999168,463.3496125000529,464.1512925999705,464.134086899925,464.1341061000712,464.1512925999705,464.1512925999705,464.1512925999705,,464.467891999986,right,0.0,21.877281199907884,,,,,,,,,,,,,,,,,,,,,,,,,,,,,,,sub-036,1.0,random_dot,60.4656702972709,
right,right,speed,,,,,0.0,1.0,1.0,1.0,17.0,1.0,35.0,1.0,464.4826090999413,,,,,,,,,464.4691783001181,465.6829363000579,466.48341970006,466.4676117000636,466.46763220010325,466.48341970006,466.48341970006,466.48341970006,,466.7514557999093,right,1.0,21.82307850010693,,,,,,,,,,,,,,,,,,,,,,,,,,,,,,,sub-036,1.0,random_dot,60.4656702972709,
right,right,speed,,,,,0.0,1.0,1.0,1.0,18.0,0.0,36.0,1.0,466.7661180000287,,,,,,,,,466.7524647999089,467.116160399979,467.9174180999398,467.9006882999092,467.9007079000585,467.9174180999398,467.9174180999398,467.9174180999398,,468.266920800088,right,1.0,21.90723210014403,,,,,,,,,,,,,,,,,,,,,,,,,,,,,,,sub-036,1.0,random_dot,60.4656702972709,
left,left,speed,,,,,0.0,1.0,1.0,1.0,18.0,1.0,37.0,0.0,468.2819469000679,,,,,,,,,468.2678497000597,468.3825852998998,469.1836101000663,469.1667530001141,469.16677789995447,469.1836101000663,469.1836101000663,469.1836101000663,,469.7335469000973,left,1.0,22.096482399851084,,,,,,,,,,,,,,,,,,,,,,,,,,,,,,,sub-036,1.0,random_dot,60.4656702972709,
left,left,speed,,,,,0.0,1.0,1.0,1.0,19.0,0.0,38.0,0.0,469.7485734000802,,,,,,,,,469.7344754999504,470.0822755000554,470.88448529993184,470.8666503001005,470.8666701999027,470.88448529993184,470.88448529993184,470.88448529993184,,471.4839020001236,right,0.0,22.157823299989104,,,,,,,,,,,,,,,,,,,,,,,,,,,,,,,sub-036,1.0,random_dot,60.4656702972709,
right,right,speed,,,,,0.0,1.0,1.0,1.0,19.0,1.0,39.0,1.0,471.49858719995245,,,,,,,,,471.484853199916,472.6998250000179,473.5005932999775,473.4828540999442,473.482873900095,473.5005932999775,473.5005932999775,473.5005932999775,,473.8669885001145,left,0.0,21.91323549998924,,,,,,,,,,,,,,,,,,,,,,,,,,,,,,,sub-036,1.0,random_dot,60.4656702972709,
right,right,speed,,,,,0.0,1.0,1.0,1.0,20.0,0.0,40.0,1.0,473.8819677999709,,,,,,,,,473.8679887000472,474.2322086000349,475.0328518000897,475.0155347001273,475.0155629001092,475.0328518000897,475.0328518000897,475.0328518000897,,475.8005659999326,left,0.0,22.32261300017126,,,,,,,,,,,,,,,,,,,,,,,,,,,,,,,sub-036,1.0,random_dot,60.4656702972709,
left,left,speed,,,,,0.0,1.0,1.0,1.0,20.0,1.0,41.0,0.0,475.8154410000425,,,,,,,,,475.8018720999826,475.91678490000777,476.71739060012624,476.7005348999519,476.7005652000662,476.71739060012624,476.71739060012624,476.71739060012624,,477.6837542001158,right,0.0,22.513369400054216,,,,,,,,,,,,,,,,,,,,,,,,,,,,,,,sub-036,1.0,random_dot,60.4656702972709,
right,right,speed,,,,,0.0,1.0,1.0,1.0,21.0,0.0,42.0,1.0,477.6985748000443,,,,,,,,,477.6852464000695,478.498481699964,479.3031675000675,479.2829523000401,479.28297269996256,479.3031675000675,479.3031675000675,479.3031675000675,,479.917191100074,right,1.0,22.16468690009788,,,,,,,,,,,,,,,,,,,,,,,,,,,,,,,sub-036,1.0,random_dot,60.4656702972709,
left,left,speed,,,,,0.0,1.0,1.0,1.0,21.0,1.0,43.0,0.0,479.9325141999871,,,,,,,,,479.9181258999743,481.1330301000271,481.9336099999491,481.9168306000065,481.9168545000721,481.9336099999491,481.9336099999491,481.9336099999491,,482.6346142999828,right,0.0,22.24910680018365,,,,,,,,,,,,,,,,,,,,,,,,,,,,,,,sub-036,1.0,random_dot,60.4656702972709,
right,right,speed,,,,,0.0,1.0,1.0,1.0,22.0,0.0,44.0,1.0,482.6485288001131,,,,,,,,,482.635644099908,482.7488132000435,483.5503215999343,483.5341527999845,483.53417110000737,483.5503215999343,483.5503215999343,483.5503215999343,,484.58439330011606,left,0.0,22.583828500006348,,,,,,,,,,,,,,,,,,,,,,,,,,,,,,,sub-036,1.0,random_dot,60.4656702972709,
left,left,speed,,,,,0.0,1.0,1.0,1.0,22.0,1.0,45.0,0.0,484.59924699994735,,,,,,,,,484.5853403001093,484.9498906000517,485.7502898001112,485.7342312999536,485.73425540002063,485.7502898001112,485.7502898001112,485.7502898001112,,486.4834819999524,right,0.0,22.28170270007104,,,,,,,,,,,,,,,,,,,,,,,,,,,,,,,sub-036,1.0,random_dot,60.4656702972709,
right,right,speed,,,,,0.0,1.0,1.0,1.0,23.0,0.0,46.0,1.0,486.4995987000875,,,,,,,,,486.4848855999298,487.699420100078,488.4999941000715,488.4832069999538,488.4832321999129,488.4999941000715,488.4999941000715,488.4999941000715,,488.90161449997686,left,0.0,21.962035899981856,,,,,,,,,,,,,,,,,,,,,,,,,,,,,,,sub-036,1.0,random_dot,60.4656702972709,
left,left,speed,,,,,0.0,1.0,1.0,1.0,23.0,1.0,47.0,0.0,488.9158395000268,,,,,,,,,488.902628300013,489.2656771999318,490.0660880000796,490.0499408000615,490.0499642000068,490.0660880000796,490.0660880000796,490.0660880000796,,490.63457230012864,left,1.0,22.120591199956834,,,,,,,,,,,,,,,,,,,,,,,,,,,,,,,sub-036,1.0,random_dot,60.4656702972709,
right,right,speed,,,,,0.0,1.0,1.0,1.0,24.0,0.0,48.0,1.0,490.649579500081,,,,,,,,,490.63549980008975,490.74957920005545,491.5502907000482,491.5337253001053,491.5337457000278,491.5502907000482,491.5502907000482,491.5502907000482,,492.11804659990594,right,1.0,22.12239159992896,,,,,,,,,,,,,,,,,,,,,,,,,,,,,,,sub-036,1.0,random_dot,60.4656702972709,
left,left,speed,,,,,0.0,1.0,1.0,1.0,24.0,1.0,49.0,0.0,492.1325920999516,,,,,,,,,492.11932649998926,492.48286859993823,493.28278889996,493.2661433001049,493.2661623999011,493.28278889996,493.28278889996,493.28278889996,,493.9841020000167,left,1.0,22.251677899854258,,,,,,,,,,,,,,,,,,,,,,,,,,,,,,,sub-036,1.0,random_dot,60.4656702972709,
right,right,speed,,,,,0.0,1.0,1.0,1.0,25.0,0.0,50.0,1.0,493.9995665000752,,,,,,,,,493.98537870007567,494.7988742999733,495.60074430005625,495.5835531000048,495.58357849996537,495.60074430005625,495.60074430005625,495.60074430005625,,496.8343261999544,right,1.0,22.793464799877256,,,,,,,,,,,,,,,,,,,,,,,,,,,,,,,sub-036,1.0,random_dot,60.4656702972709,
left,left,speed,,,,,0.0,1.0,1.0,1.0,25.0,1.0,51.0,0.0,496.8488439000212,,,,,,,,,496.8353248001076,497.6497124999296,498.4504273000639,498.4332286999561,498.4332483001053,498.4504273000639,498.4504273000639,498.4504273000639,,499.2675036001019,left,1.0,22.36568500008434,,,,,,,,,,,,,,,,,,,,,,,,,,,,,,,sub-036,1.0,random_dot,60.4656702972709,
right,right,speed,,,,,0.0,1.0,1.0,1.0,26.0,0.0,52.0,1.0,499.2829654000234,,,,,,,,,499.26877359999344,499.38247910002246,500.1835777000524,500.1667742000427,500.16679479996674,500.1835777000524,500.1835777000524,500.1835777000524,,501.1178830000572,right,1.0,22.491042100125924,,,,,,,,,,,,,,,,,,,,,,,,,,,,,,,sub-036,1.0,random_dot,60.4656702972709,
left,left,speed,,,,,0.0,1.0,1.0,1.0,26.0,1.0,53.0,0.0,501.1325175999664,,,,,,,,,501.1188825001009,501.232668899931,502.0331590999849,502.0171674001031,502.01719009992667,502.0331590999849,502.0331590999849,502.0331590999849,,503.16718240012415,left,1.0,22.67990499990992,,,,,,,,,,,,,,,,,,,,,,,,,,,,,,,sub-036,1.0,random_dot,60.4656702972709,
left,left,speed,,,,,0.0,1.0,1.0,1.0,27.0,0.0,54.0,0.0,503.1827364000492,,,,,,,,,503.1681627000216,503.2821758000646,504.08292989991605,504.06612180010416,504.06616010004655,504.08292989991605,504.08292989991605,504.08292989991605,,505.1168577000499,right,0.0,22.58520570024848,,,,,,,,,,,,,,,,,,,,,,,,,,,,,,,sub-036,1.0,random_dot,60.4656702972709,
right,right,speed,,,,,0.0,1.0,1.0,1.0,27.0,1.0,55.0,1.0,505.13176940009,,,,,,,,,505.1178500999231,506.3317325001117,507.1323343999684,507.11567820003256,507.115697799949,507.1323343999684,507.1323343999684,507.1323343999684,,508.1840017999057,left,0.0,22.6064937999472,,,,,,,,,,,,,,,,,,,,,,,,,,,,,,,sub-036,1.0,random_dot,60.4656702972709,
left,left,speed,,,,,0.0,1.0,1.0,1.0,28.0,0.0,56.0,0.0,508.1990141998977,,,,,,,,,508.1849865000695,509.3984163000714,510.1991830000188,510.1826516999863,510.18268420011736,510.1991830000188,510.1991830000188,510.1991830000188,,510.9334964998998,right,0.0,22.281993999844417,,,,,,,,,,,,,,,,,,,,,,,,,,,,,,,sub-036,1.0,random_dot,60.4656702972709,
right,right,speed,,,,,0.0,1.0,1.0,1.0,28.0,1.0,57.0,1.0,510.948451400036,,,,,,,,,510.9346777999308,511.74838620005175,512.548947900068,512.5324570999946,512.5324864001013,512.548947900068,512.548947900068,512.548947900068,,513.0335230999626,left,0.0,22.037728699855503,,,,,,,,,,,,,,,,,,,,,,,,,,,,,,,sub-036,1.0,random_dot,60.4656702972709,
right,right,speed,,,,,0.0,1.0,1.0,1.0,29.0,0.0,58.0,1.0,513.0481628999114,,,,,,,,,513.035059100017,513.148915699916,513.9490749000106,513.9321099000517,513.9321306000929,513.9490749000106,513.9490749000106,513.9490749000106,,514.8497168999165,left,0.0,22.454167800024152,,,,,,,,,,,,,,,,,,,,,,,,,,,,,,,sub-036,1.0,random_dot,60.4656702972709,
left,left,speed,,,,,0.0,1.0,1.0,1.0,29.0,1.0,59.0,0.0,514.8649335000664,,,,,,,,,514.8504872000776,515.2148939999752,516.0161570000928,515.9994677999057,515.9994858999271,516.0161570000928,516.0161570000928,516.0161570000928,,517.0831852999981,left,1.0,22.615369699895385,,,,,,,,,,,,,,,,,,,,,,,,,,,,,,,sub-036,1.0,random_dot,60.4656702972709,
,,speed,,,,,0.0,1.0,1.0,1.0,,,,,,,,,,,,,,,,,,,,,,,,,,,,,,,,,,,,,,,,,,,,,,,,,,,,,,,,,sub-036,1.0,random_dot,60.4656702972709,
,,,,,,,,,,,,,,,,,,,,,,,,,,,,,,,,,,,,,,,,,,,,,,,,,,,,,,,,,,,,,,,517.0838417001069,517.0983551000245,522.0982244999614,522.0820635999553,sub-036,,,,
