wordCTK,colorCTK,corrAnsCTK,congruentCTK,thisN,thisTrialN,thisRepN,keyResp_CTK.keys,keyResp_CTK.corr,keyResp_CTK.rt,keyResp_CTK.duration,wordPractice,colorPractice,corrAnsPractice,congruentPractice,respPractice.keys,respPractice.corr,respPractice.rt,respPractice.duration,word,color,corrAns,congruent,keyResp_test_run.keys,keyResp_test_run.corr,keyResp_test_run.rt,keyResp_test_run.duration,trials_CTK.thisRepN,trials_CTK.thisTrialN,trials_CTK.thisN,trials_CTK.thisIndex,trials_practice.thisRepN,trials_practice.thisTrialN,trials_practice.thisN,trials_practice.thisIndex,trials_test.thisRepN,trials_test.thisTrialN,trials_test.thisN,trials_test.thisIndex,thisRow.t,notes,instruction.started,instr_text.started,instr_image.started,instr_resp.started,instruction.stopped,instr_resp.keys,instr_resp.rt,instr_resp.duration,instr_color_to_key.started,instr_ctk.started,resp_ctk.started,instr_color_to_key.stopped,resp_ctk.keys,resp_ctk.rt,resp_ctk.duration,ITI.started,fixcross.started,fixcross.stopped,ITI.stopped,color_to_key_run.started,stimulus_CTK.started,keyResp_CTK.started,color_to_key_run.stopped,trials_CTK.keyResp_CTK.keys,trials_CTK.keyResp_CTK.corr,trials_CTK.keyResp_CTK.rt,trials_CTK.keyResp_CTK.duration,instr_practice.started,instr_practice_text.started,instr_practice_resp.started,instr_practice.stopped,instr_practice_resp.keys,instr_practice_resp.rt,instr_practice_resp.duration,practice_run.started,stimulus_practice.started,respPractice.started,practice_run.stopped,trials_practice.respPractice.keys,trials_practice.respPractice.corr,trials_practice.respPractice.rt,trials_practice.respPractice.duration,feedback.started,textFeedback.started,feedback.stopped,textFeedback.stopped,instr_test.started,instr_test_text.started,instr_test_resp.started,instr_test.stopped,instr_test_resp.keys,instr_test_resp.rt,instr_test_resp.duration,test_run.started,stimulus_test_run.started,keyResp_test_run.started,test_run.stopped,trials_test.keyResp_test_run.keys,trials_test.keyResp_test_run.corr,trials_test.keyResp_test_run.rt,trials_test.keyResp_test_run.duration,goodbye.started,textGoodbye.started,goodbye.stopped,participant,session,expName,frameRate,Unnamed: 112
,,,,,,,,,,,,,,,,,,,,,,,,,,,,,,,,,,,,,,,,,0.0072851950026233,0.0210125660014455,0.0210125660014455,0.0210125660014455,30.272004375001416,space,30.227815127000213,,,,,,,,,,,,,,,,,,,,,,,,,,,,,,,,,,,,,,,,,,,,,,,,,,,,,,,,,,sub-119,1,stroop_test,59.31110014707904,
,,,,,,,,,,,,,,,,,,,,,,,,,,,,,,,,,,,,,,,,,,,,,,,,,30.27208746600081,30.287195718003204,30.287195718003204,37.08771972700197,space,6.784133992994612,,,,,,,,,,,,,,,,,,,,,,,,,,,,,,,,,,,,,,,,,,,,,,,,,,,sub-119,1,stroop_test,59.31110014707904,
test,red,r,1.0,0.0,0.0,0.0,r,1.0,1.113525184999162,,,,,,,,,,,,,,,,,,0.0,0.0,0.0,0.0,,,,,,,,,37.10634525000205,,,,,,,,,,,,,,,,,37.09700363800221,37.20343759000389,38.00884563700674,37.98965525000676,37.997955040002125,38.00884563700674,38.00884563700674,39.12876816500648,r,1.0,1.113525184999162,,,,,,,,,,,,,,,,,,,,,,,,,,,,,,,,,,,,,,,sub-119,1,stroop_test,59.31110014707904,
test,yellow,g,1.0,1.0,1.0,0.0,g,1.0,0.8064435850028531,,,,,,,,,,,,,,,,,,0.0,1.0,1.0,1.0,,,,,,,,,39.141282063006656,,,,,,,,,,,,,,,,,39.12916273200244,39.94340458900115,40.745335200001136,40.72966282300331,40.73018316000525,40.745335200001136,40.745335200001136,41.56583075300296,g,1.0,0.8064435850028531,,,,,,,,,,,,,,,,,,,,,,,,,,,,,,,,,,,,,,,sub-119,1,stroop_test,59.31110014707904,
test,blue,b,1.0,2.0,2.0,0.0,b,1.0,0.5098525580033311,,,,,,,,,,,,,,,,,,0.0,2.0,2.0,2.0,,,,,,,,,41.58083494099992,,,,,,,,,,,,,,,,,41.56615283100109,41.915041811000265,42.71827971700259,42.70225448500423,42.70296504700673,42.71827971700259,42.71827971700259,43.237475211004494,b,1.0,0.5098525580033311,,,,,,,,,,,,,,,,,,,,,,,,,,,,,,,,,,,,,,,sub-119,1,stroop_test,59.31110014707904,
test,red,r,1.0,3.0,0.0,1.0,r,1.0,0.7589705170030356,,,,,,,,,,,,,,,,,,1.0,0.0,3.0,0.0,,,,,,,,,43.25199144200451,,,,,,,,,,,,,,,,,43.237780863004446,43.35254162700585,44.155507507006405,44.13972370700503,44.14044924200425,44.155507507006405,44.155507507006405,44.92451370200433,r,1.0,0.7589705170030356,,,,,,,,,,,,,,,,,,,,,,,,,,,,,,,,,,,,,,,sub-119,1,stroop_test,59.31110014707904,
test,blue,b,1.0,4.0,1.0,1.0,b,1.0,0.4467610100036836,,,,,,,,,,,,,,,,,,1.0,1.0,4.0,2.0,,,,,,,,,44.93999728200288,,,,,,,,,,,,,,,,,44.92478553800174,46.12707262500044,46.92825437200372,46.9122323240008,46.91274085000623,46.92825437200372,46.92825437200372,47.38321172300493,b,1.0,0.4467610100036836,,,,,,,,,,,,,,,,,,,,,,,,,,,,,,,,,,,,,,,sub-119,1,stroop_test,59.31110014707904,
test,yellow,g,1.0,5.0,2.0,1.0,g,1.0,0.4741349659961997,,,,,,,,,,,,,,,,,,1.0,2.0,5.0,1.0,,,,,,,,,47.3967017410032,,,,,,,,,,,,,,,,,47.38356613700307,47.7472141870021,48.550280277006095,48.53467450700555,48.53539902700141,48.550280277006095,48.550280277006095,49.03617308200046,g,1.0,0.4741349659961997,,,,,,,,,,,,,,,,,,,,,,,,,,,,,,,,,,,,,,,sub-119,1,stroop_test,59.31110014707904,
test,yellow,g,1.0,6.0,0.0,2.0,g,1.0,0.526892162997683,,,,,,,,,,,,,,,,,,2.0,0.0,6.0,1.0,,,,,,,,,49.051118930001394,,,,,,,,,,,,,,,,,49.03642770599981,50.23759322300612,51.04037954200612,51.0243530900043,51.02507563700056,51.04037954200612,51.04037954200612,51.57730636000633,g,1.0,0.526892162997683,,,,,,,,,,,,,,,,,,,,,,,,,,,,,,,,,,,,,,,sub-119,1,stroop_test,59.31110014707904,
test,red,r,1.0,7.0,1.0,2.0,r,1.0,0.5541421710004215,,,,,,,,,,,,,,,,,,2.0,1.0,7.0,0.0,,,,,,,,,51.59124206600245,,,,,,,,,,,,,,,,,51.57768489000591,52.77753359000053,53.57995846300037,53.563911733006535,53.56441610200272,53.57995846300037,53.57995846300037,54.14973170099984,r,1.0,0.5541421710004215,,,,,,,,,,,,,,,,,,,,,,,,,,,,,,,,,,,,,,,sub-119,1,stroop_test,59.31110014707904,
test,blue,b,1.0,8.0,2.0,2.0,b,1.0,0.3397489139970275,,,,,,,,,,,,,,,,,,2.0,2.0,8.0,2.0,,,,,,,,,54.16457407300186,,,,,,,,,,,,,,,,,54.15000422500452,54.49873628000205,55.30098845000612,55.28472350700031,55.28523659700295,55.30098845000612,55.30098845000612,55.653328545005934,b,1.0,0.3397489139970275,,,,,,,,,,,,,,,,,,,,,,,,,,,,,,,,,,,,,,,sub-119,1,stroop_test,59.31110014707904,
test,red,r,1.0,9.0,0.0,3.0,r,1.0,1.2573824999999488,,,,,,,,,,,,,,,,,,3.0,0.0,9.0,0.0,,,,,,,,,55.66847525400226,,,,,,,,,,,,,,,,,55.65360221500305,56.454960037001,57.25651096000365,57.24048936700274,57.24110858700442,57.25651096000365,57.25651096000365,58.52781430500181,r,1.0,1.2573824999999488,,,,,,,,,,,,,,,,,,,,,,,,,,,,,,,,,,,,,,,sub-119,1,stroop_test,59.31110014707904,
test,blue,b,1.0,10.0,1.0,3.0,b,1.0,0.7129014259990072,,,,,,,,,,,,,,,,,,3.0,1.0,10.0,2.0,,,,,,,,,58.542789037004695,,,,,,,,,,,,,,,,,58.52812772500329,59.32899404000637,60.13065179600381,60.114271135003946,60.11467440800334,60.13065179600381,60.13065179600381,60.85301219000394,b,1.0,0.7129014259990072,,,,,,,,,,,,,,,,,,,,,,,,,,,,,,,,,,,,,,,sub-119,1,stroop_test,59.31110014707904,
test,yellow,g,1.0,11.0,2.0,3.0,g,1.0,1.093639520004217,,,,,,,,,,,,,,,,,,3.0,2.0,11.0,1.0,,,,,,,,,60.865506865004136,,,,,,,,,,,,,,,,,60.853415600002336,62.0530503350019,62.85520340700168,62.83932223700685,62.84004475200345,62.85520340700168,62.85520340700168,63.958730050006125,g,1.0,1.093639520004217,,,,,,,,,,,,,,,,,,,,,,,,,,,,,,,,,,,,,,,sub-119,1,stroop_test,59.31110014707904,
,,,,,,,,,,,,,,,,,,,,,,,,,,,,,,,,,,,,,,,,,,,,,,,,,,,,,,,,,,,,,,,,,,,,63.95886152100138,63.97447099000419,63.97447099000419,65.47958030500013,space,1.4899230739974882,,,,,,,,,,,,,,,,,,,,,,,,,,,,,,,,sub-119,1,stroop_test,59.31110014707904,
,,,,0.0,0.0,0.0,,,,,gelb,yellow,g,1.0,g,1.0,0.9943589300019084,,,,,,,,,,,,,,0.0,0.0,0.0,10.0,,,,,65.497564022,,,,,,,,,,,,,,,,,65.48809632700431,65.595104085005,66.39746592800657,66.38117676000547,,,,,,,,,,,,,,,,66.3870868869999,66.39746592800657,66.39746592800657,67.40110466300393,g,1.0,0.9943589300019084,,67.4065789150045,67.41670461700414,68.40369523200206,,,,,,,,,,,,,,,,,,,,sub-119,1,stroop_test,59.31110014707904,
,,,,1.0,1.0,0.0,,,,,gelb,red,r,0.0,r,1.0,0.7416438660002314,,,,,,,,,,,,,,0.0,1.0,1.0,8.0,,,,,68.4201613969999,,,,,,,,,,,,,,,,,68.40415695000411,68.75443414700567,69.55597725000553,69.53960216700216,,,,,,,,,,,,,,,,69.54012076700019,69.55597725000553,69.55597725000553,70.3094846150052,r,1.0,0.7416438660002314,,70.30997562000266,70.32425892500032,71.3113085300065,,,,,,,,,,,,,,,,,,,,sub-119,1,stroop_test,59.31110014707904,
,,,,2.0,2.0,0.0,,,,,rot,red,r,1.0,r,1.0,0.5921964369990746,,,,,,,,,,,,,,0.0,2.0,2.0,0.0,,,,,71.32797593000578,,,,,,,,,,,,,,,,,71.31186921000335,72.11308484199981,72.91455111500545,72.89942968200194,,,,,,,,,,,,,,,,72.90483910700277,72.91455111500545,72.91455111500545,73.51718181100296,r,1.0,0.5921964369990746,,73.51763137700618,73.5333412070031,74.51961584200035,,,,,,,,,,,,,,,,,,,,sub-119,1,stroop_test,59.31110014707904,
,,,,3.0,3.0,0.0,,,,,blau,yellow,g,0.0,g,1.0,0.517751480001607,,,,,,,,,,,,,,0.0,3.0,3.0,7.0,,,,,74.53661618000478,,,,,,,,,,,,,,,,,74.52007848500216,74.87055035200319,75.67445625500113,75.65711024700431,,,,,,,,,,,,,,,,75.66389521500241,75.67445625500113,75.67445625500113,76.20721077200142,g,1.0,0.517751480001607,,76.20767543500551,76.2233962570026,77.21012212000642,,,,,,,,,,,,,,,,,,,,sub-119,1,stroop_test,59.31110014707904,
,,,,4.0,4.0,0.0,,,,,rot,yellow,g,0.0,g,1.0,0.9055372020011418,,,,,,,,,,,,,,0.0,4.0,4.0,3.0,,,,,77.2270900250005,,,,,,,,,,,,,,,,,77.21057795500383,78.01222419500118,78.81350304200168,78.7976492930029,,,,,,,,,,,,,,,,78.80088865600555,78.81350304200168,78.81350304200168,79.73433146200114,g,1.0,0.9055372020011418,,79.73477581500629,79.74947517200053,80.73589535700012,,,,,,,,,,,,,,,,,,,,sub-119,1,stroop_test,59.31110014707904,
,,,,5.0,5.0,0.0,,,,,rot,blue,b,0.0,b,1.0,0.5754211680032313,,,,,,,,,,,,,,0.0,5.0,5.0,2.0,,,,,80.75220543500473,,,,,,,,,,,,,,,,,80.73626958700333,80.8367810100026,81.63881000700349,81.62271340700681,,,,,,,,,,,,,,,,81.62343222000345,81.63881000700349,81.63881000700349,82.22475393500645,b,1.0,0.5754211680032313,,82.22528876000433,82.23977657200157,83.22653234500467,,,,,,,,,,,,,,,,,,,,sub-119,1,stroop_test,59.31110014707904,
,,,,6.0,6.0,0.0,,,,,blau,blue,b,1.0,b,1.0,0.8550125400070101,,,,,,,,,,,,,,0.0,6.0,6.0,5.0,,,,,83.24293641999975,,,,,,,,,,,,,,,,,83.22698165700422,84.0275630899996,84.83077235200471,84.81467263200466,,,,,,,,,,,,,,,,84.8190364720067,84.83077235200471,84.83077235200471,85.7000271010038,b,1.0,0.8550125400070101,,85.70046201700461,85.71595104000153,86.70219361500494,,,,,,,,,,,,,,,,,,,,sub-119,1,stroop_test,59.31110014707904,
,,,,7.0,7.0,0.0,,,,,gelb,blue,b,0.0,b,1.0,0.5406204099999741,,,,,,,,,,,,,,0.0,7.0,7.0,9.0,,,,,86.7193453400032,,,,,,,,,,,,,,,,,86.70265083500271,86.80240015000163,87.60448651000479,87.58894311699987,,,,,,,,,,,,,,,,87.5933236320052,87.60448651000479,87.60448651000479,88.15743616100372,b,1.0,0.5406204099999741,,88.15796326500276,88.17242464700394,89.15924767000251,,,,,,,,,,,,,,,,,,,,sub-119,1,stroop_test,59.31110014707904,
,,,,8.0,8.0,0.0,,,,,rot,red,r,1.0,r,1.0,0.5203326550035854,,,,,,,,,,,,,,0.0,8.0,8.0,1.0,,,,,89.17568282499997,,,,,,,,,,,,,,,,,89.15976650700031,89.50956682200194,90.31121800000255,90.29514372999984,,,,,,,,,,,,,,,,90.29751429300086,90.31121800000255,90.31121800000255,90.84699448000174,r,1.0,0.5203326550035854,,90.84750097800134,90.86231681299978,91.84949072200106,,,,,,,,,,,,,,,,,,,,sub-119,1,stroop_test,59.31110014707904,
,,,,9.0,9.0,0.0,,,,,gelb,yellow,g,1.0,g,1.0,0.4430218019988388,,,,,,,,,,,,,,0.0,9.0,9.0,11.0,,,,,91.86601812700246,,,,,,,,,,,,,,,,,91.849965240006,92.200236030003,93.00344006000525,92.98698052700638,,,,,,,,,,,,,,,,92.99173799500568,93.00344006000525,93.00344006000525,93.45622777000244,g,1.0,0.4430218019988388,,93.45686702500096,93.469521335006,94.45638961500664,94.47243127800176,,,,,,,,,,,,,,,,,,,sub-119,1,stroop_test,59.31110014707904,
,,,,10.0,10.0,0.0,,,,,blau,red,r,0.0,r,1.0,0.6766016760011553,,,,,,,,,,,,,,0.0,10.0,10.0,4.0,,,,,94.47243127800176,,,,,,,,,,,,,,,,,94.45670543400048,94.80673918300454,95.60887798400654,95.59265282500564,,,,,,,,,,,,,,,,95.59530089800684,95.60887798400654,95.60887798400654,96.29468665700551,r,1.0,0.6766016760011553,,96.29514306800412,96.31038408300084,97.29749553000148,,,,,,,,,,,,,,,,,,,,sub-119,1,stroop_test,59.31110014707904,
,,,,11.0,11.0,0.0,,,,,blau,blue,b,1.0,b,1.0,0.5553470029990422,,,,,,,,,,,,,,0.0,11.0,11.0,6.0,,,,,97.3138576450001,,,,,,,,,,,,,,,,,97.29796916000488,97.64848019200144,98.44943343600607,98.43393906500567,,,,,,,,,,,,,,,,98.43442323300404,98.44943343600607,98.44943343600607,99.01883136499964,b,1.0,0.5553470029990422,,99.01926722200004,99.0342726250019,100.02132989700476,,,,,,,,,,,,,,,,,,,,sub-119,1,stroop_test,59.31110014707904,
,,,,12.0,0.0,1.0,,,,,gelb,blue,b,0.0,b,1.0,1.196198584002559,,,,,,,,,,,,,,1.0,0.0,12.0,9.0,,,,,100.03684326000077,,,,,,,,,,,,,,,,,100.02201126200087,100.12091579499976,100.92290288799995,100.9063823950055,,,,,,,,,,,,,,,,100.9095112530049,100.92290288799995,100.92290288799995,102.12928526700124,b,1.0,1.196198584002559,,102.12982165700669,102.1426025730034,103.12972435700068,,,,,,,,,,,,,,,,,,,,sub-119,1,stroop_test,59.31110014707904,
,,,,13.0,1.0,1.0,,,,,rot,red,r,1.0,r,1.0,0.6057082539991825,,,,,,,,,,,,,,1.0,1.0,13.0,0.0,,,,,103.14600592000352,,,,,,,,,,,,,,,,,103.13018196200574,104.33314367999992,105.13384004300316,105.11778188000608,,,,,,,,,,,,,,,,105.12029053700098,105.13384004300316,105.13384004300316,105.75345564300368,r,1.0,0.6057082539991825,,105.75390179000532,105.76912263800476,106.7561353570054,,,,,,,,,,,,,,,,,,,,sub-119,1,stroop_test,59.31110014707904,
,,,,14.0,2.0,1.0,,,,,rot,yellow,g,0.0,g,1.0,1.1032303620013408,,,,,,,,,,,,,,1.0,2.0,14.0,3.0,,,,,106.77266863000114,,,,,,,,,,,,,,,,,106.75659183500102,106.856013360004,107.65726965000069,107.6417827070036,,,,,,,,,,,,,,,,107.64249068299978,107.65726965000069,107.65726965000069,108.7652325750023,g,1.0,1.1032303620013408,,108.76589796200278,108.77725014900352,109.76419891499972,109.78002258500057,,,,,,,,,,,,,,,,,,,sub-119,1,stroop_test,59.31110014707904,
,,,,15.0,3.0,1.0,,,,,blau,yellow,g,0.0,g,1.0,0.4180710900036501,,,,,,,,,,,,,,1.0,3.0,15.0,7.0,,,,,109.78002258500057,,,,,,,,,,,,,,,,,109.76453691300412,110.96724116700352,111.77027475000068,111.75378794500284,,,,,,,,,,,,,,,,111.758468207001,111.77027475000068,111.77027475000068,112.20557859200198,g,1.0,0.4180710900036501,,112.20630006000285,112.2193741650044,113.20633221000026,113.22223705500072,,,,,,,,,,,,,,,,,,,sub-119,1,stroop_test,59.31110014707904,
,,,,16.0,4.0,1.0,,,,,rot,blue,b,0.0,b,1.0,0.7702379010006553,,,,,,,,,,,,,,1.0,4.0,16.0,2.0,,,,,113.22223705500072,,,,,,,,,,,,,,,,,113.20664956800464,114.00851619199966,114.8094845960004,114.79465759700544,,,,,,,,,,,,,,,,114.7986668550002,114.8094845960004,114.8094845960004,115.59675734700431,b,1.0,0.7702379010006553,,115.59720937700332,115.61190451500444,116.59837303800305,,,,,,,,,,,,,,,,,,,,sub-119,1,stroop_test,59.31110014707904,
,,,,17.0,5.0,1.0,,,,,gelb,yellow,g,1.0,g,1.0,1.0234221430000616,,,,,,,,,,,,,,1.0,5.0,17.0,11.0,,,,,116.61476524000318,,,,,,,,,,,,,,,,,116.59871531200042,117.80212510000274,118.60370953200618,118.58737473600196,,,,,,,,,,,,,,,,118.59023406699998,118.60370953200618,118.60370953200618,119.64103457100282,g,1.0,1.0234221430000616,,119.64149804200132,119.65603442200518,120.64282496700616,,,,,,,,,,,,,,,,,,,,sub-119,1,stroop_test,59.31110014707904,
,,,,18.0,6.0,1.0,,,,,blau,red,r,0.0,r,1.0,0.7724361200016574,,,,,,,,,,,,,,1.0,6.0,18.0,4.0,,,,,120.65876868700434,,,,,,,,,,,,,,,,,120.64319842200348,121.84634035500494,122.64750736499992,122.63239423699996,,,,,,,,,,,,,,,,122.6364604870032,122.64750736499992,122.64750736499992,123.43524192699988,r,1.0,0.7724361200016574,,123.43576964700333,123.44944500500424,124.43563113500568,,,,,,,,,,,,,,,,,,,,sub-119,1,stroop_test,59.31110014707904,
,,,,19.0,7.0,1.0,,,,,gelb,red,r,0.0,r,1.0,0.5867691640014527,,,,,,,,,,,,,,1.0,7.0,19.0,8.0,,,,,124.45264071300336,,,,,,,,,,,,,,,,,124.43594531300188,124.53625857600127,125.33816160599964,125.3223816890022,,,,,,,,,,,,,,,,125.32555649500136,125.33816160599964,125.33816160599964,125.94077294300224,r,1.0,0.5867691640014527,,125.94131434500014,125.95694726500368,126.94259170700388,,,,,,,,,,,,,,,,,,,,sub-119,1,stroop_test,59.31110014707904,
,,,,20.0,8.0,1.0,,,,,blau,blue,b,1.0,b,1.0,0.4800193180053611,,,,,,,,,,,,,,1.0,8.0,20.0,5.0,,,,,126.9590502800056,,,,,,,,,,,,,,,,,126.94293562700476,127.0499946150012,127.86142927699984,127.84670368700608,,,,,,,,,,,,,,,,127.85112320700136,127.86142927699984,127.86142927699984,128.3496322800056,b,1.0,0.4800193180053611,,128.35023331100092,128.36289885200677,129.35031024700584,129.36665643200104,,,,,,,,,,,,,,,,,,,sub-119,1,stroop_test,59.31110014707904,
,,,,21.0,9.0,1.0,,,,,rot,red,r,1.0,r,1.0,0.525010465993546,,,,,,,,,,,,,,1.0,9.0,21.0,1.0,,,,,129.36665643200104,,,,,,,,,,,,,,,,,129.35076323700196,130.15106214499974,130.9530697980008,130.9382683050062,,,,,,,,,,,,,,,,130.9425609470054,130.9530697980008,130.9530697980008,131.48964278500353,r,1.0,0.525010465993546,,131.49017005300266,131.5043353620058,132.4911091920003,,,,,,,,,,,,,,,,,,,,sub-119,1,stroop_test,59.31110014707904,
,,,,22.0,10.0,1.0,,,,,blau,blue,b,1.0,b,1.0,0.5082256120003876,,,,,,,,,,,,,,1.0,10.0,22.0,6.0,,,,,132.50729895300174,,,,,,,,,,,,,,,,,132.49148437500116,133.29356348200236,134.09586428500188,134.07983491699997,,,,,,,,,,,,,,,,134.08414416000596,134.09586428500188,134.09586428500188,134.6150117710058,b,1.0,0.5082256120003876,,134.61553931000526,134.62947216199973,135.61650526700396,,,,,,,,,,,,,,,,,,,,sub-119,1,stroop_test,59.31110014707904,
,,,,23.0,11.0,1.0,,,,,gelb,yellow,g,1.0,g,1.0,0.3930854049976915,,,,,,,,,,,,,,1.0,11.0,23.0,10.0,,,,,135.6330022500042,,,,,,,,,,,,,,,,,135.61698701500427,136.81931286700274,137.6214432800043,137.6057104250067,,,,,,,,,,,,,,,,137.6100266650028,137.6214432800043,137.6214432800043,138.02480823500082,g,1.0,0.3930854049976915,,138.0254360310064,138.03843202500138,139.02505432500038,,,,,,,,,,,,,,,,,,,,sub-119,1,stroop_test,59.31110014707904,
,,,,,,,,,,,,,,,,,,,,,,,,,,,,,,,,,,,,,,,,,,,,,,,,,,,,,,,,,,,,,,,,,,,,,,,,,,,,,,,,,,,,,,,139.0252197200025,139.04121118600597,139.04121118600597,142.1174252130004,space,3.064343646998168,,,,,,,,,,,,,sub-119,1,stroop_test,59.31110014707904,
,,,,0.0,0.0,0.0,,,,,,,,,,,,,gelb,yellow,g,1.0,g,1.0,0.570381258999987,,,,,,,,,,0.0,0.0,0.0,10.0,142.13635695100675,,,,,,,,,,,,,,,,,142.12709927300602,142.2328257870031,143.03617346800456,143.02015648000088,,,,,,,,,,,,,,,,,,,,,,,,,,,,,,,,,,,143.02450566200423,143.03617346800456,143.03617346800456,143.62172796000232,g,1.0,0.570381258999987,,,,,sub-119,1,stroop_test,59.31110014707904,
,,,,1.0,1.0,0.0,,,,,,,,,,,,,rot,red,r,1.0,r,1.0,0.4703684510022867,,,,,,,,,,0.0,1.0,1.0,1.0,143.63711312300438,,,,,,,,,,,,,,,,,143.62202913700455,144.82433208500152,145.6255434630002,145.61024785500194,,,,,,,,,,,,,,,,,,,,,,,,,,,,,,,,,,,145.61495018700225,145.6255434630002,145.6255434630002,146.11192664500413,r,1.0,0.4703684510022867,,,,,sub-119,1,stroop_test,59.31110014707904,
,,,,2.0,2.0,0.0,,,,,,,,,,,,,rot,red,r,1.0,r,1.0,0.4919424719992094,,,,,,,,,,0.0,2.0,2.0,0.0,146.12678718000095,,,,,,,,,,,,,,,,,146.1122940269997,146.2272022420002,147.0300068650031,147.0142884970046,,,,,,,,,,,,,,,,,,,,,,,,,,,,,,,,,,,147.01500565500464,147.0300068650031,147.0300068650031,147.5329778850064,r,1.0,0.4919424719992094,,,,,sub-119,1,stroop_test,59.31110014707904,
,,,,3.0,3.0,0.0,,,,,,,,,,,,,blau,blue,b,1.0,b,1.0,0.4379740740041598,,,,,,,,,,0.0,3.0,3.0,6.0,147.54745974000252,,,,,,,,,,,,,,,,,147.5333560700019,147.8981187860045,148.7003812250041,148.68530433700653,,,,,,,,,,,,,,,,,,,,,,,,,,,,,,,,,,,148.68943171200226,148.7003812250041,148.7003812250041,149.15296008600126,b,1.0,0.4379740740041598,,,,,sub-119,1,stroop_test,59.31110014707904,
,,,,4.0,4.0,0.0,,,,,,,,,,,,,gelb,red,r,0.0,r,1.0,0.4991148469998734,,,,,,,,,,0.0,4.0,4.0,8.0,149.16854855000565,,,,,,,,,,,,,,,,,149.15327290700225,149.95415517500078,150.7554331920037,150.7410931570048,,,,,,,,,,,,,,,,,,,,,,,,,,,,,,,,,,,150.74535430000105,150.7554331920037,150.7554331920037,151.26099039100518,r,1.0,0.4991148469998734,,,,,sub-119,1,stroop_test,59.31110014707904,
,,,,5.0,5.0,0.0,,,,,,,,,,,,,gelb,yellow,g,1.0,g,1.0,0.4760746949978056,,,,,,,,,,0.0,5.0,5.0,11.0,151.2741748920016,,,,,,,,,,,,,,,,,151.26137626100535,152.46118468700297,153.2633100450039,153.24740040700271,,,,,,,,,,,,,,,,,,,,,,,,,,,,,,,,,,,153.24811503000092,153.2633100450039,153.2633100450039,153.75026758500462,g,1.0,0.4760746949978056,,,,,sub-119,1,stroop_test,59.31110014707904,
,,,,6.0,6.0,0.0,,,,,,,,,,,,,blau,red,r,0.0,r,1.0,0.778433416999178,,,,,,,,,,0.0,6.0,6.0,4.0,153.76368321700284,,,,,,,,,,,,,,,,,153.75071275300434,154.55000928000663,155.3512123960027,155.33546984200075,,,,,,,,,,,,,,,,,,,,,,,,,,,,,,,,,,,155.33843396300654,155.3512123960027,155.3512123960027,156.14048225100123,r,1.0,0.778433416999178,,,,,sub-119,1,stroop_test,59.31110014707904,
,,,,7.0,7.0,0.0,,,,,,,,,,,,,rot,blue,b,0.0,b,1.0,0.6828982450024341,,,,,,,,,,0.0,7.0,7.0,2.0,156.15390323100291,,,,,,,,,,,,,,,,,156.14086353099992,156.94011915700685,157.74090687700664,157.726338915003,,,,,,,,,,,,,,,,,,,,,,,,,,,,,,,,,,,157.73061542700452,157.74090687700664,157.74090687700664,158.43034807500226,b,1.0,0.6828982450024341,,,,,sub-119,1,stroop_test,59.31110014707904,
,,,,8.0,8.0,0.0,,,,,,,,,,,,,blau,blue,b,1.0,b,1.0,0.4599107569956686,,,,,,,,,,0.0,8.0,8.0,5.0,158.44293329700304,,,,,,,,,,,,,,,,,158.43080158700468,159.22914594699978,160.03148579200206,160.01552708000236,,,,,,,,,,,,,,,,,,,,,,,,,,,,,,,,,,,160.0198759450068,160.03148579200206,160.03148579200206,160.5014200730002,b,1.0,0.4599107569956686,,,,,sub-119,1,stroop_test,59.31110014707904,
,,,,9.0,9.0,0.0,,,,,,,,,,,,,gelb,blue,b,0.0,b,1.0,0.4259181750021525,,,,,,,,,,0.0,9.0,9.0,9.0,160.51534581500164,,,,,,,,,,,,,,,,,160.50178673100163,161.70250685000065,162.5039966270051,162.48834859700582,,,,,,,,,,,,,,,,,,,,,,,,,,,,,,,,,,,162.49141772599978,162.5039966270051,162.5039966270051,162.94040890300676,b,1.0,0.4259181750021525,,,,,sub-119,1,stroop_test,59.31110014707904,
,,,,10.0,10.0,0.0,,,,,,,,,,,,,rot,yellow,g,0.0,g,1.0,0.5568067080021137,,,,,,,,,,0.0,10.0,10.0,3.0,162.9556256020005,,,,,,,,,,,,,,,,,162.94077569000365,163.30597931300144,164.10868607200246,164.09339941200597,,,,,,,,,,,,,,,,,,,,,,,,,,,,,,,,,,,164.09765235500527,164.10868607200246,164.10868607200246,164.677383318005,g,1.0,0.5568067080021137,,,,,sub-119,1,stroop_test,59.31110014707904,
,,,,11.0,11.0,0.0,,,,,,,,,,,,,blau,yellow,g,0.0,g,1.0,0.4419362650005496,,,,,,,,,,0.0,11.0,11.0,7.0,164.6931679010013,,,,,,,,,,,,,,,,,164.6776930260021,165.47861443100555,166.28196281700366,166.26595668500522,,,,,,,,,,,,,,,,,,,,,,,,,,,,,,,,,,,166.27029637700616,166.28196281700366,166.28196281700366,166.7347818750059,g,1.0,0.4419362650005496,,,,,sub-119,1,stroop_test,59.31110014707904,
,,,,12.0,0.0,1.0,,,,,,,,,,,,,gelb,red,r,0.0,r,1.0,0.5219302449986571,,,,,,,,,,1.0,0.0,12.0,8.0,166.7484628300008,,,,,,,,,,,,,,,,,166.73522008500004,167.93600813700323,168.73700626500067,168.72164051200525,,,,,,,,,,,,,,,,,,,,,,,,,,,,,,,,,,,168.72428376800235,168.73700626500067,168.73700626500067,169.27414826000313,r,1.0,0.5219302449986571,,,,,sub-119,1,stroop_test,59.31110014707904,
,,,,13.0,1.0,1.0,,,,,,,,,,,,,rot,red,r,1.0,r,1.0,0.612325508001959,,,,,,,,,,1.0,1.0,13.0,0.0,169.28852311500668,,,,,,,,,,,,,,,,,169.27451263100374,169.64008824000484,170.44246551000106,170.4266054270047,,,,,,,,,,,,,,,,,,,,,,,,,,,,,,,,,,,170.4313002150011,170.44246551000106,170.44246551000106,171.0636543569999,r,1.0,0.612325508001959,,,,,sub-119,1,stroop_test,59.31110014707904,
,,,,14.0,2.0,1.0,,,,,,,,,,,,,blau,blue,b,1.0,b,1.0,0.6025485499994829,,,,,,,,,,1.0,2.0,14.0,5.0,171.07697070200084,,,,,,,,,,,,,,,,,171.064130812003,171.42838510700676,172.23020543000166,172.21367166800337,,,,,,,,,,,,,,,,,,,,,,,,,,,,,,,,,,,172.2163451680026,172.23020543000166,172.23020543000166,172.85036072000366,b,1.0,0.6025485499994829,,,,,sub-119,1,stroop_test,59.31110014707904,
,,,,15.0,3.0,1.0,,,,,,,,,,,,,rot,yellow,g,0.0,g,1.0,1.0225196539977333,,,,,,,,,,1.0,3.0,15.0,3.0,172.8649266020002,,,,,,,,,,,,,,,,,172.85074199800147,174.05225891200098,174.85368660500535,174.83722398700047,,,,,,,,,,,,,,,,,,,,,,,,,,,,,,,,,,,174.8399714460029,174.85368660500535,174.85368660500535,175.89100229400356,g,1.0,1.0225196539977333,,,,,sub-119,1,stroop_test,59.31110014707904,
,,,,16.0,4.0,1.0,,,,,,,,,,,,,gelb,yellow,g,1.0,g,1.0,0.5246273740049219,,,,,,,,,,1.0,4.0,16.0,11.0,175.90650696600642,,,,,,,,,,,,,,,,,175.89133792000212,176.00639772100112,176.80902221800352,176.79266027500125,,,,,,,,,,,,,,,,,,,,,,,,,,,,,,,,,,,176.79576676800207,176.80902221800352,176.80902221800352,177.3454919020005,g,1.0,0.5246273740049219,,,,,sub-119,1,stroop_test,59.31110014707904,
,,,,17.0,5.0,1.0,,,,,,,,,,,,,gelb,blue,b,0.0,b,1.0,0.3739583319984376,,,,,,,,,,1.0,5.0,17.0,9.0,177.36012136200588,,,,,,,,,,,,,,,,,177.34579633999965,178.54739027000323,179.3498905650049,179.3340986500043,,,,,,,,,,,,,,,,,,,,,,,,,,,,,,,,,,,179.3348095570036,179.3498905650049,179.3498905650049,179.7342829160043,b,1.0,0.3739583319984376,,,,,sub-119,1,stroop_test,59.31110014707904,
,,,,18.0,6.0,1.0,,,,,,,,,,,,,rot,red,r,1.0,r,1.0,0.37035190500319,,,,,,,,,,1.0,6.0,18.0,1.0,179.74979533900478,,,,,,,,,,,,,,,,,179.7345836500026,180.5364742170059,181.338669032004,181.3225324100058,,,,,,,,,,,,,,,,,,,,,,,,,,,,,,,,,,,181.32681832700476,181.338669032004,181.338669032004,181.72357488600392,r,1.0,0.37035190500319,,,,,sub-119,1,stroop_test,59.31110014707904,
,,,,19.0,7.0,1.0,,,,,,,,,,,,,blau,yellow,g,0.0,b,0.0,0.5274076970017632,,,,,,,,,,1.0,7.0,19.0,7.0,181.73909799200192,,,,,,,,,,,,,,,,,181.7238712460021,182.0893666530028,182.89154188300017,182.8762694850011,,,,,,,,,,,,,,,,,,,,,,,,,,,,,,,,,,,182.8793620810029,182.89154188300017,182.89154188300017,183.42826101000537,b,0.0,0.5274076970017632,,,,,sub-119,1,stroop_test,59.31110014707904,
,,,,20.0,8.0,1.0,,,,,,,,,,,,,blau,blue,b,1.0,b,1.0,0.7524102669995045,,,,,,,,,,1.0,8.0,20.0,6.0,183.443451060004,,,,,,,,,,,,,,,,,183.4286243470051,183.77864910000065,184.5804856000032,184.56464037499973,,,,,,,,,,,,,,,,,,,,,,,,,,,,,,,,,,,184.5653498820029,184.5804856000032,184.5804856000032,185.350079130003,b,1.0,0.7524102669995045,,,,,sub-119,1,stroop_test,59.31110014707904,
,,,,21.0,9.0,1.0,,,,,,,,,,,,,blau,red,r,0.0,r,1.0,0.5924423610049416,,,,,,,,,,1.0,9.0,21.0,4.0,185.36514357000124,,,,,,,,,,,,,,,,,185.3504410070018,186.55138462700413,187.3535082810049,187.3373330850009,,,,,,,,,,,,,,,,,,,,,,,,,,,,,,,,,,,187.33783265200327,187.3535082810049,187.3535082810049,187.95788047700623,r,1.0,0.5924423610049416,,,,,sub-119,1,stroop_test,59.31110014707904,
,,,,22.0,10.0,1.0,,,,,,,,,,,,,gelb,yellow,g,1.0,g,1.0,0.5533948519951082,,,,,,,,,,1.0,10.0,22.0,10.0,187.97187827000016,,,,,,,,,,,,,,,,,187.95826178300197,188.757110245002,189.55927116000385,189.54473069000232,,,,,,,,,,,,,,,,,,,,,,,,,,,,,,,,,,,189.54871536000428,189.55927116000385,189.55927116000385,190.129612018005,g,1.0,0.5533948519951082,,,,,sub-119,1,stroop_test,59.31110014707904,
,,,,23.0,11.0,1.0,,,,,,,,,,,,,rot,blue,b,0.0,b,1.0,0.8187028150059632,,,,,,,,,,1.0,11.0,23.0,2.0,190.1443749310056,,,,,,,,,,,,,,,,,190.12989950300107,190.93076388700135,191.7330865520053,191.71716119000484,,,,,,,,,,,,,,,,,,,,,,,,,,,,,,,,,,,191.72142758700647,191.7330865520053,191.7330865520053,192.5689332270049,b,1.0,0.8187028150059632,,,,,sub-119,1,stroop_test,59.31110014707904,
,,,,24.0,0.0,2.0,,,,,,,,,,,,,blau,red,r,0.0,r,1.0,0.6054331729974365,,,,,,,,,,2.0,0.0,24.0,4.0,192.58431227700203,,,,,,,,,,,,,,,,,192.5692987370057,192.91905127200152,193.72126460500292,193.70558851200624,,,,,,,,,,,,,,,,,,,,,,,,,,,,,,,,,,,193.70995698500337,193.72126460500292,193.72126460500292,194.3409803350005,r,1.0,0.6054331729974365,,,,,sub-119,1,stroop_test,59.31110014707904,
,,,,25.0,1.0,2.0,,,,,,,,,,,,,gelb,yellow,g,1.0,g,1.0,0.4685197330036317,,,,,,,,,,2.0,1.0,25.0,10.0,194.35578430800524,,,,,,,,,,,,,,,,,194.34141046600416,195.5417163680031,196.34422522500245,196.3283068730016,,,,,,,,,,,,,,,,,,,,,,,,,,,,,,,,,,,196.33151997200184,196.34422522500245,196.34422522500245,196.8151645850012,g,1.0,0.4685197330036317,,,,,sub-119,1,stroop_test,59.31110014707904,
,,,,26.0,2.0,2.0,,,,,,,,,,,,,gelb,blue,b,0.0,b,1.0,0.7439332849971834,,,,,,,,,,2.0,2.0,26.0,9.0,196.82939778000585,,,,,,,,,,,,,,,,,196.8154959380045,198.0153584830041,198.81707888700475,198.80100608100477,,,,,,,,,,,,,,,,,,,,,,,,,,,,,,,,,,,198.8014389570017,198.81707888700475,198.81707888700475,199.5717131350029,b,1.0,0.7439332849971834,,,,,sub-119,1,stroop_test,59.31110014707904,
,,,,27.0,3.0,2.0,,,,,,,,,,,,,blau,blue,b,1.0,b,1.0,0.4840766569977859,,,,,,,,,,2.0,3.0,27.0,6.0,199.58626954200008,,,,,,,,,,,,,,,,,199.5721609500033,199.9204209160016,200.722961891006,200.70665157900655,,,,,,,,,,,,,,,,,,,,,,,,,,,,,,,,,,,200.70947998300107,200.722961891006,200.722961891006,201.2099146649998,b,1.0,0.4840766569977859,,,,,sub-119,1,stroop_test,59.31110014707904,
,,,,28.0,4.0,2.0,,,,,,,,,,,,,blau,yellow,g,0.0,g,1.0,1.1430849820026197,,,,,,,,,,2.0,4.0,28.0,7.0,201.22416343100485,,,,,,,,,,,,,,,,,201.2102221130044,201.5754730780027,202.37741717500467,202.36123807200056,,,,,,,,,,,,,,,,,,,,,,,,,,,,,,,,,,,202.36185018200197,202.37741717500467,202.37741717500467,203.53225110300264,g,1.0,1.1430849820026197,,,,,sub-119,1,stroop_test,59.31110014707904,
,,,,29.0,5.0,2.0,,,,,,,,,,,,,rot,blue,b,0.0,b,1.0,0.8215243070008,,,,,,,,,,2.0,5.0,29.0,2.0,203.5472082870037,,,,,,,,,,,,,,,,,203.53261540300448,203.89806953200605,204.69994987200332,204.68448513700423,,,,,,,,,,,,,,,,,,,,,,,,,,,,,,,,,,,204.68753321300028,204.69994987200332,204.69994987200332,205.5367219280015,b,1.0,0.8215243070008,,,,,sub-119,1,stroop_test,59.31110014707904,
,,,,30.0,6.0,2.0,,,,,,,,,,,,,blau,blue,b,1.0,b,1.0,0.6547074150003027,,,,,,,,,,2.0,6.0,30.0,5.0,205.55277074000333,,,,,,,,,,,,,,,,,205.53703989500357,206.73957726200024,207.605945907002,207.57596810100225,,,,,,,,,,,,,,,,,,,,,,,,,,,,,,,,,,,207.58015043600608,207.605945907002,207.605945907002,208.26468263500283,b,1.0,0.6547074150003027,,,,,sub-119,1,stroop_test,59.31110014707904,
,,,,31.0,7.0,2.0,,,,,,,,,,,,,gelb,red,r,0.0,r,1.0,0.7207700599974487,,,,,,,,,,2.0,7.0,31.0,8.0,208.2763760080052,,,,,,,,,,,,,,,,,208.26512217500567,209.07901319500525,209.88037053000156,209.8642093600065,,,,,,,,,,,,,,,,,,,,,,,,,,,,,,,,,,,209.86657067700435,209.88037053000156,209.88037053000156,210.6164141879999,r,1.0,0.7207700599974487,,,,,sub-119,1,stroop_test,59.31110014707904,
,,,,32.0,8.0,2.0,,,,,,,,,,,,,rot,red,r,1.0,r,1.0,0.5271907679998549,,,,,,,,,,2.0,8.0,32.0,1.0,210.63321169700063,,,,,,,,,,,,,,,,,210.61672607600485,211.8199219550006,212.6209481370024,212.60543517500628,,,,,,,,,,,,,,,,,,,,,,,,,,,,,,,,,,,212.6082483650025,212.6209481370024,212.6209481370024,213.1577706080061,r,1.0,0.5271907679998549,,,,,sub-119,1,stroop_test,59.31110014707904,
,,,,33.0,9.0,2.0,,,,,,,,,,,,,rot,yellow,g,0.0,g,1.0,0.5701775350025855,,,,,,,,,,2.0,9.0,33.0,3.0,213.17242807,,,,,,,,,,,,,,,,,213.1581228960058,213.95890301500185,214.76127553200055,214.74512539700663,,,,,,,,,,,,,,,,,,,,,,,,,,,,,,,,,,,214.7458493600061,214.76127553200055,214.76127553200055,215.34686613100348,g,1.0,0.5701775350025855,,,,,sub-119,1,stroop_test,59.31110014707904,
,,,,34.0,10.0,2.0,,,,,,,,,,,,,gelb,yellow,g,1.0,g,1.0,0.4699024739966262,,,,,,,,,,2.0,10.0,34.0,11.0,215.3614557470064,,,,,,,,,,,,,,,,,215.3472245110024,216.14721022400045,216.9494572370022,216.9337193770043,,,,,,,,,,,,,,,,,,,,,,,,,,,,,,,,,,,216.9372225900006,216.9494572370022,216.9494572370022,217.4359541770027,g,1.0,0.4699024739966262,,,,,sub-119,1,stroop_test,59.31110014707904,
,,,,35.0,11.0,2.0,,,,,,,,,,,,,rot,red,r,1.0,r,1.0,0.5695799850000185,,,,,,,,,,2.0,11.0,35.0,0.0,217.45043939199968,,,,,,,,,,,,,,,,,217.436316927,217.55131624100613,218.35297616000025,218.3369263870045,,,,,,,,,,,,,,,,,,,,,,,,,,,,,,,,,,,218.3395525660017,218.35297616000025,218.35297616000025,218.93957608600613,r,1.0,0.5695799850000185,,,,,sub-119,1,stroop_test,59.31110014707904,
,,,,36.0,0.0,3.0,,,,,,,,,,,,,gelb,red,r,0.0,r,1.0,0.4607863940036623,,,,,,,,,,3.0,0.0,36.0,8.0,218.95535567200568,,,,,,,,,,,,,,,,,218.93986238500656,219.03816159500275,219.84045974699984,219.824252217004,,,,,,,,,,,,,,,,,,,,,,,,,,,,,,,,,,,219.82697904300585,219.84045974699984,219.84045974699984,220.309621417,r,1.0,0.4607863940036623,,,,,sub-119,1,stroop_test,59.31110014707904,
,,,,37.0,1.0,3.0,,,,,,,,,,,,,rot,blue,b,0.0,b,1.0,0.8960074689966859,,,,,,,,,,3.0,1.0,37.0,2.0,220.3256840220056,,,,,,,,,,,,,,,,,220.3099115320001,221.5116802200064,222.31413704000445,222.29765540500372,,,,,,,,,,,,,,,,,,,,,,,,,,,,,,,,,,,222.3007444400064,222.31413704000445,222.31413704000445,223.21798202100035,b,1.0,0.8960074689966859,,,,,sub-119,1,stroop_test,59.31110014707904,
,,,,38.0,2.0,3.0,,,,,,,,,,,,,rot,yellow,g,0.0,g,1.0,0.970443313002761,,,,,,,,,,3.0,2.0,38.0,3.0,223.23335134500667,,,,,,,,,,,,,,,,,223.2182889600008,223.56790795500277,224.36906098000327,224.3530901289996,,,,,,,,,,,,,,,,,,,,,,,,,,,,,,,,,,,224.35361418200048,224.36906098000327,224.36906098000327,225.35710334500615,g,1.0,0.970443313002761,,,,,sub-119,1,stroop_test,59.31110014707904,
,,,,39.0,3.0,3.0,,,,,,,,,,,,,gelb,blue,b,0.0,b,1.0,0.8259506399990642,,,,,,,,,,3.0,3.0,39.0,9.0,225.37171985500024,,,,,,,,,,,,,,,,,225.35743161600112,226.1573078950023,226.9596361100048,226.94342472000423,,,,,,,,,,,,,,,,,,,,,,,,,,,,,,,,,,,226.9460818850057,226.9596361100048,226.9596361100048,227.79690362700055,b,1.0,0.8259506399990642,,,,,sub-119,1,stroop_test,59.31110014707904,
,,,,40.0,4.0,3.0,,,,,,,,,,,,,rot,red,r,1.0,r,1.0,0.6031914549967041,,,,,,,,,,3.0,4.0,40.0,0.0,227.81158366500316,,,,,,,,,,,,,,,,,227.79726791500437,228.5980586700025,229.39967383200565,229.3844335370013,,,,,,,,,,,,,,,,,,,,,,,,,,,,,,,,,,,229.3887217800002,229.39967383200565,229.39967383200565,230.0056773210017,r,1.0,0.6031914549967041,,,,,sub-119,1,stroop_test,59.31110014707904,
,,,,41.0,5.0,3.0,,,,,,,,,,,,,gelb,yellow,g,1.0,g,1.0,0.7806939929942018,,,,,,,,,,3.0,5.0,41.0,10.0,230.0169973420052,,,,,,,,,,,,,,,,,230.00604802000453,230.1178554530052,230.92021702400237,230.90492048700253,,,,,,,,,,,,,,,,,,,,,,,,,,,,,,,,,,,230.9090525700012,230.92021702400237,230.92021702400237,231.7075222180065,g,1.0,0.7806939929942018,,,,,sub-119,1,stroop_test,59.31110014707904,
,,,,42.0,6.0,3.0,,,,,,,,,,,,,blau,blue,b,1.0,b,1.0,0.4360328929979005,,,,,,,,,,3.0,6.0,42.0,5.0,231.7221876920012,,,,,,,,,,,,,,,,,231.70789008599968,232.50748802300225,233.30966470200656,233.29462899700596,,,,,,,,,,,,,,,,,,,,,,,,,,,,,,,,,,,233.29938658500032,233.30966470200656,233.30966470200656,233.7625343010004,b,1.0,0.4360328929979005,,,,,sub-119,1,stroop_test,59.31110014707904,
,,,,43.0,7.0,3.0,,,,,,,,,,,,,rot,red,r,1.0,r,1.0,0.4773084009939339,,,,,,,,,,3.0,7.0,43.0,1.0,233.7776208350042,,,,,,,,,,,,,,,,,233.76289534100212,234.5631796470043,235.3653052370064,235.34923817700476,,,,,,,,,,,,,,,,,,,,,,,,,,,,,,,,,,,235.3521228020036,235.3653052370064,235.3653052370064,235.85256060000395,r,1.0,0.4773084009939339,,,,,sub-119,1,stroop_test,59.31110014707904,
,,,,44.0,8.0,3.0,,,,,,,,,,,,,gelb,yellow,g,1.0,g,1.0,0.5032387999963248,,,,,,,,,,3.0,8.0,44.0,11.0,235.86651031500517,,,,,,,,,,,,,,,,,235.85291742499976,236.65184656700148,237.4548913020044,237.4388679170006,,,,,,,,,,,,,,,,,,,,,,,,,,,,,,,,,,,237.44317165000396,237.4548913020044,237.4548913020044,237.97376301300392,g,1.0,0.5032387999963248,,,,,sub-119,1,stroop_test,59.31110014707904,
,,,,45.0,9.0,3.0,,,,,,,,,,,,,blau,red,r,0.0,r,1.0,0.5415996930023539,,,,,,,,,,3.0,9.0,45.0,4.0,237.98886050400324,,,,,,,,,,,,,,,,,237.97412679000263,239.1761497520056,239.9781493050032,239.9626897400012,,,,,,,,,,,,,,,,,,,,,,,,,,,,,,,,,,,239.96703765200076,239.9781493050032,239.9781493050032,240.5303531850004,r,1.0,0.5415996930023539,,,,,sub-119,1,stroop_test,59.31110014707904,
,,,,46.0,10.0,3.0,,,,,,,,,,,,,blau,yellow,g,0.0,b,0.0,0.8262343499955023,,,,,,,,,,3.0,10.0,46.0,7.0,240.54516355800297,,,,,,,,,,,,,,,,,240.53066854500503,240.62971727300464,241.43136265500647,241.41565236500173,,,,,,,,,,,,,,,,,,,,,,,,,,,,,,,,,,,241.41617958300048,241.43136265500647,241.43136265500647,242.2682450660068,b,0.0,0.8262343499955023,,,,,sub-119,1,stroop_test,59.31110014707904,
,,,,47.0,11.0,3.0,,,,,,,,,,,,,blau,blue,b,1.0,b,1.0,0.5531434180011274,,,,,,,,,,3.0,11.0,47.0,6.0,242.28383547300476,,,,,,,,,,,,,,,,,242.2685586430016,243.4709745450018,244.27327117200184,244.2572352999996,,,,,,,,,,,,,,,,,,,,,,,,,,,,,,,,,,,244.2579389520033,244.27327117200184,244.27327117200184,244.8431688270066,b,1.0,0.5531434180011274,,,,,sub-119,1,stroop_test,59.31110014707904,
,,,,48.0,0.0,4.0,,,,,,,,,,,,,gelb,red,r,0.0,r,1.0,0.7354371270048432,,,,,,,,,,4.0,0.0,48.0,8.0,244.8572309980009,,,,,,,,,,,,,,,,,244.84353117300637,245.6432919150029,246.4459159550024,246.42966769500345,,,,,,,,,,,,,,,,,,,,,,,,,,,,,,,,,,,246.4340204120017,246.4459159550024,246.4459159550024,247.19845317,r,1.0,0.7354371270048432,,,,,sub-119,1,stroop_test,59.31110014707904,
,,,,49.0,1.0,4.0,,,,,,,,,,,,,blau,red,r,0.0,r,1.0,0.8231820329965558,,,,,,,,,,4.0,1.0,49.0,4.0,247.21384212400156,,,,,,,,,,,,,,,,,247.1988122850016,248.4010650900018,249.202372122003,249.18602625000491,,,,,,,,,,,,,,,,,,,,,,,,,,,,,,,,,,,249.1887239179996,249.202372122003,249.202372122003,250.03891846000624,r,1.0,0.8231820329965558,,,,,sub-119,1,stroop_test,59.31110014707904,
,,,,50.0,2.0,4.0,,,,,,,,,,,,,gelb,yellow,g,1.0,g,1.0,0.5654099560051691,,,,,,,,,,4.0,2.0,50.0,11.0,250.0546980450017,,,,,,,,,,,,,,,,,250.0392928270012,250.13847463700225,250.94045305100008,250.9248257120053,,,,,,,,,,,,,,,,,,,,,,,,,,,,,,,,,,,250.92995379500644,250.94045305100008,250.94045305100008,251.5127838020053,g,1.0,0.5654099560051691,,,,,sub-119,1,stroop_test,59.31110014707904,
,,,,51.0,3.0,4.0,,,,,,,,,,,,,blau,blue,b,1.0,b,1.0,0.5037487190056709,,,,,,,,,,4.0,3.0,51.0,5.0,251.5244403370016,,,,,,,,,,,,,,,,,251.51322351999988,252.72841078200145,253.5306796510049,253.5142294950056,,,,,,,,,,,,,,,,,,,,,,,,,,,,,,,,,,,253.51667935000296,253.5306796510049,253.5306796510049,254.05062216500664,b,1.0,0.5037487190056709,,,,,sub-119,1,stroop_test,59.31110014707904,
,,,,52.0,4.0,4.0,,,,,,,,,,,,,blau,blue,b,1.0,b,1.0,0.7081219829997281,,,,,,,,,,4.0,4.0,52.0,6.0,254.06514615800552,,,,,,,,,,,,,,,,,254.05098333700155,255.252239595,256.0534376580036,256.0377776240057,,,,,,,,,,,,,,,,,,,,,,,,,,,,,,,,,,,256.0382784829999,256.0534376580036,256.0534376580036,256.774003467006,b,1.0,0.7081219829997281,,,,,sub-119,1,stroop_test,59.31110014707904,
,,,,53.0,5.0,4.0,,,,,,,,,,,,,gelb,blue,b,0.0,b,1.0,1.077088152000215,,,,,,,,,,4.0,5.0,53.0,9.0,256.78890098500415,,,,,,,,,,,,,,,,,256.7743295120017,257.9765516050029,258.77760296100314,258.76169665300404,,,,,,,,,,,,,,,,,,,,,,,,,,,,,,,,,,,258.76420388800034,258.77760296100314,258.77760296100314,259.8671247120001,b,1.0,1.077088152000215,,,,,sub-119,1,stroop_test,59.31110014707904,
,,,,54.0,6.0,4.0,,,,,,,,,,,,,gelb,yellow,g,1.0,g,1.0,0.5201420470039011,,,,,,,,,,4.0,6.0,54.0,10.0,259.8812570870068,,,,,,,,,,,,,,,,,259.8676593470009,260.66689483200025,261.4693361669997,261.45354522700654,,,,,,,,,,,,,,,,,,,,,,,,,,,,,,,,,,,261.4542655300029,261.4693361669997,261.4693361669997,262.0043926110011,g,1.0,0.5201420470039011,,,,,sub-119,1,stroop_test,59.31110014707904,
,,,,55.0,7.0,4.0,,,,,,,,,,,,,rot,yellow,g,0.0,g,1.0,0.5070829179967404,,,,,,,,,,4.0,7.0,55.0,3.0,262.0197575160055,,,,,,,,,,,,,,,,,262.00475880500017,262.3546975920035,263.1557155750052,263.14091633700446,,,,,,,,,,,,,,,,,,,,,,,,,,,,,,,,,,,263.1449522450057,263.1557155750052,263.1557155750052,263.6759369870051,g,1.0,0.5070829179967404,,,,,sub-119,1,stroop_test,59.31110014707904,
,,,,56.0,8.0,4.0,,,,,,,,,,,,,blau,yellow,g,0.0,g,1.0,0.5298550719962805,,,,,,,,,,4.0,8.0,56.0,7.0,263.69085305200133,,,,,,,,,,,,,,,,,263.6763126030055,264.0255179720043,264.8274795960024,264.81260761500016,,,,,,,,,,,,,,,,,,,,,,,,,,,,,,,,,,,264.8170035850053,264.8274795960024,264.8274795960024,265.36551823500486,g,1.0,0.5298550719962805,,,,,sub-119,1,stroop_test,59.31110014707904,
,,,,57.0,9.0,4.0,,,,,,,,,,,,,rot,red,r,1.0,r,1.0,0.4570952569993096,,,,,,,,,,4.0,9.0,57.0,0.0,265.37923347700416,,,,,,,,,,,,,,,,,265.3658799800032,266.565982457003,267.3673707430062,267.3521963670064,,,,,,,,,,,,,,,,,,,,,,,,,,,,,,,,,,,267.35631853000086,267.3673707430062,267.3673707430062,267.8367141500057,r,1.0,0.4570952569993096,,,,,sub-119,1,stroop_test,59.31110014707904,
,,,,58.0,10.0,4.0,,,,,,,,,,,,,rot,red,r,1.0,r,1.0,0.3522189700015588,,,,,,,,,,4.0,10.0,58.0,1.0,267.851799545002,,,,,,,,,,,,,,,,,267.83701524200296,268.186559668,268.98828699500154,268.9722634570062,,,,,,,,,,,,,,,,,,,,,,,,,,,,,,,,,,,268.9727675950053,268.98828699500154,268.98828699500154,269.3583445450058,r,1.0,0.3522189700015588,,,,,sub-119,1,stroop_test,59.31110014707904,
,,,,59.0,11.0,4.0,,,,,,,,,,,,,rot,blue,b,0.0,b,1.0,0.9595903549998184,,,,,,,,,,4.0,11.0,59.0,2.0,269.37314919700293,,,,,,,,,,,,,,,,,269.35869834700134,270.5598025920044,271.3623370570058,271.34613205200003,,,,,,,,,,,,,,,,,,,,,,,,,,,,,,,,,,,271.3468346620066,271.3623370570058,271.3623370570058,272.3331451949998,b,1.0,0.9595903549998184,,,,,sub-119,1,stroop_test,59.31110014707904,
,,,,60.0,0.0,5.0,,,,,,,,,,,,,blau,red,r,0.0,r,1.0,0.7963485150030465,,,,,,,,,,5.0,0.0,60.0,4.0,272.34726711400435,,,,,,,,,,,,,,,,,272.3335846120026,273.1334497150019,273.9346963200005,273.91911071100185,,,,,,,,,,,,,,,,,,,,,,,,,,,,,,,,,,,273.9230346250042,273.9346963200005,273.9346963200005,274.7407701270058,r,1.0,0.7963485150030465,,,,,sub-119,1,stroop_test,59.31110014707904,
,,,,61.0,1.0,5.0,,,,,,,,,,,,,gelb,blue,b,0.0,b,1.0,0.8217579159972956,,,,,,,,,,5.0,1.0,61.0,9.0,274.7537093630017,,,,,,,,,,,,,,,,,274.74116194300586,275.5563009920006,276.357459925006,276.3430547349999,,,,,,,,,,,,,,,,,,,,,,,,,,,,,,,,,,,276.34730865000165,276.357459925006,276.357459925006,277.19534386300074,b,1.0,0.8217579159972956,,,,,sub-119,1,stroop_test,59.31110014707904,
,,,,62.0,2.0,5.0,,,,,,,,,,,,,rot,yellow,g,0.0,r,0.0,0.4395185869943816,,,,,,,,,,5.0,2.0,62.0,3.0,277.2102335910022,,,,,,,,,,,,,,,,,277.1957108800052,277.56116233500506,278.36328676200355,278.3476972980061,,,,,,,,,,,,,,,,,,,,,,,,,,,,,,,,,,,278.3503904080062,278.36328676200355,278.36328676200355,278.8167182670004,r,0.0,0.4395185869943816,,,,,sub-119,1,stroop_test,59.31110014707904,
,,,,63.0,3.0,5.0,,,,,,,,,,,,,rot,red,r,1.0,r,1.0,0.5385121529980097,,,,,,,,,,5.0,3.0,63.0,0.0,278.83163792000414,,,,,,,,,,,,,,,,,278.81707889100653,280.0190205170002,280.8204138970032,280.80371550300333,,,,,,,,,,,,,,,,,,,,,,,,,,,,,,,,,,,280.80422243100475,280.8204138970032,280.8204138970032,281.37336240700097,r,1.0,0.5385121529980097,,,,,sub-119,1,stroop_test,59.31110014707904,
,,,,64.0,4.0,5.0,,,,,,,,,,,,,gelb,yellow,g,1.0,g,1.0,0.4316722719959216,,,,,,,,,,5.0,4.0,64.0,11.0,281.3880458000058,,,,,,,,,,,,,,,,,281.37372224100545,281.48863478600106,282.2904376180013,282.2749821950056,,,,,,,,,,,,,,,,,,,,,,,,,,,,,,,,,,,282.2781870810068,282.2904376180013,282.2904376180013,282.72690622600203,g,1.0,0.4316722719959216,,,,,sub-119,1,stroop_test,59.31110014707904,
,,,,65.0,5.0,5.0,,,,,,,,,,,,,rot,blue,b,0.0,b,1.0,0.7357386930016219,,,,,,,,,,5.0,5.0,65.0,2.0,282.7419966870002,,,,,,,,,,,,,,,,,282.72719310300454,283.5283050050057,284.3301701070013,284.3143943670002,,,,,,,,,,,,,,,,,,,,,,,,,,,,,,,,,,,284.3186236000038,284.3301701070013,284.3301701070013,285.0826502400014,b,1.0,0.7357386930016219,,,,,sub-119,1,stroop_test,59.31110014707904,
,,,,66.0,6.0,5.0,,,,,,,,,,,,,gelb,yellow,g,1.0,g,1.0,0.4521698290045606,,,,,,,,,,5.0,6.0,66.0,10.0,285.09784659000434,,,,,,,,,,,,,,,,,285.0829559949998,285.1823393750019,285.9844087849997,285.9686489970045,,,,,,,,,,,,,,,,,,,,,,,,,,,,,,,,,,,285.97303556700354,285.9844087849997,285.9844087849997,286.4541888410022,g,1.0,0.4521698290045606,,,,,sub-119,1,stroop_test,59.31110014707904,
,,,,67.0,7.0,5.0,,,,,,,,,,,,,blau,blue,b,1.0,b,1.0,0.7506565500007127,,,,,,,,,,5.0,7.0,67.0,5.0,286.4683235600023,,,,,,,,,,,,,,,,,286.4545505730057,286.568489270001,287.37024601000303,287.355846202001,,,,,,,,,,,,,,,,,,,,,,,,,,,,,,,,,,,287.3601963800029,287.37024601000303,287.37024601000303,288.1272770570067,b,1.0,0.7506565500007127,,,,,sub-119,1,stroop_test,59.31110014707904,
,,,,68.0,8.0,5.0,,,,,,,,,,,,,rot,red,r,1.0,r,1.0,0.5541820479993476,,,,,,,,,,5.0,8.0,68.0,1.0,288.1398610270044,,,,,,,,,,,,,,,,,288.1278124119999,288.24075567200634,289.04156384500675,289.0269044700035,,,,,,,,,,,,,,,,,,,,,,,,,,,,,,,,,,,289.0316643650003,289.04156384500675,289.04156384500675,289.6123150900021,r,1.0,0.5541820479993476,,,,,sub-119,1,stroop_test,59.31110014707904,
,,,,69.0,9.0,5.0,,,,,,,,,,,,,blau,blue,b,1.0,b,1.0,0.7262271289946511,,,,,,,,,,5.0,9.0,69.0,6.0,289.6266615820059,,,,,,,,,,,,,,,,,289.6126825270039,290.81450526200206,291.6152229569998,291.5996525310038,,,,,,,,,,,,,,,,,,,,,,,,,,,,,,,,,,,291.6022439610024,291.6152229569998,291.6152229569998,292.35189535200334,b,1.0,0.7262271289946511,,,,,sub-119,1,stroop_test,59.31110014707904,
,,,,70.0,10.0,5.0,,,,,,,,,,,,,blau,yellow,g,0.0,g,1.0,0.5547609119967092,,,,,,,,,,5.0,10.0,70.0,7.0,292.36729096700583,,,,,,,,,,,,,,,,,292.3522010960005,292.4674809650023,293.2698288870015,293.2538384280051,,,,,,,,,,,,,,,,,,,,,,,,,,,,,,,,,,,293.2543504610003,293.2698288870015,293.2698288870015,293.8407323870051,g,1.0,0.5547609119967092,,,,,sub-119,1,stroop_test,59.31110014707904,
,,,,71.0,11.0,5.0,,,,,,,,,,,,,gelb,red,r,0.0,r,1.0,0.5254857779946178,,,,,,,,,,5.0,11.0,71.0,8.0,293.8547162400064,,,,,,,,,,,,,,,,,293.8411643550062,295.0413120950034,295.8438732170034,295.82841116200143,,,,,,,,,,,,,,,,,,,,,,,,,,,,,,,,,,,295.83277363000525,295.8438732170034,295.8438732170034,296.3797614750001,r,1.0,0.5254857779946178,,,,,sub-119,1,stroop_test,59.31110014707904,
,,,,72.0,0.0,6.0,,,,,,,,,,,,,gelb,red,r,0.0,r,1.0,0.7414799100006348,,,,,,,,,,6.0,0.0,72.0,8.0,296.3950567580032,,,,,,,,,,,,,,,,,296.38012684500427,297.18102522499976,297.98318014500546,297.96732820000034,,,,,,,,,,,,,,,,,,,,,,,,,,,,,,,,,,,297.96805217700603,297.98318014500546,297.98318014500546,298.73636661300407,r,1.0,0.7414799100006348,,,,,sub-119,1,stroop_test,59.31110014707904,
,,,,73.0,1.0,6.0,,,,,,,,,,,,,gelb,blue,b,0.0,b,1.0,0.5101319840032374,,,,,,,,,,6.0,1.0,73.0,9.0,298.7515476660046,,,,,,,,,,,,,,,,,298.73672704300407,299.5364825200013,300.3392290750053,300.323399550005,,,,,,,,,,,,,,,,,,,,,,,,,,,,,,,,,,,300.3239670200055,300.3392290750053,300.3392290750053,300.85795229700307,b,1.0,0.5101319840032374,,,,,sub-119,1,stroop_test,59.31110014707904,
,,,,74.0,2.0,6.0,,,,,,,,,,,,,blau,yellow,g,0.0,g,1.0,0.8542490169929806,,,,,,,,,,6.0,2.0,74.0,7.0,300.87366814300185,,,,,,,,,,,,,,,,,300.8582680870022,300.9733078250065,301.77623981100623,301.7609686620053,,,,,,,,,,,,,,,,,,,,,,,,,,,,,,,,,,,301.76535734200297,301.77623981100623,301.77623981100623,302.64648628700525,g,1.0,0.8542490169929806,,,,,sub-119,1,stroop_test,59.31110014707904,
,,,,75.0,3.0,6.0,,,,,,,,,,,,,rot,yellow,g,0.0,g,1.0,0.497891922997951,,,,,,,,,,6.0,3.0,75.0,3.0,302.6614647150054,,,,,,,,,,,,,,,,,302.6469285300045,302.99587381800666,303.7981043550026,303.7818865310037,,,,,,,,,,,,,,,,,,,,,,,,,,,,,,,,,,,303.7845661380052,303.7981043550026,303.7981043550026,304.30091806200653,g,1.0,0.497891922997951,,,,,sub-119,1,stroop_test,59.31110014707904,
,,,,76.0,4.0,6.0,,,,,,,,,,,,,gelb,yellow,g,1.0,g,1.0,0.5224655019992497,,,,,,,,,,6.0,4.0,76.0,11.0,304.31608339800005,,,,,,,,,,,,,,,,,304.3012174530013,305.5036715400056,306.3043358900032,306.2897426100026,,,,,,,,,,,,,,,,,,,,,,,,,,,,,,,,,,,306.29382750000514,306.3043358900032,306.3043358900032,306.8417255270033,g,1.0,0.5224655019992497,,,,,sub-119,1,stroop_test,59.31110014707904,
,,,,77.0,5.0,6.0,,,,,,,,,,,,,rot,blue,b,0.0,b,1.0,1.057922742998926,,,,,,,,,,6.0,5.0,77.0,2.0,306.8562513680008,,,,,,,,,,,,,,,,,306.8420881750062,308.0435083600023,308.86050480700214,308.8301764620046,,,,,,,,,,,,,,,,,,,,,,,,,,,,,,,,,,,308.83539618000214,308.86050480700214,308.86050480700214,309.93306703500275,b,1.0,1.057922742998926,,,,,sub-119,1,stroop_test,59.31110014707904,
,,,,78.0,6.0,6.0,,,,,,,,,,,,,blau,blue,b,1.0,b,1.0,0.7696800350022386,,,,,,,,,,6.0,6.0,78.0,6.0,309.94816329600144,,,,,,,,,,,,,,,,,309.93341308600066,310.2818619410027,311.08477735199995,311.0690766950065,,,,,,,,,,,,,,,,,,,,,,,,,,,,,,,,,,,311.07338852500106,311.08477735199995,311.08477735199995,311.85796532700624,b,1.0,0.7696800350022386,,,,,sub-119,1,stroop_test,59.31110014707904,
,,,,79.0,7.0,6.0,,,,,,,,,,,,,blau,blue,b,1.0,b,1.0,0.4871947669962537,,,,,,,,,,6.0,7.0,79.0,5.0,311.8691144470067,,,,,,,,,,,,,,,,,311.85840143700625,311.9702546260014,312.772989295001,312.7571105800016,,,,,,,,,,,,,,,,,,,,,,,,,,,,,,,,,,,312.7578164470033,312.772989295001,312.772989295001,313.27561362100096,b,1.0,0.4871947669962537,,,,,sub-119,1,stroop_test,59.31110014707904,
,,,,80.0,8.0,6.0,,,,,,,,,,,,,blau,red,r,0.0,r,1.0,0.7493783099998836,,,,,,,,,,6.0,8.0,80.0,4.0,313.2899765600014,,,,,,,,,,,,,,,,,313.2759593680021,314.4763628569999,315.27859212700423,315.2635284400021,,,,,,,,,,,,,,,,,,,,,,,,,,,,,,,,,,,315.2642482049996,315.27859212700423,315.27859212700423,316.03468205500394,r,1.0,0.7493783099998836,,,,,sub-119,1,stroop_test,59.31110014707904,
,,,,81.0,9.0,6.0,,,,,,,,,,,,,rot,red,r,1.0,r,1.0,0.3390398979972815,,,,,,,,,,6.0,9.0,81.0,1.0,316.04753761800384,,,,,,,,,,,,,,,,,316.03511681200325,316.3993037070031,317.2003593870031,317.18476474400086,,,,,,,,,,,,,,,,,,,,,,,,,,,,,,,,,,,317.18749828800355,317.2003593870031,317.2003593870031,317.5531009270053,r,1.0,0.3390398979972815,,,,,sub-119,1,stroop_test,59.31110014707904,
,,,,82.0,10.0,6.0,,,,,,,,,,,,,gelb,yellow,g,1.0,g,1.0,0.494272389994876,,,,,,,,,,6.0,10.0,82.0,10.0,317.568358772005,,,,,,,,,,,,,,,,,317.5534013830038,318.75478325800213,319.55654114200297,319.5405786610063,,,,,,,,,,,,,,,,,,,,,,,,,,,,,,,,,,,319.5431195650017,319.55654114200297,319.55654114200297,320.059425958003,g,1.0,0.494272389994876,,,,,sub-119,1,stroop_test,59.31110014707904,
,,,,83.0,11.0,6.0,,,,,,,,,,,,,rot,red,r,1.0,r,1.0,0.5772145559967612,,,,,,,,,,6.0,11.0,83.0,0.0,320.07461740000144,,,,,,,,,,,,,,,,,320.0597104480039,321.2621206500044,322.06361201000254,322.0477973610032,,,,,,,,,,,,,,,,,,,,,,,,,,,,,,,,,,,322.0505054830064,322.06361201000254,322.06361201000254,322.64997449500515,r,1.0,0.5772145559967612,,,,,sub-119,1,stroop_test,59.31110014707904,
,,,,84.0,0.0,7.0,,,,,,,,,,,,,blau,blue,b,1.0,b,1.0,0.5431126749972464,,,,,,,,,,7.0,0.0,84.0,6.0,322.66504199300107,,,,,,,,,,,,,,,,,322.65030341600504,322.76544392800133,323.5674022230014,323.55229123000026,,,,,,,,,,,,,,,,,,,,,,,,,,,,,,,,,,,323.556640710005,323.5674022230014,323.5674022230014,324.1211125750051,b,1.0,0.5431126749972464,,,,,sub-119,1,stroop_test,59.31110014707904,
,,,,85.0,1.0,7.0,,,,,,,,,,,,,blau,blue,b,1.0,b,1.0,0.4853845050020027,,,,,,,,,,7.0,1.0,85.0,5.0,324.1356322630017,,,,,,,,,,,,,,,,,324.12152111300384,324.2365542000043,325.0385289600017,325.02271369000664,,,,,,,,,,,,,,,,,,,,,,,,,,,,,,,,,,,325.023485663005,325.0385289600017,325.0385289600017,325.54117585000495,b,1.0,0.4853845050020027,,,,,sub-119,1,stroop_test,59.31110014707904,
,,,,86.0,2.0,7.0,,,,,,,,,,,,,rot,red,r,1.0,r,1.0,0.544584544004465,,,,,,,,,,7.0,2.0,86.0,0.0,325.55650960800267,,,,,,,,,,,,,,,,,325.54153403700184,325.8914709600067,326.6925294510001,326.67621191600483,,,,,,,,,,,,,,,,,,,,,,,,,,,,,,,,,,,326.67936106700654,326.6925294510001,326.6925294510001,327.2483275850027,r,1.0,0.544584544004465,,,,,sub-119,1,stroop_test,59.31110014707904,
,,,,87.0,3.0,7.0,,,,,,,,,,,,,rot,red,r,1.0,r,1.0,0.3939560649960185,,,,,,,,,,7.0,3.0,87.0,1.0,327.2610494170003,,,,,,,,,,,,,,,,,327.2488607570049,328.4479563300047,329.25032764200296,329.2341607720009,,,,,,,,,,,,,,,,,,,,,,,,,,,,,,,,,,,329.2349129020004,329.25032764200296,329.25032764200296,329.6533612670028,r,1.0,0.3939560649960185,,,,,sub-119,1,stroop_test,59.31110014707904,
,,,,88.0,4.0,7.0,,,,,,,,,,,,,rot,blue,b,0.0,b,1.0,1.1411530370023684,,,,,,,,,,7.0,4.0,88.0,2.0,329.6671323250048,,,,,,,,,,,,,,,,,329.6537218530066,330.01812308500666,330.82097470500594,330.8050047400029,,,,,,,,,,,,,,,,,,,,,,,,,,,,,,,,,,,330.8057306070041,330.82097470500594,330.82097470500594,331.97495729000366,b,1.0,1.1411530370023684,,,,,sub-119,1,stroop_test,59.31110014707904,
,,,,89.0,5.0,7.0,,,,,,,,,,,,,gelb,blue,b,0.0,b,1.0,0.7529952440017951,,,,,,,,,,7.0,5.0,89.0,9.0,331.98984822300554,,,,,,,,,,,,,,,,,331.97545198100124,333.17698352200387,333.9793688280042,333.96356424700207,,,,,,,,,,,,,,,,,,,,,,,,,,,,,,,,,,,333.96792161500343,333.9793688280042,333.9793688280042,334.7354710170039,b,1.0,0.7529952440017951,,,,,sub-119,1,stroop_test,59.31110014707904,
,,,,90.0,6.0,7.0,,,,,,,,,,,,,gelb,yellow,g,1.0,g,1.0,0.4911579800027539,,,,,,,,,,7.0,6.0,90.0,10.0,334.74761058800505,,,,,,,,,,,,,,,,,334.7358340130013,335.95075861100486,336.75374453200493,336.7374111320023,,,,,,,,,,,,,,,,,,,,,,,,,,,,,,,,,,,336.7381449520035,336.75374453200493,336.75374453200493,337.2569684629998,g,1.0,0.4911579800027539,,,,,sub-119,1,stroop_test,59.31110014707904,
,,,,91.0,7.0,7.0,,,,,,,,,,,,,rot,yellow,g,0.0,g,1.0,0.4604540869986522,,,,,,,,,,7.0,7.0,91.0,3.0,337.27049852400523,,,,,,,,,,,,,,,,,337.2573541330057,337.6217149420045,338.4246089770022,338.4085996550057,,,,,,,,,,,,,,,,,,,,,,,,,,,,,,,,,,,338.4128505300032,338.4246089770022,338.4246089770022,338.89301358100056,g,1.0,0.4604540869986522,,,,,sub-119,1,stroop_test,59.31110014707904,
,,,,92.0,8.0,7.0,,,,,,,,,,,,,gelb,yellow,g,1.0,g,1.0,0.391338518995326,,,,,,,,,,7.0,8.0,92.0,11.0,338.90854106300685,,,,,,,,,,,,,,,,,338.89330989200243,340.0955742120059,340.8965985350005,340.8819132800054,,,,,,,,,,,,,,,,,,,,,,,,,,,,,,,,,,,340.88615046199993,340.8965985350005,340.8965985350005,341.3007739920067,g,1.0,0.391338518995326,,,,,sub-119,1,stroop_test,59.31110014707904,
,,,,93.0,9.0,7.0,,,,,,,,,,,,,gelb,red,r,0.0,r,1.0,0.5912024499994004,,,,,,,,,,7.0,9.0,93.0,8.0,341.3151244420005,,,,,,,,,,,,,,,,,341.30120320000424,341.4152110260038,342.21762679300446,342.2012121850057,,,,,,,,,,,,,,,,,,,,,,,,,,,,,,,,,,,342.2017143770063,342.21762679300446,342.21762679300446,342.8205003700059,r,1.0,0.5912024499994004,,,,,sub-119,1,stroop_test,59.31110014707904,
,,,,94.0,10.0,7.0,,,,,,,,,,,,,blau,yellow,g,0.0,b,0.0,0.5242882809980074,,,,,,,,,,7.0,10.0,94.0,7.0,342.83546355300496,,,,,,,,,,,,,,,,,342.8207992000025,342.9194224849998,343.72123180500057,343.7061823500044,,,,,,,,,,,,,,,,,,,,,,,,,,,,,,,,,,,343.7103601770068,343.72123180500057,343.72123180500057,344.2577431270038,b,0.0,0.5242882809980074,,,,,sub-119,1,stroop_test,59.31110014707904,
,,,,95.0,11.0,7.0,,,,,,,,,,,,,blau,red,r,0.0,r,1.0,0.7111819600031595,,,,,,,,,,7.0,11.0,95.0,4.0,344.27267114999995,,,,,,,,,,,,,,,,,344.25810046700644,345.4602145800018,346.2621602220024,346.2467403250048,,,,,,,,,,,,,,,,,,,,,,,,,,,,,,,,,,,346.2474535220026,346.2621602220024,346.2621602220024,346.9840763500033,r,1.0,0.7111819600031595,,,,,sub-119,1,stroop_test,59.31110014707904,
,,,,96.0,0.0,8.0,,,,,,,,,,,,,rot,red,r,1.0,r,1.0,0.520992211997509,,,,,,,,,,8.0,0.0,96.0,1.0,346.9967428850068,,,,,,,,,,,,,,,,,346.9844665270066,347.3483849100012,348.1500240430032,348.1343296450068,,,,,,,,,,,,,,,,,,,,,,,,,,,,,,,,,,,348.1379072500058,348.1500240430032,348.1500240430032,348.68704057000286,r,1.0,0.520992211997509,,,,,sub-119,1,stroop_test,59.31110014707904,
,,,,97.0,1.0,8.0,,,,,,,,,,,,,gelb,yellow,g,1.0,g,1.0,0.9851600019974284,,,,,,,,,,8.0,1.0,97.0,10.0,348.7012534750029,,,,,,,,,,,,,,,,,348.6874076470049,348.80172604700056,349.6040613200021,349.5885374000063,,,,,,,,,,,,,,,,,,,,,,,,,,,,,,,,,,,349.5929215350043,349.6040613200021,349.6040613200021,350.5939552820055,g,1.0,0.9851600019974284,,,,,sub-119,1,stroop_test,59.31110014707904,
,,,,98.0,2.0,8.0,,,,,,,,,,,,,rot,yellow,g,0.0,g,1.0,0.4528187260002596,,,,,,,,,,8.0,2.0,98.0,3.0,350.60648257600405,,,,,,,,,,,,,,,,,350.5945071599999,350.70653400500305,351.50852238700463,351.4930664500061,,,,,,,,,,,,,,,,,,,,,,,,,,,,,,,,,,,351.4956185730043,351.50852238700463,351.50852238700463,351.97876905200246,g,1.0,0.4528187260002596,,,,,sub-119,1,stroop_test,59.31110014707904,
,,,,99.0,3.0,8.0,,,,,,,,,,,,,blau,red,r,0.0,r,1.0,0.941975828995055,,,,,,,,,,8.0,3.0,99.0,4.0,351.99328891700134,,,,,,,,,,,,,,,,,351.97908343300514,353.1809767970044,353.98215646600147,353.9669289500016,,,,,,,,,,,,,,,,,,,,,,,,,,,,,,,,,,,353.9711094900049,353.98215646600147,353.98215646600147,354.93650442299986,r,1.0,0.941975828995055,,,,,sub-119,1,stroop_test,59.31110014707904,
,,,,100.0,4.0,8.0,,,,,,,,,,,,,blau,yellow,g,0.0,g,1.0,0.894972828005848,,,,,,,,,,8.0,4.0,100.0,7.0,354.9514168950045,,,,,,,,,,,,,,,,,354.9368787570056,355.2863591100031,356.0885395400037,356.0730702370056,,,,,,,,,,,,,,,,,,,,,,,,,,,,,,,,,,,356.0738207950053,356.0885395400037,356.0885395400037,356.9934892670062,g,1.0,0.894972828005848,,,,,sub-119,1,stroop_test,59.31110014707904,
,,,,101.0,5.0,8.0,,,,,,,,,,,,,rot,blue,b,0.0,b,1.0,0.9310773350007366,,,,,,,,,,8.0,5.0,101.0,2.0,357.00647504300287,,,,,,,,,,,,,,,,,356.9939199520013,357.79306375000306,358.5945548700038,358.57823309200467,,,,,,,,,,,,,,,,,,,,,,,,,,,,,,,,,,,358.5808716870015,358.5945548700038,358.5945548700038,359.53387549200124,b,1.0,0.9310773350007366,,,,,sub-119,1,stroop_test,59.31110014707904,
,,,,102.0,6.0,8.0,,,,,,,,,,,,,gelb,red,r,0.0,r,1.0,0.7595988800021587,,,,,,,,,,8.0,6.0,102.0,8.0,359.5464960770041,,,,,,,,,,,,,,,,,359.53431375700166,360.3335755620064,361.134052155001,361.1185749450015,,,,,,,,,,,,,,,,,,,,,,,,,,,,,,,,,,,361.1216292810059,361.134052155001,361.134052155001,361.9056862270008,r,1.0,0.7595988800021587,,,,,sub-119,1,stroop_test,59.31110014707904,
,,,,103.0,7.0,8.0,,,,,,,,,,,,,blau,blue,b,1.0,b,1.0,0.449345336004626,,,,,,,,,,8.0,7.0,103.0,6.0,361.9196550070046,,,,,,,,,,,,,,,,,361.90612093200616,363.10706439500063,363.9085864210065,363.893724460002,,,,,,,,,,,,,,,,,,,,,,,,,,,,,,,,,,,363.8980665600029,363.9085864210065,363.9085864210065,364.3620155610042,b,1.0,0.449345336004626,,,,,sub-119,1,stroop_test,59.31110014707904,
,,,,104.0,8.0,8.0,,,,,,,,,,,,,gelb,yellow,g,1.0,g,1.0,0.3628591950036934,,,,,,,,,,8.0,8.0,104.0,11.0,364.3763458630056,,,,,,,,,,,,,,,,,364.3623307310045,364.4765124500045,365.2790212260006,365.2631211050029,,,,,,,,,,,,,,,,,,,,,,,,,,,,,,,,,,,365.2662900600044,365.2790212260006,365.2790212260006,365.64990652000415,g,1.0,0.3628591950036934,,,,,sub-119,1,stroop_test,59.31110014707904,
,,,,105.0,9.0,8.0,,,,,,,,,,,,,rot,red,r,1.0,r,1.0,0.5687943000011728,,,,,,,,,,8.0,9.0,105.0,0.0,365.663006873001,,,,,,,,,,,,,,,,,365.6503434370025,365.7636897129996,366.56579621100536,366.5493971210017,,,,,,,,,,,,,,,,,,,,,,,,,,,,,,,,,,,366.5522019580021,366.56579621100536,366.56579621100536,367.1514997630002,r,1.0,0.5687943000011728,,,,,sub-119,1,stroop_test,59.31110014707904,
,,,,106.0,10.0,8.0,,,,,,,,,,,,,gelb,blue,b,0.0,b,1.0,0.822134255002311,,,,,,,,,,8.0,10.0,106.0,9.0,367.1669861050032,,,,,,,,,,,,,,,,,367.1518773460048,368.3541111170052,369.1556561350008,369.1395845360021,,,,,,,,,,,,,,,,,,,,,,,,,,,,,,,,,,,369.14224268000544,369.1556561350008,369.1556561350008,369.9934458670032,b,1.0,0.822134255002311,,,,,sub-119,1,stroop_test,59.31110014707904,
,,,,107.0,11.0,8.0,,,,,,,,,,,,,blau,blue,b,1.0,b,1.0,0.4898624510024092,,,,,,,,,,8.0,11.0,107.0,5.0,370.0082537640046,,,,,,,,,,,,,,,,,369.9938177430013,370.10898476500006,370.910647222001,370.8955840970011,,,,,,,,,,,,,,,,,,,,,,,,,,,,,,,,,,,370.8996856120066,370.910647222001,370.910647222001,371.4137503070015,b,1.0,0.4898624510024092,,,,,sub-119,1,stroop_test,59.31110014707904,
,,,,108.0,0.0,9.0,,,,,,,,,,,,,blau,blue,b,1.0,b,1.0,0.5343881739972858,,,,,,,,,,9.0,0.0,108.0,6.0,371.4317992450015,,,,,,,,,,,,,,,,,371.414109465004,371.7797701720047,372.5825170500029,372.5668739169996,,,,,,,,,,,,,,,,,,,,,,,,,,,,,,,,,,,372.567587962003,372.5825170500029,372.5825170500029,373.11913622700376,b,1.0,0.5343881739972858,,,,,sub-119,1,stroop_test,59.31110014707904,
,,,,109.0,1.0,9.0,,,,,,,,,,,,,gelb,blue,b,0.0,b,1.0,0.604840776999481,,,,,,,,,,9.0,1.0,109.0,9.0,373.1332306570039,,,,,,,,,,,,,,,,,373.1194289880005,374.3205208,375.12297274000593,375.106791957005,,,,,,,,,,,,,,,,,,,,,,,,,,,,,,,,,,,375.1110982620012,375.12297274000593,375.12297274000593,375.7424578110004,b,1.0,0.604840776999481,,,,,sub-119,1,stroop_test,59.31110014707904,
,,,,110.0,2.0,9.0,,,,,,,,,,,,,gelb,red,r,0.0,r,1.0,0.6783106600050814,,,,,,,,,,9.0,2.0,110.0,8.0,375.75677039200673,,,,,,,,,,,,,,,,,375.7427647810037,376.9442919650028,377.74609593700006,377.7304257470023,,,,,,,,,,,,,,,,,,,,,,,,,,,,,,,,,,,377.7312152670056,377.74609593700006,377.74609593700006,378.4337625600019,r,1.0,0.6783106600050814,,,,,sub-119,1,stroop_test,59.31110014707904,
,,,,111.0,3.0,9.0,,,,,,,,,,,,,rot,red,r,1.0,r,1.0,0.420281246995728,,,,,,,,,,9.0,3.0,111.0,1.0,378.4470751330009,,,,,,,,,,,,,,,,,378.43414167300216,378.54743966700335,379.349490217006,379.3338972830024,,,,,,,,,,,,,,,,,,,,,,,,,,,,,,,,,,,379.3366112220028,379.349490217006,379.349490217006,379.7865097650065,r,1.0,0.420281246995728,,,,,sub-119,1,stroop_test,59.31110014707904,
,,,,112.0,4.0,9.0,,,,,,,,,,,,,gelb,yellow,g,1.0,g,1.0,0.5347385100030806,,,,,,,,,,9.0,4.0,112.0,10.0,379.8010173720031,,,,,,,,,,,,,,,,,379.7868699500032,379.9012946150033,380.7031703430039,380.6879840020047,,,,,,,,,,,,,,,,,,,,,,,,,,,,,,,,,,,380.6915797020047,380.7031703430039,380.7031703430039,381.2407578310013,g,1.0,0.5347385100030806,,,,,sub-119,1,stroop_test,59.31110014707904,
,,,,113.0,5.0,9.0,,,,,,,,,,,,,blau,blue,b,1.0,b,1.0,0.4833027760032564,,,,,,,,,,9.0,5.0,113.0,5.0,381.2548397749997,,,,,,,,,,,,,,,,,381.24104532600177,382.4419155450014,383.2436308770048,383.2283502100036,,,,,,,,,,,,,,,,,,,,,,,,,,,,,,,,,,,383.2326444270002,383.2436308770048,383.2436308770048,383.7304540060068,b,1.0,0.4833027760032564,,,,,sub-119,1,stroop_test,59.31110014707904,
,,,,114.0,6.0,9.0,,,,,,,,,,,,,rot,blue,b,0.0,r,0.0,0.5160206310029025,,,,,,,,,,9.0,6.0,114.0,2.0,383.7446660470014,,,,,,,,,,,,,,,,,383.7307472060056,384.0956998550028,384.89771497400216,384.8821237700031,,,,,,,,,,,,,,,,,,,,,,,,,,,,,,,,,,,384.88474996300647,384.89771497400216,384.89771497400216,385.4198288820044,r,0.0,0.5160206310029025,,,,,sub-119,1,stroop_test,59.31110014707904,
,,,,115.0,7.0,9.0,,,,,,,,,,,,,blau,red,r,0.0,r,1.0,0.7380125449999468,,,,,,,,,,9.0,7.0,115.0,4.0,385.4322649410024,,,,,,,,,,,,,,,,,385.420270487004,385.5332669530035,386.3365990750026,386.3200826650064,,,,,,,,,,,,,,,,,,,,,,,,,,,,,,,,,,,386.3244455020031,386.3365990750026,386.3365990750026,387.0886137770067,r,1.0,0.7380125449999468,,,,,sub-119,1,stroop_test,59.31110014707904,
,,,,116.0,8.0,9.0,,,,,,,,,,,,,rot,yellow,g,0.0,g,1.0,0.6550140019971877,,,,,,,,,,9.0,8.0,116.0,3.0,387.1042586900003,,,,,,,,,,,,,,,,,387.0889366620031,388.2913948770001,389.092261922,389.0766939710011,,,,,,,,,,,,,,,,,,,,,,,,,,,,,,,,,,,389.0793816910009,389.092261922,389.092261922,389.76291336300346,g,1.0,0.6550140019971877,,,,,sub-119,1,stroop_test,59.31110014707904,
,,,,117.0,9.0,9.0,,,,,,,,,,,,,gelb,yellow,g,1.0,g,1.0,0.382480102001864,,,,,,,,,,9.0,9.0,117.0,11.0,389.7775962920059,,,,,,,,,,,,,,,,,389.763271061005,390.5637471070004,391.3660892300031,391.34997724700224,,,,,,,,,,,,,,,,,,,,,,,,,,,,,,,,,,,391.3543481050001,391.3660892300031,391.3660892300031,391.75381518500217,g,1.0,0.382480102001864,,,,,sub-119,1,stroop_test,59.31110014707904,
,,,,118.0,10.0,9.0,,,,,,,,,,,,,rot,red,r,1.0,r,1.0,0.7180982880017837,,,,,,,,,,9.0,10.0,118.0,0.0,391.7662673440064,,,,,,,,,,,,,,,,,391.75425713,392.9534328950031,393.7557586600015,393.7397839270052,,,,,,,,,,,,,,,,,,,,,,,,,,,,,,,,,,,393.7440569150058,393.7557586600015,393.7557586600015,394.4779852920037,r,1.0,0.7180982880017837,,,,,sub-119,1,stroop_test,59.31110014707904,
,,,,119.0,11.0,9.0,,,,,,,,,,,,,blau,yellow,g,0.0,g,1.0,0.988775509998959,,,,,,,,,,9.0,11.0,119.0,7.0,394.4899166880059,,,,,,,,,,,,,,,,,394.4784989950058,395.6775461050056,396.47970276800334,396.4638956750059,,,,,,,,,,,,,,,,,,,,,,,,,,,,,,,,,,,396.4691705170044,396.47970276800334,396.47970276800334,397.4833015630065,g,1.0,0.988775509998959,,,,,sub-119,1,stroop_test,59.31110014707904,
,,,,,,,,,,,,,,,,,,,,,,,,,,,,,,,,,,,,,,,,,,,,,,,,,,,,,,,,,,,,,,,,,,,,,,,,,,,,,,,,,,,,,,,,,,,,,,,,,,,,,,397.48346145300457,397.4985315500016,402.4958927469997,sub-119,1,stroop_test,59.31110014707904,
