wordCTK,colorCTK,corrAnsCTK,congruentCTK,thisN,thisTrialN,thisRepN,keyResp_CTK.keys,keyResp_CTK.corr,keyResp_CTK.rt,keyResp_CTK.duration,wordPractice,colorPractice,corrAnsPractice,congruentPractice,respPractice.keys,respPractice.corr,respPractice.rt,respPractice.duration,word,color,corrAns,congruent,keyResp_test_run.keys,keyResp_test_run.corr,keyResp_test_run.rt,keyResp_test_run.duration,trials_CTK.thisRepN,trials_CTK.thisTrialN,trials_CTK.thisN,trials_CTK.thisIndex,trials_practice.thisRepN,trials_practice.thisTrialN,trials_practice.thisN,trials_practice.thisIndex,trials_test.thisRepN,trials_test.thisTrialN,trials_test.thisN,trials_test.thisIndex,thisRow.t,notes,instruction.started,instr_text.started,instr_image.started,instr_resp.started,instruction.stopped,instr_resp.keys,instr_resp.rt,instr_resp.duration,instr_color_to_key.started,instr_ctk.started,resp_ctk.started,instr_color_to_key.stopped,resp_ctk.keys,resp_ctk.rt,resp_ctk.duration,ITI.started,fixcross.started,fixcross.stopped,ITI.stopped,color_to_key_run.started,stimulus_CTK.started,keyResp_CTK.started,color_to_key_run.stopped,trials_CTK.keyResp_CTK.keys,trials_CTK.keyResp_CTK.corr,trials_CTK.keyResp_CTK.rt,trials_CTK.keyResp_CTK.duration,instr_practice.started,instr_practice_text.started,instr_practice_resp.started,instr_practice.stopped,instr_practice_resp.keys,instr_practice_resp.rt,instr_practice_resp.duration,practice_run.started,stimulus_practice.started,respPractice.started,practice_run.stopped,trials_practice.respPractice.keys,trials_practice.respPractice.corr,trials_practice.respPractice.rt,trials_practice.respPractice.duration,feedback.started,textFeedback.started,feedback.stopped,textFeedback.stopped,instr_test.started,instr_test_text.started,instr_test_resp.started,instr_test.stopped,instr_test_resp.keys,instr_test_resp.rt,instr_test_resp.duration,test_run.started,stimulus_test_run.started,keyResp_test_run.started,test_run.stopped,trials_test.keyResp_test_run.keys,trials_test.keyResp_test_run.corr,trials_test.keyResp_test_run.rt,trials_test.keyResp_test_run.duration,goodbye.started,textGoodbye.started,goodbye.stopped,participant,session,expName,frameRate,Unnamed: 112
,,,,,,,,,,,,,,,,,,,,,,,,,,,,,,,,,,,,,,,,,0.0083314999938011,0.0514642000198364,0.0514642000198364,0.0514642000198364,37.854136100038886,space,37.76291900000069,,,,,,,,,,,,,,,,,,,,,,,,,,,,,,,,,,,,,,,,,,,,,,,,,,,,,,,,,,sub-213,1,stroop_test,60.18541925019859,
,,,,,,,,,,,,,,,,,,,,,,,,,,,,,,,,,,,,,,,,,,,,,,,,,37.85418500006199,37.859889100072905,37.859889100072905,43.0297908000648,space,5.153761500027031,,,,,,,,,,,,,,,,,,,,,,,,,,,,,,,,,,,,,,,,,,,,,,,,,,,sub-213,1,stroop_test,60.18541925019859,
test,yellow,g,1.0,0.0,0.0,0.0,g,1.0,1.4331122000003234,,,,,,,,,,,,,,,,,,0.0,0.0,0.0,1.0,,,,,,,,,43.04861090006307,,,,,,,,,,,,,,,,,43.04476140008774,44.24403520009946,45.04336880007759,45.027046200004406,45.03613360004965,45.04336880007759,45.04336880007759,46.47963570000138,g,1.0,1.4331122000003234,,,,,,,,,,,,,,,,,,,,,,,,,,,,,,,,,,,,,,,sub-213,1,stroop_test,60.18541925019859,
test,blue,b,1.0,1.0,1.0,0.0,b,1.0,0.7525953999720514,,,,,,,,,,,,,,,,,,0.0,1.0,1.0,2.0,,,,,,,,,46.492008100030944,,,,,,,,,,,,,,,,,46.48037980007939,47.2913225000957,48.09071550006047,48.07567180006299,48.07711640000343,48.09071550006047,48.09071550006047,48.85900520009454,b,1.0,0.7525953999720514,,,,,,,,,,,,,,,,,,,,,,,,,,,,,,,,,,,,,,,sub-213,1,stroop_test,60.18541925019859,
test,red,r,1.0,2.0,2.0,0.0,r,1.0,0.6725097000598907,,,,,,,,,,,,,,,,,,0.0,2.0,2.0,0.0,,,,,,,,,48.87298320000991,,,,,,,,,,,,,,,,,48.85960520000663,49.67208120005671,50.47150540002622,50.4560119000962,50.45675920008216,50.47150540002622,50.47150540002622,51.15719970001373,r,1.0,0.6725097000598907,,,,,,,,,,,,,,,,,,,,,,,,,,,,,,,,,,,,,,,sub-213,1,stroop_test,60.18541925019859,
test,yellow,g,1.0,3.0,0.0,1.0,g,1.0,2.314705799915828,,,,,,,,,,,,,,,,,,1.0,0.0,3.0,1.0,,,,,,,,,51.17069480009377,,,,,,,,,,,,,,,,,51.15803080005571,51.970265400013886,52.76958340010606,52.7532191000646,52.75355010002386,52.76958340010606,52.76958340010606,55.10147120000329,g,1.0,2.314705799915828,,,,,,,,,,,,,,,,,,,,,,,,,,,,,,,,,,,,,,,sub-213,1,stroop_test,60.18541925019859,
test,red,r,1.0,4.0,1.0,1.0,r,1.0,1.0364684000378477,,,,,,,,,,,,,,,,,,1.0,1.0,4.0,0.0,,,,,,,,,55.11742670007516,,,,,,,,,,,,,,,,,55.10170850006398,55.916698200046085,56.71574860007968,56.6998493000865,56.70028049999382,56.71574860007968,56.71574860007968,57.765749800018966,r,1.0,1.0364684000378477,,,,,,,,,,,,,,,,,,,,,,,,,,,,,,,,,,,,,,,sub-213,1,stroop_test,60.18541925019859,
test,blue,b,1.0,5.0,2.0,1.0,b,1.0,0.4388480000197887,,,,,,,,,,,,,,,,,,1.0,2.0,5.0,2.0,,,,,,,,,57.78127989999484,,,,,,,,,,,,,,,,,57.76601380005013,58.58035180007573,59.380176100065,59.36511530005373,59.36632030003239,59.380176100065,59.380176100065,59.83066249999683,b,1.0,0.4388480000197887,,,,,,,,,,,,,,,,,,,,,,,,,,,,,,,,,,,,,,,sub-213,1,stroop_test,60.18541925019859,
test,yellow,g,1.0,6.0,0.0,2.0,g,1.0,0.6304143000161275,,,,,,,,,,,,,,,,,,2.0,0.0,6.0,1.0,,,,,,,,,59.84616260009352,,,,,,,,,,,,,,,,,59.83099280006718,60.645180899999104,61.44456820003688,61.42849750001915,61.42887060006615,61.44456820003688,61.44456820003688,62.07860410003923,g,1.0,0.6304143000161275,,,,,,,,,,,,,,,,,,,,,,,,,,,,,,,,,,,,,,,sub-213,1,stroop_test,60.18541925019859,
test,red,r,1.0,7.0,1.0,2.0,r,1.0,0.4474496999755502,,,,,,,,,,,,,,,,,,2.0,1.0,7.0,0.0,,,,,,,,,62.094205300090834,,,,,,,,,,,,,,,,,62.07886230002623,63.29279810003936,64.09228860004805,64.07643240003381,64.07705520000309,64.09228860004805,64.09228860004805,64.54310730006546,r,1.0,0.4474496999755502,,,,,,,,,,,,,,,,,,,,,,,,,,,,,,,,,,,,,,,sub-213,1,stroop_test,60.18541925019859,
test,blue,b,1.0,8.0,2.0,2.0,b,1.0,0.5533247999846935,,,,,,,,,,,,,,,,,,2.0,2.0,8.0,2.0,,,,,,,,,64.55797900003381,,,,,,,,,,,,,,,,,64.54338800010737,64.90804600005504,65.70748620002996,65.69119200005662,65.69169160001911,65.70748620002996,65.70748620002996,66.27640420000535,b,1.0,0.5533247999846935,,,,,,,,,,,,,,,,,,,,,,,,,,,,,,,,,,,,,,,sub-213,1,stroop_test,60.18541925019859,
test,blue,b,1.0,9.0,0.0,3.0,b,1.0,0.6361822000471875,,,,,,,,,,,,,,,,,,3.0,0.0,9.0,2.0,,,,,,,,,66.29030100000091,,,,,,,,,,,,,,,,,66.27703080000356,67.08924100000877,67.88853610004298,67.87223640002776,67.87255490000825,67.88853610004298,67.88853610004298,68.53919949999545,b,1.0,0.6361822000471875,,,,,,,,,,,,,,,,,,,,,,,,,,,,,,,,,,,,,,,sub-213,1,stroop_test,60.18541925019859,
test,red,r,1.0,10.0,1.0,3.0,r,1.0,0.6970827999757603,,,,,,,,,,,,,,,,,,3.0,1.0,10.0,0.0,,,,,,,,,68.55433130008169,,,,,,,,,,,,,,,,,68.53953920002095,69.3540926000569,70.15319710003678,70.13814520009328,70.13929520000238,70.15319710003678,70.15319710003678,70.85361340001691,r,1.0,0.6970827999757603,,,,,,,,,,,,,,,,,,,,,,,,,,,,,,,,,,,,,,,sub-213,1,stroop_test,60.18541925019859,
test,yellow,g,1.0,11.0,2.0,3.0,g,1.0,0.6339743999997154,,,,,,,,,,,,,,,,,,3.0,2.0,11.0,1.0,,,,,,,,,70.86913020000793,,,,,,,,,,,,,,,,,70.85388130007777,71.21886320004705,72.01837190007791,72.00204230006784,72.00256190006621,72.01837190007791,72.01837190007791,72.66832230007276,g,1.0,0.6339743999997154,,,,,,,,,,,,,,,,,,,,,,,,,,,,,,,,,,,,,,,sub-213,1,stroop_test,60.18541925019859,
,,,,,,,,,,,,,,,,,,,,,,,,,,,,,,,,,,,,,,,,,,,,,,,,,,,,,,,,,,,,,,,,,,,,72.6684469000902,72.68425110005774,72.68425110005774,76.26564600004349,space,3.5648690999951214,,,,,,,,,,,,,,,,,,,,,,,,,,,,,,,,sub-213,1,stroop_test,60.18541925019859,
,,,,0.0,0.0,0.0,,,,,rot,red,r,1.0,r,1.0,0.7387915999861434,,,,,,,,,,,,,,0.0,0.0,0.0,1.0,,,,,76.28455189999659,,,,,,,,,,,,,,,,,76.28097350010648,76.63023940008134,77.42943750007544,77.41399350005668,,,,,,,,,,,,,,,,77.42304250004236,77.42943750007544,77.42943750007544,78.18064150004648,r,1.0,0.7387915999861434,,78.19276740006171,78.19924470002297,79.1947384000523,,,,,,,,,,,,,,,,,,,,sub-213,1,stroop_test,60.18541925019859,
,,,,1.0,1.0,0.0,,,,,gelb,blue,b,0.0,b,1.0,0.4385777999414131,,,,,,,,,,,,,,0.0,1.0,1.0,9.0,,,,,79.21146620006766,,,,,,,,,,,,,,,,,79.19510000001173,79.544534600107,80.34721290005837,80.32917150005233,,,,,,,,,,,,,,,,80.34058970003389,80.34721290005837,80.34721290005837,80.79502580000553,b,1.0,0.4385777999414131,,80.79592430009507,80.80987540003844,81.79324660007842,81.8086864000652,,,,,,,,,,,,,,,,,,,sub-213,1,stroop_test,60.18541925019859,
,,,,2.0,2.0,0.0,,,,,rot,yellow,g,0.0,g,1.0,0.7346540000289679,,,,,,,,,,,,,,0.0,2.0,2.0,3.0,,,,,81.8086864000652,,,,,,,,,,,,,,,,,81.79360500001349,81.90881799999624,82.70784040004946,82.6919493000023,,,,,,,,,,,,,,,,82.69439600000624,82.70784040004946,82.70784040004946,83.45767600007821,g,1.0,0.7346540000289679,,83.45800430001691,83.47390370001085,84.45706130005419,84.47277570003644,,,,,,,,,,,,,,,,,,,sub-213,1,stroop_test,60.18541925019859,
,,,,3.0,3.0,0.0,,,,,rot,blue,b,0.0,b,1.0,0.5997265999903902,,,,,,,,,,,,,,0.0,3.0,3.0,2.0,,,,,84.47277570003644,,,,,,,,,,,,,,,,,84.45730620005634,85.27251780009829,86.0716077000834,86.05542770004831,,,,,,,,,,,,,,,,86.05576090002432,86.0716077000834,86.0716077000834,86.68868730007671,b,1.0,0.5997265999903902,,86.68906060000882,86.70450550003443,87.7037959001027,,,,,,,,,,,,,,,,,,,,sub-213,1,stroop_test,60.18541925019859,
,,,,4.0,4.0,0.0,,,,,gelb,red,r,0.0,r,1.0,0.7522528999252245,,,,,,,,,,,,,,0.0,4.0,4.0,8.0,,,,,87.72012010007165,,,,,,,,,,,,,,,,,87.70414770010393,87.80373270006385,88.61933990009129,88.6028626000043,,,,,,,,,,,,,,,,88.60503820003942,88.61933990009129,88.61933990009129,89.38799960003234,r,1.0,0.7522528999252245,,89.38916560006328,89.40186930005439,90.38550420000684,90.4008773000678,,,,,,,,,,,,,,,,,,,sub-213,1,stroop_test,60.18541925019859,
,,,,5.0,5.0,0.0,,,,,blau,blue,b,1.0,b,1.0,0.8678584999870509,,,,,,,,,,,,,,0.0,5.0,5.0,6.0,,,,,90.4008773000678,,,,,,,,,,,,,,,,,90.38597410009244,90.75079600000754,91.57105190004222,91.55167190008795,,,,,,,,,,,,,,,,91.56501940009184,91.57105190004222,91.57105190004222,92.45025560003704,b,1.0,0.8678584999870509,,92.45059560006484,92.46557850006502,93.44953840004746,93.464780600043,,,,,,,,,,,,,,,,,,,sub-213,1,stroop_test,60.18541925019859,
,,,,6.0,6.0,0.0,,,,,blau,red,r,0.0,r,1.0,0.7933883999940008,,,,,,,,,,,,,,0.0,6.0,6.0,4.0,,,,,93.464780600043,,,,,,,,,,,,,,,,,93.45021060004365,94.6632113000378,95.46258940000553,95.44633710000198,,,,,,,,,,,,,,,,95.4467033999972,95.46258940000553,95.46258940000553,96.26389860000928,r,1.0,0.7933883999940008,,96.26461509999352,96.27870170003736,97.277836900088,,,,,,,,,,,,,,,,,,,,sub-213,1,stroop_test,60.18541925019859,
,,,,7.0,7.0,0.0,,,,,rot,red,r,1.0,r,1.0,0.644447400001809,,,,,,,,,,,,,,0.0,7.0,7.0,0.0,,,,,97.29441620002036,,,,,,,,,,,,,,,,,97.2781272000866,97.37763780006208,98.17730400001165,98.16198370000347,,,,,,,,,,,,,,,,98.1696013000328,98.17730400001165,98.17730400001165,98.82783830002882,r,1.0,0.644447400001809,,98.8285170000745,98.84309590002522,99.82621960004326,99.84184860007372,,,,,,,,,,,,,,,,,,,sub-213,1,stroop_test,60.18541925019859,
,,,,8.0,8.0,0.0,,,,,gelb,yellow,g,1.0,g,1.0,0.8463997999206185,,,,,,,,,,,,,,0.0,8.0,8.0,10.0,,,,,99.84184860007372,,,,,,,,,,,,,,,,,99.82648120005616,99.94211320008615,100.75794560008217,100.74158440006433,,,,,,,,,,,,,,,,100.74420050007755,100.75794560008217,100.75794560008217,101.6081828000024,g,1.0,0.8463997999206185,,101.60856710001826,101.62348420009948,102.6066605000524,102.62258640001528,,,,,,,,,,,,,,,,,,,sub-213,1,stroop_test,60.18541925019859,
,,,,9.0,9.0,0.0,,,,,blau,yellow,g,0.0,g,1.0,1.3182239000452682,,,,,,,,,,,,,,0.0,9.0,9.0,7.0,,,,,102.62258640001528,,,,,,,,,,,,,,,,,102.60688310000114,103.42238460003864,104.22112780006135,104.2064388000872,,,,,,,,,,,,,,,,104.21138420002536,104.22112780006135,104.22112780006135,105.55450610001571,g,1.0,1.3182239000452682,,105.55497690010816,105.569798200042,106.5527662000386,106.5687188000884,,,,,,,,,,,,,,,,,,,sub-213,1,stroop_test,60.18541925019859,
,,,,10.0,10.0,0.0,,,,,blau,blue,b,1.0,b,1.0,0.6218278000596911,,,,,,,,,,,,,,0.0,10.0,10.0,5.0,,,,,106.5687188000884,,,,,,,,,,,,,,,,,106.55303030007052,106.9184275000589,107.71772890002468,107.7014782000333,,,,,,,,,,,,,,,,107.70180090004578,107.71772890002468,107.71772890002468,108.35252670000772,b,1.0,0.6218278000596911,,108.35332059999928,108.36731260002124,109.35152490006294,109.36679640004876,,,,,,,,,,,,,,,,,,,sub-213,1,stroop_test,60.18541925019859,
,,,,11.0,11.0,0.0,,,,,gelb,yellow,g,1.0,g,1.0,0.7878469000570476,,,,,,,,,,,,,,0.0,11.0,11.0,11.0,,,,,109.36679640004876,,,,,,,,,,,,,,,,,109.35229130007792,110.1658925000811,110.9651527000824,110.94963620009366,,,,,,,,,,,,,,,,110.95612740004437,110.9651527000824,110.9651527000824,111.76481320010498,g,1.0,0.7878469000570476,,111.76518200000282,111.78056169999763,112.76405260001776,112.78010480001105,,,,,,,,,,,,,,,,,,,sub-213,1,stroop_test,60.18541925019859,
,,,,12.0,0.0,1.0,,,,,rot,red,r,1.0,r,1.0,0.7126164000947028,,,,,,,,,,,,,,1.0,0.0,12.0,0.0,,,,,112.78010480001105,,,,,,,,,,,,,,,,,112.7644791000057,113.12935290008318,113.9287103000097,113.91235240001696,,,,,,,,,,,,,,,,113.9149833000265,113.9287103000097,113.9287103000097,114.64580800000113,r,1.0,0.7126164000947028,,114.6462233000202,114.6614608000964,115.64455960004123,115.6604942000704,,,,,,,,,,,,,,,,,,,sub-213,1,stroop_test,60.18541925019859,
,,,,13.0,1.0,1.0,,,,,gelb,yellow,g,1.0,g,1.0,0.5959239000221714,,,,,,,,,,,,,,1.0,1.0,13.0,11.0,,,,,115.6604942000704,,,,,,,,,,,,,,,,,115.64480740006547,116.8595597000094,117.65862440003548,117.6424255000893,,,,,,,,,,,,,,,,117.6451031001052,117.65862440003548,117.65862440003548,118.25945460004732,g,1.0,0.5959239000221714,,118.26008710009046,118.27486850006972,119.27365570003168,,,,,,,,,,,,,,,,,,,,sub-213,1,stroop_test,60.18541925019859,
,,,,14.0,2.0,1.0,,,,,gelb,yellow,g,1.0,g,1.0,0.6680919999489561,,,,,,,,,,,,,,1.0,2.0,14.0,10.0,,,,,119.29018580005504,,,,,,,,,,,,,,,,,119.27388440002689,120.47233460005371,121.27194450004026,121.2557704000501,,,,,,,,,,,,,,,,121.25612240005285,121.27194450004026,121.27194450004026,121.95563760004006,g,1.0,0.6680919999489561,,121.95601710001938,121.97160230006556,122.97045370005073,,,,,,,,,,,,,,,,,,,,sub-213,1,stroop_test,60.18541925019859,
,,,,15.0,3.0,1.0,,,,,rot,red,r,1.0,r,1.0,0.6907999999821186,,,,,,,,,,,,,,1.0,3.0,15.0,1.0,,,,,122.98728140001184,,,,,,,,,,,,,,,,,122.97070150007494,123.07048210001084,123.86952050006948,123.85365220007952,,,,,,,,,,,,,,,,123.85633450001478,123.86952050006948,123.86952050006948,124.56943710008636,r,1.0,0.6907999999821186,,124.5697754001012,124.5852281000698,125.56825270003174,125.58431599999312,,,,,,,,,,,,,,,,,,,sub-213,1,stroop_test,60.18541925019859,
,,,,16.0,4.0,1.0,,,,,blau,blue,b,1.0,b,1.0,0.8444842000026256,,,,,,,,,,,,,,1.0,4.0,16.0,6.0,,,,,125.58431599999312,,,,,,,,,,,,,,,,,125.56845370004883,126.78347780008336,127.58241280005312,127.56699570000636,,,,,,,,,,,,,,,,127.56875640002544,127.58241280005312,127.58241280005312,128.4324295000406,b,1.0,0.8444842000026256,,128.43275170004927,128.44864710001275,129.43295100005344,129.44787490007002,,,,,,,,,,,,,,,,,,,sub-213,1,stroop_test,60.18541925019859,
,,,,17.0,5.0,1.0,,,,,gelb,blue,b,0.0,b,1.0,1.8717133000027388,,,,,,,,,,,,,,1.0,5.0,17.0,9.0,,,,,129.44787490007002,,,,,,,,,,,,,,,,,129.43370749999303,130.64666870003566,131.44581120007206,131.4310888000764,,,,,,,,,,,,,,,,131.43918920005672,131.44581120007206,131.44581120007206,133.32940849999432,b,1.0,1.8717133000027388,,133.33024420007132,133.34386170003563,134.32773990009446,134.3432419000892,,,,,,,,,,,,,,,,,,,sub-213,1,stroop_test,60.18541925019859,
,,,,18.0,6.0,1.0,,,,,rot,yellow,g,0.0,g,1.0,0.7211740999482572,,,,,,,,,,,,,,1.0,6.0,18.0,3.0,,,,,134.3432419000892,,,,,,,,,,,,,,,,,134.32825340004638,134.69247540005017,135.49181490007322,135.47595910006203,,,,,,,,,,,,,,,,135.4781159000704,135.49181490007322,135.49181490007322,136.22578249999788,g,1.0,0.7211740999482572,,136.2262100999942,136.24126770009752,137.22440200007986,137.24055510002654,,,,,,,,,,,,,,,,,,,sub-213,1,stroop_test,60.18541925019859,
,,,,19.0,7.0,1.0,,,,,gelb,red,r,0.0,r,1.0,0.7438689999980852,,,,,,,,,,,,,,1.0,7.0,19.0,8.0,,,,,137.24055510002654,,,,,,,,,,,,,,,,,137.22461810009554,137.58990670007188,138.38930200005416,138.37329650006723,,,,,,,,,,,,,,,,138.37659940007143,138.38930200005416,138.38930200005416,139.140846000053,r,1.0,0.7438689999980852,,139.14172760001384,139.15525900002103,140.1395388999954,140.1546876000939,,,,,,,,,,,,,,,,,,,sub-213,1,stroop_test,60.18541925019859,
,,,,20.0,8.0,1.0,,,,,blau,yellow,g,0.0,g,1.0,0.783479499979876,,,,,,,,,,,,,,1.0,8.0,20.0,7.0,,,,,140.1546876000939,,,,,,,,,,,,,,,,,140.14029420004226,140.9535959000932,141.76920740003698,141.75313290010672,,,,,,,,,,,,,,,,141.75586500007194,141.76920740003698,141.76920740003698,142.56938830006402,g,1.0,0.783479499979876,,142.56971210008487,142.58507820009254,143.5682075000368,143.58409420005046,,,,,,,,,,,,,,,,,,,sub-213,1,stroop_test,60.18541925019859,
,,,,21.0,9.0,1.0,,,,,rot,blue,b,0.0,b,1.0,0.4904368999414146,,,,,,,,,,,,,,1.0,9.0,21.0,2.0,,,,,143.58409420005046,,,,,,,,,,,,,,,,,143.56844490009826,144.3838252000278,145.1828342000954,145.16666540002916,,,,,,,,,,,,,,,,145.16857980005443,145.1828342000954,145.1828342000954,145.68316360004246,b,1.0,0.4904368999414146,,145.68352190009318,145.69892700004857,146.68224860006012,146.69815780001227,,,,,,,,,,,,,,,,,,,sub-213,1,stroop_test,60.18541925019859,
,,,,22.0,10.0,1.0,,,,,blau,red,r,0.0,r,1.0,0.7196943999733776,,,,,,,,,,,,,,1.0,10.0,22.0,4.0,,,,,146.69815780001227,,,,,,,,,,,,,,,,,146.68247030000202,146.79788160009775,147.59707630006596,147.58075770002324,,,,,,,,,,,,,,,,147.58261570008472,147.59707630006596,147.59707630006596,148.33314630005043,r,1.0,0.7196943999733776,,148.3344447000418,148.34720240009483,149.34644920006394,,,,,,,,,,,,,,,,,,,,sub-213,1,stroop_test,60.18541925019859,
,,,,23.0,11.0,1.0,,,,,blau,blue,b,1.0,b,1.0,0.5423205000115559,,,,,,,,,,,,,,1.0,11.0,23.0,5.0,,,,,149.36249670002144,,,,,,,,,,,,,,,,,149.3472299000714,149.4458049000241,150.26157299999613,150.24558190000243,,,,,,,,,,,,,,,,150.24598080001306,150.26157299999613,150.26157299999613,150.81253560003825,b,1.0,0.5423205000115559,,150.81326680001803,150.82759860006627,151.8112887000898,151.82712800009176,,,,,,,,,,,,,,,,,,,sub-213,1,stroop_test,60.18541925019859,
,,,,,,,,,,,,,,,,,,,,,,,,,,,,,,,,,,,,,,,,,,,,,,,,,,,,,,,,,,,,,,,,,,,,,,,,,,,,,,,,,,,,,,,151.81151620007586,151.82712800009176,151.82712800009176,156.25789000000805,space,4.417041599983349,,,,,,,,,,,,,sub-213,1,stroop_test,60.18541925019859,
,,,,0.0,0.0,0.0,,,,,,,,,,,,,blau,blue,b,1.0,b,1.0,0.5468826000578701,,,,,,,,,,0.0,0.0,0.0,6.0,156.28319420001935,,,,,,,,,,,,,,,,,156.27893110003788,156.62185500003395,157.42153360007796,157.4051548000425,,,,,,,,,,,,,,,,,,,,,,,,,,,,,,,,,,,157.40721279999707,157.42153360007796,157.42153360007796,157.9719910999993,b,1.0,0.5468826000578701,,,,,sub-213,1,stroop_test,60.18541925019859,
,,,,1.0,1.0,0.0,,,,,,,,,,,,,rot,red,r,1.0,r,1.0,0.59693400003016,,,,,,,,,,0.0,1.0,1.0,0.0,157.98766080010682,,,,,,,,,,,,,,,,,157.9723351000575,158.3372508001048,159.1363998000743,159.12147160002496,,,,,,,,,,,,,,,,,,,,,,,,,,,,,,,,,,,159.128565800027,159.1363998000743,159.1363998000743,159.7367406000849,r,1.0,0.59693400003016,,,,,sub-213,1,stroop_test,60.18541925019859,
,,,,2.0,2.0,0.0,,,,,,,,,,,,,blau,blue,b,1.0,b,1.0,0.5393595999339595,,,,,,,,,,0.0,2.0,2.0,5.0,159.7526380000636,,,,,,,,,,,,,,,,,159.73700080008712,159.83605530008208,160.63534580008127,160.6190633000806,,,,,,,,,,,,,,,,,,,,,,,,,,,,,,,,,,,160.62101880006958,160.63534580008127,160.63534580008127,161.1876537000062,b,1.0,0.5393595999339595,,,,,sub-213,1,stroop_test,60.18541925019859,
,,,,3.0,3.0,0.0,,,,,,,,,,,,,blau,yellow,g,0.0,g,1.0,0.7021488000173122,,,,,,,,,,0.0,3.0,3.0,7.0,161.20135010010563,,,,,,,,,,,,,,,,,161.1885781000601,161.5508439000696,162.35051140002906,162.33580630004872,,,,,,,,,,,,,,,,,,,,,,,,,,,,,,,,,,,162.33705870003905,162.35051140002906,162.35051140002906,163.068138700095,g,1.0,0.7021488000173122,,,,,sub-213,1,stroop_test,60.18541925019859,
,,,,4.0,4.0,0.0,,,,,,,,,,,,,blau,red,r,0.0,r,1.0,0.9706193000311032,,,,,,,,,,0.0,4.0,4.0,4.0,163.0827422000002,,,,,,,,,,,,,,,,,163.06876010005362,163.18314940005075,164.0415310000535,163.98240160010755,,,,,,,,,,,,,,,,,,,,,,,,,,,,,,,,,,,163.98271990008652,164.0415310000535,164.0415310000535,165.01535250002053,r,1.0,0.9706193000311032,,,,,sub-213,1,stroop_test,60.18541925019859,
,,,,5.0,5.0,0.0,,,,,,,,,,,,,rot,yellow,g,0.0,g,1.0,0.689898099983111,,,,,,,,,,0.0,5.0,5.0,3.0,165.03075890010223,,,,,,,,,,,,,,,,,165.0156434000237,166.22985750006046,167.02895860001445,167.0131226000376,,,,,,,,,,,,,,,,,,,,,,,,,,,,,,,,,,,167.01501590001862,167.02895860001445,167.02895860001445,167.72940599999856,g,1.0,0.689898099983111,,,,,sub-213,1,stroop_test,60.18541925019859,
,,,,6.0,6.0,0.0,,,,,,,,,,,,,gelb,yellow,g,1.0,g,1.0,0.6512448999565095,,,,,,,,,,0.0,6.0,6.0,11.0,167.74509710003622,,,,,,,,,,,,,,,,,167.72973440005444,168.54425999999512,169.34387460001744,169.32739640004002,,,,,,,,,,,,,,,,,,,,,,,,,,,,,,,,,,,169.33054470003117,169.34387460001744,169.34387460001744,170.01149900001474,g,1.0,0.6512448999565095,,,,,sub-213,1,stroop_test,60.18541925019859,
,,,,7.0,7.0,0.0,,,,,,,,,,,,,rot,blue,b,0.0,b,1.0,0.8261942999670282,,,,,,,,,,0.0,7.0,7.0,2.0,170.02656050003134,,,,,,,,,,,,,,,,,170.01210859999992,170.12664120004047,170.9421703000553,170.92614590004086,,,,,,,,,,,,,,,,,,,,,,,,,,,,,,,,,,,170.92989210004453,170.9421703000553,170.9421703000553,171.775841100025,b,1.0,0.8261942999670282,,,,,sub-213,1,stroop_test,60.18541925019859,
,,,,8.0,8.0,0.0,,,,,,,,,,,,,gelb,blue,b,0.0,b,1.0,0.5062640000833198,,,,,,,,,,0.0,8.0,8.0,9.0,171.79146310000215,,,,,,,,,,,,,,,,,171.77611570002043,172.14069820009172,172.93994880001992,172.9237878000131,,,,,,,,,,,,,,,,,,,,,,,,,,,,,,,,,,,172.92613610008266,172.93994880001992,172.93994880001992,173.4569428000832,b,1.0,0.5062640000833198,,,,,sub-213,1,stroop_test,60.18541925019859,
,,,,9.0,9.0,0.0,,,,,,,,,,,,,gelb,red,r,0.0,r,1.0,0.6318382000317797,,,,,,,,,,0.0,9.0,9.0,8.0,173.47278090007603,,,,,,,,,,,,,,,,,173.45719510002527,173.82248050009366,174.622157100006,174.6057091000257,,,,,,,,,,,,,,,,,,,,,,,,,,,,,,,,,,,174.60603790008463,174.622157100006,174.622157100006,175.25640390010085,r,1.0,0.6318382000317797,,,,,sub-213,1,stroop_test,60.18541925019859,
,,,,10.0,10.0,0.0,,,,,,,,,,,,,rot,red,r,1.0,r,1.0,0.5083644000114873,,,,,,,,,,0.0,10.0,10.0,1.0,175.27164880000055,,,,,,,,,,,,,,,,,175.25684650009498,176.47039480006788,177.26956550008617,177.25478250009473,,,,,,,,,,,,,,,,,,,,,,,,,,,,,,,,,,,177.26318280003034,177.26956550008617,177.26956550008617,177.78658330009785,r,1.0,0.5083644000114873,,,,,sub-213,1,stroop_test,60.18541925019859,
,,,,11.0,11.0,0.0,,,,,,,,,,,,,gelb,yellow,g,1.0,g,1.0,0.6437173000304028,,,,,,,,,,0.0,11.0,11.0,10.0,177.80246640008409,,,,,,,,,,,,,,,,,177.78686650004238,179.00119640002958,179.8027515000431,179.78587690007407,,,,,,,,,,,,,,,,,,,,,,,,,,,,,,,,,,,179.79585090000182,179.8027515000431,179.8027515000431,180.45305320003536,g,1.0,0.6437173000304028,,,,,sub-213,1,stroop_test,60.18541925019859,
,,,,12.0,0.0,1.0,,,,,,,,,,,,,rot,yellow,g,0.0,g,1.0,0.7755535999312997,,,,,,,,,,1.0,0.0,12.0,3.0,180.46653860004156,,,,,,,,,,,,,,,,,180.45384279999416,181.26557670009788,182.0649119000882,182.0487650000723,,,,,,,,,,,,,,,,,,,,,,,,,,,,,,,,,,,182.0506007000804,182.0649119000882,182.0649119000882,182.84830740001053,g,1.0,0.7755535999312997,,,,,sub-213,1,stroop_test,60.18541925019859,
,,,,13.0,1.0,1.0,,,,,,,,,,,,,gelb,yellow,g,1.0,g,1.0,0.5051027999725193,,,,,,,,,,1.0,1.0,13.0,11.0,182.86398950009607,,,,,,,,,,,,,,,,,182.8485621000873,182.96396350010764,183.7633935000049,183.74711150000803,,,,,,,,,,,,,,,,,,,,,,,,,,,,,,,,,,,183.74966590001716,183.7633935000049,183.7633935000049,184.28114300000016,g,1.0,0.5051027999725193,,,,,sub-213,1,stroop_test,60.18541925019859,
,,,,14.0,2.0,1.0,,,,,,,,,,,,,blau,yellow,g,0.0,g,1.0,0.4956689000828191,,,,,,,,,,1.0,2.0,14.0,7.0,184.29620530002285,,,,,,,,,,,,,,,,,184.28163880005013,185.49534910009243,186.3108548000455,186.29449770005888,,,,,,,,,,,,,,,,,,,,,,,,,,,,,,,,,,,186.29672530002424,186.3108548000455,186.3108548000455,186.8120405999944,g,1.0,0.4956689000828191,,,,,sub-213,1,stroop_test,60.18541925019859,
,,,,15.0,3.0,1.0,,,,,,,,,,,,,blau,blue,b,1.0,b,1.0,0.4213439000304788,,,,,,,,,,1.0,3.0,15.0,6.0,186.82726050005292,,,,,,,,,,,,,,,,,186.81244860007428,187.1766501000384,187.97663530008867,187.96135830006097,,,,,,,,,,,,,,,,,,,,,,,,,,,,,,,,,,,187.96262290002775,187.97663530008867,187.97663530008867,188.41083320009056,b,1.0,0.4213439000304788,,,,,sub-213,1,stroop_test,60.18541925019859,
,,,,16.0,4.0,1.0,,,,,,,,,,,,,gelb,yellow,g,1.0,g,1.0,0.6407961000222713,,,,,,,,,,1.0,4.0,16.0,10.0,188.42596800008323,,,,,,,,,,,,,,,,,188.41137550002892,189.62463140010368,190.42389650002588,190.40790500002916,,,,,,,,,,,,,,,,,,,,,,,,,,,,,,,,,,,190.41008010006044,190.42389650002588,190.42389650002588,191.0760645000264,g,1.0,0.6407961000222713,,,,,sub-213,1,stroop_test,60.18541925019859,
,,,,17.0,5.0,1.0,,,,,,,,,,,,,gelb,red,r,0.0,r,1.0,0.498374699964188,,,,,,,,,,1.0,5.0,17.0,8.0,191.0904340000125,,,,,,,,,,,,,,,,,191.0768583000172,191.1901666000485,191.98932280007284,191.9745111000957,,,,,,,,,,,,,,,,,,,,,,,,,,,,,,,,,,,191.97593670000788,191.98932280007284,191.98932280007284,192.4897330000531,r,1.0,0.498374699964188,,,,,sub-213,1,stroop_test,60.18541925019859,
,,,,18.0,6.0,1.0,,,,,,,,,,,,,gelb,blue,b,0.0,b,1.0,0.545739599969238,,,,,,,,,,1.0,6.0,18.0,9.0,192.5053174000932,,,,,,,,,,,,,,,,,192.4899945000652,192.6050740000792,193.4042151001049,193.38859810004945,,,,,,,,,,,,,,,,,,,,,,,,,,,,,,,,,,,193.3893615000416,193.4042151001049,193.4042151001049,193.95497449999675,b,1.0,0.545739599969238,,,,,sub-213,1,stroop_test,60.18541925019859,
,,,,19.0,7.0,1.0,,,,,,,,,,,,,rot,red,r,1.0,r,1.0,0.7477704000193626,,,,,,,,,,1.0,7.0,19.0,1.0,193.9706920000026,,,,,,,,,,,,,,,,,193.95522960007656,195.1698231000919,195.9855380000081,195.96920310007408,,,,,,,,,,,,,,,,,,,,,,,,,,,,,,,,,,,195.97152000002097,195.9855380000081,195.9855380000081,196.7355245000217,r,1.0,0.7477704000193626,,,,,sub-213,1,stroop_test,60.18541925019859,
,,,,20.0,8.0,1.0,,,,,,,,,,,,,rot,blue,b,0.0,b,1.0,0.8599686999805272,,,,,,,,,,1.0,8.0,20.0,2.0,196.75141100003384,,,,,,,,,,,,,,,,,196.7358116999967,197.9501415000996,198.7492622000864,198.7334853000939,,,,,,,,,,,,,,,,,,,,,,,,,,,,,,,,,,,198.73397590010427,198.7492622000864,198.7492622000864,199.61626730009448,b,1.0,0.8599686999805272,,,,,sub-213,1,stroop_test,60.18541925019859,
,,,,21.0,9.0,1.0,,,,,,,,,,,,,rot,red,r,1.0,r,1.0,0.7113624999765307,,,,,,,,,,1.0,9.0,21.0,0.0,199.63199110003188,,,,,,,,,,,,,,,,,199.61652460007463,199.9651954000583,200.764294099994,200.7483324999921,,,,,,,,,,,,,,,,,,,,,,,,,,,,,,,,,,,200.74876600003336,200.764294099994,200.764294099994,201.4818220000016,r,1.0,0.7113624999765307,,,,,sub-213,1,stroop_test,60.18541925019859,
,,,,22.0,10.0,1.0,,,,,,,,,,,,,blau,red,r,0.0,r,1.0,1.103506700019352,,,,,,,,,,1.0,10.0,22.0,4.0,201.4971328000538,,,,,,,,,,,,,,,,,201.48240940005053,201.59664870006964,202.39597020007204,202.3813991000643,,,,,,,,,,,,,,,,,,,,,,,,,,,,,,,,,,,202.38848409999628,202.39597020007204,202.39597020007204,203.51285080006343,r,1.0,1.103506700019352,,,,,sub-213,1,stroop_test,60.18541925019859,
,,,,23.0,11.0,1.0,,,,,,,,,,,,,blau,blue,b,1.0,b,1.0,0.721460200031288,,,,,,,,,,1.0,11.0,23.0,5.0,203.52808160008863,,,,,,,,,,,,,,,,,203.5131511000218,204.32776000001468,205.14319200010505,205.12699280004017,,,,,,,,,,,,,,,,,,,,,,,,,,,,,,,,,,,205.12735190009695,205.14319200010505,205.14319200010505,205.87674840004183,b,1.0,0.721460200031288,,,,,sub-213,1,stroop_test,60.18541925019859,
,,,,24.0,0.0,2.0,,,,,,,,,,,,,blau,red,r,0.0,r,1.0,1.02318700007163,,,,,,,,,,2.0,0.0,24.0,4.0,205.8924190000398,,,,,,,,,,,,,,,,,205.8769866999937,206.69170980004128,207.4914874000242,207.47617890010588,,,,,,,,,,,,,,,,,,,,,,,,,,,,,,,,,,,207.4772597000701,207.4914874000242,207.4914874000242,208.52426560001916,r,1.0,1.02318700007163,,,,,sub-213,1,stroop_test,60.18541925019859,
,,,,25.0,1.0,2.0,,,,,,,,,,,,,rot,red,r,1.0,r,1.0,0.5459606000222266,,,,,,,,,,2.0,1.0,25.0,1.0,208.53995760006364,,,,,,,,,,,,,,,,,208.5244972000364,209.73900890001096,210.53859850007572,210.52204730000813,,,,,,,,,,,,,,,,,,,,,,,,,,,,,,,,,,,210.5239509000676,210.53859850007572,210.53859850007572,211.08859090006445,r,1.0,0.5459606000222266,,,,,sub-213,1,stroop_test,60.18541925019859,
,,,,26.0,2.0,2.0,,,,,,,,,,,,,gelb,blue,b,0.0,b,1.0,0.616487400024198,,,,,,,,,,2.0,2.0,26.0,9.0,211.10446990001947,,,,,,,,,,,,,,,,,211.08884490001947,211.18831920006775,212.00361300003715,211.9873064000858,,,,,,,,,,,,,,,,,,,,,,,,,,,,,,,,,,,211.98960289999377,212.00361300003715,212.00361300003715,212.62123000004797,b,1.0,0.616487400024198,,,,,sub-213,1,stroop_test,60.18541925019859,
,,,,27.0,3.0,2.0,,,,,,,,,,,,,blau,blue,b,1.0,b,1.0,0.4548059999942779,,,,,,,,,,2.0,3.0,27.0,5.0,212.63663280010223,,,,,,,,,,,,,,,,,212.6214635000797,213.43540990003385,214.2346939001,214.2183505001012,,,,,,,,,,,,,,,,,,,,,,,,,,,,,,,,,,,214.22027400007937,214.2346939001,214.2346939001,214.70178290002517,b,1.0,0.4548059999942779,,,,,sub-213,1,stroop_test,60.18541925019859,
,,,,28.0,4.0,2.0,,,,,,,,,,,,,rot,yellow,g,0.0,g,1.0,0.7947332999901846,,,,,,,,,,2.0,4.0,28.0,3.0,214.71753080002964,,,,,,,,,,,,,,,,,214.7020345000783,215.51720520004164,216.31645939999729,216.30166580004152,,,,,,,,,,,,,,,,,,,,,,,,,,,,,,,,,,,216.3091681000078,216.31645939999729,216.31645939999729,217.1174325000029,g,1.0,0.7947332999901846,,,,,sub-213,1,stroop_test,60.18541925019859,
,,,,29.0,5.0,2.0,,,,,,,,,,,,,rot,red,r,1.0,r,1.0,0.7157185999676585,,,,,,,,,,2.0,5.0,29.0,0.0,217.13223430002108,,,,,,,,,,,,,,,,,217.1179541000165,217.482023700024,218.28112210007384,218.2652822000673,,,,,,,,,,,,,,,,,,,,,,,,,,,,,,,,,,,218.26571490010247,218.28112210007384,218.28112210007384,218.99831819999963,r,1.0,0.7157185999676585,,,,,sub-213,1,stroop_test,60.18541925019859,
,,,,30.0,6.0,2.0,,,,,,,,,,,,,blau,yellow,g,0.0,g,1.0,0.697108400054276,,,,,,,,,,2.0,6.0,30.0,7.0,219.0136782000773,,,,,,,,,,,,,,,,,218.99854450009295,220.21242410002745,221.0116660000058,220.99553430010565,,,,,,,,,,,,,,,,,,,,,,,,,,,,,,,,,,,220.9977822999936,221.0116660000058,221.0116660000058,221.71222990006208,g,1.0,0.697108400054276,,,,,sub-213,1,stroop_test,60.18541925019859,
,,,,31.0,7.0,2.0,,,,,,,,,,,,,gelb,red,r,0.0,r,1.0,1.0606098999269309,,,,,,,,,,2.0,7.0,31.0,8.0,221.72761790000368,,,,,,,,,,,,,,,,,221.71249520010315,221.82754690002184,222.62709170009475,222.61115670006257,,,,,,,,,,,,,,,,,,,,,,,,,,,,,,,,,,,222.6132792000426,222.62709170009475,222.62709170009475,223.69389630004295,r,1.0,1.0606098999269309,,,,,sub-213,1,stroop_test,60.18541925019859,
,,,,32.0,8.0,2.0,,,,,,,,,,,,,gelb,yellow,g,1.0,g,1.0,0.7688178999815136,,,,,,,,,,2.0,8.0,32.0,11.0,223.7092364000855,,,,,,,,,,,,,,,,,223.69413560000248,224.50867450004444,225.3077869000845,225.2920924000209,,,,,,,,,,,,,,,,,,,,,,,,,,,,,,,,,,,225.2925843000412,225.3077869000845,225.3077869000845,226.0910790000344,g,1.0,0.7688178999815136,,,,,sub-213,1,stroop_test,60.18541925019859,
,,,,33.0,9.0,2.0,,,,,,,,,,,,,rot,blue,b,0.0,b,1.0,0.7554531000787392,,,,,,,,,,2.0,9.0,33.0,2.0,226.10678720008585,,,,,,,,,,,,,,,,,226.09131160005927,226.90606330009177,227.7054389000405,227.6900495000882,,,,,,,,,,,,,,,,,,,,,,,,,,,,,,,,,,,227.6945658000186,227.7054389000405,227.7054389000405,228.4740933000576,b,1.0,0.7554531000787392,,,,,sub-213,1,stroop_test,60.18541925019859,
,,,,34.0,10.0,2.0,,,,,,,,,,,,,blau,blue,b,1.0,b,1.0,0.8766176999779418,,,,,,,,,,2.0,10.0,34.0,6.0,228.4882839000784,,,,,,,,,,,,,,,,,228.47473400004677,229.6869853000389,230.48630730004515,230.47020390001128,,,,,,,,,,,,,,,,,,,,,,,,,,,,,,,,,,,230.472299200017,230.48630730004515,230.48630730004515,231.36959300003943,b,1.0,0.8766176999779418,,,,,sub-213,1,stroop_test,60.18541925019859,
,,,,35.0,11.0,2.0,,,,,,,,,,,,,gelb,yellow,g,1.0,g,1.0,0.7419470000313595,,,,,,,,,,2.0,11.0,35.0,10.0,231.3853833000176,,,,,,,,,,,,,,,,,231.36985200003252,232.184788600076,232.98406260006595,232.9681332000764,,,,,,,,,,,,,,,,,,,,,,,,,,,,,,,,,,,232.97032160009255,232.98406260006595,232.98406260006595,233.73430350003764,g,1.0,0.7419470000313595,,,,,sub-213,1,stroop_test,60.18541925019859,
,,,,36.0,0.0,3.0,,,,,,,,,,,,,rot,red,r,1.0,r,1.0,0.6153773000696674,,,,,,,,,,3.0,0.0,36.0,0.0,233.7500678000506,,,,,,,,,,,,,,,,,233.73459380003624,234.5491167000728,235.34849440003745,235.3336100000888,,,,,,,,,,,,,,,,,,,,,,,,,,,,,,,,,,,235.3407715000212,235.34849440003745,235.34849440003745,235.96607940003744,r,1.0,0.6153773000696674,,,,,sub-213,1,stroop_test,60.18541925019859,
,,,,37.0,1.0,3.0,,,,,,,,,,,,,rot,blue,b,0.0,b,1.0,0.62852810008917,,,,,,,,,,3.0,1.0,37.0,2.0,235.98110920004547,,,,,,,,,,,,,,,,,235.9665265000658,236.78034430008847,237.57944070000667,237.56381300010253,,,,,,,,,,,,,,,,,,,,,,,,,,,,,,,,,,,237.56437930010725,237.57944070000667,237.57944070000667,238.2155162000563,b,1.0,0.62852810008917,,,,,sub-213,1,stroop_test,60.18541925019859,
,,,,38.0,2.0,3.0,,,,,,,,,,,,,blau,red,r,0.0,r,1.0,0.7040128000080585,,,,,,,,,,3.0,2.0,38.0,4.0,238.2293508000439,,,,,,,,,,,,,,,,,238.2164225000888,239.42842900007963,240.2436770000495,240.22751420002896,,,,,,,,,,,,,,,,,,,,,,,,,,,,,,,,,,,240.23019900009967,240.2436770000495,240.2436770000495,240.96058430010453,r,1.0,0.7040128000080585,,,,,sub-213,1,stroop_test,60.18541925019859,
,,,,39.0,3.0,3.0,,,,,,,,,,,,,gelb,yellow,g,1.0,g,1.0,0.6651720000663772,,,,,,,,,,3.0,3.0,39.0,11.0,240.97623480006587,,,,,,,,,,,,,,,,,240.96084090007932,241.0761867000256,241.87549120001492,241.85924810008143,,,,,,,,,,,,,,,,,,,,,,,,,,,,,,,,,,,241.8613752000965,241.87549120001492,241.87549120001492,242.54234650009312,g,1.0,0.6651720000663772,,,,,sub-213,1,stroop_test,60.18541925019859,
,,,,40.0,4.0,3.0,,,,,,,,,,,,,gelb,blue,b,0.0,b,1.0,0.8157674999674782,,,,,,,,,,3.0,4.0,40.0,9.0,242.55812590010464,,,,,,,,,,,,,,,,,242.54258260002825,243.75751170003787,244.5729249001015,244.5567320000846,,,,,,,,,,,,,,,,,,,,,,,,,,,,,,,,,,,244.55709410004783,244.5729249001015,244.5729249001015,245.3925471000839,b,1.0,0.8157674999674782,,,,,sub-213,1,stroop_test,60.18541925019859,
,,,,41.0,5.0,3.0,,,,,,,,,,,,,gelb,yellow,g,1.0,g,1.0,0.6850648000836372,,,,,,,,,,3.0,5.0,41.0,10.0,245.405906500062,,,,,,,,,,,,,,,,,245.3933755001053,245.50589450006373,246.3218367000809,246.3051926000044,,,,,,,,,,,,,,,,,,,,,,,,,,,,,,,,,,,246.30552300007548,246.3218367000809,246.3218367000809,247.02281120000407,g,1.0,0.6850648000836372,,,,,sub-213,1,stroop_test,60.18541925019859,
,,,,42.0,6.0,3.0,,,,,,,,,,,,,blau,blue,b,1.0,b,1.0,0.7073457000078633,,,,,,,,,,3.0,6.0,42.0,6.0,247.03754630009644,,,,,,,,,,,,,,,,,247.02344800007995,247.1376251000911,247.93842100002803,247.92229300003964,,,,,,,,,,,,,,,,,,,,,,,,,,,,,,,,,,,247.9303603000008,247.93842100002803,247.93842100002803,248.65338260005228,b,1.0,0.7073457000078633,,,,,sub-213,1,stroop_test,60.18541925019859,
,,,,43.0,7.0,3.0,,,,,,,,,,,,,blau,blue,b,1.0,b,1.0,1.232618600013666,,,,,,,,,,3.0,7.0,43.0,5.0,248.6690580000868,,,,,,,,,,,,,,,,,248.65363310009707,248.7525033000857,249.55189450003672,249.5358772000764,,,,,,,,,,,,,,,,,,,,,,,,,,,,,,,,,,,249.5362905000802,249.55189450003672,249.55189450003672,250.8012384000467,b,1.0,1.232618600013666,,,,,sub-213,1,stroop_test,60.18541925019859,
,,,,44.0,8.0,3.0,,,,,,,,,,,,,gelb,red,r,0.0,r,1.0,0.6734828000189736,,,,,,,,,,3.0,8.0,44.0,8.0,250.8170762000373,,,,,,,,,,,,,,,,,250.80147140007463,251.16674250003416,251.96606270002667,251.9498609000584,,,,,,,,,,,,,,,,,,,,,,,,,,,,,,,,,,,251.9542140000267,251.96606270002667,251.96606270002667,252.64975660003256,r,1.0,0.6734828000189736,,,,,sub-213,1,stroop_test,60.18541925019859,
,,,,45.0,9.0,3.0,,,,,,,,,,,,,rot,red,r,1.0,r,1.0,0.6595582000445575,,,,,,,,,,3.0,9.0,45.0,1.0,252.66581190004945,,,,,,,,,,,,,,,,,252.64999230008107,253.46511039999316,254.26409820001567,254.24896420002915,,,,,,,,,,,,,,,,,,,,,,,,,,,,,,,,,,,254.25608870002907,254.26409820001567,254.26409820001567,254.93309070006944,r,1.0,0.6595582000445575,,,,,sub-213,1,stroop_test,60.18541925019859,
,,,,46.0,10.0,3.0,,,,,,,,,,,,,blau,yellow,g,0.0,g,1.0,0.6756515000015497,,,,,,,,,,3.0,10.0,46.0,7.0,254.94697230006568,,,,,,,,,,,,,,,,,254.9340362000512,255.2968256000895,256.1123175000539,256.09609060001094,,,,,,,,,,,,,,,,,,,,,,,,,,,,,,,,,,,256.0986783000408,256.1123175000539,256.1123175000539,256.79614470002707,g,1.0,0.6756515000015497,,,,,sub-213,1,stroop_test,60.18541925019859,
,,,,47.0,11.0,3.0,,,,,,,,,,,,,rot,yellow,g,0.0,g,1.0,0.6554969000862911,,,,,,,,,,3.0,11.0,47.0,3.0,256.81206370005384,,,,,,,,,,,,,,,,,256.79645060002804,257.1611741000088,257.9610769000137,257.94571190001443,,,,,,,,,,,,,,,,,,,,,,,,,,,,,,,,,,,257.9544130000286,257.9610769000137,257.9610769000137,258.62727060006,g,1.0,0.6554969000862911,,,,,sub-213,1,stroop_test,60.18541925019859,
,,,,48.0,0.0,4.0,,,,,,,,,,,,,blau,red,r,0.0,r,1.0,0.8927870000479743,,,,,,,,,,4.0,0.0,48.0,4.0,258.6430901000276,,,,,,,,,,,,,,,,,258.6275161000667,258.9927386000054,259.79203000001144,259.7758463000646,,,,,,,,,,,,,,,,,,,,,,,,,,,,,,,,,,,259.7778879000107,259.79203000001144,259.79203000001144,260.6942318000365,r,1.0,0.8927870000479743,,,,,sub-213,1,stroop_test,60.18541925019859,
,,,,49.0,1.0,4.0,,,,,,,,,,,,,gelb,blue,b,0.0,b,1.0,0.568923500017263,,,,,,,,,,4.0,1.0,49.0,9.0,260.70863110001665,,,,,,,,,,,,,,,,,260.69502360001206,261.50762070005294,262.306355800014,262.2910529000219,,,,,,,,,,,,,,,,,,,,,,,,,,,,,,,,,,,262.296854800079,262.306355800014,262.306355800014,262.8905423000688,b,1.0,0.568923500017263,,,,,sub-213,1,stroop_test,60.18541925019859,
,,,,50.0,2.0,4.0,,,,,,,,,,,,,rot,yellow,g,0.0,g,1.0,0.92573789996095,,,,,,,,,,4.0,2.0,50.0,3.0,262.90612290007994,,,,,,,,,,,,,,,,,262.8908907000441,264.1047911000205,264.9042889000848,264.888483799994,,,,,,,,,,,,,,,,,,,,,,,,,,,,,,,,,,,264.8922182000242,264.9042889000848,264.9042889000848,265.8387132000644,g,1.0,0.92573789996095,,,,,sub-213,1,stroop_test,60.18541925019859,
,,,,51.0,3.0,4.0,,,,,,,,,,,,,gelb,red,r,0.0,r,1.0,0.6963371000019833,,,,,,,,,,4.0,3.0,51.0,8.0,265.853385000024,,,,,,,,,,,,,,,,,265.83930110000074,265.95369720004965,266.75271340005565,266.7371307000285,,,,,,,,,,,,,,,,,,,,,,,,,,,,,,,,,,,266.7429743000539,266.75271340005565,266.75271340005565,267.4525416000979,r,1.0,0.6963371000019833,,,,,sub-213,1,stroop_test,60.18541925019859,
,,,,52.0,4.0,4.0,,,,,,,,,,,,,rot,red,r,1.0,r,1.0,0.3870693000499159,,,,,,,,,,4.0,4.0,52.0,1.0,267.4681391000049,,,,,,,,,,,,,,,,,267.45277660002466,267.8012294000946,268.60090499999933,268.58472420007456,,,,,,,,,,,,,,,,,,,,,,,,,,,,,,,,,,,268.5865712000523,268.60090499999933,268.60090499999933,269.0022716000676,r,1.0,0.3870693000499159,,,,,sub-213,1,stroop_test,60.18541925019859,
,,,,53.0,5.0,4.0,,,,,,,,,,,,,gelb,yellow,g,1.0,g,1.0,0.6434995000017807,,,,,,,,,,4.0,5.0,53.0,10.0,269.0170860000653,,,,,,,,,,,,,,,,,269.0028546000831,270.2161015000893,271.03150939999614,271.01536280009896,,,,,,,,,,,,,,,,,,,,,,,,,,,,,,,,,,,271.0177427000599,271.03150939999614,271.03150939999614,271.6818189000478,g,1.0,0.6434995000017807,,,,,sub-213,1,stroop_test,60.18541925019859,
,,,,54.0,6.0,4.0,,,,,,,,,,,,,blau,blue,b,1.0,b,1.0,0.57820480002556,,,,,,,,,,4.0,6.0,54.0,6.0,271.6974928000709,,,,,,,,,,,,,,,,,271.6820510000689,272.0472349000629,272.8465093000559,272.830322700087,,,,,,,,,,,,,,,,,,,,,,,,,,,,,,,,,,,272.8326336001046,272.8465093000559,272.8465093000559,273.4301079000579,b,1.0,0.57820480002556,,,,,sub-213,1,stroop_test,60.18541925019859,
,,,,55.0,7.0,4.0,,,,,,,,,,,,,blau,blue,b,1.0,b,1.0,0.493777499999851,,,,,,,,,,4.0,7.0,55.0,5.0,273.44595500000287,,,,,,,,,,,,,,,,,273.43033110001124,273.7957139000064,274.5948095000349,274.57864409999456,,,,,,,,,,,,,,,,,,,,,,,,,,,,,,,,,,,274.5789969000034,274.5948095000349,274.5948095000349,275.095246000099,b,1.0,0.493777499999851,,,,,sub-213,1,stroop_test,60.18541925019859,
,,,,56.0,8.0,4.0,,,,,,,,,,,,,rot,blue,b,0.0,b,1.0,0.4402382998960092,,,,,,,,,,4.0,8.0,56.0,2.0,275.1109664000105,,,,,,,,,,,,,,,,,275.09549239999615,275.1942339000525,275.9935619001044,275.97734940005466,,,,,,,,,,,,,,,,,,,,,,,,,,,,,,,,,,,275.9794336000923,275.9935619001044,275.9935619001044,276.4441969000036,b,1.0,0.4402382998960092,,,,,sub-213,1,stroop_test,60.18541925019859,
,,,,57.0,9.0,4.0,,,,,,,,,,,,,gelb,yellow,g,1.0,g,1.0,0.6082054000580683,,,,,,,,,,4.0,9.0,57.0,11.0,276.45972350006923,,,,,,,,,,,,,,,,,276.4444288000232,276.55964200000744,277.3598012001021,277.34324100008234,,,,,,,,,,,,,,,,,,,,,,,,,,,,,,,,,,,277.346157800057,277.3598012001021,277.3598012001021,277.976764400024,g,1.0,0.6082054000580683,,,,,sub-213,1,stroop_test,60.18541925019859,
,,,,58.0,10.0,4.0,,,,,,,,,,,,,blau,yellow,g,0.0,g,1.0,0.4808041000505909,,,,,,,,,,4.0,10.0,58.0,7.0,277.99210750008933,,,,,,,,,,,,,,,,,277.97717660001945,278.3420328000793,279.1573667000048,279.1415440000128,,,,,,,,,,,,,,,,,,,,,,,,,,,,,,,,,,,279.14526510005817,279.1573667000048,279.1573667000048,279.6415199000621,g,1.0,0.4808041000505909,,,,,sub-213,1,stroop_test,60.18541925019859,
,,,,59.0,11.0,4.0,,,,,,,,,,,,,rot,red,r,1.0,r,1.0,0.5640760000096634,,,,,,,,,,4.0,11.0,59.0,0.0,279.65669700002763,,,,,,,,,,,,,,,,,279.6417717000004,279.7566350999987,280.5558791999938,280.53994490008336,,,,,,,,,,,,,,,,,,,,,,,,,,,,,,,,,,,280.5420959000476,280.5558791999938,280.5558791999938,281.1243948000483,r,1.0,0.5640760000096634,,,,,sub-213,1,stroop_test,60.18541925019859,
,,,,60.0,0.0,5.0,,,,,,,,,,,,,rot,red,r,1.0,r,1.0,0.5337593000149354,,,,,,,,,,5.0,0.0,60.0,1.0,281.13897840003483,,,,,,,,,,,,,,,,,281.1249588000356,281.2391020000214,282.0379723000806,282.02199270005804,,,,,,,,,,,,,,,,,,,,,,,,,,,,,,,,,,,282.02231870009564,282.0379723000806,282.0379723000806,282.58825690008234,r,1.0,0.5337593000149354,,,,,sub-213,1,stroop_test,60.18541925019859,
,,,,61.0,1.0,5.0,,,,,,,,,,,,,blau,red,r,0.0,r,1.0,0.3679299000650644,,,,,,,,,,5.0,1.0,61.0,4.0,282.6039642000105,,,,,,,,,,,,,,,,,282.5885124000488,283.8035126000177,284.61899330001324,284.6027790000662,,,,,,,,,,,,,,,,,,,,,,,,,,,,,,,,,,,284.60468109999783,284.61899330001324,284.61899330001324,285.00260420003906,r,1.0,0.3679299000650644,,,,,sub-213,1,stroop_test,60.18541925019859,
,,,,62.0,2.0,5.0,,,,,,,,,,,,,rot,red,r,1.0,r,1.0,0.3667564000934362,,,,,,,,,,5.0,2.0,62.0,0.0,285.01858270005323,,,,,,,,,,,,,,,,,285.0028489000397,285.81748190009966,286.61686810001265,286.60066980007105,,,,,,,,,,,,,,,,,,,,,,,,,,,,,,,,,,,286.60255690000486,286.61686810001265,286.61686810001265,286.98482920008246,r,1.0,0.3667564000934362,,,,,sub-213,1,stroop_test,60.18541925019859,
,,,,63.0,3.0,5.0,,,,,,,,,,,,,blau,yellow,g,0.0,g,1.0,0.6692178000230342,,,,,,,,,,5.0,3.0,63.0,7.0,287.00005090003833,,,,,,,,,,,,,,,,,286.98506430001,287.3501794000622,288.165685200016,288.149396300083,,,,,,,,,,,,,,,,,,,,,,,,,,,,,,,,,,,288.1516620001057,288.165685200016,288.165685200016,288.8497859000927,g,1.0,0.6692178000230342,,,,,sub-213,1,stroop_test,60.18541925019859,
,,,,64.0,4.0,5.0,,,,,,,,,,,,,gelb,yellow,g,1.0,g,1.0,0.6077596999239177,,,,,,,,,,5.0,4.0,64.0,10.0,288.8653102000244,,,,,,,,,,,,,,,,,288.8501657000743,288.96504030004144,289.76462990010623,289.74831660010386,,,,,,,,,,,,,,,,,,,,,,,,,,,,,,,,,,,289.75307380000595,289.76462990010623,289.76462990010623,290.38120850001,g,1.0,0.6077596999239177,,,,,sub-213,1,stroop_test,60.18541925019859,
,,,,65.0,5.0,5.0,,,,,,,,,,,,,gelb,yellow,g,1.0,g,1.0,0.3804795999312773,,,,,,,,,,5.0,5.0,65.0,11.0,290.39729230001103,,,,,,,,,,,,,,,,,290.3815548000857,291.5955990999937,292.3953136000782,292.37968100002035,,,,,,,,,,,,,,,,,,,,,,,,,,,,,,,,,,,292.3805179001065,292.3953136000782,292.3953136000782,292.77929360000417,g,1.0,0.3804795999312773,,,,,sub-213,1,stroop_test,60.18541925019859,
,,,,66.0,6.0,5.0,,,,,,,,,,,,,blau,blue,b,1.0,b,1.0,0.5156048000790179,,,,,,,,,,5.0,6.0,66.0,5.0,292.79456960002426,,,,,,,,,,,,,,,,,292.7796876000939,293.14417720003985,293.94384640001226,293.9283395000966,,,,,,,,,,,,,,,,,,,,,,,,,,,,,,,,,,,293.9327164000133,293.94384640001226,293.94384640001226,294.4612298000138,b,1.0,0.5156048000790179,,,,,sub-213,1,stroop_test,60.18541925019859,
,,,,67.0,7.0,5.0,,,,,,,,,,,,,gelb,red,r,0.0,r,1.0,0.8386445000069216,,,,,,,,,,5.0,7.0,67.0,8.0,294.4762560999952,,,,,,,,,,,,,,,,,294.4615717000561,294.5761577000376,295.37560740008485,295.35930500004906,,,,,,,,,,,,,,,,,,,,,,,,,,,,,,,,,,,295.3615372000495,295.37560740008485,295.37560740008485,296.22557410004083,r,1.0,0.8386445000069216,,,,,sub-213,1,stroop_test,60.18541925019859,
,,,,68.0,8.0,5.0,,,,,,,,,,,,,rot,blue,b,0.0,b,1.0,0.8154193999944255,,,,,,,,,,5.0,8.0,68.0,2.0,296.24115840008017,,,,,,,,,,,,,,,,,296.22583510004915,296.57453380001243,297.3736587000312,297.3579394000117,,,,,,,,,,,,,,,,,,,,,,,,,,,,,,,,,,,297.36007960001007,297.3736587000312,297.3736587000312,298.1931064000819,b,1.0,0.8154193999944255,,,,,sub-213,1,stroop_test,60.18541925019859,
,,,,69.0,9.0,5.0,,,,,,,,,,,,,rot,yellow,g,0.0,g,1.0,0.6596992000704631,,,,,,,,,,5.0,9.0,69.0,3.0,298.2062988000689,,,,,,,,,,,,,,,,,298.19402240007184,298.30636240006424,299.12188450002577,299.10588160005864,,,,,,,,,,,,,,,,,,,,,,,,,,,,,,,,,,,299.1062110000057,299.12188450002577,299.12188450002577,299.789102400071,g,1.0,0.6596992000704631,,,,,sub-213,1,stroop_test,60.18541925019859,
,,,,70.0,10.0,5.0,,,,,,,,,,,,,blau,blue,b,1.0,b,1.0,1.0066546000307426,,,,,,,,,,5.0,10.0,70.0,6.0,299.8045708000427,,,,,,,,,,,,,,,,,299.7894395000767,301.0041187000461,301.80334250000305,301.78774729999714,,,,,,,,,,,,,,,,,,,,,,,,,,,,,,,,,,,301.7937552999938,301.80334250000305,301.80334250000305,302.8205632000463,b,1.0,1.0066546000307426,,,,,sub-213,1,stroop_test,60.18541925019859,
,,,,71.0,11.0,5.0,,,,,,,,,,,,,gelb,blue,b,0.0,b,1.0,0.5495747999520972,,,,,,,,,,5.0,11.0,71.0,9.0,302.8352639999939,,,,,,,,,,,,,,,,,302.82116650009993,302.9350954000838,303.7342517999932,303.718583400012,,,,,,,,,,,,,,,,,,,,,,,,,,,,,,,,,,,303.7229267000221,303.7342517999932,303.7342517999932,304.28621640009806,b,1.0,0.5495747999520972,,,,,sub-213,1,stroop_test,60.18541925019859,
,,,,72.0,0.0,6.0,,,,,,,,,,,,,blau,yellow,g,0.0,g,1.0,0.9552158999722452,,,,,,,,,,6.0,0.0,72.0,7.0,304.3007508000592,,,,,,,,,,,,,,,,,304.286942500039,305.09994530002587,305.8993307000492,305.88415570009965,,,,,,,,,,,,,,,,,,,,,,,,,,,,,,,,,,,305.8903234000318,305.8993307000492,305.8993307000492,306.8679467000766,g,1.0,0.9552158999722452,,,,,sub-213,1,stroop_test,60.18541925019859,
,,,,73.0,1.0,6.0,,,,,,,,,,,,,rot,red,r,1.0,r,1.0,0.5931391000049189,,,,,,,,,,6.0,1.0,73.0,0.0,306.8817781000398,,,,,,,,,,,,,,,,,306.86883500008844,307.2313984000357,308.0320326000219,308.01585720002186,,,,,,,,,,,,,,,,,,,,,,,,,,,,,,,,,,,308.0232608000515,308.0320326000219,308.0320326000219,308.6306449000258,r,1.0,0.5931391000049189,,,,,sub-213,1,stroop_test,60.18541925019859,
,,,,74.0,2.0,6.0,,,,,,,,,,,,,rot,blue,b,0.0,b,1.0,0.4435254000127315,,,,,,,,,,6.0,2.0,74.0,2.0,308.64648550003767,,,,,,,,,,,,,,,,,308.6309137000935,309.8456693000626,310.6445826001,310.62878430006094,,,,,,,,,,,,,,,,,,,,,,,,,,,,,,,,,,,310.6291335000424,310.6445826001,310.6445826001,311.09655760007445,b,1.0,0.4435254000127315,,,,,sub-213,1,stroop_test,60.18541925019859,
,,,,75.0,3.0,6.0,,,,,,,,,,,,,blau,blue,b,1.0,b,1.0,0.433995799976401,,,,,,,,,,6.0,3.0,75.0,5.0,311.1108407001011,,,,,,,,,,,,,,,,,311.0971447000047,311.4603706001071,312.2602117001079,312.2441926000174,,,,,,,,,,,,,,,,,,,,,,,,,,,,,,,,,,,312.24771430005785,312.2602117001079,312.2602117001079,312.7107099000132,b,1.0,0.433995799976401,,,,,sub-213,1,stroop_test,60.18541925019859,
,,,,76.0,4.0,6.0,,,,,,,,,,,,,gelb,blue,b,0.0,b,1.0,0.4126750000286847,,,,,,,,,,6.0,4.0,76.0,9.0,312.7256940000225,,,,,,,,,,,,,,,,,312.7111282000551,313.0760014000116,313.8750440001022,313.85911130008753,,,,,,,,,,,,,,,,,,,,,,,,,,,,,,,,,,,313.8617237000726,313.8750440001022,313.8750440001022,314.29234720009845,b,1.0,0.4126750000286847,,,,,sub-213,1,stroop_test,60.18541925019859,
,,,,77.0,5.0,6.0,,,,,,,,,,,,,rot,yellow,g,0.0,g,1.0,0.6231066000182182,,,,,,,,,,6.0,5.0,77.0,3.0,314.3078280000482,,,,,,,,,,,,,,,,,314.2926108000101,315.1074310000986,315.9066104000667,315.8905823000241,,,,,,,,,,,,,,,,,,,,,,,,,,,,,,,,,,,315.8928762000287,315.9066104000667,315.9066104000667,316.54008360009175,g,1.0,0.6231066000182182,,,,,sub-213,1,stroop_test,60.18541925019859,
,,,,78.0,6.0,6.0,,,,,,,,,,,,,gelb,yellow,g,1.0,g,1.0,0.5860713000874966,,,,,,,,,,6.0,6.0,78.0,10.0,316.55553290003445,,,,,,,,,,,,,,,,,316.5403570000781,317.754825900076,318.570389200002,318.5541696000146,,,,,,,,,,,,,,,,,,,,,,,,,,,,,,,,,,,318.5564280000981,318.570389200002,318.570389200002,319.17068340000696,g,1.0,0.5860713000874966,,,,,sub-213,1,stroop_test,60.18541925019859,
,,,,79.0,7.0,6.0,,,,,,,,,,,,,gelb,yellow,g,1.0,g,1.0,0.4882940000388771,,,,,,,,,,6.0,7.0,79.0,11.0,319.18640960007906,,,,,,,,,,,,,,,,,319.17092330008745,319.53608390002046,320.3353650000645,320.3191482000984,,,,,,,,,,,,,,,,,,,,,,,,,,,,,,,,,,,320.3194910000311,320.3353650000645,320.3353650000645,320.8358969000401,g,1.0,0.4882940000388771,,,,,sub-213,1,stroop_test,60.18541925019859,
,,,,80.0,8.0,6.0,,,,,,,,,,,,,blau,blue,b,1.0,b,1.0,0.5251823000144213,,,,,,,,,,6.0,8.0,80.0,6.0,320.85181310004555,,,,,,,,,,,,,,,,,320.836127000046,321.1852409000276,322.00066710007377,321.9846778000938,,,,,,,,,,,,,,,,,,,,,,,,,,,,,,,,,,,321.98729050008114,322.00066710007377,322.00066710007377,322.53472640004475,b,1.0,0.5251823000144213,,,,,sub-213,1,stroop_test,60.18541925019859,
,,,,81.0,9.0,6.0,,,,,,,,,,,,,rot,red,r,1.0,r,1.0,0.3421495000366121,,,,,,,,,,6.0,9.0,81.0,1.0,322.54988550010603,,,,,,,,,,,,,,,,,322.53501049999613,323.35003640002105,324.1655523000518,324.14921920001507,,,,,,,,,,,,,,,,,,,,,,,,,,,,,,,,,,,324.15158120007254,324.1655523000518,324.1655523000518,324.5158507000888,r,1.0,0.3421495000366121,,,,,sub-213,1,stroop_test,60.18541925019859,
,,,,82.0,10.0,6.0,,,,,,,,,,,,,gelb,red,r,0.0,r,1.0,0.3480324000120163,,,,,,,,,,6.0,10.0,82.0,8.0,324.5316010999959,,,,,,,,,,,,,,,,,324.51624270004686,325.73051310004666,326.53001890005544,326.51406190008856,,,,,,,,,,,,,,,,,,,,,,,,,,,,,,,,,,,326.5186927000759,326.53001890005544,326.53001890005544,326.88213660009205,r,1.0,0.3480324000120163,,,,,sub-213,1,stroop_test,60.18541925019859,
,,,,83.0,11.0,6.0,,,,,,,,,,,,,blau,red,r,0.0,r,1.0,0.4003907000878826,,,,,,,,,,6.0,11.0,83.0,4.0,326.89625990006607,,,,,,,,,,,,,,,,,326.8828368000686,327.2458778000437,328.0451801000163,328.0300466000336,,,,,,,,,,,,,,,,,,,,,,,,,,,,,,,,,,,328.03653050004505,328.0451801000163,328.0451801000163,328.4486922000069,r,1.0,0.4003907000878826,,,,,sub-213,1,stroop_test,60.18541925019859,
,,,,84.0,0.0,7.0,,,,,,,,,,,,,blau,red,r,0.0,r,1.0,0.3707040000008419,,,,,,,,,,7.0,0.0,84.0,4.0,328.46149340004195,,,,,,,,,,,,,,,,,328.4496230999939,328.56120570003986,329.3602109000785,329.34416620002594,,,,,,,,,,,,,,,,,,,,,,,,,,,,,,,,,,,329.3445150000043,329.3602109000785,329.3602109000785,329.74411750002764,r,1.0,0.3707040000008419,,,,,sub-213,1,stroop_test,60.18541925019859,
,,,,85.0,1.0,7.0,,,,,,,,,,,,,blau,blue,b,1.0,b,1.0,0.4883466999744996,,,,,,,,,,7.0,1.0,85.0,5.0,329.75983740005177,,,,,,,,,,,,,,,,,329.7443650000496,330.9587106000399,331.75835750007536,331.7418789000949,,,,,,,,,,,,,,,,,,,,,,,,,,,,,,,,,,,331.742189600016,331.75835750007536,331.75835750007536,332.2591931000352,b,1.0,0.4883466999744996,,,,,sub-213,1,stroop_test,60.18541925019859,
,,,,86.0,2.0,7.0,,,,,,,,,,,,,blau,blue,b,1.0,b,1.0,0.5488453999860212,,,,,,,,,,7.0,2.0,86.0,6.0,332.27417480002623,,,,,,,,,,,,,,,,,332.2596477000043,333.47374150005635,334.27278690005187,334.2577021000907,,,,,,,,,,,,,,,,,,,,,,,,,,,,,,,,,,,334.25894770002924,334.27278690005187,334.27278690005187,334.8254080000333,b,1.0,0.5488453999860212,,,,,sub-213,1,stroop_test,60.18541925019859,
,,,,87.0,3.0,7.0,,,,,,,,,,,,,rot,red,r,1.0,r,1.0,0.5660847999388352,,,,,,,,,,7.0,3.0,87.0,0.0,334.8389238000382,,,,,,,,,,,,,,,,,334.8263478000881,335.18864659999963,335.9875755000394,335.9720820999937,,,,,,,,,,,,,,,,,,,,,,,,,,,,,,,,,,,335.9770451000659,335.9875755000394,335.9875755000394,336.5552527999971,r,1.0,0.5660847999388352,,,,,sub-213,1,stroop_test,60.18541925019859,
,,,,88.0,4.0,7.0,,,,,,,,,,,,,rot,blue,b,0.0,b,1.0,0.5770321999443695,,,,,,,,,,7.0,4.0,88.0,2.0,336.5701265000971,,,,,,,,,,,,,,,,,336.55559920007363,337.36972060007975,338.16924880002625,338.15332160005346,,,,,,,,,,,,,,,,,,,,,,,,,,,,,,,,,,,338.1541269000154,338.16924880002625,338.16924880002625,338.75286970008165,b,1.0,0.5770321999443695,,,,,sub-213,1,stroop_test,60.18541925019859,
,,,,89.0,5.0,7.0,,,,,,,,,,,,,rot,red,r,1.0,r,1.0,0.5787203999934718,,,,,,,,,,7.0,5.0,89.0,1.0,338.7684715000214,,,,,,,,,,,,,,,,,338.7532199000707,338.8520099000307,339.6508775000693,339.6349093000172,,,,,,,,,,,,,,,,,,,,,,,,,,,,,,,,,,,339.6352334000403,339.6508775000693,339.6508775000693,340.235431100009,r,1.0,0.5787203999934718,,,,,sub-213,1,stroop_test,60.18541925019859,
,,,,90.0,6.0,7.0,,,,,,,,,,,,,gelb,blue,b,0.0,b,1.0,0.6583033000351861,,,,,,,,,,7.0,6.0,90.0,9.0,340.2505990000209,,,,,,,,,,,,,,,,,340.2359129000688,341.44918630004395,342.248610700015,342.23233300005086,,,,,,,,,,,,,,,,,,,,,,,,,,,,,,,,,,,342.2360516000772,342.248610700015,342.248610700015,342.9161077000899,b,1.0,0.6583033000351861,,,,,sub-213,1,stroop_test,60.18541925019859,
,,,,91.0,7.0,7.0,,,,,,,,,,,,,gelb,yellow,g,1.0,g,1.0,0.6596809999318793,,,,,,,,,,7.0,7.0,91.0,10.0,342.9309830000857,,,,,,,,,,,,,,,,,342.9165689999936,343.2807632000185,344.0798451000592,344.06399400008377,,,,,,,,,,,,,,,,,,,,,,,,,,,,,,,,,,,344.06436300009955,344.0798451000592,344.0798451000592,344.7469603000209,g,1.0,0.6596809999318793,,,,,sub-213,1,stroop_test,60.18541925019859,
,,,,92.0,8.0,7.0,,,,,,,,,,,,,gelb,red,r,0.0,r,1.0,0.6688998999306932,,,,,,,,,,7.0,8.0,92.0,8.0,344.76246560004074,,,,,,,,,,,,,,,,,344.7472441000864,344.86292560002767,345.6783060000744,345.6621170000872,,,,,,,,,,,,,,,,,,,,,,,,,,,,,,,,,,,345.6624551001005,345.6783060000744,345.6783060000744,346.3618937000865,r,1.0,0.6688998999306932,,,,,sub-213,1,stroop_test,60.18541925019859,
,,,,93.0,9.0,7.0,,,,,,,,,,,,,gelb,yellow,g,1.0,g,1.0,0.6420142999850214,,,,,,,,,,7.0,9.0,93.0,11.0,346.3776008000132,,,,,,,,,,,,,,,,,346.36213320004754,347.5764790000394,348.3759570000693,348.36162900005,,,,,,,,,,,,,,,,,,,,,,,,,,,,,,,,,,,348.36283220001496,348.3759570000693,348.3759570000693,349.0265965000726,g,1.0,0.6420142999850214,,,,,sub-213,1,stroop_test,60.18541925019859,
,,,,94.0,10.0,7.0,,,,,,,,,,,,,blau,yellow,g,0.0,g,1.0,1.0981567999115214,,,,,,,,,,7.0,10.0,94.0,7.0,349.0417984999949,,,,,,,,,,,,,,,,,349.02694520005025,349.1419678000966,349.94138700002804,349.9252048000926,,,,,,,,,,,,,,,,,,,,,,,,,,,,,,,,,,,349.92811410001013,349.94138700002804,349.94138700002804,351.042257299996,g,1.0,1.0981567999115214,,,,,sub-213,1,stroop_test,60.18541925019859,
,,,,95.0,11.0,7.0,,,,,,,,,,,,,rot,yellow,g,0.0,g,1.0,0.6441559999948367,,,,,,,,,,7.0,11.0,95.0,3.0,351.0570849000942,,,,,,,,,,,,,,,,,351.0427845000522,351.85616200009827,352.6552436000202,352.6390929000918,,,,,,,,,,,,,,,,,,,,,,,,,,,,,,,,,,,352.64123520010617,352.6552436000202,352.6552436000202,353.30781750008464,g,1.0,0.6441559999948367,,,,,sub-213,1,stroop_test,60.18541925019859,
,,,,96.0,0.0,8.0,,,,,,,,,,,,,gelb,blue,b,0.0,b,1.0,0.449288300005719,,,,,,,,,,8.0,0.0,96.0,9.0,353.3218254999956,,,,,,,,,,,,,,,,,353.3087114000228,353.4215801000828,354.2371203000657,354.2207751000533,,,,,,,,,,,,,,,,,,,,,,,,,,,,,,,,,,,354.22325200005434,354.2371203000657,354.2371203000657,354.6878302000696,b,1.0,0.449288300005719,,,,,sub-213,1,stroop_test,60.18541925019859,
,,,,97.0,1.0,8.0,,,,,,,,,,,,,rot,red,r,1.0,r,1.0,0.5465382999973372,,,,,,,,,,8.0,1.0,97.0,0.0,354.7033261000179,,,,,,,,,,,,,,,,,354.6881295000203,355.90253870002925,356.7017030999996,356.68544870009646,,,,,,,,,,,,,,,,,,,,,,,,,,,,,,,,,,,356.68753320002,356.7017030999996,356.7017030999996,357.2539647000376,r,1.0,0.5465382999973372,,,,,sub-213,1,stroop_test,60.18541925019859,
,,,,98.0,2.0,8.0,,,,,,,,,,,,,rot,red,r,1.0,r,1.0,0.607196299941279,,,,,,,,,,8.0,2.0,98.0,1.0,357.2675652001053,,,,,,,,,,,,,,,,,357.2547596000368,358.06681079999544,358.86640610010363,358.8503105000127,,,,,,,,,,,,,,,,,,,,,,,,,,,,,,,,,,,358.8506453000009,358.86640610010363,358.86640610010363,359.483417200041,r,1.0,0.607196299941279,,,,,sub-213,1,stroop_test,60.18541925019859,
,,,,99.0,3.0,8.0,,,,,,,,,,,,,blau,red,r,0.0,r,1.0,0.7483161001000553,,,,,,,,,,8.0,3.0,99.0,4.0,359.4992324000923,,,,,,,,,,,,,,,,,359.48369160003494,359.59881760005374,360.3979489000049,360.3820493000094,,,,,,,,,,,,,,,,,,,,,,,,,,,,,,,,,,,360.3840843000216,360.3979489000049,360.3979489000049,361.148313300102,r,1.0,0.7483161001000553,,,,,sub-213,1,stroop_test,60.18541925019859,
,,,,100.0,4.0,8.0,,,,,,,,,,,,,rot,blue,b,0.0,b,1.0,0.7752628000453115,,,,,,,,,,8.0,4.0,100.0,2.0,361.16398240008857,,,,,,,,,,,,,,,,,361.1485787000274,361.513709400082,362.3134303000989,362.2976078001084,,,,,,,,,,,,,,,,,,,,,,,,,,,,,,,,,,,362.304633700056,362.3134303000989,362.3134303000989,363.0962257999927,b,1.0,0.7752628000453115,,,,,sub-213,1,stroop_test,60.18541925019859,
,,,,101.0,5.0,8.0,,,,,,,,,,,,,gelb,yellow,g,1.0,g,1.0,0.576412900001742,,,,,,,,,,8.0,5.0,101.0,11.0,363.1119934000308,,,,,,,,,,,,,,,,,363.0964536000975,363.9117733000312,364.7276822000276,364.711404300062,,,,,,,,,,,,,,,,,,,,,,,,,,,,,,,,,,,364.7175394000951,364.7276822000276,364.7276822000276,365.3109327000566,g,1.0,0.576412900001742,,,,,sub-213,1,stroop_test,60.18541925019859,
,,,,102.0,6.0,8.0,,,,,,,,,,,,,gelb,yellow,g,1.0,g,1.0,0.484663899987936,,,,,,,,,,8.0,6.0,102.0,10.0,365.3267261000583,,,,,,,,,,,,,,,,,365.3111673000967,365.6599487001076,366.4591755000874,366.4430479001021,,,,,,,,,,,,,,,,,,,,,,,,,,,,,,,,,,,366.4435125000309,366.4591755000874,366.4591755000874,366.9613431000616,g,1.0,0.484663899987936,,,,,sub-213,1,stroop_test,60.18541925019859,
,,,,103.0,7.0,8.0,,,,,,,,,,,,,blau,yellow,g,0.0,g,1.0,0.4606047000270337,,,,,,,,,,8.0,7.0,103.0,7.0,366.9756310000084,,,,,,,,,,,,,,,,,366.9621893001022,367.3252099000383,368.1409760999959,368.12459450005554,,,,,,,,,,,,,,,,,,,,,,,,,,,,,,,,,,,368.1265317000216,368.1409760999959,368.1409760999959,368.6080084000714,g,1.0,0.4606047000270337,,,,,sub-213,1,stroop_test,60.18541925019859,
,,,,104.0,8.0,8.0,,,,,,,,,,,,,blau,blue,b,1.0,b,1.0,0.5757711000042036,,,,,,,,,,8.0,8.0,104.0,5.0,368.62348680000287,,,,,,,,,,,,,,,,,368.6082695000805,369.4228182000807,370.2222204999998,370.2060304000042,,,,,,,,,,,,,,,,,,,,,,,,,,,,,,,,,,,370.2064543000888,370.2222204999998,370.2222204999998,370.8065738000441,b,1.0,0.5757711000042036,,,,,sub-213,1,stroop_test,60.18541925019859,
,,,,105.0,9.0,8.0,,,,,,,,,,,,,blau,blue,b,1.0,b,1.0,0.4438086999580264,,,,,,,,,,8.0,9.0,105.0,6.0,370.821735000005,,,,,,,,,,,,,,,,,370.8070486000506,371.1715182000771,371.970814100001,371.955928600044,,,,,,,,,,,,,,,,,,,,,,,,,,,,,,,,,,,371.9571515000425,371.970814100001,371.970814100001,372.4224439000245,b,1.0,0.4438086999580264,,,,,sub-213,1,stroop_test,60.18541925019859,
,,,,106.0,10.0,8.0,,,,,,,,,,,,,gelb,red,r,0.0,r,1.0,0.6351233000168577,,,,,,,,,,8.0,10.0,106.0,8.0,372.43708460009657,,,,,,,,,,,,,,,,,372.4230508001056,372.5365176000632,373.3360573000973,373.3210878000828,,,,,,,,,,,,,,,,,,,,,,,,,,,,,,,,,,,373.32840900006704,373.3360573000973,373.3360573000973,373.9861612000968,r,1.0,0.6351233000168577,,,,,sub-213,1,stroop_test,60.18541925019859,
,,,,107.0,11.0,8.0,,,,,,,,,,,,,rot,yellow,g,0.0,g,1.0,0.7926649000728503,,,,,,,,,,8.0,11.0,107.0,3.0,374.0019796000561,,,,,,,,,,,,,,,,,373.9864000000525,374.351498400094,375.1512855000328,375.1358211000916,,,,,,,,,,,,,,,,,,,,,,,,,,,,,,,,,,,375.1428573000012,375.1512855000328,375.1512855000328,375.9511444000527,g,1.0,0.7926649000728503,,,,,sub-213,1,stroop_test,60.18541925019859,
,,,,108.0,0.0,9.0,,,,,,,,,,,,,gelb,red,r,0.0,r,1.0,0.9227703000651672,,,,,,,,,,9.0,0.0,108.0,8.0,375.9666536001023,,,,,,,,,,,,,,,,,375.9514649000485,377.1661554001039,377.9649793000426,377.9494723000098,,,,,,,,,,,,,,,,,,,,,,,,,,,,,,,,,,,377.95787460007705,377.9649793000426,377.9649793000426,378.89865030010697,r,1.0,0.9227703000651672,,,,,sub-213,1,stroop_test,60.18541925019859,
,,,,109.0,1.0,9.0,,,,,,,,,,,,,blau,blue,b,1.0,b,1.0,0.5217033999506384,,,,,,,,,,9.0,1.0,109.0,6.0,378.9139879000141,,,,,,,,,,,,,,,,,378.89892430009786,379.7132577000884,380.5127955999924,380.4966272000456,,,,,,,,,,,,,,,,,,,,,,,,,,,,,,,,,,,380.500206500059,380.5127955999924,380.5127955999924,381.0466232000617,b,1.0,0.5217033999506384,,,,,sub-213,1,stroop_test,60.18541925019859,
,,,,110.0,2.0,9.0,,,,,,,,,,,,,blau,blue,b,1.0,b,1.0,0.5096953000174835,,,,,,,,,,9.0,2.0,110.0,5.0,381.061929800082,,,,,,,,,,,,,,,,,381.0469340001,381.41172630002256,382.2112110001035,382.1959427000256,,,,,,,,,,,,,,,,,,,,,,,,,,,,,,,,,,,382.19702900003176,382.2112110001035,382.2112110001035,382.7278691000538,b,1.0,0.5096953000174835,,,,,sub-213,1,stroop_test,60.18541925019859,
,,,,111.0,3.0,9.0,,,,,,,,,,,,,blau,yellow,g,0.0,g,1.0,0.6701781000010669,,,,,,,,,,9.0,3.0,111.0,7.0,382.7435690000421,,,,,,,,,,,,,,,,,382.7281328000827,383.5428614000557,384.3421925000148,384.32609280000906,,,,,,,,,,,,,,,,,,,,,,,,,,,,,,,,,,,384.3264567001024,384.3421925000148,384.3421925000148,385.0261314000236,g,1.0,0.6701781000010669,,,,,sub-213,1,stroop_test,60.18541925019859,
,,,,112.0,4.0,9.0,,,,,,,,,,,,,blau,red,r,0.0,r,1.0,0.4676727000623941,,,,,,,,,,9.0,4.0,112.0,4.0,385.0416851000628,,,,,,,,,,,,,,,,,385.02644790010527,385.1416361000156,385.941107599996,385.9244235000806,,,,,,,,,,,,,,,,,,,,,,,,,,,,,,,,,,,385.9247624001,385.941107599996,385.941107599996,386.4246943000471,r,1.0,0.4676727000623941,,,,,sub-213,1,stroop_test,60.18541925019859,
,,,,113.0,5.0,9.0,,,,,,,,,,,,,rot,yellow,g,0.0,g,1.0,0.5920875000301749,,,,,,,,,,9.0,5.0,113.0,3.0,386.44043980003335,,,,,,,,,,,,,,,,,386.4250428000232,387.23963920003735,388.0554069000064,388.0394565000897,,,,,,,,,,,,,,,,,,,,,,,,,,,,,,,,,,,388.04135549999774,388.0554069000064,388.0554069000064,388.6554477000609,g,1.0,0.5920875000301749,,,,,sub-213,1,stroop_test,60.18541925019859,
,,,,114.0,6.0,9.0,,,,,,,,,,,,,gelb,yellow,g,1.0,g,1.0,0.5302243999904022,,,,,,,,,,9.0,6.0,114.0,11.0,388.67138509999495,,,,,,,,,,,,,,,,,388.6556882000296,389.471099400078,390.2701758000767,390.25469500001054,,,,,,,,,,,,,,,,,,,,,,,,,,,,,,,,,,,390.2605863000499,390.2701758000767,390.2701758000767,390.8035377000924,g,1.0,0.5302243999904022,,,,,sub-213,1,stroop_test,60.18541925019859,
,,,,115.0,7.0,9.0,,,,,,,,,,,,,rot,blue,b,0.0,b,1.0,0.6511972000589594,,,,,,,,,,9.0,7.0,115.0,2.0,390.8193466000957,,,,,,,,,,,,,,,,,390.8037811000832,392.0182922000531,392.81750570004806,392.8013130000327,,,,,,,,,,,,,,,,,,,,,,,,,,,,,,,,,,,392.8034705000464,392.81750570004806,392.81750570004806,393.4844486000948,b,1.0,0.6511972000589594,,,,,sub-213,1,stroop_test,60.18541925019859,
,,,,116.0,8.0,9.0,,,,,,,,,,,,,rot,red,r,1.0,r,1.0,0.6723856000462547,,,,,,,,,,9.0,8.0,116.0,1.0,393.5004134000046,,,,,,,,,,,,,,,,,393.4847104999935,393.8334056000458,394.6325449000578,394.6167074000696,,,,,,,,,,,,,,,,,,,,,,,,,,,,,,,,,,,394.6170195000013,394.6325449000578,394.6325449000578,395.316203400027,r,1.0,0.6723856000462547,,,,,sub-213,1,stroop_test,60.18541925019859,
,,,,117.0,9.0,9.0,,,,,,,,,,,,,rot,red,r,1.0,r,1.0,0.5138357999967411,,,,,,,,,,9.0,9.0,117.0,0.0,395.3318462000461,,,,,,,,,,,,,,,,,395.3164276001044,395.4317801001016,396.2314921000507,396.21504959999584,,,,,,,,,,,,,,,,,,,,,,,,,,,,,,,,,,,396.2154437000863,396.2314921000507,396.2314921000507,396.7482207000721,r,1.0,0.5138357999967411,,,,,sub-213,1,stroop_test,60.18541925019859,
,,,,118.0,10.0,9.0,,,,,,,,,,,,,gelb,blue,b,0.0,b,1.0,0.5648401000071317,,,,,,,,,,9.0,10.0,118.0,9.0,396.7637795000337,,,,,,,,,,,,,,,,,396.7485032000113,397.1136639000615,397.91311620001215,397.8972009000136,,,,,,,,,,,,,,,,,,,,,,,,,,,,,,,,,,,397.9009611000074,397.91311620001215,397.91311620001215,398.4799802000634,b,1.0,0.5648401000071317,,,,,sub-213,1,stroop_test,60.18541925019859,
,,,,119.0,11.0,9.0,,,,,,,,,,,,,gelb,yellow,g,1.0,g,1.0,0.3652747999876737,,,,,,,,,,9.0,11.0,119.0,10.0,398.49572130001616,,,,,,,,,,,,,,,,,398.4802020000061,399.2952331000706,400.1110546001,400.09480389999226,,,,,,,,,,,,,,,,,,,,,,,,,,,,,,,,,,,400.0951160000404,400.1110546001,400.1110546001,400.4804714000784,g,1.0,0.3652747999876737,,,,,sub-213,1,stroop_test,60.18541925019859,
,,,,,,,,,,,,,,,,,,,,,,,,,,,,,,,,,,,,,,,,,,,,,,,,,,,,,,,,,,,,,,,,,,,,,,,,,,,,,,,,,,,,,,,,,,,,,,,,,,,,,,400.48089760006405,400.49413310003,405.48948079999536,sub-213,1,stroop_test,60.18541925019859,
