direction,corrAns,randomInstr,practice_trials.thisRepN,practice_trials.thisTrialN,practice_trials.thisN,practice_trials.thisIndex,instr_trials.thisRepN,instr_trials.thisTrialN,instr_trials.thisN,instr_trials.thisIndex,test_trials.thisRepN,test_trials.thisTrialN,test_trials.thisN,test_trials.thisIndex,thisRow.t,notes,general_instruction.started,textGeneralInstr.started,respGeneralInstr.started,general_instruction.stopped,respGeneralInstr.keys,respGeneralInstr.rt,respGeneralInstr.duration,ITI.started,fixcross.started,fixcross.stopped,ITI.stopped,dots.started,backgroundDots.started,stimulusDots.started,respDots.started,stimulusDots.stopped,dots.stopped,respDots.keys,respDots.corr,respDots.rt,respDots.duration,feedback.started,textFeedback.started,feedback.stopped,textFeedback.stopped,info.started,textInfo.started,keyRespInfo.started,info.stopped,keyRespInfo.keys,keyRespInfo.rt,keyRespInfo.duration,test_instruction.started,textTestInstr.started,respTestInstr.started,test_instruction.stopped,respTestInstr.keys,respTestInstr.rt,respTestInstr.duration,random_instruction.started,textRandomInstr.started,respRandomInstr.started,random_instruction.stopped,respRandomInstr.keys,respRandomInstr.rt,respRandomInstr.duration,goodbye.started,textGoodbye.started,goodbye.stopped,participant,session,expName,frameRate,Unnamed: 73
,,,,,,,,,,,,,,,,,0.0125311000156216,0.0248093999980483,0.0248093999980483,696.8356914000178,space,718.6271253000014,,,,,,,,,,,,,,,,,,,,,,,,,,,,,,,,,,,,,,,,,,,,sub-100,1.0,random_dot,59.77654332221648,
left,left,,0.0,0.0,0.0,0.0,,,,,,,,,696.862789900013,,,,,,,,,696.8556911000051,698.0509158000059,698.8531662000169,698.8351520000142,698.8351875999942,698.8531662000169,698.8531662000169,698.8531662000169,703.834285399993,707.4839088000008,right,0.0,30.44293779999134,,707.4855013000197,707.5129863000184,707.9998337000143,,,,,,,,,,,,,,,,,,,,,,,,,,sub-100,1.0,random_dot,59.77654332221648,
right,right,,0.0,1.0,1.0,1.0,,,,,,,,,708.0167353000143,,,,,,,,,708.0002149000065,708.0995273000153,708.8998131999979,708.8836426000053,708.8836631000158,708.8998131999979,708.8998131999979,708.8998131999979,713.8986097000015,715.2171082000132,right,1.0,28.13239859999157,,715.2175864000164,715.236301900004,715.7318276000151,,,,,,,,,,,,,,,,,,,,,,,,,,sub-100,1.0,random_dot,59.77654332221648,
right,right,,1.0,0.0,2.0,1.0,,,,,,,,,715.7485445000057,,,,,,,,,715.732222199993,716.9318595000077,717.7312256000005,717.7158801000041,717.71590130002,717.7312256000005,717.7312256000005,717.7312256000005,722.730922000017,723.8987055000034,right,1.0,27.980629900004715,,723.8992446000047,723.9138410000014,724.3979459000111,724.4141803999955,,,,,,,,,,,,,,,,,,,,,,,,,sub-100,1.0,random_dot,59.77654332221648,
left,left,,1.0,1.0,3.0,0.0,,,,,,,,,724.4141803999955,,,,,,,,,724.3983246000134,725.6139665000082,726.4140909000125,726.3983685999992,726.3984072000021,726.4140909000125,726.4140909000125,726.4140909000125,,730.0979220000154,left,1.0,25.49656770000001,,730.0986007000029,730.1129870000004,730.5968910999945,730.6133707000117,,,,,,,,,,,,,,,,,,,,,,,,,sub-100,1.0,random_dot,59.77654332221648,
right,right,,2.0,0.0,4.0,1.0,,,,,,,,,730.6133707000117,,,,,,,,,730.5973628000065,730.7132739000081,731.5128431000048,731.4975107999926,731.4975311000017,731.5128431000048,731.5128431000048,731.5128431000048,,733.1645671000006,right,1.0,23.45823260000907,,733.165124399995,733.179360900016,733.6637725000037,733.679064099997,,,,,,,,,,,,,,,,,,,,,,,,,sub-100,1.0,random_dot,59.77654332221648,
left,left,,2.0,1.0,5.0,0.0,,,,,,,,,733.679064099997,,,,,,,,,733.664403200004,734.4796743000043,735.2792729999928,735.2637451000046,735.2637776000192,735.2792729999928,735.2792729999928,735.2792729999928,,739.5803728000028,right,0.0,26.117534199991496,,739.5810257999983,739.596228600014,740.0795286000066,740.0955918999971,,,,,,,,,,,,,,,,,,,,,,,,,sub-100,1.0,random_dot,59.77654332221648,
left,left,,3.0,0.0,6.0,0.0,,,,,,,,,740.0955918999971,,,,,,,,,740.0799231000128,740.1955364000169,740.9948382000148,740.9798128000111,740.9798546000093,740.9948382000148,740.9948382000148,740.9948382000148,,743.5798899999936,left,1.0,24.39491169998655,,743.5804517999932,743.5950792999938,744.0794879000168,744.0951798000024,,,,,,,,,,,,,,,,,,,,,,,,,sub-100,1.0,random_dot,59.77654332221648,
right,right,,3.0,1.0,7.0,1.0,,,,,,,,,744.0951798000024,,,,,,,,,744.0799408000021,744.894457300019,745.6945859999978,745.6791338000039,745.6791550999915,745.6945859999978,745.6945859999978,745.6945859999978,,746.9790835000167,right,1.0,23.09413849998964,,746.9796333000122,746.9942496000149,747.4782624999934,747.4939995000022,,,,,,,,,,,,,,,,,,,,,,,,,sub-100,1.0,random_dot,59.77654332221648,
right,right,,4.0,0.0,8.0,1.0,,,,,,,,,747.4939995000022,,,,,,,,,747.4786502000061,747.8449142000172,748.660401000001,748.6447334999975,748.644753200002,748.660401000001,748.660401000001,748.660401000001,,749.5125310000149,right,1.0,22.66408819999197,,749.513051100017,749.5269389000023,750.0114177000069,750.0268953000195,,,,,,,,,,,,,,,,,,,,,,,,,sub-100,1.0,random_dot,59.77654332221648,
left,left,,4.0,1.0,9.0,0.0,,,,,,,,,750.0268953000195,,,,,,,,,750.0118267000071,750.8273799000017,751.6270151000062,751.6113398000016,751.611359100003,751.6270151000062,751.6270151000062,751.6270151000062,,752.4283729000017,left,1.0,22.60682019998785,,752.4294690999959,752.4441860000079,752.9279019999958,752.9440351999947,,,,,,,,,,,,,,,,,,,,,,,,,sub-100,1.0,random_dot,59.77654332221648,
left,left,,5.0,0.0,10.0,0.0,,,,,,,,,752.9440351999947,,,,,,,,,752.9283313000051,754.1436669999966,754.9435221000167,754.9278408999962,754.9278639999975,754.9435221000167,754.9435221000167,754.9435221000167,,757.2615222000168,right,0.0,24.133374999975786,,757.262326600001,757.2773064000066,757.7604408000188,757.7771381000057,,,,,,,,,,,,,,,,,,,,,,,,,sub-100,1.0,random_dot,59.77654332221648,
right,right,,5.0,1.0,11.0,1.0,,,,,,,,,757.7771381000057,,,,,,,,,757.7609662000032,758.5768386000127,759.3760282000003,759.360320000007,759.3603574000008,759.3760282000003,759.3760282000003,759.3760282000003,,759.8941889000125,left,0.0,22.330762600002345,,759.8948628999933,759.9092747000104,760.3935419000045,760.4090806000168,,,,,,,,,,,,,,,,,,,,,,,,,sub-100,1.0,random_dot,59.77654332221648,
right,right,,6.0,0.0,12.0,1.0,,,,,,,,,760.4090806000168,,,,,,,,,760.3939368000138,760.7599575000058,761.5590399999928,761.5435120000038,761.5435311000037,761.5590399999928,761.5590399999928,761.5590399999928,,762.1935071000189,right,1.0,22.446885800018208,,762.194220800011,762.2094789000112,762.6933000000136,762.7091890000156,,,,,,,,,,,,,,,,,,,,,,,,,sub-100,1.0,random_dot,59.77654332221648,
left,left,,6.0,1.0,13.0,0.0,,,,,,,,,762.7091890000156,,,,,,,,,762.6936792999913,763.0587442000106,763.859034699999,763.8434527000063,763.8434727000131,763.859034699999,763.859034699999,763.859034699999,,764.4778077999945,left,1.0,22.42961749999085,,764.4788448000036,764.4925030000159,764.9757339000062,764.9921911999991,,,,,,,,,,,,,,,,,,,,,,,,,sub-100,1.0,random_dot,59.77654332221648,
left,left,,7.0,0.0,14.0,0.0,,,,,,,,,764.9921911999991,,,,,,,,,764.9760969000054,765.7923950999975,766.5919783000136,766.5757398999995,766.5757610000146,766.5919783000136,766.5919783000136,766.5919783000136,,767.2760457000113,left,1.0,22.497975399979623,,767.2765941999969,767.2914508999966,767.7758425000065,767.7921357000014,,,,,,,,,,,,,,,,,,,,,,,,,sub-100,1.0,random_dot,59.77654332221648,
right,right,,7.0,1.0,15.0,1.0,,,,,,,,,767.7921357000014,,,,,,,,,767.7763074999966,768.1418435999949,768.9415121999918,768.9256896000006,768.9257122999988,768.9415121999918,768.9415121999918,768.9415121999918,,769.8435920000193,left,0.0,22.7101915999956,,769.8441976000031,769.8582376000122,770.3420800000022,770.3579504000081,,,,,,,,,,,,,,,,,,,,,,,,,sub-100,1.0,random_dot,59.77654332221648,
left,left,,8.0,0.0,16.0,0.0,,,,,,,,,770.3579504000081,,,,,,,,,770.3424872000178,771.5584331999999,772.358164300007,772.3418972000072,772.3419818000111,772.358164300007,772.358164300007,772.358164300007,,775.042428100016,left,1.0,24.488046599988596,,775.0430010000127,775.0579832000076,775.5413949000067,775.5581060000113,,,,,,,,,,,,,,,,,,,,,,,,,sub-100,1.0,random_dot,59.77654332221648,
right,right,,8.0,1.0,17.0,1.0,,,,,,,,,775.5581060000113,,,,,,,,,775.5418399000191,775.657993700006,776.4736010000051,776.4579008000146,776.457922600006,776.4736010000051,776.4736010000051,776.4736010000051,,777.541836999997,right,1.0,22.87384749998455,,777.5425153000106,777.5577764000045,778.0410991999961,778.0571157000086,,,,,,,,,,,,,,,,,,,,,,,,,sub-100,1.0,random_dot,59.77654332221648,
right,right,,9.0,0.0,18.0,1.0,,,,,,,,,778.0571157000086,,,,,,,,,778.0414511999988,779.257213600009,780.0569934000087,780.0407531000092,780.0407755000051,780.0569934000087,780.0569934000087,780.0569934000087,,783.640805300005,right,1.0,25.394991800014395,,783.6412958000146,783.6562671000138,784.1404778000142,784.1559454000089,,,,,,,,,,,,,,,,,,,,,,,,,sub-100,1.0,random_dot,59.77654332221648,
left,left,,9.0,1.0,19.0,0.0,,,,,,,,,784.1559454000089,,,,,,,,,784.1408290000109,784.9558671000123,785.7561849000049,785.7399656999914,785.7399860000005,785.7561849000049,785.7561849000049,785.7561849000049,,786.4740471999976,left,1.0,22.520657599990955,,786.4745246999955,786.4895319000061,786.9734058000031,786.9897684000025,,,,,,,,,,,,,,,,,,,,,,,,,sub-100,1.0,random_dot,59.77654332221648,
,,,,,,,,,,,,,,,,,,,,,,,,,,,,,,,,,,,,,,,,,,786.9734696999949,786.9897684000025,786.9897684000025,799.0056818000157,space,33.83203669998329,,,,,,,,,,,,,,,,,,,sub-100,1.0,random_dot,59.77654332221648,
,,,,,,,,,,,,,,,,,,,,,,,,,,,,,,,,,,,,,,,,,,,,,,,,,799.0057151000074,799.020631499996,799.020631499996,804.7715250000183,space,27.5678356999706,,,,,,,,,,,,sub-100,1.0,random_dot,59.77654332221648,
left,left,accuracy,,,,,0.0,0.0,0.0,0.0,0.0,0.0,0.0,0.0,810.3377352000098,,,,,,,,,810.3298428000126,811.536944499996,812.3525101999985,812.3365126000135,812.3365361000178,812.3525101999985,812.3525101999985,812.3525101999985,,814.303245499992,left,1.0,23.762680399988312,,,,,,,,,,,,,,,,,,,,804.7759525000001,804.82101840002,804.82101840002,810.32131140001,space,27.31005179998465,,,,,sub-100,1.0,random_dot,59.77654332221648,
right,right,accuracy,,,,,0.0,0.0,0.0,0.0,0.0,1.0,1.0,1.0,814.3191715000139,,,,,,,,,814.3046565999975,815.5191007000103,816.3186433000083,816.302880400006,816.3029051000194,816.3186433000083,816.3186433000083,816.3186433000083,821.3177545999933,821.469929999992,right,1.0,26.967334699991625,,,,,,,,,,,,,,,,,,,,,,,,,,,,,,sub-100,1.0,random_dot,59.77654332221648,
right,right,accuracy,,,,,0.0,0.0,0.0,0.0,1.0,0.0,2.0,1.0,821.4846207000082,,,,,,,,,821.4709465000196,821.5854719000054,822.3850957000104,822.3694716000173,822.3695167000114,822.3850957000104,822.3850957000104,822.3850957000104,,823.3858102000086,left,0.0,22.815893799997863,,,,,,,,,,,,,,,,,,,,,,,,,,,,,,sub-100,1.0,random_dot,59.77654332221648,
left,left,accuracy,,,,,0.0,0.0,0.0,0.0,1.0,1.0,3.0,0.0,823.4008482999925,,,,,,,,,823.387063000002,824.6006915000034,825.4009929000167,825.3852367000072,825.3852575999917,825.4009929000167,825.4009929000167,825.4009929000167,,827.2852683000092,left,1.0,23.691089500003727,,,,,,,,,,,,,,,,,,,,,,,,,,,,,,sub-100,1.0,random_dot,59.77654332221648,
right,right,accuracy,,,,,0.0,0.0,0.0,0.0,2.0,0.0,4.0,1.0,827.3010370999982,,,,,,,,,827.2865922999918,827.6504857999971,828.4501100000052,828.4342698999972,828.4343016000057,828.4501100000052,828.4501100000052,828.4501100000052,,829.2185540999926,right,1.0,22.58260620001238,,,,,,,,,,,,,,,,,,,,,,,,,,,,,,sub-100,1.0,random_dot,59.77654332221648,
left,left,accuracy,,,,,0.0,0.0,0.0,0.0,2.0,1.0,5.0,0.0,829.233548499993,,,,,,,,,829.2195900999941,829.3340597999922,830.1336240000091,830.1177241000114,830.1177434000128,830.1336240000091,830.1336240000091,830.1336240000091,,830.8180992999987,left,1.0,22.50102679998963,,,,,,,,,,,,,,,,,,,,,,,,,,,,,,sub-100,1.0,random_dot,59.77654332221648,
left,left,accuracy,,,,,0.0,0.0,0.0,0.0,3.0,0.0,6.0,0.0,830.8329735000152,,,,,,,,,830.8192344999989,830.9335603000072,831.7331486000039,831.7177245000203,831.7177438999934,831.7331486000039,831.7331486000039,831.7331486000039,,832.8677622000105,left,1.0,22.951060299994424,,,,,,,,,,,,,,,,,,,,,,,,,,,,,,sub-100,1.0,random_dot,59.77654332221648,
right,right,accuracy,,,,,0.0,0.0,0.0,0.0,3.0,1.0,7.0,1.0,832.8831878000055,,,,,,,,,832.8687419000198,833.6830364000052,834.483189999999,834.4669196000032,834.4669424000022,834.483189999999,834.483189999999,834.483189999999,,835.7511802999943,right,1.0,23.07709390000673,,,,,,,,,,,,,,,,,,,,,,,,,,,,,,sub-100,1.0,random_dot,59.77654332221648,
left,left,accuracy,,,,,0.0,0.0,0.0,0.0,4.0,0.0,8.0,0.0,835.7667434000177,,,,,,,,,835.7526780000189,835.8662920999923,836.6664800000144,836.6499704000016,836.6500193999964,836.6664800000144,836.6664800000144,836.6664800000144,,837.567351900012,left,1.0,22.70898329999181,,,,,,,,,,,,,,,,,,,,,,,,,,,,,,sub-100,1.0,random_dot,59.77654332221648,
right,right,accuracy,,,,,0.0,0.0,0.0,0.0,4.0,1.0,9.0,1.0,837.5836173999996,,,,,,,,,837.5684964999964,838.7827066000027,839.5823995000101,839.5667449000175,839.5667662000051,839.5823995000101,839.5823995000101,839.5823995000101,,840.2832865999953,right,1.0,22.517052800016245,,,,,,,,,,,,,,,,,,,,,,,,,,,,,,sub-100,1.0,random_dot,59.77654332221648,
right,right,accuracy,,,,,0.0,0.0,0.0,0.0,5.0,0.0,10.0,1.0,840.2988097000052,,,,,,,,,840.2843012000085,841.4990022999991,842.2994598000078,842.2829997999943,842.2830329000135,842.2994598000078,842.2994598000078,842.2994598000078,,842.9832574000175,right,1.0,22.49947229999816,,,,,,,,,,,,,,,,,,,,,,,,,,,,,,sub-100,1.0,random_dot,59.77654332221648,
left,left,accuracy,,,,,0.0,0.0,0.0,0.0,5.0,1.0,11.0,0.0,842.9984779999941,,,,,,,,,842.9842648000049,843.3489258000045,844.1482737000042,844.1324354000099,844.1324551000143,844.1482737000042,844.1482737000042,844.1482737000042,,844.8167876999942,left,1.0,22.481694499991136,,,,,,,,,,,,,,,,,,,,,,,,,,,,,,sub-100,1.0,random_dot,59.77654332221648,
right,right,accuracy,,,,,0.0,0.0,0.0,0.0,6.0,0.0,12.0,1.0,844.8320613999967,,,,,,,,,844.8188517999952,844.93163430001,845.7313527000078,845.7159606000059,845.7159806000127,845.7313527000078,845.7313527000078,845.7313527000078,,846.2997571000014,right,1.0,22.376267899991944,,,,,,,,,,,,,,,,,,,,,,,,,,,,,,sub-100,1.0,random_dot,59.77654332221648,
left,left,accuracy,,,,,0.0,0.0,0.0,0.0,6.0,1.0,13.0,0.0,846.3145120000117,,,,,,,,,846.300765699998,847.5153170000121,848.3146648000111,848.298818100011,848.2988473000005,848.3146648000111,848.3146648000111,848.3146648000111,,849.0987471000117,right,0.0,22.591471699997783,,,,,,,,,,,,,,,,,,,,,,,,,,,,,,sub-100,1.0,random_dot,59.77654332221648,
left,left,accuracy,,,,,0.0,0.0,0.0,0.0,7.0,0.0,14.0,0.0,849.1141930000158,,,,,,,,,849.0997632000071,850.3145414000028,851.1140981999924,851.09804360001,851.0980625000084,851.1140981999924,851.1140981999924,851.1140981999924,,851.6984537999961,left,1.0,22.39996959999553,,,,,,,,,,,,,,,,,,,,,,,,,,,,,,sub-100,1.0,random_dot,59.77654332221648,
right,right,accuracy,,,,,0.0,0.0,0.0,0.0,7.0,1.0,15.0,1.0,851.7140135999944,,,,,,,,,851.6995093000005,852.0637987999944,852.8640424000041,852.8478197999939,852.8478535000177,852.8640424000041,852.8640424000041,852.8640424000041,,853.6317136000143,right,1.0,22.571439699997427,,,,,,,,,,,,,,,,,,,,,,,,,,,,,,sub-100,1.0,random_dot,59.77654332221648,
left,left,accuracy,,,,,0.0,0.0,0.0,0.0,8.0,0.0,16.0,0.0,853.64724630001,,,,,,,,,853.6327394999971,854.4476904000039,855.2473248000024,855.2311601999972,855.2311806000071,855.2473248000024,855.2473248000024,855.2473248000024,,855.797660900018,left,1.0,22.354607699991902,,,,,,,,,,,,,,,,,,,,,,,,,,,,,,sub-100,1.0,random_dot,59.77654332221648,
right,right,accuracy,,,,,0.0,0.0,0.0,0.0,8.0,1.0,17.0,1.0,855.8133521999989,,,,,,,,,855.7986770000134,856.9972182000056,857.7965099000139,857.7806221999926,857.7806416999956,857.7965099000139,857.7965099000139,857.7965099000139,,858.4144048000162,right,1.0,22.43358320000698,,,,,,,,,,,,,,,,,,,,,,,,,,,,,,sub-100,1.0,random_dot,59.77654332221648,
right,right,accuracy,,,,,0.0,0.0,0.0,0.0,9.0,0.0,18.0,1.0,858.4297265000059,,,,,,,,,858.4154943000176,859.2295468999946,860.0295946999977,860.0136076000053,860.0136431000137,860.0295946999977,860.0295946999977,860.0295946999977,865.0291264000116,865.396983100014,right,1.0,27.170622199977515,,,,,,,,,,,,,,,,,,,,,,,,,,,,,,sub-100,1.0,random_dot,59.77654332221648,
left,left,accuracy,,,,,0.0,0.0,0.0,0.0,9.0,1.0,19.0,0.0,865.4120922000147,,,,,,,,,865.3981447000115,866.2119736000022,867.012195599993,866.9960447000049,866.9960790000041,867.012195599993,867.012195599993,867.012195599993,,868.1468562000082,left,1.0,22.952468699979363,,,,,,,,,,,,,,,,,,,,,,,,,,,,,,sub-100,1.0,random_dot,59.77654332221648,
left,left,accuracy,,,,,0.0,0.0,0.0,0.0,10.0,0.0,20.0,0.0,868.1617425000004,,,,,,,,,868.1480628999998,868.2620101000066,869.0623743000033,869.0462756000052,869.0462951000081,869.0623743000033,869.0623743000033,869.0623743000033,,869.8795696000161,left,1.0,22.63322669998161,,,,,,,,,,,,,,,,,,,,,,,,,,,,,,sub-100,1.0,random_dot,59.77654332221648,
right,right,accuracy,,,,,0.0,0.0,0.0,0.0,10.0,1.0,21.0,1.0,869.8949266000127,,,,,,,,,869.8806255999953,870.2448552999995,871.045274300006,871.0291948000086,871.0292165999999,871.045274300006,871.045274300006,871.045274300006,,871.7125340999919,right,1.0,22.47658610000508,,,,,,,,,,,,,,,,,,,,,,,,,,,,,,sub-100,1.0,random_dot,59.77654332221648,
left,left,accuracy,,,,,0.0,0.0,0.0,0.0,11.0,0.0,22.0,0.0,871.728057100001,,,,,,,,,871.7135352000187,871.828665500012,872.6281054000137,872.6124532000103,872.6124940000009,872.6281054000137,872.6281054000137,872.6281054000137,,873.4787309000094,left,1.0,22.66241069996613,,,,,,,,,,,,,,,,,,,,,,,,,,,,,,sub-100,1.0,random_dot,59.77654332221648,
right,right,accuracy,,,,,0.0,0.0,0.0,0.0,11.0,1.0,23.0,1.0,873.4943867000111,,,,,,,,,873.4797936000105,874.2955097999948,875.1112706999993,875.0952449000033,875.0952643000055,875.1112706999993,875.1112706999993,875.1112706999993,,875.8453827000048,right,1.0,22.53729239999666,,,,,,,,,,,,,,,,,,,,,,,,,,,,,,sub-100,1.0,random_dot,59.77654332221648,
left,left,accuracy,,,,,0.0,0.0,0.0,0.0,12.0,0.0,24.0,0.0,875.8610292999947,,,,,,,,,875.8465351000195,876.2108340999985,877.0108650000184,876.9947910000046,876.9948237999924,877.0108650000184,877.0108650000184,877.0108650000184,,877.5950777000107,left,1.0,22.40097399998922,,,,,,,,,,,,,,,,,,,,,,,,,,,,,,sub-100,1.0,random_dot,59.77654332221648,
right,right,accuracy,,,,,0.0,0.0,0.0,0.0,12.0,1.0,25.0,1.0,877.6106107000087,,,,,,,,,877.5964281999914,878.8110664999986,879.6105984000023,879.5944262999983,879.5944452999975,879.6105984000023,879.6105984000023,879.6105984000023,,880.3615456999978,right,1.0,22.556303299992575,,,,,,,,,,,,,,,,,,,,,,,,,,,,,,sub-100,1.0,random_dot,59.77654332221648,
right,right,accuracy,,,,,0.0,0.0,0.0,0.0,13.0,0.0,26.0,1.0,880.376980400004,,,,,,,,,880.3627957999997,880.7267749000166,881.5272206999944,881.5107470999938,881.5107734000194,881.5272206999944,881.5272206999944,881.5272206999944,,882.0451933000004,left,0.0,22.320108000014443,,,,,,,,,,,,,,,,,,,,,,,,,,,,,,sub-100,1.0,random_dot,59.77654332221648,
left,left,accuracy,,,,,0.0,0.0,0.0,0.0,13.0,1.0,27.0,0.0,882.0606559000153,,,,,,,,,882.0461867999984,882.8607194999931,883.6595588999917,883.6438744000043,883.6439101000142,883.6595588999917,883.6595588999917,883.6595588999917,,884.3279628000164,left,1.0,22.47598819999257,,,,,,,,,,,,,,,,,,,,,,,,,,,,,,sub-100,1.0,random_dot,59.77654332221648,
right,right,accuracy,,,,,0.0,0.0,0.0,0.0,14.0,0.0,28.0,1.0,884.3431210000126,,,,,,,,,884.3291706000164,884.6932866999996,885.492831200012,885.4774312000081,885.4774505000096,885.492831200012,885.492831200012,885.492831200012,,886.360928500013,right,1.0,22.671055099985097,,,,,,,,,,,,,,,,,,,,,,,,,,,,,,sub-100,1.0,random_dot,59.77654332221648,
left,left,accuracy,,,,,0.0,0.0,0.0,0.0,14.0,1.0,29.0,0.0,886.3763130000152,,,,,,,,,886.3619580999948,887.5761490000004,888.3757166000141,888.3599399999948,888.3599603000039,888.3757166000141,888.3757166000141,888.3757166000141,,889.1436640000029,left,1.0,22.57679580000695,,,,,,,,,,,,,,,,,,,,,,,,,,,,,,sub-100,1.0,random_dot,59.77654332221648,
right,right,accuracy,,,,,0.0,0.0,0.0,0.0,15.0,0.0,30.0,1.0,889.159295999998,,,,,,,,,889.1447489999991,889.5091147000203,890.3090388000128,890.293182399997,890.2932224000106,890.3090388000128,890.3090388000128,890.3090388000128,,890.8604110000015,right,1.0,22.36267339999904,,,,,,,,,,,,,,,,,,,,,,,,,,,,,,sub-100,1.0,random_dot,59.77654332221648,
left,left,accuracy,,,,,0.0,0.0,0.0,0.0,15.0,1.0,31.0,0.0,890.8761376000184,,,,,,,,,890.8634987999976,892.0752085999993,892.8762655000028,892.8606182000076,892.8606535000145,892.8762655000028,892.8762655000028,892.8762655000028,,893.4929913000087,left,1.0,22.42648689998896,,,,,,,,,,,,,,,,,,,,,,,,,,,,,,sub-100,1.0,random_dot,59.77654332221648,
left,left,accuracy,,,,,0.0,0.0,0.0,0.0,16.0,0.0,32.0,0.0,893.508476100018,,,,,,,,,893.4940255999973,893.861267500004,894.6748757000023,894.6600393000117,894.6600582000101,894.6748757000023,894.6748757000023,894.6748757000023,,895.4258657000028,right,0.0,22.55633819999639,,,,,,,,,,,,,,,,,,,,,,,,,,,,,,sub-100,1.0,random_dot,59.77654332221648,
right,right,accuracy,,,,,0.0,0.0,0.0,0.0,16.0,1.0,33.0,1.0,895.4416440000059,,,,,,,,,895.426993800007,896.6417373000004,897.4421172000002,897.4256778999988,897.4257397000038,897.4421172000002,897.4421172000002,897.4421172000002,,898.0926357000135,right,1.0,22.46114899998065,,,,,,,,,,,,,,,,,,,,,,,,,,,,,,sub-100,1.0,random_dot,59.77654332221648,
right,right,accuracy,,,,,0.0,0.0,0.0,0.0,17.0,0.0,34.0,1.0,898.108120799996,,,,,,,,,898.09364430001,898.9080335000181,899.708409999992,899.6919779000164,899.6919977999933,899.708409999992,899.708409999992,899.708409999992,,900.3088593000139,right,1.0,22.404563599964604,,,,,,,,,,,,,,,,,,,,,,,,,,,,,,sub-100,1.0,random_dot,59.77654332221648,
left,left,accuracy,,,,,0.0,0.0,0.0,0.0,17.0,1.0,35.0,0.0,900.3246380999917,,,,,,,,,900.309951400006,900.4249096999993,901.224289900012,901.2083593000134,901.2083784000132,901.224289900012,901.224289900012,901.224289900012,,902.1417848000128,left,1.0,22.73552170000039,,,,,,,,,,,,,,,,,,,,,,,,,,,,,,sub-100,1.0,random_dot,59.77654332221648,
right,right,accuracy,,,,,0.0,0.0,0.0,0.0,18.0,0.0,36.0,1.0,902.1575503000058,,,,,,,,,902.1429186000024,902.5076888000184,903.3074600000108,903.2910749000148,903.2910969000076,903.3074600000108,903.3074600000108,903.3074600000108,,903.9420758000052,right,1.0,22.44614650000585,,,,,,,,,,,,,,,,,,,,,,,,,,,,,,sub-100,1.0,random_dot,59.77654332221648,
left,left,accuracy,,,,,0.0,0.0,0.0,0.0,18.0,1.0,37.0,0.0,903.95776260001,,,,,,,,,903.9431346000056,904.7573015000088,905.5573557000024,905.541741299996,905.5417752999928,905.5573557000024,905.5573557000024,905.5573557000024,910.5569568999928,913.4251673000108,right,0.0,29.672678900009487,,,,,,,,,,,,,,,,,,,,,,,,,,,,,,sub-100,1.0,random_dot,59.77654332221648,
left,left,accuracy,,,,,0.0,0.0,0.0,0.0,19.0,0.0,38.0,0.0,913.4395184000024,,,,,,,,,913.427161700005,914.639248499996,915.438817599992,915.4230979999992,915.423117600003,915.438817599992,915.438817599992,915.438817599992,,916.6239001000068,right,0.0,22.990032200003043,,,,,,,,,,,,,,,,,,,,,,,,,,,,,,sub-100,1.0,random_dot,59.77654332221648,
right,right,accuracy,,,,,0.0,0.0,0.0,0.0,19.0,1.0,39.0,1.0,916.6392481999936,,,,,,,,,916.6249056000088,916.739419999998,917.539091600018,917.5235949000052,917.5236140000052,917.539091600018,917.539091600018,917.539091600018,,920.6401009999972,right,1.0,24.902507999999216,,,,,,,,,,,,,,,,,,,,,,,,,,,,,,sub-100,1.0,random_dot,59.77654332221648,
right,right,accuracy,,,,,0.0,0.0,0.0,0.0,20.0,0.0,40.0,1.0,920.6557178999938,,,,,,,,,920.6411474999912,921.4556369000056,922.2548575999972,922.2387607000128,922.2388050000008,922.2548575999972,922.2548575999972,922.2548575999972,,924.9391804000188,right,1.0,24.48910849998356,,,,,,,,,,,,,,,,,,,,,,,,,,,,,,sub-100,1.0,random_dot,59.77654332221648,
left,left,accuracy,,,,,0.0,0.0,0.0,0.0,20.0,1.0,41.0,0.0,924.9545966000004,,,,,,,,,924.9401851000148,925.3047178999986,926.1047641000188,926.088431400014,926.0884527000017,926.1047641000188,926.1047641000188,926.1047641000188,,927.3725855000084,left,1.0,23.08472789998632,,,,,,,,,,,,,,,,,,,,,,,,,,,,,,sub-100,1.0,random_dot,59.77654332221648,
right,right,accuracy,,,,,0.0,0.0,0.0,0.0,21.0,0.0,42.0,1.0,927.3882300000114,,,,,,,,,927.3735965999948,927.4880107000064,928.2879254000144,928.272043600009,928.2720630000111,928.2879254000144,928.2879254000144,928.2879254000144,,929.2219085000106,right,1.0,22.75161659999867,,,,,,,,,,,,,,,,,,,,,,,,,,,,,,sub-100,1.0,random_dot,59.77654332221648,
left,left,accuracy,,,,,0.0,0.0,0.0,0.0,21.0,1.0,43.0,0.0,929.2375634000056,,,,,,,,,929.223045599996,930.437303100014,931.2374964000192,931.2209440000006,931.220963300002,931.2374964000192,931.2374964000192,931.2374964000192,,932.9054632000044,left,1.0,23.47614089999115,,,,,,,,,,,,,,,,,,,,,,,,,,,,,,sub-100,1.0,random_dot,59.77654332221648,
right,right,accuracy,,,,,0.0,0.0,0.0,0.0,22.0,0.0,44.0,1.0,932.920353499998,,,,,,,,,932.9064873000024,933.0206672000058,933.8206773000128,933.8049074000156,933.8049306000177,933.8206773000128,933.8206773000128,933.8206773000128,,935.2543487999936,right,1.0,23.250472799991257,,,,,,,,,,,,,,,,,,,,,,,,,,,,,,sub-100,1.0,random_dot,59.77654332221648,
left,left,accuracy,,,,,0.0,0.0,0.0,0.0,22.0,1.0,45.0,0.0,935.269563400012,,,,,,,,,935.2553465999954,936.4703463000188,937.2705171999988,937.254389700014,937.254414199997,937.2705171999988,937.2705171999988,937.2705171999988,942.2688974000048,943.1705043000112,right,0.0,27.70588520000456,,,,,,,,,,,,,,,,,,,,,,,,,,,,,,sub-100,1.0,random_dot,59.77654332221648,
right,right,accuracy,,,,,0.0,0.0,0.0,0.0,23.0,0.0,46.0,1.0,943.1856177000154,,,,,,,,,943.1714763999915,943.285803900013,944.0854745999968,944.0694810000132,944.06949970001,944.0854745999968,944.0854745999968,944.0854745999968,,945.5730121000088,right,1.0,23.296059999993304,,,,,,,,,,,,,,,,,,,,,,,,,,,,,,sub-100,1.0,random_dot,59.77654332221648,
left,left,accuracy,,,,,0.0,0.0,0.0,0.0,23.0,1.0,47.0,0.0,945.5856012000004,,,,,,,,,945.574983700004,945.9362892000064,946.7362639000056,946.7198143000132,946.7198535999923,946.7362639000056,946.7362639000056,946.7362639000056,951.7341395000112,960.585453800013,right,0.0,35.65060299998731,,,,,,,,,,,,,,,,,,,,,,,,,,,,,,sub-100,1.0,random_dot,59.77654332221648,
right,right,accuracy,,,,,0.0,0.0,0.0,0.0,24.0,0.0,48.0,1.0,960.6001200000172,,,,,,,,,960.5870107999943,960.9498342000006,961.7496845000132,961.7339425999962,961.7339835000166,961.7496845000132,961.7496845000132,961.7496845000132,,963.251401400019,right,1.0,23.315504799975315,,,,,,,,,,,,,,,,,,,,,,,,,,,,,,sub-100,1.0,random_dot,59.77654332221648,
left,left,accuracy,,,,,0.0,0.0,0.0,0.0,24.0,1.0,49.0,0.0,963.2660176999924,,,,,,,,,963.252578100015,963.3659437000168,964.1661843000038,964.1501065000192,964.1501457999984,964.1661843000038,964.1661843000038,964.1661843000038,,967.701460500015,right,0.0,25.336860000010347,,,,,,,,,,,,,,,,,,,,,,,,,,,,,,sub-100,1.0,random_dot,59.77654332221648,
left,left,accuracy,,,,,0.0,0.0,0.0,0.0,25.0,0.0,50.0,0.0,967.7162560000144,,,,,,,,,967.702498300001,967.815618099994,968.6153769000084,968.599750399997,968.599812200002,968.6153769000084,968.6153769000084,968.6153769000084,,972.2994694999944,left,1.0,25.489093299984237,,,,,,,,,,,,,,,,,,,,,,,,,,,,,,sub-100,1.0,random_dot,59.77654332221648,
right,right,accuracy,,,,,0.0,0.0,0.0,0.0,25.0,1.0,51.0,1.0,972.3150890000106,,,,,,,,,972.3004900999948,973.515031100018,974.3153082999924,974.2994954000168,974.2995293000132,974.3153082999924,974.3153082999924,974.3153082999924,,977.0491921000066,right,1.0,24.55030249999254,,,,,,,,,,,,,,,,,,,,,,,,,,,,,,sub-100,1.0,random_dot,59.77654332221648,
left,left,accuracy,,,,,0.0,0.0,0.0,0.0,26.0,0.0,52.0,0.0,977.0646198000176,,,,,,,,,977.0502227999968,977.4145556000004,978.2146987000016,978.1984693999984,978.1984904000128,978.2146987000016,978.2146987000016,978.2146987000016,,979.3161316000042,left,1.0,22.914372500003083,,,,,,,,,,,,,,,,,,,,,,,,,,,,,,sub-100,1.0,random_dot,59.77654332221648,
right,right,accuracy,,,,,0.0,0.0,0.0,0.0,26.0,1.0,53.0,1.0,979.3312003000174,,,,,,,,,979.3183543000196,979.4314092000131,980.2482435000128,980.2314734999964,980.2315076999948,980.2482435000128,980.2482435000128,980.2482435000128,,983.6495040000008,left,0.0,25.205288900004238,,,,,,,,,,,,,,,,,,,,,,,,,,,,,,sub-100,1.0,random_dot,59.77654332221648,
right,right,accuracy,,,,,0.0,0.0,0.0,0.0,27.0,0.0,54.0,1.0,983.6645059000002,,,,,,,,,983.6517879000166,983.7644598000044,984.5633053999918,984.547811299999,984.5478361000132,984.5633053999918,984.5633053999918,984.5633053999918,,988.2974041000124,right,1.0,25.54366399999708,,,,,,,,,,,,,,,,,,,,,,,,,,,,,,sub-100,1.0,random_dot,59.77654332221648,
left,left,accuracy,,,,,0.0,0.0,0.0,0.0,27.0,1.0,55.0,0.0,988.3125371999922,,,,,,,,,988.2985384000058,989.1127017000108,989.9123835999926,989.8964359000092,989.8964561000176,989.9123835999926,989.9123835999926,989.9123835999926,,992.1813088000054,left,1.0,24.072336499986704,,,,,,,,,,,,,,,,,,,,,,,,,,,,,,sub-100,1.0,random_dot,59.77654332221648,
right,right,accuracy,,,,,0.0,0.0,0.0,0.0,28.0,0.0,56.0,1.0,992.1958036000142,,,,,,,,,992.1834097999964,993.395944799995,994.1951709999994,994.1793158999936,994.179343900003,994.1951709999994,994.1951709999994,994.1951709999994,,998.6799538000196,right,1.0,26.30238599999575,,,,,,,,,,,,,,,,,,,,,,,,,,,,,,sub-100,1.0,random_dot,59.77654332221648,
left,left,accuracy,,,,,0.0,0.0,0.0,0.0,28.0,1.0,57.0,0.0,998.6955158000056,,,,,,,,,998.6817213000032,999.895218699996,1000.6957823999984,1000.679801099992,1000.6798344000126,1000.6957823999984,1000.6957823999984,1000.6957823999984,,1001.4964711999928,left,1.0,22.60420709996833,,,,,,,,,,,,,,,,,,,,,,,,,,,,,,sub-100,1.0,random_dot,59.77654332221648,
right,right,accuracy,,,,,0.0,0.0,0.0,0.0,29.0,0.0,58.0,1.0,1001.5116667000112,,,,,,,,,1001.4983481999952,1002.7118190000184,1003.5276094000146,1003.5121207000047,1003.512140100007,1003.5276094000146,1003.5276094000146,1003.5276094000146,,1004.5122684999952,left,0.0,22.802033099986147,,,,,,,,,,,,,,,,,,,,,,,,,,,,,,sub-100,1.0,random_dot,59.77654332221648,
left,left,accuracy,,,,,0.0,0.0,0.0,0.0,29.0,1.0,59.0,0.0,1004.5273324000008,,,,,,,,,1004.5133661,1005.327312700014,1006.127278400003,1006.111395600019,1006.1114148999914,1006.127278400003,1006.127278400003,1006.127278400003,,1007.0789288000088,left,1.0,22.757319199998165,,,,,,,,,,,,,,,,,,,,,,,,,,,,,,sub-100,1.0,random_dot,59.77654332221648,
,,accuracy,,,,,0.0,0.0,0.0,0.0,,,,,,,,,,,,,,,,,,,,,,,,,,,,,,,,,,,,,,,,,,,,,,,,,,,,,,,,sub-100,1.0,random_dot,59.77654332221648,
right,right,speed,,,,,0.0,1.0,1.0,1.0,0.0,0.0,0.0,1.0,1131.4863481000066,,,,,,,,,1131.479005300003,1131.5846829999937,1132.3845709000016,1132.369083700003,1132.3691101000004,1132.3845709000016,1132.3845709000016,1132.3845709000016,,1133.0528452,right,1.0,22.47574840000016,,,,,,,,,,,,,,,,,,,,1007.0799985000048,1007.0963304000034,1007.0963304000034,1131.4696027000027,space,146.17846130000544,,,,,sub-100,1.0,random_dot,59.77654332221648,
left,left,speed,,,,,0.0,1.0,1.0,1.0,0.0,1.0,1.0,0.0,1133.0677188000118,,,,,,,,,1133.0541025999992,1134.267714400019,1135.0676733000146,1135.05192290002,1135.051957599993,1135.0676733000146,1135.0676733000146,1135.0676733000146,,1135.4186977999923,right,0.0,22.15765309997369,,,,,,,,,,,,,,,,,,,,,,,,,,,,,,sub-100,1.0,random_dot,59.77654332221648,
left,left,speed,,,,,0.0,1.0,1.0,1.0,1.0,0.0,2.0,0.0,1135.4341630999988,,,,,,,,,1135.4196987000178,1135.533944800001,1136.3341870000004,1136.3181715999965,1136.318206099997,1136.3341870000004,1136.3341870000004,1136.3341870000004,,1137.135067299998,right,0.0,22.60420979998889,,,,,,,,,,,,,,,,,,,,,,,,,,,,,,sub-100,1.0,random_dot,59.77654332221648,
right,right,speed,,,,,0.0,1.0,1.0,1.0,1.0,1.0,3.0,1.0,1137.150329199998,,,,,,,,,1137.1361924000084,1137.2505825000117,1138.051139499992,1138.0350025999942,1138.035036799993,1138.051139499992,1138.051139499992,1138.051139499992,,1139.401273299998,right,1.0,23.16179809998721,,,,,,,,,,,,,,,,,,,,,,,,,,,,,,sub-100,1.0,random_dot,59.77654332221648,
left,left,speed,,,,,0.0,1.0,1.0,1.0,2.0,0.0,4.0,0.0,1139.4166442000133,,,,,,,,,1139.402418200014,1139.766842800018,1140.566803499998,1140.5509081000057,1140.5509275000077,1140.566803499998,1140.566803499998,1140.566803499998,,1141.2182143999962,left,1.0,22.46873339999001,,,,,,,,,,,,,,,,,,,,,,,,,,,,,,sub-100,1.0,random_dot,59.77654332221648,
right,right,speed,,,,,0.0,1.0,1.0,1.0,2.0,1.0,5.0,1.0,1141.23394060001,,,,,,,,,1141.2194526999956,1142.4328976999968,1143.233716000017,1143.2172262000097,1143.2172466000193,1143.233716000017,1143.233716000017,1143.233716000017,,1143.601190300018,right,1.0,22.182177199982107,,,,,,,,,,,,,,,,,,,,,,,,,,,,,,sub-100,1.0,random_dot,59.77654332221648,
right,right,speed,,,,,0.0,1.0,1.0,1.0,3.0,0.0,6.0,1.0,1143.616898200009,,,,,,,,,1143.6022996999964,1144.4162419000058,1145.216314000019,1145.2002939000083,1145.2003253000148,1145.216314000019,1145.216314000019,1145.216314000019,,1145.7346750000142,right,1.0,22.33149969999795,,,,,,,,,,,,,,,,,,,,,,,,,,,,,,sub-100,1.0,random_dot,59.77654332221648,
left,left,speed,,,,,0.0,1.0,1.0,1.0,3.0,1.0,7.0,0.0,1145.7492073000176,,,,,,,,,1145.7357931000006,1146.0996860000014,1146.8998678000062,1146.8839535000152,1146.8839767000172,1146.8998678000062,1146.8998678000062,1146.8998678000062,,1147.58484700002,left,1.0,22.499810899986187,,,,,,,,,,,,,,,,,,,,,,,,,,,,,,sub-100,1.0,random_dot,59.77654332221648,
right,right,speed,,,,,0.0,1.0,1.0,1.0,4.0,0.0,8.0,1.0,1147.59993690002,,,,,,,,,1147.5867674000035,1147.6991000999988,1148.4990646000078,1148.4839208000049,1148.483949699992,1148.4990646000078,1148.4990646000078,1148.4990646000078,,1148.9348062000065,right,1.0,22.252638099977048,,,,,,,,,,,,,,,,,,,,,,,,,,,,,,sub-100,1.0,random_dot,59.77654332221648,
left,left,speed,,,,,0.0,1.0,1.0,1.0,4.0,1.0,9.0,0.0,1148.9492801000015,,,,,,,,,1148.9366859000002,1150.1487325000053,1150.948733600002,1150.933122300019,1150.9331455999927,1150.948733600002,1150.948733600002,1150.948733600002,,1151.7162624000048,left,1.0,22.570559699990557,,,,,,,,,,,,,,,,,,,,,,,,,,,,,,sub-100,1.0,random_dot,59.77654332221648,
left,left,speed,,,,,0.0,1.0,1.0,1.0,5.0,0.0,10.0,0.0,1151.7321608000202,,,,,,,,,1151.7176167000143,1151.8321904000186,1152.6317146999936,1152.6162705000024,1152.616325400013,1152.6317146999936,1152.6317146999936,1152.6317146999936,,1153.3836106999952,right,0.0,22.55728149999049,,,,,,,,,,,,,,,,,,,,,,,,,,,,,,sub-100,1.0,random_dot,59.77654332221648,
right,right,speed,,,,,0.0,1.0,1.0,1.0,5.0,1.0,11.0,1.0,1153.399123900017,,,,,,,,,1153.3850832000026,1154.1989900000044,1154.9980974000064,1154.9834370000171,1154.9834577,1154.9980974000064,1154.9980974000064,1154.9980974000064,,1155.6168928999978,right,1.0,22.43454489999567,,,,,,,,,,,,,,,,,,,,,,,,,,,,,,sub-100,1.0,random_dot,59.77654332221648,
left,left,speed,,,,,0.0,1.0,1.0,1.0,6.0,0.0,12.0,0.0,1155.6314454000094,,,,,,,,,1155.617905399995,1156.4319544000027,1157.2312817999918,1157.2153754000028,1157.2153951000073,1157.2312817999918,1157.2312817999918,1157.2312817999918,,1158.1155597000034,left,1.0,22.69145079998998,,,,,,,,,,,,,,,,,,,,,,,,,,,,,,sub-100,1.0,random_dot,59.77654332221648,
right,right,speed,,,,,0.0,1.0,1.0,1.0,6.0,1.0,13.0,1.0,1158.1314622999926,,,,,,,,,1158.1168060000057,1159.331514999998,1160.1310072000197,1160.1151340999932,1160.1151537999976,1160.1310072000197,1160.1310072000197,1160.1310072000197,,1160.5654558000097,right,1.0,22.248225999996063,,,,,,,,,,,,,,,,,,,,,,,,,,,,,,sub-100,1.0,random_dot,59.77654332221648,
left,left,speed,,,,,0.0,1.0,1.0,1.0,7.0,0.0,14.0,0.0,1160.5806350000205,,,,,,,,,1160.5665456000131,1161.780387100007,1162.5803424000042,1162.564451800019,1162.564470900019,1162.5803424000042,1162.5803424000042,1162.5803424000042,,1163.1154349000135,right,0.0,22.337646400003,,,,,,,,,,,,,,,,,,,,,,,,,,,,,,sub-100,1.0,random_dot,59.77654332221648,
right,right,speed,,,,,0.0,1.0,1.0,1.0,7.0,1.0,15.0,1.0,1163.1306676999957,,,,,,,,,1163.1164606999955,1164.3304984999995,1165.1309180000098,1165.115013600007,1165.1150460999925,1165.1309180000098,1165.1309180000098,1165.1309180000098,,1165.6986782000167,right,1.0,22.383122299972456,,,,,,,,,,,,,,,,,,,,,,,,,,,,,,sub-100,1.0,random_dot,59.77654332221648,
right,right,speed,,,,,0.0,1.0,1.0,1.0,8.0,0.0,16.0,1.0,1165.713584000012,,,,,,,,,1165.700039599993,1166.513476699998,1167.3131714000192,1167.2975149000122,1167.297533900011,1167.3131714000192,1167.3131714000192,1167.3131714000192,,1167.8812693000073,right,1.0,22.38404800000717,,,,,,,,,,,,,,,,,,,,,,,,,,,,,,sub-100,1.0,random_dot,59.77654332221648,
left,left,speed,,,,,0.0,1.0,1.0,1.0,8.0,1.0,17.0,0.0,1167.8964589000095,,,,,,,,,1167.882352699991,1168.6965195999946,1169.4970956000034,1169.480671500001,1169.4807063000044,1169.4970956000034,1169.4970956000034,1169.4970956000034,,1170.5148555000196,left,1.0,22.834787600004347,,,,,,,,,,,,,,,,,,,,,,,,,,,,,,sub-100,1.0,random_dot,59.77654332221648,
right,right,speed,,,,,0.0,1.0,1.0,1.0,9.0,0.0,18.0,1.0,1170.5296737000172,,,,,,,,,1170.5158609999926,1171.7293786999944,1172.5290884000133,1172.5133905000112,1172.5134132000094,1172.5290884000133,1172.5290884000133,1172.5290884000133,,1173.1310646999918,right,1.0,22.410030999977607,,,,,,,,,,,,,,,,,,,,,,,,,,,,,,sub-100,1.0,random_dot,59.77654332221648,
left,left,speed,,,,,0.0,1.0,1.0,1.0,9.0,1.0,19.0,0.0,1173.1463256000134,,,,,,,,,1173.131980200007,1173.4956378999923,1174.2956767000142,1174.2799263000195,1174.279945200018,1174.2956767000142,1174.2956767000142,1174.2956767000142,,1175.2469560000172,left,1.0,22.7687014999683,,,,,,,,,,,,,,,,,,,,,,,,,,,,,,sub-100,1.0,random_dot,59.77654332221648,
right,right,speed,,,,,0.0,1.0,1.0,1.0,10.0,0.0,20.0,1.0,1175.2628021000128,,,,,,,,,1175.2479830000084,1175.36237290001,1176.1620852999913,1176.1462628000008,1176.1462821000025,1176.1620852999913,1176.1620852999913,1176.1620852999913,,1176.7302806999942,right,1.0,22.384762200003024,,,,,,,,,,,,,,,,,,,,,,,,,,,,,,sub-100,1.0,random_dot,59.77654332221648,
left,left,speed,,,,,0.0,1.0,1.0,1.0,10.0,1.0,21.0,0.0,1176.745934400009,,,,,,,,,1176.7321008,1176.8467863000114,1177.6454721000046,1177.6299973000132,1177.6300327999925,1177.6454721000046,1177.6454721000046,1177.6454721000046,,1181.6802240000106,left,1.0,25.842391299986048,,,,,,,,,,,,,,,,,,,,,,,,,,,,,,sub-100,1.0,random_dot,59.77654332221648,
right,right,speed,,,,,0.0,1.0,1.0,1.0,11.0,0.0,22.0,1.0,1181.695215899992,,,,,,,,,1181.6815905999974,1181.794772900001,1182.5955666000082,1182.5794121999934,1182.5794369000068,1182.5955666000082,1182.5955666000082,1182.5955666000082,,1183.162684100011,right,1.0,22.38267829999677,,,,,,,,,,,,,,,,,,,,,,,,,,,,,,sub-100,1.0,random_dot,59.77654332221648,
left,left,speed,,,,,0.0,1.0,1.0,1.0,11.0,1.0,23.0,0.0,1183.1784389000095,,,,,,,,,1183.1637275000105,1183.528503300011,1184.327529400005,1184.3121283999935,1184.312149500009,1184.327529400005,1184.327529400005,1184.327529400005,,1184.8295958999952,left,1.0,22.31813569998485,,,,,,,,,,,,,,,,,,,,,,,,,,,,,,sub-100,1.0,random_dot,59.77654332221648,
right,right,speed,,,,,0.0,1.0,1.0,1.0,12.0,0.0,24.0,1.0,1184.8442926999996,,,,,,,,,1184.830594500003,1186.0450077000132,1186.844024799997,1186.8282480000053,1186.828267600009,1186.844024799997,1186.844024799997,1186.844024799997,,1187.4627992000023,right,1.0,22.436337999999523,,,,,,,,,,,,,,,,,,,,,,,,,,,,,,sub-100,1.0,random_dot,59.77654332221648,
left,left,speed,,,,,0.0,1.0,1.0,1.0,12.0,1.0,25.0,0.0,1187.4772138000117,,,,,,,,,1187.4638577000003,1188.27778210002,1189.077561700018,1189.0611417000182,1189.0611676000117,1189.077561700018,1189.077561700018,1189.077561700018,,1189.5783655999985,right,0.0,22.31192149998969,,,,,,,,,,,,,,,,,,,,,,,,,,,,,,sub-100,1.0,random_dot,59.77654332221648,
left,left,speed,,,,,0.0,1.0,1.0,1.0,13.0,0.0,26.0,0.0,1189.5936897000065,,,,,,,,,1189.5793602000049,1189.9444387000112,1190.7437845999957,1190.727638100012,1190.727657200012,1190.7437845999957,1190.7437845999957,1190.7437845999957,,1191.3111818000034,right,0.0,22.383536299981643,,,,,,,,,,,,,,,,,,,,,,,,,,,,,,sub-100,1.0,random_dot,59.77654332221648,
right,right,speed,,,,,0.0,1.0,1.0,1.0,13.0,1.0,27.0,1.0,1191.3268485000008,,,,,,,,,1191.3123586000002,1192.5267639000083,1193.3271574999962,1193.3106346999994,1193.3106533999962,1193.3271574999962,1193.3271574999962,1193.3271574999962,,1193.844495600002,right,1.0,22.32657490001293,,,,,,,,,,,,,,,,,,,,,,,,,,,,,,sub-100,1.0,random_dot,59.77654332221648,
left,left,speed,,,,,0.0,1.0,1.0,1.0,14.0,0.0,28.0,0.0,1193.860380099999,,,,,,,,,1193.8457016000175,1194.6604045999993,1195.4596163000097,1195.443871800002,1195.4438937999948,1195.4596163000097,1195.4596163000097,1195.4596163000097,,1195.844855000003,right,0.0,22.19241679998231,,,,,,,,,,,,,,,,,,,,,,,,,,,,,,sub-100,1.0,random_dot,59.77654332221648,
right,right,speed,,,,,0.0,1.0,1.0,1.0,14.0,1.0,29.0,1.0,1195.8602903000135,,,,,,,,,1195.8459942000045,1197.059439100005,1197.8594179000063,1197.8435025000072,1197.843529900012,1197.8594179000063,1197.8594179000063,1197.8594179000063,,1198.5271420000065,right,1.0,22.479318899975624,,,,,,,,,,,,,,,,,,,,,,,,,,,,,,sub-100,1.0,random_dot,59.77654332221648,
left,left,speed,,,,,0.0,1.0,1.0,1.0,15.0,0.0,30.0,0.0,1198.542676000012,,,,,,,,,1198.5281925000018,1199.343743400008,1200.1422893000126,1200.127084800013,1200.1271323999972,1200.1422893000126,1200.1422893000126,1200.1422893000126,,1200.9776258000056,left,1.0,22.64232909999555,,,,,,,,,,,,,,,,,,,,,,,,,,,,,,sub-100,1.0,random_dot,59.77654332221648,
right,right,speed,,,,,0.0,1.0,1.0,1.0,15.0,1.0,31.0,1.0,1200.9921181999962,,,,,,,,,1200.9787194000091,1202.1923828000145,1202.9918720000132,1202.9763663000194,1202.976386800001,1202.9918720000132,1202.9918720000132,1202.9918720000132,,1203.3769098000191,right,1.0,22.20228719999432,,,,,,,,,,,,,,,,,,,,,,,,,,,,,,sub-100,1.0,random_dot,59.77654332221648,
right,right,speed,,,,,0.0,1.0,1.0,1.0,16.0,0.0,32.0,1.0,1203.392275399994,,,,,,,,,1203.3779183000152,1204.1919889000128,1204.9923965000198,1204.9768294999958,1204.9768492000003,1204.9923965000198,1204.9923965000198,1204.9923965000198,,1205.7435037000105,right,1.0,22.56641190001392,,,,,,,,,,,,,,,,,,,,,,,,,,,,,,sub-100,1.0,random_dot,59.77654332221648,
left,left,speed,,,,,0.0,1.0,1.0,1.0,16.0,1.0,33.0,0.0,1205.758714399999,,,,,,,,,1205.7445605999965,1205.8583780000044,1206.657992399996,1206.642840400018,1206.642860299995,1206.657992399996,1206.657992399996,1206.657992399996,,1207.6433289000124,left,1.0,22.800979399995413,,,,,,,,,,,,,,,,,,,,,,,,,,,,,,sub-100,1.0,random_dot,59.77654332221648,
left,left,speed,,,,,0.0,1.0,1.0,1.0,17.0,0.0,34.0,0.0,1207.6586476000084,,,,,,,,,1207.6452385000011,1208.0083751000057,1208.8084877000074,1208.7919808000152,1208.7920012999966,1208.8084877000074,1208.8084877000074,1208.8084877000074,,1209.9103826000064,right,0.0,22.908049299992854,,,,,,,,,,,,,,,,,,,,,,,,,,,,,,sub-100,1.0,random_dot,59.77654332221648,
right,right,speed,,,,,0.0,1.0,1.0,1.0,17.0,1.0,35.0,1.0,1209.9251325000075,,,,,,,,,1209.913089700014,1210.724740500009,1211.5245600999915,1211.50886490001,1211.5088935999956,1211.5245600999915,1211.5245600999915,1211.5245600999915,,1212.225920900004,right,1.0,22.51387359999353,,,,,,,,,,,,,,,,,,,,,,,,,,,,,,sub-100,1.0,random_dot,59.77654332221648,
right,right,speed,,,,,0.0,1.0,1.0,1.0,18.0,0.0,36.0,1.0,1212.2414772000047,,,,,,,,,1212.227038300014,1213.4412203000102,1214.241303799994,1214.225558200007,1214.2255975000153,1214.241303799994,1214.241303799994,1214.241303799994,,1215.1594965000113,left,0.0,22.721359499963,,,,,,,,,,,,,,,,,,,,,,,,,,,,,,sub-100,1.0,random_dot,59.77654332221648,
left,left,speed,,,,,0.0,1.0,1.0,1.0,18.0,1.0,37.0,0.0,1215.1734008000058,,,,,,,,,1215.1614073000092,1215.9742383999985,1216.7737072000164,1216.7579449000186,1216.7579646999948,1216.7737072000164,1216.7737072000164,1216.7737072000164,,1217.5588768000016,right,0.0,22.60160859997268,,,,,,,,,,,,,,,,,,,,,,,,,,,,,,sub-100,1.0,random_dot,59.77654332221648,
right,right,speed,,,,,0.0,1.0,1.0,1.0,19.0,0.0,38.0,1.0,1217.574337099999,,,,,,,,,1217.5602930000168,1217.6730900999974,1218.4731401000172,1218.4573580000142,1218.4574081000171,1218.4731401000172,1218.4731401000172,1218.4731401000172,,1219.308194400015,right,1.0,22.644979699980468,,,,,,,,,,,,,,,,,,,,,,,,,,,,,,sub-100,1.0,random_dot,59.77654332221648,
left,left,speed,,,,,0.0,1.0,1.0,1.0,19.0,1.0,39.0,0.0,1219.3234100000118,,,,,,,,,1219.3094716000196,1220.5232176000136,1221.3236236000084,1221.3070019000152,1221.3070211000158,1221.3236236000084,1221.3236236000084,1221.3236236000084,,1222.35770350002,left,1.0,22.849706899985904,,,,,,,,,,,,,,,,,,,,,,,,,,,,,,sub-100,1.0,random_dot,59.77654332221648,
left,left,speed,,,,,0.0,1.0,1.0,1.0,20.0,0.0,40.0,0.0,1222.373037000012,,,,,,,,,1222.3588233000191,1222.7232195000106,1223.5228216999967,1223.5073144000198,1223.5073339999944,1223.5228216999967,1223.5228216999967,1223.5228216999967,,1224.508479400014,left,1.0,22.78969619999407,,,,,,,,,,,,,,,,,,,,,,,,,,,,,,sub-100,1.0,random_dot,59.77654332221648,
right,right,speed,,,,,0.0,1.0,1.0,1.0,20.0,1.0,41.0,1.0,1224.5223590999958,,,,,,,,,1224.510316,1225.323285599996,1226.1228859999974,1226.1067127000133,1226.106736000016,1226.1228859999974,1226.1228859999974,1226.1228859999974,,1226.8733981999976,right,1.0,22.559364199987613,,,,,,,,,,,,,,,,,,,,,,,,,,,,,,sub-100,1.0,random_dot,59.77654332221648,
right,right,speed,,,,,0.0,1.0,1.0,1.0,21.0,0.0,42.0,1.0,1226.8891839999997,,,,,,,,,1226.8744557000173,1227.2393509999963,1228.0389696000202,1228.0228908999998,1228.022911100008,1228.0389696000202,1228.0389696000202,1228.0389696000202,,1228.7398278000182,right,1.0,22.51175819998025,,,,,,,,,,,,,,,,,,,,,,,,,,,,,,sub-100,1.0,random_dot,59.77654332221648,
left,left,speed,,,,,0.0,1.0,1.0,1.0,21.0,1.0,43.0,0.0,1228.7559054000012,,,,,,,,,1228.7414200000055,1229.955496700015,1230.7552508999945,1230.739643000008,1230.739662100008,1230.7552508999945,1230.7552508999945,1230.7552508999945,,1231.323290100001,left,1.0,22.382478199986508,,,,,,,,,,,,,,,,,,,,,,,,,,,,,,sub-100,1.0,random_dot,59.77654332221648,
right,right,speed,,,,,0.0,1.0,1.0,1.0,22.0,0.0,44.0,1.0,1231.3387014000036,,,,,,,,,1231.324836899992,1231.4387153999996,1232.238007100008,1232.222769200016,1232.2227893999952,1232.238007100008,1232.238007100008,1232.238007100008,,1232.8892396000156,right,1.0,22.455597299995134,,,,,,,,,,,,,,,,,,,,,,,,,,,,,,sub-100,1.0,random_dot,59.77654332221648,
left,left,speed,,,,,0.0,1.0,1.0,1.0,22.0,1.0,45.0,0.0,1232.9052415000042,,,,,,,,,1232.890268999996,1234.104954600014,1234.904861899995,1234.889504199993,1234.8895327000064,1234.904861899995,1234.904861899995,1234.904861899995,,1235.7225715999955,left,1.0,22.634222699998645,,,,,,,,,,,,,,,,,,,,,,,,,,,,,,sub-100,1.0,random_dot,59.77654332221648,
left,left,speed,,,,,0.0,1.0,1.0,1.0,23.0,0.0,46.0,0.0,1235.7383558000147,,,,,,,,,1235.7236607999948,1236.5377827000048,1237.337592900003,1237.321486300003,1237.3215055000037,1237.337592900003,1237.337592900003,1237.337592900003,,1237.9390342000115,left,1.0,22.416778599988906,,,,,,,,,,,,,,,,,,,,,,,,,,,,,,sub-100,1.0,random_dot,59.77654332221648,
right,right,speed,,,,,0.0,1.0,1.0,1.0,23.0,1.0,47.0,1.0,1237.9547579000064,,,,,,,,,1237.9400779000134,1238.0544804999954,1238.854624700005,1238.8388365000137,1238.838856300019,1238.854624700005,1238.854624700005,1238.854624700005,,1239.3883304000192,right,1.0,22.34219860000303,,,,,,,,,,,,,,,,,,,,,,,,,,,,,,sub-100,1.0,random_dot,59.77654332221648,
left,left,speed,,,,,0.0,1.0,1.0,1.0,24.0,0.0,48.0,0.0,1239.404324700008,,,,,,,,,1239.3893523000006,1240.2041338999989,1241.0038515000197,1240.988183800015,1240.9882123999996,1241.0038515000197,1241.0038515000197,1241.0038515000197,,1241.4051092000154,right,0.0,22.20775389997289,,,,,,,,,,,,,,,,,,,,,,,,,,,,,,sub-100,1.0,random_dot,59.77654332221648,
right,right,speed,,,,,0.0,1.0,1.0,1.0,24.0,1.0,49.0,1.0,1241.420515900012,,,,,,,,,1241.4062167000084,1242.2204582999984,1243.020224900014,1243.0042361000087,1243.0042553000094,1243.020224900014,1243.020224900014,1243.020224900014,,1243.6047983000171,right,1.0,22.390743299998576,,,,,,,,,,,,,,,,,,,,,,,,,,,,,,sub-100,1.0,random_dot,59.77654332221648,
left,left,speed,,,,,0.0,1.0,1.0,1.0,25.0,0.0,50.0,0.0,1243.6203720000049,,,,,,,,,1243.605802200007,1243.719941899995,1244.51996830001,1244.5043799999985,1244.5043993,1244.51996830001,1244.51996830001,1244.51996830001,,1245.138265000016,right,0.0,22.423432999989014,,,,,,,,,,,,,,,,,,,,,,,,,,,,,,sub-100,1.0,random_dot,59.77654332221648,
right,right,speed,,,,,0.0,1.0,1.0,1.0,25.0,1.0,51.0,1.0,1245.154197900003,,,,,,,,,1245.1392918000056,1245.9536128000182,1246.7532327999943,1246.7369287000038,1246.7369482000067,1246.7532327999943,1246.7532327999943,1246.7532327999943,,1247.2707071000186,right,1.0,22.327151300007245,,,,,,,,,,,,,,,,,,,,,,,,,,,,,,sub-100,1.0,random_dot,59.77654332221648,
left,left,speed,,,,,0.0,1.0,1.0,1.0,26.0,0.0,52.0,0.0,1247.286767600017,,,,,,,,,1247.2717854999937,1247.636972600012,1248.4364047000126,1248.420883600018,1248.4209030999918,1248.4364047000126,1248.4364047000126,1248.4364047000126,,1248.8380264000152,right,0.0,22.216671999980463,,,,,,,,,,,,,,,,,,,,,,,,,,,,,,sub-100,1.0,random_dot,59.77654332221648,
right,right,speed,,,,,0.0,1.0,1.0,1.0,26.0,1.0,53.0,1.0,1248.852742499992,,,,,,,,,1248.8390602,1248.9529847000083,1249.7525958000042,1249.7369256000093,1249.7369445000077,1249.7525958000042,1249.7525958000042,1249.7525958000042,,1250.6876312000095,left,0.0,22.73824209999293,,,,,,,,,,,,,,,,,,,,,,,,,,,,,,sub-100,1.0,random_dot,59.77654332221648,
left,left,speed,,,,,0.0,1.0,1.0,1.0,27.0,0.0,54.0,0.0,1250.702855600015,,,,,,,,,1250.6886177000124,1251.0523728000117,1251.8529310000013,1251.836913200008,1251.8369326000102,1251.8529310000013,1251.8529310000013,1251.8529310000013,,1254.170076600014,right,0.0,24.124803100014105,,,,,,,,,,,,,,,,,,,,,,,,,,,,,,sub-100,1.0,random_dot,59.77654332221648,
right,right,speed,,,,,0.0,1.0,1.0,1.0,27.0,1.0,55.0,1.0,1254.1853292000014,,,,,,,,,1254.1711427000118,1254.9856343000138,1255.785617100017,1255.769089700014,1255.7691089000143,1255.785617100017,1255.785617100017,1255.785617100017,,1256.153385100013,right,1.0,22.184232800005702,,,,,,,,,,,,,,,,,,,,,,,,,,,,,,sub-100,1.0,random_dot,59.77654332221648,
left,left,speed,,,,,0.0,1.0,1.0,1.0,28.0,0.0,56.0,0.0,1256.1685155000014,,,,,,,,,1256.1544401000135,1257.3683545000094,1258.1683351999964,1258.1529801000142,1258.1529991000134,1258.1683351999964,1258.1683351999964,1258.1683351999964,,1258.802852599998,left,1.0,22.439743499970064,,,,,,,,,,,,,,,,,,,,,,,,,,,,,,sub-100,1.0,random_dot,59.77654332221648,
right,right,speed,,,,,0.0,1.0,1.0,1.0,28.0,1.0,57.0,1.0,1258.8186740000092,,,,,,,,,1258.8039401000133,1259.1680318000144,1259.968340899999,1259.9522792999924,1259.95229820002,1259.968340899999,1259.968340899999,1259.968340899999,,1260.3693860000058,right,1.0,22.216595699981557,,,,,,,,,,,,,,,,,,,,,,,,,,,,,,sub-100,1.0,random_dot,59.77654332221648,
right,right,speed,,,,,0.0,1.0,1.0,1.0,29.0,0.0,58.0,1.0,1260.384926700004,,,,,,,,,1260.3706739000045,1261.1848285000017,1261.984398600005,1261.968336299993,1261.9683563,1261.984398600005,1261.984398600005,1261.984398600005,,1262.5359171000018,right,1.0,22.36605369998142,,,,,,,,,,,,,,,,,,,,,,,,,,,,,,sub-100,1.0,random_dot,59.77654332221648,
left,left,speed,,,,,0.0,1.0,1.0,1.0,29.0,1.0,59.0,0.0,1262.5514485000167,,,,,,,,,1262.5369614000083,1262.6514984999958,1263.45167770001,1263.4357995000028,1263.4358187000034,1263.45167770001,1263.45167770001,1263.45167770001,,1264.0020746999944,right,0.0,22.362773299973924,,,,,,,,,,,,,,,,,,,,,,,,,,,,,,sub-100,1.0,random_dot,59.77654332221648,
,,speed,,,,,0.0,1.0,1.0,1.0,,,,,,,,,,,,,,,,,,,,,,,,,,,,,,,,,,,,,,,,,,,,,,,,,,,,,,,,sub-100,1.0,random_dot,59.77654332221648,
,,,,,,,,,,,,,,,,,,,,,,,,,,,,,,,,,,,,,,,,,,,,,,,,,,,,,,,,,,,,,,,1264.0028629000008,1264.0180664999934,1269.016890800005,sub-100,,,,
