direction,corrAns,randomInstr,practice_trials.thisRepN,practice_trials.thisTrialN,practice_trials.thisN,practice_trials.thisIndex,instr_trials.thisRepN,instr_trials.thisTrialN,instr_trials.thisN,instr_trials.thisIndex,test_trials.thisRepN,test_trials.thisTrialN,test_trials.thisN,test_trials.thisIndex,thisRow.t,notes,general_instruction.started,textGeneralInstr.started,respGeneralInstr.started,general_instruction.stopped,respGeneralInstr.keys,respGeneralInstr.rt,respGeneralInstr.duration,ITI.started,fixcross.started,fixcross.stopped,ITI.stopped,dots.started,backgroundDots.started,stimulusDots.started,respDots.started,dots.stopped,respDots.keys,respDots.corr,respDots.rt,respDots.duration,feedback.started,textFeedback.started,feedback.stopped,textFeedback.stopped,info.started,textInfo.started,keyRespInfo.started,info.stopped,keyRespInfo.keys,keyRespInfo.rt,keyRespInfo.duration,test_instruction.started,textTestInstr.started,respTestInstr.started,test_instruction.stopped,respTestInstr.keys,respTestInstr.rt,respTestInstr.duration,random_instruction.started,textRandomInstr.started,respRandomInstr.started,random_instruction.stopped,respRandomInstr.keys,respRandomInstr.rt,respRandomInstr.duration,stimulusDots.stopped,goodbye.started,textGoodbye.started,textGoodbye.stopped,goodbye.stopped,participant,session,expName,frameRate,Unnamed: 74
,,,,,,,,,,,,,,,,,0.0227513999852817,0.0388009999878704,0.0388009999878704,16.794254599983105,space,42.61415979999583,,,,,,,,,,,,,,,,,,,,,,,,,,,,,,,,,,,,,,,,,,,,,sub-043,1.0,random_dot,59.80267509104013,
left,left,,0.0,0.0,0.0,0.0,,,,,,,,,16.838168499991298,,,,,,,,,16.828202599979704,17.605507700005546,18.40630499998224,18.389189799985616,18.38922379998257,18.40630499998224,18.40630499998224,18.40630499998224,19.560416299995268,right,0.0,27.028076699993107,,19.56108749998384,19.5881182999874,20.07186619998538,,,,,,,,,,,,,,,,,,,,,,,,,,,,sub-043,1.0,random_dot,59.80267509104013,
right,right,,0.0,1.0,1.0,1.0,,,,,,,,,20.088985899987165,,,,,,,,,20.072345299995504,20.171455899981083,20.972165899991523,20.955485499987844,20.955504799989285,20.972165899991523,20.972165899991523,20.972165899991523,23.972730299981777,left,0.0,28.867717100016307,,23.97322929999791,23.98887119998108,24.472490599990124,24.48871949999011,,,,,,,,,,,,,,,,,,,,,,,,,,,sub-043,1.0,random_dot,59.80267509104013,
right,right,,1.0,0.0,2.0,1.0,,,,,,,,,24.48871949999011,,,,,,,,,24.472914199985095,24.57224330000463,25.371917599986773,25.355812499998137,25.3558350999956,25.371917599986773,25.371917599986773,25.371917599986773,26.88952579998295,right,1.0,27.382247900008224,,26.89001430000644,26.90496379998513,27.3895354999986,27.40564599999925,,,,,,,,,,,,,,,,,,,,,,,,,,,sub-043,1.0,random_dot,59.80267509104013,
left,left,,1.0,1.0,3.0,0.0,,,,,,,,,27.40564599999925,,,,,,,,,27.38998239999637,27.50471280000056,28.30448689998593,28.289050399995176,28.28908879999653,28.30448689998593,28.30448689998593,28.30448689998593,32.32278379998752,left,1.0,29.89254830000573,,32.32329659999232,32.33849039999768,32.82249550000415,32.83840379997855,,,,,,,,,,,,,,,,,,,,,,,,,,,sub-043,1.0,random_dot,59.80267509104013,
right,right,,2.0,0.0,4.0,1.0,,,,,,,,,32.83840379997855,,,,,,,,,32.8229051999806,33.18822039998486,33.98790419998113,33.972464699996635,33.972484700003406,33.98790419998113,33.98790419998113,33.98790419998113,36.272156299994094,right,1.0,28.1557979999925,,36.27265139998053,36.287752599979285,36.77276859999984,36.79134409999824,,,,,,,,,,,,,,,,,,,,,,,,,,,sub-043,1.0,random_dot,59.80267509104013,
left,left,,2.0,1.0,5.0,0.0,,,,,,,,,36.79134409999824,,,,,,,,,36.77321600000141,37.57142249998287,38.37128999998095,38.35584549998748,38.35586859998875,38.37128999998095,38.37128999998095,38.37128999998095,39.75613160000648,left,1.0,27.259286499989685,,39.75666159999673,39.77112950000446,40.25599679999869,40.27169839999988,,,,,,,,,,,,,,,,,,,,,,,,,,,sub-043,1.0,random_dot,59.80267509104013,
right,right,,3.0,0.0,6.0,1.0,,,,,,,,,40.27169839999988,,,,,,,,,40.25646669999696,41.4716070999857,42.2715593999892,42.25541389998398,42.255437399988296,42.2715593999892,42.2715593999892,42.2715593999892,47.20544229997904,left,0.0,30.804360000009183,,47.20597999999882,47.221173500001896,47.70507149997866,47.72119989999919,,,,,,,,,,,,,,,,,,,,,,,,,,,sub-043,1.0,random_dot,59.80267509104013,
left,left,,3.0,1.0,7.0,0.0,,,,,,,,,47.72119989999919,,,,,,,,,47.70548579999013,48.52121159998933,49.32145550000132,49.30477550000069,49.30479490000289,49.32145550000132,49.32145550000132,49.32145550000132,51.2548950999917,left,1.0,27.803285600006348,,51.255542400002014,51.27105769998161,51.75468879999244,51.77117249998264,,,,,,,,,,,,,,,,,,,,,,,,,,,sub-043,1.0,random_dot,59.80267509104013,
left,left,,4.0,0.0,8.0,0.0,,,,,,,,,51.77117249998264,,,,,,,,,51.75510999999824,52.55497739999555,53.35424369998509,53.33866879998823,53.338687999988906,53.35424369998509,53.35424369998509,53.35424369998509,55.90535539999837,left,1.0,28.425465100008296,,55.90587259997847,55.92092760000378,56.40537579997908,56.42103159998078,,,,,,,,,,,,,,,,,,,,,,,,,,,sub-043,1.0,random_dot,59.80267509104013,
right,right,,4.0,1.0,9.0,1.0,,,,,,,,,56.42103159998078,,,,,,,,,56.40575959999114,56.52138369999011,57.32131879997905,57.30520400000387,57.30523090000497,57.32131879997905,57.32131879997905,57.32131879997905,58.37196129999938,right,1.0,26.922369100007927,,58.37245719999191,58.38765709998552,58.87235940000392,58.88798609998776,,,,,,,,,,,,,,,,,,,,,,,,,,,sub-043,1.0,random_dot,59.80267509104013,
right,right,,5.0,0.0,10.0,1.0,,,,,,,,,58.88798609998776,,,,,,,,,58.87289539998165,60.08781959998305,60.8876718999818,60.871779799985234,60.87180249998346,60.8876718999818,60.8876718999818,60.8876718999818,62.188300999987405,right,1.0,27.17102259999956,,62.18883259998984,62.20390900000348,62.68833199999062,62.70381849998376,,,,,,,,,,,,,,,,,,,,,,,,,,,sub-043,1.0,random_dot,59.80267509104013,
left,left,,5.0,1.0,11.0,0.0,,,,,,,,,62.70381849998376,,,,,,,,,62.6887930999801,63.05396389999078,63.85442459999467,63.83801179999136,63.83803389998502,63.85442459999467,63.85442459999467,63.85442459999467,65.30483089998597,left,1.0,27.322123300022213,,65.30543039998156,65.32055869998294,65.80574979999801,65.82173870000406,,,,,,,,,,,,,,,,,,,,,,,,,,,sub-043,1.0,random_dot,59.80267509104013,
left,left,,6.0,0.0,12.0,0.0,,,,,,,,,65.82173870000406,,,,,,,,,65.80616399997962,65.92148649998126,66.72049979999429,66.70512349999626,66.7051427999977,66.72049979999429,66.72049979999429,66.72049979999429,67.72127680000267,left,1.0,26.86518610001076,,67.72180229998776,67.73701230000006,68.22218789998442,68.2374395999941,,,,,,,,,,,,,,,,,,,,,,,,,,,sub-043,1.0,random_dot,59.80267509104013,
right,right,,6.0,1.0,13.0,1.0,,,,,,,,,68.2374395999941,,,,,,,,,68.22260489998735,69.43748589997995,70.23759479998262,70.22135849998449,70.22137749998365,70.23759479998262,70.23759479998262,70.23759479998262,71.27114679999067,right,1.0,26.898193000030005,,71.27163390000351,71.28683999998611,71.7712967999978,71.78723990000435,,,,,,,,,,,,,,,,,,,,,,,,,,,sub-043,1.0,random_dot,59.80267509104013,
right,right,,7.0,0.0,14.0,1.0,,,,,,,,,71.78723990000435,,,,,,,,,71.77175079999142,72.57081750000361,73.3703330999997,73.354307600006,73.35433149998426,73.3703330999997,73.3703330999997,73.3703330999997,74.40419820000534,left,0.0,26.90353100001812,,74.40467999997782,74.42023289998178,74.90428279998014,74.92066849998082,,,,,,,,,,,,,,,,,,,,,,,,,,,sub-043,1.0,random_dot,59.80267509104013,
left,left,,7.0,1.0,15.0,0.0,,,,,,,,,74.92066849998082,,,,,,,,,74.90467519999947,75.70415629999479,76.50423779999255,76.48818409998785,76.48822099997778,76.50423779999255,76.50423779999255,76.50423779999255,78.12237279998953,left,1.0,27.494650300010107,,78.12292639998486,78.1373195000051,78.62109390000114,78.63720789999934,,,,,,,,,,,,,,,,,,,,,,,,,,,sub-043,1.0,random_dot,59.80267509104013,
left,left,,8.0,0.0,16.0,0.0,,,,,,,,,78.63720789999934,,,,,,,,,78.62147919999552,78.98708419999457,79.7874433999823,79.77147079998394,79.77149079999072,79.7874433999823,79.7874433999823,79.7874433999823,82.27144270000281,left,1.0,28.349267999990843,,82.27199159999145,82.28727169998456,82.77097889999277,82.78662629998871,,,,,,,,,,,,,,,,,,,,,,,,,,,sub-043,1.0,random_dot,59.80267509104013,
right,right,,8.0,1.0,17.0,1.0,,,,,,,,,82.78662629998871,,,,,,,,,82.77142629999435,83.13669399998616,83.93697949999478,83.92086419998668,83.92088749998948,83.93697949999478,83.93697949999478,83.93697949999478,85.83748369998648,right,1.0,27.777445899992017,,85.83796799997799,85.85335799999302,86.33742820000043,86.35359650000464,,,,,,,,,,,,,,,,,,,,,,,,,,,sub-043,1.0,random_dot,59.80267509104013,
right,right,,9.0,0.0,18.0,1.0,,,,,,,,,86.35359650000464,,,,,,,,,86.33787210000446,86.70346940000309,87.5036695000017,87.4875086999964,87.48753149999538,87.5036695000017,87.5036695000017,87.5036695000017,90.32160450000084,right,1.0,28.69120189998648,,90.3221219999832,90.33643500000473,90.82106079999356,90.8365410999977,,,,,,,,,,,,,,,,,,,,,,,,,,,sub-043,1.0,random_dot,59.80267509104013,
left,left,,9.0,1.0,19.0,0.0,,,,,,,,,90.8365410999977,,,,,,,,,90.82145149999997,91.18655399998534,91.9870302999916,91.97144079999998,91.97147190000396,91.9870302999916,91.9870302999916,91.9870302999916,93.48766799998702,left,1.0,27.378902800002837,,93.48811109998496,93.50317389998236,93.98770899997908,94.00398109998788,,,,,,,,,,,,,,,,,,,,,,,,,,,sub-043,1.0,random_dot,59.80267509104013,
,,,,,,,,,,,,,,,,,,,,,,,,,,,,,,,,,,,,,,,,,93.98777809998136,94.00398109998788,94.00398109998788,97.85516710000228,space,29.71739499998512,,,,,,,,,,,,,,,,,,,,,sub-043,1.0,random_dot,59.80267509104013,
,,,,,,,,,,,,,,,,,,,,,,,,,,,,,,,,,,,,,,,,,,,,,,,,97.85520619997988,97.86996799998452,97.86996799998452,104.0534789999947,space,32.061914099991554,,,,,,,,,,,,,,sub-043,1.0,random_dot,59.80267509104013,
left,left,accuracy,,,,,0.0,0.0,0.0,0.0,0.0,0.0,0.0,0.0,111.40574669998024,,,,,,,,,111.39790129999164,112.60608870000578,113.40646539998124,113.38943239999936,113.38945539999986,113.40646539998124,113.40646539998124,113.40646539998124,114.95707350000156,left,1.0,27.41959290002705,,,,,,,,,,,,,,,,,,,,104.0671355999948,104.08882740000264,104.08882740000264,111.39104220000443,space,33.1777217000199,,,,,,,sub-043,1.0,random_dot,59.80267509104013,
right,right,accuracy,,,,,0.0,0.0,0.0,0.0,0.0,1.0,1.0,1.0,114.97227639998891,,,,,,,,,114.9583206999814,115.77279699998326,116.57374999998136,116.55720989999828,116.55723969999237,116.57374999998136,116.57374999998136,116.57374999998136,118.45849659998204,right,1.0,27.75616039999295,,,,,,,,,,,,,,,,,,,,,,,,,,,,,,,,sub-043,1.0,random_dot,59.80267509104013,
right,right,accuracy,,,,,0.0,0.0,0.0,0.0,1.0,0.0,2.0,1.0,118.47215180000056,,,,,,,,,118.45942229998764,118.57272649998777,119.37360409999384,119.35688279999886,119.35690199999954,119.37360409999384,119.37360409999384,119.37360409999384,122.0250705999788,left,0.0,28.516790699999547,,,,,,,,,,,,,,,,,,,,,,,,,,,,,,,,sub-043,1.0,random_dot,59.80267509104013,
left,left,accuracy,,,,,0.0,0.0,0.0,0.0,1.0,1.0,3.0,0.0,122.03917699999874,,,,,,,,,122.02600650000386,122.83982369999283,123.63975659999414,123.62291219999317,123.62293159999535,123.63975659999414,123.63975659999414,123.63975659999414,125.15830359997926,left,1.0,27.397732300014468,,,,,,,,,,,,,,,,,,,,,,,,,,,,,,,,sub-043,1.0,random_dot,59.80267509104013,
left,left,accuracy,,,,,0.0,0.0,0.0,0.0,2.0,0.0,4.0,0.0,125.17212589998962,,,,,,,,,125.15932279999834,125.97263800000655,126.7737441000063,126.75614300000598,126.7561749999877,126.7737441000063,126.7737441000063,126.7737441000063,129.9407601999992,left,1.0,29.03457790001994,,,,,,,,,,,,,,,,,,,,,,,,,,,,,,,,sub-043,1.0,random_dot,59.80267509104013,
right,right,accuracy,,,,,0.0,0.0,0.0,0.0,2.0,1.0,5.0,1.0,129.95585030000075,,,,,,,,,129.94168289998197,131.15561469999375,131.95647929998813,131.940068099997,131.94009099999676,131.95647929998813,131.95647929998813,131.95647929998813,133.59163869998883,right,1.0,27.51462200001697,,,,,,,,,,,,,,,,,,,,,,,,,,,,,,,,sub-043,1.0,random_dot,59.80267509104013,
left,left,accuracy,,,,,0.0,0.0,0.0,0.0,3.0,0.0,6.0,0.0,133.60558529998525,,,,,,,,,133.59254499999224,133.95589539999492,134.75709020000068,134.73976880000555,134.73978869998246,134.75709020000068,134.75709020000068,134.75709020000068,136.7410749999981,left,1.0,27.856863900000462,,,,,,,,,,,,,,,,,,,,,,,,,,,,,,,,sub-043,1.0,random_dot,59.80267509104013,
right,right,accuracy,,,,,0.0,0.0,0.0,0.0,3.0,1.0,7.0,1.0,136.75501920000534,,,,,,,,,136.74199539999245,136.8555908999988,137.6560077999893,137.63943939999444,137.63945869999588,137.6560077999893,137.6560077999893,137.6560077999893,140.9567533999798,right,1.0,29.164735099999238,,,,,,,,,,,,,,,,,,,,,,,,,,,,,,,,sub-043,1.0,random_dot,59.80267509104013,
right,right,accuracy,,,,,0.0,0.0,0.0,0.0,4.0,0.0,8.0,1.0,140.9715423999878,,,,,,,,,140.95764979999512,141.77206489999662,142.58510199998273,142.56927779997932,142.5693065999949,142.58510199998273,142.58510199998273,142.58510199998273,145.71941540000262,right,1.0,29.013577900012024,,,,,,,,,,,,,,,,,,,,,,,,,,,,,,,,sub-043,1.0,random_dot,59.80267509104013,
left,left,accuracy,,,,,0.0,0.0,0.0,0.0,4.0,1.0,9.0,0.0,145.73493139998754,,,,,,,,,145.72036509998725,146.08499169998686,146.88526579999598,146.86973730000318,146.86975719998009,146.88526579999598,146.88526579999598,146.88526579999598,151.48674609998125,left,1.0,30.473766700015403,,,,,,,,,,,,,,,,,,,,,,,,,,,,,,,,sub-043,1.0,random_dot,59.80267509104013,
left,left,accuracy,,,,,0.0,0.0,0.0,0.0,5.0,0.0,10.0,0.0,151.5018579000025,,,,,,,,,151.4876465999987,151.85195250000106,152.65201499999966,152.63660729999538,152.6366317999782,152.65201499999966,152.65201499999966,152.65201499999966,155.6693386999832,left,1.0,28.889220000011846,,,,,,,,,,,,,,,,,,,,,,,,,,,,,,,,sub-043,1.0,random_dot,59.80267509104013,
right,right,accuracy,,,,,0.0,0.0,0.0,0.0,5.0,1.0,11.0,1.0,155.68547639998724,,,,,,,,,155.67073459998937,156.48518699998385,157.28501589997904,157.2691089999862,157.26913169998443,157.28501589997904,157.28501589997904,157.28501589997904,159.35208739998052,right,1.0,27.937079199997243,,,,,,,,,,,,,,,,,,,,,,,,,,,,,,,,sub-043,1.0,random_dot,59.80267509104013,
left,left,accuracy,,,,,0.0,0.0,0.0,0.0,6.0,0.0,12.0,0.0,159.36894129999564,,,,,,,,,159.35293059999822,160.5523226999794,161.3517368999892,161.33599999998114,161.3360230999824,161.3517368999892,161.3517368999892,161.3517368999892,162.56936199998017,left,1.0,27.08781579998322,,,,,,,,,,,,,,,,,,,,,,,,,,,,,,,,sub-043,1.0,random_dot,59.80267509104013,
right,right,accuracy,,,,,0.0,0.0,0.0,0.0,6.0,1.0,13.0,1.0,162.584566799982,,,,,,,,,162.57035789999645,162.93526299999212,163.7350543999928,163.71902200000477,163.71904490000452,163.7350543999928,163.7350543999928,163.7350543999928,164.91898299998138,right,1.0,27.05951309998636,,,,,,,,,,,,,,,,,,,,,,,,,,,,,,,,sub-043,1.0,random_dot,59.80267509104013,
right,right,accuracy,,,,,0.0,0.0,0.0,0.0,7.0,0.0,14.0,1.0,164.93466209998587,,,,,,,,,164.91985839998233,165.03466010000557,165.8346462000045,165.81906499998877,165.81908399998792,165.8346462000045,165.8346462000045,165.8346462000045,167.8524669999897,left,0.0,27.884075000009037,,,,,,,,,,,,,,,,,,,,,,,,,,,,,,,,sub-043,1.0,random_dot,59.80267509104013,
left,left,accuracy,,,,,0.0,0.0,0.0,0.0,7.0,1.0,15.0,0.0,167.868264299992,,,,,,,,,167.85339360000216,168.65170889999715,169.45192699998734,169.4356725999969,169.43569250000292,169.45192699998734,169.45192699998734,169.45192699998734,170.66905120000592,left,1.0,27.084968200011645,,,,,,,,,,,,,,,,,,,,,,,,,,,,,,,,sub-043,1.0,random_dot,59.80267509104013,
left,left,accuracy,,,,,0.0,0.0,0.0,0.0,8.0,0.0,16.0,0.0,170.6843261999893,,,,,,,,,170.66997729998548,171.88496009999653,172.68468639999628,172.66878229999566,172.6688014999963,172.68468639999628,172.68468639999628,172.68468639999628,177.40228720000596,left,1.0,30.588954899983943,,,,,,,,,,,,,,,,,,,,,,,,,,,,,,,,sub-043,1.0,random_dot,59.80267509104013,
right,right,accuracy,,,,,0.0,0.0,0.0,0.0,8.0,1.0,17.0,1.0,177.4177206000022,,,,,,,,,177.40337279997766,177.76820019999286,178.56799399998272,178.55218879997847,178.55220829998143,178.56799399998272,178.56799399998272,178.56799399998272,180.1186818999995,right,1.0,27.42721610001172,,,,,,,,,,,,,,,,,,,,,,,,,,,,,,,,sub-043,1.0,random_dot,59.80267509104013,
left,left,accuracy,,,,,0.0,0.0,0.0,0.0,9.0,0.0,18.0,0.0,180.13471729998128,,,,,,,,,180.11964649998117,180.48509989999,181.2845445999992,181.2692332000006,181.26925329997903,181.2845445999992,181.2845445999992,181.2845445999992,183.55189879998213,left,1.0,28.13467150001088,,,,,,,,,,,,,,,,,,,,,,,,,,,,,,,,sub-043,1.0,random_dot,59.80267509104013,
right,right,accuracy,,,,,0.0,0.0,0.0,0.0,9.0,1.0,19.0,1.0,183.56768839998404,,,,,,,,,183.5528082999808,184.35119929999928,185.1512202000013,185.1352130000014,185.13523459999124,185.1512202000013,185.1512202000013,185.1512202000013,186.83517029997893,right,1.0,27.55628570000408,,,,,,,,,,,,,,,,,,,,,,,,,,,,,,,,sub-043,1.0,random_dot,59.80267509104013,
left,left,accuracy,,,,,0.0,0.0,0.0,0.0,10.0,0.0,20.0,0.0,186.85082369999145,,,,,,,,,186.83620309998517,188.05098989998805,188.85092830000207,188.83444599999348,188.8344787999813,188.85092830000207,188.85092830000207,188.85092830000207,193.63516309999977,left,1.0,30.66330010001548,,,,,,,,,,,,,,,,,,,,,,,,,,,,,,,,sub-043,1.0,random_dot,59.80267509104013,
right,right,accuracy,,,,,0.0,0.0,0.0,0.0,10.0,1.0,21.0,1.0,193.6508197999792,,,,,,,,,193.63606279998203,194.4509199000022,195.2504291999794,195.23437900000133,195.23440119999577,195.2504291999794,195.2504291999794,195.2504291999794,197.8513313999865,right,1.0,28.46760080000968,,,,,,,,,,,,,,,,,,,,,,,,,,,,,,,,sub-043,1.0,random_dot,59.80267509104013,
left,left,accuracy,,,,,0.0,0.0,0.0,0.0,11.0,0.0,22.0,0.0,197.8670526999922,,,,,,,,,197.8522866999847,199.0676163999888,199.8676510999794,199.8524058999901,199.85243850000552,199.8676510999794,199.8676510999794,199.8676510999794,201.48589959999663,left,1.0,27.49765429997933,,,,,,,,,,,,,,,,,,,,,,,,,,,,,,,,sub-043,1.0,random_dot,59.80267509104013,
right,right,accuracy,,,,,0.0,0.0,0.0,0.0,11.0,1.0,23.0,1.0,201.50067999999737,,,,,,,,,201.48690369998803,202.7002802999923,203.50112319999607,203.4841296999948,203.4841530999984,203.50112319999607,203.50112319999607,203.50112319999607,205.38542929998948,right,1.0,27.750756700028436,,,,,,,,,,,,,,,,,,,,,,,,,,,,,,,,sub-043,1.0,random_dot,59.80267509104013,
left,left,accuracy,,,,,0.0,0.0,0.0,0.0,12.0,0.0,24.0,0.0,205.40135400000145,,,,,,,,,205.386344700004,205.50068539998028,206.3006205999991,206.28459769999608,206.28461959998825,206.3006205999991,206.3006205999991,206.3006205999991,208.68446679998303,left,1.0,28.258815800014418,,,,,,,,,,,,,,,,,,,,,,,,,,,,,,,,sub-043,1.0,random_dot,59.80267509104013,
right,right,accuracy,,,,,0.0,0.0,0.0,0.0,12.0,1.0,25.0,1.0,208.7005205999885,,,,,,,,,208.6855546000006,209.4841312999779,210.2844664999866,210.26750459999312,210.26753819998703,210.2844664999866,210.2844664999866,210.2844664999866,212.7675648999866,right,1.0,28.361169000010705,,,,,,,,,,,,,,,,,,,,,,,,,,,,,,,,sub-043,1.0,random_dot,59.80267509104013,
right,right,accuracy,,,,,0.0,0.0,0.0,0.0,13.0,0.0,26.0,1.0,212.78355969997935,,,,,,,,,212.7684341999993,213.1170803999994,213.916779399995,213.90115109999897,213.9011835999845,213.916779399995,213.916779399995,213.916779399995,216.01747369999063,right,1.0,27.96961550001288,,,,,,,,,,,,,,,,,,,,,,,,,,,,,,,,sub-043,1.0,random_dot,59.80267509104013,
left,left,accuracy,,,,,0.0,0.0,0.0,0.0,13.0,1.0,27.0,0.0,216.03320639999583,,,,,,,,,216.01848189998415,216.8180189999985,217.61733509998885,217.60106399998767,217.60108689998745,217.61733509998885,217.61733509998885,217.61733509998885,223.10159750000457,right,0.0,31.354730199993355,,,,,,,,,,,,,,,,,,,,,,,,,,,222.70037899998715,,,,,sub-043,1.0,random_dot,59.80267509104013,
left,left,accuracy,,,,,0.0,0.0,0.0,0.0,14.0,0.0,28.0,0.0,223.11727940000128,,,,,,,,,223.1025040999812,223.91682969999965,224.7167962999956,224.700818399986,224.70083980000345,224.7167962999956,224.7167962999956,224.7167962999956,227.2841734999965,left,1.0,28.441923999984283,,,,,,,,,,,,,,,,,,,,,,,,,,,,,,,,sub-043,1.0,random_dot,59.80267509104013,
right,right,accuracy,,,,,0.0,0.0,0.0,0.0,14.0,1.0,29.0,1.0,227.29989520000527,,,,,,,,,227.28502719997775,228.08353429997808,228.88331139998627,228.86757319999745,228.86759569999413,228.88331139998627,228.88331139998627,228.88331139998627,232.06792249999123,right,1.0,29.063512900000205,,,,,,,,,,,,,,,,,,,,,,,,,,,,,,,,sub-043,1.0,random_dot,59.80267509104013,
left,left,accuracy,,,,,0.0,0.0,0.0,0.0,15.0,0.0,30.0,0.0,232.08315729998867,,,,,,,,,232.06884930000524,232.18343579999052,232.9829955000023,232.967001299985,232.96703559998423,232.9829955000023,232.9829955000023,232.9829955000023,235.46701439999745,left,1.0,28.3614134999807,,,,,,,,,,,,,,,,,,,,,,,,,,,,,,,,sub-043,1.0,random_dot,59.80267509104013,
right,right,accuracy,,,,,0.0,0.0,0.0,0.0,15.0,1.0,31.0,1.0,235.4828797999944,,,,,,,,,235.4678759999806,235.58269789998303,236.38272329999015,236.3673152999836,236.36734509997768,236.38272329999015,236.38272329999015,236.38272329999015,239.5339404999977,left,0.0,29.019547700008843,,,,,,,,,,,,,,,,,,,,,,,,,,,,,,,,sub-043,1.0,random_dot,59.80267509104013,
left,left,accuracy,,,,,0.0,0.0,0.0,0.0,16.0,0.0,32.0,0.0,239.5498052999901,,,,,,,,,239.53497340000467,239.8831690999796,240.682976799988,240.66755980000016,240.66758700000355,240.682976799988,240.682976799988,240.682976799988,245.08380150000448,left,1.0,30.26535430000513,,,,,,,,,,,,,,,,,,,,,,,,,,,,,,,,sub-043,1.0,random_dot,59.80267509104013,
right,right,accuracy,,,,,0.0,0.0,0.0,0.0,16.0,1.0,33.0,1.0,245.0992089000065,,,,,,,,,245.0846732000064,246.2831969999825,247.08288989998985,247.066834199999,247.06685339999967,247.08288989998985,247.08288989998985,247.08288989998985,250.41642729999148,right,1.0,29.20329689999926,,,,,,,,,,,,,,,,,,,,,,,,,,,,,,,,sub-043,1.0,random_dot,59.80267509104013,
right,right,accuracy,,,,,0.0,0.0,0.0,0.0,17.0,0.0,34.0,1.0,250.4324893000012,,,,,,,,,250.4173014999833,251.2160496999859,252.0162704999966,252.0002516999957,252.0002767999831,252.0162704999966,252.0162704999966,252.0162704999966,256.88354819998494,left,0.0,30.735465500009013,,,,,,,,,,,,,,,,,,,,,,,,,,,,,,,,sub-043,1.0,random_dot,59.80267509104013,
left,left,accuracy,,,,,0.0,0.0,0.0,0.0,17.0,1.0,35.0,0.0,256.8992889999936,,,,,,,,,256.884510200005,257.2494460000016,258.0491444999934,258.03334840000025,258.0333677000017,258.0491444999934,258.0491444999934,258.0491444999934,263.26652340000146,left,1.0,31.093514699983643,,,,,,,,,,,,,,,,,,,,,,,,,,,263.0492350999848,,,,,sub-043,1.0,random_dot,59.80267509104013,
right,right,accuracy,,,,,0.0,0.0,0.0,0.0,18.0,0.0,36.0,1.0,263.2820986000006,,,,,,,,,263.26758159999736,264.482262000005,265.2825368999911,265.2660027999955,265.26602199999616,265.2825368999911,265.2825368999911,265.2825368999911,267.3168670999876,right,1.0,27.9048890999984,,,,,,,,,,,,,,,,,,,,,,,,,,,,,,,,sub-043,1.0,random_dot,59.80267509104013,
left,left,accuracy,,,,,0.0,0.0,0.0,0.0,18.0,1.0,37.0,0.0,267.3321353000065,,,,,,,,,267.31814139999915,268.13188609998906,268.9321432999859,268.9164279999968,268.9164466999937,268.9321432999859,268.9321432999859,268.9321432999859,270.2831970999832,left,1.0,27.21670659998199,,,,,,,,,,,,,,,,,,,,,,,,,,,,,,,,sub-043,1.0,random_dot,59.80267509104013,
left,left,accuracy,,,,,0.0,0.0,0.0,0.0,19.0,0.0,38.0,0.0,270.2987344999856,,,,,,,,,270.2840966999938,270.39912689998164,271.1990514000063,271.1836207000015,271.1836464999942,271.1990514000063,271.1990514000063,271.1990514000063,273.48297879999154,left,1.0,28.148311099997954,,,,,,,,,,,,,,,,,,,,,,,,,,,,,,,,sub-043,1.0,random_dot,59.80267509104013,
right,right,accuracy,,,,,0.0,0.0,0.0,0.0,19.0,1.0,39.0,1.0,273.49933599997894,,,,,,,,,273.4839090000023,273.8322832999984,274.6322401999787,274.6162422999914,274.61626469998737,274.6322401999787,274.6322401999787,274.6322401999787,276.85095819999697,right,1.0,28.09806920000119,,,,,,,,,,,,,,,,,,,,,,,,,,,,,,,,sub-043,1.0,random_dot,59.80267509104013,
right,right,accuracy,,,,,0.0,0.0,0.0,0.0,20.0,0.0,40.0,1.0,276.86579979999806,,,,,,,,,276.851854699984,276.9659185000055,277.7655664999911,277.7493195999996,277.74933930000407,277.7655664999911,277.7655664999911,277.7655664999911,280.8997110000055,right,1.0,29.002281600027345,,,,,,,,,,,,,,,,,,,,,,,,,,,,,,,,sub-043,1.0,random_dot,59.80267509104013,
left,left,accuracy,,,,,0.0,0.0,0.0,0.0,20.0,1.0,41.0,0.0,280.9151203999936,,,,,,,,,280.90055120000034,282.11562209998374,282.91560079998453,282.89973330000066,282.89975869999034,282.91560079998453,282.91560079998453,282.91560079998453,285.6161386999884,left,1.0,28.57778240001062,,,,,,,,,,,,,,,,,,,,,,,,,,,,,,,,sub-043,1.0,random_dot,59.80267509104013,
left,left,accuracy,,,,,0.0,0.0,0.0,0.0,21.0,0.0,42.0,0.0,285.6315064999799,,,,,,,,,285.61704869999085,286.4320499000023,287.2322045000037,287.2164390999824,287.21646189998137,287.2322045000037,287.2322045000037,287.2322045000037,289.11607119999826,left,1.0,27.75141500000609,,,,,,,,,,,,,,,,,,,,,,,,,,,,,,,,sub-043,1.0,random_dot,59.80267509104013,
right,right,accuracy,,,,,0.0,0.0,0.0,0.0,21.0,1.0,43.0,1.0,289.13177869998617,,,,,,,,,289.11748049999005,289.23147769999923,290.0319870999956,290.01636330000474,290.016387199983,290.0319870999956,290.0319870999956,290.0319870999956,291.698774199991,right,1.0,27.54420430000755,,,,,,,,,,,,,,,,,,,,,,,,,,,,,,,,sub-043,1.0,random_dot,59.80267509104013,
left,left,accuracy,,,,,0.0,0.0,0.0,0.0,22.0,0.0,44.0,0.0,291.7158996999788,,,,,,,,,291.69964399997843,292.0491340000008,292.8488559999969,292.8329087999882,292.832931699988,292.8488559999969,292.8488559999969,292.8488559999969,294.86553199999616,left,1.0,27.884507400012808,,,,,,,,,,,,,,,,,,,,,,,,,,,,,,,,sub-043,1.0,random_dot,59.80267509104013,
right,right,accuracy,,,,,0.0,0.0,0.0,0.0,22.0,1.0,45.0,1.0,294.8816860999796,,,,,,,,,294.86687999998685,296.06524110000464,296.865838800004,296.84818749999977,296.84820979999495,296.865838800004,296.865838800004,296.865838800004,300.1321185999841,right,1.0,29.139520800003083,,,,,,,,,,,,,,,,,,,,,,,,,,,,,,,,sub-043,1.0,random_dot,59.80267509104013,
left,left,accuracy,,,,,0.0,0.0,0.0,0.0,23.0,0.0,46.0,0.0,300.148071100004,,,,,,,,,300.13298049999867,300.94812389998697,301.74845630000345,301.73239119999926,301.7324215999979,301.74845630000345,301.74845630000345,301.74845630000345,303.1988655999885,left,1.0,27.315924099995755,,,,,,,,,,,,,,,,,,,,,,,,,,,,,,,,sub-043,1.0,random_dot,59.80267509104013,
right,right,accuracy,,,,,0.0,0.0,0.0,0.0,23.0,1.0,47.0,1.0,303.2147857999953,,,,,,,,,303.19983649998903,304.4145819999976,305.21520269999746,305.20012439999846,305.2001570999855,305.21520269999746,305.21520269999746,305.21520269999746,310.2986646000063,right,1.0,30.95020500000101,,,,,,,,,,,,,,,,,,,,,,,,,,,310.2147668999969,,,,,sub-043,1.0,random_dot,59.80267509104013,
left,left,accuracy,,,,,0.0,0.0,0.0,0.0,24.0,0.0,48.0,0.0,310.3144673999923,,,,,,,,,310.3000644999847,310.66507869999623,311.46426199999405,311.44787509998423,311.4478937999811,311.46426199999405,311.46426199999405,311.46426199999405,313.55024109999067,left,1.0,27.965357399982167,,,,,,,,,,,,,,,,,,,,,,,,,,,,,,,,sub-043,1.0,random_dot,59.80267509104013,
right,right,accuracy,,,,,0.0,0.0,0.0,0.0,24.0,1.0,49.0,1.0,313.56467989998055,,,,,,,,,313.55124219998834,314.3647329999949,315.16462609998416,315.14849900000263,315.1485225999786,315.16462609998416,315.16462609998416,315.16462609998416,317.3327819999831,right,1.0,28.039252400019905,,,,,,,,,,,,,,,,,,,,,,,,,,,,,,,,sub-043,1.0,random_dot,59.80267509104013,
left,left,accuracy,,,,,0.0,0.0,0.0,0.0,25.0,0.0,50.0,0.0,317.3480830999906,,,,,,,,,317.3337377999851,318.1480304999859,318.94798599998467,318.93169199998374,318.9317364000017,318.94798599998467,318.94798599998467,318.94798599998467,320.632654999994,left,1.0,27.56389369998942,,,,,,,,,,,,,,,,,,,,,,,,,,,,,,,,sub-043,1.0,random_dot,59.80267509104013,
right,right,accuracy,,,,,0.0,0.0,0.0,0.0,25.0,1.0,51.0,1.0,320.6484326999925,,,,,,,,,320.6335700000054,321.8482083999843,322.6481389999972,322.6314575999859,322.63147599998047,322.6481389999972,322.6481389999972,322.6481389999972,324.9816009999777,right,1.0,28.20144460001029,,,,,,,,,,,,,,,,,,,,,,,,,,,,,,,,sub-043,1.0,random_dot,59.80267509104013,
right,right,accuracy,,,,,0.0,0.0,0.0,0.0,26.0,0.0,52.0,1.0,324.997707100003,,,,,,,,,324.9826311999932,325.3476706999936,326.147970799997,326.1316143999866,326.13164859998506,326.147970799997,326.147970799997,326.147970799997,327.34785349998856,left,0.0,27.068477599998005,,,,,,,,,,,,,,,,,,,,,,,,,,,,,,,,sub-043,1.0,random_dot,59.80267509104013,
left,left,accuracy,,,,,0.0,0.0,0.0,0.0,26.0,1.0,53.0,0.0,327.3640180999937,,,,,,,,,327.3487355999823,327.6980738999846,328.4976707999885,328.48145510000177,328.48147430000245,328.4976707999885,328.4976707999885,328.4976707999885,329.66509599998244,right,0.0,27.0340308000159,,,,,,,,,,,,,,,,,,,,,,,,,,,,,,,,sub-043,1.0,random_dot,59.80267509104013,
right,right,accuracy,,,,,0.0,0.0,0.0,0.0,27.0,0.0,54.0,1.0,329.68055819999427,,,,,,,,,329.6660339999944,330.0145663000003,330.81410059999325,330.7983877999941,330.79840759999934,330.81410059999325,330.81410059999325,330.81410059999325,332.7151585999818,right,1.0,27.771975499985277,,,,,,,,,,,,,,,,,,,,,,,,,,,,,,,,sub-043,1.0,random_dot,59.80267509104013,
left,left,accuracy,,,,,0.0,0.0,0.0,0.0,27.0,1.0,55.0,0.0,332.73053489997983,,,,,,,,,332.71608029998606,332.8309831999941,333.63075079998816,333.6148720000056,333.6148915999802,333.63075079998816,333.63075079998816,333.63075079998816,334.9991747000022,left,1.0,27.247720000013945,,,,,,,,,,,,,,,,,,,,,,,,,,,,,,,,sub-043,1.0,random_dot,59.80267509104013,
left,left,accuracy,,,,,0.0,0.0,0.0,0.0,28.0,0.0,56.0,0.0,335.0138876999845,,,,,,,,,335.0001052999869,335.114866399992,335.9144252999977,335.8982441999833,335.8982723999943,335.9144252999977,335.9144252999977,335.9144252999977,337.1648398999823,left,1.0,27.128593000001278,,,,,,,,,,,,,,,,,,,,,,,,,,,,,,,,sub-043,1.0,random_dot,59.80267509104013,
right,right,accuracy,,,,,0.0,0.0,0.0,0.0,28.0,1.0,57.0,1.0,337.1809624999878,,,,,,,,,337.1657499999856,337.2802246999927,338.08073849999346,338.0647775999969,338.0648078999948,338.08073849999346,338.08073849999346,338.08073849999346,339.9144231999817,right,1.0,27.699298100022133,,,,,,,,,,,,,,,,,,,,,,,,,,,,,,,,sub-043,1.0,random_dot,59.80267509104013,
right,right,accuracy,,,,,0.0,0.0,0.0,0.0,29.0,0.0,58.0,1.0,339.9304286999977,,,,,,,,,339.9152495999879,340.71414090000326,341.5140517999825,341.4979460999893,341.49796519998927,341.5140517999825,341.5140517999825,341.5140517999825,343.0489361999789,right,1.0,27.39766460002284,,,,,,,,,,,,,,,,,,,,,,,,,,,,,,,,sub-043,1.0,random_dot,59.80267509104013,
left,left,accuracy,,,,,0.0,0.0,0.0,0.0,29.0,1.0,59.0,0.0,343.06377769997925,,,,,,,,,343.04987739998614,343.4142652000009,344.2136374999827,344.19785619998584,344.1978792999871,344.2136374999827,344.2136374999827,344.2136374999827,345.4474006999808,right,0.0,27.09955190002802,,,,,,,,,,,,,,,,,,,,,,,,,,,,,,,,sub-043,1.0,random_dot,59.80267509104013,
,,accuracy,,,,,0.0,0.0,0.0,0.0,,,,,,,,,,,,,,,,,,,,,,,,,,,,,,,,,,,,,,,,,,,,,,,,,,,,,,,,,sub-043,1.0,random_dot,59.80267509104013,
left,left,speed,,,,,0.0,1.0,1.0,1.0,0.0,0.0,0.0,0.0,348.8634397999849,,,,,,,,,348.85475139998016,348.9635696999904,349.7642610000039,349.74780819998705,349.7478295000037,349.7642610000039,349.7642610000039,349.7642610000039,350.4309054999904,left,1.0,26.544386700028557,,,,,,,,,,,,,,,,,,,,345.4482083999901,345.46389559999807,345.46389559999807,348.84850709998864,space,29.25450009998167,,,,,,,sub-043,1.0,random_dot,59.80267509104013,
right,right,speed,,,,,0.0,1.0,1.0,1.0,0.0,1.0,1.0,1.0,350.44699929998023,,,,,,,,,350.43200119998073,351.2471644000034,352.0471768999996,352.0310409999802,352.03106409998145,352.0471768999996,352.0471768999996,352.0471768999996,352.6641873999906,right,1.0,26.49021400001948,,,,,,,,,,,,,,,,,,,,,,,,,,,,,,,,sub-043,1.0,random_dot,59.80267509104013,
right,right,speed,,,,,0.0,1.0,1.0,1.0,1.0,0.0,2.0,1.0,352.6800465999986,,,,,,,,,352.66516639999463,353.88031539999065,354.6806123999995,354.66377909999574,354.66379819999565,354.6806123999995,354.6806123999995,354.6806123999995,355.23101399998995,left,0.0,26.426267100003315,,,,,,,,,,,,,,,,,,,,,,,,,,,,,,,,sub-043,1.0,random_dot,59.80267509104013,
left,left,speed,,,,,0.0,1.0,1.0,1.0,1.0,1.0,3.0,0.0,355.2467438000021,,,,,,,,,355.2319128999952,356.04755379998824,356.8468321999826,356.8308374999906,356.83085989998654,356.8468321999826,356.8468321999826,356.8468321999826,357.5815135999874,right,0.0,26.60162559998571,,,,,,,,,,,,,,,,,,,,,,,,,,,,,,,,sub-043,1.0,random_dot,59.80267509104013,
right,right,speed,,,,,0.0,1.0,1.0,1.0,2.0,0.0,4.0,1.0,357.59722850000253,,,,,,,,,357.5824389999907,357.69723809999414,358.496576799982,358.48043699999107,358.4804590999847,358.496576799982,358.496576799982,358.496576799982,359.28093269999954,right,1.0,26.649603099998785,,,,,,,,,,,,,,,,,,,,,,,,,,,,,,,,sub-043,1.0,random_dot,59.80267509104013,
left,left,speed,,,,,0.0,1.0,1.0,1.0,2.0,1.0,5.0,0.0,359.2972226999991,,,,,,,,,359.2817669999786,360.0803524999937,360.879867599986,360.8647383999778,360.8647727999778,360.879867599986,360.879867599986,360.879867599986,362.2978384000016,right,0.0,27.28226610002457,,,,,,,,,,,,,,,,,,,,,,,,,,,,,,,,sub-043,1.0,random_dot,59.80267509104013,
left,left,speed,,,,,0.0,1.0,1.0,1.0,3.0,0.0,6.0,0.0,362.31289830000605,,,,,,,,,362.2987625999958,363.1139258999901,363.9131477999909,363.89729150000494,363.8973222000059,363.9131477999909,363.9131477999909,363.9131477999909,365.5474011999904,left,1.0,27.51171650001197,,,,,,,,,,,,,,,,,,,,,,,,,,,,,,,,sub-043,1.0,random_dot,59.80267509104013,
right,right,speed,,,,,0.0,1.0,1.0,1.0,3.0,1.0,7.0,1.0,365.563419299986,,,,,,,,,365.5483697000018,366.7636144999997,367.5630949999904,367.5469944999786,367.54701330000535,367.5630949999904,367.5630949999904,367.5630949999904,369.5978292999789,right,1.0,27.90860990001238,,,,,,,,,,,,,,,,,,,,,,,,,,,,,,,,sub-043,1.0,random_dot,59.80267509104013,
right,right,speed,,,,,0.0,1.0,1.0,1.0,4.0,0.0,8.0,1.0,369.6129140999983,,,,,,,,,369.5988428999845,370.4134140999813,371.2132749999873,371.1977579999948,371.1977837999875,371.2132749999873,371.2132749999873,371.2132749999873,372.6142524000024,right,1.0,27.27379390000715,,,,,,,,,,,,,,,,,,,,,,,,,,,,,,,,sub-043,1.0,random_dot,59.80267509104013,
left,left,speed,,,,,0.0,1.0,1.0,1.0,4.0,1.0,9.0,0.0,372.62977599998703,,,,,,,,,372.6151930000051,372.7303338999918,373.529549400002,373.5140940999845,373.514113799989,373.529549400002,373.529549400002,373.529549400002,374.2974743999948,left,1.0,26.64672040002188,,,,,,,,,,,,,,,,,,,,,,,,,,,,,,,,sub-043,1.0,random_dot,59.80267509104013,
left,left,speed,,,,,0.0,1.0,1.0,1.0,5.0,0.0,10.0,0.0,374.3128906000056,,,,,,,,,374.29837569998926,375.5132609999855,376.3125693000038,376.29655790000106,376.2965872999921,376.3125693000038,376.3125693000038,376.3125693000038,376.8475058999902,right,0.0,26.41048479999881,,,,,,,,,,,,,,,,,,,,,,,,,,,,,,,,sub-043,1.0,random_dot,59.80267509104013,
right,right,speed,,,,,0.0,1.0,1.0,1.0,5.0,1.0,11.0,1.0,376.8637102999783,,,,,,,,,376.8484905999794,378.0636015000055,378.8635326999938,378.84644059999846,378.8464592999953,378.8635326999938,378.8635326999938,378.8635326999938,379.6641517999815,right,1.0,26.674243300018134,,,,,,,,,,,,,,,,,,,,,,,,,,,,,,,,sub-043,1.0,random_dot,59.80267509104013,
right,right,speed,,,,,0.0,1.0,1.0,1.0,6.0,0.0,12.0,1.0,379.6793805999914,,,,,,,,,379.665139299992,380.4798307000019,381.2797082999896,381.2638162999938,381.2638387999905,381.2797082999896,381.2797082999896,381.2797082999896,382.0803618000064,right,1.0,26.67435330001172,,,,,,,,,,,,,,,,,,,,,,,,,,,,,,,,sub-043,1.0,random_dot,59.80267509104013,
left,left,speed,,,,,0.0,1.0,1.0,1.0,6.0,1.0,13.0,0.0,382.0960954999901,,,,,,,,,382.08134499998414,382.89652359997854,383.6960430000036,383.68060069999774,383.6806201,383.6960430000036,383.6960430000036,383.6960430000036,387.06365090000327,right,0.0,29.231305199995404,,,,,,,,,,,,,,,,,,,,,,,,,,,,,,,,sub-043,1.0,random_dot,59.80267509104013,
right,right,speed,,,,,0.0,1.0,1.0,1.0,7.0,0.0,14.0,1.0,387.07908369999495,,,,,,,,,387.0646679000056,387.4296501999779,388.2293483999965,388.213440099993,388.2134625999897,388.2293483999965,388.2293483999965,388.2293483999965,391.03001339998445,right,1.0,28.675761099992087,,,,,,,,,,,,,,,,,,,,,,,,,,,,,,,,sub-043,1.0,random_dot,59.80267509104013,
left,left,speed,,,,,0.0,1.0,1.0,1.0,7.0,1.0,15.0,0.0,391.0457200999954,,,,,,,,,391.0308766999806,392.2295548999973,393.02972439999576,393.0134018999816,393.0134249999828,393.02972439999576,393.02972439999576,393.02972439999576,394.1140816999832,left,1.0,26.954181899986,,,,,,,,,,,,,,,,,,,,,,,,,,,,,,,,sub-043,1.0,random_dot,59.80267509104013,
left,left,speed,,,,,0.0,1.0,1.0,1.0,8.0,0.0,16.0,0.0,394.1290044999914,,,,,,,,,394.114994100004,394.47956849998445,395.27939839998726,395.2638378999836,395.2638569999836,395.27939839998726,395.27939839998726,395.27939839998726,396.6300775999844,left,1.0,27.22690780000994,,,,,,,,,,,,,,,,,,,,,,,,,,,,,,,,sub-043,1.0,random_dot,59.80267509104013,
right,right,speed,,,,,0.0,1.0,1.0,1.0,8.0,1.0,17.0,1.0,396.64568059999146,,,,,,,,,396.6310011000023,397.84587429999374,398.6459631999896,398.629754900001,398.6297917999909,398.6459631999896,398.6459631999896,398.6459631999896,399.7302078999928,right,1.0,26.96318090002751,,,,,,,,,,,,,,,,,,,,,,,,,,,,,,,,sub-043,1.0,random_dot,59.80267509104013,
left,left,speed,,,,,0.0,1.0,1.0,1.0,9.0,0.0,18.0,0.0,399.7456231999968,,,,,,,,,399.7311126999848,400.9455941999913,401.7458502999798,401.7299272999808,401.7299501999805,401.7458502999798,401.7458502999798,401.7458502999798,402.5969948999991,left,1.0,26.72860830000718,,,,,,,,,,,,,,,,,,,,,,,,,,,,,,,,sub-043,1.0,random_dot,59.80267509104013,
right,right,speed,,,,,0.0,1.0,1.0,1.0,9.0,1.0,19.0,1.0,402.6125256999803,,,,,,,,,402.5979116999952,403.8121245999937,404.61254189998726,404.59658369998215,404.5966062999796,404.61254189998726,404.61254189998726,404.61254189998726,405.5133169000037,right,1.0,26.774117799999654,,,,,,,,,,,,,,,,,,,,,,,,,,,,,,,,sub-043,1.0,random_dot,59.80267509104013,
right,right,speed,,,,,0.0,1.0,1.0,1.0,10.0,0.0,20.0,1.0,405.5291266999848,,,,,,,,,405.514234799979,405.6291419999907,406.4290247999888,406.4130549999827,406.41307429998415,406.4290247999888,406.4290247999888,406.4290247999888,406.9964534000028,right,1.0,26.44216039997991,,,,,,,,,,,,,,,,,,,,,,,,,,,,,,,,sub-043,1.0,random_dot,59.80267509104013,
left,left,speed,,,,,0.0,1.0,1.0,1.0,10.0,1.0,21.0,0.0,407.0120353999955,,,,,,,,,406.9973296999815,407.8129632000055,408.6117611999798,408.5960536999919,408.5960729999933,408.6117611999798,408.6117611999798,408.6117611999798,409.3141399000015,left,1.0,26.56899460000568,,,,,,,,,,,,,,,,,,,,,,,,,,,,,,,,sub-043,1.0,random_dot,59.80267509104013,
right,right,speed,,,,,0.0,1.0,1.0,1.0,11.0,0.0,22.0,1.0,409.3288708000037,,,,,,,,,409.3151986000012,410.5295796999999,411.3289716999861,411.3129193999921,411.3129418999888,411.3289716999861,411.3289716999861,411.3289716999861,411.9461103999929,right,1.0,26.49225189999561,,,,,,,,,,,,,,,,,,,,,,,,,,,,,,,,sub-043,1.0,random_dot,59.80267509104013,
left,left,speed,,,,,0.0,1.0,1.0,1.0,11.0,1.0,23.0,0.0,411.9628006999847,,,,,,,,,411.9471174000064,413.1624599999923,413.9621277999832,413.9460433000058,413.9460625000065,413.9621277999832,413.9621277999832,413.9621277999832,414.7790856999927,left,1.0,26.684819200017955,,,,,,,,,,,,,,,,,,,,,,,,,,,,,,,,sub-043,1.0,random_dot,59.80267509104013,
right,right,speed,,,,,0.0,1.0,1.0,1.0,12.0,0.0,24.0,1.0,414.7949609999778,,,,,,,,,414.7800027999911,415.9785938999848,416.77919169998495,416.7627920999949,416.7628113999963,416.77919169998495,416.77919169998495,416.77919169998495,417.52974850000464,right,1.0,26.62317320003058,,,,,,,,,,,,,,,,,,,,,,,,,,,,,,,,sub-043,1.0,random_dot,59.80267509104013,
left,left,speed,,,,,0.0,1.0,1.0,1.0,12.0,1.0,25.0,0.0,417.5451608999865,,,,,,,,,417.5306465000031,417.8954779999913,418.6948309,418.6786863000016,418.6787047999969,418.6948309,418.6948309,418.6948309,419.56304969999474,left,1.0,26.731188800011296,,,,,,,,,,,,,,,,,,,,,,,,,,,,,,,,sub-043,1.0,random_dot,59.80267509104013,
left,left,speed,,,,,0.0,1.0,1.0,1.0,13.0,0.0,26.0,0.0,419.5785479999904,,,,,,,,,419.5640435999958,419.6784611000039,420.4792410999944,420.4637570999912,420.46378019999247,420.4792410999944,420.4792410999944,420.4792410999944,421.69569940000656,right,0.0,27.08936630000244,,,,,,,,,,,,,,,,,,,,,,,,,,,,,,,,sub-043,1.0,random_dot,59.80267509104013,
right,right,speed,,,,,0.0,1.0,1.0,1.0,13.0,1.0,27.0,1.0,421.7115078000061,,,,,,,,,421.6967349000042,422.9120130999945,423.7118104999827,423.6962702999881,423.6962937999924,423.7118104999827,423.7118104999827,423.7118104999827,424.6127483999881,right,1.0,26.766127100010635,,,,,,,,,,,,,,,,,,,,,,,,,,,,,,,,sub-043,1.0,random_dot,59.80267509104013,
right,right,speed,,,,,0.0,1.0,1.0,1.0,14.0,0.0,28.0,1.0,424.6292190999957,,,,,,,,,424.61371730000246,425.4121018000005,426.21219609997934,426.19614630000433,426.1961694000056,426.21219609997934,426.21219609997934,426.21219609997934,427.1800729999959,right,1.0,26.83857310001622,,,,,,,,,,,,,,,,,,,,,,,,,,,,,,,,sub-043,1.0,random_dot,59.80267509104013,
left,left,speed,,,,,0.0,1.0,1.0,1.0,14.0,1.0,29.0,0.0,427.1949397999852,,,,,,,,,427.18148679999285,427.99566389998654,428.79504669999005,428.77928479999537,428.779309000005,428.79504669999005,428.79504669999005,428.79504669999005,429.5292328999785,left,1.0,26.60246760002337,,,,,,,,,,,,,,,,,,,,,,,,,,,,,,,,sub-043,1.0,random_dot,59.80267509104013,
left,left,speed,,,,,0.0,1.0,1.0,1.0,15.0,0.0,30.0,0.0,429.54558770000585,,,,,,,,,429.5301309000061,429.89491350000026,430.6950518999947,430.6789871999936,430.6790066999965,430.6950518999947,430.6950518999947,430.6950518999947,431.5469591000001,left,1.0,26.71487250001519,,,,,,,,,,,,,,,,,,,,,,,,,,,,,,,,sub-043,1.0,random_dot,59.80267509104013,
right,right,speed,,,,,0.0,1.0,1.0,1.0,15.0,1.0,31.0,1.0,431.5617743000039,,,,,,,,,431.5481273999904,431.6614887999895,432.4619824999827,432.44594519998645,432.4459641999856,432.4619824999827,432.4619824999827,432.4619824999827,433.1126270999957,right,1.0,26.51533140000538,,,,,,,,,,,,,,,,,,,,,,,,,,,,,,,,sub-043,1.0,random_dot,59.80267509104013,
left,left,speed,,,,,0.0,1.0,1.0,1.0,16.0,0.0,32.0,0.0,433.1283771999879,,,,,,,,,433.1136853999924,433.4783685999864,434.2781713999866,434.2626529999834,434.2626725999871,434.2781713999866,434.2781713999866,434.2781713999866,434.94574619998457,left,1.0,26.5359005999926,,,,,,,,,,,,,,,,,,,,,,,,,,,,,,,,sub-043,1.0,random_dot,59.80267509104013,
right,right,speed,,,,,0.0,1.0,1.0,1.0,16.0,1.0,33.0,1.0,434.96132360000047,,,,,,,,,434.94659639999736,435.0614180999983,435.8617238999868,435.8455556999834,435.8455750999856,435.8617238999868,435.8617238999868,435.8617238999868,436.5620984999987,right,1.0,26.57244720001472,,,,,,,,,,,,,,,,,,,,,,,,,,,,,,,,sub-043,1.0,random_dot,59.80267509104013,
right,right,speed,,,,,0.0,1.0,1.0,1.0,17.0,0.0,34.0,1.0,436.57788009999786,,,,,,,,,436.56309929999406,437.3776830999996,438.1787900000054,438.1617365999846,438.1617556999845,438.1787900000054,438.1787900000054,438.1787900000054,438.89645450000535,right,1.0,26.586074100021506,,,,,,,,,,,,,,,,,,,,,,,,,,,,,,,,sub-043,1.0,random_dot,59.80267509104013,
left,left,speed,,,,,0.0,1.0,1.0,1.0,17.0,1.0,35.0,0.0,438.9112263999996,,,,,,,,,438.8976037999964,439.7124244000006,440.511470700003,440.4953208999941,440.4953568000056,440.511470700003,440.511470700003,440.511470700003,442.11249379999936,right,0.0,27.466179500013823,,,,,,,,,,,,,,,,,,,,,,,,,,,,,,,,sub-043,1.0,random_dot,59.80267509104013,
left,left,speed,,,,,0.0,1.0,1.0,1.0,18.0,0.0,36.0,0.0,442.1277051999932,,,,,,,,,442.11339809998753,442.9281783000042,443.72812089999206,443.71290939999744,443.7129416999815,443.72812089999206,443.72812089999206,443.72812089999206,445.3125576000021,left,1.0,27.46064549998846,,,,,,,,,,,,,,,,,,,,,,,,,,,,,,,,sub-043,1.0,random_dot,59.80267509104013,
right,right,speed,,,,,0.0,1.0,1.0,1.0,18.0,1.0,37.0,1.0,445.3281416999816,,,,,,,,,445.3135293999803,445.6780297999794,446.47810069998377,446.4624627000012,446.46248560000095,446.47810069998377,446.47810069998377,446.47810069998377,447.32960299999104,right,1.0,26.71911249999539,,,,,,,,,,,,,,,,,,,,,,,,,,,,,,,,sub-043,1.0,random_dot,59.80267509104013,
right,right,speed,,,,,0.0,1.0,1.0,1.0,19.0,0.0,38.0,1.0,447.3442467999994,,,,,,,,,447.3306545999949,448.144418699987,448.9444053999905,448.92863799998304,448.9286572999845,448.9444053999905,448.9444053999905,448.9444053999905,450.7624050999875,left,0.0,27.686412299983203,,,,,,,,,,,,,,,,,,,,,,,,,,,,,,,,sub-043,1.0,random_dot,59.80267509104013,
left,left,speed,,,,,0.0,1.0,1.0,1.0,19.0,1.0,39.0,0.0,450.7783845999802,,,,,,,,,450.763323799998,451.9775301000045,452.77799669999513,452.76181739999447,452.7618363999936,452.77799669999513,452.77799669999513,452.77799669999513,453.412757699989,left,1.0,26.508121099992422,,,,,,,,,,,,,,,,,,,,,,,,,,,,,,,,sub-043,1.0,random_dot,59.80267509104013,
right,right,speed,,,,,0.0,1.0,1.0,1.0,20.0,0.0,40.0,1.0,453.427543400001,,,,,,,,,453.41395649997867,453.7781682999921,454.577895800001,454.56226419997984,454.562283199979,454.577895800001,454.577895800001,454.577895800001,455.1289262000064,right,1.0,26.43014400001266,,,,,,,,,,,,,,,,,,,,,,,,,,,,,,,,sub-043,1.0,random_dot,59.80267509104013,
left,left,speed,,,,,0.0,1.0,1.0,1.0,20.0,1.0,41.0,0.0,455.1450038999901,,,,,,,,,455.1298213999835,455.4945308000024,456.2945337999845,456.27910580000025,456.2791394999949,456.2945337999845,456.2945337999845,456.2945337999845,457.1132654999965,left,1.0,26.68643110000994,,,,,,,,,,,,,,,,,,,,,,,,,,,,,,,,sub-043,1.0,random_dot,59.80267509104013,
right,right,speed,,,,,0.0,1.0,1.0,1.0,21.0,0.0,42.0,1.0,457.1277283999953,,,,,,,,,457.11443970000255,458.3283383999951,459.1274810000032,459.1117569000053,459.1117876000062,459.1274810000032,459.1274810000032,459.1274810000032,459.8130354000023,right,1.0,26.55483350000577,,,,,,,,,,,,,,,,,,,,,,,,,,,,,,,,sub-043,1.0,random_dot,59.80267509104013,
left,left,speed,,,,,0.0,1.0,1.0,1.0,21.0,1.0,43.0,0.0,459.8277940999833,,,,,,,,,459.8139875000052,460.62743339999,461.4277517999872,461.4115423999901,461.4115608999855,461.4277517999872,461.4277517999872,461.4277517999872,461.9615518999926,left,1.0,26.4131818000169,,,,,,,,,,,,,,,,,,,,,,,,,,,,,,,,sub-043,1.0,random_dot,59.80267509104013,
left,left,speed,,,,,0.0,1.0,1.0,1.0,22.0,0.0,44.0,0.0,461.9773672999872,,,,,,,,,461.9624304999888,462.3279879000038,463.12783469998976,463.11189179998473,463.1119197999942,463.12783469998976,463.12783469998976,463.12783469998976,463.6622803999926,left,1.0,26.410694899997907,,,,,,,,,,,,,,,,,,,,,,,,,,,,,,,,sub-043,1.0,random_dot,59.80267509104013,
right,right,speed,,,,,0.0,1.0,1.0,1.0,22.0,1.0,45.0,1.0,463.6774300999823,,,,,,,,,463.6631703999883,464.4780824999907,465.27744429997983,465.2610152999987,465.2610338999948,465.27744429997983,465.27744429997983,465.27744429997983,465.8620484999847,right,1.0,26.45085839999956,,,,,,,,,,,,,,,,,,,,,,,,,,,,,,,,sub-043,1.0,random_dot,59.80267509104013,
right,right,speed,,,,,0.0,1.0,1.0,1.0,23.0,0.0,46.0,1.0,465.8772036999872,,,,,,,,,465.86296259998926,465.97734939999646,466.7777170999907,466.76155299998936,466.76158200000646,466.7777170999907,466.7777170999907,466.7777170999907,467.4115604999824,right,1.0,26.50491809999221,,,,,,,,,,,,,,,,,,,,,,,,,,,,,,,,sub-043,1.0,random_dot,59.80267509104013,
left,left,speed,,,,,0.0,1.0,1.0,1.0,23.0,1.0,47.0,0.0,467.4270099999849,,,,,,,,,467.4125843999791,467.5275818999799,468.3270785000059,468.31128279998666,468.31130589998793,468.3270785000059,468.3270785000059,468.3270785000059,468.84445959998993,left,1.0,26.39569140001549,,,,,,,,,,,,,,,,,,,,,,,,,,,,,,,,sub-043,1.0,random_dot,59.80267509104013,
right,right,speed,,,,,0.0,1.0,1.0,1.0,24.0,0.0,48.0,1.0,468.8605457999802,,,,,,,,,468.8453139000048,469.6440799999982,470.4448698000051,470.428605299996,470.42862500000047,470.4448698000051,470.4448698000051,470.4448698000051,471.0783439999796,right,1.0,26.51171700001578,,,,,,,,,,,,,,,,,,,,,,,,,,,,,,,,sub-043,1.0,random_dot,59.80267509104013,
left,left,speed,,,,,0.0,1.0,1.0,1.0,24.0,1.0,49.0,0.0,471.0937190999976,,,,,,,,,471.07924359999015,471.8946074999985,472.6946390999947,472.678288199997,472.6783178999904,472.6946390999947,472.6946390999947,472.6946390999947,473.2783043999807,left,1.0,26.460700300027383,,,,,,,,,,,,,,,,,,,,,,,,,,,,,,,,sub-043,1.0,random_dot,59.80267509104013,
left,left,speed,,,,,0.0,1.0,1.0,1.0,25.0,0.0,50.0,0.0,473.2939579999948,,,,,,,,,473.2792049999989,473.6437269999879,474.44408210000256,474.42826069999137,474.4282796999905,474.44408210000256,474.44408210000256,474.44408210000256,475.3613487999828,left,1.0,26.785996599996,,,,,,,,,,,,,,,,,,,,,,,,,,,,,,,,sub-043,1.0,random_dot,59.80267509104013,
right,right,speed,,,,,0.0,1.0,1.0,1.0,25.0,1.0,51.0,1.0,475.3770363999938,,,,,,,,,475.3622611000028,475.7271878999891,476.5275095999823,476.5112981999992,476.5113172999991,476.5275095999823,476.5275095999823,476.5275095999823,477.1619425999816,right,1.0,26.509144200012088,,,,,,,,,,,,,,,,,,,,,,,,,,,,,,,,sub-043,1.0,random_dot,59.80267509104013,
right,right,speed,,,,,0.0,1.0,1.0,1.0,26.0,0.0,52.0,1.0,477.1769940999802,,,,,,,,,477.1631154999777,478.37718449998647,479.1769169000036,479.1605283999816,479.1605506000051,479.1769169000036,479.1769169000036,479.1769169000036,479.7945647999877,right,1.0,26.486954799998784,,,,,,,,,,,,,,,,,,,,,,,,,,,,,,,,sub-043,1.0,random_dot,59.80267509104013,
left,left,speed,,,,,0.0,1.0,1.0,1.0,26.0,1.0,53.0,0.0,479.8103810999892,,,,,,,,,479.7954423000047,479.8937714000058,480.694302399992,480.6780388999905,480.6780577999889,480.694302399992,480.694302399992,480.694302399992,481.3782919999794,left,1.0,26.550480800011428,,,,,,,,,,,,,,,,,,,,,,,,,,,,,,,,sub-043,1.0,random_dot,59.80267509104013,
right,right,speed,,,,,0.0,1.0,1.0,1.0,27.0,0.0,54.0,1.0,481.394094999996,,,,,,,,,481.3792028999888,482.1938125999877,482.9944167999784,482.9770595000009,482.97707829999854,482.9944167999784,482.9944167999784,482.9944167999784,484.2114620000066,right,1.0,27.08707040001173,,,,,,,,,,,,,,,,,,,,,,,,,,,,,,,,sub-043,1.0,random_dot,59.80267509104013,
left,left,speed,,,,,0.0,1.0,1.0,1.0,27.0,1.0,55.0,0.0,484.2275170999928,,,,,,,,,484.2123928999936,484.327034899994,485.1271002999856,485.111367799982,485.1113873999857,485.1271002999856,485.1271002999856,485.1271002999856,485.7112947999849,left,1.0,26.4621560999949,,,,,,,,,,,,,,,,,,,,,,,,,,,,,,,,sub-043,1.0,random_dot,59.80267509104013,
left,left,speed,,,,,0.0,1.0,1.0,1.0,28.0,0.0,56.0,0.0,485.726806199993,,,,,,,,,485.7122273999848,485.8108057999925,486.6110109000001,486.5948367999808,486.5948560999823,486.6110109000001,486.6110109000001,486.6110109000001,487.59491620000335,left,1.0,26.84792830000515,,,,,,,,,,,,,,,,,,,,,,,,,,,,,,,,sub-043,1.0,random_dot,59.80267509104013,
right,right,speed,,,,,0.0,1.0,1.0,1.0,28.0,1.0,57.0,1.0,487.6098654999805,,,,,,,,,487.5958322999941,488.4106946999964,489.2098142000032,489.1945536999847,489.1945727999846,489.2098142000032,489.2098142000032,489.2098142000032,489.8782856999897,right,1.0,26.54382389999228,,,,,,,,,,,,,,,,,,,,,,,,,,,,,,,,sub-043,1.0,random_dot,59.80267509104013,
right,right,speed,,,,,0.0,1.0,1.0,1.0,29.0,0.0,58.0,1.0,489.8935850999842,,,,,,,,,489.8791787999799,490.6939184999792,491.4935746999981,491.4770265999832,491.47704539998085,491.4935746999981,491.4935746999981,491.4935746999981,493.7272133999795,right,1.0,28.107578600000124,,,,,,,,,,,,,,,,,,,,,,,,,,,,,,,,sub-043,1.0,random_dot,59.80267509104013,
left,left,speed,,,,,0.0,1.0,1.0,1.0,29.0,1.0,59.0,0.0,493.7432707999833,,,,,,,,,493.72808390000137,494.0930141999852,494.8935497000057,494.877576400002,494.8775986999972,494.8935497000057,494.8935497000057,494.8935497000057,495.57714869998745,left,1.0,26.553371900023198,,,,,,,,,,,,,,,,,,,,,,,,,,,,,,,,sub-043,1.0,random_dot,59.80267509104013,
,,speed,,,,,0.0,1.0,1.0,1.0,,,,,,,,,,,,,,,,,,,,,,,,,,,,,,,,,,,,,,,,,,,,,,,,,,,,,,,,,sub-043,1.0,random_dot,59.80267509104013,
,,,,,,,,,,,,,,,,,,,,,,,,,,,,,,,,,,,,,,,,,,,,,,,,,,,,,,,,,,,,,,,495.57791809999617,495.59326679998776,500.5928794000065,500.5771839999943,sub-043,,,,
