direction,corrAns,thisN,thisTrialN,thisRepN,respDots.keys,respDots.corr,respDots.rt,respDots.duration,randomInstr,respRandomInstr.keys,respRandomInstr.rt,respRandomInstr.duration,practice_trials.thisRepN,practice_trials.thisTrialN,practice_trials.thisN,practice_trials.thisIndex,instr_trials.thisRepN,instr_trials.thisTrialN,instr_trials.thisN,instr_trials.thisIndex,test_trials.thisRepN,test_trials.thisTrialN,test_trials.thisN,test_trials.thisIndex,thisRow.t,notes,general_instruction.started,textGeneralInstr.started,respGeneralInstr.started,general_instruction.stopped,respGeneralInstr.keys,respGeneralInstr.rt,respGeneralInstr.duration,ITI.started,fixcross.started,fixcross.stopped,ITI.stopped,dots.started,backgroundDots.started,stimulusDots.started,respDots.started,dots.stopped,practice_trials.respDots.keys,practice_trials.respDots.corr,practice_trials.respDots.rt,practice_trials.respDots.duration,feedback.started,textFeedback.started,feedback.stopped,textFeedback.stopped,info.started,textInfo.started,keyRespInfo.started,info.stopped,keyRespInfo.keys,keyRespInfo.rt,keyRespInfo.duration,test_instruction.started,textTestInstr.started,respTestInstr.started,test_instruction.stopped,respTestInstr.keys,respTestInstr.rt,respTestInstr.duration,random_instruction.started,textRandomInstr.started,respRandomInstr.started,random_instruction.stopped,instr_trials.respRandomInstr.keys,instr_trials.respRandomInstr.rt,instr_trials.respRandomInstr.duration,test_trials.respDots.keys,test_trials.respDots.corr,test_trials.respDots.rt,test_trials.respDots.duration,stimulusDots.stopped,goodbye.started,textGoodbye.started,goodbye.stopped,participant,session,expName,frameRate,Unnamed: 87
,,,,,,,,,,,,,,,,,,,,,,,,,,,0.0146808370045619,0.0296904069982701,0.0296904069982701,16.946533134003403,space,16.503360838993103,,,,,,,,,,,,,,,,,,,,,,,,,,,,,,,,,,,,,,,,,,,,,,,,sub-108,1,random_dot,59.99812398267427,
left,left,0.0,0.0,0.0,left,1.0,3.0970853379985783,,,,,,0.0,0.0,0.0,0.0,,,,,,,,,16.97293527200236,,,,,,,,,16.961700350002502,17.747498490993166,18.54827001800004,18.53133291999984,18.531747013999848,18.54827001800004,18.54827001800004,18.54827001800004,21.648945734006706,left,1.0,3.0970853379985783,,21.65709923299437,21.706320872996,22.164989187993346,,,,,,,,,,,,,,,,,,,,,,,,,,,,,,,sub-108,1,random_dot,59.99812398267427,
right,right,1.0,1.0,0.0,right,1.0,2.9703199610085,,,,,,0.0,1.0,1.0,1.0,,,,,,,,,22.181207777000964,,,,,,,,,22.165460118005285,22.51440743400599,23.314331348999985,23.297992535997764,23.298360768996645,23.314331348999985,23.314331348999985,23.314331348999985,26.2994113869936,right,1.0,2.9703199610085,,26.29954853899835,26.314753489001305,26.798837032998563,26.81544341299741,,,,,,,,,,,,,,,,,,,,,,,,,,,,,,sub-108,1,random_dot,59.99812398267427,
right,right,2.0,0.0,1.0,right,1.0,0.9585431570012588,,,,,,1.0,0.0,2.0,1.0,,,,,,,,,26.81544341299741,,,,,,,,,26.799112709995825,26.89882538600068,27.698181822997867,27.68303989499691,27.683595637994586,27.698181822997867,27.698181822997867,27.698181822997867,28.66637500500656,right,1.0,0.9585431570012588,,28.666469296003925,28.68220018400461,29.165291730998437,29.18124862499826,,,,,,,,,,,,,,,,,,,,,,,,,,,,,,sub-108,1,random_dot,59.99812398267427,
left,left,3.0,1.0,1.0,left,1.0,0.6378020420088433,,,,,,1.0,1.0,3.0,0.0,,,,,,,,,29.18124862499826,,,,,,,,,29.165624581000884,29.965758541002288,30.76499244700244,30.7490060919954,30.749406614006148,30.76499244700244,30.76499244700244,30.76499244700244,31.41593061599997,left,1.0,0.6378020420088433,,31.416059334995225,31.43172871299612,31.915952683993964,31.93239708300098,,,,,,,,,,,,,,,,,,,,,,,,,,,,,,sub-108,1,random_dot,59.99812398267427,
left,left,4.0,0.0,2.0,left,1.0,1.1694501169986324,,,,,,2.0,0.0,4.0,0.0,,,,,,,,,31.93239708300098,,,,,,,,,31.91636294699856,32.71520460200554,33.51590869300708,33.499262608005665,33.4995920729998,33.51590869300708,33.51590869300708,33.51590869300708,34.70011643700127,left,1.0,1.1694501169986324,,34.700252697002725,34.71578467999643,35.19882683799369,35.2157733119966,,,,,,,,,,,,,,,,,,,,,,,,,,,,,,sub-108,1,random_dot,59.99812398267427,
right,right,5.0,1.0,2.0,right,1.0,2.192260987998452,,,,,,2.0,1.0,5.0,1.0,,,,,,,,,35.2157733119966,,,,,,,,,35.199147238003206,35.998896513003274,36.79917369699979,36.78279072699661,36.78317487600725,36.79917369699979,36.79917369699979,36.79917369699979,39.00024129000667,right,1.0,2.192260987998452,,39.00037604299723,39.01634028200351,39.49946135599748,39.515987125007086,,,,,,,,,,,,,,,,,,,,,,,,,,,,,,sub-108,1,random_dot,59.99812398267427,
right,right,6.0,0.0,3.0,left,0.0,0.8983052550029242,,,,,,3.0,0.0,6.0,1.0,,,,,,,,,39.515987125007086,,,,,,,,,39.49972977000289,39.616205031998106,40.416226481000194,40.39988630599692,40.40033365999989,40.416226481000194,40.416226481000194,40.416226481000194,41.31704799599538,left,0.0,0.8983052550029242,,41.32554648000223,41.33478447400557,41.83284110800014,,,,,,,,,,,,,,,,,,,,,,,,,,,,,,,sub-108,1,random_dot,59.99812398267427,
left,left,7.0,1.0,3.0,left,1.0,2.282356900002924,,,,,,3.0,1.0,7.0,0.0,,,,,,,,,41.84987022700079,,,,,,,,,41.83310023800004,42.16594227700261,42.96586275199661,42.94981937500416,42.95021108799847,42.96586275199661,42.96586275199661,42.96586275199661,45.25058151000121,left,1.0,2.282356900002924,,45.25422235300357,45.26634541299427,45.75015765600256,45.76643897600297,,,,,,,,,,,,,,,,,,,,,,,,,,,,,,sub-108,1,random_dot,59.99812398267427,
right,right,8.0,0.0,4.0,right,1.0,1.0184468119987289,,,,,,4.0,0.0,8.0,1.0,,,,,,,,,45.76643897600297,,,,,,,,,45.75040308099415,46.09950641400064,46.90001993000624,46.88361080600589,46.88410898200527,46.90001993000624,46.90001993000624,46.90001993000624,47.93417892100115,right,1.0,1.0184468119987289,,47.93432975999895,47.95042101299623,48.43332292500418,48.44993014899956,,,,,,,,,,,,,,,,,,,,,,,,,,,,,,sub-108,1,random_dot,59.99812398267427,
left,left,9.0,1.0,4.0,left,1.0,0.6363860609999392,,,,,,4.0,1.0,9.0,0.0,,,,,,,,,48.44993014899956,,,,,,,,,48.43366872900515,49.63376517199504,50.433213162003085,50.41712160900352,50.41752580499451,50.433213162003085,50.433213162003085,50.433213162003085,51.08627989899833,left,1.0,0.6363860609999392,,51.0864956919977,51.10036086899345,51.58473144499294,51.600777075000224,,,,,,,,,,,,,,,,,,,,,,,,,,,,,,sub-108,1,random_dot,59.99812398267427,
right,right,10.0,0.0,5.0,left,0.0,1.912286220001988,,,,,,5.0,0.0,10.0,1.0,,,,,,,,,51.600777075000224,,,,,,,,,51.585058898999705,52.40029356400191,53.20050135999918,53.18492620899633,53.18530329100031,53.20050135999918,53.20050135999918,53.20050135999918,55.11811386600312,left,0.0,1.912286220001988,,55.12224287900608,55.134907661005855,55.61775636499806,55.63497527099389,,,,,,,,,,,,,,,,,,,,,,,,,,,,,,sub-108,1,random_dot,59.99812398267427,
left,left,11.0,1.0,5.0,right,0.0,1.6735594310011948,,,,,,5.0,1.0,11.0,0.0,,,,,,,,,55.63497527099389,,,,,,,,,55.61810195700673,56.81714295499842,57.61724924000737,57.60122696300096,57.60155339099583,57.61724924000737,57.61724924000737,57.61724924000737,59.30195222600014,right,0.0,1.6735594310011948,,59.302091307006776,59.317630282006576,59.80122520899749,59.81758229200205,,,,,,,,,,,,,,,,,,,,,,,,,,,,,,sub-108,1,random_dot,59.99812398267427,
right,right,12.0,0.0,6.0,left,0.0,1.540077810001094,,,,,,6.0,0.0,12.0,1.0,,,,,,,,,59.81758229200205,,,,,,,,,59.80145047800033,59.90100255700236,60.701410608002334,60.68556711799465,60.68597702399711,60.701410608002334,60.701410608002334,60.701410608002334,62.25222239199502,left,0.0,1.540077810001094,,62.25237707000633,62.267698499999824,62.75142391400004,62.76785115299572,,,,,,,,,,,,,,,,,,,,,,,,,,,,,,sub-108,1,random_dot,59.99812398267427,
left,left,13.0,1.0,6.0,left,1.0,0.8929476100020111,,,,,,6.0,1.0,13.0,0.0,,,,,,,,,62.76785115299572,,,,,,,,,62.75170134700602,63.10137470399786,63.90130094900087,63.88549374000286,63.88607516400225,63.90130094900087,63.90130094900087,63.90130094900087,64.80234257600387,left,1.0,0.8929476100020111,,64.80646997099393,64.81779683400237,65.30160101900401,65.31805902300403,,,,,,,,,,,,,,,,,,,,,,,,,,,,,,sub-108,1,random_dot,59.99812398267427,
right,right,14.0,0.0,7.0,right,1.0,2.618836426991038,,,,,,7.0,0.0,14.0,1.0,,,,,,,,,65.31805902300403,,,,,,,,,65.30189939400589,66.1015823350026,66.90129775699461,66.88517404400045,66.88563970099494,66.90129775699461,66.90129775699461,66.90129775699461,69.53552520400262,right,1.0,2.618836426991038,,69.5356851050019,69.55184010400262,70.0349953660043,70.05163546999393,,,,,,,,,,,,,,,,,,,,,,,,,,,,,,sub-108,1,random_dot,59.99812398267427,
left,left,15.0,1.0,7.0,left,1.0,0.6478463649982587,,,,,,7.0,1.0,15.0,0.0,,,,,,,,,70.05163546999393,,,,,,,,,70.035354378997,70.38479446900601,71.18480221800564,71.16877101399587,71.16907342200284,71.18480221800564,71.18480221800564,71.18480221800564,71.83596870099427,left,1.0,0.6478463649982587,,71.83611228900554,71.85209237200615,72.33511637200718,72.35228518300573,,,,,,,,,,,,,,,,,,,,,,,,,,,,,,sub-108,1,random_dot,59.99812398267427,
left,left,16.0,0.0,8.0,left,1.0,0.9464131230051862,,,,,,8.0,0.0,16.0,0.0,,,,,,,,,72.35228518300573,,,,,,,,,72.33534914899792,72.43523951800307,73.2349723100051,73.21865188599622,73.21900328800257,73.2349723100051,73.2349723100051,73.2349723100051,74.18593458899704,left,1.0,0.9464131230051862,,74.1860744489968,74.2015553329984,74.68549202299619,74.70233932300471,,,,,,,,,,,,,,,,,,,,,,,,,,,,,,sub-108,1,random_dot,59.99812398267427,
right,right,17.0,1.0,8.0,left,0.0,3.4897161859989865,,,,,,8.0,1.0,17.0,1.0,,,,,,,,,74.70233932300471,,,,,,,,,74.6858438210038,74.78514217300108,75.5850299809972,75.56888735000393,75.5691657349962,75.5850299809972,75.5850299809972,75.5850299809972,79.08682461500575,left,0.0,3.4897161859989865,,79.09075644600671,79.10203308799828,79.58611227899382,79.60257268800342,,,,,,,,,,,,,,,,,,,,,,,,,,,,,,sub-108,1,random_dot,59.99812398267427,
left,left,18.0,0.0,9.0,left,1.0,0.8072505370073486,,,,,,9.0,0.0,18.0,0.0,,,,,,,,,79.60257268800342,,,,,,,,,79.58639848799794,79.93550170400704,80.73529785299615,80.71881116600707,80.71912810500362,80.73529785299615,80.73529785299615,80.73529785299615,81.5535407270072,left,1.0,0.8072505370073486,,81.55692999300663,81.56820012099342,82.05294134399446,82.06832402999862,,,,,,,,,,,,,,,,,,,,,,,,,,,,,,sub-108,1,random_dot,59.99812398267427,
right,right,19.0,1.0,9.0,left,0.0,1.3362475030007772,,,,,,9.0,1.0,19.0,1.0,,,,,,,,,82.06832402999862,,,,,,,,,82.05329851899296,82.40214904099412,83.20214254999883,83.18614525599696,83.18657390700537,83.20214254999883,83.20214254999883,83.20214254999883,84.55346918999567,left,0.0,1.3362475030007772,,84.55616966899834,84.5701470500062,85.07059705800202,,,,,,,,,,,,,,,,,,,,,,,,,,,,,,,sub-108,1,random_dot,59.99812398267427,
,,,,,,,,,,,,,,,,,,,,,,,,,,,,,,,,,,,,,,,,,,,,,,,,,,,85.07076654699631,85.08659654899384,85.08659654899384,88.17076487200393,space,3.073606195001048,,,,,,,,,,,,,,,,,,,,,,,,sub-108,1,random_dot,59.99812398267427,
,,,,,,,,,,,,,,,,,,,,,,,,,,,,,,,,,,,,,,,,,,,,,,,,,,,,,,,,,,88.17088047899597,88.18643216400233,88.18643216400233,93.7706167090073,space,5.572710302003543,,,,,,,,,,,,,,,,,sub-108,1,random_dot,59.99812398267427,
left,left,0.0,0.0,0.0,left,1.0,0.4011857570003485,,speed,space,2.371248440991621,,,,,,0.0,0.0,0.0,1.0,0.0,0.0,0.0,0.0,96.204008900997,,,,,,,,,96.19259477300513,96.55353344099422,97.353718451006,97.33706503099528,97.3373758670059,97.353718451006,97.353718451006,97.353718451006,97.77133052700084,,,,,,,,,,,,,,,,,,,,,,,93.79408109400538,93.8027027289936,93.8027027289936,96.18749277800087,space,2.371248440991621,,left,1.0,0.4011857570003485,,,,,,sub-108,1,random_dot,59.99812398267427,
right,right,1.0,1.0,0.0,left,0.0,0.4883588770026108,,speed,space,2.371248440991621,,,,,,0.0,0.0,0.0,1.0,0.0,1.0,1.0,1.0,97.78653513100288,,,,,,,,,97.77181438500702,98.1201619939966,98.9206615160074,98.90400865400444,98.9043006629945,98.9206615160074,98.9206615160074,98.9206615160074,99.42147598099837,,,,,,,,,,,,,,,,,,,,,,,,,,,,,,left,0.0,0.4883588770026108,,,,,,sub-108,1,random_dot,59.99812398267427,
left,left,2.0,0.0,1.0,left,1.0,0.8583110949984984,,speed,space,2.371248440991621,,,,,,0.0,0.0,0.0,1.0,1.0,0.0,2.0,0.0,99.43693912100572,,,,,,,,,99.4218177300063,99.536988767999,100.33751764599585,100.32063487099369,100.32099110700074,100.33751764599585,100.33751764599585,100.33751764599585,101.2050427810027,,,,,,,,,,,,,,,,,,,,,,,,,,,,,,left,1.0,0.8583110949984984,,,,,,sub-108,1,random_dot,59.99812398267427,
right,right,3.0,1.0,1.0,right,1.0,1.8389841339958368,,speed,space,2.371248440991621,,,,,,0.0,0.0,0.0,1.0,1.0,1.0,3.0,1.0,101.2205099510029,,,,,,,,,101.20534895500168,102.004314040998,102.80399047699755,102.7879906409944,102.78832390399477,102.80399047699755,102.80399047699755,102.80399047699755,104.6555110640038,,,,,,,,,,,,,,,,,,,,,,,,,,,,,,right,1.0,1.8389841339958368,,,,,,sub-108,1,random_dot,59.99812398267427,
left,left,4.0,0.0,2.0,left,1.0,0.6013678989984328,,speed,space,2.371248440991621,,,,,,0.0,0.0,0.0,1.0,2.0,0.0,4.0,0.0,104.67091914899356,,,,,,,,,104.65595393399416,105.8705084270041,106.6710038470046,106.65439235800297,106.6546627140051,106.6710038470046,106.6710038470046,106.6710038470046,107.2883948689996,,,,,,,,,,,,,,,,,,,,,,,,,,,,,,left,1.0,0.6013678989984328,,,,,,sub-108,1,random_dot,59.99812398267427,
right,right,5.0,1.0,2.0,right,1.0,0.6149736619991018,,speed,space,2.371248440991621,,,,,,0.0,0.0,0.0,1.0,2.0,1.0,5.0,1.0,107.30450481300068,,,,,,,,,107.28869156099972,107.63771586799704,108.43761048700252,108.42068693900364,108.42107968400524,108.43761048700252,108.43761048700252,108.43761048700252,109.05486578699492,,,,,,,,,,,,,,,,,,,,,,,,,,,,,,right,1.0,0.6149736619991018,,,,,,sub-108,1,random_dot,59.99812398267427,
right,right,6.0,0.0,3.0,left,0.0,0.5357684090122348,,speed,space,2.371248440991621,,,,,,0.0,0.0,0.0,1.0,3.0,0.0,6.0,1.0,109.07061148699722,,,,,,,,,109.05533252899475,109.1706447799952,109.97051045300032,109.95425766700646,109.95464797200113,109.97051045300032,109.97051045300032,109.97051045300032,110.52145592999295,,,,,,,,,,,,,,,,,,,,,,,,,,,,,,left,0.0,0.5357684090122348,,,,,,sub-108,1,random_dot,59.99812398267427,
left,left,7.0,1.0,3.0,left,1.0,0.8612794650107389,,speed,space,2.371248440991621,,,,,,0.0,0.0,0.0,1.0,3.0,1.0,7.0,0.0,110.53699780799798,,,,,,,,,110.52188805199694,111.7208184140036,112.5207334220031,112.5043032090034,112.50466069599496,112.5207334220031,112.5207334220031,112.5207334220031,113.38921764299448,,,,,,,,,,,,,,,,,,,,,,,,,,,,,,left,1.0,0.8612794650107389,,,,,,sub-108,1,random_dot,59.99812398267427,
right,right,8.0,0.0,4.0,right,1.0,1.306144599991967,,speed,space,2.371248440991621,,,,,,0.0,0.0,0.0,1.0,4.0,0.0,8.0,1.0,113.40420233999612,,,,,,,,,113.38963833999878,114.60396174699416,115.40424453899324,115.3874351419945,115.38777949599898,115.40424453899324,115.40424453899324,115.40424453899324,116.72196853300557,,,,,,,,,,,,,,,,,,,,,,,,,,,,,,right,1.0,1.306144599991967,,,,,,sub-108,1,random_dot,59.99812398267427,
left,left,9.0,1.0,4.0,left,1.0,0.4780208890006179,,speed,space,2.371248440991621,,,,,,0.0,0.0,0.0,1.0,4.0,1.0,9.0,0.0,116.73753378300172,,,,,,,,,116.722379600993,117.52141012500216,118.32095217499592,118.30472777799878,118.30503117000626,118.32095217499592,118.32095217499592,118.32095217499592,118.8054633349966,,,,,,,,,,,,,,,,,,,,,,,,,,,,,,left,1.0,0.4780208890006179,,,,,,sub-108,1,random_dot,59.99812398267427,
right,right,10.0,0.0,5.0,left,0.0,0.4785063669987721,,speed,space,2.371248440991621,,,,,,0.0,0.0,0.0,1.0,5.0,0.0,10.0,1.0,118.82105870799568,,,,,,,,,118.80590202499296,120.00462146199423,120.80433686700415,120.78828023999812,120.78867174200424,120.80433686700415,120.80433686700415,120.80433686700415,121.28920477899374,,,,,,,,,,,,,,,,,,,,,,,,,,,,,,left,0.0,0.4785063669987721,,,,,,sub-108,1,random_dot,59.99812398267427,
left,left,11.0,1.0,5.0,left,1.0,1.7388466449920088,,speed,space,2.371248440991621,,,,,,0.0,0.0,0.0,1.0,5.0,1.0,11.0,0.0,121.30488303900349,,,,,,,,,121.28970194900468,122.5045954679954,123.30466908900416,123.288261099995,123.28865018600482,123.30466908900416,123.30466908900416,123.30466908900416,125.0557573219994,,,,,,,,,,,,,,,,,,,,,,,,,,,,,,left,1.0,1.7388466449920088,,,,,,sub-108,1,random_dot,59.99812398267427,
right,right,12.0,0.0,6.0,left,0.0,0.6001419800013537,,speed,space,2.371248440991621,,,,,,0.0,0.0,0.0,1.0,6.0,0.0,12.0,1.0,125.07130354299444,,,,,,,,,125.0561902049958,125.87128146800389,126.67131536500528,126.65510661700682,126.6554626809957,126.67131536500528,126.67131536500528,126.67131536500528,127.27281042499816,,,,,,,,,,,,,,,,,,,,,,,,,,,,,,left,0.0,0.6001419800013537,,,,,,sub-108,1,random_dot,59.99812398267427,
left,left,13.0,1.0,6.0,left,1.0,0.7539639150054427,,speed,space,2.371248440991621,,,,,,0.0,0.0,0.0,1.0,6.0,1.0,13.0,0.0,127.28855340200244,,,,,,,,,127.2733539740002,127.63832306000404,128.43831925900304,128.42163641199295,128.42198149500473,128.43831925900304,128.43831925900304,128.43831925900304,129.20592937999754,,,,,,,,,,,,,,,,,,,,,,,,,,,,,,left,1.0,0.7539639150054427,,,,,,sub-108,1,random_dot,59.99812398267427,
left,left,14.0,0.0,7.0,left,1.0,0.6334120300016366,,speed,space,2.371248440991621,,,,,,0.0,0.0,0.0,1.0,7.0,0.0,14.0,0.0,129.22170129900042,,,,,,,,,129.2063350959943,130.4050631590071,131.20484203500382,131.18864626300638,131.18899533100193,131.20484203500382,131.20484203500382,131.20484203500382,131.83938129700255,,,,,,,,,,,,,,,,,,,,,,,,,,,,,,left,1.0,0.6334120300016366,,,,,,sub-108,1,random_dot,59.99812398267427,
right,right,15.0,1.0,7.0,right,1.0,2.298548919003224,,speed,space,2.371248440991621,,,,,,0.0,0.0,0.0,1.0,7.0,1.0,15.0,1.0,131.8551974199945,,,,,,,,,131.8398431030073,133.0553368260007,133.8552308149956,133.83883826799865,133.83919725699525,133.8552308149956,133.8552308149956,133.8552308149956,136.15686881300644,,,,,,,,,,,,,,,,,,,,,,,,,,,,,,right,1.0,2.298548919003224,,,,,,sub-108,1,random_dot,59.99812398267427,
right,right,16.0,0.0,8.0,right,1.0,3.428598487007548,,speed,space,2.371248440991621,,,,,,0.0,0.0,0.0,1.0,8.0,0.0,16.0,1.0,136.17205333099992,,,,,,,,,136.15732526300417,137.37195809399418,138.17233962600585,138.1563553409942,138.15660808999382,138.17233962600585,138.17233962600585,138.17233962600585,141.60718966099375,,,,,,,,,,,,,,,,,,,,,,,,,,,,,,right,1.0,3.428598487007548,,,,,,sub-108,1,random_dot,59.99812398267427,
left,left,17.0,1.0,8.0,left,1.0,0.6054324970027665,,speed,space,2.371248440991621,,,,,,0.0,0.0,0.0,1.0,8.0,1.0,17.0,0.0,141.6224694470002,,,,,,,,,141.60776853399875,142.42280941699573,143.2225486249954,143.20597358500527,143.20631884099566,143.2225486249954,143.2225486249954,143.2225486249954,143.840722095003,,,,,,,,,,,,,,,,,,,,,,,,,,,,,,left,1.0,0.6054324970027665,,,,,,sub-108,1,random_dot,59.99812398267427,
left,left,18.0,0.0,9.0,left,1.0,0.7345693669922184,,speed,space,2.371248440991621,,,,,,0.0,0.0,0.0,1.0,9.0,0.0,18.0,0.0,143.85598378599389,,,,,,,,,143.84100768200005,145.0400162540027,145.84026292299677,145.82385421000072,145.82413691199326,145.84026292299677,145.84026292299677,145.84026292299677,146.59193113300717,,,,,,,,,,,,,,,,,,,,,,,,,,,,,,left,1.0,0.7345693669922184,,,,,,sub-108,1,random_dot,59.99812398267427,
right,right,19.0,1.0,9.0,right,1.0,2.1350252400006866,,speed,space,2.371248440991621,,,,,,0.0,0.0,0.0,1.0,9.0,1.0,19.0,1.0,146.6070437830058,,,,,,,,,146.5923011499981,146.70729958200536,147.5077510340052,147.49084980299813,147.4911751460022,147.5077510340052,147.5077510340052,147.5077510340052,149.65660572699562,,,,,,,,,,,,,,,,,,,,,,,,,,,,,,right,1.0,2.1350252400006866,,,,,,sub-108,1,random_dot,59.99812398267427,
right,right,20.0,0.0,10.0,right,1.0,1.6064105160039617,,speed,space,2.371248440991621,,,,,,0.0,0.0,0.0,1.0,10.0,0.0,20.0,1.0,149.6725944180071,,,,,,,,,149.65688509700703,150.8560706050048,151.65604100300698,151.6398029270058,151.640177356996,151.65604100300698,151.65604100300698,151.65604100300698,153.27354532699974,,,,,,,,,,,,,,,,,,,,,,,,,,,,,,right,1.0,1.6064105160039617,,,,,,sub-108,1,random_dot,59.99812398267427,
left,left,21.0,1.0,10.0,left,1.0,1.0495024979900336,,speed,space,2.371248440991621,,,,,,0.0,0.0,0.0,1.0,10.0,1.0,21.0,0.0,153.28984389100515,,,,,,,,,153.273822268995,154.4728592820029,155.273019070999,155.2565006980003,155.25675445499655,155.273019070999,155.273019070999,155.273019070999,156.32530192300328,,,,,,,,,,,,,,,,,,,,,,,,,,,,,,left,1.0,1.0495024979900336,,,,,,sub-108,1,random_dot,59.99812398267427,
right,right,22.0,0.0,11.0,right,1.0,4.403162244998384,,speed,space,2.371248440991621,,,,,,0.0,0.0,0.0,1.0,11.0,0.0,22.0,1.0,156.34078629700525,,,,,,,,,156.3256444889994,156.6744355970004,157.47447215899592,157.45844932099862,157.45891389099415,157.47447215899592,157.47447215899592,157.47447215899592,161.89270036500238,,,,,,,,,,,,,,,,,,,,,,,,,,,,,,right,1.0,4.403162244998384,,,,,,sub-108,1,random_dot,59.99812398267427,
left,left,23.0,1.0,11.0,left,1.0,0.7333796710008755,,speed,space,2.371248440991621,,,,,,0.0,0.0,0.0,1.0,11.0,1.0,23.0,0.0,161.90775666300033,,,,,,,,,161.89305076499295,163.10740872200404,163.9075120799971,163.8907666229934,163.89102192300197,163.9075120799971,163.9075120799971,163.9075120799971,164.65800569400017,,,,,,,,,,,,,,,,,,,,,,,,,,,,,,left,1.0,0.7333796710008755,,,,,,sub-108,1,random_dot,59.99812398267427,
right,right,24.0,0.0,12.0,right,1.0,3.9654095110017806,,speed,space,2.371248440991621,,,,,,0.0,0.0,0.0,1.0,12.0,0.0,24.0,1.0,164.67394257600245,,,,,,,,,164.6582988250011,165.4576489530009,166.25714563000656,166.24059184800717,166.2408460919978,166.25714563000656,166.25714563000656,166.25714563000656,170.22571657100343,,,,,,,,,,,,,,,,,,,,,,,,,,,,,,right,1.0,3.9654095110017806,,,,,,sub-108,1,random_dot,59.99812398267427,
left,left,25.0,1.0,12.0,left,1.0,0.6821712370001478,,speed,space,2.371248440991621,,,,,,0.0,0.0,0.0,1.0,12.0,1.0,25.0,0.0,170.24169220299518,,,,,,,,,170.22619863800355,170.59162496500358,171.3927883090073,171.37644171899592,171.37689836800564,171.3927883090073,171.3927883090073,171.3927883090073,172.09225541100022,,,,,,,,,,,,,,,,,,,,,,,,,,,,,,left,1.0,0.6821712370001478,,,,,,sub-108,1,random_dot,59.99812398267427,
left,left,26.0,0.0,13.0,left,1.0,0.5724880790075986,,speed,space,2.371248440991621,,,,,,0.0,0.0,0.0,1.0,13.0,0.0,26.0,0.0,172.10770478199993,,,,,,,,,172.09254458500072,172.89312403700023,173.69264199200552,173.67717387599987,173.677653257997,173.69264199200552,173.69264199200552,173.69264199200552,174.27643093299412,,,,,,,,,,,,,,,,,,,,,,,,,,,,,,left,1.0,0.5724880790075986,,,,,,sub-108,1,random_dot,59.99812398267427,
right,right,27.0,1.0,13.0,right,1.0,1.266006028992706,,speed,space,2.371248440991621,,,,,,0.0,0.0,0.0,1.0,13.0,1.0,27.0,1.0,174.29242318299657,,,,,,,,,174.27671486399777,174.37683848899906,175.1769629460032,175.1608758240036,175.1613276220014,175.1769629460032,175.1769629460032,175.1769629460032,176.44478622899624,,,,,,,,,,,,,,,,,,,,,,,,,,,,,,right,1.0,1.266006028992706,,,,,,sub-108,1,random_dot,59.99812398267427,
right,right,28.0,0.0,14.0,right,1.0,1.9838555579917736,,speed,space,2.371248440991621,,,,,,0.0,0.0,0.0,1.0,14.0,0.0,28.0,1.0,176.46060736000072,,,,,,,,,176.44525237400376,176.56068821100052,177.36068985999736,177.34422918800556,177.3446812309994,177.36068985999736,177.36068985999736,177.36068985999736,179.36201845100732,,,,,,,,,,,,,,,,,,,,,,,,,,,,,,right,1.0,1.9838555579917736,,,,,,sub-108,1,random_dot,59.99812398267427,
left,left,29.0,1.0,14.0,left,1.0,1.1645442310109502,,speed,space,2.371248440991621,,,,,,0.0,0.0,0.0,1.0,14.0,1.0,29.0,0.0,179.37740236699756,,,,,,,,,179.36254133400507,179.4768372099934,180.27709575300105,180.26089826899988,180.26135278100264,180.27709575300105,180.27709575300105,180.27709575300105,181.4444643229945,,,,,,,,,,,,,,,,,,,,,,,,,,,,,,left,1.0,1.1645442310109502,,,,,,sub-108,1,random_dot,59.99812398267427,
right,right,30.0,0.0,15.0,right,1.0,0.8560992060083663,,speed,space,2.371248440991621,,,,,,0.0,0.0,0.0,1.0,15.0,0.0,30.0,1.0,181.4609883429948,,,,,,,,,181.44490531799968,181.7943637690041,182.59423657800653,182.5773106400011,182.57776563799416,182.59423657800653,182.59423657800653,182.59423657800653,183.46094051600085,,,,,,,,,,,,,,,,,,,,,,,,,,,,,,right,1.0,0.8560992060083663,,,,,,sub-108,1,random_dot,59.99812398267427,
left,left,31.0,1.0,15.0,left,1.0,0.7446451029973105,,speed,space,2.371248440991621,,,,,,0.0,0.0,0.0,1.0,15.0,1.0,31.0,0.0,183.4765712399967,,,,,,,,,183.46140463299523,184.66042037100124,185.46064319000288,185.44469360499352,185.44515075300296,185.46064319000288,185.46064319000288,185.46064319000288,186.21101000400083,,,,,,,,,,,,,,,,,,,,,,,,,,,,,,left,1.0,0.7446451029973105,,,,,,sub-108,1,random_dot,59.99812398267427,
left,left,32.0,0.0,16.0,left,1.0,1.1101563920092303,,speed,space,2.371248440991621,,,,,,0.0,0.0,0.0,1.0,16.0,0.0,32.0,0.0,186.226591396,,,,,,,,,186.21149635399345,187.41068992500368,188.2107674029976,188.19527347300027,188.19572845600487,188.2107674029976,188.2107674029976,188.2107674029976,189.3277995880053,,,,,,,,,,,,,,,,,,,,,,,,,,,,,,left,1.0,1.1101563920092303,,,,,,sub-108,1,random_dot,59.99812398267427,
right,right,33.0,1.0,16.0,right,1.0,2.0530325470026582,,speed,space,2.371248440991621,,,,,,0.0,0.0,0.0,1.0,16.0,1.0,33.0,1.0,189.3452218099992,,,,,,,,,189.3283132929937,190.52678506000663,191.3275104219938,191.3096460060042,191.3099216709961,191.3275104219938,191.3275104219938,191.3275104219938,193.3937157180044,,,,,,,,,,,,,,,,,,,,,,,,,,,,,,right,1.0,2.0530325470026582,,,,,,sub-108,1,random_dot,59.99812398267427,
left,left,34.0,0.0,17.0,left,1.0,0.768187512003351,,speed,space,2.371248440991621,,,,,,0.0,0.0,0.0,1.0,17.0,0.0,34.0,0.0,193.4100165550044,,,,,,,,,193.3940030380036,193.7434729850065,194.54380997200496,194.5272355920024,194.52761298499536,194.54380997200496,194.54380997200496,194.54380997200496,195.32755092000295,,,,,,,,,,,,,,,,,,,,,,,,,,,,,,left,1.0,0.768187512003351,,,,,,sub-108,1,random_dot,59.99812398267427,
right,right,35.0,1.0,17.0,right,1.0,0.610994414993911,,speed,space,2.371248440991621,,,,,,0.0,0.0,0.0,1.0,17.0,1.0,35.0,1.0,195.34323737000523,,,,,,,,,195.3279094949976,196.1437612449954,196.943871216994,196.9271579869965,196.9275359769963,196.943871216994,196.943871216994,196.943871216994,197.56164050400548,,,,,,,,,,,,,,,,,,,,,,,,,,,,,,right,1.0,0.610994414993911,,,,,,sub-108,1,random_dot,59.99812398267427,
right,right,36.0,0.0,18.0,right,1.0,1.1989631309988908,,speed,space,2.371248440991621,,,,,,0.0,0.0,0.0,1.0,18.0,0.0,36.0,1.0,197.57652719100588,,,,,,,,,197.56211183400592,198.77672964599333,199.5769756480004,199.5609320920048,199.561315525003,199.5769756480004,199.5769756480004,199.5769756480004,200.77791086300567,,,,,,,,,,,,,,,,,,,,,,,,,,,,,,right,1.0,1.1989631309988908,,,,,,sub-108,1,random_dot,59.99812398267427,
left,left,37.0,1.0,18.0,left,1.0,0.7843103509949287,,speed,space,2.371248440991621,,,,,,0.0,0.0,0.0,1.0,18.0,1.0,37.0,0.0,200.7937259129976,,,,,,,,,200.7783933530009,200.89372439699943,201.6941649070068,201.6774720609974,201.67785309899773,201.6941649070068,201.6941649070068,201.6941649070068,202.49478438599908,,,,,,,,,,,,,,,,,,,,,,,,,,,,,,left,1.0,0.7843103509949287,,,,,,sub-108,1,random_dot,59.99812398267427,
right,right,38.0,0.0,19.0,right,1.0,1.2638280770042911,,speed,space,2.371248440991621,,,,,,0.0,0.0,0.0,1.0,19.0,0.0,38.0,1.0,202.5106249959936,,,,,,,,,202.49516649800356,203.29389232900576,204.09398393900483,204.07795846600493,204.07844216100057,204.09398393900483,204.09398393900483,204.09398393900483,205.3620585669996,,,,,,,,,,,,,,,,,,,,,,,,,,,,,,right,1.0,1.2638280770042911,,,,,,sub-108,1,random_dot,59.99812398267427,
left,left,39.0,1.0,19.0,right,0.0,1.671768879998126,,speed,space,2.371248440991621,,,,,,0.0,0.0,0.0,1.0,19.0,1.0,39.0,0.0,205.3777704630047,,,,,,,,,205.3625754030072,206.5779833090055,207.37760519700527,207.36202499100185,207.36241319100367,207.37760519700527,207.37760519700527,207.37760519700527,209.06196084800467,,,,,,,,,,,,,,,,,,,,,,,,,,,,,,right,0.0,1.671768879998126,,,,,,sub-108,1,random_dot,59.99812398267427,
right,right,40.0,0.0,20.0,right,1.0,0.6470364069973584,,speed,space,2.371248440991621,,,,,,0.0,0.0,0.0,1.0,20.0,0.0,40.0,1.0,209.0773588010052,,,,,,,,,209.06226984600653,210.2610468380008,211.0610586160037,211.04515058899412,211.04546342999677,211.0610586160037,211.0610586160037,211.0610586160037,211.7124249839981,,,,,,,,,,,,,,,,,,,,,,,,,,,,,,right,1.0,0.6470364069973584,,,,,,sub-108,1,random_dot,59.99812398267427,
left,left,41.0,1.0,20.0,left,1.0,1.5533900830050698,,speed,space,2.371248440991621,,,,,,0.0,0.0,0.0,1.0,20.0,1.0,41.0,0.0,211.72801778999565,,,,,,,,,211.71288186700255,212.5290357049962,213.32853290899948,213.31205661600688,213.31244169399724,213.32853290899948,213.32853290899948,213.32853290899948,214.89517015499587,,,,,,,,,,,,,,,,,,,,,,,,,,,,,,left,1.0,1.5533900830050698,,,,,,sub-108,1,random_dot,59.99812398267427,
right,right,42.0,0.0,21.0,right,1.0,1.874692465993576,,speed,space,2.371248440991621,,,,,,0.0,0.0,0.0,1.0,21.0,0.0,42.0,1.0,214.9131128709996,,,,,,,,,214.89552723499943,215.69508635799863,216.49499768699752,216.4784689530061,216.47884912299924,216.49499768699752,216.49499768699752,216.49499768699752,218.3791080880037,,,,,,,,,,,,,,,,,,,,,,,,,,,,,,right,1.0,1.874692465993576,,,,,,sub-108,1,random_dot,59.99812398267427,
left,left,43.0,1.0,21.0,left,1.0,2.015089969005203,,speed,space,2.371248440991621,,,,,,0.0,0.0,0.0,1.0,21.0,1.0,43.0,0.0,218.395441036002,,,,,,,,,218.37939325500335,218.72953867999604,219.52842218500157,219.51230616700195,219.51268864699523,219.52842218500157,219.52842218500157,219.52842218500157,221.54638034499655,,,,,,,,,,,,,,,,,,,,,,,,,,,,,,left,1.0,2.015089969005203,,,,,,sub-108,1,random_dot,59.99812398267427,
left,left,44.0,0.0,22.0,left,1.0,3.173833472988917,,speed,space,2.371248440991621,,,,,,0.0,0.0,0.0,1.0,22.0,0.0,44.0,0.0,221.5619231930032,,,,,,,,,221.5468383099942,221.6452587149979,222.44558838299417,222.42885326899705,222.429242283004,222.44558838299417,222.44558838299417,222.44558838299417,225.6293403260061,,,,,,,,,,,,,,,,,,,,,,,,,,,,,,left,1.0,3.173833472988917,,,,,,sub-108,1,random_dot,59.99812398267427,
right,right,45.0,1.0,22.0,right,1.0,1.773731286011753,,speed,space,2.371248440991621,,,,,,0.0,0.0,0.0,1.0,22.0,1.0,45.0,1.0,225.6455958949955,,,,,,,,,225.62964368499524,225.7288776789937,226.5289615590009,226.512407592003,226.51280161499744,226.5289615590009,226.5289615590009,226.5289615590009,228.3125266190036,,,,,,,,,,,,,,,,,,,,,,,,,,,,,,right,1.0,1.773731286011753,,,,,,sub-108,1,random_dot,59.99812398267427,
left,left,46.0,0.0,23.0,left,1.0,1.1262569120008266,,speed,space,2.371248440991621,,,,,,0.0,0.0,0.0,1.0,23.0,0.0,46.0,0.0,228.3290699339996,,,,,,,,,228.3128263700055,229.51245226200265,230.31223429800596,230.29577896400588,230.2961532649933,230.31223429800596,230.31223429800596,230.31223429800596,231.44719018699837,,,,,,,,,,,,,,,,,,,,,,,,,,,,,,left,1.0,1.1262569120008266,,,,,,sub-108,1,random_dot,59.99812398267427,
right,right,47.0,1.0,23.0,right,1.0,1.866660119005246,,speed,space,2.371248440991621,,,,,,0.0,0.0,0.0,1.0,23.0,1.0,47.0,1.0,231.46271617199815,,,,,,,,,231.44747893999735,231.81210463399475,232.61269699600237,232.5961509040062,232.5965316560032,232.61269699600237,232.61269699600237,232.61269699600237,234.4976418629958,,,,,,,,,,,,,,,,,,,,,,,,,,,,,,right,1.0,1.866660119005246,,,,,,sub-108,1,random_dot,59.99812398267427,
left,left,48.0,0.0,24.0,left,1.0,2.4324908849957865,,speed,space,2.371248440991621,,,,,,0.0,0.0,0.0,1.0,24.0,0.0,48.0,0.0,234.51262215200404,,,,,,,,,234.49804913900152,235.31265465299657,236.11272396899585,236.09562638000352,236.09596850800156,236.11272396899585,236.11272396899585,236.11272396899585,238.5473216120008,,,,,,,,,,,,,,,,,,,,,,,,,,,,,,left,1.0,2.4324908849957865,,,,,,sub-108,1,random_dot,59.99812398267427,
right,right,49.0,1.0,24.0,right,1.0,0.8098854919953737,,speed,space,2.371248440991621,,,,,,0.0,0.0,0.0,1.0,24.0,1.0,49.0,1.0,238.56291988299927,,,,,,,,,238.5477980959986,238.66320224000083,239.46305159499752,239.44667786000355,239.44707902199295,239.46305159499752,239.46305159499752,239.46305159499752,240.2810111870058,,,,,,,,,,,,,,,,,,,,,,,,,,,,,,right,1.0,0.8098854919953737,,,,,,sub-108,1,random_dot,59.99812398267427,
right,right,50.0,0.0,25.0,right,1.0,3.086414072007756,,speed,space,2.371248440991621,,,,,,0.0,0.0,0.0,1.0,25.0,0.0,50.0,1.0,240.2962255260063,,,,,,,,,240.28150196799837,240.39654351999343,241.19650480699784,241.17975104099605,241.18015480900067,241.19650480699784,241.19650480699784,241.19650480699784,244.2978500390018,,,,,,,,,,,,,,,,,,,,,,,,,,,,,,right,1.0,3.086414072007756,,,,,,sub-108,1,random_dot,59.99812398267427,
left,left,51.0,1.0,25.0,left,1.0,0.8262470390036469,,speed,space,2.371248440991621,,,,,,0.0,0.0,0.0,1.0,25.0,1.0,51.0,0.0,244.31325617499533,,,,,,,,,244.2982764890039,244.663399017998,245.4635847850004,245.4474729270005,245.44786980599747,245.4635847850004,245.4635847850004,245.4635847850004,246.2982826020016,,,,,,,,,,,,,,,,,,,,,,,,,,,,,,left,1.0,0.8262470390036469,,,,,,sub-108,1,random_dot,59.99812398267427,
left,left,52.0,0.0,26.0,left,1.0,3.498187812991091,,speed,space,2.371248440991621,,,,,,0.0,0.0,0.0,1.0,26.0,0.0,52.0,0.0,246.31343962499523,,,,,,,,,246.29861792799784,246.4135142209998,247.21377549700264,247.197646214001,247.1980249939952,247.21377549700264,247.21377549700264,247.21377549700264,250.71488144200703,,,,,,,,,,,,,,,,,,,,,,,,,,,,,,left,1.0,3.498187812991091,,,,,,sub-108,1,random_dot,59.99812398267427,
right,right,53.0,1.0,26.0,right,1.0,0.9962715669971658,,speed,space,2.371248440991621,,,,,,0.0,0.0,0.0,1.0,26.0,1.0,53.0,1.0,250.73073481699976,,,,,,,,,250.71535822299484,250.8140349019959,251.61420167499452,251.5976995670062,251.59809370299627,251.61420167499452,251.61420167499452,251.61420167499452,252.61498018300333,,,,,,,,,,,,,,,,,,,,,,,,,,,,,,right,1.0,0.9962715669971658,,,,,,sub-108,1,random_dot,59.99812398267427,
left,left,54.0,0.0,27.0,right,0.0,0.7480439210048644,,speed,space,2.371248440991621,,,,,,0.0,0.0,0.0,1.0,27.0,0.0,54.0,0.0,252.63094140599424,,,,,,,,,252.6154640470049,253.81430264200023,254.6143908660015,254.59790940799576,254.5982828940032,254.6143908660015,254.6143908660015,254.6143908660015,255.3650692520023,,,,,,,,,,,,,,,,,,,,,,,,,,,,,,right,0.0,0.7480439210048644,,,,,,sub-108,1,random_dot,59.99812398267427,
right,right,55.0,1.0,27.0,right,1.0,3.283211434012628,,speed,space,2.371248440991621,,,,,,0.0,0.0,0.0,1.0,27.0,1.0,55.0,1.0,255.3808136000007,,,,,,,,,255.3655441599985,256.5641100850044,257.36430111000664,257.3479056000069,257.3481855739956,257.36430111000664,257.36430111000664,257.36430111000664,260.6490212500066,,,,,,,,,,,,,,,,,,,,,,,,,,,,,,right,1.0,3.283211434012628,,,,,,sub-108,1,random_dot,59.99812398267427,
left,left,56.0,0.0,28.0,left,1.0,1.1427821539982688,,speed,space,2.371248440991621,,,,,,0.0,0.0,0.0,1.0,28.0,0.0,56.0,0.0,260.66431228599686,,,,,,,,,260.64949701700243,261.84771981100494,262.6478582169948,262.63257370199426,262.6329831059993,262.6478582169948,262.6478582169948,262.6478582169948,263.799643159,,,,,,,,,,,,,,,,,,,,,,,,,,,,,,left,1.0,1.1427821539982688,,,,,,sub-108,1,random_dot,59.99812398267427,
right,right,57.0,1.0,28.0,right,1.0,0.6877846669958672,,speed,space,2.371248440991621,,,,,,0.0,0.0,0.0,1.0,28.0,1.0,57.0,1.0,263.8151505620044,,,,,,,,,263.80008113100484,264.6151628060033,265.4148265219992,265.3984130549943,265.3988328889973,265.4148265219992,265.4148265219992,265.4148265219992,266.1161927560024,,,,,,,,,,,,,,,,,,,,,,,,,,,,,,right,1.0,0.6877846669958672,,,,,,sub-108,1,random_dot,59.99812398267427,
left,left,58.0,0.0,29.0,left,1.0,0.7977065059967572,,speed,space,2.371248440991621,,,,,,0.0,0.0,0.0,1.0,29.0,0.0,58.0,0.0,266.13171254900226,,,,,,,,,266.116669644005,266.4817796499992,267.2819429999945,267.2653962009936,267.2656836569949,267.2819429999945,267.2819429999945,267.2819429999945,268.0828760860022,,,,,,,,,,,,,,,,,,,,,,,,,,,,,,left,1.0,0.7977065059967572,,,,,,sub-108,1,random_dot,59.99812398267427,
right,right,59.0,1.0,29.0,right,1.0,0.922570631999406,,speed,space,2.371248440991621,,,,,,0.0,0.0,0.0,1.0,29.0,1.0,59.0,1.0,268.0985155590024,,,,,,,,,268.0834294499946,268.1817811670044,268.981699224998,268.9654462920007,268.9658170409966,268.981699224998,268.981699224998,268.981699224998,269.91608455899404,,,,,,,,,,,,,,,,,,,,,,,,,,,,,,right,1.0,0.922570631999406,,,,,,sub-108,1,random_dot,59.99812398267427,
,,0.0,0.0,0.0,,,,,speed,space,2.371248440991621,,,,,,0.0,0.0,0.0,1.0,,,,,,,,,,,,,,,,,,,,,,,,,,,,,,,,,,,,,,,,,,,,,,,,,,,,,,,,,,,,sub-108,1,random_dot,59.99812398267427,
right,right,0.0,0.0,0.0,right,1.0,0.6377867730043363,,accuracy,space,5.413869933006936,,,,,,0.0,1.0,1.0,0.0,0.0,0.0,0.0,1.0,275.3849156780052,,,,,,,,,275.37588601600146,275.7157940119941,276.51545493000594,276.4995024939999,276.4999105339957,276.51545493000594,276.51545493000594,276.51545493000594,277.166873492999,,,,,,,,,,,,,,,,,,,,,,,269.93093509500613,269.9385726799956,269.9385726799956,275.3664629020059,space,5.413869933006936,,right,1.0,0.6377867730043363,,,,,,sub-108,1,random_dot,59.99812398267427,
left,left,1.0,1.0,0.0,right,0.0,1.056486646994017,,accuracy,space,5.413869933006936,,,,,,0.0,1.0,1.0,0.0,0.0,1.0,1.0,0.0,277.1822411799949,,,,,,,,,277.1673334429943,278.38286840000364,279.1985409909976,279.1819260199991,279.1821948949946,279.1985409909976,279.1985409909976,279.1985409909976,280.2668722480012,,,,,,,,,,,,,,,,,,,,,,,,,,,,,,right,0.0,1.056486646994017,,,,,,sub-108,1,random_dot,59.99812398267427,
right,right,2.0,0.0,1.0,right,1.0,0.8564249589981046,,accuracy,space,5.413869933006936,,,,,,0.0,1.0,1.0,0.0,1.0,0.0,2.0,1.0,280.28237816499313,,,,,,,,,280.26733079299447,281.46627231300226,282.2663398059958,282.2501127430005,282.2505146570038,282.2663398059958,282.2663398059958,282.2663398059958,283.1344752730074,,,,,,,,,,,,,,,,,,,,,,,,,,,,,,right,1.0,0.8564249589981046,,,,,,sub-108,1,random_dot,59.99812398267427,
left,left,3.0,1.0,1.0,left,1.0,1.9664132799953224,,accuracy,space,5.413869933006936,,,,,,0.0,1.0,1.0,0.0,1.0,1.0,3.0,0.0,283.1498379929981,,,,,,,,,283.1349611530022,283.9496544620051,284.7496937389951,284.73368078499334,284.7340522489976,284.7496937389951,284.7496937389951,284.7496937389951,286.71737661599764,,,,,,,,,,,,,,,,,,,,,,,,,,,,,,left,1.0,1.9664132799953224,,,,,,sub-108,1,random_dot,59.99812398267427,
left,left,4.0,0.0,2.0,left,1.0,5.912720705993706,,accuracy,space,5.413869933006936,,,,,,0.0,1.0,1.0,0.0,2.0,0.0,4.0,0.0,286.7331031969952,,,,,,,,,286.7179017390008,287.06671493299655,287.86652169299487,287.8503428090044,287.85074486699887,287.86652169299487,287.86652169299487,287.86652169299487,293.7848424160038,,,,,,,,,,,,,,,,,,,,,,,,,,,,,,left,1.0,5.912720705993706,,292.849775530005,,,,sub-108,1,random_dot,59.99812398267427,
right,right,5.0,1.0,2.0,right,1.0,1.6395361620088806,,accuracy,space,5.413869933006936,,,,,,0.0,1.0,1.0,0.0,2.0,1.0,5.0,1.0,293.8005395009968,,,,,,,,,293.7853645370051,293.9006939670071,294.70024677600304,294.6835047899949,294.68377530500584,294.70024677600304,294.70024677600304,294.70024677600304,296.35154359300213,,,,,,,,,,,,,,,,,,,,,,,,,,,,,,right,1.0,1.6395361620088806,,,,,,sub-108,1,random_dot,59.99812398267427,
right,right,6.0,0.0,3.0,right,1.0,0.9075768049951876,,accuracy,space,5.413869933006936,,,,,,0.0,1.0,1.0,0.0,3.0,0.0,6.0,1.0,296.3672810069984,,,,,,,,,296.3519393040042,297.55038489999424,298.35104401600256,298.3344976170047,298.33489691099385,298.35104401600256,298.35104401600256,298.35104401600256,299.2681555809977,,,,,,,,,,,,,,,,,,,,,,,,,,,,,,right,1.0,0.9075768049951876,,,,,,sub-108,1,random_dot,59.99812398267427,
left,left,7.0,1.0,3.0,left,1.0,1.2781201000034343,,accuracy,space,5.413869933006936,,,,,,0.0,1.0,1.0,0.0,3.0,1.0,7.0,0.0,299.28442033600004,,,,,,,,,299.2686155739939,299.36786856300023,300.16753689300094,300.15121225299663,300.15151690199855,300.16753689300094,300.16753689300094,300.16753689300094,301.4521982790029,,,,,,,,,,,,,,,,,,,,,,,,,,,,,,left,1.0,1.2781201000034343,,,,,,sub-108,1,random_dot,59.99812398267427,
right,right,8.0,0.0,4.0,right,1.0,0.8246465179981897,,accuracy,space,5.413869933006936,,,,,,0.0,1.0,1.0,0.0,4.0,0.0,8.0,1.0,301.467595715003,,,,,,,,,301.4527064580034,302.25123619400256,303.0527184100065,303.03616342900204,303.0366126220033,303.0527184100065,303.0527184100065,303.0527184100065,303.88555632700445,,,,,,,,,,,,,,,,,,,,,,,,,,,,,,right,1.0,0.8246465179981897,,,,,,sub-108,1,random_dot,59.99812398267427,
left,left,9.0,1.0,4.0,left,1.0,2.9101359240012243,,accuracy,space,5.413869933006936,,,,,,0.0,1.0,1.0,0.0,4.0,1.0,9.0,0.0,303.9011009520036,,,,,,,,,303.8858682959981,304.7010874609987,305.5013918409968,305.48480903300515,305.48527312799706,305.5013918409968,305.5013918409968,305.5013918409968,308.41949300699343,,,,,,,,,,,,,,,,,,,,,,,,,,,,,,left,1.0,2.9101359240012243,,,,,,sub-108,1,random_dot,59.99812398267427,
right,right,10.0,0.0,5.0,right,1.0,1.9009298570017563,,accuracy,space,5.413869933006936,,,,,,0.0,1.0,1.0,0.0,5.0,0.0,10.0,1.0,308.4345680169936,,,,,,,,,308.41986350399384,308.7846277140052,309.584741728002,309.56870380100736,309.5690258179966,309.584741728002,309.584741728002,309.584741728002,311.5024460840068,,,,,,,,,,,,,,,,,,,,,,,,,,,,,,right,1.0,1.9009298570017563,,,,,,sub-108,1,random_dot,59.99812398267427,
left,left,11.0,1.0,5.0,left,1.0,3.072934070994961,,accuracy,space,5.413869933006936,,,,,,0.0,1.0,1.0,0.0,5.0,1.0,11.0,0.0,311.5181704309944,,,,,,,,,311.50289700800204,312.30269259400666,313.1181411199941,313.10226355100167,313.1027320620051,313.1181411199941,313.1181411199941,313.1181411199941,316.2033783109946,,,,,,,,,,,,,,,,,,,,,,,,,,,,,,left,1.0,3.072934070994961,,,,,,sub-108,1,random_dot,59.99812398267427,
right,right,12.0,0.0,6.0,right,1.0,1.6627426220074994,,accuracy,space,5.413869933006936,,,,,,0.0,1.0,1.0,0.0,6.0,0.0,12.0,1.0,316.21884690600564,,,,,,,,,316.20383897499414,316.31848194899794,317.1189320090052,317.1022588680062,317.1028622760059,317.1189320090052,317.1189320090052,317.1189320090052,318.78614402600215,,,,,,,,,,,,,,,,,,,,,,,,,,,,,,right,1.0,1.6627426220074994,,,,,,sub-108,1,random_dot,59.99812398267427,
left,left,13.0,1.0,6.0,right,0.0,5.626569020998431,,accuracy,space,5.413869933006936,,,,,,0.0,1.0,1.0,0.0,6.0,1.0,13.0,0.0,318.80230673699407,,,,,,,,,318.7866251999949,319.1352269939962,319.935204384994,319.91927014599787,319.91968885899405,319.935204384994,319.935204384994,319.935204384994,325.5709898920031,,,,,,,,,,,,,,,,,,,,,,,,,,,,,,right,0.0,5.626569020998431,,324.9192314670072,,,,sub-108,1,random_dot,59.99812398267427,
right,right,14.0,0.0,7.0,right,1.0,1.7828574669983936,,accuracy,space,5.413869933006936,,,,,,0.0,1.0,1.0,0.0,7.0,0.0,14.0,1.0,325.5861247749999,,,,,,,,,325.5714825259929,325.91935019599623,326.71966411000176,326.7043948329956,326.70487899,326.71966411000176,326.71966411000176,326.71966411000176,328.5062653549976,,,,,,,,,,,,,,,,,,,,,,,,,,,,,,right,1.0,1.7828574669983936,,,,,,sub-108,1,random_dot,59.99812398267427,
left,left,15.0,1.0,7.0,right,0.0,3.10726923000766,,accuracy,space,5.413869933006936,,,,,,0.0,1.0,1.0,0.0,7.0,1.0,15.0,0.0,328.51905398399686,,,,,,,,,328.50686820800183,328.8696944029944,329.6693632690003,329.6535080589965,329.65402263800206,329.6693632690003,329.6693632690003,329.6693632690003,332.78745607100427,,,,,,,,,,,,,,,,,,,,,,,,,,,,,,right,0.0,3.10726923000766,,,,,,sub-108,1,random_dot,59.99812398267427,
right,right,16.0,0.0,8.0,right,1.0,0.8115174179984024,,accuracy,space,5.413869933006936,,,,,,0.0,1.0,1.0,0.0,8.0,0.0,16.0,1.0,332.80316309099726,,,,,,,,,332.7878141870024,333.60283601899573,334.4028593260009,334.3866779759992,334.386990811996,334.4028593260009,334.4028593260009,334.4028593260009,335.2212680109951,,,,,,,,,,,,,,,,,,,,,,,,,,,,,,right,1.0,0.8115174179984024,,,,,,sub-108,1,random_dot,59.99812398267427,
left,left,17.0,1.0,8.0,left,1.0,1.6829932849941542,,accuracy,space,5.413869933006936,,,,,,0.0,1.0,1.0,0.0,8.0,1.0,17.0,0.0,335.23663384400425,,,,,,,,,335.22174445299606,335.3199843680049,336.120539866999,336.10513813700527,336.10555318399565,336.120539866999,336.120539866999,336.120539866999,337.8055824549956,,,,,,,,,,,,,,,,,,,,,,,,,,,,,,left,1.0,1.6829932849941542,,,,,,sub-108,1,random_dot,59.99812398267427,
left,left,18.0,0.0,9.0,left,1.0,1.29274727399752,,accuracy,space,5.413869933006936,,,,,,0.0,1.0,1.0,0.0,9.0,0.0,18.0,0.0,337.82059692399343,,,,,,,,,337.80607820200385,338.6202328240033,339.4203125930071,339.4042935949983,339.4047615390009,339.4203125930071,339.4203125930071,339.4203125930071,340.72138271199947,,,,,,,,,,,,,,,,,,,,,,,,,,,,,,left,1.0,1.29274727399752,,,,,,sub-108,1,random_dot,59.99812398267427,
right,right,19.0,1.0,9.0,right,1.0,1.6129711359972134,,accuracy,space,5.413869933006936,,,,,,0.0,1.0,1.0,0.0,9.0,1.0,19.0,1.0,340.7371491530066,,,,,,,,,340.72180837599444,341.9200505850022,342.7198458729981,342.7038133180031,342.704217186998,342.7198458729981,342.7198458729981,342.7198458729981,344.3380510959978,,,,,,,,,,,,,,,,,,,,,,,,,,,,,,right,1.0,1.6129711359972134,,,,,,sub-108,1,random_dot,59.99812398267427,
right,right,20.0,0.0,10.0,right,1.0,1.2152831429993969,,accuracy,space,5.413869933006936,,,,,,0.0,1.0,1.0,0.0,10.0,0.0,20.0,1.0,344.35400933100027,,,,,,,,,344.33862072099873,344.45396368599904,345.254483894998,345.23783306300174,345.23815643599664,345.254483894998,345.254483894998,345.254483894998,346.47146660600265,,,,,,,,,,,,,,,,,,,,,,,,,,,,,,right,1.0,1.2152831429993969,,,,,,sub-108,1,random_dot,59.99812398267427,
left,left,21.0,1.0,10.0,left,1.0,0.6735955979966093,,accuracy,space,5.413869933006936,,,,,,0.0,1.0,1.0,0.0,10.0,1.0,21.0,0.0,346.4879869360011,,,,,,,,,346.47193833999336,347.67144933799864,348.4708576289995,348.45460168100544,348.4549932600057,348.4708576289995,348.4708576289995,348.4708576289995,349.15506192299654,,,,,,,,,,,,,,,,,,,,,,,,,,,,,,left,1.0,0.6735955979966093,,,,,,sub-108,1,random_dot,59.99812398267427,
right,right,22.0,0.0,11.0,right,1.0,2.2834650470031197,,accuracy,space,5.413869933006936,,,,,,0.0,1.0,1.0,0.0,11.0,0.0,22.0,1.0,349.17038175200287,,,,,,,,,349.1554226849985,349.9705515509995,350.77107832199545,350.7544938869978,350.75487746100407,350.77107832199545,350.77107832199545,350.77107832199545,353.05574458499905,,,,,,,,,,,,,,,,,,,,,,,,,,,,,,right,1.0,2.2834650470031197,,,,,,sub-108,1,random_dot,59.99812398267427,
left,left,23.0,1.0,11.0,left,1.0,1.388995019995491,,accuracy,space,5.413869933006936,,,,,,0.0,1.0,1.0,0.0,11.0,1.0,23.0,0.0,353.0713215870055,,,,,,,,,353.0562366810045,354.27290184699814,355.0879679329955,355.0729809530021,355.0735683670064,355.0879679329955,355.0879679329955,355.0879679329955,356.48915848899924,,,,,,,,,,,,,,,,,,,,,,,,,,,,,,left,1.0,1.388995019995491,,,,,,sub-108,1,random_dot,59.99812398267427,
left,left,24.0,0.0,12.0,left,1.0,4.306534289993579,,accuracy,space,5.413869933006936,,,,,,0.0,1.0,1.0,0.0,12.0,0.0,24.0,0.0,356.5045561680017,,,,,,,,,356.48963016600464,356.5884618370037,357.38834383999347,357.3735325370071,357.374057959998,357.38834383999347,357.38834383999347,357.38834383999347,361.7064932380017,,,,,,,,,,,,,,,,,,,,,,,,,,,,,,left,1.0,4.306534289993579,,,,,,sub-108,1,random_dot,59.99812398267427,
right,right,25.0,1.0,12.0,right,1.0,0.98109156099963,,accuracy,space,5.413869933006936,,,,,,0.0,1.0,1.0,0.0,12.0,1.0,25.0,1.0,361.7223014619958,,,,,,,,,361.7069798820012,362.9050341560069,363.7056530520058,363.68888250099553,363.68925638200017,363.7056530520058,363.7056530520058,363.7056530520058,364.6895898259973,,,,,,,,,,,,,,,,,,,,,,,,,,,,,,right,1.0,0.98109156099963,,,,,,sub-108,1,random_dot,59.99812398267427,
left,left,26.0,0.0,13.0,left,1.0,1.815051557001425,,accuracy,space,5.413869933006936,,,,,,0.0,1.0,1.0,0.0,13.0,0.0,26.0,0.0,364.7050908910023,,,,,,,,,364.6900720220001,364.78888963200734,365.5885860020062,365.5722737489996,365.5727491129946,365.5885860020062,365.5885860020062,365.5885860020062,367.4070154759975,,,,,,,,,,,,,,,,,,,,,,,,,,,,,,left,1.0,1.815051557001425,,,,,,sub-108,1,random_dot,59.99812398267427,
right,right,27.0,1.0,13.0,right,1.0,0.6282920939993346,,accuracy,space,5.413869933006936,,,,,,0.0,1.0,1.0,0.0,13.0,1.0,27.0,1.0,367.4225737109955,,,,,,,,,367.407524233,368.2229361630016,369.0230057190056,369.0064413960063,369.0067624160001,369.0230057190056,369.0230057190056,369.0230057190056,369.6568773159961,,,,,,,,,,,,,,,,,,,,,,,,,,,,,,right,1.0,0.6282920939993346,,,,,,sub-108,1,random_dot,59.99812398267427,
right,right,28.0,0.0,14.0,right,1.0,0.7354035650059814,,accuracy,space,5.413869933006936,,,,,,0.0,1.0,1.0,0.0,14.0,0.0,28.0,1.0,369.67265511899313,,,,,,,,,369.65735753999616,370.0065955900063,370.8057900099957,370.7895434219972,370.7899412169936,370.8057900099957,370.8057900099957,370.8057900099957,371.5563192260015,,,,,,,,,,,,,,,,,,,,,,,,,,,,,,right,1.0,0.7354035650059814,,,,,,sub-108,1,random_dot,59.99812398267427,
left,left,29.0,1.0,14.0,left,1.0,2.2416527750028763,,accuracy,space,5.413869933006936,,,,,,0.0,1.0,1.0,0.0,14.0,1.0,29.0,0.0,371.5722931189957,,,,,,,,,371.55678879699553,371.6559944390028,372.455387451002,372.44011418499576,372.440585888995,372.455387451002,372.455387451002,372.455387451002,374.7079545699962,,,,,,,,,,,,,,,,,,,,,,,,,,,,,,left,1.0,2.2416527750028763,,,,,,sub-108,1,random_dot,59.99812398267427,
right,right,30.0,0.0,15.0,right,1.0,0.6729022180079482,,accuracy,space,5.413869933006936,,,,,,0.0,1.0,1.0,0.0,15.0,0.0,30.0,1.0,374.7233901019936,,,,,,,,,374.7084419449966,375.92348417200265,376.722964621993,376.706559586004,376.70694771299895,376.722964621993,376.722964621993,376.722964621993,377.4065776189964,,,,,,,,,,,,,,,,,,,,,,,,,,,,,,right,1.0,0.6729022180079482,,,,,,sub-108,1,random_dot,59.99812398267427,
left,left,31.0,1.0,15.0,left,1.0,0.6611761910025962,,accuracy,space,5.413869933006936,,,,,,0.0,1.0,1.0,0.0,15.0,1.0,31.0,0.0,377.4228261340031,,,,,,,,,377.4070156490052,378.6064286290057,379.40653445800126,379.3902322329959,379.3907380900055,379.40653445800126,379.40653445800126,379.40653445800126,380.0742903640057,,,,,,,,,,,,,,,,,,,,,,,,,,,,,,left,1.0,0.6611761910025962,,,,,,sub-108,1,random_dot,59.99812398267427,
left,left,32.0,0.0,16.0,left,1.0,2.0782604760024697,,accuracy,space,5.413869933006936,,,,,,0.0,1.0,1.0,0.0,16.0,0.0,32.0,0.0,380.0890246360068,,,,,,,,,380.0747399709944,380.4395555079973,381.23928526499367,381.2253049519932,381.2259272119991,381.23928526499367,381.23928526499367,381.23928526499367,383.3248807880009,,,,,,,,,,,,,,,,,,,,,,,,,,,,,,left,1.0,2.0782604760024697,,,,,,sub-108,1,random_dot,59.99812398267427,
right,right,33.0,1.0,16.0,right,1.0,2.071304858007352,,accuracy,space,5.413869933006936,,,,,,0.0,1.0,1.0,0.0,16.0,1.0,33.0,1.0,383.340272675996,,,,,,,,,383.3252633499942,383.67401548799535,384.4741923410038,384.4570809010038,384.45750197500456,384.4741923410038,384.4741923410038,384.4741923410038,386.5577862719947,,,,,,,,,,,,,,,,,,,,,,,,,,,,,,right,1.0,2.071304858007352,,,,,,sub-108,1,random_dot,59.99812398267427,
right,right,34.0,0.0,17.0,right,1.0,3.0761272450035904,,accuracy,space,5.413869933006936,,,,,,0.0,1.0,1.0,0.0,17.0,0.0,34.0,1.0,386.5753642710042,,,,,,,,,386.5582821449934,386.6572990720015,387.456898820994,387.4406707440066,387.440943403999,387.456898820994,387.456898820994,387.456898820994,390.5420196449995,,,,,,,,,,,,,,,,,,,,,,,,,,,,,,right,1.0,3.0761272450035904,,,,,,sub-108,1,random_dot,59.99812398267427,
left,left,35.0,1.0,17.0,left,1.0,1.2238241269951686,,accuracy,space,5.413869933006936,,,,,,0.0,1.0,1.0,0.0,17.0,1.0,35.0,0.0,390.5574713389942,,,,,,,,,390.5424749770027,391.7410862319957,392.5405989020073,392.5259366690007,392.5265289109957,392.5405989020073,392.5405989020073,392.5405989020073,393.7753021520039,,,,,,,,,,,,,,,,,,,,,,,,,,,,,,left,1.0,1.2238241269951686,,,,,,sub-108,1,random_dot,59.99812398267427,
left,left,36.0,0.0,18.0,left,1.0,1.5015362080011982,,accuracy,space,5.413869933006936,,,,,,0.0,1.0,1.0,0.0,18.0,0.0,36.0,0.0,393.7912890349981,,,,,,,,,393.7757685929973,394.9749366769975,395.79067423600645,395.7761806130002,395.7767152870074,395.79067423600645,395.79067423600645,395.79067423600645,397.308318823998,,,,,,,,,,,,,,,,,,,,,,,,,,,,,,left,1.0,1.5015362080011982,,,,,,sub-108,1,random_dot,59.99812398267427,
right,right,37.0,1.0,18.0,right,1.0,0.9112313140067272,,accuracy,space,5.413869933006936,,,,,,0.0,1.0,1.0,0.0,18.0,1.0,37.0,1.0,397.32492708000063,,,,,,,,,397.3087850229931,398.1080398619961,398.9078312610072,398.8917903599941,398.89225068100495,398.9078312610072,398.9078312610072,398.9078312610072,399.8259320799989,,,,,,,,,,,,,,,,,,,,,,,,,,,,,,right,1.0,0.9112313140067272,,,,,,sub-108,1,random_dot,59.99812398267427,
left,left,38.0,0.0,19.0,left,1.0,1.4009592719958164,,accuracy,space,5.413869933006936,,,,,,0.0,1.0,1.0,0.0,19.0,0.0,38.0,0.0,399.8409197209985,,,,,,,,,399.8264110070013,399.941515397004,400.7410200379964,400.7261520280008,400.726586838995,400.7410200379964,400.7410200379964,400.7410200379964,402.1593074590055,,,,,,,,,,,,,,,,,,,,,,,,,,,,,,left,1.0,1.4009592719958164,,,,,,sub-108,1,random_dot,59.99812398267427,
right,right,39.0,1.0,19.0,right,1.0,1.1009481040091489,,accuracy,space,5.413869933006936,,,,,,0.0,1.0,1.0,0.0,19.0,1.0,39.0,1.0,402.1752738679934,,,,,,,,,402.15974521500175,402.2582932090008,403.0579330879991,403.0420491889963,403.0424305630004,403.0579330879991,403.0579330879991,403.0579330879991,404.1764584810008,,,,,,,,,,,,,,,,,,,,,,,,,,,,,,right,1.0,1.1009481040091489,,,,,,sub-108,1,random_dot,59.99812398267427,
left,left,40.0,0.0,20.0,right,0.0,3.3339372689952143,,accuracy,space,5.413869933006936,,,,,,0.0,1.0,1.0,0.0,20.0,0.0,40.0,0.0,404.1914272879949,,,,,,,,,404.17705013799423,404.9917215769965,405.7918696379929,405.7757213330042,405.7761400830059,405.7918696379929,405.7918696379929,405.7918696379929,409.142725978003,,,,,,,,,,,,,,,,,,,,,,,,,,,,,,right,0.0,3.3339372689952143,,,,,,sub-108,1,random_dot,59.99812398267427,
right,right,41.0,1.0,20.0,right,1.0,0.8311427429871401,,accuracy,space,5.413869933006936,,,,,,0.0,1.0,1.0,0.0,20.0,1.0,41.0,1.0,409.1583954060043,,,,,,,,,409.1431870939996,409.2421457419987,410.04222897700674,410.0261444100033,410.0265939090023,410.04222897700674,410.04222897700674,410.04222897700674,410.8761093630019,,,,,,,,,,,,,,,,,,,,,,,,,,,,,,right,1.0,0.8311427429871401,,,,,,sub-108,1,random_dot,59.99812398267427,
right,right,42.0,0.0,21.0,right,1.0,0.6342307830054779,,accuracy,space,5.413869933006936,,,,,,0.0,1.0,1.0,0.0,21.0,0.0,42.0,1.0,410.8913290170021,,,,,,,,,410.8765900940052,411.67653176700696,412.4752460220043,412.459139493003,412.45953117500176,412.4752460220043,412.4752460220043,412.4752460220043,413.1111297750031,,,,,,,,,,,,,,,,,,,,,,,,,,,,,,right,1.0,0.6342307830054779,,,,,,sub-108,1,random_dot,59.99812398267427,
left,left,43.0,1.0,21.0,right,0.0,2.059866821989999,,accuracy,space,5.413869933006936,,,,,,0.0,1.0,1.0,0.0,21.0,1.0,43.0,0.0,413.1258426150016,,,,,,,,,413.1117381499935,413.2259012839932,414.0261125679972,414.0093501319934,414.009730093996,414.0261125679972,414.0261125679972,414.0261125679972,416.0938682940032,,,,,,,,,,,,,,,,,,,,,,,,,,,,,,right,0.0,2.059866821989999,,,,,,sub-108,1,random_dot,59.99812398267427,
left,left,44.0,0.0,22.0,right,0.0,1.7794495129928691,,accuracy,space,5.413869933006936,,,,,,0.0,1.0,1.0,0.0,22.0,0.0,44.0,0.0,416.1088049929968,,,,,,,,,416.0943495190004,416.1925954100007,416.99246712999593,416.9774809450028,416.9780553349992,416.99246712999593,416.99246712999593,416.99246712999593,418.7771176889946,,,,,,,,,,,,,,,,,,,,,,,,,,,,,,right,0.0,1.7794495129928691,,,,,,sub-108,1,random_dot,59.99812398267427,
right,right,45.0,1.0,22.0,right,1.0,1.6424522589950357,,accuracy,space,5.413869933006936,,,,,,0.0,1.0,1.0,0.0,22.0,1.0,45.0,1.0,418.7925537989941,,,,,,,,,418.7776165690011,419.9927924070071,420.7924101920071,420.77674357900105,420.777205078004,420.7924101920071,420.7924101920071,420.7924101920071,422.4435307209933,,,,,,,,,,,,,,,,,,,,,,,,,,,,,,right,1.0,1.6424522589950357,,,,,,sub-108,1,random_dot,59.99812398267427,
left,left,46.0,0.0,23.0,right,0.0,3.5866607560019474,,accuracy,space,5.413869933006936,,,,,,0.0,1.0,1.0,0.0,23.0,0.0,46.0,0.0,422.4595480760036,,,,,,,,,422.4439709809958,423.6433973509993,424.4492006979999,424.4287543740065,424.4293045170052,424.4492006979999,424.4492006979999,424.4492006979999,428.0443473409978,,,,,,,,,,,,,,,,,,,,,,,,,,,,,,right,0.0,3.5866607560019474,,,,,,sub-108,1,random_dot,59.99812398267427,
right,right,47.0,1.0,23.0,right,1.0,1.6488749019918032,,accuracy,space,5.413869933006936,,,,,,0.0,1.0,1.0,0.0,23.0,1.0,47.0,1.0,428.06010366400005,,,,,,,,,428.04481335800665,429.243396343998,430.0437036009971,430.0277361969929,430.0282258149964,430.0437036009971,430.0437036009971,430.0437036009971,431.6937955239992,,,,,,,,,,,,,,,,,,,,,,,,,,,,,,right,1.0,1.6488749019918032,,,,,,sub-108,1,random_dot,59.99812398267427,
right,right,48.0,0.0,24.0,right,1.0,1.2220861199893989,,accuracy,space,5.413869933006936,,,,,,0.0,1.0,1.0,0.0,24.0,0.0,48.0,1.0,431.7100441670045,,,,,,,,,431.6942856639944,432.8929535549978,433.6941348389955,433.67737914000463,433.6778231280041,433.6941348389955,433.6941348389955,433.6941348389955,434.9277863320021,,,,,,,,,,,,,,,,,,,,,,,,,,,,,,right,1.0,1.2220861199893989,,,,,,sub-108,1,random_dot,59.99812398267427,
left,left,49.0,1.0,24.0,right,0.0,1.7886054569971748,,accuracy,space,5.413869933006936,,,,,,0.0,1.0,1.0,0.0,24.0,1.0,49.0,0.0,434.9433632909932,,,,,,,,,434.9282415799971,435.2778170249949,436.0774710139958,436.0611653369997,436.0614766340004,436.0774710139958,436.0774710139958,436.0774710139958,437.877526287004,,,,,,,,,,,,,,,,,,,,,,,,,,,,,,right,0.0,1.7886054569971748,,,,,,sub-108,1,random_dot,59.99812398267427,
right,right,50.0,0.0,25.0,right,1.0,1.0535638259898406,,accuracy,space,5.413869933006936,,,,,,0.0,1.0,1.0,0.0,25.0,0.0,50.0,1.0,437.8931583800004,,,,,,,,,437.8779744839994,438.6778565029963,439.477563583001,439.4604889869952,439.4607561680023,439.477563583001,439.477563583001,439.477563583001,440.5448674509971,,,,,,,,,,,,,,,,,,,,,,,,,,,,,,right,1.0,1.0535638259898406,,,,,,sub-108,1,random_dot,59.99812398267427,
left,left,51.0,1.0,25.0,right,0.0,2.659359779005172,,accuracy,space,5.413869933006936,,,,,,0.0,1.0,1.0,0.0,25.0,1.0,51.0,0.0,440.5605442149972,,,,,,,,,440.5453230379935,440.9102903860039,441.7108792920044,441.6949156820047,441.6963399880042,441.7108792920044,441.7108792920044,441.7108792920044,444.379030822005,,,,,,,,,,,,,,,,,,,,,,,,,,,,,,right,0.0,2.659359779005172,,,,,,sub-108,1,random_dot,59.99812398267427,
right,right,52.0,0.0,26.0,left,0.0,1.9240532410040032,,accuracy,space,5.413869933006936,,,,,,0.0,1.0,1.0,0.0,26.0,0.0,52.0,1.0,444.39452963399526,,,,,,,,,444.3795218620071,444.49476907399367,445.2944203539955,445.2786966340064,445.2792398339952,445.2944203539955,445.2944203539955,445.2944203539955,447.2286065939989,,,,,,,,,,,,,,,,,,,,,,,,,,,,,,left,0.0,1.9240532410040032,,,,,,sub-108,1,random_dot,59.99812398267427,
left,left,53.0,1.0,26.0,left,1.0,2.7266969090123894,,accuracy,space,5.413869933006936,,,,,,0.0,1.0,1.0,0.0,26.0,1.0,53.0,0.0,447.2440789910033,,,,,,,,,447.2289729199984,447.32830313799786,448.1286345319968,448.1115405220044,448.1118551419932,448.1286345319968,448.1286345319968,448.1286345319968,450.8622831039975,,,,,,,,,,,,,,,,,,,,,,,,,,,,,,left,1.0,2.7266969090123894,,,,,,sub-108,1,random_dot,59.99812398267427,
left,left,54.0,0.0,27.0,right,0.0,4.066234811994946,,accuracy,space,5.413869933006936,,,,,,0.0,1.0,1.0,0.0,27.0,0.0,54.0,0.0,450.8783548329957,,,,,,,,,450.86255872499896,451.6615217380022,452.4611456249986,452.44549162799376,452.4459217209951,452.4611456249986,452.4611456249986,452.4611456249986,456.5318454109947,,,,,,,,,,,,,,,,,,,,,,,,,,,,,,right,0.0,4.066234811994946,,,,,,sub-108,1,random_dot,59.99812398267427,
right,right,55.0,1.0,27.0,right,1.0,1.2700468130060472,,accuracy,space,5.413869933006936,,,,,,0.0,1.0,1.0,0.0,27.0,1.0,55.0,1.0,456.5449938509992,,,,,,,,,456.5324556580017,456.8954985960008,457.695495477994,457.6801685730025,457.6806238470017,457.695495477994,457.695495477994,457.695495477994,458.97993185700034,,,,,,,,,,,,,,,,,,,,,,,,,,,,,,right,1.0,1.2700468130060472,,,,,,sub-108,1,random_dot,59.99812398267427,
left,left,56.0,0.0,28.0,left,1.0,3.267310334995273,,accuracy,space,5.413869933006936,,,,,,0.0,1.0,1.0,0.0,28.0,0.0,56.0,0.0,458.9955172829941,,,,,,,,,458.9804002669989,459.3453668580041,460.1457478840021,460.1296600640053,460.13004268100485,460.1457478840021,460.1457478840021,460.1457478840021,463.43037220700353,,,,,,,,,,,,,,,,,,,,,,,,,,,,,,left,1.0,3.267310334995273,,,,,,sub-108,1,random_dot,59.99812398267427,
right,right,57.0,1.0,28.0,right,1.0,0.9798602890077746,,accuracy,space,5.413869933006936,,,,,,0.0,1.0,1.0,0.0,28.0,1.0,57.0,1.0,463.44516784499865,,,,,,,,,463.4307380090031,463.5455421980005,464.3458776100015,464.3298944739945,464.3303432590037,464.3458776100015,464.3458776100015,464.3458776100015,465.33008093500393,,,,,,,,,,,,,,,,,,,,,,,,,,,,,,right,1.0,0.9798602890077746,,,,,,sub-108,1,random_dot,59.99812398267427,
left,left,58.0,0.0,29.0,left,1.0,2.3809182069962844,,accuracy,space,5.413869933006936,,,,,,0.0,1.0,1.0,0.0,29.0,0.0,58.0,0.0,465.3453750030021,,,,,,,,,465.3305687709944,466.5300518300064,467.3285583590041,467.3125698920048,467.3128599820048,467.3285583590041,467.3285583590041,467.3285583590041,469.7139084359951,,,,,,,,,,,,,,,,,,,,,,,,,,,,,,left,1.0,2.3809182069962844,,,,,,sub-108,1,random_dot,59.99812398267427,
right,right,59.0,1.0,29.0,left,0.0,2.394313361000968,,accuracy,space,5.413869933006936,,,,,,0.0,1.0,1.0,0.0,29.0,1.0,59.0,1.0,469.7288301149965,,,,,,,,,469.714209451995,469.8293467400072,470.62867322500097,470.612263336996,470.6125901460037,470.62867322500097,470.62867322500097,470.62867322500097,473.0307105929969,,,,,,,,,,,,,,,,,,,,,,,,,,,,,,left,0.0,2.394313361000968,,,,,,sub-108,1,random_dot,59.99812398267427,
,,1.0,1.0,0.0,,,,,accuracy,space,5.413869933006936,,,,,,0.0,1.0,1.0,0.0,,,,,,,,,,,,,,,,,,,,,,,,,,,,,,,,,,,,,,,,,,,,,,,,,,,,,,,,,,,,sub-108,1,random_dot,59.99812398267427,
,,,,,,,,,,,,,,,,,,,,,,,,,,,,,,,,,,,,,,,,,,,,,,,,,,,,,,,,,,,,,,,,,,,,,,,,,,,,,473.039056100999,473.0500026090013,478.0311368889961,sub-108,1,random_dot,59.99812398267427,
