wordCTK,colorCTK,corrAnsCTK,congruentCTK,thisN,thisTrialN,thisRepN,keyResp_CTK.keys,keyResp_CTK.corr,keyResp_CTK.rt,keyResp_CTK.duration,wordPractice,colorPractice,corrAnsPractice,congruentPractice,respPractice.keys,respPractice.corr,respPractice.rt,respPractice.duration,word,color,corrAns,congruent,keyResp_test_run.keys,keyResp_test_run.corr,keyResp_test_run.rt,keyResp_test_run.duration,trials_CTK.thisRepN,trials_CTK.thisTrialN,trials_CTK.thisN,trials_CTK.thisIndex,trials_practice.thisRepN,trials_practice.thisTrialN,trials_practice.thisN,trials_practice.thisIndex,trials_test.thisRepN,trials_test.thisTrialN,trials_test.thisN,trials_test.thisIndex,thisRow.t,notes,instruction.started,instr_text.started,instr_image.started,instr_resp.started,instruction.stopped,instr_resp.keys,instr_resp.rt,instr_resp.duration,instr_color_to_key.started,instr_ctk.started,resp_ctk.started,instr_color_to_key.stopped,resp_ctk.keys,resp_ctk.rt,resp_ctk.duration,ITI.started,fixcross.started,fixcross.stopped,ITI.stopped,color_to_key_run.started,stimulus_CTK.started,keyResp_CTK.started,color_to_key_run.stopped,trials_CTK.keyResp_CTK.keys,trials_CTK.keyResp_CTK.corr,trials_CTK.keyResp_CTK.rt,trials_CTK.keyResp_CTK.duration,instr_practice.started,instr_practice_text.started,instr_practice_resp.started,instr_practice.stopped,instr_practice_resp.keys,instr_practice_resp.rt,instr_practice_resp.duration,practice_run.started,stimulus_practice.started,respPractice.started,practice_run.stopped,trials_practice.respPractice.keys,trials_practice.respPractice.corr,trials_practice.respPractice.rt,trials_practice.respPractice.duration,feedback.started,textFeedback.started,feedback.stopped,textFeedback.stopped,instr_test.started,instr_test_text.started,instr_test_resp.started,instr_test.stopped,instr_test_resp.keys,instr_test_resp.rt,instr_test_resp.duration,test_run.started,stimulus_test_run.started,keyResp_test_run.started,test_run.stopped,trials_test.keyResp_test_run.keys,trials_test.keyResp_test_run.corr,trials_test.keyResp_test_run.rt,trials_test.keyResp_test_run.duration,goodbye.started,textGoodbye.started,textGoodbye.stopped,goodbye.stopped,participant,session,expName,frameRate,Unnamed: 113
,,,,,,,,,,,,,,,,,,,,,,,,,,,,,,,,,,,,,,,,,0.0069123330031288,0.0125127080100355,0.0125127080100355,0.0125127080100355,29.39299912500428,space,29.25085462500283,,,,,,,,,,,,,,,,,,,,,,,,,,,,,,,,,,,,,,,,,,,,,,,,,,,,,,,,,,,sub-072,1,stroop_test,,
,,,,,,,,,,,,,,,,,,,,,,,,,,,,,,,,,,,,,,,,,,,,,,,,,29.39303216600092,29.40550858300412,29.40550858300412,33.721332291010185,space,4.303239458007738,,,,,,,,,,,,,,,,,,,,,,,,,,,,,,,,,,,,,,,,,,,,,,,,,,,,sub-072,1,stroop_test,,
test,blue,b,1.0,0.0,0.0,0.0,b,1.0,0.7564573340059724,,,,,,,,,,,,,,,,,,0.0,0.0,0.0,2.0,,,,,,,,,33.757393541003694,,,,,,,,,,,,,,,,,33.74226179100515,34.06858025000838,34.86727866600268,34.8528745000076,34.86056145800103,34.86727866600268,34.86727866600268,35.62618920800742,b,1.0,0.7564573340059724,,,,,,,,,,,,,,,,,,,,,,,,,,,,,,,,,,,,,,,,sub-072,1,stroop_test,,
test,red,r,1.0,1.0,1.0,0.0,r,1.0,0.988569875000394,,,,,,,,,,,,,,,,,,0.0,1.0,1.0,0.0,,,,,,,,,35.635291208003764,,,,,,,,,,,,,,,,,35.626738375009154,35.72484875000373,36.51817491601105,36.50859337500879,36.50920025000232,36.51817491601105,36.51817491601105,37.50938595800835,r,1.0,0.988569875000394,,,,,,,,,,,,,,,,,,,,,,,,,,,,,,,,,,,,,,,,sub-072,1,stroop_test,,
test,yellow,g,1.0,2.0,2.0,0.0,g,1.0,0.4549353750044247,,,,,,,,,,,,,,,,,,0.0,2.0,2.0,1.0,,,,,,,,,37.51850883300358,,,,,,,,,,,,,,,,,37.50991050001176,37.85710295800527,38.65082058300322,38.64206795800419,38.64285208300862,38.65082058300322,38.65082058300322,39.10795679100556,g,1.0,0.4549353750044247,,,,,,,,,,,,,,,,,,,,,,,,,,,,,,,,,,,,,,,,sub-072,1,stroop_test,,
test,blue,b,1.0,3.0,0.0,1.0,b,1.0,0.3738149169948883,,,,,,,,,,,,,,,,,,1.0,0.0,3.0,2.0,,,,,,,,,39.11763737500587,,,,,,,,,,,,,,,,,39.10838845800026,40.307576375009376,41.101824958008365,41.09080704100779,41.09140674999799,41.101824958008365,41.101824958008365,41.48773195799731,b,1.0,0.3738149169948883,,,,,,,,,,,,,,,,,,,,,,,,,,,,,,,,,,,,,,,,sub-072,1,stroop_test,,
test,yellow,g,1.0,4.0,1.0,1.0,g,1.0,0.5070260420034174,,,,,,,,,,,,,,,,,,1.0,1.0,4.0,1.0,,,,,,,,,41.49697320800624,,,,,,,,,,,,,,,,,41.48857487500936,42.68600987500395,43.47656866601028,43.46930879099818,43.47004820800794,43.47656866601028,43.47656866601028,43.98688641600893,g,1.0,0.5070260420034174,,,,,,,,,,,,,,,,,,,,,,,,,,,,,,,,,,,,,,,,sub-072,1,stroop_test,,
test,red,r,1.0,5.0,2.0,1.0,r,1.0,0.3027921250031795,,,,,,,,,,,,,,,,,,1.0,2.0,5.0,0.0,,,,,,,,,43.99586087500211,,,,,,,,,,,,,,,,,43.9874490830116,44.78578270800063,45.576801916002296,45.56949370801158,45.57014062500093,45.576801916002296,45.576801916002296,45.88777120799932,r,1.0,0.3027921250031795,,,,,,,,,,,,,,,,,,,,,,,,,,,,,,,,,,,,,,,,sub-072,1,stroop_test,,
test,blue,b,1.0,6.0,0.0,2.0,b,1.0,0.4473588749970076,,,,,,,,,,,,,,,,,,2.0,0.0,6.0,2.0,,,,,,,,,45.89670258300612,,,,,,,,,,,,,,,,,45.88836704099958,46.23552329100494,47.027165791005245,47.019255416002125,47.020265500003006,47.027165791005245,47.027165791005245,47.47582466600579,b,1.0,0.4473588749970076,,,,,,,,,,,,,,,,,,,,,,,,,,,,,,,,,,,,,,,,sub-072,1,stroop_test,,
test,yellow,g,1.0,7.0,1.0,2.0,g,1.0,0.2993791660119314,,,,,,,,,,,,,,,,,,2.0,1.0,7.0,1.0,,,,,,,,,47.48572070800583,,,,,,,,,,,,,,,,,47.476260374998674,48.275275083011365,49.069096375009394,49.05833741600509,49.058931958003086,49.069096375009394,49.069096375009394,49.37051829100528,g,1.0,0.2993791660119314,,,,,,,,,,,,,,,,,,,,,,,,,,,,,,,,,,,,,,,,sub-072,1,stroop_test,,
test,red,r,1.0,8.0,2.0,2.0,r,1.0,0.3661449999926844,,,,,,,,,,,,,,,,,,2.0,2.0,8.0,0.0,,,,,,,,,49.37659787500161,,,,,,,,,,,,,,,,,49.37136462501076,49.71887016600522,50.510324540999136,50.50253954100481,50.50357041601092,50.510324540999136,50.510324540999136,50.88692316600645,r,1.0,0.3661449999926844,,,,,,,,,,,,,,,,,,,,,,,,,,,,,,,,,,,,,,,,sub-072,1,stroop_test,,
test,blue,b,1.0,9.0,0.0,3.0,b,1.0,0.4544146249972982,,,,,,,,,,,,,,,,,,3.0,0.0,9.0,2.0,,,,,,,,,50.8955525830097,,,,,,,,,,,,,,,,,50.88737350000884,52.08575100000599,52.87799241600442,52.869725875003496,52.8707139580074,52.87799241600442,52.87799241600442,53.33775466600491,b,1.0,0.4544146249972982,,,,,,,,,,,,,,,,,,,,,,,,,,,,,,,,,,,,,,,,sub-072,1,stroop_test,,
test,yellow,g,1.0,10.0,1.0,3.0,g,1.0,0.5813034579914529,,,,,,,,,,,,,,,,,,3.0,1.0,10.0,1.0,,,,,,,,,53.34743537500617,,,,,,,,,,,,,,,,,53.33859475000645,53.43596650000836,54.22695037499943,54.21920445800061,54.22022979101166,54.22695037499943,54.22695037499943,54.82026520800719,g,1.0,0.5813034579914529,,,,,,,,,,,,,,,,,,,,,,,,,,,,,,,,,,,,,,,,sub-072,1,stroop_test,,
test,red,r,1.0,11.0,2.0,3.0,r,1.0,0.2838777919969288,,,,,,,,,,,,,,,,,,3.0,2.0,11.0,0.0,,,,,,,,,54.82887695801037,,,,,,,,,,,,,,,,,54.82069483300438,55.61905912500515,56.41037966600561,56.402753250004025,56.4037722080102,56.41037966600561,56.41037966600561,56.70377733300848,r,1.0,0.2838777919969288,,,,,,,,,,,,,,,,,,,,,,,,,,,,,,,,,,,,,,,,sub-072,1,stroop_test,,
,,,,,,,,,,,,,,,,,,,,,,,,,,,,,,,,,,,,,,,,,,,,,,,,,,,,,,,,,,,,,,,,,,,,56.7039829580026,56.7149347079976,56.7149347079976,65.93721237500722,space,9.213566625010571,,,,,,,,,,,,,,,,,,,,,,,,,,,,,,,,,sub-072,1,stroop_test,,
,,,,0.0,0.0,0.0,,,,,rot,red,r,1.0,r,1.0,0.8215340839960845,,,,,,,,,,,,,,0.0,0.0,0.0,1.0,,,,,65.96031041600509,,,,,,,,,,,,,,,,,65.95390429100371,66.73547495801176,67.53262008300226,67.51930325001013,,,,,,,,,,,,,,,,67.52585954099777,67.53262008300226,67.53262008300226,68.35961749999842,r,1.0,0.8215340839960845,,68.3674766250042,68.37615708301018,69.36955520800257,,,,,,,,,,,,,,,,,,,,,sub-072,1,stroop_test,,
,,,,1.0,1.0,0.0,,,,,blau,blue,b,1.0,b,1.0,0.8558205000008456,,,,,,,,,,,,,,0.0,1.0,1.0,5.0,,,,,69.37532587500755,,,,,,,,,,,,,,,,,69.37028483299946,70.55820754100569,71.36417404100939,71.3518926250108,,,,,,,,,,,,,,,,71.3587525410112,71.36417404100939,71.36417404100939,72.2258581250062,b,1.0,0.8558205000008456,,72.22668975000852,72.24085283299792,73.22506041600718,73.2360002080095,,,,,,,,,,,,,,,,,,,,sub-072,1,stroop_test,,
,,,,2.0,2.0,0.0,,,,,blau,red,r,0.0,b,0.0,0.4913398750068154,,,,,,,,,,,,,,0.0,2.0,2.0,4.0,,,,,73.2360002080095,,,,,,,,,,,,,,,,,73.22559850000835,74.0254259580106,74.81752587499795,74.80898816599802,,,,,,,,,,,,,,,,74.80974016600521,74.81752587499795,74.81752587499795,75.32121670800552,b,0.0,0.4913398750068154,,75.33015220800007,75.34093987500819,76.32523033300822,,,,,,,,,,,,,,,,,,,,,sub-072,1,stroop_test,,
,,,,3.0,3.0,0.0,,,,,blau,blue,b,1.0,b,1.0,0.8461850409948966,,,,,,,,,,,,,,0.0,3.0,3.0,6.0,,,,,76.33569645800162,,,,,,,,,,,,,,,,,76.32571062500938,76.41929299999902,77.21070266600873,77.20260650001,,,,,,,,,,,,,,,,77.20362737499818,77.21070266600873,77.21070266600873,78.05890629100031,b,1.0,0.8461850409948966,,78.06353841599775,78.07353433300159,79.05864879100409,79.06873800000176,,,,,,,,,,,,,,,,,,,,sub-072,1,stroop_test,,
,,,,4.0,4.0,0.0,,,,,gelb,yellow,g,1.0,g,1.0,0.516635124993627,,,,,,,,,,,,,,0.0,4.0,4.0,11.0,,,,,79.06873800000176,,,,,,,,,,,,,,,,,79.05918870800815,79.15842600000906,79.95213470800081,79.94126145800692,,,,,,,,,,,,,,,,79.94564825000998,79.95213470800081,79.95213470800081,80.47064925001177,g,1.0,0.516635124993627,,80.47169454100367,80.48235029100033,81.46986537500925,81.47556741601147,,,,,,,,,,,,,,,,,,,,sub-072,1,stroop_test,,
,,,,5.0,5.0,0.0,,,,,blau,yellow,g,0.0,g,1.0,0.7191777909902157,,,,,,,,,,,,,,0.0,5.0,5.0,7.0,,,,,81.47556741601147,,,,,,,,,,,,,,,,,81.4705457079981,82.26930775000073,83.06460479099769,83.05254658299964,,,,,,,,,,,,,,,,83.05784379100078,83.06460479099769,83.06460479099769,83.78736383300566,g,1.0,0.7191777909902157,,83.7886883750034,83.79996904100699,84.78589141600241,84.79153379100899,,,,,,,,,,,,,,,,,,,,sub-072,1,stroop_test,,
,,,,6.0,6.0,0.0,,,,,gelb,yellow,g,1.0,g,1.0,0.5730446250090608,,,,,,,,,,,,,,0.0,6.0,6.0,10.0,,,,,84.79153379100899,,,,,,,,,,,,,,,,,84.78663666600187,85.5859527499997,86.37965991599776,86.36931691601058,,,,,,,,,,,,,,,,86.37296191600035,86.37965991599776,86.37965991599776,86.95439937499759,g,1.0,0.5730446250090608,,86.9558011659974,86.96682516600413,87.95292625000002,87.95714104099898,,,,,,,,,,,,,,,,,,,,sub-072,1,stroop_test,,
,,,,7.0,7.0,0.0,,,,,rot,yellow,g,0.0,g,1.0,0.4910245420032879,,,,,,,,,,,,,,0.0,7.0,7.0,3.0,,,,,87.95714104099898,,,,,,,,,,,,,,,,,87.95335329099908,88.30264270800399,89.09850987500977,89.0863494160003,,,,,,,,,,,,,,,,89.09165570800542,89.09850987500977,89.09850987500977,89.5933033330075,g,1.0,0.4910245420032879,,89.5942096660001,89.60688445800042,90.59227558301065,90.60218316600368,,,,,,,,,,,,,,,,,,,,sub-072,1,stroop_test,,
,,,,8.0,8.0,0.0,,,,,gelb,red,r,0.0,r,1.0,0.3442990000039572,,,,,,,,,,,,,,0.0,8.0,8.0,8.0,,,,,90.60218316600368,,,,,,,,,,,,,,,,,90.59280641601072,91.39201108300767,92.20229254099831,92.17510804100311,,,,,,,,,,,,,,,,92.17945879101173,92.20229254099831,92.20229254099831,92.55453887500336,r,1.0,0.3442990000039572,,92.5559012080048,92.56696183299935,93.55300966600772,93.55864116600424,,,,,,,,,,,,,,,,,,,,sub-072,1,stroop_test,,
,,,,9.0,9.0,0.0,,,,,rot,red,r,1.0,r,1.0,0.6832837499969173,,,,,,,,,,,,,,0.0,9.0,9.0,0.0,,,,,93.55864116600424,,,,,,,,,,,,,,,,,93.55369545800204,94.75210683300976,95.54921766600457,95.53638124999998,,,,,,,,,,,,,,,,95.5422187080112,95.54921766600457,95.54921766600457,96.23782920801024,r,1.0,0.6832837499969173,,96.2388758330053,96.25016870800756,97.23587795800997,97.24132945800376,,,,,,,,,,,,,,,,,,,,sub-072,1,stroop_test,,
,,,,10.0,10.0,0.0,,,,,rot,blue,b,0.0,b,1.0,0.6946416669961764,,,,,,,,,,,,,,0.0,10.0,10.0,2.0,,,,,97.24132945800376,,,,,,,,,,,,,,,,,97.23660754101002,98.43597145800597,99.22765025000264,99.21928508300334,,,,,,,,,,,,,,,,99.22031137500016,99.22765025000264,99.22765025000264,99.92595633299788,b,1.0,0.6946416669961764,,99.92675854099798,99.9380067500024,100.92539283299992,100.9354852079996,,,,,,,,,,,,,,,,,,,,sub-072,1,stroop_test,,
,,,,11.0,11.0,0.0,,,,,gelb,blue,b,0.0,b,1.0,0.6666174159909133,,,,,,,,,,,,,,0.0,11.0,11.0,9.0,,,,,100.9354852079996,,,,,,,,,,,,,,,,,100.92595816600078,101.27516225000728,102.06879187500454,102.05875429100706,,,,,,,,,,,,,,,,102.06234991599922,102.06879187500454,102.06879187500454,102.73786562500754,b,1.0,0.6666174159909133,,102.7390545829985,102.75007041600476,103.73641379100444,103.74186225001176,,,,,,,,,,,,,,,,,,,,sub-072,1,stroop_test,,
,,,,12.0,0.0,1.0,,,,,gelb,red,r,0.0,r,1.0,0.5985208750062156,,,,,,,,,,,,,,1.0,0.0,12.0,8.0,,,,,103.74186225001176,,,,,,,,,,,,,,,,,103.7370837500057,103.83577304100618,104.62779141600186,104.61976320800022,,,,,,,,,,,,,,,,104.62075212500348,104.62779141600186,104.62779141600186,105.23776658299904,r,1.0,0.5985208750062156,,105.23896020800748,105.24974587500036,106.23596433299826,106.24155125000108,,,,,,,,,,,,,,,,,,,,sub-072,1,stroop_test,,
,,,,13.0,1.0,1.0,,,,,rot,red,r,1.0,r,1.0,0.5074402500031283,,,,,,,,,,,,,,1.0,1.0,13.0,1.0,,,,,106.24155125000108,,,,,,,,,,,,,,,,,106.23669579099806,106.5854910830094,107.38074425001103,107.36936850000347,,,,,,,,,,,,,,,,107.37394570800824,107.38074425001103,107.38074425001103,107.89309991600749,r,1.0,0.5074402500031283,,107.89374608300568,107.90467025000544,108.89228412500232,108.9022222909989,,,,,,,,,,,,,,,,,,,,sub-072,1,stroop_test,,
,,,,14.0,2.0,1.0,,,,,rot,blue,b,0.0,b,1.0,0.933390624995809,,,,,,,,,,,,,,1.0,2.0,14.0,2.0,,,,,108.9022222909989,,,,,,,,,,,,,,,,,108.89281841600314,110.09158791600204,110.88570212500052,110.87433608299762,,,,,,,,,,,,,,,,110.87509950000094,110.88570212500052,110.88570212500052,111.82129783299752,b,1.0,0.933390624995809,,111.8223396250105,111.8329558330006,112.81934579100924,112.82473120800567,,,,,,,,,,,,,,,,,,,,sub-072,1,stroop_test,,
,,,,15.0,3.0,1.0,,,,,gelb,blue,b,0.0,b,1.0,0.5678741660085507,,,,,,,,,,,,,,1.0,3.0,15.0,9.0,,,,,112.82473120800567,,,,,,,,,,,,,,,,,112.82007620800869,113.61944249999942,114.41520154100726,114.4031037500099,,,,,,,,,,,,,,,,114.40825645800214,114.41520154100726,114.41520154100726,114.98747462499888,b,1.0,0.5678741660085507,,114.98836675001075,114.999365458003,115.98621362500126,115.99148762501136,,,,,,,,,,,,,,,,,,,,sub-072,1,stroop_test,,
,,,,16.0,4.0,1.0,,,,,blau,blue,b,1.0,b,1.0,0.4238857080054004,,,,,,,,,,,,,,1.0,4.0,16.0,5.0,,,,,115.99148762501136,,,,,,,,,,,,,,,,,115.98674562500672,116.78575845800516,117.58116683299886,117.5693708750041,,,,,,,,,,,,,,,,117.57447295800377,117.58116683299886,117.58116683299886,118.010029750003,b,1.0,0.4238857080054004,,118.01080254100088,118.02362162500503,119.00892912500422,119.01890475000256,,,,,,,,,,,,,,,,,,,,sub-072,1,stroop_test,,
,,,,17.0,5.0,1.0,,,,,rot,yellow,g,0.0,g,1.0,0.6195982500066748,,,,,,,,,,,,,,1.0,5.0,17.0,3.0,,,,,119.01890475000256,,,,,,,,,,,,,,,,,119.00946300000942,119.80777920800028,120.60440312500576,120.5922288330039,,,,,,,,,,,,,,,,120.59749470801034,120.60440312500576,120.60440312500576,121.22569183300948,g,1.0,0.6195982500066748,,121.22653150001132,121.23812508300762,122.22519508301048,122.23604841600172,,,,,,,,,,,,,,,,,,,,sub-072,1,stroop_test,,
,,,,18.0,6.0,1.0,,,,,blau,red,r,0.0,r,1.0,0.7571032090054359,,,,,,,,,,,,,,1.0,6.0,18.0,4.0,,,,,122.23604841600172,,,,,,,,,,,,,,,,,122.2257268329995,123.42521495799885,124.22073166600605,124.20884383301018,,,,,,,,,,,,,,,,124.2131255830027,124.22073166600605,124.22073166600605,124.98723995800538,r,1.0,0.7571032090054359,,124.98790100000042,124.99840387501172,125.98632041600648,125.99207041600312,,,,,,,,,,,,,,,,,,,,sub-072,1,stroop_test,,
,,,,19.0,7.0,1.0,,,,,blau,yellow,g,0.0,g,1.0,0.6050350000004983,,,,,,,,,,,,,,1.0,7.0,19.0,7.0,,,,,125.99207041600312,,,,,,,,,,,,,,,,,125.98700441600522,126.33603116600716,127.12779749999754,127.11976483299804,,,,,,,,,,,,,,,,127.12077962500916,127.12779749999754,127.12779749999754,127.73727470800804,g,1.0,0.6050350000004983,,127.7381870829995,127.74907891600742,128.73619775001134,128.74159900000086,,,,,,,,,,,,,,,,,,,,sub-072,1,stroop_test,,
,,,,20.0,8.0,1.0,,,,,blau,blue,b,1.0,b,1.0,0.4176947090018075,,,,,,,,,,,,,,1.0,8.0,20.0,6.0,,,,,128.74159900000086,,,,,,,,,,,,,,,,,128.7367141249997,129.93561641599808,130.72705791601038,130.7196923330048,,,,,,,,,,,,,,,,130.72067375000915,130.72705791601038,130.72705791601038,131.15418479099753,b,1.0,0.4176947090018075,,131.1548498750053,131.16528533300152,132.15306500000588,132.15875825000694,,,,,,,,,,,,,,,,,,,,sub-072,1,stroop_test,,
,,,,21.0,9.0,1.0,,,,,gelb,yellow,g,1.0,g,1.0,0.4367159999965224,,,,,,,,,,,,,,1.0,9.0,21.0,11.0,,,,,132.15875825000694,,,,,,,,,,,,,,,,,132.15376233300776,132.50253620800504,133.29802500001097,133.28638333300478,,,,,,,,,,,,,,,,133.29102683300152,133.29802500001097,133.29802500001097,133.73758254099812,g,1.0,0.4367159999965224,,133.73870425000496,133.7512082910107,134.7360472910077,134.7402780410048,,,,,,,,,,,,,,,,,,,,sub-072,1,stroop_test,,
,,,,22.0,10.0,1.0,,,,,rot,red,r,1.0,r,1.0,0.5455178330012131,,,,,,,,,,,,,,1.0,10.0,22.0,0.0,,,,,134.7402780410048,,,,,,,,,,,,,,,,,134.73647633301152,134.83597312500933,135.63113412501116,135.61928712500958,,,,,,,,,,,,,,,,135.6240472500067,135.63113412501116,135.63113412501116,136.18806370800303,r,1.0,0.5455178330012131,,136.18950945801043,136.20189979100542,137.1864244160097,137.19211354100844,,,,,,,,,,,,,,,,,,,,sub-072,1,stroop_test,,
,,,,23.0,11.0,1.0,,,,,gelb,yellow,g,1.0,g,1.0,1.4224272920109795,,,,,,,,,,,,,,1.0,11.0,23.0,10.0,,,,,137.19211354100844,,,,,,,,,,,,,,,,,137.1871225000068,137.2857453750039,138.0821102080081,138.06978883300326,,,,,,,,,,,,,,,,138.0750933750096,138.0821102080081,138.0821102080081,139.50942979101092,g,1.0,1.4224272920109795,,139.51009125000564,139.52444020799885,140.50859150000906,140.51895820800564,,,,,,,,,,,,,,,,,,,,sub-072,1,stroop_test,,
,,,,,,,,,,,,,,,,,,,,,,,,,,,,,,,,,,,,,,,,,,,,,,,,,,,,,,,,,,,,,,,,,,,,,,,,,,,,,,,,,,,,,,,140.50879808299942,140.51895820800564,140.51895820800564,144.17022354100482,space,3.64445908399648,,,,,,,,,,,,,,sub-072,1,stroop_test,,
,,,,0.0,0.0,0.0,,,,,,,,,,,,,blau,yellow,g,0.0,g,1.0,0.7293323329940904,,,,,,,,,,0.0,0.0,0.0,7.0,144.19543995799904,,,,,,,,,,,,,,,,,144.18807287501113,145.36922750000667,146.16512708300434,146.15261120800278,,,,,,,,,,,,,,,,,,,,,,,,,,,,,,,,,,,146.15833233299782,146.16512708300434,146.16512708300434,146.90459504100727,g,1.0,0.7293323329940904,,,,,,sub-072,1,stroop_test,,
,,,,1.0,1.0,0.0,,,,,,,,,,,,,gelb,yellow,g,1.0,g,1.0,0.8058488329988904,,,,,,,,,,0.0,1.0,1.0,11.0,146.91439170800732,,,,,,,,,,,,,,,,,146.90555900000618,147.70263570800307,148.49848049999855,148.48636883300787,,,,,,,,,,,,,,,,,,,,,,,,,,,,,,,,,,,148.49171524999838,148.49848049999855,148.49848049999855,149.31014991601114,g,1.0,0.8058488329988904,,,,,,sub-072,1,stroop_test,,
,,,,2.0,2.0,0.0,,,,,,,,,,,,,rot,red,r,1.0,r,1.0,0.5559591249912046,,,,,,,,,,0.0,2.0,2.0,0.0,149.33571737499733,,,,,,,,,,,,,,,,,149.31076816600398,150.50869966601022,151.3022144580027,151.29198650000035,,,,,,,,,,,,,,,,,,,,,,,,,,,,,,,,,,,151.2954891660047,151.3022144580027,151.3022144580027,151.87128645800112,r,1.0,0.5559591249912046,,,,,,sub-072,1,stroop_test,,
,,,,3.0,3.0,0.0,,,,,,,,,,,,,blau,blue,b,1.0,b,1.0,0.5459668340045027,,,,,,,,,,0.0,3.0,3.0,5.0,151.88084662500478,,,,,,,,,,,,,,,,,151.87218708300497,152.66921770801127,153.4643057909998,153.45297891600055,,,,,,,,,,,,,,,,,,,,,,,,,,,,,,,,,,,153.45745950000128,153.4643057909998,153.4643057909998,154.02066279100836,b,1.0,0.5459668340045027,,,,,,sub-072,1,stroop_test,,
,,,,4.0,4.0,0.0,,,,,,,,,,,,,rot,blue,b,0.0,b,1.0,0.8424250830139499,,,,,,,,,,0.0,4.0,4.0,2.0,154.0300877080008,,,,,,,,,,,,,,,,,154.02136220800458,154.11923191600363,154.91481058300997,154.9025862080016,,,,,,,,,,,,,,,,,,,,,,,,,,,,,,,,,,,154.90774491601042,154.91481058300997,154.91481058300997,155.75942866600235,b,1.0,0.8424250830139499,,,,,,sub-072,1,stroop_test,,
,,,,5.0,5.0,0.0,,,,,,,,,,,,,rot,yellow,g,0.0,g,1.0,0.4720302499918034,,,,,,,,,,0.0,5.0,5.0,3.0,155.76870533300098,,,,,,,,,,,,,,,,,155.76003170800686,156.1092874580063,156.91027079100604,156.9027245830075,,,,,,,,,,,,,,,,,,,,,,,,,,,,,,,,,,,156.90350916600437,156.91027079100604,156.91027079100604,157.38736112500192,g,1.0,0.4720302499918034,,,,,,sub-072,1,stroop_test,,
,,,,6.0,6.0,0.0,,,,,,,,,,,,,gelb,red,r,0.0,r,1.0,0.5232721249922179,,,,,,,,,,0.0,6.0,6.0,8.0,157.39699966600165,,,,,,,,,,,,,,,,,157.38805379100086,158.18611429100565,158.97988566600543,158.96934787499777,,,,,,,,,,,,,,,,,,,,,,,,,,,,,,,,,,,158.97305062500527,158.97988566600543,158.97988566600543,159.5101177500037,r,1.0,0.5232721249922179,,,,,,sub-072,1,stroop_test,,
,,,,7.0,7.0,0.0,,,,,,,,,,,,,blau,blue,b,1.0,b,1.0,0.5627398749929853,,,,,,,,,,0.0,7.0,7.0,6.0,159.5356799160072,,,,,,,,,,,,,,,,,159.51078066600894,160.30861379099952,161.1042316660023,161.09142129099928,,,,,,,,,,,,,,,,,,,,,,,,,,,,,,,,,,,161.09671070800687,161.1042316660023,161.1042316660023,161.67063662500004,b,1.0,0.5627398749929853,,,,,,sub-072,1,stroop_test,,
,,,,8.0,8.0,0.0,,,,,,,,,,,,,gelb,yellow,g,1.0,g,1.0,0.4331498749961611,,,,,,,,,,0.0,8.0,8.0,10.0,161.68048275000183,,,,,,,,,,,,,,,,,161.67130433300918,162.86943962500663,163.66298216600262,163.65266274999885,,,,,,,,,,,,,,,,,,,,,,,,,,,,,,,,,,,163.65636741599883,163.66298216600262,163.66298216600262,164.1046007910045,g,1.0,0.4331498749961611,,,,,,sub-072,1,stroop_test,,
,,,,9.0,9.0,0.0,,,,,,,,,,,,,blau,red,r,0.0,r,1.0,0.7901485829934245,,,,,,,,,,0.0,9.0,9.0,4.0,164.11421166600485,,,,,,,,,,,,,,,,,164.10539766600414,164.2023869160039,164.99784254100814,164.98601920800866,,,,,,,,,,,,,,,,,,,,,,,,,,,,,,,,,,,164.99121195801126,164.99784254100814,164.99784254100814,165.79305620800005,r,1.0,0.7901485829934245,,,,,,sub-072,1,stroop_test,,
,,,,10.0,10.0,0.0,,,,,,,,,,,,,gelb,blue,b,0.0,g,0.0,0.8657971249922412,,,,,,,,,,0.0,10.0,10.0,9.0,165.8020789160073,,,,,,,,,,,,,,,,,165.7935494999983,166.14198012500128,166.94730858301045,166.9361995000072,,,,,,,,,,,,,,,,,,,,,,,,,,,,,,,,,,,166.9406231250032,166.94730858301045,166.94730858301045,167.8205605000112,g,0.0,0.8657971249922412,,,,,,sub-072,1,stroop_test,,
,,,,11.0,11.0,0.0,,,,,,,,,,,,,rot,red,r,1.0,r,1.0,0.6574629999959143,,,,,,,,,,0.0,11.0,11.0,1.0,167.82991662500717,,,,,,,,,,,,,,,,,167.82120450001094,168.1691455830005,168.9654220000084,168.95307670799957,,,,,,,,,,,,,,,,,,,,,,,,,,,,,,,,,,,168.9583593330026,168.9654220000084,168.9654220000084,169.62564600000042,r,1.0,0.6574629999959143,,,,,,sub-072,1,stroop_test,,
,,,,12.0,0.0,1.0,,,,,,,,,,,,,gelb,yellow,g,1.0,g,1.0,0.736526375010726,,,,,,,,,,1.0,0.0,12.0,10.0,169.63481608300935,,,,,,,,,,,,,,,,,169.6261941249977,169.7252922080079,170.5208537080034,170.50903800000378,,,,,,,,,,,,,,,,,,,,,,,,,,,,,,,,,,,170.51321116600593,170.5208537080034,170.5208537080034,171.25993520799966,g,1.0,0.736526375010726,,,,,,sub-072,1,stroop_test,,
,,,,13.0,1.0,1.0,,,,,,,,,,,,,gelb,yellow,g,1.0,g,1.0,0.4572751249943394,,,,,,,,,,1.0,1.0,13.0,11.0,171.2857341659983,,,,,,,,,,,,,,,,,171.2605350829981,172.0579369580082,172.85257162500056,172.8409894159995,,,,,,,,,,,,,,,,,,,,,,,,,,,,,,,,,,,172.84171670800424,172.85257162500056,172.85257162500056,173.3213956660038,g,1.0,0.4572751249943394,,,,,,sub-072,1,stroop_test,,
,,,,14.0,2.0,1.0,,,,,,,,,,,,,blau,yellow,g,0.0,g,1.0,0.6758023330039578,,,,,,,,,,1.0,2.0,14.0,7.0,173.33141908299876,,,,,,,,,,,,,,,,,173.32236287499836,173.66944095800864,174.46507025000756,174.45309300000372,,,,,,,,,,,,,,,,,,,,,,,,,,,,,,,,,,,174.45830604100777,174.46507025000756,174.46507025000756,175.14347287500277,g,1.0,0.6758023330039578,,,,,,sub-072,1,stroop_test,,
,,,,15.0,3.0,1.0,,,,,,,,,,,,,blau,blue,b,1.0,b,1.0,0.5560484159941552,,,,,,,,,,1.0,3.0,15.0,6.0,175.1543271249975,,,,,,,,,,,,,,,,,175.14411762500822,175.2428157079994,176.04473458300345,176.0369960829994,,,,,,,,,,,,,,,,,,,,,,,,,,,,,,,,,,,176.03801133300294,176.04473458300345,176.04473458300345,176.60409204100142,b,1.0,0.5560484159941552,,,,,,sub-072,1,stroop_test,,
,,,,16.0,4.0,1.0,,,,,,,,,,,,,blau,blue,b,1.0,b,1.0,0.4558068329934031,,,,,,,,,,1.0,4.0,16.0,5.0,176.61383041599765,,,,,,,,,,,,,,,,,176.6047730410064,176.9526096250047,177.74591266601055,177.73649250000017,,,,,,,,,,,,,,,,,,,,,,,,,,,,,,,,,,,177.73747737500526,177.74591266601055,177.74591266601055,178.20435879100114,b,1.0,0.4558068329934031,,,,,,sub-072,1,stroop_test,,
,,,,17.0,5.0,1.0,,,,,,,,,,,,,rot,blue,b,0.0,b,1.0,0.3842162910004845,,,,,,,,,,1.0,5.0,17.0,2.0,178.21016020800744,,,,,,,,,,,,,,,,,178.20527983301145,178.3026437080116,179.09854591600015,179.08641008300765,,,,,,,,,,,,,,,,,,,,,,,,,,,,,,,,,,,179.0916758329986,179.09854591600015,179.09854591600015,179.4875190830062,b,1.0,0.3842162910004845,,,,,,sub-072,1,stroop_test,,
,,,,18.0,6.0,1.0,,,,,,,,,,,,,gelb,red,r,0.0,r,1.0,0.3959488330001477,,,,,,,,,,1.0,6.0,18.0,8.0,179.49732224999752,,,,,,,,,,,,,,,,,179.48843562501133,179.58620762500504,180.3817622909992,180.36978308300604,,,,,,,,,,,,,,,,,,,,,,,,,,,,,,,,,,,180.37511475000065,180.3817622909992,180.3817622909992,180.78785445800168,r,1.0,0.3959488330001477,,,,,,sub-072,1,stroop_test,,
,,,,19.0,7.0,1.0,,,,,,,,,,,,,rot,yellow,g,0.0,g,1.0,0.446921333001228,,,,,,,,,,1.0,7.0,19.0,3.0,180.79789337499824,,,,,,,,,,,,,,,,,180.7889070829988,181.58549933299943,182.38169333300905,182.36980945800315,,,,,,,,,,,,,,,,,,,,,,,,,,,,,,,,,,,182.37454395800887,182.38169333300905,182.38169333300905,182.8373275000049,g,1.0,0.446921333001228,,,,,,sub-072,1,stroop_test,,
,,,,20.0,8.0,1.0,,,,,,,,,,,,,blau,red,r,0.0,r,1.0,0.7300644170027226,,,,,,,,,,1.0,8.0,20.0,4.0,182.84639983301167,,,,,,,,,,,,,,,,,182.83780983299948,184.03594879100277,184.8306053330016,184.81918900000164,,,,,,,,,,,,,,,,,,,,,,,,,,,,,,,,,,,184.82380750001172,184.8306053330016,184.8306053330016,185.57125354099844,r,1.0,0.7300644170027226,,,,,,sub-072,1,stroop_test,,
,,,,21.0,9.0,1.0,,,,,,,,,,,,,rot,red,r,1.0,r,1.0,0.4460481660062214,,,,,,,,,,1.0,9.0,21.0,1.0,185.58092412500991,,,,,,,,,,,,,,,,,185.57220870800663,186.769372958006,187.56453400000464,187.55260420800187,,,,,,,,,,,,,,,,,,,,,,,,,,,,,,,,,,,187.5575595410046,187.56453400000464,187.56453400000464,188.0203928330011,r,1.0,0.4460481660062214,,,,,,sub-072,1,stroop_test,,
,,,,22.0,10.0,1.0,,,,,,,,,,,,,rot,red,r,1.0,r,1.0,0.4083864169951994,,,,,,,,,,1.0,10.0,22.0,0.0,188.02963754101077,,,,,,,,,,,,,,,,,188.02091187500628,188.1192224999977,188.91011508301017,188.90293483300772,,,,,,,,,,,,,,,,,,,,,,,,,,,,,,,,,,,188.90367808300653,188.91011508301017,188.91011508301017,189.3208993750013,r,1.0,0.4083864169951994,,,,,,sub-072,1,stroop_test,,
,,,,23.0,11.0,1.0,,,,,,,,,,,,,gelb,blue,b,0.0,b,1.0,0.5920398339949315,,,,,,,,,,1.0,11.0,23.0,9.0,189.33050708301016,,,,,,,,,,,,,,,,,189.32166008300555,190.5191780830064,191.3154045830015,191.3032038329984,,,,,,,,,,,,,,,,,,,,,,,,,,,,,,,,,,,191.30861754099897,191.3154045830015,191.3154045830015,191.90920783299956,b,1.0,0.5920398339949315,,,,,,sub-072,1,stroop_test,,
,,,,24.0,0.0,2.0,,,,,,,,,,,,,gelb,blue,b,0.0,b,1.0,0.5155072079942329,,,,,,,,,,2.0,0.0,24.0,9.0,191.91935500000545,,,,,,,,,,,,,,,,,191.90983504100583,193.1091145829996,193.9009917910007,193.89221941601136,,,,,,,,,,,,,,,,,,,,,,,,,,,,,,,,,,,193.8929681660084,193.9009917910007,193.9009917910007,194.42044083301155,b,1.0,0.5155072079942329,,,,,,sub-072,1,stroop_test,,
,,,,25.0,1.0,2.0,,,,,,,,,,,,,rot,yellow,g,0.0,g,1.0,0.5788945000094827,,,,,,,,,,2.0,1.0,25.0,3.0,194.4320971660054,,,,,,,,,,,,,,,,,194.42111091600964,195.6191558749997,196.41647162500885,196.4031602910109,,,,,,,,,,,,,,,,,,,,,,,,,,,,,,,,,,,196.40948391600975,196.41647162500885,196.41647162500885,197.00414216599893,g,1.0,0.5788945000094827,,,,,,sub-072,1,stroop_test,,
,,,,26.0,2.0,2.0,,,,,,,,,,,,,gelb,red,r,0.0,r,1.0,0.6222518330032472,,,,,,,,,,2.0,2.0,26.0,8.0,197.01554691600904,,,,,,,,,,,,,,,,,197.0051768749981,197.35278762500093,198.1481294580008,198.13608750001004,,,,,,,,,,,,,,,,,,,,,,,,,,,,,,,,,,,198.14132612499816,198.1481294580008,198.1481294580008,198.7762051660102,r,1.0,0.6222518330032472,,,,,,sub-072,1,stroop_test,,
,,,,27.0,3.0,2.0,,,,,,,,,,,,,rot,red,r,1.0,r,1.0,0.4385904170048889,,,,,,,,,,2.0,3.0,27.0,1.0,198.787738583007,,,,,,,,,,,,,,,,,198.77670083299745,199.57539412500049,200.36871129099745,200.3584256250033,,,,,,,,,,,,,,,,,,,,,,,,,,,,,,,,,,,200.3619542910019,200.36871129099745,200.36871129099745,200.80944712500784,r,1.0,0.4385904170048889,,,,,,sub-072,1,stroop_test,,
,,,,28.0,4.0,2.0,,,,,,,,,,,,,gelb,yellow,g,1.0,g,1.0,1.0218667500012089,,,,,,,,,,2.0,4.0,28.0,11.0,200.821027833008,,,,,,,,,,,,,,,,,200.8100501660083,201.15871725000036,201.95434750001004,201.94219283299756,,,,,,,,,,,,,,,,,,,,,,,,,,,,,,,,,,,201.94658208300825,201.95434750001004,201.95434750001004,202.98791954100307,g,1.0,1.0218667500012089,,,,,,sub-072,1,stroop_test,,
,,,,29.0,5.0,2.0,,,,,,,,,,,,,rot,blue,b,0.0,b,1.0,0.6597947920090519,,,,,,,,,,2.0,5.0,29.0,2.0,202.998940999998,,,,,,,,,,,,,,,,,202.9887624999974,203.08606237500496,203.8813755410083,203.8693334999989,,,,,,,,,,,,,,,,,,,,,,,,,,,,,,,,,,,203.8741886659991,203.8813755410083,203.8813755410083,204.5433930410072,b,1.0,0.6597947920090519,,,,,,sub-072,1,stroop_test,,
,,,,30.0,6.0,2.0,,,,,,,,,,,,,blau,blue,b,1.0,b,1.0,0.4567672919947654,,,,,,,,,,2.0,6.0,30.0,5.0,204.55483779100177,,,,,,,,,,,,,,,,,204.5440255410067,204.89200129100936,205.70237595800427,205.6750743750017,,,,,,,,,,,,,,,,,,,,,,,,,,,,,,,,,,,205.679399916,205.70237595800427,205.70237595800427,206.1711944999988,b,1.0,0.4567672919947654,,,,,,sub-072,1,stroop_test,,
,,,,31.0,7.0,2.0,,,,,,,,,,,,,blau,blue,b,1.0,b,1.0,0.4109644159907475,,,,,,,,,,2.0,7.0,31.0,6.0,206.1826407500048,,,,,,,,,,,,,,,,,206.17230616600136,207.36935566600005,208.16121862499855,208.15322683300477,,,,,,,,,,,,,,,,,,,,,,,,,,,,,,,,,,,208.15422241600757,208.16121862499855,208.16121862499855,208.5766062910116,b,1.0,0.4109644159907475,,,,,,sub-072,1,stroop_test,,
,,,,32.0,8.0,2.0,,,,,,,,,,,,,blau,red,r,0.0,g,0.0,0.605619875001139,,,,,,,,,,2.0,8.0,32.0,4.0,208.5877633330092,,,,,,,,,,,,,,,,,208.57710408300045,209.7754970410024,210.5683662079973,210.55875866601127,,,,,,,,,,,,,,,,,,,,,,,,,,,,,,,,,,,210.5594175830047,210.5683662079973,210.5683662079973,211.1767850410106,g,0.0,0.605619875001139,,,,,,sub-072,1,stroop_test,,
,,,,33.0,9.0,2.0,,,,,,,,,,,,,blau,yellow,g,0.0,g,1.0,0.3641712499957066,,,,,,,,,,2.0,9.0,33.0,7.0,211.1878257909993,,,,,,,,,,,,,,,,,211.1773946250032,211.97399845800828,212.76799245800063,212.75842425000155,,,,,,,,,,,,,,,,,,,,,,,,,,,,,,,,,,,212.7591731249995,212.76799245800063,212.76799245800063,213.13789949999773,g,1.0,0.3641712499957066,,,,,,sub-072,1,stroop_test,,
,,,,34.0,10.0,2.0,,,,,,,,,,,,,rot,red,r,1.0,r,1.0,0.4618501250079134,,,,,,,,,,2.0,10.0,34.0,0.0,213.14925245800987,,,,,,,,,,,,,,,,,213.13888879099977,213.48598225000023,214.28318366600436,214.2698807910056,,,,,,,,,,,,,,,,,,,,,,,,,,,,,,,,,,,214.27620829100488,214.28318366600436,214.28318366600436,214.7545659160096,r,1.0,0.4618501250079134,,,,,,sub-072,1,stroop_test,,
,,,,35.0,11.0,2.0,,,,,,,,,,,,,gelb,yellow,g,1.0,g,1.0,0.390331167000113,,,,,,,,,,2.0,11.0,35.0,10.0,214.76582733300165,,,,,,,,,,,,,,,,,214.75563408300516,215.10278970800573,215.89859208300183,215.88645258299948,,,,,,,,,,,,,,,,,,,,,,,,,,,,,,,,,,,215.89174783301127,215.89859208300183,215.89859208300183,216.2927677080006,g,1.0,0.390331167000113,,,,,,sub-072,1,stroop_test,,
,,,,36.0,0.0,3.0,,,,,,,,,,,,,blau,blue,b,1.0,b,1.0,0.6613619160052622,,,,,,,,,,3.0,0.0,36.0,5.0,216.30433749999796,,,,,,,,,,,,,,,,,216.29337600000144,216.39195616600043,217.18569300000672,217.1752300410008,,,,,,,,,,,,,,,,,,,,,,,,,,,,,,,,,,,217.17911133301092,217.18569300000672,217.18569300000672,217.85379329101124,b,1.0,0.6613619160052622,,,,,,sub-072,1,stroop_test,,
,,,,37.0,1.0,3.0,,,,,,,,,,,,,gelb,red,r,0.0,g,0.0,1.285719291990972,,,,,,,,,,3.0,1.0,37.0,8.0,217.8642302080116,,,,,,,,,,,,,,,,,217.8542992080038,218.20275116599805,218.99813570801047,218.9864447500004,,,,,,,,,,,,,,,,,,,,,,,,,,,,,,,,,,,218.9914101250033,218.99813570801047,218.99813570801047,220.28726991600703,g,0.0,1.285719291990972,,,,,,sub-072,1,stroop_test,,
,,,,38.0,2.0,3.0,,,,,,,,,,,,,rot,red,r,1.0,r,1.0,0.3966069999878527,,,,,,,,,,3.0,2.0,38.0,1.0,220.29818545799932,,,,,,,,,,,,,,,,,220.2879670830007,221.4858864160051,222.28219650000392,222.2698828749999,,,,,,,,,,,,,,,,,,,,,,,,,,,,,,,,,,,222.27507237500689,222.28219650000392,222.28219650000392,222.68760383300832,r,1.0,0.3966069999878527,,,,,,sub-072,1,stroop_test,,
,,,,39.0,3.0,3.0,,,,,,,,,,,,,rot,yellow,g,0.0,g,1.0,0.8929665000032401,,,,,,,,,,3.0,3.0,39.0,3.0,222.6993251660024,,,,,,,,,,,,,,,,,222.68876975000603,223.03596662500055,223.8268390410085,223.8195562910114,,,,,,,,,,,,,,,,,,,,,,,,,,,,,,,,,,,223.82029950000287,223.8268390410085,223.8268390410085,224.72668891600915,g,1.0,0.8929665000032401,,,,,,sub-072,1,stroop_test,,
,,,,40.0,4.0,3.0,,,,,,,,,,,,,gelb,yellow,g,1.0,g,1.0,1.1467715839971788,,,,,,,,,,3.0,4.0,40.0,11.0,224.7379915830097,,,,,,,,,,,,,,,,,224.7271873330028,225.92560345800305,226.71895416600452,226.70886425000208,,,,,,,,,,,,,,,,,,,,,,,,,,,,,,,,,,,226.7124448329996,226.71895416600452,226.71895416600452,227.87121991600725,g,1.0,1.1467715839971788,,,,,,sub-072,1,stroop_test,,
,,,,41.0,5.0,3.0,,,,,,,,,,,,,blau,red,r,0.0,r,1.0,0.7202734160091495,,,,,,,,,,3.0,5.0,41.0,4.0,227.88263908300723,,,,,,,,,,,,,,,,,227.87221620800847,228.2193575410056,229.01537550000648,229.00324345800615,,,,,,,,,,,,,,,,,,,,,,,,,,,,,,,,,,,229.0084951250028,229.01537550000648,229.01537550000648,229.73720295800013,r,1.0,0.7202734160091495,,,,,,sub-072,1,stroop_test,,
,,,,42.0,6.0,3.0,,,,,,,,,,,,,gelb,blue,b,0.0,b,1.0,0.583817666003597,,,,,,,,,,3.0,6.0,42.0,9.0,229.7427809159999,,,,,,,,,,,,,,,,,229.73787908301165,230.08615033300885,230.88294841600876,230.86981858299987,,,,,,,,,,,,,,,,,,,,,,,,,,,,,,,,,,,230.8760853749991,230.88294841600876,230.88294841600876,231.47123400001144,b,1.0,0.583817666003597,,,,,,sub-072,1,stroop_test,,
,,,,43.0,7.0,3.0,,,,,,,,,,,,,blau,blue,b,1.0,b,1.0,0.4685339169955114,,,,,,,,,,3.0,7.0,43.0,6.0,231.482749666,,,,,,,,,,,,,,,,,231.47226008299916,232.26938929100288,233.06608058299756,233.05273662500255,,,,,,,,,,,,,,,,,,,,,,,,,,,,,,,,,,,233.05872670799727,233.06608058299756,233.06608058299756,233.53774820800757,b,1.0,0.4685339169955114,,,,,,sub-072,1,stroop_test,,
,,,,44.0,8.0,3.0,,,,,,,,,,,,,rot,red,r,1.0,g,0.0,0.5447454999957699,,,,,,,,,,3.0,8.0,44.0,0.0,233.54942412499804,,,,,,,,,,,,,,,,,233.53875583301124,234.3360430830071,235.13183670800936,235.1198889579973,,,,,,,,,,,,,,,,,,,,,,,,,,,,,,,,,,,235.12465758300092,235.13183670800936,235.13183670800936,235.68819191600775,g,0.0,0.5447454999957699,,,,,,sub-072,1,stroop_test,,
,,,,45.0,9.0,3.0,,,,,,,,,,,,,blau,yellow,g,0.0,g,1.0,1.4412992080033291,,,,,,,,,,3.0,9.0,45.0,7.0,235.69960579100007,,,,,,,,,,,,,,,,,235.6893432080105,236.4859209999995,237.2815269999992,237.2698364579992,,,,,,,,,,,,,,,,,,,,,,,,,,,,,,,,,,,237.2746245000017,237.2815269999992,237.2815269999992,238.72669454100836,g,1.0,1.4412992080033291,,,,,,sub-072,1,stroop_test,,
,,,,46.0,10.0,3.0,,,,,,,,,,,,,gelb,yellow,g,1.0,g,1.0,0.4281940829969244,,,,,,,,,,3.0,10.0,46.0,10.0,238.7380042500008,,,,,,,,,,,,,,,,,238.72717887500767,239.0751527500106,239.86825004100683,239.85810645800663,,,,,,,,,,,,,,,,,,,,,,,,,,,,,,,,,,,239.86163512500931,239.86825004100683,239.86825004100683,240.30450645800735,g,1.0,0.4281940829969244,,,,,,sub-072,1,stroop_test,,
,,,,47.0,11.0,3.0,,,,,,,,,,,,,rot,blue,b,0.0,b,1.0,1.9736314580077303,,,,,,,,,,3.0,11.0,47.0,2.0,240.31597716599936,,,,,,,,,,,,,,,,,240.3056164580048,241.50263695800092,242.29778316601005,242.28634091600543,,,,,,,,,,,,,,,,,,,,,,,,,,,,,,,,,,,242.2908690410113,242.29778316601005,242.29778316601005,244.2764447500085,b,1.0,1.9736314580077303,,,,,,sub-072,1,stroop_test,,
,,,,48.0,0.0,4.0,,,,,,,,,,,,,rot,red,r,1.0,r,1.0,0.3314988749916665,,,,,,,,,,4.0,0.0,48.0,0.0,244.28791612500208,,,,,,,,,,,,,,,,,244.27693100000036,245.47444370800804,246.26783345799777,246.25905608299945,,,,,,,,,,,,,,,,,,,,,,,,,,,,,,,,,,,246.2596792080003,246.26783345799777,246.26783345799777,246.60455150000053,r,1.0,0.3314988749916665,,,,,,sub-072,1,stroop_test,,
,,,,49.0,1.0,4.0,,,,,,,,,,,,,gelb,blue,b,0.0,b,1.0,1.0569421249965671,,,,,,,,,,4.0,1.0,49.0,9.0,246.61609091600985,,,,,,,,,,,,,,,,,246.60554937500277,246.7026291660004,247.4983630000061,247.4865885410109,,,,,,,,,,,,,,,,,,,,,,,,,,,,,,,,,,,247.4917107080109,247.4983630000061,247.4983630000061,248.55997029101127,b,1.0,1.0569421249965671,,,,,,sub-072,1,stroop_test,,
,,,,50.0,2.0,4.0,,,,,,,,,,,,,blau,red,r,0.0,r,1.0,0.6028656249982305,,,,,,,,,,4.0,2.0,50.0,4.0,248.57111804099983,,,,,,,,,,,,,,,,,248.5604864580091,248.9080309580022,249.7044340410066,249.6915386250039,,,,,,,,,,,,,,,,,,,,,,,,,,,,,,,,,,,249.69757616599964,249.7044340410066,249.7044340410066,250.3096680000017,r,1.0,0.6028656249982305,,,,,,sub-072,1,stroop_test,,
,,,,51.0,3.0,4.0,,,,,,,,,,,,,blau,yellow,g,0.0,g,1.0,0.7536744170065504,,,,,,,,,,4.0,3.0,51.0,7.0,250.32144120799785,,,,,,,,,,,,,,,,,250.3103076660045,251.5090352499974,252.30260283300595,252.2920758750115,,,,,,,,,,,,,,,,,,,,,,,,,,,,,,,,,,,252.29267500000424,252.30260283300595,252.30260283300595,253.05940812500197,g,1.0,0.7536744170065504,,,,,,sub-072,1,stroop_test,,
,,,,52.0,4.0,4.0,,,,,,,,,,,,,blau,blue,b,1.0,b,1.0,2.7251232910057297,,,,,,,,,,4.0,4.0,52.0,6.0,253.07147137500576,,,,,,,,,,,,,,,,,253.05990029100207,254.25883500000052,255.05109062499832,255.0422900830017,,,,,,,,,,,,,,,,,,,,,,,,,,,,,,,,,,,255.04303520800025,255.05109062499832,255.05109062499832,257.78803541600064,b,1.0,2.7251232910057297,,,,,,sub-072,1,stroop_test,,
,,,,53.0,5.0,4.0,,,,,,,,,,,,,blau,blue,b,1.0,b,1.0,0.5272784580010921,,,,,,,,,,4.0,5.0,53.0,5.0,257.7990790410113,,,,,,,,,,,,,,,,,257.78883900000073,258.58611666600336,259.3778911249974,259.3698122909991,,,,,,,,,,,,,,,,,,,,,,,,,,,,,,,,,,,259.37077270800364,259.3778911249974,259.3778911249974,259.9095557910041,b,1.0,0.5272784580010921,,,,,,sub-072,1,stroop_test,,
,,,,54.0,6.0,4.0,,,,,,,,,,,,,gelb,red,r,0.0,r,1.0,0.6308670830039773,,,,,,,,,,4.0,6.0,54.0,8.0,259.92107841600955,,,,,,,,,,,,,,,,,259.91005950000545,260.2569345000084,261.05211608301033,261.0420307500026,,,,,,,,,,,,,,,,,,,,,,,,,,,,,,,,,,,261.04554529101006,261.05211608301033,261.05211608301033,261.68762475000403,r,1.0,0.6308670830039773,,,,,,sub-072,1,stroop_test,,
,,,,55.0,7.0,4.0,,,,,,,,,,,,,rot,blue,b,0.0,b,1.0,0.5909300829953281,,,,,,,,,,4.0,7.0,55.0,2.0,261.6987376250036,,,,,,,,,,,,,,,,,261.6884926250059,262.4861716250016,263.2820192910003,263.2698733330035,,,,,,,,,,,,,,,,,,,,,,,,,,,,,,,,,,,263.2748590830015,263.2820192910003,263.2820192910003,263.8753801660059,b,1.0,0.5909300829953281,,,,,,sub-072,1,stroop_test,,
,,,,56.0,8.0,4.0,,,,,,,,,,,,,gelb,yellow,g,1.0,g,1.0,1.0888570840033935,,,,,,,,,,4.0,8.0,56.0,11.0,263.9026571249997,,,,,,,,,,,,,,,,,263.87586533300055,265.0756462499994,265.8689821660082,265.85894070799986,,,,,,,,,,,,,,,,,,,,,,,,,,,,,,,,,,,265.8624743750115,265.8689821660082,265.8689821660082,266.95990300000994,g,1.0,1.0888570840033935,,,,,,sub-072,1,stroop_test,,
,,,,57.0,9.0,4.0,,,,,,,,,,,,,rot,red,r,1.0,r,1.0,0.6567230829969049,,,,,,,,,,4.0,9.0,57.0,1.0,266.97133120799845,,,,,,,,,,,,,,,,,266.96050900001137,267.7585128330102,268.56912254099734,268.5422400410025,,,,,,,,,,,,,,,,,,,,,,,,,,,,,,,,,,,268.54578441599733,268.56912254099734,268.56912254099734,269.23726741599967,r,1.0,0.6567230829969049,,,,,,sub-072,1,stroop_test,,
,,,,58.0,10.0,4.0,,,,,,,,,,,,,gelb,yellow,g,1.0,g,1.0,1.6882327920029638,,,,,,,,,,4.0,10.0,58.0,10.0,269.24808674999804,,,,,,,,,,,,,,,,,269.23778554100136,270.4361011660076,271.2314342910104,271.2194999580097,,,,,,,,,,,,,,,,,,,,,,,,,,,,,,,,,,,271.22459533299843,271.2314342910104,271.2314342910104,272.92655341600766,g,1.0,1.6882327920029638,,,,,,sub-072,1,stroop_test,,
,,,,59.0,11.0,4.0,,,,,,,,,,,,,rot,yellow,g,0.0,g,1.0,0.7246140420029406,,,,,,,,,,4.0,11.0,59.0,3.0,272.93784558300104,,,,,,,,,,,,,,,,,272.9271597080078,273.27491225000995,274.07110445800936,274.058899791009,,,,,,,,,,,,,,,,,,,,,,,,,,,,,,,,,,,274.06350341600773,274.07110445800936,274.07110445800936,274.80389650000143,g,1.0,0.7246140420029406,,,,,,sub-072,1,stroop_test,,
,,,,60.0,0.0,5.0,,,,,,,,,,,,,blau,red,r,0.0,r,1.0,0.7496505830058595,,,,,,,,,,5.0,0.0,60.0,4.0,274.8144493330037,,,,,,,,,,,,,,,,,274.8043946250109,276.00249462500506,276.7979786250071,276.78605229100503,,,,,,,,,,,,,,,,,,,,,,,,,,,,,,,,,,,276.7911978330085,276.7979786250071,276.7979786250071,277.554552540998,r,1.0,0.7496505830058595,,,,,,sub-072,1,stroop_test,,
,,,,61.0,1.0,5.0,,,,,,,,,,,,,gelb,blue,b,0.0,b,1.0,0.6549530829943251,,,,,,,,,,5.0,1.0,61.0,9.0,277.5658077910048,,,,,,,,,,,,,,,,,277.5555004159978,277.6524239999999,278.44862591600395,278.4365643750061,,,,,,,,,,,,,,,,,,,,,,,,,,,,,,,,,,,278.4417981660081,278.44862591600395,278.44862591600395,279.11049033299787,b,1.0,0.6549530829943251,,,,,,sub-072,1,stroop_test,,
,,,,62.0,2.0,5.0,,,,,,,,,,,,,gelb,yellow,g,1.0,g,1.0,0.8220230410079239,,,,,,,,,,5.0,2.0,62.0,11.0,279.12157720800315,,,,,,,,,,,,,,,,,279.11096987500787,279.208895415999,280.0025460830075,279.9917358750099,,,,,,,,,,,,,,,,,,,,,,,,,,,,,,,,,,,279.9923410409974,280.0025460830075,280.0025460830075,280.83771725000406,g,1.0,0.8220230410079239,,,,,,sub-072,1,stroop_test,,
,,,,63.0,3.0,5.0,,,,,,,,,,,,,gelb,red,r,0.0,r,1.0,0.2973168749886099,,,,,,,,,,5.0,3.0,63.0,8.0,280.8490623750113,,,,,,,,,,,,,,,,,280.8385045000032,281.6357134160062,282.42725020799844,282.41973116601,,,,,,,,,,,,,,,,,,,,,,,,,,,,,,,,,,,282.42047204100527,282.42725020799844,282.42725020799844,282.7259044579987,r,1.0,0.2973168749886099,,,,,,sub-072,1,stroop_test,,
,,,,64.0,4.0,5.0,,,,,,,,,,,,,rot,red,r,1.0,r,1.0,0.3646679579978809,,,,,,,,,,5.0,4.0,64.0,0.0,282.7361166250048,,,,,,,,,,,,,,,,,282.7264854160021,283.0750560000015,283.8709343329974,283.8586749160022,,,,,,,,,,,,,,,,,,,,,,,,,,,,,,,,,,,283.86295224999776,283.8709343329974,283.8709343329974,284.2375920000049,r,1.0,0.3646679579978809,,,,,,sub-072,1,stroop_test,,
,,,,65.0,5.0,5.0,,,,,,,,,,,,,blau,blue,b,1.0,b,1.0,1.395656833003159,,,,,,,,,,5.0,5.0,65.0,5.0,284.24354554100137,,,,,,,,,,,,,,,,,284.2385603750008,284.33610825000505,285.1307950409973,285.1194013330096,,,,,,,,,,,,,,,,,,,,,,,,,,,,,,,,,,,285.12408916599816,285.1307950409973,285.1307950409973,286.5381231659994,b,1.0,1.395656833003159,,,,,,sub-072,1,stroop_test,,
,,,,66.0,6.0,5.0,,,,,,,,,,,,,rot,blue,b,0.0,b,1.0,0.7025114169955486,,,,,,,,,,5.0,6.0,66.0,2.0,286.5496315000055,,,,,,,,,,,,,,,,,286.5392166660022,286.63616912500584,287.4309651250078,287.41955291600607,,,,,,,,,,,,,,,,,,,,,,,,,,,,,,,,,,,287.4240620000055,287.4309651250078,287.4309651250078,288.13737829100864,b,1.0,0.7025114169955486,,,,,,sub-072,1,stroop_test,,
,,,,67.0,7.0,5.0,,,,,,,,,,,,,rot,yellow,g,0.0,r,0.0,0.45912433299236,,,,,,,,,,5.0,7.0,67.0,3.0,288.1481872500008,,,,,,,,,,,,,,,,,288.1380456660117,288.48591929100803,289.2784023330023,289.26993537500675,,,,,,,,,,,,,,,,,,,,,,,,,,,,,,,,,,,289.2709328750061,289.2784023330023,289.2784023330023,289.74312695799745,r,0.0,0.45912433299236,,,,,,sub-072,1,stroop_test,,
,,,,68.0,8.0,5.0,,,,,,,,,,,,,rot,red,r,1.0,r,1.0,0.2494330410117982,,,,,,,,,,5.0,8.0,68.0,1.0,289.75434137501,,,,,,,,,,,,,,,,,289.7436217080103,290.542258750007,291.334957708008,291.32577466600924,,,,,,,,,,,,,,,,,,,,,,,,,,,,,,,,,,,291.32637104101013,291.334957708008,291.334957708008,291.5876299160009,r,1.0,0.2494330410117982,,,,,,sub-072,1,stroop_test,,
,,,,69.0,9.0,5.0,,,,,,,,,,,,,gelb,yellow,g,1.0,g,1.0,0.5272030829946743,,,,,,,,,,5.0,9.0,69.0,10.0,291.59929399999965,,,,,,,,,,,,,,,,,291.5886068330001,291.6857661660033,292.4831311660091,292.46947408300184,,,,,,,,,,,,,,,,,,,,,,,,,,,,,,,,,,,292.47627995800576,292.4831311660091,292.4831311660091,293.0222124580032,g,1.0,0.5272030829946743,,,,,,sub-072,1,stroop_test,,
,,,,70.0,10.0,5.0,,,,,,,,,,,,,blau,blue,b,1.0,b,1.0,0.595958249992691,,,,,,,,,,5.0,10.0,70.0,6.0,293.03357066601166,,,,,,,,,,,,,,,,,293.0232588330109,293.81912229101,294.6143723330024,294.60282949999964,,,,,,,,,,,,,,,,,,,,,,,,,,,,,,,,,,,294.6074397909979,294.6143723330024,294.6143723330024,295.2212255409977,b,1.0,0.595958249992691,,,,,,sub-072,1,stroop_test,,
,,,,71.0,11.0,5.0,,,,,,,,,,,,,blau,yellow,g,0.0,g,1.0,1.1907805829978315,,,,,,,,,,5.0,11.0,71.0,7.0,295.2326313329977,,,,,,,,,,,,,,,,,295.2223635410046,296.0195164580073,296.8105055830092,296.8028768750082,,,,,,,,,,,,,,,,,,,,,,,,,,,,,,,,,,,296.80389479100995,296.8105055830092,296.8105055830092,298.00417054101126,g,1.0,1.1907805829978315,,,,,,sub-072,1,stroop_test,,
,,,,72.0,0.0,6.0,,,,,,,,,,,,,rot,red,r,1.0,r,1.0,0.5223603749909671,,,,,,,,,,6.0,0.0,72.0,1.0,298.01547595800366,,,,,,,,,,,,,,,,,298.00513525000133,298.8026968750055,299.5988206660113,299.5865890830028,,,,,,,,,,,,,,,,,,,,,,,,,,,,,,,,,,,299.59180791600375,299.5988206660113,299.5988206660113,300.1269938330079,r,1.0,0.5223603749909671,,,,,,sub-072,1,stroop_test,,
,,,,73.0,1.0,6.0,,,,,,,,,,,,,gelb,red,r,0.0,r,1.0,0.3057781249954132,,,,,,,,,,6.0,1.0,73.0,8.0,300.1378324160032,,,,,,,,,,,,,,,,,300.12751320800453,300.4750540829991,301.2710509580065,301.25912050000625,,,,,,,,,,,,,,,,,,,,,,,,,,,,,,,,,,,301.2634637910087,301.2710509580065,301.2710509580065,301.58818054100266,r,1.0,0.3057781249954132,,,,,,sub-072,1,stroop_test,,
,,,,74.0,2.0,6.0,,,,,,,,,,,,,gelb,blue,b,0.0,b,1.0,0.7928065410087584,,,,,,,,,,6.0,2.0,74.0,9.0,301.59966616600286,,,,,,,,,,,,,,,,,301.58927233300346,302.78604170800827,303.577357208007,303.56944808299886,,,,,,,,,,,,,,,,,,,,,,,,,,,,,,,,,,,303.57046662500943,303.577357208007,303.577357208007,304.3761585410102,b,1.0,0.7928065410087584,,,,,,sub-072,1,stroop_test,,
,,,,75.0,3.0,6.0,,,,,,,,,,,,,gelb,yellow,g,1.0,g,1.0,0.9799324580089888,,,,,,,,,,6.0,3.0,75.0,11.0,304.38770062501135,,,,,,,,,,,,,,,,,304.3766526660038,304.7249212500028,305.5181136660103,305.50907541600463,,,,,,,,,,,,,,,,,,,,,,,,,,,,,,,,,,,305.50967795800534,305.5181136660103,305.5181136660103,306.50446162500884,g,1.0,0.9799324580089888,,,,,,sub-072,1,stroop_test,,
,,,,76.0,4.0,6.0,,,,,,,,,,,,,rot,yellow,g,0.0,g,1.0,1.198678959000972,,,,,,,,,,6.0,4.0,76.0,3.0,306.5155627500062,,,,,,,,,,,,,,,,,306.50544029100274,307.7029205410072,308.4983991659974,308.4861554579984,,,,,,,,,,,,,,,,,,,,,,,,,,,,,,,,,,,308.49118937501044,308.4983991659974,308.4983991659974,309.7041096250032,g,1.0,1.198678959000972,,,,,,sub-072,1,stroop_test,,
,,,,77.0,5.0,6.0,,,,,,,,,,,,,blau,blue,b,1.0,b,1.0,0.5393868750106776,,,,,,,,,,6.0,5.0,77.0,5.0,309.71570645800966,,,,,,,,,,,,,,,,,309.70518441600143,309.8023457910021,310.5985662910098,310.58646283300186,,,,,,,,,,,,,,,,,,,,,,,,,,,,,,,,,,,310.5916897910065,310.5985662910098,310.5985662910098,311.14269816600427,b,1.0,0.5393868750106776,,,,,,sub-072,1,stroop_test,,
,,,,78.0,6.0,6.0,,,,,,,,,,,,,blau,blue,b,1.0,b,1.0,0.461736249999376,,,,,,,,,,6.0,6.0,78.0,6.0,311.154573125008,,,,,,,,,,,,,,,,,311.1433158750005,312.3425543750054,313.1431247080036,313.13619641600235,,,,,,,,,,,,,,,,,,,,,,,,,,,,,,,,,,,313.13681604100566,313.1431247080036,313.1431247080036,313.6098385000077,b,1.0,0.461736249999376,,,,,,sub-072,1,stroop_test,,
,,,,79.0,7.0,6.0,,,,,,,,,,,,,blau,red,r,0.0,b,0.0,0.796186834006221,,,,,,,,,,6.0,7.0,79.0,4.0,313.6216631660064,,,,,,,,,,,,,,,,,313.61034587500035,313.70255670799816,314.4936352910008,314.48612441599835,,,,,,,,,,,,,,,,,,,,,,,,,,,,,,,,,,,314.4871473329986,314.4936352910008,314.4936352910008,315.2931286660023,b,0.0,0.796186834006221,,,,,,sub-072,1,stroop_test,,
,,,,80.0,8.0,6.0,,,,,,,,,,,,,rot,red,r,1.0,r,1.0,0.311212250002427,,,,,,,,,,6.0,8.0,80.0,0.0,315.30459908299963,,,,,,,,,,,,,,,,,315.2936357080034,316.4915779160074,317.2876308749983,317.2746830410033,,,,,,,,,,,,,,,,,,,,,,,,,,,,,,,,,,,317.2797442500014,317.2876308749983,317.2876308749983,317.60463412500394,r,1.0,0.311212250002427,,,,,,sub-072,1,stroop_test,,
,,,,81.0,9.0,6.0,,,,,,,,,,,,,rot,blue,b,0.0,b,1.0,0.5406496249925112,,,,,,,,,,6.0,9.0,81.0,2.0,317.61572145800164,,,,,,,,,,,,,,,,,317.60536791601044,317.95260450000933,318.74417120800354,318.7362892910023,,,,,,,,,,,,,,,,,,,,,,,,,,,,,,,,,,,318.7372851250111,318.74417120800354,318.74417120800354,319.28746137500275,b,1.0,0.5406496249925112,,,,,,sub-072,1,stroop_test,,
,,,,82.0,10.0,6.0,,,,,,,,,,,,,gelb,yellow,g,1.0,g,1.0,0.2877504999923985,,,,,,,,,,6.0,10.0,82.0,10.0,319.29874233300507,,,,,,,,,,,,,,,,,319.28848287501023,320.085616041004,320.8819139580009,320.8699219160044,,,,,,,,,,,,,,,,,,,,,,,,,,,,,,,,,,,320.87502908300667,320.8819139580009,320.8819139580009,321.1764513329981,g,1.0,0.2877504999923985,,,,,,sub-072,1,stroop_test,,
,,,,83.0,11.0,6.0,,,,,,,,,,,,,blau,yellow,g,0.0,g,1.0,0.3708501660003094,,,,,,,,,,6.0,11.0,83.0,7.0,321.18789458301035,,,,,,,,,,,,,,,,,321.1771239160007,322.3759459580033,323.1858590000047,323.1585832910059,,,,,,,,,,,,,,,,,,,,,,,,,,,,,,,,,,,323.16277762500977,323.1858590000047,323.1858590000047,323.55999045800127,g,1.0,0.3708501660003094,,,,,,sub-072,1,stroop_test,,
,,,,84.0,0.0,7.0,,,,,,,,,,,,,gelb,yellow,g,1.0,g,1.0,0.3315363330038963,,,,,,,,,,7.0,0.0,84.0,10.0,323.5711877499998,,,,,,,,,,,,,,,,,323.5604839160078,323.90903491601057,324.71916504100955,324.69252162500925,,,,,,,,,,,,,,,,,,,,,,,,,,,,,,,,,,,324.6961358330009,324.71916504100955,324.71916504100955,325.0542187910032,g,1.0,0.3315363330038963,,,,,,sub-072,1,stroop_test,,
,,,,85.0,1.0,7.0,,,,,,,,,,,,,gelb,red,r,0.0,r,1.0,0.7134250829985831,,,,,,,,,,7.0,1.0,85.0,8.0,325.06563312500657,,,,,,,,,,,,,,,,,325.0552393329999,325.15237820800394,325.9442763749976,325.9366613750026,,,,,,,,,,,,,,,,,,,,,,,,,,,,,,,,,,,325.9376582080004,325.9442763749976,325.9442763749976,326.6600418750022,r,1.0,0.7134250829985831,,,,,,sub-072,1,stroop_test,,
,,,,86.0,2.0,7.0,,,,,,,,,,,,,gelb,blue,b,0.0,b,1.0,0.6276795000012498,,,,,,,,,,7.0,2.0,86.0,9.0,326.67141745799745,,,,,,,,,,,,,,,,,326.6606409160013,327.00897462500143,327.801625291002,327.7924357910088,,,,,,,,,,,,,,,,,,,,,,,,,,,,,,,,,,,327.7930704580067,327.801625291002,327.801625291002,328.4381867500051,b,1.0,0.6276795000012498,,,,,,sub-072,1,stroop_test,,
,,,,87.0,3.0,7.0,,,,,,,,,,,,,blau,blue,b,1.0,b,1.0,0.4732163329899777,,,,,,,,,,7.0,3.0,87.0,6.0,328.44961029100523,,,,,,,,,,,,,,,,,328.4393494160031,328.53444812500675,329.33139133300574,329.3193616659992,,,,,,,,,,,,,,,,,,,,,,,,,,,,,,,,,,,329.32455937500345,329.33139133300574,329.33139133300574,329.80978437500016,b,1.0,0.4732163329899777,,,,,,sub-072,1,stroop_test,,
,,,,88.0,4.0,7.0,,,,,,,,,,,,,gelb,yellow,g,1.0,r,0.0,0.5384414580039447,,,,,,,,,,7.0,4.0,88.0,11.0,329.8210267079994,,,,,,,,,,,,,,,,,329.81026954100525,330.15898987500987,330.965207375004,330.95315016600944,,,,,,,,,,,,,,,,,,,,,,,,,,,,,,,,,,,330.958378041003,330.965207375004,330.965207375004,331.50980058300775,r,0.0,0.5384414580039447,,,,,,sub-072,1,stroop_test,,
,,,,89.0,5.0,7.0,,,,,,,,,,,,,blau,yellow,g,0.0,g,1.0,1.0560215409932423,,,,,,,,,,7.0,5.0,89.0,7.0,331.5210895000055,,,,,,,,,,,,,,,,,331.5102926660038,332.7090164580004,333.50446541600104,333.4918929160049,,,,,,,,,,,,,,,,,,,,,,,,,,,,,,,,,,,333.4975777910004,333.50446541600104,333.50446541600104,334.5708939160104,g,1.0,1.0560215409932423,,,,,,sub-072,1,stroop_test,,
,,,,90.0,6.0,7.0,,,,,,,,,,,,,rot,red,r,1.0,r,1.0,0.5680027500056894,,,,,,,,,,7.0,6.0,90.0,1.0,334.58220645799884,,,,,,,,,,,,,,,,,334.5718187500024,335.7689210410026,336.56541333301,336.55333025001164,,,,,,,,,,,,,,,,,,,,,,,,,,,,,,,,,,,336.5583547499991,336.56541333301,336.56541333301,337.13738683299744,r,1.0,0.5680027500056894,,,,,,sub-072,1,stroop_test,,
,,,,91.0,7.0,7.0,,,,,,,,,,,,,blau,red,r,0.0,r,1.0,0.4998389999964274,,,,,,,,,,7.0,7.0,91.0,4.0,337.1484332500113,,,,,,,,,,,,,,,,,337.1380924580008,337.2361766660033,338.031577791,338.01950450000004,,,,,,,,,,,,,,,,,,,,,,,,,,,,,,,,,,,338.02468816599867,338.031577791,338.031577791,338.5375400409976,r,1.0,0.4998389999964274,,,,,,sub-072,1,stroop_test,,
,,,,92.0,8.0,7.0,,,,,,,,,,,,,rot,blue,b,0.0,b,1.0,0.8452691249985946,,,,,,,,,,7.0,8.0,92.0,2.0,338.5485258330009,,,,,,,,,,,,,,,,,338.53816891599854,339.73599487500906,340.5312348330044,340.5196601659991,,,,,,,,,,,,,,,,,,,,,,,,,,,,,,,,,,,340.52408241599915,340.5312348330044,340.5312348330044,341.38808545800566,b,1.0,0.8452691249985946,,,,,,sub-072,1,stroop_test,,
,,,,93.0,9.0,7.0,,,,,,,,,,,,,rot,red,r,1.0,r,1.0,0.4351326659962069,,,,,,,,,,7.0,9.0,93.0,0.0,341.39939841600426,,,,,,,,,,,,,,,,,341.3891339999973,341.4859678330104,342.2772549580113,342.2697279580025,,,,,,,,,,,,,,,,,,,,,,,,,,,,,,,,,,,342.27048350000405,342.2772549580113,342.2772549580113,342.7208495829982,r,1.0,0.4351326659962069,,,,,,sub-072,1,stroop_test,,
,,,,94.0,10.0,7.0,,,,,,,,,,,,,rot,yellow,g,0.0,g,1.0,0.6126220830046805,,,,,,,,,,7.0,10.0,94.0,3.0,342.73146337500657,,,,,,,,,,,,,,,,,342.72144387500884,343.5191598329984,344.31069983300404,344.302788416011,,,,,,,,,,,,,,,,,,,,,,,,,,,,,,,,,,,344.3037897500035,344.31069983300404,344.31069983300404,344.9267545000039,g,1.0,0.6126220830046805,,,,,,sub-072,1,stroop_test,,
,,,,95.0,11.0,7.0,,,,,,,,,,,,,blau,blue,b,1.0,b,1.0,0.8764015829947311,,,,,,,,,,7.0,11.0,95.0,5.0,344.93804333300795,,,,,,,,,,,,,,,,,344.9273775410111,345.0256031250028,345.81884587500826,345.8085223329981,,,,,,,,,,,,,,,,,,,,,,,,,,,,,,,,,,,345.81237025000155,345.81884587500826,345.81884587500826,346.7042511250038,b,1.0,0.8764015829947311,,,,,,sub-072,1,stroop_test,,
,,,,96.0,0.0,8.0,,,,,,,,,,,,,gelb,red,r,0.0,r,1.0,0.8249964999995427,,,,,,,,,,8.0,0.0,96.0,8.0,346.7151341249992,,,,,,,,,,,,,,,,,346.7049429160106,346.80257258300844,347.59822754100605,347.5861395829997,,,,,,,,,,,,,,,,,,,,,,,,,,,,,,,,,,,347.591452875,347.59822754100605,347.59822754100605,348.4263136660011,r,1.0,0.8249964999995427,,,,,,sub-072,1,stroop_test,,
,,,,97.0,1.0,8.0,,,,,,,,,,,,,blau,blue,b,1.0,b,1.0,0.5829037499934202,,,,,,,,,,8.0,1.0,97.0,5.0,348.437863500003,,,,,,,,,,,,,,,,,348.4268244999985,349.624814625,350.4212597500009,350.4087545830116,,,,,,,,,,,,,,,,,,,,,,,,,,,,,,,,,,,350.4138884580025,350.4212597500009,350.4212597500009,351.0101790410117,b,1.0,0.5829037499934202,,,,,,sub-072,1,stroop_test,,
,,,,98.0,2.0,8.0,,,,,,,,,,,,,gelb,yellow,g,1.0,g,1.0,0.8780700000061188,,,,,,,,,,8.0,2.0,98.0,11.0,351.02098108299833,,,,,,,,,,,,,,,,,351.01078458300617,351.35857000001124,352.1520434999984,352.1419902500056,,,,,,,,,,,,,,,,,,,,,,,,,,,,,,,,,,,352.14550725001027,352.1520434999984,352.1520434999984,353.03793904100894,g,1.0,0.8780700000061188,,,,,,sub-072,1,stroop_test,,
,,,,99.0,3.0,8.0,,,,,,,,,,,,,blau,blue,b,1.0,b,1.0,1.4728733750089305,,,,,,,,,,8.0,3.0,99.0,6.0,353.04949287499767,,,,,,,,,,,,,,,,,353.0386080830067,354.2361515410012,355.03126129100565,355.01976866601035,,,,,,,,,,,,,,,,,,,,,,,,,,,,,,,,,,,355.0245538750023,355.03126129100565,355.03126129100565,356.5098156250024,b,1.0,1.4728733750089305,,,,,,sub-072,1,stroop_test,,
,,,,100.0,4.0,8.0,,,,,,,,,,,,,blau,red,r,0.0,r,1.0,0.6274437079991912,,,,,,,,,,8.0,4.0,100.0,4.0,356.5208239580097,,,,,,,,,,,,,,,,,356.510316541011,356.8581032910006,357.65259545799927,357.64206216600724,,,,,,,,,,,,,,,,,,,,,,,,,,,,,,,,,,,357.6426670830115,357.65259545799927,357.65259545799927,358.2874553750007,r,1.0,0.6274437079991912,,,,,,sub-072,1,stroop_test,,
,,,,101.0,5.0,8.0,,,,,,,,,,,,,blau,yellow,g,0.0,g,1.0,1.28671137499623,,,,,,,,,,8.0,5.0,101.0,7.0,358.2983158749994,,,,,,,,,,,,,,,,,358.2881140410027,358.6360994160059,359.4272211250063,359.41972595801053,,,,,,,,,,,,,,,,,,,,,,,,,,,,,,,,,,,359.42069304100005,359.4272211250063,359.4272211250063,360.7210919159989,g,1.0,1.28671137499623,,,,,,sub-072,1,stroop_test,,
,,,,102.0,6.0,8.0,,,,,,,,,,,,,gelb,yellow,g,1.0,g,1.0,0.4926978330040583,,,,,,,,,,8.0,6.0,102.0,10.0,360.7325147079973,,,,,,,,,,,,,,,,,360.7220661660104,361.5194922500086,362.3151575000084,362.303098000004,,,,,,,,,,,,,,,,,,,,,,,,,,,,,,,,,,,362.3083693330118,362.3151575000084,362.3151575000084,362.8208205410047,g,1.0,0.4926978330040583,,,,,,sub-072,1,stroop_test,,
,,,,103.0,7.0,8.0,,,,,,,,,,,,,gelb,blue,b,0.0,b,1.0,0.6828403749968857,,,,,,,,,,8.0,7.0,103.0,9.0,362.832128250011,,,,,,,,,,,,,,,,,362.8215412499994,362.9193474159984,363.7109907080012,363.7032532500016,,,,,,,,,,,,,,,,,,,,,,,,,,,,,,,,,,,363.7042140410049,363.7109907080012,363.7109907080012,364.40457929100376,b,1.0,0.6828403749968857,,,,,,sub-072,1,stroop_test,,
,,,,104.0,8.0,8.0,,,,,,,,,,,,,rot,red,r,1.0,r,1.0,0.4532748339988757,,,,,,,,,,8.0,8.0,104.0,0.0,364.4154845000012,,,,,,,,,,,,,,,,,364.4052573329973,364.5027590829996,365.2986331660068,365.28655633299786,,,,,,,,,,,,,,,,,,,,,,,,,,,,,,,,,,,365.2917277910019,365.2986331660068,365.2986331660068,365.75440000000526,r,1.0,0.4532748339988757,,,,,,sub-072,1,stroop_test,,
,,,,105.0,9.0,8.0,,,,,,,,,,,,,rot,yellow,g,0.0,g,1.0,0.8690459589997772,,,,,,,,,,8.0,9.0,105.0,3.0,365.7603255830036,,,,,,,,,,,,,,,,,365.755385166005,366.9528081250028,367.7447172500106,367.7364985000022,,,,,,,,,,,,,,,,,,,,,,,,,,,,,,,,,,,367.73748587501177,367.7447172500106,367.7447172500106,368.6207581659983,g,1.0,0.8690459589997772,,,,,,sub-072,1,stroop_test,,
,,,,106.0,10.0,8.0,,,,,,,,,,,,,rot,red,r,1.0,r,1.0,0.6805240420071641,,,,,,,,,,8.0,10.0,106.0,1.0,368.6318553750025,,,,,,,,,,,,,,,,,368.6214342910098,369.4195032080024,370.21128337499977,370.2031232080044,,,,,,,,,,,,,,,,,,,,,,,,,,,,,,,,,,,370.20413566600473,370.21128337499977,370.21128337499977,370.9046942080022,r,1.0,0.6805240420071641,,,,,,sub-072,1,stroop_test,,
,,,,107.0,11.0,8.0,,,,,,,,,,,,,rot,blue,b,0.0,b,1.0,0.7172879999998258,,,,,,,,,,8.0,11.0,107.0,2.0,370.9158653750055,,,,,,,,,,,,,,,,,370.9057380830054,371.2527594160056,372.0443830000004,372.036407874999,,,,,,,,,,,,,,,,,,,,,,,,,,,,,,,,,,,372.0373672910064,372.0443830000004,372.0443830000004,372.7709109580028,b,1.0,0.7172879999998258,,,,,,sub-072,1,stroop_test,,
,,,,108.0,0.0,9.0,,,,,,,,,,,,,rot,red,r,1.0,r,1.0,0.9440029580000556,,,,,,,,,,9.0,0.0,108.0,0.0,372.7815459580015,,,,,,,,,,,,,,,,,372.77141650000704,373.1195786250028,373.9115925410006,373.9032481660106,,,,,,,,,,,,,,,,,,,,,,,,,,,,,,,,,,,373.90424562500266,373.9115925410006,373.9115925410006,374.85828837500594,r,1.0,0.9440029580000556,,,,,,sub-072,1,stroop_test,,
,,,,109.0,1.0,9.0,,,,,,,,,,,,,blau,blue,b,1.0,b,1.0,1.637987250011065,,,,,,,,,,9.0,1.0,109.0,6.0,374.8680717910029,,,,,,,,,,,,,,,,,374.85877383300976,375.6589649579983,376.4548455410113,376.4425787910004,,,,,,,,,,,,,,,,,,,,,,,,,,,,,,,,,,,376.4474204160069,376.4548455410113,376.4548455410113,378.1047772080056,b,1.0,1.637987250011065,,,,,,sub-072,1,stroop_test,,
,,,,110.0,2.0,9.0,,,,,,,,,,,,,gelb,blue,b,0.0,b,1.0,0.966756791996886,,,,,,,,,,9.0,2.0,110.0,9.0,378.1164128750097,,,,,,,,,,,,,,,,,378.1057822080038,379.302976166,380.0986832909985,380.0866205830098,,,,,,,,,,,,,,,,,,,,,,,,,,,,,,,,,,,380.0912455000071,380.0986832909985,380.0986832909985,381.07123425000464,b,1.0,0.966756791996886,,,,,,sub-072,1,stroop_test,,
,,,,111.0,3.0,9.0,,,,,,,,,,,,,gelb,yellow,g,1.0,g,1.0,0.5430769169906853,,,,,,,,,,9.0,3.0,111.0,11.0,381.0831255829981,,,,,,,,,,,,,,,,,381.0717954580032,381.86931454100704,382.6614055829996,382.6534198330046,,,,,,,,,,,,,,,,,,,,,,,,,,,,,,,,,,,382.65423304100113,382.6614055829996,382.6614055829996,383.2089605830115,g,1.0,0.5430769169906853,,,,,,sub-072,1,stroop_test,,
,,,,112.0,4.0,9.0,,,,,,,,,,,,,blau,blue,b,1.0,b,1.0,0.5097357080085203,,,,,,,,,,9.0,4.0,112.0,5.0,383.2359813330113,,,,,,,,,,,,,,,,,383.2094557910023,383.5528092080058,384.34960079099983,384.3369754580053,,,,,,,,,,,,,,,,,,,,,,,,,,,,,,,,,,,384.342577583011,384.34960079099983,384.34960079099983,384.871388915999,b,1.0,0.5097357080085203,,,,,,sub-072,1,stroop_test,,
,,,,113.0,5.0,9.0,,,,,,,,,,,,,gelb,red,r,0.0,r,1.0,0.5837726249883417,,,,,,,,,,9.0,5.0,113.0,8.0,384.88296362500114,,,,,,,,,,,,,,,,,384.8724638749991,385.6692930410063,386.4656130830117,386.45318929100176,,,,,,,,,,,,,,,,,,,,,,,,,,,,,,,,,,,386.4585198749992,386.4656130830117,386.4656130830117,387.05474050001067,r,1.0,0.5837726249883417,,,,,,sub-072,1,stroop_test,,
,,,,114.0,6.0,9.0,,,,,,,,,,,,,gelb,yellow,g,1.0,b,0.0,1.013868750000256,,,,,,,,,,9.0,6.0,114.0,10.0,387.067140833009,,,,,,,,,,,,,,,,,387.0557566659991,387.1527069580043,387.94444241600286,387.9364156250085,,,,,,,,,,,,,,,,,,,,,,,,,,,,,,,,,,,387.9373992500041,387.94444241600286,387.94444241600286,388.95968937499856,b,0.0,1.013868750000256,,,,,,sub-072,1,stroop_test,,
,,,,115.0,7.0,9.0,,,,,,,,,,,,,rot,blue,b,0.0,b,1.0,0.720468792002066,,,,,,,,,,9.0,7.0,115.0,2.0,388.9689120830008,,,,,,,,,,,,,,,,,388.96032150000974,390.1588212080096,390.9648365830071,390.95302866600105,,,,,,,,,,,,,,,,,,,,,,,,,,,,,,,,,,,390.957553958011,390.9648365830071,390.9648365830071,391.6878557080054,b,1.0,0.720468792002066,,,,,,sub-072,1,stroop_test,,
,,,,116.0,8.0,9.0,,,,,,,,,,,,,blau,yellow,g,0.0,g,1.0,0.5839428750041407,,,,,,,,,,9.0,8.0,116.0,7.0,391.6993823329976,,,,,,,,,,,,,,,,,391.6889032910112,392.0360737910087,392.83213233300194,392.8198444580048,,,,,,,,,,,,,,,,,,,,,,,,,,,,,,,,,,,392.825027666011,392.83213233300194,392.83213233300194,393.4207208750013,g,1.0,0.5839428750041407,,,,,,sub-072,1,stroop_test,,
,,,,117.0,9.0,9.0,,,,,,,,,,,,,rot,red,r,1.0,r,1.0,0.4585650829976657,,,,,,,,,,9.0,9.0,117.0,1.0,393.4320455830021,,,,,,,,,,,,,,,,,393.4213969999983,394.2194802080048,395.017244415998,395.0031521250057,,,,,,,,,,,,,,,,,,,,,,,,,,,,,,,,,,,395.0100501660054,395.017244415998,395.017244415998,395.4882360830088,r,1.0,0.4585650829976657,,,,,,sub-072,1,stroop_test,,
,,,,118.0,10.0,9.0,,,,,,,,,,,,,rot,yellow,g,0.0,g,1.0,0.7496087920007994,,,,,,,,,,9.0,10.0,118.0,3.0,395.5003041660093,,,,,,,,,,,,,,,,,395.48940983301145,395.8362439159973,396.6275857500004,396.6198998750042,,,,,,,,,,,,,,,,,,,,,,,,,,,,,,,,,,,396.6209095829981,396.6275857500004,396.6275857500004,397.3880364159995,g,1.0,0.7496087920007994,,,,,,sub-072,1,stroop_test,,
,,,,119.0,11.0,9.0,,,,,,,,,,,,,blau,red,r,0.0,r,1.0,0.7398151249944931,,,,,,,,,,9.0,11.0,119.0,4.0,397.39987679100886,,,,,,,,,,,,,,,,,397.38911737500166,398.185985041011,398.9802961250098,398.9696672910068,,,,,,,,,,,,,,,,,,,,,,,,,,,,,,,,,,,398.9734261660051,398.9802961250098,398.9802961250098,399.72612433299946,r,1.0,0.7398151249944931,,,,,,sub-072,1,stroop_test,,
,,,,,,,,,,,,,,,,,,,,,,,,,,,,,,,,,,,,,,,,,,,,,,,,,,,,,,,,,,,,,,,,,,,,,,,,,,,,,,,,,,,,,,,,,,,,,,,,,,,,,,399.72635912500846,399.7408719160012,404.736202583008,404.7259262080042,sub-072,1,stroop_test,,
