direction,corrAns,thisN,thisTrialN,thisRepN,respDots.keys,respDots.corr,respDots.rt,respDots.duration,randomInstr,respRandomInstr.keys,respRandomInstr.rt,respRandomInstr.duration,practice_trials.thisRepN,practice_trials.thisTrialN,practice_trials.thisN,practice_trials.thisIndex,instr_trials.thisRepN,instr_trials.thisTrialN,instr_trials.thisN,instr_trials.thisIndex,test_trials.thisRepN,test_trials.thisTrialN,test_trials.thisN,test_trials.thisIndex,thisRow.t,notes,general_instruction.started,textGeneralInstr.started,respGeneralInstr.started,general_instruction.stopped,respGeneralInstr.keys,respGeneralInstr.rt,respGeneralInstr.duration,ITI.started,fixcross.started,fixcross.stopped,ITI.stopped,dots.started,backgroundDots.started,stimulusDots.started,respDots.started,dots.stopped,practice_trials.respDots.keys,practice_trials.respDots.corr,practice_trials.respDots.rt,practice_trials.respDots.duration,feedback.started,textFeedback.started,feedback.stopped,textFeedback.stopped,info.started,textInfo.started,keyRespInfo.started,info.stopped,keyRespInfo.keys,keyRespInfo.rt,keyRespInfo.duration,test_instruction.started,textTestInstr.started,respTestInstr.started,test_instruction.stopped,respTestInstr.keys,respTestInstr.rt,respTestInstr.duration,random_instruction.started,textRandomInstr.started,respRandomInstr.started,random_instruction.stopped,instr_trials.respRandomInstr.keys,instr_trials.respRandomInstr.rt,instr_trials.respRandomInstr.duration,test_trials.respDots.keys,test_trials.respDots.corr,test_trials.respDots.rt,test_trials.respDots.duration,goodbye.started,textGoodbye.started,goodbye.stopped,participant,session,expName,frameRate,Unnamed: 86
,,,,,,,,,,,,,,,,,,,,,,,,,,,0.0072878749997471,0.0173072079996927,0.0173072079996927,1.4990177500003483,space,1.3656927070005622,,,,,,,,,,,,,,,,,,,,,,,,,,,,,,,,,,,,,,,,,,,,,,,sub-207,1,random_dot,,
left,left,0.0,0.0,0.0,right,0.0,0.3655341240009875,,,,,,0.0,0.0,0.0,0.0,,,,,,,,,1.5273574160019052,,,,,,,,,1.5145937080014846,1.595481958000164,2.3943655000002764,2.3806868749998102,2.3811654160017497,2.3943655000002764,2.3943655000002764,2.3943655000002764,2.765299665999919,right,0.0,0.3655341240009875,,2.774799000002531,2.8699678750017483,3.274296040999616,,,,,,,,,,,,,,,,,,,,,,,,,,,,,,sub-207,1,random_dot,,
right,right,1.0,1.0,0.0,left,0.0,0.3072465410004952,,,,,,0.0,1.0,1.0,1.0,,,,,,,,,3.279110457999195,,,,,,,,,3.2748185000018566,4.063641750002716,4.857449999999517,4.846966875000362,4.847411165999802,4.857449999999517,4.857449999999517,4.857449999999517,5.175343999999313,left,0.0,0.3072465410004952,,5.17548883299969,5.187423416002275,5.674837665999803,5.680412083002011,,,,,,,,,,,,,,,,,,,,,,,,,,,,,sub-207,1,random_dot,,
left,left,2.0,0.0,1.0,left,1.0,0.540069457001664,,,,,,1.0,0.0,2.0,0.0,,,,,,,,,5.680412083002011,,,,,,,,,5.675414166002156,6.874305916000594,7.6647049999992305,7.657754208001279,7.658185832999152,7.6647049999992305,7.6647049999992305,7.6647049999992305,8.208952541001054,left,1.0,0.540069457001664,,8.217031666001276,8.236329208000825,8.71248233300139,,,,,,,,,,,,,,,,,,,,,,,,,,,,,,sub-207,1,random_dot,,
right,right,3.0,1.0,1.0,right,1.0,1.198649291000038,,,,,,1.0,1.0,3.0,1.0,,,,,,,,,8.724380125000607,,,,,,,,,8.712912250000954,8.807625583001936,9.59914933300024,9.59128687500197,9.591869750001932,9.59914933300024,9.59914933300024,9.59914933300024,10.807778375001362,right,1.0,1.198649291000038,,10.80791670799954,10.812991541002702,11.297258416001569,11.307693833001396,,,,,,,,,,,,,,,,,,,,,,,,,,,,,sub-207,1,random_dot,,
left,left,4.0,0.0,2.0,right,0.0,1.5243115409975871,,,,,,2.0,0.0,4.0,0.0,,,,,,,,,11.307693833001396,,,,,,,,,11.297717958001158,12.09675212500224,12.88928937500168,12.880630625000776,12.881089208000049,12.88928937500168,12.88928937500168,12.88928937500168,14.41573150000113,right,0.0,1.5243115409975871,,14.419633875000727,14.427681916000438,14.91393325000172,14.924364250000508,,,,,,,,,,,,,,,,,,,,,,,,,,,,,sub-207,1,random_dot,,
right,right,5.0,1.0,2.0,left,0.0,1.1128804159998251,,,,,,2.0,1.0,5.0,1.0,,,,,,,,,14.924364250000508,,,,,,,,,14.914305791000515,15.263434374999632,16.06559675000244,16.05783183300082,16.058383166000567,16.06559675000244,16.06559675000244,16.06559675000244,17.182247958000517,left,0.0,1.1128804159998251,,17.18238829099937,17.189997541001503,17.674636540999927,17.67963729099938,,,,,,,,,,,,,,,,,,,,,,,,,,,,,sub-207,1,random_dot,,
left,left,6.0,0.0,3.0,left,1.0,0.5398954990014317,,,,,,3.0,0.0,6.0,0.0,,,,,,,,,17.67963729099938,,,,,,,,,17.675105541002267,17.78025725000043,18.57263404100013,18.563793290999456,18.564240957999573,18.57263404100013,18.57263404100013,18.57263404100013,19.11601833299937,left,1.0,0.5398954990014317,,19.119904499999397,19.127918333000707,19.61350754100204,19.62426137500006,,,,,,,,,,,,,,,,,,,,,,,,,,,,,sub-207,1,random_dot,,
right,right,7.0,1.0,3.0,right,1.0,0.8028660000018135,,,,,,3.0,1.0,7.0,1.0,,,,,,,,,19.62426137500006,,,,,,,,,19.614009625001927,20.41205762500249,21.207594208000955,21.19651983299991,21.196958958000323,21.207594208000955,21.207594208000955,21.207594208000955,22.014838208000583,right,1.0,0.8028660000018135,,22.014973625002312,22.02355341600196,22.507879166001658,22.513164583000616,,,,,,,,,,,,,,,,,,,,,,,,,,,,,sub-207,1,random_dot,,
right,right,8.0,0.0,4.0,right,1.0,1.8583530409996456,,,,,,4.0,0.0,8.0,1.0,,,,,,,,,22.513164583000616,,,,,,,,,22.508360666000957,22.863644083001414,23.655883999999787,23.64714866600116,23.647678249999444,23.655883999999787,23.655883999999787,23.655883999999787,25.52529729100206,right,1.0,1.8583530409996456,,25.52543275000062,25.533263332999923,26.024651083000208,26.03035550000277,,,,,,,,,,,,,,,,,,,,,,,,,,,,,sub-207,1,random_dot,,
left,left,9.0,1.0,4.0,left,1.0,1.141473624000355,,,,,,4.0,1.0,9.0,0.0,,,,,,,,,26.03035550000277,,,,,,,,,26.02527687499969,26.37420933300018,27.164833416001784,27.157749916001197,27.15820895800061,27.164833416001784,27.164833416001784,27.164833416001784,28.30871108300198,left,1.0,1.141473624000355,,28.308887416002108,28.317172250001025,28.80772658299975,28.8120450000024,,,,,,,,,,,,,,,,,,,,,,,,,,,,,sub-207,1,random_dot,,
right,right,10.0,0.0,5.0,right,1.0,0.8734269579981628,,,,,,5.0,0.0,10.0,1.0,,,,,,,,,28.8120450000024,,,,,,,,,28.808133124999586,28.9076363330023,29.69981508300043,29.691465874999267,29.69216020800013,29.69981508300043,29.69981508300043,29.69981508300043,30.575330916002716,right,1.0,0.8734269579981628,,30.57551712500208,30.583883916002375,31.07461037500252,31.08020650000253,,,,,,,,,,,,,,,,,,,,,,,,,,,,,sub-207,1,random_dot,,
left,left,11.0,1.0,5.0,right,0.0,2.0731110829983663,,,,,,5.0,1.0,11.0,0.0,,,,,,,,,31.08020650000253,,,,,,,,,31.075198500002443,31.174062375001085,31.96606729099949,31.9581971660009,31.95892087500033,31.96606729099949,31.96606729099949,31.96606729099949,34.04226441600258,right,0.0,2.0731110829983663,,34.047024291001435,34.05511166600263,34.54134595800133,34.54695158300092,,,,,,,,,,,,,,,,,,,,,,,,,,,,,sub-207,1,random_dot,,
right,right,12.0,0.0,6.0,left,0.0,1.3077431239980797,,,,,,6.0,0.0,12.0,1.0,,,,,,,,,34.54695158300092,,,,,,,,,34.541944750002585,34.640853083001275,35.43330141600018,35.42476641599933,35.42546562500138,35.43330141600018,35.43330141600018,35.43330141600018,36.75146320800195,left,0.0,1.3077431239980797,,36.75159004099987,36.75641733299926,37.24130658300055,37.24690883299991,,,,,,,,,,,,,,,,,,,,,,,,,,,,,sub-207,1,random_dot,,
left,left,13.0,1.0,6.0,left,1.0,0.8238520829982008,,,,,,6.0,1.0,13.0,0.0,,,,,,,,,37.24690883299991,,,,,,,,,37.24193637500139,37.59714491600244,38.38924779100125,38.380421665999165,38.380985666000925,38.38924779100125,38.38924779100125,38.38924779100125,39.21573241599981,left,1.0,0.8238520829982008,,39.21960708299957,39.22778862500127,39.71320058300262,39.72422387500046,,,,,,,,,,,,,,,,,,,,,,,,,,,,,sub-207,1,random_dot,,
left,left,14.0,0.0,7.0,right,0.0,1.217840831999638,,,,,,7.0,0.0,14.0,0.0,,,,,,,,,39.72422387500046,,,,,,,,,39.71367270799965,39.81377629100098,40.616042458001175,40.60799929100176,40.60871400000178,40.616042458001175,40.616042458001175,40.616042458001175,41.842043874999945,right,0.0,1.217840831999638,,41.846285540999816,41.85451683300198,42.34136000000217,42.34689687500213,,,,,,,,,,,,,,,,,,,,,,,,,,,,,sub-207,1,random_dot,,
right,right,15.0,1.0,7.0,right,1.0,0.3802174160009599,,,,,,7.0,1.0,15.0,1.0,,,,,,,,,42.34689687500213,,,,,,,,,42.341965416002495,43.14078983299987,43.932706583000254,43.92461804100094,43.92534829100259,43.932706583000254,43.932706583000254,43.932706583000254,44.31501841600039,right,1.0,0.3802174160009599,,44.31885012500061,44.32783270800064,44.81368020800073,44.824184708002576,,,,,,,,,,,,,,,,,,,,,,,,,,,,,sub-207,1,random_dot,,
right,right,16.0,0.0,8.0,left,0.0,0.9493145819978964,,,,,,8.0,0.0,16.0,1.0,,,,,,,,,44.824184708002576,,,,,,,,,44.81413712500216,46.01325079100207,46.80650349999996,46.796856625001965,46.797293708001234,46.80650349999996,46.80650349999996,46.80650349999996,47.75847324999995,left,0.0,0.9493145819978964,,47.763087375002215,47.77118812499975,48.25825325000187,48.26378245800152,,,,,,,,,,,,,,,,,,,,,,,,,,,,,sub-207,1,random_dot,,
left,left,17.0,1.0,8.0,right,0.0,0.4892621239996515,,,,,,8.0,1.0,17.0,0.0,,,,,,,,,48.26378245800152,,,,,,,,,48.258854166000674,48.596950999999535,49.38955004099989,49.37995700000101,49.38040675000229,49.38955004099989,49.38955004099989,49.38955004099989,49.882339833002334,right,0.0,0.4892621239996515,,49.88247345800119,49.89017129100103,50.37465087500095,50.380266457999824,,,,,,,,,,,,,,,,,,,,,,,,,,,,,sub-207,1,random_dot,,
right,right,18.0,0.0,9.0,right,1.0,0.5806924579992483,,,,,,9.0,0.0,18.0,1.0,,,,,,,,,50.380266457999824,,,,,,,,,50.37524429100085,51.57993337500011,52.37401045799925,52.36311100000239,52.36355600000024,52.37401045799925,52.37401045799925,52.37401045799925,52.95884975000081,right,1.0,0.5806924579992483,,52.96326016600142,52.97153058299955,53.45793129100275,53.46363637499962,,,,,,,,,,,,,,,,,,,,,,,,,,,,,sub-207,1,random_dot,,
left,left,19.0,1.0,9.0,right,0.0,1.1500016239988329,,,,,,9.0,1.0,19.0,0.0,,,,,,,,,53.46363637499962,,,,,,,,,53.45854150000014,54.257525375000114,55.04950854100025,55.04135137500271,55.04207991600197,55.04950854100025,55.04950854100025,55.04950854100025,56.20854154100016,right,0.0,1.1500016239988329,,56.21255629100051,56.22057675000178,56.70799199999965,56.71630562499922,,,,,,,,,,,,,,,,,,,,,,,,,,,,,sub-207,1,random_dot,,
,,,,,,,,,,,,,,,,,,,,,,,,,,,,,,,,,,,,,,,,,,,,,,,,,,,56.70826987500186,56.71630562499922,56.71630562499922,58.60922279100123,space,1.8833014160009045,,,,,,,,,,,,,,,,,,,,,,,sub-207,1,random_dot,,
,,,,,,,,,,,,,,,,,,,,,,,,,,,,,,,,,,,,,,,,,,,,,,,,,,,,,,,,,,58.60940024999945,58.62245249999978,58.62245249999978,59.24273370800074,space,0.6161520000023302,,,,,,,,,,,,,,,,sub-207,1,random_dot,,
right,right,0.0,0.0,0.0,right,1.0,0.2960138330017798,,speed,space,0.8885156660035136,,,,,,0.0,0.0,0.0,1.0,0.0,0.0,0.0,1.0,60.18176825000046,,,,,,,,,60.175076999999874,60.51354787500168,61.30643120800232,61.29707620800036,61.29751645800207,61.30643120800232,61.30643120800232,61.30643120800232,61.6083746660006,,,,,,,,,,,,,,,,,,,,,,,59.26685829100097,59.27413170799991,59.27413170799991,60.1649806250025,space,0.8885156660035136,,right,1.0,0.2960138330017798,,,,,sub-207,1,random_dot,,
left,left,1.0,1.0,0.0,left,1.0,0.4013286659974255,,speed,space,0.8885156660035136,,,,,,0.0,0.0,0.0,1.0,0.0,1.0,1.0,0.0,61.61565800000244,,,,,,,,,61.60885716600024,61.94695545799914,62.73917870800142,62.73048974999983,62.73093141600111,62.73917870800142,62.73917870800142,62.73917870800142,63.15036041600251,,,,,,,,,,,,,,,,,,,,,,,,,,,,,,left,1.0,0.4013286659974255,,,,,sub-207,1,random_dot,,
right,right,2.0,0.0,1.0,right,1.0,0.7469049570026982,,speed,space,0.8885156660035136,,,,,,0.0,0.0,0.0,1.0,1.0,0.0,2.0,1.0,63.15592187500079,,,,,,,,,63.15080741600104,63.24656375000268,64.04048741600127,64.02961974999926,64.03029874999993,64.04048741600127,64.04048741600127,64.04048741600127,64.79174895799952,,,,,,,,,,,,,,,,,,,,,,,,,,,,,,right,1.0,0.7469049570026982,,,,,sub-207,1,random_dot,,
left,left,3.0,1.0,1.0,right,0.0,0.7804086239993921,,speed,space,0.8885156660035136,,,,,,0.0,0.0,0.0,1.0,1.0,1.0,3.0,0.0,64.79947379100122,,,,,,,,,64.79225670800224,65.98060729099961,66.7729302910011,66.76369895800235,66.76425562499935,66.7729302910011,66.7729302910011,66.7729302910011,67.55777616600244,,,,,,,,,,,,,,,,,,,,,,,,,,,,,,right,0.0,0.7804086239993921,,,,,sub-207,1,random_dot,,
left,left,4.0,0.0,2.0,right,0.0,0.7461618739980622,,speed,space,0.8885156660035136,,,,,,0.0,0.0,0.0,1.0,2.0,0.0,4.0,0.0,67.56617429100152,,,,,,,,,67.55837387499923,67.64692387499963,68.44916849999936,68.44118841599993,68.44177425000089,68.44916849999936,68.44916849999936,68.44916849999936,69.199160958,,,,,,,,,,,,,,,,,,,,,,,,,,,,,,right,0.0,0.7461618739980622,,,,,sub-207,1,random_dot,,
right,right,5.0,1.0,2.0,left,0.0,0.8069188740009849,,speed,space,0.8885156660035136,,,,,,0.0,0.0,0.0,1.0,2.0,1.0,5.0,1.0,69.20659562500077,,,,,,,,,69.19962091600246,69.29682266600139,70.09935274999953,70.0912513330004,70.09180500000002,70.09935274999953,70.09935274999953,70.09935274999953,70.90845120800077,,,,,,,,,,,,,,,,,,,,,,,,,,,,,,left,0.0,0.8069188740009849,,,,,sub-207,1,random_dot,,
left,left,6.0,0.0,3.0,right,0.0,0.7493752489972394,,speed,space,0.8885156660035136,,,,,,0.0,0.0,0.0,1.0,3.0,0.0,6.0,0.0,70.91626379100126,,,,,,,,,70.908984083002,71.69723075000002,72.4898763750025,72.48005162499976,72.48049600000013,72.4898763750025,72.4898763750025,72.4898763750025,73.24202866600172,,,,,,,,,,,,,,,,,,,,,,,,,,,,,,right,0.0,0.7493752489972394,,,,,sub-207,1,random_dot,,
right,right,7.0,1.0,3.0,right,1.0,0.745096791000833,,speed,space,0.8885156660035136,,,,,,0.0,0.0,0.0,1.0,3.0,1.0,7.0,1.0,73.25004216600064,,,,,,,,,73.24267670799964,74.0409808330005,74.83315358300024,74.82464583299952,74.82535529099914,74.83315358300024,74.83315358300024,74.83315358300024,75.58114200000273,,,,,,,,,,,,,,,,,,,,,,,,,,,,,,right,1.0,0.745096791000833,,,,,sub-207,1,random_dot,,
right,right,8.0,0.0,4.0,left,0.0,1.281465083000512,,speed,space,0.8885156660035136,,,,,,0.0,0.0,0.0,1.0,4.0,0.0,8.0,1.0,75.5893204999993,,,,,,,,,75.5816091250017,75.68010900000081,76.47253983300106,76.4637368750009,76.46417920800013,76.47253983300106,76.47253983300106,76.47253983300106,77.7587593749995,,,,,,,,,,,,,,,,,,,,,,,,,,,,,,left,0.0,1.281465083000512,,,,,sub-207,1,random_dot,,
left,left,9.0,1.0,4.0,right,0.0,0.9978457079996588,,speed,space,0.8885156660035136,,,,,,0.0,0.0,0.0,1.0,4.0,1.0,9.0,0.0,77.76667675000135,,,,,,,,,77.75940275000175,78.10763029100053,78.89917637500184,78.89106133300083,78.89178495799933,78.89917637500184,78.89917637500184,78.89917637500184,79.90721091600062,,,,,,,,,,,,,,,,,,,,,,,,,,,,,,right,0.0,0.9978457079996588,,,,,sub-207,1,random_dot,,
left,left,10.0,0.0,5.0,left,1.0,0.9037984570022672,,speed,space,0.8885156660035136,,,,,,0.0,0.0,0.0,1.0,5.0,0.0,10.0,0.0,79.9122197910001,,,,,,,,,79.90768245800064,81.09713983300026,81.88922029099922,81.88064708300226,81.88110212500033,81.88922029099922,81.88922029099922,81.88922029099922,82.79722987499918,,,,,,,,,,,,,,,,,,,,,,,,,,,,,,left,1.0,0.9037984570022672,,,,,sub-207,1,random_dot,,
right,right,11.0,1.0,5.0,right,1.0,1.2104950829998415,,speed,space,0.8885156660035136,,,,,,0.0,0.0,0.0,1.0,5.0,1.0,11.0,1.0,82.8059237080015,,,,,,,,,82.79770366600133,83.99682587500138,84.799516416002,84.79131666600006,84.79201791599917,84.799516416002,84.799516416002,84.799516416002,86.01478737499929,,,,,,,,,,,,,,,,,,,,,,,,,,,,,,right,1.0,1.2104950829998415,,,,,sub-207,1,random_dot,,
left,left,12.0,0.0,6.0,left,1.0,1.1881913329998497,,speed,space,0.8885156660035136,,,,,,0.0,0.0,0.0,1.0,6.0,0.0,12.0,0.0,86.02286383300088,,,,,,,,,86.01526037499934,87.21365429100115,88.01374641599978,88.00698054100212,88.007729500001,88.01374641599978,88.01374641599978,88.01374641599978,89.207430208,,,,,,,,,,,,,,,,,,,,,,,,,,,,,,left,1.0,1.1881913329998497,,,,,sub-207,1,random_dot,,
right,right,13.0,1.0,6.0,right,1.0,0.9945249579977826,,speed,space,0.8885156660035136,,,,,,0.0,0.0,0.0,1.0,6.0,1.0,13.0,1.0,89.2165122080005,,,,,,,,,89.20804695799961,89.54715370800113,90.33917929100062,90.33025858300245,90.33079941600226,90.33917929100062,90.33917929100062,90.33917929100062,91.34201812500032,,,,,,,,,,,,,,,,,,,,,,,,,,,,,,right,1.0,0.9945249579977826,,,,,sub-207,1,random_dot,,
left,left,14.0,0.0,7.0,right,0.0,1.6855316660003157,,speed,space,0.8885156660035136,,,,,,0.0,0.0,0.0,1.0,7.0,0.0,14.0,0.0,91.35077758300032,,,,,,,,,91.3425404160007,91.69105654099984,92.48316433299988,92.4746329160007,92.47536879100151,92.48316433299988,92.48316433299988,92.48316433299988,94.17535608300022,,,,,,,,,,,,,,,,,,,,,,,,,,,,,,right,0.0,1.6855316660003157,,,,,sub-207,1,random_dot,,
right,right,15.0,1.0,7.0,left,0.0,1.3373229159988114,,speed,space,0.8885156660035136,,,,,,0.0,0.0,0.0,1.0,7.0,1.0,15.0,1.0,94.18453537499954,,,,,,,,,94.17587883300077,95.37411037499989,96.16537895800138,96.15763945800065,96.15819550000016,96.16537895800138,96.16537895800138,96.16537895800138,97.5071873750021,,,,,,,,,,,,,,,,,,,,,,,,,,,,,,left,0.0,1.3373229159988114,,,,,sub-207,1,random_dot,,
left,left,16.0,0.0,8.0,right,0.0,1.209341248999408,,speed,space,0.8885156660035136,,,,,,0.0,0.0,0.0,1.0,8.0,0.0,16.0,0.0,97.51587887500136,,,,,,,,,97.50770212499992,98.69667941599982,99.48926616600149,99.48013212500156,99.48058529099944,99.48926616600149,99.48926616600149,99.48926616600149,100.70886266600064,,,,,,,,,,,,,,,,,,,,,,,,,,,,,,right,0.0,1.209341248999408,,,,,sub-207,1,random_dot,,
right,right,17.0,1.0,8.0,right,1.0,1.3454003749975527,,speed,space,0.8885156660035136,,,,,,0.0,0.0,0.0,1.0,8.0,1.0,17.0,1.0,100.71787229099937,,,,,,,,,100.70960379100144,101.90752733300178,102.70011070799956,102.69135325000023,102.69204629100204,102.70011070799956,102.70011070799956,102.70011070799956,104.04921566600024,,,,,,,,,,,,,,,,,,,,,,,,,,,,,,right,1.0,1.3454003749975527,,,,,sub-207,1,random_dot,,
right,right,18.0,0.0,9.0,left,0.0,2.348640832999081,,speed,space,0.8885156660035136,,,,,,0.0,0.0,0.0,1.0,9.0,0.0,18.0,1.0,104.07397124999989,,,,,,,,,104.04968658300275,104.14715849999992,104.94967070799976,104.94138991600266,104.94212325000262,104.94967070799976,104.94967070799976,104.94967070799976,107.32614945800016,,,,,,,,,,,,,,,,,,,,,,,,,,,,,,left,0.0,2.348640832999081,,,,,sub-207,1,random_dot,,
left,left,19.0,1.0,9.0,right,0.0,1.8527315409992295,,speed,space,0.8885156660035136,,,,,,0.0,0.0,0.0,1.0,9.0,1.0,19.0,0.0,107.34118033300184,,,,,,,,,107.32731154100112,107.67412458300169,108.46657737500207,108.45801445799952,108.4587477080022,108.46657737500207,108.46657737500207,108.46657737500207,110.32515545800196,,,,,,,,,,,,,,,,,,,,,,,,,,,,,,right,0.0,1.8527315409992295,,,,,sub-207,1,random_dot,,
left,left,20.0,0.0,10.0,left,1.0,1.2157686659993487,,speed,space,0.8885156660035136,,,,,,0.0,0.0,0.0,1.0,10.0,0.0,20.0,0.0,110.33367575000013,,,,,,,,,110.32567200000268,110.42415487499966,111.21643941600269,111.2080000829992,111.20875508300014,111.21643941600269,111.21643941600269,111.21643941600269,112.44120958300118,,,,,,,,,,,,,,,,,,,,,,,,,,,,,,left,1.0,1.2157686659993487,,,,,sub-207,1,random_dot,,
right,right,21.0,1.0,10.0,right,1.0,1.0186449580032786,,speed,space,0.8885156660035136,,,,,,0.0,0.0,0.0,1.0,10.0,1.0,21.0,1.0,112.4504181250013,,,,,,,,,112.44208120800248,113.22961437500273,114.02254983300008,114.01357450000069,114.01409420799972,114.02254983300008,114.02254983300008,114.02254983300008,115.05214137499934,,,,,,,,,,,,,,,,,,,,,,,,,,,,,,right,1.0,1.0186449580032786,,,,,sub-207,1,random_dot,,
left,left,22.0,0.0,11.0,left,1.0,1.3973603320009715,,speed,space,0.8885156660035136,,,,,,0.0,0.0,0.0,1.0,11.0,0.0,22.0,0.0,115.05690666600276,,,,,,,,,115.05256358300176,115.14715875000184,115.93984495800032,115.93002604100184,115.93046045799927,115.93984495800032,115.93984495800032,115.93984495800032,117.34228154100128,,,,,,,,,,,,,,,,,,,,,,,,,,,,,,left,1.0,1.3973603320009715,,,,,sub-207,1,random_dot,,
right,right,23.0,1.0,11.0,right,1.0,1.2277179570010048,,speed,space,0.8885156660035136,,,,,,0.0,0.0,0.0,1.0,11.0,1.0,23.0,1.0,117.3510500830016,,,,,,,,,117.34293595800044,117.69100212500052,118.48243495800124,118.47452483300005,118.47524879100092,118.48243495800124,118.48243495800124,118.48243495800124,119.71559012500074,,,,,,,,,,,,,,,,,,,,,,,,,,,,,,right,1.0,1.2277179570010048,,,,,sub-207,1,random_dot,,
right,right,24.0,0.0,12.0,left,0.0,0.998004833003506,,speed,space,0.8885156660035136,,,,,,0.0,0.0,0.0,1.0,12.0,0.0,24.0,1.0,119.7257240830004,,,,,,,,,119.7160729160023,120.0620737499994,120.85695945800036,120.84656375000122,120.84698562500124,120.85695945800036,120.85695945800036,120.85695945800036,121.85867366599996,,,,,,,,,,,,,,,,,,,,,,,,,,,,,,left,0.0,0.998004833003506,,,,,sub-207,1,random_dot,,
left,left,25.0,1.0,12.0,right,0.0,0.9492513750010404,,speed,space,0.8885156660035136,,,,,,0.0,0.0,0.0,1.0,12.0,1.0,25.0,0.0,121.867303250001,,,,,,,,,121.8593346250018,123.05735841600108,123.8497817080024,123.84119783300048,123.84192433300268,123.8497817080024,123.8497817080024,123.8497817080024,124.80799283300075,,,,,,,,,,,,,,,,,,,,,,,,,,,,,,right,0.0,0.9492513750010404,,,,,sub-207,1,random_dot,,
left,left,26.0,0.0,13.0,left,1.0,1.2550142489999416,,speed,space,0.8885156660035136,,,,,,0.0,0.0,0.0,1.0,13.0,0.0,26.0,0.0,124.81646033300058,,,,,,,,,124.80848816599972,124.89701279099972,125.68986033300098,125.6803629160022,125.68089529099962,125.68986033300098,125.68986033300098,125.68986033300098,126.94825483300156,,,,,,,,,,,,,,,,,,,,,,,,,,,,,,left,1.0,1.2550142489999416,,,,,sub-207,1,random_dot,,
right,right,27.0,1.0,13.0,right,1.0,0.9283582489988476,,speed,space,0.8885156660035136,,,,,,0.0,0.0,0.0,1.0,13.0,1.0,27.0,1.0,126.95665666599962,,,,,,,,,126.94872849999956,127.7469671660001,128.53951083300126,128.53025875000094,128.5306959160007,128.53951083300126,128.53951083300126,128.53951083300126,129.47409608300222,,,,,,,,,,,,,,,,,,,,,,,,,,,,,,right,1.0,0.9283582489988476,,,,,sub-207,1,random_dot,,
left,left,28.0,0.0,14.0,right,0.0,2.466220499998599,,speed,space,0.8885156660035136,,,,,,0.0,0.0,0.0,1.0,14.0,0.0,28.0,0.0,129.48254783300217,,,,,,,,,129.47457000000213,129.56305366599918,130.3566150830011,130.3475768749995,130.34812458300075,130.3566150830011,130.3566150830011,130.3566150830011,132.8253557909993,,,,,,,,,,,,,,,,,,,,,,,,,,,,,,right,0.0,2.466220499998599,,,,,sub-207,1,random_dot,,
right,right,29.0,1.0,14.0,right,1.0,1.2568225000031816,,speed,space,0.8885156660035136,,,,,,0.0,0.0,0.0,1.0,14.0,1.0,29.0,1.0,132.8341317910017,,,,,,,,,132.82586816600087,133.17426049999997,133.96681966600227,133.95821133299978,133.95879770800093,133.96681966600227,133.96681966600227,133.96681966600227,135.23463091600206,,,,,,,,,,,,,,,,,,,,,,,,,,,,,,right,1.0,1.2568225000031816,,,,,sub-207,1,random_dot,,
left,left,30.0,0.0,15.0,right,0.0,1.5822004159999778,,speed,space,0.8885156660035136,,,,,,0.0,0.0,0.0,1.0,15.0,0.0,30.0,0.0,135.23948791600196,,,,,,,,,135.23508950000178,136.42979241600187,137.22439099999974,137.2124534159993,137.21288454100068,137.22439099999974,137.22439099999974,137.22439099999974,138.8084275830006,,,,,,,,,,,,,,,,,,,,,,,,,,,,,,right,0.0,1.5822004159999778,,,,,sub-207,1,random_dot,,
right,right,31.0,1.0,15.0,right,1.0,1.9615376239999025,,speed,space,0.8885156660035136,,,,,,0.0,0.0,0.0,1.0,15.0,1.0,31.0,1.0,138.81712266600152,,,,,,,,,138.80890562499917,139.59710574999917,140.39004787500016,140.38010279100126,140.38055416600037,140.39004787500016,140.39004787500016,140.39004787500016,142.3583678750001,,,,,,,,,,,,,,,,,,,,,,,,,,,,,,right,1.0,1.9615376239999025,,,,,sub-207,1,random_dot,,
right,right,32.0,0.0,16.0,right,1.0,1.2939754159997392,,speed,space,0.8885156660035136,,,,,,0.0,0.0,0.0,1.0,16.0,0.0,32.0,1.0,142.36694841600183,,,,,,,,,142.35893908300204,143.15754887500225,143.94956108300175,143.94121441600146,143.94193562500004,143.94956108300175,143.94956108300175,143.94956108300175,145.24903325000196,,,,,,,,,,,,,,,,,,,,,,,,,,,,,,right,1.0,1.2939754159997392,,,,,sub-207,1,random_dot,,
left,left,33.0,1.0,16.0,right,0.0,2.01257854099822,,speed,space,0.8885156660035136,,,,,,0.0,0.0,0.0,1.0,16.0,1.0,33.0,0.0,145.27428287500152,,,,,,,,,145.24950787499984,146.04669991600167,146.83977762500217,146.83025895800165,146.83068691600056,146.83977762500217,146.83977762500217,146.83977762500217,148.85846366600163,,,,,,,,,,,,,,,,,,,,,,,,,,,,,,right,0.0,2.01257854099822,,,,,sub-207,1,random_dot,,
right,right,34.0,0.0,17.0,right,1.0,0.992934249003156,,speed,space,0.8885156660035136,,,,,,0.0,0.0,0.0,1.0,17.0,0.0,34.0,1.0,148.86682958299934,,,,,,,,,148.85898145800093,150.05751141600194,150.8494941659992,150.84115287500026,150.84185637500195,150.8494941659992,150.8494941659992,150.8494941659992,151.84718274999975,,,,,,,,,,,,,,,,,,,,,,,,,,,,,,right,1.0,0.992934249003156,,,,,sub-207,1,random_dot,,
left,left,35.0,1.0,17.0,left,1.0,0.8185417499989853,,speed,space,0.8885156660035136,,,,,,0.0,0.0,0.0,1.0,17.0,1.0,35.0,0.0,151.85671104100038,,,,,,,,,151.8476580000024,152.19516099999964,152.99074266599928,152.97897616599948,152.97936145800122,152.99074266599928,152.99074266599928,152.99074266599928,153.81610266600185,,,,,,,,,,,,,,,,,,,,,,,,,,,,,,left,1.0,0.8185417499989853,,,,,sub-207,1,random_dot,,
left,left,36.0,0.0,18.0,left,1.0,1.1940029569996111,,speed,space,0.8885156660035136,,,,,,0.0,0.0,0.0,1.0,18.0,0.0,36.0,0.0,153.84064125000077,,,,,,,,,153.81659433300229,154.61376604100224,155.40613658300208,155.39678812499915,155.3972257500027,155.40613658300208,155.40613658300208,155.40613658300208,156.60882024999955,,,,,,,,,,,,,,,,,,,,,,,,,,,,,,left,1.0,1.1940029569996111,,,,,sub-207,1,random_dot,,
right,right,37.0,1.0,18.0,left,0.0,4.033636665997619,,speed,space,0.8885156660035136,,,,,,0.0,0.0,0.0,1.0,18.0,1.0,37.0,1.0,156.61786195800232,,,,,,,,,156.6094904160018,156.9575236660021,157.7492060830009,157.74134550000235,157.7421166660024,157.7492060830009,157.7492060830009,157.7492060830009,161.79211600000053,,,,,,,,,,,,,,,,,,,,,,,,,,,,,,left,0.0,4.033636665997619,,,,,sub-207,1,random_dot,,
right,right,38.0,0.0,19.0,right,1.0,1.713266749997274,,speed,space,0.8885156660035136,,,,,,0.0,0.0,0.0,1.0,19.0,0.0,38.0,1.0,161.80104650000067,,,,,,,,,161.79278079100186,161.89093416600008,162.68213108300188,162.67449170799955,162.67516875,162.68213108300188,162.68213108300188,162.68213108300188,164.399121208,,,,,,,,,,,,,,,,,,,,,,,,,,,,,,right,1.0,1.713266749997274,,,,,sub-207,1,random_dot,,
left,left,39.0,1.0,19.0,right,0.0,0.8814982080002665,,speed,space,0.8885156660035136,,,,,,0.0,0.0,0.0,1.0,19.0,1.0,39.0,0.0,164.42401249999966,,,,,,,,,164.39954954100176,164.7467712079997,165.5488777080027,165.54105620799965,165.5417594999999,165.5488777080027,165.5488777080027,165.5488777080027,166.4328677500016,,,,,,,,,,,,,,,,,,,,,,,,,,,,,,right,0.0,0.8814982080002665,,,,,sub-207,1,random_dot,,
right,right,40.0,0.0,20.0,right,1.0,1.7548941239983833,,speed,space,0.8885156660035136,,,,,,0.0,0.0,0.0,1.0,20.0,0.0,40.0,1.0,166.44239424999978,,,,,,,,,166.43333783300113,167.63032550000207,168.42242075000104,168.41383345800205,168.41435091600215,168.42242075000104,168.42242075000104,168.42242075000104,170.1822847500007,,,,,,,,,,,,,,,,,,,,,,,,,,,,,,right,1.0,1.7548941239983833,,,,,sub-207,1,random_dot,,
left,left,41.0,1.0,20.0,left,1.0,0.845793248998234,,speed,space,0.8885156660035136,,,,,,0.0,0.0,0.0,1.0,20.0,1.0,41.0,0.0,170.19037754099918,,,,,,,,,170.18275708299916,170.53028500000073,171.3324728330008,171.32452433300205,171.3252445830003,171.3324728330008,171.3324728330008,171.3324728330008,172.18226866600162,,,,,,,,,,,,,,,,,,,,,,,,,,,,,,left,1.0,0.845793248998234,,,,,sub-207,1,random_dot,,
left,left,42.0,0.0,21.0,right,0.0,1.1190553319975152,,speed,space,0.8885156660035136,,,,,,0.0,0.0,0.0,1.0,21.0,0.0,42.0,0.0,172.20735649999915,,,,,,,,,172.18272812500072,172.53030395799942,173.32414179099942,173.3133333750011,173.3137671250006,173.32414179099942,173.32414179099942,173.32414179099942,174.44715504100168,,,,,,,,,,,,,,,,,,,,,,,,,,,,,,right,0.0,1.1190553319975152,,,,,sub-207,1,random_dot,,
right,right,43.0,1.0,21.0,right,1.0,1.23945141600052,,speed,space,0.8885156660035136,,,,,,0.0,0.0,0.0,1.0,21.0,1.0,43.0,1.0,174.45605270799933,,,,,,,,,174.4476370830016,175.6473904580016,176.43962791599915,176.43020812500254,176.4307355830024,176.43962791599915,176.43962791599915,176.43962791599915,177.68248237499938,,,,,,,,,,,,,,,,,,,,,,,,,,,,,,right,1.0,1.23945141600052,,,,,sub-207,1,random_dot,,
right,right,44.0,0.0,22.0,right,1.0,1.95465616599904,,speed,space,0.8885156660035136,,,,,,0.0,0.0,0.0,1.0,22.0,0.0,44.0,1.0,177.70727500000066,,,,,,,,,177.68295008300265,178.03010308300145,178.82239741599915,178.81341495800007,178.81392787500226,178.82239741599915,178.82239741599915,178.82239741599915,180.78225424999985,,,,,,,,,,,,,,,,,,,,,,,,,,,,,,right,1.0,1.95465616599904,,,,,sub-207,1,random_dot,,
left,left,45.0,1.0,22.0,left,1.0,0.8433752910023031,,speed,space,0.8885156660035136,,,,,,0.0,0.0,0.0,1.0,22.0,1.0,45.0,0.0,180.7903757910026,,,,,,,,,180.7827392500003,181.12861862499997,181.92362483300167,181.9136577499994,181.91410741599972,181.92362483300167,181.92362483300167,181.92362483300167,182.77514891600003,,,,,,,,,,,,,,,,,,,,,,,,,,,,,,left,1.0,0.8433752910023031,,,,,sub-207,1,random_dot,,
left,left,46.0,0.0,23.0,left,1.0,0.7198597489987151,,speed,space,0.8885156660035136,,,,,,0.0,0.0,0.0,1.0,23.0,0.0,46.0,0.0,182.7835238750013,,,,,,,,,182.7756524159995,183.5741274579996,184.36599475000185,184.3580484160011,184.35877670800252,184.36599475000185,184.36599475000185,184.36599475000185,185.0917326250019,,,,,,,,,,,,,,,,,,,,,,,,,,,,,,left,1.0,0.7198597489987151,,,,,sub-207,1,random_dot,,
right,right,47.0,1.0,23.0,right,1.0,1.0108799999979965,,speed,space,0.8885156660035136,,,,,,0.0,0.0,0.0,1.0,23.0,1.0,47.0,1.0,185.10068595800112,,,,,,,,,185.09225495800277,185.1907449579994,185.98201370800237,185.97426525000265,185.97479849999945,185.98201370800237,185.98201370800237,185.98201370800237,186.9973697500027,,,,,,,,,,,,,,,,,,,,,,,,,,,,,,right,1.0,1.0108799999979965,,,,,sub-207,1,random_dot,,
right,right,48.0,0.0,24.0,right,1.0,1.194617791003111,,speed,space,0.8885156660035136,,,,,,0.0,0.0,0.0,1.0,24.0,0.0,48.0,1.0,187.00591316600185,,,,,,,,,186.99786225000207,187.34687591600232,188.14911933300027,188.14136950000105,188.14183362500265,188.14911933300027,188.14911933300027,188.14911933300027,189.3489397910016,,,,,,,,,,,,,,,,,,,,,,,,,,,,,,right,1.0,1.194617791003111,,,,,sub-207,1,random_dot,,
left,left,49.0,1.0,24.0,left,1.0,1.172651416000008,,speed,space,0.8885156660035136,,,,,,0.0,0.0,0.0,1.0,24.0,1.0,49.0,0.0,189.35714766599995,,,,,,,,,189.34941495800007,189.4465304580008,190.23911087500164,190.23018008299917,190.23074095800257,190.23911087500164,190.23911087500164,190.23911087500164,191.41567745800057,,,,,,,,,,,,,,,,,,,,,,,,,,,,,,left,1.0,1.172651416000008,,,,,sub-207,1,random_dot,,
right,right,50.0,0.0,25.0,right,1.0,0.8275995820004027,,speed,space,0.8885156660035136,,,,,,0.0,0.0,0.0,1.0,25.0,0.0,50.0,1.0,191.4405179580026,,,,,,,,,191.4161562500012,192.21361912499924,193.00600775000203,192.99739095800032,192.9978137079997,193.00600775000203,193.00600775000203,193.00600775000203,193.8410729999996,,,,,,,,,,,,,,,,,,,,,,,,,,,,,,right,1.0,0.8275995820004027,,,,,sub-207,1,random_dot,,
left,left,51.0,1.0,25.0,left,1.0,0.8832754159993783,,speed,space,0.8885156660035136,,,,,,0.0,0.0,0.0,1.0,25.0,1.0,51.0,0.0,193.84980720800013,,,,,,,,,193.84160916600013,194.18040095800097,194.9734066660021,194.96365262499967,194.96409895800025,194.9734066660021,194.9734066660021,194.9734066660021,195.8585041660008,,,,,,,,,,,,,,,,,,,,,,,,,,,,,,left,1.0,0.8832754159993783,,,,,sub-207,1,random_dot,,
left,left,52.0,0.0,26.0,right,0.0,0.766346665997844,,speed,space,0.8885156660035136,,,,,,0.0,0.0,0.0,1.0,26.0,0.0,52.0,0.0,195.86726012500003,,,,,,,,,195.8591886249997,196.6572722910023,197.44919379100247,197.4410923329997,197.441797083,197.44919379100247,197.44919379100247,197.44919379100247,198.22526995800217,,,,,,,,,,,,,,,,,,,,,,,,,,,,,,right,0.0,0.766346665997844,,,,,sub-207,1,random_dot,,
right,right,53.0,1.0,26.0,left,0.0,0.5604732489991875,,speed,space,0.8885156660035136,,,,,,0.0,0.0,0.0,1.0,26.0,1.0,53.0,1.0,198.234058500002,,,,,,,,,198.2259024160012,199.4242975410016,200.21607375000167,200.20777141600047,200.20851095800023,200.21607375000167,200.21607375000167,200.21607375000167,200.780438916001,,,,,,,,,,,,,,,,,,,,,,,,,,,,,,left,0.0,0.5604732489991875,,,,,sub-207,1,random_dot,,
left,left,54.0,0.0,27.0,left,1.0,0.8017350000009174,,speed,space,0.8885156660035136,,,,,,0.0,0.0,0.0,1.0,27.0,0.0,54.0,0.0,200.78937237500213,,,,,,,,,200.78094187500028,200.87943608299972,201.6726168749992,201.6640720409996,201.66463045800265,201.6726168749992,201.6726168749992,201.6726168749992,202.48608554100065,,,,,,,,,,,,,,,,,,,,,,,,,,,,,,left,1.0,0.8017350000009174,,,,,sub-207,1,random_dot,,
right,right,55.0,1.0,27.0,right,1.0,0.6591037910002342,,speed,space,0.8885156660035136,,,,,,0.0,0.0,0.0,1.0,27.0,1.0,55.0,1.0,202.5070022500004,,,,,,,,,202.4865287499997,202.82934837500216,203.6223906660016,203.61355908300172,203.61410570800217,203.6223906660016,203.6223906660016,203.6223906660016,204.2834557500028,,,,,,,,,,,,,,,,,,,,,,,,,,,,,,right,1.0,0.6591037910002342,,,,,sub-207,1,random_dot,,
left,left,56.0,0.0,28.0,left,1.0,0.7949643739993917,,speed,space,0.8885156660035136,,,,,,0.0,0.0,0.0,1.0,28.0,0.0,56.0,0.0,204.2926959159995,,,,,,,,,204.28394024999943,205.48035233300104,206.272394333002,206.26349699999992,206.2640255410006,206.272394333002,206.272394333002,206.272394333002,207.0754577080006,,,,,,,,,,,,,,,,,,,,,,,,,,,,,,left,1.0,0.7949643739993917,,,,,sub-207,1,random_dot,,
right,right,57.0,1.0,28.0,right,1.0,0.8149012079993554,,speed,space,0.8885156660035136,,,,,,0.0,0.0,0.0,1.0,28.0,1.0,57.0,1.0,207.08443695800088,,,,,,,,,207.07616004100052,207.42425645800176,208.21647554100127,208.20791183300025,208.20863058300165,208.21647554100127,208.21647554100127,208.21647554100127,209.0326804159995,,,,,,,,,,,,,,,,,,,,,,,,,,,,,,right,1.0,0.8149012079993554,,,,,sub-207,1,random_dot,,
right,right,58.0,0.0,29.0,right,1.0,1.0314632070003429,,speed,space,0.8885156660035136,,,,,,0.0,0.0,0.0,1.0,29.0,0.0,58.0,1.0,209.05738295800256,,,,,,,,,209.03314970800056,210.23012916600052,211.02279595800064,211.0139176250013,211.01434945800065,211.02279595800064,211.02279595800064,211.02279595800064,212.05867112499985,,,,,,,,,,,,,,,,,,,,,,,,,,,,,,right,1.0,1.0314632070003429,,,,,sub-207,1,random_dot,,
left,left,59.0,1.0,29.0,left,1.0,1.7188473329988485,,speed,space,0.8885156660035136,,,,,,0.0,0.0,0.0,1.0,29.0,1.0,59.0,0.0,212.0676252500016,,,,,,,,,212.0593361249994,213.2574205000019,214.0493447910012,214.0412393330007,214.0417918330022,214.0493447910012,214.0493447910012,214.0493447910012,215.7750952909992,,,,,,,,,,,,,,,,,,,,,,,,,,,,,,left,1.0,1.7188473329988485,,,,,sub-207,1,random_dot,,
,,0.0,0.0,0.0,,,,,speed,space,0.8885156660035136,,,,,,0.0,0.0,0.0,1.0,,,,,,,,,,,,,,,,,,,,,,,,,,,,,,,,,,,,,,,,,,,,,,,,,,,,,,,,,,,sub-207,1,random_dot,,
right,right,0.0,0.0,0.0,right,1.0,0.8110468740014767,,accuracy,space,1.6481780409994826,,,,,,0.0,1.0,1.0,0.0,0.0,0.0,0.0,1.0,217.4802125000024,,,,,,,,,217.4726689160016,217.8071913330023,218.5991065830021,218.5909668330023,218.59173720800027,218.5991065830021,218.5991065830021,218.5991065830021,219.41335858300224,,,,,,,,,,,,,,,,,,,,,,,215.79420404100165,215.80100254100037,215.80100254100037,217.4590951249993,space,1.6481780409994826,,right,1.0,0.8110468740014767,,,,,sub-207,1,random_dot,,
left,left,1.0,1.0,0.0,right,0.0,1.018220708003355,,accuracy,space,1.6481780409994826,,,,,,0.0,1.0,1.0,0.0,0.0,1.0,1.0,0.0,219.4224445,,,,,,,,,219.41382658300063,220.61211062499933,221.4056896250004,221.39678574999925,221.39731637500157,221.4056896250004,221.4056896250004,221.4056896250004,222.4340432909994,,,,,,,,,,,,,,,,,,,,,,,,,,,,,,right,0.0,1.018220708003355,,,,,sub-207,1,random_dot,,
right,right,2.0,0.0,1.0,right,1.0,1.512003123996692,,accuracy,space,1.6481780409994826,,,,,,0.0,1.0,1.0,0.0,1.0,0.0,2.0,1.0,222.43981933300165,,,,,,,,,222.43448245800028,222.5319749160008,223.3328883329996,223.32444137499988,223.3251620830015,223.3328883329996,223.3328883329996,223.3328883329996,224.8486281250007,,,,,,,,,,,,,,,,,,,,,,,,,,,,,,right,1.0,1.512003123996692,,,,,sub-207,1,random_dot,,
left,left,3.0,1.0,1.0,left,1.0,0.9767940409983566,,accuracy,space,1.6481780409994826,,,,,,0.0,1.0,1.0,0.0,1.0,1.0,3.0,0.0,224.85649950000152,,,,,,,,,224.84909637500093,226.0468210830004,226.83906258299976,226.8304079160007,226.83094458300184,226.83906258299976,226.83906258299976,226.83906258299976,227.8249935410022,,,,,,,,,,,,,,,,,,,,,,,,,,,,,,left,1.0,0.9767940409983566,,,,,sub-207,1,random_dot,,
left,left,4.0,0.0,2.0,left,1.0,2.2048512490000576,,accuracy,space,1.6481780409994826,,,,,,0.0,1.0,1.0,0.0,2.0,0.0,4.0,0.0,227.8329874580013,,,,,,,,,227.82553025000016,229.01368116600133,229.8061402910025,229.79673312500017,229.7971875000003,229.8061402910025,229.8061402910025,229.8061402910025,232.01572458300143,,,,,,,,,,,,,,,,,,,,,,,,,,,,,,left,1.0,2.2048512490000576,,,,,sub-207,1,random_dot,,
right,right,5.0,1.0,2.0,right,1.0,1.2134868329994788,,accuracy,space,1.6481780409994826,,,,,,0.0,1.0,1.0,0.0,2.0,1.0,5.0,1.0,232.0238500830019,,,,,,,,,232.01619833299992,233.21369183299976,234.0159054579999,234.00769500000024,234.00840054100263,234.0159054579999,234.0159054579999,234.0159054579999,235.23215970800084,,,,,,,,,,,,,,,,,,,,,,,,,,,,,,right,1.0,1.2134868329994788,,,,,sub-207,1,random_dot,,
left,left,6.0,0.0,3.0,right,0.0,1.1448948750003185,,accuracy,space,1.6481780409994826,,,,,,0.0,1.0,1.0,0.0,3.0,0.0,6.0,0.0,235.24015845800025,,,,,,,,,235.2326567500022,236.0301832080004,236.8223993749998,236.8134667910017,236.81391529100077,236.8223993749998,236.8223993749998,236.8223993749998,237.97403920800207,,,,,,,,,,,,,,,,,,,,,,,,,,,,,,right,0.0,1.1448948750003185,,,,,sub-207,1,random_dot,,
right,right,7.0,1.0,3.0,right,1.0,2.744487832998857,,accuracy,space,1.6481780409994826,,,,,,0.0,1.0,1.0,0.0,3.0,1.0,7.0,1.0,237.98255900000004,,,,,,,,,237.97465137499967,239.16332233300272,239.956234958001,239.94708000000173,239.94751891600023,239.956234958001,239.956234958001,239.956234958001,242.7077959160015,,,,,,,,,,,,,,,,,,,,,,,,,,,,,,right,1.0,2.744487832998857,,,,,sub-207,1,random_dot,,
right,right,8.0,0.0,4.0,left,0.0,1.0531556240021018,,accuracy,space,1.6481780409994826,,,,,,0.0,1.0,1.0,0.0,4.0,0.0,8.0,1.0,242.71592570800203,,,,,,,,,242.70832366600007,243.89697304100264,244.68914212500025,244.68020945800163,244.6806504160013,244.68914212500025,244.68914212500025,244.68914212500025,245.74882745799917,,,,,,,,,,,,,,,,,,,,,,,,,,,,,,left,0.0,1.0531556240021018,,,,,sub-207,1,random_dot,,
left,left,9.0,1.0,4.0,right,0.0,1.1402962079991994,,accuracy,space,1.6481780409994826,,,,,,0.0,1.0,1.0,0.0,4.0,1.0,9.0,0.0,245.7565324580028,,,,,,,,,245.7492910410001,245.84687150000173,246.639526125,246.6298060830013,246.63048920800065,246.639526125,246.639526125,246.639526125,247.78105666600092,,,,,,,,,,,,,,,,,,,,,,,,,,,,,,right,0.0,1.1402962079991994,,,,,sub-207,1,random_dot,,
left,left,10.0,0.0,5.0,left,1.0,3.094870582001022,,accuracy,space,1.6481780409994826,,,,,,0.0,1.0,1.0,0.0,5.0,0.0,10.0,0.0,247.78928404100225,,,,,,,,,247.7814991660016,247.8800796659998,248.67227066600023,248.66341937499965,248.66394958300225,248.67227066600023,248.67227066600023,248.67227066600023,251.77533129100263,,,,,,,,,,,,,,,,,,,,,,,,,,,,,,left,1.0,3.094870582001022,,,,,sub-207,1,random_dot,,
right,right,11.0,1.0,5.0,right,1.0,2.411087290998694,,accuracy,space,1.6481780409994826,,,,,,0.0,1.0,1.0,0.0,5.0,1.0,11.0,1.0,251.78381675000128,,,,,,,,,251.7759896250027,252.1242176250016,252.9149714160012,252.9075453330006,252.9080292079998,252.9149714160012,252.9149714160012,252.9149714160012,255.3329811660005,,,,,,,,,,,,,,,,,,,,,,,,,,,,,,right,1.0,2.411087290998694,,,,,sub-207,1,random_dot,,
right,right,12.0,0.0,6.0,left,0.0,3.6459962490007456,,accuracy,space,1.6481780409994826,,,,,,0.0,1.0,1.0,0.0,6.0,0.0,12.0,1.0,255.3426903330001,,,,,,,,,255.33347041600064,256.5301550410004,257.3222906660012,257.31342383300216,257.31394962500053,257.3222906660012,257.3222906660012,257.3222906660012,260.97534749999977,,,,,,,,,,,,,,,,,,,,,,,,,,,,,,left,0.0,3.6459962490007456,,,,,sub-207,1,random_dot,,
left,left,13.0,1.0,6.0,right,0.0,2.840170957999362,,accuracy,space,1.6481780409994826,,,,,,0.0,1.0,1.0,0.0,6.0,1.0,13.0,0.0,260.98413820800124,,,,,,,,,260.97599020800044,261.77406387500014,262.56538154100053,262.55770691600264,262.5584227500003,262.56538154100053,262.56538154100053,262.56538154100053,265.40867012500166,,,,,,,,,,,,,,,,,,,,,,,,,,,,,,right,0.0,2.840170957999362,,,,,sub-207,1,random_dot,,
right,right,14.0,0.0,7.0,right,1.0,2.808106291002332,,accuracy,space,1.6481780409994826,,,,,,0.0,1.0,1.0,0.0,7.0,0.0,14.0,1.0,265.4175698750005,,,,,,,,,265.4093124579995,266.20733695799936,266.99862208299965,266.99112762500226,266.99179829100103,266.99862208299965,266.99862208299965,266.99862208299965,269.8191689580017,,,,,,,,,,,,,,,,,,,,,,,,,,,,,,right,1.0,2.808106291002332,,,,,sub-207,1,random_dot,,
left,left,15.0,1.0,7.0,right,0.0,1.1691611239984925,,accuracy,space,1.6481780409994826,,,,,,0.0,1.0,1.0,0.0,7.0,1.0,15.0,0.0,269.8401822500018,,,,,,,,,269.8196218330013,271.01368883300165,271.8072164580008,271.7964627910005,271.79689937500007,271.8072164580008,271.8072164580008,271.8072164580008,272.9815588750025,,,,,,,,,,,,,,,,,,,,,,,,,,,,,,right,0.0,1.1691611239984925,,,,,sub-207,1,random_dot,,
left,left,16.0,0.0,8.0,right,0.0,2.717947166001977,,accuracy,space,1.6481780409994826,,,,,,0.0,1.0,1.0,0.0,8.0,0.0,16.0,0.0,272.98974333300066,,,,,,,,,272.9820092910013,273.7800344580028,274.57233916599944,274.5637758330013,274.5643178749997,274.57233916599944,274.57233916599944,274.57233916599944,277.2922495000021,,,,,,,,,,,,,,,,,,,,,,,,,,,,,,right,0.0,2.717947166001977,,,,,sub-207,1,random_dot,,
right,right,17.0,1.0,8.0,left,0.0,3.332575165997696,,accuracy,space,1.6481780409994826,,,,,,0.0,1.0,1.0,0.0,8.0,1.0,17.0,1.0,277.3013117910013,,,,,,,,,277.2929172500008,277.6409294580008,278.4314776659994,278.4241842080009,278.42472633299985,278.4314776659994,278.4314776659994,278.4314776659994,281.76542537500063,,,,,,,,,,,,,,,,,,,,,,,,,,,,,,left,0.0,3.332575165997696,,,,,sub-207,1,random_dot,,
right,right,18.0,0.0,9.0,right,1.0,2.7024144160022843,,accuracy,space,1.6481780409994826,,,,,,0.0,1.0,1.0,0.0,9.0,0.0,18.0,1.0,281.7734345000026,,,,,,,,,281.765878000002,282.9634158750014,283.7555944580017,283.7465606250007,283.7470925410016,283.7555944580017,283.7555944580017,283.7555944580017,286.4646654160024,,,,,,,,,,,,,,,,,,,,,,,,,,,,,,right,1.0,2.7024144160022843,,,,,sub-207,1,random_dot,,
left,left,19.0,1.0,9.0,left,1.0,2.413506625001901,,accuracy,space,1.6481780409994826,,,,,,0.0,1.0,1.0,0.0,9.0,1.0,19.0,0.0,286.4726754580006,,,,,,,,,286.4651307910026,286.81323908299964,287.6063740000027,287.59656070799974,287.5969945830002,287.6063740000027,287.6063740000027,287.6063740000027,290.0247889580023,,,,,,,,,,,,,,,,,,,,,,,,,,,,,,left,1.0,2.413506625001901,,,,,sub-207,1,random_dot,,
right,right,20.0,0.0,10.0,right,1.0,1.2747495000003255,,accuracy,space,1.6481780409994826,,,,,,0.0,1.0,1.0,0.0,10.0,0.0,20.0,1.0,290.0332335000021,,,,,,,,,290.02529658300045,290.8134450409998,291.6060218750026,291.5967958330002,291.59732529100074,291.6060218750026,291.6060218750026,291.6060218750026,292.89205358300023,,,,,,,,,,,,,,,,,,,,,,,,,,,,,,right,1.0,1.2747495000003255,,,,,sub-207,1,random_dot,,
left,left,21.0,1.0,10.0,right,0.0,3.3119107080019603,,accuracy,space,1.6481780409994826,,,,,,0.0,1.0,1.0,0.0,10.0,1.0,21.0,0.0,292.90083595800024,,,,,,,,,292.8927144160007,292.9905658330026,293.7823634580018,293.7742680830015,293.7750091250018,293.7823634580018,293.7823634580018,293.7823634580018,297.0996629580004,,,,,,,,,,,,,,,,,,,,,,,,,,,,,,right,0.0,3.3119107080019603,,,,,sub-207,1,random_dot,,
left,left,22.0,0.0,11.0,left,1.0,1.1633122490020469,,accuracy,space,1.6481780409994826,,,,,,0.0,1.0,1.0,0.0,11.0,0.0,22.0,0.0,297.1090860830009,,,,,,,,,297.10013795800114,297.4461738329992,298.2486222080006,298.24088649999976,298.2414428330012,298.2486222080006,298.2486222080006,298.2486222080006,299.41550412500146,,,,,,,,,,,,,,,,,,,,,,,,,,,,,,left,1.0,1.1633122490020469,,,,,sub-207,1,random_dot,,
right,right,23.0,1.0,11.0,right,1.0,1.5875932499984629,,accuracy,space,1.6481780409994826,,,,,,0.0,1.0,1.0,0.0,11.0,1.0,23.0,1.0,299.4237227500016,,,,,,,,,299.41597937500046,299.5125549160002,300.30718287499985,300.2966430410015,300.29708991600273,300.30718287499985,300.30718287499985,300.30718287499985,301.89734820800004,,,,,,,,,,,,,,,,,,,,,,,,,,,,,,right,1.0,1.5875932499984629,,,,,sub-207,1,random_dot,,
left,left,24.0,0.0,12.0,left,1.0,1.025102915999014,,accuracy,space,1.6481780409994826,,,,,,0.0,1.0,1.0,0.0,12.0,0.0,24.0,0.0,301.9066301660023,,,,,,,,,301.8978173329997,302.696400416,303.48954204099937,303.4799776250002,303.4804587079998,303.48954204099937,303.48954204099937,303.48954204099937,304.5257476660008,,,,,,,,,,,,,,,,,,,,,,,,,,,,,,left,1.0,1.025102915999014,,,,,sub-207,1,random_dot,,
right,right,25.0,1.0,12.0,left,0.0,1.502096331998473,,accuracy,space,1.6481780409994826,,,,,,0.0,1.0,1.0,0.0,12.0,1.0,25.0,1.0,304.5346056660019,,,,,,,,,304.5263792910009,304.87377175000074,305.66564458300127,305.65769233299943,305.658391500001,305.66564458300127,305.66564458300127,305.66564458300127,307.17533266600003,,,,,,,,,,,,,,,,,,,,,,,,,,,,,,left,0.0,1.502096331998473,,,,,sub-207,1,random_dot,,
right,right,26.0,0.0,13.0,right,1.0,1.841626790999726,,accuracy,space,1.6481780409994826,,,,,,0.0,1.0,1.0,0.0,13.0,0.0,26.0,1.0,307.1842408750017,,,,,,,,,307.1759547910005,307.9740120410024,308.7650264160002,308.75752099999954,308.75808058300026,308.7650264160002,308.7650264160002,308.7650264160002,310.6170826250018,,,,,,,,,,,,,,,,,,,,,,,,,,,,,,right,1.0,1.841626790999726,,,,,sub-207,1,random_dot,,
left,left,27.0,1.0,13.0,left,1.0,1.6455805410005269,,accuracy,space,1.6481780409994826,,,,,,0.0,1.0,1.0,0.0,13.0,1.0,27.0,0.0,310.62245195799915,,,,,,,,,310.6175557080023,311.4132188330004,312.2060568750021,312.1966267909993,312.197056666002,312.2060568750021,312.2060568750021,312.2060568750021,313.8585630410016,,,,,,,,,,,,,,,,,,,,,,,,,,,,,,left,1.0,1.6455805410005269,,,,,sub-207,1,random_dot,,
left,left,28.0,0.0,14.0,left,1.0,1.706988291000016,,accuracy,space,1.6481780409994826,,,,,,0.0,1.0,1.0,0.0,14.0,0.0,28.0,0.0,313.8675260830023,,,,,,,,,313.85923883299984,314.2072020830019,314.99759116600035,314.99067408300107,314.9910642499999,314.99759116600035,314.99759116600035,314.99759116600035,316.70881637500133,,,,,,,,,,,,,,,,,,,,,,,,,,,,,,left,1.0,1.706988291000016,,,,,sub-207,1,random_dot,,
right,right,29.0,1.0,14.0,right,1.0,1.338902290997794,,accuracy,space,1.6481780409994826,,,,,,0.0,1.0,1.0,0.0,14.0,1.0,29.0,1.0,316.7188395830017,,,,,,,,,316.7096498329993,317.5075546250009,318.2994419580027,318.29087116600203,318.2916185409995,318.2994419580027,318.2994419580027,318.2994419580027,319.64035024999976,,,,,,,,,,,,,,,,,,,,,,,,,,,,,,right,1.0,1.338902290997794,,,,,sub-207,1,random_dot,,
right,right,30.0,0.0,15.0,left,0.0,1.6991296659980435,,accuracy,space,1.6481780409994826,,,,,,0.0,1.0,1.0,0.0,15.0,0.0,30.0,1.0,319.6492414580025,,,,,,,,,319.64085204100047,320.42978279100134,321.2222922910005,321.21437383300145,321.21482141600063,321.2222922910005,321.2222922910005,321.2222922910005,322.92493937499967,,,,,,,,,,,,,,,,,,,,,,,,,,,,,,left,0.0,1.6991296659980435,,,,,sub-207,1,random_dot,,
left,left,31.0,1.0,15.0,left,1.0,2.3885115409975697,,accuracy,space,1.6481780409994826,,,,,,0.0,1.0,1.0,0.0,15.0,1.0,31.0,0.0,322.93382708300123,,,,,,,,,322.9254686250024,323.27392108300046,324.0657267080024,324.05779283300217,324.0585399160009,324.0657267080024,324.0657267080024,324.0657267080024,326.4572070409995,,,,,,,,,,,,,,,,,,,,,,,,,,,,,,left,1.0,2.3885115409975697,,,,,sub-207,1,random_dot,,
left,left,32.0,0.0,16.0,right,0.0,1.953284581999469,,accuracy,space,1.6481780409994826,,,,,,0.0,1.0,1.0,0.0,16.0,0.0,32.0,0.0,326.46640679100165,,,,,,,,,326.45781700000225,326.79654983300134,327.588911791001,327.5803987500003,327.5809035830025,327.588911791001,327.588911791001,327.588911791001,329.5481867910021,,,,,,,,,,,,,,,,,,,,,,,,,,,,,,right,0.0,1.953284581999469,,,,,sub-207,1,random_dot,,
right,right,33.0,1.0,16.0,left,0.0,1.2850730829995882,,accuracy,space,1.6481780409994826,,,,,,0.0,1.0,1.0,0.0,16.0,1.0,33.0,1.0,329.5562768330019,,,,,,,,,329.5486608329993,330.74672775,331.538936500001,331.5303917500023,331.5309275,331.538936500001,331.538936500001,331.538936500001,332.83112945800167,,,,,,,,,,,,,,,,,,,,,,,,,,,,,,left,0.0,1.2850730829995882,,,,,sub-207,1,random_dot,,
right,right,34.0,0.0,17.0,right,1.0,1.3468763749988284,,accuracy,space,1.6481780409994826,,,,,,0.0,1.0,1.0,0.0,17.0,0.0,34.0,1.0,332.8391709160024,,,,,,,,,332.8316127500002,333.1802987500014,333.9722269580016,333.9637521250006,333.9642896250007,333.9722269580016,333.9722269580016,333.9722269580016,335.3235868330012,,,,,,,,,,,,,,,,,,,,,,,,,,,,,,right,1.0,1.3468763749988284,,,,,sub-207,1,random_dot,,
left,left,35.0,1.0,17.0,left,1.0,1.803020832001493,,accuracy,space,1.6481780409994826,,,,,,0.0,1.0,1.0,0.0,17.0,1.0,35.0,0.0,335.3320269579999,,,,,,,,,335.32406320800146,335.41393716600214,336.2160232080023,336.2077147500022,336.2084384160007,336.2160232080023,336.2160232080023,336.2160232080023,338.02366958300263,,,,,,,,,,,,,,,,,,,,,,,,,,,,,,left,1.0,1.803020832001493,,,,,sub-207,1,random_dot,,
left,left,36.0,0.0,18.0,left,1.0,1.6253598330004024,,accuracy,space,1.6481780409994826,,,,,,0.0,1.0,1.0,0.0,18.0,0.0,36.0,0.0,338.0322164999998,,,,,,,,,338.0241789160027,338.813128916001,339.6065381250009,339.5968627080001,339.59730679100176,339.6065381250009,339.6065381250009,339.6065381250009,341.2417540000024,,,,,,,,,,,,,,,,,,,,,,,,,,,,,,left,1.0,1.6253598330004024,,,,,sub-207,1,random_dot,,
right,right,37.0,1.0,18.0,right,1.0,1.1199281240005805,,accuracy,space,1.6481780409994826,,,,,,0.0,1.0,1.0,0.0,18.0,1.0,37.0,1.0,341.25048550000065,,,,,,,,,341.242276666002,342.4405007500027,343.2329297079996,343.2244040410005,343.2251468329996,343.2329297079996,343.2329297079996,343.2329297079996,344.3568114580012,,,,,,,,,,,,,,,,,,,,,,,,,,,,,,right,1.0,1.1199281240005805,,,,,sub-207,1,random_dot,,
left,left,38.0,0.0,19.0,left,1.0,1.4943367909982044,,accuracy,space,1.6481780409994826,,,,,,0.0,1.0,1.0,0.0,19.0,0.0,38.0,0.0,344.36521733300106,,,,,,,,,344.3572971659996,345.14650487499966,345.9474865410011,345.94075308299944,345.9411450410007,345.9474865410011,345.9474865410011,345.9474865410011,347.44909191600163,,,,,,,,,,,,,,,,,,,,,,,,,,,,,,left,1.0,1.4943367909982044,,,,,sub-207,1,random_dot,,
right,right,39.0,1.0,19.0,left,0.0,0.9418373739972594,,accuracy,space,1.6481780409994826,,,,,,0.0,1.0,1.0,0.0,19.0,1.0,39.0,1.0,347.47398266600067,,,,,,,,,347.4495592910025,347.546496166,348.338870333002,348.3300184159998,348.3304575410002,348.338870333002,348.338870333002,348.338870333002,349.291459125001,,,,,,,,,,,,,,,,,,,,,,,,,,,,,,left,0.0,0.9418373739972594,,,,,sub-207,1,random_dot,,
right,right,40.0,0.0,20.0,left,0.0,1.1234495410026284,,accuracy,space,1.6481780409994826,,,,,,0.0,1.0,1.0,0.0,20.0,0.0,40.0,1.0,349.2965867910025,,,,,,,,,349.29193045800275,350.47991629100216,351.27223858300204,351.2634837500009,351.26402000000235,351.27223858300204,351.27223858300204,351.27223858300204,352.39979083300204,,,,,,,,,,,,,,,,,,,,,,,,,,,,,,left,0.0,1.1234495410026284,,,,,sub-207,1,random_dot,,
left,left,41.0,1.0,20.0,left,1.0,0.8311232910018589,,accuracy,space,1.6481780409994826,,,,,,0.0,1.0,1.0,0.0,20.0,1.0,41.0,0.0,352.4090827910004,,,,,,,,,352.4002918750012,352.4967002910016,353.28950375000204,353.2800680830005,353.2805260000023,353.28950375000204,353.28950375000204,353.28950375000204,354.1248549580014,,,,,,,,,,,,,,,,,,,,,,,,,,,,,,left,1.0,0.8311232910018589,,,,,sub-207,1,random_dot,,
left,left,42.0,0.0,21.0,left,1.0,0.9883797490001598,,accuracy,space,1.6481780409994826,,,,,,0.0,1.0,1.0,0.0,21.0,0.0,42.0,0.0,354.13375437500144,,,,,,,,,354.12537362500007,355.32399983300274,356.1161999579999,356.10771391600065,356.10842312500245,356.1161999579999,356.1161999579999,356.1161999579999,357.10854870800176,,,,,,,,,,,,,,,,,,,,,,,,,,,,,,left,1.0,0.9883797490001598,,,,,sub-207,1,random_dot,,
right,right,43.0,1.0,21.0,left,0.0,3.521232750001218,,accuracy,space,1.6481780409994826,,,,,,0.0,1.0,1.0,0.0,21.0,1.0,43.0,1.0,357.11766137499944,,,,,,,,,357.10921962499924,357.90741550000166,358.6993951250006,358.6910945000018,358.69187025000065,358.6993951250006,358.6993951250006,358.6993951250006,362.2253347080005,,,,,,,,,,,,,,,,,,,,,,,,,,,,,,left,0.0,3.521232750001218,,,,,sub-207,1,random_dot,,
right,right,44.0,0.0,22.0,left,0.0,1.006265956999414,,accuracy,space,1.6481780409994826,,,,,,0.0,1.0,1.0,0.0,22.0,0.0,44.0,1.0,362.23447925000073,,,,,,,,,362.2259881659993,363.42386316600096,364.2160003749996,364.2077315000024,364.2084948750016,364.2160003749996,364.2160003749996,364.2160003749996,365.2240427500001,,,,,,,,,,,,,,,,,,,,,,,,,,,,,,left,0.0,1.006265956999414,,,,,sub-207,1,random_dot,,
left,left,45.0,1.0,22.0,left,1.0,0.8236204160020861,,accuracy,space,1.6481780409994826,,,,,,0.0,1.0,1.0,0.0,22.0,1.0,45.0,0.0,365.2330567909994,,,,,,,,,365.2246382500016,365.5632079999996,366.3555262910013,366.3465209999995,366.3470591250007,366.3555262910013,366.3555262910013,366.3555262910013,367.18182079100006,,,,,,,,,,,,,,,,,,,,,,,,,,,,,,left,1.0,0.8236204160020861,,,,,sub-207,1,random_dot,,
right,right,46.0,0.0,23.0,right,1.0,1.472847916000319,,accuracy,space,1.6481780409994826,,,,,,0.0,1.0,1.0,0.0,23.0,0.0,46.0,1.0,367.1902346250026,,,,,,,,,367.18229512499965,368.38074770800085,369.17216745800033,369.1634374999994,369.1639884159995,369.17216745800033,369.17216745800033,369.17216745800033,370.6484396660017,,,,,,,,,,,,,,,,,,,,,,,,,,,,,,right,1.0,1.472847916000319,,,,,sub-207,1,random_dot,,
left,left,47.0,1.0,23.0,right,0.0,1.8841603740002029,,accuracy,space,1.6481780409994826,,,,,,0.0,1.0,1.0,0.0,23.0,1.0,47.0,0.0,370.65684458300166,,,,,,,,,370.64890262500194,370.7468852910024,371.5388907080014,371.5305151249995,371.53105787499953,371.5388907080014,371.5388907080014,371.5388907080014,373.42534570800126,,,,,,,,,,,,,,,,,,,,,,,,,,,,,,right,0.0,1.8841603740002029,,,,,sub-207,1,random_dot,,
left,left,48.0,0.0,24.0,left,1.0,0.6527439999990747,,accuracy,space,1.6481780409994826,,,,,,0.0,1.0,1.0,0.0,24.0,0.0,48.0,0.0,373.4348142080016,,,,,,,,,373.4260670830008,374.22381162500096,375.0161570830023,375.00781025000106,375.008568958001,375.0161570830023,375.0161570830023,375.0161570830023,375.674965708,,,,,,,,,,,,,,,,,,,,,,,,,,,,,,left,1.0,0.6527439999990747,,,,,sub-207,1,random_dot,,
right,right,49.0,1.0,24.0,left,0.0,0.90857054099979,,accuracy,space,1.6481780409994826,,,,,,0.0,1.0,1.0,0.0,24.0,1.0,49.0,1.0,375.6840033750013,,,,,,,,,375.6758071660006,376.4737309160009,377.2652362910012,377.2574288329997,377.2579780410015,377.2652362910012,377.2652362910012,377.2652362910012,378.18615591600246,,,,,,,,,,,,,,,,,,,,,,,,,,,,,,left,0.0,0.90857054099979,,,,,sub-207,1,random_dot,,
left,left,50.0,0.0,25.0,left,1.0,0.6857347080003819,,accuracy,space,1.6481780409994826,,,,,,0.0,1.0,1.0,0.0,25.0,0.0,50.0,0.0,378.1916722080023,,,,,,,,,378.1866432080024,379.3792200829994,380.1721424999996,380.1634137910005,380.163955,380.1721424999996,380.1721424999996,380.1721424999996,380.86461600000257,,,,,,,,,,,,,,,,,,,,,,,,,,,,,,left,1.0,0.6857347080003819,,,,,sub-207,1,random_dot,,
right,right,51.0,1.0,25.0,right,1.0,0.9168298749973474,,accuracy,space,1.6481780409994826,,,,,,0.0,1.0,1.0,0.0,25.0,1.0,51.0,1.0,380.8729552500008,,,,,,,,,380.8650983330008,380.9659688749998,381.7659139160023,381.7577127500008,381.7584386660019,381.7659139160023,381.7659139160023,381.7659139160023,382.6916282500024,,,,,,,,,,,,,,,,,,,,,,,,,,,,,,right,1.0,0.9168298749973474,,,,,sub-207,1,random_dot,,
right,right,52.0,0.0,26.0,right,1.0,1.7576033740006096,,accuracy,space,1.6481780409994826,,,,,,0.0,1.0,1.0,0.0,26.0,0.0,52.0,1.0,382.7001720000008,,,,,,,,,382.6921537080016,383.8904012910025,384.6821244999992,384.6743072909994,384.675018291,384.6821244999992,384.6821244999992,384.6821244999992,386.4415031659992,,,,,,,,,,,,,,,,,,,,,,,,,,,,,,right,1.0,1.7576033740006096,,,,,sub-207,1,random_dot,,
left,left,53.0,1.0,26.0,left,1.0,1.1981837909988826,,accuracy,space,1.6481780409994826,,,,,,0.0,1.0,1.0,0.0,26.0,1.0,53.0,0.0,386.4500519579997,,,,,,,,,386.4420146660013,387.2404419580016,388.0315515000002,388.0240578330013,388.02463016600086,388.0315515000002,388.0315515000002,388.0315515000002,389.2326510410021,,,,,,,,,,,,,,,,,,,,,,,,,,,,,,left,1.0,1.1981837909988826,,,,,sub-207,1,random_dot,,
right,right,54.0,0.0,27.0,right,1.0,0.9884888330016112,,accuracy,space,1.6481780409994826,,,,,,0.0,1.0,1.0,0.0,27.0,0.0,54.0,1.0,389.2420325830026,,,,,,,,,389.2331149160018,390.42999475000033,391.22214633300246,391.2130932079999,391.2136148329992,391.22214633300246,391.22214633300246,391.22214633300246,392.21435579100216,,,,,,,,,,,,,,,,,,,,,,,,,,,,,,right,1.0,0.9884888330016112,,,,,sub-207,1,random_dot,,
left,left,55.0,1.0,27.0,left,1.0,0.6645471660012845,,accuracy,space,1.6481780409994826,,,,,,0.0,1.0,1.0,0.0,27.0,1.0,55.0,0.0,392.2227120410025,,,,,,,,,392.2148507910024,393.0134480000015,393.80600466599935,393.7966795409993,393.7971189160016,393.80600466599935,393.80600466599935,393.80600466599935,394.47518599999967,,,,,,,,,,,,,,,,,,,,,,,,,,,,,,left,1.0,0.6645471660012845,,,,,sub-207,1,random_dot,,
right,right,56.0,0.0,28.0,right,1.0,0.8871276659992873,,accuracy,space,1.6481780409994826,,,,,,0.0,1.0,1.0,0.0,28.0,0.0,56.0,1.0,394.4840844160026,,,,,,,,,394.47585241600245,395.67389445799927,396.46637791600006,396.4575234160002,396.45823595800175,396.46637791600006,396.46637791600006,396.46637791600006,397.3568720410003,,,,,,,,,,,,,,,,,,,,,,,,,,,,,,right,1.0,0.8871276659992873,,,,,sub-207,1,random_dot,,
left,left,57.0,1.0,28.0,left,1.0,1.1884412910003448,,accuracy,space,1.6481780409994826,,,,,,0.0,1.0,1.0,0.0,28.0,1.0,57.0,0.0,397.3652298330017,,,,,,,,,397.3573439579996,397.4464683330007,398.2400041250002,398.2293515830024,398.2300142080021,398.2400041250002,398.2400041250002,398.2400041250002,399.43282783299946,,,,,,,,,,,,,,,,,,,,,,,,,,,,,,left,1.0,1.1884412910003448,,,,,sub-207,1,random_dot,,
right,right,58.0,0.0,29.0,right,1.0,1.0386766660012654,,accuracy,space,1.6481780409994826,,,,,,0.0,1.0,1.0,0.0,29.0,0.0,58.0,1.0,399.4424135000008,,,,,,,,,399.4332991250012,400.6299923330007,401.4325640410025,401.42429337499925,401.4250099160017,401.4325640410025,401.4325640410025,401.4325640410025,402.4735182500008,,,,,,,,,,,,,,,,,,,,,,,,,,,,,,right,1.0,1.0386766660012654,,,,,sub-207,1,random_dot,,
left,left,59.0,1.0,29.0,left,1.0,0.8506150819994218,,accuracy,space,1.6481780409994826,,,,,,0.0,1.0,1.0,0.0,29.0,1.0,59.0,0.0,402.4818467080004,,,,,,,,,402.4740044579994,402.8137855410023,403.6056322080003,403.5966337909995,403.5970701250008,403.6056322080003,403.6056322080003,403.6056322080003,404.4681507080022,,,,,,,,,,,,,,,,,,,,,,,,,,,,,,left,1.0,0.8506150819994218,,,,,sub-207,1,random_dot,,
,,1.0,1.0,0.0,,,,,accuracy,space,1.6481780409994826,,,,,,0.0,1.0,1.0,0.0,,,,,,,,,,,,,,,,,,,,,,,,,,,,,,,,,,,,,,,,,,,,,,,,,,,,,,,,,,,sub-207,1,random_dot,,
,,,,,,,,,,,,,,,,,,,,,,,,,,,,,,,,,,,,,,,,,,,,,,,,,,,,,,,,,,,,,,,,,,,,,,,,,,,,404.4761107500017,404.483222875002,409.4739897910004,sub-207,1,random_dot,,
