direction,corrAns,thisN,thisTrialN,thisRepN,respDots.keys,respDots.corr,respDots.rt,respDots.duration,randomInstr,respRandomInstr.keys,respRandomInstr.rt,respRandomInstr.duration,practice_trials.thisRepN,practice_trials.thisTrialN,practice_trials.thisN,practice_trials.thisIndex,instr_trials.thisRepN,instr_trials.thisTrialN,instr_trials.thisN,instr_trials.thisIndex,test_trials.thisRepN,test_trials.thisTrialN,test_trials.thisN,test_trials.thisIndex,thisRow.t,notes,general_instruction.started,textGeneralInstr.started,respGeneralInstr.started,general_instruction.stopped,respGeneralInstr.keys,respGeneralInstr.rt,respGeneralInstr.duration,ITI.started,fixcross.started,fixcross.stopped,ITI.stopped,dots.started,backgroundDots.started,stimulusDots.started,respDots.started,dots.stopped,practice_trials.respDots.keys,practice_trials.respDots.corr,practice_trials.respDots.rt,practice_trials.respDots.duration,feedback.started,textFeedback.started,textFeedback.stopped,feedback.stopped,info.started,textInfo.started,keyRespInfo.started,info.stopped,keyRespInfo.keys,keyRespInfo.rt,keyRespInfo.duration,test_instruction.started,textTestInstr.started,respTestInstr.started,test_instruction.stopped,respTestInstr.keys,respTestInstr.rt,respTestInstr.duration,random_instruction.started,textRandomInstr.started,respRandomInstr.started,random_instruction.stopped,instr_trials.respRandomInstr.keys,instr_trials.respRandomInstr.rt,instr_trials.respRandomInstr.duration,test_trials.respDots.keys,test_trials.respDots.corr,test_trials.respDots.rt,test_trials.respDots.duration,stimulusDots.stopped,goodbye.started,textGoodbye.started,goodbye.stopped,participant,session,expName,frameRate,Unnamed: 87
,,,,,,,,,,,,,,,,,,,,,,,,,,,0.0098681250237859,0.0171840000257361,0.0171840000257361,7.174436125002103,space,7.103150667011505,,,,,,,,,,,,,,,,,,,,,,,,,,,,,,,,,,,,,,,,,,,,,,,,sub-131,1,random_dot,,
left,left,0.0,0.0,0.0,right,0.0,2.061226042016642,,,,,,0.0,0.0,0.0,0.0,,,,,,,,,7.1922847910027485,,,,,,,,,7.186054250021698,7.969606666010804,8.783559541014256,8.76183216602658,8.762371708027786,8.783559541014256,8.783559541014256,8.783559541014256,10.898215833003633,right,0.0,2.061226042016642,,10.902323083020748,10.91029912501108,11.402231915999437,11.39574525001808,,,,,,,,,,,,,,,,,,,,,,,,,,,,,,sub-131,1,random_dot,,
right,right,1.0,1.0,0.0,left,0.0,1.6533015409950167,,,,,,0.0,1.0,1.0,1.0,,,,,,,,,11.402231915999437,,,,,,,,,11.39624670802732,11.744489875010911,12.536755666020326,12.528662291006183,12.52915375001612,12.536755666020326,12.536755666020326,12.536755666020326,14.19605812500231,left,0.0,1.6533015409950167,,14.196179541002492,14.20510987500893,14.702128958015235,14.695431208005177,,,,,,,,,,,,,,,,,,,,,,,,,,,,,,sub-131,1,random_dot,,
right,right,2.0,0.0,1.0,right,1.0,1.2637209169915875,,,,,,1.0,0.0,2.0,1.0,,,,,,,,,14.702128958015235,,,,,,,,,14.69582312501734,14.785337708017323,15.577623958000911,15.568535250000425,15.569013958011055,15.577623958000911,15.577623958000911,15.577623958000911,16.84595316601917,right,1.0,1.2637209169915875,,16.851525750011206,16.86031670801458,17.351325916009955,17.345551666017855,,,,,,,,,,,,,,,,,,,,,,,,,,,,,,sub-131,1,random_dot,,
left,left,3.0,1.0,1.0,right,0.0,2.758128165995004,,,,,,1.0,1.0,3.0,0.0,,,,,,,,,17.351325916009955,,,,,,,,,17.345951541006798,17.694644250004785,18.48729583300883,18.478910583013203,18.479437500005588,18.48729583300883,18.48729583300883,18.48729583300883,21.253190875024305,right,0.0,2.758128165995004,,21.256302708003204,21.27243204100523,,21.761765250004828,,,,,,,,,,,,,,,,,,,,,,,,,,,,,,sub-131,1,random_dot,,
right,right,4.0,0.0,2.0,right,1.0,3.1912981659988877,,,,,,2.0,0.0,4.0,1.0,,,,,,,,,21.76698966600816,,,,,,,,,21.762155750009697,21.85029537501396,22.644337708014064,22.635932500008494,22.636496916005854,22.644337708014064,22.644337708014064,22.644337708014064,25.862735125003383,right,1.0,3.1912981659988877,,25.866186750005,25.87840441602748,26.36809137501405,26.36236720799934,,,,,,,,,,,,,,,,,,,,,,,,,,,,,,sub-131,1,random_dot,,
left,left,5.0,1.0,2.0,right,0.0,0.8355420000152662,,,,,,2.0,1.0,5.0,0.0,,,,,,,,,26.36809137501405,,,,,,,,,26.36277120801969,26.45196870801737,27.253758083010325,27.245751375012333,27.246222125017084,27.253758083010325,27.253758083010325,27.253758083010325,28.09638916602125,right,0.0,0.8355420000152662,,28.099520750023657,28.10837362500024,28.60160741599975,28.5958436250221,,,,,,,,,,,,,,,,,,,,,,,,,,,,,,sub-131,1,random_dot,,
left,left,6.0,0.0,3.0,left,1.0,1.7088180000137072,,,,,,3.0,0.0,6.0,0.0,,,,,,,,,28.60160741599975,,,,,,,,,28.5962335410004,29.79527779101045,30.58776237501297,30.57951250000042,30.580080958025064,30.58776237501297,30.58776237501297,30.58776237501297,32.303520083019976,left,1.0,1.7088180000137072,,32.30672091600718,32.315005958022084,32.811721416015644,32.8026003750274,,,,,,,,,,,,,,,,,,,,,,,,,,,,,,sub-131,1,random_dot,,
right,right,7.0,1.0,3.0,right,1.0,0.9103999169892631,,,,,,3.0,1.0,7.0,1.0,,,,,,,,,32.811721416015644,,,,,,,,,32.80300358301611,33.15184408301138,33.9541741660214,33.94596591600566,33.946413166006096,33.9541741660214,33.9541741660214,33.9541741660214,34.87014712500968,right,1.0,0.9103999169892631,,34.870254875015235,34.87813741600257,35.36864445800893,35.362860375025775,,,,,,,,,,,,,,,,,,,,,,,,,,,,,,sub-131,1,random_dot,,
left,left,8.0,0.0,4.0,left,1.0,1.093751083011739,,,,,,4.0,0.0,8.0,0.0,,,,,,,,,35.36864445800893,,,,,,,,,35.36324770801002,35.718482458003564,36.52069508301793,36.51271608300158,36.51317283301614,36.52069508301793,36.52069508301793,36.52069508301793,37.62039579101838,left,1.0,1.093751083011739,,37.62051200002316,37.629079083009856,38.118451375019504,38.11277295800392,,,,,,,,,,,,,,,,,,,,,,,,,,,,,,sub-131,1,random_dot,,
right,right,9.0,1.0,4.0,right,1.0,1.3032415839843452,,,,,,4.0,1.0,9.0,1.0,,,,,,,,,38.118451375019504,,,,,,,,,38.11313850001898,38.91862325000693,39.7111114160216,39.70273870800156,39.70327525000903,39.7111114160216,39.7111114160216,39.7111114160216,41.02048679100699,right,1.0,1.3032415839843452,,41.020600791001925,41.02919345800183,41.519089625013294,41.512899583001854,,,,,,,,,,,,,,,,,,,,,,,,,,,,,,sub-131,1,random_dot,,
left,left,10.0,0.0,5.0,right,0.0,1.0677108330128249,,,,,,5.0,0.0,10.0,0.0,,,,,,,,,41.519089625013294,,,,,,,,,41.51340175000951,41.618221750017256,42.41128187501454,42.40297929101507,42.40344175000792,42.41128187501454,42.41128187501454,42.41128187501454,43.48817766600405,right,0.0,1.0677108330128249,,43.491275541018695,43.49937970802421,43.99569800001336,43.98476520800614,,,,,,,,,,,,,,,,,,,,,,,,,,,,,,sub-131,1,random_dot,,
right,right,11.0,1.0,5.0,right,1.0,0.9570592920063064,,,,,,5.0,1.0,11.0,1.0,,,,,,,,,43.99569800001336,,,,,,,,,43.98520483300672,44.78544291600701,45.57847733300878,45.568993332999526,45.56948120801826,45.57847733300878,45.57847733300878,45.57847733300878,46.53767729102401,right,1.0,0.9570592920063064,,46.540876958024455,46.54909429102554,47.04565045802156,47.03485195801477,,,,,,,,,,,,,,,,,,,,,,,,,,,,,,sub-131,1,random_dot,,
right,right,12.0,0.0,6.0,right,1.0,1.2463130830146838,,,,,,6.0,0.0,12.0,1.0,,,,,,,,,47.04565045802156,,,,,,,,,47.03524320802535,48.23577454101178,49.028538750018924,49.01936125001521,49.0198130410281,49.028538750018924,49.028538750018924,49.028538750018924,50.280547166010365,right,1.0,1.2463130830146838,,50.280661416007206,50.28920829101117,50.78547879101825,50.77981795801316,,,,,,,,,,,,,,,,,,,,,,,,,,,,,,sub-131,1,random_dot,,
left,left,13.0,1.0,6.0,left,1.0,1.107818999997107,,,,,,6.0,1.0,13.0,0.0,,,,,,,,,50.78547879101825,,,,,,,,,50.78021500000614,51.12914491601987,51.9211518750235,51.91303183301352,51.91357070801314,51.9211518750235,51.9211518750235,51.9211518750235,53.03105991601478,left,1.0,1.107818999997107,,53.03117679100251,53.0396315830003,53.53555908301496,53.529825166013325,,,,,,,,,,,,,,,,,,,,,,,,,,,,,,sub-131,1,random_dot,,
left,left,14.0,0.0,7.0,right,0.0,0.757665791985346,,,,,,7.0,0.0,14.0,0.0,,,,,,,,,53.53555908301496,,,,,,,,,53.53021666602581,54.32934408300207,55.12204175000079,55.11366920801811,55.11428620800143,55.12204175000079,55.12204175000079,55.12204175000079,55.88730829101405,right,0.0,0.757665791985346,,55.8904177910008,55.8987543330004,56.395978541026125,56.385293916013325,,,,,,,,,,,,,,,,,,,,,,,,,,,,,,sub-131,1,random_dot,,
right,right,15.0,1.0,7.0,right,1.0,1.55590704199858,,,,,,7.0,1.0,15.0,1.0,,,,,,,,,56.395978541026125,,,,,,,,,56.3857144160138,56.73605058301473,57.53802762500709,57.530016708013136,57.53046200002427,57.53802762500709,57.53802762500709,57.53802762500709,59.09725854100543,right,1.0,1.55590704199858,,59.10039420801331,59.10927400001674,59.602285791013855,59.59657500000321,,,,,,,,,,,,,,,,,,,,,,,,,,,,,,sub-131,1,random_dot,,
left,left,16.0,0.0,8.0,left,1.0,1.4915668329922482,,,,,,8.0,0.0,16.0,0.0,,,,,,,,,59.602285791013855,,,,,,,,,59.59699516600813,60.39609745802591,61.18805908301147,61.17998454102781,61.18043775000842,61.18805908301147,61.18805908301147,61.18805908301147,62.68884433302446,left,1.0,1.4915668329922482,,62.688951500022085,62.69755929100211,63.195843083027285,63.18652900002781,,,,,,,,,,,,,,,,,,,,,,,,,,,,,,sub-131,1,random_dot,,
right,right,17.0,1.0,8.0,right,1.0,2.183292250003433,,,,,,8.0,1.0,17.0,1.0,,,,,,,,,63.195843083027285,,,,,,,,,63.186958208010765,63.986066750017926,64.78834820800694,64.78003820800222,64.78047079101088,64.78834820800694,64.78834820800694,64.78834820800694,66.9806242500199,right,1.0,2.183292250003433,,66.98073350000777,66.98907295800745,67.48600541602354,67.48014791600872,,,,,,,,,,,,,,,,,,,,,,,,,,,,,,sub-131,1,random_dot,,
left,left,18.0,0.0,9.0,left,1.0,1.2986567080079112,,,,,,9.0,0.0,18.0,0.0,,,,,,,,,67.48600541602354,,,,,,,,,67.48054225000669,67.57958762501949,68.37144075002288,68.3634742500144,68.36396137502743,68.37144075002288,68.37144075002288,68.37144075002288,69.681069666025,left,1.0,1.2986567080079112,,69.68119720800314,69.68974025000352,70.1860753330111,70.18031591601903,,,,,,,,,,,,,,,,,,,,,,,,,,,,,,sub-131,1,random_dot,,
right,right,19.0,1.0,9.0,left,0.0,0.993573165993439,,,,,,9.0,1.0,19.0,1.0,,,,,,,,,70.1860753330111,,,,,,,,,70.18071637500543,70.27968633300043,71.0716956660035,71.06356112501817,71.06401433300925,71.0716956660035,71.0716956660035,71.0716956660035,72.07131708302768,left,0.0,0.993573165993439,,72.0744729580183,72.08299179101596,72.5793458330154,72.5706273750111,,,,,,,,,,,,,,,,,,,,,,,,,,,,,,sub-131,1,random_dot,,
,,,,,,,,,,,,,,,,,,,,,,,,,,,,,,,,,,,,,,,,,,,,,,,,,,,72.5707983750035,72.5793458330154,72.5793458330154,74.65423466602806,space,2.072433417022694,,,,,,,,,,,,,,,,,,,,,,,,sub-131,1,random_dot,,
,,,,,,,,,,,,,,,,,,,,,,,,,,,,,,,,,,,,,,,,,,,,,,,,,,,,,,,,,,74.65431558300043,74.66547400000854,74.66547400000854,78.95500375001575,space,4.281964875000995,,,,,,,,,,,,,,,,,sub-131,1,random_dot,,
right,right,0.0,0.0,0.0,right,1.0,0.774617582996143,,accuracy,space,4.411559665983077,,,,,,0.0,0.0,0.0,0.0,0.0,0.0,0.0,1.0,83.41614066602779,,,,,,,,,83.4074587910145,83.4969760410022,84.28900475002592,84.28079329102184,84.28127154102549,84.28900475002592,84.28900475002592,84.28900475002592,85.07133275002707,,,,,,,,,,,,,,,,,,,,,,,78.97640866599977,78.98554975001025,78.98554975001025,83.39944787501008,space,4.411559665983077,,right,1.0,0.774617582996143,,,,,,sub-131,1,random_dot,,
left,left,1.0,1.0,0.0,right,0.0,1.1244543750071898,,accuracy,space,4.411559665983077,,,,,,0.0,0.0,0.0,0.0,0.0,1.0,1.0,0.0,85.07957991602598,,,,,,,,,85.0717321660195,86.27030695800204,87.0719379580114,87.06403120802133,87.0644903750217,87.0719379580114,87.0719379580114,87.0719379580114,88.19847716600634,,,,,,,,,,,,,,,,,,,,,,,,,,,,,,right,0.0,1.1244543750071898,,,,,,sub-131,1,random_dot,,
left,left,2.0,0.0,1.0,left,1.0,2.2799877079960424,,accuracy,space,4.411559665983077,,,,,,0.0,0.0,0.0,0.0,1.0,0.0,2.0,0.0,88.20656537500327,,,,,,,,,88.1988910830114,88.2969025830098,89.0888911660004,89.08087350000278,89.08132683302392,89.0888911660004,89.0888911660004,89.0888911660004,91.37266108300535,,,,,,,,,,,,,,,,,,,,,,,,,,,,,,left,1.0,2.2799877079960424,,,,,,sub-131,1,random_dot,,
right,right,3.0,1.0,1.0,right,1.0,1.5888921670266427,,accuracy,space,4.411559665983077,,,,,,0.0,0.0,0.0,0.0,1.0,1.0,3.0,1.0,91.39670941600345,,,,,,,,,91.37307087500812,92.5703069580195,93.3721869160072,93.36417450002044,93.36463495800854,93.3721869160072,93.3721869160072,93.3721869160072,94.9649250410148,,,,,,,,,,,,,,,,,,,,,,,,,,,,,,right,1.0,1.5888921670266427,,,,,,sub-131,1,random_dot,,
right,right,4.0,0.0,2.0,right,1.0,1.6294749160006177,,accuracy,space,4.411559665983077,,,,,,0.0,0.0,0.0,0.0,2.0,0.0,4.0,1.0,94.97311204101425,,,,,,,,,94.965336416004,96.16377941600511,96.955480833014,96.9476058750006,96.94805900001666,96.955480833014,96.955480833014,96.955480833014,98.5885629580007,,,,,,,,,,,,,,,,,,,,,,,,,,,,,,right,1.0,1.6294749160006177,,,,,,sub-131,1,random_dot,,
left,left,5.0,1.0,2.0,right,0.0,2.6284635000047274,,accuracy,space,4.411559665983077,,,,,,0.0,0.0,0.0,0.0,2.0,1.0,5.0,0.0,98.59726925002178,,,,,,,,,98.58898695802782,98.6875181250216,99.48990900002536,99.48106183300844,99.48159320800914,99.48990900002536,99.48990900002536,99.48990900002536,102.1222047500196,,,,,,,,,,,,,,,,,,,,,,,,,,,,,,right,0.0,2.6284635000047274,,,,,,sub-131,1,random_dot,,
left,left,6.0,0.0,3.0,left,1.0,1.11865695900633,,accuracy,space,4.411559665983077,,,,,,0.0,0.0,0.0,0.0,3.0,0.0,6.0,0.0,102.13020100002176,,,,,,,,,102.12260625002092,102.92069583301782,103.72354154102504,103.71501175002776,103.7156138330174,103.72354154102504,103.72354154102504,103.72354154102504,104.84856287500588,,,,,,,,,,,,,,,,,,,,,,,,,,,,,,left,1.0,1.11865695900633,,,,,,sub-131,1,random_dot,,
right,right,7.0,1.0,3.0,left,0.0,1.4788789999729488,,accuracy,space,4.411559665983077,,,,,,0.0,0.0,0.0,0.0,3.0,1.0,7.0,1.0,104.85684870800468,,,,,,,,,104.8489726250118,105.64742416600347,106.4390038330166,106.4311750830093,106.43161962501472,106.4390038330166,106.4390038330166,106.4390038330166,107.92212358300458,,,,,,,,,,,,,,,,,,,,,,,,,,,,,,left,0.0,1.4788789999729488,,,,,,sub-131,1,random_dot,,
right,right,8.0,0.0,4.0,left,0.0,1.3663480420073029,,accuracy,space,4.411559665983077,,,,,,0.0,0.0,0.0,0.0,4.0,0.0,8.0,1.0,107.93022250002832,,,,,,,,,107.9225314159994,108.7210509160068,109.52233700000215,109.5147093750129,109.5151708330086,109.52233700000215,109.52233700000215,109.52233700000215,110.89895125001205,,,,,,,,,,,,,,,,,,,,,,,,,,,,,,left,0.0,1.3663480420073029,,,,,,sub-131,1,random_dot,,
left,left,9.0,1.0,4.0,left,1.0,1.116193124995334,,accuracy,space,4.411559665983077,,,,,,0.0,0.0,0.0,0.0,4.0,1.0,9.0,0.0,110.90719612501562,,,,,,,,,110.89936341601424,112.0975861660263,112.88954212501994,112.88156520802296,112.88203529102611,112.88954212501994,112.88954212501994,112.88954212501994,114.015739208,,,,,,,,,,,,,,,,,,,,,,,,,,,,,,left,1.0,1.116193124995334,,,,,,sub-131,1,random_dot,,
left,left,10.0,0.0,5.0,left,1.0,0.9425557909999044,,accuracy,space,4.411559665983077,,,,,,0.0,0.0,0.0,0.0,5.0,0.0,10.0,0.0,114.02417587500533,,,,,,,,,114.01615495802253,115.214362291008,116.00644141601516,115.99831741600065,115.9988585410174,116.00644141601516,116.00644141601516,116.00644141601516,116.95573950000109,,,,,,,,,,,,,,,,,,,,,,,,,,,,,,left,1.0,0.9425557909999044,,,,,,sub-131,1,random_dot,,
right,right,11.0,1.0,5.0,left,0.0,1.2339455419860317,,accuracy,space,4.411559665983077,,,,,,0.0,0.0,0.0,0.0,5.0,1.0,11.0,1.0,116.96401412502746,,,,,,,,,116.95613904102356,117.3041871660098,118.10648329101969,118.0983160000178,118.09876645801704,118.10648329101969,118.10648329101969,118.10648329101969,119.34904091601491,,,,,,,,,,,,,,,,,,,,,,,,,,,,,,left,0.0,1.2339455419860317,,,,,,sub-131,1,random_dot,,
right,right,12.0,0.0,6.0,right,1.0,1.2982750840019437,,accuracy,space,4.411559665983077,,,,,,0.0,0.0,0.0,0.0,6.0,0.0,12.0,1.0,119.3571670000092,,,,,,,,,119.3494550830219,120.14789179101354,120.93972537500667,120.93159700001706,120.93203737502336,120.93972537500667,120.93972537500667,120.93972537500667,122.26505387501676,,,,,,,,,,,,,,,,,,,,,,,,,,,,,,right,1.0,1.2982750840019437,,,,,,sub-131,1,random_dot,,
left,left,13.0,1.0,6.0,right,0.0,1.5004180000105407,,accuracy,space,4.411559665983077,,,,,,0.0,0.0,0.0,0.0,6.0,1.0,13.0,0.0,122.28132100001676,,,,,,,,,122.26545179102686,122.3545785000024,123.14735925002606,123.13758695800789,123.13805308300653,123.14735925002606,123.14735925002606,123.14735925002606,124.650337708008,,,,,,,,,,,,,,,,,,,,,,,,,,,,,,right,0.0,1.5004180000105407,,,,,,sub-131,1,random_dot,,
right,right,14.0,0.0,7.0,right,1.0,1.512357500003418,,accuracy,space,4.411559665983077,,,,,,0.0,0.0,0.0,0.0,7.0,0.0,14.0,1.0,124.65882170802796,,,,,,,,,124.65083004100596,124.99801358301193,125.78929579100804,125.78170212500844,125.78215237500262,125.78929579100804,125.78929579100804,125.78929579100804,127.30615066600149,,,,,,,,,,,,,,,,,,,,,,,,,,,,,,right,1.0,1.512357500003418,,,,,,sub-131,1,random_dot,,
left,left,15.0,1.0,7.0,left,1.0,1.2468046249996405,,accuracy,space,4.411559665983077,,,,,,0.0,0.0,0.0,0.0,7.0,1.0,15.0,0.0,127.31408037501387,,,,,,,,,127.30654908300494,127.40522495802723,128.20622695802012,128.1987097080273,128.19918000002508,128.20622695802012,128.20622695802012,128.20622695802012,129.456428333011,,,,,,,,,,,,,,,,,,,,,,,,,,,,,,left,1.0,1.2468046249996405,,,,,,sub-131,1,random_dot,,
right,right,16.0,0.0,8.0,right,1.0,1.2928985000180546,,accuracy,space,4.411559665983077,,,,,,0.0,0.0,0.0,0.0,8.0,0.0,16.0,1.0,129.46444266600884,,,,,,,,,129.4568407080078,129.80474116600817,130.59674462501425,130.5885825830046,130.58904558300856,130.59674462501425,130.59674462501425,130.59674462501425,131.89936887501972,,,,,,,,,,,,,,,,,,,,,,,,,,,,,,right,1.0,1.2928985000180546,,,,,,sub-131,1,random_dot,,
left,left,17.0,1.0,8.0,left,1.0,1.0786047089786734,,accuracy,space,4.411559665983077,,,,,,0.0,0.0,0.0,0.0,8.0,1.0,17.0,0.0,131.90762408301816,,,,,,,,,131.89978708300623,131.99810270802118,132.79045825000503,132.78213233302813,132.78266370799977,132.79045825000503,132.79045825000503,132.79045825000503,133.8737559580186,,,,,,,,,,,,,,,,,,,,,,,,,,,,,,left,1.0,1.0786047089786734,,,,,,sub-131,1,random_dot,,
left,left,18.0,0.0,9.0,left,1.0,1.2451649160066154,,accuracy,space,4.411559665983077,,,,,,0.0,0.0,0.0,0.0,9.0,0.0,18.0,0.0,133.89784345802036,,,,,,,,,133.8741603330127,134.67133420801838,135.46424241602654,135.45466837502318,135.4551187500183,135.46424241602654,135.46424241602654,135.46424241602654,136.7163003750029,,,,,,,,,,,,,,,,,,,,,,,,,,,,,,left,1.0,1.2451649160066154,,,,,,sub-131,1,random_dot,,
right,right,19.0,1.0,9.0,left,0.0,2.96477204200346,,accuracy,space,4.411559665983077,,,,,,0.0,0.0,0.0,0.0,9.0,1.0,19.0,1.0,136.72465554100927,,,,,,,,,136.7167226250167,137.91498916601995,138.70816312500392,138.69969675000175,138.70030691602733,138.70816312500392,138.70816312500392,138.70816312500392,141.683014750015,,,,,,,,,,,,,,,,,,,,,,,,,,,,,,left,0.0,2.96477204200346,,,,,,sub-131,1,random_dot,,
right,right,20.0,0.0,10.0,left,0.0,1.83707766700536,,accuracy,space,4.411559665983077,,,,,,0.0,0.0,0.0,0.0,10.0,0.0,20.0,1.0,141.69145429102355,,,,,,,,,141.6834385410184,142.48169933300233,143.27383179101162,143.2656519160082,143.26610979100224,143.27383179101162,143.27383179101162,143.27383179101162,145.1166637080023,,,,,,,,,,,,,,,,,,,,,,,,,,,,,,left,0.0,1.83707766700536,,,,,,sub-131,1,random_dot,,
left,left,21.0,1.0,10.0,left,1.0,2.9282421249954496,,accuracy,space,4.411559665983077,,,,,,0.0,0.0,0.0,0.0,10.0,1.0,21.0,0.0,145.12506975000724,,,,,,,,,145.11707920802291,145.46514691601624,146.25722933301586,146.249142708024,146.24959570801002,146.25722933301586,146.25722933301586,146.25722933301586,149.19009266601643,,,,,,,,,,,,,,,,,,,,,,,,,,,,,,left,1.0,2.9282421249954496,,,,,,sub-131,1,random_dot,,
left,left,22.0,0.0,11.0,left,1.0,1.4532742500014135,,accuracy,space,4.411559665983077,,,,,,0.0,0.0,0.0,0.0,11.0,0.0,22.0,0.0,149.1980497080076,,,,,,,,,149.19049154102686,150.38875333301257,151.18138875000295,151.17199837500812,151.17246016600984,151.18138875000295,151.18138875000295,151.18138875000295,152.64017633302137,,,,,,,,,,,,,,,,,,,,,,,,,,,,,,left,1.0,1.4532742500014135,,,,,,sub-131,1,random_dot,,
right,right,23.0,1.0,11.0,right,1.0,2.585291916009737,,accuracy,space,4.411559665983077,,,,,,0.0,0.0,0.0,0.0,11.0,1.0,23.0,1.0,152.64825970801758,,,,,,,,,152.64058929102612,153.4385551250016,154.24046445800923,154.23276570800226,154.2332115410245,154.24046445800923,154.24046445800923,154.24046445800923,156.83325829100795,,,,,,,,,,,,,,,,,,,,,,,,,,,,,,right,1.0,2.585291916009737,,,,,,sub-131,1,random_dot,,
left,left,24.0,0.0,12.0,left,1.0,2.113170833006734,,accuracy,space,4.411559665983077,,,,,,0.0,0.0,0.0,0.0,12.0,0.0,24.0,0.0,156.84155637500226,,,,,,,,,156.83366216602735,157.632185208,158.42450662501506,158.4163784160046,158.41685858301935,158.42450662501506,158.42450662501506,158.42450662501506,160.54018441602238,,,,,,,,,,,,,,,,,,,,,,,,,,,,,,left,1.0,2.113170833006734,,,,,,sub-131,1,random_dot,,
right,right,25.0,1.0,12.0,right,1.0,2.195611083006952,,accuracy,space,4.411559665983077,,,,,,0.0,0.0,0.0,0.0,12.0,1.0,25.0,1.0,160.5484711250174,,,,,,,,,160.5405929160188,160.63903866600594,161.4308774160163,161.4228457910067,161.42333883300307,161.4308774160163,161.4308774160163,161.4308774160163,163.63337725002202,,,,,,,,,,,,,,,,,,,,,,,,,,,,,,right,1.0,2.195611083006952,,,,,,sub-131,1,random_dot,,
left,left,26.0,0.0,13.0,right,0.0,2.7745100840111263,,accuracy,space,4.411559665983077,,,,,,0.0,0.0,0.0,0.0,13.0,0.0,26.0,0.0,163.64169183300692,,,,,,,,,163.63379279102082,164.4323741250264,165.2245268750121,165.2163011250086,165.21676212502643,165.2245268750121,165.2245268750121,165.2245268750121,168.0011536660022,,,,,,,,,,,,,,,,,,,,,,,,,,,,,,right,0.0,2.7745100840111263,,,,,,sub-131,1,random_dot,,
right,right,27.0,1.0,13.0,right,1.0,2.983275542006595,,accuracy,space,4.411559665983077,,,,,,0.0,0.0,0.0,0.0,13.0,1.0,27.0,1.0,168.00967704100185,,,,,,,,,168.00156637502369,168.09930770800565,168.89070562500274,168.88311787502607,168.88357250002446,168.89070562500274,168.89070562500274,168.89070562500274,171.88391595802386,,,,,,,,,,,,,,,,,,,,,,,,,,,,,,right,1.0,2.983275542006595,,,,,,sub-131,1,random_dot,,
right,right,28.0,0.0,14.0,right,1.0,1.1686067080008795,,accuracy,space,4.411559665983077,,,,,,0.0,0.0,0.0,0.0,14.0,0.0,28.0,1.0,171.89224737501354,,,,,,,,,171.8843455830065,172.68261516600614,173.4745752500021,173.46649975000764,173.46696695801802,173.4745752500021,173.4745752500021,173.4745752500021,174.65080579102505,,,,,,,,,,,,,,,,,,,,,,,,,,,,,,right,1.0,1.1686067080008795,,,,,,sub-131,1,random_dot,,
left,left,29.0,1.0,14.0,right,0.0,0.8839687500149012,,accuracy,space,4.411559665983077,,,,,,0.0,0.0,0.0,0.0,14.0,1.0,29.0,0.0,174.65906883301795,,,,,,,,,174.65121358301258,175.84933945801458,176.64172137502464,176.63333287500427,176.6338703330257,176.64172137502464,176.64172137502464,176.64172137502464,177.53410100002657,,,,,,,,,,,,,,,,,,,,,,,,,,,,,,right,0.0,0.8839687500149012,,,,,,sub-131,1,random_dot,,
left,left,30.0,0.0,15.0,right,0.0,0.9369511250115464,,accuracy,space,4.411559665983077,,,,,,0.0,0.0,0.0,0.0,15.0,0.0,30.0,0.0,177.54237958299927,,,,,,,,,177.534512208018,177.88273637500242,178.67459229100496,178.6666381660034,178.66710812502424,178.67459229100496,178.67459229100496,178.67459229100496,179.6173067500058,,,,,,,,,,,,,,,,,,,,,,,,,,,,,,right,0.0,0.9369511250115464,,,,,,sub-131,1,random_dot,,
right,right,31.0,1.0,15.0,right,1.0,3.1727952910005115,,accuracy,space,4.411559665983077,,,,,,0.0,0.0,0.0,0.0,15.0,1.0,31.0,1.0,179.62536516602268,,,,,,,,,179.61771800002316,180.81609345800825,181.6080290829996,181.59997762501007,181.60042783300744,181.6080290829996,181.6080290829996,181.6080290829996,184.78433212501116,,,,,,,,,,,,,,,,,,,,,,,,,,,,,,right,1.0,3.1727952910005115,,,,,,sub-131,1,random_dot,,
right,right,32.0,0.0,16.0,left,0.0,2.8034806250070687,,accuracy,space,4.411559665983077,,,,,,0.0,0.0,0.0,0.0,16.0,0.0,32.0,1.0,184.79264775000047,,,,,,,,,184.7847503750236,185.5830240000214,186.37496312501025,186.36686087501585,186.367308875022,186.37496312501025,186.37496312501025,186.37496312501025,189.18441591601004,,,,,,,,,,,,,,,,,,,,,,,,,,,,,,left,0.0,2.8034806250070687,,,,,,sub-131,1,random_dot,,
left,left,33.0,1.0,16.0,right,0.0,1.4753445419773925,,accuracy,space,4.411559665983077,,,,,,0.0,0.0,0.0,0.0,16.0,1.0,33.0,0.0,189.1930682910024,,,,,,,,,189.18483945800108,189.53316137500224,190.32444550000943,190.31688554101856,190.3173453750205,190.32444550000943,190.32444550000943,190.32444550000943,191.8113836250268,,,,,,,,,,,,,,,,,,,,,,,,,,,,,,right,0.0,1.4753445419773925,,,,,,sub-131,1,random_dot,,
left,left,34.0,0.0,17.0,right,0.0,1.9690155829885043,,accuracy,space,4.411559665983077,,,,,,0.0,0.0,0.0,0.0,17.0,0.0,34.0,0.0,191.83255008302515,,,,,,,,,191.81180754100205,192.1565474160016,192.95853158301907,192.95053779101,192.9509897910175,192.95853158301907,192.95853158301907,192.95853158301907,194.9345033749996,,,,,,,,,,,,,,,,,,,,,,,,,,,,,,right,0.0,1.9690155829885043,,,,,,sub-131,1,random_dot,,
right,right,35.0,1.0,17.0,right,1.0,1.6403854170057457,,accuracy,space,4.411559665983077,,,,,,0.0,0.0,0.0,0.0,17.0,1.0,35.0,1.0,194.9432771660213,,,,,,,,,194.9349185830215,195.28323008300504,196.07614762501908,196.06769933301257,196.06831495801453,196.07614762501908,196.07614762501908,196.07614762501908,197.72569929101155,,,,,,,,,,,,,,,,,,,,,,,,,,,,,,right,1.0,1.6403854170057457,,,,,,sub-131,1,random_dot,,
left,left,36.0,0.0,18.0,left,1.0,3.268776666984195,,accuracy,space,4.411559665983077,,,,,,0.0,0.0,0.0,0.0,18.0,0.0,36.0,0.0,197.74959095800293,,,,,,,,,197.72610195801823,198.9234252910246,199.7254401250102,199.71737170801495,199.7178297500068,199.7254401250102,199.7254401250102,199.7254401250102,203.00144254101903,,,,,,,,,,,,,,,,,,,,,,,,,,,,,,left,1.0,3.268776666984195,,,,,,sub-131,1,random_dot,,
right,right,37.0,1.0,18.0,left,0.0,4.171161500009475,,accuracy,space,4.411559665983077,,,,,,0.0,0.0,0.0,0.0,18.0,1.0,37.0,1.0,203.0097741660138,,,,,,,,,203.00185820800837,203.10010962502565,203.89187645801576,203.8840365000069,203.88449108300847,203.89187645801576,203.89187645801576,203.89187645801576,208.06812208300107,,,,,,,,,,,,,,,,,,,,,,,,,,,,,,left,0.0,4.171161500009475,,,,,,sub-131,1,random_dot,,
right,right,38.0,0.0,19.0,left,0.0,3.549142167001264,,accuracy,space,4.411559665983077,,,,,,0.0,0.0,0.0,0.0,19.0,0.0,38.0,1.0,208.0764937500062,,,,,,,,,208.06854495801963,208.41676687501604,209.20894254100855,209.200949583028,209.20140950000496,209.20894254100855,209.20894254100855,209.20894254100855,212.7684308750031,,,,,,,,,,,,,,,,,,,,,,,,,,,,,,left,0.0,3.549142167001264,,,,,,sub-131,1,random_dot,,
left,left,39.0,1.0,19.0,right,0.0,1.853681292006513,,accuracy,space,4.411559665983077,,,,,,0.0,0.0,0.0,0.0,19.0,1.0,39.0,0.0,212.7767490830156,,,,,,,,,212.76884466601769,213.5672367910156,214.3598744160263,214.3510149159993,214.35150845799944,214.3598744160263,214.3598744160263,214.3598744160263,216.21829233301105,,,,,,,,,,,,,,,,,,,,,,,,,,,,,,right,0.0,1.853681292006513,,,,,,sub-131,1,random_dot,,
left,left,40.0,0.0,20.0,right,0.0,2.451779124996392,,accuracy,space,4.411559665983077,,,,,,0.0,0.0,0.0,0.0,20.0,0.0,40.0,0.0,216.226439125021,,,,,,,,,216.2187137910223,217.41722325002772,218.2090855410206,218.2011096660281,218.2015771250008,218.2090855410206,218.2090855410206,218.2090855410206,220.6685277080105,,,,,,,,,,,,,,,,,,,,,,,,,,,,,,right,0.0,2.451779124996392,,,,,,sub-131,1,random_dot,,
right,right,41.0,1.0,20.0,right,1.0,1.9738949999737088,,accuracy,space,4.411559665983077,,,,,,0.0,0.0,0.0,0.0,20.0,1.0,41.0,1.0,220.6768423330213,,,,,,,,,220.66895662501335,220.7673859160277,221.55956104100915,221.551438250026,221.5518947080127,221.55956104100915,221.55956104100915,221.55956104100915,223.53554429102223,,,,,,,,,,,,,,,,,,,,,,,,,,,,,,right,1.0,1.9738949999737088,,,,,,sub-131,1,random_dot,,
left,left,42.0,0.0,21.0,left,1.0,1.9999947079923004,,accuracy,space,4.411559665983077,,,,,,0.0,0.0,0.0,0.0,21.0,0.0,42.0,0.0,223.54365529102503,,,,,,,,,223.5359548330016,224.734115750005,225.5262687909999,225.5181348750193,225.5186670830008,225.5262687909999,225.5262687909999,225.5262687909999,227.535488583002,,,,,,,,,,,,,,,,,,,,,,,,,,,,,,left,1.0,1.9999947079923004,,,,,,sub-131,1,random_dot,,
right,right,43.0,1.0,21.0,right,1.0,3.0311772910063155,,accuracy,space,4.411559665983077,,,,,,0.0,0.0,0.0,0.0,21.0,1.0,43.0,1.0,227.54386033301125,,,,,,,,,227.535900916002,227.6341722910001,228.42632237501675,228.41832750002504,228.4188483330072,228.42632237501675,228.42632237501675,228.42632237501675,231.45971262501556,,,,,,,,,,,,,,,,,,,,,,,,,,,,,,right,1.0,3.0311772910063155,,,,,,sub-131,1,random_dot,,
right,right,44.0,0.0,22.0,right,1.0,1.7073655410204085,,accuracy,space,4.411559665983077,,,,,,0.0,0.0,0.0,0.0,22.0,0.0,44.0,1.0,231.48378529102771,,,,,,,,,231.46014395801467,231.5565809580148,232.35034154102323,232.34018279102747,232.3406265830272,232.35034154102323,232.35034154102323,232.35034154102323,234.059881083027,,,,,,,,,,,,,,,,,,,,,,,,,,,,,,right,1.0,1.7073655410204085,,,,,,sub-131,1,random_dot,,
left,left,45.0,1.0,22.0,left,1.0,1.7094533339841291,,accuracy,space,4.411559665983077,,,,,,0.0,0.0,0.0,0.0,22.0,1.0,45.0,0.0,234.0839602080232,,,,,,,,,234.06028466601856,234.85663987501172,235.65046916602296,235.64080912500503,235.6413389580266,235.65046916602296,235.65046916602296,235.65046916602296,237.3690593330248,,,,,,,,,,,,,,,,,,,,,,,,,,,,,,left,1.0,1.7094533339841291,,,,,,sub-131,1,random_dot,,
right,right,46.0,0.0,23.0,left,0.0,2.136605582985794,,accuracy,space,4.411559665983077,,,,,,0.0,0.0,0.0,0.0,23.0,0.0,46.0,1.0,237.37737920801737,,,,,,,,,237.36947816601605,238.1675697080209,238.95989450000343,238.95175641600508,238.952214000019,238.95989450000343,238.95989450000343,238.95989450000343,241.1024795830017,,,,,,,,,,,,,,,,,,,,,,,,,,,,,,left,0.0,2.136605582985794,,,,,,sub-131,1,random_dot,,
left,left,47.0,1.0,23.0,right,0.0,7.96282075002091,,accuracy,space,4.411559665983077,,,,,,0.0,0.0,0.0,0.0,23.0,1.0,47.0,0.0,241.11095937501523,,,,,,,,,241.1029160830076,242.30129245802527,243.09361487501883,243.08524787501665,243.0857914580265,243.09361487501883,243.09361487501883,243.09361487501883,251.0601500830089,,,,,,,,,,,,,,,,,,,,,,,,,,,,,,right,0.0,7.96282075002091,,248.0733628750022,,,,sub-131,1,random_dot,,
right,right,48.0,0.0,24.0,right,1.0,1.066208000003826,,accuracy,space,4.411559665983077,,,,,,0.0,0.0,0.0,0.0,24.0,0.0,48.0,1.0,251.0843815410044,,,,,,,,,251.06060970801627,251.40797975001624,252.21095533302287,252.20238075000816,252.20296741600032,252.21095533302287,252.21095533302287,252.21095533302287,253.2862032080011,,,,,,,,,,,,,,,,,,,,,,,,,,,,,,right,1.0,1.066208000003826,,,,,,sub-131,1,random_dot,,
left,left,49.0,1.0,24.0,left,1.0,1.570654791983543,,accuracy,space,4.411559665983077,,,,,,0.0,0.0,0.0,0.0,24.0,1.0,49.0,0.0,253.2946236660064,,,,,,,,,253.2866150410264,253.38476412501768,254.17689779101056,254.16892320802435,254.1694417500112,254.17689779101056,254.17689779101056,254.17689779101056,255.75287395800115,,,,,,,,,,,,,,,,,,,,,,,,,,,,,,left,1.0,1.570654791983543,,,,,,sub-131,1,random_dot,,
right,right,50.0,0.0,25.0,right,1.0,1.714954833005322,,accuracy,space,4.411559665983077,,,,,,0.0,0.0,0.0,0.0,25.0,0.0,50.0,1.0,255.7611323330202,,,,,,,,,255.75329458300257,255.8515468330006,256.6448480830004,256.6357477080019,256.6362660410232,256.6448480830004,256.6448480830004,256.6448480830004,258.36965875001624,,,,,,,,,,,,,,,,,,,,,,,,,,,,,,right,1.0,1.714954833005322,,,,,,sub-131,1,random_dot,,
left,left,51.0,1.0,25.0,right,0.0,1.3810844999970868,,accuracy,space,4.411559665983077,,,,,,0.0,0.0,0.0,0.0,25.0,1.0,51.0,0.0,258.37806712501333,,,,,,,,,258.37008612501086,259.56845841600443,260.3605561250006,260.35238029100583,260.3529194580042,260.3605561250006,260.3605561250006,260.3605561250006,261.74376379101886,,,,,,,,,,,,,,,,,,,,,,,,,,,,,,right,0.0,1.3810844999970868,,,,,,sub-131,1,random_dot,,
right,right,52.0,0.0,26.0,left,0.0,2.414920124982018,,accuracy,space,4.411559665983077,,,,,,0.0,0.0,0.0,0.0,26.0,0.0,52.0,1.0,261.7681207910064,,,,,,,,,261.7441675410082,261.8414184580033,262.6336401250155,262.62574933300493,262.6262161250052,262.6336401250155,262.6336401250155,262.6336401250155,265.05310775002,,,,,,,,,,,,,,,,,,,,,,,,,,,,,,left,0.0,2.414920124982018,,,,,,sub-131,1,random_dot,,
left,left,53.0,1.0,26.0,right,0.0,2.6579670830105897,,accuracy,space,4.411559665983077,,,,,,0.0,0.0,0.0,0.0,26.0,1.0,53.0,0.0,265.06140025000786,,,,,,,,,265.0535317080212,266.25197770801606,267.0440509580076,267.0359607080172,267.0364297910128,267.0440509580076,267.0440509580076,267.0440509580076,269.7142033750133,,,,,,,,,,,,,,,,,,,,,,,,,,,,,,right,0.0,2.6579670830105897,,,,,,sub-131,1,random_dot,,
right,right,54.0,0.0,27.0,right,1.0,1.0334915000130422,,accuracy,space,4.411559665983077,,,,,,0.0,0.0,0.0,0.0,27.0,0.0,54.0,1.0,269.7206020000158,,,,,,,,,269.7146123330167,269.8078319160268,270.6014004580211,270.5918414580228,270.59229950001463,270.6014004580211,270.6014004580211,270.6014004580211,271.6369576250145,,,,,,,,,,,,,,,,,,,,,,,,,,,,,,right,1.0,1.0334915000130422,,,,,,sub-131,1,random_dot,,
left,left,55.0,1.0,27.0,left,1.0,1.241567582997959,,accuracy,space,4.411559665983077,,,,,,0.0,0.0,0.0,0.0,27.0,1.0,55.0,0.0,271.6452448330237,,,,,,,,,271.6373733750079,272.43550570801017,273.22742308300803,273.2193688750267,273.2198187910253,273.22742308300803,273.22742308300803,273.22742308300803,274.4767122910125,,,,,,,,,,,,,,,,,,,,,,,,,,,,,,left,1.0,1.241567582997959,,,,,,sub-131,1,random_dot,,
left,left,56.0,0.0,28.0,left,1.0,1.718454624991864,,accuracy,space,4.411559665983077,,,,,,0.0,0.0,0.0,0.0,28.0,0.0,56.0,0.0,274.4848827080277,,,,,,,,,274.47711212502327,275.6758705830144,276.4673701660068,276.45918716600863,276.4596639580268,276.4673701660068,276.4673701660068,276.4673701660068,278.19338925002376,,,,,,,,,,,,,,,,,,,,,,,,,,,,,,left,1.0,1.718454624991864,,,,,,sub-131,1,random_dot,,
right,right,57.0,1.0,28.0,left,0.0,1.918717458989704,,accuracy,space,4.411559665983077,,,,,,0.0,0.0,0.0,0.0,28.0,1.0,57.0,1.0,278.20136629100307,,,,,,,,,278.19379312501405,278.542634958023,279.34417333302554,279.3361321250268,279.33660100001725,279.34417333302554,279.34417333302554,279.34417333302554,281.27014904102543,,,,,,,,,,,,,,,,,,,,,,,,,,,,,,left,0.0,1.918717458989704,,,,,,sub-131,1,random_dot,,
left,left,58.0,0.0,29.0,left,1.0,1.0801210409845226,,accuracy,space,4.411559665983077,,,,,,0.0,0.0,0.0,0.0,29.0,0.0,58.0,0.0,281.27863316601724,,,,,,,,,281.27057516601053,281.61908754101023,282.4110512500047,282.4029636250052,282.40342741602217,282.4110512500047,282.4110512500047,282.4110512500047,283.494201916008,,,,,,,,,,,,,,,,,,,,,,,,,,,,,,left,1.0,1.0801210409845226,,,,,,sub-131,1,random_dot,,
right,right,59.0,1.0,29.0,left,0.0,3.1076154170150403,,accuracy,space,4.411559665983077,,,,,,0.0,0.0,0.0,0.0,29.0,1.0,59.0,1.0,283.5022247910092,,,,,,,,,283.4945941250189,284.29249270801665,285.0947618330247,285.0862528750149,285.0867080000171,285.0947618330247,285.0947618330247,285.0947618330247,288.20451141602825,,,,,,,,,,,,,,,,,,,,,,,,,,,,,,left,0.0,3.1076154170150403,,,,,,sub-131,1,random_dot,,
,,0.0,0.0,0.0,,,,,accuracy,space,4.411559665983077,,,,,,0.0,0.0,0.0,0.0,,,,,,,,,,,,,,,,,,,,,,,,,,,,,,,,,,,,,,,,,,,,,,,,,,,,,,,,,,,,sub-131,1,random_dot,,
left,left,0.0,0.0,0.0,left,1.0,0.6507340419921093,,speed,space,3.712523207999766,,,,,,0.0,1.0,1.0,1.0,0.0,0.0,0.0,0.0,291.96111204102635,,,,,,,,,291.9524391660234,292.0418911250017,292.8355402080051,292.8250679160119,292.8254724580038,292.8355402080051,292.8355402080051,292.8355402080051,293.4980834160233,,,,,,,,,,,,,,,,,,,,,,,288.2196116250125,288.2277563330136,288.2277563330136,291.94411425001454,space,3.712523207999766,,left,1.0,0.6507340419921093,,,,,,sub-131,1,random_dot,,
right,right,1.0,1.0,0.0,left,0.0,1.135837666981388,,speed,space,3.712523207999766,,,,,,0.0,1.0,1.0,1.0,0.0,1.0,1.0,1.0,293.50348412501626,,,,,,,,,293.49848912502057,294.69307312500314,295.4953020000248,295.48693650000496,295.4874688750133,295.4953020000248,295.4953020000248,295.4953020000248,296.637315208005,,,,,,,,,,,,,,,,,,,,,,,,,,,,,,left,0.0,1.135837666981388,,,,,,sub-131,1,random_dot,,
left,left,2.0,0.0,1.0,right,0.0,0.530118083988782,,speed,space,3.712523207999766,,,,,,0.0,1.0,1.0,1.0,1.0,0.0,2.0,0.0,296.64568404102465,,,,,,,,,296.6377290410164,296.73600733300555,297.52741479102406,297.5197951250011,297.52026075002505,297.52741479102406,297.52741479102406,297.52741479102406,298.061049541022,,,,,,,,,,,,,,,,,,,,,,,,,,,,,,right,0.0,0.530118083988782,,,,,,sub-131,1,random_dot,,
right,right,3.0,1.0,1.0,left,0.0,0.347114459000295,,speed,space,3.712523207999766,,,,,,0.0,1.0,1.0,1.0,1.0,1.0,3.0,1.0,298.0690406250069,,,,,,,,,298.06145512501826,298.4091531660233,299.2022384160082,299.19263933302136,299.193027500005,299.2022384160082,299.2022384160082,299.2022384160082,299.55382666600053,,,,,,,,,,,,,,,,,,,,,,,,,,,,,,left,0.0,0.347114459000295,,,,,,sub-131,1,random_dot,,
right,right,4.0,0.0,2.0,left,0.0,0.8622614170017187,,speed,space,3.712523207999766,,,,,,0.0,1.0,1.0,1.0,2.0,0.0,4.0,1.0,299.56204108300153,,,,,,,,,299.5542217080074,300.3426932080183,301.1354016250116,301.1271807910234,301.12764874999993,301.1354016250116,301.1354016250116,301.1354016250116,302.0040626660048,,,,,,,,,,,,,,,,,,,,,,,,,,,,,,left,0.0,0.8622614170017187,,,,,,sub-131,1,random_dot,,
left,left,5.0,1.0,2.0,left,1.0,0.7709980829968117,,speed,space,3.712523207999766,,,,,,0.0,1.0,1.0,1.0,2.0,1.0,5.0,0.0,302.0123013750126,,,,,,,,,302.0044796660077,303.2029596659995,303.99481816601474,303.9868195000163,303.9872650410107,303.99481816601474,303.99481816601474,303.99481816601474,304.7708333330229,,,,,,,,,,,,,,,,,,,,,,,,,,,,,,left,1.0,0.7709980829968117,,,,,,sub-131,1,random_dot,,
left,left,6.0,0.0,3.0,left,1.0,1.005736082996009,,speed,space,3.712523207999766,,,,,,0.0,1.0,1.0,1.0,3.0,0.0,6.0,0.0,304.7790127500193,,,,,,,,,304.77124054101296,304.86976016600966,305.66134704102296,305.6535315000219,305.65399066600366,305.66134704102296,305.66134704102296,305.66134704102296,306.67110075001256,,,,,,,,,,,,,,,,,,,,,,,,,,,,,,left,1.0,1.005736082996009,,,,,,sub-131,1,random_dot,,
right,right,7.0,1.0,3.0,left,0.0,1.45782725000754,,speed,space,3.712523207999766,,,,,,0.0,1.0,1.0,1.0,3.0,1.0,7.0,1.0,306.6795317080105,,,,,,,,,306.67152429101407,306.76970287502627,307.56162108300487,307.5535470000177,307.55399579100776,307.56162108300487,307.56162108300487,307.56162108300487,309.0215573750029,,,,,,,,,,,,,,,,,,,,,,,,,,,,,,left,0.0,1.45782725000754,,,,,,sub-131,1,random_dot,,
left,left,8.0,0.0,4.0,right,0.0,1.1180117499898188,,speed,space,3.712523207999766,,,,,,0.0,1.0,1.0,1.0,4.0,0.0,8.0,0.0,309.02970687500783,,,,,,,,,309.0219664160104,309.8195693750167,310.6119819160085,310.6035726250266,310.60418320802273,310.6119819160085,310.6119819160085,310.6119819160085,311.73788066601264,,,,,,,,,,,,,,,,,,,,,,,,,,,,,,right,0.0,1.1180117499898188,,,,,,sub-131,1,random_dot,,
right,right,9.0,1.0,4.0,right,1.0,1.82693283300614,,speed,space,3.712523207999766,,,,,,0.0,1.0,1.0,1.0,4.0,1.0,9.0,1.0,311.7463177500176,,,,,,,,,311.73829487501644,312.0864789580228,312.8785102910188,312.87047062502825,312.8709182080056,312.8785102910188,312.8785102910188,312.8785102910188,314.7114353750076,,,,,,,,,,,,,,,,,,,,,,,,,,,,,,right,1.0,1.82693283300614,,,,,,sub-131,1,random_dot,,
right,right,10.0,0.0,5.0,right,1.0,0.696926042000996,,speed,space,3.712523207999766,,,,,,0.0,1.0,1.0,1.0,5.0,0.0,10.0,1.0,314.7194889160164,,,,,,,,,314.711836625007,314.80905270800577,315.6028246660135,315.5935451660189,315.594033500005,315.6028246660135,315.6028246660135,315.6028246660135,316.3044619160064,,,,,,,,,,,,,,,,,,,,,,,,,,,,,,right,1.0,0.696926042000996,,,,,,sub-131,1,random_dot,,
left,left,11.0,1.0,5.0,left,1.0,1.7410307909885887,,speed,space,3.712523207999766,,,,,,0.0,1.0,1.0,1.0,5.0,1.0,11.0,0.0,316.3128391250211,,,,,,,,,316.30485912502627,317.1033978330088,317.8955474579998,317.88736458300264,317.88782383300713,317.8955474579998,317.8955474579998,317.8955474579998,319.6386984160053,,,,,,,,,,,,,,,,,,,,,,,,,,,,,,left,1.0,1.7410307909885887,,,,,,sub-131,1,random_dot,,
left,left,12.0,0.0,6.0,left,1.0,1.6089702919998672,,speed,space,3.712523207999766,,,,,,0.0,1.0,1.0,1.0,6.0,0.0,12.0,0.0,319.6466280410241,,,,,,,,,319.63911333301803,320.8368698330014,321.6292438330129,321.62083229102427,321.6213586250087,321.6292438330129,321.6292438330129,321.6292438330129,323.24483675000374,,,,,,,,,,,,,,,,,,,,,,,,,,,,,,left,1.0,1.6089702919998672,,,,,,sub-131,1,random_dot,,
right,right,13.0,1.0,6.0,right,1.0,1.3323237909935417,,speed,space,3.712523207999766,,,,,,0.0,1.0,1.0,1.0,6.0,1.0,13.0,1.0,323.2529669580108,,,,,,,,,323.2452320830198,324.44333779101726,325.24533333300496,325.23755050002364,325.2379881660163,325.24533333300496,325.24533333300496,325.24533333300496,326.588276333001,,,,,,,,,,,,,,,,,,,,,,,,,,,,,,right,1.0,1.3323237909935417,,,,,,sub-131,1,random_dot,,
left,left,14.0,0.0,7.0,left,1.0,0.7940792499866802,,speed,space,3.712523207999766,,,,,,0.0,1.0,1.0,1.0,7.0,0.0,14.0,0.0,326.59636008300004,,,,,,,,,326.5886812500248,327.3870367500058,328.1786883750174,328.17088870800217,328.17135008302284,328.1786883750174,328.1786883750174,328.1786883750174,328.9785009580082,,,,,,,,,,,,,,,,,,,,,,,,,,,,,,left,1.0,0.7940792499866802,,,,,,sub-131,1,random_dot,,
right,right,15.0,1.0,7.0,left,0.0,1.685648082988337,,speed,space,3.712523207999766,,,,,,0.0,1.0,1.0,1.0,7.0,1.0,15.0,1.0,328.9866470410197,,,,,,,,,328.9788933330274,329.3269071250106,330.1291525410197,330.12098862501443,330.1214475410234,330.1291525410197,330.1291525410197,330.1291525410197,331.821880375006,,,,,,,,,,,,,,,,,,,,,,,,,,,,,,left,0.0,1.685648082988337,,,,,,sub-131,1,random_dot,,
left,left,16.0,0.0,8.0,left,1.0,1.27527895901585,,speed,space,3.712523207999766,,,,,,0.0,1.0,1.0,1.0,8.0,0.0,16.0,0.0,331.8302991660021,,,,,,,,,331.822298041021,331.9204837080033,332.7120410000207,332.70435487502255,332.7048168750189,332.7120410000207,332.7120410000207,332.7120410000207,333.9951157500036,,,,,,,,,,,,,,,,,,,,,,,,,,,,,,left,1.0,1.27527895901585,,,,,,sub-131,1,random_dot,,
right,right,17.0,1.0,8.0,left,0.0,1.8975855419994327,,speed,space,3.712523207999766,,,,,,0.0,1.0,1.0,1.0,8.0,1.0,17.0,1.0,334.00318200001493,,,,,,,,,333.995508041,335.1941267910006,335.9956957079994,335.9878650000028,335.9883197080053,335.9956957079994,335.9956957079994,335.9956957079994,337.8956238750252,,,,,,,,,,,,,,,,,,,,,,,,,,,,,,left,0.0,1.8975855419994327,,,,,,sub-131,1,random_dot,,
right,right,18.0,0.0,9.0,right,1.0,2.567495249997592,,speed,space,3.712523207999766,,,,,,0.0,1.0,1.0,1.0,9.0,0.0,18.0,1.0,337.9036596660153,,,,,,,,,337.89602045802167,338.24280112501583,339.0366722910257,339.026328958018,339.0268196660036,339.0366722910257,339.0366722910257,339.0366722910257,341.61624420800945,,,,,,,,,,,,,,,,,,,,,,,,,,,,,,right,1.0,2.567495249997592,,,,,,sub-131,1,random_dot,,
left,left,19.0,1.0,9.0,left,1.0,1.6539675410022028,,speed,space,3.712523207999766,,,,,,0.0,1.0,1.0,1.0,9.0,1.0,19.0,0.0,341.6223193750193,,,,,,,,,341.6166685410135,342.4102810000186,343.20350508301635,343.193221583002,343.1936970000097,343.20350508301635,343.20350508301635,343.20350508301635,344.86225912501686,,,,,,,,,,,,,,,,,,,,,,,,,,,,,,left,1.0,1.6539675410022028,,,,,,sub-131,1,random_dot,,
left,left,20.0,0.0,10.0,left,1.0,1.7674042919825297,,speed,space,3.712523207999766,,,,,,0.0,1.0,1.0,1.0,10.0,0.0,20.0,0.0,344.8704117080197,,,,,,,,,344.8626547080057,346.0609586250212,346.8629509580205,346.854780958005,346.85523529100465,346.8629509580205,346.8629509580205,346.8629509580205,348.6388687500148,,,,,,,,,,,,,,,,,,,,,,,,,,,,,,left,1.0,1.7674042919825297,,,,,,sub-131,1,random_dot,,
right,right,21.0,1.0,10.0,right,1.0,2.2044409579830244,,speed,space,3.712523207999766,,,,,,0.0,1.0,1.0,1.0,10.0,1.0,21.0,1.0,348.64737887500087,,,,,,,,,348.63928216602653,349.8376261660014,350.62980995801627,350.62152170800255,350.6219772080076,350.62980995801627,350.62980995801627,350.62980995801627,352.83876479102764,,,,,,,,,,,,,,,,,,,,,,,,,,,,,,right,1.0,2.2044409579830244,,,,,,sub-131,1,random_dot,,
left,left,22.0,0.0,11.0,right,0.0,2.424839375016745,,speed,space,3.712523207999766,,,,,,0.0,1.0,1.0,1.0,11.0,0.0,22.0,0.0,352.84702612500405,,,,,,,,,352.83917200000724,353.63757141600945,354.4298374580103,354.4216635000193,354.4221219580213,354.4298374580103,354.4298374580103,354.4298374580103,356.8625073750154,,,,,,,,,,,,,,,,,,,,,,,,,,,,,,right,0.0,2.424839375016745,,,,,,sub-131,1,random_dot,,
right,right,23.0,1.0,11.0,left,0.0,1.2205008750024715,,speed,space,3.712523207999766,,,,,,0.0,1.0,1.0,1.0,11.0,1.0,23.0,1.0,356.8706730410049,,,,,,,,,356.86289566601044,357.6610005410039,358.4540132910188,358.4441872500174,358.4446670830075,358.4540132910188,358.4540132910188,358.4540132910188,359.67934925001464,,,,,,,,,,,,,,,,,,,,,,,,,,,,,,left,0.0,1.2205008750024715,,,,,,sub-131,1,random_dot,,
left,left,24.0,0.0,12.0,left,1.0,1.450706125004217,,speed,space,3.712523207999766,,,,,,0.0,1.0,1.0,1.0,12.0,0.0,24.0,0.0,359.6873398750031,,,,,,,,,359.6797460410162,359.7760102910106,360.5707308750134,360.560244250024,360.56071000001975,360.5707308750134,360.5707308750134,360.5707308750134,362.0304364580079,,,,,,,,,,,,,,,,,,,,,,,,,,,,,,left,1.0,1.450706125004217,,,,,,sub-131,1,random_dot,,
right,right,25.0,1.0,12.0,right,1.0,2.100483542017173,,speed,space,3.712523207999766,,,,,,0.0,1.0,1.0,1.0,12.0,1.0,25.0,1.0,362.0541170830256,,,,,,,,,362.030831791024,363.2277955410245,364.0207573750231,364.01116916601313,364.0115950000181,364.0207573750231,364.0207573750231,364.0207573750231,366.1236152080237,,,,,,,,,,,,,,,,,,,,,,,,,,,,,,right,1.0,2.100483542017173,,,,,,sub-131,1,random_dot,,
left,left,26.0,0.0,13.0,left,1.0,1.6635001250251662,,speed,space,3.712523207999766,,,,,,0.0,1.0,1.0,1.0,13.0,0.0,26.0,0.0,366.13213375001214,,,,,,,,,366.1240326660045,367.3214481660106,368.1133482910227,368.1054358750116,368.1058965410048,368.1133482910227,368.1133482910227,368.1133482910227,369.77952600002754,,,,,,,,,,,,,,,,,,,,,,,,,,,,,,left,1.0,1.6635001250251662,,,,,,sub-131,1,random_dot,,
right,right,27.0,1.0,13.0,right,1.0,1.7226289169921074,,speed,space,3.712523207999766,,,,,,0.0,1.0,1.0,1.0,13.0,1.0,27.0,1.0,369.78774266602704,,,,,,,,,369.7799329580157,370.1278338750126,370.9204472910205,370.91202533300384,370.9125708750216,370.9204472910205,370.9204472910205,370.9204472910205,372.6465715410013,,,,,,,,,,,,,,,,,,,,,,,,,,,,,,right,1.0,1.7226289169921074,,,,,,sub-131,1,random_dot,,
left,left,28.0,0.0,14.0,left,1.0,2.6458510830125306,,speed,space,3.712523207999766,,,,,,0.0,1.0,1.0,1.0,14.0,0.0,28.0,0.0,372.6545598330267,,,,,,,,,372.64697016600985,373.84457966600894,374.6376579580247,374.6275187910069,374.62800837500254,374.6376579580247,374.6376579580247,374.6376579580247,377.28949504101183,,,,,,,,,,,,,,,,,,,,,,,,,,,,,,left,1.0,2.6458510830125306,,,,,,sub-131,1,random_dot,,
right,right,29.0,1.0,14.0,right,1.0,1.7333981670089995,,speed,space,3.712523207999766,,,,,,0.0,1.0,1.0,1.0,14.0,1.0,29.0,1.0,377.2978786660242,,,,,,,,,377.2899007500091,378.4883283750096,379.2803843330185,379.2723321250232,379.2728524160048,379.2803843330185,379.2803843330185,379.2803843330185,381.0230696250219,,,,,,,,,,,,,,,,,,,,,,,,,,,,,,right,1.0,1.7333981670089995,,,,,,sub-131,1,random_dot,,
right,right,30.0,0.0,15.0,right,1.0,2.3532032500079367,,speed,space,3.712523207999766,,,,,,0.0,1.0,1.0,1.0,15.0,0.0,30.0,1.0,381.0313781250152,,,,,,,,,381.0234773750126,382.2219537500059,383.0140837910003,383.0059799160226,383.0064253750024,383.0140837910003,383.0140837910003,383.0140837910003,385.3731247910182,,,,,,,,,,,,,,,,,,,,,,,,,,,,,,right,1.0,2.3532032500079367,,,,,,sub-131,1,random_dot,,
left,left,31.0,1.0,15.0,left,1.0,2.942830917018,,speed,space,3.712523207999766,,,,,,0.0,1.0,1.0,1.0,15.0,1.0,31.0,0.0,385.3816845830006,,,,,,,,,385.37352587500936,386.5718214580265,387.3644667910121,387.3562627500214,387.3568550830241,387.3644667910121,387.3644667910121,387.3644667910121,390.3134674580069,,,,,,,,,,,,,,,,,,,,,,,,,,,,,,left,1.0,2.942830917018,,,,,,sub-131,1,random_dot,,
left,left,32.0,0.0,16.0,left,1.0,1.823935958003858,,speed,space,3.712523207999766,,,,,,0.0,1.0,1.0,1.0,16.0,0.0,32.0,0.0,390.3216494580265,,,,,,,,,390.313877166016,390.6619650830107,391.4644753750181,391.4561855830252,391.45664712501457,391.4644753750181,391.4644753750181,391.4644753750181,393.290482625016,,,,,,,,,,,,,,,,,,,,,,,,,,,,,,left,1.0,1.823935958003858,,,,,,sub-131,1,random_dot,,
right,right,33.0,1.0,16.0,right,1.0,1.7050682500121184,,speed,space,3.712523207999766,,,,,,0.0,1.0,1.0,1.0,16.0,1.0,33.0,1.0,393.2964362500061,,,,,,,,,393.2909022910171,394.08873316601967,394.88079741600086,394.87281725002686,394.8732892910193,394.88079741600086,394.88079741600086,394.88079741600086,396.59014166600537,,,,,,,,,,,,,,,,,,,,,,,,,,,,,,right,1.0,1.7050682500121184,,,,,,sub-131,1,random_dot,,
left,left,34.0,0.0,17.0,right,0.0,1.6214277080143802,,speed,space,3.712523207999766,,,,,,0.0,1.0,1.0,1.0,17.0,0.0,34.0,0.0,396.59834979102015,,,,,,,,,396.5905481660157,396.6889747080277,397.4806384160184,397.4728183330153,397.4733080000151,397.4806384160184,397.4806384160184,397.4806384160184,399.10691000000224,,,,,,,,,,,,,,,,,,,,,,,,,,,,,,right,0.0,1.6214277080143802,,,,,,sub-131,1,random_dot,,
right,right,35.0,1.0,17.0,left,0.0,1.193785958981607,,speed,space,3.712523207999766,,,,,,0.0,1.0,1.0,1.0,17.0,1.0,35.0,1.0,399.1151996660046,,,,,,,,,399.1073412500264,399.4556790830102,400.24753550000605,400.2395693750004,400.2400469580025,400.24753550000605,400.24753550000605,400.24753550000605,401.44735862500966,,,,,,,,,,,,,,,,,,,,,,,,,,,,,,left,0.0,1.193785958981607,,,,,,sub-131,1,random_dot,,
left,left,36.0,0.0,18.0,right,0.0,1.0147449999931268,,speed,space,3.712523207999766,,,,,,0.0,1.0,1.0,1.0,18.0,0.0,36.0,0.0,401.4558902910212,,,,,,,,,401.4477590000024,401.54531941600726,402.3385753330076,402.329032041016,402.3294915410224,402.3385753330076,402.3385753330076,402.3385753330076,403.3569014160021,,,,,,,,,,,,,,,,,,,,,,,,,,,,,,right,0.0,1.0147449999931268,,,,,,sub-131,1,random_dot,,
right,right,37.0,1.0,18.0,left,0.0,1.5407801670080516,,speed,space,3.712523207999766,,,,,,0.0,1.0,1.0,1.0,18.0,1.0,37.0,1.0,403.36535200002254,,,,,,,,,403.3573012910201,403.45578108300106,404.2479872910189,404.239946583024,404.2404845000128,404.2479872910189,404.2479872910189,404.2479872910189,405.790863000002,,,,,,,,,,,,,,,,,,,,,,,,,,,,,,left,0.0,1.5407801670080516,,,,,,sub-131,1,random_dot,,
right,right,38.0,0.0,19.0,right,1.0,2.232867541984888,,speed,space,3.712523207999766,,,,,,0.0,1.0,1.0,1.0,19.0,0.0,38.0,1.0,405.7989260000177,,,,,,,,,405.7912688330107,406.9893024160119,407.7823102910188,407.7735990830115,407.7742121660267,407.7823102910188,407.7823102910188,407.7823102910188,410.02392662502825,,,,,,,,,,,,,,,,,,,,,,,,,,,,,,right,1.0,2.232867541984888,,,,,,sub-131,1,random_dot,,
left,left,39.0,1.0,19.0,left,1.0,1.201694832998328,,speed,space,3.712523207999766,,,,,,0.0,1.0,1.0,1.0,19.0,1.0,39.0,0.0,410.032387083018,,,,,,,,,410.02433050001855,411.22263625002233,412.01484933300526,412.00677487501525,412.0072290410171,412.01484933300526,412.01484933300526,412.01484933300526,413.22384533300647,,,,,,,,,,,,,,,,,,,,,,,,,,,,,,left,1.0,1.201694832998328,,,,,,sub-131,1,random_dot,,
right,right,40.0,0.0,20.0,right,1.0,2.4965265410137363,,speed,space,3.712523207999766,,,,,,0.0,1.0,1.0,1.0,20.0,0.0,40.0,1.0,413.2321197500278,,,,,,,,,413.2242677910253,413.32277295802487,414.1145261250204,414.1065535410016,414.106993666006,414.1145261250204,414.1145261250204,414.1145261250204,416.6143875000125,,,,,,,,,,,,,,,,,,,,,,,,,,,,,,right,1.0,2.4965265410137363,,,,,,sub-131,1,random_dot,,
left,left,41.0,1.0,20.0,left,1.0,1.3502400419965852,,speed,space,3.712523207999766,,,,,,0.0,1.0,1.0,1.0,20.0,1.0,41.0,0.0,416.6223695000226,,,,,,,,,416.6147841250058,416.9626376250235,417.76526425001794,417.7568744160235,417.75739529100247,417.76526425001794,417.76526425001794,417.76526425001794,419.124200708,,,,,,,,,,,,,,,,,,,,,,,,,,,,,,left,1.0,1.3502400419965852,,,,,,sub-131,1,random_dot,,
left,left,42.0,0.0,21.0,right,0.0,1.53545700001996,,speed,space,3.712523207999766,,,,,,0.0,1.0,1.0,1.0,21.0,0.0,42.0,0.0,419.1326393750205,,,,,,,,,419.1246111660148,419.2215847500193,420.0146690410038,420.0066420410003,420.0071625830024,420.0146690410038,420.0146690410038,420.0146690410038,421.5573866250052,,,,,,,,,,,,,,,,,,,,,,,,,,,,,,right,0.0,1.53545700001996,,,,,,sub-131,1,random_dot,,
right,right,43.0,1.0,21.0,right,1.0,1.729886292014271,,speed,space,3.712523207999766,,,,,,0.0,1.0,1.0,1.0,21.0,1.0,43.0,1.0,421.565716666024,,,,,,,,,421.5577979160007,422.3465409160126,423.13860095801647,423.1303293330129,423.13082562500495,423.13860095801647,423.13860095801647,423.13860095801647,424.8743355830084,,,,,,,,,,,,,,,,,,,,,,,,,,,,,,right,1.0,1.729886292014271,,,,,,sub-131,1,random_dot,,
right,right,44.0,0.0,22.0,right,1.0,1.8878824580169749,,speed,space,3.712523207999766,,,,,,0.0,1.0,1.0,1.0,22.0,0.0,44.0,1.0,424.8827865830099,,,,,,,,,424.874756041012,425.673116291,426.4652522910037,426.4571032080276,426.4576102080173,426.4652522910037,426.4652522910037,426.4652522910037,428.3576301660214,,,,,,,,,,,,,,,,,,,,,,,,,,,,,,right,1.0,1.8878824580169749,,,,,,sub-131,1,random_dot,,
left,left,45.0,1.0,22.0,right,0.0,1.244310667010723,,speed,space,3.712523207999766,,,,,,0.0,1.0,1.0,1.0,22.0,1.0,45.0,0.0,428.3658910410013,,,,,,,,,428.35803550001583,428.6966603750189,429.498434625013,429.4904346250114,429.49091216601664,429.498434625013,429.498434625013,429.498434625013,430.74815004100674,,,,,,,,,,,,,,,,,,,,,,,,,,,,,,right,0.0,1.244310667010723,,,,,,sub-131,1,random_dot,,
left,left,46.0,0.0,23.0,left,1.0,1.1045515419973526,,speed,space,3.712523207999766,,,,,,0.0,1.0,1.0,1.0,23.0,0.0,46.0,0.0,430.75670025,,,,,,,,,430.74855779102654,431.9453112910269,432.7392842500121,432.7292639160005,432.7297257500177,432.7392842500121,432.7392842500121,432.7392842500121,433.8482313330169,,,,,,,,,,,,,,,,,,,,,,,,,,,,,,left,1.0,1.1045515419973526,,,,,,sub-131,1,random_dot,,
right,right,47.0,1.0,23.0,left,0.0,2.23857504100306,,speed,space,3.712523207999766,,,,,,0.0,1.0,1.0,1.0,23.0,1.0,47.0,1.0,433.85644400000456,,,,,,,,,433.848630708002,434.196813541028,434.9894983750128,434.9802147080191,434.980692541023,434.9894983750128,434.9894983750128,434.9894983750128,437.2316226660041,,,,,,,,,,,,,,,,,,,,,,,,,,,,,,left,0.0,2.23857504100306,,,,,,sub-131,1,random_dot,,
left,left,48.0,0.0,24.0,right,0.0,1.804406000010204,,speed,space,3.712523207999766,,,,,,0.0,1.0,1.0,1.0,24.0,0.0,48.0,0.0,437.23973175001447,,,,,,,,,437.2320202500269,437.3320127500047,438.13175458300975,438.1239252500236,438.1243588330108,438.13175458300975,438.13175458300975,438.13175458300975,439.941365583014,,,,,,,,,,,,,,,,,,,,,,,,,,,,,,right,0.0,1.804406000010204,,,,,,sub-131,1,random_dot,,
right,right,49.0,1.0,24.0,right,1.0,1.0919071249954868,,speed,space,3.712523207999766,,,,,,0.0,1.0,1.0,1.0,24.0,1.0,49.0,1.0,439.9497650000267,,,,,,,,,439.94177062500967,440.2901444160088,441.0816057080228,441.0740477500076,441.0744830830081,441.0816057080228,441.0816057080228,441.0816057080228,442.1760757910088,,,,,,,,,,,,,,,,,,,,,,,,,,,,,,right,1.0,1.0919071249954868,,,,,,sub-131,1,random_dot,,
left,left,50.0,0.0,25.0,right,0.0,2.1256478749855887,,speed,space,3.712523207999766,,,,,,0.0,1.0,1.0,1.0,25.0,0.0,50.0,0.0,442.1841862910078,,,,,,,,,442.17649025001447,443.3735716660158,444.1653521250119,444.1573715000122,444.1578295000072,444.1653521250119,444.1653521250119,444.1653521250119,446.29841008302174,,,,,,,,,,,,,,,,,,,,,,,,,,,,,,right,0.0,2.1256478749855887,,,,,,sub-131,1,random_dot,,
right,right,51.0,1.0,25.0,right,1.0,1.0579867080086842,,speed,space,3.712523207999766,,,,,,0.0,1.0,1.0,1.0,25.0,1.0,51.0,1.0,446.30647583300015,,,,,,,,,446.298835625028,447.09709266602295,447.8996261660068,447.8912032500084,447.8917271660175,447.8996261660068,447.8996261660068,447.8996261660068,448.9651306250016,,,,,,,,,,,,,,,,,,,,,,,,,,,,,,right,1.0,1.0579867080086842,,,,,,sub-131,1,random_dot,,
left,left,52.0,0.0,26.0,left,1.0,1.807634500000859,,speed,space,3.712523207999766,,,,,,0.0,1.0,1.0,1.0,26.0,0.0,52.0,0.0,448.97314470802667,,,,,,,,,448.9655260410218,450.1632427080185,450.9566314580152,450.9484547500033,450.94892291602446,450.9566314580152,450.9566314580152,450.9566314580152,452.7750809999998,,,,,,,,,,,,,,,,,,,,,,,,,,,,,,left,1.0,1.807634500000859,,,,,,sub-131,1,random_dot,,
right,right,53.0,1.0,26.0,right,1.0,1.0442461660131812,,speed,space,3.712523207999766,,,,,,0.0,1.0,1.0,1.0,26.0,1.0,53.0,1.0,452.78341508301673,,,,,,,,,452.7754915410187,453.1239549160237,453.91557175002526,453.9078110410192,453.9082666660252,453.91557175002526,453.91557175002526,453.91557175002526,454.96533920802176,,,,,,,,,,,,,,,,,,,,,,,,,,,,,,right,1.0,1.0442461660131812,,,,,,sub-131,1,random_dot,,
right,right,54.0,0.0,27.0,right,1.0,1.8081739580084104,,speed,space,3.712523207999766,,,,,,0.0,1.0,1.0,1.0,27.0,0.0,54.0,1.0,454.97322620800696,,,,,,,,,454.9657303750282,455.3135950830183,456.1067845410144,456.09687816601945,456.0973410410225,456.1067845410144,456.1067845410144,456.1067845410144,457.9251613750239,,,,,,,,,,,,,,,,,,,,,,,,,,,,,,right,1.0,1.8081739580084104,,,,,,sub-131,1,random_dot,,
left,left,55.0,1.0,27.0,right,0.0,2.966951624985086,,speed,space,3.712523207999766,,,,,,0.0,1.0,1.0,1.0,27.0,1.0,55.0,0.0,457.9335280000232,,,,,,,,,457.9255602910125,459.12398462501005,459.9162149580079,459.9080430410104,459.90852250001626,459.9162149580079,459.9162149580079,459.9162149580079,462.8919686250156,,,,,,,,,,,,,,,,,,,,,,,,,,,,,,right,0.0,2.966951624985086,,,,,,sub-131,1,random_dot,,
left,left,56.0,0.0,28.0,right,0.0,1.6664189159928355,,speed,space,3.712523207999766,,,,,,0.0,1.0,1.0,1.0,28.0,0.0,56.0,0.0,462.90000208301353,,,,,,,,,462.8923839160125,463.2408260000229,464.03216095801326,464.02444058301626,464.0249073750165,464.03216095801326,464.03216095801326,464.03216095801326,465.7088756660232,,,,,,,,,,,,,,,,,,,,,,,,,,,,,,right,0.0,1.6664189159928355,,,,,,sub-131,1,random_dot,,
right,right,57.0,1.0,28.0,left,0.0,2.0889733330113813,,speed,space,3.712523207999766,,,,,,0.0,1.0,1.0,1.0,28.0,1.0,57.0,1.0,465.7171591660008,,,,,,,,,465.7092842500133,466.50772629102,467.2992661250173,467.291500375024,467.2919612910191,467.2992661250173,467.2992661250173,467.2992661250173,469.3921277080081,,,,,,,,,,,,,,,,,,,,,,,,,,,,,,left,0.0,2.0889733330113813,,,,,,sub-131,1,random_dot,,
right,right,58.0,0.0,29.0,right,1.0,2.2758519999915734,,speed,space,3.712523207999766,,,,,,0.0,1.0,1.0,1.0,29.0,0.0,58.0,1.0,469.4002572500031,,,,,,,,,469.392532916012,470.1909909160168,470.982948416,470.97489779102034,470.97535008302657,470.982948416,470.982948416,470.982948416,473.2661322080239,,,,,,,,,,,,,,,,,,,,,,,,,,,,,,right,1.0,2.2758519999915734,,,,,,sub-131,1,random_dot,,
left,left,59.0,1.0,29.0,right,0.0,2.021075416007079,,speed,space,3.712523207999766,,,,,,0.0,1.0,1.0,1.0,29.0,1.0,59.0,0.0,473.27406908301055,,,,,,,,,473.2665227079997,474.0646277910273,474.8572768750018,474.8480310830055,474.8485178750125,474.8572768750018,474.8572768750018,474.8572768750018,476.88312970800325,,,,,,,,,,,,,,,,,,,,,,,,,,,,,,right,0.0,2.021075416007079,,,,,,sub-131,1,random_dot,,
,,1.0,1.0,0.0,,,,,speed,space,3.712523207999766,,,,,,0.0,1.0,1.0,1.0,,,,,,,,,,,,,,,,,,,,,,,,,,,,,,,,,,,,,,,,,,,,,,,,,,,,,,,,,,,,sub-131,1,random_dot,,
,,,,,,,,,,,,,,,,,,,,,,,,,,,,,,,,,,,,,,,,,,,,,,,,,,,,,,,,,,,,,,,,,,,,,,,,,,,,,476.8896747500112,476.899118833011,481.8912795410142,sub-131,1,random_dot,,
