direction,corrAns,randomInstr,practice_trials.thisRepN,practice_trials.thisTrialN,practice_trials.thisN,practice_trials.thisIndex,instr_trials.thisRepN,instr_trials.thisTrialN,instr_trials.thisN,instr_trials.thisIndex,test_trials.thisRepN,test_trials.thisTrialN,test_trials.thisN,test_trials.thisIndex,thisRow.t,notes,general_instruction.started,textGeneralInstr.started,respGeneralInstr.started,general_instruction.stopped,respGeneralInstr.keys,respGeneralInstr.rt,respGeneralInstr.duration,ITI.started,fixcross.started,fixcross.stopped,ITI.stopped,dots.started,backgroundDots.started,stimulusDots.started,respDots.started,dots.stopped,respDots.keys,respDots.corr,respDots.rt,respDots.duration,feedback.started,textFeedback.started,feedback.stopped,textFeedback.stopped,info.started,textInfo.started,keyRespInfo.started,info.stopped,keyRespInfo.keys,keyRespInfo.rt,keyRespInfo.duration,test_instruction.started,textTestInstr.started,respTestInstr.started,test_instruction.stopped,respTestInstr.keys,respTestInstr.rt,respTestInstr.duration,random_instruction.started,textRandomInstr.started,respRandomInstr.started,random_instruction.stopped,respRandomInstr.keys,respRandomInstr.rt,respRandomInstr.duration,stimulusDots.stopped,goodbye.started,textGoodbye.started,goodbye.stopped,participant,session,expName,frameRate,Unnamed: 73
,,,,,,,,,,,,,,,,,0.0191469999263063,0.0308985000010579,0.0308985000010579,23.143793600029312,space,99.67117640003562,,,,,,,,,,,,,,,,,,,,,,,,,,,,,,,,,,,,,,,,,,,,sub-212,1.0,random_dot,60.06673413230875,
left,left,,0.0,0.0,0.0,0.0,,,,,,,,,23.189021899946965,,,,,,,,,23.18479279999156,23.257126900018196,24.05891519994475,24.040770099963996,24.040804799995385,24.05891519994475,24.05891519994475,24.05891519994475,25.890725399949588,left,1.0,78.39628780004568,,25.894309099996462,25.91730039997492,26.404297500033863,,,,,,,,,,,,,,,,,,,,,,,,,,,sub-212,1.0,random_dot,60.06673413230875,
right,right,,0.0,1.0,1.0,1.0,,,,,,,,,26.42086449998897,,,,,,,,,26.40463420003653,26.5039166000206,27.304429300013,27.28769709996413,27.287729499978013,27.304429300013,27.304429300013,27.304429300013,28.355217200005427,right,1.0,77.60894970002118,,28.356110099935904,28.369193200021986,28.85294619994238,28.86867759993765,,,,,,,,,,,,,,,,,,,,,,,,,,sub-212,1.0,random_dot,60.06673413230875,
left,left,,1.0,0.0,2.0,0.0,,,,,,,,,28.86867759993765,,,,,,,,,28.85356740001589,28.9686645999318,29.76872860000003,29.75153130001854,29.75154800002929,29.76872860000003,29.76872860000003,29.76872860000003,31.01833919994533,left,1.0,77.81217809999362,,31.01881529996172,31.03315879998263,31.51681069994811,31.532914399984293,,,,,,,,,,,,,,,,,,,,,,,,,,sub-212,1.0,random_dot,60.06673413230875,
right,right,,1.0,1.0,3.0,1.0,,,,,,,,,31.532914399984293,,,,,,,,,31.517132799956016,31.63280519994441,32.433120199944824,32.41625769995153,32.416306699975394,32.433120199944824,32.433120199944824,32.433120199944824,33.849883100017905,right,1.0,77.97290630009957,,33.85077729995828,33.86405750003178,34.34784389997367,34.363571299938485,,,,,,,,,,,,,,,,,,,,,,,,,,sub-212,1.0,random_dot,60.06673413230875,
right,right,,2.0,0.0,4.0,1.0,,,,,,,,,34.363571299938485,,,,,,,,,34.348487699986435,35.16277669998817,35.96309149998706,35.94636539998464,35.94639860000461,35.96309149998706,35.96309149998706,35.96309149998706,36.74739809997845,right,1.0,77.34786010009702,,36.74827069998719,36.76140950003173,37.24498499999754,37.26091650000308,,,,,,,,,,,,,,,,,,,,,,,,,,sub-212,1.0,random_dot,60.06673413230875,
left,left,,2.0,1.0,5.0,0.0,,,,,,,,,37.26091650000308,,,,,,,,,37.24562920001336,37.360778099973686,38.16116160003003,38.14413839997724,38.14417099999264,38.16116160003003,38.16116160003003,38.16116160003003,39.06172270001844,left,1.0,77.4614454000257,,39.06258619995788,39.075853399932384,39.55953690002207,39.5753626000369,,,,,,,,,,,,,,,,,,,,,,,,,,sub-212,1.0,random_dot,60.06673413230875,
left,left,,3.0,0.0,6.0,0.0,,,,,,,,,39.5753626000369,,,,,,,,,39.560143499984406,40.37676949996967,41.19145990000106,41.17479269998148,41.17482529999688,41.19145990000106,41.19145990000106,41.19145990000106,41.875412499997765,left,1.0,77.23461859999225,,41.87627859995701,41.8898844999494,42.37339620001149,42.38941900001373,,,,,,,,,,,,,,,,,,,,,,,,,,sub-212,1.0,random_dot,60.06673413230875,
right,right,,3.0,1.0,7.0,1.0,,,,,,,,,42.38941900001373,,,,,,,,,42.37390569993295,43.58823480003048,44.38847220002208,44.371785299968906,44.371820500004105,44.38847220002208,44.38847220002208,44.38847220002208,45.52186410001013,left,0.0,77.68841600010637,,45.52249000000302,45.53625330002978,46.02008329995442,46.03597780002747,,,,,,,,,,,,,,,,,,,,,,,,,,sub-212,1.0,random_dot,60.06673413230875,
left,left,,4.0,0.0,8.0,0.0,,,,,,,,,46.03597780002747,,,,,,,,,46.02070829994045,46.83523530000821,47.63546020002104,47.61844450002536,47.61847149999812,47.63546020002104,47.63546020002104,47.63546020002104,48.5533076999709,left,1.0,77.48345709999558,,48.55458639992867,48.574662099941634,49.0666108999867,,,,,,,,,,,,,,,,,,,,,,,,,,,sub-212,1.0,random_dot,60.06673413230875,
right,right,,4.0,1.0,9.0,1.0,,,,,,,,,49.08315910003148,,,,,,,,,49.06725219998043,50.26533999992535,51.06563760002609,51.04833699995652,51.048356399987824,51.06563760002609,51.06563760002609,51.06563760002609,51.93305200000759,left,0.0,77.42456489999313,,51.93385439994745,51.94701839995105,52.4308994000312,52.44657489995007,,,,,,,,,,,,,,,,,,,,,,,,,,sub-212,1.0,random_dot,60.06673413230875,
right,right,,5.0,0.0,10.0,1.0,,,,,,,,,52.44657489995007,,,,,,,,,52.43148010002915,53.645499099977314,54.44577939994633,54.42901189997792,54.42907359998208,54.44577939994633,54.44577939994633,54.44577939994633,55.51249530003406,right,1.0,77.62926740001421,,55.513052899972536,55.52701279998291,56.011004099971615,56.026590100023896,,,,,,,,,,,,,,,,,,,,,,,,,,sub-212,1.0,random_dot,60.06673413230875,
left,left,,5.0,1.0,11.0,0.0,,,,,,,,,56.026590100023896,,,,,,,,,56.01156090002041,56.82587890001014,57.62619159999304,57.609320499934256,57.609348100028,57.62619159999304,57.62619159999304,57.62619159999304,58.57680099993013,left,1.0,77.51366419997066,,58.577671400038525,58.59097110002767,59.07454669999424,59.09038950002287,,,,,,,,,,,,,,,,,,,,,,,,,,sub-212,1.0,random_dot,60.06673413230875,
right,right,,6.0,0.0,12.0,1.0,,,,,,,,,59.09038950002287,,,,,,,,,59.07514860003721,59.889638699940406,60.689921199926175,60.67313469992951,60.67316719994415,60.689921199926175,60.689921199926175,60.689921199926175,61.490541699924506,right,1.0,77.35160040005576,,61.49105449998751,61.5048135999823,61.98859710001853,62.004340399988,,,,,,,,,,,,,,,,,,,,,,,,,,sub-212,1.0,random_dot,60.06673413230875,
left,left,,6.0,1.0,13.0,0.0,,,,,,,,,62.004340399988,,,,,,,,,61.98921130003873,63.20326889993157,64.00346299994271,63.986615899950266,63.98665119998623,64.00346299994271,64.00346299994271,64.00346299994271,64.88737649994437,left,1.0,77.44084260007367,,64.88828489999287,64.90163600002415,65.38524929992855,65.40109299996402,,,,,,,,,,,,,,,,,,,,,,,,,,sub-212,1.0,random_dot,60.06673413230875,
left,left,,7.0,0.0,14.0,0.0,,,,,,,,,65.40109299996402,,,,,,,,,65.38574769999832,65.7508335999446,66.55116749997251,66.53417639993131,66.53419829998165,66.55116749997251,66.55116749997251,66.55116749997251,71.26471150002908,right,0.0,81.27418230008334,,71.26558629993815,71.27905080001801,71.76286869996693,71.77860429999419,,,,,,,,,,,,,,,,,,,,,,,,,,sub-212,1.0,random_dot,60.06673413230875,
right,right,,7.0,1.0,15.0,1.0,,,,,,,,,71.77860429999419,,,,,,,,,71.7635256999638,71.87843289994635,72.67875520000234,72.66191110003274,72.66194529994391,72.67875520000234,72.67875520000234,72.67875520000234,74.61560649995226,right,1.0,78.50294759997632,,74.61599880002905,74.62583989999257,75.10954650002532,75.12531839997973,,,,,,,,,,,,,,,,,,,,,,,,,,sub-212,1.0,random_dot,60.06673413230875,
right,right,,8.0,0.0,16.0,1.0,,,,,,,,,75.12531839997973,,,,,,,,,75.11004109994974,75.47496070002671,76.27559219999239,76.25853260001168,76.25856580003165,76.27559219999239,76.27559219999239,76.27559219999239,77.52536650002003,right,1.0,77.80014200008009,,77.52607100002933,77.53995749994647,78.02356679993682,78.03926610003691,,,,,,,,,,,,,,,,,,,,,,,,,,sub-212,1.0,random_dot,60.06673413230875,
left,left,,8.0,1.0,17.0,0.0,,,,,,,,,78.03926610003691,,,,,,,,,78.02399629994761,78.83857889997307,79.63888410001528,79.62209219997749,79.62212569999974,79.63888410001528,79.63888410001528,79.63888410001528,80.55639069993049,right,0.0,77.47664300003089,,80.55726169992704,80.57035369996447,81.05460899998434,81.06995119992644,,,,,,,,,,,,,,,,,,,,,,,,,,sub-212,1.0,random_dot,60.06673413230875,
right,right,,9.0,0.0,18.0,1.0,,,,,,,,,81.06995119992644,,,,,,,,,81.05558119993657,81.41951329994481,82.21969709999394,82.20298219996039,82.20300750003662,82.21969709999394,82.21969709999394,82.21969709999394,84.86855330003891,right,1.0,79.20575480000116,,84.86941919999663,84.88301699992735,85.36681099992711,85.38251669995952,,,,,,,,,,,,,,,,,,,,,,,,,,sub-212,1.0,random_dot,60.06673413230875,
left,left,,9.0,1.0,19.0,0.0,,,,,,,,,85.38251669995952,,,,,,,,,85.36775309999939,86.18175280001014,86.98183800000697,86.96519050002098,86.9652233000379,86.98183800000697,86.98183800000697,86.98183800000697,89.4312934000045,left,1.0,79.01478820003103,,89.43173780001234,89.44522510003299,89.92910269997083,89.94509009993635,,,,,,,,,,,,,,,,,,,,,,,,,,sub-212,1.0,random_dot,60.06673413230875,
,,,,,,,,,,,,,,,,,,,,,,,,,,,,,,,,,,,,,,,,,89.929197999998,89.94509009993635,89.94509009993635,93.04402090003714,space,79.66516009997576,,,,,,,,,,,,,,,,,,,,sub-212,1.0,random_dot,60.06673413230875,
,,,,,,,,,,,,,,,,,,,,,,,,,,,,,,,,,,,,,,,,,,,,,,,,93.04407069995068,93.05899209994824,93.05899209994824,98.97176999994554,space,82.47166290006135,,,,,,,,,,,,,sub-212,1.0,random_dot,60.06673413230875,
left,left,speed,,,,,0.0,0.0,0.0,1.0,0.0,0.0,0.0,0.0,103.167513399967,,,,,,,,,103.16285169997718,103.51770139997824,104.33234980003908,104.3155878999969,104.31562350003514,104.33234980003908,104.33234980003908,104.33234980003908,105.0332241000142,left,1.0,77.2536628000671,,,,,,,,,,,,,,,,,,,,98.97970709996298,99.00310949992854,99.00310949992854,103.15140229999088,space,80.71416790003423,,,,,,sub-212,1.0,random_dot,60.06673413230875,
right,right,speed,,,,,0.0,0.0,0.0,1.0,0.0,1.0,1.0,1.0,105.04736850003246,,,,,,,,,105.03539899992757,105.84672979998868,106.64708219992464,106.6297017999459,106.62972420000006,106.64708219992464,106.64708219992464,106.64708219992464,109.99537739995868,right,1.0,79.90391830005683,,,,,,,,,,,,,,,,,,,,,,,,,,,,,,,sub-212,1.0,random_dot,60.06673413230875,
left,left,speed,,,,,0.0,0.0,0.0,1.0,1.0,0.0,2.0,0.0,110.00939779996406,,,,,,,,,109.99712990003172,110.35889619996306,111.1593616999453,111.1425365000032,111.1425731999334,111.1593616999453,111.1593616999453,111.1593616999453,113.35836109996308,left,1.0,78.75279020005837,,,,,,,,,,,,,,,,,,,,,,,,,,,,,,,sub-212,1.0,random_dot,60.06673413230875,
right,right,speed,,,,,0.0,0.0,0.0,1.0,1.0,1.0,3.0,1.0,113.37292849994265,,,,,,,,,113.35954570001924,113.4728585999692,114.2732340999646,114.25639380002394,114.25642849993892,114.2732340999646,114.2732340999646,114.2732340999646,115.57364640000742,right,1.0,77.8660116000101,,,,,,,,,,,,,,,,,,,,,,,,,,,,,,,sub-212,1.0,random_dot,60.06673413230875,
left,left,speed,,,,,0.0,0.0,0.0,1.0,2.0,0.0,4.0,0.0,115.58750909997616,,,,,,,,,115.57537259999664,116.38679699995556,117.18696039996576,117.1703888999764,117.17042139999104,117.18696039996576,117.18696039996576,117.18696039996576,118.0707609000383,left,1.0,77.4486453999998,,,,,,,,,,,,,,,,,,,,,,,,,,,,,,,sub-212,1.0,random_dot,60.06673413230875,
right,right,speed,,,,,0.0,0.0,0.0,1.0,2.0,1.0,5.0,1.0,118.08511079999153,,,,,,,,,118.07206919998862,118.88440979993902,119.68465249997098,119.66793530003632,119.66796799993608,119.68465249997098,119.68465249997098,119.68465249997098,120.71861219999846,right,1.0,77.58738359995186,,,,,,,,,,,,,,,,,,,,,,,,,,,,,,,sub-212,1.0,random_dot,60.06673413230875,
right,right,speed,,,,,0.0,0.0,0.0,1.0,3.0,0.0,6.0,1.0,120.73268609994555,,,,,,,,,120.72050069994292,121.08251680003012,121.88270389998796,121.86588990001474,121.86592090001795,121.88270389998796,121.88270389998796,121.88270389998796,122.60001159994864,right,1.0,77.26934709993657,,,,,,,,,,,,,,,,,,,,,,,,,,,,,,,sub-212,1.0,random_dot,60.06673413230875,
left,left,speed,,,,,0.0,0.0,0.0,1.0,3.0,1.0,7.0,0.0,122.614407200017,,,,,,,,,122.60160589998122,122.96394169994164,123.76424059993587,123.74749670003077,123.74754100001884,123.76424059993587,123.76424059993587,123.76424059993587,124.66490889992563,left,1.0,77.45490570005495,,,,,,,,,,,,,,,,,,,,,,,,,,,,,,,sub-212,1.0,random_dot,60.06673413230875,
right,right,speed,,,,,0.0,0.0,0.0,1.0,4.0,0.0,8.0,1.0,124.67903360002674,,,,,,,,,124.66667780000716,124.77894650003871,125.57907320000233,125.56234569998924,125.56237089994828,125.57907320000233,125.57907320000233,125.57907320000233,127.22893769992515,right,1.0,78.21464140003081,,,,,,,,,,,,,,,,,,,,,,,,,,,,,,,sub-212,1.0,random_dot,60.06673413230875,
left,left,speed,,,,,0.0,0.0,0.0,1.0,4.0,1.0,9.0,0.0,127.24327119998634,,,,,,,,,127.23048209992704,127.59296859998722,128.39315419993363,128.37638469995,128.37642979994416,128.39315419993363,128.39315419993363,128.39315419993363,135.13843289995566,left,1.0,83.30359980009962,,,,,,,,,,,,,,,,,,,,,,,,,,,133.3884869000176,,,,sub-212,1.0,random_dot,60.06673413230875,
right,right,speed,,,,,0.0,0.0,0.0,1.0,5.0,0.0,10.0,1.0,135.15257050003856,,,,,,,,,135.1402378999628,135.50228310003877,136.3024125000229,136.28561539994553,136.28564739995636,136.3024125000229,136.3024125000229,136.3024125000229,137.75251180003397,right,1.0,78.01418970013037,,,,,,,,,,,,,,,,,,,,,,,,,,,,,,,sub-212,1.0,random_dot,60.06673413230875,
left,left,speed,,,,,0.0,0.0,0.0,1.0,5.0,1.0,11.0,0.0,137.7666224000277,,,,,,,,,137.75436629995238,138.5659671999747,139.36661739996634,139.34955179993997,139.34958929999266,139.36661739996634,139.36661739996634,139.36661739996634,140.28422549995594,left,1.0,77.46969250007533,,,,,,,,,,,,,,,,,,,,,,,,,,,,,,,sub-212,1.0,random_dot,60.06673413230875,
right,right,speed,,,,,0.0,0.0,0.0,1.0,6.0,0.0,12.0,1.0,140.2975787000032,,,,,,,,,140.28593489993364,140.64731789997313,141.4645290999906,141.45085949997883,141.4508856999455,141.4645290999906,141.4645290999906,141.4645290999906,142.26546879997477,right,1.0,77.35354780009948,,,,,,,,,,,,,,,,,,,,,,,,,,,,,,,sub-212,1.0,random_dot,60.06673413230875,
left,left,speed,,,,,0.0,0.0,0.0,1.0,6.0,1.0,13.0,0.0,142.2792203000281,,,,,,,,,142.26796969992574,142.62899699993432,143.42937269993126,143.41255809995346,143.41259750002064,143.42937269993126,143.42937269993126,143.42937269993126,144.0970471999608,left,1.0,77.21970080002211,,,,,,,,,,,,,,,,,,,,,,,,,,,,,,,sub-212,1.0,random_dot,60.06673413230875,
left,left,speed,,,,,0.0,0.0,0.0,1.0,7.0,0.0,14.0,0.0,144.11078699992504,,,,,,,,,144.09897169994656,144.46048739994876,145.26127210003324,145.24523899995256,145.24530840001535,145.26127210003324,145.26127210003324,145.26127210003324,146.0288409999339,left,1.0,77.31897699995898,,,,,,,,,,,,,,,,,,,,,,,,,,,,,,,sub-212,1.0,random_dot,60.06673413230875,
right,right,speed,,,,,0.0,0.0,0.0,1.0,7.0,1.0,15.0,1.0,146.04258160002064,,,,,,,,,146.0314737999579,146.14250730001368,146.9595395999495,146.942185999942,146.94220839999616,146.9595395999495,146.9595395999495,146.9595395999495,147.7607560999459,right,1.0,77.3555301000597,,,,,,,,,,,,,,,,,,,,,,,,,,,,,,,sub-212,1.0,random_dot,60.06673413230875,
left,left,speed,,,,,0.0,0.0,0.0,1.0,8.0,0.0,16.0,0.0,147.7740094999317,,,,,,,,,147.76334289996885,148.57324089994654,149.37381180003285,149.3567761000013,149.35681030002888,149.37381180003285,149.37381180003285,149.37381180003285,150.0241731000133,left,1.0,77.20533140003681,,,,,,,,,,,,,,,,,,,,,,,,,,,,,,,sub-212,1.0,random_dot,60.06673413230875,
right,right,speed,,,,,0.0,0.0,0.0,1.0,8.0,1.0,17.0,1.0,150.03865050000604,,,,,,,,,150.02533309999853,150.38838090002537,151.18829780002125,151.1711762000341,151.1711907000281,151.18829780002125,151.18829780002125,151.18829780002125,152.34012449998409,left,0.0,77.70250320003834,,,,,,,,,,,,,,,,,,,,,,,,,,,,,,,sub-212,1.0,random_dot,60.06673413230875,
right,right,speed,,,,,0.0,0.0,0.0,1.0,9.0,0.0,18.0,1.0,152.35343679995276,,,,,,,,,152.3431643999647,152.70270090003032,153.5030531999655,153.4860580000095,153.4860791999381,153.5030531999655,153.5030531999655,153.5030531999655,154.50284590001684,left,0.0,77.559594499995,,,,,,,,,,,,,,,,,,,,,,,,,,,,,,,sub-212,1.0,random_dot,60.06673413230875,
left,left,speed,,,,,0.0,0.0,0.0,1.0,9.0,1.0,19.0,0.0,154.51760210003704,,,,,,,,,154.50383029994555,154.6174896999728,155.4179899999872,155.401244699955,155.40127689996734,155.4179899999872,155.4179899999872,155.4179899999872,156.90062810003292,left,1.0,78.03699749999214,,,,,,,,,,,,,,,,,,,,,,,,,,,,,,,sub-212,1.0,random_dot,60.06673413230875,
right,right,speed,,,,,0.0,0.0,0.0,1.0,10.0,0.0,20.0,1.0,156.91564080002718,,,,,,,,,156.90143780002836,157.26521580002736,158.06533469993155,158.0484959000023,158.0485214999644,158.06533469993155,158.06533469993155,158.06533469993155,158.81592980003916,right,1.0,77.30671240005177,,,,,,,,,,,,,,,,,,,,,,,,,,,,,,,sub-212,1.0,random_dot,60.06673413230875,
left,left,speed,,,,,0.0,0.0,0.0,1.0,10.0,1.0,21.0,0.0,158.8303665999556,,,,,,,,,158.81731289997697,160.02930129994638,160.8294987999834,160.81266489997506,160.8126986999996,160.8294987999834,160.8294987999834,160.8294987999834,161.86340999999084,left,1.0,77.59143499995116,,,,,,,,,,,,,,,,,,,,,,,,,,,,,,,sub-212,1.0,random_dot,60.06673413230875,
right,right,speed,,,,,0.0,0.0,0.0,1.0,11.0,0.0,22.0,1.0,161.8774689999409,,,,,,,,,161.8650242999429,163.07661570003256,163.87679190002382,163.85987339995336,163.85991350002587,163.87679190002382,163.87679190002382,163.87679190002382,164.5273683000123,right,1.0,77.21186000003945,,,,,,,,,,,,,,,,,,,,,,,,,,,,,,,sub-212,1.0,random_dot,60.06673413230875,
left,left,speed,,,,,0.0,0.0,0.0,1.0,11.0,1.0,23.0,0.0,164.54160769993905,,,,,,,,,164.5288735999493,165.3410142000066,166.1411369999405,166.12917650002055,166.12920239998493,166.1411369999405,166.1411369999405,166.1411369999405,167.17490230000112,left,1.0,77.59019240003545,,,,,,,,,,,,,,,,,,,,,,,,,,,,,,,sub-212,1.0,random_dot,60.06673413230875,
right,right,speed,,,,,0.0,0.0,0.0,1.0,12.0,0.0,24.0,1.0,167.18951409996953,,,,,,,,,167.17643899994437,168.38815010001417,169.18838319997303,169.17218009999488,169.17221380001865,169.18838319997303,169.18838319997303,169.18838319997303,169.70513869996648,left,0.0,77.07037169998512,,,,,,,,,,,,,,,,,,,,,,,,,,,,,,,sub-212,1.0,random_dot,60.06673413230875,
left,left,speed,,,,,0.0,0.0,0.0,1.0,12.0,1.0,25.0,0.0,169.71999739995226,,,,,,,,,169.70593409996945,170.51946819992736,171.31995759997517,171.30290879996028,171.30293420003727,171.31995759997517,171.31995759997517,171.31995759997517,171.9878542999504,right,0.0,77.22998579998966,,,,,,,,,,,,,,,,,,,,,,,,,,,,,,,sub-212,1.0,random_dot,60.06673413230875,
right,right,speed,,,,,0.0,0.0,0.0,1.0,13.0,0.0,26.0,1.0,172.00144429993816,,,,,,,,,171.9896044000052,172.1013404999394,172.90149259997995,172.88475409999955,172.88480999995954,172.90149259997995,172.90149259997995,172.90149259997995,173.78535220003687,right,1.0,77.44251780002378,,,,,,,,,,,,,,,,,,,,,,,,,,,,,,,sub-212,1.0,random_dot,60.06673413230875,
left,left,speed,,,,,0.0,0.0,0.0,1.0,13.0,1.0,27.0,0.0,173.79958809993695,,,,,,,,,173.78672299999744,174.59892309992574,175.39916100003757,175.38241099996958,175.3824456000002,175.39916100003757,175.39916100003757,175.39916100003757,176.05057600000873,left,1.0,77.2103762999177,,,,,,,,,,,,,,,,,,,,,,,,,,,,,,,sub-212,1.0,random_dot,60.06673413230875,
left,left,speed,,,,,0.0,0.0,0.0,1.0,14.0,0.0,28.0,0.0,176.064322500024,,,,,,,,,176.05249309993815,176.16400939994492,176.9643405999523,176.94747659994755,176.94750919996295,176.9643405999523,176.9643405999523,176.9643405999523,177.63178179995157,left,1.0,77.21863320004195,,,,,,,,,,,,,,,,,,,,,,,,,,,,,,,sub-212,1.0,random_dot,60.06673413230875,
right,right,speed,,,,,0.0,0.0,0.0,1.0,14.0,1.0,29.0,1.0,177.64603229996283,,,,,,,,,177.6330156000331,178.44520550000016,179.24558290001005,179.22875479992945,179.22879229998216,179.24558290001005,179.24558290001005,179.24558290001005,180.2129571000114,right,1.0,77.51991989999078,,,,,,,,,,,,,,,,,,,,,,,,,,,,,,,sub-212,1.0,random_dot,60.06673413230875,
right,right,speed,,,,,0.0,0.0,0.0,1.0,15.0,0.0,30.0,1.0,180.22702959994783,,,,,,,,,180.21422159997744,181.026301200036,181.82643749995623,181.809767800034,181.809800399933,181.82643749995623,181.82643749995623,181.82643749995623,182.8274202999892,right,1.0,77.5636379000498,,,,,,,,,,,,,,,,,,,,,,,,,,,,,,,sub-212,1.0,random_dot,60.06673413230875,
left,left,speed,,,,,0.0,0.0,0.0,1.0,15.0,1.0,31.0,0.0,182.84128129994497,,,,,,,,,182.82939850003456,183.1910698999418,183.9911781999981,183.9742741000373,183.97430629993323,183.9911781999981,183.9911781999981,183.9911781999981,184.7086330000311,left,1.0,77.2782197999768,,,,,,,,,,,,,,,,,,,,,,,,,,,,,,,sub-212,1.0,random_dot,60.06673413230875,
left,left,speed,,,,,0.0,0.0,0.0,1.0,16.0,0.0,32.0,0.0,184.72284049994775,,,,,,,,,184.71024339995347,184.8228145999601,185.62293830001727,185.6063095999416,185.6063436999684,185.62293830001727,185.62293830001727,185.62293830001727,186.35739659995303,left,1.0,77.28967330011073,,,,,,,,,,,,,,,,,,,,,,,,,,,,,,,sub-212,1.0,random_dot,60.06673413230875,
right,right,speed,,,,,0.0,0.0,0.0,1.0,16.0,1.0,33.0,1.0,186.3712670999812,,,,,,,,,186.3594310999615,187.57009819999803,188.37057739996817,188.35341310000516,188.35343579994515,188.37057739996817,188.37057739996817,188.37057739996817,189.43668519996567,right,1.0,77.62002020003274,,,,,,,,,,,,,,,,,,,,,,,,,,,,,,,sub-212,1.0,random_dot,60.06673413230875,
left,left,speed,,,,,0.0,0.0,0.0,1.0,17.0,0.0,34.0,0.0,189.45169329992493,,,,,,,,,189.43758090003396,189.55168409994803,190.35171900002751,190.3347531999461,190.334777400014,190.35171900002751,190.35171900002751,190.35171900002751,190.9693469000049,left,1.0,77.1811030000681,,,,,,,,,,,,,,,,,,,,,,,,,,,,,,,sub-212,1.0,random_dot,60.06673413230875,
right,right,speed,,,,,0.0,0.0,0.0,1.0,17.0,1.0,35.0,1.0,190.98363469995093,,,,,,,,,190.97127869992983,191.0835659999866,191.88369089993648,191.86702789994888,191.86705470003653,191.88369089993648,191.88369089993648,191.88369089993648,192.5680810000049,right,1.0,77.23791250004433,,,,,,,,,,,,,,,,,,,,,,,,,,,,,,,sub-212,1.0,random_dot,60.06673413230875,
right,right,speed,,,,,0.0,0.0,0.0,1.0,18.0,0.0,36.0,1.0,192.5821419999702,,,,,,,,,192.56956780003384,193.36486339999828,194.1649723999435,194.14828309998848,194.1483167000115,194.1649723999435,194.1649723999435,194.1649723999435,194.79899999999907,right,1.0,77.18703160004225,,,,,,,,,,,,,,,,,,,,,,,,,,,,,,,sub-212,1.0,random_dot,60.06673413230875,
left,left,speed,,,,,0.0,0.0,0.0,1.0,18.0,1.0,37.0,0.0,194.8133638999425,,,,,,,,,194.8006917999592,196.01258400001095,196.82895180000924,196.81176950002555,196.8117839000188,196.82895180000924,196.82895180000924,196.82895180000924,198.17919609998356,left,1.0,77.90501700004097,,,,,,,,,,,,,,,,,,,,,,,,,,,,,,,sub-212,1.0,random_dot,60.06673413230875,
left,left,speed,,,,,0.0,0.0,0.0,1.0,19.0,0.0,38.0,0.0,198.1934237999376,,,,,,,,,198.18061749998012,198.54322430002503,199.34363709995523,199.326613000012,199.3266395999817,199.34363709995523,199.34363709995523,199.34363709995523,200.7267348000314,right,0.0,77.94029529998079,,,,,,,,,,,,,,,,,,,,,,,,,,,,,,,sub-212,1.0,random_dot,60.06673413230875,
right,right,speed,,,,,0.0,0.0,0.0,1.0,19.0,1.0,39.0,1.0,200.74115589994472,,,,,,,,,200.72807229997125,201.94001829996705,202.74014240002725,202.7233480999712,202.72337429993783,202.74014240002725,202.74014240002725,202.74014240002725,203.59128339996096,right,1.0,77.41180350002833,,,,,,,,,,,,,,,,,,,,,,,,,,,,,,,sub-212,1.0,random_dot,60.06673413230875,
right,right,speed,,,,,0.0,0.0,0.0,1.0,20.0,0.0,40.0,1.0,203.6051846999908,,,,,,,,,203.5930721999612,204.8040587999858,205.6042216999922,205.5872723000357,205.5872936999658,205.6042216999922,205.6042216999922,205.6042216999922,206.40498350001872,right,1.0,77.36256359994877,,,,,,,,,,,,,,,,,,,,,,,,,,,,,,,sub-212,1.0,random_dot,60.06673413230875,
left,left,speed,,,,,0.0,0.0,0.0,1.0,20.0,1.0,41.0,0.0,206.419094700017,,,,,,,,,206.40671639994247,207.2229449999286,208.03537219995636,208.0185913000023,208.01862430002075,208.03537219995636,208.03537219995636,208.03537219995636,209.46853529999495,left,1.0,77.98458920011763,,,,,,,,,,,,,,,,,,,,,,,,,,,,,,,sub-212,1.0,random_dot,60.06673413230875,
right,right,speed,,,,,0.0,0.0,0.0,1.0,21.0,0.0,42.0,1.0,209.4830668999348,,,,,,,,,209.46991590003017,209.8327033999376,210.63285239995457,210.61618120002092,210.6162133000325,210.63285239995457,210.63285239995457,210.63285239995457,211.53373229992576,left,0.0,77.46583989995997,,,,,,,,,,,,,,,,,,,,,,,,,,,,,,,sub-212,1.0,random_dot,60.06673413230875,
left,left,speed,,,,,0.0,0.0,0.0,1.0,21.0,1.0,43.0,0.0,211.547726699966,,,,,,,,,211.53545229998417,212.74665690003891,213.54699950001668,213.5298703999724,213.5298867999809,213.54699950001668,213.54699950001668,213.54699950001668,214.7138207999524,right,0.0,77.72281370009296,,,,,,,,,,,,,,,,,,,,,,,,,,,,,,,sub-212,1.0,random_dot,60.06673413230875,
left,left,speed,,,,,0.0,0.0,0.0,1.0,22.0,0.0,44.0,0.0,214.7280762000009,,,,,,,,,214.7152768999804,215.92695370002184,216.7271422999911,216.7104058000259,216.71044009993784,216.7271422999911,216.7271422999911,216.7271422999911,217.44416199997067,left,1.0,77.2803877000697,,,,,,,,,,,,,,,,,,,,,,,,,,,,,,,sub-212,1.0,random_dot,60.06673413230875,
right,right,speed,,,,,0.0,0.0,0.0,1.0,22.0,1.0,45.0,1.0,217.45890670001967,,,,,,,,,217.44504459993917,218.25811589998196,219.05849299998957,219.04155580000952,219.04158750001807,219.05849299998957,219.05849299998957,219.05849299998957,219.9258449999616,right,1.0,77.41763620008714,,,,,,,,,,,,,,,,,,,,,,,,,,,,,,,sub-212,1.0,random_dot,60.06673413230875,
right,right,speed,,,,,0.0,0.0,0.0,1.0,23.0,0.0,46.0,1.0,219.93984290002845,,,,,,,,,219.9276320999488,220.28961480001453,221.0898699000245,221.07318309997208,221.0732140999753,221.0898699000245,221.0898699000245,221.0898699000245,222.3233853999991,right,1.0,77.79808420001063,,,,,,,,,,,,,,,,,,,,,,,,,,,,,,,sub-212,1.0,random_dot,60.06673413230875,
left,left,speed,,,,,0.0,0.0,0.0,1.0,23.0,1.0,47.0,0.0,222.33750959998,,,,,,,,,222.32483769999817,223.13702339993324,223.9372732000193,223.9203846999444,223.92041769996283,223.9372732000193,223.9372732000193,223.9372732000193,225.2201504999539,left,1.0,77.84691750002094,,,,,,,,,,,,,,,,,,,,,,,,,,,,,,,sub-212,1.0,random_dot,60.06673413230875,
right,right,speed,,,,,0.0,0.0,0.0,1.0,24.0,0.0,48.0,1.0,225.23485679994337,,,,,,,,,225.22145559999623,225.334812499932,226.13502679998052,226.11781920003705,226.11783370003104,226.13502679998052,226.13502679998052,226.13502679998052,227.68528680002785,left,0.0,78.1031802999787,,,,,,,,,,,,,,,,,,,,,,,,,,,,,,,sub-212,1.0,random_dot,60.06673413230875,
left,left,speed,,,,,0.0,0.0,0.0,1.0,24.0,1.0,49.0,0.0,227.69922589999624,,,,,,,,,227.68707500002347,228.0489372999873,228.84916740003973,228.83245799993165,228.83249259996228,228.84916740003973,228.84916740003973,228.84916740003973,230.43239750002977,right,0.0,78.14759900001809,,,,,,,,,,,,,,,,,,,,,,,,,,,,,,,sub-212,1.0,random_dot,60.06673413230875,
right,right,speed,,,,,0.0,0.0,0.0,1.0,25.0,0.0,50.0,1.0,230.4465378000168,,,,,,,,,230.433256899938,231.64556550001728,232.44568450003865,232.42844489996787,232.42846169997935,232.44568450003865,232.44568450003865,232.44568450003865,233.48365119996012,right,1.0,77.59473510005046,,,,,,,,,,,,,,,,,,,,,,,,,,,,,,,sub-212,1.0,random_dot,60.06673413230875,
left,left,speed,,,,,0.0,0.0,0.0,1.0,25.0,1.0,51.0,0.0,233.49389549996704,,,,,,,,,233.4853635999607,234.6928566999268,235.4930524999509,235.47592839994468,235.47594659996685,235.4930524999509,235.4930524999509,235.4930524999509,236.72644669993315,left,1.0,77.7864864000585,,,,,,,,,,,,,,,,,,,,,,,,,,,,,,,sub-212,1.0,random_dot,60.06673413230875,
left,left,speed,,,,,0.0,0.0,0.0,1.0,26.0,0.0,52.0,0.0,236.74066350003704,,,,,,,,,236.72781620000023,236.84067730000243,237.64100259996485,237.62426459998824,237.62432269996495,237.64100259996485,237.64100259996485,237.64100259996485,239.2408948999364,left,1.0,78.1658784999745,,,,,,,,,,,,,,,,,,,,,,,,,,,,,,,sub-212,1.0,random_dot,60.06673413230875,
right,right,speed,,,,,0.0,0.0,0.0,1.0,26.0,1.0,53.0,1.0,239.2570555999409,,,,,,,,,239.2421875,240.05431299994237,240.8554950000253,240.83784729999024,240.8378816000186,240.8554950000253,240.8554950000253,240.8554950000253,242.1046975000063,right,1.0,77.80685500008985,,,,,,,,,,,,,,,,,,,,,,,,,,,,,,,sub-212,1.0,random_dot,60.06673413230875,
left,left,speed,,,,,0.0,0.0,0.0,1.0,27.0,0.0,54.0,0.0,242.119126399979,,,,,,,,,242.10587169998325,242.2190363999689,243.01930299995,243.00210749998223,243.002124599996,243.01930299995,243.01930299995,243.01930299995,244.0204338999465,left,1.0,77.56283140007872,,,,,,,,,,,,,,,,,,,,,,,,,,,,,,,sub-212,1.0,random_dot,60.06673413230875,
right,right,speed,,,,,0.0,0.0,0.0,1.0,27.0,1.0,55.0,1.0,244.03386740002315,,,,,,,,,244.02236890001225,244.8332686999347,245.63356039999053,245.6164659999777,245.6164861000143,245.63356039999053,245.63356039999053,245.63356039999053,246.33438529993876,right,1.0,77.25157560000662,,,,,,,,,,,,,,,,,,,,,,,,,,,,,,,sub-212,1.0,random_dot,60.06673413230875,
left,left,speed,,,,,0.0,0.0,0.0,1.0,28.0,0.0,56.0,0.0,246.34848939999935,,,,,,,,,246.33614120003767,247.54742590000387,248.34758930001408,248.33081179996952,248.33083879994228,248.34758930001408,248.34758930001408,248.34758930001408,249.1650156000396,left,1.0,77.37927140004467,,,,,,,,,,,,,,,,,,,,,,,,,,,,,,,sub-212,1.0,random_dot,60.06673413230875,
right,right,speed,,,,,0.0,0.0,0.0,1.0,28.0,1.0,57.0,1.0,249.17921630002093,,,,,,,,,249.16670239996165,249.97851629997604,250.7786855000304,250.76188220002223,250.7619146000361,250.7786855000304,250.7786855000304,250.7786855000304,251.54572659998664,right,1.0,77.32615260011517,,,,,,,,,,,,,,,,,,,,,,,,,,,,,,,sub-212,1.0,random_dot,60.06673413230875,
right,right,speed,,,,,0.0,0.0,0.0,1.0,29.0,0.0,58.0,1.0,251.5602550000185,,,,,,,,,251.5471266999375,252.759184799972,253.5594055999536,253.54263439995705,253.5426659999648,253.5594055999536,253.5594055999536,253.5594055999536,254.0935715000378,right,1.0,77.09009529999457,,,,,,,,,,,,,,,,,,,,,,,,,,,,,,,sub-212,1.0,random_dot,60.06673413230875,
left,left,speed,,,,,0.0,0.0,0.0,1.0,29.0,1.0,59.0,0.0,254.10783230001107,,,,,,,,,254.09526730002835,255.30681340000592,256.10693330003414,256.09024489996955,256.09027879999485,256.10693330003414,256.10693330003414,256.10693330003414,256.87427719996776,right,0.0,77.32948130008299,,,,,,,,,,,,,,,,,,,,,,,,,,,,,,,sub-212,1.0,random_dot,60.06673413230875,
,,speed,,,,,0.0,0.0,0.0,1.0,,,,,,,,,,,,,,,,,,,,,,,,,,,,,,,,,,,,,,,,,,,,,,,,,,,,,,,,sub-212,1.0,random_dot,60.06673413230875,
right,right,accuracy,,,,,0.0,1.0,1.0,0.0,0.0,0.0,0.0,1.0,261.38896429992747,,,,,,,,,261.3844468999887,261.7340408000164,262.53450830001384,262.5185223999433,262.51858339994214,262.53450830001384,262.53450830001384,262.53450830001384,263.251673999941,right,1.0,77.27664809999987,,,,,,,,,,,,,,,,,,,,256.8759826000314,256.89584749995265,256.89584749995265,261.3743563999888,space,81.03162860008888,,,,,,sub-212,1.0,random_dot,60.06673413230875,
left,left,accuracy,,,,,0.0,1.0,1.0,0.0,0.0,1.0,1.0,0.0,263.265960299992,,,,,,,,,263.2533496000105,264.06525320000947,264.86537989997305,264.84881210001186,264.84884749993216,264.86537989997305,264.86537989997305,264.86537989997305,265.68279550003354,left,1.0,77.36839459999464,,,,,,,,,,,,,,,,,,,,,,,,,,,,,,,sub-212,1.0,random_dot,60.06673413230875,
left,left,accuracy,,,,,0.0,1.0,1.0,0.0,1.0,0.0,2.0,0.0,265.6970436000265,,,,,,,,,265.6845521000214,266.49635149992537,267.29649919993244,267.27961780002806,267.2796516999369,267.29649919993244,267.29649919993244,267.29649919993244,268.86308109993115,left,1.0,78.11780320003163,,,,,,,,,,,,,,,,,,,,,,,,,,,,,,,sub-212,1.0,random_dot,60.06673413230875,
right,right,accuracy,,,,,0.0,1.0,1.0,0.0,1.0,1.0,3.0,1.0,268.8775055999868,,,,,,,,,268.8646014999831,269.6766901999945,270.4934418000048,270.4762491999427,270.4762628999306,270.4934418000048,270.4934418000048,270.4934418000048,271.4941136999987,right,1.0,77.55324340006337,,,,,,,,,,,,,,,,,,,,,,,,,,,,,,,sub-212,1.0,random_dot,60.06673413230875,
left,left,accuracy,,,,,0.0,1.0,1.0,0.0,2.0,0.0,4.0,0.0,271.50822109996807,,,,,,,,,271.4957836000249,272.7071648000274,273.5074122999795,273.49066759995185,273.4907218000153,273.5074122999795,273.5074122999795,273.5074122999795,274.5749563999707,right,0.0,77.62789080000948,,,,,,,,,,,,,,,,,,,,,,,,,,,,,,,sub-212,1.0,random_dot,60.06673413230875,
right,right,accuracy,,,,,0.0,1.0,1.0,0.0,2.0,1.0,5.0,1.0,274.5887164999731,,,,,,,,,274.57670550001785,274.68870499997865,275.48880739999004,275.4721102999756,275.4721425999888,275.48880739999004,275.48880739999004,275.48880739999004,276.87222989997827,right,1.0,77.94179400010034,,,,,,,,,,,,,,,,,,,,,,,,,,,,,,,sub-212,1.0,random_dot,60.06673413230875,
left,left,accuracy,,,,,0.0,1.0,1.0,0.0,3.0,0.0,6.0,0.0,276.88657790003344,,,,,,,,,276.8735909999814,277.2361967000179,278.0365447000368,278.01975029997993,278.0197861000197,278.0365447000368,278.0365447000368,278.0365447000368,278.7210671999492,left,1.0,77.24998180009425,,,,,,,,,,,,,,,,,,,,,,,,,,,,,,,sub-212,1.0,random_dot,60.06673413230875,
right,right,accuracy,,,,,0.0,1.0,1.0,0.0,3.0,1.0,7.0,1.0,278.7348020999925,,,,,,,,,278.72277250001207,278.8348898999393,279.635067999945,279.61808249994647,279.61810690001585,279.635067999945,279.635067999945,279.635067999945,281.70091819996014,right,1.0,78.62353550002445,,,,,,,,,,,,,,,,,,,,,,,,,,,,,,,sub-212,1.0,random_dot,60.06673413230875,
right,right,accuracy,,,,,0.0,1.0,1.0,0.0,4.0,0.0,8.0,1.0,281.71536679996643,,,,,,,,,281.7022805999732,282.0651502999244,282.8653811999829,282.8485367000103,282.8485709000379,282.8653811999829,282.8653811999829,282.8653811999829,284.8815670999465,right,1.0,78.57449040003121,,,,,,,,,,,,,,,,,,,,,,,,,,,,,,,sub-212,1.0,random_dot,60.06673413230875,
left,left,accuracy,,,,,0.0,1.0,1.0,0.0,4.0,1.0,9.0,0.0,284.8956944999518,,,,,,,,,284.8832716000033,286.0948058000067,286.8948935000226,286.87988799996674,286.8799289999297,286.8948935000226,286.8948935000226,286.8948935000226,288.394996899995,left,1.0,78.06274660001509,,,,,,,,,,,,,,,,,,,,,,,,,,,,,,,sub-212,1.0,random_dot,60.06673413230875,
right,right,accuracy,,,,,0.0,1.0,1.0,0.0,5.0,0.0,10.0,1.0,288.40907589998096,,,,,,,,,288.39670990000013,289.20840420003515,290.0086344999727,289.99177700001746,289.99180339998566,290.0086344999727,290.0086344999727,290.0086344999727,294.3560126000084,right,1.0,80.89887090004049,,,,,,,,,,,,,,,,,,,,,,,,,,,,,,,sub-212,1.0,random_dot,60.06673413230875,
left,left,accuracy,,,,,0.0,1.0,1.0,0.0,5.0,1.0,11.0,0.0,294.3702043000376,,,,,,,,,294.3571332999272,294.4701251999941,295.2703780999873,295.25354469998274,295.2535660000285,295.2703780999873,295.2703780999873,295.2703780999873,296.2880981999915,left,1.0,77.5819627000019,,,,,,,,,,,,,,,,,,,,,,,,,,,,,,,sub-212,1.0,random_dot,60.06673413230875,
left,left,accuracy,,,,,0.0,1.0,1.0,0.0,6.0,0.0,12.0,0.0,296.3017152999528,,,,,,,,,296.28963000001386,297.50061510002706,298.3009074999718,298.2840147999814,298.2840415999526,298.3009074999718,298.3009074999718,298.3009074999718,299.7169351000339,left,1.0,77.97832320001908,,,,,,,,,,,,,,,,,,,,,,,,,,,,,,,sub-212,1.0,random_dot,60.06673413230875,
right,right,accuracy,,,,,0.0,1.0,1.0,0.0,6.0,1.0,13.0,1.0,299.7317869999679,,,,,,,,,299.7177301000338,299.8151221999433,300.61546120001003,300.5985650999937,300.5985978000099,300.61546120001003,300.61546120001003,300.61546120001003,301.7987520999741,right,1.0,77.73806710005738,,,,,,,,,,,,,,,,,,,,,,,,,,,,,,,sub-212,1.0,random_dot,60.06673413230875,
right,right,accuracy,,,,,0.0,1.0,1.0,0.0,7.0,0.0,14.0,1.0,301.8131899000145,,,,,,,,,301.8002150999382,301.91317489999346,302.7132660000352,302.6965163999703,302.6965484999819,302.7132660000352,302.7132660000352,302.7132660000352,304.11363839998376,left,0.0,77.96370810002554,,,,,,,,,,,,,,,,,,,,,,,,,,,,,,,sub-212,1.0,random_dot,60.06673413230875,
left,left,accuracy,,,,,0.0,1.0,1.0,0.0,7.0,1.0,15.0,0.0,304.1277847000165,,,,,,,,,304.11534289992414,305.3266159000341,306.1269078999758,306.1124250999419,306.11245110002346,306.1269078999758,306.1269078999758,306.1269078999758,307.0606383000268,left,1.0,77.48796540009789,,,,,,,,,,,,,,,,,,,,,,,,,,,,,,,sub-212,1.0,random_dot,60.06673413230875,
left,left,accuracy,,,,,0.0,1.0,1.0,0.0,8.0,0.0,16.0,0.0,307.0749018000206,,,,,,,,,307.06237770000007,308.2739046999486,309.0739961999934,309.05732999998145,309.05736289999913,309.0739961999934,309.0739961999934,309.0739961999934,310.09101750003174,left,1.0,77.57848819997162,,,,,,,,,,,,,,,,,,,,,,,,,,,,,,,sub-212,1.0,random_dot,60.06673413230875,
right,right,accuracy,,,,,0.0,1.0,1.0,0.0,8.0,1.0,17.0,1.0,310.10548849997576,,,,,,,,,310.0923799999291,310.20546119997744,311.00566489994526,310.9887632000027,310.98879370000213,311.00566489994526,311.00566489994526,311.00566489994526,312.0720765999285,right,1.0,77.6207238000352,,,,,,,,,,,,,,,,,,,,,,,,,,,,,,,sub-212,1.0,random_dot,60.06673413230875,
right,right,accuracy,,,,,0.0,1.0,1.0,0.0,9.0,0.0,18.0,1.0,312.08710579993203,,,,,,,,,312.0731022999389,312.8862638999708,313.69035589997657,313.6696682999609,313.669710499933,313.69035589997657,313.69035589997657,313.69035589997657,314.60366449994035,right,1.0,77.46436730003916,,,,,,,,,,,,,,,,,,,,,,,,,,,,,,,sub-212,1.0,random_dot,60.06673413230875,
left,left,accuracy,,,,,0.0,1.0,1.0,0.0,9.0,1.0,19.0,0.0,314.6178707999643,,,,,,,,,314.60562279995065,314.9675093999831,315.76773299998604,315.7509143999778,315.7509401999414,315.76773299998604,315.76773299998604,315.76773299998604,317.6843151999637,left,1.0,78.47536260006018,,,,,,,,,,,,,,,,,,,,,,,,,,,,,,,sub-212,1.0,random_dot,60.06673413230875,
right,right,accuracy,,,,,0.0,1.0,1.0,0.0,10.0,0.0,20.0,1.0,317.6983887000242,,,,,,,,,317.686150399968,318.89728389994707,319.69742149999365,319.68078099994455,319.6808224000269,319.69742149999365,319.69742149999365,319.69742149999365,321.6468379999278,right,1.0,78.50722810009029,,,,,,,,,,,,,,,,,,,,,,,,,,,,,,,sub-212,1.0,random_dot,60.06673413230875,
left,left,accuracy,,,,,0.0,1.0,1.0,0.0,10.0,1.0,21.0,0.0,321.66127589996904,,,,,,,,,321.6482024999568,321.7612302999478,322.5614655999234,322.5446308000246,322.54466300003696,322.5614655999234,322.5614655999234,322.5614655999234,328.25755620002747,right,0.0,82.25641780009028,,,,,,,,,,,,,,,,,,,,,,,,,,,327.5567124999361,,,,sub-212,1.0,random_dot,60.06673413230875,
left,left,accuracy,,,,,0.0,1.0,1.0,0.0,11.0,0.0,22.0,0.0,328.27171090000775,,,,,,,,,328.25941589998547,329.47064369998407,330.2708952999674,330.2540927999653,330.254126099986,330.2708952999674,330.2708952999674,330.2708952999674,331.3545224999543,left,1.0,77.64462110004388,,,,,,,,,,,,,,,,,,,,,,,,,,,,,,,sub-212,1.0,random_dot,60.06673413230875,
right,right,accuracy,,,,,0.0,1.0,1.0,0.0,11.0,1.0,23.0,1.0,331.36883519997355,,,,,,,,,331.35596229997464,332.56784309993964,333.367895900039,333.3513810000149,333.3514135000296,333.367895900039,333.367895900039,333.367895900039,334.2182260999689,right,1.0,77.41356190002989,,,,,,,,,,,,,,,,,,,,,,,,,,,,,,,sub-212,1.0,random_dot,60.06673413230875,
left,left,accuracy,,,,,0.0,1.0,1.0,0.0,12.0,0.0,24.0,0.0,334.2328823999269,,,,,,,,,334.2193658000324,334.332813099958,335.1332520999713,335.11632349994034,335.11635579995345,335.1332520999713,335.1332520999713,335.1332520999713,336.79944400000386,right,0.0,78.22148820001166,,,,,,,,,,,,,,,,,,,,,,,,,,,,,,,sub-212,1.0,random_dot,60.06673413230875,
right,right,accuracy,,,,,0.0,1.0,1.0,0.0,12.0,1.0,25.0,1.0,336.8137989999959,,,,,,,,,336.80121189996134,337.61307540000416,338.41335839999374,338.3963428999996,338.39636829996016,338.41335839999374,338.41335839999374,338.41335839999374,340.3297751999926,left,0.0,78.48065229994245,,,,,,,,,,,,,,,,,,,,,,,,,,,,,,,sub-212,1.0,random_dot,60.06673413230875,
right,right,accuracy,,,,,0.0,1.0,1.0,0.0,13.0,0.0,26.0,1.0,340.3437944999896,,,,,,,,,340.331482199952,340.6935512999771,341.4938397000078,341.476401599939,341.47641689993907,341.4938397000078,341.4938397000078,341.4938397000078,343.6603293999797,left,0.0,78.72923500009347,,,,,,,,,,,,,,,,,,,,,,,,,,,,,,,sub-212,1.0,random_dot,60.06673413230875,
left,left,accuracy,,,,,0.0,1.0,1.0,0.0,13.0,1.0,27.0,0.0,343.6740615000017,,,,,,,,,343.6621096000308,344.8729611999588,345.67321189993527,345.6563542999793,345.65638569998555,345.67321189993527,345.67321189993527,345.67321189993527,346.6404147000285,left,1.0,77.52115439996123,,,,,,,,,,,,,,,,,,,,,,,,,,,,,,,sub-212,1.0,random_dot,60.06673413230875,
right,right,accuracy,,,,,0.0,1.0,1.0,0.0,14.0,0.0,28.0,1.0,346.65481450001244,,,,,,,,,346.6420856999466,347.85348059993703,348.6537728999974,348.6368576999521,348.6368897999637,348.6537728999974,348.6537728999974,348.6537728999974,349.73772999993525,right,1.0,77.64106140006334,,,,,,,,,,,,,,,,,,,,,,,,,,,,,,,sub-212,1.0,random_dot,60.06673413230875,
left,left,accuracy,,,,,0.0,1.0,1.0,0.0,14.0,1.0,29.0,0.0,349.7516408000374,,,,,,,,,349.7394438999472,350.95059419993777,351.7509111999534,351.7340734000318,351.7341008000076,351.7509111999534,351.7509111999534,351.7509111999534,352.7679955000058,right,0.0,77.58133880002424,,,,,,,,,,,,,,,,,,,,,,,,,,,,,,,sub-212,1.0,random_dot,60.06673413230875,
left,left,accuracy,,,,,0.0,1.0,1.0,0.0,15.0,0.0,30.0,0.0,352.7821057999972,,,,,,,,,352.7694501000224,353.13193139992654,353.9322033999488,353.91533739992883,353.9153697999427,353.9322033999488,353.9322033999488,353.9322033999488,355.9345953000011,left,1.0,78.55640460003633,,,,,,,,,,,,,,,,,,,,,,,,,,,,,,,sub-212,1.0,random_dot,60.06673413230875,
right,right,accuracy,,,,,0.0,1.0,1.0,0.0,15.0,1.0,31.0,1.0,355.94592710002325,,,,,,,,,355.93634909996763,357.1448282999918,357.9450907999417,357.9283193999436,357.9283473000396,357.9450907999417,357.9450907999417,357.9450907999417,358.6141004000092,right,1.0,77.23455230006948,,,,,,,,,,,,,,,,,,,,,,,,,,,,,,,sub-212,1.0,random_dot,60.06673413230875,
right,right,accuracy,,,,,0.0,1.0,1.0,0.0,16.0,0.0,32.0,1.0,358.6266864000354,,,,,,,,,358.6157750999555,359.8256213000277,360.6257819000166,360.60915679996833,360.6091904999921,360.6257819000166,360.6257819000166,360.6257819000166,361.5429598999908,right,1.0,77.47439460002352,,,,,,,,,,,,,,,,,,,,,,,,,,,,,,,sub-212,1.0,random_dot,60.06673413230875,
left,left,accuracy,,,,,0.0,1.0,1.0,0.0,16.0,1.0,33.0,0.0,361.5573205000255,,,,,,,,,361.5439483999508,361.65723719995,362.4573570999783,362.4408189000096,362.4408623999916,362.4573570999783,362.4573570999783,362.4573570999783,363.55763109994587,left,1.0,77.65616000001319,,,,,,,,,,,,,,,,,,,,,,,,,,,,,,,sub-212,1.0,random_dot,60.06673413230875,
right,right,accuracy,,,,,0.0,1.0,1.0,0.0,17.0,0.0,34.0,1.0,363.5721024000086,,,,,,,,,363.5592041999335,363.6720297000138,364.4720794999739,364.4552631999832,364.455290999962,364.4720794999739,364.4720794999739,364.4720794999739,366.5383243999677,right,1.0,78.61883880000096,,,,,,,,,,,,,,,,,,,,,,,,,,,,,,,sub-212,1.0,random_dot,60.06673413230875,
left,left,accuracy,,,,,0.0,1.0,1.0,0.0,17.0,1.0,35.0,0.0,366.5526269000256,,,,,,,,,366.5400686999783,366.65251309995074,367.4524881999241,367.4357067999663,367.43572910001967,367.4524881999241,367.4524881999241,367.4524881999241,369.63661299995147,left,1.0,78.7376021000091,,,,,,,,,,,,,,,,,,,,,,,,,,,,,,,sub-212,1.0,random_dot,60.06673413230875,
left,left,accuracy,,,,,0.0,1.0,1.0,0.0,18.0,0.0,36.0,0.0,369.6498229999561,,,,,,,,,369.639154799981,369.9994083000347,370.7996247999836,370.7828926999355,370.78292489994783,370.7996247999836,370.7996247999836,370.7996247999836,372.5988820999628,left,1.0,78.36397469998337,,,,,,,,,,,,,,,,,,,,,,,,,,,,,,,sub-212,1.0,random_dot,60.06673413230875,
right,right,accuracy,,,,,0.0,1.0,1.0,0.0,18.0,1.0,37.0,1.0,372.61351499997545,,,,,,,,,372.5997392999707,372.96335279999766,373.7633648000192,373.74657279998064,373.7465960999252,373.7633648000192,373.7633648000192,373.7633648000192,375.06450790003873,right,1.0,77.86659460002556,,,,,,,,,,,,,,,,,,,,,,,,,,,,,,,sub-212,1.0,random_dot,60.06673413230875,
left,left,accuracy,,,,,0.0,1.0,1.0,0.0,19.0,0.0,38.0,0.0,375.07799729995895,,,,,,,,,375.06655949994456,376.2768936000066,377.0770675999811,377.0603383999551,377.0603953000391,377.0770675999811,377.0770675999811,377.0770675999811,378.0286160999676,left,1.0,77.51727720000781,,,,,,,,,,,,,,,,,,,,,,,,,,,,,,,sub-212,1.0,random_dot,60.06673413230875,
right,right,accuracy,,,,,0.0,1.0,1.0,0.0,19.0,1.0,39.0,1.0,378.04185379995033,,,,,,,,,378.03038439992815,378.8412324000383,379.6413921000203,379.6240251000272,379.6240396000212,379.6413921000203,379.6413921000203,379.6413921000203,380.27475199999753,right,1.0,77.19334430003073,,,,,,,,,,,,,,,,,,,,,,,,,,,,,,,sub-212,1.0,random_dot,60.06673413230875,
right,right,accuracy,,,,,0.0,1.0,1.0,0.0,20.0,0.0,40.0,1.0,380.28963749995455,,,,,,,,,380.2755858999444,380.63926470000297,381.4396827999735,381.42231880000327,381.4223323999904,381.4396827999735,381.4396827999735,381.4396827999735,382.4903814999852,left,0.0,77.60853229998611,,,,,,,,,,,,,,,,,,,,,,,,,,,,,,,sub-212,1.0,random_dot,60.06673413230875,
left,left,accuracy,,,,,0.0,1.0,1.0,0.0,20.0,1.0,41.0,0.0,382.5043764000293,,,,,,,,,382.4921242999844,382.85409579996485,383.65431639994495,383.6374914000044,383.6375250000274,383.65431639994495,383.65431639994495,383.65431639994495,384.6381557999412,left,1.0,77.54431120003574,,,,,,,,,,,,,,,,,,,,,,,,,,,,,,,sub-212,1.0,random_dot,60.06673413230875,
left,left,accuracy,,,,,0.0,1.0,1.0,0.0,21.0,0.0,42.0,0.0,384.6523929999676,,,,,,,,,384.6395775999408,385.00190169992857,385.8022389999824,385.78553540003486,385.78556879994,385.8022389999824,385.8022389999824,385.8022389999824,387.3350260999287,left,1.0,78.08521190006286,,,,,,,,,,,,,,,,,,,,,,,,,,,,,,,sub-212,1.0,random_dot,60.06673413230875,
right,right,accuracy,,,,,0.0,1.0,1.0,0.0,21.0,1.0,43.0,1.0,387.3498330999864,,,,,,,,,387.3359192999778,388.1323444999289,388.9325856999494,388.91561339993495,388.9156354999868,388.9325856999494,388.9325856999494,388.9325856999494,390.1497465999564,right,1.0,77.7681034001289,,,,,,,,,,,,,,,,,,,,,,,,,,,,,,,sub-212,1.0,random_dot,60.06673413230875,
right,right,accuracy,,,,,0.0,1.0,1.0,0.0,22.0,0.0,44.0,1.0,390.1638723999495,,,,,,,,,390.1514415999409,390.9631876000203,391.7632989999838,391.7467036999296,391.7467342999298,391.7632989999838,391.7632989999838,391.7632989999838,392.64751939999405,right,1.0,77.44291870004963,,,,,,,,,,,,,,,,,,,,,,,,,,,,,,,sub-212,1.0,random_dot,60.06673413230875,
left,left,accuracy,,,,,0.0,1.0,1.0,0.0,22.0,1.0,45.0,0.0,392.661590600037,,,,,,,,,392.64931010000873,393.46383849997073,394.2777368000243,394.2608831999824,394.26091660000384,394.2777368000243,394.2777368000243,394.2777368000243,396.7932602999499,right,0.0,79.07566330011468,,,,,,,,,,,,,,,,,,,,,,,,,,,,,,,sub-212,1.0,random_dot,60.06673413230875,
right,right,accuracy,,,,,0.0,1.0,1.0,0.0,23.0,0.0,46.0,1.0,396.8075458999956,,,,,,,,,396.7943825999973,398.0065200999379,398.8069619999733,398.7900443000253,398.7900768999243,398.8069619999733,398.8069619999733,398.8069619999733,400.0906194000272,right,1.0,77.8493615000043,,,,,,,,,,,,,,,,,,,,,,,,,,,,,,,sub-212,1.0,random_dot,60.06673413230875,
left,left,accuracy,,,,,0.0,1.0,1.0,0.0,23.0,1.0,47.0,0.0,400.10454780003056,,,,,,,,,400.0924251000397,400.2043989000376,401.0047707000049,400.9880503999302,400.98808369995095,401.0047707000049,401.0047707000049,401.0047707000049,403.7370468999725,left,1.0,79.29685969999991,,,,,,,,,,,,,,,,,,,,,,,,,,,,,,,sub-212,1.0,random_dot,60.06673413230875,
right,right,accuracy,,,,,0.0,1.0,1.0,0.0,24.0,0.0,48.0,1.0,403.7510526999831,,,,,,,,,403.738138500019,404.1008764000144,404.90112599998247,404.8841945999302,404.8842156999745,404.90112599998247,404.90112599998247,404.90112599998247,406.6676916999277,left,0.0,78.32539140002336,,,,,,,,,,,,,,,,,,,,,,,,,,,,,,,sub-212,1.0,random_dot,60.06673413230875,
left,left,accuracy,,,,,0.0,1.0,1.0,0.0,24.0,1.0,49.0,0.0,406.6817832000088,,,,,,,,,406.6694166000234,407.88063959998544,408.6808878999436,408.6643166999565,408.6643422000343,408.6808878999436,408.6808878999436,408.6808878999436,410.0470176000381,left,1.0,77.92134570004418,,,,,,,,,,,,,,,,,,,,,,,,,,,,,,,sub-212,1.0,random_dot,60.06673413230875,
right,right,accuracy,,,,,0.0,1.0,1.0,0.0,25.0,0.0,50.0,1.0,410.0617060000077,,,,,,,,,410.0478443999309,410.4116084999405,411.2119256999577,411.1950607999461,411.1950940999668,411.2119256999577,411.2119256999577,411.2119256999577,412.262459199992,right,1.0,77.6105861000251,,,,,,,,,,,,,,,,,,,,,,,,,,,,,,,sub-212,1.0,random_dot,60.06673413230875,
left,left,accuracy,,,,,0.0,1.0,1.0,0.0,25.0,1.0,51.0,0.0,412.277304999996,,,,,,,,,412.2642248999328,412.6262167999521,413.4263171999482,413.4096860999707,413.40971010003705,413.4263171999482,413.4263171999482,413.4263171999482,415.9754136999836,right,0.0,79.09997540002223,,,,,,,,,,,,,,,,,,,,,,,,,,,,,,,sub-212,1.0,random_dot,60.06673413230875,
right,right,accuracy,,,,,0.0,1.0,1.0,0.0,26.0,0.0,52.0,1.0,415.9896520000184,,,,,,,,,415.9771173000336,416.33942199999,417.1395072999876,417.1227425999241,417.12277449993417,417.1395072999876,417.1395072999876,417.1395072999876,419.4883210000117,left,0.0,78.9087219000794,,,,,,,,,,,,,,,,,,,,,,,,,,,,,,,sub-212,1.0,random_dot,60.06673413230875,
left,left,accuracy,,,,,0.0,1.0,1.0,0.0,26.0,1.0,53.0,0.0,419.5030656999443,,,,,,,,,419.4891863999656,420.3023581999587,421.1026908999775,421.085879100021,421.0859123999253,421.1026908999775,421.1026908999775,421.1026908999775,422.8525253999978,left,1.0,78.30912029999308,,,,,,,,,,,,,,,,,,,,,,,,,,,,,,,sub-212,1.0,random_dot,60.06673413230875,
right,right,accuracy,,,,,0.0,1.0,1.0,0.0,27.0,0.0,54.0,1.0,422.8676948000211,,,,,,,,,422.8544911999488,424.065663699992,424.8656660999404,424.8489123999607,424.8489391999319,424.8656660999404,424.8656660999404,424.8656660999404,426.598907000036,right,1.0,78.28409980004653,,,,,,,,,,,,,,,,,,,,,,,,,,,,,,,sub-212,1.0,random_dot,60.06673413230875,
left,left,accuracy,,,,,0.0,1.0,1.0,0.0,27.0,1.0,55.0,0.0,426.6130934000248,,,,,,,,,426.6001070999773,426.9627012999263,427.76293490000535,427.74632459995337,427.7463573999703,427.76293490000535,427.76293490000535,427.76293490000535,428.8142682999605,left,1.0,77.6031031999737,,,,,,,,,,,,,,,,,,,,,,,,,,,,,,,sub-212,1.0,random_dot,60.06673413230875,
right,right,accuracy,,,,,0.0,1.0,1.0,0.0,28.0,0.0,56.0,1.0,428.82774790003896,,,,,,,,,428.8156720999396,429.177392099984,429.9775197999552,429.9606744999765,429.9607002999401,429.9775197999552,429.9775197999552,429.9775197999552,431.161147100036,right,1.0,77.73574470006861,,,,,,,,,,,,,,,,,,,,,,,,,,,,,,,sub-212,1.0,random_dot,60.06673413230875,
left,left,accuracy,,,,,0.0,1.0,1.0,0.0,28.0,1.0,57.0,0.0,431.1755234999582,,,,,,,,,431.1626720000058,432.3742972000037,433.1745566999307,433.1578667999711,433.1578990999842,433.1745566999307,433.1745566999307,433.1745566999307,433.99197760003153,left,1.0,77.37549970007967,,,,,,,,,,,,,,,,,,,,,,,,,,,,,,,sub-212,1.0,random_dot,60.06673413230875,
left,left,accuracy,,,,,0.0,1.0,1.0,0.0,29.0,0.0,58.0,0.0,434.0061990999384,,,,,,,,,433.9937555999495,434.3558439000044,435.1561301000184,435.13938710000366,435.1394152999856,435.1561301000184,435.1561301000184,435.1561301000184,436.4729159999406,left,1.0,77.87224990001414,,,,,,,,,,,,,,,,,,,,,,,,,,,,,,,sub-212,1.0,random_dot,60.06673413230875,
right,right,accuracy,,,,,0.0,1.0,1.0,0.0,29.0,1.0,59.0,1.0,436.4871445000172,,,,,,,,,436.4746583999368,437.6860823000316,438.50303309992887,438.4856591999997,438.4856751000043,438.50303309992887,438.50303309992887,438.50303309992887,439.4039477999322,right,1.0,77.45745570003055,,,,,,,,,,,,,,,,,,,,,,,,,,,,,,,sub-212,1.0,random_dot,60.06673413230875,
,,accuracy,,,,,0.0,1.0,1.0,0.0,,,,,,,,,,,,,,,,,,,,,,,,,,,,,,,,,,,,,,,,,,,,,,,,,,,,,,,,sub-212,1.0,random_dot,60.06673413230875,
,,,,,,,,,,,,,,,,,,,,,,,,,,,,,,,,,,,,,,,,,,,,,,,,,,,,,,,,,,,,,,,439.4056478999555,439.4178928999463,444.4136112999404,sub-212,,,,
