direction,corrAns,randomInstr,practice_trials.thisRepN,practice_trials.thisTrialN,practice_trials.thisN,practice_trials.thisIndex,instr_trials.thisRepN,instr_trials.thisTrialN,instr_trials.thisN,instr_trials.thisIndex,test_trials.thisRepN,test_trials.thisTrialN,test_trials.thisN,test_trials.thisIndex,thisRow.t,notes,general_instruction.started,textGeneralInstr.started,respGeneralInstr.started,general_instruction.stopped,respGeneralInstr.keys,respGeneralInstr.rt,respGeneralInstr.duration,ITI.started,fixcross.started,fixcross.stopped,ITI.stopped,dots.started,backgroundDots.started,stimulusDots.started,respDots.started,stimulusDots.stopped,dots.stopped,respDots.keys,respDots.corr,respDots.rt,respDots.duration,feedback.started,textFeedback.started,feedback.stopped,textFeedback.stopped,info.started,textInfo.started,keyRespInfo.started,info.stopped,keyRespInfo.keys,keyRespInfo.rt,keyRespInfo.duration,test_instruction.started,textTestInstr.started,respTestInstr.started,test_instruction.stopped,respTestInstr.keys,respTestInstr.rt,respTestInstr.duration,random_instruction.started,textRandomInstr.started,respRandomInstr.started,random_instruction.stopped,respRandomInstr.keys,respRandomInstr.rt,respRandomInstr.duration,goodbye.started,textGoodbye.started,textGoodbye.stopped,goodbye.stopped,participant,session,expName,frameRate,Unnamed: 74
,,,,,,,,,,,,,,,,,0.0035995000507682,0.0076717000920325,0.0076717000920325,6.631226599914953,space,18.673753899987787,,,,,,,,,,,,,,,,,,,,,,,,,,,,,,,,,,,,,,,,,,,,,sub-201,1.0,random_dot,59.89555416013889,
left,left,,0.0,0.0,0.0,0.0,,,,,,,,,6.653737199958414,,,,,,,,,6.648181400028989,6.995242099976167,7.795301000121981,7.779461400117725,7.779500500066206,7.795301000121981,7.795301000121981,7.795301000121981,12.778265800094232,15.564031699905172,left,1.0,19.81042159977369,,15.566155100008473,15.581272900104524,16.07839010003954,,,,,,,,,,,,,,,,,,,,,,,,,,,sub-201,1.0,random_dot,59.89555416013889,
right,right,,0.0,1.0,1.0,1.0,,,,,,,,,16.094672800041735,,,,,,,,,16.079266200074926,16.428360200021416,17.229437799891457,17.214157999958843,17.214227800024673,17.229437799891457,17.229437799891457,17.229437799891457,,20.93167160009034,right,1.0,15.756061499705538,,20.93264860007912,20.944875800050795,21.429065800039098,21.44427990005352,,,,,,,,,,,,,,,,,,,,,,,,,,sub-201,1.0,random_dot,59.89555416013889,
left,left,,1.0,0.0,2.0,0.0,,,,,,,,,21.44427990005352,,,,,,,,,21.4297323001083,22.244673900073398,23.045378000009805,23.028451400110495,23.028490900062025,23.045378000009805,23.045378000009805,23.045378000009805,,25.51451959996484,left,1.0,14.523347599897534,,25.51562330010347,25.5276981999632,26.01276810001582,26.02778070000932,,,,,,,,,,,,,,,,,,,,,,,,,,sub-201,1.0,random_dot,59.89555416013889,
right,right,,1.0,1.0,3.0,1.0,,,,,,,,,26.02778070000932,,,,,,,,,26.013960500014942,26.377949299989268,27.178055400028825,27.16230410011485,27.16234189993702,27.178055400028825,27.178055400028825,27.178055400028825,,31.01419360004365,right,1.0,15.878957699984312,,31.01517480006441,31.02837199997157,31.512470199959356,31.52757770009339,,,,,,,,,,,,,,,,,,,,,,,,,,sub-201,1.0,random_dot,59.89555416013889,
right,right,,2.0,0.0,4.0,1.0,,,,,,,,,31.52757770009339,,,,,,,,,31.513418199960142,31.87756419996731,32.67800600011833,32.66201360011473,32.66205450007692,32.67800600011833,32.67800600011833,32.67800600011833,,34.96328420005739,left,0.0,14.326134199975058,,34.96413469989784,34.977022300008684,35.46161859994754,35.477344600018114,,,,,,,,,,,,,,,,,,,,,,,,,,sub-201,1.0,random_dot,59.89555416013889,
left,left,,2.0,1.0,5.0,0.0,,,,,,,,,35.477344600018114,,,,,,,,,35.4623851000797,36.27739459997974,37.077494400087744,37.06131260003895,37.06135140010156,37.077494400087744,37.077494400087744,37.077494400087744,,39.63002720009536,left,1.0,14.60162610001862,,39.6310304000508,39.643944199895486,40.12833159998991,40.143288699910045,,,,,,,,,,,,,,,,,,,,,,,,,,sub-201,1.0,random_dot,59.89555416013889,
left,left,,3.0,0.0,6.0,0.0,,,,,,,,,40.143288699910045,,,,,,,,,40.129117199918255,41.34369629994035,42.144111600006,42.13028630008921,42.1303568999283,42.144111600006,42.144111600006,42.144111600006,,44.4121518000029,left,1.0,14.315100899897516,,44.4132205999922,44.42684280010872,44.911415999988094,44.926976199960336,,,,,,,,,,,,,,,,,,,,,,,,,,sub-201,1.0,random_dot,59.89555416013889,
right,right,,3.0,1.0,7.0,1.0,,,,,,,,,44.926976199960336,,,,,,,,,44.91220199991949,45.02675299998373,45.82736369990744,45.81169859995134,45.81174200004898,45.82736369990744,45.82736369990744,45.82736369990744,,48.929324300028384,left,0.0,15.145447299815714,,48.93032940011472,48.94302939996123,49.42820470011793,49.443369900109246,,,,,,,,,,,,,,,,,,,,,,,,,,sub-201,1.0,random_dot,59.89555416013889,
left,left,,4.0,0.0,8.0,0.0,,,,,,,,,49.443369900109246,,,,,,,,,49.429016900016,50.24341299990192,51.04389060009271,51.02808229997754,51.028124700067565,51.04389060009271,51.04389060009271,51.04389060009271,,54.01180729991757,right,0.0,15.017776899971068,,54.01285020005889,54.02656130003743,54.51084810006432,54.52615460008383,,,,,,,,,,,,,,,,,,,,,,,,,,sub-201,1.0,random_dot,59.89555416013889,
right,right,,4.0,1.0,9.0,1.0,,,,,,,,,54.52615460008383,,,,,,,,,54.5114251000341,55.72643760009669,56.52686910005286,56.510993000119925,56.51103499997407,56.52686910005286,56.52686910005286,56.52686910005286,,58.87918379995972,right,1.0,14.396110599860547,,58.88015009998344,58.89279410010204,59.37773300008848,59.39297990011983,,,,,,,,,,,,,,,,,,,,,,,,,,sub-201,1.0,random_dot,59.89555416013889,
left,left,,5.0,0.0,10.0,0.0,,,,,,,,,59.39297990011983,,,,,,,,,59.378585499944165,60.5923983999528,61.39303630008362,61.37906659999862,61.37912359996699,61.39303630008362,61.39303630008362,61.39303630008362,,62.82822689996101,left,1.0,13.475578999845313,,62.82911769999191,62.84238000004552,63.327713900012895,63.34279050002806,,,,,,,,,,,,,,,,,,,,,,,,,,sub-201,1.0,random_dot,59.89555416013889,
right,right,,5.0,1.0,11.0,1.0,,,,,,,,,63.34279050002806,,,,,,,,,63.32855980005115,63.69248079997488,64.49298249999993,64.47779490007088,64.47784180007875,64.49298249999993,64.49298249999993,64.49298249999993,,66.32793130003847,left,0.0,13.876596999820322,,66.32886069989763,66.34279659995809,66.82749480009079,66.84254930005409,,,,,,,,,,,,,,,,,,,,,,,,,,sub-201,1.0,random_dot,59.89555416013889,
left,left,,6.0,0.0,12.0,0.0,,,,,,,,,66.84254930005409,,,,,,,,,66.82828220003285,68.0425164999906,68.84291419992223,68.82710730005056,68.82714230008423,68.84291419992223,68.84291419992223,68.84291419992223,,72.88494400004856,left,1.0,16.088646299904212,,72.88603799999692,72.89423079998232,73.39283860009164,,,,,,,,,,,,,,,,,,,,,,,,,,,sub-201,1.0,random_dot,59.89555416013889,
right,right,,6.0,1.0,13.0,1.0,,,,,,,,,73.4094626000151,,,,,,,,,73.39361450006254,73.49200959992595,74.29276910005137,74.27684710011818,74.27688609994948,74.29276910005137,74.29276910005137,74.29276910005137,,77.29494810011238,left,0.0,15.0560317998752,,77.29573459993117,77.3083327000495,77.79385569994338,77.8086912999861,,,,,,,,,,,,,,,,,,,,,,,,,,sub-201,1.0,random_dot,59.89555416013889,
left,left,,7.0,0.0,14.0,0.0,,,,,,,,,77.8086912999861,,,,,,,,,77.79467139998451,78.60864780005068,79.40894249989651,79.39294019993395,79.39298049989156,79.40894249989651,79.40894249989651,79.40894249989651,,82.32845059991814,right,0.0,14.961796700023116,,82.32935569994152,82.34188829991035,82.82652619993314,82.84178210003302,,,,,,,,,,,,,,,,,,,,,,,,,,sub-201,1.0,random_dot,59.89555416013889,
right,right,,7.0,1.0,15.0,1.0,,,,,,,,,82.84178210003302,,,,,,,,,82.82722739991732,84.04145019990392,84.84217750001699,84.82646810007282,84.8265742000658,84.84217750001699,84.84217750001699,84.84217750001699,89.84197730012238,89.89376450004056,right,1.0,17.105171700008214,,89.89453330007382,89.90790449990891,90.39271680009551,90.40821020002475,,,,,,,,,,,,,,,,,,,,,,,,,,sub-201,1.0,random_dot,59.89555416013889,
left,left,,8.0,0.0,16.0,0.0,,,,,,,,,90.40821020002475,,,,,,,,,90.39375160005876,91.60779709997588,92.40867760009132,92.39276580000296,92.3928062999621,92.40867760009132,92.40867760009132,92.40867760009132,,95.0437276000157,right,0.0,14.675465899752451,,95.04469530005008,95.05794780002908,95.54254529997706,95.55798600008713,,,,,,,,,,,,,,,,,,,,,,,,,,sub-201,1.0,random_dot,59.89555416013889,
right,right,,8.0,1.0,17.0,1.0,,,,,,,,,95.55798600008713,,,,,,,,,95.54332030005752,96.3576418000739,97.15842880005948,97.14269030001014,97.14272370003164,97.15842880005948,97.15842880005948,97.15842880005948,,98.51185139990412,right,1.0,13.40746169979684,,98.51282879989594,98.52476780000144,99.00912380008958,99.02442190004513,,,,,,,,,,,,,,,,,,,,,,,,,,sub-201,1.0,random_dot,59.89555416013889,
right,right,,9.0,0.0,18.0,1.0,,,,,,,,,99.02442190004513,,,,,,,,,99.00981829990631,99.37445829994977,100.1749942000024,100.15934840007684,100.1593867999036,100.1749942000024,100.1749942000024,100.1749942000024,,102.07721429993398,left,0.0,13.94501919997856,,102.07831449992956,102.09081439999864,102.57599560008384,102.591362999985,,,,,,,,,,,,,,,,,,,,,,,,,,sub-201,1.0,random_dot,59.89555416013889,
left,left,,9.0,1.0,19.0,0.0,,,,,,,,,102.591362999985,,,,,,,,,102.57742940005846,102.94067339994945,103.7413693999406,103.72542600007728,103.72545940009876,103.7413693999406,103.7413693999406,103.7413693999406,,106.55972569994628,left,1.0,14.863637799862772,,106.56043580011465,106.57404310000128,107.05938680004328,107.07410839991644,,,,,,,,,,,,,,,,,,,,,,,,,,sub-201,1.0,random_dot,59.89555416013889,
,,,,,,,,,,,,,,,,,,,,,,,,,,,,,,,,,,,,,,,,,,107.05952899996193,107.07410839991644,107.07410839991644,111.97681379993446,space,16.95258739986457,,,,,,,,,,,,,,,,,,,,sub-201,1.0,random_dot,59.89555416013889,
,,,,,,,,,,,,,,,,,,,,,,,,,,,,,,,,,,,,,,,,,,,,,,,,,111.97688239999115,111.99097859999164,111.99097859999164,120.99289110000244,space,21.04442229983397,,,,,,,,,,,,,sub-201,1.0,random_dot,59.89555416013889,
left,left,accuracy,,,,,0.0,0.0,0.0,0.0,0.0,0.0,0.0,0.0,125.00691529992037,,,,,,,,,125.00297320005484,126.20654859999196,127.0072141001001,126.99110199999996,126.99114060006104,127.0072141001001,127.0072141001001,127.0072141001001,,130.19236760004424,left,1.0,15.234087399905547,,,,,,,,,,,,,,,,,,,,120.99883179995231,121.01862529991196,121.01862529991196,124.99199480004609,space,16.016845899866894,,,,,,sub-201,1.0,random_dot,59.89555416013889,
right,right,accuracy,,,,,0.0,0.0,0.0,0.0,0.0,1.0,1.0,1.0,130.20648319995962,,,,,,,,,130.194743799977,130.30638210009784,131.10671960003674,131.09110320010222,131.09114350005984,131.10671960003674,131.10671960003674,131.10671960003674,,133.8930428000167,right,1.0,14.840270099928604,,,,,,,,,,,,,,,,,,,,,,,,,,,,,,,sub-201,1.0,random_dot,59.89555416013889,
right,right,accuracy,,,,,0.0,0.0,0.0,0.0,1.0,0.0,2.0,1.0,133.90651590004563,,,,,,,,,133.89491669996642,134.25615680008195,135.05661999993026,135.04078799998388,135.04082740005106,135.05661999993026,135.05661999993026,135.05661999993026,,138.82459200010635,right,1.0,15.818763799965382,,,,,,,,,,,,,,,,,,,,,,,,,,,,,,,sub-201,1.0,random_dot,59.89555416013889,
left,left,accuracy,,,,,0.0,0.0,0.0,0.0,1.0,1.0,3.0,0.0,138.83907440002076,,,,,,,,,138.8263711000327,139.6396218999289,140.43958589993417,140.4232425999362,140.42327879997902,140.43958589993417,140.43958589993417,140.43958589993417,,142.09144839993678,left,1.0,13.696355799911544,,,,,,,,,,,,,,,,,,,,,,,,,,,,,,,sub-201,1.0,random_dot,59.89555416013889,
left,left,accuracy,,,,,0.0,0.0,0.0,0.0,2.0,0.0,4.0,0.0,142.10523399990052,,,,,,,,,142.092996600084,142.20570089993998,143.00689699989744,142.9902578999754,142.99030030006543,143.00689699989744,143.00689699989744,143.00689699989744,,145.94082999997772,left,1.0,14.983771299943328,,,,,,,,,,,,,,,,,,,,,,,,,,,,,,,sub-201,1.0,random_dot,59.89555416013889,
right,right,accuracy,,,,,0.0,0.0,0.0,0.0,2.0,1.0,5.0,1.0,145.95532330009155,,,,,,,,,145.94244619994424,147.15572010003962,147.95580610004254,147.9404345001094,147.94047680008225,147.95580610004254,147.95580610004254,147.95580610004254,,149.10854950011708,right,1.0,13.202619899995623,,,,,,,,,,,,,,,,,,,,,,,,,,,,,,,sub-201,1.0,random_dot,59.89555416013889,
right,right,accuracy,,,,,0.0,0.0,0.0,0.0,3.0,0.0,6.0,1.0,149.12222529994324,,,,,,,,,149.11038649990223,149.922042200109,150.72235099994575,150.70688829990104,150.7069204999134,150.72235099994575,150.72235099994575,150.72235099994575,155.70573489996605,156.12444470007904,right,1.0,17.445301699684933,,,,,,,,,,,,,,,,,,,,,,,,,,,,,,,sub-201,1.0,random_dot,59.89555416013889,
left,left,accuracy,,,,,0.0,0.0,0.0,0.0,3.0,1.0,7.0,0.0,156.13870600005612,,,,,,,,,156.12628600001335,156.23800419992767,157.03943719994277,157.02365160011686,157.02368790004402,157.03943719994277,157.03943719994277,157.03943719994277,,158.4912076999899,left,1.0,13.492560500046238,,,,,,,,,,,,,,,,,,,,,,,,,,,,,,,sub-201,1.0,random_dot,59.89555416013889,
left,left,accuracy,,,,,0.0,0.0,0.0,0.0,4.0,0.0,8.0,0.0,158.50524559989572,,,,,,,,,158.49259730009362,159.30479339999147,160.10491469991393,160.088656200096,160.08868689998053,160.10491469991393,160.10491469991393,160.10491469991393,,161.74114629998803,left,1.0,13.68515249993652,,,,,,,,,,,,,,,,,,,,,,,,,,,,,,,sub-201,1.0,random_dot,59.89555416013889,
right,right,accuracy,,,,,0.0,0.0,0.0,0.0,4.0,1.0,9.0,1.0,161.75523629994132,,,,,,,,,161.74275320000015,161.85496039991267,162.6552897999063,162.63894800003618,162.6389878001064,162.6552897999063,162.6552897999063,162.6552897999063,,163.55780810001306,right,1.0,12.956151299877092,,,,,,,,,,,,,,,,,,,,,,,,,,,,,,,sub-201,1.0,random_dot,59.89555416013889,
right,right,accuracy,,,,,0.0,0.0,0.0,0.0,5.0,0.0,10.0,1.0,163.5716941000428,,,,,,,,,163.5596547999885,163.92135869991034,164.72197799989954,164.70830509997904,164.70836980012243,164.72197799989954,164.72197799989954,164.72197799989954,,166.44128379994072,right,1.0,13.772539800032972,,,,,,,,,,,,,,,,,,,,,,,,,,,,,,,sub-201,1.0,random_dot,59.89555416013889,
left,left,accuracy,,,,,0.0,0.0,0.0,0.0,5.0,1.0,11.0,0.0,166.4542898000218,,,,,,,,,166.44275330007076,167.6543803999666,168.45510310004465,168.4395745000802,168.4396172000561,168.45510310004465,168.45510310004465,168.45510310004465,,169.7921049001161,left,1.0,13.391485599800944,,,,,,,,,,,,,,,,,,,,,,,,,,,,,,,sub-201,1.0,random_dot,59.89555416013889,
left,left,accuracy,,,,,0.0,0.0,0.0,0.0,6.0,0.0,12.0,0.0,169.80448850011453,,,,,,,,,169.79391509993002,171.00457439990714,171.8051656000316,171.78940019989386,171.78943310002796,171.8051656000316,171.8051656000316,171.8051656000316,,173.6234389001038,left,1.0,13.86932579986751,,,,,,,,,,,,,,,,,,,,,,,,,,,,,,,sub-201,1.0,random_dot,59.89555416013889,
right,right,accuracy,,,,,0.0,0.0,0.0,0.0,6.0,1.0,13.0,1.0,173.63740110001527,,,,,,,,,173.6250104000792,173.9876924001146,174.78801729995757,174.7728617999237,174.77290199999698,174.78801729995757,174.78801729995757,174.78801729995757,,177.55645760009065,right,1.0,14.821664299815891,,,,,,,,,,,,,,,,,,,,,,,,,,,,,,,sub-201,1.0,random_dot,59.89555416013889,
right,right,accuracy,,,,,0.0,0.0,0.0,0.0,7.0,0.0,14.0,1.0,177.57056910009123,,,,,,,,,177.55794729990885,177.67098750011064,178.47149859997444,178.45546300010756,178.45549559989013,178.47149859997444,178.47149859997444,178.47149859997444,,180.00656059989706,right,1.0,13.584664799971506,,,,,,,,,,,,,,,,,,,,,,,,,,,,,,,sub-201,1.0,random_dot,59.89555416013889,
left,left,accuracy,,,,,0.0,0.0,0.0,0.0,7.0,1.0,15.0,0.0,180.02083780011162,,,,,,,,,180.008165899897,180.37091890000735,181.17139289993796,181.15614280011505,181.15618519997224,181.17139289993796,181.17139289993796,181.17139289993796,,182.45584880001843,left,1.0,13.33635459979996,,,,,,,,,,,,,,,,,,,,,,,,,,,,,,,sub-201,1.0,random_dot,59.89555416013889,
right,right,accuracy,,,,,0.0,0.0,0.0,0.0,8.0,0.0,16.0,1.0,182.47023240011185,,,,,,,,,182.4570331000723,183.27060819999315,184.07103889994323,184.05504700005983,184.05508859991096,184.07103889994323,184.07103889994323,184.07103889994323,,185.1065785998944,right,1.0,13.075945099815726,,,,,,,,,,,,,,,,,,,,,,,,,,,,,,,sub-201,1.0,random_dot,59.89555416013889,
left,left,accuracy,,,,,0.0,0.0,0.0,0.0,8.0,1.0,17.0,0.0,185.12071539997123,,,,,,,,,185.1080966999289,185.2206490000244,186.0209103000816,186.0065339999273,186.0065764999017,186.0209103000816,186.0209103000816,186.0209103000816,,187.6896637999453,left,1.0,13.711376499850305,,,,,,,,,,,,,,,,,,,,,,,,,,,,,,,sub-201,1.0,random_dot,59.89555416013889,
left,left,accuracy,,,,,0.0,0.0,0.0,0.0,9.0,0.0,18.0,0.0,187.70347249996848,,,,,,,,,187.691242299974,188.0537962000817,188.8538931999356,188.83882170007564,188.83886269992215,188.8538931999356,188.8538931999356,188.8538931999356,,191.0894859998953,left,1.0,14.289179799845442,,,,,,,,,,,,,,,,,,,,,,,,,,,,,,,sub-201,1.0,random_dot,59.89555416013889,
right,right,accuracy,,,,,0.0,0.0,0.0,0.0,9.0,1.0,19.0,1.0,191.1036886998918,,,,,,,,,191.09134889999405,192.30355240008797,193.10414840001613,193.0887764999643,193.0888098999858,193.10414840001613,193.10414840001613,193.10414840001613,,193.94243380008265,right,1.0,12.891959300031886,,,,,,,,,,,,,,,,,,,,,,,,,,,,,,,sub-201,1.0,random_dot,59.89555416013889,
left,left,accuracy,,,,,0.0,0.0,0.0,0.0,10.0,0.0,20.0,0.0,193.95390309998768,,,,,,,,,193.9442962000612,194.3032382999081,195.10367699991912,195.0887398000341,195.08877900009972,195.10367699991912,195.10367699991912,195.10367699991912,,195.97367210011,left,1.0,12.923570799874142,,,,,,,,,,,,,,,,,,,,,,,,,,,,,,,sub-201,1.0,random_dot,59.89555416013889,
right,right,accuracy,,,,,0.0,0.0,0.0,0.0,10.0,1.0,21.0,1.0,195.98610570002347,,,,,,,,,195.975317500066,197.186746600084,197.9872387999203,197.97156219999303,197.97160140005872,197.9872387999203,197.9872387999203,197.9872387999203,,200.4223921999801,left,0.0,14.475478099891916,,,,,,,,,,,,,,,,,,,,,,,,,,,,,,,sub-201,1.0,random_dot,59.89555416013889,
left,left,accuracy,,,,,0.0,0.0,0.0,0.0,11.0,0.0,22.0,0.0,200.43650180008265,,,,,,,,,200.42422619997524,201.6364315999672,202.43672830006108,202.4212468999904,202.4212873000652,202.43672830006108,202.43672830006108,202.43672830006108,,204.0559251999948,left,1.0,13.667320099892097,,,,,,,,,,,,,,,,,,,,,,,,,,,,,,,sub-201,1.0,random_dot,59.89555416013889,
right,right,accuracy,,,,,0.0,0.0,0.0,0.0,11.0,1.0,23.0,1.0,204.0697270000819,,,,,,,,,204.05747779994272,204.16963899997063,204.9701330000535,204.95444080000743,204.95447589992543,204.9701330000535,204.9701330000535,204.9701330000535,,206.23830080009063,right,1.0,13.31573239993304,,,,,,,,,,,,,,,,,,,,,,,,,,,,,,,sub-201,1.0,random_dot,59.89555416013889,
right,right,accuracy,,,,,0.0,0.0,0.0,0.0,12.0,0.0,24.0,1.0,206.25309269991703,,,,,,,,,206.23972390010024,206.6029964000918,207.40294179995544,207.38751780008897,207.3875512001105,207.40294179995544,207.40294179995544,207.40294179995544,,210.5390097000636,right,1.0,15.18525189999491,,,,,,,,,,,,,,,,,,,,,,,,,,,,,,,sub-201,1.0,random_dot,59.89555416013889,
left,left,accuracy,,,,,0.0,0.0,0.0,0.0,12.0,1.0,25.0,0.0,210.5533179999329,,,,,,,,,210.5407237999607,211.7524778000079,212.5530618999619,212.5397439999506,212.5398180000484,212.5530618999619,212.5530618999619,212.5530618999619,,213.4544492999557,left,1.0,12.94489699974656,,,,,,,,,,,,,,,,,,,,,,,,,,,,,,,sub-201,1.0,random_dot,59.89555416013889,
right,right,accuracy,,,,,0.0,0.0,0.0,0.0,13.0,0.0,26.0,1.0,213.4691014001146,,,,,,,,,213.45632100012156,213.8187589000445,214.61983929993585,214.60451840003952,214.6045564999804,214.61983929993585,214.61983929993585,214.61983929993585,,215.5552705998998,right,1.0,12.989480499876665,,,,,,,,,,,,,,,,,,,,,,,,,,,,,,,sub-201,1.0,random_dot,59.89555416013889,
left,left,accuracy,,,,,0.0,0.0,0.0,0.0,13.0,1.0,27.0,0.0,215.56885239994156,,,,,,,,,215.55713779991493,215.9191374001093,216.719349199906,216.70253270003013,216.70255509996787,216.719349199906,216.719349199906,216.719349199906,,217.72182739991692,left,1.0,13.05771469976753,,,,,,,,,,,,,,,,,,,,,,,,,,,,,,,sub-201,1.0,random_dot,59.89555416013889,
left,left,accuracy,,,,,0.0,0.0,0.0,0.0,14.0,0.0,28.0,0.0,217.7350953000132,,,,,,,,,217.7225895000156,218.0850198001135,218.8857334998902,218.86996240005828,218.87000000011176,218.8857334998902,218.8857334998902,218.8857334998902,,221.33844899991527,left,1.0,14.506871299818158,,,,,,,,,,,,,,,,,,,,,,,,,,,,,,,sub-201,1.0,random_dot,59.89555416013889,
right,right,accuracy,,,,,0.0,0.0,0.0,0.0,14.0,1.0,29.0,1.0,221.35175330005583,,,,,,,,,221.3401440999005,221.70189810008745,222.5026545999572,222.48738640011288,222.48742510005832,222.5026545999572,222.5026545999572,222.5026545999572,,223.18821569997817,right,1.0,12.726759399753064,,,,,,,,,,,,,,,,,,,,,,,,,,,,,,,sub-201,1.0,random_dot,59.89555416013889,
right,right,accuracy,,,,,0.0,0.0,0.0,0.0,15.0,0.0,30.0,1.0,223.2023408000823,,,,,,,,,223.18987350002865,223.30200719996355,224.10279319994152,224.08683770010248,224.0868685999885,224.10279319994152,224.10279319994152,224.10279319994152,,225.65448249992917,right,1.0,13.603820600081235,,,,,,,,,,,,,,,,,,,,,,,,,,,,,,,sub-201,1.0,random_dot,59.89555416013889,
left,left,accuracy,,,,,0.0,0.0,0.0,0.0,15.0,1.0,31.0,0.0,225.6689160000533,,,,,,,,,225.6563734000083,226.46813619998284,227.26860200008375,227.25249810004607,227.25253690010868,227.26860200008375,227.26860200008375,227.26860200008375,,230.0709798000753,left,1.0,14.84866359969601,,,,,,,,,,,,,,,,,,,,,,,,,,,,,,,sub-201,1.0,random_dot,59.89555416013889,
left,left,accuracy,,,,,0.0,0.0,0.0,0.0,16.0,0.0,32.0,0.0,230.0852648001164,,,,,,,,,230.07273579994217,231.2851289000828,232.08571449993175,232.07007090002296,232.07010919996537,232.08571449993175,232.08571449993175,232.08571449993175,,233.6885857000016,left,1.0,13.657133199973032,,,,,,,,,,,,,,,,,,,,,,,,,,,,,,,sub-201,1.0,random_dot,59.89555416013889,
right,right,accuracy,,,,,0.0,0.0,0.0,0.0,16.0,1.0,33.0,1.0,233.701923500048,,,,,,,,,233.6905406001024,233.80171149992384,234.6020533000119,234.5870260000229,234.58709909999743,234.6020533000119,234.6020533000119,234.6020533000119,,236.07088849996217,right,1.0,13.512011799728498,,,,,,,,,,,,,,,,,,,,,,,,,,,,,,,sub-201,1.0,random_dot,59.89555416013889,
left,left,accuracy,,,,,0.0,0.0,0.0,0.0,17.0,0.0,34.0,0.0,236.08444990008135,,,,,,,,,236.0724754999392,236.18463629996404,236.98501190007664,236.96915240003727,236.9691886000801,236.98501190007664,236.98501190007664,236.98501190007664,,239.25374670000747,left,1.0,14.319379599764943,,,,,,,,,,,,,,,,,,,,,,,,,,,,,,,sub-201,1.0,random_dot,59.89555416013889,
right,right,accuracy,,,,,0.0,0.0,0.0,0.0,17.0,1.0,35.0,1.0,239.2682264000177,,,,,,,,,239.25564210000448,240.0679830000736,240.86834389995784,240.85501589998603,240.85508910007772,240.86834389995784,240.86834389995784,240.86834389995784,,243.33624950004744,right,1.0,14.52249089977704,,,,,,,,,,,,,,,,,,,,,,,,,,,,,,,sub-201,1.0,random_dot,59.89555416013889,
right,right,accuracy,,,,,0.0,0.0,0.0,0.0,18.0,0.0,36.0,1.0,243.3508574001025,,,,,,,,,243.33787870011287,243.70165989990343,244.50112899998203,244.48587520001456,244.4859118000604,244.50112899998203,244.50112899998203,244.50112899998203,,247.63644940010272,right,1.0,15.179786799941212,,,,,,,,,,,,,,,,,,,,,,,,,,,,,,,sub-201,1.0,random_dot,59.89555416013889,
left,left,accuracy,,,,,0.0,0.0,0.0,0.0,18.0,1.0,37.0,0.0,247.6510914999526,,,,,,,,,247.6381300999783,248.8510582000017,249.65175510011613,249.6369338000659,249.6370067000389,249.65175510011613,249.65175510011613,249.65175510011613,,250.91999300010505,left,1.0,13.310564499814063,,,,,,,,,,,,,,,,,,,,,,,,,,,,,,,sub-201,1.0,random_dot,59.89555416013889,
left,left,accuracy,,,,,0.0,0.0,0.0,0.0,19.0,0.0,38.0,0.0,250.93392889993265,,,,,,,,,250.92211710009724,251.28413369995545,252.084568799939,252.06869930005632,252.0687325000763,252.084568799939,252.084568799939,252.084568799939,,253.65368960006165,left,1.0,13.617046099854631,,,,,,,,,,,,,,,,,,,,,,,,,,,,,,,sub-201,1.0,random_dot,59.89555416013889,
right,right,accuracy,,,,,0.0,0.0,0.0,0.0,19.0,1.0,39.0,1.0,253.6675384000409,,,,,,,,,253.6554759000428,254.86739689996463,255.66753489989787,255.65274780010805,255.65280080004595,255.66753489989787,255.66753489989787,255.66753489989787,,257.4033949000295,left,0.0,13.781971999909729,,,,,,,,,,,,,,,,,,,,,,,,,,,,,,,sub-201,1.0,random_dot,59.89555416013889,
right,right,accuracy,,,,,0.0,0.0,0.0,0.0,20.0,0.0,40.0,1.0,257.4173212000169,,,,,,,,,257.40505880001,258.21760060009547,259.01730319997296,259.0021480000578,259.00218710000627,259.01730319997296,259.01730319997296,259.01730319997296,,260.069585399935,right,1.0,13.092645099852234,,,,,,,,,,,,,,,,,,,,,,,,,,,,,,,sub-201,1.0,random_dot,59.89555416013889,
left,left,accuracy,,,,,0.0,0.0,0.0,0.0,20.0,1.0,41.0,0.0,260.0836362000555,,,,,,,,,260.07131600007415,260.43387180007994,261.2342030000873,261.21867670002393,261.2187083000317,261.2342030000873,261.2342030000873,261.2342030000873,,263.385295300046,left,1.0,14.192037499975411,,,,,,,,,,,,,,,,,,,,,,,,,,,,,,,sub-201,1.0,random_dot,59.89555416013889,
left,left,accuracy,,,,,0.0,0.0,0.0,0.0,21.0,0.0,42.0,0.0,263.3998430999927,,,,,,,,,263.38727360009216,263.5001691998914,264.30087010003626,264.2846474000253,264.2846806999296,264.30087010003626,264.30087010003626,264.30087010003626,,265.9528047000058,left,1.0,13.696806699968874,,,,,,,,,,,,,,,,,,,,,,,,,,,,,,,sub-201,1.0,random_dot,59.89555416013889,
right,right,accuracy,,,,,0.0,0.0,0.0,0.0,21.0,1.0,43.0,1.0,265.9667086999398,,,,,,,,,265.954691800056,267.1666606999934,267.96732040005736,267.9525584001094,267.95262890006416,267.96732040005736,267.96732040005736,267.96732040005736,,269.30283230007626,right,1.0,13.384615199873224,,,,,,,,,,,,,,,,,,,,,,,,,,,,,,,sub-201,1.0,random_dot,59.89555416013889,
right,right,accuracy,,,,,0.0,0.0,0.0,0.0,22.0,0.0,44.0,1.0,269.31674710009247,,,,,,,,,269.30493779992685,270.11640270007774,270.91709359991364,270.9013044999447,270.90134699991904,270.91709359991364,270.91709359991364,270.91709359991364,,273.03615950001404,right,1.0,14.16192669980228,,,,,,,,,,,,,,,,,,,,,,,,,,,,,,,sub-201,1.0,random_dot,59.89555416013889,
left,left,accuracy,,,,,0.0,0.0,0.0,0.0,22.0,1.0,45.0,0.0,273.0496290998999,,,,,,,,,273.0377581999637,274.2499164000619,275.0501896000933,275.03415050008334,275.03418900002725,275.0501896000933,275.0501896000933,275.0501896000933,,276.63483410002664,left,1.0,13.636219199746847,,,,,,,,,,,,,,,,,,,,,,,,,,,,,,,sub-201,1.0,random_dot,59.89555416013889,
right,right,accuracy,,,,,0.0,0.0,0.0,0.0,23.0,0.0,46.0,1.0,276.64917350001633,,,,,,,,,276.6365652000532,277.8494949999731,278.6502461999189,278.63398259994574,278.63402389991097,278.6502461999189,278.6502461999189,278.6502461999189,,279.86860310006887,right,1.0,13.271450999891384,,,,,,,,,,,,,,,,,,,,,,,,,,,,,,,sub-201,1.0,random_dot,59.89555416013889,
left,left,accuracy,,,,,0.0,0.0,0.0,0.0,23.0,1.0,47.0,0.0,279.88275470002554,,,,,,,,,279.87045169994235,280.6833107999992,281.48318780004047,281.4673788000364,281.46741640008986,281.48318780004047,281.48318780004047,281.48318780004047,,283.0014309999533,left,1.0,13.566711999941615,,,,,,,,,,,,,,,,,,,,,,,,,,,,,,,sub-201,1.0,random_dot,59.89555416013889,
left,left,accuracy,,,,,0.0,0.0,0.0,0.0,24.0,0.0,48.0,0.0,283.0153230999131,,,,,,,,,283.0031582999509,284.21578150009736,285.0170781000052,285.0015972000547,285.00163810001686,285.0170781000052,285.0170781000052,285.0170781000052,,286.985441399971,left,1.0,14.018429199932145,,,,,,,,,,,,,,,,,,,,,,,,,,,,,,,sub-201,1.0,random_dot,59.89555416013889,
right,right,accuracy,,,,,0.0,0.0,0.0,0.0,24.0,1.0,49.0,1.0,286.9988879999146,,,,,,,,,286.98726579989307,287.3489800998941,288.1496731999796,288.1338832001202,288.13392470008694,288.1496731999796,288.1496731999796,288.1496731999796,,289.33500179997645,right,1.0,13.236333399778232,,,,,,,,,,,,,,,,,,,,,,,,,,,,,,,sub-201,1.0,random_dot,59.89555416013889,
right,right,accuracy,,,,,0.0,0.0,0.0,0.0,25.0,0.0,50.0,1.0,289.3487048998941,,,,,,,,,289.3366553999949,290.5491188000888,291.349758700002,291.3340292999055,291.33407089998946,291.349758700002,291.349758700002,291.349758700002,,292.8843839999754,right,1.0,13.575537600088865,,,,,,,,,,,,,,,,,,,,,,,,,,,,,,,sub-201,1.0,random_dot,59.89555416013889,
left,left,accuracy,,,,,0.0,0.0,0.0,0.0,25.0,1.0,51.0,0.0,292.8987759000156,,,,,,,,,292.8861875999719,294.09877589996904,294.8992743999697,294.8834826000966,294.88352259993553,294.8992743999697,294.8992743999697,294.8992743999697,,296.23454020009376,left,1.0,13.37989449989982,,,,,,,,,,,,,,,,,,,,,,,,,,,,,,,sub-201,1.0,random_dot,59.89555416013889,
left,left,accuracy,,,,,0.0,0.0,0.0,0.0,26.0,0.0,52.0,0.0,296.2482578000054,,,,,,,,,296.23617070005275,296.5989524999168,297.3992800000124,297.383148400113,297.3831889000721,297.3992800000124,297.3992800000124,297.3992800000124,,299.21926610008813,left,1.0,13.874102899804711,,,,,,,,,,,,,,,,,,,,,,,,,,,,,,,sub-201,1.0,random_dot,59.89555416013889,
right,right,accuracy,,,,,0.0,0.0,0.0,0.0,26.0,1.0,53.0,1.0,299.2319855000824,,,,,,,,,299.22120829997584,299.58183649997227,300.3821582000237,300.3661503000185,300.3662328000646,300.3821582000237,300.3821582000237,300.3821582000237,,302.7519257001113,right,1.0,14.42408340005204,,,,,,,,,,,,,,,,,,,,,,,,,,,,,,,sub-201,1.0,random_dot,59.89555416013889,
left,left,accuracy,,,,,0.0,0.0,0.0,0.0,27.0,0.0,54.0,0.0,302.7651128999423,,,,,,,,,302.75362360011786,303.5646673000884,304.3656256000977,304.350048399996,304.35009049996734,304.3656256000977,304.3656256000977,304.3656256000977,,306.06798409996554,right,0.0,13.750486299861224,,,,,,,,,,,,,,,,,,,,,,,,,,,,,,,sub-201,1.0,random_dot,59.89555416013889,
right,right,accuracy,,,,,0.0,0.0,0.0,0.0,27.0,1.0,55.0,1.0,306.0815642999951,,,,,,,,,306.0699708000757,307.28168629994616,308.0816329000518,308.066126300022,308.06616610009223,308.0816329000518,308.0816329000518,308.0816329000518,,311.21815069997683,right,1.0,15.1903456998989,,,,,,,,,,,,,,,,,,,,,,,,,,,,,,,sub-201,1.0,random_dot,59.89555416013889,
left,left,accuracy,,,,,0.0,0.0,0.0,0.0,28.0,0.0,56.0,0.0,311.231150199892,,,,,,,,,311.21988079999574,311.5819051999133,312.38201760011725,312.3669853999745,312.36703810002655,312.38201760011725,312.38201760011725,312.38201760011725,,313.3667522999458,left,1.0,13.033603199757636,,,,,,,,,,,,,,,,,,,,,,,,,,,,,,,sub-201,1.0,random_dot,59.89555416013889,
right,right,accuracy,,,,,0.0,0.0,0.0,0.0,28.0,1.0,57.0,1.0,313.3808772000484,,,,,,,,,313.3681111000478,313.481407500105,314.28156729997136,314.2659324000124,314.26597080007195,314.28156729997136,314.28156729997136,314.28156729997136,,316.5837495001033,right,1.0,14.35518019972369,,,,,,,,,,,,,,,,,,,,,,,,,,,,,,,sub-201,1.0,random_dot,59.89555416013889,
left,left,accuracy,,,,,0.0,0.0,0.0,0.0,29.0,0.0,58.0,0.0,316.5978558000643,,,,,,,,,316.5856280999724,316.69773350004107,317.49833289999515,317.48250219994225,317.48253690009005,317.49833289999515,317.49833289999515,317.49833289999515,,318.4837209000252,left,1.0,13.03747219988145,,,,,,,,,,,,,,,,,,,,,,,,,,,,,,,sub-201,1.0,random_dot,59.89555416013889,
right,right,accuracy,,,,,0.0,0.0,0.0,0.0,29.0,1.0,59.0,1.0,318.49847180000506,,,,,,,,,318.48518309998326,318.59816140006296,319.3981697000563,319.38231869996525,319.3823518999852,319.3981697000563,319.3981697000563,319.3981697000563,,321.300280299969,right,1.0,13.94434170005843,,,,,,,,,,,,,,,,,,,,,,,,,,,,,,,sub-201,1.0,random_dot,59.89555416013889,
,,accuracy,,,,,0.0,0.0,0.0,0.0,,,,,,,,,,,,,,,,,,,,,,,,,,,,,,,,,,,,,,,,,,,,,,,,,,,,,,,,,sub-201,1.0,random_dot,59.89555416013889,
left,left,speed,,,,,0.0,1.0,1.0,1.0,0.0,0.0,0.0,0.0,326.23392469994724,,,,,,,,,326.22961980011314,327.4307999999728,328.2312137000263,328.2168380001094,328.21692100004293,328.2312137000263,328.2312137000263,328.2312137000263,,329.2831119000912,right,0.0,13.094126899726689,,,,,,,,,,,,,,,,,,,,321.30161660001613,321.3140296000056,321.3140296000056,326.2161427000537,space,16.955269299913198,,,,,,sub-201,1.0,random_dot,59.89555416013889,
right,right,speed,,,,,0.0,1.0,1.0,1.0,0.0,1.0,1.0,1.0,329.2971318000928,,,,,,,,,329.2852505999617,330.4974740999751,331.29782340000384,331.2846313000191,331.2847064998932,331.29782340000384,331.29782340000384,331.29782340000384,,332.2822692999616,right,1.0,13.029729599831626,,,,,,,,,,,,,,,,,,,,,,,,,,,,,,,sub-201,1.0,random_dot,59.89555416013889,
left,left,speed,,,,,0.0,1.0,1.0,1.0,1.0,0.0,2.0,0.0,332.29671090003103,,,,,,,,,332.28411270002834,332.6469463999383,333.44729160005227,333.43116730009206,333.43120720004663,333.44729160005227,333.44729160005227,333.44729160005227,,334.6500989999622,left,1.0,13.25088209984824,,,,,,,,,,,,,,,,,,,,,,,,,,,,,,,sub-201,1.0,random_dot,59.89555416013889,
right,right,speed,,,,,0.0,1.0,1.0,1.0,1.0,1.0,3.0,1.0,334.6636757000815,,,,,,,,,334.6519673001021,335.01363530009985,335.8139448000584,335.7984652000014,335.7985048000701,335.8139448000584,335.8139448000584,335.8139448000584,,337.2497304999269,right,1.0,13.47735849977471,,,,,,,,,,,,,,,,,,,,,,,,,,,,,,,sub-201,1.0,random_dot,59.89555416013889,
right,right,speed,,,,,0.0,1.0,1.0,1.0,2.0,0.0,4.0,1.0,337.2636412000284,,,,,,,,,337.25169939990155,337.36405960004777,338.1643431999255,338.14935819990933,338.1494293999858,338.1643431999255,338.1643431999255,338.1643431999255,,339.5997752000112,right,1.0,13.483298500068486,,,,,,,,,,,,,,,,,,,,,,,,,,,,,,,sub-201,1.0,random_dot,59.89555416013889,
left,left,speed,,,,,0.0,1.0,1.0,1.0,2.0,1.0,5.0,0.0,339.6128491999116,,,,,,,,,339.6011047998909,340.4136928000953,341.2140510000754,341.1986130999867,341.19865559996106,341.2140510000754,341.2140510000754,341.2140510000754,,341.9492766999174,left,1.0,12.783284900011497,,,,,,,,,,,,,,,,,,,,,,,,,,,,,,,sub-201,1.0,random_dot,59.89555416013889,
right,right,speed,,,,,0.0,1.0,1.0,1.0,3.0,0.0,6.0,1.0,341.9636321000289,,,,,,,,,341.9508891999721,342.313513699919,343.11386299994774,343.0981205001008,343.0981602000538,343.11386299994774,343.11386299994774,343.11386299994774,,343.93309889989905,right,1.0,12.86214349977672,,,,,,,,,,,,,,,,,,,,,,,,,,,,,,,sub-201,1.0,random_dot,59.89555416013889,
left,left,speed,,,,,0.0,1.0,1.0,1.0,3.0,1.0,7.0,0.0,343.94611910008825,,,,,,,,,343.9347147999797,345.14675930002704,345.9470256001223,345.9310942001175,345.93112670001574,345.9470256001223,345.9470256001223,345.9470256001223,,346.7327421999071,left,1.0,12.834996100049466,,,,,,,,,,,,,,,,,,,,,,,,,,,,,,,sub-201,1.0,random_dot,59.89555416013889,
right,right,speed,,,,,0.0,1.0,1.0,1.0,4.0,0.0,8.0,1.0,346.74644359992817,,,,,,,,,346.73462789994664,346.8461865000427,347.64729249989614,347.6314741000533,347.63151330011897,347.64729249989614,347.64729249989614,347.64729249989614,,348.6830009999685,right,1.0,13.083828199887648,,,,,,,,,,,,,,,,,,,,,,,,,,,,,,,sub-201,1.0,random_dot,59.89555416013889,
left,left,speed,,,,,0.0,1.0,1.0,1.0,4.0,1.0,9.0,0.0,348.69620390003547,,,,,,,,,348.6849203000311,348.7964417000767,349.5965050000232,349.58121820003726,349.5812578999903,349.5965050000232,349.5965050000232,349.5965050000232,,351.0832207000349,left,1.0,13.541243399726229,,,,,,,,,,,,,,,,,,,,,,,,,,,,,,,sub-201,1.0,random_dot,59.89555416013889,
right,right,speed,,,,,0.0,1.0,1.0,1.0,5.0,0.0,10.0,1.0,351.0965905999765,,,,,,,,,351.0846408000216,351.89600379997864,352.6961167999543,352.6809968999587,352.6810296999756,352.6961167999543,352.6961167999543,352.6961167999543,,354.40155629999936,left,0.0,13.759468499803916,,,,,,,,,,,,,,,,,,,,,,,,,,,,,,,sub-201,1.0,random_dot,59.89555416013889,
left,left,speed,,,,,0.0,1.0,1.0,1.0,5.0,1.0,11.0,0.0,354.4123519000132,,,,,,,,,354.4038350000046,355.61262660007924,356.4125510000158,356.3966475999914,356.39668529992923,356.4125510000158,356.4125510000158,356.4125510000158,,357.2653874999378,left,1.0,12.896202499745414,,,,,,,,,,,,,,,,,,,,,,,,,,,,,,,sub-201,1.0,random_dot,59.89555416013889,
right,right,speed,,,,,0.0,1.0,1.0,1.0,6.0,0.0,12.0,1.0,357.2794470000081,,,,,,,,,357.26726979995146,358.07919090008363,358.87999329995364,358.8657496001106,358.865821500076,358.87999329995364,358.87999329995364,358.87999329995364,,360.1314699999057,right,1.0,13.294223099946976,,,,,,,,,,,,,,,,,,,,,,,,,,,,,,,sub-201,1.0,random_dot,59.89555416013889,
left,left,speed,,,,,0.0,1.0,1.0,1.0,6.0,1.0,13.0,0.0,360.1458797000814,,,,,,,,,360.13300039991736,360.4957808000036,361.296055899933,361.2802359999623,361.2802718000021,361.296055899933,361.296055899933,361.296055899933,,362.481293000048,left,1.0,13.229037399869412,,,,,,,,,,,,,,,,,,,,,,,,,,,,,,,sub-201,1.0,random_dot,59.89555416013889,
left,left,speed,,,,,0.0,1.0,1.0,1.0,7.0,0.0,14.0,0.0,362.4955253000371,,,,,,,,,362.482794099953,363.2956622000784,364.0955990999937,364.0794639000669,364.0794945000671,364.0955990999937,364.0955990999937,364.0955990999937,,365.8479228001088,right,0.0,13.802431199932473,,,,,,,,,,,,,,,,,,,,,,,,,,,,,,,sub-201,1.0,random_dot,59.89555416013889,
right,right,speed,,,,,0.0,1.0,1.0,1.0,7.0,1.0,15.0,1.0,365.8622675999068,,,,,,,,,365.8495853000786,365.96236209990457,366.7625752000604,366.74664340005256,366.7467243999709,366.7625752000604,366.7625752000604,366.7625752000604,,367.9810852000956,right,1.0,13.259977799840271,,,,,,,,,,,,,,,,,,,,,,,,,,,,,,,sub-201,1.0,random_dot,59.89555416013889,
left,left,speed,,,,,0.0,1.0,1.0,1.0,8.0,0.0,16.0,0.0,367.9953793000896,,,,,,,,,367.9826221999247,368.7955680000596,369.5962656000629,369.5803793999367,369.5804232000373,369.5962656000629,369.5962656000629,369.5962656000629,,370.3144070999697,left,1.0,12.766279799863696,,,,,,,,,,,,,,,,,,,,,,,,,,,,,,,sub-201,1.0,random_dot,59.89555416013889,
right,right,speed,,,,,0.0,1.0,1.0,1.0,8.0,1.0,17.0,1.0,370.3283152999357,,,,,,,,,370.3159366999753,370.6788987999316,371.47861719992943,371.4650828000158,371.46513959998265,371.47861719992943,371.47861719992943,371.47861719992943,,372.4807881999295,right,1.0,13.046692399773749,,,,,,,,,,,,,,,,,,,,,,,,,,,,,,,sub-201,1.0,random_dot,59.89555416013889,
right,right,speed,,,,,0.0,1.0,1.0,1.0,9.0,0.0,18.0,1.0,372.4947959999554,,,,,,,,,372.48229960002936,372.8454807000235,373.6455081999302,373.6300852999557,373.63012499990873,373.6455081999302,373.6455081999302,373.6455081999302,,374.6476944999304,right,1.0,13.044092600001022,,,,,,,,,,,,,,,,,,,,,,,,,,,,,,,sub-201,1.0,random_dot,59.89555416013889,
left,left,speed,,,,,0.0,1.0,1.0,1.0,9.0,1.0,19.0,0.0,374.6615104998928,,,,,,,,,374.6492902999744,375.4614870001096,376.2624288999941,376.2470716000535,376.2471117000096,376.2624288999941,376.2624288999941,376.2624288999941,,376.94712599995546,left,1.0,12.725378799717872,,,,,,,,,,,,,,,,,,,,,,,,,,,,,,,sub-201,1.0,random_dot,59.89555416013889,
left,left,speed,,,,,0.0,1.0,1.0,1.0,10.0,0.0,20.0,0.0,376.961610800121,,,,,,,,,376.9487127000466,377.7621089001186,378.56206159992144,378.5481209999416,378.5481841999572,378.56206159992144,378.56206159992144,378.56206159992144,,379.7975717999507,left,1.0,13.28155509987846,,,,,,,,,,,,,,,,,,,,,,,,,,,,,,,sub-201,1.0,random_dot,59.89555416013889,
right,right,speed,,,,,0.0,1.0,1.0,1.0,10.0,1.0,21.0,1.0,379.8112337999046,,,,,,,,,379.7991623999551,380.6115387000609,381.4118892999832,381.39797990000807,381.39805059996434,381.4118892999832,381.4118892999832,381.4118892999832,,382.2136047999375,right,1.0,12.84684899984859,,,,,,,,,,,,,,,,,,,,,,,,,,,,,,,sub-201,1.0,random_dot,59.89555416013889,
right,right,speed,,,,,0.0,1.0,1.0,1.0,11.0,0.0,22.0,1.0,382.2277613000479,,,,,,,,,382.215261500096,383.4280419999268,384.22798800002784,384.2121854999568,384.21221400005743,384.22798800002784,384.22798800002784,384.22798800002784,,385.1295795000624,right,1.0,12.944409099873155,,,,,,,,,,,,,,,,,,,,,,,,,,,,,,,sub-201,1.0,random_dot,59.89555416013889,
left,left,speed,,,,,0.0,1.0,1.0,1.0,11.0,1.0,23.0,0.0,385.1443334999494,,,,,,,,,385.131085800007,385.4943305000197,386.2954526999965,386.2790353000164,386.2790681999177,386.2954526999965,386.2954526999965,386.2954526999965,,387.746533199912,left,1.0,13.502710099797696,,,,,,,,,,,,,,,,,,,,,,,,,,,,,,,sub-201,1.0,random_dot,59.89555416013889,
left,left,speed,,,,,0.0,1.0,1.0,1.0,12.0,0.0,24.0,0.0,387.76066659996286,,,,,,,,,387.74790570000187,388.1114837001078,388.9117350999732,388.8960361999925,388.8960716000293,388.9117350999732,388.9117350999732,388.9117350999732,,390.4976282999851,right,0.0,13.640438699861988,,,,,,,,,,,,,,,,,,,,,,,,,,,,,,,sub-201,1.0,random_dot,59.89555416013889,
right,right,speed,,,,,0.0,1.0,1.0,1.0,12.0,1.0,25.0,1.0,390.51075950008817,,,,,,,,,390.4986942000687,390.8613976000343,391.6615313000512,391.64573580003344,391.64577640010975,391.6615313000512,391.6615313000512,391.6615313000512,,392.6469163999427,right,1.0,13.029053799808024,,,,,,,,,,,,,,,,,,,,,,,,,,,,,,,sub-201,1.0,random_dot,59.89555416013889,
right,right,speed,,,,,0.0,1.0,1.0,1.0,13.0,0.0,26.0,1.0,392.6608398000244,,,,,,,,,392.6485232000705,393.4607077001128,394.2608876000159,394.2464735000394,394.24651219998486,394.2608876000159,394.2608876000159,394.2608876000159,,396.26306900009513,left,0.0,14.05499459989369,,,,,,,,,,,,,,,,,,,,,,,,,,,,,,,sub-201,1.0,random_dot,59.89555416013889,
left,left,speed,,,,,0.0,1.0,1.0,1.0,13.0,1.0,27.0,0.0,396.277908399934,,,,,,,,,396.2649366001133,396.3776885000989,397.1783773999196,397.16254830011167,397.1625878000632,397.1783773999196,397.1783773999196,397.1783773999196,,398.0302891000174,left,1.0,12.8916300998535,,,,,,,,,,,,,,,,,,,,,,,,,,,,,,,sub-201,1.0,random_dot,59.89555416013889,
left,left,speed,,,,,0.0,1.0,1.0,1.0,14.0,0.0,28.0,0.0,398.0446876999922,,,,,,,,,398.0323870999273,399.24363259994425,400.0446003999096,400.0289429000113,400.028983599972,400.0446003999096,400.0446003999096,400.0446003999096,,400.9797704000957,left,1.0,12.981150099774824,,,,,,,,,,,,,,,,,,,,,,,,,,,,,,,sub-201,1.0,random_dot,59.89555416013889,
right,right,speed,,,,,0.0,1.0,1.0,1.0,14.0,1.0,29.0,1.0,400.99343929998577,,,,,,,,,400.98126580007374,401.09382100007497,401.8944149001036,401.88065490010194,401.8807292000856,401.8944149001036,401.8944149001036,401.8944149001036,,403.2965182000771,right,1.0,13.45411659986712,,,,,,,,,,,,,,,,,,,,,,,,,,,,,,,sub-201,1.0,random_dot,59.89555416013889,
right,right,speed,,,,,0.0,1.0,1.0,1.0,15.0,0.0,30.0,1.0,403.3102432000451,,,,,,,,,403.2983486000449,403.4105690000579,404.2105902999174,404.1950324000791,404.1950723000336,404.2105902999174,404.2105902999174,404.2105902999174,,405.2130305001047,right,1.0,13.051704399753362,,,,,,,,,,,,,,,,,,,,,,,,,,,,,,,sub-201,1.0,random_dot,59.89555416013889,
left,left,speed,,,,,0.0,1.0,1.0,1.0,15.0,1.0,31.0,0.0,405.2272449999582,,,,,,,,,405.21497859992087,405.5766374999657,406.3771947999485,406.3622463000938,406.3622775999829,406.3771947999485,406.3771947999485,406.3771947999485,,407.279538200004,left,1.0,12.944839099887758,,,,,,,,,,,,,,,,,,,,,,,,,,,,,,,sub-201,1.0,random_dot,59.89555416013889,
right,right,speed,,,,,0.0,1.0,1.0,1.0,16.0,0.0,32.0,1.0,407.2938186998945,,,,,,,,,407.2811288998928,407.3935879999772,408.1939984001219,408.1783429998905,408.1783833999653,408.1939984001219,408.1939984001219,408.1939984001219,,409.3469839999452,right,1.0,13.20732539985329,,,,,,,,,,,,,,,,,,,,,,,,,,,,,,,sub-201,1.0,random_dot,59.89555416013889,
left,left,speed,,,,,0.0,1.0,1.0,1.0,16.0,1.0,33.0,0.0,409.359780699946,,,,,,,,,409.3486933999229,409.70988409989513,410.51063410006464,410.4944462000858,410.4944784999825,410.51063410006464,410.51063410006464,410.51063410006464,,412.379894200014,left,1.0,13.919217999791726,,,,,,,,,,,,,,,,,,,,,,,,,,,,,,,sub-201,1.0,random_dot,59.89555416013889,
left,left,speed,,,,,0.0,1.0,1.0,1.0,17.0,0.0,34.0,0.0,412.39345559990034,,,,,,,,,412.381538100075,412.49316089996137,413.2940253000706,413.2795867000241,413.27976629999466,413.2940253000706,413.2940253000706,413.2940253000706,,414.5629622999113,left,1.0,13.30998110002838,,,,,,,,,,,,,,,,,,,,,,,,,,,,,,,sub-201,1.0,random_dot,59.89555416013889,
right,right,speed,,,,,0.0,1.0,1.0,1.0,17.0,1.0,35.0,1.0,414.5769597000908,,,,,,,,,414.56448969990015,415.3768251999281,416.17709470004775,416.1611295999028,416.1611629000399,416.17709470004775,416.17709470004775,416.17709470004775,,417.3450452000834,right,1.0,13.210028499830514,,,,,,,,,,,,,,,,,,,,,,,,,,,,,,,sub-201,1.0,random_dot,59.89555416013889,
right,right,speed,,,,,0.0,1.0,1.0,1.0,18.0,0.0,36.0,1.0,417.35945180011913,,,,,,,,,417.3466314000543,418.5599468001165,419.3602219000459,419.3450959001202,419.3451332999393,419.3602219000459,419.3602219000459,419.3602219000459,,420.9126595999114,right,1.0,13.601965399924666,,,,,,,,,,,,,,,,,,,,,,,,,,,,,,,sub-201,1.0,random_dot,59.89555416013889,
left,left,speed,,,,,0.0,1.0,1.0,1.0,18.0,1.0,37.0,0.0,420.9265113000292,,,,,,,,,420.9143566999119,421.0260584000498,421.8267745000776,421.8101447999943,421.8101838000584,421.8267745000776,421.8267745000776,421.8267745000776,,423.2633702000603,left,1.0,13.490981600014493,,,,,,,,,,,,,,,,,,,,,,,,,,,,,,,sub-201,1.0,random_dot,59.89555416013889,
left,left,speed,,,,,0.0,1.0,1.0,1.0,19.0,0.0,38.0,0.0,423.27615640009753,,,,,,,,,423.2650444000028,423.3762268999126,424.1767329999712,424.1610510000028,424.16109220008366,424.1767329999712,424.1767329999712,424.1767329999712,,425.5110031999648,right,0.0,13.383864199975504,,,,,,,,,,,,,,,,,,,,,,,,,,,,,,,sub-201,1.0,random_dot,59.89555416013889,
right,right,speed,,,,,0.0,1.0,1.0,1.0,19.0,1.0,39.0,1.0,425.52567739994265,,,,,,,,,425.5123427999206,426.725834999932,427.52611130010337,427.5106305999216,427.5106639999431,427.52611130010337,427.52611130010337,427.52611130010337,,428.4449018999003,right,1.0,12.97186589986086,,,,,,,,,,,,,,,,,,,,,,,,,,,,,,,sub-201,1.0,random_dot,59.89555416013889,
left,left,speed,,,,,0.0,1.0,1.0,1.0,20.0,0.0,40.0,0.0,428.459084500093,,,,,,,,,428.4462109999731,428.8090536999516,429.6099515000824,429.5956989999395,429.59576850011945,429.6099515000824,429.6099515000824,429.6099515000824,,430.7951899000909,left,1.0,13.232542399782687,,,,,,,,,,,,,,,,,,,,,,,,,,,,,,,sub-201,1.0,random_dot,59.89555416013889,
right,right,speed,,,,,0.0,1.0,1.0,1.0,20.0,1.0,41.0,1.0,430.8091772999615,,,,,,,,,430.7969545999076,430.9088789999951,431.7096426999197,431.6944637000561,431.6945005999878,431.7096426999197,431.7096426999197,431.7096426999197,,432.8283222001046,right,1.0,13.16297319997102,,,,,,,,,,,,,,,,,,,,,,,,,,,,,,,sub-201,1.0,random_dot,59.89555416013889,
left,left,speed,,,,,0.0,1.0,1.0,1.0,21.0,0.0,42.0,0.0,432.8425072999671,,,,,,,,,432.8298973001074,433.1923229000531,433.9932846999727,433.9769321999047,433.9769601000007,433.9932846999727,433.9932846999727,433.9932846999727,,435.1451203001197,right,0.0,13.202242099912835,,,,,,,,,,,,,,,,,,,,,,,,,,,,,,,sub-201,1.0,random_dot,59.89555416013889,
right,right,speed,,,,,0.0,1.0,1.0,1.0,21.0,1.0,43.0,1.0,435.15856699994765,,,,,,,,,435.1468009999953,435.9590704999864,436.75936209992506,436.743759999983,436.7437990999315,436.75936209992506,436.75936209992506,436.75936209992506,,437.6279684000183,right,1.0,12.92159410007298,,,,,,,,,,,,,,,,,,,,,,,,,,,,,,,sub-201,1.0,random_dot,59.89555416013889,
left,left,speed,,,,,0.0,1.0,1.0,1.0,22.0,0.0,44.0,0.0,437.64192710001953,,,,,,,,,437.6298664000351,438.4422873998992,439.24248329992406,439.2262806999497,439.2263197998982,439.24248329992406,439.24248329992406,439.24248329992406,,439.9598974999972,left,1.0,12.771671599708498,,,,,,,,,,,,,,,,,,,,,,,,,,,,,,,sub-201,1.0,random_dot,59.89555416013889,
right,right,speed,,,,,0.0,1.0,1.0,1.0,22.0,1.0,45.0,1.0,439.9747987000737,,,,,,,,,439.96078730002046,440.0751787000336,440.8754084999673,440.8595642000437,440.8595984999556,440.8754084999673,440.8754084999673,440.8754084999673,,441.82746249996126,right,1.0,12.992421299917623,,,,,,,,,,,,,,,,,,,,,,,,,,,,,,,sub-201,1.0,random_dot,59.89555416013889,
right,right,speed,,,,,0.0,1.0,1.0,1.0,23.0,0.0,46.0,1.0,441.8418123999145,,,,,,,,,441.8287925999612,443.04187480011024,443.8423194999341,443.82693680003285,443.8269764001016,443.8423194999341,443.8423194999341,443.8423194999341,,444.6437896999996,right,1.0,12.854587999871,,,,,,,,,,,,,,,,,,,,,,,,,,,,,,,sub-201,1.0,random_dot,59.89555416013889,
left,left,speed,,,,,0.0,1.0,1.0,1.0,23.0,1.0,47.0,0.0,444.6581617000047,,,,,,,,,444.64556439989246,445.0087512000464,445.8089654999785,445.7932778999675,445.7933100000955,445.8089654999785,445.8089654999785,445.8089654999785,,446.5271850998979,left,1.0,12.770001400029289,,,,,,,,,,,,,,,,,,,,,,,,,,,,,,,sub-201,1.0,random_dot,59.89555416013889,
right,right,speed,,,,,0.0,1.0,1.0,1.0,24.0,0.0,48.0,1.0,446.5421009000856,,,,,,,,,446.5288323999848,446.89194489992224,447.69235039991327,447.6766814000439,447.6767156999558,447.69235039991327,447.69235039991327,447.69235039991327,,448.4430539000314,right,1.0,12.791477299993858,,,,,,,,,,,,,,,,,,,,,,,,,,,,,,,sub-201,1.0,random_dot,59.89555416013889,
left,left,speed,,,,,0.0,1.0,1.0,1.0,24.0,1.0,49.0,0.0,448.4577852999792,,,,,,,,,448.4448969999794,448.808530600043,449.6085938001052,449.59295479999855,449.593000800116,449.6085938001052,449.6085938001052,449.6085938001052,,450.3110607000999,left,1.0,12.747040399815887,,,,,,,,,,,,,,,,,,,,,,,,,,,,,,,sub-201,1.0,random_dot,59.89555416013889,
left,left,speed,,,,,0.0,1.0,1.0,1.0,25.0,0.0,50.0,0.0,450.3249242999591,,,,,,,,,450.31289259996265,450.6750568000134,451.4761063000187,451.4597418999765,451.4597795999143,451.4761063000187,451.4761063000187,451.4761063000187,,452.127347300062,right,0.0,12.696971300058069,,,,,,,,,,,,,,,,,,,,,,,,,,,,,,,sub-201,1.0,random_dot,59.89555416013889,
right,right,speed,,,,,0.0,1.0,1.0,1.0,25.0,1.0,51.0,1.0,452.14127429993823,,,,,,,,,452.1291302999016,452.2413844999392,453.041821599938,453.0262963001151,453.02632760000415,453.041821599938,453.041821599938,453.041821599938,,453.72642629989423,left,0.0,12.730847399914635,,,,,,,,,,,,,,,,,,,,,,,,,,,,,,,sub-201,1.0,random_dot,59.89555416013889,
right,right,speed,,,,,0.0,1.0,1.0,1.0,26.0,0.0,52.0,1.0,453.74112090002745,,,,,,,,,453.7279248998966,454.5413683000952,455.3417098999489,455.3267494000029,455.32678849995136,455.3417098999489,455.3417098999489,455.3417098999489,,456.1776968999766,right,1.0,12.8868625999894,,,,,,,,,,,,,,,,,,,,,,,,,,,,,,,sub-201,1.0,random_dot,59.89555416013889,
left,left,speed,,,,,0.0,1.0,1.0,1.0,26.0,1.0,53.0,0.0,456.19113339995965,,,,,,,,,456.1792816999368,457.3912843000144,458.1921071000397,458.17667270009406,458.17671380005777,458.1921071000397,458.1921071000397,458.1921071000397,,459.01097909989767,left,1.0,12.864661899860948,,,,,,,,,,,,,,,,,,,,,,,,,,,,,,,sub-201,1.0,random_dot,59.89555416013889,
right,right,speed,,,,,0.0,1.0,1.0,1.0,27.0,0.0,54.0,1.0,459.0246502000373,,,,,,,,,459.0124357000459,459.3750350000337,460.1748603999149,460.1594010000117,460.1594404000789,460.1748603999149,460.1748603999149,460.1748603999149,,460.9439930999652,right,1.0,12.808993399841713,,,,,,,,,,,,,,,,,,,,,,,,,,,,,,,sub-201,1.0,random_dot,59.89555416013889,
left,left,speed,,,,,0.0,1.0,1.0,1.0,27.0,1.0,55.0,0.0,460.9579982000869,,,,,,,,,460.9455663000699,461.05764180002734,461.8581912999507,461.8428030998912,461.84284169995226,461.8581912999507,461.8581912999507,461.8581912999507,,463.1442186001223,left,1.0,13.339062199927866,,,,,,,,,,,,,,,,,,,,,,,,,,,,,,,sub-201,1.0,random_dot,59.89555416013889,
left,left,speed,,,,,0.0,1.0,1.0,1.0,28.0,0.0,56.0,0.0,463.1579434000887,,,,,,,,,463.1461984000634,463.2578352000564,464.0581513000652,464.0431196999271,464.0431580001023,464.0581513000652,464.0581513000652,464.0581513000652,,464.87668849993497,left,1.0,12.872174500022084,,,,,,,,,,,,,,,,,,,,,,,,,,,,,,,sub-201,1.0,random_dot,59.89555416013889,
right,right,speed,,,,,0.0,1.0,1.0,1.0,28.0,1.0,57.0,1.0,464.8908583999146,,,,,,,,,464.8785784000065,465.24140010005794,466.0411533000879,466.0258241998963,466.02586630010046,466.0411533000879,466.0411533000879,466.0411533000879,,467.3601820999757,right,1.0,13.36020729970187,,,,,,,,,,,,,,,,,,,,,,,,,,,,,,,sub-201,1.0,random_dot,59.89555416013889,
left,left,speed,,,,,0.0,1.0,1.0,1.0,29.0,0.0,58.0,0.0,467.3743978000712,,,,,,,,,467.3619848000817,468.174000200117,468.9746036001016,468.959258900024,468.9592985000927,468.9746036001016,468.9746036001016,468.9746036001016,,469.86137689999305,left,1.0,12.941127499798313,,,,,,,,,,,,,,,,,,,,,,,,,,,,,,,sub-201,1.0,random_dot,59.89555416013889,
right,right,speed,,,,,0.0,1.0,1.0,1.0,29.0,1.0,59.0,1.0,469.87452440010384,,,,,,,,,469.8633125000633,470.67382330005057,471.4743373999372,471.4585704000201,471.4586006999016,471.4743373999372,471.4743373999372,471.4743373999372,,472.2619517999701,right,1.0,12.841268599964678,,,,,,,,,,,,,,,,,,,,,,,,,,,,,,,sub-201,1.0,random_dot,59.89555416013889,
,,speed,,,,,0.0,1.0,1.0,1.0,,,,,,,,,,,,,,,,,,,,,,,,,,,,,,,,,,,,,,,,,,,,,,,,,,,,,,,,,sub-201,1.0,random_dot,59.89555416013889,
,,,,,,,,,,,,,,,,,,,,,,,,,,,,,,,,,,,,,,,,,,,,,,,,,,,,,,,,,,,,,,,472.2634984999895,472.2739752999041,477.2739315999206,477.2589447000064,sub-201,,,,
