direction,corrAns,thisN,thisTrialN,thisRepN,respDots.keys,respDots.corr,respDots.rt,respDots.duration,randomInstr,respRandomInstr.keys,respRandomInstr.rt,respRandomInstr.duration,practice_trials.thisRepN,practice_trials.thisTrialN,practice_trials.thisN,practice_trials.thisIndex,instr_trials.thisRepN,instr_trials.thisTrialN,instr_trials.thisN,instr_trials.thisIndex,test_trials.thisRepN,test_trials.thisTrialN,test_trials.thisN,test_trials.thisIndex,thisRow.t,notes,general_instruction.started,textGeneralInstr.started,respGeneralInstr.started,general_instruction.stopped,respGeneralInstr.keys,respGeneralInstr.rt,respGeneralInstr.duration,ITI.started,fixcross.started,fixcross.stopped,ITI.stopped,dots.started,backgroundDots.started,stimulusDots.started,respDots.started,stimulusDots.stopped,dots.stopped,practice_trials.respDots.keys,practice_trials.respDots.corr,practice_trials.respDots.rt,practice_trials.respDots.duration,feedback.started,textFeedback.started,feedback.stopped,textFeedback.stopped,info.started,textInfo.started,keyRespInfo.started,info.stopped,keyRespInfo.keys,keyRespInfo.rt,keyRespInfo.duration,test_instruction.started,textTestInstr.started,respTestInstr.started,test_instruction.stopped,respTestInstr.keys,respTestInstr.rt,respTestInstr.duration,random_instruction.started,textRandomInstr.started,respRandomInstr.started,random_instruction.stopped,instr_trials.respRandomInstr.keys,instr_trials.respRandomInstr.rt,instr_trials.respRandomInstr.duration,test_trials.respDots.keys,test_trials.respDots.corr,test_trials.respDots.rt,test_trials.respDots.duration,goodbye.started,textGoodbye.started,textGoodbye.stopped,goodbye.stopped,participant,session,expName,frameRate,Unnamed: 88
,,,,,,,,,,,,,,,,,,,,,,,,,,,0.0023018000065349,0.0062129999860189,0.0062129999860189,24.79046600003494,space,24.7755275000236,,,,,,,,,,,,,,,,,,,,,,,,,,,,,,,,,,,,,,,,,,,,,,,,,sub-109,1,random_dot,60.14303216296397,
right,right,0.0,0.0,0.0,left,0.0,5.010340799984988,,,,,,0.0,0.0,0.0,1.0,,,,,,,,,24.84442510001827,,,,,,,,,24.84087960002944,25.60022010002285,26.4115393999964,26.384278899990026,26.384921199991368,26.4115393999964,26.4115393999964,26.4115393999964,31.384458000015,31.43534660001751,left,0.0,5.010340799984988,,31.450447399984117,31.4553084000363,31.95072830002755,,,,,,,,,,,,,,,,,,,,,,,,,,,,,,,sub-109,1,random_dot,60.14303216296397,
left,left,1.0,1.0,0.0,right,0.0,1.6928644999861715,,,,,,0.0,1.0,1.0,0.0,,,,,,,,,31.96685680001974,,,,,,,,,31.95115249999799,32.05027589999372,32.851340499997605,32.83419369999319,32.83463679999113,32.851340499997605,32.851340499997605,32.851340499997605,,34.55170479998924,right,0.0,1.6928644999861715,,34.55183390004095,34.566890400019474,35.0508880999987,35.066991800034884,,,,,,,,,,,,,,,,,,,,,,,,,,,,,,sub-109,1,random_dot,60.14303216296397,
left,left,2.0,0.0,1.0,left,1.0,1.934011300036218,,,,,,1.0,0.0,2.0,0.0,,,,,,,,,35.066991800034884,,,,,,,,,35.05128250003327,35.15035670000361,35.95125199999893,35.93413840001449,35.934651600022335,35.95125199999893,35.95125199999893,35.95125199999893,,37.9017505000229,left,1.0,1.934011300036218,,37.91153560002567,37.91660799999954,38.4007913999958,38.416740100015886,,,,,,,,,,,,,,,,,,,,,,,,,,,,,,sub-109,1,random_dot,60.14303216296397,
right,right,3.0,1.0,1.0,right,1.0,2.2347792999935336,,,,,,1.0,1.0,3.0,1.0,,,,,,,,,38.416740100015886,,,,,,,,,38.401153600018006,38.51702940004179,39.31797939998796,39.30094899999676,39.3014097000123,39.31797939998796,39.31797939998796,39.31797939998796,,41.55324490001658,right,1.0,2.2347792999935336,,41.5533798999968,41.5670140000293,42.051088400010485,42.06709339999361,,,,,,,,,,,,,,,,,,,,,,,,,,,,,,sub-109,1,random_dot,60.14303216296397,
left,left,4.0,0.0,2.0,right,0.0,11.810893499990923,,,,,,2.0,0.0,4.0,0.0,,,,,,,,,42.06709339999361,,,,,,,,,42.05150040000444,42.86720500001684,43.668033300025854,43.65111420000903,43.65160199999809,43.668033300025854,43.668033300025854,43.668033300025854,48.65507630002685,55.48534409998683,right,0.0,11.810893499990923,,55.48957610002253,55.50051510002231,55.984296400041785,56.00065370002994,,,,,,,,,,,,,,,,,,,,,,,,,,,,,,sub-109,1,random_dot,60.14303216296397,
right,right,5.0,1.0,2.0,right,1.0,1.3849165000137873,,,,,,2.0,1.0,5.0,1.0,,,,,,,,,56.00065370002994,,,,,,,,,55.98467800003709,56.10071600001538,56.90152680000756,56.88456510001561,56.885063600027934,56.90152680000756,56.90152680000756,56.90152680000756,,58.28689139999915,right,1.0,1.3849165000137873,,58.29064299998572,58.300593100022525,58.784621500002686,58.80061169998953,,,,,,,,,,,,,,,,,,,,,,,,,,,,,,sub-109,1,random_dot,60.14303216296397,
left,left,6.0,0.0,3.0,left,1.0,3.0920993000036106,,,,,,3.0,0.0,6.0,0.0,,,,,,,,,58.80061169998953,,,,,,,,,58.78501120000146,58.90073669998674,59.7014006000245,59.68469309998909,59.68516649998492,59.7014006000245,59.7014006000245,59.7014006000245,,62.802066800009925,left,1.0,3.0920993000036106,,62.80220700002974,62.81743390002521,63.301217400003225,63.31732800003374,,,,,,,,,,,,,,,,,,,,,,,,,,,,,,sub-109,1,random_dot,60.14303216296397,
right,right,7.0,1.0,3.0,right,1.0,2.829301599995233,,,,,,3.0,1.0,7.0,1.0,,,,,,,,,63.31732800003374,,,,,,,,,63.301599099999294,63.41719300003024,64.21825109998463,64.20142210001359,64.20183690002887,64.21825109998463,64.21825109998463,64.21825109998463,,67.05188230000203,right,1.0,2.829301599995233,,67.05201300000772,67.06742169999052,67.55104290001327,67.56738230003975,,,,,,,,,,,,,,,,,,,,,,,,,,,,,,sub-109,1,random_dot,60.14303216296397,
left,left,8.0,0.0,4.0,left,1.0,1.8873309000045992,,,,,,4.0,0.0,8.0,0.0,,,,,,,,,67.56738230003975,,,,,,,,,67.5514247000101,67.91742529999465,68.71828860003734,68.70147750002798,68.70195040002,68.71828860003734,68.71828860003734,68.71828860003734,,70.61884280003142,left,1.0,1.8873309000045992,,70.61897180002416,70.63406740000937,71.11830690002535,71.13410319999093,,,,,,,,,,,,,,,,,,,,,,,,,,,,,,sub-109,1,random_dot,60.14303216296397,
right,right,9.0,1.0,4.0,right,1.0,1.23640819999855,,,,,,4.0,1.0,9.0,1.0,,,,,,,,,71.13410319999093,,,,,,,,,71.11877549998462,71.23411530000158,72.03508739999961,72.01830920000793,72.01877930003684,72.03508739999961,72.03508739999961,72.03508739999961,,73.28557000000728,right,1.0,1.23640819999855,,73.28642110002693,73.30086320004193,73.78478839999298,73.80079690000275,,,,,,,,,,,,,,,,,,,,,,,,,,,,,,sub-109,1,random_dot,60.14303216296397,
right,right,10.0,0.0,5.0,left,0.0,1.4568222000380049,,,,,,5.0,0.0,10.0,1.0,,,,,,,,,73.80079690000275,,,,,,,,,73.78521529998397,74.60089520004112,75.40177460003179,75.3849298999994,75.38542080001207,75.40177460003179,75.40177460003179,75.40177460003179,,76.86903400003212,left,0.0,1.4568222000380049,,76.87488890002714,76.88423690001946,77.36813349998556,77.38421960000414,,,,,,,,,,,,,,,,,,,,,,,,,,,,,,sub-109,1,random_dot,60.14303216296397,
left,left,11.0,1.0,5.0,left,1.0,1.815956100006588,,,,,,5.0,1.0,11.0,0.0,,,,,,,,,77.38421960000414,,,,,,,,,77.3685197000159,77.73417260003043,78.53508190001594,78.51817110000411,78.51864870003192,78.53508190001594,78.53508190001594,78.53508190001594,,80.35211179999169,left,1.0,1.815956100006588,,80.35575919999974,80.36761449999176,80.85161529999459,80.86756220000098,,,,,,,,,,,,,,,,,,,,,,,,,,,,,,sub-109,1,random_dot,60.14303216296397,
left,left,12.0,0.0,6.0,right,0.0,3.6847239000489935,,,,,,6.0,0.0,12.0,0.0,,,,,,,,,80.86756220000098,,,,,,,,,80.85197690001223,82.06732070003636,82.8685998999863,82.85170400002971,82.85222480003722,82.8685998999863,82.8685998999863,82.8685998999863,,86.55381010001292,right,0.0,3.6847239000489935,,86.55757569998968,86.56766450003488,87.05160370003432,87.06756330002099,,,,,,,,,,,,,,,,,,,,,,,,,,,,,,sub-109,1,random_dot,60.14303216296397,
right,right,13.0,1.0,6.0,left,0.0,4.46699250000529,,,,,,6.0,1.0,13.0,1.0,,,,,,,,,87.06756330002099,,,,,,,,,87.0519714000402,87.86773870000616,88.66869210003642,88.65170879999641,88.6521897999919,88.66869210003642,88.66869210003642,88.66869210003642,,93.1366091000382,left,0.0,4.46699250000529,,93.13673979998566,93.15101249999134,93.63500190002378,93.65123110002604,,,,,,,,,,,,,,,,,,,,,,,,,,,,,,sub-109,1,random_dot,60.14303216296397,
right,right,14.0,0.0,7.0,left,0.0,1.7345344999921508,,,,,,7.0,0.0,14.0,1.0,,,,,,,,,93.65123110002604,,,,,,,,,93.63539080001648,93.7510569000151,94.5514048000332,94.53477550001116,94.53539540001655,94.5514048000332,94.5514048000332,94.5514048000332,,96.30292059999192,left,0.0,1.7345344999921508,,96.30306420003762,96.31762059999164,96.80135890003294,96.8175472000148,,,,,,,,,,,,,,,,,,,,,,,,,,,,,,sub-109,1,random_dot,60.14303216296397,
left,left,15.0,1.0,7.0,right,0.0,3.983514599967748,,,,,,7.0,1.0,15.0,0.0,,,,,,,,,96.8175472000148,,,,,,,,,96.80175019998568,97.16786799998954,97.9686776000308,97.95189520000712,97.95234690001234,97.9686776000308,97.9686776000308,97.9686776000308,,101.9693616000004,right,0.0,3.983514599967748,,101.9694949000259,101.98457299999428,102.46842960000504,102.4847005000338,,,,,,,,,,,,,,,,,,,,,,,,,,,,,,sub-109,1,random_dot,60.14303216296397,
left,left,16.0,0.0,8.0,right,0.0,1.8562511000200173,,,,,,8.0,0.0,16.0,0.0,,,,,,,,,102.4847005000338,,,,,,,,,102.46880660002353,102.83462879998842,103.6354171000421,103.61863720003748,103.61907790001716,103.6354171000421,103.6354171000421,103.6354171000421,,105.50283860001946,right,0.0,1.8562511000200173,,105.50298200000545,105.5178141000215,106.00185679999412,106.01766970002792,,,,,,,,,,,,,,,,,,,,,,,,,,,,,,sub-109,1,random_dot,60.14303216296397,
right,right,17.0,1.0,8.0,right,1.0,6.792908999952488,,,,,,8.0,1.0,17.0,1.0,,,,,,,,,106.01766970002792,,,,,,,,,106.00224400003208,107.2181300999946,108.01899810001488,108.00248650001596,108.0032382000354,108.01899810001488,108.01899810001488,108.01899810001488,113.00217729998984,114.81954029999906,right,1.0,6.792908999952488,,114.82421069999693,114.83480310003506,115.31879799999297,115.334687900031,,,,,,,,,,,,,,,,,,,,,,,,,,,,,,sub-109,1,random_dot,60.14303216296397,
right,right,18.0,0.0,9.0,right,1.0,2.1988206999958493,,,,,,9.0,0.0,18.0,1.0,,,,,,,,,115.334687900031,,,,,,,,,115.31918320001569,115.4347205000231,116.23563220002688,116.21888180001406,116.219324900012,116.23563220002688,116.23563220002688,116.23563220002688,,118.43598940002266,right,1.0,2.1988206999958493,,118.4361285000341,118.45147349999752,118.93535530002556,118.95170299999882,,,,,,,,,,,,,,,,,,,,,,,,,,,,,,sub-109,1,random_dot,60.14303216296397,
left,left,19.0,1.0,9.0,right,0.0,2.3130869999877177,,,,,,9.0,1.0,19.0,0.0,,,,,,,,,118.95170299999882,,,,,,,,,118.93592120002722,119.30142279999563,120.1023639999912,120.08541880000848,120.0858991999994,120.1023639999912,120.1023639999912,120.1023639999912,,122.4194699000218,right,0.0,2.3130869999877177,,122.42329499998596,122.43495100003202,122.91882760002044,122.93495690001872,,,,,,,,,,,,,,,,,,,,,,,,,,,,,,sub-109,1,random_dot,60.14303216296397,
,,,,,,,,,,,,,,,,,,,,,,,,,,,,,,,,,,,,,,,,,,,,,,,,,,,,122.91898880002556,122.93495690001872,122.93495690001872,126.38575880002465,space,3.4408297999762,,,,,,,,,,,,,,,,,,,,,,,,sub-109,1,random_dot,60.14303216296397,
,,,,,,,,,,,,,,,,,,,,,,,,,,,,,,,,,,,,,,,,,,,,,,,,,,,,,,,,,,,126.38584639999316,126.4017623999971,126.4017623999971,132.53580519999375,space,6.121181900030933,,,,,,,,,,,,,,,,,sub-109,1,random_dot,60.14303216296397,
left,left,0.0,0.0,0.0,left,1.0,5.590260799974203,,accuracy,space,2.910429200041108,,,,,,0.0,0.0,0.0,0.0,0.0,0.0,0.0,0.0,135.5181312999921,,,,,,,,,135.5126040999894,135.6014456000412,136.4025973000098,136.38561370002571,136.38607670000056,136.4025973000098,136.4025973000098,136.4025973000098,141.38593550003134,142.00299990002532,,,,,,,,,,,,,,,,,,,,,,,132.57801250001648,132.58371390000684,132.58371390000684,135.50243430002593,space,2.910429200041108,,left,1.0,5.590260799974203,,,,,,sub-109,1,random_dot,60.14303216296397,
right,right,1.0,1.0,0.0,right,1.0,2.0701172000262886,,accuracy,space,2.910429200041108,,,,,,0.0,0.0,0.0,0.0,0.0,1.0,1.0,1.0,142.01826670003356,,,,,,,,,142.00347510003485,142.1184990000329,142.9193170000217,142.90258629998425,142.90306139999302,142.9193170000217,142.9193170000217,142.9193170000217,,145.0032949000015,,,,,,,,,,,,,,,,,,,,,,,,,,,,,,right,1.0,2.0701172000262886,,,,,,sub-109,1,random_dot,60.14303216296397,
right,right,2.0,0.0,1.0,right,1.0,2.017134200024884,,accuracy,space,2.910429200041108,,,,,,0.0,0.0,0.0,0.0,1.0,0.0,2.0,1.0,145.0184590999852,,,,,,,,,145.0038167000166,145.81857190001756,146.6192650999874,146.60212120000506,146.60256959998517,146.6192650999874,146.6192650999874,146.6192650999874,,148.65328490000684,,,,,,,,,,,,,,,,,,,,,,,,,,,,,,right,1.0,2.017134200024884,,,,,,sub-109,1,random_dot,60.14303216296397,
left,left,3.0,1.0,1.0,left,1.0,3.137948199990205,,accuracy,space,2.910429200041108,,,,,,0.0,0.0,0.0,0.0,1.0,1.0,3.0,0.0,148.66849000001093,,,,,,,,,148.65374440001324,148.76864399999613,149.5692657000036,149.55243290000362,149.55286470003193,149.5692657000036,149.5692657000036,149.5692657000036,,152.72007710003527,,,,,,,,,,,,,,,,,,,,,,,,,,,,,,left,1.0,3.137948199990205,,,,,,sub-109,1,random_dot,60.14303216296397,
right,right,4.0,0.0,2.0,right,1.0,2.728712999960408,,accuracy,space,2.910429200041108,,,,,,0.0,0.0,0.0,0.0,2.0,0.0,4.0,1.0,152.73523470002692,,,,,,,,,152.7206095000147,152.83527079998748,153.63628430000972,153.61906679999083,153.6195041000028,153.63628430000972,153.63628430000972,153.63628430000972,,156.37013220001245,,,,,,,,,,,,,,,,,,,,,,,,,,,,,,right,1.0,2.728712999960408,,,,,,sub-109,1,random_dot,60.14303216296397,
left,left,5.0,1.0,2.0,left,1.0,2.7401988999918103,,accuracy,space,2.910429200041108,,,,,,0.0,0.0,0.0,0.0,2.0,1.0,5.0,0.0,156.38531290000537,,,,,,,,,156.37058620003518,157.18538869998883,157.98629259999143,157.96944760001497,157.9698920000228,157.98629259999143,157.98629259999143,157.98629259999143,,160.73688730003778,,,,,,,,,,,,,,,,,,,,,,,,,,,,,,left,1.0,2.7401988999918103,,,,,,sub-109,1,random_dot,60.14303216296397,
left,left,6.0,0.0,3.0,right,0.0,2.1681235000141896,,accuracy,space,2.910429200041108,,,,,,0.0,0.0,0.0,0.0,3.0,0.0,6.0,0.0,160.751976700034,,,,,,,,,160.73740660003386,160.85217239998747,161.6528757000342,161.6359994999948,161.63641800003825,161.6528757000342,161.6528757000342,161.6528757000342,,163.82162639999297,,,,,,,,,,,,,,,,,,,,,,,,,,,,,,right,0.0,2.1681235000141896,,,,,,sub-109,1,random_dot,60.14303216296397,
right,right,7.0,1.0,3.0,right,1.0,3.8500022999942303,,accuracy,space,2.910429200041108,,,,,,0.0,0.0,0.0,0.0,3.0,1.0,7.0,1.0,163.83531659998698,,,,,,,,,163.82208620000165,164.63551120000193,165.43656360002933,165.41950329998508,165.4199811000144,165.43656360002933,165.43656360002933,165.43656360002933,,169.3034936999902,,,,,,,,,,,,,,,,,,,,,,,,,,,,,,right,1.0,3.8500022999942303,,,,,,sub-109,1,random_dot,60.14303216296397,
left,left,8.0,0.0,4.0,left,1.0,2.982624299998861,,accuracy,space,2.910429200041108,,,,,,0.0,0.0,0.0,0.0,4.0,0.0,8.0,0.0,169.3187981999945,,,,,,,,,169.30403830000432,169.41892640001606,170.2195492000319,170.20279790001223,170.20323560002726,170.2195492000319,170.2195492000319,170.2195492000319,,173.20384149998426,,,,,,,,,,,,,,,,,,,,,,,,,,,,,,left,1.0,2.982624299998861,,,,,,sub-109,1,random_dot,60.14303216296397,
right,right,9.0,1.0,4.0,right,1.0,3.377917999983765,,accuracy,space,2.910429200041108,,,,,,0.0,0.0,0.0,0.0,4.0,1.0,9.0,1.0,173.2188426000066,,,,,,,,,173.20430990000025,173.31889009999577,174.1196947999997,174.10279850004008,174.10340240004007,174.1196947999997,174.1196947999997,174.1196947999997,,177.50396340002771,,,,,,,,,,,,,,,,,,,,,,,,,,,,,,right,1.0,3.377917999983765,,,,,,sub-109,1,random_dot,60.14303216296397,
right,right,10.0,0.0,5.0,left,0.0,2.5682381999795325,,accuracy,space,2.910429200041108,,,,,,0.0,0.0,0.0,0.0,5.0,0.0,10.0,1.0,177.51910840003984,,,,,,,,,177.5044892000151,178.71879740001168,179.51977830001852,179.50306780001847,179.50353919999907,179.51977830001852,179.51977830001852,179.51977830001852,,182.1038397999946,,,,,,,,,,,,,,,,,,,,,,,,,,,,,,left,0.0,2.5682381999795325,,,,,,sub-109,1,random_dot,60.14303216296397,
left,left,11.0,1.0,5.0,left,1.0,2.283733599993866,,accuracy,space,2.910429200041108,,,,,,0.0,0.0,0.0,0.0,5.0,1.0,11.0,0.0,182.11863230000017,,,,,,,,,182.10435550002148,183.31898620002903,184.120024200005,184.10326790000545,184.10378589999164,184.120024200005,184.120024200005,184.120024200005,,186.42035880003823,,,,,,,,,,,,,,,,,,,,,,,,,,,,,,left,1.0,2.283733599993866,,,,,,sub-109,1,random_dot,60.14303216296397,
right,right,12.0,0.0,6.0,left,0.0,3.3071201000129804,,accuracy,space,2.910429200041108,,,,,,0.0,0.0,0.0,0.0,6.0,0.0,12.0,1.0,186.43568260001484,,,,,,,,,186.4208365000086,186.5355785000138,187.33655599999477,187.319604600023,187.32002290000676,187.33655599999477,187.33655599999477,187.33655599999477,,190.65385559998683,,,,,,,,,,,,,,,,,,,,,,,,,,,,,,left,0.0,3.3071201000129804,,,,,,sub-109,1,random_dot,60.14303216296397,
left,left,13.0,1.0,6.0,right,0.0,3.959612999984529,,accuracy,space,2.910429200041108,,,,,,0.0,0.0,0.0,0.0,6.0,1.0,13.0,0.0,190.6691299999948,,,,,,,,,190.6543354000314,191.8692622000235,192.6701426000218,192.65328160003992,192.65377410000656,192.6701426000218,192.6701426000218,192.6701426000218,,196.63707200001227,,,,,,,,,,,,,,,,,,,,,,,,,,,,,,right,0.0,3.959612999984529,,,,,,sub-109,1,random_dot,60.14303216296397,
left,left,14.0,0.0,7.0,left,1.0,3.377726699982304,,accuracy,space,2.910429200041108,,,,,,0.0,0.0,0.0,0.0,7.0,0.0,14.0,0.0,196.65254869998896,,,,,,,,,196.6375304000103,197.852437100024,198.65353270003104,198.63660070003243,198.6371384999948,198.65353270003104,198.65353270003104,198.65353270003104,,202.03725679998752,,,,,,,,,,,,,,,,,,,,,,,,,,,,,,left,1.0,3.377726699982304,,,,,,sub-109,1,random_dot,60.14303216296397,
right,right,15.0,1.0,7.0,left,0.0,3.663040300016291,,accuracy,space,2.910429200041108,,,,,,0.0,0.0,0.0,0.0,7.0,1.0,15.0,1.0,202.0523993000388,,,,,,,,,202.0377181000076,202.15261839999584,202.9535400000168,202.9364545000135,202.9368650999968,202.9535400000168,202.9535400000168,202.9535400000168,,206.6208693000372,,,,,,,,,,,,,,,,,,,,,,,,,,,,,,left,0.0,3.663040300016291,,,,,,sub-109,1,random_dot,60.14303216296397,
right,right,16.0,0.0,8.0,right,1.0,1.2736202999949455,,accuracy,space,2.910429200041108,,,,,,0.0,0.0,0.0,0.0,8.0,0.0,16.0,1.0,206.6358860000037,,,,,,,,,206.62133140000515,206.7360451000277,207.53670830000192,207.5199360999977,207.5203812000109,207.53670830000192,207.53670830000192,207.53670830000192,,208.82108640001388,,,,,,,,,,,,,,,,,,,,,,,,,,,,,,right,1.0,1.2736202999949455,,,,,,sub-109,1,random_dot,60.14303216296397,
left,left,17.0,1.0,8.0,right,0.0,3.034687999985181,,accuracy,space,2.910429200041108,,,,,,0.0,0.0,0.0,0.0,8.0,1.0,17.0,0.0,208.83604890003332,,,,,,,,,208.82160289998865,209.18590280000356,209.98694560001604,209.97013480000896,209.97055969998476,209.98694560001604,209.98694560001604,209.98694560001604,,213.03747919999296,,,,,,,,,,,,,,,,,,,,,,,,,,,,,,right,0.0,3.034687999985181,,,,,,sub-109,1,random_dot,60.14303216296397,
right,right,18.0,0.0,9.0,right,1.0,3.393964399991092,,accuracy,space,2.910429200041108,,,,,,0.0,0.0,0.0,0.0,9.0,0.0,18.0,1.0,213.0528552000178,,,,,,,,,213.0379523999873,213.85307830001693,214.65367510000945,214.6366654000012,214.6370836999849,214.65367510000945,214.65367510000945,214.65367510000945,,218.05424710002265,,,,,,,,,,,,,,,,,,,,,,,,,,,,,,right,1.0,3.393964399991092,,,,,,sub-109,1,random_dot,60.14303216296397,
left,left,19.0,1.0,9.0,left,1.0,2.8325602999539115,,accuracy,space,2.910429200041108,,,,,,0.0,0.0,0.0,0.0,9.0,1.0,19.0,0.0,218.06948050000935,,,,,,,,,218.0547399999923,219.26950080000097,220.0703205000027,220.0533654000028,220.05378630000632,220.0703205000027,220.0703205000027,220.0703205000027,,222.9044389000046,,,,,,,,,,,,,,,,,,,,,,,,,,,,,,left,1.0,2.8325602999539115,,,,,,sub-109,1,random_dot,60.14303216296397,
right,right,20.0,0.0,10.0,right,1.0,3.914142100024037,,accuracy,space,2.910429200041108,,,,,,0.0,0.0,0.0,0.0,10.0,0.0,20.0,1.0,222.91965940000955,,,,,,,,,222.90490040002624,223.26917620003223,224.07036150002384,224.05354130000345,224.0540102000232,224.07036150002384,224.07036150002384,224.07036150002384,,227.98755620000884,,,,,,,,,,,,,,,,,,,,,,,,,,,,,,right,1.0,3.914142100024037,,,,,,sub-109,1,random_dot,60.14303216296397,
left,left,21.0,1.0,10.0,left,1.0,3.7193481999565847,,accuracy,space,2.910429200041108,,,,,,0.0,0.0,0.0,0.0,10.0,1.0,21.0,0.0,228.00279900000896,,,,,,,,,227.9880747999996,228.102931100002,228.9037274000002,228.88684250001097,228.8872572000255,228.9037274000002,228.9037274000002,228.9037274000002,,232.6380700999871,,,,,,,,,,,,,,,,,,,,,,,,,,,,,,left,1.0,3.7193481999565847,,,,,,sub-109,1,random_dot,60.14303216296397,
left,left,22.0,0.0,11.0,left,1.0,2.690171000023838,,accuracy,space,2.910429200041108,,,,,,0.0,0.0,0.0,0.0,11.0,0.0,22.0,0.0,232.65311860002112,,,,,,,,,232.63856849999863,233.85343860002467,234.65399940003408,234.63712219998703,234.6375829000026,234.65399940003408,234.65399940003408,234.65399940003408,,237.3544819999952,,,,,,,,,,,,,,,,,,,,,,,,,,,,,,left,1.0,2.690171000023838,,,,,,sub-109,1,random_dot,60.14303216296397,
right,right,23.0,1.0,11.0,right,1.0,4.478683500026818,,accuracy,space,2.910429200041108,,,,,,0.0,0.0,0.0,0.0,11.0,1.0,23.0,1.0,237.3697293000296,,,,,,,,,237.3548082000343,237.71939089999069,238.5206337000127,238.50364200002517,238.50414680002723,238.5206337000127,238.5206337000127,238.5206337000127,,243.0046828000341,,,,,,,,,,,,,,,,,,,,,,,,,,,,,,right,1.0,4.478683500026818,,,,,,sub-109,1,random_dot,60.14303216296397,
left,left,24.0,0.0,12.0,left,1.0,3.768243199971039,,accuracy,space,2.910429200041108,,,,,,0.0,0.0,0.0,0.0,12.0,0.0,24.0,0.0,243.01970030000663,,,,,,,,,243.0052185000386,243.8198484000168,244.62048199999845,244.6037967000157,244.60422650002877,244.62048199999845,244.62048199999845,244.62048199999845,,248.4046777000185,,,,,,,,,,,,,,,,,,,,,,,,,,,,,,left,1.0,3.768243199971039,,,,,,sub-109,1,random_dot,60.14303216296397,
right,right,25.0,1.0,12.0,right,1.0,2.7430128999985754,,accuracy,space,2.910429200041108,,,,,,0.0,0.0,0.0,0.0,12.0,1.0,25.0,1.0,248.4200775999925,,,,,,,,,248.40521629998693,248.76991329999876,249.57074719999216,249.55390860000625,249.554352200008,249.57074719999216,249.57074719999216,249.57074719999216,,252.3213717000326,,,,,,,,,,,,,,,,,,,,,,,,,,,,,,right,1.0,2.7430128999985754,,,,,,sub-109,1,random_dot,60.14303216296397,
left,left,26.0,0.0,13.0,left,1.0,1.2629439000156708,,accuracy,space,2.910429200041108,,,,,,0.0,0.0,0.0,0.0,13.0,0.0,26.0,0.0,252.33664679998765,,,,,,,,,252.32185960002244,252.68674650002504,253.4878075000015,253.47055860003456,253.47110249998516,253.4878075000015,253.4878075000015,253.4878075000015,,254.7546176000033,,,,,,,,,,,,,,,,,,,,,,,,,,,,,,left,1.0,1.2629439000156708,,,,,,sub-109,1,random_dot,60.14303216296397,
right,right,27.0,1.0,13.0,right,1.0,3.276472300000023,,accuracy,space,2.910429200041108,,,,,,0.0,0.0,0.0,0.0,13.0,1.0,27.0,1.0,254.77023620001276,,,,,,,,,254.75565740000457,255.1200734000304,255.9208348999964,255.9039460000349,255.90441960003227,255.9208348999964,255.9208348999964,255.9208348999964,,259.2048111000331,,,,,,,,,,,,,,,,,,,,,,,,,,,,,,right,1.0,3.276472300000023,,,,,,sub-109,1,random_dot,60.14303216296397,
right,right,28.0,0.0,14.0,right,1.0,1.473693200037815,,accuracy,space,2.910429200041108,,,,,,0.0,0.0,0.0,0.0,14.0,0.0,28.0,1.0,259.2200397999841,,,,,,,,,259.2053020999884,259.57020580000244,260.3707766000298,260.354072200018,260.35449300002074,260.3707766000298,260.3707766000298,260.3707766000298,,261.8555611000047,,,,,,,,,,,,,,,,,,,,,,,,,,,,,,right,1.0,1.473693200037815,,,,,,sub-109,1,random_dot,60.14303216296397,
left,left,29.0,1.0,14.0,left,1.0,1.1691233000019563,,accuracy,space,2.910429200041108,,,,,,0.0,0.0,0.0,0.0,14.0,1.0,29.0,0.0,261.8701051000389,,,,,,,,,261.8560712999897,261.970008000033,262.77104160003364,262.7539645000361,262.75438190001296,262.77104160003364,262.77104160003364,262.77104160003364,,263.954947500024,,,,,,,,,,,,,,,,,,,,,,,,,,,,,,left,1.0,1.1691233000019563,,,,,,sub-109,1,random_dot,60.14303216296397,
left,left,30.0,0.0,15.0,left,1.0,2.956461899972055,,accuracy,space,2.910429200041108,,,,,,0.0,0.0,0.0,0.0,15.0,0.0,30.0,0.0,263.9702059000265,,,,,,,,,263.9556161999936,264.3201357999933,265.12097510002786,265.1041527999914,265.1046032999875,265.12097510002786,265.12097510002786,265.12097510002786,,268.0883901999914,,,,,,,,,,,,,,,,,,,,,,,,,,,,,,left,1.0,2.956461899972055,,,,,,sub-109,1,random_dot,60.14303216296397,
right,right,31.0,1.0,15.0,right,1.0,1.3174521999899298,,accuracy,space,2.910429200041108,,,,,,0.0,0.0,0.0,0.0,15.0,1.0,31.0,1.0,268.10358150000684,,,,,,,,,268.08896090002963,268.20362660003593,269.004490500025,268.98763480002526,268.9883169000386,269.004490500025,269.004490500025,269.004490500025,,270.33843330002856,,,,,,,,,,,,,,,,,,,,,,,,,,,,,,right,1.0,1.3174521999899298,,,,,,sub-109,1,random_dot,60.14303216296397,
left,left,32.0,0.0,16.0,left,1.0,2.0620687999762595,,accuracy,space,2.910429200041108,,,,,,0.0,0.0,0.0,0.0,16.0,0.0,32.0,0.0,270.35362960002385,,,,,,,,,270.3389212000184,270.45355929998914,271.25439680001,271.2374500000151,271.237866200041,271.25439680001,271.25439680001,271.25439680001,,273.3218328999937,,,,,,,,,,,,,,,,,,,,,,,,,,,,,,left,1.0,2.0620687999762595,,,,,,sub-109,1,random_dot,60.14303216296397,
right,right,33.0,1.0,16.0,right,1.0,0.8779112999909557,,accuracy,space,2.910429200041108,,,,,,0.0,0.0,0.0,0.0,16.0,1.0,33.0,1.0,273.3369079999975,,,,,,,,,273.32236950000515,273.437070999993,274.2377966000349,274.22080750000896,274.2212993000285,274.2377966000349,274.2377966000349,274.2377966000349,,275.12239480001153,,,,,,,,,,,,,,,,,,,,,,,,,,,,,,right,1.0,0.8779112999909557,,,,,,sub-109,1,random_dot,60.14303216296397,
right,right,34.0,0.0,17.0,right,1.0,1.8880942999967372,,accuracy,space,2.910429200041108,,,,,,0.0,0.0,0.0,0.0,17.0,0.0,34.0,1.0,275.1370334000094,,,,,,,,,275.12290260003647,275.4870539000258,276.2878416000167,276.2745399000123,276.2755766999908,276.2878416000167,276.2878416000167,276.2878416000167,,278.18960700003663,,,,,,,,,,,,,,,,,,,,,,,,,,,,,,right,1.0,1.8880942999967372,,,,,,sub-109,1,random_dot,60.14303216296397,
left,left,35.0,1.0,17.0,left,1.0,1.1958237999933772,,accuracy,space,2.910429200041108,,,,,,0.0,0.0,0.0,0.0,17.0,1.0,35.0,0.0,278.2038510999992,,,,,,,,,278.1904338999884,279.0038113000337,279.8046752000228,279.78776670002844,279.7882224000059,279.8046752000228,279.8046752000228,279.8046752000228,,281.0051073000068,,,,,,,,,,,,,,,,,,,,,,,,,,,,,,left,1.0,1.1958237999933772,,,,,,sub-109,1,random_dot,60.14303216296397,
left,left,36.0,0.0,18.0,left,1.0,2.9219842000165954,,accuracy,space,2.910429200041108,,,,,,0.0,0.0,0.0,0.0,18.0,0.0,36.0,0.0,281.0203802000033,,,,,,,,,281.0056156000355,281.120455700031,281.9213399,281.90422820003005,281.9046400000225,281.9213399,281.9213399,281.9213399,,284.8553443000419,,,,,,,,,,,,,,,,,,,,,,,,,,,,,,left,1.0,2.9219842000165954,,,,,,sub-109,1,random_dot,60.14303216296397,
right,right,37.0,1.0,18.0,right,1.0,3.467465399997309,,accuracy,space,2.910429200041108,,,,,,0.0,0.0,0.0,0.0,18.0,1.0,37.0,1.0,284.87068719998933,,,,,,,,,284.8558172000339,284.9708160000155,285.7714621000341,285.7540967999957,285.7544009000412,285.7714621000341,285.7714621000341,285.7714621000341,,289.2552840000135,,,,,,,,,,,,,,,,,,,,,,,,,,,,,,right,1.0,3.467465399997309,,,,,,sub-109,1,random_dot,60.14303216296397,
right,right,38.0,0.0,19.0,left,0.0,2.536695300019346,,accuracy,space,2.910429200041108,,,,,,0.0,0.0,0.0,0.0,19.0,0.0,38.0,1.0,289.2704668000224,,,,,,,,,289.2558769999887,289.3706065000151,290.17130590003217,290.1543971000356,290.1548226000159,290.17130590003217,290.17130590003217,290.17130590003217,,292.72224319999805,,,,,,,,,,,,,,,,,,,,,,,,,,,,,,left,0.0,2.536695300019346,,,,,,sub-109,1,random_dot,60.14303216296397,
left,left,39.0,1.0,19.0,left,1.0,2.288943899970036,,accuracy,space,2.910429200041108,,,,,,0.0,0.0,0.0,0.0,19.0,1.0,39.0,0.0,292.73728760000085,,,,,,,,,292.7227527000359,293.0872229000088,293.88804280001204,293.87065689999145,293.8710844999878,293.88804280001204,293.88804280001204,293.88804280001204,,296.18887469999027,,,,,,,,,,,,,,,,,,,,,,,,,,,,,,left,1.0,2.288943899970036,,,,,,sub-109,1,random_dot,60.14303216296397,
left,left,40.0,0.0,20.0,left,1.0,1.1000221999711357,,accuracy,space,2.910429200041108,,,,,,0.0,0.0,0.0,0.0,20.0,0.0,40.0,0.0,296.2039274999988,,,,,,,,,296.1894671000191,296.30395540001336,297.1047528000199,297.0877230000333,297.0881673000404,297.1047528000199,297.1047528000199,297.1047528000199,,298.20559339999454,,,,,,,,,,,,,,,,,,,,,,,,,,,,,,left,1.0,1.1000221999711357,,,,,,sub-109,1,random_dot,60.14303216296397,
right,right,41.0,1.0,20.0,right,1.0,1.2945800999877974,,accuracy,space,2.910429200041108,,,,,,0.0,0.0,0.0,0.0,20.0,1.0,41.0,1.0,298.2206321000121,,,,,,,,,298.2060577000375,298.3206977000227,299.1214317000122,299.10440970002674,299.10483450000174,299.1214317000122,299.1214317000122,299.1214317000122,,300.4216204000404,,,,,,,,,,,,,,,,,,,,,,,,,,,,,,right,1.0,1.2945800999877974,,,,,,sub-109,1,random_dot,60.14303216296397,
right,right,42.0,0.0,21.0,right,1.0,1.451970100053586,,accuracy,space,2.910429200041108,,,,,,0.0,0.0,0.0,0.0,21.0,0.0,42.0,1.0,300.43704240000807,,,,,,,,,300.42210720002186,300.7870907000033,301.5879245999968,301.5711163000087,301.5715329000377,301.5879245999968,301.5879245999968,301.5879245999968,,303.0554852000205,,,,,,,,,,,,,,,,,,,,,,,,,,,,,,right,1.0,1.451970100053586,,,,,,sub-109,1,random_dot,60.14303216296397,
left,left,43.0,1.0,21.0,left,1.0,2.4423091000062414,,accuracy,space,2.910429200041108,,,,,,0.0,0.0,0.0,0.0,21.0,1.0,43.0,0.0,303.07078820001334,,,,,,,,,303.05600430001505,304.2707655000268,305.0716274000006,305.0547280000173,305.0551798000233,305.0716274000006,305.0716274000006,305.0716274000006,,307.52235119999386,,,,,,,,,,,,,,,,,,,,,,,,,,,,,,left,1.0,2.4423091000062414,,,,,,sub-109,1,random_dot,60.14303216296397,
left,left,44.0,0.0,22.0,right,0.0,1.276321100012865,,accuracy,space,2.910429200041108,,,,,,0.0,0.0,0.0,0.0,22.0,0.0,44.0,0.0,307.5374645999982,,,,,,,,,307.5228662000154,307.8875082000159,308.6882848000387,308.6715330000152,308.67202910000924,308.6882848000387,308.6882848000387,308.6882848000387,,309.97261759999674,,,,,,,,,,,,,,,,,,,,,,,,,,,,,,right,0.0,1.276321100012865,,,,,,sub-109,1,random_dot,60.14303216296397,
right,right,45.0,1.0,22.0,right,1.0,1.2819025000208055,,accuracy,space,2.910429200041108,,,,,,0.0,0.0,0.0,0.0,22.0,1.0,45.0,1.0,309.9880209999974,,,,,,,,,309.97308770002564,311.187656300026,311.98842370003695,311.97143879998475,311.9720560000278,311.98842370003695,311.98842370003695,311.98842370003695,,313.2723012000206,,,,,,,,,,,,,,,,,,,,,,,,,,,,,,right,1.0,1.2819025000208055,,,,,,sub-109,1,random_dot,60.14303216296397,
right,right,46.0,0.0,23.0,right,1.0,1.695099200005643,,accuracy,space,2.910429200041108,,,,,,0.0,0.0,0.0,0.0,23.0,0.0,46.0,1.0,313.2875960000092,,,,,,,,,313.2727736000088,313.3871541999979,314.1886463999981,314.1716046000365,314.17217030003667,314.1886463999981,314.1886463999981,314.1886463999981,,315.8884711000137,,,,,,,,,,,,,,,,,,,,,,,,,,,,,,right,1.0,1.695099200005643,,,,,,sub-109,1,random_dot,60.14303216296397,
left,left,47.0,1.0,23.0,left,1.0,1.123068000015337,,accuracy,space,2.910429200041108,,,,,,0.0,0.0,0.0,0.0,23.0,1.0,47.0,0.0,315.90384159999667,,,,,,,,,315.88899750000564,317.1037679000292,317.904696099984,317.8872984999907,317.887634099985,317.904696099984,317.904696099984,317.904696099984,,319.0393557000207,,,,,,,,,,,,,,,,,,,,,,,,,,,,,,left,1.0,1.123068000015337,,,,,,sub-109,1,random_dot,60.14303216296397,
left,left,48.0,0.0,24.0,right,0.0,2.653227200033143,,accuracy,space,2.910429200041108,,,,,,0.0,0.0,0.0,0.0,24.0,0.0,48.0,0.0,319.05439480004134,,,,,,,,,319.03989519999595,319.404408500006,320.20509510004194,320.1882495000027,320.1886943000136,320.20509510004194,320.20509510004194,320.20509510004194,,322.8726580000366,,,,,,,,,,,,,,,,,,,,,,,,,,,,,,right,0.0,2.653227200033143,,,,,,sub-109,1,random_dot,60.14303216296397,
right,right,49.0,1.0,24.0,right,1.0,1.95202289998997,,accuracy,space,2.910429200041108,,,,,,0.0,0.0,0.0,0.0,24.0,1.0,49.0,1.0,322.8876736999955,,,,,,,,,322.8731234000297,323.68771410000045,324.4887452000403,324.47175369999604,324.47226400004,324.4887452000403,324.4887452000403,324.4887452000403,,326.4556946000084,,,,,,,,,,,,,,,,,,,,,,,,,,,,,,right,1.0,1.95202289998997,,,,,,sub-109,1,random_dot,60.14303216296397,
right,right,50.0,0.0,25.0,right,1.0,1.5682061999686994,,accuracy,space,2.910429200041108,,,,,,0.0,0.0,0.0,0.0,25.0,0.0,50.0,1.0,326.4709826000035,,,,,,,,,326.45619669999,327.6713675000356,328.47478129999945,328.45524410001235,328.455786800012,328.47478129999945,328.47478129999945,328.47478129999945,,330.0558476999868,,,,,,,,,,,,,,,,,,,,,,,,,,,,,,right,1.0,1.5682061999686994,,,,,,sub-109,1,random_dot,60.14303216296397,
left,left,51.0,1.0,25.0,left,1.0,1.5830460999859497,,accuracy,space,2.910429200041108,,,,,,0.0,0.0,0.0,0.0,25.0,1.0,51.0,0.0,330.07111439999426,,,,,,,,,330.05631890002405,330.87124780000886,331.67209920001915,331.6552243999904,331.6556852000067,331.67209920001915,331.67209920001915,331.67209920001915,,333.2721576000331,,,,,,,,,,,,,,,,,,,,,,,,,,,,,,left,1.0,1.5830460999859497,,,,,,sub-109,1,random_dot,60.14303216296397,
right,right,52.0,0.0,26.0,right,1.0,1.2394575999933295,,accuracy,space,2.910429200041108,,,,,,0.0,0.0,0.0,0.0,26.0,0.0,52.0,1.0,333.2878766999929,,,,,,,,,333.2725470000296,334.087920400023,334.88873230002355,334.8719021999859,334.8723760999856,334.88873230002355,334.88873230002355,334.88873230002355,,336.1392621000414,,,,,,,,,,,,,,,,,,,,,,,,,,,,,,right,1.0,1.2394575999933295,,,,,,sub-109,1,random_dot,60.14303216296397,
left,left,53.0,1.0,26.0,right,0.0,2.632097200024873,,accuracy,space,2.910429200041108,,,,,,0.0,0.0,0.0,0.0,26.0,1.0,53.0,0.0,336.15443029999733,,,,,,,,,336.1397311000037,336.9545201000292,337.7550866000238,337.73854039999424,337.73896290000994,337.7550866000238,337.7550866000238,337.7550866000238,,340.3894568000105,,,,,,,,,,,,,,,,,,,,,,,,,,,,,,right,0.0,2.632097200024873,,,,,,sub-109,1,random_dot,60.14303216296397,
left,left,54.0,0.0,27.0,left,1.0,2.571658300003037,,accuracy,space,2.910429200041108,,,,,,0.0,0.0,0.0,0.0,27.0,0.0,54.0,0.0,340.4045036000316,,,,,,,,,340.38998300000094,340.7546935999999,341.55544520000694,341.5386195000028,341.53925690002507,341.55544520000694,341.55544520000694,341.55544520000694,,344.13939359999495,,,,,,,,,,,,,,,,,,,,,,,,,,,,,,left,1.0,2.571658300003037,,,,,,sub-109,1,random_dot,60.14303216296397,
right,right,55.0,1.0,27.0,left,0.0,3.7419604000169775,,accuracy,space,2.910429200041108,,,,,,0.0,0.0,0.0,0.0,27.0,1.0,55.0,1.0,344.15439450001577,,,,,,,,,344.13990280003054,345.3547727999976,346.15552510001,346.1387461000122,346.1392140000244,346.15552510001,346.15552510001,346.15552510001,,349.9060070000123,,,,,,,,,,,,,,,,,,,,,,,,,,,,,,left,0.0,3.7419604000169775,,,,,,sub-109,1,random_dot,60.14303216296397,
left,left,56.0,0.0,28.0,left,1.0,2.6750462999916635,,accuracy,space,2.910429200041108,,,,,,0.0,0.0,0.0,0.0,28.0,0.0,56.0,0.0,349.9215152999968,,,,,,,,,349.9064636999974,351.1214722000296,351.922018399986,351.905113100016,351.90557430003537,351.922018399986,351.922018399986,351.922018399986,,354.60620959999505,,,,,,,,,,,,,,,,,,,,,,,,,,,,,,left,1.0,2.6750462999916635,,,,,,sub-109,1,random_dot,60.14303216296397,
right,right,57.0,1.0,28.0,left,0.0,3.384640700009186,,accuracy,space,2.910429200041108,,,,,,0.0,0.0,0.0,0.0,28.0,1.0,57.0,1.0,354.62141810002504,,,,,,,,,354.60670480004046,354.97162660001777,355.77220170001965,355.75506699999096,355.75549549999414,355.77220170001965,355.77220170001965,355.77220170001965,,359.17335300002014,,,,,,,,,,,,,,,,,,,,,,,,,,,,,,left,0.0,3.384640700009186,,,,,,sub-109,1,random_dot,60.14303216296397,
left,left,58.0,0.0,29.0,left,1.0,2.5105611999752,,accuracy,space,2.910429200041108,,,,,,0.0,0.0,0.0,0.0,29.0,0.0,58.0,0.0,359.1882489999989,,,,,,,,,359.1739830999868,359.2882245000219,360.0889217000222,360.07201790000545,360.0724421000341,360.0889217000222,360.0889217000222,360.0889217000222,,362.6063215000322,,,,,,,,,,,,,,,,,,,,,,,,,,,,,,left,1.0,2.5105611999752,,,,,,sub-109,1,random_dot,60.14303216296397,
right,right,59.0,1.0,29.0,right,1.0,3.0497228000313044,,accuracy,space,2.910429200041108,,,,,,0.0,0.0,0.0,0.0,29.0,1.0,59.0,1.0,362.6215126999887,,,,,,,,,362.60739800002193,363.8215981000103,364.6225018000114,364.6055527999997,364.60597129998496,364.6225018000114,364.6225018000114,364.6225018000114,,367.6729722000309,,,,,,,,,,,,,,,,,,,,,,,,,,,,,,right,1.0,3.0497228000313044,,,,,,sub-109,1,random_dot,60.14303216296397,
,,0.0,0.0,0.0,,,,,accuracy,space,2.910429200041108,,,,,,0.0,0.0,0.0,0.0,,,,,,,,,,,,,,,,,,,,,,,,,,,,,,,,,,,,,,,,,,,,,,,,,,,,,,,,,,,,,sub-109,1,random_dot,60.14303216296397,
right,right,0.0,0.0,0.0,right,1.0,0.6685361000127159,,speed,space,3.519814800005406,,,,,,0.0,1.0,1.0,1.0,0.0,0.0,0.0,1.0,371.23843460000353,,,,,,,,,371.2324380000355,371.3216111999936,372.1224219999858,372.105588800041,372.10602639999706,372.1224219999858,372.1224219999858,372.1224219999858,,372.8062425000244,,,,,,,,,,,,,,,,,,,,,,,367.6873066000408,367.69133910001256,367.69133910001256,371.2223769000266,space,3.519814800005406,,right,1.0,0.6685361000127159,,,,,,sub-109,1,random_dot,60.14303216296397,
left,left,1.0,1.0,0.0,left,1.0,0.7336740999598987,,speed,space,3.519814800005406,,,,,,0.0,1.0,1.0,1.0,0.0,1.0,1.0,0.0,372.82171879999805,,,,,,,,,372.80680250003934,372.92172819998814,373.7226395999896,373.7058834999916,373.7064796999912,373.7226395999896,373.7226395999896,373.7226395999896,,374.45675150002353,,,,,,,,,,,,,,,,,,,,,,,,,,,,,,left,1.0,0.7336740999598987,,,,,,sub-109,1,random_dot,60.14303216296397,
right,right,2.0,0.0,1.0,right,1.0,0.8348901999997906,,speed,space,3.519814800005406,,,,,,0.0,1.0,1.0,1.0,1.0,0.0,2.0,1.0,374.4716772999964,,,,,,,,,374.45722590002697,374.8217581000063,375.6225930000073,375.60574880003696,375.60625539999455,375.6225930000073,375.6225930000073,375.6225930000073,,376.4732106000301,,,,,,,,,,,,,,,,,,,,,,,,,,,,,,right,1.0,0.8348901999997906,,,,,,sub-109,1,random_dot,60.14303216296397,
left,left,3.0,1.0,1.0,left,1.0,1.31927810003981,,speed,space,3.519814800005406,,,,,,0.0,1.0,1.0,1.0,1.0,1.0,3.0,0.0,376.488511500007,,,,,,,,,376.4737092999858,376.8389178999933,377.6392159000388,377.6222290000296,377.6227115000365,377.6392159000388,377.6392159000388,377.6392159000388,,378.9735277,,,,,,,,,,,,,,,,,,,,,,,,,,,,,,left,1.0,1.31927810003981,,,,,,sub-109,1,random_dot,60.14303216296397,
right,right,4.0,0.0,2.0,left,0.0,2.039599300012924,,speed,space,3.519814800005406,,,,,,0.0,1.0,1.0,1.0,2.0,0.0,4.0,1.0,378.9884520000196,,,,,,,,,378.9741195000242,379.7883455000119,380.5893070999882,380.57238989998586,380.5728544000304,380.5893070999882,380.5893070999882,380.5893070999882,,382.6398441999918,,,,,,,,,,,,,,,,,,,,,,,,,,,,,,left,0.0,2.039599300012924,,,,,,sub-109,1,random_dot,60.14303216296397,
left,left,5.0,1.0,2.0,right,0.0,0.7869669999927282,,speed,space,3.519814800005406,,,,,,0.0,1.0,1.0,1.0,2.0,1.0,5.0,0.0,382.6551969000138,,,,,,,,,382.6403143000207,383.45540010003606,384.2558371000341,384.2391223000013,384.2395739000058,384.2558371000341,384.2558371000341,384.2558371000341,,385.0565648000338,,,,,,,,,,,,,,,,,,,,,,,,,,,,,,right,0.0,0.7869669999927282,,,,,,sub-109,1,random_dot,60.14303216296397,
left,left,6.0,0.0,3.0,left,1.0,1.2887331999954768,,speed,space,3.519814800005406,,,,,,0.0,1.0,1.0,1.0,3.0,0.0,6.0,0.0,385.0719468999887,,,,,,,,,385.05703999998514,385.8719262999948,386.67282360000536,386.6559931000229,386.65644729998894,386.67282360000536,386.67282360000536,386.67282360000536,,387.97313320002286,,,,,,,,,,,,,,,,,,,,,,,,,,,,,,left,1.0,1.2887331999954768,,,,,,sub-109,1,random_dot,60.14303216296397,
right,right,7.0,1.0,3.0,left,0.0,0.8627117999712937,,speed,space,3.519814800005406,,,,,,0.0,1.0,1.0,1.0,3.0,1.0,7.0,1.0,387.9883861000417,,,,,,,,,387.9736418999965,388.3386025000364,389.1394440000295,389.1224891000311,389.12297870003385,389.1394440000295,389.1394440000295,389.1394440000295,,390.0067420999985,,,,,,,,,,,,,,,,,,,,,,,,,,,,,,left,0.0,0.8627117999712937,,,,,,sub-109,1,random_dot,60.14303216296397,
left,left,8.0,0.0,4.0,left,1.0,1.96878990001278,,speed,space,3.519814800005406,,,,,,0.0,1.0,1.0,1.0,4.0,0.0,8.0,0.0,390.0219045000267,,,,,,,,,390.007269099995,391.2219704000163,392.0228392999852,392.0059644000139,392.0064181000344,392.0228392999852,392.0228392999852,392.0228392999852,,394.0068130000145,,,,,,,,,,,,,,,,,,,,,,,,,,,,,,left,1.0,1.96878990001278,,,,,,sub-109,1,random_dot,60.14303216296397,
right,right,9.0,1.0,4.0,right,1.0,1.0063503000419587,,speed,space,3.519814800005406,,,,,,0.0,1.0,1.0,1.0,4.0,1.0,9.0,1.0,394.022045699996,,,,,,,,,394.0073556000134,394.1218713999842,394.9228269000305,394.9059489000356,394.9063656000071,394.9228269000305,394.9228269000305,394.9228269000305,,395.9403267999878,,,,,,,,,,,,,,,,,,,,,,,,,,,,,,right,1.0,1.0063503000419587,,,,,,sub-109,1,random_dot,60.14303216296397,
right,right,10.0,0.0,5.0,right,1.0,1.052816699957475,,speed,space,3.519814800005406,,,,,,0.0,1.0,1.0,1.0,5.0,0.0,10.0,1.0,395.9553749000188,,,,,,,,,395.9408715000027,396.05535310000414,396.8563148000394,396.83938270004,396.8397936000256,396.8563148000394,396.8563148000394,396.8563148000394,,397.92333640001016,,,,,,,,,,,,,,,,,,,,,,,,,,,,,,right,1.0,1.052816699957475,,,,,,sub-109,1,random_dot,60.14303216296397,
left,left,11.0,1.0,5.0,left,1.0,0.9571427999762818,,speed,space,3.519814800005406,,,,,,0.0,1.0,1.0,1.0,5.0,1.0,11.0,0.0,397.9387401000131,,,,,,,,,397.9238795000128,398.73877789999824,399.5397368000122,399.5227891000104,399.5232096000109,399.5397368000122,399.5397368000122,399.5397368000122,,400.5068806000054,,,,,,,,,,,,,,,,,,,,,,,,,,,,,,left,1.0,0.9571427999762818,,,,,,sub-109,1,random_dot,60.14303216296397,
right,right,12.0,0.0,6.0,right,1.0,1.5536343000130728,,speed,space,3.519814800005406,,,,,,0.0,1.0,1.0,1.0,6.0,0.0,12.0,1.0,400.5220734000322,,,,,,,,,400.5077511999989,401.72224989999086,402.5230257000076,402.5060739000328,402.5065667000017,402.5230257000076,402.5230257000076,402.5230257000076,,404.0904239999945,,,,,,,,,,,,,,,,,,,,,,,,,,,,,,right,1.0,1.5536343000130728,,,,,,sub-109,1,random_dot,60.14303216296397,
left,left,13.0,1.0,6.0,left,1.0,1.4876953999628313,,speed,space,3.519814800005406,,,,,,0.0,1.0,1.0,1.0,6.0,1.0,13.0,0.0,404.1054823999875,,,,,,,,,404.0909740999923,404.2056748000323,405.0062743999879,404.9892705000239,404.9896836000262,405.0062743999879,405.0062743999879,405.0062743999879,,406.507081400021,,,,,,,,,,,,,,,,,,,,,,,,,,,,,,left,1.0,1.4876953999628313,,,,,,sub-109,1,random_dot,60.14303216296397,
right,right,14.0,0.0,7.0,right,1.0,1.0588503999751993,,speed,space,3.519814800005406,,,,,,0.0,1.0,1.0,1.0,7.0,0.0,14.0,1.0,406.5222444999963,,,,,,,,,406.5076087000198,406.8723294000374,407.6727389000007,407.6559092000243,407.6563277000096,407.6727389000007,407.6727389000007,407.6727389000007,,408.7404519999982,,,,,,,,,,,,,,,,,,,,,,,,,,,,,,right,1.0,1.0588503999751993,,,,,,sub-109,1,random_dot,60.14303216296397,
left,left,15.0,1.0,7.0,left,1.0,1.2043458999833092,,speed,space,3.519814800005406,,,,,,0.0,1.0,1.0,1.0,7.0,1.0,15.0,0.0,408.75543650001055,,,,,,,,,408.7409748000209,409.5555277999956,410.356249000004,410.33949330000905,410.33998879999854,410.356249000004,410.356249000004,410.356249000004,,411.5733709000051,,,,,,,,,,,,,,,,,,,,,,,,,,,,,,left,1.0,1.2043458999833092,,,,,,sub-109,1,random_dot,60.14303216296397,
right,right,16.0,0.0,8.0,right,1.0,0.7104792000027373,,speed,space,3.519814800005406,,,,,,0.0,1.0,1.0,1.0,8.0,0.0,16.0,1.0,411.58891869999934,,,,,,,,,411.5738790000323,411.68893240002217,412.4897042000084,412.4729078999953,412.473404999997,412.4897042000084,412.4897042000084,412.4897042000084,,413.2072188000311,,,,,,,,,,,,,,,,,,,,,,,,,,,,,,right,1.0,0.7104792000027373,,,,,,sub-109,1,random_dot,60.14303216296397,
left,left,17.0,1.0,8.0,left,1.0,2.6328710000379942,,speed,space,3.519814800005406,,,,,,0.0,1.0,1.0,1.0,8.0,1.0,17.0,0.0,413.2222818000009,,,,,,,,,413.20783989998745,414.42233150004176,415.2230554000125,415.2063999000238,415.2068694999907,415.2230554000125,415.2230554000125,415.2230554000125,,417.85703210002976,,,,,,,,,,,,,,,,,,,,,,,,,,,,,,left,1.0,2.6328710000379942,,,,,,sub-109,1,random_dot,60.14303216296397,
left,left,18.0,0.0,9.0,left,1.0,4.493719700025395,,speed,space,3.519814800005406,,,,,,0.0,1.0,1.0,1.0,9.0,0.0,18.0,0.0,417.8733530000318,,,,,,,,,417.8574811000144,419.0718372000265,419.8733216000255,419.85601889999816,419.85643680003705,419.8733216000255,419.8733216000255,419.8733216000255,,424.3730888999999,,,,,,,,,,,,,,,,,,,,,,,,,,,,,,left,1.0,4.493719700025395,,,,,,sub-109,1,random_dot,60.14303216296397,
right,right,19.0,1.0,9.0,right,1.0,0.9696962999878452,,speed,space,3.519814800005406,,,,,,0.0,1.0,1.0,1.0,9.0,1.0,19.0,1.0,424.3885890000384,,,,,,,,,424.3735421000165,424.4883582000039,425.2891031000181,425.27259060001234,425.2730117000174,425.2891031000181,425.2891031000181,425.2891031000181,,426.2732351000304,,,,,,,,,,,,,,,,,,,,,,,,,,,,,,right,1.0,0.9696962999878452,,,,,,sub-109,1,random_dot,60.14303216296397,
left,left,20.0,0.0,10.0,right,0.0,0.9295725999982096,,speed,space,3.519814800005406,,,,,,0.0,1.0,1.0,1.0,10.0,0.0,20.0,0.0,426.2886436000117,,,,,,,,,426.2737781000324,426.63872690004064,427.43908919999376,427.42256440001074,427.4230449000024,427.43908919999376,427.43908919999376,427.43908919999376,,428.37294999998994,,,,,,,,,,,,,,,,,,,,,,,,,,,,,,right,0.0,0.9295725999982096,,,,,,sub-109,1,random_dot,60.14303216296397,
right,right,21.0,1.0,10.0,right,1.0,1.301607699948363,,speed,space,3.519814800005406,,,,,,0.0,1.0,1.0,1.0,10.0,1.0,21.0,1.0,428.3886320000165,,,,,,,,,428.3734476999962,428.7220259000314,429.52272120001726,429.50563410000177,429.5060627000057,429.52272120001726,429.52272120001726,429.52272120001726,,430.84032950003166,,,,,,,,,,,,,,,,,,,,,,,,,,,,,,right,1.0,1.301607699948363,,,,,,sub-109,1,random_dot,60.14303216296397,
left,left,22.0,0.0,11.0,left,1.0,1.3664432000368834,,speed,space,3.519814800005406,,,,,,0.0,1.0,1.0,1.0,11.0,0.0,22.0,0.0,430.85568490001606,,,,,,,,,430.840917500027,431.6557306000032,432.4568265000125,432.4400070999982,432.4404821000062,432.4568265000125,432.4568265000125,432.4568265000125,,433.8240345999948,,,,,,,,,,,,,,,,,,,,,,,,,,,,,,left,1.0,1.3664432000368834,,,,,,sub-109,1,random_dot,60.14303216296397,
right,right,23.0,1.0,11.0,left,0.0,3.541910200030543,,speed,space,3.519814800005406,,,,,,0.0,1.0,1.0,1.0,11.0,1.0,23.0,1.0,433.8391229000408,,,,,,,,,433.82449440000346,434.18950859998586,434.9900150999893,434.9731393000111,434.9735913000186,434.9900150999893,434.9900150999893,434.9900150999893,,438.5407121999888,,,,,,,,,,,,,,,,,,,,,,,,,,,,,,left,0.0,3.541910200030543,,,,,,sub-109,1,random_dot,60.14303216296397,
left,left,24.0,0.0,12.0,left,1.0,0.8231368000269867,,speed,space,3.519814800005406,,,,,,0.0,1.0,1.0,1.0,12.0,0.0,24.0,0.0,438.5559778999887,,,,,,,,,438.5411982000224,438.6560686000157,439.456597100012,439.4398106000153,439.4402479000273,439.456597100012,439.456597100012,439.456597100012,,440.2908124999958,,,,,,,,,,,,,,,,,,,,,,,,,,,,,,left,1.0,0.8231368000269867,,,,,,sub-109,1,random_dot,60.14303216296397,
right,right,25.0,1.0,12.0,right,1.0,1.302586700010579,,speed,space,3.519814800005406,,,,,,0.0,1.0,1.0,1.0,12.0,1.0,25.0,1.0,440.3060314999893,,,,,,,,,440.29140200000256,440.6559418000397,441.45674080000026,441.4398217999842,441.4402611000114,441.45674080000026,441.45674080000026,441.45674080000026,,442.7742098000017,,,,,,,,,,,,,,,,,,,,,,,,,,,,,,right,1.0,1.302586700010579,,,,,,sub-109,1,random_dot,60.14303216296397,
left,left,26.0,0.0,13.0,left,1.0,0.954775599995628,,speed,space,3.519814800005406,,,,,,0.0,1.0,1.0,1.0,13.0,0.0,26.0,0.0,442.78939900000114,,,,,,,,,442.7747445999994,443.58938150003087,444.3901138000074,444.3729477000306,444.3733801000053,444.3901138000074,444.3901138000074,444.3901138000074,,445.357573300018,,,,,,,,,,,,,,,,,,,,,,,,,,,,,,left,1.0,0.954775599995628,,,,,,sub-109,1,random_dot,60.14303216296397,
right,right,27.0,1.0,13.0,left,0.0,0.6167957000434399,,speed,space,3.519814800005406,,,,,,0.0,1.0,1.0,1.0,13.0,1.0,27.0,1.0,445.3727638000273,,,,,,,,,445.35813760000747,445.47283620003145,446.273580899986,446.2564247000264,446.2568361000158,446.273580899986,446.273580899986,446.273580899986,,446.9081310000038,,,,,,,,,,,,,,,,,,,,,,,,,,,,,,left,0.0,0.6167957000434399,,,,,,sub-109,1,random_dot,60.14303216296397,
left,left,28.0,0.0,14.0,right,0.0,0.98717239999678,,speed,space,3.519814800005406,,,,,,0.0,1.0,1.0,1.0,14.0,0.0,28.0,0.0,446.9228262000252,,,,,,,,,446.9086471000337,447.02273419999983,447.82354459998896,447.8066978999996,447.80719339998905,447.82354459998896,447.82354459998896,447.82354459998896,,448.82415810000384,,,,,,,,,,,,,,,,,,,,,,,,,,,,,,right,0.0,0.98717239999678,,,,,,sub-109,1,random_dot,60.14303216296397,
right,right,29.0,1.0,14.0,right,1.0,0.6967415999970399,,speed,space,3.519814800005406,,,,,,0.0,1.0,1.0,1.0,14.0,1.0,29.0,1.0,448.8395836999989,,,,,,,,,448.8247276000329,448.9393890000065,449.74021479999647,449.72335390001535,449.7237959000049,449.74021479999647,449.74021479999647,449.74021479999647,,450.4407499000081,,,,,,,,,,,,,,,,,,,,,,,,,,,,,,right,1.0,0.6967415999970399,,,,,,sub-109,1,random_dot,60.14303216296397,
right,right,30.0,0.0,15.0,left,0.0,1.7527873000362888,,speed,space,3.519814800005406,,,,,,0.0,1.0,1.0,1.0,15.0,0.0,30.0,1.0,450.45614240004215,,,,,,,,,450.4412512000417,450.8063349000295,451.60639179998543,451.5893994999933,451.589824500028,451.60639179998543,451.60639179998543,451.60639179998543,,453.37405059998855,,,,,,,,,,,,,,,,,,,,,,,,,,,,,,left,0.0,1.7527873000362888,,,,,,sub-109,1,random_dot,60.14303216296397,
left,left,31.0,1.0,15.0,left,1.0,1.2782978999894112,,speed,space,3.519814800005406,,,,,,0.0,1.0,1.0,1.0,15.0,1.0,31.0,0.0,453.3893518000259,,,,,,,,,453.3745091999881,453.489550600003,454.290161699988,454.2735155000119,454.2739260999952,454.290161699988,454.290161699988,454.290161699988,,455.5744129000232,,,,,,,,,,,,,,,,,,,,,,,,,,,,,,left,1.0,1.2782978999894112,,,,,,sub-109,1,random_dot,60.14303216296397,
right,right,32.0,0.0,16.0,right,1.0,2.131933700002264,,speed,space,3.519814800005406,,,,,,0.0,1.0,1.0,1.0,16.0,0.0,32.0,1.0,455.5895548000117,,,,,,,,,455.57500200002687,456.3895036000176,457.192223799997,457.173214600014,457.17363730003126,457.192223799997,457.192223799997,457.192223799997,,459.324977900018,,,,,,,,,,,,,,,,,,,,,,,,,,,,,,right,1.0,2.131933700002264,,,,,,sub-109,1,random_dot,60.14303216296397,
left,left,33.0,1.0,16.0,left,1.0,0.7625445000012405,,speed,space,3.519814800005406,,,,,,0.0,1.0,1.0,1.0,16.0,1.0,33.0,0.0,459.33965680003166,,,,,,,,,459.3254465000354,459.6894248999888,460.49045129999286,460.4735805999953,460.4740637000068,460.49045129999286,460.49045129999286,460.49045129999286,,461.25868660002016,,,,,,,,,,,,,,,,,,,,,,,,,,,,,,left,1.0,0.7625445000012405,,,,,,sub-109,1,random_dot,60.14303216296397,
right,right,34.0,0.0,17.0,left,0.0,0.8464739000191912,,speed,space,3.519814800005406,,,,,,0.0,1.0,1.0,1.0,17.0,0.0,34.0,1.0,461.2729868000024,,,,,,,,,461.2591910000192,461.6230714000412,462.42371260002255,462.4070629000198,462.4075379000278,462.42371260002255,462.42371260002255,462.42371260002255,,463.2743790000095,,,,,,,,,,,,,,,,,,,,,,,,,,,,,,left,0.0,0.8464739000191912,,,,,,sub-109,1,random_dot,60.14303216296397,
left,left,35.0,1.0,17.0,left,1.0,1.3183379000402056,,speed,space,3.519814800005406,,,,,,0.0,1.0,1.0,1.0,17.0,1.0,35.0,0.0,463.2896165000275,,,,,,,,,463.2748466000194,463.6397585000377,464.439699599985,464.4232703000307,464.4237073000404,464.439699599985,464.439699599985,464.439699599985,,465.7742344000144,,,,,,,,,,,,,,,,,,,,,,,,,,,,,,left,1.0,1.3183379000402056,,,,,,sub-109,1,random_dot,60.14303216296397,
right,right,36.0,0.0,18.0,left,0.0,0.9037791999871844,,speed,space,3.519814800005406,,,,,,0.0,1.0,1.0,1.0,18.0,0.0,36.0,1.0,465.7895220000064,,,,,,,,,465.7748356999946,466.9897318999865,467.7907262000372,467.7738404000411,467.77427799999714,467.7907262000372,467.7907262000372,467.7907262000372,,468.70789610000793,,,,,,,,,,,,,,,,,,,,,,,,,,,,,,left,0.0,0.9037791999871844,,,,,,sub-109,1,random_dot,60.14303216296397,
left,left,37.0,1.0,18.0,left,1.0,1.1476957000559196,,speed,space,3.519814800005406,,,,,,0.0,1.0,1.0,1.0,18.0,1.0,37.0,0.0,468.7230542000034,,,,,,,,,468.7084209999885,469.522766900016,470.3239879999892,470.3071624999866,470.3076815000386,470.3239879999892,470.3239879999892,470.3239879999892,,471.4742334000184,,,,,,,,,,,,,,,,,,,,,,,,,,,,,,left,1.0,1.1476957000559196,,,,,,sub-109,1,random_dot,60.14303216296397,
right,right,38.0,0.0,19.0,right,1.0,1.4958977000205778,,speed,space,3.519814800005406,,,,,,0.0,1.0,1.0,1.0,19.0,0.0,38.0,1.0,471.4897263000021,,,,,,,,,471.47469150001416,471.5897663999931,472.3930910000345,472.3736207000329,472.3740565000335,472.3930910000345,472.3930910000345,472.3930910000345,,473.8913969999994,,,,,,,,,,,,,,,,,,,,,,,,,,,,,,right,1.0,1.4958977000205778,,,,,,sub-109,1,random_dot,60.14303216296397,
left,left,39.0,1.0,19.0,left,1.0,1.400284499977715,,speed,space,3.519814800005406,,,,,,0.0,1.0,1.0,1.0,19.0,1.0,39.0,0.0,473.90643880004063,,,,,,,,,473.8918937999988,474.7065195000032,475.5074042000342,475.4905824000016,475.49104739999166,475.5074042000342,475.5074042000342,475.5074042000342,,476.90842390002217,,,,,,,,,,,,,,,,,,,,,,,,,,,,,,left,1.0,1.400284499977715,,,,,,sub-109,1,random_dot,60.14303216296397,
right,right,40.0,0.0,20.0,left,0.0,2.1287086999509484,,speed,space,3.519814800005406,,,,,,0.0,1.0,1.0,1.0,20.0,0.0,40.0,1.0,476.9232125999988,,,,,,,,,476.90888030000497,478.1234495000099,478.9241194000351,478.90725270000985,478.9077003999846,478.9241194000351,478.9241194000351,478.9241194000351,,481.0579332000343,,,,,,,,,,,,,,,,,,,,,,,,,,,,,,left,0.0,2.1287086999509484,,,,,,sub-109,1,random_dot,60.14303216296397,
left,left,41.0,1.0,20.0,right,0.0,1.6504987999796867,,speed,space,3.519814800005406,,,,,,0.0,1.0,1.0,1.0,20.0,1.0,41.0,0.0,481.07326550001744,,,,,,,,,481.0585956000141,482.27330639999127,483.0742003000341,483.05732970003737,483.0578091000207,483.0742003000341,483.0742003000341,483.0742003000341,,484.7414913999965,,,,,,,,,,,,,,,,,,,,,,,,,,,,,,right,0.0,1.6504987999796867,,,,,,sub-109,1,random_dot,60.14303216296397,
left,left,42.0,0.0,21.0,right,0.0,1.041833899973426,,speed,space,3.519814800005406,,,,,,0.0,1.0,1.0,1.0,21.0,0.0,42.0,0.0,484.7566321000341,,,,,,,,,484.74195809999947,485.9566853999859,486.7575786000234,486.74035919999005,486.7408157000318,486.7575786000234,486.7575786000234,486.7575786000234,,487.8080476000323,,,,,,,,,,,,,,,,,,,,,,,,,,,,,,right,0.0,1.041833899973426,,,,,,sub-109,1,random_dot,60.14303216296397,
right,right,43.0,1.0,21.0,right,1.0,2.70841769996332,,speed,space,3.519814800005406,,,,,,0.0,1.0,1.0,1.0,21.0,1.0,43.0,1.0,487.8233281000285,,,,,,,,,487.8085332000046,489.0234442999936,489.8242648000014,489.80719570000656,489.807630299998,489.8242648000014,489.8242648000014,489.8242648000014,,492.5414754000376,,,,,,,,,,,,,,,,,,,,,,,,,,,,,,right,1.0,2.70841769996332,,,,,,sub-109,1,random_dot,60.14303216296397,
left,left,44.0,0.0,22.0,right,0.0,0.7875486999982968,,speed,space,3.519814800005406,,,,,,0.0,1.0,1.0,1.0,22.0,0.0,44.0,0.0,492.5567310000188,,,,,,,,,492.542005700001,492.6568054000381,493.457534199988,493.4404000000213,493.44083360000513,493.457534199988,493.457534199988,493.457534199988,,494.2581678000279,,,,,,,,,,,,,,,,,,,,,,,,,,,,,,right,0.0,0.7875486999982968,,,,,,sub-109,1,random_dot,60.14303216296397,
right,right,45.0,1.0,22.0,left,0.0,0.2597588000353426,,speed,space,3.519814800005406,,,,,,0.0,1.0,1.0,1.0,22.0,1.0,45.0,1.0,494.2734130999888,,,,,,,,,494.25868010002887,495.0734279000317,495.87462860002415,495.85766310000326,495.85853740002494,495.87462860002415,495.87462860002415,495.87462860002415,,496.1414064000128,,,,,,,,,,,,,,,,,,,,,,,,,,,,,,left,0.0,0.2597588000353426,,,,,,sub-109,1,random_dot,60.14303216296397,
right,right,46.0,0.0,23.0,right,1.0,0.6340476999757811,,speed,space,3.519814800005406,,,,,,0.0,1.0,1.0,1.0,23.0,0.0,46.0,1.0,496.1567581000272,,,,,,,,,496.142299500003,496.956854899996,497.7577393000247,497.7408865999896,497.7413971000351,497.7577393000247,497.7577393000247,497.7577393000247,,498.3925991000142,,,,,,,,,,,,,,,,,,,,,,,,,,,,,,right,1.0,0.6340476999757811,,,,,,sub-109,1,random_dot,60.14303216296397,
left,left,47.0,1.0,23.0,left,1.0,0.6639859999995679,,speed,space,3.519814800005406,,,,,,0.0,1.0,1.0,1.0,23.0,1.0,47.0,0.0,498.406795900024,,,,,,,,,498.3930983000319,499.20685960003175,500.0077771000215,499.990918800002,499.9913760999916,500.0077771000215,500.0077771000215,500.0077771000215,,500.6750268000178,,,,,,,,,,,,,,,,,,,,,,,,,,,,,,left,1.0,0.6639859999995679,,,,,,sub-109,1,random_dot,60.14303216296397,
right,right,48.0,0.0,24.0,left,0.0,1.0530515999998895,,speed,space,3.519814800005406,,,,,,0.0,1.0,1.0,1.0,24.0,0.0,48.0,1.0,500.690191200003,,,,,,,,,500.6755231000134,501.0403076999937,501.8410666999989,501.82415530004073,501.8246757999877,501.8410666999989,501.8410666999989,501.8410666999989,,502.908401600027,,,,,,,,,,,,,,,,,,,,,,,,,,,,,,left,0.0,1.0530515999998895,,,,,,sub-109,1,random_dot,60.14303216296397,
left,left,49.0,1.0,24.0,left,1.0,0.9097268999903464,,speed,space,3.519814800005406,,,,,,0.0,1.0,1.0,1.0,24.0,1.0,49.0,0.0,502.9235841000336,,,,,,,,,502.9089568000054,503.2735046999878,504.074409199995,504.0573934999993,504.057813899999,504.074409199995,504.074409199995,504.074409199995,,504.9918412000407,,,,,,,,,,,,,,,,,,,,,,,,,,,,,,left,1.0,0.9097268999903464,,,,,,sub-109,1,random_dot,60.14303216296397,
left,left,50.0,0.0,25.0,left,1.0,1.5950301999691874,,speed,space,3.519814800005406,,,,,,0.0,1.0,1.0,1.0,25.0,0.0,50.0,0.0,505.00694769999245,,,,,,,,,504.9924406000064,505.1073245999869,505.9076274000108,505.89074520004215,505.89116230001673,505.9076274000108,505.9076274000108,505.9076274000108,,507.5082568000071,,,,,,,,,,,,,,,,,,,,,,,,,,,,,,left,1.0,1.5950301999691874,,,,,,sub-109,1,random_dot,60.14303216296397,
right,right,51.0,1.0,25.0,left,0.0,1.2298182000522502,,speed,space,3.519814800005406,,,,,,0.0,1.0,1.0,1.0,25.0,1.0,51.0,1.0,507.5235632000258,,,,,,,,,507.5087475000182,508.3236539000063,509.1246247999952,509.1076539999922,509.1081426999881,509.1246247999952,509.1246247999952,509.1246247999952,,510.3582037999877,,,,,,,,,,,,,,,,,,,,,,,,,,,,,,left,0.0,1.2298182000522502,,,,,,sub-109,1,random_dot,60.14303216296397,
right,right,52.0,0.0,26.0,left,0.0,0.9130856999545358,,speed,space,3.519814800005406,,,,,,0.0,1.0,1.0,1.0,26.0,0.0,52.0,1.0,510.3736149999895,,,,,,,,,510.3586643000017,511.173722800042,511.9744801000343,511.9578046000097,511.9582458999939,511.9744801000343,511.9744801000343,511.9744801000343,,512.8915998000302,,,,,,,,,,,,,,,,,,,,,,,,,,,,,,left,0.0,0.9130856999545358,,,,,,sub-109,1,random_dot,60.14303216296397,
left,left,53.0,1.0,26.0,right,0.0,0.988452400022652,,speed,space,3.519814800005406,,,,,,0.0,1.0,1.0,1.0,26.0,1.0,53.0,0.0,512.9068207000382,,,,,,,,,512.8921887000324,513.2571224999847,514.0577590999892,514.0409762000199,514.0414271000191,514.0577590999892,514.0577590999892,514.0577590999892,,515.0585527000367,,,,,,,,,,,,,,,,,,,,,,,,,,,,,,right,0.0,0.988452400022652,,,,,,sub-109,1,random_dot,60.14303216296397,
right,right,54.0,0.0,27.0,left,0.0,1.0918951000203378,,speed,space,3.519814800005406,,,,,,0.0,1.0,1.0,1.0,27.0,0.0,54.0,1.0,515.0737767000101,,,,,,,,,515.0591003000154,516.2735264000366,517.0746915999916,517.0577491000295,517.0581810000003,517.0746915999916,517.0746915999916,517.0746915999916,,518.1751668000361,,,,,,,,,,,,,,,,,,,,,,,,,,,,,,left,0.0,1.0918951000203378,,,,,,sub-109,1,random_dot,60.14303216296397,
left,left,55.0,1.0,27.0,left,1.0,1.5478033000254072,,speed,space,3.519814800005406,,,,,,0.0,1.0,1.0,1.0,27.0,1.0,55.0,0.0,518.1902488000342,,,,,,,,,518.1756293000071,518.2904889000347,519.0912061000126,519.0744296000339,519.0748751999927,519.0912061000126,519.0912061000126,519.0912061000126,,520.6417760000331,,,,,,,,,,,,,,,,,,,,,,,,,,,,,,left,1.0,1.5478033000254072,,,,,,sub-109,1,random_dot,60.14303216296397,
right,right,56.0,0.0,28.0,left,0.0,0.9416742000030354,,speed,space,3.519814800005406,,,,,,0.0,1.0,1.0,1.0,28.0,0.0,56.0,1.0,520.6572291000048,,,,,,,,,520.6423261000309,521.8573610000312,522.6580627000076,522.6412673000013,522.6417197000119,522.6580627000076,522.6580627000076,522.6580627000076,,523.608568900032,,,,,,,,,,,,,,,,,,,,,,,,,,,,,,left,0.0,0.9416742000030354,,,,,,sub-109,1,random_dot,60.14303216296397,
left,left,57.0,1.0,28.0,right,0.0,0.4968910999596119,,speed,space,3.519814800005406,,,,,,0.0,1.0,1.0,1.0,28.0,1.0,57.0,0.0,523.623806299991,,,,,,,,,523.6090452999924,523.9738144000294,524.7746653000358,524.7581852999865,524.7586929000099,524.7746653000358,524.7746653000358,524.7746653000358,,525.2751076000277,,,,,,,,,,,,,,,,,,,,,,,,,,,,,,right,0.0,0.4968910999596119,,,,,,sub-109,1,random_dot,60.14303216296397,
left,left,58.0,0.0,29.0,left,1.0,1.8556166000198573,,speed,space,3.519814800005406,,,,,,0.0,1.0,1.0,1.0,29.0,0.0,58.0,0.0,525.2906144000008,,,,,,,,,525.2756148999906,526.0906273000292,526.8913821000024,526.8743107999908,526.8747527000378,526.8913821000024,526.8913821000024,526.8913821000024,,528.7586090000113,,,,,,,,,,,,,,,,,,,,,,,,,,,,,,left,1.0,1.8556166000198573,,,,,,sub-109,1,random_dot,60.14303216296397,
right,right,59.0,1.0,29.0,right,1.0,1.4564468000316992,,speed,space,3.519814800005406,,,,,,0.0,1.0,1.0,1.0,29.0,1.0,59.0,1.0,528.7738258999889,,,,,,,,,528.7597672000411,529.5739781000302,530.3747908000369,530.3579529999988,530.3584488999913,530.3747908000369,530.3747908000369,530.3747908000369,,531.8421892999904,,,,,,,,,,,,,,,,,,,,,,,,,,,,,,right,1.0,1.4564468000316992,,,,,,sub-109,1,random_dot,60.14303216296397,
,,1.0,1.0,0.0,,,,,speed,space,3.519814800005406,,,,,,0.0,1.0,1.0,1.0,,,,,,,,,,,,,,,,,,,,,,,,,,,,,,,,,,,,,,,,,,,,,,,,,,,,,,,,,,,,,sub-109,1,random_dot,60.14303216296397,
,,,,,,,,,,,,,,,,,,,,,,,,,,,,,,,,,,,,,,,,,,,,,,,,,,,,,,,,,,,,,,,,,,,,,,,,,,,,,531.8492066999897,531.8574580000131,536.8573143000249,536.8416118000168,sub-109,1,random_dot,60.14303216296397,
