wordCTK,colorCTK,corrAnsCTK,congruentCTK,thisN,thisTrialN,thisRepN,keyResp_CTK.keys,keyResp_CTK.corr,keyResp_CTK.rt,keyResp_CTK.duration,wordPractice,colorPractice,corrAnsPractice,congruentPractice,respPractice.keys,respPractice.corr,respPractice.rt,respPractice.duration,word,color,corrAns,congruent,keyResp_test_run.keys,keyResp_test_run.corr,keyResp_test_run.rt,keyResp_test_run.duration,trials_CTK.thisRepN,trials_CTK.thisTrialN,trials_CTK.thisN,trials_CTK.thisIndex,trials_practice.thisRepN,trials_practice.thisTrialN,trials_practice.thisN,trials_practice.thisIndex,trials_test.thisRepN,trials_test.thisTrialN,trials_test.thisN,trials_test.thisIndex,thisRow.t,notes,instruction.started,instr_text.started,instr_image.started,instr_resp.started,instruction.stopped,instr_resp.keys,instr_resp.rt,instr_resp.duration,instr_color_to_key.started,instr_ctk.started,resp_ctk.started,instr_color_to_key.stopped,resp_ctk.keys,resp_ctk.rt,resp_ctk.duration,ITI.started,fixcross.started,fixcross.stopped,ITI.stopped,color_to_key_run.started,stimulus_CTK.started,keyResp_CTK.started,color_to_key_run.stopped,trials_CTK.keyResp_CTK.keys,trials_CTK.keyResp_CTK.corr,trials_CTK.keyResp_CTK.rt,trials_CTK.keyResp_CTK.duration,instr_practice.started,instr_practice_text.started,instr_practice_resp.started,instr_practice.stopped,instr_practice_resp.keys,instr_practice_resp.rt,instr_practice_resp.duration,practice_run.started,stimulus_practice.started,respPractice.started,practice_run.stopped,trials_practice.respPractice.keys,trials_practice.respPractice.corr,trials_practice.respPractice.rt,trials_practice.respPractice.duration,feedback.started,textFeedback.started,feedback.stopped,textFeedback.stopped,instr_test.started,instr_test_text.started,instr_test_resp.started,instr_test.stopped,instr_test_resp.keys,instr_test_resp.rt,instr_test_resp.duration,test_run.started,stimulus_test_run.started,keyResp_test_run.started,test_run.stopped,trials_test.keyResp_test_run.keys,trials_test.keyResp_test_run.corr,trials_test.keyResp_test_run.rt,trials_test.keyResp_test_run.duration,goodbye.started,textGoodbye.started,textGoodbye.stopped,goodbye.stopped,participant,session,expName,frameRate,Unnamed: 113
,,,,,,,,,,,,,,,,,,,,,,,,,,,,,,,,,,,,,,,,,0.0122357840009499,0.0486747770009969,0.0486747770009969,0.0486747770009969,22.3322901850006,space,22.10357225000007,,,,,,,,,,,,,,,,,,,,,,,,,,,,,,,,,,,,,,,,,,,,,,,,,,,,,,,,,,,sub-045,1,stroop_test,60.21361381622669,
,,,,,,,,,,,,,,,,,,,,,,,,,,,,,,,,,,,,,,,,,,,,,,,,,22.33237039300002,22.351567190000424,22.351567190000424,23.870623604001597,space,1.5038189820006664,,,,,,,,,,,,,,,,,,,,,,,,,,,,,,,,,,,,,,,,,,,,,,,,,,,,sub-045,1,stroop_test,60.21361381622669,
test,blue,b,1.0,0.0,0.0,0.0,b,1.0,0.6430842360005045,,,,,,,,,,,,,,,,,,0.0,0.0,0.0,2.0,,,,,,,,,23.898749736001264,,,,,,,,,,,,,,,,,23.887569148000694,24.66942218700024,25.47127983000064,25.4530451720002,25.45738962500036,25.47127983000064,25.47127983000064,26.12028084000121,b,1.0,0.6430842360005045,,,,,,,,,,,,,,,,,,,,,,,,,,,,,,,,,,,,,,,,sub-045,1,stroop_test,60.21361381622669,
test,yellow,g,1.0,1.0,1.0,0.0,g,1.0,0.674601722999796,,,,,,,,,,,,,,,,,,0.0,1.0,1.0,1.0,,,,,,,,,26.136224640000364,,,,,,,,,,,,,,,,,26.12054610600171,26.21954337400166,27.01956229100142,27.003160427000694,27.003839478000373,27.01956229100142,27.01956229100142,27.70367389400053,g,1.0,0.674601722999796,,,,,,,,,,,,,,,,,,,,,,,,,,,,,,,,,,,,,,,,sub-045,1,stroop_test,60.21361381622669,
test,red,r,1.0,2.0,2.0,0.0,r,1.0,0.2760139309993974,,,,,,,,,,,,,,,,,,0.0,2.0,2.0,0.0,,,,,,,,,27.71975343000122,,,,,,,,,,,,,,,,,27.703981342001494,28.5027026810003,29.303050665001138,29.286413935000382,29.28745897200133,29.303050665001138,29.303050665001138,29.586486635000256,r,1.0,0.2760139309993974,,,,,,,,,,,,,,,,,,,,,,,,,,,,,,,,,,,,,,,,sub-045,1,stroop_test,60.21361381622669,
test,red,r,1.0,3.0,0.0,1.0,r,1.0,0.5225943660007033,,,,,,,,,,,,,,,,,,1.0,0.0,3.0,0.0,,,,,,,,,29.60214656900098,,,,,,,,,,,,,,,,,29.586820380000063,30.385580640000622,31.185596773000725,31.16926518000037,31.16998008900009,31.185596773000725,31.185596773000725,31.719967081000505,r,1.0,0.5225943660007033,,,,,,,,,,,,,,,,,,,,,,,,,,,,,,,,,,,,,,,,sub-045,1,stroop_test,60.21361381622669,
test,blue,b,1.0,4.0,1.0,1.0,b,1.0,0.4882917459999589,,,,,,,,,,,,,,,,,,1.0,1.0,4.0,2.0,,,,,,,,,31.735169475001385,,,,,,,,,,,,,,,,,31.720291562000057,32.93534073900082,33.734734338000635,33.71936775500035,33.72024291100024,33.734734338000635,33.734734338000635,34.23561353900004,b,1.0,0.4882917459999589,,,,,,,,,,,,,,,,,,,,,,,,,,,,,,,,,,,,,,,,sub-045,1,stroop_test,60.21361381622669,
test,yellow,g,1.0,5.0,2.0,1.0,g,1.0,0.5613886680002906,,,,,,,,,,,,,,,,,,1.0,2.0,5.0,1.0,,,,,,,,,34.25167431700174,,,,,,,,,,,,,,,,,34.2358803900006,34.33569264700054,35.135640997001246,35.11905685200145,35.11976327800039,35.135640997001246,35.135640997001246,35.70258464000108,g,1.0,0.5613886680002906,,,,,,,,,,,,,,,,,,,,,,,,,,,,,,,,,,,,,,,,sub-045,1,stroop_test,60.21361381622669,
test,red,r,1.0,6.0,0.0,2.0,r,1.0,0.3326365310003893,,,,,,,,,,,,,,,,,,2.0,0.0,6.0,0.0,,,,,,,,,35.72110367000096,,,,,,,,,,,,,,,,,35.70307376600067,36.50172513899997,37.30214786600118,37.28589724500125,37.28657899800055,37.30214786600118,37.30214786600118,37.636481142000775,r,1.0,0.3326365310003893,,,,,,,,,,,,,,,,,,,,,,,,,,,,,,,,,,,,,,,,sub-045,1,stroop_test,60.21361381622669,
test,blue,b,1.0,7.0,1.0,2.0,b,1.0,0.6821031279996532,,,,,,,,,,,,,,,,,,2.0,1.0,7.0,2.0,,,,,,,,,37.651781607000885,,,,,,,,,,,,,,,,,37.63676996499999,37.98554571400018,38.78568249900127,38.76904399400155,38.76971252400108,38.78568249900127,38.78568249900127,39.46950595600174,b,1.0,0.6821031279996532,,,,,,,,,,,,,,,,,,,,,,,,,,,,,,,,,,,,,,,,sub-045,1,stroop_test,60.21361381622669,
test,yellow,g,1.0,8.0,2.0,2.0,g,1.0,0.4840794860010646,,,,,,,,,,,,,,,,,,2.0,2.0,8.0,1.0,,,,,,,,,39.4852380450011,,,,,,,,,,,,,,,,,39.46981781800059,39.58555815700129,40.3850536230002,40.36917146700034,40.36988948100043,40.3850536230002,40.3850536230002,40.88551539700165,g,1.0,0.4840794860010646,,,,,,,,,,,,,,,,,,,,,,,,,,,,,,,,,,,,,,,,sub-045,1,stroop_test,60.21361381622669,
test,yellow,g,1.0,9.0,0.0,3.0,g,1.0,0.6213313059997745,,,,,,,,,,,,,,,,,,3.0,0.0,9.0,1.0,,,,,,,,,40.90153790000113,,,,,,,,,,,,,,,,,40.88580109000032,41.68539859300108,42.48544770100125,42.46898385000168,42.469648745000086,42.48544770100125,42.48544770100125,43.11922743700052,g,1.0,0.6213313059997745,,,,,,,,,,,,,,,,,,,,,,,,,,,,,,,,,,,,,,,,sub-045,1,stroop_test,60.21361381622669,
test,red,r,1.0,10.0,1.0,3.0,r,1.0,0.5899587370004156,,,,,,,,,,,,,,,,,,3.0,1.0,10.0,0.0,,,,,,,,,43.1351328260007,,,,,,,,,,,,,,,,,43.11962250900069,43.46901043800062,44.26871549000134,44.25239135800075,44.25288114500108,44.26871549000134,44.26871549000134,44.8696122320016,r,1.0,0.5899587370004156,,,,,,,,,,,,,,,,,,,,,,,,,,,,,,,,,,,,,,,,sub-045,1,stroop_test,60.21361381622669,
test,blue,b,1.0,11.0,2.0,3.0,b,1.0,0.4491602380003314,,,,,,,,,,,,,,,,,,3.0,2.0,11.0,2.0,,,,,,,,,44.885253860000375,,,,,,,,,,,,,,,,,44.86993157400138,44.96816029600086,45.76877428300031,45.75240911600122,45.75308518100064,45.76877428300031,45.76877428300031,46.21971033700174,b,1.0,0.4491602380003314,,,,,,,,,,,,,,,,,,,,,,,,,,,,,,,,,,,,,,,,sub-045,1,stroop_test,60.21361381622669,
,,,,,,,,,,,,,,,,,,,,,,,,,,,,,,,,,,,,,,,,,,,,,,,,,,,,,,,,,,,,,,,,,,,,46.21985883700109,46.23694765400069,46.23694765400069,47.186518759001046,space,0.9448730549993344,,,,,,,,,,,,,,,,,,,,,,,,,,,,,,,,,sub-045,1,stroop_test,60.21361381622669,
,,,,0.0,0.0,0.0,,,,,gelb,yellow,g,1.0,g,1.0,0.6830134559986618,,,,,,,,,,,,,,0.0,0.0,0.0,11.0,,,,,47.210537089000354,,,,,,,,,,,,,,,,,47.19968152600086,47.30173229200045,48.10590111900092,48.08550903500145,,,,,,,,,,,,,,,,48.092696240000805,48.10590111900092,48.10590111900092,48.80187406300138,g,1.0,0.6830134559986618,,48.80644867500087,48.82198215900098,49.80207663400142,,,,,,,,,,,,,,,,,,,,,sub-045,1,stroop_test,60.21361381622669,
,,,,1.0,1.0,0.0,,,,,rot,red,r,1.0,r,1.0,0.5439133969994145,,,,,,,,,,,,,,0.0,1.0,1.0,1.0,,,,,49.81781983700057,,,,,,,,,,,,,,,,,49.80277412500072,49.901903810001386,50.704778316001466,50.68553854400125,,,,,,,,,,,,,,,,50.69112210200001,50.704778316001466,50.704778316001466,51.25308392600164,r,1.0,0.5439133969994145,,51.25362267700075,51.26915500500036,52.252277909999975,52.26863456800129,,,,,,,,,,,,,,,,,,,,sub-045,1,stroop_test,60.21361381622669,
,,,,2.0,2.0,0.0,,,,,gelb,blue,b,0.0,b,1.0,0.5723548160003702,,,,,,,,,,,,,,0.0,2.0,2.0,9.0,,,,,52.26863456800129,,,,,,,,,,,,,,,,,52.25271355600125,52.35200771000018,53.15308775200174,53.13558885700149,,,,,,,,,,,,,,,,53.13949535300162,53.15308775200174,53.15308775200174,53.73698598400006,b,1.0,0.5723548160003702,,53.738050931000544,53.75397026700011,54.75204283700077,,,,,,,,,,,,,,,,,,,,,sub-045,1,stroop_test,60.21361381622669,
,,,,3.0,3.0,0.0,,,,,rot,yellow,g,0.0,g,1.0,1.0794850029997178,,,,,,,,,,,,,,0.0,3.0,3.0,3.0,,,,,54.7685820580009,,,,,,,,,,,,,,,,,54.75253932100168,55.95181324000077,56.75193374000082,56.73462948700035,,,,,,,,,,,,,,,,56.73674957500043,56.75193374000082,56.75193374000082,57.83644511000057,g,1.0,1.0794850029997178,,57.83702317800089,57.85289197700149,58.835759348001375,58.85180822900111,,,,,,,,,,,,,,,,,,,,sub-045,1,stroop_test,60.21361381622669,
,,,,4.0,4.0,0.0,,,,,blau,red,r,0.0,r,1.0,0.3624521240017202,,,,,,,,,,,,,,0.0,4.0,4.0,4.0,,,,,58.85180822900111,,,,,,,,,,,,,,,,,58.836545464000665,59.20200954700158,60.00576963599997,59.9855735050005,,,,,,,,,,,,,,,,59.99185120900074,60.00576963599997,60.00576963599997,60.36961850900116,r,1.0,0.3624521240017202,,60.370107826000094,60.38604776100146,61.38463622100062,,,,,,,,,,,,,,,,,,,,,sub-045,1,stroop_test,60.21361381622669,
,,,,5.0,5.0,0.0,,,,,blau,blue,b,1.0,b,1.0,0.307064263999564,,,,,,,,,,,,,,0.0,5.0,5.0,5.0,,,,,61.40123832300014,,,,,,,,,,,,,,,,,61.38492062200021,62.18474091200005,62.98431771400101,62.96777306100012,,,,,,,,,,,,,,,,62.968186825000885,62.98431771400101,62.98431771400101,63.30233911100004,b,1.0,0.307064263999564,,63.302754853000806,63.31888258400068,64.30193686600069,64.31847764600025,,,,,,,,,,,,,,,,,,,,sub-045,1,stroop_test,60.21361381622669,
,,,,6.0,6.0,0.0,,,,,rot,red,r,1.0,r,1.0,1.0922873149993393,,,,,,,,,,,,,,0.0,6.0,6.0,0.0,,,,,64.31847764600025,,,,,,,,,,,,,,,,,64.30237588100135,64.40188389600007,65.20174557000064,65.18447938800091,,,,,,,,,,,,,,,,65.1869066040017,65.20174557000064,65.20174557000064,66.30267340300088,r,1.0,1.0922873149993393,,66.30326495900044,66.31972324900016,67.31904764800129,,,,,,,,,,,,,,,,,,,,,sub-045,1,stroop_test,60.21361381622669,
,,,,7.0,7.0,0.0,,,,,blau,blue,b,1.0,b,1.0,0.4643347009987337,,,,,,,,,,,,,,0.0,7.0,7.0,6.0,,,,,67.33445840000059,,,,,,,,,,,,,,,,,67.31937491700046,68.10173762200066,68.90164071900108,68.88467644800039,,,,,,,,,,,,,,,,68.88713472300151,68.90164071900108,68.90164071900108,69.36925602500014,b,1.0,0.4643347009987337,,69.36978209100016,69.38619027000095,70.38513699000032,,,,,,,,,,,,,,,,,,,,,sub-045,1,stroop_test,60.21361381622669,
,,,,8.0,8.0,0.0,,,,,gelb,yellow,g,1.0,g,1.0,0.397801712000728,,,,,,,,,,,,,,0.0,8.0,8.0,10.0,,,,,70.40183396500106,,,,,,,,,,,,,,,,,70.3856004850004,71.1851477320015,71.98625934400116,71.96866962500098,,,,,,,,,,,,,,,,71.97264841300057,71.98625934400116,71.98625934400116,72.3855703470017,g,1.0,0.397801712000728,,72.38606304800123,72.40200675300002,73.38586949900127,73.4021782560012,,,,,,,,,,,,,,,,,,,,sub-045,1,stroop_test,60.21361381622669,
,,,,9.0,9.0,0.0,,,,,blau,yellow,g,0.0,g,1.0,0.8079958179987443,,,,,,,,,,,,,,0.0,9.0,9.0,7.0,,,,,73.4021782560012,,,,,,,,,,,,,,,,,73.38637260700125,73.75158876700152,74.55081727600009,74.53424882700165,,,,,,,,,,,,,,,,74.53641373500068,74.55081727600009,74.55081727600009,75.36882116200104,g,1.0,0.8079958179987443,,75.36933241200131,75.38513232300102,76.36872058500012,76.3846387930007,,,,,,,,,,,,,,,,,,,,sub-045,1,stroop_test,60.21361381622669,
,,,,10.0,10.0,0.0,,,,,gelb,red,r,0.0,r,1.0,0.7921950880008808,,,,,,,,,,,,,,0.0,10.0,10.0,8.0,,,,,76.3846387930007,,,,,,,,,,,,,,,,,76.36903476100088,76.46823762300119,77.26866495100148,77.25220030100172,,,,,,,,,,,,,,,,77.25469073800014,77.26866495100148,77.26866495100148,78.06914164900081,r,1.0,0.7921950880008808,,78.06965452400073,78.08582640300119,79.06849640400105,79.08513982500153,,,,,,,,,,,,,,,,,,,,sub-045,1,stroop_test,60.21361381622669,
,,,,11.0,11.0,0.0,,,,,rot,blue,b,0.0,b,1.0,0.7042197849987133,,,,,,,,,,,,,,0.0,11.0,11.0,2.0,,,,,79.08513982500153,,,,,,,,,,,,,,,,,79.06895592000001,79.16808507500173,79.96972913300124,79.95191600200087,,,,,,,,,,,,,,,,79.95580017800057,79.96972913300124,79.96972913300124,80.68538950000038,b,1.0,0.7042197849987133,,80.68597643100111,80.70345446700048,81.70177528900058,,,,,,,,,,,,,,,,,,,,,sub-045,1,stroop_test,60.21361381622669,
,,,,12.0,0.0,1.0,,,,,rot,blue,b,0.0,b,1.0,0.6387482900008763,,,,,,,,,,,,,,1.0,0.0,12.0,2.0,,,,,81.71753195300153,,,,,,,,,,,,,,,,,81.70206334300019,82.90107137500127,83.70194385800096,83.6853048990015,,,,,,,,,,,,,,,,83.68599200100107,83.70194385800096,83.70194385800096,84.35195693300011,b,1.0,0.6387482900008763,,84.35246868300055,84.36852442600139,85.36743862100047,,,,,,,,,,,,,,,,,,,,,sub-045,1,stroop_test,60.21361381622669,
,,,,13.0,1.0,1.0,,,,,blau,red,r,0.0,r,1.0,1.6963390260007143,,,,,,,,,,,,,,1.0,1.0,13.0,4.0,,,,,85.38393120500041,,,,,,,,,,,,,,,,,85.36773416200049,86.55141401500077,87.35128974899999,87.33448603000033,,,,,,,,,,,,,,,,87.33698926500074,87.35128974899999,87.35128974899999,89.05230438500075,r,1.0,1.6963390260007143,,89.05272297100055,89.06827187400086,90.05167222700038,90.06809712300128,,,,,,,,,,,,,,,,,,,,sub-045,1,stroop_test,60.21361381622669,
,,,,14.0,2.0,1.0,,,,,gelb,yellow,g,1.0,g,1.0,0.4524408440011029,,,,,,,,,,,,,,1.0,2.0,14.0,10.0,,,,,90.06809712300128,,,,,,,,,,,,,,,,,90.05213044100128,90.40138660600132,91.20317740800056,91.18494546200054,,,,,,,,,,,,,,,,91.18950114500149,91.20317740800056,91.20317740800056,91.66862249900078,g,1.0,0.4524408440011029,,91.66916873000082,91.6845191880002,92.66847331900136,92.68483877700056,,,,,,,,,,,,,,,,,,,,sub-045,1,stroop_test,60.21361381622669,
,,,,15.0,3.0,1.0,,,,,gelb,yellow,g,1.0,g,1.0,0.5490691840004729,,,,,,,,,,,,,,1.0,3.0,15.0,11.0,,,,,92.68483877700056,,,,,,,,,,,,,,,,,92.66890952800168,93.01804529500076,93.81729081700178,93.80087718800132,,,,,,,,,,,,,,,,93.80129503100034,93.81729081700178,93.81729081700178,94.36892670000088,g,1.0,0.5490691840004729,,94.369410153,94.38566388400068,95.36841023500163,95.38461254700088,,,,,,,,,,,,,,,,,,,,sub-045,1,stroop_test,60.21361381622669,
,,,,16.0,4.0,1.0,,,,,gelb,red,r,0.0,r,1.0,1.0023948780017236,,,,,,,,,,,,,,1.0,4.0,16.0,8.0,,,,,95.38461254700088,,,,,,,,,,,,,,,,,95.3690715270004,95.71790314700048,96.51788294400104,96.50098212900048,,,,,,,,,,,,,,,,96.5016567390012,96.51788294400104,96.51788294400104,97.5349703410011,r,1.0,1.0023948780017236,,97.53538642500098,97.55121703300028,98.53506265200122,98.55155311600174,,,,,,,,,,,,,,,,,,,,sub-045,1,stroop_test,60.21361381622669,
,,,,17.0,5.0,1.0,,,,,blau,blue,b,1.0,b,1.0,0.3233894400000281,,,,,,,,,,,,,,1.0,5.0,17.0,6.0,,,,,98.55155311600174,,,,,,,,,,,,,,,,,98.53561232700122,98.88467806500012,99.68594777600084,99.668001,,,,,,,,,,,,,,,,99.67216174700116,99.68594777600084,99.68594777600084,100.0184476530012,b,1.0,0.3233894400000281,,100.0190652500005,100.03552754000157,101.03466591400138,,,,,,,,,,,,,,,,,,,,,sub-045,1,stroop_test,60.21361381622669,
,,,,18.0,6.0,1.0,,,,,rot,yellow,g,0.0,g,1.0,0.4922412489995622,,,,,,,,,,,,,,1.0,6.0,18.0,3.0,,,,,101.05113736600106,,,,,,,,,,,,,,,,,101.03514701800124,101.36736344700148,102.17005091200008,102.15170951600156,,,,,,,,,,,,,,,,102.156036503,102.17005091200008,102.17005091200008,102.66808555300122,g,1.0,0.4922412489995622,,102.66850758400142,102.684325223001,103.66835983400053,103.684732017,,,,,,,,,,,,,,,,,,,,sub-045,1,stroop_test,60.21361381622669,
,,,,19.0,7.0,1.0,,,,,rot,red,r,1.0,r,1.0,0.3569561429994792,,,,,,,,,,,,,,1.0,7.0,19.0,0.0,,,,,103.684732017,,,,,,,,,,,,,,,,,103.66881656000078,104.46717053400062,105.26802665600007,105.25149808400056,,,,,,,,,,,,,,,,105.25217290800174,105.26802665600007,105.26802665600007,105.6355605810004,r,1.0,0.3569561429994792,,105.63607187300111,105.65261195700076,106.65130963600132,,,,,,,,,,,,,,,,,,,,,sub-045,1,stroop_test,60.21361381622669,
,,,,20.0,8.0,1.0,,,,,blau,blue,b,1.0,b,1.0,0.7940091170003143,,,,,,,,,,,,,,1.0,8.0,20.0,5.0,,,,,106.66799945800084,,,,,,,,,,,,,,,,,106.6518082190014,107.00076582300062,107.80318452500067,107.78474810900116,,,,,,,,,,,,,,,,107.7887079810007,107.80318452500067,107.80318452500067,108.60255786000016,b,1.0,0.7940091170003143,,108.60298521300138,108.6187878280016,109.60172671000146,109.61878436500048,,,,,,,,,,,,,,,,,,,,sub-045,1,stroop_test,60.21361381622669,
,,,,21.0,9.0,1.0,,,,,gelb,blue,b,0.0,b,1.0,0.4485253279999597,,,,,,,,,,,,,,1.0,9.0,21.0,9.0,,,,,109.61878436500048,,,,,,,,,,,,,,,,,109.60198523800136,109.71832920100132,110.51984262900078,110.50188484700084,,,,,,,,,,,,,,,,110.50601792900125,110.51984262900078,110.51984262900078,110.98537472600036,b,1.0,0.4485253279999597,,110.985881427001,111.00194445300076,111.98485429900028,112.00115211600132,,,,,,,,,,,,,,,,,,,,sub-045,1,stroop_test,60.21361381622669,
,,,,22.0,10.0,1.0,,,,,blau,yellow,g,0.0,b,0.0,0.4397421560006478,,,,,,,,,,,,,,1.0,10.0,22.0,7.0,,,,,112.00115211600132,,,,,,,,,,,,,,,,,111.985376001001,112.78447450300156,113.58612016200097,113.56815435200042,,,,,,,,,,,,,,,,113.57264750500144,113.58612016200097,113.58612016200097,114.03491849700004,b,0.0,0.4397421560006478,,114.03830876400023,114.05425814200134,115.05168641600176,,,,,,,,,,,,,,,,,,,,,sub-045,1,stroop_test,60.21361381622669,
,,,,23.0,11.0,1.0,,,,,rot,red,r,1.0,r,1.0,1.501295048999964,,,,,,,,,,,,,,1.0,11.0,23.0,1.0,,,,,115.0682828880017,,,,,,,,,,,,,,,,,115.05215691900048,115.13485757700072,115.93450652200043,115.91748631500012,,,,,,,,,,,,,,,,115.91966593000144,115.93450652200043,115.93450652200043,117.45317882600102,r,1.0,1.501295048999964,,117.4574740070002,117.47153296900068,118.46840661600072,,,,,,,,,,,,,,,,,,,,,sub-045,1,stroop_test,60.21361381622669,
,,,,,,,,,,,,,,,,,,,,,,,,,,,,,,,,,,,,,,,,,,,,,,,,,,,,,,,,,,,,,,,,,,,,,,,,,,,,,,,,,,,,,,,118.46859828000017,118.4856564310012,118.4856564310012,120.05240162000156,space,1.5622106959999655,,,,,,,,,,,,,,sub-045,1,stroop_test,60.21361381622669,
,,,,0.0,0.0,0.0,,,,,,,,,,,,,blau,blue,b,1.0,b,1.0,0.5267965629991522,,,,,,,,,,0.0,0.0,0.0,5.0,120.08114199400006,,,,,,,,,,,,,,,,,120.066755879001,121.25153550800133,122.053783233001,122.03514931100108,,,,,,,,,,,,,,,,,,,,,,,,,,,,,,,,,,,122.03908211200178,122.053783233001,122.053783233001,122.58475625500068,b,1.0,0.5267965629991522,,,,,,sub-045,1,stroop_test,60.21361381622669,
,,,,1.0,1.0,0.0,,,,,,,,,,,,,blau,yellow,g,0.0,g,1.0,0.3297844779990555,,,,,,,,,,0.0,1.0,1.0,7.0,122.60058247900088,,,,,,,,,,,,,,,,,122.58509637000134,123.78466974600089,124.58521273600128,124.56858984500104,,,,,,,,,,,,,,,,,,,,,,,,,,,,,,,,,,,124.56926796100016,124.58521273600128,124.58521273600128,124.91923056400084,g,1.0,0.3297844779990555,,,,,,sub-045,1,stroop_test,60.21361381622669,
,,,,2.0,2.0,0.0,,,,,,,,,,,,,rot,yellow,g,0.0,g,1.0,0.4997017770001548,,,,,,,,,,0.0,2.0,2.0,3.0,124.93468348600072,,,,,,,,,,,,,,,,,124.91960643900164,125.28463865200138,126.08681347600032,126.06838818000142,,,,,,,,,,,,,,,,,,,,,,,,,,,,,,,,,,,126.0722723050003,126.08681347600032,126.08681347600032,126.6028639490014,g,1.0,0.4997017770001548,,,,,,sub-045,1,stroop_test,60.21361381622669,
,,,,3.0,3.0,0.0,,,,,,,,,,,,,gelb,yellow,g,1.0,g,1.0,0.4749966640010825,,,,,,,,,,0.0,3.0,3.0,11.0,126.61971731300036,,,,,,,,,,,,,,,,,126.60338344100091,126.96716796100009,127.77065687900176,127.75161534400104,,,,,,,,,,,,,,,,,,,,,,,,,,,,,,,,,,,127.7559471530003,127.77065687900176,127.77065687900176,128.25237980600104,g,1.0,0.4749966640010825,,,,,,sub-045,1,stroop_test,60.21361381622669,
,,,,4.0,4.0,0.0,,,,,,,,,,,,,gelb,blue,b,0.0,b,1.0,0.5636002000010194,,,,,,,,,,0.0,4.0,4.0,9.0,128.26822357400124,,,,,,,,,,,,,,,,,128.25267963700026,128.35146409700064,129.1669733000017,129.15090624700133,,,,,,,,,,,,,,,,,,,,,,,,,,,,,,,,,,,129.15158217800126,129.1669733000017,129.1669733000017,129.7351922380003,b,1.0,0.5636002000010194,,,,,,sub-045,1,stroop_test,60.21361381622669,
,,,,5.0,5.0,0.0,,,,,,,,,,,,,gelb,yellow,g,1.0,g,1.0,0.6027803750002931,,,,,,,,,,0.0,5.0,5.0,10.0,129.7507583710012,,,,,,,,,,,,,,,,,129.735512053001,130.55071548900014,131.35073803100022,131.3339081360009,,,,,,,,,,,,,,,,,,,,,,,,,,,,,,,,,,,131.3346032010013,131.35073803100022,131.35073803100022,131.96887786300067,g,1.0,0.6027803750002931,,,,,,sub-045,1,stroop_test,60.21361381622669,
,,,,6.0,6.0,0.0,,,,,,,,,,,,,rot,red,r,1.0,r,1.0,0.3460953470003005,,,,,,,,,,0.0,6.0,6.0,0.0,131.9852782620001,,,,,,,,,,,,,,,,,131.969390278,132.33430470700114,133.1351868310012,133.11762476400145,,,,,,,,,,,,,,,,,,,,,,,,,,,,,,,,,,,133.12152576800145,133.1351868310012,133.1351868310012,133.48455662800006,r,1.0,0.3460953470003005,,,,,,sub-045,1,stroop_test,60.21361381622669,
,,,,7.0,7.0,0.0,,,,,,,,,,,,,rot,red,r,1.0,r,1.0,0.5248055619995284,,,,,,,,,,0.0,7.0,7.0,1.0,133.4999514230003,,,,,,,,,,,,,,,,,133.48488078000082,133.60036172400032,134.40072075800165,134.3845509820003,,,,,,,,,,,,,,,,,,,,,,,,,,,,,,,,,,,134.3854299680006,134.40072075800165,134.40072075800165,134.93443296100122,r,1.0,0.5248055619995284,,,,,,sub-045,1,stroop_test,60.21361381622669,
,,,,8.0,8.0,0.0,,,,,,,,,,,,,blau,blue,b,1.0,b,1.0,1.0773745300011797,,,,,,,,,,0.0,8.0,8.0,6.0,134.95071287300016,,,,,,,,,,,,,,,,,134.93474145600155,135.2842078020003,136.08609461800006,136.06763168900034,,,,,,,,,,,,,,,,,,,,,,,,,,,,,,,,,,,136.07156367500102,136.08609461800006,136.08609461800006,137.16827105000084,b,1.0,1.0773745300011797,,,,,,sub-045,1,stroop_test,60.21361381622669,
,,,,9.0,9.0,0.0,,,,,,,,,,,,,blau,red,r,0.0,r,1.0,0.9801161970008252,,,,,,,,,,0.0,9.0,9.0,4.0,137.18421848600155,,,,,,,,,,,,,,,,,137.16856946700136,137.26745113800098,138.0672944100006,138.05040513200038,,,,,,,,,,,,,,,,,,,,,,,,,,,,,,,,,,,138.0508037920008,138.0672944100006,138.0672944100006,139.05165892500008,r,1.0,0.9801161970008252,,,,,,sub-045,1,stroop_test,60.21361381622669,
,,,,10.0,10.0,0.0,,,,,,,,,,,,,gelb,red,r,0.0,r,1.0,0.6500818800013803,,,,,,,,,,0.0,10.0,10.0,8.0,139.06750203000047,,,,,,,,,,,,,,,,,139.05195219300003,139.4006678450005,140.20021984699997,140.18352071200025,,,,,,,,,,,,,,,,,,,,,,,,,,,,,,,,,,,140.18569678900167,140.20021984699997,140.20021984699997,140.8520053400007,r,1.0,0.6500818800013803,,,,,,sub-045,1,stroop_test,60.21361381622669,
,,,,11.0,11.0,0.0,,,,,,,,,,,,,rot,blue,b,0.0,b,1.0,0.6321610630002397,,,,,,,,,,0.0,11.0,11.0,2.0,140.86709335700107,,,,,,,,,,,,,,,,,140.85248398800104,140.96749251100118,141.7688566880006,141.75102502000118,,,,,,,,,,,,,,,,,,,,,,,,,,,,,,,,,,,141.75522143700073,141.7688566880006,141.7688566880006,142.41773064100016,b,1.0,0.6321610630002397,,,,,,sub-045,1,stroop_test,60.21361381622669,
,,,,12.0,0.0,1.0,,,,,,,,,,,,,rot,red,r,1.0,r,1.0,0.6957356849998177,,,,,,,,,,1.0,0.0,12.0,1.0,142.4337227270007,,,,,,,,,,,,,,,,,142.41809910800112,142.76731380500132,143.56750149800064,143.5510259620005,,,,,,,,,,,,,,,,,,,,,,,,,,,,,,,,,,,143.55171065000104,143.56750149800064,143.56750149800064,144.26835387500068,r,1.0,0.6957356849998177,,,,,,sub-045,1,stroop_test,60.21361381622669,
,,,,13.0,1.0,1.0,,,,,,,,,,,,,gelb,blue,b,0.0,b,1.0,0.5873466169996391,,,,,,,,,,1.0,1.0,13.0,9.0,144.28400975600016,,,,,,,,,,,,,,,,,144.26864827400095,145.08387792600115,145.885981069001,145.86711359400033,,,,,,,,,,,,,,,,,,,,,,,,,,,,,,,,,,,145.872475442,145.885981069001,145.885981069001,146.48560207300034,b,1.0,0.5873466169996391,,,,,,sub-045,1,stroop_test,60.21361381622669,
,,,,14.0,2.0,1.0,,,,,,,,,,,,,rot,yellow,g,0.0,g,1.0,0.5695475289994647,,,,,,,,,,1.0,2.0,14.0,3.0,146.5006615350012,,,,,,,,,,,,,,,,,146.48596380100025,146.8501379850004,147.6518362730003,147.6343852050013,,,,,,,,,,,,,,,,,,,,,,,,,,,,,,,,,,,147.6382546700006,147.6518362730003,147.6518362730003,148.2344838300014,g,1.0,0.5695475289994647,,,,,,sub-045,1,stroop_test,60.21361381622669,
,,,,15.0,3.0,1.0,,,,,,,,,,,,,blau,blue,b,1.0,r,0.0,0.6740562710001541,,,,,,,,,,1.0,3.0,15.0,5.0,148.25030789200173,,,,,,,,,,,,,,,,,148.2347823200016,149.4341553180002,150.2339903510001,150.217415866,,,,,,,,,,,,,,,,,,,,,,,,,,,,,,,,,,,150.21978560200114,150.2339903510001,150.2339903510001,150.91802299900155,r,0.0,0.6740562710001541,,,,,,sub-045,1,stroop_test,60.21361381622669,
,,,,16.0,4.0,1.0,,,,,,,,,,,,,gelb,yellow,g,1.0,g,1.0,0.6604436639991036,,,,,,,,,,1.0,4.0,16.0,11.0,150.93389331400067,,,,,,,,,,,,,,,,,150.91831786500006,151.71735428600005,152.51750789300058,152.500832918,,,,,,,,,,,,,,,,,,,,,,,,,,,,,,,,,,,152.50319367200063,152.51750789300058,152.51750789300058,153.18472088200178,g,1.0,0.6604436639991036,,,,,,sub-045,1,stroop_test,60.21361381622669,
,,,,17.0,5.0,1.0,,,,,,,,,,,,,blau,yellow,g,0.0,g,1.0,0.5494179840006836,,,,,,,,,,1.0,5.0,17.0,7.0,153.20038076200035,,,,,,,,,,,,,,,,,153.185059069001,153.98444747600115,154.7852864700017,154.76737151400084,,,,,,,,,,,,,,,,,,,,,,,,,,,,,,,,,,,154.7710230820012,154.7852864700017,154.7852864700017,155.35150790600164,g,1.0,0.5494179840006836,,,,,,sub-045,1,stroop_test,60.21361381622669,
,,,,18.0,6.0,1.0,,,,,,,,,,,,,blau,blue,b,1.0,b,1.0,0.581367577000492,,,,,,,,,,1.0,6.0,18.0,6.0,155.36690301100134,,,,,,,,,,,,,,,,,155.35181196900157,155.717370458,156.5173578970007,156.5007406950008,,,,,,,,,,,,,,,,,,,,,,,,,,,,,,,,,,,156.50140798100074,156.5173578970007,156.5173578970007,157.1013650920013,b,1.0,0.581367577000492,,,,,,sub-045,1,stroop_test,60.21361381622669,
,,,,19.0,7.0,1.0,,,,,,,,,,,,,gelb,yellow,g,1.0,g,1.0,0.6319207369997457,,,,,,,,,,1.0,7.0,19.0,10.0,157.1167136030017,,,,,,,,,,,,,,,,,157.10169626900097,157.20043869300025,158.0011839760009,157.9842776710011,,,,,,,,,,,,,,,,,,,,,,,,,,,,,,,,,,,157.98807572000078,158.0011839760009,158.0011839760009,158.63478532800036,g,1.0,0.6319207369997457,,,,,,sub-045,1,stroop_test,60.21361381622669,
,,,,20.0,8.0,1.0,,,,,,,,,,,,,rot,blue,b,0.0,b,1.0,0.7249985789985658,,,,,,,,,,1.0,8.0,20.0,2.0,158.6502826240012,,,,,,,,,,,,,,,,,158.6351096110011,159.85032822000176,160.6497967510004,160.63402280900118,,,,,,,,,,,,,,,,,,,,,,,,,,,,,,,,,,,160.6361235580007,160.6497967510004,160.6497967510004,161.38411993200134,b,1.0,0.7249985789985658,,,,,,sub-045,1,stroop_test,60.21361381622669,
,,,,21.0,9.0,1.0,,,,,,,,,,,,,rot,red,r,1.0,r,1.0,0.5845680109996465,,,,,,,,,,1.0,9.0,21.0,0.0,161.39991334700062,,,,,,,,,,,,,,,,,161.38441438800146,161.48396013400088,162.28298370300035,162.266640328,,,,,,,,,,,,,,,,,,,,,,,,,,,,,,,,,,,162.2670663830013,162.28298370300035,162.28298370300035,162.8838380390007,r,1.0,0.5845680109996465,,,,,,sub-045,1,stroop_test,60.21361381622669,
,,,,22.0,10.0,1.0,,,,,,,,,,,,,blau,red,r,0.0,r,1.0,0.8978265349996946,,,,,,,,,,1.0,10.0,22.0,4.0,162.89990562800085,,,,,,,,,,,,,,,,,162.8841689460005,164.08410343300056,164.88568265200047,164.86732166100046,,,,,,,,,,,,,,,,,,,,,,,,,,,,,,,,,,,164.87184494400026,164.88568265200047,164.88568265200047,165.78491532700173,r,1.0,0.8978265349996946,,,,,,sub-045,1,stroop_test,60.21361381622669,
,,,,23.0,11.0,1.0,,,,,,,,,,,,,gelb,red,r,0.0,r,1.0,0.4145697290005046,,,,,,,,,,1.0,11.0,23.0,8.0,165.80011723000098,,,,,,,,,,,,,,,,,165.7852514440001,166.59956161100126,167.40203660200132,167.38410105300136,,,,,,,,,,,,,,,,,,,,,,,,,,,,,,,,,,,167.38805395300005,167.40203660200132,167.40203660200132,167.8181165620008,r,1.0,0.4145697290005046,,,,,,sub-045,1,stroop_test,60.21361381622669,
,,,,24.0,0.0,2.0,,,,,,,,,,,,,blau,blue,b,1.0,b,1.0,0.6451286070005153,,,,,,,,,,2.0,0.0,24.0,5.0,167.8333846580008,,,,,,,,,,,,,,,,,167.8184669300008,167.91697607400056,168.71847194800102,168.7008180470002,,,,,,,,,,,,,,,,,,,,,,,,,,,,,,,,,,,168.7046979220013,168.71847194800102,168.71847194800102,169.36808716200176,b,1.0,0.6451286070005153,,,,,,sub-045,1,stroop_test,60.21361381622669,
,,,,25.0,1.0,2.0,,,,,,,,,,,,,gelb,yellow,g,1.0,g,1.0,0.5188543870008289,,,,,,,,,,2.0,1.0,25.0,10.0,169.3831032070011,,,,,,,,,,,,,,,,,169.36840118300097,169.48403307100125,170.28489527300007,170.26747903700016,,,,,,,,,,,,,,,,,,,,,,,,,,,,,,,,,,,170.27161935600088,170.28489527300007,170.28489527300007,170.81808042300145,g,1.0,0.5188543870008289,,,,,,sub-045,1,stroop_test,60.21361381622669,
,,,,26.0,2.0,2.0,,,,,,,,,,,,,rot,yellow,g,0.0,g,1.0,0.5739397119996283,,,,,,,,,,2.0,2.0,26.0,3.0,170.83328287900076,,,,,,,,,,,,,,,,,170.81838631500068,171.1860024000016,172.00146148800013,171.9839849200016,,,,,,,,,,,,,,,,,,,,,,,,,,,,,,,,,,,171.9879898660001,172.00146148800013,172.00146148800013,172.58428100400124,g,1.0,0.5739397119996283,,,,,,sub-045,1,stroop_test,60.21361381622669,
,,,,27.0,3.0,2.0,,,,,,,,,,,,,gelb,red,r,0.0,r,1.0,0.6930488879988843,,,,,,,,,,2.0,3.0,27.0,8.0,172.60082444300133,,,,,,,,,,,,,,,,,172.5845804310011,172.6843620640011,173.48545793000085,173.46806469000148,,,,,,,,,,,,,,,,,,,,,,,,,,,,,,,,,,,173.47106084799998,173.48545793000085,173.48545793000085,174.18502630400144,r,1.0,0.6930488879988843,,,,,,sub-045,1,stroop_test,60.21361381622669,
,,,,28.0,4.0,2.0,,,,,,,,,,,,,rot,blue,b,0.0,b,1.0,0.6145889509989502,,,,,,,,,,2.0,4.0,28.0,2.0,174.20101992500167,,,,,,,,,,,,,,,,,174.18533064400071,175.38403825200112,176.1866134640004,176.16768043100092,,,,,,,,,,,,,,,,,,,,,,,,,,,,,,,,,,,176.17195174300105,176.1866134640004,176.1866134640004,176.81878149800104,b,1.0,0.6145889509989502,,,,,,sub-045,1,stroop_test,60.21361381622669,
,,,,29.0,5.0,2.0,,,,,,,,,,,,,blau,red,r,0.0,r,1.0,1.031972319999113,,,,,,,,,,2.0,5.0,29.0,4.0,176.8351519730004,,,,,,,,,,,,,,,,,176.819300313,176.9338204120013,177.7361144000006,177.7172963740013,,,,,,,,,,,,,,,,,,,,,,,,,,,,,,,,,,,177.72170308600107,177.7361144000006,177.7361144000006,178.7842911330008,r,1.0,1.031972319999113,,,,,,sub-045,1,stroop_test,60.21361381622669,
,,,,30.0,6.0,2.0,,,,,,,,,,,,,gelb,yellow,g,1.0,g,1.0,0.5370557320002263,,,,,,,,,,2.0,6.0,30.0,11.0,178.79987377600082,,,,,,,,,,,,,,,,,178.78458900100122,179.1505602410016,179.96734424600072,179.9502254020008,,,,,,,,,,,,,,,,,,,,,,,,,,,,,,,,,,,179.95349453700146,179.96734424600072,179.96734424600072,180.51834538100047,g,1.0,0.5370557320002263,,,,,,sub-045,1,stroop_test,60.21361381622669,
,,,,31.0,7.0,2.0,,,,,,,,,,,,,rot,red,r,1.0,r,1.0,0.4230748859990854,,,,,,,,,,2.0,7.0,31.0,1.0,180.53459334200124,,,,,,,,,,,,,,,,,180.51885701300125,180.88370538100023,181.6849108740007,181.66744703800032,,,,,,,,,,,,,,,,,,,,,,,,,,,,,,,,,,,181.67139720500015,181.6849108740007,181.6849108740007,182.11926403300092,r,1.0,0.4230748859990854,,,,,,sub-045,1,stroop_test,60.21361381622669,
,,,,32.0,8.0,2.0,,,,,,,,,,,,,gelb,blue,b,0.0,b,1.0,0.7896229639991361,,,,,,,,,,2.0,8.0,32.0,9.0,182.13364110800103,,,,,,,,,,,,,,,,,182.1195840650016,183.33273919900057,184.13340674500068,184.11623655100084,,,,,,,,,,,,,,,,,,,,,,,,,,,,,,,,,,,184.1184547140001,184.13340674500068,184.13340674500068,184.93436046400168,b,1.0,0.7896229639991361,,,,,,sub-045,1,stroop_test,60.21361381622669,
,,,,33.0,9.0,2.0,,,,,,,,,,,,,blau,blue,b,1.0,b,1.0,0.4503179530001944,,,,,,,,,,2.0,9.0,33.0,6.0,184.95049217200176,,,,,,,,,,,,,,,,,184.9347434020001,185.28343546900032,186.08580388200065,186.0671385300011,,,,,,,,,,,,,,,,,,,,,,,,,,,,,,,,,,,186.0713775160002,186.08580388200065,186.08580388200065,186.55508035800085,b,1.0,0.4503179530001944,,,,,,sub-045,1,stroop_test,60.21361381622669,
,,,,34.0,10.0,2.0,,,,,,,,,,,,,rot,red,r,1.0,r,1.0,0.5571187200002896,,,,,,,,,,2.0,10.0,34.0,0.0,186.56958152800144,,,,,,,,,,,,,,,,,186.5554324490004,187.36711914600164,188.17187736100092,188.151058929001,,,,,,,,,,,,,,,,,,,,,,,,,,,,,,,,,,,188.15556596100032,188.17187736100092,188.17187736100092,188.73444484000171,r,1.0,0.5571187200002896,,,,,,sub-045,1,stroop_test,60.21361381622669,
,,,,35.0,11.0,2.0,,,,,,,,,,,,,blau,yellow,g,0.0,g,1.0,0.5394826749998174,,,,,,,,,,2.0,11.0,35.0,7.0,188.75013285200112,,,,,,,,,,,,,,,,,188.73488020700097,189.0839265150007,189.8856167190006,189.86748352500035,,,,,,,,,,,,,,,,,,,,,,,,,,,,,,,,,,,189.87172436400036,189.8856167190006,189.8856167190006,190.43394363000152,g,1.0,0.5394826749998174,,,,,,sub-045,1,stroop_test,60.21361381622669,
,,,,36.0,0.0,3.0,,,,,,,,,,,,,blau,blue,b,1.0,b,1.0,0.6659085610008333,,,,,,,,,,3.0,0.0,36.0,5.0,190.45018644100128,,,,,,,,,,,,,,,,,190.4342382710001,190.7841165940008,191.5844243020001,191.56767404900165,,,,,,,,,,,,,,,,,,,,,,,,,,,,,,,,,,,191.56861226,191.5844243020001,191.5844243020001,192.25165070000003,b,1.0,0.6659085610008333,,,,,,sub-045,1,stroop_test,60.21361381622669,
,,,,37.0,1.0,3.0,,,,,,,,,,,,,blau,blue,b,1.0,b,1.0,0.420825823000996,,,,,,,,,,3.0,1.0,37.0,6.0,192.2669884530005,,,,,,,,,,,,,,,,,192.25203011200028,193.0676647220007,193.884151151,193.8674797890017,,,,,,,,,,,,,,,,,,,,,,,,,,,,,,,,,,,193.86829128500176,193.884151151,193.884151151,194.31873660600104,b,1.0,0.420825823000996,,,,,,sub-045,1,stroop_test,60.21361381622669,
,,,,38.0,2.0,3.0,,,,,,,,,,,,,rot,red,r,1.0,r,1.0,0.5795521579984779,,,,,,,,,,3.0,2.0,38.0,0.0,194.3349851310013,,,,,,,,,,,,,,,,,194.31909518700013,194.43357790700065,195.23620995200145,195.21735048100163,,,,,,,,,,,,,,,,,,,,,,,,,,,,,,,,,,,195.2218250900005,195.23620995200145,195.23620995200145,195.8180058930011,r,1.0,0.5795521579984779,,,,,,sub-045,1,stroop_test,60.21361381622669,
,,,,39.0,3.0,3.0,,,,,,,,,,,,,gelb,red,r,0.0,r,1.0,0.4842328120012098,,,,,,,,,,3.0,3.0,39.0,8.0,195.83365279700047,,,,,,,,,,,,,,,,,195.8183718690016,197.0336624710017,197.83445851000036,197.81746388800093,,,,,,,,,,,,,,,,,,,,,,,,,,,,,,,,,,,197.81960940000133,197.83445851000036,197.83445851000036,198.3350222830013,r,1.0,0.4842328120012098,,,,,,sub-045,1,stroop_test,60.21361381622669,
,,,,40.0,4.0,3.0,,,,,,,,,,,,,rot,yellow,g,0.0,g,1.0,0.2837308079997456,,,,,,,,,,3.0,4.0,40.0,3.0,198.3519618260016,,,,,,,,,,,,,,,,,198.3357302350014,199.15016987200036,199.95090603500103,199.9328362080014,,,,,,,,,,,,,,,,,,,,,,,,,,,,,,,,,,,199.93606175900092,199.95090603500103,199.95090603500103,200.25106331400093,g,1.0,0.2837308079997456,,,,,,sub-045,1,stroop_test,60.21361381622669,
,,,,41.0,5.0,3.0,,,,,,,,,,,,,blau,red,r,0.0,r,1.0,0.88183531300092,,,,,,,,,,3.0,5.0,41.0,4.0,200.26621921400147,,,,,,,,,,,,,,,,,200.25142317200152,200.61667817600028,201.4178422010009,201.40031203500075,,,,,,,,,,,,,,,,,,,,,,,,,,,,,,,,,,,201.40425543100173,201.4178422010009,201.4178422010009,202.30104803400167,r,1.0,0.88183531300092,,,,,,sub-045,1,stroop_test,60.21361381622669,
,,,,42.0,6.0,3.0,,,,,,,,,,,,,gelb,blue,b,0.0,b,1.0,0.6534504039991589,,,,,,,,,,3.0,6.0,42.0,9.0,202.31629843600055,,,,,,,,,,,,,,,,,202.30147129300167,202.4166612880017,203.21834496300107,203.20056760600164,,,,,,,,,,,,,,,,,,,,,,,,,,,,,,,,,,,203.20483233100092,203.21834496300107,203.21834496300107,203.88509534700097,b,1.0,0.6534504039991589,,,,,,sub-045,1,stroop_test,60.21361381622669,
,,,,43.0,7.0,3.0,,,,,,,,,,,,,gelb,yellow,g,1.0,g,1.0,0.6196235639999941,,,,,,,,,,3.0,7.0,43.0,10.0,203.90175685100075,,,,,,,,,,,,,,,,,203.885606707001,204.0001212690004,204.800211400001,204.78345594700116,,,,,,,,,,,,,,,,,,,,,,,,,,,,,,,,,,,204.78417124500083,204.800211400001,204.800211400001,205.43322859400175,g,1.0,0.6196235639999941,,,,,,sub-045,1,stroop_test,60.21361381622669,
,,,,44.0,8.0,3.0,,,,,,,,,,,,,rot,red,r,1.0,r,1.0,0.9580147549986576,,,,,,,,,,3.0,8.0,44.0,1.0,205.44979979900015,,,,,,,,,,,,,,,,,205.4335170100003,206.6326844960004,207.43352025000056,207.41686323500107,,,,,,,,,,,,,,,,,,,,,,,,,,,,,,,,,,,207.4202394520016,207.43352025000056,207.43352025000056,208.40041267700144,r,1.0,0.9580147549986576,,,,,,sub-045,1,stroop_test,60.21361381622669,
,,,,45.0,9.0,3.0,,,,,,,,,,,,,rot,blue,b,0.0,b,1.0,0.6383162789989001,,,,,,,,,,3.0,9.0,45.0,2.0,208.41632841700084,,,,,,,,,,,,,,,,,208.40071160800107,208.7657132290005,209.56647811900075,209.55031793000128,,,,,,,,,,,,,,,,,,,,,,,,,,,,,,,,,,,209.5509767500007,209.56647811900075,209.56647811900075,210.216808788,b,1.0,0.6383162789989001,,,,,,sub-045,1,stroop_test,60.21361381622669,
,,,,46.0,10.0,3.0,,,,,,,,,,,,,gelb,yellow,g,1.0,g,1.0,0.5303026639994641,,,,,,,,,,3.0,10.0,46.0,11.0,210.2328211790009,,,,,,,,,,,,,,,,,210.2171024930012,210.3165042880009,211.119092981,211.10024547000103,,,,,,,,,,,,,,,,,,,,,,,,,,,,,,,,,,,211.10505360200116,211.119092981,211.119092981,211.6506243420008,g,1.0,0.5303026639994641,,,,,,sub-045,1,stroop_test,60.21361381622669,
,,,,47.0,11.0,3.0,,,,,,,,,,,,,blau,yellow,g,0.0,g,1.0,0.874647337001079,,,,,,,,,,3.0,11.0,47.0,7.0,211.6662076590001,,,,,,,,,,,,,,,,,211.6509808090013,212.86649797500104,213.6685717090004,213.6500803310009,,,,,,,,,,,,,,,,,,,,,,,,,,,,,,,,,,,213.6540280090012,213.6685717090004,213.6685717090004,214.5507820480016,g,1.0,0.874647337001079,,,,,,sub-045,1,stroop_test,60.21361381622669,
,,,,48.0,0.0,4.0,,,,,,,,,,,,,gelb,blue,b,0.0,b,1.0,0.4845887239989679,,,,,,,,,,4.0,0.0,48.0,9.0,214.56632908600116,,,,,,,,,,,,,,,,,214.5510827300004,215.36640700500172,216.1689175020001,216.1504229810016,,,,,,,,,,,,,,,,,,,,,,,,,,,,,,,,,,,216.15435644300123,216.1689175020001,216.1689175020001,216.6682229450016,b,1.0,0.4845887239989679,,,,,,sub-045,1,stroop_test,60.21361381622669,
,,,,49.0,1.0,4.0,,,,,,,,,,,,,blau,blue,b,1.0,b,1.0,0.6624285260004399,,,,,,,,,,4.0,1.0,49.0,5.0,216.6849456510008,,,,,,,,,,,,,,,,,216.66873548400145,217.88340705600055,218.6856276620001,218.66708829000163,,,,,,,,,,,,,,,,,,,,,,,,,,,,,,,,,,,218.6710139800016,218.6856276620001,218.6856276620001,219.3510410000017,b,1.0,0.6624285260004399,,,,,,sub-045,1,stroop_test,60.21361381622669,
,,,,50.0,2.0,4.0,,,,,,,,,,,,,blau,red,r,0.0,g,0.0,0.6978924060003919,,,,,,,,,,4.0,2.0,50.0,4.0,219.36745570100172,,,,,,,,,,,,,,,,,219.3513727860009,219.4500625060009,220.25020884200055,220.23386924400077,,,,,,,,,,,,,,,,,,,,,,,,,,,,,,,,,,,220.23453462,220.25020884200055,220.25020884200055,220.95098291600152,g,0.0,0.6978924060003919,,,,,,sub-045,1,stroop_test,60.21361381622669,
,,,,51.0,3.0,4.0,,,,,,,,,,,,,gelb,yellow,g,1.0,g,1.0,0.8864176539991604,,,,,,,,,,4.0,3.0,51.0,11.0,220.96674174600048,,,,,,,,,,,,,,,,,220.9513539870004,221.05024676700123,221.8529402830009,221.83408531500027,,,,,,,,,,,,,,,,,,,,,,,,,,,,,,,,,,,221.83855045000016,221.8529402830009,221.8529402830009,222.7506947360016,g,1.0,0.8864176539991604,,,,,,sub-045,1,stroop_test,60.21361381622669,
,,,,52.0,4.0,4.0,,,,,,,,,,,,,blau,blue,b,1.0,b,1.0,0.4852543020006123,,,,,,,,,,4.0,4.0,52.0,6.0,222.7667669360017,,,,,,,,,,,,,,,,,222.7509947970011,223.54996943300105,224.3507635090009,224.3331621480011,,,,,,,,,,,,,,,,,,,,,,,,,,,,,,,,,,,224.3367110900017,224.3507635090009,224.3507635090009,224.8504310320004,b,1.0,0.4852543020006123,,,,,,sub-045,1,stroop_test,60.21361381622669,
,,,,53.0,5.0,4.0,,,,,,,,,,,,,rot,red,r,1.0,r,1.0,0.4533990350009844,,,,,,,,,,4.0,5.0,53.0,1.0,224.86661808900132,,,,,,,,,,,,,,,,,224.850725884,226.05010266500176,226.8534724910005,226.8336961520017,,,,,,,,,,,,,,,,,,,,,,,,,,,,,,,,,,,226.83870501500127,226.8534724910005,226.8534724910005,227.31747833200097,r,1.0,0.4533990350009844,,,,,,sub-045,1,stroop_test,60.21361381622669,
,,,,54.0,6.0,4.0,,,,,,,,,,,,,gelb,red,r,0.0,r,1.0,0.8584059629993135,,,,,,,,,,4.0,6.0,54.0,8.0,227.3336192170009,,,,,,,,,,,,,,,,,227.3177912750016,228.5172712970016,229.3185144170002,229.3004094400003,,,,,,,,,,,,,,,,,,,,,,,,,,,,,,,,,,,229.30422828600055,229.3185144170002,229.3185144170002,230.1844858930017,r,1.0,0.8584059629993135,,,,,,sub-045,1,stroop_test,60.21361381622669,
,,,,55.0,7.0,4.0,,,,,,,,,,,,,rot,red,r,1.0,r,1.0,0.570679858999938,,,,,,,,,,4.0,7.0,55.0,0.0,230.20033051300013,,,,,,,,,,,,,,,,,230.18478018000133,231.3999797920005,232.2004514700002,232.1829328520016,,,,,,,,,,,,,,,,,,,,,,,,,,,,,,,,,,,232.1854141110016,232.2004514700002,232.2004514700002,232.784754499,r,1.0,0.570679858999938,,,,,,sub-045,1,stroop_test,60.21361381622669,
,,,,56.0,8.0,4.0,,,,,,,,,,,,,rot,blue,b,0.0,b,1.0,0.7501643340001465,,,,,,,,,,4.0,8.0,56.0,2.0,232.8013611130009,,,,,,,,,,,,,,,,,232.7851201880003,232.89988912600165,233.7005387950012,233.68368737700075,,,,,,,,,,,,,,,,,,,,,,,,,,,,,,,,,,,233.6843806460001,233.7005387950012,233.7005387950012,234.46807156000068,b,1.0,0.7501643340001465,,,,,,sub-045,1,stroop_test,60.21361381622669,
,,,,57.0,9.0,4.0,,,,,,,,,,,,,rot,yellow,g,0.0,g,1.0,0.4891569159990467,,,,,,,,,,4.0,9.0,57.0,3.0,234.48476507100168,,,,,,,,,,,,,,,,,234.46857950700175,234.83320724900116,235.63283827300077,235.61648053800127,,,,,,,,,,,,,,,,,,,,,,,,,,,,,,,,,,,235.61706161300023,235.63283827300077,235.63283827300077,236.13439928200023,g,1.0,0.4891569159990467,,,,,,sub-045,1,stroop_test,60.21361381622669,
,,,,58.0,10.0,4.0,,,,,,,,,,,,,blau,yellow,g,0.0,g,1.0,0.5567401799999061,,,,,,,,,,4.0,10.0,58.0,7.0,236.1503629750005,,,,,,,,,,,,,,,,,236.13468821700008,237.34996284700173,238.15192103200025,238.13360643300075,,,,,,,,,,,,,,,,,,,,,,,,,,,,,,,,,,,238.1374857300016,238.15192103200025,238.15192103200025,238.71737191300053,g,1.0,0.5567401799999061,,,,,,sub-045,1,stroop_test,60.21361381622669,
,,,,59.0,11.0,4.0,,,,,,,,,,,,,gelb,yellow,g,1.0,g,1.0,0.5639396210008272,,,,,,,,,,4.0,11.0,59.0,10.0,238.73334397100007,,,,,,,,,,,,,,,,,238.71766282000132,238.81662665600012,239.61897316600152,239.60011793800004,,,,,,,,,,,,,,,,,,,,,,,,,,,,,,,,,,,239.6040419410001,239.61897316600152,239.61897316600152,240.18431812000017,g,1.0,0.5639396210008272,,,,,,sub-045,1,stroop_test,60.21361381622669,
,,,,60.0,0.0,5.0,,,,,,,,,,,,,gelb,yellow,g,1.0,g,1.0,0.4068521019999025,,,,,,,,,,5.0,0.0,60.0,11.0,240.1997147330003,,,,,,,,,,,,,,,,,240.18466460000127,240.54989687200032,241.3497838420008,241.33338834800088,,,,,,,,,,,,,,,,,,,,,,,,,,,,,,,,,,,241.33382033900125,241.3497838420008,241.3497838420008,241.7672922730017,g,1.0,0.4068521019999025,,,,,,sub-045,1,stroop_test,60.21361381622669,
,,,,61.0,1.0,5.0,,,,,,,,,,,,,gelb,yellow,g,1.0,g,1.0,0.3580468800009839,,,,,,,,,,5.0,1.0,61.0,10.0,241.783471955001,,,,,,,,,,,,,,,,,241.7676590890005,241.86664998500052,242.6666471700009,242.6501873570014,,,,,,,,,,,,,,,,,,,,,,,,,,,,,,,,,,,242.6508618470016,242.6666471700009,242.6666471700009,243.033922392,g,1.0,0.3580468800009839,,,,,,sub-045,1,stroop_test,60.21361381622669,
,,,,62.0,2.0,5.0,,,,,,,,,,,,,rot,yellow,g,0.0,g,1.0,0.372670606999236,,,,,,,,,,5.0,2.0,62.0,3.0,243.050546931001,,,,,,,,,,,,,,,,,243.0342776000016,243.83312177300104,244.6338395800012,244.61612719500044,,,,,,,,,,,,,,,,,,,,,,,,,,,,,,,,,,,244.61979323100056,244.6338395800012,244.6338395800012,245.01718028600044,g,1.0,0.372670606999236,,,,,,sub-045,1,stroop_test,60.21361381622669,
,,,,63.0,3.0,5.0,,,,,,,,,,,,,gelb,blue,b,0.0,b,1.0,0.784537724999609,,,,,,,,,,5.0,3.0,63.0,9.0,245.03285412700097,,,,,,,,,,,,,,,,,245.0175529090011,245.1325854750012,245.9352293780012,245.9163986920012,,,,,,,,,,,,,,,,,,,,,,,,,,,,,,,,,,,245.92054650800128,245.9352293780012,245.9352293780012,246.7348499510008,b,1.0,0.784537724999609,,,,,,sub-045,1,stroop_test,60.21361381622669,
,,,,64.0,4.0,5.0,,,,,,,,,,,,,blau,yellow,g,0.0,g,1.0,0.4674900130012247,,,,,,,,,,5.0,4.0,64.0,7.0,246.749943402001,,,,,,,,,,,,,,,,,246.73514974700083,247.54984906600112,248.3540344770008,248.33355302100065,,,,,,,,,,,,,,,,,,,,,,,,,,,,,,,,,,,248.3400547730016,248.3540344770008,248.3540344770008,248.83435877300144,g,1.0,0.4674900130012247,,,,,,sub-045,1,stroop_test,60.21361381622669,
,,,,65.0,5.0,5.0,,,,,,,,,,,,,blau,blue,b,1.0,b,1.0,0.8079426790009165,,,,,,,,,,5.0,5.0,65.0,5.0,248.85038311000065,,,,,,,,,,,,,,,,,248.83467317900067,250.04961499600176,250.85027570800048,250.83360643700144,,,,,,,,,,,,,,,,,,,,,,,,,,,,,,,,,,,250.8346776480012,250.85027570800048,250.85027570800048,251.6671667560004,b,1.0,0.8079426790009165,,,,,,sub-045,1,stroop_test,60.21361381622669,
,,,,66.0,6.0,5.0,,,,,,,,,,,,,rot,red,r,1.0,r,1.0,0.5998732910011313,,,,,,,,,,5.0,6.0,66.0,1.0,251.68320763800148,,,,,,,,,,,,,,,,,251.6674552630011,252.86626981100017,253.66763535200155,253.64968699900052,,,,,,,,,,,,,,,,,,,,,,,,,,,,,,,,,,,253.65265179000016,253.66763535200155,253.66763535200155,254.2842080950013,r,1.0,0.5998732910011313,,,,,,sub-045,1,stroop_test,60.21361381622669,
,,,,67.0,7.0,5.0,,,,,,,,,,,,,gelb,red,r,0.0,r,1.0,0.5307188440001482,,,,,,,,,,5.0,7.0,67.0,8.0,254.30027039700144,,,,,,,,,,,,,,,,,254.28456846600056,254.3995864340013,255.20186954100063,255.183333256,,,,,,,,,,,,,,,,,,,,,,,,,,,,,,,,,,,255.1872168010013,255.20186954100063,255.20186954100063,255.7505841400016,r,1.0,0.5307188440001482,,,,,,sub-045,1,stroop_test,60.21361381622669,
,,,,68.0,8.0,5.0,,,,,,,,,,,,,blau,blue,b,1.0,b,1.0,0.61000270400109,,,,,,,,,,5.0,8.0,68.0,6.0,255.7672043980001,,,,,,,,,,,,,,,,,255.751020832,256.9495598090016,257.7513094240003,257.73331896700074,,,,,,,,,,,,,,,,,,,,,,,,,,,,,,,,,,,257.73716004200105,257.7513094240003,257.7513094240003,258.3671401340016,b,1.0,0.61000270400109,,,,,,sub-045,1,stroop_test,60.21361381622669,
,,,,69.0,9.0,5.0,,,,,,,,,,,,,rot,red,r,1.0,g,0.0,1.47564586199951,,,,,,,,,,5.0,9.0,69.0,0.0,258.38324309400014,,,,,,,,,,,,,,,,,258.36745172300107,259.5663734000009,260.366306893,260.3492927720017,,,,,,,,,,,,,,,,,,,,,,,,,,,,,,,,,,,260.3514468910016,260.366306893,260.366306893,261.84993056200074,g,0.0,1.47564586199951,,,,,,sub-045,1,stroop_test,60.21361381622669,
,,,,70.0,10.0,5.0,,,,,,,,,,,,,blau,red,r,0.0,r,1.0,0.5703680030001124,,,,,,,,,,5.0,10.0,70.0,4.0,261.8663920380004,,,,,,,,,,,,,,,,,261.8502302100005,262.199360568,263.0018773570009,262.98319588100094,,,,,,,,,,,,,,,,,,,,,,,,,,,,,,,,,,,262.98747810200075,263.0018773570009,263.0018773570009,263.5836870820003,r,1.0,0.5703680030001124,,,,,,sub-045,1,stroop_test,60.21361381622669,
,,,,71.0,11.0,5.0,,,,,,,,,,,,,rot,blue,b,0.0,b,1.0,1.2164704610004264,,,,,,,,,,5.0,11.0,71.0,2.0,263.59964985900115,,,,,,,,,,,,,,,,,263.58419563700045,264.39899711200087,265.201385069,265.1827670840012,,,,,,,,,,,,,,,,,,,,,,,,,,,,,,,,,,,265.1870398690007,265.201385069,265.201385069,266.43383692300085,b,1.0,1.2164704610004264,,,,,,sub-045,1,stroop_test,60.21361381622669,
,,,,72.0,0.0,6.0,,,,,,,,,,,,,blau,blue,b,1.0,b,1.0,0.4384744520011736,,,,,,,,,,6.0,0.0,72.0,5.0,266.4496850240012,,,,,,,,,,,,,,,,,266.43419450700094,267.6485561990012,268.4513575130004,268.43308340300064,,,,,,,,,,,,,,,,,,,,,,,,,,,,,,,,,,,268.4379407770012,268.4513575130004,268.4513575130004,268.8993056560012,b,1.0,0.4384744520011736,,,,,,sub-045,1,stroop_test,60.21361381622669,
,,,,73.0,1.0,6.0,,,,,,,,,,,,,gelb,blue,b,0.0,b,1.0,0.456200175000049,,,,,,,,,,6.0,1.0,73.0,9.0,268.9156135630001,,,,,,,,,,,,,,,,,268.89960037200035,268.9988749610002,269.8015650950001,269.7827478070012,,,,,,,,,,,,,,,,,,,,,,,,,,,,,,,,,,,269.7869450520011,269.8015650950001,269.8015650950001,270.2662838290016,b,1.0,0.456200175000049,,,,,,sub-045,1,stroop_test,60.21361381622669,
,,,,74.0,2.0,6.0,,,,,,,,,,,,,rot,red,r,1.0,r,1.0,1.2916831239999738,,,,,,,,,,6.0,2.0,74.0,1.0,270.2821231810012,,,,,,,,,,,,,,,,,270.2665733540016,271.06548631400074,271.86712088600143,271.84929469500094,,,,,,,,,,,,,,,,,,,,,,,,,,,,,,,,,,,271.85288487900107,271.86712088600143,271.86712088600143,273.16640504300085,r,1.0,1.2916831239999738,,,,,,sub-045,1,stroop_test,60.21361381622669,
,,,,75.0,3.0,6.0,,,,,,,,,,,,,rot,red,r,1.0,r,1.0,0.3515108579995285,,,,,,,,,,6.0,3.0,75.0,0.0,273.182021052,,,,,,,,,,,,,,,,,273.16669494800044,274.3823584140009,275.18224826500045,275.1658572110009,,,,,,,,,,,,,,,,,,,,,,,,,,,,,,,,,,,275.1665688600005,275.18224826500045,275.18224826500045,275.55035608900107,r,1.0,0.3515108579995285,,,,,,sub-045,1,stroop_test,60.21361381622669,
,,,,76.0,4.0,6.0,,,,,,,,,,,,,rot,blue,b,0.0,b,1.0,0.7121211260000564,,,,,,,,,,6.0,4.0,76.0,2.0,275.5669193220001,,,,,,,,,,,,,,,,,275.55086287200174,275.91532860500047,276.7156209470013,276.6993955120015,,,,,,,,,,,,,,,,,,,,,,,,,,,,,,,,,,,276.70006594200095,276.7156209470013,276.7156209470013,277.43321516800097,b,1.0,0.7121211260000564,,,,,,sub-045,1,stroop_test,60.21361381622669,
,,,,77.0,5.0,6.0,,,,,,,,,,,,,blau,blue,b,1.0,b,1.0,0.4997927179992985,,,,,,,,,,6.0,5.0,77.0,6.0,277.4487061050004,,,,,,,,,,,,,,,,,277.43350982000084,278.24856192300103,279.0508203750014,279.03253591500106,,,,,,,,,,,,,,,,,,,,,,,,,,,,,,,,,,,279.0364660940013,279.0508203750014,279.0508203750014,279.5667379880015,b,1.0,0.4997927179992985,,,,,,sub-045,1,stroop_test,60.21361381622669,
,,,,78.0,6.0,6.0,,,,,,,,,,,,,blau,yellow,g,0.0,g,1.0,0.4997119750005367,,,,,,,,,,6.0,6.0,78.0,7.0,279.58295304900093,,,,,,,,,,,,,,,,,279.5670328010001,280.3818102330006,281.18281282500175,281.1663386490018,,,,,,,,,,,,,,,,,,,,,,,,,,,,,,,,,,,281.1670324810002,281.18281282500175,281.18281282500175,281.68382993700106,g,1.0,0.4997119750005367,,,,,,sub-045,1,stroop_test,60.21361381622669,
,,,,79.0,7.0,6.0,,,,,,,,,,,,,gelb,yellow,g,1.0,g,1.0,0.6294253439991735,,,,,,,,,,6.0,7.0,79.0,10.0,281.6995098690004,,,,,,,,,,,,,,,,,281.6841722750014,282.89923916000043,283.7001671980015,283.68228754700067,,,,,,,,,,,,,,,,,,,,,,,,,,,,,,,,,,,283.6862464220012,283.7001671980015,283.7001671980015,284.3333880220016,g,1.0,0.6294253439991735,,,,,,sub-045,1,stroop_test,60.21361381622669,
,,,,80.0,8.0,6.0,,,,,,,,,,,,,gelb,red,r,0.0,r,1.0,0.8635885260009672,,,,,,,,,,6.0,8.0,80.0,8.0,284.34855756400066,,,,,,,,,,,,,,,,,284.3339268990003,284.68231172000014,285.4821623940006,285.4659299190007,,,,,,,,,,,,,,,,,,,,,,,,,,,,,,,,,,,285.4666776360009,285.4821623940006,285.4821623940006,286.34966877400075,r,1.0,0.8635885260009672,,,,,,sub-045,1,stroop_test,60.21361381622669,
,,,,81.0,9.0,6.0,,,,,,,,,,,,,gelb,yellow,g,1.0,g,1.0,0.4990937059992575,,,,,,,,,,6.0,9.0,81.0,11.0,286.3657734610006,,,,,,,,,,,,,,,,,286.3500228990015,287.5488908460011,288.34891246700136,288.3323226500015,,,,,,,,,,,,,,,,,,,,,,,,,,,,,,,,,,,288.3332265450008,288.34891246700136,288.34891246700136,288.84971184200003,g,1.0,0.4990937059992575,,,,,,sub-045,1,stroop_test,60.21361381622669,
,,,,82.0,10.0,6.0,,,,,,,,,,,,,blau,red,r,0.0,r,1.0,1.074897272999806,,,,,,,,,,6.0,10.0,82.0,4.0,288.86491013200066,,,,,,,,,,,,,,,,,288.8500341630006,289.6487386690005,290.4502334390017,290.43230458200014,,,,,,,,,,,,,,,,,,,,,,,,,,,,,,,,,,,290.4362690800008,290.4502334390017,290.4502334390017,291.53237108900066,r,1.0,1.074897272999806,,,,,,sub-045,1,stroop_test,60.21361381622669,
,,,,83.0,11.0,6.0,,,,,,,,,,,,,rot,yellow,g,0.0,g,1.0,0.6330264110001735,,,,,,,,,,6.0,11.0,83.0,3.0,291.54829716900167,,,,,,,,,,,,,,,,,291.5326596440009,291.88209661200017,292.68419187900145,292.66551881000123,,,,,,,,,,,,,,,,,,,,,,,,,,,,,,,,,,,292.67039481900065,292.68419187900145,292.68419187900145,293.3331206370003,g,1.0,0.6330264110001735,,,,,,sub-045,1,stroop_test,60.21361381622669,
,,,,84.0,0.0,7.0,,,,,,,,,,,,,blau,blue,b,1.0,b,1.0,0.4696055680014979,,,,,,,,,,7.0,0.0,84.0,6.0,293.34913343600056,,,,,,,,,,,,,,,,,293.3334935620005,294.5486551230006,295.35082853600034,295.3321921700008,,,,,,,,,,,,,,,,,,,,,,,,,,,,,,,,,,,295.3370412910008,295.35082853600034,295.35082853600034,295.83296830900144,b,1.0,0.4696055680014979,,,,,,sub-045,1,stroop_test,60.21361381622669,
,,,,85.0,1.0,7.0,,,,,,,,,,,,,gelb,blue,b,0.0,b,1.0,1.39044196299983,,,,,,,,,,7.0,1.0,85.0,9.0,295.8489700320006,,,,,,,,,,,,,,,,,295.83334868400016,297.0479232200014,297.8498623650012,297.83203119500104,,,,,,,,,,,,,,,,,,,,,,,,,,,,,,,,,,,297.8353218310004,297.8498623650012,297.8498623650012,299.24924788300086,b,1.0,1.39044196299983,,,,,,sub-045,1,stroop_test,60.21361381622669,
,,,,86.0,2.0,7.0,,,,,,,,,,,,,rot,blue,b,0.0,b,1.0,0.4276069060015288,,,,,,,,,,7.0,2.0,86.0,2.0,299.26556762900145,,,,,,,,,,,,,,,,,299.2497118350002,299.598642197001,300.4007404840013,300.38246205700125,,,,,,,,,,,,,,,,,,,,,,,,,,,,,,,,,,,300.38666715100044,300.4007404840013,300.4007404840013,300.83298462100174,b,1.0,0.4276069060015288,,,,,,sub-045,1,stroop_test,60.21361381622669,
,,,,87.0,3.0,7.0,,,,,,,,,,,,,blau,red,r,0.0,r,1.0,1.2991654020006536,,,,,,,,,,7.0,3.0,87.0,4.0,300.84847062000154,,,,,,,,,,,,,,,,,300.8334429530005,300.9480106180017,301.7502921790001,301.7322410330016,,,,,,,,,,,,,,,,,,,,,,,,,,,,,,,,,,,301.73687029100074,301.7502921790001,301.7502921790001,303.0659810590005,r,1.0,1.2991654020006536,,,,,,sub-045,1,stroop_test,60.21361381622669,
,,,,88.0,4.0,7.0,,,,,,,,,,,,,blau,blue,b,1.0,b,1.0,0.5890127580005355,,,,,,,,,,7.0,4.0,88.0,5.0,303.0815826730013,,,,,,,,,,,,,,,,,303.0663996080002,303.41538937600126,304.21520458600025,304.19863510900177,,,,,,,,,,,,,,,,,,,,,,,,,,,,,,,,,,,304.1993365140006,304.21520458600025,304.21520458600025,304.81649634300084,b,1.0,0.5890127580005355,,,,,,sub-045,1,stroop_test,60.21361381622669,
,,,,89.0,5.0,7.0,,,,,,,,,,,,,blau,yellow,g,0.0,g,1.0,0.5030255159999797,,,,,,,,,,7.0,5.0,89.0,7.0,304.8324543860017,,,,,,,,,,,,,,,,,304.81698426800176,305.1816516930012,305.9820809030007,305.9651720400016,,,,,,,,,,,,,,,,,,,,,,,,,,,,,,,,,,,305.9658427910017,305.9820809030007,305.9820809030007,306.50014615000146,g,1.0,0.5030255159999797,,,,,,sub-045,1,stroop_test,60.21361381622669,
,,,,90.0,6.0,7.0,,,,,,,,,,,,,gelb,yellow,g,1.0,g,1.0,0.5171596159998444,,,,,,,,,,7.0,6.0,90.0,10.0,306.51643201000115,,,,,,,,,,,,,,,,,306.5006706000004,306.615229346,307.4157953920003,307.3984932020012,,,,,,,,,,,,,,,,,,,,,,,,,,,,,,,,,,,307.4019106480009,307.4157953920003,307.4157953920003,307.9483702550005,g,1.0,0.5171596159998444,,,,,,sub-045,1,stroop_test,60.21361381622669,
,,,,91.0,7.0,7.0,,,,,,,,,,,,,rot,red,r,1.0,r,1.0,0.6745741280010407,,,,,,,,,,7.0,7.0,91.0,0.0,307.9643389460016,,,,,,,,,,,,,,,,,307.9486644180015,308.0483032470001,308.84908435700163,308.8317840280015,,,,,,,,,,,,,,,,,,,,,,,,,,,,,,,,,,,308.83554221100167,308.84908435700163,308.84908435700163,309.53247418900173,r,1.0,0.6745741280010407,,,,,,sub-045,1,stroop_test,60.21361381622669,
,,,,92.0,8.0,7.0,,,,,,,,,,,,,rot,red,r,1.0,r,1.0,0.5230164739987231,,,,,,,,,,7.0,8.0,92.0,1.0,309.54784224800096,,,,,,,,,,,,,,,,,309.53277826200065,310.73157648100096,311.531729231001,311.51553460300056,,,,,,,,,,,,,,,,,,,,,,,,,,,,,,,,,,,311.516217579001,311.531729231001,311.531729231001,312.0658435820005,r,1.0,0.5230164739987231,,,,,,sub-045,1,stroop_test,60.21361381622669,
,,,,93.0,9.0,7.0,,,,,,,,,,,,,rot,yellow,g,0.0,g,1.0,2.0239623469988146,,,,,,,,,,7.0,9.0,93.0,3.0,312.08142771700113,,,,,,,,,,,,,,,,,312.06613629800086,313.26540112600014,314.0648363250002,314.04999017200134,,,,,,,,,,,,,,,,,,,,,,,,,,,,,,,,,,,314.050431478001,314.0648363250002,314.0648363250002,316.10023702000035,g,1.0,2.0239623469988146,,,,,,sub-045,1,stroop_test,60.21361381622669,
,,,,94.0,10.0,7.0,,,,,,,,,,,,,gelb,red,r,0.0,r,1.0,2.224829835000492,,,,,,,,,,7.0,10.0,94.0,8.0,316.117308592,,,,,,,,,,,,,,,,,316.10074415800045,316.2148247920013,317.0179316540016,316.9991946420014,,,,,,,,,,,,,,,,,,,,,,,,,,,,,,,,,,,317.0033110020013,317.0179316540016,317.0179316540016,319.2494292740012,r,1.0,2.224829835000492,,,,,,sub-045,1,stroop_test,60.21361381622669,
,,,,95.0,11.0,7.0,,,,,,,,,,,,,gelb,yellow,g,1.0,g,1.0,0.5926388600000791,,,,,,,,,,7.0,11.0,95.0,11.0,319.2660409090004,,,,,,,,,,,,,,,,,319.2498190960014,319.598764579001,320.3989412660012,320.3824334030014,,,,,,,,,,,,,,,,,,,,,,,,,,,,,,,,,,,320.3831081140015,320.3989412660012,320.3989412660012,320.999654059,g,1.0,0.5926388600000791,,,,,,sub-045,1,stroop_test,60.21361381622669,
,,,,96.0,0.0,8.0,,,,,,,,,,,,,rot,yellow,g,0.0,g,1.0,1.1892969790005736,,,,,,,,,,8.0,0.0,96.0,3.0,321.0154803580008,,,,,,,,,,,,,,,,,320.99995265800135,322.19842202900145,322.9984308170005,322.9816613670009,,,,,,,,,,,,,,,,,,,,,,,,,,,,,,,,,,,322.983970831001,322.9984308170005,322.9984308170005,324.2005800170009,g,1.0,1.1892969790005736,,,,,,sub-045,1,stroop_test,60.21361381622669,
,,,,97.0,1.0,8.0,,,,,,,,,,,,,blau,red,r,0.0,r,1.0,0.9835088360014196,,,,,,,,,,8.0,1.0,97.0,4.0,324.2174965560007,,,,,,,,,,,,,,,,,324.20111183000154,325.4147909130006,326.21797283700107,326.1991950070005,,,,,,,,,,,,,,,,,,,,,,,,,,,,,,,,,,,326.2034493750016,326.21797283700107,326.21797283700107,327.2159623100015,r,1.0,0.9835088360014196,,,,,,sub-045,1,stroop_test,60.21361381622669,
,,,,98.0,2.0,8.0,,,,,,,,,,,,,gelb,yellow,g,1.0,r,0.0,0.7045474419992388,,,,,,,,,,8.0,2.0,98.0,10.0,327.2321188170008,,,,,,,,,,,,,,,,,327.21625499900074,327.3153614970015,328.11778718500136,328.0990744380015,,,,,,,,,,,,,,,,,,,,,,,,,,,,,,,,,,,328.10321840300094,328.11778718500136,328.11778718500136,328.8327283610015,r,0.0,0.7045474419992388,,,,,,sub-045,1,stroop_test,60.21361381622669,
,,,,99.0,3.0,8.0,,,,,,,,,,,,,rot,red,r,1.0,r,1.0,0.5306210480011941,,,,,,,,,,8.0,3.0,99.0,1.0,328.849388947001,,,,,,,,,,,,,,,,,328.8330374020006,329.63184281900067,330.4346604370003,330.41572439500123,,,,,,,,,,,,,,,,,,,,,,,,,,,,,,,,,,,330.4199145950006,330.4346604370003,330.4346604370003,330.9666476430011,r,1.0,0.5306210480011941,,,,,,sub-045,1,stroop_test,60.21361381622669,
,,,,100.0,4.0,8.0,,,,,,,,,,,,,gelb,blue,b,0.0,b,1.0,0.5321827750012744,,,,,,,,,,8.0,4.0,100.0,9.0,330.9823817560009,,,,,,,,,,,,,,,,,330.967095688,331.0819943840015,331.88500598800056,331.8658644040006,,,,,,,,,,,,,,,,,,,,,,,,,,,,,,,,,,,331.8705817660011,331.88500598800056,331.88500598800056,332.432630446001,b,1.0,0.5321827750012744,,,,,,sub-045,1,stroop_test,60.21361381622669,
,,,,101.0,5.0,8.0,,,,,,,,,,,,,gelb,red,r,0.0,r,1.0,1.0222711800015531,,,,,,,,,,8.0,5.0,101.0,8.0,332.44939222300127,,,,,,,,,,,,,,,,,332.4331405470002,333.2484313110017,334.048119983001,334.03201090900075,,,,,,,,,,,,,,,,,,,,,,,,,,,,,,,,,,,334.03283513800125,334.048119983001,334.048119983001,335.0826113780004,r,1.0,1.0222711800015531,,,,,,sub-045,1,stroop_test,60.21361381622669,
,,,,102.0,6.0,8.0,,,,,,,,,,,,,gelb,yellow,g,1.0,g,1.0,0.6328625389996887,,,,,,,,,,8.0,6.0,102.0,11.0,335.0989312740003,,,,,,,,,,,,,,,,,335.0831123330008,335.8982208000016,336.6983133450012,336.68152986600035,,,,,,,,,,,,,,,,,,,,,,,,,,,,,,,,,,,336.68221856900163,336.6983133450012,336.6983133450012,337.33279246500024,g,1.0,0.6328625389996887,,,,,,sub-045,1,stroop_test,60.21361381622669,
,,,,103.0,7.0,8.0,,,,,,,,,,,,,rot,red,r,1.0,r,1.0,0.5679338099998859,,,,,,,,,,8.0,7.0,103.0,0.0,337.3479596870002,,,,,,,,,,,,,,,,,337.3332602320006,338.148162159001,338.9492015630003,338.9316335070016,,,,,,,,,,,,,,,,,,,,,,,,,,,,,,,,,,,338.9354864630004,338.9492015630003,338.9492015630003,339.5321534750001,r,1.0,0.5679338099998859,,,,,,sub-045,1,stroop_test,60.21361381622669,
,,,,104.0,8.0,8.0,,,,,,,,,,,,,blau,blue,b,1.0,b,1.0,0.7144610029990872,,,,,,,,,,8.0,8.0,104.0,5.0,339.54819469700124,,,,,,,,,,,,,,,,,339.5325661320003,340.7312510310003,341.53354561800006,341.5152929650012,,,,,,,,,,,,,,,,,,,,,,,,,,,,,,,,,,,341.5198142780009,341.53354561800006,341.53354561800006,342.2492295360007,b,1.0,0.7144610029990872,,,,,,sub-045,1,stroop_test,60.21361381622669,
,,,,105.0,9.0,8.0,,,,,,,,,,,,,rot,blue,b,0.0,b,1.0,0.6659036000000924,,,,,,,,,,8.0,9.0,105.0,2.0,342.26445962600155,,,,,,,,,,,,,,,,,342.2496476310007,342.61444200700134,343.4149793760007,343.39801507800075,,,,,,,,,,,,,,,,,,,,,,,,,,,,,,,,,,,343.40031493600145,343.4149793760007,343.4149793760007,344.0824572800011,b,1.0,0.6659036000000924,,,,,,sub-045,1,stroop_test,60.21361381622669,
,,,,106.0,10.0,8.0,,,,,,,,,,,,,blau,blue,b,1.0,b,1.0,0.3782739519992901,,,,,,,,,,8.0,10.0,106.0,6.0,344.0977535350012,,,,,,,,,,,,,,,,,344.0828257840003,345.29795246200047,346.0998819940014,346.0819084470004,,,,,,,,,,,,,,,,,,,,,,,,,,,,,,,,,,,346.08600368800035,346.0998819940014,346.0998819940014,346.4822347550016,b,1.0,0.3782739519992901,,,,,,sub-045,1,stroop_test,60.21361381622669,
,,,,107.0,11.0,8.0,,,,,,,,,,,,,blau,yellow,g,0.0,g,1.0,0.427572290000171,,,,,,,,,,8.0,11.0,107.0,7.0,346.4978147540005,,,,,,,,,,,,,,,,,346.48255238100137,346.5815254870013,347.38136649100124,347.3648558140012,,,,,,,,,,,,,,,,,,,,,,,,,,,,,,,,,,,347.36553714100046,347.38136649100124,347.38136649100124,347.81524797400016,g,1.0,0.427572290000171,,,,,,sub-045,1,stroop_test,60.21361381622669,
,,,,108.0,0.0,9.0,,,,,,,,,,,,,blau,red,r,0.0,r,1.0,0.5062869129997125,,,,,,,,,,9.0,0.0,108.0,4.0,347.83109741700173,,,,,,,,,,,,,,,,,347.8157006010006,347.9146254160005,348.7146579070013,348.69833716500034,,,,,,,,,,,,,,,,,,,,,,,,,,,,,,,,,,,348.6990420250004,348.7146579070013,348.7146579070013,349.23244955000155,r,1.0,0.5062869129997125,,,,,,sub-045,1,stroop_test,60.21361381622669,
,,,,109.0,1.0,9.0,,,,,,,,,,,,,gelb,yellow,g,1.0,g,1.0,0.6342647470009979,,,,,,,,,,9.0,1.0,109.0,11.0,349.2479463140007,,,,,,,,,,,,,,,,,349.2328812270007,349.3481093200008,350.1495891180002,350.1315129910017,,,,,,,,,,,,,,,,,,,,,,,,,,,,,,,,,,,350.1358003430014,350.1495891180002,350.1495891180002,350.79855614900043,g,1.0,0.6342647470009979,,,,,,sub-045,1,stroop_test,60.21361381622669,
,,,,110.0,2.0,9.0,,,,,,,,,,,,,gelb,yellow,g,1.0,g,1.0,0.6527773039997555,,,,,,,,,,9.0,2.0,110.0,10.0,350.8143217680008,,,,,,,,,,,,,,,,,350.798858346001,350.89793141800146,351.69796986500114,351.68135027600147,,,,,,,,,,,,,,,,,,,,,,,,,,,,,,,,,,,351.68203650800024,351.69796986500114,351.69796986500114,352.3646939900009,g,1.0,0.6527773039997555,,,,,,sub-045,1,stroop_test,60.21361381622669,
,,,,111.0,3.0,9.0,,,,,,,,,,,,,rot,blue,b,0.0,b,1.0,1.1725749320012255,,,,,,,,,,9.0,3.0,111.0,2.0,352.3810382470001,,,,,,,,,,,,,,,,,352.36499711300166,352.7147623870005,353.5174163520005,353.4982764810011,,,,,,,,,,,,,,,,,,,,,,,,,,,,,,,,,,,353.5030391630007,353.5174163520005,353.5174163520005,354.6983511140006,b,1.0,1.1725749320012255,,,,,,sub-045,1,stroop_test,60.21361381622669,
,,,,112.0,4.0,9.0,,,,,,,,,,,,,blau,yellow,g,0.0,g,1.0,0.655909952998627,,,,,,,,,,9.0,4.0,112.0,7.0,354.71353846500097,,,,,,,,,,,,,,,,,354.69883758000105,355.0473475570016,355.8505540390015,355.8313365630001,,,,,,,,,,,,,,,,,,,,,,,,,,,,,,,,,,,355.8364095410016,355.8505540390015,355.8505540390015,356.5150958390004,g,1.0,0.655909952998627,,,,,,sub-045,1,stroop_test,60.21361381622669,
,,,,113.0,5.0,9.0,,,,,,,,,,,,,rot,red,r,1.0,r,1.0,0.6006097580011556,,,,,,,,,,9.0,5.0,113.0,0.0,356.5307572690017,,,,,,,,,,,,,,,,,356.51539688900084,356.8646033470013,357.66633400200044,357.64815064600043,,,,,,,,,,,,,,,,,,,,,,,,,,,,,,,,,,,357.6524308880016,357.66633400200044,357.66633400200044,358.2818703890007,r,1.0,0.6006097580011556,,,,,,sub-045,1,stroop_test,60.21361381622669,
,,,,114.0,6.0,9.0,,,,,,,,,,,,,rot,yellow,g,0.0,g,1.0,0.9799091599998064,,,,,,,,,,9.0,6.0,114.0,3.0,358.2979754500011,,,,,,,,,,,,,,,,,358.28216440100005,359.0977200000016,359.8986094360007,359.88198105800075,,,,,,,,,,,,,,,,,,,,,,,,,,,,,,,,,,,359.88265589100047,359.8986094360007,359.8986094360007,360.88250615000106,g,1.0,0.9799091599998064,,,,,,sub-045,1,stroop_test,60.21361381622669,
,,,,115.0,7.0,9.0,,,,,,,,,,,,,blau,blue,b,1.0,b,1.0,0.6801695140002266,,,,,,,,,,9.0,7.0,115.0,6.0,360.8989188190008,,,,,,,,,,,,,,,,,360.8828366030011,360.9981008880004,361.8012289800008,361.7823365070017,,,,,,,,,,,,,,,,,,,,,,,,,,,,,,,,,,,361.7866536970014,361.8012289800008,361.8012289800008,362.4983799030015,b,1.0,0.6801695140002266,,,,,,sub-045,1,stroop_test,60.21361381622669,
,,,,116.0,8.0,9.0,,,,,,,,,,,,,rot,red,r,1.0,r,1.0,0.8314747139993415,,,,,,,,,,9.0,8.0,116.0,1.0,362.51431131000027,,,,,,,,,,,,,,,,,362.498732213,363.2978432020009,364.09913541900096,364.0812230350002,,,,,,,,,,,,,,,,,,,,,,,,,,,,,,,,,,,364.0850864800013,364.09913541900096,364.09913541900096,364.9319583200013,r,1.0,0.8314747139993415,,,,,,sub-045,1,stroop_test,60.21361381622669,
,,,,117.0,9.0,9.0,,,,,,,,,,,,,gelb,red,r,0.0,r,1.0,1.2449938649988326,,,,,,,,,,9.0,9.0,117.0,8.0,364.94719629500105,,,,,,,,,,,,,,,,,364.9324021480006,366.13096628400126,366.93253215,366.9147019660013,,,,,,,,,,,,,,,,,,,,,,,,,,,,,,,,,,,366.9189003670017,366.93253215,366.93253215,368.18167860000176,r,1.0,1.2449938649988326,,,,,,sub-045,1,stroop_test,60.21361381622669,
,,,,118.0,10.0,9.0,,,,,,,,,,,,,blau,blue,b,1.0,b,1.0,0.5073967520002043,,,,,,,,,,9.0,10.0,118.0,5.0,368.1975485500007,,,,,,,,,,,,,,,,,368.1819751080002,369.3812391820011,370.1805067110017,370.1639734930013,,,,,,,,,,,,,,,,,,,,,,,,,,,,,,,,,,,370.1663331520013,370.1805067110017,370.1805067110017,370.69855535400166,b,1.0,0.5073967520002043,,,,,,sub-045,1,stroop_test,60.21361381622669,
,,,,119.0,11.0,9.0,,,,,,,,,,,,,gelb,blue,b,0.0,b,1.0,0.8489266680007859,,,,,,,,,,9.0,11.0,119.0,9.0,370.7142474170014,,,,,,,,,,,,,,,,,370.6988491870016,371.4979259810007,372.3002367150002,372.28120949,,,,,,,,,,,,,,,,,,,,,,,,,,,,,,,,,,,372.28629373200056,372.3002367150002,372.3002367150002,373.1655482820006,b,1.0,0.8489266680007859,,,,,,sub-045,1,stroop_test,60.21361381622669,
,,,,,,,,,,,,,,,,,,,,,,,,,,,,,,,,,,,,,,,,,,,,,,,,,,,,,,,,,,,,,,,,,,,,,,,,,,,,,,,,,,,,,,,,,,,,,,,,,,,,,,373.1658217330005,373.18202482500055,378.1808875920015,378.1647987370016,sub-045,1,stroop_test,60.21361381622669,
