direction,corrAns,thisN,thisTrialN,thisRepN,respDots.keys,respDots.corr,respDots.rt,respDots.duration,randomInstr,respRandomInstr.keys,respRandomInstr.rt,respRandomInstr.duration,practice_trials.thisRepN,practice_trials.thisTrialN,practice_trials.thisN,practice_trials.thisIndex,instr_trials.thisRepN,instr_trials.thisTrialN,instr_trials.thisN,instr_trials.thisIndex,test_trials.thisRepN,test_trials.thisTrialN,test_trials.thisN,test_trials.thisIndex,thisRow.t,notes,general_instruction.started,textGeneralInstr.started,respGeneralInstr.started,general_instruction.stopped,respGeneralInstr.keys,respGeneralInstr.rt,respGeneralInstr.duration,ITI.started,fixcross.started,fixcross.stopped,ITI.stopped,dots.started,backgroundDots.started,stimulusDots.started,respDots.started,dots.stopped,practice_trials.respDots.keys,practice_trials.respDots.corr,practice_trials.respDots.rt,practice_trials.respDots.duration,feedback.started,textFeedback.started,feedback.stopped,textFeedback.stopped,info.started,textInfo.started,keyRespInfo.started,info.stopped,keyRespInfo.keys,keyRespInfo.rt,keyRespInfo.duration,test_instruction.started,textTestInstr.started,respTestInstr.started,test_instruction.stopped,respTestInstr.keys,respTestInstr.rt,respTestInstr.duration,random_instruction.started,textRandomInstr.started,respRandomInstr.started,random_instruction.stopped,instr_trials.respRandomInstr.keys,instr_trials.respRandomInstr.rt,instr_trials.respRandomInstr.duration,test_trials.respDots.keys,test_trials.respDots.corr,test_trials.respDots.rt,test_trials.respDots.duration,goodbye.started,textGoodbye.started,textGoodbye.stopped,goodbye.stopped,participant,session,expName,frameRate,Unnamed: 87
,,,,,,,,,,,,,,,,,,,,,,,,,,,0.0180318350000447,0.0491488130000448,0.0491488130000448,21.677390817999992,space,21.596165654999997,,,,,,,,,,,,,,,,,,,,,,,,,,,,,,,,,,,,,,,,,,,,,,,,sub-125,1,random_dot,70.13385094546211,
right,right,0.0,0.0,0.0,left,0.0,0.9839240290000362,,,,,,0.0,0.0,0.0,1.0,,,,,,,,,21.725756915000037,,,,,,,,,21.711577265000017,21.775245393000034,22.58411303100001,22.56092570000004,22.561328223000032,22.58411303100001,22.58411303100001,22.58411303100001,23.578764363000005,left,0.0,0.9839240290000362,,23.586499272000022,23.59908567400004,24.086055601,,,,,,,,,,,,,,,,,,,,,,,,,,,,,,,sub-125,1,random_dot,70.13385094546211,
left,left,1.0,1.0,0.0,right,0.0,1.276814704000003,,,,,,0.0,1.0,1.0,0.0,,,,,,,,,24.092506431999997,,,,,,,,,24.086355791000017,25.277547803000004,26.08497927000002,26.06255302200003,26.06292812800001,26.08497927000002,26.08497927000002,26.08497927000002,27.371859795000034,right,0.0,1.276814704000003,,27.371998092000013,27.38073428900003,27.86964788800003,27.875864175000004,,,,,,,,,,,,,,,,,,,,,,,,,,,,,,sub-125,1,random_dot,70.13385094546211,
left,left,2.0,0.0,1.0,right,0.0,1.3458025039999484,,,,,,1.0,0.0,2.0,0.0,,,,,,,,,27.875864175000004,,,,,,,,,27.869909355999997,28.668730256000003,29.46089164200004,29.452741892999995,29.453039630000035,29.46089164200004,29.46089164200004,29.46089164200004,30.813130168000043,right,0.0,1.3458025039999484,,30.81323261700004,30.82489763000001,31.31133367000001,31.31934247300001,,,,,,,,,,,,,,,,,,,,,,,,,,,,,,sub-125,1,random_dot,70.13385094546211,
right,right,3.0,1.0,1.0,right,1.0,3.1264330420000306,,,,,,1.0,1.0,3.0,1.0,,,,,,,,,31.31934247300001,,,,,,,,,31.311598609000043,32.50775669500001,33.30216738600001,33.29240000500005,33.29269979900005,33.30216738600001,33.30216738600001,33.30216738600001,36.437170826000056,right,1.0,3.1264330420000306,,36.44259863100001,36.45026476700002,36.93582279200007,36.94128445199999,,,,,,,,,,,,,,,,,,,,,,,,,,,,,,sub-125,1,random_dot,70.13385094546211,
left,left,4.0,0.0,2.0,right,0.0,3.526925062000032,,,,,,2.0,0.0,4.0,0.0,,,,,,,,,36.94128445199999,,,,,,,,,36.93606925899997,37.035334401,37.82625742100004,37.81927296499998,37.819567010000014,37.82625742100004,37.82625742100004,37.82625742100004,41.35644266700001,right,0.0,3.526925062000032,,41.35889331999999,41.36757796000006,41.85265924600003,41.858179774000064,,,,,,,,,,,,,,,,,,,,,,,,,,,,,,sub-125,1,random_dot,70.13385094546211,
right,right,5.0,1.0,2.0,left,0.0,0.7807350150000048,,,,,,2.0,1.0,5.0,1.0,,,,,,,,,41.858179774000064,,,,,,,,,41.852904181999975,42.65214893699999,43.44295501900001,43.435776556000064,43.43608273899997,43.44295501900001,43.44295501900001,43.44295501900001,44.228801256,left,0.0,0.7807350150000048,,44.22889487200007,44.23636174000001,44.725295287,44.73514477499998,,,,,,,,,,,,,,,,,,,,,,,,,,,,,,sub-125,1,random_dot,70.13385094546211,
right,right,6.0,0.0,3.0,right,1.0,3.2913849369999757,,,,,,3.0,0.0,6.0,1.0,,,,,,,,,44.73514477499998,,,,,,,,,44.725556901,44.824285574999976,45.61868073400001,45.60887710500003,45.609176875,45.61868073400001,45.61868073400001,45.61868073400001,48.92118730699997,right,1.0,3.2913849369999757,,48.92350568000006,48.93002355300007,49.41907142000002,49.42455587899997,,,,,,,,,,,,,,,,,,,,,,,,,,,,,,sub-125,1,random_dot,70.13385094546211,
left,left,7.0,1.0,3.0,right,0.0,1.4366354559999763,,,,,,3.0,1.0,7.0,0.0,,,,,,,,,49.42455587899997,,,,,,,,,49.41931360700005,50.218589001000055,51.00945221000006,51.002483426000026,51.00281028200004,51.00945221000006,51.00945221000006,51.00945221000006,52.45548972400002,right,0.0,1.4366354559999763,,52.457904536,52.46704666000005,52.95241352200003,52.95817049300001,,,,,,,,,,,,,,,,,,,,,,,,,,,,,,sub-125,1,random_dot,70.13385094546211,
right,right,8.0,0.0,4.0,right,1.0,1.5817396999999571,,,,,,4.0,0.0,8.0,1.0,,,,,,,,,52.95817049300001,,,,,,,,,52.95267509799999,53.75188232000005,54.54257628900007,54.53564634500003,54.535934129,54.54257628900007,54.54257628900007,54.54257628900007,56.128906063000045,right,1.0,1.5817396999999571,,56.131173208000064,56.13999203700007,56.62492712300002,56.635014356000056,,,,,,,,,,,,,,,,,,,,,,,,,,,,,,sub-125,1,random_dot,70.13385094546211,
left,left,9.0,1.0,4.0,right,0.0,1.5669427670000005,,,,,,4.0,1.0,9.0,0.0,,,,,,,,,56.635014356000056,,,,,,,,,56.62518911899997,57.424494459000016,58.21840050700007,58.20838921500001,58.208688758,58.21840050700007,58.21840050700007,58.21840050700007,59.78714788800005,right,0.0,1.5669427670000005,,59.78966360300001,59.797228518,60.28566776900004,60.29113066700006,,,,,,,,,,,,,,,,,,,,,,,,,,,,,,sub-125,1,random_dot,70.13385094546211,
left,left,10.0,0.0,5.0,left,1.0,1.4645686439999963,,,,,,5.0,0.0,10.0,0.0,,,,,,,,,60.29113066700006,,,,,,,,,60.285917745000006,60.635002265000026,61.426057249,61.41892615500001,61.41922101500006,61.426057249,61.426057249,61.426057249,62.89485000100001,left,1.0,1.4645686439999963,,62.89713748899999,62.906192035,63.39196735200005,63.401689379,,,,,,,,,,,,,,,,,,,,,,,,,,,,,,sub-125,1,random_dot,70.13385094546211,
right,right,11.0,1.0,5.0,right,1.0,4.259215960000006,,,,,,5.0,1.0,11.0,1.0,,,,,,,,,63.401689379,,,,,,,,,63.392234708000046,63.74091345700003,64.53488665500004,64.52482533,64.52512366799999,64.53488665500004,64.53488665500004,64.53488665500004,68.80358745000001,right,1.0,4.259215960000006,,68.80367902900002,68.81071673600002,69.30214588700005,69.30760057099997,,,,,,,,,,,,,,,,,,,,,,,,,,,,,,sub-125,1,random_dot,70.13385094546211,
right,right,12.0,0.0,6.0,right,1.0,0.4620082290000482,,,,,,6.0,0.0,12.0,1.0,,,,,,,,,69.30760057099997,,,,,,,,,69.30239592400005,70.50148157399997,71.29260004600008,71.28559932500002,71.285897632,71.29260004600008,71.29260004600008,71.29260004600008,71.76276052399999,right,1.0,0.4620082290000482,,71.76285732500003,71.77188859099999,72.25886030200002,72.26839823,,,,,,,,,,,,,,,,,,,,,,,,,,,,,,sub-125,1,random_dot,70.13385094546211,
left,left,13.0,1.0,6.0,left,1.0,1.2893429660000493,,,,,,6.0,1.0,13.0,0.0,,,,,,,,,72.26839823,,,,,,,,,72.25920984900006,72.60851743800004,73.40246795000007,73.393068718,73.39362274000007,73.40246795000007,73.40246795000007,73.40246795000007,74.70361844399997,left,1.0,1.2893429660000493,,74.70374834200004,74.71162115000004,75.202772729,75.20924521500001,,,,,,,,,,,,,,,,,,,,,,,,,,,,,,sub-125,1,random_dot,70.13385094546211,
left,left,14.0,0.0,7.0,right,0.0,1.6932177590000492,,,,,,7.0,0.0,14.0,0.0,,,,,,,,,75.20924521500001,,,,,,,,,75.20323238200001,76.00174934899997,76.794787219,76.78613425900005,76.78667470300002,76.794787219,76.794787219,76.794787219,78.50007907200006,right,0.0,1.6932177590000492,,78.50415148900004,78.51369307699997,79.00200186500001,,,,,,,,,,,,,,,,,,,,,,,,,,,,,,,sub-125,1,random_dot,70.13385094546211,
right,right,15.0,1.0,7.0,right,1.0,1.3270502149999857,,,,,,7.0,1.0,15.0,1.0,,,,,,,,,79.00873865599999,,,,,,,,,79.00248057600004,79.34204533600007,80.135968596,80.12644956200006,80.12700201000007,80.135968596,80.135968596,80.135968596,81.47540708300005,right,1.0,1.3270502149999857,,81.47855106999998,81.50096364900003,81.98516855000003,,,,,,,,,,,,,,,,,,,,,,,,,,,,,,,sub-125,1,random_dot,70.13385094546211,
left,left,16.0,0.0,8.0,right,0.0,1.2706894250000005,,,,,,8.0,0.0,16.0,0.0,,,,,,,,,81.99172768200003,,,,,,,,,81.98564011300004,82.77446426400002,83.56893504699997,83.55939995200004,83.55995740000003,83.56893504699997,83.56893504699997,83.56893504699997,84.85389136100002,right,0.0,1.2706894250000005,,84.85677237200002,84.86431732400001,85.35245420000001,85.35873568800002,,,,,,,,,,,,,,,,,,,,,,,,,,,,,,sub-125,1,random_dot,70.13385094546211,
right,right,17.0,1.0,8.0,right,1.0,3.452953383000022,,,,,,8.0,1.0,17.0,1.0,,,,,,,,,85.35873568800002,,,,,,,,,85.352809084,86.55156083700001,87.34250761999999,87.33527679100007,87.335586423,87.34250761999999,87.34250761999999,87.34250761999999,90.80445082300002,right,1.0,3.452953383000022,,90.806947465,90.81553138900006,91.30207441100004,91.30842782900004,,,,,,,,,,,,,,,,,,,,,,,,,,,,,,sub-125,1,random_dot,70.13385094546211,
right,right,18.0,0.0,9.0,right,1.0,1.5279313750000938,,,,,,9.0,0.0,18.0,1.0,,,,,,,,,91.30842782900004,,,,,,,,,91.302334579,92.10154886700002,92.89500455000008,92.88599520499996,92.88655950200008,92.89500455000008,92.89500455000008,92.89500455000008,94.42938996200007,right,1.0,1.5279313750000938,,94.42951341000004,94.43958906400007,94.92623440900002,94.93486373300004,,,,,,,,,,,,,,,,,,,,,,,,,,,,,,sub-125,1,random_dot,70.13385094546211,
left,left,19.0,1.0,9.0,left,1.0,1.420412811999995,,,,,,9.0,1.0,19.0,0.0,,,,,,,,,94.93486373300004,,,,,,,,,94.92670456400003,95.27528166399998,96.06916098600004,96.05963081699996,96.05999393600008,96.06916098600004,96.06916098600004,96.06916098600004,97.50302229,left,1.0,1.420412811999995,,97.503148733,97.51807169000006,98.00233971400009,98.01160836500004,,,,,,,,,,,,,,,,,,,,,,,,,,,,,,sub-125,1,random_dot,70.13385094546211,
,,,,,,,,,,,,,,,,,,,,,,,,,,,,,,,,,,,,,,,,,,,,,,,,,,,98.00248470100009,98.01160836500004,98.01160836500004,103.55632038,space,5.541295665999996,,,,,,,,,,,,,,,,,,,,,,,,sub-125,1,random_dot,70.13385094546211,
,,,,,,,,,,,,,,,,,,,,,,,,,,,,,,,,,,,,,,,,,,,,,,,,,,,,,,,,,,103.55648341200003,103.56812690200002,103.56812690200002,111.35459922899996,space,7.782811345000027,,,,,,,,,,,,,,,,,sub-125,1,random_dot,70.13385094546211,
left,left,0.0,0.0,0.0,left,1.0,2.088965147000067,,accuracy,space,3.4316270410000698,,,,,,0.0,0.0,0.0,0.0,0.0,0.0,0.0,0.0,114.84333894999996,,,,,,,,,114.83464399700006,114.92472108900006,115.71812596300003,115.70875986800002,115.70918562100007,115.71812596300003,115.71812596300003,115.71812596300003,117.820370141,,,,,,,,,,,,,,,,,,,,,,,111.37990150400005,111.38910897100004,111.38910897100004,114.82759386099995,space,3.4316270410000698,,left,1.0,2.088965147000067,,,,,,sub-125,1,random_dot,70.13385094546211,
right,right,1.0,1.0,0.0,right,1.0,2.09906768999997,,accuracy,space,3.4316270410000698,,,,,,0.0,0.0,0.0,0.0,0.0,1.0,1.0,1.0,117.82803654999998,,,,,,,,,117.82075172400005,118.61809761799998,119.41122511499998,119.40221269200003,119.402745794,119.41122511499998,119.41122511499998,119.41122511499998,121.51323590699997,,,,,,,,,,,,,,,,,,,,,,,,,,,,,,right,1.0,2.09906768999997,,,,,,sub-125,1,random_dot,70.13385094546211,
left,left,2.0,0.0,1.0,right,0.0,1.9675374700000248,,accuracy,space,3.4316270410000698,,,,,,0.0,0.0,0.0,0.0,1.0,0.0,2.0,0.0,121.52340964899996,,,,,,,,,121.51391884600002,122.708239768,123.509635827,123.50178871000004,123.50218893700004,123.509635827,123.509635827,123.509635827,125.48202381500003,,,,,,,,,,,,,,,,,,,,,,,,,,,,,,right,0.0,1.9675374700000248,,,,,,sub-125,1,random_dot,70.13385094546211,
right,right,3.0,1.0,1.0,left,0.0,3.382929636999961,,accuracy,space,3.4316270410000698,,,,,,0.0,0.0,0.0,0.0,1.0,1.0,3.0,1.0,125.49203877000002,,,,,,,,,125.482662721,125.57433503200002,126.36876592199997,126.35930224700007,126.35986307500002,126.36876592199997,126.36876592199997,126.36876592199997,129.755122584,,,,,,,,,,,,,,,,,,,,,,,,,,,,,,left,0.0,3.382929636999961,,,,,,sub-125,1,random_dot,70.13385094546211,
right,right,4.0,0.0,2.0,right,1.0,2.024259723999989,,accuracy,space,3.4316270410000698,,,,,,0.0,0.0,0.0,0.0,2.0,0.0,4.0,1.0,129.76384714000005,,,,,,,,,129.755623258,130.10123605500007,130.89213561100007,130.884821623,130.88510812000004,130.89213561100007,130.89213561100007,130.89213561100007,132.92031266100005,,,,,,,,,,,,,,,,,,,,,,,,,,,,,,right,1.0,2.024259723999989,,,,,,sub-125,1,random_dot,70.13385094546211,
left,left,5.0,1.0,2.0,right,0.0,3.190006043999915,,accuracy,space,3.4316270410000698,,,,,,0.0,0.0,0.0,0.0,2.0,1.0,5.0,0.0,132.92878808700004,,,,,,,,,132.92070423899995,133.26759389100005,134.05991175400004,134.05189792500005,134.05230058300003,134.05991175400004,134.05991175400004,134.05991175400004,137.25827918599998,,,,,,,,,,,,,,,,,,,,,,,,,,,,,,right,0.0,3.190006043999915,,,,,,sub-125,1,random_dot,70.13385094546211,
right,right,6.0,0.0,3.0,right,1.0,0.6861480990000928,,accuracy,space,3.4316270410000698,,,,,,0.0,0.0,0.0,0.0,3.0,0.0,6.0,1.0,137.26782866899998,,,,,,,,,137.25865674700003,137.607888797,138.40110718799997,138.391584535,138.392000811,138.40110718799997,138.40110718799997,138.40110718799997,139.09251856800006,,,,,,,,,,,,,,,,,,,,,,,,,,,,,,right,1.0,0.6861480990000928,,,,,,sub-125,1,random_dot,70.13385094546211,
left,left,7.0,1.0,3.0,left,1.0,1.7571629530000337,,accuracy,space,3.4316270410000698,,,,,,0.0,0.0,0.0,0.0,3.0,1.0,7.0,0.0,139.10171908100006,,,,,,,,,139.09314311100002,139.89124350400004,140.685252097,140.67580705400007,140.67636373000005,140.685252097,140.685252097,140.685252097,142.45389532900003,,,,,,,,,,,,,,,,,,,,,,,,,,,,,,left,1.0,1.7571629530000337,,,,,,sub-125,1,random_dot,70.13385094546211,
left,left,8.0,0.0,4.0,left,1.0,1.4779064550000385,,accuracy,space,3.4316270410000698,,,,,,0.0,0.0,0.0,0.0,4.0,0.0,8.0,0.0,142.46202953600005,,,,,,,,,142.45435738700007,143.65092196299997,144.44440928300003,144.43515135000007,144.43569030700007,144.44440928300003,144.44440928300003,144.44440928300003,145.93637660600007,,,,,,,,,,,,,,,,,,,,,,,,,,,,,,left,1.0,1.4779064550000385,,,,,,sub-125,1,random_dot,70.13385094546211,
right,right,9.0,1.0,4.0,right,1.0,1.38421852700003,,accuracy,space,3.4316270410000698,,,,,,0.0,0.0,0.0,0.0,4.0,1.0,9.0,1.0,145.951195526,,,,,,,,,145.936826086,146.73429495200003,147.52644104,147.51836995600002,147.51878845800002,147.52644104,147.52644104,147.52644104,148.92090561400005,,,,,,,,,,,,,,,,,,,,,,,,,,,,,,right,1.0,1.38421852700003,,,,,,sub-125,1,random_dot,70.13385094546211,
right,right,10.0,0.0,5.0,left,0.0,2.5144061380000267,,accuracy,space,3.4316270410000698,,,,,,0.0,0.0,0.0,0.0,5.0,0.0,10.0,1.0,148.92909528500002,,,,,,,,,148.92130464700006,150.11748616900002,150.90927115099998,150.90149298900008,150.90189484899997,150.90927115099998,150.90927115099998,150.90927115099998,153.42780643000003,,,,,,,,,,,,,,,,,,,,,,,,,,,,,,left,0.0,2.5144061380000267,,,,,,sub-125,1,random_dot,70.13385094546211,
left,left,11.0,1.0,5.0,left,1.0,1.935767962,,accuracy,space,3.4316270410000698,,,,,,0.0,0.0,0.0,0.0,5.0,1.0,11.0,0.0,153.44985362199998,,,,,,,,,153.42815243799998,154.62371147800002,155.417446196,155.40811050000002,155.40847772899997,155.417446196,155.417446196,155.417446196,157.363874313,,,,,,,,,,,,,,,,,,,,,,,,,,,,,,left,1.0,1.935767962,,,,,,sub-125,1,random_dot,70.13385094546211,
left,left,12.0,0.0,6.0,right,0.0,1.5324776290000273,,accuracy,space,3.4316270410000698,,,,,,0.0,0.0,0.0,0.0,6.0,0.0,12.0,0.0,157.37245067599997,,,,,,,,,157.36433516199995,158.55764705399997,159.35139477200005,159.34220841,159.34277543000007,159.35139477200005,159.35139477200005,159.35139477200005,160.886522979,,,,,,,,,,,,,,,,,,,,,,,,,,,,,,right,0.0,1.5324776290000273,,,,,,sub-125,1,random_dot,70.13385094546211,
right,right,13.0,1.0,6.0,right,1.0,1.3909658080000329,,accuracy,space,3.4316270410000698,,,,,,0.0,0.0,0.0,0.0,6.0,1.0,13.0,1.0,160.89515608300007,,,,,,,,,160.88711314199998,160.98388925300003,161.77575100900003,161.76792129600005,161.76833275299998,161.77575100900003,161.77575100900003,161.77575100900003,163.17039823000005,,,,,,,,,,,,,,,,,,,,,,,,,,,,,,right,1.0,1.3909658080000329,,,,,,sub-125,1,random_dot,70.13385094546211,
left,left,14.0,0.0,7.0,left,1.0,1.6770107019999614,,accuracy,space,3.4316270410000698,,,,,,0.0,0.0,0.0,0.0,7.0,0.0,14.0,0.0,163.178901645,,,,,,,,,163.17080183300004,164.367258923,165.16040154000007,165.151627308,165.15217541200002,165.16040154000007,165.16040154000007,165.16040154000007,166.846907955,,,,,,,,,,,,,,,,,,,,,,,,,,,,,,left,1.0,1.6770107019999614,,,,,,sub-125,1,random_dot,70.13385094546211,
right,right,15.0,1.0,7.0,right,1.0,1.5269632250000311,,accuracy,space,3.4316270410000698,,,,,,0.0,0.0,0.0,0.0,7.0,1.0,15.0,1.0,166.85527422200005,,,,,,,,,166.847309719,167.19064721300003,167.98384222599998,167.97426019700004,167.97467936300006,167.98384222599998,167.98384222599998,167.98384222599998,169.51962363200005,,,,,,,,,,,,,,,,,,,,,,,,,,,,,,right,1.0,1.5269632250000311,,,,,,sub-125,1,random_dot,70.13385094546211,
right,right,16.0,0.0,8.0,right,1.0,1.3135334130000729,,accuracy,space,3.4316270410000698,,,,,,0.0,0.0,0.0,0.0,8.0,0.0,16.0,1.0,169.527469321,,,,,,,,,169.52006963500003,169.86723301300003,170.66051432000006,170.65157733299998,170.65211374600003,170.66051432000006,170.66051432000006,170.66051432000006,171.985277162,,,,,,,,,,,,,,,,,,,,,,,,,,,,,,right,1.0,1.3135334130000729,,,,,,sub-125,1,random_dot,70.13385094546211,
left,left,17.0,1.0,8.0,right,0.0,2.2454074310001038,,accuracy,space,3.4316270410000698,,,,,,0.0,0.0,0.0,0.0,8.0,1.0,17.0,0.0,172.00032073500006,,,,,,,,,171.98572836900007,172.33387460300003,173.12680310000007,173.11808627699995,173.11863096800005,173.12680310000007,173.12680310000007,173.12680310000007,175.37495495500002,,,,,,,,,,,,,,,,,,,,,,,,,,,,,,right,0.0,2.2454074310001038,,,,,,sub-125,1,random_dot,70.13385094546211,
right,right,18.0,0.0,9.0,left,0.0,1.786701061000031,,accuracy,space,3.4316270410000698,,,,,,0.0,0.0,0.0,0.0,9.0,0.0,18.0,1.0,175.38418355500005,,,,,,,,,175.37557728499996,176.56713828199997,177.35813062299997,177.35071930200002,177.35103085000003,177.35813062299997,177.35813062299997,177.35813062299997,179.15213549300006,,,,,,,,,,,,,,,,,,,,,,,,,,,,,,left,0.0,1.786701061000031,,,,,,sub-125,1,random_dot,70.13385094546211,
left,left,19.0,1.0,9.0,right,0.0,1.2029314479999584,,accuracy,space,3.4316270410000698,,,,,,0.0,0.0,0.0,0.0,9.0,1.0,19.0,0.0,179.15925612500007,,,,,,,,,179.15251444400008,179.50033935199997,180.293499806,180.2846519670001,180.28519208600005,180.293499806,180.293499806,180.293499806,181.51953570800003,,,,,,,,,,,,,,,,,,,,,,,,,,,,,,right,0.0,1.2029314479999584,,,,,,sub-125,1,random_dot,70.13385094546211,
right,right,20.0,0.0,10.0,right,1.0,2.1513029039999765,,accuracy,space,3.4316270410000698,,,,,,0.0,0.0,0.0,0.0,10.0,0.0,20.0,1.0,181.533787643,,,,,,,,,181.52012693100005,182.31708858900004,183.10943505,183.101267724,183.101669658,183.10943505,183.10943505,183.10943505,185.26471822300005,,,,,,,,,,,,,,,,,,,,,,,,,,,,,,right,1.0,2.1513029039999765,,,,,,sub-125,1,random_dot,70.13385094546211,
left,left,21.0,1.0,10.0,right,0.0,1.746170602999996,,accuracy,space,3.4316270410000698,,,,,,0.0,0.0,0.0,0.0,10.0,1.0,21.0,0.0,185.27506527900005,,,,,,,,,185.265238532,185.35727571300004,186.150370233,186.141088226,186.141500278,186.150370233,186.150370233,186.150370233,187.903193546,,,,,,,,,,,,,,,,,,,,,,,,,,,,,,right,0.0,1.746170602999996,,,,,,sub-125,1,random_dot,70.13385094546211,
left,left,22.0,0.0,11.0,left,1.0,1.186126004000016,,accuracy,space,3.4316270410000698,,,,,,0.0,0.0,0.0,0.0,11.0,0.0,22.0,0.0,187.9109590200001,,,,,,,,,187.90358579500003,189.100280603,189.893584218,189.884715689,189.885256014,189.893584218,189.893584218,189.893584218,191.086341231,,,,,,,,,,,,,,,,,,,,,,,,,,,,,,left,1.0,1.186126004000016,,,,,,sub-125,1,random_dot,70.13385094546211,
right,right,23.0,1.0,11.0,left,0.0,3.072929481000074,,accuracy,space,3.4316270410000698,,,,,,0.0,0.0,0.0,0.0,11.0,1.0,23.0,1.0,191.09573352300004,,,,,,,,,191.08672854,191.883552764,192.67710676900003,192.66808624500004,192.668627012,192.67710676900003,192.67710676900003,192.67710676900003,195.754335214,,,,,,,,,,,,,,,,,,,,,,,,,,,,,,left,0.0,3.072929481000074,,,,,,sub-125,1,random_dot,70.13385094546211,
right,right,24.0,0.0,12.0,right,1.0,1.5795332310000276,,accuracy,space,3.4316270410000698,,,,,,0.0,0.0,0.0,0.0,12.0,0.0,24.0,1.0,195.76372375900007,,,,,,,,,195.75483312200004,196.100253574,196.893445983,196.884514049,196.885062522,196.893445983,196.893445983,196.893445983,198.479939059,,,,,,,,,,,,,,,,,,,,,,,,,,,,,,right,1.0,1.5795332310000276,,,,,,sub-125,1,random_dot,70.13385094546211,
left,left,25.0,1.0,12.0,left,1.0,0.9045459620000428,,accuracy,space,3.4316270410000698,,,,,,0.0,0.0,0.0,0.0,12.0,1.0,25.0,0.0,198.489069662,,,,,,,,,198.480382898,198.824000769,199.61770777100003,199.608157013,199.60870597000007,199.61770777100003,199.61770777100003,199.61770777100003,200.53573421700003,,,,,,,,,,,,,,,,,,,,,,,,,,,,,,left,1.0,0.9045459620000428,,,,,,sub-125,1,random_dot,70.13385094546211,
left,left,26.0,0.0,13.0,right,0.0,2.490769097999987,,accuracy,space,3.4316270410000698,,,,,,0.0,0.0,0.0,0.0,13.0,0.0,26.0,0.0,200.542582843,,,,,,,,,200.536176794,201.7335021490001,202.52558988600003,202.517626489,202.518032245,202.52558988600003,202.52558988600003,202.52558988600003,205.019707405,,,,,,,,,,,,,,,,,,,,,,,,,,,,,,right,0.0,2.490769097999987,,,,,,sub-125,1,random_dot,70.13385094546211,
right,right,27.0,1.0,13.0,left,0.0,0.9008145179999474,,accuracy,space,3.4316270410000698,,,,,,0.0,0.0,0.0,0.0,13.0,1.0,27.0,1.0,205.028146637,,,,,,,,,205.02027510100004,206.21665487400003,207.009846937,207.000986547,207.001519812,207.009846937,207.009846937,207.009846937,207.91848085900008,,,,,,,,,,,,,,,,,,,,,,,,,,,,,,left,0.0,0.9008145179999474,,,,,,sub-125,1,random_dot,70.13385094546211,
right,right,28.0,0.0,14.0,right,1.0,1.102146394999977,,accuracy,space,3.4316270410000698,,,,,,0.0,0.0,0.0,0.0,14.0,0.0,28.0,1.0,207.933283623,,,,,,,,,207.91892121500007,208.016717856,208.81014479,208.80119246800007,208.801726549,208.81014479,208.81014479,208.81014479,209.919712636,,,,,,,,,,,,,,,,,,,,,,,,,,,,,,right,1.0,1.102146394999977,,,,,,sub-125,1,random_dot,70.13385094546211,
left,left,29.0,1.0,14.0,left,1.0,1.1739150330000712,,accuracy,space,3.4316270410000698,,,,,,0.0,0.0,0.0,0.0,14.0,1.0,29.0,0.0,209.92805632600005,,,,,,,,,209.920154722,211.116800795,211.908593378,211.900742154,211.90114803100005,211.908593378,211.908593378,211.908593378,213.089864851,,,,,,,,,,,,,,,,,,,,,,,,,,,,,,left,1.0,1.1739150330000712,,,,,,sub-125,1,random_dot,70.13385094546211,
left,left,30.0,0.0,15.0,right,0.0,1.6275443719999885,,accuracy,space,3.4316270410000698,,,,,,0.0,0.0,0.0,0.0,15.0,0.0,30.0,0.0,213.09972869,,,,,,,,,213.090326031,214.283307196,215.07508666,215.067224595,215.067611187,215.07508666,215.07508666,215.07508666,216.713028708,,,,,,,,,,,,,,,,,,,,,,,,,,,,,,right,0.0,1.6275443719999885,,,,,,sub-125,1,random_dot,70.13385094546211,
right,right,31.0,1.0,15.0,right,1.0,1.276392271000077,,accuracy,space,3.4316270410000698,,,,,,0.0,0.0,0.0,0.0,15.0,1.0,31.0,1.0,216.721573402,,,,,,,,,216.713426034,217.05712180400008,217.8508120280001,217.84152264,217.842073034,217.8508120280001,217.8508120280001,217.8508120280001,219.137377811,,,,,,,,,,,,,,,,,,,,,,,,,,,,,,right,1.0,1.276392271000077,,,,,,sub-125,1,random_dot,70.13385094546211,
left,left,32.0,0.0,16.0,right,0.0,2.123419937999984,,accuracy,space,3.4316270410000698,,,,,,0.0,0.0,0.0,0.0,16.0,0.0,32.0,0.0,219.14538762300003,,,,,,,,,219.137775757,219.933422705,220.72653254700003,220.71768983100003,220.71811510600003,220.72653254700003,220.72653254700003,220.72653254700003,222.85406137000007,,,,,,,,,,,,,,,,,,,,,,,,,,,,,,right,0.0,2.123419937999984,,,,,,sub-125,1,random_dot,70.13385094546211,
right,right,33.0,1.0,16.0,right,1.0,2.598805205999952,,accuracy,space,3.4316270410000698,,,,,,0.0,0.0,0.0,0.0,16.0,1.0,33.0,1.0,222.86262198400004,,,,,,,,,222.85439284100005,224.049525025,224.841948023,224.83375296500003,224.834111397,224.841948023,224.841948023,224.841948023,227.44648262600003,,,,,,,,,,,,,,,,,,,,,,,,,,,,,,right,1.0,2.598805205999952,,,,,,sub-125,1,random_dot,70.13385094546211,
right,right,34.0,0.0,17.0,right,1.0,3.131550624000056,,accuracy,space,3.4316270410000698,,,,,,0.0,0.0,0.0,0.0,17.0,0.0,34.0,1.0,227.456015771,,,,,,,,,227.446875334,227.789528379,228.583620795,228.574300548,228.57484616500005,228.583620795,228.583620795,228.583620795,231.720564824,,,,,,,,,,,,,,,,,,,,,,,,,,,,,,right,1.0,3.131550624000056,,,,,,sub-125,1,random_dot,70.13385094546211,
left,left,35.0,1.0,17.0,right,0.0,3.74058275799996,,accuracy,space,3.4316270410000698,,,,,,0.0,0.0,0.0,0.0,17.0,1.0,35.0,0.0,231.729289526,,,,,,,,,231.720967332,231.81628923200003,232.6082827600001,232.60047549,232.60088785200003,232.6082827600001,232.6082827600001,232.6082827600001,236.36003789200004,,,,,,,,,,,,,,,,,,,,,,,,,,,,,,right,0.0,3.74058275799996,,,,,,sub-125,1,random_dot,70.13385094546211,
right,right,36.0,0.0,18.0,left,0.0,1.9411257000000437,,accuracy,space,3.4316270410000698,,,,,,0.0,0.0,0.0,0.0,18.0,0.0,36.0,1.0,236.371511801,,,,,,,,,236.36047840000003,236.706872708,237.500681484,237.491279114,237.491822846,237.500681484,237.500681484,237.500681484,239.452426025,,,,,,,,,,,,,,,,,,,,,,,,,,,,,,left,0.0,1.9411257000000437,,,,,,sub-125,1,random_dot,70.13385094546211,
left,left,37.0,1.0,18.0,left,1.0,0.8223141940000005,,accuracy,space,3.4316270410000698,,,,,,0.0,0.0,0.0,0.0,18.0,1.0,37.0,0.0,239.461609179,,,,,,,,,239.452886499,239.7997569830001,240.59207567600004,240.58392383700004,240.584327253,240.59207567600004,240.59207567600004,240.59207567600004,241.41862436400004,,,,,,,,,,,,,,,,,,,,,,,,,,,,,,left,1.0,0.8223141940000005,,,,,,sub-125,1,random_dot,70.13385094546211,
right,right,38.0,0.0,19.0,left,0.0,0.7993551879999359,,accuracy,space,3.4316270410000698,,,,,,0.0,0.0,0.0,0.0,19.0,0.0,38.0,1.0,241.426857673,,,,,,,,,241.419064992,241.5165357340001,242.309513585,242.300594046,242.301134954,242.309513585,242.309513585,242.309513585,243.117701455,,,,,,,,,,,,,,,,,,,,,,,,,,,,,,left,0.0,0.7993551879999359,,,,,,sub-125,1,random_dot,70.13385094546211,
left,left,39.0,1.0,19.0,left,1.0,1.0074502439999833,,accuracy,space,3.4316270410000698,,,,,,0.0,0.0,0.0,0.0,19.0,1.0,39.0,0.0,243.1327579800001,,,,,,,,,243.11813361500003,243.46614204900004,244.25796699800003,244.250225472,244.250634816,244.25796699800003,244.25796699800003,244.25796699800003,245.27035264900007,,,,,,,,,,,,,,,,,,,,,,,,,,,,,,left,1.0,1.0074502439999833,,,,,,sub-125,1,random_dot,70.13385094546211,
left,left,40.0,0.0,20.0,left,1.0,1.9753798330000336,,accuracy,space,3.4316270410000698,,,,,,0.0,0.0,0.0,0.0,20.0,0.0,40.0,0.0,245.2789181530001,,,,,,,,,245.27074209,246.465958893,247.259239578,247.25046691600005,247.251007139,247.259239578,247.259239578,247.259239578,249.2451566450001,,,,,,,,,,,,,,,,,,,,,,,,,,,,,,left,1.0,1.9753798330000336,,,,,,sub-125,1,random_dot,70.13385094546211,
right,right,41.0,1.0,20.0,right,1.0,2.600901387999897,,accuracy,space,3.4316270410000698,,,,,,0.0,0.0,0.0,0.0,20.0,1.0,41.0,1.0,249.25409641300007,,,,,,,,,249.245695746,249.589922385,250.38281392500005,250.37329860800003,250.373719358,250.38281392500005,250.38281392500005,250.38281392500005,252.986250725,,,,,,,,,,,,,,,,,,,,,,,,,,,,,,right,1.0,2.600901387999897,,,,,,sub-125,1,random_dot,70.13385094546211,
right,right,42.0,0.0,21.0,right,1.0,1.582480716999953,,accuracy,space,3.4316270410000698,,,,,,0.0,0.0,0.0,0.0,21.0,0.0,42.0,1.0,252.993542319,,,,,,,,,252.986777892,253.082757971,253.87498581400007,253.86689572700004,253.867319574,253.87498581400007,253.87498581400007,253.87498581400007,255.462631051,,,,,,,,,,,,,,,,,,,,,,,,,,,,,,right,1.0,1.582480716999953,,,,,,sub-125,1,random_dot,70.13385094546211,
left,left,43.0,1.0,21.0,right,0.0,0.9500386069998968,,accuracy,space,3.4316270410000698,,,,,,0.0,0.0,0.0,0.0,21.0,1.0,43.0,0.0,255.471910356,,,,,,,,,255.46315613600007,255.555934137,256.350244996,256.34081718900006,256.341365118,256.350244996,256.350244996,256.350244996,257.307718252,,,,,,,,,,,,,,,,,,,,,,,,,,,,,,right,0.0,0.9500386069998968,,,,,,sub-125,1,random_dot,70.13385094546211,
left,left,44.0,0.0,22.0,left,1.0,0.916540216000044,,accuracy,space,3.4316270410000698,,,,,,0.0,0.0,0.0,0.0,22.0,0.0,44.0,0.0,257.3153089890001,,,,,,,,,257.30812194400005,258.506715666,259.300295805,259.29085633500006,259.291406326,259.300295805,259.300295805,259.300295805,260.22658014700005,,,,,,,,,,,,,,,,,,,,,,,,,,,,,,left,1.0,0.916540216000044,,,,,,sub-125,1,random_dot,70.13385094546211,
right,right,45.0,1.0,22.0,right,1.0,0.6121488919999365,,accuracy,space,3.4316270410000698,,,,,,0.0,0.0,0.0,0.0,22.0,1.0,45.0,1.0,260.235728688,,,,,,,,,260.226970121,260.32492601600006,261.125870848,261.116986573,261.117531259,261.125870848,261.125870848,261.125870848,261.745987044,,,,,,,,,,,,,,,,,,,,,,,,,,,,,,right,1.0,0.6121488919999365,,,,,,sub-125,1,random_dot,70.13385094546211,
right,right,46.0,0.0,23.0,left,0.0,4.692448352000042,,accuracy,space,3.4316270410000698,,,,,,0.0,0.0,0.0,0.0,23.0,0.0,46.0,1.0,261.753971418,,,,,,,,,261.746340544,262.54020925300006,263.333296537,263.32408220600007,263.324628558,263.333296537,263.333296537,263.333296537,268.030563969,,,,,,,,,,,,,,,,,,,,,,,,,,,,,,left,0.0,4.692448352000042,,,,,,sub-125,1,random_dot,70.13385094546211,
left,left,47.0,1.0,23.0,right,0.0,1.5243229120000024,,accuracy,space,3.4316270410000698,,,,,,0.0,0.0,0.0,0.0,23.0,1.0,47.0,0.0,268.04099879500006,,,,,,,,,268.031352586,268.822158951,269.61581146700007,269.60624503400004,269.60666378400003,269.61581146700007,269.61581146700007,269.61581146700007,271.143939609,,,,,,,,,,,,,,,,,,,,,,,,,,,,,,right,0.0,1.5243229120000024,,,,,,sub-125,1,random_dot,70.13385094546211,
left,left,48.0,0.0,24.0,right,0.0,1.7761946089999583,,accuracy,space,3.4316270410000698,,,,,,0.0,0.0,0.0,0.0,24.0,0.0,48.0,0.0,271.153853281,,,,,,,,,271.14438953900003,271.48982713,272.28341331700005,272.2739741070001,272.274526593,272.28341331700005,272.28341331700005,272.28341331700005,274.067586117,,,,,,,,,,,,,,,,,,,,,,,,,,,,,,right,0.0,1.7761946089999583,,,,,,sub-125,1,random_dot,70.13385094546211,
right,right,49.0,1.0,24.0,right,1.0,1.027404717999957,,accuracy,space,3.4316270410000698,,,,,,0.0,0.0,0.0,0.0,24.0,1.0,49.0,1.0,274.082370167,,,,,,,,,274.067960989,275.26574188000006,276.059692479,276.0503472070001,276.050905702,276.059692479,276.059692479,276.059692479,277.100202214,,,,,,,,,,,,,,,,,,,,,,,,,,,,,,right,1.0,1.027404717999957,,,,,,sub-125,1,random_dot,70.13385094546211,
right,right,50.0,0.0,25.0,right,1.0,1.779201908999994,,accuracy,space,3.4316270410000698,,,,,,0.0,0.0,0.0,0.0,25.0,0.0,50.0,1.0,277.10619636800004,,,,,,,,,277.10063866400003,277.44899740100004,278.24249620700004,278.233418026,278.23395210600006,278.24249620700004,278.24249620700004,278.24249620700004,280.028021889,,,,,,,,,,,,,,,,,,,,,,,,,,,,,,right,1.0,1.779201908999994,,,,,,sub-125,1,random_dot,70.13385094546211,
left,left,51.0,1.0,25.0,left,1.0,2.396208695999917,,accuracy,space,3.4316270410000698,,,,,,0.0,0.0,0.0,0.0,25.0,1.0,51.0,0.0,280.03709608500003,,,,,,,,,280.02846318900004,281.22219207600006,282.016658701,282.007324476,282.007880612,282.016658701,282.016658701,282.016658701,284.419534578,,,,,,,,,,,,,,,,,,,,,,,,,,,,,,left,1.0,2.396208695999917,,,,,,sub-125,1,random_dot,70.13385094546211,
right,right,52.0,0.0,26.0,right,1.0,3.8858742359999496,,accuracy,space,3.4316270410000698,,,,,,0.0,0.0,0.0,0.0,26.0,0.0,52.0,1.0,284.428009592,,,,,,,,,284.419917745,284.515750842,285.30782337000005,285.29979668,285.300197887,285.30782337000005,285.30782337000005,285.30782337000005,289.201529879,,,,,,,,,,,,,,,,,,,,,,,,,,,,,,right,1.0,3.8858742359999496,,,,,,sub-125,1,random_dot,70.13385094546211,
left,left,53.0,1.0,26.0,left,1.0,1.8469070190000136,,accuracy,space,3.4316270410000698,,,,,,0.0,0.0,0.0,0.0,26.0,1.0,53.0,0.0,289.20960418800007,,,,,,,,,289.20196219700006,289.54908832700005,290.34220830000004,290.33328990200005,290.33383738300006,290.34220830000004,290.34220830000004,290.34220830000004,292.19225470800006,,,,,,,,,,,,,,,,,,,,,,,,,,,,,,left,1.0,1.8469070190000136,,,,,,sub-125,1,random_dot,70.13385094546211,
right,right,54.0,0.0,27.0,left,0.0,1.81092726199995,,accuracy,space,3.4316270410000698,,,,,,0.0,0.0,0.0,0.0,27.0,0.0,54.0,1.0,292.203974068,,,,,,,,,292.192722837,292.290029496,293.09048418400005,293.082612038,293.08292197000003,293.09048418400005,293.09048418400005,293.09048418400005,294.908957161,,,,,,,,,,,,,,,,,,,,,,,,,,,,,,left,0.0,1.81092726199995,,,,,,sub-125,1,random_dot,70.13385094546211,
left,left,55.0,1.0,27.0,right,0.0,1.8479525069999452,,accuracy,space,3.4316270410000698,,,,,,0.0,0.0,0.0,0.0,27.0,1.0,55.0,0.0,294.91653638,,,,,,,,,294.90927197200006,295.70480472,296.498950961,296.489552753,296.48986854200007,296.498950961,296.498950961,296.498950961,298.35094822400004,,,,,,,,,,,,,,,,,,,,,,,,,,,,,,right,0.0,1.8479525069999452,,,,,,sub-125,1,random_dot,70.13385094546211,
left,left,56.0,0.0,28.0,left,1.0,0.9919941599999902,,accuracy,space,3.4316270410000698,,,,,,0.0,0.0,0.0,0.0,28.0,0.0,56.0,0.0,298.36546059600005,,,,,,,,,298.35139522400004,299.14892492600006,299.942298027,299.933211252,299.93374905300004,299.942298027,299.942298027,299.942298027,300.945007077,,,,,,,,,,,,,,,,,,,,,,,,,,,,,,left,1.0,0.9919941599999902,,,,,,sub-125,1,random_dot,70.13385094546211,
right,right,57.0,1.0,28.0,left,0.0,1.161225284000011,,accuracy,space,3.4316270410000698,,,,,,0.0,0.0,0.0,0.0,28.0,1.0,57.0,1.0,300.953999157,,,,,,,,,300.945463937,302.13820571200006,302.932885147,302.9235881000001,302.924144661,302.932885147,302.932885147,302.932885147,304.105466677,,,,,,,,,,,,,,,,,,,,,,,,,,,,,,left,0.0,1.161225284000011,,,,,,sub-125,1,random_dot,70.13385094546211,
left,left,58.0,0.0,29.0,right,0.0,0.979911265999931,,accuracy,space,3.4316270410000698,,,,,,0.0,0.0,0.0,0.0,29.0,0.0,58.0,0.0,304.115068286,,,,,,,,,304.10586029500007,305.298488435,306.09189026900003,306.08300972300003,306.083550004,306.09189026900003,306.09189026900003,306.09189026900003,307.084308105,,,,,,,,,,,,,,,,,,,,,,,,,,,,,,right,0.0,0.979911265999931,,,,,,sub-125,1,random_dot,70.13385094546211,
right,right,59.0,1.0,29.0,right,1.0,1.4221307310000384,,accuracy,space,3.4316270410000698,,,,,,0.0,0.0,0.0,0.0,29.0,1.0,59.0,1.0,307.091977658,,,,,,,,,307.08474473,307.88191795600005,308.67511255,308.666267984,308.666806192,308.67511255,308.67511255,308.67511255,310.101883195,,,,,,,,,,,,,,,,,,,,,,,,,,,,,,right,1.0,1.4221307310000384,,,,,,sub-125,1,random_dot,70.13385094546211,
,,0.0,0.0,0.0,,,,,accuracy,space,3.4316270410000698,,,,,,0.0,0.0,0.0,0.0,,,,,,,,,,,,,,,,,,,,,,,,,,,,,,,,,,,,,,,,,,,,,,,,,,,,,,,,,,,,sub-125,1,random_dot,70.13385094546211,
right,right,0.0,0.0,0.0,left,0.0,0.4939326999999593,,speed,space,3.98050691200001,,,,,,0.0,1.0,1.0,1.0,0.0,0.0,0.0,1.0,314.125470319,,,,,,,,,314.116290017,314.205381955,314.99933743500003,314.989960098,314.990516102,314.99933743500003,314.99933743500003,314.99933743500003,315.500534688,,,,,,,,,,,,,,,,,,,,,,,310.112407858,310.12118333700005,310.12118333700005,314.10960111200006,space,3.98050691200001,,left,0.0,0.4939326999999593,,,,,,sub-125,1,random_dot,70.13385094546211,
left,left,1.0,1.0,0.0,left,1.0,0.5564657009999792,,speed,space,3.98050691200001,,,,,,0.0,1.0,1.0,1.0,0.0,1.0,1.0,0.0,315.50869201800003,,,,,,,,,315.50092178,316.298435468,317.09192405600004,317.08286955100004,317.083406267,317.09192405600004,317.09192405600004,317.09192405600004,317.666554359,,,,,,,,,,,,,,,,,,,,,,,,,,,,,,left,1.0,0.5564657009999792,,,,,,sub-125,1,random_dot,70.13385094546211,
left,left,2.0,0.0,1.0,right,0.0,0.3379755959999784,,speed,space,3.98050691200001,,,,,,0.0,1.0,1.0,1.0,1.0,0.0,2.0,0.0,317.681888051,,,,,,,,,317.666998673,318.46522625800003,319.258357874,319.249541841,319.250079903,319.258357874,319.258357874,319.258357874,319.605817761,,,,,,,,,,,,,,,,,,,,,,,,,,,,,,right,0.0,0.3379755959999784,,,,,,sub-125,1,random_dot,70.13385094546211,
right,right,3.0,1.0,1.0,left,0.0,0.5442577249999658,,speed,space,3.98050691200001,,,,,,0.0,1.0,1.0,1.0,1.0,1.0,3.0,1.0,319.615042412,,,,,,,,,319.60627206800007,319.70542659,320.499560587,320.490013581,320.49055842000007,320.499560587,320.499560587,320.499560587,321.05091982700003,,,,,,,,,,,,,,,,,,,,,,,,,,,,,,left,0.0,0.5442577249999658,,,,,,sub-125,1,random_dot,70.13385094546211,
left,left,4.0,0.0,2.0,right,0.0,0.6588219210000261,,speed,space,3.98050691200001,,,,,,0.0,1.0,1.0,1.0,2.0,0.0,4.0,0.0,321.05910521600003,,,,,,,,,321.05135459200005,321.398685197,322.1905975760001,322.18257304300005,322.182982759,322.1905975760001,322.1905975760001,322.1905975760001,322.859155749,,,,,,,,,,,,,,,,,,,,,,,,,,,,,,right,0.0,0.6588219210000261,,,,,,sub-125,1,random_dot,70.13385094546211,
right,right,5.0,1.0,2.0,right,1.0,0.4817261770000414,,speed,space,3.98050691200001,,,,,,0.0,1.0,1.0,1.0,2.0,1.0,5.0,1.0,322.868349677,,,,,,,,,322.85953305600003,322.954621912,323.748427589,323.739111667,323.739439224,323.748427589,323.748427589,323.748427589,324.23457408600007,,,,,,,,,,,,,,,,,,,,,,,,,,,,,,right,1.0,0.4817261770000414,,,,,,sub-125,1,random_dot,70.13385094546211,
right,right,6.0,0.0,3.0,left,0.0,0.4403415479999921,,speed,space,3.98050691200001,,,,,,0.0,1.0,1.0,1.0,3.0,0.0,6.0,1.0,324.24262375800004,,,,,,,,,324.234895803,324.331563589,325.12382972,325.11589650400003,325.11629510700004,325.12382972,325.12382972,325.12382972,325.56875483700003,,,,,,,,,,,,,,,,,,,,,,,,,,,,,,left,0.0,0.4403415479999921,,,,,,sub-125,1,random_dot,70.13385094546211,
left,left,7.0,1.0,3.0,right,0.0,0.4446232899999813,,speed,space,3.98050691200001,,,,,,0.0,1.0,1.0,1.0,3.0,1.0,7.0,0.0,325.576512084,,,,,,,,,325.569135145,326.3650738,327.158282678,327.149416232,327.14995225100006,327.158282678,327.158282678,327.158282678,327.616412794,,,,,,,,,,,,,,,,,,,,,,,,,,,,,,right,0.0,0.4446232899999813,,,,,,sub-125,1,random_dot,70.13385094546211,
left,left,8.0,0.0,4.0,right,0.0,0.5475037339999744,,speed,space,3.98050691200001,,,,,,0.0,1.0,1.0,1.0,4.0,0.0,8.0,0.0,327.631529676,,,,,,,,,327.616860126,328.415166613,329.208125325,329.19940586100006,329.199943212,329.208125325,329.208125325,329.208125325,329.75954020200004,,,,,,,,,,,,,,,,,,,,,,,,,,,,,,right,0.0,0.5475037339999744,,,,,,sub-125,1,random_dot,70.13385094546211,
right,right,9.0,1.0,4.0,left,0.0,0.4557534589999932,,speed,space,3.98050691200001,,,,,,0.0,1.0,1.0,1.0,4.0,1.0,9.0,1.0,329.768960226,,,,,,,,,329.759933263,330.555269309,331.349050219,331.3395933190001,331.340138617,331.349050219,331.349050219,331.349050219,331.808771043,,,,,,,,,,,,,,,,,,,,,,,,,,,,,,left,0.0,0.4557534589999932,,,,,,sub-125,1,random_dot,70.13385094546211,
left,left,10.0,0.0,5.0,left,1.0,0.4022808510000004,,speed,space,3.98050691200001,,,,,,0.0,1.0,1.0,1.0,5.0,0.0,10.0,0.0,331.81869443100004,,,,,,,,,331.809180922,333.005216161,333.80572952700004,333.798700425,333.798993862,333.80572952700004,333.80572952700004,333.80572952700004,334.21697684000003,,,,,,,,,,,,,,,,,,,,,,,,,,,,,,left,1.0,0.4022808510000004,,,,,,sub-125,1,random_dot,70.13385094546211,
right,right,11.0,1.0,5.0,left,0.0,0.8199925989999883,,speed,space,3.98050691200001,,,,,,0.0,1.0,1.0,1.0,5.0,1.0,11.0,1.0,334.224217902,,,,,,,,,334.21735205100003,334.316001574,335.114761629,335.10469043800003,335.104989512,335.114761629,335.114761629,335.114761629,335.94425423100006,,,,,,,,,,,,,,,,,,,,,,,,,,,,,,left,0.0,0.8199925989999883,,,,,,sub-125,1,random_dot,70.13385094546211,
left,left,12.0,0.0,6.0,left,1.0,0.4868140040000526,,speed,space,3.98050691200001,,,,,,0.0,1.0,1.0,1.0,6.0,0.0,12.0,0.0,335.95320636300005,,,,,,,,,335.944811994,337.13832712,337.937422946,337.92593999300004,337.92631940600006,337.937422946,337.937422946,337.937422946,338.43473025800006,,,,,,,,,,,,,,,,,,,,,,,,,,,,,,left,1.0,0.4868140040000526,,,,,,sub-125,1,random_dot,70.13385094546211,
right,right,13.0,1.0,6.0,right,1.0,0.5517597159999923,,speed,space,3.98050691200001,,,,,,0.0,1.0,1.0,1.0,6.0,1.0,13.0,1.0,338.4414308180001,,,,,,,,,338.4350519110001,339.63156252600004,340.423412696,340.41555799900004,340.41594944,340.423412696,340.423412696,340.423412696,340.978231251,,,,,,,,,,,,,,,,,,,,,,,,,,,,,,right,1.0,0.5517597159999923,,,,,,sub-125,1,random_dot,70.13385094546211,
left,left,14.0,0.0,7.0,left,1.0,0.3952589609999677,,speed,space,3.98050691200001,,,,,,0.0,1.0,1.0,1.0,7.0,0.0,14.0,0.0,340.987214454,,,,,,,,,340.97864648300003,341.77165345800006,342.564714697,342.55524638300005,342.5556698820001,342.564714697,342.564714697,342.564714697,342.96848598,,,,,,,,,,,,,,,,,,,,,,,,,,,,,,left,1.0,0.3952589609999677,,,,,,sub-125,1,random_dot,70.13385094546211,
right,right,15.0,1.0,7.0,left,0.0,0.5555943399999705,,speed,space,3.98050691200001,,,,,,0.0,1.0,1.0,1.0,7.0,1.0,15.0,1.0,342.977082688,,,,,,,,,342.968871909,343.314787714,344.10798342500004,344.099174363,344.099712964,344.10798342500004,344.10798342500004,344.10798342500004,344.66830268500007,,,,,,,,,,,,,,,,,,,,,,,,,,,,,,left,0.0,0.5555943399999705,,,,,,sub-125,1,random_dot,70.13385094546211,
right,right,16.0,0.0,8.0,left,0.0,0.4459831880000138,,speed,space,3.98050691200001,,,,,,0.0,1.0,1.0,1.0,8.0,0.0,16.0,1.0,344.67628941300006,,,,,,,,,344.668694782,344.764598849,345.556719153,345.54877580000004,345.549178052,345.556719153,345.556719153,345.556719153,346.01574930000004,,,,,,,,,,,,,,,,,,,,,,,,,,,,,,left,0.0,0.4459831880000138,,,,,,sub-125,1,random_dot,70.13385094546211,
left,left,17.0,1.0,8.0,right,0.0,0.4899474279999367,,speed,space,3.98050691200001,,,,,,0.0,1.0,1.0,1.0,8.0,1.0,17.0,0.0,346.02273782500004,,,,,,,,,346.01623337600006,346.81483197,347.60799974500003,347.59908774300004,347.59963160100006,347.60799974500003,347.60799974500003,347.60799974500003,348.10220436,,,,,,,,,,,,,,,,,,,,,,,,,,,,,,right,0.0,0.4899474279999367,,,,,,sub-125,1,random_dot,70.13385094546211,
left,left,18.0,0.0,9.0,left,1.0,0.328962979000039,,speed,space,3.98050691200001,,,,,,0.0,1.0,1.0,1.0,9.0,0.0,18.0,0.0,348.11089019,,,,,,,,,348.102641986,349.298187765,350.091827845,350.0825868200001,350.08331875700003,350.091827845,350.091827845,350.091827845,350.42629217,,,,,,,,,,,,,,,,,,,,,,,,,,,,,,left,1.0,0.328962979000039,,,,,,sub-125,1,random_dot,70.13385094546211,
right,right,19.0,1.0,9.0,right,1.0,0.4533395029999383,,speed,space,3.98050691200001,,,,,,0.0,1.0,1.0,1.0,9.0,1.0,19.0,1.0,350.43537300700007,,,,,,,,,350.42666813200003,351.22045308,352.014651794,352.005204734,352.005625852,352.014651794,352.014651794,352.014651794,352.475315938,,,,,,,,,,,,,,,,,,,,,,,,,,,,,,right,1.0,0.4533395029999383,,,,,,sub-125,1,random_dot,70.13385094546211,
left,left,20.0,0.0,10.0,right,0.0,0.4982685600000422,,speed,space,3.98050691200001,,,,,,0.0,1.0,1.0,1.0,10.0,0.0,20.0,0.0,352.48463683,,,,,,,,,352.475696557,352.821851715,353.615390423,353.6059808,353.60653443,353.615390423,353.615390423,353.615390423,354.116655672,,,,,,,,,,,,,,,,,,,,,,,,,,,,,,right,0.0,0.4982685600000422,,,,,,sub-125,1,random_dot,70.13385094546211,
right,right,21.0,1.0,10.0,left,0.0,0.5454453239999566,,speed,space,3.98050691200001,,,,,,0.0,1.0,1.0,1.0,10.0,1.0,21.0,1.0,354.12433436900005,,,,,,,,,354.11703341200007,354.91467270600003,355.70635001200003,355.698650006,355.699053166,355.70635001200003,355.70635001200003,355.70635001200003,356.26116213700004,,,,,,,,,,,,,,,,,,,,,,,,,,,,,,left,0.0,0.5454453239999566,,,,,,sub-125,1,random_dot,70.13385094546211,
right,right,22.0,0.0,11.0,right,1.0,0.6487724410000055,,speed,space,3.98050691200001,,,,,,0.0,1.0,1.0,1.0,11.0,0.0,22.0,1.0,356.269707725,,,,,,,,,356.261546564,357.05451159100005,357.848405997,357.83960620100004,357.840166724,357.848405997,357.848405997,357.848405997,358.501518673,,,,,,,,,,,,,,,,,,,,,,,,,,,,,,right,1.0,0.6487724410000055,,,,,,sub-125,1,random_dot,70.13385094546211,
left,left,23.0,1.0,11.0,right,0.0,0.5067387600000757,,speed,space,3.98050691200001,,,,,,0.0,1.0,1.0,1.0,11.0,1.0,23.0,0.0,358.50986555300005,,,,,,,,,358.502113602,358.59810177500003,359.39132599000004,359.382421079,359.382960724,359.39132599000004,359.39132599000004,359.39132599000004,359.90061481,,,,,,,,,,,,,,,,,,,,,,,,,,,,,,right,0.0,0.5067387600000757,,,,,,sub-125,1,random_dot,70.13385094546211,
right,right,24.0,0.0,12.0,right,1.0,0.5973039909999898,,speed,space,3.98050691200001,,,,,,0.0,1.0,1.0,1.0,12.0,0.0,24.0,1.0,359.909254217,,,,,,,,,359.901077289,359.998216135,360.79131374,360.7823446160001,360.7828830570001,360.79131374,360.79131374,360.79131374,361.392828251,,,,,,,,,,,,,,,,,,,,,,,,,,,,,,right,1.0,0.5973039909999898,,,,,,sub-125,1,random_dot,70.13385094546211,
left,left,25.0,1.0,12.0,right,0.0,0.2667542529999309,,speed,space,3.98050691200001,,,,,,0.0,1.0,1.0,1.0,12.0,1.0,25.0,0.0,361.402726454,,,,,,,,,361.39322410500006,362.188802989,362.989462466,362.97702742600006,362.977537962,362.989462466,362.989462466,362.989462466,363.260159732,,,,,,,,,,,,,,,,,,,,,,,,,,,,,,right,0.0,0.2667542529999309,,,,,,sub-125,1,random_dot,70.13385094546211,
left,left,26.0,0.0,13.0,left,1.0,0.489183181000044,,speed,space,3.98050691200001,,,,,,0.0,1.0,1.0,1.0,13.0,0.0,26.0,0.0,363.271726208,,,,,,,,,363.260614436,363.355853949,364.1499471540001,364.140402873,364.140849857,364.1499471540001,364.1499471540001,364.1499471540001,364.641598845,,,,,,,,,,,,,,,,,,,,,,,,,,,,,,left,1.0,0.489183181000044,,,,,,sub-125,1,random_dot,70.13385094546211,
right,right,27.0,1.0,13.0,left,0.0,0.5231402759999355,,speed,space,3.98050691200001,,,,,,0.0,1.0,1.0,1.0,13.0,1.0,27.0,1.0,364.663748078,,,,,,,,,364.641989445,364.73704895700007,365.531460081,365.52139716,365.521824669,365.531460081,365.531460081,365.531460081,366.06099266600006,,,,,,,,,,,,,,,,,,,,,,,,,,,,,,left,0.0,0.5231402759999355,,,,,,sub-125,1,random_dot,70.13385094546211,
left,left,28.0,0.0,14.0,left,1.0,1.244644677999986,,speed,space,3.98050691200001,,,,,,0.0,1.0,1.0,1.0,14.0,0.0,28.0,0.0,366.0693247720001,,,,,,,,,366.0613088280001,366.156065487,366.956173239,366.948324469,366.948675782,366.956173239,366.956173239,366.956173239,368.210380296,,,,,,,,,,,,,,,,,,,,,,,,,,,,,,left,1.0,1.244644677999986,,,,,,sub-125,1,random_dot,70.13385094546211,
right,right,29.0,1.0,14.0,right,1.0,0.4150192390000029,,speed,space,3.98050691200001,,,,,,0.0,1.0,1.0,1.0,14.0,1.0,29.0,1.0,368.21888139200007,,,,,,,,,368.2108083090001,368.55437848,369.34836752600006,369.338762166,369.339180843,369.34836752600006,369.34836752600006,369.34836752600006,369.7825291820001,,,,,,,,,,,,,,,,,,,,,,,,,,,,,,right,1.0,0.4150192390000029,,,,,,sub-125,1,random_dot,70.13385094546211,
right,right,30.0,0.0,15.0,right,1.0,1.0175497010000072,,speed,space,3.98050691200001,,,,,,0.0,1.0,1.0,1.0,15.0,0.0,30.0,1.0,369.7976387700001,,,,,,,,,369.78299293200007,370.981142146,371.772815913,371.765025991,371.765428486,371.772815913,371.772815913,371.772815913,372.799744028,,,,,,,,,,,,,,,,,,,,,,,,,,,,,,right,1.0,1.0175497010000072,,,,,,sub-125,1,random_dot,70.13385094546211,
left,left,31.0,1.0,15.0,right,0.0,0.5109137260000125,,speed,space,3.98050691200001,,,,,,0.0,1.0,1.0,1.0,15.0,1.0,31.0,0.0,372.807410412,,,,,,,,,372.800175608,372.89767362300006,373.6908689220001,373.682020687,373.68254887,373.6908689220001,373.6908689220001,373.6908689220001,374.215734621,,,,,,,,,,,,,,,,,,,,,,,,,,,,,,right,0.0,0.5109137260000125,,,,,,sub-125,1,random_dot,70.13385094546211,
left,left,32.0,0.0,16.0,left,1.0,0.5727019670000573,,speed,space,3.98050691200001,,,,,,0.0,1.0,1.0,1.0,16.0,0.0,32.0,0.0,374.2308817840001,,,,,,,,,374.216048502,374.314458138,375.106131525,375.098276562,375.098687801,375.106131525,375.106131525,375.106131525,375.682168574,,,,,,,,,,,,,,,,,,,,,,,,,,,,,,left,1.0,0.5727019670000573,,,,,,sub-125,1,random_dot,70.13385094546211,
right,right,33.0,1.0,16.0,left,0.0,0.5977264250000189,,speed,space,3.98050691200001,,,,,,0.0,1.0,1.0,1.0,16.0,1.0,33.0,1.0,375.69733921400007,,,,,,,,,375.68248458900007,376.880956793,377.67404432,377.66531545300006,377.66585071300005,377.67404432,377.67404432,377.67404432,378.2748270130001,,,,,,,,,,,,,,,,,,,,,,,,,,,,,,left,0.0,0.5977264250000189,,,,,,sub-125,1,random_dot,70.13385094546211,
left,left,34.0,0.0,17.0,left,1.0,0.4312959510000382,,speed,space,3.98050691200001,,,,,,0.0,1.0,1.0,1.0,17.0,0.0,34.0,0.0,378.284568704,,,,,,,,,378.2752735060001,379.071091452,379.86478658400006,379.85558224,379.85613531600006,379.86478658400006,379.86478658400006,379.86478658400006,380.299952208,,,,,,,,,,,,,,,,,,,,,,,,,,,,,,left,1.0,0.4312959510000382,,,,,,sub-125,1,random_dot,70.13385094546211,
right,right,35.0,1.0,17.0,right,1.0,0.5243726549999792,,speed,space,3.98050691200001,,,,,,0.0,1.0,1.0,1.0,17.0,1.0,35.0,1.0,380.30771356800005,,,,,,,,,380.300333721,380.397576021,381.190977246,381.18201834600006,381.182556909,381.190977246,381.190977246,381.190977246,381.732348384,,,,,,,,,,,,,,,,,,,,,,,,,,,,,,right,1.0,0.5243726549999792,,,,,,sub-125,1,random_dot,70.13385094546211,
right,right,36.0,0.0,18.0,left,0.0,0.4311714430000393,,speed,space,3.98050691200001,,,,,,0.0,1.0,1.0,1.0,18.0,0.0,36.0,1.0,381.747379419,,,,,,,,,381.73278601900006,381.83079789400006,382.62417552400007,382.615316799,382.61585098600005,382.62417552400007,382.62417552400007,382.62417552400007,383.066384848,,,,,,,,,,,,,,,,,,,,,,,,,,,,,,left,0.0,0.4311714430000393,,,,,,sub-125,1,random_dot,70.13385094546211,
left,left,37.0,1.0,18.0,right,0.0,0.3781231110000362,,speed,space,3.98050691200001,,,,,,0.0,1.0,1.0,1.0,18.0,1.0,37.0,0.0,383.07408127100007,,,,,,,,,383.066812528,383.414150765,384.20691914100007,384.19848877900006,384.198894773,384.20691914100007,384.20691914100007,384.20691914100007,384.587573881,,,,,,,,,,,,,,,,,,,,,,,,,,,,,,right,0.0,0.3781231110000362,,,,,,sub-125,1,random_dot,70.13385094546211,
right,right,38.0,0.0,19.0,right,1.0,0.4088520779999953,,speed,space,3.98050691200001,,,,,,0.0,1.0,1.0,1.0,19.0,0.0,38.0,1.0,384.5973557690001,,,,,,,,,384.58789842400006,385.780931496,386.57432569700006,386.565403835,386.565944918,386.57432569700006,386.57432569700006,386.57432569700006,386.99583154900006,,,,,,,,,,,,,,,,,,,,,,,,,,,,,,right,1.0,0.4088520779999953,,,,,,sub-125,1,random_dot,70.13385094546211,
left,left,39.0,1.0,19.0,right,0.0,0.3982656340000403,,speed,space,3.98050691200001,,,,,,0.0,1.0,1.0,1.0,19.0,1.0,39.0,0.0,387.002679648,,,,,,,,,386.996247129,387.7878768620001,388.581916978,388.572454903,388.57300761,388.581916978,388.581916978,388.581916978,388.98736263500007,,,,,,,,,,,,,,,,,,,,,,,,,,,,,,right,0.0,0.3982656340000403,,,,,,sub-125,1,random_dot,70.13385094546211,
left,left,40.0,0.0,20.0,left,1.0,0.5527475530000174,,speed,space,3.98050691200001,,,,,,0.0,1.0,1.0,1.0,20.0,0.0,40.0,0.0,388.997441372,,,,,,,,,388.987741712,390.180836272,390.97468631800007,390.9654953940001,390.96615347500006,390.97468631800007,390.97468631800007,390.97468631800007,391.532985271,,,,,,,,,,,,,,,,,,,,,,,,,,,,,,left,1.0,0.5527475530000174,,,,,,sub-125,1,random_dot,70.13385094546211,
right,right,41.0,1.0,20.0,left,0.0,0.5465325359999724,,speed,space,3.98050691200001,,,,,,0.0,1.0,1.0,1.0,20.0,1.0,41.0,1.0,391.540598513,,,,,,,,,391.5333645870001,392.730997512,393.524161091,393.515220497,393.515756635,393.524161091,393.524161091,393.524161091,394.082994621,,,,,,,,,,,,,,,,,,,,,,,,,,,,,,left,0.0,0.5465325359999724,,,,,,sub-125,1,random_dot,70.13385094546211,
left,left,42.0,0.0,21.0,left,1.0,0.5817988779999723,,speed,space,3.98050691200001,,,,,,0.0,1.0,1.0,1.0,21.0,0.0,42.0,0.0,394.090903387,,,,,,,,,394.083428744,394.180699341,394.973948833,394.965114871,394.965657006,394.973948833,394.973948833,394.973948833,395.566983963,,,,,,,,,,,,,,,,,,,,,,,,,,,,,,left,1.0,0.5817988779999723,,,,,,sub-125,1,random_dot,70.13385094546211,
right,right,43.0,1.0,21.0,right,1.0,0.3155356820000179,,speed,space,3.98050691200001,,,,,,0.0,1.0,1.0,1.0,21.0,1.0,43.0,1.0,395.575632167,,,,,,,,,395.567571833,395.914156167,396.707298296,396.698507606,396.699041234,396.707298296,396.707298296,396.707298296,397.02652908900006,,,,,,,,,,,,,,,,,,,,,,,,,,,,,,right,1.0,0.3155356820000179,,,,,,sub-125,1,random_dot,70.13385094546211,
right,right,44.0,0.0,22.0,right,1.0,0.469904597999971,,speed,space,3.98050691200001,,,,,,0.0,1.0,1.0,1.0,22.0,0.0,44.0,1.0,397.0350443690001,,,,,,,,,397.026996793,397.1212083070001,397.915153247,397.905322148,397.905877538,397.915153247,397.915153247,397.915153247,398.394113675,,,,,,,,,,,,,,,,,,,,,,,,,,,,,,right,1.0,0.469904597999971,,,,,,sub-125,1,random_dot,70.13385094546211,
left,left,45.0,1.0,22.0,left,1.0,0.3983095080000112,,speed,space,3.98050691200001,,,,,,0.0,1.0,1.0,1.0,22.0,1.0,45.0,0.0,398.402618591,,,,,,,,,398.394502097,398.48769866300006,399.281169856,399.271921121,399.272475268,399.281169856,399.281169856,399.281169856,399.69914410600006,,,,,,,,,,,,,,,,,,,,,,,,,,,,,,left,1.0,0.3983095080000112,,,,,,sub-125,1,random_dot,70.13385094546211,
right,right,46.0,0.0,23.0,right,1.0,0.6484543550000126,,speed,space,3.98050691200001,,,,,,0.0,1.0,1.0,1.0,23.0,0.0,46.0,1.0,399.714082104,,,,,,,,,399.699571341,400.497599802,401.290696279,401.28176511,401.282299072,401.290696279,401.290696279,401.290696279,401.94348991800007,,,,,,,,,,,,,,,,,,,,,,,,,,,,,,right,1.0,0.6484543550000126,,,,,,sub-125,1,random_dot,70.13385094546211,
left,left,47.0,1.0,23.0,left,1.0,0.4185900569999603,,speed,space,3.98050691200001,,,,,,0.0,1.0,1.0,1.0,23.0,1.0,47.0,0.0,401.952743513,,,,,,,,,401.943962489,402.037315768,402.832089642,402.822597319,402.823148384,402.832089642,402.832089642,402.832089642,403.265722769,,,,,,,,,,,,,,,,,,,,,,,,,,,,,,left,1.0,0.4185900569999603,,,,,,sub-125,1,random_dot,70.13385094546211,
left,left,48.0,0.0,24.0,left,1.0,0.4005617100000336,,speed,space,3.98050691200001,,,,,,0.0,1.0,1.0,1.0,24.0,0.0,48.0,0.0,403.2806720580001,,,,,,,,,403.266167933,403.363908806,404.156417795,404.148089408,404.148496353,404.156417795,404.156417795,404.156417795,404.566105345,,,,,,,,,,,,,,,,,,,,,,,,,,,,,,left,1.0,0.4005617100000336,,,,,,sub-125,1,random_dot,70.13385094546211,
right,right,49.0,1.0,24.0,right,1.0,0.5181688859998985,,speed,space,3.98050691200001,,,,,,0.0,1.0,1.0,1.0,24.0,1.0,49.0,1.0,404.573750998,,,,,,,,,404.566543236,405.36397061,406.157280482,406.14846927100007,406.1490052070001,406.157280482,406.157280482,406.157280482,406.68373216300006,,,,,,,,,,,,,,,,,,,,,,,,,,,,,,right,1.0,0.5181688859998985,,,,,,sub-125,1,random_dot,70.13385094546211,
left,left,50.0,0.0,25.0,left,1.0,0.4910728009999729,,speed,space,3.98050691200001,,,,,,0.0,1.0,1.0,1.0,25.0,0.0,50.0,0.0,406.691402688,,,,,,,,,406.684081377,407.480652458,408.272670723,408.264754336,408.2651644150001,408.272670723,408.272670723,408.272670723,408.766186598,,,,,,,,,,,,,,,,,,,,,,,,,,,,,,left,1.0,0.4910728009999729,,,,,,sub-125,1,random_dot,70.13385094546211,
right,right,51.0,1.0,25.0,left,0.0,0.5813706580000826,,speed,space,3.98050691200001,,,,,,0.0,1.0,1.0,1.0,25.0,1.0,51.0,1.0,408.78100477400005,,,,,,,,,408.766644571,409.113988802,409.90776339700005,409.898553759,409.899214758,409.90776339700005,409.90776339700005,409.90776339700005,410.499566601,,,,,,,,,,,,,,,,,,,,,,,,,,,,,,left,0.0,0.5813706580000826,,,,,,sub-125,1,random_dot,70.13385094546211,
left,left,52.0,0.0,26.0,right,0.0,0.4837442190000729,,speed,space,3.98050691200001,,,,,,0.0,1.0,1.0,1.0,26.0,0.0,52.0,0.0,410.507515259,,,,,,,,,410.499998539,411.697213443,412.49058425400005,412.48165318,412.482200499,412.49058425400005,412.49058425400005,412.49058425400005,412.987063313,,,,,,,,,,,,,,,,,,,,,,,,,,,,,,right,0.0,0.4837442190000729,,,,,,sub-125,1,random_dot,70.13385094546211,
right,right,53.0,1.0,26.0,right,1.0,0.4260846290000017,,speed,space,3.98050691200001,,,,,,0.0,1.0,1.0,1.0,26.0,1.0,53.0,1.0,412.997119566,,,,,,,,,412.98749914100006,413.080437838,413.873735223,413.86491230700005,413.86545117700007,413.873735223,413.873735223,413.873735223,414.30314084,,,,,,,,,,,,,,,,,,,,,,,,,,,,,,right,1.0,0.4260846290000017,,,,,,sub-125,1,random_dot,70.13385094546211,
left,left,54.0,0.0,27.0,right,0.0,0.5079407719999836,,speed,space,3.98050691200001,,,,,,0.0,1.0,1.0,1.0,27.0,0.0,54.0,0.0,414.3135841640001,,,,,,,,,414.303539852,415.497072319,416.290221849,416.28147633,416.28202983000006,416.290221849,416.290221849,416.290221849,416.80147888400006,,,,,,,,,,,,,,,,,,,,,,,,,,,,,,right,0.0,0.5079407719999836,,,,,,sub-125,1,random_dot,70.13385094546211,
right,right,55.0,1.0,27.0,right,1.0,0.3797052899999471,,speed,space,3.98050691200001,,,,,,0.0,1.0,1.0,1.0,27.0,1.0,55.0,1.0,416.810683114,,,,,,,,,416.802040897,417.997103393,418.79048545500007,418.78156173600007,418.782100795,418.79048545500007,418.79048545500007,418.79048545500007,419.17543064000006,,,,,,,,,,,,,,,,,,,,,,,,,,,,,,right,1.0,0.3797052899999471,,,,,,sub-125,1,random_dot,70.13385094546211,
right,right,56.0,0.0,28.0,left,0.0,0.4957221220000747,,speed,space,3.98050691200001,,,,,,0.0,1.0,1.0,1.0,28.0,0.0,56.0,1.0,419.184882025,,,,,,,,,419.175815615,419.270280483,420.064422861,420.054931397,420.055478657,420.064422861,420.064422861,420.064422861,420.571551454,,,,,,,,,,,,,,,,,,,,,,,,,,,,,,left,0.0,0.4957221220000747,,,,,,sub-125,1,random_dot,70.13385094546211,
left,left,57.0,1.0,28.0,right,0.0,0.5345285360000389,,speed,space,3.98050691200001,,,,,,0.0,1.0,1.0,1.0,28.0,1.0,57.0,0.0,420.580900441,,,,,,,,,420.5719906730001,420.67174151000006,421.47383600600006,421.464824101,421.465362204,421.47383600600006,421.47383600600006,421.47383600600006,422.015462934,,,,,,,,,,,,,,,,,,,,,,,,,,,,,,right,0.0,0.5345285360000389,,,,,,sub-125,1,random_dot,70.13385094546211,
left,left,58.0,0.0,29.0,right,0.0,0.5452390509999532,,speed,space,3.98050691200001,,,,,,0.0,1.0,1.0,1.0,29.0,0.0,58.0,0.0,422.022849695,,,,,,,,,422.015842085,423.213816922,424.0057344410001,423.997808362,423.998210117,424.0057344410001,424.0057344410001,424.0057344410001,424.559154811,,,,,,,,,,,,,,,,,,,,,,,,,,,,,,right,0.0,0.5452390509999532,,,,,,sub-125,1,random_dot,70.13385094546211,
right,right,59.0,1.0,29.0,left,0.0,0.4956979840000031,,speed,space,3.98050691200001,,,,,,0.0,1.0,1.0,1.0,29.0,1.0,59.0,1.0,424.56769706,,,,,,,,,424.559463406,424.903118593,425.69768503500006,425.688233297,425.688800939,425.69768503500006,425.69768503500006,425.69768503500006,426.204853547,,,,,,,,,,,,,,,,,,,,,,,,,,,,,,left,0.0,0.4956979840000031,,,,,,sub-125,1,random_dot,70.13385094546211,
,,1.0,1.0,0.0,,,,,speed,space,3.98050691200001,,,,,,0.0,1.0,1.0,1.0,,,,,,,,,,,,,,,,,,,,,,,,,,,,,,,,,,,,,,,,,,,,,,,,,,,,,,,,,,,,sub-125,1,random_dot,70.13385094546211,
,,,,,,,,,,,,,,,,,,,,,,,,,,,,,,,,,,,,,,,,,,,,,,,,,,,,,,,,,,,,,,,,,,,,,,,,,,,,426.21040317000006,426.22105737900006,431.213635687,431.20521274,sub-125,1,random_dot,70.13385094546211,
