wordCTK,colorCTK,corrAnsCTK,congruentCTK,thisN,thisTrialN,thisRepN,keyResp_CTK.keys,keyResp_CTK.corr,keyResp_CTK.rt,keyResp_CTK.duration,wordPractice,colorPractice,corrAnsPractice,congruentPractice,respPractice.keys,respPractice.corr,respPractice.rt,respPractice.duration,word,color,corrAns,congruent,keyResp_test_run.keys,keyResp_test_run.corr,keyResp_test_run.rt,keyResp_test_run.duration,trials_CTK.thisRepN,trials_CTK.thisTrialN,trials_CTK.thisN,trials_CTK.thisIndex,trials_practice.thisRepN,trials_practice.thisTrialN,trials_practice.thisN,trials_practice.thisIndex,trials_test.thisRepN,trials_test.thisTrialN,trials_test.thisN,trials_test.thisIndex,thisRow.t,notes,instruction.started,instr_text.started,instr_image.started,instr_resp.started,instruction.stopped,instr_resp.keys,instr_resp.rt,instr_resp.duration,instr_color_to_key.started,instr_ctk.started,resp_ctk.started,instr_color_to_key.stopped,resp_ctk.keys,resp_ctk.rt,resp_ctk.duration,ITI.started,fixcross.started,fixcross.stopped,ITI.stopped,color_to_key_run.started,stimulus_CTK.started,keyResp_CTK.started,color_to_key_run.stopped,trials_CTK.keyResp_CTK.keys,trials_CTK.keyResp_CTK.corr,trials_CTK.keyResp_CTK.rt,trials_CTK.keyResp_CTK.duration,instr_practice.started,instr_practice_text.started,instr_practice_resp.started,instr_practice.stopped,instr_practice_resp.keys,instr_practice_resp.rt,instr_practice_resp.duration,practice_run.started,stimulus_practice.started,respPractice.started,practice_run.stopped,trials_practice.respPractice.keys,trials_practice.respPractice.corr,trials_practice.respPractice.rt,trials_practice.respPractice.duration,feedback.started,textFeedback.started,feedback.stopped,textFeedback.stopped,instr_test.started,instr_test_text.started,instr_test_resp.started,instr_test.stopped,instr_test_resp.keys,instr_test_resp.rt,instr_test_resp.duration,test_run.started,stimulus_test_run.started,keyResp_test_run.started,test_run.stopped,trials_test.keyResp_test_run.keys,trials_test.keyResp_test_run.corr,trials_test.keyResp_test_run.rt,trials_test.keyResp_test_run.duration,goodbye.started,textGoodbye.started,textGoodbye.stopped,goodbye.stopped,participant,session,expName,frameRate,Unnamed: 113
,,,,,,,,,,,,,,,,,,,,,,,,,,,,,,,,,,,,,,,,,0.0077570829889737,0.013594040996395,0.013594040996395,0.013594040996395,11.097887290990911,space,11.047815415993682,,,,,,,,,,,,,,,,,,,,,,,,,,,,,,,,,,,,,,,,,,,,,,,,,,,,,,,,,,,sub-219,1,stroop_test,,
,,,,,,,,,,,,,,,,,,,,,,,,,,,,,,,,,,,,,,,,,,,,,,,,,11.097967832989523,11.126614665990928,11.126614665990928,21.276951874999213,space,10.129482500007724,,,,,,,,,,,,,,,,,,,,,,,,,,,,,,,,,,,,,,,,,,,,,,,,,,,,sub-219,1,stroop_test,,
test,yellow,g,1.0,0.0,0.0,0.0,g,1.0,10.658967499999562,,,,,,,,,,,,,,,,,,0.0,0.0,0.0,1.0,,,,,,,,,21.29286937500001,,,,,,,,,,,,,,,,,21.288593416000367,22.07904470799258,22.88166645799356,22.866826249999576,22.874958874992444,22.88166645799356,22.88166645799356,33.55163837499276,g,1.0,10.658967499999562,,,,,,,,,,,,,,,,,,,,,,,,,,,,,,,,,,,,,,,,sub-219,1,stroop_test,,
test,blue,b,1.0,1.0,1.0,0.0,b,1.0,1.577203125008964,,,,,,,,,,,,,,,,,,0.0,1.0,1.0,2.0,,,,,,,,,33.562771915996564,,,,,,,,,,,,,,,,,33.55241345799004,34.349415457996656,35.14063233300112,35.1335298329941,35.13442579099501,35.14063233300112,35.14063233300112,36.7235202909942,b,1.0,1.577203125008964,,,,,,,,,,,,,,,,,,,,,,,,,,,,,,,,,,,,,,,,sub-219,1,stroop_test,,
test,red,r,1.0,2.0,2.0,0.0,r,1.0,1.4842280830052914,,,,,,,,,,,,,,,,,,0.0,2.0,2.0,0.0,,,,,,,,,36.73436699999729,,,,,,,,,,,,,,,,,36.72401533299126,37.5213383329974,38.31569079098699,38.305441749995225,38.30601137499616,38.31569079098699,38.31569079098699,39.8019677909906,r,1.0,1.4842280830052914,,,,,,,,,,,,,,,,,,,,,,,,,,,,,,,,,,,,,,,,sub-219,1,stroop_test,,
test,yellow,g,1.0,3.0,0.0,1.0,g,1.0,0.6454503329878207,,,,,,,,,,,,,,,,,,1.0,0.0,3.0,1.0,,,,,,,,,39.80994141599513,,,,,,,,,,,,,,,,,39.80263429098704,40.99947262500064,41.79049004099216,41.783585999990464,41.78421283299394,41.79049004099216,41.79049004099216,42.43953666598827,g,1.0,0.6454503329878207,,,,,,,,,,,,,,,,,,,,,,,,,,,,,,,,,,,,,,,,sub-219,1,stroop_test,,
test,red,r,1.0,4.0,1.0,1.0,r,1.0,0.7613323330006097,,,,,,,,,,,,,,,,,,1.0,1.0,4.0,0.0,,,,,,,,,42.44840887498867,,,,,,,,,,,,,,,,,42.43999816599535,42.78875970799709,43.582743249993655,43.57217962499999,43.57275037499494,43.582743249993655,43.582743249993655,44.35150104099012,r,1.0,0.7613323330006097,,,,,,,,,,,,,,,,,,,,,,,,,,,,,,,,,,,,,,,,sub-219,1,stroop_test,,
test,blue,b,1.0,5.0,2.0,1.0,b,1.0,1.838376959000016,,,,,,,,,,,,,,,,,,1.0,2.0,5.0,2.0,,,,,,,,,44.36071749999246,,,,,,,,,,,,,,,,,44.35217095799453,44.69937504098925,45.49008608299482,45.483359249992645,45.48400408298767,45.49008608299482,45.49008608299482,47.33495545799087,b,1.0,1.838376959000016,,,,,,,,,,,,,,,,,,,,,,,,,,,,,,,,,,,,,,,,sub-219,1,stroop_test,,
test,red,r,1.0,6.0,0.0,2.0,r,1.0,0.9198625840072054,,,,,,,,,,,,,,,,,,2.0,0.0,6.0,0.0,,,,,,,,,47.34490233298857,,,,,,,,,,,,,,,,,47.33572008299234,47.43273020799097,48.22351008300029,48.21657358299126,48.21735087499837,48.22351008300029,48.22351008300029,49.151269207999576,r,1.0,0.9198625840072054,,,,,,,,,,,,,,,,,,,,,,,,,,,,,,,,,,,,,,,,sub-219,1,stroop_test,,
test,yellow,g,1.0,7.0,1.0,2.0,g,1.0,0.9238794999982928,,,,,,,,,,,,,,,,,,2.0,1.0,7.0,1.0,,,,,,,,,49.16077429099823,,,,,,,,,,,,,,,,,49.15186299999186,50.3492965829937,51.13988270799746,51.13318558299216,51.13381954099168,51.13988270799746,51.13988270799746,52.06797862499661,g,1.0,0.9238794999982928,,,,,,,,,,,,,,,,,,,,,,,,,,,,,,,,,,,,,,,,sub-219,1,stroop_test,,
test,blue,b,1.0,8.0,2.0,2.0,b,1.0,1.4870711249968736,,,,,,,,,,,,,,,,,,2.0,2.0,8.0,2.0,,,,,,,,,52.07755716599058,,,,,,,,,,,,,,,,,52.06862229100079,53.26586362499802,54.05673862498952,54.05011658299191,54.050662665991695,54.05673862498952,54.05673862498952,55.55132945798687,b,1.0,1.4870711249968736,,,,,,,,,,,,,,,,,,,,,,,,,,,,,,,,,,,,,,,,sub-219,1,stroop_test,,
test,yellow,g,1.0,9.0,0.0,3.0,g,1.0,1.031961083994247,,,,,,,,,,,,,,,,,,3.0,0.0,9.0,1.0,,,,,,,,,55.56246766599361,,,,,,,,,,,,,,,,,55.55196466599591,56.349050290999,57.14003887498984,57.133235957997385,57.13387604099989,57.14003887498984,57.14003887498984,58.174192040998605,g,1.0,1.031961083994247,,,,,,,,,,,,,,,,,,,,,,,,,,,,,,,,,,,,,,,,sub-219,1,stroop_test,,
test,blue,b,1.0,10.0,1.0,3.0,b,1.0,0.9851846669916996,,,,,,,,,,,,,,,,,,3.0,1.0,10.0,2.0,,,,,,,,,58.184771540996735,,,,,,,,,,,,,,,,,58.17493037499662,59.37102799999411,60.166023165991646,60.1552812079899,60.15585120799369,60.166023165991646,60.166023165991646,61.15717720799148,b,1.0,0.9851846669916996,,,,,,,,,,,,,,,,,,,,,,,,,,,,,,,,,,,,,,,,sub-219,1,stroop_test,,
test,red,r,1.0,11.0,2.0,3.0,r,1.0,0.8674802919995273,,,,,,,,,,,,,,,,,,3.0,2.0,11.0,0.0,,,,,,,,,61.16778733298997,,,,,,,,,,,,,,,,,61.15770320799493,61.50475395799731,62.29921845799254,62.28834591599298,62.28893754098681,62.29921845799254,62.29921845799254,63.18050049999147,r,1.0,0.8674802919995273,,,,,,,,,,,,,,,,,,,,,,,,,,,,,,,,,,,,,,,,sub-219,1,stroop_test,,
,,,,,,,,,,,,,,,,,,,,,,,,,,,,,,,,,,,,,,,,,,,,,,,,,,,,,,,,,,,,,,,,,,,,63.18068749998929,63.18739162498969,63.18739162498969,69.05131304099632,space,5.860091916008969,,,,,,,,,,,,,,,,,,,,,,,,,,,,,,,,,sub-219,1,stroop_test,,
,,,,0.0,0.0,0.0,,,,,blau,yellow,g,0.0,g,1.0,1.963180625010864,,,,,,,,,,,,,,0.0,0.0,0.0,7.0,,,,,69.07392858299136,,,,,,,,,,,,,,,,,69.06706862499414,70.24950054098736,71.04855574999237,71.03336420799315,,,,,,,,,,,,,,,,71.04216724999424,71.04855574999237,71.04855574999237,73.01784904098895,g,1.0,1.963180625010864,,73.03025570799946,73.03816441599338,74.0213956249936,,,,,,,,,,,,,,,,,,,,,sub-219,1,stroop_test,,
,,,,1.0,1.0,0.0,,,,,gelb,yellow,g,1.0,g,1.0,1.1895023329998369,,,,,,,,,,,,,,0.0,1.0,1.0,10.0,,,,,74.03254212498723,,,,,,,,,,,,,,,,,74.02184504098841,74.8158170409879,75.61027374998957,75.59991591599828,,,,,,,,,,,,,,,,75.60395612499269,75.61027374998957,75.61027374998957,76.81138291599927,g,1.0,1.1895023329998369,,76.81196649999765,76.81794949999312,77.80504258300061,77.81574854099017,,,,,,,,,,,,,,,,,,,,sub-219,1,stroop_test,,
,,,,2.0,2.0,0.0,,,,,rot,blue,b,0.0,b,1.0,0.9760378330101958,,,,,,,,,,,,,,0.0,2.0,2.0,2.0,,,,,77.81574854099017,,,,,,,,,,,,,,,,,77.80544483299309,78.15594766598952,78.9626128749951,78.94992383298813,,,,,,,,,,,,,,,,78.95583204099967,78.9626128749951,78.9626128749951,79.94975745798729,b,1.0,0.9760378330101958,,79.9504489999963,79.9563865409873,80.95002445799764,80.95533824998711,,,,,,,,,,,,,,,,,,,,sub-219,1,stroop_test,,
,,,,3.0,3.0,0.0,,,,,rot,red,r,1.0,r,1.0,1.139152458999888,,,,,,,,,,,,,,0.0,3.0,3.0,0.0,,,,,80.95533824998711,,,,,,,,,,,,,,,,,80.95057879098749,81.28867075000016,82.08237704099156,82.07190733299649,,,,,,,,,,,,,,,,82.07247654099774,82.08237704099156,82.08237704099156,83.22371033299714,r,1.0,1.139152458999888,,83.2245297079935,83.23440920798748,84.22187695799221,84.23257962499338,,,,,,,,,,,,,,,,,,,,sub-219,1,stroop_test,,
,,,,4.0,4.0,0.0,,,,,gelb,yellow,g,1.0,g,1.0,0.8093167500046548,,,,,,,,,,,,,,0.0,4.0,4.0,11.0,,,,,84.23257962499338,,,,,,,,,,,,,,,,,84.22229295798752,84.57119070799672,85.36494174999825,85.35505837498931,,,,,,,,,,,,,,,,85.3586857909977,85.36494174999825,85.36494174999825,86.1842760409927,g,1.0,0.8093167500046548,,86.18508445798943,86.19530579099956,87.18335204100003,87.18828799999028,,,,,,,,,,,,,,,,,,,,sub-219,1,stroop_test,,
,,,,5.0,5.0,0.0,,,,,gelb,red,r,0.0,r,1.0,1.1598409590078518,,,,,,,,,,,,,,0.0,5.0,5.0,8.0,,,,,87.18828799999028,,,,,,,,,,,,,,,,,87.18387070798781,88.38246529099706,89.17391299999144,89.16674716598936,,,,,,,,,,,,,,,,89.1673836659902,89.17391299999144,89.17391299999144,90.33950220799306,r,1.0,1.1598409590078518,,90.3402979579987,90.35118833299202,91.3377759159921,91.34908266599814,,,,,,,,,,,,,,,,,,,,sub-219,1,stroop_test,,
,,,,6.0,6.0,0.0,,,,,gelb,blue,b,0.0,b,1.0,0.8379636669997126,,,,,,,,,,,,,,0.0,6.0,6.0,9.0,,,,,91.34908266599814,,,,,,,,,,,,,,,,,91.3381832909945,91.68797145799908,92.49006579098932,92.48315091599945,,,,,,,,,,,,,,,,92.48389020799368,92.49006579098932,92.49006579098932,93.3344333749992,b,1.0,0.8379636669997126,,93.33532116599964,93.34594091599864,94.33336787499138,94.3385644999944,,,,,,,,,,,,,,,,,,,,sub-219,1,stroop_test,,
,,,,7.0,7.0,0.0,,,,,blau,blue,b,1.0,b,1.0,1.0694004580000185,,,,,,,,,,,,,,0.0,7.0,7.0,5.0,,,,,94.3385644999944,,,,,,,,,,,,,,,,,94.3339106659987,94.68232829098996,95.47726191599212,95.46654279099312,,,,,,,,,,,,,,,,95.47081858299498,95.47726191599212,95.47726191599212,96.55131220800104,b,1.0,1.0694004580000185,,96.5523526659963,96.56326016598904,97.54977420798969,97.5546053750004,,,,,,,,,,,,,,,,,,,,sub-219,1,stroop_test,,
,,,,8.0,8.0,0.0,,,,,rot,yellow,g,0.0,g,1.0,1.3054280000069411,,,,,,,,,,,,,,0.0,8.0,8.0,3.0,,,,,97.5546053750004,,,,,,,,,,,,,,,,,97.5502114159899,98.34915554100009,99.14458595799806,99.13305779099755,,,,,,,,,,,,,,,,99.13779462499951,99.14458595799806,99.14458595799806,100.46110549999868,g,1.0,1.3054280000069411,,100.46187387499958,100.4678174159926,101.45427291598752,101.46574683299696,,,,,,,,,,,,,,,,,,,,sub-219,1,stroop_test,,
,,,,9.0,9.0,0.0,,,,,blau,red,r,0.0,r,1.0,0.9399521250015824,,,,,,,,,,,,,,0.0,9.0,9.0,4.0,,,,,101.46574683299696,,,,,,,,,,,,,,,,,101.45467804098736,101.55458474998886,102.359900749987,102.34958416598964,,,,,,,,,,,,,,,,102.35346841599676,102.359900749987,102.359900749987,103.3124195829878,r,1.0,0.9399521250015824,,103.31304850000016,103.31839858299644,104.30513183299628,104.31564333300048,,,,,,,,,,,,,,,,,,,,sub-219,1,stroop_test,,
,,,,10.0,10.0,0.0,,,,,rot,red,r,1.0,r,1.0,0.9550201250094688,,,,,,,,,,,,,,0.0,10.0,10.0,1.0,,,,,104.31564333300048,,,,,,,,,,,,,,,,,104.305538332992,105.10442541599332,105.89814962499077,105.88812212499032,,,,,,,,,,,,,,,,105.89165608299663,105.89814962499077,105.89814962499077,106.85538799999632,r,1.0,0.9550201250094688,,106.85611724999036,106.86514758299744,107.84971966598825,107.85492708299716,,,,,,,,,,,,,,,,,,,,sub-219,1,stroop_test,,
,,,,11.0,11.0,0.0,,,,,blau,blue,b,1.0,b,1.0,0.7720866669988027,,,,,,,,,,,,,,0.0,11.0,11.0,6.0,,,,,107.85492708299716,,,,,,,,,,,,,,,,,107.85028408298967,108.65562383299402,109.46085287499592,109.44983033298922,,,,,,,,,,,,,,,,109.45433783299814,109.46085287499592,109.46085287499592,110.24558599999,b,1.0,0.7720866669988027,,110.24615183299466,110.251383040988,111.23787941598856,111.2490357909992,,,,,,,,,,,,,,,,,,,,sub-219,1,stroop_test,,
,,,,12.0,0.0,1.0,,,,,blau,yellow,g,0.0,g,1.0,0.7773665830027312,,,,,,,,,,,,,,1.0,0.0,12.0,7.0,,,,,111.2490357909992,,,,,,,,,,,,,,,,,111.23830699999236,111.33712937499511,112.1322285829956,112.12178762500116,,,,,,,,,,,,,,,,112.12235845800024,112.1322285829956,112.1322285829956,112.9174655409879,g,1.0,0.7773665830027312,,112.9182964579959,112.92947566599469,113.91637379099848,113.92154349999328,,,,,,,,,,,,,,,,,,,,sub-219,1,stroop_test,,
,,,,13.0,1.0,1.0,,,,,blau,red,r,0.0,r,1.0,0.9426734169974224,,,,,,,,,,,,,,1.0,1.0,13.0,4.0,,,,,113.92154349999328,,,,,,,,,,,,,,,,,113.91689629098984,114.26560774999962,115.0572905829904,115.04989929099976,,,,,,,,,,,,,,,,115.05065483300132,115.0572905829904,115.0572905829904,116.01195333299984,r,1.0,0.9426734169974224,,116.01265258299829,116.01833991598689,117.00494733300002,117.01556816599624,,,,,,,,,,,,,,,,,,,,sub-219,1,stroop_test,,
,,,,14.0,2.0,1.0,,,,,rot,red,r,1.0,r,1.0,1.2964526249998016,,,,,,,,,,,,,,1.0,2.0,14.0,1.0,,,,,117.01556816599624,,,,,,,,,,,,,,,,,117.00535666599173,118.20365199999652,119.01540349998686,118.98834208300104,,,,,,,,,,,,,,,,118.99213983298978,119.01540349998686,119.01540349998686,120.317914165993,r,1.0,1.2964526249998016,,120.31890520799789,120.32975095800066,121.31652649999889,121.32140508299926,,,,,,,,,,,,,,,,,,,,sub-219,1,stroop_test,,
,,,,15.0,3.0,1.0,,,,,gelb,yellow,g,1.0,g,1.0,1.242543750006007,,,,,,,,,,,,,,1.0,3.0,15.0,10.0,,,,,121.32140508299926,,,,,,,,,,,,,,,,,121.31705425000108,121.41580183299084,122.21070937499462,122.19974724999338,,,,,,,,,,,,,,,,122.20432337500095,122.21070937499462,122.21070937499462,123.4562007499917,g,1.0,1.242543750006007,,123.45694208299392,123.46755449999182,124.45497583299584,124.46554095800091,,,,,,,,,,,,,,,,,,,,sub-219,1,stroop_test,,
,,,,16.0,4.0,1.0,,,,,gelb,yellow,g,1.0,g,1.0,0.8388505420007277,,,,,,,,,,,,,,1.0,4.0,16.0,11.0,,,,,124.46554095800091,,,,,,,,,,,,,,,,,124.4553858750005,125.654266499987,126.44793070798914,126.43829449999612,,,,,,,,,,,,,,,,126.438867416,126.44793070798914,126.44793070798914,127.29004883299058,g,1.0,0.8388505420007277,,127.29078283299168,127.30242554099824,128.288120540994,128.29898516599496,,,,,,,,,,,,,,,,,,,,sub-219,1,stroop_test,,
,,,,17.0,5.0,1.0,,,,,rot,blue,b,0.0,b,1.0,1.6012927919946378,,,,,,,,,,,,,,1.0,5.0,17.0,2.0,,,,,128.29898516599496,,,,,,,,,,,,,,,,,128.2885354579921,128.63815699999395,129.4313341659872,129.421183457991,,,,,,,,,,,,,,,,129.42480799999612,129.4313341659872,129.4313341659872,131.04510166599357,b,1.0,1.6012927919946378,,131.0456565409986,131.05081491598685,132.03729499998735,132.04880045799655,,,,,,,,,,,,,,,,,,,,sub-219,1,stroop_test,,
,,,,18.0,6.0,1.0,,,,,rot,yellow,g,0.0,g,1.0,0.8890824580012122,,,,,,,,,,,,,,1.0,6.0,18.0,3.0,,,,,132.04880045799655,,,,,,,,,,,,,,,,,132.03771333298937,132.8381824579992,133.6321437079896,133.62157445799676,,,,,,,,,,,,,,,,133.6221617909905,133.6321437079896,133.6321437079896,134.52342987500015,g,1.0,0.8890824580012122,,134.52420058299322,134.5361506659974,135.52176466598758,135.53223199999775,,,,,,,,,,,,,,,,,,,,sub-219,1,stroop_test,,
,,,,19.0,7.0,1.0,,,,,rot,red,r,1.0,r,1.0,0.8638215420069173,,,,,,,,,,,,,,1.0,7.0,19.0,0.0,,,,,135.53223199999775,,,,,,,,,,,,,,,,,135.52219324999896,135.62095062498702,136.42244920799567,136.41598091599008,,,,,,,,,,,,,,,,136.41657391599438,136.42244920799567,136.42244920799567,137.2890788329969,r,1.0,0.8638215420069173,,137.28981704098987,137.30040891599492,138.28814254098688,138.2988171659963,,,,,,,,,,,,,,,,,,,,sub-219,1,stroop_test,,
,,,,20.0,8.0,1.0,,,,,blau,blue,b,1.0,b,1.0,1.024939875002019,,,,,,,,,,,,,,1.0,8.0,20.0,5.0,,,,,138.2988171659963,,,,,,,,,,,,,,,,,138.28856649999216,138.38694299999042,139.18164270799025,139.17161066598783,,,,,,,,,,,,,,,,139.1753517499892,139.18164270799025,139.18164270799025,140.2174507079908,b,1.0,1.024939875002019,,140.21839850000106,140.22975020798913,141.21621829099604,141.22144895799283,,,,,,,,,,,,,,,,,,,,sub-219,1,stroop_test,,
,,,,21.0,9.0,1.0,,,,,blau,blue,b,1.0,b,1.0,0.6766649999917718,,,,,,,,,,,,,,1.0,9.0,21.0,6.0,,,,,141.22144895799283,,,,,,,,,,,,,,,,,141.21675404100097,141.31558958299863,142.1061074159952,142.09939274999488,,,,,,,,,,,,,,,,142.09999349999998,142.1061074159952,142.1061074159952,142.79541191599856,b,1.0,0.6766649999917718,,142.7960313329968,142.80138533299032,143.7881469159911,143.79880474999663,,,,,,,,,,,,,,,,,,,,sub-219,1,stroop_test,,
,,,,22.0,10.0,1.0,,,,,gelb,blue,b,0.0,b,1.0,1.72200958301255,,,,,,,,,,,,,,1.0,10.0,22.0,9.0,,,,,143.79880474999663,,,,,,,,,,,,,,,,,143.7885852499894,144.58782999998948,145.38117599999532,145.37118154099153,,,,,,,,,,,,,,,,145.37484604099882,145.38117599999532,145.38117599999532,147.1059291249985,b,1.0,1.72200958301255,,147.10722399999213,147.11644420798984,148.10492524999427,148.1153269159986,,,,,,,,,,,,,,,,,,,,sub-219,1,stroop_test,,
,,,,23.0,11.0,1.0,,,,,gelb,red,r,0.0,r,1.0,1.1338207079970744,,,,,,,,,,,,,,1.0,11.0,23.0,8.0,,,,,148.1153269159986,,,,,,,,,,,,,,,,,148.10543883299397,148.19894870799908,148.99018399999477,148.9830230410007,,,,,,,,,,,,,,,,148.98379824998847,148.99018399999477,148.99018399999477,150.1342949999962,r,1.0,1.1338207079970744,,150.13528374998714,150.14586704099202,151.13281079099397,151.14039412498823,,,,,,,,,,,,,,,,,,,,sub-219,1,stroop_test,,
,,,,,,,,,,,,,,,,,,,,,,,,,,,,,,,,,,,,,,,,,,,,,,,,,,,,,,,,,,,,,,,,,,,,,,,,,,,,,,,,,,,,,,,151.1330276249937,151.14039412498823,151.14039412498823,158.75060641599703,space,7.604814124992117,,,,,,,,,,,,,,sub-219,1,stroop_test,,
,,,,0.0,0.0,0.0,,,,,,,,,,,,,rot,red,r,1.0,r,1.0,0.8927696669998113,,,,,,,,,,0.0,0.0,0.0,1.0,158.7745351659978,,,,,,,,,,,,,,,,,158.76823237499048,159.54890399999567,160.3460031249997,160.33276274999662,,,,,,,,,,,,,,,,,,,,,,,,,,,,,,,,,,,160.33831941599783,160.3460031249997,160.3460031249997,161.25050212499627,r,1.0,0.8927696669998113,,,,,,sub-219,1,stroop_test,,
,,,,1.0,1.0,0.0,,,,,,,,,,,,,rot,red,r,1.0,r,1.0,0.6016323750081938,,,,,,,,,,0.0,1.0,1.0,0.0,161.25993474999268,,,,,,,,,,,,,,,,,161.25114754099923,161.59868854099477,162.38996449999104,162.38271654098935,,,,,,,,,,,,,,,,,,,,,,,,,,,,,,,,,,,162.38345287500124,162.38996449999104,162.38996449999104,163.00062420799804,r,1.0,0.6016323750081938,,,,,,sub-219,1,stroop_test,,
,,,,2.0,2.0,0.0,,,,,,,,,,,,,gelb,yellow,g,1.0,g,1.0,0.884218958002748,,,,,,,,,,0.0,2.0,2.0,11.0,163.0100778749911,,,,,,,,,,,,,,,,,163.00123937499302,163.09852812498866,163.89317691599717,163.88261074999173,,,,,,,,,,,,,,,,,,,,,,,,,,,,,,,,,,,163.88664058299037,163.89317691599717,163.89317691599717,164.78384216599807,g,1.0,0.884218958002748,,,,,,sub-219,1,stroop_test,,
,,,,3.0,3.0,0.0,,,,,,,,,,,,,blau,blue,b,1.0,b,1.0,2.737187332997564,,,,,,,,,,0.0,3.0,3.0,5.0,164.79338612499123,,,,,,,,,,,,,,,,,164.78450087500096,165.9819089579978,166.77632999999332,166.7659597499878,,,,,,,,,,,,,,,,,,,,,,,,,,,,,,,,,,,166.76990608299093,166.77632999999332,166.77632999999332,169.51723495799524,b,1.0,2.737187332997564,,,,,,sub-219,1,stroop_test,,
,,,,4.0,4.0,0.0,,,,,,,,,,,,,gelb,red,r,0.0,r,1.0,1.4234665830008453,,,,,,,,,,0.0,4.0,4.0,8.0,169.5265264579939,,,,,,,,,,,,,,,,,169.5178812499944,170.71525870799087,171.51057587499963,171.4995020829956,,,,,,,,,,,,,,,,,,,,,,,,,,,,,,,,,,,171.5040394159878,171.51057587499963,171.51057587499963,172.9399875409872,r,1.0,1.4234665830008453,,,,,,sub-219,1,stroop_test,,
,,,,5.0,5.0,0.0,,,,,,,,,,,,,rot,blue,b,0.0,b,1.0,1.2377691250003409,,,,,,,,,,0.0,5.0,5.0,2.0,172.95032295800047,,,,,,,,,,,,,,,,,172.94054933299776,173.28779545798898,174.08339191599225,174.07150933299272,,,,,,,,,,,,,,,,,,,,,,,,,,,,,,,,,,,174.07581962499535,174.08339191599225,174.08339191599225,175.33289887499996,b,1.0,1.2377691250003409,,,,,,sub-219,1,stroop_test,,
,,,,6.0,6.0,0.0,,,,,,,,,,,,,blau,blue,b,1.0,b,1.0,0.9393994159909198,,,,,,,,,,0.0,6.0,6.0,6.0,175.34036887499678,,,,,,,,,,,,,,,,,175.33345566599746,176.1212307909882,176.91467408298922,176.90441454100073,,,,,,,,,,,,,,,,,,,,,,,,,,,,,,,,,,,176.90818908299843,176.91467408298922,176.91467408298922,177.8561989999871,b,1.0,0.9393994159909198,,,,,,sub-219,1,stroop_test,,
,,,,7.0,7.0,0.0,,,,,,,,,,,,,gelb,blue,b,0.0,g,0.0,1.171522457996616,,,,,,,,,,0.0,7.0,7.0,9.0,177.86695366598724,,,,,,,,,,,,,,,,,177.85695683299855,179.0545689159917,179.86509954099893,179.8377639579994,,,,,,,,,,,,,,,,,,,,,,,,,,,,,,,,,,,179.84269037499325,179.86509954099893,179.86509954099893,181.039585874998,g,0.0,1.171522457996616,,,,,,sub-219,1,stroop_test,,
,,,,8.0,8.0,0.0,,,,,,,,,,,,,blau,yellow,g,0.0,g,1.0,1.1639662500092527,,,,,,,,,,0.0,8.0,8.0,7.0,181.0503547499975,,,,,,,,,,,,,,,,,181.0401546659996,181.8381920829997,182.64383208299117,182.6329224579968,,,,,,,,,,,,,,,,,,,,,,,,,,,,,,,,,,,182.63750670799345,182.64383208299117,182.64383208299117,183.8171745409927,g,1.0,1.1639662500092527,,,,,,sub-219,1,stroop_test,,
,,,,9.0,9.0,0.0,,,,,,,,,,,,,gelb,yellow,g,1.0,g,1.0,1.2982574160123477,,,,,,,,,,0.0,9.0,9.0,10.0,183.8279775409901,,,,,,,,,,,,,,,,,183.81787904098744,183.91533654098748,184.70997545799764,184.69893583298835,,,,,,,,,,,,,,,,,,,,,,,,,,,,,,,,,,,184.70345649999217,184.70997545799764,184.70997545799764,186.01711324999636,g,1.0,1.2982574160123477,,,,,,sub-219,1,stroop_test,,
,,,,10.0,10.0,0.0,,,,,,,,,,,,,blau,red,r,0.0,r,1.0,1.1714750829996774,,,,,,,,,,0.0,10.0,10.0,4.0,186.02811299999303,,,,,,,,,,,,,,,,,186.01784520799995,186.81532070798855,187.61046499999065,187.59934466599952,,,,,,,,,,,,,,,,,,,,,,,,,,,,,,,,,,,187.60388487498855,187.61046499999065,187.61046499999065,188.7845438329969,r,1.0,1.1714750829996774,,,,,,sub-219,1,stroop_test,,
,,,,11.0,11.0,0.0,,,,,,,,,,,,,rot,yellow,g,0.0,g,1.0,2.162263666003128,,,,,,,,,,0.0,11.0,11.0,3.0,188.79527762498765,,,,,,,,,,,,,,,,,188.7853592499887,189.1320950829977,189.9266716659913,189.9158812079986,,,,,,,,,,,,,,,,,,,,,,,,,,,,,,,,,,,189.92010191599547,189.9266716659913,189.9266716659913,192.10043891599344,g,1.0,2.162263666003128,,,,,,sub-219,1,stroop_test,,
,,,,12.0,0.0,1.0,,,,,,,,,,,,,blau,yellow,g,0.0,g,1.0,1.1057658750069097,,,,,,,,,,1.0,0.0,12.0,7.0,192.11094679099915,,,,,,,,,,,,,,,,,192.101057915992,192.89848074999463,193.6934216249938,193.68266654098989,,,,,,,,,,,,,,,,,,,,,,,,,,,,,,,,,,,193.6869273749908,193.6934216249938,193.6934216249938,194.8129072499869,g,1.0,1.1057658750069097,,,,,,sub-219,1,stroop_test,,
,,,,13.0,1.0,1.0,,,,,,,,,,,,,gelb,blue,b,0.0,b,1.0,2.202497374993982,,,,,,,,,,1.0,1.0,13.0,9.0,194.8164469159965,,,,,,,,,,,,,,,,,194.81332666600065,195.60485624999276,196.4101845409896,196.39914837499964,,,,,,,,,,,,,,,,,,,,,,,,,,,,,,,,,,,196.4036118749937,196.4101845409896,196.4101845409896,198.6174513750011,b,1.0,2.202497374993982,,,,,,sub-219,1,stroop_test,,
,,,,14.0,2.0,1.0,,,,,,,,,,,,,blau,blue,b,1.0,b,1.0,0.7542929159972118,,,,,,,,,,1.0,2.0,14.0,5.0,198.6286152909888,,,,,,,,,,,,,,,,,198.61839491598948,199.81509758299217,200.6117820829968,200.59930016599537,,,,,,,,,,,,,,,,,,,,,,,,,,,,,,,,,,,200.60530120799376,200.6117820829968,200.6117820829968,201.3780370829918,b,1.0,0.7542929159972118,,,,,,sub-219,1,stroop_test,,
,,,,15.0,3.0,1.0,,,,,,,,,,,,,gelb,yellow,g,1.0,g,1.0,1.109142042012536,,,,,,,,,,1.0,3.0,15.0,10.0,201.3834370830009,,,,,,,,,,,,,,,,,201.3785536659998,201.72063841599447,202.51458941599407,202.504625415997,,,,,,,,,,,,,,,,,,,,,,,,,,,,,,,,,,,202.50833254099416,202.51458941599407,202.51458941599407,203.6336602499941,g,1.0,1.109142042012536,,,,,,sub-219,1,stroop_test,,
,,,,16.0,4.0,1.0,,,,,,,,,,,,,blau,blue,b,1.0,b,1.0,2.197828500007745,,,,,,,,,,1.0,4.0,16.0,6.0,203.6443769579928,,,,,,,,,,,,,,,,,203.63428399999972,204.431726625,205.22706495798772,205.21589458298692,,,,,,,,,,,,,,,,,,,,,,,,,,,,,,,,,,,205.22056583299127,205.22706495798772,205.22706495798772,207.4337180829898,b,1.0,2.197828500007745,,,,,,sub-219,1,stroop_test,,
,,,,17.0,5.0,1.0,,,,,,,,,,,,,rot,yellow,g,0.0,g,1.0,1.1740475829865318,,,,,,,,,,1.0,5.0,17.0,3.0,207.44434520800127,,,,,,,,,,,,,,,,,207.43435666599544,208.6316664999904,209.42701179099092,209.41576291598903,,,,,,,,,,,,,,,,,,,,,,,,,,,,,,,,,,,209.42002854098973,209.42701179099092,209.42701179099092,210.606260665998,g,1.0,1.1740475829865318,,,,,,sub-219,1,stroop_test,,
,,,,18.0,6.0,1.0,,,,,,,,,,,,,rot,red,r,1.0,r,1.0,1.5670350000000326,,,,,,,,,,1.0,6.0,18.0,1.0,210.617087540988,,,,,,,,,,,,,,,,,210.60683783299464,211.40493954099657,212.2055172499968,212.1990417909983,,,,,,,,,,,,,,,,,,,,,,,,,,,,,,,,,,,212.19963058299615,212.2055172499968,212.2055172499968,213.78351529099743,r,1.0,1.5670350000000326,,,,,,sub-219,1,stroop_test,,
,,,,19.0,7.0,1.0,,,,,,,,,,,,,rot,red,r,1.0,r,1.0,0.8958354999922449,,,,,,,,,,1.0,7.0,19.0,0.0,213.7940705410001,,,,,,,,,,,,,,,,,213.78410745799192,214.1317238749907,214.92278887498836,214.91581158299232,,,,,,,,,,,,,,,,,,,,,,,,,,,,,,,,,,,214.9165486249985,214.92278887498836,214.92278887498836,215.82225870799448,r,1.0,0.8958354999922449,,,,,,sub-219,1,stroop_test,,
,,,,20.0,8.0,1.0,,,,,,,,,,,,,gelb,red,r,0.0,r,1.0,1.1474852910032496,,,,,,,,,,1.0,8.0,20.0,8.0,215.8332213749964,,,,,,,,,,,,,,,,,215.82281108299503,216.1715759579965,216.9780072499998,216.9663253329927,,,,,,,,,,,,,,,,,,,,,,,,,,,,,,,,,,,216.97143541599507,216.9780072499998,216.9780072499998,218.1334644999879,r,1.0,1.1474852910032496,,,,,,sub-219,1,stroop_test,,
,,,,21.0,9.0,1.0,,,,,,,,,,,,,gelb,yellow,g,1.0,g,1.0,0.9323215830081608,,,,,,,,,,1.0,9.0,21.0,11.0,218.14364024999668,,,,,,,,,,,,,,,,,218.13407262499092,219.33156254098867,220.11872729098832,220.11457058299857,,,,,,,,,,,,,,,,,,,,,,,,,,,,,,,,,,,220.1150077499915,220.11872729098832,220.11872729098832,221.05571187500027,g,1.0,0.9323215830081608,,,,,,sub-219,1,stroop_test,,
,,,,22.0,10.0,1.0,,,,,,,,,,,,,blau,red,r,0.0,r,1.0,0.7632224590051919,,,,,,,,,,1.0,10.0,22.0,4.0,221.0670012079936,,,,,,,,,,,,,,,,,221.0564388329949,221.4035270829918,222.19695791599224,222.1871191249957,,,,,,,,,,,,,,,,,,,,,,,,,,,,,,,,,,,222.1907907909917,222.19695791599224,222.19695791599224,222.9669742080005,r,1.0,0.7632224590051919,,,,,,sub-219,1,stroop_test,,
,,,,23.0,11.0,1.0,,,,,,,,,,,,,rot,blue,b,0.0,b,1.0,1.305876124999486,,,,,,,,,,1.0,11.0,23.0,2.0,222.9758449999936,,,,,,,,,,,,,,,,,222.9675616659952,223.0650710829941,223.86116733298692,223.84912949999853,,,,,,,,,,,,,,,,,,,,,,,,,,,,,,,,,,,223.85453399999824,223.86116733298692,223.86116733298692,225.17258537499583,b,1.0,1.305876124999486,,,,,,sub-219,1,stroop_test,,
,,,,24.0,0.0,2.0,,,,,,,,,,,,,rot,red,r,1.0,r,1.0,1.4146632500051055,,,,,,,,,,2.0,0.0,24.0,1.0,225.18299512499647,,,,,,,,,,,,,,,,,225.1731610829884,226.37086991599065,227.16498391599453,227.1549152499938,,,,,,,,,,,,,,,,,,,,,,,,,,,,,,,,,,,227.1555085,227.16498391599453,227.16498391599453,228.58361408299243,r,1.0,1.4146632500051055,,,,,,sub-219,1,stroop_test,,
,,,,25.0,1.0,2.0,,,,,,,,,,,,,blau,red,r,0.0,r,1.0,1.4390273330063792,,,,,,,,,,2.0,1.0,25.0,4.0,228.5936600829882,,,,,,,,,,,,,,,,,228.5842885829916,229.78167124999163,230.57675558299525,230.5656164999964,,,,,,,,,,,,,,,,,,,,,,,,,,,,,,,,,,,230.57018808298744,230.57675558299525,230.57675558299525,232.0273759579868,r,1.0,1.4390273330063792,,,,,,sub-219,1,stroop_test,,
,,,,26.0,2.0,2.0,,,,,,,,,,,,,gelb,yellow,g,1.0,g,1.0,1.161764457996469,,,,,,,,,,2.0,2.0,26.0,11.0,232.03306779099512,,,,,,,,,,,,,,,,,232.0278795829945,233.22024137499105,234.01439641599427,234.00389662499947,,,,,,,,,,,,,,,,,,,,,,,,,,,,,,,,,,,234.0076183749916,234.01439641599427,234.01439641599427,235.1836344159965,g,1.0,1.161764457996469,,,,,,sub-219,1,stroop_test,,
,,,,27.0,3.0,2.0,,,,,,,,,,,,,rot,yellow,g,0.0,g,1.0,1.9420472500059984,,,,,,,,,,2.0,3.0,27.0,3.0,235.19480191599,,,,,,,,,,,,,,,,,235.18432733298687,235.5315781249956,236.32664120799743,236.31528516599792,,,,,,,,,,,,,,,,,,,,,,,,,,,,,,,,,,,236.31964816599796,236.32664120799743,236.32664120799743,238.2725087079889,g,1.0,1.9420472500059984,,,,,,sub-219,1,stroop_test,,
,,,,28.0,4.0,2.0,,,,,,,,,,,,,gelb,blue,b,0.0,b,1.0,3.3579179999942426,,,,,,,,,,2.0,4.0,28.0,9.0,238.28344187499897,,,,,,,,,,,,,,,,,238.27307304099668,239.07067691598783,239.86392016599711,239.85391737498867,,,,,,,,,,,,,,,,,,,,,,,,,,,,,,,,,,,239.85762433298805,239.86392016599711,239.86392016599711,243.23340641599495,b,1.0,3.3579179999942426,,,,,,sub-219,1,stroop_test,,
,,,,29.0,5.0,2.0,,,,,,,,,,,,,rot,blue,b,0.0,b,1.0,0.8892234999948414,,,,,,,,,,2.0,5.0,29.0,2.0,243.24413879099305,,,,,,,,,,,,,,,,,243.2340980000008,244.03165862499736,244.8267362499901,244.81562404098804,,,,,,,,,,,,,,,,,,,,,,,,,,,,,,,,,,,244.8195170830004,244.8267362499901,244.8267362499901,245.72759874998883,b,1.0,0.8892234999948414,,,,,,sub-219,1,stroop_test,,
,,,,30.0,6.0,2.0,,,,,,,,,,,,,gelb,red,r,0.0,r,1.0,0.8262556660047267,,,,,,,,,,2.0,6.0,30.0,8.0,245.73302970798977,,,,,,,,,,,,,,,,,245.7280895409931,246.92114470798697,247.72600045798757,247.71542516599584,,,,,,,,,,,,,,,,,,,,,,,,,,,,,,,,,,,247.7192666659976,247.72600045798757,247.72600045798757,248.5552922499919,r,1.0,0.8262556660047267,,,,,,sub-219,1,stroop_test,,
,,,,31.0,7.0,2.0,,,,,,,,,,,,,blau,yellow,g,0.0,g,1.0,0.7851230000087526,,,,,,,,,,2.0,7.0,31.0,7.0,248.56626966600012,,,,,,,,,,,,,,,,,248.5558549579873,249.35440012499748,250.15055279099036,250.1385763750004,,,,,,,,,,,,,,,,,,,,,,,,,,,,,,,,,,,250.1435216659884,250.15055279099036,250.15055279099036,250.93822587499744,g,1.0,0.7851230000087526,,,,,,sub-219,1,stroop_test,,
,,,,32.0,8.0,2.0,,,,,,,,,,,,,blau,blue,b,1.0,b,1.0,0.8352831249940209,,,,,,,,,,2.0,8.0,32.0,5.0,250.9646026249975,,,,,,,,,,,,,,,,,250.93879499999457,252.13532104098704,252.93032024998683,252.9219749999902,,,,,,,,,,,,,,,,,,,,,,,,,,,,,,,,,,,252.9226453329902,252.93032024998683,252.93032024998683,253.7767110829882,b,1.0,0.8352831249940209,,,,,,sub-219,1,stroop_test,,
,,,,33.0,9.0,2.0,,,,,,,,,,,,,blau,blue,b,1.0,b,1.0,0.6598389169957954,,,,,,,,,,2.0,9.0,33.0,6.0,253.78299354099727,,,,,,,,,,,,,,,,,253.77727549998963,254.12031408298932,254.92220799998904,254.915445540988,,,,,,,,,,,,,,,,,,,,,,,,,,,,,,,,,,,254.91644083299616,254.92220799998904,254.92220799998904,255.59567879099632,b,1.0,0.6598389169957954,,,,,,sub-219,1,stroop_test,,
,,,,34.0,10.0,2.0,,,,,,,,,,,,,rot,red,r,1.0,r,1.0,0.8844691249978496,,,,,,,,,,2.0,10.0,34.0,0.0,255.5991103749984,,,,,,,,,,,,,,,,,255.5960624579893,256.78682995800045,257.5808021249977,257.57014333299594,,,,,,,,,,,,,,,,,,,,,,,,,,,,,,,,,,,257.5737704579951,257.5808021249977,257.5808021249977,258.47875949999434,r,1.0,0.8844691249978496,,,,,,sub-219,1,stroop_test,,
,,,,35.0,11.0,2.0,,,,,,,,,,,,,gelb,yellow,g,1.0,g,1.0,0.8643139170017093,,,,,,,,,,2.0,11.0,35.0,10.0,258.4825394579966,,,,,,,,,,,,,,,,,258.4791757079947,259.27036020800006,260.0643600409967,260.0542557909939,,,,,,,,,,,,,,,,,,,,,,,,,,,,,,,,,,,260.0579857499979,260.0643600409967,260.0643600409967,260.9332134159922,g,1.0,0.8643139170017093,,,,,,sub-219,1,stroop_test,,
,,,,36.0,0.0,3.0,,,,,,,,,,,,,blau,blue,b,1.0,b,1.0,1.329543959000148,,,,,,,,,,3.0,0.0,36.0,5.0,260.9438174579991,,,,,,,,,,,,,,,,,260.9337860409869,262.13116791599896,262.92648187499435,262.9154139159946,,,,,,,,,,,,,,,,,,,,,,,,,,,,,,,,,,,262.91989487499814,262.92648187499435,262.92648187499435,264.26677166599256,b,1.0,1.329543959000148,,,,,,sub-219,1,stroop_test,,
,,,,37.0,1.0,3.0,,,,,,,,,,,,,gelb,blue,b,0.0,b,1.0,1.4891478329955137,,,,,,,,,,3.0,1.0,37.0,9.0,264.27767179098737,,,,,,,,,,,,,,,,,264.26746945799096,265.4643809580012,266.2592828329944,266.2486356659938,,,,,,,,,,,,,,,,,,,,,,,,,,,,,,,,,,,266.25260641599016,266.2592828329944,266.2592828329944,267.7587339999882,b,1.0,1.4891478329955137,,,,,,sub-219,1,stroop_test,,
,,,,38.0,2.0,3.0,,,,,,,,,,,,,rot,red,r,1.0,r,1.0,0.8838955419923877,,,,,,,,,,3.0,2.0,38.0,1.0,267.7635185830004,,,,,,,,,,,,,,,,,267.75926033299766,268.953973124997,269.74767179098853,269.7372939159977,,,,,,,,,,,,,,,,,,,,,,,,,,,,,,,,,,,269.7409674579976,269.74767179098853,269.74767179098853,270.64486974998727,r,1.0,0.8838955419923877,,,,,,sub-219,1,stroop_test,,
,,,,39.0,3.0,3.0,,,,,,,,,,,,,gelb,red,r,0.0,r,1.0,1.6768605420074891,,,,,,,,,,3.0,3.0,39.0,8.0,270.6495649159915,,,,,,,,,,,,,,,,,270.64536241599126,271.8366955829988,272.6308447079937,272.6197117499978,,,,,,,,,,,,,,,,,,,,,,,,,,,,,,,,,,,272.62477849998686,272.6308447079937,272.6308447079937,274.3164583329926,r,1.0,1.6768605420074891,,,,,,sub-219,1,stroop_test,,
,,,,40.0,4.0,3.0,,,,,,,,,,,,,gelb,yellow,g,1.0,g,1.0,0.8871417920017848,,,,,,,,,,3.0,4.0,40.0,10.0,274.3274930829939,,,,,,,,,,,,,,,,,274.3170234999998,275.5146397909993,276.30563016599626,276.2986669999955,,,,,,,,,,,,,,,,,,,,,,,,,,,,,,,,,,,276.2992644999904,276.30563016599626,276.30563016599626,277.19990933299414,g,1.0,0.8871417920017848,,,,,,sub-219,1,stroop_test,,
,,,,41.0,5.0,3.0,,,,,,,,,,,,,gelb,yellow,g,1.0,g,1.0,0.8515363330079708,,,,,,,,,,3.0,5.0,41.0,11.0,277.2108167499973,,,,,,,,,,,,,,,,,277.2005169579934,277.29793920798693,278.089218832989,278.0821989999968,,,,,,,,,,,,,,,,,,,,,,,,,,,,,,,,,,,278.082942707988,278.089218832989,278.089218832989,278.9498581660009,g,1.0,0.8515363330079708,,,,,,sub-219,1,stroop_test,,
,,,,42.0,6.0,3.0,,,,,,,,,,,,,blau,red,r,0.0,r,1.0,1.1594397079898044,,,,,,,,,,3.0,6.0,42.0,4.0,278.96072583299247,,,,,,,,,,,,,,,,,278.95046066599025,279.0479111659952,279.8423392909899,279.83193629099696,,,,,,,,,,,,,,,,,,,,,,,,,,,,,,,,,,,279.83578083298926,279.8423392909899,279.8423392909899,281.00538925,r,1.0,1.1594397079898044,,,,,,sub-219,1,stroop_test,,
,,,,43.0,7.0,3.0,,,,,,,,,,,,,rot,blue,b,0.0,b,1.0,2.523193208995508,,,,,,,,,,3.0,7.0,43.0,2.0,281.0161613329983,,,,,,,,,,,,,,,,,281.00594220799394,281.80291687499266,282.5975355829869,282.5872162079904,,,,,,,,,,,,,,,,,,,,,,,,,,,,,,,,,,,282.5907652079913,282.5975355829869,282.5975355829869,285.122874749999,b,1.0,2.523193208995508,,,,,,sub-219,1,stroop_test,,
,,,,44.0,8.0,3.0,,,,,,,,,,,,,blau,yellow,g,0.0,g,1.0,1.2053465000062715,,,,,,,,,,3.0,8.0,44.0,7.0,285.1335587909998,,,,,,,,,,,,,,,,,285.1235084159998,285.4710922499944,286.2764440409956,286.2655228749936,,,,,,,,,,,,,,,,,,,,,,,,,,,,,,,,,,,286.2699447909981,286.2764440409956,286.2764440409956,287.4849717079924,g,1.0,1.2053465000062715,,,,,,sub-219,1,stroop_test,,
,,,,45.0,9.0,3.0,,,,,,,,,,,,,rot,yellow,g,0.0,g,1.0,0.922779000000446,,,,,,,,,,3.0,9.0,45.0,3.0,287.49567866598954,,,,,,,,,,,,,,,,,287.48569045799377,287.83129529099097,288.6265774159983,288.6153210409975,,,,,,,,,,,,,,,,,,,,,,,,,,,,,,,,,,,288.6197288330004,288.6265774159983,288.6265774159983,289.56101779099845,g,1.0,0.922779000000446,,,,,,sub-219,1,stroop_test,,
,,,,46.0,10.0,3.0,,,,,,,,,,,,,blau,blue,b,1.0,b,1.0,0.8383659169921884,,,,,,,,,,3.0,10.0,46.0,6.0,289.5662719579996,,,,,,,,,,,,,,,,,289.56151883299754,289.9043238329905,290.71012824999343,290.69879845799005,,,,,,,,,,,,,,,,,,,,,,,,,,,,,,,,,,,290.7033947079908,290.71012824999343,290.71012824999343,291.56144904099347,b,1.0,0.8383659169921884,,,,,,sub-219,1,stroop_test,,
,,,,47.0,11.0,3.0,,,,,,,,,,,,,rot,red,r,1.0,r,1.0,1.828833000006853,,,,,,,,,,3.0,11.0,47.0,0.0,291.56600074999733,,,,,,,,,,,,,,,,,291.5619143329968,291.65265358299075,292.4477232909994,292.4374199159938,,,,,,,,,,,,,,,,,,,,,,,,,,,,,,,,,,,292.44098258299346,292.4477232909994,292.4477232909994,294.2833428749873,r,1.0,1.828833000006853,,,,,,sub-219,1,stroop_test,,
,,,,48.0,0.0,4.0,,,,,,,,,,,,,blau,blue,b,1.0,b,1.0,0.9309840419882676,,,,,,,,,,4.0,0.0,48.0,5.0,294.29413287498755,,,,,,,,,,,,,,,,,294.28398516599555,295.08130345799145,295.87772583299375,295.8652672909957,,,,,,,,,,,,,,,,,,,,,,,,,,,,,,,,,,,295.8710177909961,295.87772583299375,295.87772583299375,296.81642720798845,b,1.0,0.9309840419882676,,,,,,sub-219,1,stroop_test,,
,,,,49.0,1.0,4.0,,,,,,,,,,,,,gelb,yellow,g,1.0,g,1.0,1.195928749992163,,,,,,,,,,4.0,1.0,49.0,11.0,296.82719887499115,,,,,,,,,,,,,,,,,296.81703049999487,298.0146507079917,298.80979091599875,298.79884770799254,,,,,,,,,,,,,,,,,,,,,,,,,,,,,,,,,,,298.80294116599543,298.80979091599875,298.80979091599875,300.0171390829928,g,1.0,1.195928749992163,,,,,,sub-219,1,stroop_test,,
,,,,50.0,2.0,4.0,,,,,,,,,,,,,rot,red,r,1.0,r,1.0,0.9227862080006162,,,,,,,,,,4.0,2.0,50.0,0.0,300.0283059999929,,,,,,,,,,,,,,,,,300.01808149999124,300.8146011249919,301.6098312499962,301.5985201250005,,,,,,,,,,,,,,,,,,,,,,,,,,,,,,,,,,,301.6030621659884,301.6098312499962,301.6098312499962,302.54411766599515,r,1.0,0.9227862080006162,,,,,,sub-219,1,stroop_test,,
,,,,51.0,3.0,4.0,,,,,,,,,,,,,gelb,red,r,0.0,r,1.0,2.0060223339969525,,,,,,,,,,4.0,3.0,51.0,8.0,302.54947433299094,,,,,,,,,,,,,,,,,302.5445972079906,303.7374034999957,304.5430526249984,304.53191016599885,,,,,,,,,,,,,,,,,,,,,,,,,,,,,,,,,,,304.53656587499427,304.5430526249984,304.5430526249984,306.5615143329924,r,1.0,2.0060223339969525,,,,,,sub-219,1,stroop_test,,
,,,,52.0,4.0,4.0,,,,,,,,,,,,,blau,yellow,g,0.0,g,1.0,1.2045537500089267,,,,,,,,,,4.0,4.0,52.0,7.0,306.56628787500085,,,,,,,,,,,,,,,,,306.56203691598785,306.65288004098693,307.44714399999066,307.4370081659872,,,,,,,,,,,,,,,,,,,,,,,,,,,,,,,,,,,307.44068458299444,307.44714399999066,307.44714399999066,308.6553341659892,g,1.0,1.2045537500089267,,,,,,sub-219,1,stroop_test,,
,,,,53.0,5.0,4.0,,,,,,,,,,,,,blau,blue,b,1.0,b,1.0,0.7625153330009198,,,,,,,,,,4.0,5.0,53.0,6.0,308.66626704100054,,,,,,,,,,,,,,,,,308.655889207992,309.45344904100057,310.24777362500026,310.23705491599685,,,,,,,,,,,,,,,,,,,,,,,,,,,,,,,,,,,310.2376450409938,310.24777362500026,310.24777362500026,311.0162214999873,b,1.0,0.7625153330009198,,,,,,sub-219,1,stroop_test,,
,,,,54.0,6.0,4.0,,,,,,,,,,,,,rot,yellow,g,0.0,r,0.0,1.0093864160007795,,,,,,,,,,4.0,6.0,54.0,3.0,311.0269551659876,,,,,,,,,,,,,,,,,311.0168713329913,311.3643501659972,312.159982415993,312.1485566659976,,,,,,,,,,,,,,,,,,,,,,,,,,,,,,,,,,,312.153072000001,312.159982415993,312.159982415993,313.1720348329982,r,0.0,1.0093864160007795,,,,,,sub-219,1,stroop_test,,
,,,,55.0,7.0,4.0,,,,,,,,,,,,,blau,red,r,0.0,r,1.0,2.716835125000216,,,,,,,,,,4.0,7.0,55.0,4.0,313.18260370798816,,,,,,,,,,,,,,,,,313.1725953749992,313.2722162909922,314.0767636659875,314.06540137498814,,,,,,,,,,,,,,,,,,,,,,,,,,,,,,,,,,,314.06992266599264,314.0767636659875,314.0767636659875,316.7998559159896,r,1.0,2.716835125000216,,,,,,sub-219,1,stroop_test,,
,,,,56.0,8.0,4.0,,,,,,,,,,,,,rot,red,r,1.0,r,1.0,1.716385583000374,,,,,,,,,,4.0,8.0,56.0,1.0,316.8104694999929,,,,,,,,,,,,,,,,,316.8005994999985,316.8976677499886,317.6935659999872,317.6816978749994,,,,,,,,,,,,,,,,,,,,,,,,,,,,,,,,,,,317.6869036249991,317.6935659999872,317.6935659999872,319.4162189159979,r,1.0,1.716385583000374,,,,,,sub-219,1,stroop_test,,
,,,,57.0,9.0,4.0,,,,,,,,,,,,,rot,blue,b,0.0,b,1.0,2.017750792001607,,,,,,,,,,4.0,9.0,57.0,2.0,319.42716312500124,,,,,,,,,,,,,,,,,319.4168728749937,320.6143604999961,321.4059964999906,321.39853924998897,,,,,,,,,,,,,,,,,,,,,,,,,,,,,,,,,,,321.39957137499005,321.4059964999906,321.4059964999906,323.4330455409945,b,1.0,2.017750792001607,,,,,,sub-219,1,stroop_test,,
,,,,58.0,10.0,4.0,,,,,,,,,,,,,gelb,yellow,g,1.0,g,1.0,0.8217039580049459,,,,,,,,,,4.0,10.0,58.0,10.0,323.4439793329948,,,,,,,,,,,,,,,,,323.4336867499951,323.78096345798986,324.57653566599765,324.5654479999939,,,,,,,,,,,,,,,,,,,,,,,,,,,,,,,,,,,324.57001733299694,324.57653566599765,324.57653566599765,325.4011632909969,g,1.0,0.8217039580049459,,,,,,sub-219,1,stroop_test,,
,,,,59.0,11.0,4.0,,,,,,,,,,,,,gelb,blue,b,0.0,b,1.0,0.7375462079944555,,,,,,,,,,4.0,11.0,59.0,9.0,325.4119219159911,,,,,,,,,,,,,,,,,325.4019822499977,325.74773141599144,326.53835104098835,326.5317742909974,,,,,,,,,,,,,,,,,,,,,,,,,,,,,,,,,,,326.532484957992,326.53835104098835,326.53835104098835,327.28299599999445,b,1.0,0.7375462079944555,,,,,,sub-219,1,stroop_test,,
,,,,60.0,0.0,5.0,,,,,,,,,,,,,gelb,blue,b,0.0,b,1.0,0.6225312080059666,,,,,,,,,,5.0,0.0,60.0,9.0,327.29345812500105,,,,,,,,,,,,,,,,,327.2837284159905,328.4811517079943,329.27264099998865,329.2653299579979,,,,,,,,,,,,,,,,,,,,,,,,,,,,,,,,,,,329.2661039160012,329.27264099998865,329.27264099998865,329.89992366598744,b,1.0,0.6225312080059666,,,,,,sub-219,1,stroop_test,,
,,,,61.0,1.0,5.0,,,,,,,,,,,,,rot,yellow,g,0.0,g,1.0,0.8229290830058744,,,,,,,,,,5.0,1.0,61.0,3.0,329.91084120799496,,,,,,,,,,,,,,,,,329.90083258299273,330.2476234999922,331.04286824999144,331.0319904999924,,,,,,,,,,,,,,,,,,,,,,,,,,,,,,,,,,,331.0362369159993,331.04286824999144,331.04286824999144,331.8711439579929,g,1.0,0.8229290830058744,,,,,,sub-219,1,stroop_test,,
,,,,62.0,2.0,5.0,,,,,,,,,,,,,gelb,yellow,g,1.0,g,1.0,0.5702166249975562,,,,,,,,,,5.0,2.0,62.0,11.0,331.88258900000073,,,,,,,,,,,,,,,,,331.8716984579951,333.06998704098805,333.86321416599094,333.85295254099765,,,,,,,,,,,,,,,,,,,,,,,,,,,,,,,,,,,333.85656445799395,333.86321416599094,333.86321416599094,334.43852091599547,g,1.0,0.5702166249975562,,,,,,sub-219,1,stroop_test,,
,,,,63.0,3.0,5.0,,,,,,,,,,,,,blau,blue,b,1.0,b,1.0,0.8156182920065476,,,,,,,,,,5.0,3.0,63.0,5.0,334.4492707079917,,,,,,,,,,,,,,,,,334.43910037499154,334.78628108299745,335.5802770829905,335.57018179100123,,,,,,,,,,,,,,,,,,,,,,,,,,,,,,,,,,,335.5739087080001,335.5802770829905,335.5802770829905,336.39980795799056,b,1.0,0.8156182920065476,,,,,,sub-219,1,stroop_test,,
,,,,64.0,4.0,5.0,,,,,,,,,,,,,rot,red,r,1.0,r,1.0,0.6939988750091288,,,,,,,,,,5.0,4.0,64.0,1.0,336.4103308749909,,,,,,,,,,,,,,,,,336.4005695409869,337.5976700409956,338.3930352079915,338.3818031659903,,,,,,,,,,,,,,,,,,,,,,,,,,,,,,,,,,,338.3862830829894,338.3930352079915,338.3930352079915,339.09979866599315,r,1.0,0.6939988750091288,,,,,,sub-219,1,stroop_test,,
,,,,65.0,5.0,5.0,,,,,,,,,,,,,blau,yellow,g,0.0,g,1.0,0.9602227909927024,,,,,,,,,,5.0,5.0,65.0,7.0,339.11428483299096,,,,,,,,,,,,,,,,,339.1001766249974,339.197564874994,339.99753037499613,339.9817791249952,,,,,,,,,,,,,,,,,,,,,,,,,,,,,,,,,,,339.99113124998985,339.99753037499613,339.99753037499613,340.9660882079916,g,1.0,0.9602227909927024,,,,,,sub-219,1,stroop_test,,
,,,,66.0,6.0,5.0,,,,,,,,,,,,,gelb,red,r,0.0,r,1.0,0.8187486250099028,,,,,,,,,,5.0,6.0,66.0,8.0,340.97665037499974,,,,,,,,,,,,,,,,,340.96664220798993,341.3143026659964,342.1130728749995,342.10154554099427,,,,,,,,,,,,,,,,,,,,,,,,,,,,,,,,,,,342.10484874999383,342.1130728749995,342.1130728749995,342.9465470829891,r,1.0,0.8187486250099028,,,,,,sub-219,1,stroop_test,,
,,,,67.0,7.0,5.0,,,,,,,,,,,,,blau,red,r,0.0,r,1.0,1.2682305839989567,,,,,,,,,,5.0,7.0,67.0,4.0,342.951511583,,,,,,,,,,,,,,,,,342.9470149999979,343.28631404099,344.07982683299633,344.06953583299764,,,,,,,,,,,,,,,,,,,,,,,,,,,,,,,,,,,344.07321504098945,344.07982683299633,344.07982683299633,345.3514215829928,r,1.0,1.2682305839989567,,,,,,sub-219,1,stroop_test,,
,,,,68.0,8.0,5.0,,,,,,,,,,,,,blau,blue,b,1.0,b,1.0,0.9634752910060342,,,,,,,,,,5.0,8.0,68.0,6.0,345.3626527909946,,,,,,,,,,,,,,,,,345.35226149999653,346.547694665991,347.338957999993,347.3319274159876,,,,,,,,,,,,,,,,,,,,,,,,,,,,,,,,,,,347.3326800829964,347.338957999993,347.338957999993,348.3049328749912,b,1.0,0.9634752910060342,,,,,,sub-219,1,stroop_test,,
,,,,69.0,9.0,5.0,,,,,,,,,,,,,rot,blue,b,0.0,b,1.0,1.2023396250006044,,,,,,,,,,5.0,9.0,69.0,2.0,348.3160434579913,,,,,,,,,,,,,,,,,348.30550349999976,349.5024962909956,350.2973384999932,350.2870099159918,,,,,,,,,,,,,,,,,,,,,,,,,,,,,,,,,,,350.2907091659872,350.2973384999932,350.2973384999932,351.50541087499005,b,1.0,1.2023396250006044,,,,,,sub-219,1,stroop_test,,
,,,,70.0,10.0,5.0,,,,,,,,,,,,,gelb,yellow,g,1.0,g,1.0,1.678147041995544,,,,,,,,,,5.0,10.0,70.0,10.0,351.51631016600004,,,,,,,,,,,,,,,,,351.5060033329937,351.6026380409894,352.39684766599385,352.386723040996,,,,,,,,,,,,,,,,,,,,,,,,,,,,,,,,,,,352.3904158329969,352.39684766599385,352.39684766599385,354.0832730409893,g,1.0,1.678147041995544,,,,,,sub-219,1,stroop_test,,
,,,,71.0,11.0,5.0,,,,,,,,,,,,,rot,red,r,1.0,r,1.0,1.3095060829946306,,,,,,,,,,5.0,11.0,71.0,0.0,354.093917582999,,,,,,,,,,,,,,,,,354.0840829160006,354.18102662499587,354.9767957909935,354.9650804579869,,,,,,,,,,,,,,,,,,,,,,,,,,,,,,,,,,,354.9698472079908,354.9767957909935,354.9767957909935,356.2887534159963,r,1.0,1.3095060829946306,,,,,,sub-219,1,stroop_test,,
,,,,72.0,0.0,6.0,,,,,,,,,,,,,gelb,yellow,g,1.0,b,0.0,0.9559513330023036,,,,,,,,,,6.0,0.0,72.0,11.0,356.2994112499873,,,,,,,,,,,,,,,,,356.289348374994,356.6372820830002,357.442177207995,357.43154658300045,,,,,,,,,,,,,,,,,,,,,,,,,,,,,,,,,,,357.4357272079942,357.442177207995,357.442177207995,358.41174983298697,b,0.0,0.9559513330023036,,,,,,sub-219,1,stroop_test,,
,,,,73.0,1.0,6.0,,,,,,,,,,,,,gelb,yellow,g,1.0,g,1.0,1.6632709590048762,,,,,,,,,,6.0,1.0,73.0,10.0,358.41531174999545,,,,,,,,,,,,,,,,,358.4122060829977,358.7536125829938,359.55609391599137,359.5482714999962,,,,,,,,,,,,,,,,,,,,,,,,,,,,,,,,,,,359.5493509999942,359.55609391599137,359.55609391599137,361.221453457998,g,1.0,1.6632709590048762,,,,,,sub-219,1,stroop_test,,
,,,,74.0,2.0,6.0,,,,,,,,,,,,,blau,yellow,g,0.0,g,1.0,1.128250207999372,,,,,,,,,,6.0,2.0,74.0,7.0,361.2324310830009,,,,,,,,,,,,,,,,,361.22203254098713,361.5689040829893,362.3805509160011,362.35305483298725,,,,,,,,,,,,,,,,,,,,,,,,,,,,,,,,,,,362.3579270829941,362.3805509160011,362.3805509160011,363.5160232909984,g,1.0,1.128250207999372,,,,,,sub-219,1,stroop_test,,
,,,,75.0,3.0,6.0,,,,,,,,,,,,,blau,blue,b,1.0,b,1.0,0.9347989579982824,,,,,,,,,,6.0,3.0,75.0,6.0,363.5267694159993,,,,,,,,,,,,,,,,,363.5166400829912,363.8639253750007,364.6554390829988,364.6482689580007,,,,,,,,,,,,,,,,,,,,,,,,,,,,,,,,,,,364.6490192499914,364.6554390829988,364.6554390829988,365.5992555829871,b,1.0,0.9347989579982824,,,,,,sub-219,1,stroop_test,,
,,,,76.0,4.0,6.0,,,,,,,,,,,,,rot,red,r,1.0,r,1.0,0.7480005419929512,,,,,,,,,,6.0,4.0,76.0,1.0,365.6097782500001,,,,,,,,,,,,,,,,,365.5998488749901,366.3975852500007,367.1918060829921,367.1813908329932,,,,,,,,,,,,,,,,,,,,,,,,,,,,,,,,,,,367.1852341659978,367.1918060829921,367.1918060829921,367.9493957909872,r,1.0,0.7480005419929512,,,,,,sub-219,1,stroop_test,,
,,,,77.0,5.0,6.0,,,,,,,,,,,,,rot,blue,b,0.0,b,1.0,1.6303898339974694,,,,,,,,,,6.0,5.0,77.0,2.0,367.95995812499314,,,,,,,,,,,,,,,,,367.9500319579965,368.0471101250005,368.8388684579986,368.831852999996,,,,,,,,,,,,,,,,,,,,,,,,,,,,,,,,,,,368.8326500830008,368.8388684579986,368.8388684579986,370.4718447499909,b,1.0,1.6303898339974694,,,,,,sub-219,1,stroop_test,,
,,,,78.0,6.0,6.0,,,,,,,,,,,,,rot,red,r,1.0,r,1.0,1.03997349999554,,,,,,,,,,6.0,6.0,78.0,0.0,370.48256799999217,,,,,,,,,,,,,,,,,370.4724159579928,370.5688823749952,371.36366979099694,371.3538991249952,,,,,,,,,,,,,,,,,,,,,,,,,,,,,,,,,,,371.3544707499968,371.36366979099694,371.36366979099694,372.4148948329967,r,1.0,1.03997349999554,,,,,,sub-219,1,stroop_test,,
,,,,79.0,7.0,6.0,,,,,,,,,,,,,blau,blue,b,1.0,b,1.0,0.780667540995637,,,,,,,,,,6.0,7.0,79.0,5.0,372.4200664579985,,,,,,,,,,,,,,,,,372.4156377499894,373.2142172909953,374.0095525409997,373.9982814999967,,,,,,,,,,,,,,,,,,,,,,,,,,,,,,,,,,,374.0029047499993,374.0095525409997,374.0095525409997,374.79936887499935,b,1.0,0.780667540995637,,,,,,sub-219,1,stroop_test,,
,,,,80.0,8.0,6.0,,,,,,,,,,,,,blau,red,r,0.0,r,1.0,0.7331854590011062,,,,,,,,,,6.0,8.0,80.0,4.0,374.8096200829896,,,,,,,,,,,,,,,,,374.8000732499932,375.5971356660011,376.3882374999957,376.38133908298914,,,,,,,,,,,,,,,,,,,,,,,,,,,,,,,,,,,376.3819698750012,376.3882374999957,376.3882374999957,377.1326084579923,r,1.0,0.7331854590011062,,,,,,sub-219,1,stroop_test,,
,,,,81.0,9.0,6.0,,,,,,,,,,,,,gelb,red,r,0.0,r,1.0,0.8394517499982612,,,,,,,,,,6.0,9.0,81.0,8.0,377.14278466599353,,,,,,,,,,,,,,,,,377.13331620799727,377.4806540409918,378.2752868749958,378.2646076659876,,,,,,,,,,,,,,,,,,,,,,,,,,,,,,,,,,,378.26877691599657,378.2752868749958,378.2752868749958,379.1274851249909,r,1.0,0.8394517499982612,,,,,,sub-219,1,stroop_test,,
,,,,82.0,10.0,6.0,,,,,,,,,,,,,rot,yellow,g,0.0,g,1.0,1.028333416004898,,,,,,,,,,6.0,10.0,82.0,3.0,379.13210945799074,,,,,,,,,,,,,,,,,379.1279093749909,379.46951362499385,380.26311337499646,380.2530822080007,,,,,,,,,,,,,,,,,,,,,,,,,,,,,,,,,,,380.2567948329961,380.26311337499646,380.26311337499646,381.29938891599886,g,1.0,1.028333416004898,,,,,,sub-219,1,stroop_test,,
,,,,83.0,11.0,6.0,,,,,,,,,,,,,gelb,blue,b,0.0,b,1.0,1.0815994159929687,,,,,,,,,,6.0,11.0,83.0,9.0,381.3094645409874,,,,,,,,,,,,,,,,,381.30003904098703,381.3970319579967,382.192000540992,382.1814847909991,,,,,,,,,,,,,,,,,,,,,,,,,,,,,,,,,,,382.1854687499872,382.192000540992,382.192000540992,383.282568124996,b,1.0,1.0815994159929687,,,,,,sub-219,1,stroop_test,,
,,,,84.0,0.0,7.0,,,,,,,,,,,,,blau,yellow,g,0.0,g,1.0,1.071662499991362,,,,,,,,,,7.0,0.0,84.0,7.0,383.2928669999965,,,,,,,,,,,,,,,,,383.2832897499902,384.0806996659958,384.87760849999904,384.864877,,,,,,,,,,,,,,,,,,,,,,,,,,,,,,,,,,,384.87092799998936,384.87760849999904,384.87760849999904,385.9550815830007,g,1.0,1.071662499991362,,,,,,sub-219,1,stroop_test,,
,,,,85.0,1.0,7.0,,,,,,,,,,,,,gelb,blue,b,0.0,b,1.0,0.891233791000559,,,,,,,,,,7.0,1.0,85.0,9.0,385.96568408299936,,,,,,,,,,,,,,,,,385.95562729099765,387.1527361249901,387.9459948329895,387.9356992499961,,,,,,,,,,,,,,,,,,,,,,,,,,,,,,,,,,,387.9393082499882,387.9459948329895,387.9459948329895,388.8481852080004,b,1.0,0.891233791000559,,,,,,sub-219,1,stroop_test,,
,,,,86.0,2.0,7.0,,,,,,,,,,,,,rot,yellow,g,0.0,g,1.0,1.055559375003213,,,,,,,,,,7.0,2.0,86.0,3.0,388.8531342499919,,,,,,,,,,,,,,,,,388.848808625,389.6360545829957,390.43228233300033,390.4204695410008,,,,,,,,,,,,,,,,,,,,,,,,,,,,,,,,,,,390.4242089999898,390.43228233300033,390.43228233300033,391.4988664999983,g,1.0,1.055559375003213,,,,,,sub-219,1,stroop_test,,
,,,,87.0,3.0,7.0,,,,,,,,,,,,,rot,red,r,1.0,r,1.0,0.6336501670011785,,,,,,,,,,7.0,3.0,87.0,1.0,391.5037998329936,,,,,,,,,,,,,,,,,391.49936137499753,392.297212999998,393.08844358299393,393.0813460409991,,,,,,,,,,,,,,,,,,,,,,,,,,,,,,,,,,,393.0821172909928,393.08844358299393,393.08844358299393,393.73243583299336,r,1.0,0.6336501670011785,,,,,,sub-219,1,stroop_test,,
,,,,88.0,4.0,7.0,,,,,,,,,,,,,gelb,red,r,0.0,r,1.0,0.6264531670021825,,,,,,,,,,7.0,4.0,88.0,8.0,393.74249987499206,,,,,,,,,,,,,,,,,393.73307087499416,394.9305537909968,395.7251895410009,395.7144056249963,,,,,,,,,,,,,,,,,,,,,,,,,,,,,,,,,,,395.71879916598846,395.7251895410009,395.7251895410009,396.35494391599786,r,1.0,0.6264531670021825,,,,,,sub-219,1,stroop_test,,
,,,,89.0,5.0,7.0,,,,,,,,,,,,,gelb,yellow,g,1.0,g,1.0,0.8515612089977367,,,,,,,,,,7.0,5.0,89.0,10.0,396.3659358329896,,,,,,,,,,,,,,,,,396.3555267079937,396.4522193329904,397.24730637499306,397.2365443749877,,,,,,,,,,,,,,,,,,,,,,,,,,,,,,,,,,,397.23712379099743,397.24730637499306,397.24730637499306,398.1043395409943,g,1.0,0.8515612089977367,,,,,,sub-219,1,stroop_test,,
,,,,90.0,6.0,7.0,,,,,,,,,,,,,gelb,yellow,g,1.0,g,1.0,0.4771383750048699,,,,,,,,,,7.0,6.0,90.0,11.0,398.1304934999935,,,,,,,,,,,,,,,,,398.1049044159881,398.20233758298855,398.9972598329914,398.9863740409928,,,,,,,,,,,,,,,,,,,,,,,,,,,,,,,,,,,398.9869528749987,398.9972598329914,398.9972598329914,399.4826107909903,g,1.0,0.4771383750048699,,,,,,sub-219,1,stroop_test,,
,,,,91.0,7.0,7.0,,,,,,,,,,,,,blau,blue,b,1.0,b,1.0,0.6104577499936568,,,,,,,,,,7.0,7.0,91.0,6.0,399.4928722499899,,,,,,,,,,,,,,,,,399.4832636659994,399.5805632499978,400.375516125001,400.36466016600025,,,,,,,,,,,,,,,,,,,,,,,,,,,,,,,,,,,400.3691739579954,400.375516125001,400.375516125001,400.9880627079983,b,1.0,0.6104577499936568,,,,,,sub-219,1,stroop_test,,
,,,,92.0,8.0,7.0,,,,,,,,,,,,,blau,blue,b,1.0,b,1.0,0.3868891669990262,,,,,,,,,,7.0,8.0,92.0,5.0,400.9986984999996,,,,,,,,,,,,,,,,,400.98864783300087,401.784882707987,402.5805301660002,402.56874974998937,,,,,,,,,,,,,,,,,,,,,,,,,,,,,,,,,,,402.5694204159954,402.5805301660002,402.5805301660002,402.9710388329986,b,1.0,0.3868891669990262,,,,,,sub-219,1,stroop_test,,
,,,,93.0,9.0,7.0,,,,,,,,,,,,,rot,red,r,1.0,r,1.0,0.82591612500255,,,,,,,,,,7.0,9.0,93.0,0.0,402.9794136249984,,,,,,,,,,,,,,,,,402.9716018329928,403.7691537909996,404.5635093329911,404.5526340829965,,,,,,,,,,,,,,,,,,,,,,,,,,,,,,,,,,,404.5567851659871,404.5635093329911,404.5635093329911,405.39294279098976,r,1.0,0.82591612500255,,,,,,sub-219,1,stroop_test,,
,,,,94.0,10.0,7.0,,,,,,,,,,,,,blau,red,r,0.0,r,1.0,0.6180253750062548,,,,,,,,,,7.0,10.0,94.0,4.0,405.4013373329944,,,,,,,,,,,,,,,,,405.3936745409883,405.736827249988,406.54348204100097,406.5312819999963,,,,,,,,,,,,,,,,,,,,,,,,,,,,,,,,,,,406.53703937499085,406.54348204100097,406.54348204100097,407.1659765829973,r,1.0,0.6180253750062548,,,,,,sub-219,1,stroop_test,,
,,,,95.0,11.0,7.0,,,,,,,,,,,,,rot,blue,b,0.0,b,1.0,1.021029041003203,,,,,,,,,,7.0,11.0,95.0,2.0,407.1758087079943,,,,,,,,,,,,,,,,,407.1666647499951,407.9635667909897,408.7602809999953,408.74854324999615,,,,,,,,,,,,,,,,,,,,,,,,,,,,,,,,,,,408.7534224159899,408.7602809999953,408.7602809999953,409.7914848749933,b,1.0,1.021029041003203,,,,,,sub-219,1,stroop_test,,
,,,,96.0,0.0,8.0,,,,,,,,,,,,,gelb,yellow,g,1.0,g,1.0,0.6516428340109996,,,,,,,,,,8.0,0.0,96.0,10.0,409.7961721659958,,,,,,,,,,,,,,,,,409.79196874999616,409.885308500001,410.6799677909876,410.6700507499918,,,,,,,,,,,,,,,,,,,,,,,,,,,,,,,,,,,410.6736456249928,410.6799677909876,410.6799677909876,411.34233512499486,g,1.0,0.6516428340109996,,,,,,sub-219,1,stroop_test,,
,,,,97.0,1.0,8.0,,,,,,,,,,,,,rot,red,r,1.0,r,1.0,0.8614244589989539,,,,,,,,,,8.0,1.0,97.0,1.0,411.3635420409992,,,,,,,,,,,,,,,,,411.3428477909911,412.5360525409924,413.3298462499952,413.3197940829996,,,,,,,,,,,,,,,,,,,,,,,,,,,,,,,,,,,413.3233712910005,413.3298462499952,413.3298462499952,414.19921470798727,r,1.0,0.8614244589989539,,,,,,sub-219,1,stroop_test,,
,,,,98.0,2.0,8.0,,,,,,,,,,,,,blau,blue,b,1.0,b,1.0,1.209030875004828,,,,,,,,,,8.0,2.0,98.0,5.0,414.2096200829983,,,,,,,,,,,,,,,,,414.1998041249899,415.3971530829877,416.1924490409874,416.1813512499939,,,,,,,,,,,,,,,,,,,,,,,,,,,,,,,,,,,416.185902207988,416.1924490409874,416.1924490409874,417.4036462910008,b,1.0,1.209030875004828,,,,,,sub-219,1,stroop_test,,
,,,,99.0,3.0,8.0,,,,,,,,,,,,,rot,red,r,1.0,r,1.0,0.7645737909915624,,,,,,,,,,8.0,3.0,99.0,0.0,417.4122849159903,,,,,,,,,,,,,,,,,417.404133707998,418.6029644160008,419.3962750409992,419.38613924999663,,,,,,,,,,,,,,,,,,,,,,,,,,,,,,,,,,,419.3898229579936,419.3962750409992,419.3962750409992,420.165724749997,r,1.0,0.7645737909915624,,,,,,sub-219,1,stroop_test,,
,,,,100.0,4.0,8.0,,,,,,,,,,,,,blau,yellow,g,0.0,g,1.0,0.7140957079973305,,,,,,,,,,8.0,4.0,100.0,7.0,420.1761284159875,,,,,,,,,,,,,,,,,420.16645766599686,420.2634369159932,421.0587326249952,421.0476214999944,,,,,,,,,,,,,,,,,,,,,,,,,,,,,,,,,,,421.0522062499949,421.0587326249952,421.0587326249952,421.7824337079946,g,1.0,0.7140957079973305,,,,,,sub-219,1,stroop_test,,
,,,,101.0,5.0,8.0,,,,,,,,,,,,,rot,yellow,g,0.0,g,1.0,0.7631463330035331,,,,,,,,,,8.0,5.0,101.0,3.0,421.792772374989,,,,,,,,,,,,,,,,,421.7831682079996,421.8801660829922,422.6773823330004,422.66468674999487,,,,,,,,,,,,,,,,,,,,,,,,,,,,,,,,,,,422.6708405829995,422.6773823330004,422.6773823330004,423.4489772909874,g,1.0,0.7631463330035331,,,,,,sub-219,1,stroop_test,,
,,,,102.0,6.0,8.0,,,,,,,,,,,,,rot,blue,b,0.0,b,1.0,1.1005414170067525,,,,,,,,,,8.0,6.0,102.0,2.0,423.4594209999923,,,,,,,,,,,,,,,,,423.44962416599446,423.7968277909968,424.5880973329913,424.5808716659958,,,,,,,,,,,,,,,,,,,,,,,,,,,,,,,,,,,424.5816514579929,424.5880973329913,424.5880973329913,425.6989882499911,b,1.0,1.1005414170067525,,,,,,sub-219,1,stroop_test,,
,,,,103.0,7.0,8.0,,,,,,,,,,,,,blau,blue,b,1.0,b,1.0,0.7961908750003204,,,,,,,,,,8.0,7.0,103.0,6.0,425.7090980829962,,,,,,,,,,,,,,,,,425.6996449579892,425.7970773329871,426.5912922499992,426.5811409159942,,,,,,,,,,,,,,,,,,,,,,,,,,,,,,,,,,,426.5844865830004,426.5912922499992,426.5912922499992,427.3990508749994,b,1.0,0.7961908750003204,,,,,,sub-219,1,stroop_test,,
,,,,104.0,8.0,8.0,,,,,,,,,,,,,gelb,yellow,g,1.0,g,1.0,0.8226453329989454,,,,,,,,,,8.0,8.0,104.0,11.0,427.4093437499978,,,,,,,,,,,,,,,,,427.3996896249882,427.7473611659952,428.542215124995,428.53119345799496,,,,,,,,,,,,,,,,,,,,,,,,,,,,,,,,,,,428.5357216659904,428.542215124995,428.542215124995,429.376592665998,g,1.0,0.8226453329989454,,,,,,sub-219,1,stroop_test,,
,,,,105.0,9.0,8.0,,,,,,,,,,,,,gelb,blue,b,0.0,b,1.0,0.8007818750047591,,,,,,,,,,8.0,9.0,105.0,9.0,429.3820407909952,,,,,,,,,,,,,,,,,429.37713712498953,429.46869733299536,430.2638014580007,430.25236895799753,,,,,,,,,,,,,,,,,,,,,,,,,,,,,,,,,,,430.2529430829891,430.2638014580007,430.2638014580007,431.07571637499495,b,1.0,0.8007818750047591,,,,,,sub-219,1,stroop_test,,
,,,,106.0,10.0,8.0,,,,,,,,,,,,,gelb,red,r,0.0,r,1.0,0.9346574590017552,,,,,,,,,,8.0,10.0,106.0,8.0,431.0968755829963,,,,,,,,,,,,,,,,,431.0762925409945,432.2703340409935,433.0713852499903,433.0642282499903,,,,,,,,,,,,,,,,,,,,,,,,,,,,,,,,,,,433.06500995799433,433.0713852499903,433.0713852499903,434.0156753749907,r,1.0,0.9346574590017552,,,,,,sub-219,1,stroop_test,,
,,,,107.0,11.0,8.0,,,,,,,,,,,,,blau,red,r,0.0,r,1.0,0.5726179999910528,,,,,,,,,,8.0,11.0,107.0,4.0,434.02575279099983,,,,,,,,,,,,,,,,,434.0163007079973,434.11383145798754,434.90862145798746,434.8976044579904,,,,,,,,,,,,,,,,,,,,,,,,,,,,,,,,,,,434.90205745799176,434.90862145798746,434.90862145798746,435.4949795829889,r,1.0,0.5726179999910528,,,,,,sub-219,1,stroop_test,,
,,,,108.0,0.0,9.0,,,,,,,,,,,,,blau,yellow,g,0.0,g,1.0,0.8468194169981871,,,,,,,,,,9.0,0.0,108.0,7.0,435.4993981659936,,,,,,,,,,,,,,,,,435.4953952079959,435.8359492909949,436.6300215829978,436.61954879100085,,,,,,,,,,,,,,,,,,,,,,,,,,,,,,,,,,,436.6201203749952,436.6300215829978,436.6300215829978,437.4822573749989,g,1.0,0.8468194169981871,,,,,,sub-219,1,stroop_test,,
,,,,109.0,1.0,9.0,,,,,,,,,,,,,gelb,yellow,g,1.0,g,1.0,0.5623292499949457,,,,,,,,,,9.0,1.0,109.0,10.0,437.4916017499927,,,,,,,,,,,,,,,,,437.4829562079976,438.6801435409871,439.4754699999903,439.4642068749963,,,,,,,,,,,,,,,,,,,,,,,,,,,,,,,,,,,439.4688177079952,439.4754699999903,439.4754699999903,440.0488928329869,g,1.0,0.5623292499949457,,,,,,sub-219,1,stroop_test,,
,,,,110.0,2.0,9.0,,,,,,,,,,,,,gelb,yellow,g,1.0,g,1.0,0.706989957994665,,,,,,,,,,9.0,2.0,110.0,11.0,440.0584405829868,,,,,,,,,,,,,,,,,440.0496137909941,440.8468937909929,441.6384391249885,441.6313972909993,,,,,,,,,,,,,,,,,,,,,,,,,,,,,,,,,,,441.63218533300096,441.6384391249885,441.6384391249885,442.3492978329887,g,1.0,0.706989957994665,,,,,,sub-219,1,stroop_test,,
,,,,111.0,3.0,9.0,,,,,,,,,,,,,blau,red,r,0.0,r,1.0,1.3890911670023345,,,,,,,,,,9.0,3.0,111.0,4.0,442.3590694159939,,,,,,,,,,,,,,,,,442.3500576249935,443.1465090409911,443.94151670800056,443.93076254100015,,,,,,,,,,,,,,,,,,,,,,,,,,,,,,,,,,,443.935093166001,443.94151670800056,443.94151670800056,445.33330462499,r,1.0,1.3890911670023345,,,,,,sub-219,1,stroop_test,,
,,,,112.0,4.0,9.0,,,,,,,,,,,,,rot,yellow,g,0.0,g,1.0,0.8743720409984235,,,,,,,,,,9.0,4.0,112.0,3.0,445.3429874579888,,,,,,,,,,,,,,,,,445.3341044999979,445.6801712499873,446.4776138329908,446.464678999997,,,,,,,,,,,,,,,,,,,,,,,,,,,,,,,,,,,446.4709592500003,446.4776138329908,446.4776138329908,447.354227541,g,1.0,0.8743720409984235,,,,,,sub-219,1,stroop_test,,
,,,,113.0,5.0,9.0,,,,,,,,,,,,,rot,blue,b,0.0,b,1.0,0.6567309590027435,,,,,,,,,,9.0,5.0,113.0,2.0,447.3651922909921,,,,,,,,,,,,,,,,,447.3549777500011,447.70207775000017,448.49663408299966,448.4863817079895,,,,,,,,,,,,,,,,,,,,,,,,,,,,,,,,,,,448.4869638749951,448.49663408299966,448.49663408299966,449.1556419999979,b,1.0,0.6567309590027435,,,,,,sub-219,1,stroop_test,,
,,,,114.0,6.0,9.0,,,,,,,,,,,,,rot,red,r,1.0,r,1.0,0.7306245830113767,,,,,,,,,,9.0,6.0,114.0,1.0,449.165340624997,,,,,,,,,,,,,,,,,449.1564119579998,449.50218312499055,450.2965899999981,450.28634974999295,,,,,,,,,,,,,,,,,,,,,,,,,,,,,,,,,,,450.28692841599695,450.2965899999981,450.2965899999981,451.03254583298985,r,1.0,0.7306245830113767,,,,,,sub-219,1,stroop_test,,
,,,,115.0,7.0,9.0,,,,,,,,,,,,,gelb,red,r,0.0,r,1.0,0.6258062090055319,,,,,,,,,,9.0,7.0,115.0,8.0,451.041947790989,,,,,,,,,,,,,,,,,451.0332521659875,451.1299377079995,451.9249078749999,451.9144091659982,,,,,,,,,,,,,,,,,,,,,,,,,,,,,,,,,,,451.9183388329984,451.9249078749999,451.9249078749999,452.55468529099016,r,1.0,0.6258062090055319,,,,,,sub-219,1,stroop_test,,
,,,,116.0,8.0,9.0,,,,,,,,,,,,,rot,red,r,1.0,r,1.0,0.5161066669970751,,,,,,,,,,9.0,8.0,116.0,0.0,452.58014187499066,,,,,,,,,,,,,,,,,452.5552467499947,452.6551765829936,453.458656207993,453.4476438749989,,,,,,,,,,,,,,,,,,,,,,,,,,,,,,,,,,,453.4516428329953,453.458656207993,453.458656207993,453.9824563750008,r,1.0,0.5161066669970751,,,,,,sub-219,1,stroop_test,,
,,,,117.0,9.0,9.0,,,,,,,,,,,,,blau,blue,b,1.0,b,1.0,0.7298408749920782,,,,,,,,,,9.0,9.0,117.0,6.0,453.9921553749882,,,,,,,,,,,,,,,,,453.98325195799407,454.08020779099024,454.8744190829893,454.864244707991,,,,,,,,,,,,,,,,,,,,,,,,,,,,,,,,,,,454.8680698749959,454.8744190829893,454.8744190829893,455.61427554099646,b,1.0,0.7298408749920782,,,,,,sub-219,1,stroop_test,,
,,,,118.0,10.0,9.0,,,,,,,,,,,,,gelb,blue,b,0.0,b,1.0,0.7513677500101039,,,,,,,,,,9.0,10.0,118.0,9.0,455.62138808298914,,,,,,,,,,,,,,,,,455.6148715409945,456.4026516659942,457.1959979999956,457.18603070799145,,,,,,,,,,,,,,,,,,,,,,,,,,,,,,,,,,,457.1896569159872,457.1959979999956,457.1959979999956,457.94987412499904,b,1.0,0.7513677500101039,,,,,,sub-219,1,stroop_test,,
,,,,119.0,11.0,9.0,,,,,,,,,,,,,blau,blue,b,1.0,b,1.0,0.3949276250059483,,,,,,,,,,9.0,11.0,119.0,5.0,457.96012716599216,,,,,,,,,,,,,,,,,457.9506690409908,458.0467200409912,458.8411429159896,458.8307301659952,,,,,,,,,,,,,,,,,,,,,,,,,,,,,,,,,,,458.83453608299897,458.8411429159896,458.8411429159896,459.26426754098793,b,1.0,0.3949276250059483,,,,,,sub-219,1,stroop_test,,
,,,,,,,,,,,,,,,,,,,,,,,,,,,,,,,,,,,,,,,,,,,,,,,,,,,,,,,,,,,,,,,,,,,,,,,,,,,,,,,,,,,,,,,,,,,,,,,,,,,,,,459.2645320409938,459.2803387079912,464.2680839579989,464.26410845799546,sub-219,1,stroop_test,,
