direction,corrAns,thisN,thisTrialN,thisRepN,respDots.keys,respDots.corr,respDots.rt,respDots.duration,randomInstr,respRandomInstr.keys,respRandomInstr.rt,respRandomInstr.duration,practice_trials.thisRepN,practice_trials.thisTrialN,practice_trials.thisN,practice_trials.thisIndex,instr_trials.thisRepN,instr_trials.thisTrialN,instr_trials.thisN,instr_trials.thisIndex,test_trials.thisRepN,test_trials.thisTrialN,test_trials.thisN,test_trials.thisIndex,thisRow.t,notes,general_instruction.started,textGeneralInstr.started,respGeneralInstr.started,general_instruction.stopped,respGeneralInstr.keys,respGeneralInstr.rt,respGeneralInstr.duration,ITI.started,fixcross.started,fixcross.stopped,ITI.stopped,dots.started,backgroundDots.started,stimulusDots.started,respDots.started,dots.stopped,practice_trials.respDots.keys,practice_trials.respDots.corr,practice_trials.respDots.rt,practice_trials.respDots.duration,feedback.started,textFeedback.started,feedback.stopped,textFeedback.stopped,info.started,textInfo.started,keyRespInfo.started,info.stopped,keyRespInfo.keys,keyRespInfo.rt,keyRespInfo.duration,test_instruction.started,textTestInstr.started,respTestInstr.started,test_instruction.stopped,respTestInstr.keys,respTestInstr.rt,respTestInstr.duration,random_instruction.started,textRandomInstr.started,respRandomInstr.started,random_instruction.stopped,instr_trials.respRandomInstr.keys,instr_trials.respRandomInstr.rt,instr_trials.respRandomInstr.duration,test_trials.respDots.keys,test_trials.respDots.corr,test_trials.respDots.rt,test_trials.respDots.duration,goodbye.started,textGoodbye.started,textGoodbye.stopped,goodbye.stopped,participant,session,expName,frameRate,Unnamed: 87
,,,,,,,,,,,,,,,,,,,,,,,,,,,0.0256644829987635,0.0433878409985482,0.0433878409985482,97.53182403400024,space,97.36896904400056,,,,,,,,,,,,,,,,,,,,,,,,,,,,,,,,,,,,,,,,,,,,,,,,sub-092,1,random_dot,60.04511802176447,
right,right,0.0,0.0,0.0,right,1.0,2.000009026998669,,,,,,0.0,0.0,0.0,1.0,,,,,,,,,97.55167094499848,,,,,,,,,97.54107175900026,98.33922548400004,99.13920847400004,99.12590125799944,99.12613961399984,99.13920847400004,99.13920847400004,99.13920847400004,101.14475567699992,right,1.0,2.000009026998669,,101.1535537969994,101.16238246899955,101.645562968999,,,,,,,,,,,,,,,,,,,,,,,,,,,,,,,sub-092,1,random_dot,60.04511802176447,
left,left,1.0,1.0,0.0,left,1.0,0.9962189580000996,,,,,,0.0,1.0,1.0,0.0,,,,,,,,,101.65705152400004,,,,,,,,,101.6459188689987,102.00610920299914,102.80688093699972,102.79540221800016,102.79567882299852,102.80688093699972,102.80688093699972,102.80688093699972,103.81007725699963,left,1.0,0.9962189580000996,,103.81016191900017,103.82344465200003,104.3097634629994,104.32327474299927,,,,,,,,,,,,,,,,,,,,,,,,,,,,,,sub-092,1,random_dot,60.04511802176447,
left,left,2.0,0.0,1.0,left,1.0,0.5917394059997605,,,,,,1.0,0.0,2.0,0.0,,,,,,,,,104.32327474299927,,,,,,,,,104.30996471399884,105.52292001299976,106.32249112799946,106.3087326320001,106.30895473199962,106.32249112799946,106.32249112799946,106.32249112799946,106.92617985499965,left,1.0,0.5917394059997605,,106.92627004299902,106.93921215299996,107.4286002079989,,,,,,,,,,,,,,,,,,,,,,,,,,,,,,,sub-092,1,random_dot,60.04511802176447,
right,right,3.0,1.0,1.0,right,1.0,0.460706122999909,,,,,,1.0,1.0,3.0,1.0,,,,,,,,,107.4399979459995,,,,,,,,,107.42885294000008,108.23925396999948,109.03921978299876,109.02729047999856,109.02750978599944,109.03921978299876,109.03921978299876,109.03921978299876,109.51052333999904,right,1.0,0.460706122999909,,109.51060516199868,109.52316452499872,110.01174736599933,,,,,,,,,,,,,,,,,,,,,,,,,,,,,,,sub-092,1,random_dot,60.04511802176447,
right,right,4.0,0.0,2.0,left,0.0,0.8129745379992528,,,,,,2.0,0.0,4.0,1.0,,,,,,,,,110.0232236390002,,,,,,,,,110.01199989499946,111.2231038230002,112.02292775999922,112.01103190399954,112.01137126499998,112.02292775999922,112.02292775999922,112.02292775999922,112.84299287799875,left,0.0,0.8129745379992528,,112.84933320900018,112.85678761099916,113.3450311179986,,,,,,,,,,,,,,,,,,,,,,,,,,,,,,,sub-092,1,random_dot,60.04511802176447,
left,left,5.0,1.0,2.0,left,1.0,0.8145043259992235,,,,,,2.0,1.0,5.0,0.0,,,,,,,,,113.35650641999928,,,,,,,,,113.34528613099974,113.45654515599928,114.2564952169996,114.2451753739988,114.2454529079987,114.2564952169996,114.2564952169996,114.2564952169996,115.07712048999927,left,1.0,0.8145043259992235,,115.0791823620002,115.08929572299894,115.57826050699988,,,,,,,,,,,,,,,,,,,,,,,,,,,,,,,sub-092,1,random_dot,60.04511802176447,
left,left,6.0,0.0,3.0,left,1.0,1.759025785000631,,,,,,3.0,0.0,6.0,0.0,,,,,,,,,115.58980847599923,,,,,,,,,115.57851719899918,115.69029436900018,116.4899011739999,116.4785068129986,116.4787852720001,116.4899011739999,116.4899011739999,116.4899011739999,118.25946533000024,left,1.0,1.759025785000631,,118.25954783099952,118.2729082219994,118.7618962359993,,,,,,,,,,,,,,,,,,,,,,,,,,,,,,,sub-092,1,random_dot,60.04511802176447,
right,right,7.0,1.0,3.0,right,1.0,1.6497093200014206,,,,,,3.0,1.0,7.0,1.0,,,,,,,,,118.77316141099982,,,,,,,,,118.76214495599925,118.8729735449997,119.67309322099936,119.66170654999952,119.66197920400008,119.67309322099936,119.67309322099936,119.67309322099936,121.32819278199896,right,1.0,1.6497093200014206,,121.32832149000023,121.33942102800027,121.82843134799988,,,,,,,,,,,,,,,,,,,,,,,,,,,,,,,sub-092,1,random_dot,60.04511802176447,
right,right,8.0,0.0,4.0,right,1.0,1.2738876940002228,,,,,,4.0,0.0,8.0,1.0,,,,,,,,,121.83966222299932,,,,,,,,,121.82868772300026,121.94010488399908,122.75574206199964,122.7441276139998,122.744454493999,122.75574206199964,122.75574206199964,122.75574206199964,124.04370759499945,right,1.0,1.2738876940002228,,124.04379060599967,124.05623384399952,124.5449772489992,,,,,,,,,,,,,,,,,,,,,,,,,,,,,,,sub-092,1,random_dot,60.04511802176447,
left,left,9.0,1.0,4.0,left,1.0,0.6282277059999615,,,,,,4.0,1.0,9.0,0.0,,,,,,,,,124.55624278399956,,,,,,,,,124.54522836099932,124.65625761999944,125.45627335099924,125.44484704599928,125.44512594200025,125.45627335099924,125.45627335099924,125.45627335099924,126.09266664699862,left,1.0,0.6282277059999615,,126.09274964399992,126.1061852769999,126.59522044599908,,,,,,,,,,,,,,,,,,,,,,,,,,,,,,,sub-092,1,random_dot,60.04511802176447,
right,right,10.0,0.0,5.0,left,0.0,0.8831620719993225,,,,,,5.0,0.0,10.0,1.0,,,,,,,,,126.60642881199963,,,,,,,,,126.59548759399875,126.70648805899872,127.50642846699884,127.4948140309989,127.4950900169988,127.50642846699884,127.50642846699884,127.50642846699884,128.39425630000005,left,0.0,0.8831620719993225,,128.39629602999958,128.40663211799983,128.89475259699975,,,,,,,,,,,,,,,,,,,,,,,,,,,,,,,sub-092,1,random_dot,60.04511802176447,
left,left,11.0,1.0,5.0,left,1.0,0.8490468879990658,,,,,,5.0,1.0,11.0,0.0,,,,,,,,,128.90620597399902,,,,,,,,,128.89500691799913,129.7064717739995,130.50635151699862,130.49223827700007,130.4924633339997,130.50635151699862,130.50635151699862,130.50635151699862,131.3615431219987,left,1.0,0.8490468879990658,,131.36508951499854,131.37507272599942,131.8781174679989,,,,,,,,,,,,,,,,,,,,,,,,,,,,,,,sub-092,1,random_dot,60.04511802176447,
left,left,12.0,0.0,6.0,left,1.0,0.8752310290001333,,,,,,6.0,0.0,12.0,0.0,,,,,,,,,131.88946763499916,,,,,,,,,131.87836735999915,133.07289312600005,133.87318143899938,133.86146196299887,133.86174144199867,133.87318143899938,133.87318143899938,133.87318143899938,134.759400945999,left,1.0,0.8752310290001333,,134.75948387300014,134.77267806799864,135.26136767199932,,,,,,,,,,,,,,,,,,,,,,,,,,,,,,,sub-092,1,random_dot,60.04511802176447,
right,right,13.0,1.0,6.0,right,1.0,2.816510918999484,,,,,,6.0,1.0,13.0,1.0,,,,,,,,,135.2728905289987,,,,,,,,,135.2616349939999,135.62245093799902,136.4229530699995,136.40926031900017,136.40948529100024,136.4229530699995,136.4229530699995,136.4229530699995,139.24365375399975,right,1.0,2.816510918999484,,139.24373438200018,139.25646549199882,139.74460476899912,,,,,,,,,,,,,,,,,,,,,,,,,,,,,,,sub-092,1,random_dot,60.04511802176447,
right,right,14.0,0.0,7.0,left,0.0,1.916218028000003,,,,,,7.0,0.0,14.0,1.0,,,,,,,,,139.7561343159996,,,,,,,,,139.74485835499945,139.8552281100001,140.6562810889991,140.64480869699946,140.64508307699907,140.6562810889991,140.6562810889991,140.6562810889991,142.57702193299883,left,0.0,1.916218028000003,,142.57927219599878,142.58928284399917,143.07823422599904,,,,,,,,,,,,,,,,,,,,,,,,,,,,,,,sub-092,1,random_dot,60.04511802176447,
left,left,15.0,1.0,7.0,right,0.0,1.1448369959998672,,,,,,7.0,1.0,15.0,0.0,,,,,,,,,143.08940707599868,,,,,,,,,143.07848256499892,143.43936417199984,144.2386196209991,144.2274340669992,144.22774195300008,144.2386196209991,144.2386196209991,144.2386196209991,145.39243867099867,right,0.0,1.1448369959998672,,145.3925208389992,145.4060394119988,145.89449383899955,,,,,,,,,,,,,,,,,,,,,,,,,,,,,,,sub-092,1,random_dot,60.04511802176447,
right,right,16.0,0.0,8.0,right,1.0,1.773867361998782,,,,,,8.0,0.0,16.0,1.0,,,,,,,,,145.90604238000014,,,,,,,,,145.8947612539996,146.00604948899854,146.8064225779999,146.79478937000022,146.79506367799877,146.8064225779999,146.8064225779999,146.8064225779999,148.5941504929997,right,1.0,1.773867361998782,,148.5962590729996,148.60622008999962,149.09464866099916,,,,,,,,,,,,,,,,,,,,,,,,,,,,,,,sub-092,1,random_dot,60.04511802176447,
left,left,17.0,1.0,8.0,left,1.0,1.429631799001072,,,,,,8.0,1.0,17.0,0.0,,,,,,,,,149.105920951999,,,,,,,,,149.09490497499974,150.30604803499955,151.1060681529998,151.09467735699943,151.0949587319992,151.1060681529998,151.1060681529998,151.1060681529998,152.5425942769998,left,1.0,1.429631799001072,,152.54267844899914,152.55598203999944,153.04453401799947,,,,,,,,,,,,,,,,,,,,,,,,,,,,,,,sub-092,1,random_dot,60.04511802176447,
right,right,18.0,0.0,9.0,right,1.0,1.6804309310009558,,,,,,9.0,0.0,18.0,1.0,,,,,,,,,153.05588630999955,,,,,,,,,153.04479110399916,153.15588722599932,153.95581601099911,153.94482363399948,153.94509796300008,153.95581601099911,153.95581601099911,153.95581601099911,155.64365629199892,right,1.0,1.6804309310009558,,155.64374202499857,155.6560101129999,156.14457026199852,,,,,,,,,,,,,,,,,,,,,,,,,,,,,,,sub-092,1,random_dot,60.04511802176447,
left,left,19.0,1.0,9.0,left,1.0,1.3105284000012034,,,,,,9.0,1.0,19.0,0.0,,,,,,,,,156.1557404489995,,,,,,,,,156.14482283100006,156.25585045499977,157.0576562389997,157.0438056009989,157.04414634800014,157.0576562389997,157.0576562389997,157.0576562389997,158.37570057099947,left,1.0,1.3105284000012034,,158.37578357599887,158.3892241499998,158.8778430450002,,,,,,,,,,,,,,,,,,,,,,,,,,,,,,,sub-092,1,random_dot,60.04511802176447,
,,,,,,,,,,,,,,,,,,,,,,,,,,,,,,,,,,,,,,,,,,,,,,,,,,,158.87796679799976,158.88885763299913,158.88885763299913,188.9250899149993,space,30.025700540001708,,,,,,,,,,,,,,,,,,,,,,,,sub-092,1,random_dot,60.04511802176447,
,,,,,,,,,,,,,,,,,,,,,,,,,,,,,,,,,,,,,,,,,,,,,,,,,,,,,,,,,,188.92515035699944,188.9381332619996,188.9381332619996,190.72815156399884,space,1.786302443999375,,,,,,,,,,,,,,,,,sub-092,1,random_dot,60.04511802176447,
right,right,0.0,0.0,0.0,right,1.0,1.5074343270007375,,speed,space,1.1065766120009357,,,,,,0.0,0.0,0.0,1.0,0.0,0.0,0.0,1.0,191.8892951580001,,,,,,,,,191.88099591799983,191.9882020679997,192.78886666699876,192.77505226899848,192.7752755469992,192.78886666699876,192.78886666699876,192.78886666699876,194.30968887400013,,,,,,,,,,,,,,,,,,,,,,,190.74782192699968,190.7547493839993,190.7547493839993,191.8756139549987,space,1.1065766120009357,,right,1.0,1.5074343270007375,,,,,,sub-092,1,random_dot,60.04511802176447,
left,left,1.0,1.0,0.0,left,1.0,0.7850780819990177,,speed,space,1.1065766120009357,,,,,,0.0,0.0,0.0,1.0,0.0,1.0,1.0,0.0,194.3214351509996,,,,,,,,,194.31005507099871,195.52195282199864,196.32214074900003,196.30902409599912,196.3092509429989,196.32214074900003,196.32214074900003,196.32214074900003,197.11103852299857,,,,,,,,,,,,,,,,,,,,,,,,,,,,,,left,1.0,0.7850780819990177,,,,,,sub-092,1,random_dot,60.04511802176447,
left,left,2.0,0.0,1.0,left,1.0,1.916689518999192,,speed,space,1.1065766120009357,,,,,,0.0,0.0,0.0,1.0,1.0,0.0,2.0,0.0,197.12216453399924,,,,,,,,,197.1113123309988,198.32163241799933,199.12256863499897,199.11047608099943,199.1107575829992,199.12256863499897,199.12256863499897,199.12256863499897,201.04464802700025,,,,,,,,,,,,,,,,,,,,,,,,,,,,,,left,1.0,1.916689518999192,,,,,,sub-092,1,random_dot,60.04511802176447,
right,right,3.0,1.0,1.0,right,1.0,1.107807608999792,,speed,space,1.1065766120009357,,,,,,0.0,0.0,0.0,1.0,1.0,1.0,3.0,1.0,201.05511747299897,,,,,,,,,201.04512505299863,202.2553599699986,203.0555715689989,203.04388876600024,203.04416082399985,203.0555715689989,203.0555715689989,203.0555715689989,204.1749489879985,,,,,,,,,,,,,,,,,,,,,,,,,,,,,,right,1.0,1.107807608999792,,,,,,sub-092,1,random_dot,60.04511802176447,
left,left,4.0,0.0,2.0,left,1.0,0.6522549060009624,,speed,space,1.1065766120009357,,,,,,0.0,0.0,0.0,1.0,2.0,0.0,4.0,0.0,204.1879539809997,,,,,,,,,204.1752148349988,205.38868581199856,206.1890316909994,206.1745738239988,206.17480941699975,206.1890316909994,206.1890316909994,206.1890316909994,206.84511324599956,,,,,,,,,,,,,,,,,,,,,,,,,,,,,,left,1.0,0.6522549060009624,,,,,,sub-092,1,random_dot,60.04511802176447,
right,right,5.0,1.0,2.0,right,1.0,0.7248642189988459,,speed,space,1.1065766120009357,,,,,,0.0,0.0,0.0,1.0,2.0,1.0,5.0,1.0,206.8554144329992,,,,,,,,,206.84549942000007,207.20527253299952,208.0048315219992,207.9921543579985,207.9923781359994,208.0048315219992,208.0048315219992,208.0048315219992,208.74137495299877,,,,,,,,,,,,,,,,,,,,,,,,,,,,,,right,1.0,0.7248642189988459,,,,,,sub-092,1,random_dot,60.04511802176447,
right,right,6.0,0.0,3.0,left,0.0,0.793252580000626,,speed,space,1.1065766120009357,,,,,,0.0,0.0,0.0,1.0,3.0,0.0,6.0,1.0,208.7549173009993,,,,,,,,,208.7416439899989,209.95510209199887,210.7549293409993,210.7407550909993,210.74098148200028,210.7549293409993,210.7549293409993,210.7549293409993,211.56020895599977,,,,,,,,,,,,,,,,,,,,,,,,,,,,,,left,0.0,0.793252580000626,,,,,,sub-092,1,random_dot,60.04511802176447,
left,left,7.0,1.0,3.0,right,0.0,1.2942169060006563,,speed,space,1.1065766120009357,,,,,,0.0,0.0,0.0,1.0,3.0,1.0,7.0,0.0,211.5710732689986,,,,,,,,,211.56048798499975,211.671549106999,212.4720192749992,212.460530458,212.4608044889992,212.4720192749992,212.4720192749992,212.4720192749992,213.77460272299868,,,,,,,,,,,,,,,,,,,,,,,,,,,,,,right,0.0,1.2942169060006563,,,,,,sub-092,1,random_dot,60.04511802176447,
left,left,8.0,0.0,4.0,left,1.0,1.1947051669994837,,speed,space,1.1065766120009357,,,,,,0.0,0.0,0.0,1.0,4.0,0.0,8.0,0.0,213.7885599879992,,,,,,,,,213.774871869,214.13871172499967,214.93853649399895,214.92709221199948,214.92737244699856,214.93853649399895,214.93853649399895,214.93853649399895,216.14175886500016,,,,,,,,,,,,,,,,,,,,,,,,,,,,,,left,1.0,1.1947051669994837,,,,,,sub-092,1,random_dot,60.04511802176447,
right,right,9.0,1.0,4.0,right,1.0,0.7374261050008499,,speed,space,1.1065766120009357,,,,,,0.0,0.0,0.0,1.0,4.0,1.0,9.0,1.0,216.15414387799865,,,,,,,,,216.1420289050002,216.95472041899848,217.754581575,217.7424080719993,217.74268746099915,217.754581575,217.754581575,217.754581575,218.4949478719991,,,,,,,,,,,,,,,,,,,,,,,,,,,,,,right,1.0,0.7374261050008499,,,,,,sub-092,1,random_dot,60.04511802176447,
right,right,10.0,0.0,5.0,right,1.0,1.2980542820005212,,speed,space,1.1065766120009357,,,,,,0.0,0.0,0.0,1.0,5.0,0.0,10.0,1.0,218.504946477,,,,,,,,,218.49523010200028,219.3051018219994,220.1048856580001,220.09136824300003,220.09159120499865,220.1048856580001,220.1048856580001,220.1048856580001,221.41051519499888,,,,,,,,,,,,,,,,,,,,,,,,,,,,,,right,1.0,1.2980542820005212,,,,,,sub-092,1,random_dot,60.04511802176447,
left,left,11.0,1.0,5.0,left,1.0,1.436946635998538,,speed,space,1.1065766120009357,,,,,,0.0,0.0,0.0,1.0,5.0,1.0,11.0,0.0,221.421374137999,,,,,,,,,221.41092969700003,222.2207968900002,223.02089498900023,223.0099727889992,223.0101955049995,223.02089498900023,223.02089498900023,223.02089498900023,224.4609650349994,,,,,,,,,,,,,,,,,,,,,,,,,,,,,,left,1.0,1.436946635998538,,,,,,sub-092,1,random_dot,60.04511802176447,
left,left,12.0,0.0,6.0,left,1.0,1.2097653450000507,,speed,space,1.1065766120009357,,,,,,0.0,0.0,0.0,1.0,6.0,0.0,12.0,0.0,224.47133523899905,,,,,,,,,224.46139050799863,224.82160657999884,225.62168236700015,225.61034228799872,225.61061850799888,225.62168236700015,225.62168236700015,225.62168236700015,226.8421822370001,,,,,,,,,,,,,,,,,,,,,,,,,,,,,,left,1.0,1.2097653450000507,,,,,,sub-092,1,random_dot,60.04511802176447,
right,right,13.0,1.0,6.0,right,1.0,0.6060532360006619,,speed,space,1.1065766120009357,,,,,,0.0,0.0,0.0,1.0,6.0,1.0,13.0,1.0,226.8547690449996,,,,,,,,,226.8424553730001,226.9550377509986,227.75504108399943,227.74093053199977,227.74114632799865,227.75504108399943,227.75504108399943,227.75504108399943,228.37487488999977,,,,,,,,,,,,,,,,,,,,,,,,,,,,,,right,1.0,0.6060532360006619,,,,,,sub-092,1,random_dot,60.04511802176447,
right,right,14.0,0.0,7.0,right,1.0,0.571604049000598,,speed,space,1.1065766120009357,,,,,,0.0,0.0,0.0,1.0,7.0,0.0,14.0,1.0,228.38781282799937,,,,,,,,,228.3751375100001,229.58819633299936,230.3883236040001,230.37678591700023,230.3770592209985,230.3883236040001,230.3883236040001,230.3883236040001,230.97575968099957,,,,,,,,,,,,,,,,,,,,,,,,,,,,,,right,1.0,0.571604049000598,,,,,,sub-092,1,random_dot,60.04511802176447,
left,left,15.0,1.0,7.0,left,1.0,0.9175047329990776,,speed,space,1.1065766120009357,,,,,,0.0,0.0,0.0,1.0,7.0,1.0,15.0,0.0,230.9879771369997,,,,,,,,,230.97611881299963,231.33833466800024,232.13829188699856,232.1273282059992,232.12760207499923,232.13829188699856,232.13829188699856,232.13829188699856,233.06026758699957,,,,,,,,,,,,,,,,,,,,,,,,,,,,,,left,1.0,0.9175047329990776,,,,,,sub-092,1,random_dot,60.04511802176447,
left,left,16.0,0.0,8.0,left,1.0,1.500659782999719,,speed,space,1.1065766120009357,,,,,,0.0,0.0,0.0,1.0,8.0,0.0,16.0,0.0,233.07160736399965,,,,,,,,,233.0605825519997,234.2715206289995,235.07087989399952,235.05929773000025,235.0596356890001,235.07087989399952,235.07087989399952,235.07087989399952,236.57606847199892,,,,,,,,,,,,,,,,,,,,,,,,,,,,,,left,1.0,1.500659782999719,,,,,,sub-092,1,random_dot,60.04511802176447,
right,right,17.0,1.0,8.0,right,1.0,2.403444978999687,,speed,space,1.1065766120009357,,,,,,0.0,0.0,0.0,1.0,8.0,1.0,17.0,1.0,236.58776522900007,,,,,,,,,236.57633782899936,236.68786514299973,237.4874077559998,237.47499973499907,237.4752298579988,237.4874077559998,237.4874077559998,237.4874077559998,239.89457331499943,,,,,,,,,,,,,,,,,,,,,,,,,,,,,,right,1.0,2.403444978999687,,,,,,sub-092,1,random_dot,60.04511802176447,
right,right,18.0,0.0,9.0,right,1.0,0.8713944430000993,,speed,space,1.1065766120009357,,,,,,0.0,0.0,0.0,1.0,9.0,0.0,18.0,1.0,239.90465412499907,,,,,,,,,239.89505133799867,240.70394694700008,241.50394505499932,241.4929525059997,241.49328479699943,241.50394505499932,241.50394505499932,241.50394505499932,242.3775273229985,,,,,,,,,,,,,,,,,,,,,,,,,,,,,,right,1.0,0.8713944430000993,,,,,,sub-092,1,random_dot,60.04511802176447,
left,left,19.0,1.0,9.0,left,1.0,0.6350827109999955,,speed,space,1.1065766120009357,,,,,,0.0,0.0,0.0,1.0,9.0,1.0,19.0,0.0,242.3876160759992,,,,,,,,,242.3779155169996,242.7370601019993,243.53717565599985,243.52473922799985,243.52496350799996,243.53717565599985,243.53717565599985,243.53717565599985,244.17543417900012,,,,,,,,,,,,,,,,,,,,,,,,,,,,,,left,1.0,0.6350827109999955,,,,,,sub-092,1,random_dot,60.04511802176447,
left,left,20.0,0.0,10.0,left,1.0,0.6759146320000582,,speed,space,1.1065766120009357,,,,,,0.0,0.0,0.0,1.0,10.0,0.0,20.0,0.0,244.18870776499895,,,,,,,,,244.1757116359986,245.3876291029992,246.18732166500013,246.1763511809986,246.1766381540001,246.18732166500013,246.18732166500013,246.18732166500013,246.8743263689994,,,,,,,,,,,,,,,,,,,,,,,,,,,,,,left,1.0,0.6759146320000582,,,,,,sub-092,1,random_dot,60.04511802176447,
right,right,21.0,1.0,10.0,right,1.0,0.6870404000001145,,speed,space,1.1065766120009357,,,,,,0.0,0.0,0.0,1.0,10.0,1.0,21.0,1.0,246.88732665299904,,,,,,,,,246.87459740899976,247.23704364999867,248.03718857899912,248.0271953049996,248.027504959,248.03718857899912,248.03718857899912,248.03718857899912,248.72719113099996,,,,,,,,,,,,,,,,,,,,,,,,,,,,,,right,1.0,0.6870404000001145,,,,,,sub-092,1,random_dot,60.04511802176447,
right,right,22.0,0.0,11.0,right,1.0,0.7121260779986187,,speed,space,1.1065766120009357,,,,,,0.0,0.0,0.0,1.0,11.0,0.0,22.0,1.0,248.73730416999933,,,,,,,,,248.72749236900015,249.08804187900023,249.88806493999985,249.87646722499997,249.87674083899947,249.88806493999985,249.88806493999985,249.88806493999985,250.6085157149992,,,,,,,,,,,,,,,,,,,,,,,,,,,,,,right,1.0,0.7121260779986187,,,,,,sub-092,1,random_dot,60.04511802176447,
left,left,23.0,1.0,11.0,left,1.0,0.5964350850008486,,speed,space,1.1065766120009357,,,,,,0.0,0.0,0.0,1.0,11.0,1.0,23.0,0.0,250.62067530399872,,,,,,,,,250.6088371599999,251.42136150399887,252.2204266299996,252.2067280809988,252.2069539999993,252.2204266299996,252.2204266299996,252.2204266299996,252.8250922539992,,,,,,,,,,,,,,,,,,,,,,,,,,,,,,left,1.0,0.5964350850008486,,,,,,sub-092,1,random_dot,60.04511802176447,
right,right,24.0,0.0,12.0,right,1.0,0.6819744309996167,,speed,space,1.1065766120009357,,,,,,0.0,0.0,0.0,1.0,12.0,0.0,24.0,1.0,252.8377011590001,,,,,,,,,252.8253630909985,254.0378352169992,254.8380778379997,254.82399208899915,254.82422760999907,254.8380778379997,254.8380778379997,254.8380778379997,255.525406114999,,,,,,,,,,,,,,,,,,,,,,,,,,,,,,right,1.0,0.6819744309996167,,,,,,sub-092,1,random_dot,60.04511802176447,
left,left,25.0,1.0,12.0,left,1.0,0.6220150219996867,,speed,space,1.1065766120009357,,,,,,0.0,0.0,0.0,1.0,12.0,1.0,25.0,0.0,255.53799833499943,,,,,,,,,255.52567160599935,256.7379571290003,257.53783533000023,257.5264068759989,257.52669177200005,257.53783533000023,257.53783533000023,257.53783533000023,258.1609000030003,,,,,,,,,,,,,,,,,,,,,,,,,,,,,,left,1.0,0.6220150219996867,,,,,,sub-092,1,random_dot,60.04511802176447,
right,right,26.0,0.0,13.0,right,1.0,0.5715532329995767,,speed,space,1.1065766120009357,,,,,,0.0,0.0,0.0,1.0,13.0,0.0,26.0,1.0,258.1708771089998,,,,,,,,,258.1612648680002,258.5211002929991,259.3213743849992,259.3102700719992,259.31067920999885,259.3213743849992,259.3213743849992,259.3213743849992,259.9072719420001,,,,,,,,,,,,,,,,,,,,,,,,,,,,,,right,1.0,0.5715532329995767,,,,,,sub-092,1,random_dot,60.04511802176447,
left,left,27.0,1.0,13.0,right,0.0,2.1670571750000818,,speed,space,1.1065766120009357,,,,,,0.0,0.0,0.0,1.0,13.0,1.0,27.0,0.0,259.9208080949993,,,,,,,,,259.9075373300002,260.27111225099907,261.07110453399946,261.0598641889992,261.06014323899944,261.07110453399946,261.07110453399946,261.07110453399946,263.2428612599997,,,,,,,,,,,,,,,,,,,,,,,,,,,,,,right,0.0,2.1670571750000818,,,,,,sub-092,1,random_dot,60.04511802176447,
left,left,28.0,0.0,14.0,left,1.0,1.581584388999545,,speed,space,1.1065766120009357,,,,,,0.0,0.0,0.0,1.0,14.0,0.0,28.0,0.0,263.25362878600026,,,,,,,,,263.24313704799897,264.4544791649987,265.2544656149985,265.24164453499907,265.2418723709998,265.2544656149985,265.2544656149985,265.2544656149985,266.8415890839988,,,,,,,,,,,,,,,,,,,,,,,,,,,,,,left,1.0,1.581584388999545,,,,,,sub-092,1,random_dot,60.04511802176447,
right,right,29.0,1.0,14.0,right,1.0,0.5986720740002056,,speed,space,1.1065766120009357,,,,,,0.0,0.0,0.0,1.0,14.0,1.0,29.0,1.0,266.8537500089988,,,,,,,,,266.84185373199944,267.6543020749996,268.4543712879986,268.4431719789991,268.4434471959994,268.4543712879986,268.4543712879986,268.4543712879986,269.06013028099915,,,,,,,,,,,,,,,,,,,,,,,,,,,,,,right,1.0,0.5986720740002056,,,,,,sub-092,1,random_dot,60.04511802176447,
left,left,30.0,0.0,15.0,left,1.0,0.9642793860002712,,speed,space,1.1065766120009357,,,,,,0.0,0.0,0.0,1.0,15.0,0.0,30.0,0.0,269.0704832499996,,,,,,,,,269.06043272999887,269.4202338139985,270.22098305599866,270.2101434069991,270.2104209469999,270.22098305599866,270.22098305599866,270.22098305599866,271.19303748699895,,,,,,,,,,,,,,,,,,,,,,,,,,,,,,left,1.0,0.9642793860002712,,,,,,sub-092,1,random_dot,60.04511802176447,
right,right,31.0,1.0,15.0,right,1.0,0.6811743980015308,,speed,space,1.1065766120009357,,,,,,0.0,0.0,0.0,1.0,15.0,1.0,31.0,1.0,271.2041498179988,,,,,,,,,271.1935074559988,271.304222974999,272.10383164199993,272.0899037929994,272.0901231659991,272.10383164199993,272.10383164199993,272.10383164199993,272.7915209699986,,,,,,,,,,,,,,,,,,,,,,,,,,,,,,right,1.0,0.6811743980015308,,,,,,sub-092,1,random_dot,60.04511802176447,
left,left,32.0,0.0,16.0,left,1.0,1.1948489930000503,,speed,space,1.1065766120009357,,,,,,0.0,0.0,0.0,1.0,16.0,0.0,32.0,0.0,272.8043497519993,,,,,,,,,272.79178949499874,272.90326379399994,273.70428518599874,273.69430689599903,273.6945807100001,273.70428518599874,273.70428518599874,273.70428518599874,274.9071802540002,,,,,,,,,,,,,,,,,,,,,,,,,,,,,,left,1.0,1.1948489930000503,,,,,,sub-092,1,random_dot,60.04511802176447,
right,right,33.0,1.0,16.0,right,1.0,0.6100299419995281,,speed,space,1.1065766120009357,,,,,,0.0,0.0,0.0,1.0,16.0,1.0,33.0,1.0,274.9211982299985,,,,,,,,,274.90744666799947,275.721020306999,276.5210391669989,276.5096158659999,276.5098917710002,276.5210391669989,276.5210391669989,276.5210391669989,277.1405886379998,,,,,,,,,,,,,,,,,,,,,,,,,,,,,,right,1.0,0.6100299419995281,,,,,,sub-092,1,random_dot,60.04511802176447,
right,right,34.0,0.0,17.0,left,0.0,1.700388027000372,,speed,space,1.1065766120009357,,,,,,0.0,0.0,0.0,1.0,17.0,0.0,34.0,1.0,277.1541170379988,,,,,,,,,277.14085256399994,277.25368475699906,278.05347042799986,278.0420419339989,278.0423399039992,278.05347042799986,278.05347042799986,278.05347042799986,279.7584143789991,,,,,,,,,,,,,,,,,,,,,,,,,,,,,,left,0.0,1.700388027000372,,,,,,sub-092,1,random_dot,60.04511802176447,
left,left,35.0,1.0,17.0,right,0.0,1.001803369999834,,speed,space,1.1065766120009357,,,,,,0.0,0.0,0.0,1.0,17.0,1.0,35.0,0.0,279.7703073699995,,,,,,,,,279.75868241199896,280.121008094,280.9209230010001,280.91011101099866,280.9104165249992,280.9209230010001,280.9209230010001,280.9209230010001,281.9268237159995,,,,,,,,,,,,,,,,,,,,,,,,,,,,,,right,0.0,1.001803369999834,,,,,,sub-092,1,random_dot,60.04511802176447,
right,right,36.0,0.0,18.0,right,1.0,0.9248792369999136,,speed,space,1.1065766120009357,,,,,,0.0,0.0,0.0,1.0,18.0,0.0,36.0,1.0,281.9374363729985,,,,,,,,,281.9272464149999,283.1374470179999,283.9378120319998,283.9261614449988,283.92643356400004,283.9378120319998,283.9378120319998,283.9378120319998,284.87378624099983,,,,,,,,,,,,,,,,,,,,,,,,,,,,,,right,1.0,0.9248792369999136,,,,,,sub-092,1,random_dot,60.04511802176447,
left,left,37.0,1.0,18.0,left,1.0,0.871101197999451,,speed,space,1.1065766120009357,,,,,,0.0,0.0,0.0,1.0,18.0,1.0,37.0,0.0,284.8874353499996,,,,,,,,,284.8740563889987,285.6876003189991,286.4874819269989,286.4760167379991,286.4762953829995,286.4874819269989,286.4874819269989,286.4874819269989,287.36073078299887,,,,,,,,,,,,,,,,,,,,,,,,,,,,,,left,1.0,0.871101197999451,,,,,,sub-092,1,random_dot,60.04511802176447,
left,left,38.0,0.0,19.0,left,1.0,0.81760583599862,,speed,space,1.1065766120009357,,,,,,0.0,0.0,0.0,1.0,19.0,0.0,38.0,0.0,287.3710394439986,,,,,,,,,287.36111896500006,287.4709778689994,288.27094286899955,288.2594581379999,288.2597321639987,288.27094286899955,288.27094286899955,288.27094286899955,289.0928093679995,,,,,,,,,,,,,,,,,,,,,,,,,,,,,,left,1.0,0.81760583599862,,,,,,sub-092,1,random_dot,60.04511802176447,
right,right,39.0,1.0,19.0,left,0.0,2.228525812000953,,speed,space,1.1065766120009357,,,,,,0.0,0.0,0.0,1.0,19.0,1.0,39.0,1.0,289.1038079779992,,,,,,,,,289.0930802849998,289.20403903700026,290.0040922499993,289.99302636,289.9932981619986,290.0040922499993,290.0040922499993,290.0040922499993,292.2402738459987,,,,,,,,,,,,,,,,,,,,,,,,,,,,,,left,0.0,2.228525812000953,,,,,,sub-092,1,random_dot,60.04511802176447,
left,left,40.0,0.0,20.0,right,0.0,0.9615965119992324,,speed,space,1.1065766120009357,,,,,,0.0,0.0,0.0,1.0,20.0,0.0,40.0,0.0,292.2541192609988,,,,,,,,,292.24054766100016,293.05310924999867,293.85305872699973,293.8426635779997,293.842936998999,293.85305872699973,293.85305872699973,293.85305872699973,294.82384503399953,,,,,,,,,,,,,,,,,,,,,,,,,,,,,,right,0.0,0.9615965119992324,,,,,,sub-092,1,random_dot,60.04511802176447,
right,right,41.0,1.0,20.0,right,1.0,0.6658865089993924,,speed,space,1.1065766120009357,,,,,,0.0,0.0,0.0,1.0,20.0,1.0,41.0,1.0,294.83714953900017,,,,,,,,,294.8241122399995,294.93738981099887,295.737511207999,295.72617768300006,295.7264674389989,295.737511207999,295.737511207999,295.737511207999,296.4085102029985,,,,,,,,,,,,,,,,,,,,,,,,,,,,,,right,1.0,0.6658865089993924,,,,,,sub-092,1,random_dot,60.04511802176447,
right,right,42.0,0.0,21.0,left,0.0,0.5223528810001881,,speed,space,1.1065766120009357,,,,,,0.0,0.0,0.0,1.0,21.0,0.0,42.0,1.0,296.42021356999976,,,,,,,,,296.40877574799924,297.22055632499905,298.02085705599893,298.00927160099855,298.00954531800016,298.02085705599893,298.02085705599893,298.02085705599893,298.5573866630002,,,,,,,,,,,,,,,,,,,,,,,,,,,,,,left,0.0,0.5223528810001881,,,,,,sub-092,1,random_dot,60.04511802176447,
left,left,43.0,1.0,21.0,right,0.0,0.5421128989983117,,speed,space,1.1065766120009357,,,,,,0.0,0.0,0.0,1.0,21.0,1.0,43.0,0.0,298.5697478109996,,,,,,,,,298.5576503639986,299.3704627930001,300.1705239989988,300.1571869290001,300.1574105969994,300.1705239989988,300.1705239989988,300.1705239989988,300.7250654239997,,,,,,,,,,,,,,,,,,,,,,,,,,,,,,right,0.0,0.5421128989983117,,,,,,sub-092,1,random_dot,60.04511802176447,
right,right,44.0,0.0,22.0,right,1.0,1.0230369069995504,,speed,space,1.1065766120009357,,,,,,0.0,0.0,0.0,1.0,22.0,0.0,44.0,1.0,300.7368001340001,,,,,,,,,300.72544279499925,300.8367490519995,301.6371556510003,301.62587295499907,301.6261460730002,301.6371556510003,301.6371556510003,301.6371556510003,302.67431756099904,,,,,,,,,,,,,,,,,,,,,,,,,,,,,,right,1.0,1.0230369069995504,,,,,,sub-092,1,random_dot,60.04511802176447,
left,left,45.0,1.0,22.0,right,0.0,1.2367971169987868,,speed,space,1.1065766120009357,,,,,,0.0,0.0,0.0,1.0,22.0,1.0,45.0,0.0,302.688422272,,,,,,,,,302.67458037100005,303.0365254219996,303.83625393999864,303.8249014289995,303.82512202399994,303.83625393999864,303.83625393999864,303.83625393999864,305.0742568529986,,,,,,,,,,,,,,,,,,,,,,,,,,,,,,right,0.0,1.2367971169987868,,,,,,sub-092,1,random_dot,60.04511802176447,
left,left,46.0,0.0,23.0,left,1.0,1.001924718999362,,speed,space,1.1065766120009357,,,,,,0.0,0.0,0.0,1.0,23.0,0.0,46.0,0.0,305.0866093219993,,,,,,,,,305.0745871719992,305.4372475979999,306.23708944200007,306.22596661699936,306.22624518999874,306.23708944200007,306.23708944200007,306.23708944200007,307.2414982949995,,,,,,,,,,,,,,,,,,,,,,,,,,,,,,left,1.0,1.001924718999362,,,,,,sub-092,1,random_dot,60.04511802176447,
right,right,47.0,1.0,23.0,right,1.0,0.755857632999323,,speed,space,1.1065766120009357,,,,,,0.0,0.0,0.0,1.0,23.0,1.0,47.0,1.0,307.25394436199895,,,,,,,,,307.2419404709999,308.4536747209986,309.25312414699874,309.240160379999,309.2403841719988,309.25312414699874,309.25312414699874,309.25312414699874,310.0103969510001,,,,,,,,,,,,,,,,,,,,,,,,,,,,,,right,1.0,0.755857632999323,,,,,,sub-092,1,random_dot,60.04511802176447,
right,right,48.0,0.0,24.0,right,1.0,1.6726432830000704,,speed,space,1.1065766120009357,,,,,,0.0,0.0,0.0,1.0,24.0,0.0,48.0,1.0,310.0203238689992,,,,,,,,,310.0107130139986,310.1205878609999,310.9212065189986,310.9090504079996,310.9093209369985,310.9212065189986,310.9212065189986,310.9212065189986,312.60675412699857,,,,,,,,,,,,,,,,,,,,,,,,,,,,,,right,1.0,1.6726432830000704,,,,,,sub-092,1,random_dot,60.04511802176447,
left,left,49.0,1.0,24.0,left,1.0,0.9186538160010967,,speed,space,1.1065766120009357,,,,,,0.0,0.0,0.0,1.0,24.0,1.0,49.0,0.0,312.6201365669985,,,,,,,,,312.6070331889987,313.8201640449988,314.62018452399934,314.606487559,314.6067093699985,314.62018452399934,314.62018452399934,314.62018452399934,315.5430285120001,,,,,,,,,,,,,,,,,,,,,,,,,,,,,,left,1.0,0.9186538160010967,,,,,,sub-092,1,random_dot,60.04511802176447,
right,right,50.0,0.0,25.0,right,1.0,0.9610654359985348,,speed,space,1.1065766120009357,,,,,,0.0,0.0,0.0,1.0,25.0,0.0,50.0,1.0,315.55412715799866,,,,,,,,,315.5432937659989,316.35317279099945,317.1538000169985,317.1423255310001,317.142656263999,317.1538000169985,317.1538000169985,317.1538000169985,318.1239280439986,,,,,,,,,,,,,,,,,,,,,,,,,,,,,,right,1.0,0.9610654359985348,,,,,,sub-092,1,random_dot,60.04511802176447,
left,left,51.0,1.0,25.0,right,0.0,1.0665307859999302,,speed,space,1.1065766120009357,,,,,,0.0,0.0,0.0,1.0,25.0,1.0,51.0,0.0,318.13704599599987,,,,,,,,,318.12419032599973,318.93748653500006,319.7372088379998,319.72328885099887,319.7236060079995,319.7372088379998,319.7372088379998,319.7372088379998,320.8091446369999,,,,,,,,,,,,,,,,,,,,,,,,,,,,,,right,0.0,1.0665307859999302,,,,,,sub-092,1,random_dot,60.04511802176447,
right,right,52.0,0.0,26.0,right,1.0,1.0368972710002708,,speed,space,1.1065766120009357,,,,,,0.0,0.0,0.0,1.0,26.0,0.0,52.0,1.0,320.8200379919999,,,,,,,,,320.809534819,322.02040901799955,322.83767149399864,322.8256038569998,322.8258785379985,322.83767149399864,322.83767149399864,322.83767149399864,323.88984783199885,,,,,,,,,,,,,,,,,,,,,,,,,,,,,,right,1.0,1.0368972710002708,,,,,,sub-092,1,random_dot,60.04511802176447,
left,left,53.0,1.0,26.0,left,1.0,1.4109427879993746,,speed,space,1.1065766120009357,,,,,,0.0,0.0,0.0,1.0,26.0,1.0,53.0,0.0,323.902704909,,,,,,,,,323.8901152639992,325.1039859419998,325.9038110089987,325.88968657199985,325.88990899499913,325.9038110089987,325.9038110089987,325.9038110089987,327.32310314499955,,,,,,,,,,,,,,,,,,,,,,,,,,,,,,left,1.0,1.4109427879993746,,,,,,sub-092,1,random_dot,60.04511802176447,
left,left,54.0,0.0,27.0,left,1.0,1.190824157998577,,speed,space,1.1065766120009357,,,,,,0.0,0.0,0.0,1.0,27.0,0.0,54.0,0.0,327.3368809349995,,,,,,,,,327.3233710659988,328.1371353839986,328.937118550999,328.9257745369996,328.92605139399893,328.937118550999,328.937118550999,328.937118550999,330.13984262399936,,,,,,,,,,,,,,,,,,,,,,,,,,,,,,left,1.0,1.190824157998577,,,,,,sub-092,1,random_dot,60.04511802176447,
right,right,55.0,1.0,27.0,right,1.0,1.049451199000032,,speed,space,1.1065766120009357,,,,,,0.0,0.0,0.0,1.0,27.0,1.0,55.0,1.0,330.15351219900003,,,,,,,,,330.1401078759991,330.50368601899936,331.302904143,331.29238741799963,331.2926657299995,331.302904143,331.302904143,331.302904143,332.35382235199904,,,,,,,,,,,,,,,,,,,,,,,,,,,,,,right,1.0,1.049451199000032,,,,,,sub-092,1,random_dot,60.04511802176447,
left,left,56.0,0.0,28.0,left,1.0,1.6813022300011653,,speed,space,1.1065766120009357,,,,,,0.0,0.0,0.0,1.0,28.0,0.0,56.0,0.0,332.36096511399955,,,,,,,,,332.3541305159997,332.4537198999988,333.253173531999,333.242037471,333.242320116,333.253173531999,333.253173531999,333.253173531999,334.94169178299853,,,,,,,,,,,,,,,,,,,,,,,,,,,,,,left,1.0,1.6813022300011653,,,,,,sub-092,1,random_dot,60.04511802176447,
right,right,57.0,1.0,28.0,right,1.0,1.0882087180016242,,speed,space,1.1065766120009357,,,,,,0.0,0.0,0.0,1.0,28.0,1.0,57.0,1.0,334.9533256899995,,,,,,,,,334.94205692799915,335.3028223839992,336.1033965239985,336.0923274910001,336.0926013199987,336.1033965239985,336.1033965239985,336.1033965239985,337.206836759,,,,,,,,,,,,,,,,,,,,,,,,,,,,,,right,1.0,1.0882087180016242,,,,,,sub-092,1,random_dot,60.04511802176447,
right,right,58.0,0.0,29.0,right,1.0,1.9898301270004597,,speed,space,1.1065766120009357,,,,,,0.0,0.0,0.0,1.0,29.0,0.0,58.0,1.0,337.2196936589989,,,,,,,,,337.2071057009998,337.3198010119995,338.1204059319989,338.1062831189993,338.1065046909989,338.1204059319989,338.1204059319989,338.1204059319989,340.12386167099976,,,,,,,,,,,,,,,,,,,,,,,,,,,,,,right,1.0,1.9898301270004597,,,,,,sub-092,1,random_dot,60.04511802176447,
left,left,59.0,1.0,29.0,left,1.0,1.390240567001456,,speed,space,1.1065766120009357,,,,,,0.0,0.0,0.0,1.0,29.0,1.0,59.0,0.0,340.1363522949996,,,,,,,,,340.1241279249989,341.3361215699988,342.13599082399924,342.1266045119992,342.12692877100017,342.13599082399924,342.13599082399924,342.13599082399924,343.54012371299905,,,,,,,,,,,,,,,,,,,,,,,,,,,,,,left,1.0,1.390240567001456,,,,,,sub-092,1,random_dot,60.04511802176447,
,,0.0,0.0,0.0,,,,,speed,space,1.1065766120009357,,,,,,0.0,0.0,0.0,1.0,,,,,,,,,,,,,,,,,,,,,,,,,,,,,,,,,,,,,,,,,,,,,,,,,,,,,,,,,,,,sub-092,1,random_dot,60.04511802176447,
left,left,0.0,0.0,0.0,left,1.0,1.6300342089998594,,accuracy,space,6.915921247998995,,,,,,0.0,1.0,1.0,0.0,0.0,0.0,0.0,0.0,350.50532662799924,,,,,,,,,350.4963519699995,351.3027530540003,352.1025291209989,352.089788977999,352.0900136129985,352.1025291209989,352.1025291209989,352.1025291209989,353.74010491099943,,,,,,,,,,,,,,,,,,,,,,,343.55199963299856,343.5579067689996,343.5579067689996,350.4908557609997,space,6.915921247998995,,left,1.0,1.6300342089998594,,,,,,sub-092,1,random_dot,60.04511802176447,
right,right,1.0,1.0,0.0,right,1.0,1.8331475329996465,,accuracy,space,6.915921247998995,,,,,,0.0,1.0,1.0,0.0,0.0,1.0,1.0,1.0,353.75343768899984,,,,,,,,,353.74037748799856,353.85330538499875,354.6532719480001,354.642088396,354.64238125799966,354.6532719480001,354.6532719480001,354.6532719480001,356.490806193,,,,,,,,,,,,,,,,,,,,,,,,,,,,,,right,1.0,1.8331475329996465,,,,,,sub-092,1,random_dot,60.04511802176447,
left,left,2.0,0.0,1.0,left,1.0,0.7761993179992714,,accuracy,space,6.915921247998995,,,,,,0.0,1.0,1.0,0.0,1.0,0.0,2.0,0.0,356.50312279099853,,,,,,,,,356.49106869299976,357.70329913000023,358.5031541190001,358.49174442799995,358.4920189479999,358.5031541190001,358.5031541190001,358.5031541190001,359.2900565439995,,,,,,,,,,,,,,,,,,,,,,,,,,,,,,left,1.0,0.7761993179992714,,,,,,sub-092,1,random_dot,60.04511802176447,
right,right,3.0,1.0,1.0,right,1.0,0.8169124890009698,,accuracy,space,6.915921247998995,,,,,,0.0,1.0,1.0,0.0,1.0,1.0,3.0,1.0,359.3030597249999,,,,,,,,,359.29031934999875,360.5031577139998,361.30327134599975,361.2916261789997,361.2919002609997,361.30327134599975,361.30327134599975,361.30327134599975,362.12437109599887,,,,,,,,,,,,,,,,,,,,,,,,,,,,,,right,1.0,0.8169124890009698,,,,,,sub-092,1,random_dot,60.04511802176447,
left,left,4.0,0.0,2.0,left,1.0,1.111879707999833,,accuracy,space,6.915921247998995,,,,,,0.0,1.0,1.0,0.0,2.0,0.0,4.0,0.0,362.1359662279992,,,,,,,,,362.12465009399966,363.3365433719992,364.13645021199954,364.1251324859986,364.12541834999865,364.13645021199954,364.13645021199954,364.13645021199954,365.2562333139995,,,,,,,,,,,,,,,,,,,,,,,,,,,,,,left,1.0,1.111879707999833,,,,,,sub-092,1,random_dot,60.04511802176447,
right,right,5.0,1.0,2.0,right,1.0,0.8117363910005224,,accuracy,space,6.915921247998995,,,,,,0.0,1.0,1.0,0.0,2.0,1.0,5.0,1.0,365.27015215699976,,,,,,,,,365.25649738799984,366.46896579500026,367.26970729299865,367.2587851219996,367.2590618359991,367.26970729299865,367.26970729299865,367.26970729299865,368.0906400709992,,,,,,,,,,,,,,,,,,,,,,,,,,,,,,right,1.0,0.8117363910005224,,,,,,sub-092,1,random_dot,60.04511802176447,
right,right,6.0,0.0,3.0,right,1.0,1.1910141200005455,,accuracy,space,6.915921247998995,,,,,,0.0,1.0,1.0,0.0,3.0,0.0,6.0,1.0,368.1030202459988,,,,,,,,,368.0909173229993,369.3031726729987,370.102994552999,370.09175999999934,370.0920352909998,370.102994552999,370.102994552999,370.102994552999,371.3078447759999,,,,,,,,,,,,,,,,,,,,,,,,,,,,,,right,1.0,1.1910141200005455,,,,,,sub-092,1,random_dot,60.04511802176447,
left,left,7.0,1.0,3.0,left,1.0,1.9853803260011773,,accuracy,space,6.915921247998995,,,,,,0.0,1.0,1.0,0.0,3.0,1.0,7.0,0.0,371.3189299360001,,,,,,,,,371.308169504,371.41903942799945,372.2194863509994,372.2057336929993,372.20595769699867,372.2194863509994,372.2194863509994,372.2194863509994,374.2074814099997,,,,,,,,,,,,,,,,,,,,,,,,,,,,,,left,1.0,1.9853803260011773,,,,,,sub-092,1,random_dot,60.04511802176447,
right,right,8.0,0.0,4.0,right,1.0,1.4803084479990505,,accuracy,space,6.915921247998995,,,,,,0.0,1.0,1.0,0.0,4.0,0.0,8.0,1.0,374.2196255139989,,,,,,,,,374.2077963269985,374.3196330259998,375.1206684640001,375.1090947269986,375.1093135989995,375.1206684640001,375.1206684640001,375.1206684640001,376.60707371900025,,,,,,,,,,,,,,,,,,,,,,,,,,,,,,right,1.0,1.4803084479990505,,,,,,sub-092,1,random_dot,60.04511802176447,
left,left,9.0,1.0,4.0,right,0.0,1.824046271000043,,accuracy,space,6.915921247998995,,,,,,0.0,1.0,1.0,0.0,4.0,1.0,9.0,0.0,376.6196343489992,,,,,,,,,376.60733808199984,376.7196692910002,377.51970005099975,377.508374858,377.508649206,377.51970005099975,377.51970005099975,377.51970005099975,379.3585647759992,,,,,,,,,,,,,,,,,,,,,,,,,,,,,,right,0.0,1.824046271000043,,,,,,sub-092,1,random_dot,60.04511802176447,
right,right,10.0,0.0,5.0,left,0.0,2.5114813469990622,,accuracy,space,6.915921247998995,,,,,,0.0,1.0,1.0,0.0,5.0,0.0,10.0,1.0,379.3691273429995,,,,,,,,,379.3589921959992,379.46909834599865,380.2699847160002,380.2581882939994,380.2584622389986,380.2699847160002,380.2699847160002,380.2699847160002,382.7889825980001,,,,,,,,,,,,,,,,,,,,,,,,,,,,,,left,0.0,2.5114813469990622,,,,,,sub-092,1,random_dot,60.04511802176447,
left,left,11.0,1.0,5.0,left,1.0,2.5108336079993023,,accuracy,space,6.915921247998995,,,,,,0.0,1.0,1.0,0.0,5.0,1.0,11.0,0.0,382.80287447699993,,,,,,,,,382.7892470259994,383.1527715569992,383.9528586819997,383.9392697099993,383.9394935239998,383.9528586819997,383.9528586819997,383.9528586819997,386.4725845699995,,,,,,,,,,,,,,,,,,,,,,,,,,,,,,left,1.0,2.5108336079993023,,,,,,sub-092,1,random_dot,60.04511802176447,
right,right,12.0,0.0,6.0,right,1.0,1.2484066180004447,,accuracy,space,6.915921247998995,,,,,,0.0,1.0,1.0,0.0,6.0,0.0,12.0,1.0,386.48601055200015,,,,,,,,,386.4728618469999,387.6861346259993,388.4862896859995,388.47157022699867,388.4717952760002,388.4862896859995,388.4862896859995,388.4862896859995,389.7403833009994,,,,,,,,,,,,,,,,,,,,,,,,,,,,,,right,1.0,1.2484066180004447,,,,,,sub-092,1,random_dot,60.04511802176447,
left,left,13.0,1.0,6.0,left,1.0,1.6663881650001713,,accuracy,space,6.915921247998995,,,,,,0.0,1.0,1.0,0.0,6.0,1.0,13.0,0.0,389.7530298599995,,,,,,,,,389.7406475169992,390.5526338259988,391.3526542170002,391.3388059989993,391.3390299160001,391.3526542170002,391.3526542170002,391.3526542170002,393.02415274600025,,,,,,,,,,,,,,,,,,,,,,,,,,,,,,left,1.0,1.6663881650001713,,,,,,sub-092,1,random_dot,60.04511802176447,
right,right,14.0,0.0,7.0,right,1.0,1.8433302940011345,,accuracy,space,6.915921247998995,,,,,,0.0,1.0,1.0,0.0,7.0,0.0,14.0,1.0,393.0359547150001,,,,,,,,,393.0244815749993,393.8360847189997,394.6362769979987,394.62530463799885,394.62558117799927,394.6362769979987,394.6362769979987,394.6362769979987,396.4912848209988,,,,,,,,,,,,,,,,,,,,,,,,,,,,,,right,1.0,1.8433302940011345,,,,,,sub-092,1,random_dot,60.04511802176447,
left,left,15.0,1.0,7.0,right,0.0,1.680547984000441,,accuracy,space,6.915921247998995,,,,,,0.0,1.0,1.0,0.0,7.0,1.0,15.0,0.0,396.5021448209991,,,,,,,,,396.4916771579992,396.6025038239986,397.4017101729987,397.38815140899897,397.38837479299946,397.4017101729987,397.4017101729987,397.4017101729987,399.08918713799903,,,,,,,,,,,,,,,,,,,,,,,,,,,,,,right,0.0,1.680547984000441,,,,,,sub-092,1,random_dot,60.04511802176447,
left,left,16.0,0.0,8.0,right,0.0,1.755730835999202,,accuracy,space,6.915921247998995,,,,,,0.0,1.0,1.0,0.0,8.0,0.0,16.0,0.0,399.1026373169989,,,,,,,,,399.0894539829988,399.9020929119997,400.7016720979991,400.6898035769991,400.6900356400001,400.7016720979991,400.7016720979991,400.7016720979991,402.4592899269992,,,,,,,,,,,,,,,,,,,,,,,,,,,,,,right,0.0,1.755730835999202,,,,,,sub-092,1,random_dot,60.04511802176447,
right,right,17.0,1.0,8.0,right,1.0,1.5889185310006724,,accuracy,space,6.915921247998995,,,,,,0.0,1.0,1.0,0.0,8.0,1.0,17.0,1.0,402.4688252679989,,,,,,,,,402.4596176899995,403.668951308,404.46917192599904,404.4547457239987,404.45496844899935,404.46917192599904,404.46917192599904,404.46917192599904,406.0739890039986,,,,,,,,,,,,,,,,,,,,,,,,,,,,,,right,1.0,1.5889185310006724,,,,,,sub-092,1,random_dot,60.04511802176447,
left,left,18.0,0.0,9.0,left,1.0,1.1287196060002316,,accuracy,space,6.915921247998995,,,,,,0.0,1.0,1.0,0.0,9.0,0.0,18.0,0.0,406.0856940419999,,,,,,,,,406.07426581899927,406.4358866369985,407.2364022069996,407.2221952740001,407.2224198259992,407.2364022069996,407.2364022069996,407.2364022069996,408.37261114600005,,,,,,,,,,,,,,,,,,,,,,,,,,,,,,left,1.0,1.1287196060002316,,,,,,sub-092,1,random_dot,60.04511802176447,
right,right,19.0,1.0,9.0,right,1.0,1.645028889999594,,accuracy,space,6.915921247998995,,,,,,0.0,1.0,1.0,0.0,9.0,1.0,19.0,1.0,408.3862092239997,,,,,,,,,408.3728765179985,409.1857967679989,409.9858375549993,409.97433744799855,409.9746121399985,409.9858375549993,409.9858375549993,409.9858375549993,411.64079888800006,,,,,,,,,,,,,,,,,,,,,,,,,,,,,,right,1.0,1.645028889999594,,,,,,sub-092,1,random_dot,60.04511802176447,
left,left,20.0,0.0,10.0,left,1.0,1.4253378859993973,,accuracy,space,6.915921247998995,,,,,,0.0,1.0,1.0,0.0,10.0,0.0,20.0,0.0,411.65162977899854,,,,,,,,,411.6410828579992,412.45186794099936,413.2525836119985,413.2411794759992,413.2414579010001,413.2525836119985,413.2525836119985,413.2525836119985,414.68961324999873,,,,,,,,,,,,,,,,,,,,,,,,,,,,,,left,1.0,1.4253378859993973,,,,,,sub-092,1,random_dot,60.04511802176447,
right,right,21.0,1.0,10.0,right,1.0,1.0722726189997047,,accuracy,space,6.915921247998995,,,,,,0.0,1.0,1.0,0.0,10.0,1.0,21.0,1.0,414.70185735299856,,,,,,,,,414.6898805229994,415.5023259209993,416.3025214809986,416.2910417579988,416.2913181139993,416.3025214809986,416.3025214809986,416.3025214809986,417.3890493039999,,,,,,,,,,,,,,,,,,,,,,,,,,,,,,right,1.0,1.0722726189997047,,,,,,sub-092,1,random_dot,60.04511802176447,
right,right,22.0,0.0,11.0,right,1.0,1.1123446870005864,,accuracy,space,6.915921247998995,,,,,,0.0,1.0,1.0,0.0,11.0,0.0,22.0,1.0,417.4029665529997,,,,,,,,,417.3893261859994,418.6023337049992,419.4023810090002,419.3909019419989,419.3911727630002,419.4023810090002,419.4023810090002,419.4023810090002,420.5227818169988,,,,,,,,,,,,,,,,,,,,,,,,,,,,,,right,1.0,1.1123446870005864,,,,,,sub-092,1,random_dot,60.04511802176447,
left,left,23.0,1.0,11.0,left,1.0,1.0189025590007077,,accuracy,space,6.915921247998995,,,,,,0.0,1.0,1.0,0.0,11.0,1.0,23.0,0.0,420.535516603999,,,,,,,,,420.5230498159999,421.7355399829994,422.5357460340001,422.5219101269995,422.5221346299986,422.5357460340001,422.5357460340001,422.5357460340001,423.558163493999,,,,,,,,,,,,,,,,,,,,,,,,,,,,,,left,1.0,1.0189025590007077,,,,,,sub-092,1,random_dot,60.04511802176447,
right,right,24.0,0.0,12.0,right,1.0,0.9771971059999488,,accuracy,space,6.915921247998995,,,,,,0.0,1.0,1.0,0.0,12.0,0.0,24.0,1.0,423.5692346399992,,,,,,,,,423.5584286569992,423.9190283399985,424.7194419970001,424.704958377999,424.7051814839997,424.7194419970001,424.7194419970001,424.7194419970001,425.7053809879999,,,,,,,,,,,,,,,,,,,,,,,,,,,,,,right,1.0,0.9771971059999488,,,,,,sub-092,1,random_dot,60.04511802176447,
left,left,25.0,1.0,12.0,left,1.0,1.2375630279984762,,accuracy,space,6.915921247998995,,,,,,0.0,1.0,1.0,0.0,12.0,1.0,25.0,0.0,425.71874731000025,,,,,,,,,425.70564864100015,426.918931971999,427.7189820229996,427.70518475300014,427.7054118959986,427.7189820229996,427.7189820229996,427.7189820229996,428.95873361099984,,,,,,,,,,,,,,,,,,,,,,,,,,,,,,left,1.0,1.2375630279984762,,,,,,sub-092,1,random_dot,60.04511802176447,
right,right,26.0,0.0,13.0,left,0.0,1.162911964000159,,accuracy,space,6.915921247998995,,,,,,0.0,1.0,1.0,0.0,13.0,0.0,26.0,1.0,428.96855805299856,,,,,,,,,428.9591442319997,429.7691120849995,430.5685776909995,430.5548507149997,430.5550730549985,430.5685776909995,430.5685776909995,430.5685776909995,431.73906372999954,,,,,,,,,,,,,,,,,,,,,,,,,,,,,,left,0.0,1.162911964000159,,,,,,sub-092,1,random_dot,60.04511802176447,
left,left,27.0,1.0,13.0,right,0.0,1.576185414000065,,accuracy,space,6.915921247998995,,,,,,0.0,1.0,1.0,0.0,13.0,1.0,27.0,0.0,431.75233200299954,,,,,,,,,431.7393390649995,432.1019885469996,432.9021263429986,432.8906755349999,432.890951415,432.9021263429986,432.9021263429986,432.9021263429986,434.4897703480001,,,,,,,,,,,,,,,,,,,,,,,,,,,,,,right,0.0,1.576185414000065,,,,,,sub-092,1,random_dot,60.04511802176447,
right,right,28.0,0.0,14.0,left,0.0,1.7869814460009366,,accuracy,space,6.915921247998995,,,,,,0.0,1.0,1.0,0.0,14.0,0.0,28.0,1.0,434.50180853299935,,,,,,,,,434.49004153999886,434.6023826509991,435.40226236799936,435.3913230010003,435.3915957259997,435.40226236799936,435.40226236799936,435.40226236799936,437.190668109999,,,,,,,,,,,,,,,,,,,,,,,,,,,,,,left,0.0,1.7869814460009366,,,,,,sub-092,1,random_dot,60.04511802176447,
left,left,29.0,1.0,14.0,left,1.0,1.119811804001074,,accuracy,space,6.915921247998995,,,,,,0.0,1.0,1.0,0.0,14.0,1.0,29.0,0.0,437.2014710639996,,,,,,,,,437.1910170829997,437.3020768930001,438.102403072,438.0878136069987,438.0880362709995,438.102403072,438.102403072,438.102403072,439.22538960899874,,,,,,,,,,,,,,,,,,,,,,,,,,,,,,left,1.0,1.119811804001074,,,,,,sub-092,1,random_dot,60.04511802176447,
left,left,30.0,0.0,15.0,right,0.0,0.9737644090000686,,accuracy,space,6.915921247998995,,,,,,0.0,1.0,1.0,0.0,15.0,0.0,30.0,0.0,439.2352893169991,,,,,,,,,439.225682889999,439.3348036019997,440.13543923699945,440.1214332889994,440.1216700819987,440.13543923699945,440.13543923699945,440.13543923699945,441.12280231600016,,,,,,,,,,,,,,,,,,,,,,,,,,,,,,right,0.0,0.9737644090000686,,,,,,sub-092,1,random_dot,60.04511802176447,
right,right,31.0,1.0,15.0,right,1.0,0.6945569939998677,,accuracy,space,6.915921247998995,,,,,,0.0,1.0,1.0,0.0,15.0,1.0,31.0,1.0,441.1349947239996,,,,,,,,,441.12307965699983,442.3353143200002,443.13547982899945,443.1240786109993,443.1243528670002,443.13547982899945,443.13547982899945,443.13547982899945,443.8423598019999,,,,,,,,,,,,,,,,,,,,,,,,,,,,,,right,1.0,0.6945569939998677,,,,,,sub-092,1,random_dot,60.04511802176447,
left,left,32.0,0.0,16.0,left,1.0,1.3030677439983265,,accuracy,space,6.915921247998995,,,,,,0.0,1.0,1.0,0.0,16.0,0.0,32.0,0.0,443.8517625629993,,,,,,,,,443.8426483129988,445.0520874469985,445.8519468689992,445.84094538799945,445.8412268639986,445.8519468689992,445.8519468689992,445.8519468689992,447.1578492039989,,,,,,,,,,,,,,,,,,,,,,,,,,,,,,left,1.0,1.3030677439983265,,,,,,sub-092,1,random_dot,60.04511802176447,
right,right,33.0,1.0,16.0,right,1.0,0.8166211539992219,,accuracy,space,6.915921247998995,,,,,,0.0,1.0,1.0,0.0,16.0,1.0,33.0,1.0,447.16906532699977,,,,,,,,,447.1581219239997,447.5185616090002,448.31838108099873,448.3046576919987,448.3048987679995,448.31838108099873,448.31838108099873,448.31838108099873,449.13972981000006,,,,,,,,,,,,,,,,,,,,,,,,,,,,,,right,1.0,0.8166211539992219,,,,,,sub-092,1,random_dot,60.04511802176447,
left,left,34.0,0.0,17.0,left,1.0,0.6789964509989659,,accuracy,space,6.915921247998995,,,,,,0.0,1.0,1.0,0.0,17.0,0.0,34.0,0.0,449.1520655160002,,,,,,,,,449.1400024019986,450.3517110699995,451.1518900419997,451.1408522459988,451.1411280129996,451.1518900419997,451.1518900419997,451.1518900419997,451.8395237240002,,,,,,,,,,,,,,,,,,,,,,,,,,,,,,left,1.0,0.6789964509989659,,,,,,sub-092,1,random_dot,60.04511802176447,
right,right,35.0,1.0,17.0,right,1.0,0.5257683870004257,,accuracy,space,6.915921247998995,,,,,,0.0,1.0,1.0,0.0,17.0,1.0,35.0,1.0,451.8521566549989,,,,,,,,,451.8397876959989,453.05128401899856,453.8521384779997,453.84054854999886,453.8408219649991,453.8521384779997,453.8521384779997,453.8521384779997,454.3881923930003,,,,,,,,,,,,,,,,,,,,,,,,,,,,,,right,1.0,0.5257683870004257,,,,,,sub-092,1,random_dot,60.04511802176447,
left,left,36.0,0.0,18.0,left,1.0,0.7458319739998842,,accuracy,space,6.915921247998995,,,,,,0.0,1.0,1.0,0.0,18.0,0.0,36.0,0.0,454.4017486470002,,,,,,,,,454.38845649499854,454.5020751510001,455.301915955999,455.2905196929987,455.2907952599999,455.301915955999,455.301915955999,455.301915955999,456.0551034769997,,,,,,,,,,,,,,,,,,,,,,,,,,,,,,left,1.0,0.7458319739998842,,,,,,sub-092,1,random_dot,60.04511802176447,
right,right,37.0,1.0,18.0,left,0.0,0.7661139969986834,,accuracy,space,6.915921247998995,,,,,,0.0,1.0,1.0,0.0,18.0,1.0,37.0,1.0,456.06860524199874,,,,,,,,,456.0553772949988,456.168557297,456.9686845340002,456.9571510879996,456.9574250049991,456.9686845340002,456.9686845340002,456.9686845340002,457.73967556800017,,,,,,,,,,,,,,,,,,,,,,,,,,,,,,left,0.0,0.7661139969986834,,,,,,sub-092,1,random_dot,60.04511802176447,
left,left,38.0,0.0,19.0,left,1.0,1.2906884389994957,,accuracy,space,6.915921247998995,,,,,,0.0,1.0,1.0,0.0,19.0,0.0,38.0,0.0,457.7513192829993,,,,,,,,,457.7399369949999,458.9513670429988,459.7518860649998,459.74043320799865,459.7407071599992,459.7518860649998,459.7518860649998,459.7518860649998,461.0574604649992,,,,,,,,,,,,,,,,,,,,,,,,,,,,,,left,1.0,1.2906884389994957,,,,,,sub-092,1,random_dot,60.04511802176447,
right,right,39.0,1.0,19.0,left,0.0,0.9120637539999734,,accuracy,space,6.915921247998995,,,,,,0.0,1.0,1.0,0.0,19.0,1.0,39.0,1.0,461.06795435499953,,,,,,,,,461.0578820629999,462.2684296649986,463.06855759300015,463.05707717399855,463.0573534889991,463.06855759300015,463.06855759300015,463.06855759300015,463.9883584769996,,,,,,,,,,,,,,,,,,,,,,,,,,,,,,left,0.0,0.9120637539999734,,,,,,sub-092,1,random_dot,60.04511802176447,
right,right,40.0,0.0,20.0,right,1.0,0.6695952530008071,,accuracy,space,6.915921247998995,,,,,,0.0,1.0,1.0,0.0,20.0,0.0,40.0,1.0,464.0020195179986,,,,,,,,,463.9886212519996,465.2012191279992,466.0019069829996,465.99034872099946,465.9906232439989,466.0019069829996,466.0019069829996,466.0019069829996,466.674345382,,,,,,,,,,,,,,,,,,,,,,,,,,,,,,right,1.0,0.6695952530008071,,,,,,sub-092,1,random_dot,60.04511802176447,
left,left,41.0,1.0,20.0,left,1.0,1.8841545969989968,,accuracy,space,6.915921247998995,,,,,,0.0,1.0,1.0,0.0,20.0,1.0,41.0,0.0,466.6851780050001,,,,,,,,,466.6746224130002,467.4844546379991,468.2843063019991,468.2736426350002,468.27391790899856,468.2843063019991,468.2843063019991,468.2843063019991,470.1731105889994,,,,,,,,,,,,,,,,,,,,,,,,,,,,,,left,1.0,1.8841545969989968,,,,,,sub-092,1,random_dot,60.04511802176447,
right,right,42.0,0.0,21.0,right,1.0,1.3663165660000232,,accuracy,space,6.915921247998995,,,,,,0.0,1.0,1.0,0.0,21.0,0.0,42.0,1.0,470.1850299229991,,,,,,,,,470.1733760669995,470.98443893199874,471.78411334500015,471.7725413379994,471.772914277999,471.78411334500015,471.78411334500015,471.78411334500015,473.1556734819988,,,,,,,,,,,,,,,,,,,,,,,,,,,,,,right,1.0,1.3663165660000232,,,,,,sub-092,1,random_dot,60.04511802176447,
left,left,43.0,1.0,21.0,left,1.0,2.2737501390001853,,accuracy,space,6.915921247998995,,,,,,0.0,1.0,1.0,0.0,21.0,1.0,43.0,0.0,473.1676879369989,,,,,,,,,473.1559376449986,473.518348136,474.3185295530002,474.3045015359985,474.30472237199865,474.3185295530002,474.3185295530002,474.3185295530002,476.60442961899935,,,,,,,,,,,,,,,,,,,,,,,,,,,,,,left,1.0,2.2737501390001853,,,,,,sub-092,1,random_dot,60.04511802176447,
left,left,44.0,0.0,22.0,left,1.0,1.169684734000839,,accuracy,space,6.915921247998995,,,,,,0.0,1.0,1.0,0.0,22.0,0.0,44.0,0.0,476.618162756,,,,,,,,,476.6047093219986,477.4182816519988,478.21844840999984,478.20452961199953,478.2048077909985,478.21844840999984,478.21844840999984,478.21844840999984,479.40466758099865,,,,,,,,,,,,,,,,,,,,,,,,,,,,,,left,1.0,1.169684734000839,,,,,,sub-092,1,random_dot,60.04511802176447,
right,right,45.0,1.0,22.0,right,1.0,2.347320661001504,,accuracy,space,6.915921247998995,,,,,,0.0,1.0,1.0,0.0,22.0,1.0,45.0,1.0,479.4182359409988,,,,,,,,,479.4049370659996,479.51828560099966,480.31778109900006,480.3071842219997,480.3074573489994,480.31778109900006,480.31778109900006,480.31778109900006,482.6718938389986,,,,,,,,,,,,,,,,,,,,,,,,,,,,,,right,1.0,2.347320661001504,,,,,,sub-092,1,random_dot,60.04511802176447,
left,left,46.0,0.0,23.0,right,0.0,1.8388662469988049,,accuracy,space,6.915921247998995,,,,,,0.0,1.0,1.0,0.0,23.0,0.0,46.0,0.0,482.68498889500006,,,,,,,,,482.6721585659998,483.48481227999946,484.2850358179985,484.2735056080001,484.273782500999,484.2850358179985,484.2850358179985,484.2850358179985,486.12546822999866,,,,,,,,,,,,,,,,,,,,,,,,,,,,,,right,0.0,1.8388662469988049,,,,,,sub-092,1,random_dot,60.04511802176447,
right,right,47.0,1.0,23.0,right,1.0,0.8531716369998321,,accuracy,space,6.915921247998995,,,,,,0.0,1.0,1.0,0.0,23.0,1.0,47.0,1.0,486.1343225499986,,,,,,,,,486.12579783599904,486.4848331309986,487.2847628349991,487.27334846699887,487.2737186409995,487.2847628349991,487.2847628349991,487.2847628349991,488.1407643139992,,,,,,,,,,,,,,,,,,,,,,,,,,,,,,right,1.0,0.8531716369998321,,,,,,sub-092,1,random_dot,60.04511802176447,
left,left,48.0,0.0,24.0,right,0.0,1.238547586001005,,accuracy,space,6.915921247998995,,,,,,0.0,1.0,1.0,0.0,24.0,0.0,48.0,0.0,488.15085048699984,,,,,,,,,488.1410393770002,488.9507095179997,489.7513780169993,489.7404618290002,489.7407386759987,489.7513780169993,489.7513780169993,489.7513780169993,491.0054931679988,,,,,,,,,,,,,,,,,,,,,,,,,,,,,,right,0.0,1.238547586001005,,,,,,sub-092,1,random_dot,60.04511802176447,
right,right,49.0,1.0,24.0,left,0.0,1.4769976919997134,,accuracy,space,6.915921247998995,,,,,,0.0,1.0,1.0,0.0,24.0,1.0,49.0,1.0,491.018223215,,,,,,,,,491.0058429700002,491.1177310799994,491.9181575549992,491.906543183999,491.9068137619997,491.9181575549992,491.9181575549992,491.9181575549992,493.4044698389989,,,,,,,,,,,,,,,,,,,,,,,,,,,,,,left,0.0,1.4769976919997134,,,,,,sub-092,1,random_dot,60.04511802176447,
left,left,50.0,0.0,25.0,right,0.0,1.5127309479994435,,accuracy,space,6.915921247998995,,,,,,0.0,1.0,1.0,0.0,25.0,0.0,50.0,0.0,493.41782109499945,,,,,,,,,493.40473208899857,493.5180980379992,494.3180464879988,494.3066756440003,494.3069488330002,494.3180464879988,494.3180464879988,494.3180464879988,495.8382356059992,,,,,,,,,,,,,,,,,,,,,,,,,,,,,,right,0.0,1.5127309479994435,,,,,,sub-092,1,random_dot,60.04511802176447,
right,right,51.0,1.0,25.0,right,1.0,2.7459562570002163,,accuracy,space,6.915921247998995,,,,,,0.0,1.0,1.0,0.0,25.0,1.0,51.0,1.0,495.85148632100027,,,,,,,,,495.83850975399946,496.6513047869994,497.451266565,497.4399640209994,497.44023955099874,497.451266565,497.451266565,497.451266565,500.2051417269995,,,,,,,,,,,,,,,,,,,,,,,,,,,,,,right,1.0,2.7459562570002163,,,,,,sub-092,1,random_dot,60.04511802176447,
left,left,52.0,0.0,26.0,left,1.0,1.3056166160004068,,accuracy,space,6.915921247998995,,,,,,0.0,1.0,1.0,0.0,26.0,0.0,52.0,0.0,500.2173849039991,,,,,,,,,500.205438641,500.3180118,501.1179635640001,501.10673091699937,501.1070058009991,501.1179635640001,501.1179635640001,501.1179635640001,502.4377362999985,,,,,,,,,,,,,,,,,,,,,,,,,,,,,,left,1.0,1.3056166160004068,,,,,,sub-092,1,random_dot,60.04511802176447,
right,right,53.0,1.0,26.0,left,0.0,1.9429067549990575,,accuracy,space,6.915921247998995,,,,,,0.0,1.0,1.0,0.0,26.0,1.0,53.0,1.0,502.45170946599865,,,,,,,,,502.4379987100001,503.6511989409992,504.4513376399991,504.43983338499856,504.4401062019988,504.4513376399991,504.4513376399991,504.4513376399991,506.40405446099976,,,,,,,,,,,,,,,,,,,,,,,,,,,,,,left,0.0,1.9429067549990575,,,,,,sub-092,1,random_dot,60.04511802176447,
right,right,54.0,0.0,27.0,right,1.0,1.2191588839996257,,accuracy,space,6.915921247998995,,,,,,0.0,1.0,1.0,0.0,27.0,0.0,54.0,1.0,506.4176362639992,,,,,,,,,506.4043295399988,507.6177780950002,508.4172932889997,508.40625488600017,508.406486079999,508.4172932889997,508.4172932889997,508.4172932889997,509.6404006369994,,,,,,,,,,,,,,,,,,,,,,,,,,,,,,right,1.0,1.2191588839996257,,,,,,sub-092,1,random_dot,60.04511802176447,
left,left,55.0,1.0,27.0,left,1.0,0.6135338310014049,,accuracy,space,6.915921247998995,,,,,,0.0,1.0,1.0,0.0,27.0,1.0,55.0,0.0,509.6503898789997,,,,,,,,,509.6407551769989,509.7515179089987,510.551892644,510.53887688299983,510.5392135209986,510.551892644,510.551892644,510.551892644,511.171653858999,,,,,,,,,,,,,,,,,,,,,,,,,,,,,,left,1.0,0.6135338310014049,,,,,,sub-092,1,random_dot,60.04511802176447,
left,left,56.0,0.0,28.0,left,1.0,1.363058130998979,,accuracy,space,6.915921247998995,,,,,,0.0,1.0,1.0,0.0,28.0,0.0,56.0,0.0,511.1846936879992,,,,,,,,,511.1719350969997,511.53467189,512.3345314939997,512.322965936999,512.3232399079989,512.3345314939997,512.3345314939997,512.3345314939997,513.705105003999,,,,,,,,,,,,,,,,,,,,,,,,,,,,,,left,1.0,1.363058130998979,,,,,,sub-092,1,random_dot,60.04511802176447,
right,right,57.0,1.0,28.0,right,1.0,1.4945881580006244,,accuracy,space,6.915921247998995,,,,,,0.0,1.0,1.0,0.0,28.0,1.0,57.0,1.0,513.7190529359996,,,,,,,,,513.7053670779987,514.9177194299991,515.7177477219993,515.7041085849996,515.704332149,515.7177477219993,515.7177477219993,515.7177477219993,517.2207073600002,,,,,,,,,,,,,,,,,,,,,,,,,,,,,,right,1.0,1.4945881580006244,,,,,,sub-092,1,random_dot,60.04511802176447,
right,right,58.0,0.0,29.0,left,0.0,2.4213223599999765,,accuracy,space,6.915921247998995,,,,,,0.0,1.0,1.0,0.0,29.0,0.0,58.0,1.0,517.2344328159998,,,,,,,,,517.2209731000003,517.58455159,518.3842456999992,518.3732094489988,518.3734814459986,518.3842456999992,518.3842456999992,518.3842456999992,520.8071376850003,,,,,,,,,,,,,,,,,,,,,,,,,,,,,,left,0.0,2.4213223599999765,,,,,,sub-092,1,random_dot,60.04511802176447,
left,left,59.0,1.0,29.0,right,0.0,1.06076597900028,,accuracy,space,6.915921247998995,,,,,,0.0,1.0,1.0,0.0,29.0,1.0,59.0,0.0,520.8174300149985,,,,,,,,,520.8074540079997,522.0177272909987,522.8180136270003,522.8062183879993,522.806495494,522.8180136270003,522.8180136270003,522.8180136270003,523.8876879039999,,,,,,,,,,,,,,,,,,,,,,,,,,,,,,right,0.0,1.06076597900028,,,,,,sub-092,1,random_dot,60.04511802176447,
,,1.0,1.0,0.0,,,,,accuracy,space,6.915921247998995,,,,,,0.0,1.0,1.0,0.0,,,,,,,,,,,,,,,,,,,,,,,,,,,,,,,,,,,,,,,,,,,,,,,,,,,,,,,,,,,,sub-092,1,random_dot,60.04511802176447,
,,,,,,,,,,,,,,,,,,,,,,,,,,,,,,,,,,,,,,,,,,,,,,,,,,,,,,,,,,,,,,,,,,,,,,,,,,,,523.891395994,523.9009780119995,528.9006485409991,528.8868095010002,sub-092,1,random_dot,60.04511802176447,
