direction,corrAns,randomInstr,practice_trials.thisRepN,practice_trials.thisTrialN,practice_trials.thisN,practice_trials.thisIndex,instr_trials.thisRepN,instr_trials.thisTrialN,instr_trials.thisN,instr_trials.thisIndex,test_trials.thisRepN,test_trials.thisTrialN,test_trials.thisN,test_trials.thisIndex,thisRow.t,notes,general_instruction.started,textGeneralInstr.started,respGeneralInstr.started,general_instruction.stopped,respGeneralInstr.keys,respGeneralInstr.rt,respGeneralInstr.duration,ITI.started,fixcross.started,fixcross.stopped,ITI.stopped,dots.started,backgroundDots.started,stimulusDots.started,respDots.started,stimulusDots.stopped,dots.stopped,respDots.keys,respDots.corr,respDots.rt,respDots.duration,feedback.started,textFeedback.started,feedback.stopped,textFeedback.stopped,info.started,textInfo.started,keyRespInfo.started,info.stopped,keyRespInfo.keys,keyRespInfo.rt,keyRespInfo.duration,test_instruction.started,textTestInstr.started,respTestInstr.started,test_instruction.stopped,respTestInstr.keys,respTestInstr.rt,respTestInstr.duration,random_instruction.started,textRandomInstr.started,respRandomInstr.started,random_instruction.stopped,respRandomInstr.keys,respRandomInstr.rt,respRandomInstr.duration,goodbye.started,textGoodbye.started,textGoodbye.stopped,goodbye.stopped,participant,session,expName,frameRate,Unnamed: 74
,,,,,,,,,,,,,,,,,0.0082838000089395,0.0184828000055858,0.0184828000055858,125.085602200008,space,140.91251909997663,,,,,,,,,,,,,,,,,,,,,,,,,,,,,,,,,,,,,,,,,,,,,sub-077,1.0,random_dot,60.47810359896907,
left,left,,0.0,0.0,0.0,0.0,,,,,,,,,125.12358460000542,,,,,,,,,125.1156617000088,125.44271300001128,126.24262950000411,126.22660120000364,126.22662780000246,126.24262950000411,126.24262950000411,126.24262950000411,131.22637240000768,131.52868210000452,left,1.0,21.131280799978413,,131.54201180000382,131.55572580000444,132.0431382000097,,,,,,,,,,,,,,,,,,,,,,,,,,,sub-077,1.0,random_dot,60.47810359896907,
right,right,,0.0,1.0,1.0,1.0,,,,,,,,,132.05950960000337,,,,,,,,,132.04366510000546,133.2426392000052,134.04451120000158,134.02613920001022,134.026168100012,134.04451120000158,134.04451120000158,134.04451120000158,,136.44402040001296,left,0.0,18.23460649998742,,136.44467609999992,136.4590099000052,136.94335160001356,136.95943060000718,,,,,,,,,,,,,,,,,,,,,,,,,,sub-077,1.0,random_dot,60.47810359896907,
left,left,,1.0,0.0,2.0,0.0,,,,,,,,,136.95943060000718,,,,,,,,,136.94386920001125,137.759272100011,138.55988460000663,138.54378670000006,138.5438237000053,138.55988460000663,138.55988460000663,138.55988460000663,,143.2444295000023,left,1.0,20.51830839998729,,143.2451255000051,143.25925700001244,143.743352400008,143.75911610000185,,,,,,,,,,,,,,,,,,,,,,,,,,sub-077,1.0,random_dot,60.47810359896907,
right,right,,1.0,1.0,3.0,1.0,,,,,,,,,143.75911610000185,,,,,,,,,143.7438877000095,144.10963250001078,144.90983750000305,144.89377440001408,144.89380790000723,144.90983750000305,144.90983750000305,144.90983750000305,,146.67821540001023,right,1.0,17.614597199994023,,146.678762200012,146.69264470000053,147.17679710000812,147.19254270000965,,,,,,,,,,,,,,,,,,,,,,,,,,sub-077,1.0,random_dot,60.47810359896907,
right,right,,2.0,0.0,4.0,1.0,,,,,,,,,147.19254270000965,,,,,,,,,147.17727020000166,147.54194900000584,148.3439473000035,148.32655810000142,148.3265817000065,148.3439473000035,148.3439473000035,148.3439473000035,,149.96106760000112,right,1.0,17.452133599988883,,149.9616062000132,149.97511450000457,150.45952430000762,150.47597550001228,,,,,,,,,,,,,,,,,,,,,,,,,,sub-077,1.0,random_dot,60.47810359896907,
left,left,,2.0,1.0,5.0,0.0,,,,,,,,,150.47597550001228,,,,,,,,,150.45995070000936,150.82581150000624,151.62556560001394,151.60921860000235,151.6092451000004,151.62556560001394,151.62556560001394,151.62556560001394,,152.9443275000085,left,1.0,17.161623399995733,,152.94488240001374,152.9588550000044,153.44243540000753,153.45890500000678,,,,,,,,,,,,,,,,,,,,,,,,,,sub-077,1.0,random_dot,60.47810359896907,
left,left,,3.0,0.0,6.0,0.0,,,,,,,,,153.45890500000678,,,,,,,,,153.44294020000962,153.55830020000576,154.36047740001231,154.34379790000094,154.34382740000729,154.36047740001231,154.36047740001231,154.36047740001231,,156.21043630001077,right,0.0,17.690848699989147,,156.21097940001346,156.22541600000113,156.70974340000248,156.72581370000262,,,,,,,,,,,,,,,,,,,,,,,,,,sub-077,1.0,random_dot,60.47810359896907,
right,right,,3.0,1.0,7.0,1.0,,,,,,,,,156.72581370000262,,,,,,,,,156.71017910000228,157.92562520000502,158.7265453,158.70970820001094,158.70973280000908,158.7265453,158.7265453,158.7265453,,160.1769168000028,left,0.0,17.294707999986713,,160.1774529000104,160.19133000000147,160.67607830000634,160.69192870000552,,,,,,,,,,,,,,,,,,,,,,,,,,sub-077,1.0,random_dot,60.47810359896907,
right,right,,4.0,0.0,8.0,1.0,,,,,,,,,160.69192870000552,,,,,,,,,160.67659200000344,161.8917102000123,162.6932824000105,162.6756763000012,162.67570900000285,162.6932824000105,162.6932824000105,162.6932824000105,,165.16110910000862,right,1.0,18.309732599998824,,165.16177810000954,165.17537910000829,165.6585463000083,165.67460230000142,,,,,,,,,,,,,,,,,,,,,,,,,,sub-077,1.0,random_dot,60.47810359896907,
left,left,,4.0,1.0,9.0,0.0,,,,,,,,,165.67460230000142,,,,,,,,,165.65903900000558,166.0250178000133,166.8265526000032,166.81005500000902,166.81008150000707,166.8265526000032,166.8265526000032,166.8265526000032,,168.99301870001364,left,1.0,18.012768799992045,,168.99369810000644,169.00824010001088,169.4928813000006,169.50879310000164,,,,,,,,,,,,,,,,,,,,,,,,,,sub-077,1.0,random_dot,60.47810359896907,
left,left,,5.0,0.0,10.0,0.0,,,,,,,,,169.50879310000164,,,,,,,,,169.4934575000079,169.6083811000135,170.40937520000443,170.39256730000488,170.39259960000345,170.40937520000443,170.40937520000443,170.40937520000443,,174.97704370001156,right,0.0,20.411374399991477,,174.97759330000554,174.9923623000068,175.47628080000868,175.49245210000663,,,,,,,,,,,,,,,,,,,,,,,,,,sub-077,1.0,random_dot,60.47810359896907,
right,right,,5.0,1.0,11.0,1.0,,,,,,,,,175.49245210000663,,,,,,,,,175.47679600000265,175.84192180000537,176.64463880000403,176.62627090000024,176.62629520001065,176.64463880000403,176.64463880000403,176.64463880000403,,180.9099070000084,left,0.0,20.10151069998392,,180.9105108000076,180.92496120001303,181.40954020000936,181.42496460000984,,,,,,,,,,,,,,,,,,,,,,,,,,sub-077,1.0,random_dot,60.47810359896907,
right,right,,6.0,0.0,12.0,1.0,,,,,,,,,181.42496460000984,,,,,,,,,181.41007720000923,182.6252728000109,183.42515300000375,183.4087426000042,183.4087680000084,183.42515300000375,183.42515300000375,183.42515300000375,,185.14349100000985,right,1.0,17.56039809998765,,185.14404180001293,185.15849290000915,185.6431275000068,185.65894640001352,,,,,,,,,,,,,,,,,,,,,,,,,,sub-077,1.0,random_dot,60.47810359896907,
left,left,,6.0,1.0,13.0,0.0,,,,,,,,,185.65894640001352,,,,,,,,,185.6436587000062,186.00831770000516,186.8097706000117,186.79311430000237,186.7931404000119,186.8097706000117,186.8097706000117,186.8097706000117,,187.92714170001275,right,0.0,16.954081099989708,,187.92771470001023,187.9417204000056,188.44125650000933,,,,,,,,,,,,,,,,,,,,,,,,,,,sub-077,1.0,random_dot,60.47810359896907,
left,left,,7.0,0.0,14.0,0.0,,,,,,,,,188.4580282000097,,,,,,,,,188.44179070000249,188.5417853000108,189.34233900000984,189.32572590000927,189.3257459000015,189.34233900000984,189.34233900000984,189.34233900000984,,191.5264475000004,right,0.0,18.01953309999953,,191.52698740000776,191.5415674000105,192.02545650000684,192.04172050001216,,,,,,,,,,,,,,,,,,,,,,,,,,sub-077,1.0,random_dot,60.47810359896907,
right,right,,7.0,1.0,15.0,1.0,,,,,,,,,192.04172050001216,,,,,,,,,192.0258884000068,192.1418079000141,192.9583045000036,192.94159750000108,192.94161750000785,192.9583045000036,192.9583045000036,192.9583045000036,,195.0601167000132,right,1.0,17.934246999997413,,195.0606514000101,195.0749821000063,195.5591745000129,195.5745434000128,,,,,,,,,,,,,,,,,,,,,,,,,,sub-077,1.0,random_dot,60.47810359896907,
right,right,,8.0,0.0,16.0,1.0,,,,,,,,,195.5745434000128,,,,,,,,,195.559694200012,195.6741394000128,196.47561640001368,196.4589013000077,196.45894190001127,196.47561640001368,196.47561640001368,196.47561640001368,,200.3768513000105,left,0.0,19.73359979999077,,200.377404400002,200.3918158000015,200.8757361000025,200.8920344000071,,,,,,,,,,,,,,,,,,,,,,,,,,sub-077,1.0,random_dot,60.47810359896907,
left,left,,8.0,1.0,17.0,0.0,,,,,,,,,200.8920344000071,,,,,,,,,200.87614220000975,201.69161150000585,202.49191090000383,202.4752121000056,202.475242600005,202.49191090000383,202.49191090000383,202.49191090000383,,205.97647710000456,left,1.0,19.32113659998868,,205.97699740000823,205.99111950000224,206.47606010000163,206.4916586000036,,,,,,,,,,,,,,,,,,,,,,,,,,sub-077,1.0,random_dot,60.47810359896907,
right,right,,9.0,0.0,18.0,1.0,,,,,,,,,206.4916586000036,,,,,,,,,206.4765743000025,207.68234860000663,208.48382370000763,208.466010300006,208.46603210001197,208.48382370000763,208.48382370000763,208.48382370000763,,213.0001415000006,right,1.0,20.358266699986416,,213.00079350000303,213.0145731000084,213.4993679000036,213.5152121000137,,,,,,,,,,,,,,,,,,,,,,,,,,sub-077,1.0,random_dot,60.47810359896907,
left,left,,9.0,1.0,19.0,0.0,,,,,,,,,213.5152121000137,,,,,,,,,213.49977970001052,214.71532080000907,215.51585600001272,215.4986431000143,215.49866380001183,215.51585600001272,215.51585600001272,215.51585600001272,220.50018650000857,220.95018150001124,left,1.0,21.274949199985716,,220.9507077000017,220.9651201000088,221.4485754000052,221.4647800000093,,,,,,,,,,,,,,,,,,,,,,,,,,sub-077,1.0,random_dot,60.47810359896907,
,,,,,,,,,,,,,,,,,,,,,,,,,,,,,,,,,,,,,,,,,,221.4486462000059,221.4647800000093,221.4647800000093,237.0493524000049,space,31.43144659999234,,,,,,,,,,,,,,,,,,,,sub-077,1.0,random_dot,60.47810359896907,
,,,,,,,,,,,,,,,,,,,,,,,,,,,,,,,,,,,,,,,,,,,,,,,,,237.04939510000983,237.06519780000963,237.06519780000963,243.1492877000128,space,21.925428199989256,,,,,,,,,,,,,sub-077,1.0,random_dot,60.47810359896907,
right,right,accuracy,,,,,0.0,0.0,0.0,0.0,0.0,0.0,0.0,1.0,247.1894534000021,,,,,,,,,247.18073150000416,247.5399008000095,248.3411726000049,248.3234802000079,248.32350360001143,248.3411726000049,248.3411726000049,248.3411726000049,,249.5634885000036,right,1.0,17.06961209999281,,,,,,,,,,,,,,,,,,,,243.167168400003,243.1880380000075,243.1880380000075,247.17386150000675,space,19.8269433999958,,,,,,sub-077,1.0,random_dot,60.47810359896907,
left,left,accuracy,,,,,0.0,0.0,0.0,0.0,0.0,1.0,1.0,0.0,249.5721152000042,,,,,,,,,249.56472150000627,250.37271730000796,251.1746991000109,251.15712350000103,251.15714460000163,251.1746991000109,251.1746991000109,251.1746991000109,,252.74120380000383,left,1.0,17.409164899989264,,,,,,,,,,,,,,,,,,,,,,,,,,,,,,,sub-077,1.0,random_dot,60.47810359896907,
right,right,accuracy,,,,,0.0,0.0,0.0,0.0,1.0,0.0,2.0,1.0,252.75611140001277,,,,,,,,,252.7425357000029,253.1061339000007,253.908047200006,253.89039180001416,253.89041480000012,253.908047200006,253.908047200006,253.908047200006,,258.2416235000128,right,1.0,20.171309799989103,,,,,,,,,,,,,,,,,,,,,,,,,,,,,,,sub-077,1.0,random_dot,60.47810359896907,
left,left,accuracy,,,,,0.0,0.0,0.0,0.0,1.0,1.0,3.0,0.0,258.2559837000008,,,,,,,,,258.2426045000029,258.355346100012,259.1572179000068,259.1396964000014,259.13972010000725,259.1572179000068,259.1572179000068,259.1572179000068,,262.72384480001347,left,1.0,19.407606399981887,,,,,,,,,,,,,,,,,,,,,,,,,,,,,,,sub-077,1.0,random_dot,60.47810359896907,
right,right,accuracy,,,,,0.0,0.0,0.0,0.0,2.0,0.0,4.0,1.0,262.7384674000059,,,,,,,,,262.7248191000108,263.0887392000004,263.88922190001176,263.87244860001374,263.87247440000647,263.88922190001176,263.88922190001176,263.88922190001176,,267.59088640000846,right,1.0,19.546822299991614,,,,,,,,,,,,,,,,,,,,,,,,,,,,,,,sub-077,1.0,random_dot,60.47810359896907,
left,left,accuracy,,,,,0.0,0.0,0.0,0.0,2.0,1.0,5.0,0.0,267.6050591000094,,,,,,,,,267.59186130001035,267.9562462000031,268.75661180001043,268.73996500000067,268.73999160001404,268.75661180001043,268.75661180001043,268.75661180001043,,270.3574302000052,left,1.0,17.43452849998721,,,,,,,,,,,,,,,,,,,,,,,,,,,,,,,sub-077,1.0,random_dot,60.47810359896907,
left,left,accuracy,,,,,0.0,0.0,0.0,0.0,3.0,0.0,6.0,0.0,270.37238670000806,,,,,,,,,270.3584892000072,270.70482750001247,271.5064831000054,271.48983010000666,271.48985200001334,271.5064831000054,271.5064831000054,271.5064831000054,276.4901774000027,282.5237744000042,right,0.0,26.857560199990985,,,,,,,,,,,,,,,,,,,,,,,,,,,,,,,sub-077,1.0,random_dot,60.47810359896907,
right,right,accuracy,,,,,0.0,0.0,0.0,0.0,3.0,1.0,7.0,1.0,282.53853370000434,,,,,,,,,282.5248158000031,282.6387672000128,283.440247800012,283.4227876000077,283.42280590000155,283.440247800012,283.440247800012,283.440247800012,,286.2571536000032,left,0.0,18.6594114999898,,,,,,,,,,,,,,,,,,,,,,,,,,,,,,,sub-077,1.0,random_dot,60.47810359896907,
left,left,accuracy,,,,,0.0,0.0,0.0,0.0,4.0,0.0,8.0,0.0,286.2720071000076,,,,,,,,,286.25809040000604,287.0719536000106,287.8735211000021,287.8565171000082,287.8565415000048,287.8735211000021,287.8735211000021,287.8735211000021,,289.5904220000084,left,1.0,17.557179399984307,,,,,,,,,,,,,,,,,,,,,,,,,,,,,,,sub-077,1.0,random_dot,60.47810359896907,
right,right,accuracy,,,,,0.0,0.0,0.0,0.0,4.0,1.0,9.0,1.0,289.60514220000186,,,,,,,,,289.5918337000039,289.9551092000038,290.7560254000128,290.739828100006,290.73985410000023,290.7560254000128,290.7560254000128,290.7560254000128,,292.0737003000104,right,1.0,17.160026099998504,,,,,,,,,,,,,,,,,,,,,,,,,,,,,,,sub-077,1.0,random_dot,60.47810359896907,
left,left,accuracy,,,,,0.0,0.0,0.0,0.0,5.0,0.0,10.0,0.0,292.0887111000048,,,,,,,,,292.07500940001046,292.43796640000073,293.23876340000425,293.22194950000267,293.2219714000093,293.23876340000425,293.23876340000425,293.23876340000425,,294.5733226000011,left,1.0,17.168188599986024,,,,,,,,,,,,,,,,,,,,,,,,,,,,,,,sub-077,1.0,random_dot,60.47810359896907,
right,right,accuracy,,,,,0.0,0.0,0.0,0.0,5.0,1.0,11.0,1.0,294.5884098000097,,,,,,,,,294.574443400008,294.6887994000135,295.4895580000011,295.4727518,295.4727733000036,295.4895580000011,295.4895580000011,295.4895580000011,,298.2904731000017,right,1.0,18.64610129999346,,,,,,,,,,,,,,,,,,,,,,,,,,,,,,,sub-077,1.0,random_dot,60.47810359896907,
left,left,accuracy,,,,,0.0,0.0,0.0,0.0,6.0,0.0,12.0,0.0,298.30502530001104,,,,,,,,,298.29161600000225,299.50519820000045,300.3056336000009,300.28922050000983,300.2892443000019,300.3056336000009,300.3056336000009,300.3056336000009,,301.2570545000053,left,1.0,16.795544899985543,,,,,,,,,,,,,,,,,,,,,,,,,,,,,,,sub-077,1.0,random_dot,60.47810359896907,
right,right,accuracy,,,,,0.0,0.0,0.0,0.0,6.0,1.0,13.0,1.0,301.27184350001335,,,,,,,,,301.2583144000091,302.0718149000022,302.8729110000131,302.8556651000108,302.8556881000113,302.8729110000131,302.8729110000131,302.8729110000131,,303.7726376000064,right,1.0,16.73141319998831,,,,,,,,,,,,,,,,,,,,,,,,,,,,,,,sub-077,1.0,random_dot,60.47810359896907,
left,left,accuracy,,,,,0.0,0.0,0.0,0.0,7.0,0.0,14.0,0.0,303.7875795,,,,,,,,,303.7736130000121,304.58957380001084,305.4060312000074,305.38912570000684,305.38914630000363,305.4060312000074,305.4060312000074,305.4060312000074,,309.99002830000245,right,0.0,20.416096999993897,,,,,,,,,,,,,,,,,,,,,,,,,,,,,,,sub-077,1.0,random_dot,60.47810359896907,
right,right,accuracy,,,,,0.0,0.0,0.0,0.0,7.0,1.0,15.0,1.0,310.0047178000096,,,,,,,,,309.99117890000343,310.80501260000165,311.60595410001406,311.58833750001213,311.5883604000119,311.60595410001406,311.60595410001406,311.60595410001406,,314.54000140000426,right,1.0,18.770773499985808,,,,,,,,,,,,,,,,,,,,,,,,,,,,,,,sub-077,1.0,random_dot,60.47810359896907,
left,left,accuracy,,,,,0.0,0.0,0.0,0.0,8.0,0.0,16.0,0.0,314.5546180000092,,,,,,,,,314.5411727000028,314.6552798000048,315.4565120000043,315.43890790001024,315.43893080001,315.4565120000043,315.4565120000043,315.4565120000043,320.4385978000064,321.1238851000089,right,0.0,21.51261039999372,,,,,,,,,,,,,,,,,,,,,,,,,,,,,,,sub-077,1.0,random_dot,60.47810359896907,
right,right,accuracy,,,,,0.0,0.0,0.0,0.0,8.0,1.0,17.0,1.0,321.1380676000117,,,,,,,,,321.12484390000463,321.2376374000014,322.03803770001105,322.02127210001345,322.0212993000023,322.03803770001105,322.03803770001105,322.03803770001105,,324.43961560000025,right,1.0,18.245591799975955,,,,,,,,,,,,,,,,,,,,,,,,,,,,,,,sub-077,1.0,random_dot,60.47810359896907,
left,left,accuracy,,,,,0.0,0.0,0.0,0.0,9.0,0.0,18.0,0.0,324.4544309000048,,,,,,,,,324.44083430001047,325.654646400013,326.45562910000444,326.4392905000132,326.4393157000013,326.45562910000444,326.45562910000444,326.45562910000444,,328.1395673000079,left,1.0,17.52337299998908,,,,,,,,,,,,,,,,,,,,,,,,,,,,,,,sub-077,1.0,random_dot,60.47810359896907,
right,right,accuracy,,,,,0.0,0.0,0.0,0.0,9.0,1.0,19.0,1.0,328.15458720001334,,,,,,,,,328.14060210000025,329.35445510000864,330.1551458000031,330.13849440000195,330.1385175000032,330.1551458000031,330.1551458000031,330.1551458000031,,333.1231931000075,left,0.0,18.803926499997036,,,,,,,,,,,,,,,,,,,,,,,,,,,,,,,sub-077,1.0,random_dot,60.47810359896907,
right,right,accuracy,,,,,0.0,0.0,0.0,0.0,10.0,0.0,20.0,1.0,333.13802950001264,,,,,,,,,333.12420270001167,333.93793490000826,334.7379054000048,334.7211857000075,334.7212075000134,334.7379054000048,334.7379054000048,334.7379054000048,,336.9895314000023,right,1.0,18.08820059998834,,,,,,,,,,,,,,,,,,,,,,,,,,,,,,,sub-077,1.0,random_dot,60.47810359896907,
left,left,accuracy,,,,,0.0,0.0,0.0,0.0,10.0,1.0,21.0,0.0,337.00415090000024,,,,,,,,,336.9905448000063,338.20462060000864,339.0052757000085,338.98828820000926,338.988319400014,339.0052757000085,339.0052757000085,339.0052757000085,,341.6735045000096,left,1.0,18.501986099989157,,,,,,,,,,,,,,,,,,,,,,,,,,,,,,,sub-077,1.0,random_dot,60.47810359896907,
left,left,accuracy,,,,,0.0,0.0,0.0,0.0,11.0,0.0,22.0,0.0,341.6879535000044,,,,,,,,,341.6745658,342.03863160000765,342.8396114000061,342.82259680000425,342.8226171000133,342.8396114000061,342.8396114000061,342.8396114000061,,346.63949550001416,left,1.0,19.64611679999507,,,,,,,,,,,,,,,,,,,,,,,,,,,,,,,sub-077,1.0,random_dot,60.47810359896907,
right,right,accuracy,,,,,0.0,0.0,0.0,0.0,11.0,1.0,23.0,1.0,346.6547123000055,,,,,,,,,346.6405136000103,346.7552798000106,347.5566957000119,347.5394765000092,347.53949860000284,347.5566957000119,347.5566957000119,347.5566957000119,,349.2559170000022,right,1.0,17.53917889998411,,,,,,,,,,,,,,,,,,,,,,,,,,,,,,,sub-077,1.0,random_dot,60.47810359896907,
left,left,accuracy,,,,,0.0,0.0,0.0,0.0,12.0,0.0,24.0,0.0,349.27165980001155,,,,,,,,,349.256913300007,349.621790300007,350.4226193000068,350.4057194000052,350.4057405000058,350.4226193000068,350.4226193000068,350.4226193000068,,352.7392789000005,left,1.0,18.150545299999067,,,,,,,,,,,,,,,,,,,,,,,,,,,,,,,sub-077,1.0,random_dot,60.47810359896907,
right,right,accuracy,,,,,0.0,0.0,0.0,0.0,12.0,1.0,25.0,1.0,352.7546040000016,,,,,,,,,352.74023000001034,353.5555665000138,354.37293390001287,354.3552469000133,354.3552658000117,354.37293390001287,354.37293390001287,354.37293390001287,,355.5736345000041,right,1.0,17.040359599981457,,,,,,,,,,,,,,,,,,,,,,,,,,,,,,,sub-077,1.0,random_dot,60.47810359896907,
right,right,accuracy,,,,,0.0,0.0,0.0,0.0,13.0,0.0,26.0,1.0,355.58800030000566,,,,,,,,,355.5746003000095,355.68817580000905,356.48942940001143,356.4722862000053,356.472311000005,356.48942940001143,356.48942940001143,356.48942940001143,,357.9901428000012,right,1.0,17.34600639999553,,,,,,,,,,,,,,,,,,,,,,,,,,,,,,,sub-077,1.0,random_dot,60.47810359896907,
left,left,accuracy,,,,,0.0,0.0,0.0,0.0,13.0,1.0,27.0,0.0,358.0046671000018,,,,,,,,,357.9910810000001,358.35435570000845,359.1551924000087,359.13838360000227,359.13840970001183,359.1551924000087,359.1551924000087,359.1551924000087,,362.6562261000072,left,1.0,19.338529199987534,,,,,,,,,,,,,,,,,,,,,,,,,,,,,,,sub-077,1.0,random_dot,60.47810359896907,
right,right,accuracy,,,,,0.0,0.0,0.0,0.0,14.0,0.0,28.0,1.0,362.6711009000137,,,,,,,,,362.6572351000068,362.771679100013,363.5719818000071,363.5551067000051,363.5551343000116,363.5719818000071,363.5719818000071,363.5719818000071,,366.4735084000131,right,1.0,18.740922699988005,,,,,,,,,,,,,,,,,,,,,,,,,,,,,,,sub-077,1.0,random_dot,60.47810359896907,
left,left,accuracy,,,,,0.0,0.0,0.0,0.0,14.0,1.0,29.0,0.0,366.48779930001183,,,,,,,,,366.4744684000034,366.8379602000059,367.638492500002,367.6224231000088,367.6224530000036,367.638492500002,367.638492500002,367.638492500002,,369.2060828000104,left,1.0,17.412283099998604,,,,,,,,,,,,,,,,,,,,,,,,,,,,,,,sub-077,1.0,random_dot,60.47810359896907,
left,left,accuracy,,,,,0.0,0.0,0.0,0.0,15.0,0.0,30.0,0.0,369.221182600013,,,,,,,,,369.2073811000009,369.571065000011,370.3723541000072,370.3553648000088,370.35539020001306,370.3723541000072,370.3723541000072,370.3723541000072,,372.5559272000101,left,1.0,18.02259759999288,,,,,,,,,,,,,,,,,,,,,,,,,,,,,,,sub-077,1.0,random_dot,60.47810359896907,
right,right,accuracy,,,,,0.0,0.0,0.0,0.0,15.0,1.0,31.0,1.0,372.57095290000143,,,,,,,,,372.5569772000017,373.77086840000993,374.5716652000119,374.5554209000111,374.5554393000057,374.5716652000119,374.5716652000119,374.5716652000119,,377.3228747000103,right,1.0,18.596835899996226,,,,,,,,,,,,,,,,,,,,,,,,,,,,,,,sub-077,1.0,random_dot,60.47810359896907,
left,left,accuracy,,,,,0.0,0.0,0.0,0.0,16.0,0.0,32.0,0.0,377.3373130000109,,,,,,,,,377.32383220001066,378.1381934000092,378.9384832000069,378.9217493000033,378.9217762000044,378.9384832000069,378.9384832000069,378.9384832000069,,381.2056515000004,left,1.0,18.106160999988788,,,,,,,,,,,,,,,,,,,,,,,,,,,,,,,sub-077,1.0,random_dot,60.47810359896907,
right,right,accuracy,,,,,0.0,0.0,0.0,0.0,16.0,1.0,33.0,1.0,381.2207682000008,,,,,,,,,381.2066248000047,382.4200364000135,383.2219441000052,383.2044658000086,383.204490300006,383.2219441000052,383.2219441000052,383.2219441000052,,384.7392397000076,right,1.0,17.363570999979856,,,,,,,,,,,,,,,,,,,,,,,,,,,,,,,sub-077,1.0,random_dot,60.47810359896907,
right,right,accuracy,,,,,0.0,0.0,0.0,0.0,17.0,0.0,34.0,1.0,384.7539517000114,,,,,,,,,384.7405416000111,385.54442850001215,386.3448764000059,386.3280636000127,386.3280941000121,386.3448764000059,386.3448764000059,386.3448764000059,,388.5794608000142,right,1.0,18.07112239998241,,,,,,,,,,,,,,,,,,,,,,,,,,,,,,,sub-077,1.0,random_dot,60.47810359896907,
left,left,accuracy,,,,,0.0,0.0,0.0,0.0,17.0,1.0,35.0,0.0,388.5938527000108,,,,,,,,,388.5807316000137,389.3937243000109,390.1946519000048,390.1779647000076,390.1779897000088,390.1946519000048,390.1946519000048,390.1946519000048,,391.5622822000005,left,1.0,17.202374099986628,,,,,,,,,,,,,,,,,,,,,,,,,,,,,,,sub-077,1.0,random_dot,60.47810359896907,
right,right,accuracy,,,,,0.0,0.0,0.0,0.0,18.0,0.0,36.0,1.0,391.5772250000009,,,,,,,,,391.56357410000055,392.7771681000013,393.5778179000045,393.5613541000057,393.5613756000093,393.5778179000045,393.5778179000045,393.5778179000045,,394.529168100009,right,1.0,16.795343899997533,,,,,,,,,,,,,,,,,,,,,,,,,,,,,,,sub-077,1.0,random_dot,60.47810359896907,
left,left,accuracy,,,,,0.0,0.0,0.0,0.0,18.0,1.0,37.0,0.0,394.5436463000078,,,,,,,,,394.5304627000005,394.64364910000586,395.4448182000051,395.4279722000065,395.4279940000124,395.4448182000051,395.4448182000051,395.4448182000051,,396.52854830000433,left,1.0,16.91804879999836,,,,,,,,,,,,,,,,,,,,,,,,,,,,,,,sub-077,1.0,random_dot,60.47810359896907,
left,left,accuracy,,,,,0.0,0.0,0.0,0.0,19.0,0.0,38.0,0.0,396.543619300006,,,,,,,,,396.5298238000105,396.8943354000076,397.6951365000132,397.6776503000001,397.677671700003,397.6951365000132,397.6951365000132,397.6951365000132,,398.42929350001214,right,0.0,16.580112199982977,,,,,,,,,,,,,,,,,,,,,,,,,,,,,,,sub-077,1.0,random_dot,60.47810359896907,
right,right,accuracy,,,,,0.0,0.0,0.0,0.0,19.0,1.0,39.0,1.0,398.443313900003,,,,,,,,,398.4308262000122,399.2436228000006,400.0449529000034,400.0282360000128,400.0282607000117,400.0449529000034,400.0449529000034,400.0449529000034,,401.2961490000016,right,1.0,17.098686899989843,,,,,,,,,,,,,,,,,,,,,,,,,,,,,,,sub-077,1.0,random_dot,60.47810359896907,
left,left,accuracy,,,,,0.0,0.0,0.0,0.0,20.0,0.0,40.0,0.0,401.3104235000064,,,,,,,,,401.2971848000016,401.6477755000087,402.4484488000016,402.43151110000326,402.43153660000826,402.4484488000016,402.4484488000016,402.4484488000016,,403.482688300006,left,1.0,16.877558999985922,,,,,,,,,,,,,,,,,,,,,,,,,,,,,,,sub-077,1.0,random_dot,60.47810359896907,
right,right,accuracy,,,,,0.0,0.0,0.0,0.0,20.0,1.0,41.0,1.0,403.4969750000018,,,,,,,,,403.4840121000016,404.2965259000048,405.0983325000125,405.08103400000255,405.0810587000015,405.0983325000125,405.0983325000125,405.0983325000125,,406.9159376000025,right,1.0,17.662912499989034,,,,,,,,,,,,,,,,,,,,,,,,,,,,,,,sub-077,1.0,random_dot,60.47810359896907,
right,right,accuracy,,,,,0.0,0.0,0.0,0.0,21.0,0.0,42.0,1.0,406.93042290001176,,,,,,,,,406.9169649000105,407.02944410000055,407.831270900002,407.8145184000023,407.81454510000185,407.831270900002,407.831270900002,407.831270900002,,410.6648897000123,right,1.0,18.67853129998548,,,,,,,,,,,,,,,,,,,,,,,,,,,,,,,sub-077,1.0,random_dot,60.47810359896907,
left,left,accuracy,,,,,0.0,0.0,0.0,0.0,21.0,1.0,43.0,0.0,410.6801134000125,,,,,,,,,410.6661654000054,411.8804848,412.6812579000107,412.664563600003,412.66458870000497,412.6812579000107,412.6812579000107,412.6812579000107,,415.3326661000028,left,1.0,18.487123399987468,,,,,,,,,,,,,,,,,,,,,,,,,,,,,,,sub-077,1.0,random_dot,60.47810359896907,
right,right,accuracy,,,,,0.0,0.0,0.0,0.0,22.0,0.0,44.0,1.0,415.3468359000108,,,,,,,,,415.3336045000033,415.4466002000117,416.2475153000123,416.2310640000069,416.2310935000132,416.2475153000123,416.2475153000123,416.2475153000123,,420.0823628000071,right,1.0,19.681369599988106,,,,,,,,,,,,,,,,,,,,,,,,,,,,,,,sub-077,1.0,random_dot,60.47810359896907,
left,left,accuracy,,,,,0.0,0.0,0.0,0.0,22.0,1.0,45.0,0.0,420.0966304000031,,,,,,,,,420.0833555000136,420.1964742000128,420.9975335000054,420.9804940000031,420.9805188000028,420.9975335000054,420.9975335000054,420.9975335000054,,422.7911083000072,left,1.0,17.633900499989977,,,,,,,,,,,,,,,,,,,,,,,,,,,,,,,sub-077,1.0,random_dot,60.47810359896907,
right,right,accuracy,,,,,0.0,0.0,0.0,0.0,23.0,0.0,46.0,1.0,422.805248500008,,,,,,,,,422.7920612000016,423.60511880001286,424.4068567000068,424.3890536000108,424.38907960000506,424.4068567000068,424.4068567000068,424.4068567000068,,425.7069214000076,right,1.0,17.142410499989637,,,,,,,,,,,,,,,,,,,,,,,,,,,,,,,sub-077,1.0,random_dot,60.47810359896907,
left,left,accuracy,,,,,0.0,0.0,0.0,0.0,23.0,1.0,47.0,0.0,425.72236520001024,,,,,,,,,425.70790050001233,426.0708813000092,426.8726376000122,426.8560182000074,426.8560634000023,426.8726376000122,426.8726376000122,426.8726376000122,,430.5728485,right,0.0,19.537234399991576,,,,,,,,,,,,,,,,,,,,,,,,,,,,,,,sub-077,1.0,random_dot,60.47810359896907,
left,left,accuracy,,,,,0.0,0.0,0.0,0.0,24.0,0.0,48.0,0.0,430.58756510000967,,,,,,,,,430.57415350001247,430.9381720000092,431.7381028000091,431.7217630000087,431.7217858000077,431.7381028000091,431.7381028000091,431.7381028000091,,435.4890085000079,left,1.0,19.596235799996062,,,,,,,,,,,,,,,,,,,,,,,,,,,,,,,sub-077,1.0,random_dot,60.47810359896907,
right,right,accuracy,,,,,0.0,0.0,0.0,0.0,24.0,1.0,49.0,1.0,435.50474830000894,,,,,,,,,435.4903866000095,436.7046546000056,437.50486150001234,437.4881294000079,437.488156300009,437.50486150001234,437.50486150001234,437.50486150001234,,439.82309290001285,right,1.0,18.15615299997444,,,,,,,,,,,,,,,,,,,,,,,,,,,,,,,sub-077,1.0,random_dot,60.47810359896907,
left,left,accuracy,,,,,0.0,0.0,0.0,0.0,25.0,0.0,50.0,0.0,439.8381970000046,,,,,,,,,439.8240527000016,439.9379235000088,440.7397447000112,440.7220369000133,440.7220609000069,440.7397447000112,440.7397447000112,440.7397447000112,,442.6233035000041,right,0.0,17.7268739999854,,,,,,,,,,,,,,,,,,,,,,,,,,,,,,,sub-077,1.0,random_dot,60.47810359896907,
right,right,accuracy,,,,,0.0,0.0,0.0,0.0,25.0,1.0,51.0,1.0,442.6378545000043,,,,,,,,,442.6244372000074,443.8375232000108,444.6402456000069,444.6217187000002,444.6217406000069,444.6402456000069,444.6402456000069,444.6402456000069,,446.9924345000036,right,1.0,18.19447519998357,,,,,,,,,,,,,,,,,,,,,,,,,,,,,,,sub-077,1.0,random_dot,60.47810359896907,
right,right,accuracy,,,,,0.0,0.0,0.0,0.0,26.0,0.0,52.0,1.0,447.0046361000132,,,,,,,,,446.9935491000069,447.8048806000006,448.605749600014,448.5891957000131,448.589238200002,448.605749600014,448.605749600014,448.605749600014,,452.9896656000056,right,1.0,20.226772099995287,,,,,,,,,,,,,,,,,,,,,,,,,,,,,,,sub-077,1.0,random_dot,60.47810359896907,
left,left,accuracy,,,,,0.0,0.0,0.0,0.0,26.0,1.0,53.0,0.0,453.00413450000633,,,,,,,,,452.99071620000177,454.204564300002,455.0052463000029,454.98859330000414,454.9886154000124,455.0052463000029,455.0052463000029,455.0052463000029,,457.3558946000121,left,1.0,18.188421199985896,,,,,,,,,,,,,,,,,,,,,,,,,,,,,,,sub-077,1.0,random_dot,60.47810359896907,
left,left,accuracy,,,,,0.0,0.0,0.0,0.0,27.0,0.0,54.0,0.0,457.3706492000056,,,,,,,,,457.356949500012,458.1709225000086,458.9719511000003,458.9554245000036,458.9554489000002,458.9719511000003,458.9719511000003,458.9719511000003,,461.7721764000016,left,1.0,18.640165699995123,,,,,,,,,,,,,,,,,,,,,,,,,,,,,,,sub-077,1.0,random_dot,60.47810359896907,
right,right,accuracy,,,,,0.0,0.0,0.0,0.0,27.0,1.0,55.0,1.0,461.786671400012,,,,,,,,,461.77367790001153,462.5869088000036,463.3875192000123,463.371114700014,463.3711384000053,463.3875192000123,463.3875192000123,463.3875192000123,,464.7725981000112,right,1.0,17.226912999991328,,,,,,,,,,,,,,,,,,,,,,,,,,,,,,,sub-077,1.0,random_dot,60.47810359896907,
right,right,accuracy,,,,,0.0,0.0,0.0,0.0,28.0,0.0,56.0,1.0,464.7876161000022,,,,,,,,,464.77405060001183,465.5878906000144,466.38761210000666,466.3717403000046,466.371761500006,466.38761210000666,466.38761210000666,466.38761210000666,,468.9058497000078,left,0.0,18.364216699977987,,,,,,,,,,,,,,,,,,,,,,,,,,,,,,,sub-077,1.0,random_dot,60.47810359896907,
left,left,accuracy,,,,,0.0,0.0,0.0,0.0,28.0,1.0,57.0,0.0,468.9207647000003,,,,,,,,,468.90693960001227,469.021318900006,469.8374780000013,469.820945200001,469.8209665000031,469.8374780000013,469.8374780000013,469.8374780000013,,473.30540190001193,right,0.0,19.310676799999783,,,,,,,,,,,,,,,,,,,,,,,,,,,,,,,sub-077,1.0,random_dot,60.47810359896907,
right,right,accuracy,,,,,0.0,0.0,0.0,0.0,29.0,0.0,58.0,1.0,473.3205108000111,,,,,,,,,473.3067201000085,473.4209572000109,474.2222000000038,474.2046845000005,474.2047105000093,474.2222000000038,474.2222000000038,474.2222000000038,,476.6387916000094,right,1.0,18.26298099999258,,,,,,,,,,,,,,,,,,,,,,,,,,,,,,,sub-077,1.0,random_dot,60.47810359896907,
left,left,accuracy,,,,,0.0,0.0,0.0,0.0,29.0,1.0,59.0,0.0,476.6538440000004,,,,,,,,,476.6398321000015,477.45365820000006,478.25533580000047,478.2378237000085,478.2378539000056,478.25533580000047,478.25533580000047,478.25533580000047,,479.9222351000062,left,1.0,17.49855999999272,,,,,,,,,,,,,,,,,,,,,,,,,,,,,,,sub-077,1.0,random_dot,60.47810359896907,
,,accuracy,,,,,0.0,0.0,0.0,0.0,,,,,,,,,,,,,,,,,,,,,,,,,,,,,,,,,,,,,,,,,,,,,,,,,,,,,,,,,sub-077,1.0,random_dot,60.47810359896907,
right,right,speed,,,,,0.0,1.0,1.0,1.0,0.0,0.0,0.0,1.0,483.1703295000043,,,,,,,,,483.1622950000019,483.9710531000019,484.7882268000103,484.7707619000139,484.7707853000029,484.7882268000103,484.7882268000103,484.7882268000103,,485.5558664000128,right,1.0,16.60533769999165,,,,,,,,,,,,,,,,,,,,479.9231175000023,479.9381706000131,479.9381706000131,483.1548457000026,space,19.0517123999889,,,,,,sub-077,1.0,random_dot,60.47810359896907,
left,left,speed,,,,,0.0,1.0,1.0,1.0,0.0,1.0,1.0,0.0,485.5703330000106,,,,,,,,,485.55715140000393,486.3706534000085,487.17067230000976,487.15664000000106,487.15666020000936,487.17067230000976,487.17067230000976,487.17067230000976,,487.8225497000094,left,1.0,16.49533999999403,,,,,,,,,,,,,,,,,,,,,,,,,,,,,,,sub-077,1.0,random_dot,60.47810359896907,
left,left,speed,,,,,0.0,1.0,1.0,1.0,1.0,0.0,2.0,0.0,487.836890000006,,,,,,,,,487.8241391000047,488.6372455000092,489.4390705000114,489.42102480000176,489.4210448000085,489.4390705000114,489.4390705000114,489.4390705000114,,490.47120910001104,left,1.0,16.875723799981643,,,,,,,,,,,,,,,,,,,,,,,,,,,,,,,sub-077,1.0,random_dot,60.47810359896907,
right,right,speed,,,,,0.0,1.0,1.0,1.0,1.0,1.0,3.0,1.0,490.4861612000095,,,,,,,,,490.472164900013,491.28706560000137,492.0876067000063,492.0707675000013,492.0707907000033,492.0876067000063,492.0876067000063,492.0876067000063,,492.8384924000129,right,1.0,16.590338799986057,,,,,,,,,,,,,,,,,,,,,,,,,,,,,,,sub-077,1.0,random_dot,60.47810359896907,
left,left,speed,,,,,0.0,1.0,1.0,1.0,2.0,0.0,4.0,0.0,492.8533381000016,,,,,,,,,492.8399988000019,492.9533451000025,493.753786900008,493.7367779000051,493.7368093000114,493.753786900008,493.753786900008,493.753786900008,,494.438267400008,right,0.0,16.527163199993083,,,,,,,,,,,,,,,,,,,,,,,,,,,,,,,sub-077,1.0,random_dot,60.47810359896907,
right,right,speed,,,,,0.0,1.0,1.0,1.0,2.0,1.0,5.0,1.0,494.4531683000096,,,,,,,,,494.4394814000116,494.8086643000133,495.6200264000072,495.6041907000035,495.6042246000143,495.6200264000072,495.6200264000072,495.6200264000072,,496.3055095000018,right,1.0,16.524759499981883,,,,,,,,,,,,,,,,,,,,,,,,,,,,,,,sub-077,1.0,random_dot,60.47810359896907,
right,right,speed,,,,,0.0,1.0,1.0,1.0,3.0,0.0,6.0,1.0,496.32051710000087,,,,,,,,,496.3064790000062,496.420156600012,497.2211412000033,497.20423140001367,497.2042531000043,497.2211412000033,497.2211412000033,497.2211412000033,,498.78771630000847,left,0.0,17.402828399994178,,,,,,,,,,,,,,,,,,,,,,,,,,,,,,,sub-077,1.0,random_dot,60.47810359896907,
left,left,speed,,,,,0.0,1.0,1.0,1.0,3.0,1.0,7.0,0.0,498.8034272000077,,,,,,,,,498.7887054000021,500.00382090000494,500.8207381000102,500.80356060000486,500.80358470001374,500.8207381000102,500.8207381000102,500.8207381000102,,501.7384505000082,left,1.0,16.757302199985133,,,,,,,,,,,,,,,,,,,,,,,,,,,,,,,sub-077,1.0,random_dot,60.47810359896907,
right,right,speed,,,,,0.0,1.0,1.0,1.0,4.0,0.0,8.0,1.0,501.7534108000109,,,,,,,,,501.7394492000021,502.9532405000064,503.7542213000124,503.73754600000393,503.73757000001206,503.7542213000124,503.7542213000124,503.7542213000124,,504.5543745000032,right,1.0,16.634946399979526,,,,,,,,,,,,,,,,,,,,,,,,,,,,,,,sub-077,1.0,random_dot,60.47810359896907,
left,left,speed,,,,,0.0,1.0,1.0,1.0,4.0,1.0,9.0,0.0,504.5692877000111,,,,,,,,,504.5553409000131,505.3706452000042,506.1706865000015,506.1538098000019,506.1538290000026,506.1706865000015,506.1706865000015,506.1706865000015,,506.7719746000075,left,1.0,16.44095859998197,,,,,,,,,,,,,,,,,,,,,,,,,,,,,,,sub-077,1.0,random_dot,60.47810359896907,
right,right,speed,,,,,0.0,1.0,1.0,1.0,5.0,0.0,10.0,1.0,506.7864417000092,,,,,,,,,506.77296440000646,506.8867079000047,507.68789950000064,507.67070380000223,507.6707233000052,507.68789950000064,507.68789950000064,507.68789950000064,,508.58958880000864,right,1.0,16.746186799995485,,,,,,,,,,,,,,,,,,,,,,,,,,,,,,,sub-077,1.0,random_dot,60.47810359896907,
left,left,speed,,,,,0.0,1.0,1.0,1.0,5.0,1.0,11.0,0.0,508.6031668000069,,,,,,,,,508.5905393000139,508.7034282000095,509.5043069000094,509.48804370001017,509.4880708000128,509.5043069000094,509.5043069000094,509.5043069000094,,510.4381990000111,left,1.0,16.769881699990947,,,,,,,,,,,,,,,,,,,,,,,,,,,,,,,sub-077,1.0,random_dot,60.47810359896907,
left,left,speed,,,,,0.0,1.0,1.0,1.0,6.0,0.0,12.0,0.0,510.4531319000089,,,,,,,,,510.4391499000049,511.2526005000109,512.0545708000136,512.0375636000099,512.0375883000088,512.0545708000136,512.0545708000136,512.0545708000136,,514.055042100008,right,0.0,17.83807759998308,,,,,,,,,,,,,,,,,,,,,,,,,,,,,,,sub-077,1.0,random_dot,60.47810359896907,
right,right,speed,,,,,0.0,1.0,1.0,1.0,6.0,1.0,13.0,1.0,514.0696720000124,,,,,,,,,514.0563045000017,514.8698612000007,515.6709890000056,515.6536080000078,515.6536266000039,515.6709890000056,515.6709890000056,515.6709890000056,,517.5889132000011,left,0.0,17.752805299998727,,,,,,,,,,,,,,,,,,,,,,,,,,,,,,,sub-077,1.0,random_dot,60.47810359896907,
left,left,speed,,,,,0.0,1.0,1.0,1.0,7.0,0.0,14.0,0.0,517.6030954000016,,,,,,,,,517.5899269000074,517.9530891000031,518.7549861000007,518.737240500006,518.7372608000005,518.7549861000007,518.7549861000007,518.7549861000007,,519.7564529000083,right,0.0,16.83711039998161,,,,,,,,,,,,,,,,,,,,,,,,,,,,,,,sub-077,1.0,random_dot,60.47810359896907,
right,right,speed,,,,,0.0,1.0,1.0,1.0,7.0,1.0,15.0,1.0,519.7695986000035,,,,,,,,,519.7575169000047,519.869792700003,520.6703406000015,520.6536485000106,520.653675300011,520.6703406000015,520.6703406000015,520.6703406000015,,521.506721200014,left,0.0,16.67344639998919,,,,,,,,,,,,,,,,,,,,,,,,,,,,,,,sub-077,1.0,random_dot,60.47810359896907,
left,left,speed,,,,,0.0,1.0,1.0,1.0,8.0,0.0,16.0,0.0,521.5189381000091,,,,,,,,,521.5077093,521.8696399000037,522.6700384000142,522.654179300007,522.6542084000102,522.6700384000142,522.6700384000142,522.6700384000142,,524.5213577000104,left,1.0,17.685008299988112,,,,,,,,,,,,,,,,,,,,,,,,,,,,,,,sub-077,1.0,random_dot,60.47810359896907,
right,right,speed,,,,,0.0,1.0,1.0,1.0,8.0,1.0,17.0,1.0,524.5362766000035,,,,,,,,,524.5223896000098,525.3363445000141,526.1367801000015,526.12025610001,526.1202760000015,526.1367801000015,526.1367801000015,526.1367801000015,,526.9048903000075,right,1.0,16.602046999993036,,,,,,,,,,,,,,,,,,,,,,,,,,,,,,,sub-077,1.0,random_dot,60.47810359896907,
left,left,speed,,,,,0.0,1.0,1.0,1.0,9.0,0.0,18.0,0.0,526.9193698000017,,,,,,,,,526.9058670000086,527.0188026000105,527.8205592000013,527.8036953000119,527.8037208000023,527.8205592000013,527.8205592000013,527.8205592000013,,528.5383831000072,left,1.0,16.564044299986563,,,,,,,,,,,,,,,,,,,,,,,,,,,,,,,sub-077,1.0,random_dot,60.47810359896907,
right,right,speed,,,,,0.0,1.0,1.0,1.0,9.0,1.0,19.0,1.0,528.552800400008,,,,,,,,,528.5396865000075,529.7562279000122,530.5702919000032,530.5534514000028,530.5534734000103,530.5702919000032,530.5702919000032,530.5702919000032,,531.1875190999999,right,1.0,16.453277599983267,,,,,,,,,,,,,,,,,,,,,,,,,,,,,,,sub-077,1.0,random_dot,60.47810359896907,
left,left,speed,,,,,0.0,1.0,1.0,1.0,10.0,0.0,20.0,0.0,531.2026794000121,,,,,,,,,531.189011600014,531.3030800000124,532.1037140000117,532.0869464000134,532.0869664000056,532.1037140000117,532.1037140000117,532.1037140000117,,532.7708902000013,left,1.0,16.513143899981515,,,,,,,,,,,,,,,,,,,,,,,,,,,,,,,sub-077,1.0,random_dot,60.47810359896907,
right,right,speed,,,,,0.0,1.0,1.0,1.0,10.0,1.0,21.0,1.0,532.7859246000007,,,,,,,,,532.7719029,533.5864016000123,534.3873091000132,534.3702963000105,534.3703148000059,534.3873091000132,534.3873091000132,534.3873091000132,,535.2094097000081,right,1.0,16.66029949998483,,,,,,,,,,,,,,,,,,,,,,,,,,,,,,,sub-077,1.0,random_dot,60.47810359896907,
left,left,speed,,,,,0.0,1.0,1.0,1.0,11.0,0.0,22.0,0.0,535.2186692000105,,,,,,,,,535.2106881000072,535.319481100014,536.1200300000055,536.1034099000099,536.1034299000021,536.1200300000055,536.1200300000055,536.1200300000055,,536.8544565000047,left,1.0,16.57972329999029,,,,,,,,,,,,,,,,,,,,,,,,,,,,,,,sub-077,1.0,random_dot,60.47810359896907,
right,right,speed,,,,,0.0,1.0,1.0,1.0,11.0,1.0,23.0,1.0,536.8691037000099,,,,,,,,,536.8554527000088,537.2196585000056,538.0203784000041,538.0036952000082,538.0037207000132,538.0203784000041,538.0203784000041,538.0203784000041,,538.6542904000089,right,1.0,16.46628709998913,,,,,,,,,,,,,,,,,,,,,,,,,,,,,,,sub-077,1.0,random_dot,60.47810359896907,
right,right,speed,,,,,0.0,1.0,1.0,1.0,12.0,0.0,24.0,1.0,538.6691984000063,,,,,,,,,538.6553346000001,539.0197734000103,539.82051830001,539.8036041000014,539.8036282000103,539.82051830001,539.82051830001,539.82051830001,,540.570750400002,right,1.0,16.597441099991556,,,,,,,,,,,,,,,,,,,,,,,,,,,,,,,sub-077,1.0,random_dot,60.47810359896907,
left,left,speed,,,,,0.0,1.0,1.0,1.0,12.0,1.0,25.0,0.0,540.5857200000028,,,,,,,,,540.5717203000095,540.9351464000065,541.7372317000118,541.7202246000088,541.7202510000061,541.7372317000118,541.7372317000118,541.7372317000118,,542.421299300011,left,1.0,16.528657699978794,,,,,,,,,,,,,,,,,,,,,,,,,,,,,,,sub-077,1.0,random_dot,60.47810359896907,
right,right,speed,,,,,0.0,1.0,1.0,1.0,13.0,0.0,26.0,1.0,542.435713400002,,,,,,,,,542.4226724000036,543.2361371000006,544.0370971000084,544.0201094000076,544.0201342000073,544.0370971000084,544.0370971000084,544.0370971000084,,544.8376111000107,right,1.0,16.63268889999017,,,,,,,,,,,,,,,,,,,,,,,,,,,,,,,sub-077,1.0,random_dot,60.47810359896907,
left,left,speed,,,,,0.0,1.0,1.0,1.0,13.0,1.0,27.0,0.0,544.8523551000108,,,,,,,,,544.8389366000047,545.652623300004,546.4527031000034,546.4364278000139,546.4364524000121,546.4527031000034,546.4527031000034,546.4527031000034,,547.1545909000124,left,1.0,16.534214499988593,,,,,,,,,,,,,,,,,,,,,,,,,,,,,,,sub-077,1.0,random_dot,60.47810359896907,
right,right,speed,,,,,0.0,1.0,1.0,1.0,14.0,0.0,28.0,1.0,547.1691598000034,,,,,,,,,547.1555472000036,547.519753200002,548.3374651000049,548.3191914000054,548.3192126000067,548.3374651000049,548.3374651000049,548.3374651000049,,548.7537800000136,right,1.0,16.26311309997982,,,,,,,,,,,,,,,,,,,,,,,,,,,,,,,sub-077,1.0,random_dot,60.47810359896907,
left,left,speed,,,,,0.0,1.0,1.0,1.0,14.0,1.0,29.0,0.0,548.7683080000133,,,,,,,,,548.7548159000144,549.9698331000109,550.7699686000124,550.753263400009,550.7532821000059,550.7699686000124,550.7699686000124,550.7699686000124,,551.3039071000094,left,1.0,16.366514799985453,,,,,,,,,,,,,,,,,,,,,,,,,,,,,,,sub-077,1.0,random_dot,60.47810359896907,
left,left,speed,,,,,0.0,1.0,1.0,1.0,15.0,0.0,30.0,0.0,551.3190441000042,,,,,,,,,551.3048874000087,551.4189955000038,552.2200655000051,552.2032750000071,552.2033004000114,552.2200655000051,552.2200655000051,552.2200655000051,,553.1878159000044,left,1.0,16.815174399976968,,,,,,,,,,,,,,,,,,,,,,,,,,,,,,,sub-077,1.0,random_dot,60.47810359896907,
right,right,speed,,,,,0.0,1.0,1.0,1.0,15.0,1.0,31.0,1.0,553.2022288000007,,,,,,,,,553.1887939000007,554.0023612000077,554.803576300008,554.7861690000136,554.7862068000104,554.803576300008,554.803576300008,554.803576300008,,555.5210742000054,right,1.0,16.564211999997497,,,,,,,,,,,,,,,,,,,,,,,,,,,,,,,sub-077,1.0,random_dot,60.47810359896907,
left,left,speed,,,,,0.0,1.0,1.0,1.0,16.0,0.0,32.0,0.0,555.5357193000091,,,,,,,,,555.5220623000059,556.3353231000074,557.1358925000095,557.1196475000033,557.1196711000084,557.1358925000095,557.1358925000095,557.1358925000095,,557.9702759000065,left,1.0,16.67558109998936,,,,,,,,,,,,,,,,,,,,,,,,,,,,,,,sub-077,1.0,random_dot,60.47810359896907,
right,right,speed,,,,,0.0,1.0,1.0,1.0,16.0,1.0,33.0,1.0,557.9857166000002,,,,,,,,,557.9712126000086,559.1851519000047,559.9865841000137,559.969775000005,559.9698007000115,559.9865841000137,559.9865841000137,559.9865841000137,,560.604035100012,right,1.0,16.459206399988034,,,,,,,,,,,,,,,,,,,,,,,,,,,,,,,sub-077,1.0,random_dot,60.47810359896907,
left,left,speed,,,,,0.0,1.0,1.0,1.0,17.0,0.0,34.0,0.0,560.6185858000099,,,,,,,,,560.6049854000012,560.9692991000047,561.769506200013,561.7526683000033,561.7526899000077,561.769506200013,561.769506200013,561.769506200013,,562.3872710000142,left,1.0,16.46424919999845,,,,,,,,,,,,,,,,,,,,,,,,,,,,,,,sub-077,1.0,random_dot,60.47810359896907,
right,right,speed,,,,,0.0,1.0,1.0,1.0,17.0,1.0,35.0,1.0,562.4013831000048,,,,,,,,,562.3882781000138,562.5024795000063,563.3195040999999,563.3027247000136,563.3027475000126,563.3195040999999,563.3195040999999,563.3195040999999,,564.3205491000117,right,1.0,16.832997599980445,,,,,,,,,,,,,,,,,,,,,,,,,,,,,,,sub-077,1.0,random_dot,60.47810359896907,
left,left,speed,,,,,0.0,1.0,1.0,1.0,18.0,0.0,36.0,0.0,564.3353853000008,,,,,,,,,564.3216109000059,565.53590480001,566.3367807000031,566.3195709000138,566.3195974000118,566.3367807000031,566.3367807000031,566.3367807000031,,568.3203842000075,left,1.0,17.830290599988075,,,,,,,,,,,,,,,,,,,,,,,,,,,,,,,sub-077,1.0,random_dot,60.47810359896907,
right,right,speed,,,,,0.0,1.0,1.0,1.0,18.0,1.0,37.0,1.0,568.3350448000128,,,,,,,,,568.3214385000028,568.4351348000055,569.2355212000111,569.2187386000005,569.2187594000134,569.2355212000111,569.2355212000111,569.2355212000111,,569.8866565000062,right,1.0,16.489904399990337,,,,,,,,,,,,,,,,,,,,,,,,,,,,,,,sub-077,1.0,random_dot,60.47810359896907,
right,right,speed,,,,,0.0,1.0,1.0,1.0,19.0,0.0,38.0,1.0,569.9021360000042,,,,,,,,,569.887646800009,570.0011524000001,570.8029639000015,570.786419400014,570.7864391000039,570.8029639000015,570.8029639000015,570.8029639000015,,571.6369313000032,right,1.0,16.680530099984026,,,,,,,,,,,,,,,,,,,,,,,,,,,,,,,sub-077,1.0,random_dot,60.47810359896907,
left,left,speed,,,,,0.0,1.0,1.0,1.0,19.0,1.0,39.0,0.0,571.6515108000021,,,,,,,,,571.6379544000083,571.7518791000039,572.5527150000125,572.5358571000106,572.5358829000033,572.5527150000125,572.5527150000125,572.5527150000125,,574.2202495000092,left,1.0,17.511649699983536,,,,,,,,,,,,,,,,,,,,,,,,,,,,,,,sub-077,1.0,random_dot,60.47810359896907,
left,left,speed,,,,,0.0,1.0,1.0,1.0,20.0,0.0,40.0,0.0,574.2351456000033,,,,,,,,,574.2212773000065,574.3353812000132,575.1360244000098,575.119938200005,575.1199630000046,575.1360244000098,575.1360244000098,575.1360244000098,,578.6202262000006,left,1.0,19.33135749999201,,,,,,,,,,,,,,,,,,,,,,,,,,,,,,,sub-077,1.0,random_dot,60.47810359896907,
right,right,speed,,,,,0.0,1.0,1.0,1.0,20.0,1.0,41.0,1.0,578.6348914000118,,,,,,,,,578.621178100002,578.9677058000088,579.76831330001,579.7527361000102,579.7527611000114,579.76831330001,579.76831330001,579.76831330001,,581.6535386000032,right,1.0,17.724756499985233,,,,,,,,,,,,,,,,,,,,,,,,,,,,,,,sub-077,1.0,random_dot,60.47810359896907,
right,right,speed,,,,,0.0,1.0,1.0,1.0,21.0,0.0,42.0,1.0,581.6684003000119,,,,,,,,,581.6548078000051,582.018507300003,582.8191756000015,582.8028399000032,582.8028628000029,582.8191756000015,582.8191756000015,582.8191756000015,,583.9707125000132,right,1.0,16.99375539997709,,,,,,,,,,,,,,,,,,,,,,,,,,,,,,,sub-077,1.0,random_dot,60.47810359896907,
left,left,speed,,,,,0.0,1.0,1.0,1.0,21.0,1.0,43.0,0.0,583.985234000007,,,,,,,,,583.9717849000008,584.7861878000112,585.6016095000086,585.5851065000024,585.5851298000052,585.6016095000086,585.6016095000086,585.6016095000086,,586.670085100006,left,1.0,16.910659999979543,,,,,,,,,,,,,,,,,,,,,,,,,,,,,,,sub-077,1.0,random_dot,60.47810359896907,
left,left,speed,,,,,0.0,1.0,1.0,1.0,22.0,0.0,44.0,0.0,586.6845708000037,,,,,,,,,586.6710171000013,587.8848287000001,588.6858722000034,588.6688821000134,588.6689019000041,588.6858722000034,588.6858722000034,588.6858722000034,,589.8193807000061,right,0.0,16.97773379998398,,,,,,,,,,,,,,,,,,,,,,,,,,,,,,,sub-077,1.0,random_dot,60.47810359896907,
right,right,speed,,,,,0.0,1.0,1.0,1.0,22.0,1.0,45.0,1.0,589.8340639000089,,,,,,,,,589.8205589000136,589.9348545000103,590.7356829000055,590.7185193000041,590.7185393000109,590.7356829000055,590.7356829000055,590.7356829000055,,591.5366201000143,right,1.0,16.64033299998846,,,,,,,,,,,,,,,,,,,,,,,,,,,,,,,sub-077,1.0,random_dot,60.47810359896907,
left,left,speed,,,,,0.0,1.0,1.0,1.0,23.0,0.0,46.0,0.0,591.5516222000006,,,,,,,,,591.5376296000031,592.3513825000118,593.1516956000123,593.1350152000086,593.1350385000114,593.1516956000123,593.1516956000123,593.1516956000123,,593.920027900007,left,1.0,16.603857799986145,,,,,,,,,,,,,,,,,,,,,,,,,,,,,,,sub-077,1.0,random_dot,60.47810359896907,
right,right,speed,,,,,0.0,1.0,1.0,1.0,23.0,1.0,47.0,1.0,593.9350570000097,,,,,,,,,593.9215153000114,594.2889900000009,595.1017619000049,595.0855158000049,595.0855399000138,595.1017619000049,595.1017619000049,595.1017619000049,,595.9532069000124,right,1.0,16.695246999996016,,,,,,,,,,,,,,,,,,,,,,,,,,,,,,,sub-077,1.0,random_dot,60.47810359896907,
left,left,speed,,,,,0.0,1.0,1.0,1.0,24.0,0.0,48.0,0.0,595.9678078000143,,,,,,,,,595.9542418000055,596.7683433000057,597.5694878000068,597.5520637000009,597.5520834000054,597.5694878000068,597.5694878000068,597.5694878000068,,598.2537613000022,left,1.0,16.52816379998694,,,,,,,,,,,,,,,,,,,,,,,,,,,,,,,sub-077,1.0,random_dot,60.47810359896907,
right,right,speed,,,,,0.0,1.0,1.0,1.0,24.0,1.0,49.0,1.0,598.2680656000011,,,,,,,,,598.2548023000127,598.6185117000132,599.418860500009,599.4018914000044,599.4019113000104,599.418860500009,599.418860500009,599.418860500009,,600.2862921000051,right,1.0,16.701772599990363,,,,,,,,,,,,,,,,,,,,,,,,,,,,,,,sub-077,1.0,random_dot,60.47810359896907,
right,right,speed,,,,,0.0,1.0,1.0,1.0,25.0,0.0,50.0,1.0,600.3010768000095,,,,,,,,,600.2875392000133,601.5014413000026,602.301128600011,602.2845971000061,602.2846169000113,602.301128600011,602.301128600011,602.301128600011,,603.0861650000006,right,1.0,16.623979299984057,,,,,,,,,,,,,,,,,,,,,,,,,,,,,,,sub-077,1.0,random_dot,60.47810359896907,
left,left,speed,,,,,0.0,1.0,1.0,1.0,25.0,1.0,51.0,0.0,603.101141200008,,,,,,,,,603.0871626000007,603.200473600009,604.0023651000083,603.9854107000137,603.9854304000037,604.0023651000083,604.0023651000083,604.0023651000083,,604.8201428000029,left,1.0,16.664509099995485,,,,,,,,,,,,,,,,,,,,,,,,,,,,,,,sub-077,1.0,random_dot,60.47810359896907,
left,left,speed,,,,,0.0,1.0,1.0,1.0,26.0,0.0,52.0,0.0,604.8338721000036,,,,,,,,,604.8211636000051,605.1845464000071,605.9858780000068,605.9685129000136,605.9685341000004,605.9858780000068,605.9858780000068,605.9858780000068,,606.9197082000028,right,0.0,16.76682359998813,,,,,,,,,,,,,,,,,,,,,,,,,,,,,,,sub-077,1.0,random_dot,60.47810359896907,
right,right,speed,,,,,0.0,1.0,1.0,1.0,26.0,1.0,53.0,1.0,606.9351404000045,,,,,,,,,606.9210050000111,607.7343548000063,608.5347280000133,608.5180293000012,608.518060900009,608.5347280000133,608.5347280000133,608.5347280000133,,609.3190404000052,right,1.0,16.622014699983993,,,,,,,,,,,,,,,,,,,,,,,,,,,,,,,sub-077,1.0,random_dot,60.47810359896907,
left,left,speed,,,,,0.0,1.0,1.0,1.0,27.0,0.0,54.0,0.0,609.3342465000023,,,,,,,,,609.3203125,610.5349918000138,611.352687400009,611.3342664000083,611.3342920000141,611.352687400009,611.352687400009,611.352687400009,,612.3529416000092,left,1.0,16.846416599990334,,,,,,,,,,,,,,,,,,,,,,,,,,,,,,,sub-077,1.0,random_dot,60.47810359896907,
right,right,speed,,,,,0.0,1.0,1.0,1.0,27.0,1.0,55.0,1.0,612.3674517000036,,,,,,,,,612.3540404000087,613.1681004000129,613.9740465000068,613.9518036000081,613.9518294000009,613.9740465000068,613.9740465000068,613.9740465000068,,614.6694533000118,right,1.0,16.532323899984476,,,,,,,,,,,,,,,,,,,,,,,,,,,,,,,sub-077,1.0,random_dot,60.47810359896907,
left,left,speed,,,,,0.0,1.0,1.0,1.0,28.0,0.0,56.0,0.0,614.6844156000006,,,,,,,,,614.6708069000015,615.4839400000055,616.2848639000003,616.2684474000125,616.2684674000047,616.2848639000003,616.2848639000003,616.2848639000003,,616.9519998000033,left,1.0,16.513643299986143,,,,,,,,,,,,,,,,,,,,,,,,,,,,,,,sub-077,1.0,random_dot,60.47810359896907,
right,right,speed,,,,,0.0,1.0,1.0,1.0,28.0,1.0,57.0,1.0,616.966713700007,,,,,,,,,616.9529766000051,618.1678785000113,618.9685853000119,618.9517503000097,618.9517746000056,618.9685853000119,618.9685853000119,618.9685853000119,,619.6076623000117,right,1.0,16.480886699995608,,,,,,,,,,,,,,,,,,,,,,,,,,,,,,,sub-077,1.0,random_dot,60.47810359896907,
right,right,speed,,,,,0.0,1.0,1.0,1.0,29.0,0.0,58.0,1.0,619.6215504000138,,,,,,,,,619.6085944000079,619.7212150000123,620.5222111000039,620.5056184000132,620.5056474000012,620.5222111000039,620.5222111000039,620.5222111000039,,621.3080186000007,right,1.0,16.615746299983584,,,,,,,,,,,,,,,,,,,,,,,,,,,,,,,sub-077,1.0,random_dot,60.47810359896907,
left,left,speed,,,,,0.0,1.0,1.0,1.0,29.0,1.0,59.0,0.0,621.3220243000105,,,,,,,,,621.3090148000047,621.6728816000104,622.4888696000125,622.4715568000101,622.4715783000138,622.4888696000125,622.4888696000125,622.4888696000125,,623.5065272000065,left,1.0,16.860808999976143,,,,,,,,,,,,,,,,,,,,,,,,,,,,,,,sub-077,1.0,random_dot,60.47810359896907,
,,speed,,,,,0.0,1.0,1.0,1.0,,,,,,,,,,,,,,,,,,,,,,,,,,,,,,,,,,,,,,,,,,,,,,,,,,,,,,,,,sub-077,1.0,random_dot,60.47810359896907,
,,,,,,,,,,,,,,,,,,,,,,,,,,,,,,,,,,,,,,,,,,,,,,,,,,,,,,,,,,,,,,,623.5072561000125,623.5217422000133,628.5214513000101,628.5055433000089,sub-077,,,,
