direction,corrAns,randomInstr,practice_trials.thisRepN,practice_trials.thisTrialN,practice_trials.thisN,practice_trials.thisIndex,instr_trials.thisRepN,instr_trials.thisTrialN,instr_trials.thisN,instr_trials.thisIndex,test_trials.thisRepN,test_trials.thisTrialN,test_trials.thisN,test_trials.thisIndex,thisRow.t,notes,general_instruction.started,textGeneralInstr.started,respGeneralInstr.started,general_instruction.stopped,respGeneralInstr.keys,respGeneralInstr.rt,respGeneralInstr.duration,ITI.started,fixcross.started,fixcross.stopped,ITI.stopped,dots.started,backgroundDots.started,stimulusDots.started,respDots.started,dots.stopped,respDots.keys,respDots.corr,respDots.rt,respDots.duration,feedback.started,textFeedback.started,feedback.stopped,textFeedback.stopped,info.started,textInfo.started,keyRespInfo.started,info.stopped,keyRespInfo.keys,keyRespInfo.rt,keyRespInfo.duration,test_instruction.started,textTestInstr.started,respTestInstr.started,test_instruction.stopped,respTestInstr.keys,respTestInstr.rt,respTestInstr.duration,random_instruction.started,textRandomInstr.started,respRandomInstr.started,random_instruction.stopped,respRandomInstr.keys,respRandomInstr.rt,respRandomInstr.duration,stimulusDots.stopped,goodbye.started,textGoodbye.started,textGoodbye.stopped,goodbye.stopped,participant,session,expName,frameRate,Unnamed: 74
,,,,,,,,,,,,,,,,,0.0469357000038144,0.0575747999973828,0.0575747999973828,25.267510500001663,space,44.08267889999843,,,,,,,,,,,,,,,,,,,,,,,,,,,,,,,,,,,,,,,,,,,,,sub-067,1.0,random_dot,58.67962625758032,
right,right,,0.0,0.0,0.0,1.0,,,,,,,,,25.331553500000155,,,,,,,,,25.32405950000248,26.084032799997654,26.8835379000011,26.86744770000223,26.867469800003164,26.8835379000011,26.8835379000011,26.8835379000011,31.35249940000358,left,0.0,23.346111400001973,,31.3675463000036,31.382294900002307,31.868764999999257,,,,,,,,,,,,,,,,,,,,,,,,,,,,sub-067,1.0,random_dot,58.67962625758032,
left,left,,0.0,1.0,1.0,0.0,,,,,,,,,31.88509190000332,,,,,,,,,31.86937559999933,31.96854020000319,32.76928239999688,32.75250580000284,32.752526500000386,32.76928239999688,32.76928239999688,32.76928239999688,34.42046760000085,left,1.0,20.52436039999884,,34.42101840000396,34.435224000000744,34.919107200003054,34.93525580000278,,,,,,,,,,,,,,,,,,,,,,,,,,,sub-067,1.0,random_dot,58.67962625758032,
left,left,,1.0,0.0,2.0,0.0,,,,,,,,,34.93525580000278,,,,,,,,,34.91953800000192,35.73534259999724,36.5358825000003,36.519175800000085,36.51920200000313,36.5358825000003,36.5358825000003,36.5358825000003,37.47055179999734,right,0.0,19.80788919999759,,37.471053699999175,37.48518100000365,37.97073239999736,37.98649250000017,,,,,,,,,,,,,,,,,,,,,,,,,,,sub-067,1.0,random_dot,58.67962625758032,
right,right,,1.0,1.0,3.0,1.0,,,,,,,,,37.98649250000017,,,,,,,,,37.97115959999792,38.336999500003,39.13691059999837,39.12064519999694,39.12066950000008,39.13691059999837,39.13691059999837,39.13691059999837,42.12051600000268,left,0.0,21.856700600001204,,42.121160900002,42.13539100000344,42.61983139999938,42.63572540000314,,,,,,,,,,,,,,,,,,,,,,,,,,,sub-067,1.0,random_dot,58.67962625758032,
left,left,,2.0,0.0,4.0,0.0,,,,,,,,,42.63572540000314,,,,,,,,,42.62028909999936,42.98517929999798,43.78682700000354,43.77046939999855,43.77048959999957,43.78682700000354,43.78682700000354,43.78682700000354,47.10565830000269,right,0.0,22.182180199997678,,47.10631529999955,47.11829579999903,47.60250090000045,47.61866610000288,,,,,,,,,,,,,,,,,,,,,,,,,,,sub-067,1.0,random_dot,58.67962625758032,
right,right,,2.0,1.0,5.0,1.0,,,,,,,,,47.61866610000288,,,,,,,,,47.60303620000195,48.419111399998656,49.22018860000389,49.20501710000099,49.20503750000353,49.22018860000389,49.22018860000389,49.22018860000389,50.82130889999826,right,1.0,20.470584499991677,,50.82183090000035,50.83497679999709,51.32030420000228,51.336118699997314,,,,,,,,,,,,,,,,,,,,,,,,,,,sub-067,1.0,random_dot,58.67962625758032,
left,left,,3.0,0.0,6.0,0.0,,,,,,,,,51.336118699997314,,,,,,,,,51.3207098999992,51.68499560000055,52.485525099997176,52.4688535000023,52.468879000000015,52.485525099997176,52.485525099997176,52.485525099997176,56.90425710000272,left,1.0,23.28816279999592,,56.90491520000069,56.91861809999682,57.40363960000104,57.41919539999799,,,,,,,,,,,,,,,,,,,,,,,,,,,sub-067,1.0,random_dot,58.67962625758032,
right,right,,3.0,1.0,7.0,1.0,,,,,,,,,57.41919539999799,,,,,,,,,57.40405509999982,57.5182793999993,58.31970379999984,58.30326970000169,58.303291099997296,58.31970379999984,58.31970379999984,58.31970379999984,61.3702437000029,right,1.0,21.91702319999604,,61.37082840000221,61.385464999999385,61.86972190000233,61.88603899999725,,,,,,,,,,,,,,,,,,,,,,,,,,,sub-067,1.0,random_dot,58.67962625758032,
left,left,,4.0,0.0,8.0,0.0,,,,,,,,,61.88603899999725,,,,,,,,,61.87020270000357,63.08560800000123,63.88586460000079,63.86944539999968,63.86946799999714,63.88586460000079,63.88586460000079,63.88586460000079,64.98706320000201,left,1.0,19.965796599994064,,64.98760770000081,65.00201099999686,65.48580989999755,65.50183139999717,,,,,,,,,,,,,,,,,,,,,,,,,,,sub-067,1.0,random_dot,58.67962625758032,
right,right,,4.0,1.0,9.0,1.0,,,,,,,,,65.50183139999717,,,,,,,,,65.4862878999993,65.60289090000151,66.4195538999993,66.40241960000276,66.40243829999963,66.4195538999993,66.4195538999993,66.4195538999993,67.97115250000206,right,1.0,20.422146899996733,,67.97170000000187,67.98460329999943,68.47000090000074,68.48564590000024,,,,,,,,,,,,,,,,,,,,,,,,,,,sub-067,1.0,random_dot,58.67962625758032,
left,left,,5.0,0.0,10.0,0.0,,,,,,,,,68.48564590000024,,,,,,,,,68.47042360000341,68.58433620000142,69.38612619999913,69.36983060000057,69.36984970000049,69.38612619999913,69.38612619999913,69.38612619999913,71.52031400000124,right,0.0,21.00515749999613,,71.52106980000099,71.53481379999721,72.0183806999994,72.03446350000013,,,,,,,,,,,,,,,,,,,,,,,,,,,sub-067,1.0,random_dot,58.67962625758032,
right,right,,5.0,1.0,11.0,1.0,,,,,,,,,72.03446350000013,,,,,,,,,72.01882949999708,73.23510489999899,74.0347299999994,74.01823080000031,74.01825739999913,74.0347299999994,74.0347299999994,74.0347299999994,74.75344040000346,left,0.0,19.58411919999344,,74.75394889999734,74.76780739999958,75.25185919999785,75.26755930000218,,,,,,,,,,,,,,,,,,,,,,,,,,,sub-067,1.0,random_dot,58.67962625758032,
right,right,,6.0,0.0,12.0,1.0,,,,,,,,,75.26755930000218,,,,,,,,,75.25243120000232,75.61772870000277,76.41987369999697,76.40360119999968,76.40362219999952,76.41987369999697,76.41987369999697,76.41987369999697,78.30373659999896,left,0.0,20.750347199995304,,78.30430740000156,78.31793599999946,78.80233430000226,78.81805200000235,,,,,,,,,,,,,,,,,,,,,,,,,,,sub-067,1.0,random_dot,58.67962625758032,
left,left,,6.0,1.0,13.0,0.0,,,,,,,,,78.81805200000235,,,,,,,,,78.80280560000392,79.61766190000344,80.4190591000006,80.40233579999767,80.4023543000003,80.4190591000006,80.4190591000006,80.4190591000006,82.4196596000038,right,0.0,20.871323699997447,,82.42037010000058,82.43459489999805,82.91930059999868,82.9350934000031,,,,,,,,,,,,,,,,,,,,,,,,,,,sub-067,1.0,random_dot,58.67962625758032,
right,right,,7.0,0.0,14.0,1.0,,,,,,,,,82.9350934000031,,,,,,,,,82.91972810000152,84.13548370000353,84.93512149999879,84.91850459999841,84.91852579999977,84.93512149999879,84.93512149999879,84.93512149999879,85.7362082000036,left,0.0,19.66455329999735,,85.73670519999723,85.75146810000297,86.23588339999696,86.2514067000011,,,,,,,,,,,,,,,,,,,,,,,,,,,sub-067,1.0,random_dot,58.67962625758032,
left,left,,7.0,1.0,15.0,0.0,,,,,,,,,86.2514067000011,,,,,,,,,86.23630409999896,87.05197159999807,87.85201080000115,87.83563739999954,87.83565719999751,87.85201080000115,87.85201080000115,87.85201080000115,88.96986779999861,left,1.0,19.995088799994846,,88.97045139999682,88.9866406000001,89.48417480000353,,,,,,,,,,,,,,,,,,,,,,,,,,,,sub-067,1.0,random_dot,58.67962625758032,
left,left,,8.0,0.0,16.0,0.0,,,,,,,,,89.50079260000348,,,,,,,,,89.48465520000173,89.5850133999993,90.38564880000196,90.3683256000004,90.36835710000014,90.38564880000196,90.38564880000196,90.38564880000196,93.1029092000026,right,0.0,21.585726799996337,,93.10341999999946,93.11729840000044,93.60220570000092,93.6178316000005,,,,,,,,,,,,,,,,,,,,,,,,,,,sub-067,1.0,random_dot,58.67962625758032,
right,right,,8.0,1.0,17.0,1.0,,,,,,,,,93.6178316000005,,,,,,,,,93.6026662000004,94.41856420000111,95.23964759999944,95.21761700000206,95.21763849999844,95.23964759999944,95.23964759999944,95.23964759999944,96.43677729999764,left,0.0,20.074018099992827,,96.4372973999998,96.45152090000192,96.9354994000023,96.95050829999671,,,,,,,,,,,,,,,,,,,,,,,,,,,sub-067,1.0,random_dot,58.67962625758032,
left,left,,9.0,0.0,18.0,0.0,,,,,,,,,96.95050829999671,,,,,,,,,96.9361016000039,97.0519032000011,97.85173719999877,97.83811859999696,97.83814829999756,97.85173719999877,97.85173719999877,97.85173719999877,99.50404929999786,right,0.0,20.52198769999813,,99.50459340000089,99.51798740000233,100.00242479999724,100.01786410000204,,,,,,,,,,,,,,,,,,,,,,,,,,,sub-067,1.0,random_dot,58.67962625758032,
right,right,,9.0,1.0,19.0,1.0,,,,,,,,,100.01786410000204,,,,,,,,,100.0028964000012,100.81803429999854,101.61789609999688,101.6012308999998,101.60125690000132,101.61789609999688,101.61789609999688,101.61789609999688,102.36946149999858,left,0.0,19.617114000000583,,102.37022289999732,102.38430460000382,102.86887630000274,102.88502270000026,,,,,,,,,,,,,,,,,,,,,,,,,,,sub-067,1.0,random_dot,58.67962625758032,
,,,,,,,,,,,,,,,,,,,,,,,,,,,,,,,,,,,,,,,,,102.86894539999776,102.88502270000026,102.88502270000026,108.86877320000347,space,24.85426069999812,,,,,,,,,,,,,,,,,,,,,sub-067,1.0,random_dot,58.67962625758032,
,,,,,,,,,,,,,,,,,,,,,,,,,,,,,,,,,,,,,,,,,,,,,,,,108.86880670000392,108.88521780000156,108.88521780000156,121.503309599997,space,31.480472700000973,,,,,,,,,,,,,,sub-067,1.0,random_dot,58.67962625758032,
right,right,accuracy,,,,,0.0,0.0,0.0,0.0,0.0,0.0,0.0,1.0,123.75869699999748,,,,,,,,,123.7514732999989,123.85933050000313,124.6609638000009,124.64398190000064,124.64400510000269,124.6609638000009,124.6609638000009,124.6609638000009,126.06142250000266,right,1.0,20.27136409999366,,,,,,,,,,,,,,,,,,,,121.5344671999992,121.55598830000235,121.55598830000235,123.74374459999672,space,21.05393379999441,,,,,,,sub-067,1.0,random_dot,58.67962625758032,
left,left,accuracy,,,,,0.0,0.0,0.0,0.0,0.0,1.0,1.0,0.0,126.07623969999986,,,,,,,,,126.06327169999712,126.4261731000006,127.22672549999696,127.20998200000032,127.21000300000014,127.22672549999696,127.22672549999696,127.22672549999696,129.16049829999974,left,1.0,20.8059432999944,,,,,,,,,,,,,,,,,,,,,,,,,,,,,,,,sub-067,1.0,random_dot,58.67962625758032,
right,right,accuracy,,,,,0.0,0.0,0.0,0.0,1.0,0.0,2.0,1.0,129.17629339999985,,,,,,,,,129.16150239999843,129.9752990999987,130.77718379999715,130.76005180000357,130.7600728000034,130.77718379999715,130.77718379999715,130.77718379999715,133.01043339999887,right,1.0,21.110145500002545,,,,,,,,,,,,,,,,,,,,,,,,,,,,,,,,sub-067,1.0,random_dot,58.67962625758032,
left,left,accuracy,,,,,0.0,0.0,0.0,0.0,1.0,1.0,3.0,0.0,133.02554190000228,,,,,,,,,133.01152220000222,133.8253119000001,134.62696410000353,134.6104744999975,134.6104983999976,134.62696410000353,134.62696410000353,134.62696410000353,135.41059990000213,left,1.0,19.65287129999342,,,,,,,,,,,,,,,,,,,,,,,,,,,,,,,,sub-067,1.0,random_dot,58.67962625758032,
left,left,accuracy,,,,,0.0,0.0,0.0,0.0,2.0,0.0,4.0,0.0,135.42584160000115,,,,,,,,,135.41161799999827,136.22597759999917,137.02657719999843,137.009673499997,137.00969949999853,137.02657719999843,137.02657719999843,137.02657719999843,141.47763190000114,right,0.0,23.316598499994143,,,,,,,,,,,,,,,,,,,,,,,,,,,,,,,,sub-067,1.0,random_dot,58.67962625758032,
right,right,accuracy,,,,,0.0,0.0,0.0,0.0,2.0,1.0,5.0,1.0,141.49679469999683,,,,,,,,,141.4785991000026,142.29201710000052,143.0930253999977,143.07605550000153,143.07607899999857,143.0930253999977,143.0930253999977,143.0930253999977,145.19460750000144,right,1.0,20.97676159999537,,,,,,,,,,,,,,,,,,,,,,,,,,,,,,,,sub-067,1.0,random_dot,58.67962625758032,
right,right,accuracy,,,,,0.0,0.0,0.0,0.0,3.0,0.0,6.0,1.0,145.20955759999924,,,,,,,,,145.1955495000002,146.40885340000386,147.2094797000027,147.19282250000106,147.19284779999725,147.2094797000027,147.2094797000027,147.2094797000027,151.2607455000034,left,0.0,22.914721199995256,,,,,,,,,,,,,,,,,,,,,,,,,,,,,,,,sub-067,1.0,random_dot,58.67962625758032,
left,left,accuracy,,,,,0.0,0.0,0.0,0.0,3.0,1.0,7.0,0.0,151.27580010000383,,,,,,,,,151.26165249999758,151.37623860000167,152.19281780000165,152.17579229999683,152.17581559999962,152.19281780000165,152.19281780000165,152.19281780000165,153.6110172999979,right,0.0,20.289867399995277,,,,,,,,,,,,,,,,,,,,,,,,,,,,,,,,sub-067,1.0,random_dot,58.67962625758032,
right,right,accuracy,,,,,0.0,0.0,0.0,0.0,4.0,0.0,8.0,1.0,153.62666319999698,,,,,,,,,153.61197820000234,153.72601250000298,154.5425383000038,154.5262184000021,154.52623940000194,154.5425383000038,154.5425383000038,154.5425383000038,156.9945241000023,left,0.0,21.31640779999725,,,,,,,,,,,,,,,,,,,,,,,,,,,,,,,,sub-067,1.0,random_dot,58.67962625758032,
left,left,accuracy,,,,,0.0,0.0,0.0,0.0,4.0,1.0,9.0,0.0,157.0092760999978,,,,,,,,,156.99548859999777,158.20875160000287,159.0096416000015,158.99330049999844,158.99333209999895,159.0096416000015,159.0096416000015,159.0096416000015,159.92661200000293,right,0.0,19.78408279999712,,,,,,,,,,,,,,,,,,,,,,,,,,,,,,,,sub-067,1.0,random_dot,58.67962625758032,
left,left,accuracy,,,,,0.0,0.0,0.0,0.0,5.0,0.0,10.0,0.0,159.94261209999968,,,,,,,,,159.92787820000376,160.74182870000368,161.54273439999815,161.52568749999773,161.52570830000332,161.54273439999815,161.54273439999815,161.54273439999815,164.74479460000293,left,1.0,22.065349600001355,,,,,,,,,,,,,,,,,,,,,,,,,,,,,,,,sub-067,1.0,random_dot,58.67962625758032,
right,right,accuracy,,,,,0.0,0.0,0.0,0.0,5.0,1.0,11.0,1.0,164.7587682000012,,,,,,,,,164.74574690000009,165.959700899999,166.77652600000147,166.7588698000036,166.75889109999844,166.77652600000147,166.77652600000147,166.77652600000147,171.310083999997,left,0.0,23.40622959999746,,,,,,,,,,,,,,,,,,,,,,,,,,,,,,,,sub-067,1.0,random_dot,58.67962625758032,
left,left,accuracy,,,,,0.0,0.0,0.0,0.0,6.0,0.0,12.0,0.0,171.32500489999802,,,,,,,,,171.31136510000215,172.5259118000031,173.34208039999794,173.32542880000256,173.3254648000002,173.34208039999794,173.34208039999794,173.34208039999794,176.04367289999936,left,1.0,21.575294100002797,,,,,,,,,,,,,,,,,,,,,,,,,,,,,,,,sub-067,1.0,random_dot,58.67962625758032,
right,right,accuracy,,,,,0.0,0.0,0.0,0.0,6.0,1.0,13.0,1.0,176.05868210000335,,,,,,,,,176.04471580000245,176.15805450000337,176.95901440000307,176.94197410000197,176.9419934999969,176.95901440000307,176.95901440000307,176.95901440000307,180.37623139999775,left,0.0,22.29413090000162,,,,,,,,,,,,,,,,,,,,,,,,,,,,,,,,sub-067,1.0,random_dot,58.67962625758032,
right,right,accuracy,,,,,0.0,0.0,0.0,0.0,7.0,0.0,14.0,1.0,180.3911330999981,,,,,,,,,180.3773016999985,181.5913395000025,182.3922836999991,182.3754400999969,182.37545890000183,182.3922836999991,182.3922836999991,182.3922836999991,183.69354049999677,right,1.0,20.16691169999831,,,,,,,,,,,,,,,,,,,,,,,,,,,,,,,,sub-067,1.0,random_dot,58.67962625758032,
left,left,accuracy,,,,,0.0,0.0,0.0,0.0,7.0,1.0,15.0,0.0,183.7079878000004,,,,,,,,,183.6948644000004,184.05866470000183,184.8595723000035,184.84284489999845,184.84286409999916,184.8595723000035,184.8595723000035,184.8595723000035,186.6104820999972,left,1.0,20.62159860000247,,,,,,,,,,,,,,,,,,,,,,,,,,,,,,,,sub-067,1.0,random_dot,58.67962625758032,
right,right,accuracy,,,,,0.0,0.0,0.0,0.0,8.0,0.0,16.0,1.0,186.62489559999813,,,,,,,,,186.61151119999704,187.4251746000009,188.2261647999985,188.2094705999989,188.2094958000016,188.2261647999985,188.2261647999985,188.2261647999985,190.35989010000048,right,1.0,20.998953399997845,,,,,,,,,,,,,,,,,,,,,,,,,,,,,,,,sub-067,1.0,random_dot,58.67962625758032,
left,left,accuracy,,,,,0.0,0.0,0.0,0.0,8.0,1.0,17.0,0.0,190.3744957000017,,,,,,,,,190.36092189999908,191.175493200004,191.97696449999785,191.95957949999865,191.9596021000034,191.97696449999785,191.97696449999785,191.97696449999785,192.81080510000172,left,1.0,19.711576599998807,,,,,,,,,,,,,,,,,,,,,,,,,,,,,,,,sub-067,1.0,random_dot,58.67962625758032,
right,right,accuracy,,,,,0.0,0.0,0.0,0.0,9.0,0.0,18.0,1.0,192.82504750000223,,,,,,,,,192.81175990000335,194.02475440000129,194.8260917000007,194.80880700000125,194.808829900001,194.8260917000007,194.8260917000007,194.8260917000007,196.42670999999973,right,1.0,20.47206819999701,,,,,,,,,,,,,,,,,,,,,,,,,,,,,,,,sub-067,1.0,random_dot,58.67962625758032,
left,left,accuracy,,,,,0.0,0.0,0.0,0.0,9.0,1.0,19.0,0.0,196.44116070000015,,,,,,,,,196.42768790000264,196.54115820000152,197.34194659999773,197.325104800002,197.32513130000007,197.34194659999773,197.34194659999773,197.34194659999773,199.41062309999688,left,1.0,20.9347087999995,,,,,,,,,,,,,,,,,,,,,,,,,,,,,,,,sub-067,1.0,random_dot,58.67962625758032,
left,left,accuracy,,,,,0.0,0.0,0.0,0.0,10.0,0.0,20.0,0.0,199.424079299999,,,,,,,,,199.41169120000268,199.77466300000376,200.57499570000076,200.55848089999927,200.5585085999992,200.57499570000076,200.57499570000076,200.57499570000076,201.67636700000003,left,1.0,19.969616700000188,,,,,,,,,,,,,,,,,,,,,,,,,,,,,,,,sub-067,1.0,random_dot,58.67962625758032,
right,right,accuracy,,,,,0.0,0.0,0.0,0.0,10.0,1.0,21.0,1.0,201.6912777999969,,,,,,,,,201.6774218999999,201.790777000002,202.5928264000031,202.5762430000032,202.57626529999837,202.5928264000031,202.5928264000031,202.5928264000031,206.12679200000275,left,0.0,22.408964100002777,,,,,,,,,,,,,,,,,,,,,,,,,,,,,,,,sub-067,1.0,random_dot,58.67962625758032,
right,right,accuracy,,,,,0.0,0.0,0.0,0.0,11.0,0.0,22.0,1.0,206.14093629999843,,,,,,,,,206.12776940000185,207.341333700002,208.14163189999817,208.1250465999983,208.12507029999688,208.14163189999817,208.14163189999817,208.14163189999817,209.01001520000136,right,1.0,19.73010009999416,,,,,,,,,,,,,,,,,,,,,,,,,,,,,,,,sub-067,1.0,random_dot,58.67962625758032,
left,left,accuracy,,,,,0.0,0.0,0.0,0.0,11.0,1.0,23.0,0.0,209.0238046000013,,,,,,,,,209.01097689999733,209.3750405000028,210.17567209999837,210.15903570000228,210.15905529999876,210.17567209999837,210.17567209999837,210.17567209999837,211.3432857000007,left,1.0,20.03208359999553,,,,,,,,,,,,,,,,,,,,,,,,,,,,,,,,sub-067,1.0,random_dot,58.67962625758032,
right,right,accuracy,,,,,0.0,0.0,0.0,0.0,12.0,0.0,24.0,1.0,211.35825979999936,,,,,,,,,211.34432820000077,211.7069307999991,212.50810869999987,212.49147690000245,212.4914977000008,212.50810869999987,212.50810869999987,212.50810869999987,215.1254351000025,right,1.0,21.4878658000016,,,,,,,,,,,,,,,,,,,,,,,,,,,,,,,,sub-067,1.0,random_dot,58.67962625758032,
left,left,accuracy,,,,,0.0,0.0,0.0,0.0,12.0,1.0,25.0,0.0,215.1404259999981,,,,,,,,,215.1264702999979,215.94034130000364,216.7414202,216.72488999999769,216.72490929999915,216.7414202,216.7414202,216.7414202,217.65921810000145,left,1.0,19.7875264999966,,,,,,,,,,,,,,,,,,,,,,,,,,,,,,,,sub-067,1.0,random_dot,58.67962625758032,
right,right,accuracy,,,,,0.0,0.0,0.0,0.0,13.0,0.0,26.0,1.0,217.6744659999968,,,,,,,,,217.6601338999972,218.8739334999991,219.67498290000367,219.65811869999743,219.6581440000009,219.67498290000367,219.67498290000367,219.67498290000367,220.4760143000021,left,0.0,19.6737301999965,,,,,,,,,,,,,,,,,,,,,,,,,,,,,,,,sub-067,1.0,random_dot,58.67962625758032,
left,left,accuracy,,,,,0.0,0.0,0.0,0.0,13.0,1.0,27.0,0.0,220.49091529999717,,,,,,,,,220.4777968999988,221.2909942999977,222.0909040999977,222.07412119999933,222.0741471000001,222.0909040999977,222.0909040999977,222.0909040999977,223.3100858999969,left,1.0,20.08553920000122,,,,,,,,,,,,,,,,,,,,,,,,,,,,,,,,sub-067,1.0,random_dot,58.67962625758032,
left,left,accuracy,,,,,0.0,0.0,0.0,0.0,14.0,0.0,28.0,0.0,223.3240861000013,,,,,,,,,223.31106379999983,223.4241665000009,224.2247677999985,224.20794279999973,224.2079653000037,224.2247677999985,224.2247677999985,224.2247677999985,225.57594480000265,left,1.0,20.21622419999767,,,,,,,,,,,,,,,,,,,,,,,,,,,,,,,,sub-067,1.0,random_dot,58.67962625758032,
right,right,accuracy,,,,,0.0,0.0,0.0,0.0,14.0,1.0,29.0,1.0,225.59151140000176,,,,,,,,,225.57693879999715,226.79144400000223,227.59178819999943,227.57557919999817,227.57562139999936,227.59178819999943,227.59178819999943,227.59178819999943,228.742113100001,right,1.0,20.02085299999453,,,,,,,,,,,,,,,,,,,,,,,,,,,,,,,,sub-067,1.0,random_dot,58.67962625758032,
right,right,accuracy,,,,,0.0,0.0,0.0,0.0,15.0,0.0,30.0,1.0,228.7577772000004,,,,,,,,,228.74311509999825,229.5574753000037,230.35738780000247,230.3407684999984,230.34078779999984,230.35738780000247,230.35738780000247,230.35738780000247,231.1091815999971,right,1.0,19.6291676999972,,,,,,,,,,,,,,,,,,,,,,,,,,,,,,,,sub-067,1.0,random_dot,58.67962625758032,
left,left,accuracy,,,,,0.0,0.0,0.0,0.0,15.0,1.0,31.0,0.0,231.123897999998,,,,,,,,,231.11021869999968,231.9241578000001,232.7243654999984,232.70778769999745,232.7078113000025,232.7243654999984,232.7243654999984,232.7243654999984,233.65887130000192,right,0.0,19.80465409999306,,,,,,,,,,,,,,,,,,,,,,,,,,,,,,,,sub-067,1.0,random_dot,58.67962625758032,
left,left,accuracy,,,,,0.0,0.0,0.0,0.0,16.0,0.0,32.0,0.0,233.6735492000007,,,,,,,,,233.65992600000027,234.4741538000017,235.27603760000056,235.25727129999723,235.25729760000104,235.27603760000056,235.27603760000056,235.27603760000056,235.97579340000084,left,1.0,19.576837300002808,,,,,,,,,,,,,,,,,,,,,,,,,,,,,,,,sub-067,1.0,random_dot,58.67962625758032,
right,right,accuracy,,,,,0.0,0.0,0.0,0.0,16.0,1.0,33.0,1.0,235.990813299999,,,,,,,,,235.97682969999727,236.3398282999988,237.14211619999696,237.125100199999,237.12512589999824,237.14211619999696,237.14211619999696,237.14211619999696,238.24232009999832,left,0.0,19.97695720000047,,,,,,,,,,,,,,,,,,,,,,,,,,,,,,,,sub-067,1.0,random_dot,58.67962625758032,
left,left,accuracy,,,,,0.0,0.0,0.0,0.0,17.0,0.0,34.0,0.0,238.2574450000029,,,,,,,,,238.24342369999795,239.45777980000275,240.25813180000117,240.24134100000083,240.2413658000005,240.25813180000117,240.25813180000117,240.25813180000117,241.22564460000285,left,1.0,19.83452599999873,,,,,,,,,,,,,,,,,,,,,,,,,,,,,,,,sub-067,1.0,random_dot,58.67962625758032,
right,right,accuracy,,,,,0.0,0.0,0.0,0.0,17.0,1.0,35.0,1.0,241.24022870000044,,,,,,,,,241.22668520000295,241.34025939999992,242.1411447999999,242.1242179999972,242.124243899998,242.1411447999999,242.1411447999999,242.1411447999999,242.9420351000008,right,1.0,19.66564169999037,,,,,,,,,,,,,,,,,,,,,,,,,,,,,,,,sub-067,1.0,random_dot,58.67962625758032,
left,left,accuracy,,,,,0.0,0.0,0.0,0.0,18.0,0.0,36.0,0.0,242.95707129999937,,,,,,,,,242.94305750000055,243.7571928000034,244.5581022999977,244.54071220000333,244.54073520000384,244.5581022999977,244.5581022999977,244.5581022999977,245.6424377000003,right,0.0,19.96120799999335,,,,,,,,,,,,,,,,,,,,,,,,,,,,,,,,sub-067,1.0,random_dot,58.67962625758032,
right,right,accuracy,,,,,0.0,0.0,0.0,0.0,18.0,1.0,37.0,1.0,245.6568552000026,,,,,,,,,245.64372469999944,246.0070338000005,246.80792210000072,246.79130969999824,246.7913317999992,246.80792210000072,246.80792210000072,246.80792210000072,248.6416167999996,left,0.0,20.70542839999689,,,,,,,,,,,,,,,,,,,,,,,,,,,,,,,,sub-067,1.0,random_dot,58.67962625758032,
right,right,accuracy,,,,,0.0,0.0,0.0,0.0,19.0,0.0,38.0,1.0,248.65730720000283,,,,,,,,,248.6426250000004,249.85630390000009,250.6577589000008,250.64044940000167,250.6404694000012,250.6577589000008,250.6577589000008,250.6577589000008,251.8419375000012,left,0.0,20.056852800000343,,,,,,,,,,,,,,,,,,,,,,,,,,,,,,,,sub-067,1.0,random_dot,58.67962625758032,
left,left,accuracy,,,,,0.0,0.0,0.0,0.0,19.0,1.0,39.0,0.0,251.85663000000204,,,,,,,,,251.84361960000388,252.2070673999988,253.00776549999864,252.99168929999723,252.99171059999932,253.00776549999864,253.00776549999864,253.00776549999864,254.40880270000343,left,1.0,20.272559099998038,,,,,,,,,,,,,,,,,,,,,,,,,,,,,,,,sub-067,1.0,random_dot,58.67962625758032,
right,right,accuracy,,,,,0.0,0.0,0.0,0.0,20.0,0.0,40.0,1.0,254.42368220000208,,,,,,,,,254.40980719999789,254.773494699999,255.57381709999757,255.5573258000004,255.55734400000077,255.57381709999757,255.57381709999757,255.57381709999757,257.3921142000036,left,0.0,20.68659409999236,,,,,,,,,,,,,,,,,,,,,,,,,,,,,,,,sub-067,1.0,random_dot,58.67962625758032,
left,left,accuracy,,,,,0.0,0.0,0.0,0.0,20.0,1.0,41.0,0.0,257.4067912000028,,,,,,,,,257.3931348999977,258.20720959999744,259.0076266999968,258.9910616999987,258.9910825999977,259.0076266999968,259.0076266999968,259.0076266999968,259.8919567999983,left,1.0,19.750991399996565,,,,,,,,,,,,,,,,,,,,,,,,,,,,,,,,sub-067,1.0,random_dot,58.67962625758032,
right,right,accuracy,,,,,0.0,0.0,0.0,0.0,21.0,0.0,42.0,1.0,259.90751089999685,,,,,,,,,259.89298150000104,260.70661290000135,261.5074788999991,261.49053060000006,261.4905513999984,261.5074788999991,261.5074788999991,261.5074788999991,262.7426323000036,right,1.0,20.11261789999844,,,,,,,,,,,,,,,,,,,,,,,,,,,,,,,,sub-067,1.0,random_dot,58.67962625758032,
left,left,accuracy,,,,,0.0,0.0,0.0,0.0,21.0,1.0,43.0,0.0,262.75671780000266,,,,,,,,,262.74398069999734,263.9558382000032,264.7582872999992,264.7413241000031,264.74134680000134,264.7582872999992,264.7582872999992,264.7582872999992,265.77455570000166,left,1.0,19.88660249999521,,,,,,,,,,,,,,,,,,,,,,,,,,,,,,,,sub-067,1.0,random_dot,58.67962625758032,
left,left,accuracy,,,,,0.0,0.0,0.0,0.0,22.0,0.0,44.0,0.0,265.7896793999971,,,,,,,,,265.7757916999981,265.8893299999981,266.6918422000017,266.67458970000007,266.6746106999999,266.6918422000017,266.6918422000017,266.6918422000017,271.7590157000013,left,1.0,23.94222340000124,,,,,,,,,,,,,,,,,,,,,,,,,,,271.67297659999895,,,,,sub-067,1.0,random_dot,58.67962625758032,
right,right,accuracy,,,,,0.0,0.0,0.0,0.0,22.0,1.0,45.0,1.0,271.773535100001,,,,,,,,,271.76004800000374,271.873276600003,272.6740648999985,272.6574107999986,272.6574292000005,272.6740648999985,272.6740648999985,272.6740648999985,273.4747481000013,right,1.0,19.67583289999311,,,,,,,,,,,,,,,,,,,,,,,,,,,,,,,,sub-067,1.0,random_dot,58.67962625758032,
right,right,accuracy,,,,,0.0,0.0,0.0,0.0,23.0,0.0,46.0,1.0,273.4898691999988,,,,,,,,,273.4760240999967,274.6892544000002,275.49027090000163,275.4727026999972,275.4727267999988,275.49027090000163,275.49027090000163,275.49027090000163,276.22418769999786,right,1.0,19.60150949999661,,,,,,,,,,,,,,,,,,,,,,,,,,,,,,,,sub-067,1.0,random_dot,58.67962625758032,
left,left,accuracy,,,,,0.0,0.0,0.0,0.0,23.0,1.0,47.0,0.0,276.23889710000367,,,,,,,,,276.2256602999987,277.43996360000165,278.24005880000186,278.22319889999926,278.22322079999867,278.24005880000186,278.24005880000186,278.24005880000186,279.5076302000016,left,1.0,20.144817699998384,,,,,,,,,,,,,,,,,,,,,,,,,,,,,,,,sub-067,1.0,random_dot,58.67962625758032,
left,left,accuracy,,,,,0.0,0.0,0.0,0.0,24.0,0.0,48.0,0.0,279.522455899998,,,,,,,,,279.50859080000373,279.62367390000145,280.4239135000025,280.40677519999736,280.4067952999976,280.4239135000025,280.4239135000025,280.4239135000025,281.1079355000038,left,1.0,19.55276669999148,,,,,,,,,,,,,,,,,,,,,,,,,,,,,,,,sub-067,1.0,random_dot,58.67962625758032,
right,right,accuracy,,,,,0.0,0.0,0.0,0.0,24.0,1.0,49.0,1.0,281.12256329999946,,,,,,,,,281.1091538000037,281.4721312000038,282.27344340000127,282.25592340000003,282.2559467000028,282.27344340000127,282.27344340000127,282.27344340000127,283.22398400000384,right,1.0,19.826205699995626,,,,,,,,,,,,,,,,,,,,,,,,,,,,,,,,sub-067,1.0,random_dot,58.67962625758032,
left,left,accuracy,,,,,0.0,0.0,0.0,0.0,25.0,0.0,50.0,0.0,283.2388856000034,,,,,,,,,283.2249917000008,284.0397471999968,284.8406069999983,284.8237097000019,284.8237294999999,284.8406069999983,284.8406069999983,284.8406069999983,285.72544619999826,left,1.0,19.760560799993986,,,,,,,,,,,,,,,,,,,,,,,,,,,,,,,,sub-067,1.0,random_dot,58.67962625758032,
right,right,accuracy,,,,,0.0,0.0,0.0,0.0,25.0,1.0,51.0,1.0,285.7396597999977,,,,,,,,,285.7266399,286.939377900002,287.73934310000186,287.72290610000346,287.72292729999754,287.73934310000186,287.73934310000186,287.73934310000186,288.4421069000018,left,0.0,19.58007789999101,,,,,,,,,,,,,,,,,,,,,,,,,,,,,,,,sub-067,1.0,random_dot,58.67962625758032,
right,right,accuracy,,,,,0.0,0.0,0.0,0.0,26.0,0.0,52.0,1.0,288.4569829000029,,,,,,,,,288.4431723000016,288.5559454000031,289.35712919999787,289.3406216000003,289.34064529999887,289.35712919999787,289.35712919999787,289.35712919999787,290.69206239999767,left,0.0,20.210084599995756,,,,,,,,,,,,,,,,,,,,,,,,,,,,,,,,sub-067,1.0,random_dot,58.67962625758032,
left,left,accuracy,,,,,0.0,0.0,0.0,0.0,26.0,1.0,53.0,0.0,290.7059370999996,,,,,,,,,290.6933470000004,291.50530810000055,292.3070911000032,292.29009809999843,292.2901364999998,292.3070911000032,292.3070911000032,292.3070911000032,293.1075686999975,left,1.0,19.672512299992377,,,,,,,,,,,,,,,,,,,,,,,,,,,,,,,,sub-067,1.0,random_dot,58.67962625758032,
left,left,accuracy,,,,,0.0,0.0,0.0,0.0,27.0,0.0,54.0,0.0,293.1219497999992,,,,,,,,,293.1088721999986,293.2226034999985,294.02272249999805,294.00617590000184,294.0062007000015,294.02272249999805,294.02272249999805,294.02272249999805,298.42412519999925,left,1.0,23.270446699993045,,,,,,,,,,,,,,,,,,,,,,,,,,,,,,,,sub-067,1.0,random_dot,58.67962625758032,
right,right,accuracy,,,,,0.0,0.0,0.0,0.0,27.0,1.0,55.0,1.0,298.4387308000005,,,,,,,,,298.4251648999998,298.78907710000203,299.5894507999983,299.5724640999979,299.57248360000085,299.5894507999983,299.5894507999983,299.5894507999983,300.35739730000205,right,1.0,19.636109999992183,,,,,,,,,,,,,,,,,,,,,,,,,,,,,,,,sub-067,1.0,random_dot,58.67962625758032,
left,left,accuracy,,,,,0.0,0.0,0.0,0.0,28.0,0.0,56.0,0.0,300.37317639999674,,,,,,,,,300.3586581999989,300.72294890000194,301.5234187000024,301.50651079999807,301.50654439999926,301.5234187000024,301.5234187000024,301.5234187000024,302.37403820000327,left,1.0,19.71659199999704,,,,,,,,,,,,,,,,,,,,,,,,,,,,,,,,sub-067,1.0,random_dot,58.67962625758032,
right,right,accuracy,,,,,0.0,0.0,0.0,0.0,28.0,1.0,57.0,1.0,302.3886053000024,,,,,,,,,302.3755728000033,303.5889448000016,304.38939709999977,304.3736302000034,304.3736540000027,304.38939709999977,304.38939709999977,304.38939709999977,305.2569860000003,right,1.0,19.74293019999459,,,,,,,,,,,,,,,,,,,,,,,,,,,,,,,,sub-067,1.0,random_dot,58.67962625758032,
left,left,accuracy,,,,,0.0,0.0,0.0,0.0,29.0,0.0,58.0,0.0,305.2717535999982,,,,,,,,,305.25825389999954,305.373244399998,306.1736480000036,306.156882700001,306.15690590000304,306.1736480000036,306.1736480000036,306.1736480000036,307.10699719999684,left,1.0,19.79796379999607,,,,,,,,,,,,,,,,,,,,,,,,,,,,,,,,sub-067,1.0,random_dot,58.67962625758032,
right,right,accuracy,,,,,0.0,0.0,0.0,0.0,29.0,1.0,59.0,1.0,307.12147299999924,,,,,,,,,307.10824839999987,307.2217579999997,308.0225038999997,308.0057127999971,308.0057347000038,308.0225038999997,308.0225038999997,308.0225038999997,309.25771410000016,left,0.0,20.11217239999678,,,,,,,,,,,,,,,,,,,,,,,,,,,,,,,,sub-067,1.0,random_dot,58.67962625758032,
,,accuracy,,,,,0.0,0.0,0.0,0.0,,,,,,,,,,,,,,,,,,,,,,,,,,,,,,,,,,,,,,,,,,,,,,,,,,,,,,,,,sub-067,1.0,random_dot,58.67962625758032,
left,left,speed,,,,,0.0,1.0,1.0,1.0,0.0,0.0,0.0,0.0,317.92195640000136,,,,,,,,,317.9143256000025,318.7221573999996,319.5225339000026,319.50644009999814,319.5064607000022,319.5225339000026,319.5225339000026,319.5225339000026,320.2576266000033,right,0.0,19.602135299996007,,,,,,,,,,,,,,,,,,,,309.2590649999984,309.2748691000015,309.2748691000015,317.9071669999976,space,27.502684199993386,,,,,,,sub-067,1.0,random_dot,58.67962625758032,
right,right,speed,,,,,0.0,1.0,1.0,1.0,0.0,1.0,1.0,1.0,320.2722849999991,,,,,,,,,320.258877799999,321.07226900000387,321.8724917,321.8559607999996,321.85598810000374,321.8724917,321.8724917,321.8724917,322.19147050000174,left,0.0,19.196467299996584,,,,,,,,,,,,,,,,,,,,,,,,,,,,,,,,sub-067,1.0,random_dot,58.67962625758032,
left,left,speed,,,,,0.0,1.0,1.0,1.0,1.0,0.0,2.0,0.0,322.2053398999997,,,,,,,,,322.19296020000183,322.30541169999924,323.10615900000266,323.0900251999992,323.09005120000074,323.10615900000266,323.10615900000266,323.10615900000266,323.8568054999996,left,1.0,19.62506929999654,,,,,,,,,,,,,,,,,,,,,,,,,,,,,,,,sub-067,1.0,random_dot,58.67962625758032,
right,right,speed,,,,,0.0,1.0,1.0,1.0,1.0,1.0,3.0,1.0,323.8715777999969,,,,,,,,,323.85776089999854,325.07196739999927,325.87338170000294,325.8568851000018,325.85690780000004,325.87338170000294,325.87338170000294,325.87338170000294,326.47481010000047,left,0.0,19.476620199995523,,,,,,,,,,,,,,,,,,,,,,,,,,,,,,,,sub-067,1.0,random_dot,58.67962625758032,
right,right,speed,,,,,0.0,1.0,1.0,1.0,2.0,0.0,4.0,1.0,326.4886881999992,,,,,,,,,326.476052799997,326.5890289000017,327.3910006000005,327.3734396,327.37345880000066,327.3910006000005,327.3910006000005,327.3910006000005,328.2239363999979,left,0.0,19.70424020000064,,,,,,,,,,,,,,,,,,,,,,,,,,,,,,,,sub-067,1.0,random_dot,58.67962625758032,
left,left,speed,,,,,0.0,1.0,1.0,1.0,2.0,1.0,5.0,0.0,328.2387859000009,,,,,,,,,328.2253419999979,328.5883732000002,329.3885500000033,329.37254250000115,329.37256519999937,329.3885500000033,329.3885500000033,329.3885500000033,330.2071474999975,left,1.0,19.695987099992635,,,,,,,,,,,,,,,,,,,,,,,,,,,,,,,,sub-067,1.0,random_dot,58.67962625758032,
left,left,speed,,,,,0.0,1.0,1.0,1.0,3.0,0.0,6.0,0.0,330.2218420999998,,,,,,,,,330.2087248000025,330.3212965999992,331.1230307000005,331.10654169999907,331.1065608999997,331.1230307000005,331.1230307000005,331.1230307000005,331.74068239999906,left,1.0,19.490327299994533,,,,,,,,,,,,,,,,,,,,,,,,,,,,,,,,sub-067,1.0,random_dot,58.67962625758032,
right,right,speed,,,,,0.0,1.0,1.0,1.0,3.0,1.0,7.0,1.0,331.7554375999971,,,,,,,,,331.7417045999973,332.9556627999991,333.75572629999806,333.7395161000022,333.7395391000028,333.75572629999806,333.75572629999806,333.75572629999806,334.0730767999994,left,0.0,19.17969230000017,,,,,,,,,,,,,,,,,,,,,,,,,,,,,,,,sub-067,1.0,random_dot,58.67962625758032,
right,right,speed,,,,,0.0,1.0,1.0,1.0,4.0,0.0,8.0,1.0,334.0882238999984,,,,,,,,,334.0745164999971,335.2892483999967,336.089896999998,336.0732788000023,336.0733010999975,336.089896999998,336.089896999998,336.089896999998,336.69022940000286,right,1.0,19.463180799997644,,,,,,,,,,,,,,,,,,,,,,,,,,,,,,,,sub-067,1.0,random_dot,58.67962625758032,
left,left,speed,,,,,0.0,1.0,1.0,1.0,4.0,1.0,9.0,0.0,336.70519649999915,,,,,,,,,336.6912913999986,337.90598820000014,338.7224442000006,338.7055621999971,338.7055829000019,338.7224442000006,338.7224442000006,338.7224442000006,339.2741763000013,left,1.0,19.42019869999785,,,,,,,,,,,,,,,,,,,,,,,,,,,,,,,,sub-067,1.0,random_dot,58.67962625758032,
right,right,speed,,,,,0.0,1.0,1.0,1.0,5.0,0.0,10.0,1.0,339.28832610000245,,,,,,,,,339.2751569000029,339.3885134000011,340.18965639999806,340.1725612000009,340.1725845000037,340.18965639999806,340.18965639999806,340.18965639999806,340.98930980000296,right,1.0,19.665986399995745,,,,,,,,,,,,,,,,,,,,,,,,,,,,,,,,sub-067,1.0,random_dot,58.67962625758032,
left,left,speed,,,,,0.0,1.0,1.0,1.0,5.0,1.0,11.0,0.0,341.0042573000028,,,,,,,,,340.99027840000053,341.3547400000025,342.15566129999934,342.13849689999915,342.13852049999696,342.15566129999934,342.15566129999934,342.15566129999934,342.6898966000008,left,1.0,19.408190699999977,,,,,,,,,,,,,,,,,,,,,,,,,,,,,,,,sub-067,1.0,random_dot,58.67962625758032,
left,left,speed,,,,,0.0,1.0,1.0,1.0,6.0,0.0,12.0,0.0,342.7050444999986,,,,,,,,,342.6908876000016,343.054229100002,343.8567409000025,343.83949530000245,343.8395203999971,343.8567409000025,343.8567409000025,343.8567409000025,344.44036990000313,right,0.0,19.45813309999357,,,,,,,,,,,,,,,,,,,,,,,,,,,,,,,,sub-067,1.0,random_dot,58.67962625758032,
right,right,speed,,,,,0.0,1.0,1.0,1.0,6.0,1.0,13.0,1.0,344.45529220000026,,,,,,,,,344.4416633000001,345.2557270000034,346.0556138000029,346.0395964999989,346.0396222999989,346.0556138000029,346.0556138000029,346.0556138000029,346.6563036000007,right,1.0,19.477770599994983,,,,,,,,,,,,,,,,,,,,,,,,,,,,,,,,sub-067,1.0,random_dot,58.67962625758032,
right,right,speed,,,,,0.0,1.0,1.0,1.0,7.0,0.0,14.0,1.0,346.6710088999971,,,,,,,,,346.65759719999915,346.77156809999724,347.5721820000035,347.5551931000009,347.5552161000014,347.5721820000035,347.5721820000035,347.5721820000035,348.3898029999982,left,0.0,19.69067019999784,,,,,,,,,,,,,,,,,,,,,,,,,,,,,,,,sub-067,1.0,random_dot,58.67962625758032,
left,left,speed,,,,,0.0,1.0,1.0,1.0,7.0,1.0,15.0,0.0,348.4046756000025,,,,,,,,,348.3910440999971,349.6058637000024,350.40613499999745,350.38982199999737,350.3898428000029,350.40613499999745,350.40613499999745,350.40613499999745,351.0397301999983,left,1.0,19.501265999999305,,,,,,,,,,,,,,,,,,,,,,,,,,,,,,,,sub-067,1.0,random_dot,58.67962625758032,
right,right,speed,,,,,0.0,1.0,1.0,1.0,8.0,0.0,16.0,1.0,351.0547645999977,,,,,,,,,351.0409602,352.2552750000032,353.0554073000021,353.0385260000039,353.03854890000366,353.0554073000021,353.0554073000021,353.0554073000021,353.6229932999995,right,1.0,19.43868559999828,,,,,,,,,,,,,,,,,,,,,,,,,,,,,,,,sub-067,1.0,random_dot,58.67962625758032,
left,left,speed,,,,,0.0,1.0,1.0,1.0,8.0,1.0,17.0,0.0,353.6379425999985,,,,,,,,,353.6240156999993,354.8208548000039,355.62109169999894,355.6045175000036,355.60454140000365,355.62109169999894,355.62109169999894,355.62109169999894,356.1731021000014,left,1.0,19.428940599995254,,,,,,,,,,,,,,,,,,,,,,,,,,,,,,,,sub-067,1.0,random_dot,58.67962625758032,
left,left,speed,,,,,0.0,1.0,1.0,1.0,9.0,0.0,18.0,0.0,356.18759480000153,,,,,,,,,356.17407190000085,357.3876371000006,358.1888143000033,358.17129320000095,358.1713177999991,358.1888143000033,358.1888143000033,358.1888143000033,358.7064534000019,left,1.0,19.379985799998398,,,,,,,,,,,,,,,,,,,,,,,,,,,,,,,,sub-067,1.0,random_dot,58.67962625758032,
right,right,speed,,,,,0.0,1.0,1.0,1.0,9.0,1.0,19.0,1.0,358.7223490000033,,,,,,,,,358.7077760000029,358.8212360999969,359.6217067000034,359.6050701999993,359.6050889999969,359.6217067000034,359.6217067000034,359.6217067000034,360.42278839999926,left,0.0,19.67708329999732,,,,,,,,,,,,,,,,,,,,,,,,,,,,,,,,sub-067,1.0,random_dot,58.67962625758032,
right,right,speed,,,,,0.0,1.0,1.0,1.0,10.0,0.0,20.0,1.0,360.4376531000016,,,,,,,,,360.42411130000255,360.53839380000136,361.3558714000028,361.3392367999986,361.3392575999969,361.3558714000028,361.3558714000028,361.3558714000028,362.1725510999968,right,1.0,19.68043239999679,,,,,,,,,,,,,,,,,,,,,,,,,,,,,,,,sub-067,1.0,random_dot,58.67962625758032,
left,left,speed,,,,,0.0,1.0,1.0,1.0,10.0,1.0,21.0,0.0,362.1869718000016,,,,,,,,,362.1739869000012,362.5381983999978,363.3385666000031,363.32154789999913,363.3215719,363.3385666000031,363.3385666000031,363.3385666000031,364.024013000002,left,1.0,19.55501599999843,,,,,,,,,,,,,,,,,,,,,,,,,,,,,,,,sub-067,1.0,random_dot,58.67962625758032,
right,right,speed,,,,,0.0,1.0,1.0,1.0,11.0,0.0,22.0,1.0,364.0377880000015,,,,,,,,,364.0250430000015,364.1381509999992,364.9385951000004,364.92117000000144,364.92118910000136,364.9385951000004,364.9385951000004,364.9385951000004,365.7723365999991,right,1.0,19.70148369999515,,,,,,,,,,,,,,,,,,,,,,,,,,,,,,,,sub-067,1.0,random_dot,58.67962625758032,
left,left,speed,,,,,0.0,1.0,1.0,1.0,11.0,1.0,23.0,0.0,365.787874900001,,,,,,,,,365.7733774000008,366.5878284999999,367.3888631000009,367.3713016999973,367.3713296999995,367.3888631000009,367.3888631000009,367.3888631000009,367.93926479999936,left,1.0,19.427342499991937,,,,,,,,,,,,,,,,,,,,,,,,,,,,,,,,sub-067,1.0,random_dot,58.67962625758032,
right,right,speed,,,,,0.0,1.0,1.0,1.0,12.0,0.0,24.0,1.0,367.9539283999984,,,,,,,,,367.9408414999998,368.3038935000004,369.1045241000029,369.0878771999997,369.0878990999991,369.1045241000029,369.1045241000029,369.1045241000029,369.772366899997,right,1.0,19.533224699996936,,,,,,,,,,,,,,,,,,,,,,,,,,,,,,,,sub-067,1.0,random_dot,58.67962625758032,
left,left,speed,,,,,0.0,1.0,1.0,1.0,12.0,1.0,25.0,0.0,369.7886478,,,,,,,,,369.7733257,370.1372198000026,370.9376790000024,370.9249944999974,370.9250220000031,370.9376790000024,370.9376790000024,370.9376790000024,371.4888932000031,right,0.0,19.41691109999374,,,,,,,,,,,,,,,,,,,,,,,,,,,,,,,,sub-067,1.0,random_dot,58.67962625758032,
right,right,speed,,,,,0.0,1.0,1.0,1.0,13.0,0.0,26.0,1.0,371.5037699000022,,,,,,,,,371.4904443999985,371.8539696000007,372.6544300000023,372.63864560000366,372.6386644000013,372.6544300000023,372.6544300000023,372.6544300000023,373.5225629999986,right,1.0,19.741146199994542,,,,,,,,,,,,,,,,,,,,,,,,,,,,,,,,sub-067,1.0,random_dot,58.67962625758032,
left,left,speed,,,,,0.0,1.0,1.0,1.0,13.0,1.0,27.0,0.0,373.5370393999983,,,,,,,,,373.5236908000006,373.6371244000038,374.43849330000376,374.4210967000036,374.4211214000025,374.43849330000376,374.43849330000376,374.43849330000376,375.1390670000037,left,1.0,19.56524289999652,,,,,,,,,,,,,,,,,,,,,,,,,,,,,,,,sub-067,1.0,random_dot,58.67962625758032,
left,left,speed,,,,,0.0,1.0,1.0,1.0,14.0,0.0,28.0,0.0,375.1541789000039,,,,,,,,,375.1400995000004,375.2556087999983,376.0712420999989,376.0547575000018,376.0547997000031,376.0712420999989,376.0712420999989,376.0712420999989,377.2389542000019,right,0.0,20.03599370000302,,,,,,,,,,,,,,,,,,,,,,,,,,,,,,,,sub-067,1.0,random_dot,58.67962625758032,
right,right,speed,,,,,0.0,1.0,1.0,1.0,14.0,1.0,29.0,1.0,377.25362589999713,,,,,,,,,377.2400147000008,378.4546353999976,379.2549594000011,379.2382062999968,379.23823170000105,379.2549594000011,379.2549594000011,379.2549594000011,381.3562168999997,right,1.0,20.971508700000413,,,,,,,,,,,,,,,,,,,,,,,,,,,,,,,,sub-067,1.0,random_dot,58.67962625758032,
left,left,speed,,,,,0.0,1.0,1.0,1.0,15.0,0.0,30.0,0.0,381.3702690999999,,,,,,,,,381.35787240000354,382.1700124999989,382.9722168000008,382.9556602000012,382.95568210000056,382.9722168000008,382.9722168000008,382.9722168000008,383.5721088999999,left,1.0,19.468755499990948,,,,,,,,,,,,,,,,,,,,,,,,,,,,,,,,sub-067,1.0,random_dot,58.67962625758032,
right,right,speed,,,,,0.0,1.0,1.0,1.0,15.0,1.0,31.0,1.0,383.58674410000094,,,,,,,,,383.5730852999986,384.3869250999997,385.1880731999991,385.1703754999981,385.1704006,385.1880731999991,385.1880731999991,385.1880731999991,385.7889145000008,right,1.0,19.46955380000145,,,,,,,,,,,,,,,,,,,,,,,,,,,,,,,,sub-067,1.0,random_dot,58.67962625758032,
right,right,speed,,,,,0.0,1.0,1.0,1.0,16.0,0.0,32.0,1.0,385.80367529999785,,,,,,,,,385.78999060000206,385.9035281999968,386.7047700000039,386.687743800001,386.68776880000223,386.7047700000039,386.7047700000039,386.7047700000039,387.4555524000025,right,1.0,19.61929059999966,,,,,,,,,,,,,,,,,,,,,,,,,,,,,,,,sub-067,1.0,random_dot,58.67962625758032,
left,left,speed,,,,,0.0,1.0,1.0,1.0,16.0,1.0,33.0,0.0,387.4704649999985,,,,,,,,,387.4570042999985,387.5702059000032,388.37077970000246,388.35415649999777,388.3541822999978,388.37077970000246,388.37077970000246,388.37077970000246,389.1393211000032,left,1.0,19.63706539999112,,,,,,,,,,,,,,,,,,,,,,,,,,,,,,,,sub-067,1.0,random_dot,58.67962625758032,
right,right,speed,,,,,0.0,1.0,1.0,1.0,17.0,0.0,34.0,1.0,389.1541625000027,,,,,,,,,389.140419000003,390.3535647000026,391.1546908000018,391.13786229999823,391.137885199998,391.1546908000018,391.1546908000018,391.1546908000018,391.93852470000274,left,0.0,19.652610799996182,,,,,,,,,,,,,,,,,,,,,,,,,,,,,,,,sub-067,1.0,random_dot,58.67962625758032,
left,left,speed,,,,,0.0,1.0,1.0,1.0,17.0,1.0,35.0,0.0,391.9532831000033,,,,,,,,,391.93960559999687,393.1535497000005,393.9539453999969,393.93743019999965,393.9374661000038,393.9539453999969,393.9539453999969,393.9539453999969,394.3884773000027,left,1.0,19.302695200000016,,,,,,,,,,,,,,,,,,,,,,,,,,,,,,,,sub-067,1.0,random_dot,58.67962625758032,
left,left,speed,,,,,0.0,1.0,1.0,1.0,18.0,0.0,36.0,0.0,394.4037989999997,,,,,,,,,394.38958640000055,394.50320210000064,395.3047292999981,395.2878666000033,395.28789439999673,395.3047292999981,395.3047292999981,395.3047292999981,396.4394312000004,left,1.0,20.009101600000577,,,,,,,,,,,,,,,,,,,,,,,,,,,,,,,,sub-067,1.0,random_dot,58.67962625758032,
right,right,speed,,,,,0.0,1.0,1.0,1.0,18.0,1.0,37.0,1.0,396.4540022000001,,,,,,,,,396.4403734000007,396.5537543000028,397.3545299999969,397.3374718999985,397.3374957999986,397.3545299999969,397.3545299999969,397.3545299999969,398.1719491999975,right,1.0,19.688849599995592,,,,,,,,,,,,,,,,,,,,,,,,,,,,,,,,sub-067,1.0,random_dot,58.67962625758032,
left,left,speed,,,,,0.0,1.0,1.0,1.0,19.0,0.0,38.0,0.0,398.1867920000004,,,,,,,,,398.1729099000004,398.9876998999971,399.7877503999989,399.771095600001,399.77112879999913,399.7877503999989,399.7877503999989,399.7877503999989,400.4386595999968,right,0.0,19.51357859999553,,,,,,,,,,,,,,,,,,,,,,,,,,,,,,,,sub-067,1.0,random_dot,58.67962625758032,
right,right,speed,,,,,0.0,1.0,1.0,1.0,19.0,1.0,39.0,1.0,400.45314789999975,,,,,,,,,400.439600800004,401.6532038000005,402.4553125000021,402.438272899999,402.4382932000008,402.4553125000021,402.4553125000021,402.4553125000021,403.15515530000266,right,1.0,19.575229499998382,,,,,,,,,,,,,,,,,,,,,,,,,,,,,,,,sub-067,1.0,random_dot,58.67962625758032,
left,left,speed,,,,,0.0,1.0,1.0,1.0,20.0,0.0,40.0,0.0,403.17023360000167,,,,,,,,,403.15669270000217,403.5197947999986,404.3219392000028,404.3041174000027,404.304137500003,404.3219392000028,404.3219392000028,404.3219392000028,405.0221210000018,left,1.0,19.56235519999609,,,,,,,,,,,,,,,,,,,,,,,,,,,,,,,,sub-067,1.0,random_dot,58.67962625758032,
right,right,speed,,,,,0.0,1.0,1.0,1.0,20.0,1.0,41.0,1.0,405.0371232000034,,,,,,,,,405.0230510999973,405.83654070000193,406.63695339999686,406.6201736000002,406.6202011999994,406.63695339999686,406.63695339999686,406.63695339999686,407.4048353000034,right,1.0,19.64126459999534,,,,,,,,,,,,,,,,,,,,,,,,,,,,,,,,sub-067,1.0,random_dot,58.67962625758032,
left,left,speed,,,,,0.0,1.0,1.0,1.0,21.0,0.0,42.0,0.0,407.41961230000015,,,,,,,,,407.4058998000037,408.62087769999926,409.43687299999874,409.4203972000032,409.4204247000016,409.43687299999874,409.43687299999874,409.43687299999874,410.6216123999984,left,1.0,20.046961799998822,,,,,,,,,,,,,,,,,,,,,,,,,,,,,,,,sub-067,1.0,random_dot,58.67962625758032,
right,right,speed,,,,,0.0,1.0,1.0,1.0,21.0,1.0,43.0,1.0,410.63664950000384,,,,,,,,,410.6225256000034,411.4362361000021,412.2385658999992,412.2211042999989,412.2211268000028,412.2385658999992,412.2385658999992,412.2385658999992,413.0051244999995,right,1.0,19.62983409999288,,,,,,,,,,,,,,,,,,,,,,,,,,,,,,,,sub-067,1.0,random_dot,58.67962625758032,
left,left,speed,,,,,0.0,1.0,1.0,1.0,22.0,0.0,44.0,0.0,413.0207089999967,,,,,,,,,413.00615030000336,414.22070350000286,415.0213685999988,415.0046000000002,415.0046192000009,415.0213685999988,415.0213685999988,415.0213685999988,415.8045626000021,left,1.0,19.654377799997743,,,,,,,,,,,,,,,,,,,,,,,,,,,,,,,,sub-067,1.0,random_dot,58.67962625758032,
right,right,speed,,,,,0.0,1.0,1.0,1.0,22.0,1.0,45.0,1.0,415.8193250999975,,,,,,,,,415.8056120999972,416.60411459999887,417.4032822000008,417.3871893999967,417.3872136999999,417.4032822000008,417.4032822000008,417.4032822000008,418.2558187000032,right,1.0,19.71597149999434,,,,,,,,,,,,,,,,,,,,,,,,,,,,,,,,sub-067,1.0,random_dot,58.67962625758032,
right,right,speed,,,,,0.0,1.0,1.0,1.0,23.0,0.0,46.0,1.0,418.2713227999993,,,,,,,,,418.2572696999996,418.6199399000034,419.4202348000035,419.4035409999997,419.403562200001,419.4202348000035,419.4202348000035,419.4202348000035,420.6052284000034,right,1.0,20.058983899994928,,,,,,,,,,,,,,,,,,,,,,,,,,,,,,,,sub-067,1.0,random_dot,58.67962625758032,
left,left,speed,,,,,0.0,1.0,1.0,1.0,23.0,1.0,47.0,0.0,420.6200183999972,,,,,,,,,420.6063460000005,420.7200421000016,421.5202120000031,421.5033131000018,421.5033364999981,421.5202120000031,421.5202120000031,421.5202120000031,422.3583597999968,left,1.0,19.70316649999586,,,,,,,,,,,,,,,,,,,,,,,,,,,,,,,,sub-067,1.0,random_dot,58.67962625758032,
right,right,speed,,,,,0.0,1.0,1.0,1.0,24.0,0.0,48.0,1.0,422.3701183000012,,,,,,,,,422.35937150000245,423.569155600002,424.3701720000026,424.3532921000005,424.353314400003,424.3701720000026,424.3701720000026,424.3701720000026,425.3052227000008,right,1.0,19.80055379999976,,,,,,,,,,,,,,,,,,,,,,,,,,,,,,,,sub-067,1.0,random_dot,58.67962625758032,
left,left,speed,,,,,0.0,1.0,1.0,1.0,24.0,1.0,49.0,0.0,425.3200989999968,,,,,,,,,425.3061622000023,425.652547800004,426.45343700000376,426.4370041000002,426.43702830000257,426.45343700000376,426.45343700000376,426.45343700000376,427.3713579000032,left,1.0,19.789091499995266,,,,,,,,,,,,,,,,,,,,,,,,,,,,,,,,sub-067,1.0,random_dot,58.67962625758032,
left,left,speed,,,,,0.0,1.0,1.0,1.0,25.0,0.0,50.0,0.0,427.3858507999976,,,,,,,,,427.37265019999904,428.1858528000012,428.9874740000014,428.9708679000032,428.9708873999989,428.9874740000014,428.9874740000014,428.9874740000014,429.8211901000032,left,1.0,19.710432199994106,,,,,,,,,,,,,,,,,,,,,,,,,,,,,,,,sub-067,1.0,random_dot,58.67962625758032,
right,right,speed,,,,,0.0,1.0,1.0,1.0,25.0,1.0,51.0,1.0,429.8357517999975,,,,,,,,,429.8224553000037,430.6363574999996,431.4366902000038,431.4198582000026,431.4198946999968,431.4366902000038,431.4366902000038,431.4366902000038,432.137885600001,right,1.0,19.568338099998076,,,,,,,,,,,,,,,,,,,,,,,,,,,,,,,,sub-067,1.0,random_dot,58.67962625758032,
left,left,speed,,,,,0.0,1.0,1.0,1.0,26.0,0.0,52.0,0.0,432.1522154999984,,,,,,,,,432.13952009999775,433.3362198000032,434.13673469999776,434.11962330000097,434.1196487999987,434.13673469999776,434.13673469999776,434.13673469999776,434.7719653000022,right,0.0,19.49781439999788,,,,,,,,,,,,,,,,,,,,,,,,,,,,,,,,sub-067,1.0,random_dot,58.67962625758032,
right,right,speed,,,,,0.0,1.0,1.0,1.0,26.0,1.0,53.0,1.0,434.7867257000034,,,,,,,,,434.772936100002,435.9855763000014,436.7877997999967,436.7715775000033,436.7716014999969,436.7877997999967,436.7877997999967,436.7877997999967,437.5042854999992,right,1.0,19.59354449999228,,,,,,,,,,,,,,,,,,,,,,,,,,,,,,,,sub-067,1.0,random_dot,58.67962625758032,
right,right,speed,,,,,0.0,1.0,1.0,1.0,27.0,0.0,54.0,1.0,437.519189300001,,,,,,,,,437.5053203999996,437.869165600001,438.66962030000286,438.65312809999887,438.65315310000005,438.66962030000286,438.66962030000286,438.66962030000286,440.1045200000008,left,0.0,20.30165080000006,,,,,,,,,,,,,,,,,,,,,,,,,,,,,,,,sub-067,1.0,random_dot,58.67962625758032,
left,left,speed,,,,,0.0,1.0,1.0,1.0,27.0,1.0,55.0,0.0,440.1194849000021,,,,,,,,,440.1059832000028,441.3194413000019,442.1198523999992,442.1029541000025,442.1029811999979,442.1198523999992,442.1198523999992,442.1198523999992,442.67111080000177,right,0.0,19.425364900002023,,,,,,,,,,,,,,,,,,,,,,,,,,,,,,,,sub-067,1.0,random_dot,58.67962625758032,
right,right,speed,,,,,0.0,1.0,1.0,1.0,28.0,0.0,56.0,1.0,442.68557639999926,,,,,,,,,442.672384700003,443.0366311000034,443.8363090999992,443.8197156000024,443.81973629999993,443.8363090999992,443.8363090999992,443.8363090999992,444.5050785999993,right,1.0,19.53649429999496,,,,,,,,,,,,,,,,,,,,,,,,,,,,,,,,sub-067,1.0,random_dot,58.67962625758032,
left,left,speed,,,,,0.0,1.0,1.0,1.0,28.0,1.0,57.0,0.0,444.5196359000038,,,,,,,,,444.5063212000023,444.870405200003,445.686397700003,445.6697161999982,445.66974299999856,445.686397700003,445.686397700003,445.686397700003,446.355069600002,left,1.0,19.53599209999811,,,,,,,,,,,,,,,,,,,,,,,,,,,,,,,,sub-067,1.0,random_dot,58.67962625758032,
right,right,speed,,,,,0.0,1.0,1.0,1.0,29.0,0.0,58.0,1.0,446.3695866999988,,,,,,,,,446.3560982999989,447.1695888000031,447.9696081000002,447.9529047000033,447.9529360000015,447.9696081000002,447.9696081000002,447.9696081000002,448.3387165000022,left,0.0,19.24552499999845,,,,,,,,,,,,,,,,,,,,,,,,,,,,,,,,sub-067,1.0,random_dot,58.67962625758032,
left,left,speed,,,,,0.0,1.0,1.0,1.0,29.0,1.0,59.0,0.0,448.3530294000011,,,,,,,,,448.33967239999765,449.1526384000026,449.9529987999995,449.9363201000015,449.9363389999999,449.9529987999995,449.9529987999995,449.9529987999995,450.25358940000297,right,0.0,19.16750609999872,,,,,,,,,,,,,,,,,,,,,,,,,,,,,,,,sub-067,1.0,random_dot,58.67962625758032,
,,speed,,,,,0.0,1.0,1.0,1.0,,,,,,,,,,,,,,,,,,,,,,,,,,,,,,,,,,,,,,,,,,,,,,,,,,,,,,,,,sub-067,1.0,random_dot,58.67962625758032,
,,,,,,,,,,,,,,,,,,,,,,,,,,,,,,,,,,,,,,,,,,,,,,,,,,,,,,,,,,,,,,,450.2546969000032,450.2687627999985,455.2713758000027,455.25291039999865,sub-067,,,,
