direction,corrAns,thisN,thisTrialN,thisRepN,respDots.keys,respDots.corr,respDots.rt,respDots.duration,randomInstr,respRandomInstr.keys,respRandomInstr.rt,respRandomInstr.duration,practice_trials.thisRepN,practice_trials.thisTrialN,practice_trials.thisN,practice_trials.thisIndex,instr_trials.thisRepN,instr_trials.thisTrialN,instr_trials.thisN,instr_trials.thisIndex,test_trials.thisRepN,test_trials.thisTrialN,test_trials.thisN,test_trials.thisIndex,thisRow.t,notes,general_instruction.started,textGeneralInstr.started,respGeneralInstr.started,general_instruction.stopped,respGeneralInstr.keys,respGeneralInstr.rt,respGeneralInstr.duration,ITI.started,fixcross.started,fixcross.stopped,ITI.stopped,dots.started,backgroundDots.started,stimulusDots.started,respDots.started,dots.stopped,practice_trials.respDots.keys,practice_trials.respDots.corr,practice_trials.respDots.rt,practice_trials.respDots.duration,feedback.started,textFeedback.started,feedback.stopped,textFeedback.stopped,info.started,textInfo.started,keyRespInfo.started,info.stopped,keyRespInfo.keys,keyRespInfo.rt,keyRespInfo.duration,test_instruction.started,textTestInstr.started,respTestInstr.started,test_instruction.stopped,respTestInstr.keys,respTestInstr.rt,respTestInstr.duration,random_instruction.started,textRandomInstr.started,respRandomInstr.started,random_instruction.stopped,instr_trials.respRandomInstr.keys,instr_trials.respRandomInstr.rt,instr_trials.respRandomInstr.duration,test_trials.respDots.keys,test_trials.respDots.corr,test_trials.respDots.rt,test_trials.respDots.duration,goodbye.started,textGoodbye.started,textGoodbye.stopped,goodbye.stopped,participant,session,expName,frameRate,Unnamed: 87
,,,,,,,,,,,,,,,,,,,,,,,,,,,0.0086065420000522,0.0168528330004846,0.0168528330004846,67.72200408299977,space,67.66751354100052,,,,,,,,,,,,,,,,,,,,,,,,,,,,,,,,,,,,,,,,,,,,,,,,sub-065,1,random_dot,,
right,right,0.0,0.0,0.0,right,1.0,1.6261514159996295,,,,,,0.0,0.0,0.0,1.0,,,,,,,,,67.76319933300056,,,,,,,,,67.74458887499986,67.82442895799977,68.75019604200043,68.61393058300018,68.6145491670004,68.75019604200043,68.75019604200043,68.75019604200043,70.38016433299981,right,1.0,1.6261514159996295,,70.38760441700015,70.47385212500012,70.88591545800045,,,,,,,,,,,,,,,,,,,,,,,,,,,,,,,sub-065,1,random_dot,,
left,left,1.0,1.0,0.0,right,0.0,1.0326715419996615,,,,,,0.0,1.0,1.0,0.0,,,,,,,,,70.89658612499989,,,,,,,,,70.8863636670003,70.97019145800004,71.77211837499999,71.76404979200015,71.7646159169999,71.77211837499999,71.77211837499999,71.77211837499999,72.81429370800015,right,0.0,1.0326715419996615,,72.81981737499973,72.83742425000037,73.31869945800008,,,,,,,,,,,,,,,,,,,,,,,,,,,,,,,sub-065,1,random_dot,,
right,right,2.0,0.0,1.0,right,1.0,1.4992202090006683,,,,,,1.0,0.0,2.0,1.0,,,,,,,,,73.3298566250005,,,,,,,,,73.31913737500054,74.51314612500028,75.30576900000051,75.29760466700009,75.29817370799992,75.30576900000051,75.30576900000051,75.30576900000051,76.81311554200056,right,1.0,1.4992202090006683,,76.8156632500004,76.82289958300044,77.31338374999996,,,,,,,,,,,,,,,,,,,,,,,,,,,,,,,sub-065,1,random_dot,,
left,left,3.0,1.0,1.0,left,1.0,0.6876003340003081,,,,,,1.0,1.0,3.0,0.0,,,,,,,,,77.31874312499986,,,,,,,,,77.31379104200005,77.65257412499977,78.44502625000041,78.43645520800055,78.43688266699974,78.44502625000041,78.44502625000041,78.44502625000041,79.13519179200011,left,1.0,0.6876003340003081,,79.13528445800057,79.14638137499969,79.63081929200052,79.63643958300054,,,,,,,,,,,,,,,,,,,,,,,,,,,,,,sub-065,1,random_dot,,
left,left,4.0,0.0,2.0,left,1.0,0.8589433749993987,,,,,,2.0,0.0,4.0,0.0,,,,,,,,,79.63643958300054,,,,,,,,,79.63126112500049,79.72990012500031,80.52227091700024,80.51400795800055,80.51445408299969,80.52227091700024,80.52227091700024,80.52227091700024,81.38827216699974,left,1.0,0.8589433749993987,,81.38837500000045,81.39543924999998,81.88049000000046,81.88600462500017,,,,,,,,,,,,,,,,,,,,,,,,,,,,,,sub-065,1,random_dot,,
right,right,5.0,1.0,2.0,right,1.0,0.9384548749994792,,,,,,2.0,1.0,5.0,1.0,,,,,,,,,81.88600462500017,,,,,,,,,81.88090300000022,81.98552220800048,82.77834966699993,82.76994537500013,82.77036849999968,82.77834966699993,82.77834966699993,82.77834966699993,83.72123612500036,right,1.0,0.9384548749994792,,83.72133500000018,83.72812495800008,84.21385962499971,84.21917699999995,,,,,,,,,,,,,,,,,,,,,,,,,,,,,,sub-065,1,random_dot,,
left,left,6.0,0.0,3.0,right,0.0,1.056389291999949,,,,,,3.0,0.0,6.0,0.0,,,,,,,,,84.21917699999995,,,,,,,,,84.21422145799988,85.4192857500002,86.21191083299982,86.20373087500047,86.20417904199985,86.21191083299982,86.21191083299982,86.21191083299982,87.27130649999981,right,0.0,1.056389291999949,,87.27406770800008,87.28151620800054,87.77004029199998,87.77985325000009,,,,,,,,,,,,,,,,,,,,,,,,,,,,,,sub-065,1,random_dot,,
right,right,7.0,1.0,3.0,left,0.0,0.8309112920005646,,,,,,3.0,1.0,7.0,1.0,,,,,,,,,87.77985325000009,,,,,,,,,87.77039216699995,88.569099542,89.36164883299989,89.35318095799994,89.35359666699969,89.36164883299989,89.36164883299989,89.36164883299989,90.19707474999996,left,0.0,0.8309112920005646,,90.19717545799996,90.2039142499998,90.69746991700048,90.7031042079998,,,,,,,,,,,,,,,,,,,,,,,,,,,,,,sub-065,1,random_dot,,
right,right,8.0,0.0,4.0,right,1.0,0.7019431250000707,,,,,,4.0,0.0,8.0,1.0,,,,,,,,,90.7031042079998,,,,,,,,,90.69791454200003,91.48596108299988,92.27835125,92.2697607500004,92.27017016700027,92.27835125,92.27835125,92.27835125,92.9860472500004,right,1.0,0.7019431250000707,,92.9885873330004,92.99573229199996,93.48055258299974,93.4856832080004,,,,,,,,,,,,,,,,,,,,,,,,,,,,,,sub-065,1,random_dot,,
left,left,9.0,1.0,4.0,right,0.0,1.012329375000263,,,,,,4.0,1.0,9.0,0.0,,,,,,,,,93.4856832080004,,,,,,,,,93.48091495800054,93.58623325000008,94.3888582919999,94.38073283300037,94.3812810420004,94.3888582919999,94.3888582919999,94.3888582919999,95.40429091700024,right,0.0,1.012329375000263,,95.40677545800008,95.4144038330005,95.90322066699991,95.91314879200036,,,,,,,,,,,,,,,,,,,,,,,,,,,,,,sub-065,1,random_dot,,
right,right,10.0,0.0,5.0,left,0.0,0.999180291999437,,,,,,5.0,0.0,10.0,1.0,,,,,,,,,95.91314879200036,,,,,,,,,95.90357095800027,96.00313875000028,96.79501900000014,96.78673295800036,96.78716529200028,96.79501900000014,96.79501900000014,96.79501900000014,97.79821341699972,left,0.0,0.999180291999437,,97.79833716699976,97.80578004200017,98.29754125,98.30341558300006,,,,,,,,,,,,,,,,,,,,,,,,,,,,,,sub-065,1,random_dot,,
left,left,11.0,1.0,5.0,right,0.0,0.6256814160005888,,,,,,5.0,1.0,11.0,0.0,,,,,,,,,98.30341558300006,,,,,,,,,98.29800150000028,99.4966737499999,100.28796950000014,100.28042720800022,100.28086016700036,100.28796950000014,100.28796950000014,100.28796950000014,100.9235673330004,right,0.0,0.6256814160005888,,100.92366629200023,100.92832954200004,101.4138683330002,101.41940437500034,,,,,,,,,,,,,,,,,,,,,,,,,,,,,,sub-065,1,random_dot,,
left,left,12.0,0.0,6.0,right,0.0,0.6743684590001067,,,,,,6.0,0.0,12.0,0.0,,,,,,,,,101.41940437500034,,,,,,,,,101.414222333,101.76925341700009,102.56164795800032,102.55238375000044,102.55281145800018,102.56164795800032,102.56164795800032,102.56164795800032,103.24823225,right,0.0,0.6743684590001067,,103.2483565829998,103.25623087500026,103.74756725000044,103.75342804200044,,,,,,,,,,,,,,,,,,,,,,,,,,,,,,sub-065,1,random_dot,,
right,right,13.0,1.0,6.0,left,0.0,0.6344054170003801,,,,,,6.0,1.0,13.0,1.0,,,,,,,,,103.75342804200044,,,,,,,,,103.7480161250005,104.5464412500005,105.33810816700044,105.33061045799968,105.3310525830002,105.33810816700044,105.33810816700044,105.33810816700044,105.98133820800012,left,0.0,0.6344054170003801,,105.98145695800032,105.98845908299973,106.4809649580002,106.48681099999976,,,,,,,,,,,,,,,,,,,,,,,,,,,,,,sub-065,1,random_dot,,
right,right,14.0,0.0,7.0,right,1.0,0.5916280829997049,,,,,,7.0,0.0,14.0,1.0,,,,,,,,,106.48681099999976,,,,,,,,,106.48143758300012,106.82990908300052,107.62141587499993,107.61384666699996,107.61428187500042,107.62141587499993,107.62141587499993,107.62141587499993,108.21519050000006,right,1.0,0.5916280829997049,,108.21830599999976,108.2255423329998,108.71388387499974,108.7184149579998,,,,,,,,,,,,,,,,,,,,,,,,,,,,,,sub-065,1,random_dot,,
left,left,15.0,1.0,7.0,left,1.0,1.0792517079999016,,,,,,7.0,1.0,15.0,0.0,,,,,,,,,108.7184149579998,,,,,,,,,108.71418558300049,109.9132693749998,110.7052418330004,110.69732058299996,110.69785941700049,110.7052418330004,110.7052418330004,110.7052418330004,111.78615679199991,left,1.0,1.0792517079999016,,111.78625479200036,111.79506920800031,112.28083074999996,112.28640845800057,,,,,,,,,,,,,,,,,,,,,,,,,,,,,,sub-065,1,random_dot,,
right,right,16.0,0.0,8.0,left,0.0,0.6990563750005094,,,,,,8.0,0.0,16.0,1.0,,,,,,,,,112.28640845800057,,,,,,,,,112.28129304200048,112.629861292,113.4223296250002,113.41400995799997,113.41456520800055,113.4223296250002,113.4223296250002,113.4223296250002,114.13015900000028,left,0.0,0.6990563750005094,,114.13263912500042,114.1397011250001,114.63070870800038,114.63635387500015,,,,,,,,,,,,,,,,,,,,,,,,,,,,,,sub-065,1,random_dot,,
left,left,17.0,1.0,8.0,right,0.0,0.8014106670007095,,,,,,8.0,1.0,17.0,0.0,,,,,,,,,114.63635387500015,,,,,,,,,114.6311637079998,115.41993979200016,116.2115776669998,116.20298716700016,116.2034181250001,116.2115776669998,116.2115776669998,116.2115776669998,117.0145578749998,right,0.0,0.8014106670007095,,117.01467254199996,117.01927983299991,117.50297354200028,117.5131499580002,,,,,,,,,,,,,,,,,,,,,,,,,,,,,,sub-065,1,random_dot,,
left,left,18.0,0.0,9.0,left,1.0,0.7844049579998682,,,,,,9.0,0.0,18.0,0.0,,,,,,,,,117.5131499580002,,,,,,,,,117.50331170800018,117.61307729200053,118.40546079199976,118.39738258299984,118.39794595800048,118.40546079199976,118.40546079199976,118.40546079199976,119.1973471250003,left,1.0,0.7844049579998682,,119.19996454200007,119.20649912499994,119.69732062500044,119.70293404200038,,,,,,,,,,,,,,,,,,,,,,,,,,,,,,sub-065,1,random_dot,,
right,right,19.0,1.0,9.0,left,0.0,0.7921301249998578,,,,,,9.0,1.0,19.0,1.0,,,,,,,,,119.70293404200038,,,,,,,,,119.6977890420003,120.48677341700022,121.2881704170004,121.28035929199996,121.2807840000005,121.2881704170004,121.2881704170004,121.2881704170004,122.09072654200008,left,0.0,0.7921301249998578,,122.09349966700027,122.09860570799992,122.58590037500016,122.59530362500028,,,,,,,,,,,,,,,,,,,,,,,,,,,,,,sub-065,1,random_dot,,
,,,,,,,,,,,,,,,,,,,,,,,,,,,,,,,,,,,,,,,,,,,,,,,,,,,122.58603183300056,122.59530362500028,122.59530362500028,126.2659817499998,space,3.66801091599973,,,,,,,,,,,,,,,,,,,,,,,,sub-065,1,random_dot,,
,,,,,,,,,,,,,,,,,,,,,,,,,,,,,,,,,,,,,,,,,,,,,,,,,,,,,,,,,,126.26611579200016,126.27894654200009,126.27894654200009,132.4877162920002,space,6.20304458299961,,,,,,,,,,,,,,,,,sub-065,1,random_dot,,
right,right,0.0,0.0,0.0,right,1.0,0.6935684999998557,,accuracy,space,3.741642291000062,,,,,,0.0,0.0,0.0,0.0,0.0,0.0,0.0,1.0,136.2829847920002,,,,,,,,,136.27613608299998,137.46298966700033,138.25471962499978,138.24707933300033,138.24752004200036,138.25471962499978,138.25471962499978,138.25471962499978,138.95320020800045,,,,,,,,,,,,,,,,,,,,,,,132.50879762499972,132.51672770799996,132.51672770799996,136.26560620800046,space,3.741642291000062,,right,1.0,0.6935684999998557,,,,,,sub-065,1,random_dot,,
left,left,1.0,1.0,0.0,right,0.0,0.9835950419992514,,accuracy,space,3.741642291000062,,,,,,0.0,0.0,0.0,0.0,0.0,1.0,1.0,0.0,138.9620164170001,,,,,,,,,138.95354595800018,140.1532966249997,140.94539137500033,140.9367944579999,140.93723254199995,140.94539137500033,140.94539137500033,140.94539137500033,141.9312038750004,,,,,,,,,,,,,,,,,,,,,,,,,,,,,,right,0.0,0.9835950419992514,,,,,,sub-065,1,random_dot,,
right,right,2.0,0.0,1.0,left,0.0,0.5996472910001103,,accuracy,space,3.741642291000062,,,,,,0.0,0.0,0.0,0.0,1.0,0.0,2.0,1.0,141.9358823749999,,,,,,,,,141.93159229200046,142.72977333299968,143.52236325000013,143.51382662500055,143.5143642920002,143.52236325000013,143.52236325000013,143.52236325000013,144.13105137500042,,,,,,,,,,,,,,,,,,,,,,,,,,,,,,left,0.0,0.5996472910001103,,,,,,sub-065,1,random_dot,,
left,left,3.0,1.0,1.0,right,0.0,1.441053374999683,,accuracy,space,3.741642291000062,,,,,,0.0,0.0,0.0,0.0,1.0,1.0,3.0,0.0,144.13771474999976,,,,,,,,,144.1313619170005,145.32981595799993,146.12197724999987,146.11386562500047,146.11440416700043,146.12197724999987,146.12197724999987,146.12197724999987,147.56467387500015,,,,,,,,,,,,,,,,,,,,,,,,,,,,,,right,0.0,1.441053374999683,,,,,,sub-065,1,random_dot,,
left,left,4.0,0.0,2.0,left,1.0,1.1249282500002664,,accuracy,space,3.741642291000062,,,,,,0.0,0.0,0.0,0.0,2.0,0.0,4.0,0.0,147.56934383299995,,,,,,,,,147.56500716699975,148.36311404200023,149.15486558300017,149.14722012499988,149.14777008300007,149.15486558300017,149.15486558300017,149.15486558300017,150.28188887499982,,,,,,,,,,,,,,,,,,,,,,,,,,,,,,left,1.0,1.1249282500002664,,,,,,sub-065,1,random_dot,,
right,right,5.0,1.0,2.0,left,0.0,1.16936829199949,,accuracy,space,3.741642291000062,,,,,,0.0,0.0,0.0,0.0,2.0,1.0,5.0,1.0,150.28897574999974,,,,,,,,,150.28242158300054,151.07971787499991,151.87141950000023,151.86358775000008,151.86404729199967,151.87141950000023,151.87141950000023,151.87141950000023,153.04772629200033,,,,,,,,,,,,,,,,,,,,,,,,,,,,,,left,0.0,1.16936829199949,,,,,,sub-065,1,random_dot,,
left,left,6.0,0.0,3.0,left,1.0,0.6755004999995435,,accuracy,space,3.741642291000062,,,,,,0.0,0.0,0.0,0.0,3.0,0.0,6.0,0.0,153.0548543750001,,,,,,,,,153.04814675000034,153.84631337500014,154.63783066700034,154.6304108330005,154.6308363750004,154.63783066700034,154.63783066700034,154.63783066700034,155.3209132080001,,,,,,,,,,,,,,,,,,,,,,,,,,,,,,left,1.0,0.6755004999995435,,,,,,sub-065,1,random_dot,,
right,right,7.0,1.0,3.0,right,1.0,0.7057922089998101,,accuracy,space,3.741642291000062,,,,,,0.0,0.0,0.0,0.0,3.0,1.0,7.0,1.0,155.32828299999983,,,,,,,,,155.32123870800024,155.6689072500003,156.46150787500028,156.45225279199985,156.45266704200003,156.46150787500028,156.46150787500028,156.46150787500028,157.17093399999976,,,,,,,,,,,,,,,,,,,,,,,,,,,,,,right,1.0,0.7057922089998101,,,,,,sub-065,1,random_dot,,
right,right,8.0,0.0,4.0,left,0.0,3.152927374999308,,accuracy,space,3.741642291000062,,,,,,0.0,0.0,0.0,0.0,4.0,0.0,8.0,1.0,157.1782722500002,,,,,,,,,157.1713046670002,157.26861779200044,158.06168524999975,158.05244683300043,158.05286241700014,158.06168524999975,158.06168524999975,158.06168524999975,161.22134779200042,,,,,,,,,,,,,,,,,,,,,,,,,,,,,,left,0.0,3.152927374999308,,,,,,sub-065,1,random_dot,,
left,left,9.0,1.0,4.0,right,0.0,1.3683886660001008,,accuracy,space,3.741642291000062,,,,,,0.0,0.0,0.0,0.0,4.0,1.0,9.0,0.0,161.2285195000004,,,,,,,,,161.22168558300018,162.01906679200056,162.81150629200056,162.80305354200027,162.80348445799973,162.81150629200056,162.81150629200056,162.81150629200056,164.18224058299984,,,,,,,,,,,,,,,,,,,,,,,,,,,,,,right,0.0,1.3683886660001008,,,,,,sub-065,1,random_dot,,
right,right,10.0,0.0,5.0,right,1.0,1.8265837500002815,,accuracy,space,3.741642291000062,,,,,,0.0,0.0,0.0,0.0,5.0,0.0,10.0,1.0,164.1894899580002,,,,,,,,,164.1828162920001,164.27969162499994,165.07105062499977,165.06361354199998,165.06403608300025,165.07105062499977,165.07105062499977,165.07105062499977,166.90454962500007,,,,,,,,,,,,,,,,,,,,,,,,,,,,,,right,1.0,1.8265837500002815,,,,,,sub-065,1,random_dot,,
left,left,11.0,1.0,5.0,left,1.0,1.96910783399926,,accuracy,space,3.741642291000062,,,,,,0.0,0.0,0.0,0.0,5.0,1.0,11.0,0.0,166.91220599999997,,,,,,,,,166.90499208300025,167.00279008300004,167.7948018750003,167.78623129199968,167.78664604200003,167.7948018750003,167.7948018750003,167.7948018750003,169.77129858300032,,,,,,,,,,,,,,,,,,,,,,,,,,,,,,left,1.0,1.96910783399926,,,,,,sub-065,1,random_dot,,
right,right,12.0,0.0,6.0,right,1.0,1.6368355829999928,,accuracy,space,3.741642291000062,,,,,,0.0,0.0,0.0,0.0,6.0,0.0,12.0,1.0,169.77833141700012,,,,,,,,,169.7716197919999,170.96947416700004,171.76144250000016,171.75318525000057,171.75359929200022,171.76144250000016,171.76144250000016,171.76144250000016,173.40421358300046,,,,,,,,,,,,,,,,,,,,,,,,,,,,,,right,1.0,1.6368355829999928,,,,,,sub-065,1,random_dot,,
left,left,13.0,1.0,6.0,left,1.0,1.5524596249997558,,accuracy,space,3.741642291000062,,,,,,0.0,0.0,0.0,0.0,6.0,1.0,13.0,0.0,173.41110449999996,,,,,,,,,173.40454800000043,173.50173962500048,174.29478216700045,174.2861347500002,174.28657379200013,174.29478216700045,174.29478216700045,174.29478216700045,175.854650708,,,,,,,,,,,,,,,,,,,,,,,,,,,,,,left,1.0,1.5524596249997558,,,,,,sub-065,1,random_dot,,
left,left,14.0,0.0,7.0,right,0.0,0.6284374169999865,,accuracy,space,3.741642291000062,,,,,,0.0,0.0,0.0,0.0,7.0,0.0,14.0,0.0,175.86188920800032,,,,,,,,,175.8550584579998,177.05271150000044,177.84474591700018,177.8359402920005,177.83636566699988,177.84474591700018,177.84474591700018,177.84474591700018,178.48105929200028,,,,,,,,,,,,,,,,,,,,,,,,,,,,,,right,0.0,0.6284374169999865,,,,,,sub-065,1,random_dot,,
right,right,15.0,1.0,7.0,left,0.0,0.7343701250001686,,accuracy,space,3.741642291000062,,,,,,0.0,0.0,0.0,0.0,7.0,1.0,15.0,1.0,178.48790458300027,,,,,,,,,178.48146970800008,178.82969145800053,179.62180933299987,179.6136822919998,179.614209458,179.62180933299987,179.62180933299987,179.62180933299987,180.36422112499983,,,,,,,,,,,,,,,,,,,,,,,,,,,,,,left,0.0,0.7343701250001686,,,,,,sub-065,1,random_dot,,
left,left,16.0,0.0,8.0,right,0.0,0.795953582999573,,accuracy,space,3.741642291000062,,,,,,0.0,0.0,0.0,0.0,8.0,0.0,16.0,0.0,180.3709425420002,,,,,,,,,180.36453766700012,181.16299108299967,181.95448275000035,181.94689124999968,181.94733729200016,181.95448275000035,181.95448275000035,181.95448275000035,182.7541700829997,,,,,,,,,,,,,,,,,,,,,,,,,,,,,,right,0.0,0.795953582999573,,,,,,sub-065,1,random_dot,,
right,right,17.0,1.0,8.0,left,0.0,0.977173249999396,,accuracy,space,3.741642291000062,,,,,,0.0,0.0,0.0,0.0,8.0,1.0,17.0,1.0,182.7614614169997,,,,,,,,,182.75449379200015,183.5517751670004,184.344793708,184.33616083299967,184.3365874170004,184.344793708,184.344793708,184.344793708,185.33001429199976,,,,,,,,,,,,,,,,,,,,,,,,,,,,,,left,0.0,0.977173249999396,,,,,,sub-065,1,random_dot,,
left,left,18.0,0.0,9.0,left,1.0,1.3631067919995985,,accuracy,space,3.741642291000062,,,,,,0.0,0.0,0.0,0.0,9.0,0.0,18.0,0.0,185.3368340420002,,,,,,,,,185.33035370800008,185.670250958,186.4710182079998,186.4636166250002,186.4640645420004,186.4710182079998,186.4710182079998,186.4710182079998,187.8363865829997,,,,,,,,,,,,,,,,,,,,,,,,,,,,,,left,1.0,1.3631067919995985,,,,,,sub-065,1,random_dot,,
right,right,19.0,1.0,9.0,right,1.0,1.4515790830000697,,accuracy,space,3.741642291000062,,,,,,0.0,0.0,0.0,0.0,9.0,1.0,19.0,1.0,187.84627029200053,,,,,,,,,187.83676837500025,188.63619387500057,189.42801179199975,189.4196442499997,189.42006270799996,189.42801179199975,189.42801179199975,189.42801179199975,190.88168745799976,,,,,,,,,,,,,,,,,,,,,,,,,,,,,,right,1.0,1.4515790830000697,,,,,,sub-065,1,random_dot,,
right,right,20.0,0.0,10.0,left,0.0,3.3887269169999854,,accuracy,space,3.741642291000062,,,,,,0.0,0.0,0.0,0.0,10.0,0.0,20.0,1.0,190.8887964579999,,,,,,,,,190.88215437500003,192.0797287080004,192.87192579200016,192.863783625,192.8643283749998,192.87192579200016,192.87192579200016,192.87192579200016,196.26458125000045,,,,,,,,,,,,,,,,,,,,,,,,,,,,,,left,0.0,3.3887269169999854,,,,,,sub-065,1,random_dot,,
left,left,21.0,1.0,10.0,right,0.0,0.7030842919994029,,accuracy,space,3.741642291000062,,,,,,0.0,0.0,0.0,0.0,10.0,1.0,21.0,0.0,196.27182112500032,,,,,,,,,196.26499950000016,196.3627790420005,197.15491550000024,197.14700450000052,197.14746424999976,197.15491550000024,197.15491550000024,197.15491550000024,197.8646087500001,,,,,,,,,,,,,,,,,,,,,,,,,,,,,,right,0.0,0.7030842919994029,,,,,,sub-065,1,random_dot,,
right,right,22.0,0.0,11.0,left,0.0,1.0182809580001049,,accuracy,space,3.741642291000062,,,,,,0.0,0.0,0.0,0.0,11.0,0.0,22.0,1.0,197.87154562500015,,,,,,,,,197.865063667,199.06295599999976,199.8549056250004,199.8470459580003,199.84759141700036,199.8549056250004,199.8549056250004,199.8549056250004,200.880727625,,,,,,,,,,,,,,,,,,,,,,,,,,,,,,left,0.0,1.0182809580001049,,,,,,sub-065,1,random_dot,,
left,left,23.0,1.0,11.0,left,1.0,0.8904830829997081,,accuracy,space,3.741642291000062,,,,,,0.0,0.0,0.0,0.0,11.0,1.0,23.0,0.0,200.88715995799976,,,,,,,,,200.8810378750004,201.22973291700052,202.0214500419997,202.01368837500013,202.0141281670003,202.0214500419997,202.0214500419997,202.0214500419997,202.91436816700025,,,,,,,,,,,,,,,,,,,,,,,,,,,,,,left,1.0,0.8904830829997081,,,,,,sub-065,1,random_dot,,
left,left,24.0,0.0,12.0,right,0.0,1.566269208000449,,accuracy,space,3.741642291000062,,,,,,0.0,0.0,0.0,0.0,12.0,0.0,24.0,0.0,202.9212157080001,,,,,,,,,202.91472274999975,204.11290208300036,204.9046155830001,204.89692474999995,204.89745695800048,204.9046155830001,204.9046155830001,204.9046155830001,206.48042287499996,,,,,,,,,,,,,,,,,,,,,,,,,,,,,,right,0.0,1.566269208000449,,,,,,sub-065,1,random_dot,,
right,right,25.0,1.0,12.0,right,1.0,0.6472388339998361,,accuracy,space,3.741642291000062,,,,,,0.0,0.0,0.0,0.0,12.0,1.0,25.0,1.0,206.48725100000047,,,,,,,,,206.48075675000015,207.6694480420001,208.46131720799983,208.453052375,208.45346733299996,208.46131720799983,208.46131720799983,208.46131720799983,209.11390608300007,,,,,,,,,,,,,,,,,,,,,,,,,,,,,,right,1.0,0.6472388339998361,,,,,,sub-065,1,random_dot,,
left,left,26.0,0.0,13.0,left,1.0,1.6051857909997125,,accuracy,space,3.741642291000062,,,,,,0.0,0.0,0.0,0.0,13.0,0.0,26.0,0.0,209.1205628750004,,,,,,,,,209.114220208,209.45325366700035,210.2544800000005,210.24681583300023,210.2472564580003,210.2544800000005,210.2544800000005,210.2544800000005,211.8636275420004,,,,,,,,,,,,,,,,,,,,,,,,,,,,,,left,1.0,1.6051857909997125,,,,,,sub-065,1,random_dot,,
right,right,27.0,1.0,13.0,left,0.0,1.3932323330000145,,accuracy,space,3.741642291000062,,,,,,0.0,0.0,0.0,0.0,13.0,1.0,27.0,1.0,211.8684419170004,,,,,,,,,211.864064292,212.20255837500008,212.99466620800013,212.98643925000036,212.98684845800017,212.99466620800013,212.99466620800013,212.99466620800013,214.39775004200052,,,,,,,,,,,,,,,,,,,,,,,,,,,,,,left,0.0,1.3932323330000145,,,,,,sub-065,1,random_dot,,
left,left,28.0,0.0,14.0,left,1.0,0.9242642499993964,,accuracy,space,3.741642291000062,,,,,,0.0,0.0,0.0,0.0,14.0,0.0,28.0,0.0,214.40507887500007,,,,,,,,,214.39821929200025,215.59621420799976,216.3879862499998,216.38029154200007,216.3808392500005,216.3879862499998,216.3879862499998,216.3879862499998,217.31437245800043,,,,,,,,,,,,,,,,,,,,,,,,,,,,,,left,1.0,0.9242642499993964,,,,,,sub-065,1,random_dot,,
right,right,29.0,1.0,14.0,left,0.0,1.5755636670000968,,accuracy,space,3.741642291000062,,,,,,0.0,0.0,0.0,0.0,14.0,1.0,29.0,1.0,217.31891600000017,,,,,,,,,217.3146844170005,217.6628801249999,218.455071292,218.446988875,218.4475320419997,218.455071292,218.455071292,218.455071292,220.03640120799992,,,,,,,,,,,,,,,,,,,,,,,,,,,,,,left,0.0,1.5755636670000968,,,,,,sub-065,1,random_dot,,
left,left,30.0,0.0,15.0,right,0.0,2.051414333999673,,accuracy,space,3.741642291000062,,,,,,0.0,0.0,0.0,0.0,15.0,0.0,30.0,0.0,220.044641083,,,,,,,,,220.03672279200052,221.2351434580005,222.0279843750004,222.01901058299973,222.01943808299984,222.0279843750004,222.0279843750004,222.0279843750004,224.0864209170004,,,,,,,,,,,,,,,,,,,,,,,,,,,,,,right,0.0,2.051414333999673,,,,,,sub-065,1,random_dot,,
right,right,31.0,1.0,15.0,right,1.0,2.2549441659994045,,accuracy,space,3.741642291000062,,,,,,0.0,0.0,0.0,0.0,15.0,1.0,31.0,1.0,224.09466950000024,,,,,,,,,224.08675879200015,224.18495299999995,224.9779178750005,224.9693117500001,224.9697384580004,224.9779178750005,224.9779178750005,224.9779178750005,227.234812875,,,,,,,,,,,,,,,,,,,,,,,,,,,,,,right,1.0,2.2549441659994045,,,,,,sub-065,1,random_dot,,
right,right,32.0,0.0,16.0,left,0.0,1.2487335409996376,,accuracy,space,3.741642291000062,,,,,,0.0,0.0,0.0,0.0,16.0,0.0,32.0,1.0,227.24606004199995,,,,,,,,,227.23513699999967,228.42952966699977,229.2214212079998,229.21353050000016,229.2141104580005,229.2214212079998,229.2214212079998,229.2214212079998,230.4807533330004,,,,,,,,,,,,,,,,,,,,,,,,,,,,,,left,0.0,1.2487335409996376,,,,,,sub-065,1,random_dot,,
left,left,33.0,1.0,16.0,right,0.0,1.714756290999503,,accuracy,space,3.741642291000062,,,,,,0.0,0.0,0.0,0.0,16.0,1.0,33.0,0.0,230.4875516250004,,,,,,,,,230.48107837499992,230.8295198750002,231.62191837499995,231.61380974999972,231.61437379200012,231.62191837499995,231.62191837499995,231.62191837499995,233.3478942920001,,,,,,,,,,,,,,,,,,,,,,,,,,,,,,right,0.0,1.714756290999503,,,,,,sub-065,1,random_dot,,
right,right,34.0,0.0,17.0,left,0.0,1.3833462909997252,,accuracy,space,3.741642291000062,,,,,,0.0,0.0,0.0,0.0,17.0,0.0,34.0,1.0,233.35496966699972,,,,,,,,,233.34832675000047,233.6962204170004,234.48774629200037,234.4801555000004,234.48059724999985,234.48774629200037,234.48774629200037,234.48774629200037,235.8809787500004,,,,,,,,,,,,,,,,,,,,,,,,,,,,,,left,0.0,1.3833462909997252,,,,,,sub-065,1,random_dot,,
left,left,35.0,1.0,17.0,right,0.0,1.2766004169998268,,accuracy,space,3.741642291000062,,,,,,0.0,0.0,0.0,0.0,17.0,1.0,35.0,0.0,235.88853854199988,,,,,,,,,235.88143258299988,236.2283769579999,237.02203312500023,237.01359245799995,237.0140565419997,237.02203312500023,237.02203312500023,237.02203312500023,238.30444175000048,,,,,,,,,,,,,,,,,,,,,,,,,,,,,,right,0.0,1.2766004169998268,,,,,,sub-065,1,random_dot,,
right,right,36.0,0.0,18.0,left,0.0,1.8731774590005443,,accuracy,space,3.741642291000062,,,,,,0.0,0.0,0.0,0.0,18.0,0.0,36.0,1.0,238.3116531249998,,,,,,,,,238.3047745419999,238.65245320800025,239.4445968330001,239.43606891699983,239.43649483300032,239.4445968330001,239.4445968330001,239.4445968330001,241.32016250000012,,,,,,,,,,,,,,,,,,,,,,,,,,,,,,left,0.0,1.8731774590005443,,,,,,sub-065,1,random_dot,,
left,left,37.0,1.0,18.0,left,1.0,2.827736291000292,,accuracy,space,3.741642291000062,,,,,,0.0,0.0,0.0,0.0,18.0,1.0,37.0,0.0,241.3278695830004,,,,,,,,,241.320488542,242.51883595799973,243.31127766700047,243.30225995799992,243.30267954200008,243.31127766700047,243.31127766700047,243.31127766700047,246.1471791670001,,,,,,,,,,,,,,,,,,,,,,,,,,,,,,left,1.0,2.827736291000292,,,,,,sub-065,1,random_dot,,
left,left,38.0,0.0,19.0,left,1.0,2.7923336250005377,,accuracy,space,3.741642291000062,,,,,,0.0,0.0,0.0,0.0,19.0,0.0,38.0,0.0,246.1540945830002,,,,,,,,,246.14750900000035,247.3461734170005,248.13833004200023,248.1302453750004,248.13080362500023,248.13833004200023,248.13833004200023,248.13833004200023,250.93823070800045,,,,,,,,,,,,,,,,,,,,,,,,,,,,,,left,1.0,2.7923336250005377,,,,,,sub-065,1,random_dot,,
right,right,39.0,1.0,19.0,right,1.0,1.1240779580002709,,accuracy,space,3.741642291000062,,,,,,0.0,0.0,0.0,0.0,19.0,1.0,39.0,1.0,250.94525537499976,,,,,,,,,250.9385667080005,251.2865641670005,252.08825420799985,252.0801423330004,252.0806945000004,252.08825420799985,252.08825420799985,252.08825420799985,253.2203492919998,,,,,,,,,,,,,,,,,,,,,,,,,,,,,,right,1.0,1.1240779580002709,,,,,,sub-065,1,random_dot,,
right,right,40.0,0.0,20.0,left,0.0,1.0743109999993976,,accuracy,space,3.741642291000062,,,,,,0.0,0.0,0.0,0.0,20.0,0.0,40.0,1.0,253.22828929200023,,,,,,,,,253.2206612079999,254.01883541700045,254.8111893750001,254.80277370800013,254.8032045420005,254.8111893750001,254.8111893750001,254.8111893750001,255.8979280829999,,,,,,,,,,,,,,,,,,,,,,,,,,,,,,left,0.0,1.0743109999993976,,,,,,sub-065,1,random_dot,,
left,left,41.0,1.0,20.0,left,1.0,2.0404479160006304,,accuracy,space,3.741642291000062,,,,,,0.0,0.0,0.0,0.0,20.0,1.0,41.0,0.0,255.90547312499984,,,,,,,,,255.89841095800057,257.0960025000004,257.88841220799986,257.8803406670004,257.88088637500005,257.88841220799986,257.88841220799986,257.88841220799986,259.9309296250003,,,,,,,,,,,,,,,,,,,,,,,,,,,,,,left,1.0,2.0404479160006304,,,,,,sub-065,1,random_dot,,
left,left,42.0,0.0,21.0,right,0.0,0.9946353750001437,,accuracy,space,3.741642291000062,,,,,,0.0,0.0,0.0,0.0,21.0,0.0,42.0,0.0,259.93575341700034,,,,,,,,,259.93135750000056,260.7294320830006,261.521093542,261.51326441699985,261.51382962499974,261.521093542,261.521093542,261.521093542,262.51929579199987,,,,,,,,,,,,,,,,,,,,,,,,,,,,,,right,0.0,0.9946353750001437,,,,,,sub-065,1,random_dot,,
right,right,43.0,1.0,21.0,left,0.0,0.8808380410000609,,accuracy,space,3.741642291000062,,,,,,0.0,0.0,0.0,0.0,21.0,1.0,43.0,1.0,262.5283439169998,,,,,,,,,262.5196126669998,263.31276100000014,264.10441504200026,264.09677170800023,264.09720695800024,264.10441504200026,264.10441504200026,264.10441504200026,264.9969485419997,,,,,,,,,,,,,,,,,,,,,,,,,,,,,,left,0.0,0.8808380410000609,,,,,,sub-065,1,random_dot,,
right,right,44.0,0.0,22.0,right,1.0,1.0414135000000897,,accuracy,space,3.741642291000062,,,,,,0.0,0.0,0.0,0.0,22.0,0.0,44.0,1.0,265.0040314170001,,,,,,,,,264.9973256250005,266.18626349999977,266.9883744580002,266.9803332500005,266.9808924580002,266.9883744580002,266.9883744580002,266.9883744580002,268.0378095830001,,,,,,,,,,,,,,,,,,,,,,,,,,,,,,right,1.0,1.0414135000000897,,,,,,sub-065,1,random_dot,,
left,left,45.0,1.0,22.0,left,1.0,1.497568833000514,,accuracy,space,3.741642291000062,,,,,,0.0,0.0,0.0,0.0,22.0,1.0,45.0,0.0,268.04440670799977,,,,,,,,,268.0381187080002,268.38565016699977,269.1779165420003,269.1696851249999,269.17011820800053,269.1779165420003,269.1779165420003,269.1779165420003,270.68113387500034,,,,,,,,,,,,,,,,,,,,,,,,,,,,,,left,1.0,1.497568833000514,,,,,,sub-065,1,random_dot,,
left,left,46.0,0.0,23.0,right,0.0,1.28245487499953,,accuracy,space,3.741642291000062,,,,,,0.0,0.0,0.0,0.0,23.0,0.0,46.0,0.0,270.68899412500014,,,,,,,,,270.6816004170005,271.0294620000004,271.8209350420002,271.8133841670005,271.813836583,271.8209350420002,271.8209350420002,271.8209350420002,273.1140422919998,,,,,,,,,,,,,,,,,,,,,,,,,,,,,,right,0.0,1.28245487499953,,,,,,sub-065,1,random_dot,,
right,right,47.0,1.0,23.0,left,0.0,2.3855288329996256,,accuracy,space,3.741642291000062,,,,,,0.0,0.0,0.0,0.0,23.0,1.0,47.0,1.0,273.1179452920005,,,,,,,,,273.1144112920001,273.9126254170005,274.7050140000001,274.6968554169998,274.6972860830001,274.7050140000001,274.7050140000001,274.7050140000001,277.0968916669999,,,,,,,,,,,,,,,,,,,,,,,,,,,,,,left,0.0,2.3855288329996256,,,,,,sub-065,1,random_dot,,
right,right,48.0,0.0,24.0,right,1.0,1.7035252499999842,,accuracy,space,3.741642291000062,,,,,,0.0,0.0,0.0,0.0,24.0,0.0,48.0,1.0,277.1038219580005,,,,,,,,,277.0971975419998,277.4356366669999,278.22797179200006,278.21862712500024,278.21904175000054,278.22797179200006,278.22797179200006,278.22797179200006,279.9369977920005,,,,,,,,,,,,,,,,,,,,,,,,,,,,,,right,1.0,1.7035252499999842,,,,,,sub-065,1,random_dot,,
left,left,49.0,1.0,24.0,left,1.0,1.4307924169997932,,accuracy,space,3.741642291000062,,,,,,0.0,0.0,0.0,0.0,24.0,1.0,49.0,0.0,279.94442658299977,,,,,,,,,279.9373238750004,280.0354842080005,280.82780204200026,280.81890858299994,280.81932874999984,280.82780204200026,280.82780204200026,280.82780204200026,282.2644317080003,,,,,,,,,,,,,,,,,,,,,,,,,,,,,,left,1.0,1.4307924169997932,,,,,,sub-065,1,random_dot,,
right,right,50.0,0.0,25.0,right,1.0,1.493977666000319,,accuracy,space,3.741642291000062,,,,,,0.0,0.0,0.0,0.0,25.0,0.0,50.0,1.0,282.2715684579998,,,,,,,,,282.2648667499998,283.4628903749999,284.2546232499999,284.2465500830004,284.24705941699995,284.2546232499999,284.2546232499999,284.2546232499999,285.75195200000053,,,,,,,,,,,,,,,,,,,,,,,,,,,,,,right,1.0,1.493977666000319,,,,,,sub-065,1,random_dot,,
left,left,51.0,1.0,25.0,left,1.0,1.4870432089992391,,accuracy,space,3.741642291000062,,,,,,0.0,0.0,0.0,0.0,25.0,1.0,51.0,0.0,285.7619734580003,,,,,,,,,285.7522642499998,285.8516344999998,286.64446450000014,286.6356646250006,286.6361080830002,286.64446450000014,286.64446450000014,286.64446450000014,288.1360605,,,,,,,,,,,,,,,,,,,,,,,,,,,,,,left,1.0,1.4870432089992391,,,,,,sub-065,1,random_dot,,
right,right,52.0,0.0,26.0,left,0.0,1.9106626660004624,,accuracy,space,3.741642291000062,,,,,,0.0,0.0,0.0,0.0,26.0,0.0,52.0,1.0,288.14443716700043,,,,,,,,,288.1363726669997,288.23455108300004,289.0277582079998,289.01889991700045,289.0193382079997,289.0277582079998,289.0277582079998,289.0277582079998,290.9475622500004,,,,,,,,,,,,,,,,,,,,,,,,,,,,,,left,0.0,1.9106626660004624,,,,,,sub-065,1,random_dot,,
left,left,53.0,1.0,26.0,right,0.0,1.694604583999535,,accuracy,space,3.741642291000062,,,,,,0.0,0.0,0.0,0.0,26.0,1.0,53.0,0.0,290.95479216700005,,,,,,,,,290.9479822080002,292.1459475829997,292.9384570419997,292.930113333,292.9305784580001,292.9384570419997,292.9384570419997,292.9384570419997,294.6368128330005,,,,,,,,,,,,,,,,,,,,,,,,,,,,,,right,0.0,1.694604583999535,,,,,,sub-065,1,random_dot,,
left,left,54.0,0.0,27.0,left,1.0,2.003778166000302,,accuracy,space,3.741642291000062,,,,,,0.0,0.0,0.0,0.0,27.0,0.0,54.0,0.0,294.64488520800023,,,,,,,,,294.6371475830001,295.83562520800024,296.6277877499997,296.6191027080004,296.61956233300043,296.6277877499997,296.6277877499997,296.6277877499997,298.636835417,,,,,,,,,,,,,,,,,,,,,,,,,,,,,,left,1.0,2.003778166000302,,,,,,sub-065,1,random_dot,,
right,right,55.0,1.0,27.0,left,0.0,2.86135829199975,,accuracy,space,3.741642291000062,,,,,,0.0,0.0,0.0,0.0,27.0,1.0,55.0,1.0,298.64491754200026,,,,,,,,,298.6371635000005,298.9847719170002,299.77776520800035,299.7692782080003,299.7696879169998,299.77776520800035,299.77776520800035,299.77776520800035,302.64713058300003,,,,,,,,,,,,,,,,,,,,,,,,,,,,,,left,0.0,2.86135829199975,,,,,,sub-065,1,random_dot,,
right,right,56.0,0.0,28.0,right,1.0,2.315913958000237,,accuracy,space,3.741642291000062,,,,,,0.0,0.0,0.0,0.0,28.0,0.0,56.0,1.0,302.6540332499999,,,,,,,,,302.6474589999998,303.8459135000003,304.638329208,304.6302740000001,304.6308387079998,304.638329208,304.638329208,304.638329208,306.9641844580001,,,,,,,,,,,,,,,,,,,,,,,,,,,,,,right,1.0,2.315913958000237,,,,,,sub-065,1,random_dot,,
left,left,57.0,1.0,28.0,left,1.0,1.8820694589994675,,accuracy,space,3.741642291000062,,,,,,0.0,0.0,0.0,0.0,28.0,1.0,57.0,0.0,306.97186966699974,,,,,,,,,306.96469295800034,307.7625897079997,308.55391537500054,308.54654475000007,308.5469814999997,308.55391537500054,308.55391537500054,308.55391537500054,310.44491387500057,,,,,,,,,,,,,,,,,,,,,,,,,,,,,,left,1.0,1.8820694589994675,,,,,,sub-065,1,random_dot,,
left,left,58.0,0.0,29.0,left,1.0,1.906399791000695,,accuracy,space,3.741642291000062,,,,,,0.0,0.0,0.0,0.0,29.0,0.0,58.0,0.0,310.4514462500001,,,,,,,,,310.4452509170005,310.7862293750004,311.57809304200055,311.56979500000034,311.5702314580003,311.57809304200055,311.57809304200055,311.57809304200055,313.4878854999997,,,,,,,,,,,,,,,,,,,,,,,,,,,,,,left,1.0,1.906399791000695,,,,,,sub-065,1,random_dot,,
right,right,59.0,1.0,29.0,left,0.0,1.5578639159994054,,accuracy,space,3.741642291000062,,,,,,0.0,0.0,0.0,0.0,29.0,1.0,59.0,1.0,313.4952717080005,,,,,,,,,313.4883131249999,313.836143042,314.6382598749997,314.63015754200023,314.6307332920005,314.6382598749997,314.6382598749997,314.6382598749997,316.19826741700035,,,,,,,,,,,,,,,,,,,,,,,,,,,,,,left,0.0,1.5578639159994054,,,,,,sub-065,1,random_dot,,
,,0.0,0.0,0.0,,,,,accuracy,space,3.741642291000062,,,,,,0.0,0.0,0.0,0.0,,,,,,,,,,,,,,,,,,,,,,,,,,,,,,,,,,,,,,,,,,,,,,,,,,,,,,,,,,,,sub-065,1,random_dot,,
right,right,0.0,0.0,0.0,left,0.0,1.1217867499999556,,speed,space,4.031686749999608,,,,,,0.0,1.0,1.0,1.0,0.0,0.0,0.0,1.0,320.2724688750004,,,,,,,,,320.2650979170003,320.3511020420001,321.14434600000004,321.13544329199976,321.1358877499997,321.14434600000004,321.14434600000004,321.14434600000004,322.270362792,,,,,,,,,,,,,,,,,,,,,,,316.2112099579999,316.2179611669999,316.2179611669999,320.25421712499974,space,4.031686749999608,,left,0.0,1.1217867499999556,,,,,,sub-065,1,random_dot,,
left,left,1.0,1.0,0.0,left,1.0,0.576853165999637,,speed,space,4.031686749999608,,,,,,0.0,1.0,1.0,1.0,0.0,1.0,1.0,0.0,322.2777767079997,,,,,,,,,322.27077008300057,323.4687825000001,324.26097133300027,324.25273933300014,324.2531692499997,324.26097133300027,324.26097133300027,324.26097133300027,324.8463764170001,,,,,,,,,,,,,,,,,,,,,,,,,,,,,,left,1.0,0.576853165999637,,,,,,sub-065,1,random_dot,,
left,left,2.0,0.0,1.0,right,0.0,1.1891489169993292,,speed,space,4.031686749999608,,,,,,0.0,1.0,1.0,1.0,1.0,0.0,2.0,0.0,324.8532820830005,,,,,,,,,324.846815375,324.9347178329999,325.7279463750001,325.7187852080005,325.71917887499967,325.7279463750001,325.7279463750001,325.7279463750001,326.9206522499999,,,,,,,,,,,,,,,,,,,,,,,,,,,,,,right,0.0,1.1891489169993292,,,,,,sub-065,1,random_dot,,
right,right,3.0,1.0,1.0,left,0.0,1.3921861250000802,,speed,space,4.031686749999608,,,,,,0.0,1.0,1.0,1.0,1.0,1.0,3.0,1.0,326.927716792,,,,,,,,,326.92098483300015,327.2687929169997,328.0713307920005,328.0633928750003,328.0639436669999,328.0713307920005,328.0713307920005,328.0713307920005,329.46573929199985,,,,,,,,,,,,,,,,,,,,,,,,,,,,,,left,0.0,1.3921861250000802,,,,,,sub-065,1,random_dot,,
right,right,4.0,0.0,2.0,left,0.0,1.2504451249997146,,speed,space,4.031686749999608,,,,,,0.0,1.0,1.0,1.0,2.0,0.0,4.0,1.0,329.4730066250004,,,,,,,,,329.4662746670001,329.5624769169999,330.35392412500005,330.34655116700014,330.34698466700047,330.35392412500005,330.35392412500005,330.35392412500005,331.6138415000005,,,,,,,,,,,,,,,,,,,,,,,,,,,,,,left,0.0,1.2504451249997146,,,,,,sub-065,1,random_dot,,
left,left,5.0,1.0,2.0,right,0.0,1.3917418749997523,,speed,space,4.031686749999608,,,,,,0.0,1.0,1.0,1.0,2.0,1.0,5.0,0.0,331.62090058300055,,,,,,,,,331.61425016700014,332.4125807500004,333.2043985420005,333.1965923750004,333.1971362080003,333.2043985420005,333.2043985420005,333.2043985420005,334.60133250000035,,,,,,,,,,,,,,,,,,,,,,,,,,,,,,right,0.0,1.3917418749997523,,,,,,sub-065,1,random_dot,,
right,right,6.0,0.0,3.0,right,1.0,1.596831958000621,,speed,space,4.031686749999608,,,,,,0.0,1.0,1.0,1.0,3.0,0.0,6.0,1.0,334.612547875,,,,,,,,,334.6016480830003,335.7958966670003,336.5873611249999,336.5798037080003,336.5802898330003,336.5873611249999,336.5873611249999,336.5873611249999,338.1862361250005,,,,,,,,,,,,,,,,,,,,,,,,,,,,,,right,1.0,1.596831958000621,,,,,,sub-065,1,random_dot,,
left,left,7.0,1.0,3.0,left,1.0,0.7406345419994977,,speed,space,4.031686749999608,,,,,,0.0,1.0,1.0,1.0,3.0,1.0,7.0,0.0,338.19433087500056,,,,,,,,,338.1865657500002,339.3856275420003,340.177663208,340.1688851250001,340.1693005830002,340.177663208,340.177663208,340.177663208,340.9289078749998,,,,,,,,,,,,,,,,,,,,,,,,,,,,,,left,1.0,0.7406345419994977,,,,,,sub-065,1,random_dot,,
left,left,8.0,0.0,4.0,right,0.0,1.2192477500002497,,speed,space,4.031686749999608,,,,,,0.0,1.0,1.0,1.0,4.0,0.0,8.0,0.0,340.93260029199973,,,,,,,,,340.9292229170005,341.7187775829998,342.5109777919997,342.5021529579999,342.50258204200054,342.5109777919997,342.5109777919997,342.5109777919997,343.73511804200007,,,,,,,,,,,,,,,,,,,,,,,,,,,,,,right,0.0,1.2192477500002497,,,,,,sub-065,1,random_dot,,
right,right,9.0,1.0,4.0,right,1.0,1.5600595830001112,,speed,space,4.031686749999608,,,,,,0.0,1.0,1.0,1.0,4.0,1.0,9.0,1.0,343.7445135420003,,,,,,,,,343.7354907079998,343.8347338330004,344.6276376670003,344.61867608300054,344.6190811670004,344.6276376670003,344.6276376670003,344.6276376670003,346.1975713749998,,,,,,,,,,,,,,,,,,,,,,,,,,,,,,right,1.0,1.5600595830001112,,,,,,sub-065,1,random_dot,,
left,left,10.0,0.0,5.0,left,1.0,1.070936999999503,,speed,space,4.031686749999608,,,,,,0.0,1.0,1.0,1.0,5.0,0.0,10.0,0.0,346.20478987499973,,,,,,,,,346.1979961249999,346.54589558299995,347.337166542,347.32974512500004,347.3301764580001,347.337166542,347.337166542,347.337166542,348.41435591699974,,,,,,,,,,,,,,,,,,,,,,,,,,,,,,left,1.0,1.070936999999503,,,,,,sub-065,1,random_dot,,
right,right,11.0,1.0,5.0,right,1.0,2.408866291999402,,speed,space,4.031686749999608,,,,,,0.0,1.0,1.0,1.0,5.0,1.0,11.0,1.0,348.42162158300016,,,,,,,,,348.41481337500045,349.2125364579997,350.00385525,349.99643625000044,349.99687187499967,350.00385525,350.00385525,350.00385525,352.42043291699974,,,,,,,,,,,,,,,,,,,,,,,,,,,,,,right,1.0,2.408866291999402,,,,,,sub-065,1,random_dot,,
right,right,12.0,0.0,6.0,right,1.0,0.929629749999549,,speed,space,4.031686749999608,,,,,,0.0,1.0,1.0,1.0,6.0,0.0,12.0,1.0,352.4279795419998,,,,,,,,,352.4207417079997,353.6192022920004,354.4109090829997,354.4024302500002,354.40284941699974,354.4109090829997,354.4109090829997,354.4109090829997,355.3457655000002,,,,,,,,,,,,,,,,,,,,,,,,,,,,,,right,1.0,0.929629749999549,,,,,,sub-065,1,random_dot,,
left,left,13.0,1.0,6.0,right,0.0,1.321020999999746,,speed,space,4.031686749999608,,,,,,0.0,1.0,1.0,1.0,6.0,1.0,13.0,0.0,355.35265954199986,,,,,,,,,355.3461735000001,355.6852315000005,356.47758008300025,356.4690953750005,356.4695265420005,356.47758008300025,356.47758008300025,356.47758008300025,357.804108583,,,,,,,,,,,,,,,,,,,,,,,,,,,,,,right,0.0,1.321020999999746,,,,,,sub-065,1,random_dot,,
left,left,14.0,0.0,7.0,left,1.0,2.6811925000001797,,speed,space,4.031686749999608,,,,,,0.0,1.0,1.0,1.0,7.0,0.0,14.0,0.0,357.8110219170003,,,,,,,,,357.80442870800016,359.0027680000003,359.8044448749997,359.79651920800006,359.79696241700003,359.8044448749997,359.8044448749997,359.8044448749997,362.4878227919999,,,,,,,,,,,,,,,,,,,,,,,,,,,,,,left,1.0,2.6811925000001797,,,,,,sub-065,1,random_dot,,
right,right,15.0,1.0,7.0,right,1.0,0.7753349169997819,,speed,space,4.031686749999608,,,,,,0.0,1.0,1.0,1.0,7.0,1.0,15.0,1.0,362.4950168329997,,,,,,,,,362.4882487499999,363.285313417,364.0775553330004,364.0687743750004,364.06926170800034,364.0775553330004,364.0775553330004,364.0775553330004,364.8621603749998,,,,,,,,,,,,,,,,,,,,,,,,,,,,,,right,1.0,0.7753349169997819,,,,,,sub-065,1,random_dot,,
right,right,16.0,0.0,8.0,right,1.0,0.7969280839997737,,speed,space,4.031686749999608,,,,,,0.0,1.0,1.0,1.0,8.0,0.0,16.0,1.0,364.8690396669999,,,,,,,,,364.8625104580005,366.0519713330005,366.84440104199984,366.8359823330002,366.8364145830001,366.84440104199984,366.84440104199984,366.84440104199984,367.6472927499999,,,,,,,,,,,,,,,,,,,,,,,,,,,,,,right,1.0,0.7969280839997737,,,,,,sub-065,1,random_dot,,
left,left,17.0,1.0,8.0,left,1.0,1.4928055840000525,,speed,space,4.031686749999608,,,,,,0.0,1.0,1.0,1.0,8.0,1.0,17.0,0.0,367.6548414580002,,,,,,,,,367.64773129200057,368.8457611250005,369.63729587499984,369.6297141670002,369.630163375,369.63729587499984,369.63729587499984,369.63729587499984,371.137218375,,,,,,,,,,,,,,,,,,,,,,,,,,,,,,left,1.0,1.4928055840000525,,,,,,sub-065,1,random_dot,,
left,left,18.0,0.0,9.0,right,0.0,3.2591123749998587,,speed,space,4.031686749999608,,,,,,0.0,1.0,1.0,1.0,9.0,0.0,18.0,0.0,371.1440215419998,,,,,,,,,371.1375383330005,371.9356859170002,372.7275163750001,372.7190548750005,372.7194824580001,372.7275163750001,372.7275163750001,372.7275163750001,375.9975653330002,,,,,,,,,,,,,,,,,,,,,,,,,,,,,,right,0.0,3.2591123749998587,,,,,,sub-065,1,random_dot,,
right,right,19.0,1.0,9.0,left,0.0,0.9378806250006164,,speed,space,4.031686749999608,,,,,,0.0,1.0,1.0,1.0,9.0,1.0,19.0,1.0,376.0050035000004,,,,,,,,,375.9980283750001,376.0956945420003,376.887199625,376.8796515000004,376.88008825,376.887199625,376.887199625,376.887199625,377.8295094169998,,,,,,,,,,,,,,,,,,,,,,,,,,,,,,left,0.0,0.9378806250006164,,,,,,sub-065,1,random_dot,,
right,right,20.0,0.0,10.0,left,0.0,1.0907358340000428,,speed,space,4.031686749999608,,,,,,0.0,1.0,1.0,1.0,10.0,0.0,20.0,1.0,377.8363267920004,,,,,,,,,377.829840458,377.9178716249999,378.7108356250001,378.7023938330003,378.70280766700034,378.7108356250001,378.7108356250001,378.7108356250001,379.8139343330004,,,,,,,,,,,,,,,,,,,,,,,,,,,,,,left,0.0,1.0907358340000428,,,,,,sub-065,1,random_dot,,
left,left,21.0,1.0,10.0,right,0.0,0.7577289589999054,,speed,space,4.031686749999608,,,,,,0.0,1.0,1.0,1.0,10.0,1.0,21.0,0.0,379.82151841700033,,,,,,,,,379.8143735829999,379.9122942920003,380.704057125,380.6964042079999,380.696866667,380.704057125,380.704057125,380.704057125,381.47209320799993,,,,,,,,,,,,,,,,,,,,,,,,,,,,,,right,0.0,0.7577289589999054,,,,,,sub-065,1,random_dot,,
right,right,22.0,0.0,11.0,right,1.0,1.7013809999998557,,speed,space,4.031686749999608,,,,,,0.0,1.0,1.0,1.0,11.0,0.0,22.0,1.0,381.4775152080001,,,,,,,,,381.4724167499999,381.5678730420004,382.3608745829997,382.352490583,382.352907167,382.3608745829997,382.3608745829997,382.3608745829997,384.0641769579997,,,,,,,,,,,,,,,,,,,,,,,,,,,,,,right,1.0,1.7013809999998557,,,,,,sub-065,1,random_dot,,
left,left,23.0,1.0,11.0,left,1.0,1.3405806669998128,,speed,space,4.031686749999608,,,,,,0.0,1.0,1.0,1.0,11.0,1.0,23.0,0.0,384.0690980420004,,,,,,,,,384.0646008330005,384.16233266700056,384.9552034999997,384.9466244579999,384.9471740420004,384.9552034999997,384.9552034999997,384.9552034999997,386.30286500000057,,,,,,,,,,,,,,,,,,,,,,,,,,,,,,left,1.0,1.3405806669998128,,,,,,sub-065,1,random_dot,,
left,left,24.0,0.0,12.0,right,0.0,1.7186740830002236,,speed,space,4.031686749999608,,,,,,0.0,1.0,1.0,1.0,12.0,0.0,24.0,0.0,386.3107909999999,,,,,,,,,386.3031946250003,386.4018030420002,387.1943879170003,387.1849643329997,387.1853775830005,387.1943879170003,387.1943879170003,387.1943879170003,388.9203597080004,,,,,,,,,,,,,,,,,,,,,,,,,,,,,,right,0.0,1.7186740830002236,,,,,,sub-065,1,random_dot,,
right,right,25.0,1.0,12.0,left,0.0,0.8386171249994732,,speed,space,4.031686749999608,,,,,,0.0,1.0,1.0,1.0,12.0,1.0,25.0,1.0,388.9271751249999,,,,,,,,,388.92068666700015,389.26841866700033,390.061254833,390.0516823329999,390.0520890830003,390.061254833,390.061254833,390.061254833,390.9035640000002,,,,,,,,,,,,,,,,,,,,,,,,,,,,,,left,0.0,0.8386171249994732,,,,,,sub-065,1,random_dot,,
right,right,26.0,0.0,13.0,right,1.0,0.8391721250000046,,speed,space,4.031686749999608,,,,,,0.0,1.0,1.0,1.0,13.0,0.0,26.0,1.0,390.9110652919999,,,,,,,,,390.903954458,391.2519093330002,392.0443522080004,392.0361283749999,392.036549292,392.0443522080004,392.0443522080004,392.0443522080004,392.8868997919999,,,,,,,,,,,,,,,,,,,,,,,,,,,,,,right,1.0,0.8391721250000046,,,,,,sub-065,1,random_dot,,
left,left,27.0,1.0,13.0,left,1.0,0.9595753749999858,,speed,space,4.031686749999608,,,,,,0.0,1.0,1.0,1.0,13.0,1.0,27.0,0.0,392.8939148750005,,,,,,,,,392.887217042,393.6862806670006,394.4874994170005,394.4796914999997,394.4801405420003,394.4874994170005,394.4874994170005,394.4874994170005,395.4546019999998,,,,,,,,,,,,,,,,,,,,,,,,,,,,,,left,1.0,0.9595753749999858,,,,,,sub-065,1,random_dot,,
right,right,28.0,0.0,14.0,right,1.0,0.6771955840004011,,speed,space,4.031686749999608,,,,,,0.0,1.0,1.0,1.0,14.0,0.0,28.0,1.0,395.4616880419999,,,,,,,,,395.4550168329997,396.65185808299975,397.4445306670005,397.4349876670003,397.43540333300007,397.4445306670005,397.4445306670005,397.4445306670005,398.12978358300006,,,,,,,,,,,,,,,,,,,,,,,,,,,,,,right,1.0,0.6771955840004011,,,,,,sub-065,1,random_dot,,
left,left,29.0,1.0,14.0,right,0.0,0.9420104170003468,,speed,space,4.031686749999608,,,,,,0.0,1.0,1.0,1.0,14.0,1.0,29.0,0.0,398.1367655419999,,,,,,,,,398.1301893330001,398.918460375,399.7109897500004,399.70212875000016,399.7025574999998,399.7109897500004,399.7109897500004,399.7109897500004,400.66209533300025,,,,,,,,,,,,,,,,,,,,,,,,,,,,,,right,0.0,0.9420104170003468,,,,,,sub-065,1,random_dot,,
left,left,30.0,0.0,15.0,right,0.0,1.3521111249992828,,speed,space,4.031686749999608,,,,,,0.0,1.0,1.0,1.0,15.0,0.0,30.0,0.0,400.6688055000004,,,,,,,,,400.6624106250001,401.45182316699993,402.244128333,402.2357228749997,402.2361634580002,402.244128333,402.244128333,402.244128333,403.6068775829999,,,,,,,,,,,,,,,,,,,,,,,,,,,,,,right,0.0,1.3521111249992828,,,,,,sub-065,1,random_dot,,
right,right,31.0,1.0,15.0,right,1.0,1.500896541999282,,speed,space,4.031686749999608,,,,,,0.0,1.0,1.0,1.0,15.0,1.0,31.0,1.0,403.6107716249999,,,,,,,,,403.6071860000002,404.4019009579997,405.1941273749999,405.185553542,405.1859809580001,405.1941273749999,405.1941273749999,405.1941273749999,406.6974042920001,,,,,,,,,,,,,,,,,,,,,,,,,,,,,,right,1.0,1.500896541999282,,,,,,sub-065,1,random_dot,,
left,left,32.0,0.0,16.0,right,0.0,2.5787280829999872,,speed,space,4.031686749999608,,,,,,0.0,1.0,1.0,1.0,16.0,0.0,32.0,0.0,406.70467158300016,,,,,,,,,406.69784895799967,407.0457595420002,407.8378084169999,407.8298711670004,407.8304225419997,407.8378084169999,407.8378084169999,407.8378084169999,410.4203589999997,,,,,,,,,,,,,,,,,,,,,,,,,,,,,,right,0.0,2.5787280829999872,,,,,,sub-065,1,random_dot,,
right,right,33.0,1.0,16.0,left,0.0,0.8008802079993984,,speed,space,4.031686749999608,,,,,,0.0,1.0,1.0,1.0,16.0,1.0,33.0,1.0,410.4273529580005,,,,,,,,,410.4206795830005,411.6181059999999,412.4114668749999,412.40205929200056,412.4024803749999,412.4114668749999,412.4114668749999,412.4114668749999,413.2145180420002,,,,,,,,,,,,,,,,,,,,,,,,,,,,,,left,0.0,0.8008802079993984,,,,,,sub-065,1,random_dot,,
right,right,34.0,0.0,17.0,right,1.0,1.3129076670002178,,speed,space,4.031686749999608,,,,,,0.0,1.0,1.0,1.0,17.0,0.0,34.0,1.0,413.22141983300025,,,,,,,,,413.21487549999983,414.0124057499997,414.80463441699976,414.796359,414.7968990830004,414.80463441699976,414.80463441699976,414.80463441699976,416.1197116250005,,,,,,,,,,,,,,,,,,,,,,,,,,,,,,right,1.0,1.3129076670002178,,,,,,sub-065,1,random_dot,,
left,left,35.0,1.0,17.0,right,0.0,0.7229678749999948,,speed,space,4.031686749999608,,,,,,0.0,1.0,1.0,1.0,17.0,1.0,35.0,0.0,416.1286081670005,,,,,,,,,416.1201264170004,417.3186367919998,418.1107355000004,418.10233658299967,418.1027571249997,418.1107355000004,418.1107355000004,418.1107355000004,418.836415625,,,,,,,,,,,,,,,,,,,,,,,,,,,,,,right,0.0,0.7229678749999948,,,,,,sub-065,1,random_dot,,
right,right,36.0,0.0,18.0,left,0.0,1.972829874999661,,speed,space,4.031686749999608,,,,,,0.0,1.0,1.0,1.0,18.0,0.0,36.0,1.0,418.8440905420002,,,,,,,,,418.8367327920005,418.9345060000005,419.7274312919999,419.7187851670005,419.7191987920005,419.7274312919999,419.7274312919999,419.7274312919999,421.7140926250004,,,,,,,,,,,,,,,,,,,,,,,,,,,,,,left,0.0,1.972829874999661,,,,,,sub-065,1,random_dot,,
left,left,37.0,1.0,18.0,right,0.0,2.599577083999975,,speed,space,4.031686749999608,,,,,,0.0,1.0,1.0,1.0,18.0,1.0,37.0,0.0,421.7215522080005,,,,,,,,,421.7145600419999,422.9125913329999,423.7044967080001,423.6964094169998,423.6969510830004,423.7044967080001,423.7044967080001,423.7044967080001,426.3142497500003,,,,,,,,,,,,,,,,,,,,,,,,,,,,,,right,0.0,2.599577083999975,,,,,,sub-065,1,random_dot,,
left,left,38.0,0.0,19.0,left,1.0,1.842104874999677,,speed,space,4.031686749999608,,,,,,0.0,1.0,1.0,1.0,19.0,0.0,38.0,0.0,426.321646333,,,,,,,,,426.3147810830005,427.11232287500025,427.904217667,427.8964048329999,427.89694979199976,427.904217667,427.904217667,427.904217667,429.7538203330005,,,,,,,,,,,,,,,,,,,,,,,,,,,,,,left,1.0,1.842104874999677,,,,,,sub-065,1,random_dot,,
right,right,39.0,1.0,19.0,left,0.0,1.042249957999957,,speed,space,4.031686749999608,,,,,,0.0,1.0,1.0,1.0,19.0,1.0,39.0,1.0,429.7607455420002,,,,,,,,,429.7541495420001,430.101566417,430.8941246249997,430.88500266699975,430.8854243750002,430.8941246249997,430.8941246249997,430.8941246249997,431.9474903330001,,,,,,,,,,,,,,,,,,,,,,,,,,,,,,left,0.0,1.042249957999957,,,,,,sub-065,1,random_dot,,
right,right,40.0,0.0,20.0,right,1.0,2.579789333000008,,speed,space,4.031686749999608,,,,,,0.0,1.0,1.0,1.0,20.0,0.0,40.0,1.0,431.95455025000047,,,,,,,,,431.947901083,432.29557449999993,433.08736300000055,433.0795104580002,433.0799419169998,433.08736300000055,433.08736300000055,433.08736300000055,435.6702070829997,,,,,,,,,,,,,,,,,,,,,,,,,,,,,,right,1.0,2.579789333000008,,,,,,sub-065,1,random_dot,,
left,left,41.0,1.0,20.0,right,0.0,2.407463542000187,,speed,space,4.031686749999608,,,,,,0.0,1.0,1.0,1.0,20.0,1.0,41.0,0.0,435.67736008300017,,,,,,,,,435.6706154169997,436.86861925,437.6606722920005,437.652315458,437.6527512920002,437.6606722920005,437.6606722920005,437.6606722920005,440.0802989579997,,,,,,,,,,,,,,,,,,,,,,,,,,,,,,right,0.0,2.407463542000187,,,,,,sub-065,1,random_dot,,
left,left,42.0,0.0,21.0,left,1.0,1.1518995000005816,,speed,space,4.031686749999608,,,,,,0.0,1.0,1.0,1.0,21.0,0.0,42.0,0.0,440.0877856670004,,,,,,,,,440.0807144999999,440.87895387499975,441.6709216250001,441.6630372919999,441.6635889170002,441.6709216250001,441.6709216250001,441.6709216250001,442.8304570830005,,,,,,,,,,,,,,,,,,,,,,,,,,,,,,left,1.0,1.1518995000005816,,,,,,sub-065,1,random_dot,,
right,right,43.0,1.0,21.0,left,0.0,4.009307917000115,,speed,space,4.031686749999608,,,,,,0.0,1.0,1.0,1.0,21.0,1.0,43.0,1.0,442.8376498329999,,,,,,,,,442.8309475420001,442.9293880000005,443.7216659579999,443.713159375,443.7137273750004,443.7216659579999,443.7216659579999,443.7216659579999,447.7369156249997,,,,,,,,,,,,,,,,,,,,,,,,,,,,,,left,0.0,4.009307917000115,,,,,,sub-065,1,random_dot,,
left,left,44.0,0.0,22.0,left,1.0,1.59335691600063,,speed,space,4.031686749999608,,,,,,0.0,1.0,1.0,1.0,22.0,0.0,44.0,0.0,447.7442299579998,,,,,,,,,447.7372514580002,448.935454208,449.72735550000016,449.71887937500014,449.71930695799983,449.72735550000016,449.72735550000016,449.72735550000016,451.3301509170005,,,,,,,,,,,,,,,,,,,,,,,,,,,,,,left,1.0,1.59335691600063,,,,,,sub-065,1,random_dot,,
right,right,45.0,1.0,22.0,right,1.0,2.063890958000229,,speed,space,4.031686749999608,,,,,,0.0,1.0,1.0,1.0,22.0,1.0,45.0,1.0,451.3369985830004,,,,,,,,,451.3304806670003,452.128879375,452.92123637500026,452.9131009580005,452.9136400420002,452.92123637500026,452.92123637500026,452.92123637500026,454.9971506669999,,,,,,,,,,,,,,,,,,,,,,,,,,,,,,right,1.0,2.063890958000229,,,,,,sub-065,1,random_dot,,
left,left,46.0,0.0,23.0,right,0.0,1.308867707999525,,speed,space,4.031686749999608,,,,,,0.0,1.0,1.0,1.0,23.0,0.0,46.0,0.0,455.0046056669999,,,,,,,,,454.9976133330001,455.09551337500034,455.8877030829999,455.8795693330003,455.8801335830003,455.8877030829999,455.8877030829999,455.8877030829999,457.20211800000016,,,,,,,,,,,,,,,,,,,,,,,,,,,,,,right,0.0,1.308867707999525,,,,,,sub-065,1,random_dot,,
right,right,47.0,1.0,23.0,right,1.0,1.042663457999879,,speed,space,4.031686749999608,,,,,,0.0,1.0,1.0,1.0,23.0,1.0,47.0,1.0,457.2110385000005,,,,,,,,,457.2024427080005,458.40244008300033,459.1939381250004,459.1856326249999,459.1860595830003,459.1939381250004,459.1939381250004,459.1939381250004,460.247026,,,,,,,,,,,,,,,,,,,,,,,,,,,,,,right,1.0,1.042663457999879,,,,,,sub-065,1,random_dot,,
right,right,48.0,0.0,24.0,right,1.0,3.787234417000036,,speed,space,4.031686749999608,,,,,,0.0,1.0,1.0,1.0,24.0,0.0,48.0,1.0,460.2540161249999,,,,,,,,,460.24749175000034,461.44550400000026,462.2370183330004,462.22955337500025,462.23000191699975,462.2370183330004,462.2370183330004,462.2370183330004,466.03005508299975,,,,,,,,,,,,,,,,,,,,,,,,,,,,,,right,1.0,3.787234417000036,,,,,,sub-065,1,random_dot,,
left,left,49.0,1.0,24.0,right,0.0,2.6510855420001462,,speed,space,4.031686749999608,,,,,,0.0,1.0,1.0,1.0,24.0,1.0,49.0,0.0,466.0372445000002,,,,,,,,,466.0305250419997,466.3788389170004,467.1710205,467.1629155420005,467.1634642079998,467.1710205,467.1710205,467.1710205,469.8305529580002,,,,,,,,,,,,,,,,,,,,,,,,,,,,,,right,0.0,2.6510855420001462,,,,,,sub-065,1,random_dot,,
left,left,50.0,0.0,25.0,right,0.0,2.655266957999629,,speed,space,4.031686749999608,,,,,,0.0,1.0,1.0,1.0,25.0,0.0,50.0,0.0,469.8382596669999,,,,,,,,,469.8310373330005,470.1783208329998,470.9700859579998,470.9627035419999,470.963137875,470.9700859579998,470.9700859579998,470.9700859579998,473.6306777079999,,,,,,,,,,,,,,,,,,,,,,,,,,,,,,right,0.0,2.655266957999629,,,,,,sub-065,1,random_dot,,
right,right,51.0,1.0,25.0,left,0.0,2.1713169999993625,,speed,space,4.031686749999608,,,,,,0.0,1.0,1.0,1.0,25.0,1.0,51.0,1.0,473.6387452500003,,,,,,,,,473.6311367919998,473.9789500830002,474.77114616700055,474.7630221669997,474.76357950000056,474.77114616700055,474.77114616700055,474.77114616700055,476.9473431670003,,,,,,,,,,,,,,,,,,,,,,,,,,,,,,left,0.0,2.1713169999993625,,,,,,sub-065,1,random_dot,,
left,left,52.0,0.0,26.0,left,1.0,2.782439250000607,,speed,space,4.031686749999608,,,,,,0.0,1.0,1.0,1.0,26.0,0.0,52.0,0.0,476.9547333749997,,,,,,,,,476.947882083,477.2953855830001,478.0877802499999,478.0796716249997,478.0802269169999,478.0877802499999,478.0877802499999,478.0877802499999,480.8799202500004,,,,,,,,,,,,,,,,,,,,,,,,,,,,,,left,1.0,2.782439250000607,,,,,,sub-065,1,random_dot,,
right,right,53.0,1.0,26.0,left,0.0,2.619690874999833,,speed,space,4.031686749999608,,,,,,0.0,1.0,1.0,1.0,26.0,1.0,53.0,1.0,480.8871776670003,,,,,,,,,480.8803911670002,480.9787898330005,481.7708577920002,481.7629068750002,481.76346683300017,481.7708577920002,481.7708577920002,481.7708577920002,484.3969560830001,,,,,,,,,,,,,,,,,,,,,,,,,,,,,,left,0.0,2.619690874999833,,,,,,sub-065,1,random_dot,,
right,right,54.0,0.0,27.0,left,0.0,1.0524676660006662,,speed,space,4.031686749999608,,,,,,0.0,1.0,1.0,1.0,27.0,0.0,54.0,1.0,484.4041919580004,,,,,,,,,484.397360125,484.7455274169997,485.5378689580002,485.5296401249998,485.530168667,485.5378689580002,485.5378689580002,485.5378689580002,486.59661391700047,,,,,,,,,,,,,,,,,,,,,,,,,,,,,,left,0.0,1.0524676660006662,,,,,,sub-065,1,random_dot,,
left,left,55.0,1.0,27.0,right,0.0,1.4452055419997123,,speed,space,4.031686749999608,,,,,,0.0,1.0,1.0,1.0,27.0,1.0,55.0,0.0,486.60338299999967,,,,,,,,,486.59691591699993,487.3954237079997,488.1873819170005,488.1795117500005,488.1800550420003,488.1873819170005,488.1873819170005,488.1873819170005,489.63628937500016,,,,,,,,,,,,,,,,,,,,,,,,,,,,,,right,0.0,1.4452055419997123,,,,,,sub-065,1,random_dot,,
left,left,56.0,0.0,28.0,left,1.0,0.4207340830007524,,speed,space,4.031686749999608,,,,,,0.0,1.0,1.0,1.0,28.0,0.0,56.0,0.0,489.64426829200056,,,,,,,,,489.6366092919998,489.9848328329999,490.7771786250005,490.7685237920005,490.7689576250005,490.7771786250005,490.7771786250005,490.7771786250005,491.2019215,,,,,,,,,,,,,,,,,,,,,,,,,,,,,,left,1.0,0.4207340830007524,,,,,,sub-065,1,random_dot,,
right,right,57.0,1.0,28.0,right,1.0,1.0260178340004131,,speed,space,4.031686749999608,,,,,,0.0,1.0,1.0,1.0,28.0,1.0,57.0,1.0,491.2110688330004,,,,,,,,,491.20223004200034,492.4017727500004,493.1938695420004,493.1853898750005,493.1857998329997,493.1938695420004,493.1938695420004,493.1938695420004,494.2304780000004,,,,,,,,,,,,,,,,,,,,,,,,,,,,,,right,1.0,1.0260178340004131,,,,,,sub-065,1,random_dot,,
left,left,58.0,0.0,29.0,right,0.0,1.2647998749998806,,speed,space,4.031686749999608,,,,,,0.0,1.0,1.0,1.0,29.0,0.0,58.0,0.0,494.2374638749998,,,,,,,,,494.2309519170003,494.3287919579998,495.12031908300014,495.1127131250005,495.113153583,495.12031908300014,495.12031908300014,495.12031908300014,496.397509292,,,,,,,,,,,,,,,,,,,,,,,,,,,,,,right,0.0,1.2647998749998806,,,,,,sub-065,1,random_dot,,
right,right,59.0,1.0,29.0,right,1.0,1.8060768340001232,,speed,space,4.031686749999608,,,,,,0.0,1.0,1.0,1.0,29.0,1.0,59.0,1.0,496.4051138330005,,,,,,,,,496.39806962500006,496.49536549999993,497.2873092500004,497.27960220800014,497.2801396249997,497.2873092500004,497.2873092500004,497.2873092500004,499.0964394580005,,,,,,,,,,,,,,,,,,,,,,,,,,,,,,right,1.0,1.8060768340001232,,,,,,sub-065,1,random_dot,,
,,1.0,1.0,0.0,,,,,speed,space,4.031686749999608,,,,,,0.0,1.0,1.0,1.0,,,,,,,,,,,,,,,,,,,,,,,,,,,,,,,,,,,,,,,,,,,,,,,,,,,,,,,,,,,,sub-065,1,random_dot,,
,,,,,,,,,,,,,,,,,,,,,,,,,,,,,,,,,,,,,,,,,,,,,,,,,,,,,,,,,,,,,,,,,,,,,,,,,,,,499.1024506670001,499.1106177920001,504.1008269579997,504.09612933300014,sub-065,1,random_dot,,
