direction,corrAns,thisN,thisTrialN,thisRepN,respDots.keys,respDots.corr,respDots.rt,respDots.duration,randomInstr,respRandomInstr.keys,respRandomInstr.rt,respRandomInstr.duration,practice_trials.thisRepN,practice_trials.thisTrialN,practice_trials.thisN,practice_trials.thisIndex,instr_trials.thisRepN,instr_trials.thisTrialN,instr_trials.thisN,instr_trials.thisIndex,test_trials.thisRepN,test_trials.thisTrialN,test_trials.thisN,test_trials.thisIndex,thisRow.t,notes,general_instruction.started,textGeneralInstr.started,respGeneralInstr.started,general_instruction.stopped,respGeneralInstr.keys,respGeneralInstr.rt,respGeneralInstr.duration,ITI.started,fixcross.started,fixcross.stopped,ITI.stopped,dots.started,backgroundDots.started,stimulusDots.started,respDots.started,dots.stopped,practice_trials.respDots.keys,practice_trials.respDots.corr,practice_trials.respDots.rt,practice_trials.respDots.duration,feedback.started,textFeedback.started,textFeedback.stopped,feedback.stopped,info.started,textInfo.started,keyRespInfo.started,info.stopped,keyRespInfo.keys,keyRespInfo.rt,keyRespInfo.duration,test_instruction.started,textTestInstr.started,respTestInstr.started,test_instruction.stopped,respTestInstr.keys,respTestInstr.rt,respTestInstr.duration,random_instruction.started,textRandomInstr.started,respRandomInstr.started,random_instruction.stopped,instr_trials.respRandomInstr.keys,instr_trials.respRandomInstr.rt,instr_trials.respRandomInstr.duration,test_trials.respDots.keys,test_trials.respDots.corr,test_trials.respDots.rt,test_trials.respDots.duration,goodbye.started,textGoodbye.started,textGoodbye.stopped,goodbye.stopped,participant,session,expName,frameRate,Unnamed: 87
,,,,,,,,,,,,,,,,,,,,,,,,,,,0.0104559390019858,0.0299699500028509,0.0299699500028509,7.295579113000713,space,7.26392516100168,,,,,,,,,,,,,,,,,,,,,,,,,,,,,,,,,,,,,,,,,,,,,,,,sub-173,1,random_dot,89.30477846339137,
right,right,0.0,0.0,0.0,right,1.0,0.9154045190007308,,,,,,0.0,0.0,0.0,1.0,,,,,,,,,7.312932685003034,,,,,,,,,7.303293317003408,8.487880806002067,9.296342898996954,9.27841168300074,9.27897233099793,9.296342898996954,9.296342898996954,9.296342898996954,10.213087076001102,right,1.0,0.9154045190007308,,10.217593540000962,10.22899148400029,10.718454645000747,10.711871191000682,,,,,,,,,,,,,,,,,,,,,,,,,,,,,,sub-173,1,random_dot,89.30477846339137,
left,left,1.0,1.0,0.0,left,1.0,0.8490221050014952,,,,,,0.0,1.0,1.0,0.0,,,,,,,,,10.718454645000747,,,,,,,,,10.712344075996953,11.51136915400275,12.303625385997291,12.295089788996847,12.295610043001943,12.303625385997291,12.303625385997291,12.303625385997291,13.162916979999864,left,1.0,0.8490221050014952,,13.163008859999536,13.17180244300107,13.668613062996885,13.661867691997031,,,,,,,,,,,,,,,,,,,,,,,,,,,,,,sub-173,1,random_dot,89.30477846339137,
left,left,2.0,0.0,1.0,right,0.0,0.6445906919980189,,,,,,1.0,0.0,2.0,0.0,,,,,,,,,13.668613062996885,,,,,,,,,13.662305853998989,13.7615654159963,14.553965920997143,14.54519741999684,14.545713940002315,14.553965920997143,14.553965920997143,14.553965920997143,15.20593892299803,right,0.0,0.6445906919980189,,15.2110120560028,15.221140494999418,,15.71165883699723,,,,,,,,,,,,,,,,,,,,,,,,,,,,,,sub-173,1,random_dot,89.30477846339137,
right,right,3.0,1.0,1.0,left,0.0,1.0706361980046497,,,,,,1.0,1.0,3.0,1.0,,,,,,,,,15.71839235399966,,,,,,,,,15.71214437099843,15.80175206399872,16.594933692002087,16.585425842000404,16.586053633996926,16.594933692002087,16.594933692002087,16.594933692002087,17.667634076002287,left,0.0,1.0706361980046497,,17.667712987000414,17.678300129999116,18.168543234001845,18.161872272998156,,,,,,,,,,,,,,,,,,,,,,,,,,,,,,sub-173,1,random_dot,89.30477846339137,
left,left,4.0,0.0,2.0,right,0.0,1.1051348409964703,,,,,,2.0,0.0,4.0,0.0,,,,,,,,,18.168543234001845,,,,,,,,,18.16231714600144,19.361419519002084,20.154215727998235,20.14513988899853,20.14567017999798,20.154215727998235,20.154215727998235,20.154215727998235,21.26303132299654,right,0.0,1.1051348409964703,,21.26310645599733,21.2720662990032,21.76836967899726,21.761740791000197,,,,,,,,,,,,,,,,,,,,,,,,,,,,,,sub-173,1,random_dot,89.30477846339137,
right,right,5.0,1.0,2.0,right,1.0,0.7391386369999964,,,,,,2.0,1.0,5.0,1.0,,,,,,,,,21.76836967899726,,,,,,,,,21.76217686799646,22.56147028499981,23.354076402996725,23.3450568249973,23.34558151900273,23.354076402996725,23.354076402996725,23.354076402996725,24.095700393001607,right,1.0,0.7391386369999964,,24.09782913699746,24.11084456700337,24.601914653001582,24.59524188700016,,,,,,,,,,,,,,,,,,,,,,,,,,,,,,sub-173,1,random_dot,89.30477846339137,
left,left,6.0,0.0,3.0,left,1.0,1.2482963719958209,,,,,,3.0,0.0,6.0,0.0,,,,,,,,,24.601914653001582,,,,,,,,,24.59568645500258,25.79446460500185,26.58684012400045,26.57819354499952,26.57871480900212,26.58684012400045,26.58684012400045,26.58684012400045,27.83823325699632,left,1.0,1.2482963719958209,,27.838316137997023,27.86049421999633,,28.34462611100025,,,,,,,,,,,,,,,,,,,,,,,,,,,,,,sub-173,1,random_dot,89.30477846339137,
right,right,7.0,1.0,3.0,right,1.0,0.6868665000001783,,,,,,3.0,1.0,7.0,1.0,,,,,,,,,28.350816074998875,,,,,,,,,28.34500220300106,29.53424080299737,30.32822831399972,30.31800856100017,30.318601737999412,30.32822831399972,30.32822831399972,30.32822831399972,31.028705502001685,right,1.0,0.6868665000001783,,31.02885678400344,31.045008091001364,31.535047650002525,31.52831233000325,,,,,,,,,,,,,,,,,,,,,,,,,,,,,,sub-173,1,random_dot,89.30477846339137,
left,left,8.0,0.0,4.0,left,1.0,0.66959849500563,,,,,,4.0,0.0,8.0,0.0,,,,,,,,,31.535047650002525,,,,,,,,,31.52875958399818,32.71817386100156,33.511209258002054,33.50169550199644,33.50230472000112,33.511209258002054,33.511209258002054,33.511209258002054,34.18844561700098,left,1.0,0.66959849500563,,34.1885471889982,34.19759890899877,34.694376612998894,34.68480277300114,,,,,,,,,,,,,,,,,,,,,,,,,,,,,,sub-173,1,random_dot,89.30477846339137,
right,right,9.0,1.0,4.0,right,1.0,0.7783060310030123,,,,,,4.0,1.0,9.0,1.0,,,,,,,,,34.694376612998894,,,,,,,,,34.685345083002176,35.88437974599947,36.67835434400331,36.66801508599747,36.66861279700242,36.67835434400331,36.67835434400331,36.67835434400331,37.46247872799722,right,1.0,0.7783060310030123,,37.4625600770014,37.47133661699627,37.96861681500013,37.961790071,,,,,,,,,,,,,,,,,,,,,,,,,,,,,,sub-173,1,random_dot,89.30477846339137,
right,right,10.0,0.0,5.0,left,0.0,0.6844544209961896,,,,,,5.0,0.0,10.0,1.0,,,,,,,,,37.96861681500013,,,,,,,,,37.96220576999622,38.76143351400242,39.55405441499897,39.54484379600035,39.545324963000894,39.55405441499897,39.55405441499897,39.55405441499897,40.2447418879965,left,0.0,0.6844544209961896,,40.24678403400321,40.25638644099672,,40.74490442100068,,,,,,,,,,,,,,,,,,,,,,,,,,,,,,sub-173,1,random_dot,89.30477846339137,
left,left,11.0,1.0,5.0,left,1.0,1.241273125000589,,,,,,5.0,1.0,11.0,0.0,,,,,,,,,40.75185012300062,,,,,,,,,40.74535539800127,41.53520267100248,42.328460657001415,42.31869479599845,42.319303516997024,42.328460657001415,42.328460657001415,42.328460657001415,43.57763561700267,left,1.0,1.241273125000589,,43.57950591800181,43.59516575500311,,44.07789318900177,,,,,,,,,,,,,,,,,,,,,,,,,,,,,,sub-173,1,random_dot,89.30477846339137,
left,left,12.0,0.0,6.0,left,1.0,0.6543800139988889,,,,,,6.0,0.0,12.0,0.0,,,,,,,,,44.0845366240028,,,,,,,,,44.07834736000223,44.86786030499934,45.662006439000834,45.651338991003286,45.6519407099986,45.662006439000834,45.662006439000834,45.662006439000834,46.322260326000105,left,1.0,0.6543800139988889,,46.32234920100018,46.332299492001766,46.82777725699998,46.81813582399627,,,,,,,,,,,,,,,,,,,,,,,,,,,,,,sub-173,1,random_dot,89.30477846339137,
right,right,13.0,1.0,6.0,right,1.0,0.7590752479954972,,,,,,6.0,1.0,13.0,1.0,,,,,,,,,46.82777725699998,,,,,,,,,46.8186768739979,47.16783695299819,47.961222976999125,47.951421824000136,47.95201188499777,47.961222976999125,47.961222976999125,47.961222976999125,48.72856345699984,right,1.0,0.7590752479954972,,48.72864762300014,48.73548515899893,49.233088485001645,49.22729699499905,,,,,,,,,,,,,,,,,,,,,,,,,,,,,,sub-173,1,random_dot,89.30477846339137,
right,right,14.0,0.0,7.0,left,0.0,1.4045316769988858,,,,,,7.0,0.0,14.0,1.0,,,,,,,,,49.233088485001645,,,,,,,,,49.22771752999688,49.32701206100319,50.118624939001165,50.11056085999735,50.11103678200016,50.118624939001165,50.118624939001165,50.118624939001165,51.52763502099697,left,0.0,1.4045316769988858,,51.52947904999746,51.53659953200258,52.03288016599981,52.02719921099924,,,,,,,,,,,,,,,,,,,,,,,,,,,,,,sub-173,1,random_dot,89.30477846339137,
left,left,15.0,1.0,7.0,right,0.0,1.9639018349989783,,,,,,7.0,1.0,15.0,0.0,,,,,,,,,52.03288016599981,,,,,,,,,52.0276118460024,52.11622032499872,52.91008997100289,52.89950079900154,52.90007810999669,52.91008997100289,52.91008997100289,52.91008997100289,54.87818429499748,right,0.0,1.9639018349989783,,54.87826045700058,54.885169631998,55.3828223849996,55.37716159899719,,,,,,,,,,,,,,,,,,,,,,,,,,,,,,sub-173,1,random_dot,89.30477846339137,
right,right,16.0,0.0,8.0,left,0.0,0.6776907209932688,,,,,,8.0,0.0,16.0,1.0,,,,,,,,,55.3828223849996,,,,,,,,,55.37757333800255,56.17680092700175,56.968236002001504,56.96040083000116,56.96088469000097,56.968236002001504,56.968236002001504,56.968236002001504,57.65180728399719,left,0.0,0.6776907209932688,,57.65192230400135,57.66006141300022,58.1493823109995,58.14373322699976,,,,,,,,,,,,,,,,,,,,,,,,,,,,,,sub-173,1,random_dot,89.30477846339137,
left,left,17.0,1.0,8.0,left,1.0,0.7811692410032265,,,,,,8.0,1.0,17.0,0.0,,,,,,,,,58.1493823109995,,,,,,,,,58.14412651699968,59.34925051499886,60.14348104999954,60.13300160299696,60.133606353003415,60.14348104999954,60.14348104999954,60.14348104999954,60.927604718999646,left,1.0,0.7811692410032265,,60.92953259599744,60.93652509499952,61.43328632700286,61.42734060699877,,,,,,,,,,,,,,,,,,,,,,,,,,,,,,sub-173,1,random_dot,89.30477846339137,
left,left,18.0,0.0,9.0,left,1.0,1.0715877389957311,,,,,,9.0,0.0,18.0,0.0,,,,,,,,,61.43328632700286,,,,,,,,,61.42776026699721,62.6165524340031,63.41107729500072,63.400895917002345,63.40147237700148,63.41107729500072,63.41107729500072,63.41107729500072,64.48536222599796,left,1.0,1.0715877389957311,,64.48545927800296,64.49366897399887,64.98278837600083,64.97704810000141,,,,,,,,,,,,,,,,,,,,,,,,,,,,,,sub-173,1,random_dot,89.30477846339137,
right,right,19.0,1.0,9.0,left,0.0,0.9028276080061914,,,,,,9.0,1.0,19.0,1.0,,,,,,,,,64.98278837600083,,,,,,,,,64.97744425300334,65.78268836299685,66.57670670300286,66.56624441999884,66.56680486100231,66.57670670300286,66.57670670300286,66.57670670300286,67.48558119199879,left,0.0,0.9028276080061914,,67.48741637600324,67.50935165899864,,67.99353511200025,,,,,,,,,,,,,,,,,,,,,,,,,,,,,,sub-173,1,random_dot,89.30477846339137,
,,,,,,,,,,,,,,,,,,,,,,,,,,,,,,,,,,,,,,,,,,,,,,,,,,,67.99370900000213,68.00283476599725,68.00283476599725,69.68402705899643,space,1.676629959998536,,,,,,,,,,,,,,,,,,,,,,,,sub-173,1,random_dot,89.30477846339137,
,,,,,,,,,,,,,,,,,,,,,,,,,,,,,,,,,,,,,,,,,,,,,,,,,,,,,,,,,,69.6840884139965,69.69401928500156,69.69401928500156,72.66754558400135,space,2.9694610349979484,,,,,,,,,,,,,,,,,sub-173,1,random_dot,89.30477846339137,
right,right,0.0,0.0,0.0,left,0.0,0.6298325399984606,,speed,space,4.136876862998179,,,,,,0.0,0.0,0.0,1.0,0.0,0.0,0.0,1.0,76.84812083600264,,,,,,,,,76.83893661599723,76.93415551599901,77.7352602280007,77.72717901600117,77.72763944399776,77.7352602280007,77.7352602280007,77.7352602280007,78.36929474800127,,,,,,,,,,,,,,,,,,,,,,,72.68145223500323,72.69179643900134,72.69179643900134,76.83453833599924,space,4.136876862998179,,left,0.0,0.6298325399984606,,,,,,sub-173,1,random_dot,89.30477846339137,
left,left,1.0,1.0,0.0,right,0.0,0.5796947170019848,,speed,space,4.136876862998179,,,,,,0.0,0.0,0.0,1.0,0.0,1.0,1.0,0.0,78.3774482680019,,,,,,,,,78.36956724800257,78.71649086000252,79.51020106099895,79.50009440699796,79.50066382999648,79.51020106099895,79.51020106099895,79.51020106099895,80.09505250099755,,,,,,,,,,,,,,,,,,,,,,,,,,,,,,right,0.0,0.5796947170019848,,,,,,sub-173,1,random_dot,89.30477846339137,
right,right,2.0,0.0,1.0,left,0.0,0.7769284480018541,,speed,space,4.136876862998179,,,,,,0.0,0.0,0.0,1.0,1.0,0.0,2.0,1.0,80.10185079600342,,,,,,,,,80.095312397003,80.44333834000281,81.23494694999681,81.227005353001,81.22747659600282,81.23494694999681,81.23494694999681,81.23494694999681,82.01931702600268,,,,,,,,,,,,,,,,,,,,,,,,,,,,,,left,0.0,0.7769284480018541,,,,,,sub-173,1,random_dot,89.30477846339137,
left,left,3.0,1.0,1.0,left,1.0,0.8118558739952277,,speed,space,4.136876862998179,,,,,,0.0,0.0,0.0,1.0,1.0,1.0,3.0,0.0,82.02657074700255,,,,,,,,,82.01966565199837,82.36616740399768,83.15998352199676,83.14977981799893,83.15034394800023,83.15998352199676,83.15998352199676,83.15998352199676,83.97767042600026,,,,,,,,,,,,,,,,,,,,,,,,,,,,,,left,1.0,0.8118558739952277,,,,,,sub-173,1,random_dot,89.30477846339137,
left,left,4.0,0.0,2.0,left,1.0,0.829740290006157,,speed,space,4.136876862998179,,,,,,0.0,0.0,0.0,1.0,2.0,0.0,4.0,0.0,83.98446376300126,,,,,,,,,83.97793353300221,85.1766024269964,85.96809062200191,85.96024462700007,85.9607020409967,85.96809062200191,85.96809062200191,85.96809062200191,86.80224731400085,,,,,,,,,,,,,,,,,,,,,,,,,,,,,,left,1.0,0.829740290006157,,,,,,sub-173,1,random_dot,89.30477846339137,
right,right,5.0,1.0,2.0,right,1.0,0.918351428997994,,speed,space,4.136876862998179,,,,,,0.0,0.0,0.0,1.0,2.0,1.0,5.0,1.0,86.8103031790015,,,,,,,,,86.80253782799991,87.14940167099849,87.94324209800106,87.93309023299662,87.93369787200209,87.94324209800106,87.94324209800106,87.94324209800106,88.86925385799987,,,,,,,,,,,,,,,,,,,,,,,,,,,,,,right,1.0,0.918351428997994,,,,,,sub-173,1,random_dot,89.30477846339137,
right,right,6.0,0.0,3.0,left,0.0,0.7754973159971996,,speed,space,4.136876862998179,,,,,,0.0,0.0,0.0,1.0,3.0,0.0,6.0,1.0,88.8765722820026,,,,,,,,,88.86958484599745,89.66604651899979,90.4600081949975,90.449723341997,90.45028653099872,90.4600081949975,90.4600081949975,90.4600081949975,91.24361239399876,,,,,,,,,,,,,,,,,,,,,,,,,,,,,,left,0.0,0.7754973159971996,,,,,,sub-173,1,random_dot,89.30477846339137,
left,left,7.0,1.0,3.0,right,0.0,0.8250578340011998,,speed,space,4.136876862998179,,,,,,0.0,0.0,0.0,1.0,3.0,1.0,7.0,0.0,91.25082827099686,,,,,,,,,91.2438974109973,91.58241352200277,92.37637269900006,92.36592774499876,92.36649006899825,92.37637269900006,92.37637269900006,92.37637269900006,93.2097627740004,,,,,,,,,,,,,,,,,,,,,,,,,,,,,,right,0.0,0.8250578340011998,,,,,,sub-173,1,random_dot,89.30477846339137,
right,right,8.0,0.0,4.0,left,0.0,0.5121012490053545,,speed,space,4.136876862998179,,,,,,0.0,0.0,0.0,1.0,4.0,0.0,8.0,1.0,93.21737484700134,,,,,,,,,93.21010165999904,94.39898776100016,95.19327689600324,95.18292888299766,95.1835116489965,95.19327689600324,95.19327689600324,95.19327689600324,95.7105331999992,,,,,,,,,,,,,,,,,,,,,,,,,,,,,,left,0.0,0.5121012490053545,,,,,,sub-173,1,random_dot,89.30477846339137,
left,left,9.0,1.0,4.0,left,1.0,0.6457774049995351,,speed,space,4.136876862998179,,,,,,0.0,0.0,0.0,1.0,4.0,1.0,9.0,0.0,95.7178233070008,,,,,,,,,95.71080805599922,96.05970736600284,96.85255628699817,96.84397677399828,96.8444314139997,96.85255628699817,96.85255628699817,96.85255628699817,97.51141636900138,,,,,,,,,,,,,,,,,,,,,,,,,,,,,,left,1.0,0.6457774049995351,,,,,,sub-173,1,random_dot,89.30477846339137,
left,left,10.0,0.0,5.0,right,0.0,0.6071639790025074,,speed,space,4.136876862998179,,,,,,0.0,0.0,0.0,1.0,5.0,0.0,10.0,0.0,97.52015880300314,,,,,,,,,97.51194672300336,97.61035702699884,98.40317468700232,98.39420358600182,98.39465694699902,98.40317468700232,98.40317468700232,98.40317468700232,99.01596024000172,,,,,,,,,,,,,,,,,,,,,,,,,,,,,,right,0.0,0.6071639790025074,,,,,,sub-173,1,random_dot,89.30477846339137,
right,right,11.0,1.0,5.0,left,0.0,0.8675349589975667,,speed,space,4.136876862998179,,,,,,0.0,0.0,0.0,1.0,5.0,1.0,11.0,1.0,99.0269624010034,,,,,,,,,99.01624465199713,99.11052777800067,99.90254250999716,99.89394929700212,99.89439773000048,99.90254250999716,99.90254250999716,99.90254250999716,100.7775653810022,,,,,,,,,,,,,,,,,,,,,,,,,,,,,,left,0.0,0.8675349589975667,,,,,,sub-173,1,random_dot,89.30477846339137,
right,right,12.0,0.0,6.0,left,0.0,0.6910303160038893,,speed,space,4.136876862998179,,,,,,0.0,0.0,0.0,1.0,6.0,0.0,12.0,1.0,100.78520611600106,,,,,,,,,100.7778932509973,101.56687468499877,102.36103445199842,102.350565859997,102.35113747099967,102.36103445199842,102.36103445199842,102.36103445199842,103.05480363900278,,,,,,,,,,,,,,,,,,,,,,,,,,,,,,left,0.0,0.6910303160038893,,,,,,sub-173,1,random_dot,89.30477846339137,
left,left,13.0,1.0,6.0,right,0.0,1.1402733100039768,,speed,space,4.136876862998179,,,,,,0.0,0.0,0.0,1.0,6.0,1.0,13.0,0.0,103.06454308200044,,,,,,,,,103.05509908300156,103.85077427500072,104.64375694400223,104.63453053499688,104.63505576700118,104.64375694400223,104.64375694400223,104.64375694400223,105.786873887002,,,,,,,,,,,,,,,,,,,,,,,,,,,,,,right,0.0,1.1402733100039768,,,,,,sub-173,1,random_dot,89.30477846339137,
right,right,14.0,0.0,7.0,left,0.0,0.6491986909968546,,speed,space,4.136876862998179,,,,,,0.0,0.0,0.0,1.0,7.0,0.0,14.0,1.0,105.79475865099812,,,,,,,,,105.7871558650004,106.98365913699672,107.77773771800275,107.7671405489964,107.7677041019997,107.77773771800275,107.77773771800275,107.77773771800275,108.42919406099828,,,,,,,,,,,,,,,,,,,,,,,,,,,,,,left,0.0,0.6491986909968546,,,,,,sub-173,1,random_dot,89.30477846339137,
left,left,15.0,1.0,7.0,right,0.0,0.7986936859961133,,speed,space,4.136876862998179,,,,,,0.0,0.0,0.0,1.0,7.0,1.0,15.0,0.0,108.43696117700163,,,,,,,,,108.42950013600056,109.62710601800065,110.41918776599778,110.4104852590026,110.41095784299978,110.41918776599778,110.41918776599778,110.41918776599778,111.22135952599638,,,,,,,,,,,,,,,,,,,,,,,,,,,,,,right,0.0,0.7986936859961133,,,,,,sub-173,1,random_dot,89.30477846339137,
right,right,16.0,0.0,8.0,left,0.0,0.8500633680014289,,speed,space,4.136876862998179,,,,,,0.0,0.0,0.0,1.0,8.0,0.0,16.0,1.0,111.23091776500225,,,,,,,,,111.22165739299815,112.41758113799732,113.21069122199695,113.20100565900066,113.2015575100013,113.21069122199695,113.21069122199695,113.21069122199695,114.06197886599692,,,,,,,,,,,,,,,,,,,,,,,,,,,,,,left,0.0,0.8500633680014289,,,,,,sub-173,1,random_dot,89.30477846339137,
left,left,17.0,1.0,8.0,right,0.0,1.049129881997942,,speed,space,4.136876862998179,,,,,,0.0,0.0,0.0,1.0,8.0,1.0,17.0,0.0,114.0690676899976,,,,,,,,,114.06225578400336,114.1603215819996,114.9524990189966,114.94381746,114.94430041700252,114.9524990189966,114.9524990189966,114.9524990189966,116.01145868399908,,,,,,,,,,,,,,,,,,,,,,,,,,,,,,right,0.0,1.049129881997942,,,,,,sub-173,1,random_dot,89.30477846339137,
left,left,18.0,0.0,9.0,right,0.0,1.618529124003544,,speed,space,4.136876862998179,,,,,,0.0,0.0,0.0,1.0,9.0,0.0,18.0,0.0,116.02081955500034,,,,,,,,,116.0117785179973,116.81031659700238,117.60304051000276,117.59397561300284,117.59442812199995,117.60304051000276,117.60304051000276,117.60304051000276,119.23330559900204,,,,,,,,,,,,,,,,,,,,,,,,,,,,,,right,0.0,1.618529124003544,,,,,,sub-173,1,random_dot,89.30477846339137,
right,right,19.0,1.0,9.0,left,0.0,0.5833463289964129,,speed,space,4.136876862998179,,,,,,0.0,0.0,0.0,1.0,9.0,1.0,19.0,1.0,119.24409954399744,,,,,,,,,119.23369226700017,120.42667975099904,121.21912300500117,121.21033522100332,121.21079085199744,121.21912300500117,121.21912300500117,121.21912300500117,121.8043146179989,,,,,,,,,,,,,,,,,,,,,,,,,,,,,,left,0.0,0.5833463289964129,,,,,,sub-173,1,random_dot,89.30477846339137,
left,left,20.0,0.0,10.0,right,0.0,0.7342518320001545,,speed,space,4.136876862998179,,,,,,0.0,0.0,0.0,1.0,10.0,0.0,20.0,0.0,121.8114211400025,,,,,,,,,121.80458890100272,122.6001038530012,123.39423137500124,123.38358367599722,123.38416368400068,123.39423137500124,123.39423137500124,123.39423137500124,124.14448788500158,,,,,,,,,,,,,,,,,,,,,,,,,,,,,,right,0.0,0.7342518320001545,,,,,,sub-173,1,random_dot,89.30477846339137,
right,right,21.0,1.0,10.0,right,1.0,0.7020722090019262,,speed,space,4.136876862998179,,,,,,0.0,0.0,0.0,1.0,10.0,1.0,21.0,1.0,124.16079149099824,,,,,,,,,124.14496999300172,124.9339638570018,125.72719640900324,125.71748051400208,125.7180559949993,125.72719640900324,125.72719640900324,125.72719640900324,126.43826386999716,,,,,,,,,,,,,,,,,,,,,,,,,,,,,,right,1.0,0.7020722090019262,,,,,,sub-173,1,random_dot,89.30477846339137,
left,left,22.0,0.0,11.0,left,1.0,0.6682906540008844,,speed,space,4.136876862998179,,,,,,0.0,0.0,0.0,1.0,11.0,0.0,22.0,0.0,126.44773281700328,,,,,,,,,126.438678368002,127.23393946699798,128.02690292600164,128.01708294799755,128.0177069279962,128.02690292600164,128.02690292600164,128.02690292600164,128.70348588100023,,,,,,,,,,,,,,,,,,,,,,,,,,,,,,left,1.0,0.6682906540008844,,,,,,sub-173,1,random_dot,89.30477846339137,
right,right,23.0,1.0,11.0,right,1.0,0.6990867200001958,,speed,space,4.136876862998179,,,,,,0.0,0.0,0.0,1.0,11.0,1.0,23.0,1.0,128.71340488499845,,,,,,,,,128.70387252599903,128.80054744699737,129.59313878200192,129.58377150400338,129.58436958999664,129.59313878200192,129.59313878200192,129.59313878200192,130.29373027700058,,,,,,,,,,,,,,,,,,,,,,,,,,,,,,right,1.0,0.6990867200001958,,,,,,sub-173,1,random_dot,89.30477846339137,
right,right,24.0,0.0,12.0,right,1.0,1.2602703370066592,,speed,space,4.136876862998179,,,,,,0.0,0.0,0.0,1.0,12.0,0.0,24.0,1.0,130.3107995649989,,,,,,,,,130.29400518700277,131.08354588400107,131.87768745599897,131.86697172000277,131.8675729000024,131.87768745599897,131.87768745599897,131.87768745599897,133.14991187599662,,,,,,,,,,,,,,,,,,,,,,,,,,,,,,right,1.0,1.2602703370066592,,,,,,sub-173,1,random_dot,89.30477846339137,
left,left,25.0,1.0,12.0,right,0.0,1.9050873469968792,,speed,space,4.136876862998179,,,,,,0.0,0.0,0.0,1.0,12.0,1.0,25.0,0.0,133.1605161510015,,,,,,,,,133.15028825199988,133.4934588449978,134.28595034799946,134.27686682299827,134.2773539539994,134.28595034799946,134.28595034799946,134.28595034799946,136.2000076819968,,,,,,,,,,,,,,,,,,,,,,,,,,,,,,right,0.0,1.9050873469968792,,,,,,sub-173,1,random_dot,89.30477846339137,
right,right,26.0,0.0,13.0,right,1.0,0.925169686001027,,speed,space,4.136876862998179,,,,,,0.0,0.0,0.0,1.0,13.0,0.0,26.0,1.0,136.21055792699917,,,,,,,,,136.20034956699965,136.54344399699767,137.33566026199696,137.3268065049997,137.32729304100212,137.33566026199696,137.33566026199696,137.33566026199696,138.2714697440024,,,,,,,,,,,,,,,,,,,,,,,,,,,,,,right,1.0,0.925169686001027,,,,,,sub-173,1,random_dot,89.30477846339137,
left,left,27.0,1.0,13.0,left,1.0,0.8706673359993147,,speed,space,4.136876862998179,,,,,,0.0,0.0,0.0,1.0,13.0,1.0,27.0,0.0,138.28121533899684,,,,,,,,,138.27180979699915,139.06711927300057,139.86096529100178,139.85072730400134,139.85133548500016,139.86096529100178,139.86096529100178,139.86096529100178,140.74527435100026,,,,,,,,,,,,,,,,,,,,,,,,,,,,,,left,1.0,0.8706673359993147,,,,,,sub-173,1,random_dot,89.30477846339137,
right,right,28.0,0.0,14.0,right,1.0,0.7030638119977084,,speed,space,4.136876862998179,,,,,,0.0,0.0,0.0,1.0,14.0,0.0,28.0,1.0,140.7559650740004,,,,,,,,,140.74566528599826,141.0933524209977,141.88555250899662,141.87676427300175,141.87724567799887,141.88555250899662,141.88555250899662,141.88555250899662,142.61068440900272,,,,,,,,,,,,,,,,,,,,,,,,,,,,,,right,1.0,0.7030638119977084,,,,,,sub-173,1,random_dot,89.30477846339137,
left,left,29.0,1.0,14.0,left,1.0,0.9875741010037018,,speed,space,4.136876862998179,,,,,,0.0,0.0,0.0,1.0,14.0,1.0,29.0,0.0,142.62679052600288,,,,,,,,,142.61119370300003,142.70098624099774,143.5020359839982,143.49342308100313,143.49390375499934,143.5020359839982,143.5020359839982,143.5020359839982,144.49439360399992,,,,,,,,,,,,,,,,,,,,,,,,,,,,,,left,1.0,0.9875741010037018,,,,,,sub-173,1,random_dot,89.30477846339137,
right,right,30.0,0.0,15.0,right,1.0,1.11329192899575,,speed,space,4.136876862998179,,,,,,0.0,0.0,0.0,1.0,15.0,0.0,30.0,1.0,144.50287867899897,,,,,,,,,144.49468052500015,144.84308678399975,145.63617318499746,145.62682780100295,145.62734751500102,145.63617318499746,145.63617318499746,145.63617318499746,146.76155420499708,,,,,,,,,,,,,,,,,,,,,,,,,,,,,,right,1.0,1.11329192899575,,,,,,sub-173,1,random_dot,89.30477846339137,
left,left,31.0,1.0,15.0,left,1.0,1.6132670709994272,,speed,space,4.136876862998179,,,,,,0.0,0.0,0.0,1.0,15.0,1.0,31.0,0.0,146.7709761090009,,,,,,,,,146.7620435630015,147.5599620799985,148.35218422899925,148.3433171630022,148.34380131999933,148.35218422899925,148.35218422899925,148.35218422899925,149.9712823000009,,,,,,,,,,,,,,,,,,,,,,,,,,,,,,left,1.0,1.6132670709994272,,,,,,sub-173,1,random_dot,89.30477846339137,
right,right,32.0,0.0,16.0,right,1.0,1.3504255180014295,,speed,space,4.136876862998179,,,,,,0.0,0.0,0.0,1.0,16.0,0.0,32.0,1.0,149.98129737000272,,,,,,,,,149.97157533399877,151.1649321520017,151.95881400399958,151.94846673199936,151.94891657699918,151.95881400399958,151.95881400399958,151.95881400399958,153.3164746350012,,,,,,,,,,,,,,,,,,,,,,,,,,,,,,right,1.0,1.3504255180014295,,,,,,sub-173,1,random_dot,89.30477846339137,
left,left,33.0,1.0,16.0,right,0.0,1.315666500995576,,speed,space,4.136876862998179,,,,,,0.0,0.0,0.0,1.0,16.0,1.0,33.0,0.0,153.32516064200172,,,,,,,,,153.31674924099934,154.51489329899778,155.30846806099726,155.29768228500325,155.2981823759983,155.30846806099726,155.30846806099726,155.30846806099726,156.62619093299872,,,,,,,,,,,,,,,,,,,,,,,,,,,,,,right,0.0,1.315666500995576,,,,,,sub-173,1,random_dot,89.30477846339137,
right,right,34.0,0.0,17.0,right,1.0,0.980280240997672,,speed,space,4.136876862998179,,,,,,0.0,0.0,0.0,1.0,17.0,0.0,34.0,1.0,156.6345567190001,,,,,,,,,156.6265976900031,157.4149504559973,158.20881598800042,158.1983409980021,158.19886625900108,158.20881598800042,158.20881598800042,158.20881598800042,159.19304924499738,,,,,,,,,,,,,,,,,,,,,,,,,,,,,,right,1.0,0.980280240997672,,,,,,sub-173,1,random_dot,89.30477846339137,
left,left,35.0,1.0,17.0,left,1.0,0.9393172090058216,,speed,space,4.136876862998179,,,,,,0.0,0.0,0.0,1.0,17.0,1.0,35.0,0.0,159.20011327500106,,,,,,,,,159.19331881400285,160.38196228400193,161.1756511229978,161.16528252200078,161.16584693200275,161.1756511229978,161.1756511229978,161.1756511229978,162.1186202329991,,,,,,,,,,,,,,,,,,,,,,,,,,,,,,left,1.0,0.9393172090058216,,,,,,sub-173,1,random_dot,89.30477846339137,
right,right,36.0,0.0,18.0,right,1.0,1.252713224996114,,speed,space,4.136876862998179,,,,,,0.0,0.0,0.0,1.0,18.0,0.0,36.0,1.0,162.12572000799992,,,,,,,,,162.1188866759985,162.91509826399852,163.7090324180026,163.6987828689962,163.69934781500342,163.7090324180026,163.7090324180026,163.7090324180026,164.96861452300072,,,,,,,,,,,,,,,,,,,,,,,,,,,,,,right,1.0,1.252713224996114,,,,,,sub-173,1,random_dot,89.30477846339137,
left,left,37.0,1.0,18.0,right,0.0,0.847810343002493,,speed,space,4.136876862998179,,,,,,0.0,0.0,0.0,1.0,18.0,1.0,37.0,0.0,164.9760416229983,,,,,,,,,164.96892235799896,166.16519959900324,166.95893007399718,166.9486886070008,166.94928057400102,166.95893007399718,166.95893007399718,166.95893007399718,167.80995286600228,,,,,,,,,,,,,,,,,,,,,,,,,,,,,,right,0.0,0.847810343002493,,,,,,sub-173,1,random_dot,89.30477846339137,
left,left,38.0,0.0,19.0,right,0.0,1.0554749579969211,,speed,space,4.136876862998179,,,,,,0.0,0.0,0.0,1.0,19.0,0.0,38.0,0.0,167.8171938969972,,,,,,,,,167.810215755002,168.60887028100117,169.40030426700105,169.39242973799992,169.39288334100274,169.40030426700105,169.40030426700105,169.40030426700105,170.46030537899787,,,,,,,,,,,,,,,,,,,,,,,,,,,,,,right,0.0,1.0554749579969211,,,,,,sub-173,1,random_dot,89.30477846339137,
right,right,39.0,1.0,19.0,left,0.0,1.2089033060037764,,speed,space,4.136876862998179,,,,,,0.0,0.0,0.0,1.0,19.0,1.0,39.0,1.0,170.46817537299648,,,,,,,,,170.46057912200197,171.65871486700053,172.4505278860015,172.44248204099858,172.44296262299758,172.4505278860015,172.4505278860015,172.4505278860015,173.66784478699992,,,,,,,,,,,,,,,,,,,,,,,,,,,,,,left,0.0,1.2089033060037764,,,,,,sub-173,1,random_dot,89.30477846339137,
left,left,40.0,0.0,20.0,right,0.0,1.107579657000315,,speed,space,4.136876862998179,,,,,,0.0,0.0,0.0,1.0,20.0,0.0,40.0,0.0,173.67470042200148,,,,,,,,,173.66819889999897,173.764924410003,174.55876464200264,174.54859237700293,174.5491613139966,174.55876464200264,174.55876464200264,174.55876464200264,175.67605784199986,,,,,,,,,,,,,,,,,,,,,,,,,,,,,,right,0.0,1.107579657000315,,,,,,sub-173,1,random_dot,89.30477846339137,
right,right,41.0,1.0,20.0,right,1.0,1.984523833001731,,speed,space,4.136876862998179,,,,,,0.0,0.0,0.0,1.0,20.0,1.0,41.0,1.0,175.6829396719986,,,,,,,,,175.67637649399694,175.7649856229982,176.55878806099645,176.5485958779973,176.5491654389989,176.55878806099645,176.55878806099645,176.55878806099645,178.55101929700322,,,,,,,,,,,,,,,,,,,,,,,,,,,,,,right,1.0,1.984523833001731,,,,,,sub-173,1,random_dot,89.30477846339137,
left,left,42.0,0.0,21.0,right,0.0,0.9520925660035572,,speed,space,4.136876862998179,,,,,,0.0,0.0,0.0,1.0,21.0,0.0,42.0,0.0,178.55940793899936,,,,,,,,,178.55135629900178,179.74806326399994,180.54204332800143,180.53177039,180.53235313000187,180.54204332800143,180.54204332800143,180.54204332800143,181.50088867299928,,,,,,,,,,,,,,,,,,,,,,,,,,,,,,right,0.0,0.9520925660035572,,,,,,sub-173,1,random_dot,89.30477846339137,
right,right,43.0,1.0,21.0,left,0.0,1.3012171739974292,,speed,space,4.136876862998179,,,,,,0.0,0.0,0.0,1.0,21.0,1.0,43.0,1.0,181.5090762089967,,,,,,,,,181.5011819599968,181.84817569699956,182.6418492169978,182.63171498799784,182.63230642399867,182.6418492169978,182.6418492169978,182.6418492169978,183.95093467400147,,,,,,,,,,,,,,,,,,,,,,,,,,,,,,left,0.0,1.3012171739974292,,,,,,sub-173,1,random_dot,89.30477846339137,
right,right,44.0,0.0,22.0,left,0.0,0.7620429999951739,,speed,space,4.136876862998179,,,,,,0.0,0.0,0.0,1.0,22.0,0.0,44.0,1.0,183.95954943200195,,,,,,,,,183.95131802599644,184.7481553899997,185.5419865619988,185.5317560050025,185.53234806600085,185.5419865619988,185.5419865619988,185.5419865619988,186.30970215900012,,,,,,,,,,,,,,,,,,,,,,,,,,,,,,left,0.0,0.7620429999951739,,,,,,sub-173,1,random_dot,89.30477846339137,
left,left,45.0,1.0,22.0,right,0.0,1.4168843000006746,,speed,space,4.136876862998179,,,,,,0.0,0.0,0.0,1.0,22.0,1.0,45.0,0.0,186.31652074799783,,,,,,,,,186.30996289099855,186.65863956200337,187.45008527499888,187.44223721099843,187.4426907520028,187.45008527499888,187.45008527499888,187.45008527499888,188.87615205100155,,,,,,,,,,,,,,,,,,,,,,,,,,,,,,right,0.0,1.4168843000006746,,,,,,sub-173,1,random_dot,89.30477846339137,
right,right,46.0,0.0,23.0,right,1.0,1.1963525750034023,,speed,space,4.136876862998179,,,,,,0.0,0.0,0.0,1.0,23.0,0.0,46.0,1.0,188.8825268020009,,,,,,,,,188.87643576400296,189.21467274700265,190.00850793199788,189.99821839299693,189.99874391299815,190.00850793199788,190.00850793199788,190.00850793199788,191.2096094700028,,,,,,,,,,,,,,,,,,,,,,,,,,,,,,right,1.0,1.1963525750034023,,,,,,sub-173,1,random_dot,89.30477846339137,
left,left,47.0,1.0,23.0,right,0.0,1.895811534996028,,speed,space,4.136876862998179,,,,,,0.0,0.0,0.0,1.0,23.0,1.0,47.0,0.0,191.21646788199723,,,,,,,,,191.20987415599663,191.5583366680003,192.35001631700288,192.34200301999957,192.3424854839977,192.35001631700288,192.35001631700288,192.35001631700288,194.25030418900133,,,,,,,,,,,,,,,,,,,,,,,,,,,,,,right,0.0,1.895811534996028,,,,,,sub-173,1,random_dot,89.30477846339137,
left,left,48.0,0.0,24.0,left,1.0,1.3587666690000333,,speed,space,4.136876862998179,,,,,,0.0,0.0,0.0,1.0,24.0,0.0,48.0,0.0,194.25822644500292,,,,,,,,,194.25057010100136,195.0481345599983,195.8418240940009,195.8314372370005,195.83196743499863,195.8418240940009,195.8418240940009,195.8418240940009,197.2094277919969,,,,,,,,,,,,,,,,,,,,,,,,,,,,,,left,1.0,1.3587666690000333,,,,,,sub-173,1,random_dot,89.30477846339137,
right,right,49.0,1.0,24.0,left,0.0,1.336318226000003,,speed,space,4.136876862998179,,,,,,0.0,0.0,0.0,1.0,24.0,1.0,49.0,1.0,197.21624377199623,,,,,,,,,197.2097677999991,198.00846222599648,198.80010333300012,198.792048659001,198.79253342800075,198.80010333300012,198.80010333300012,198.80010333300012,200.14305007700025,,,,,,,,,,,,,,,,,,,,,,,,,,,,,,left,0.0,1.336318226000003,,,,,,sub-173,1,random_dot,89.30477846339137,
left,left,50.0,0.0,25.0,left,1.0,1.1229376740011503,,speed,space,4.136876862998179,,,,,,0.0,0.0,0.0,1.0,25.0,0.0,50.0,0.0,200.15083631000016,,,,,,,,,200.1433648289967,200.49178301999927,201.283457532998,201.2753514069991,201.27583988200055,201.283457532998,201.283457532998,201.283457532998,202.40964115899988,,,,,,,,,,,,,,,,,,,,,,,,,,,,,,left,1.0,1.1229376740011503,,,,,,sub-173,1,random_dot,89.30477846339137,
right,right,51.0,1.0,25.0,right,1.0,1.0345009010052308,,speed,space,4.136876862998179,,,,,,0.0,0.0,0.0,1.0,25.0,1.0,51.0,1.0,202.4164191890013,,,,,,,,,202.4098971679996,202.5083472059996,203.29982723500143,203.2920066950028,203.29245760299816,203.29982723500143,203.29982723500143,203.29982723500143,204.3426082090009,,,,,,,,,,,,,,,,,,,,,,,,,,,,,,right,1.0,1.0345009010052308,,,,,,sub-173,1,random_dot,89.30477846339137,
right,right,52.0,0.0,26.0,right,1.0,1.1187882750018616,,speed,space,4.136876862998179,,,,,,0.0,0.0,0.0,1.0,26.0,0.0,52.0,1.0,204.35050222800052,,,,,,,,,204.34292262300005,205.54169909800112,206.33345112000097,206.32537662899995,206.32582454999647,206.33345112000097,206.33345112000097,206.33345112000097,207.45967026599828,,,,,,,,,,,,,,,,,,,,,,,,,,,,,,right,1.0,1.1187882750018616,,,,,,sub-173,1,random_dot,89.30477846339137,
left,left,53.0,1.0,26.0,left,1.0,0.7641132080025272,,speed,space,4.136876862998179,,,,,,0.0,0.0,0.0,1.0,26.0,1.0,53.0,0.0,207.46658064799703,,,,,,,,,207.45995379099625,208.658337629,209.45002918400127,209.4419203150028,209.44237106200308,209.45002918400127,209.45002918400127,209.45002918400127,210.21718790200248,,,,,,,,,,,,,,,,,,,,,,,,,,,,,,left,1.0,0.7641132080025272,,,,,,sub-173,1,random_dot,89.30477846339137,
left,left,54.0,0.0,27.0,right,0.0,1.049759733999963,,speed,space,4.136876862998179,,,,,,0.0,0.0,0.0,1.0,27.0,0.0,54.0,0.0,210.22578498799703,,,,,,,,,210.21750655199867,210.5643934969994,211.3581948900028,211.3479332019997,211.3485063150001,211.3581948900028,211.3581948900028,211.3581948900028,212.40965755900103,,,,,,,,,,,,,,,,,,,,,,,,,,,,,,right,0.0,1.049759733999963,,,,,,sub-173,1,random_dot,89.30477846339137,
right,right,55.0,1.0,27.0,right,1.0,0.8670681079966016,,speed,space,4.136876862998179,,,,,,0.0,0.0,0.0,1.0,27.0,1.0,55.0,1.0,212.4155562640008,,,,,,,,,212.40994069899895,212.50811179699667,213.29984926999896,213.29191620500205,213.29239600899743,213.29984926999896,213.29984926999896,213.29984926999896,214.1762838950017,,,,,,,,,,,,,,,,,,,,,,,,,,,,,,right,1.0,0.8670681079966016,,,,,,sub-173,1,random_dot,89.30477846339137,
left,left,56.0,0.0,28.0,right,0.0,1.4950684630020987,,speed,space,4.136876862998179,,,,,,0.0,0.0,0.0,1.0,28.0,0.0,56.0,0.0,214.1833219109976,,,,,,,,,214.1765715069996,215.3754440499979,216.1677164369976,216.15909498400288,216.1595539819973,216.1677164369976,216.1677164369976,216.1677164369976,217.6703747950014,,,,,,,,,,,,,,,,,,,,,,,,,,,,,,right,0.0,1.4950684630020987,,,,,,sub-173,1,random_dot,89.30477846339137,
right,right,57.0,1.0,28.0,right,1.0,1.5090318680013295,,speed,space,4.136876862998179,,,,,,0.0,0.0,0.0,1.0,28.0,1.0,57.0,1.0,217.68042626300303,,,,,,,,,217.67064657699663,218.01528639200117,218.80957352399852,218.7989683199994,218.7995693299963,218.80957352399852,218.80957352399852,218.80957352399852,220.32674800600216,,,,,,,,,,,,,,,,,,,,,,,,,,,,,,right,1.0,1.5090318680013295,,,,,,sub-173,1,random_dot,89.30477846339137,
right,right,58.0,0.0,29.0,left,0.0,1.0689658839983167,,speed,space,4.136876862998179,,,,,,0.0,0.0,0.0,1.0,29.0,0.0,58.0,1.0,220.33545607599808,,,,,,,,,220.32706862899795,221.52540618200143,222.3177781900013,222.30904108999675,222.3094940709998,222.3177781900013,222.3177781900013,222.3177781900013,223.39171652599907,,,,,,,,,,,,,,,,,,,,,,,,,,,,,,left,0.0,1.0689658839983167,,,,,,sub-173,1,random_dot,89.30477846339137,
left,left,59.0,1.0,29.0,left,1.0,0.7335224359994754,,speed,space,4.136876862998179,,,,,,0.0,0.0,0.0,1.0,29.0,1.0,59.0,0.0,223.40104485600023,,,,,,,,,223.39200800300023,223.73201719800272,224.5251531410031,224.51580518500123,224.51639843799785,224.5251531410031,224.5251531410031,224.5251531410031,225.26518270000088,,,,,,,,,,,,,,,,,,,,,,,,,,,,,,left,1.0,0.7335224359994754,,,,,,sub-173,1,random_dot,89.30477846339137,
,,0.0,0.0,0.0,,,,,speed,space,4.136876862998179,,,,,,0.0,0.0,0.0,1.0,,,,,,,,,,,,,,,,,,,,,,,,,,,,,,,,,,,,,,,,,,,,,,,,,,,,,,,,,,,,sub-173,1,random_dot,89.30477846339137,
right,right,0.0,0.0,0.0,right,1.0,2.306448688999808,,accuracy,space,2.474141738995968,,,,,,0.0,1.0,1.0,0.0,0.0,0.0,0.0,1.0,227.7838435529993,,,,,,,,,227.77491450800156,228.96540722800276,229.75965296199865,229.7489654469973,229.74957754099887,229.75965296199865,229.75965296199865,229.75965296199865,232.0700188859992,,,,,,,,,,,,,,,,,,,,,,,225.27576627000235,225.2853571980013,225.2853571980013,227.76768108800024,space,2.474141738995968,,right,1.0,2.306448688999808,,,,,,sub-173,1,random_dot,89.30477846339137,
left,left,1.0,1.0,0.0,left,1.0,1.3946499480007333,,accuracy,space,2.474141738995968,,,,,,0.0,1.0,1.0,0.0,0.0,1.0,1.0,0.0,232.07997428400267,,,,,,,,,232.07029054399757,232.86534540299908,233.6579630970009,233.64924966500257,233.6497348539997,233.6579630970009,233.6579630970009,233.6579630970009,235.0598142689996,,,,,,,,,,,,,,,,,,,,,,,,,,,,,,left,1.0,1.3946499480007333,,,,,,sub-173,1,random_dot,89.30477846339137,
right,right,2.0,0.0,1.0,right,1.0,1.1231817599982603,,accuracy,space,2.474141738995968,,,,,,0.0,1.0,1.0,0.0,1.0,0.0,2.0,1.0,235.06857782600127,,,,,,,,,235.0601409559968,235.40879751600005,236.2014253390007,236.19244243999856,236.19292389399925,236.2014253390007,236.2014253390007,236.2014253390007,237.3324753740017,,,,,,,,,,,,,,,,,,,,,,,,,,,,,,right,1.0,1.1231817599982603,,,,,,sub-173,1,random_dot,89.30477846339137,
left,left,3.0,1.0,1.0,left,1.0,0.7773333479999565,,accuracy,space,2.474141738995968,,,,,,0.0,1.0,1.0,0.0,1.0,1.0,3.0,0.0,237.34098234200064,,,,,,,,,237.33285101300132,237.67535055500048,238.46802631200265,238.45902268600184,238.45951059900108,238.46802631200265,238.46802631200265,238.46802631200265,239.2534521549969,,,,,,,,,,,,,,,,,,,,,,,,,,,,,,left,1.0,0.7773333479999565,,,,,,sub-173,1,random_dot,89.30477846339137,
right,right,4.0,0.0,2.0,right,1.0,0.7036044390042662,,accuracy,space,2.474141738995968,,,,,,0.0,1.0,1.0,0.0,2.0,0.0,4.0,1.0,239.26355585899728,,,,,,,,,239.2538937740028,240.4487378900012,241.24160299300277,241.2321292780034,241.2327295430005,241.24160299300277,241.24160299300277,241.24160299300277,241.9481355109965,,,,,,,,,,,,,,,,,,,,,,,,,,,,,,right,1.0,0.7036044390042662,,,,,,sub-173,1,random_dot,89.30477846339137,
left,left,5.0,1.0,2.0,right,0.0,0.8950024600053439,,accuracy,space,2.474141738995968,,,,,,0.0,1.0,1.0,0.0,2.0,1.0,5.0,0.0,241.95889790300131,,,,,,,,,241.94839679000145,243.1417431779992,243.93422661800287,243.9254007299969,243.9258884380033,243.93422661800287,243.93422661800287,243.93422661800287,244.83663126300235,,,,,,,,,,,,,,,,,,,,,,,,,,,,,,right,0.0,0.8950024600053439,,,,,,sub-173,1,random_dot,89.30477846339137,
left,left,6.0,0.0,3.0,left,1.0,0.9140033580042656,,accuracy,space,2.474141738995968,,,,,,0.0,1.0,1.0,0.0,3.0,0.0,6.0,0.0,244.84681744500267,,,,,,,,,244.83696216099636,245.6317999469975,246.426129432999,246.4154272559972,246.41602708300343,246.426129432999,246.426129432999,246.426129432999,247.34876401499787,,,,,,,,,,,,,,,,,,,,,,,,,,,,,,left,1.0,0.9140033580042656,,,,,,sub-173,1,random_dot,89.30477846339137,
right,right,7.0,1.0,3.0,left,0.0,0.7314535029945546,,accuracy,space,2.474141738995968,,,,,,0.0,1.0,1.0,0.0,3.0,1.0,7.0,1.0,247.35908345100324,,,,,,,,,247.34914119599853,248.14189874199656,248.934608784999,248.92551666899817,248.92591836799693,248.934608784999,248.934608784999,248.934608784999,249.67212165099767,,,,,,,,,,,,,,,,,,,,,,,,,,,,,,left,0.0,0.7314535029945546,,,,,,sub-173,1,random_dot,89.30477846339137,
right,right,8.0,0.0,4.0,right,1.0,0.7895944129995769,,accuracy,space,2.474141738995968,,,,,,0.0,1.0,1.0,0.0,4.0,0.0,8.0,1.0,249.6815961879984,,,,,,,,,249.6724523739977,249.7655899770034,250.5593103939973,250.5486720819972,250.54926841999983,250.5593103939973,250.5593103939973,250.5593103939973,251.35831520800275,,,,,,,,,,,,,,,,,,,,,,,,,,,,,,right,1.0,0.7895944129995769,,,,,,sub-173,1,random_dot,89.30477846339137,
left,left,9.0,1.0,4.0,left,1.0,0.7246976700043888,,accuracy,space,2.474141738995968,,,,,,0.0,1.0,1.0,0.0,4.0,1.0,9.0,0.0,251.3656025770033,,,,,,,,,251.35865690799983,252.5473541699976,253.3411832779966,253.33103311200105,253.3316355220013,253.3411832779966,253.3411832779966,253.3411832779966,254.0672891619979,,,,,,,,,,,,,,,,,,,,,,,,,,,,,,left,1.0,0.7246976700043888,,,,,,sub-173,1,random_dot,89.30477846339137,
left,left,10.0,0.0,5.0,left,1.0,0.7140656080009649,,accuracy,space,2.474141738995968,,,,,,0.0,1.0,1.0,0.0,5.0,0.0,10.0,0.0,254.07440781399785,,,,,,,,,254.0675996880018,255.26404409800307,256.057611213997,256.04764227099804,256.0481682910031,256.057611213997,256.057611213997,256.057611213997,256.7752932700023,,,,,,,,,,,,,,,,,,,,,,,,,,,,,,left,1.0,0.7140656080009649,,,,,,sub-173,1,random_dot,89.30477846339137,
right,right,11.0,1.0,5.0,right,1.0,1.397616823996941,,accuracy,space,2.474141738995968,,,,,,0.0,1.0,1.0,0.0,5.0,1.0,11.0,1.0,256.782362113001,,,,,,,,,256.77557099599653,257.1242047959968,257.9159842520021,257.9078385050016,257.9083519869964,257.9159842520021,257.9159842520021,257.9159842520021,259.3166585650033,,,,,,,,,,,,,,,,,,,,,,,,,,,,,,right,1.0,1.397616823996941,,,,,,sub-173,1,random_dot,89.30477846339137,
right,right,12.0,0.0,6.0,left,0.0,2.177260264004872,,accuracy,space,2.474141738995968,,,,,,0.0,1.0,1.0,0.0,6.0,0.0,12.0,1.0,259.32499546000327,,,,,,,,,259.3169429699992,259.4134498869971,260.2074126439984,260.1972006720025,260.1977773749968,260.2074126439984,260.2074126439984,260.2074126439984,262.3917300469984,,,,,,,,,,,,,,,,,,,,,,,,,,,,,,left,0.0,2.177260264004872,,,,,,sub-173,1,random_dot,89.30477846339137,
left,left,13.0,1.0,6.0,right,0.0,0.6793205380017753,,accuracy,space,2.474141738995968,,,,,,0.0,1.0,1.0,0.0,6.0,1.0,13.0,0.0,262.3980690519966,,,,,,,,,262.39201474100264,262.480344636002,263.27417371400225,263.26372601399635,263.2642623349966,263.27417371400225,263.27417371400225,263.27417371400225,263.9584433339988,,,,,,,,,,,,,,,,,,,,,,,,,,,,,,right,0.0,0.6793205380017753,,,,,,sub-173,1,random_dot,89.30477846339137,
right,right,14.0,0.0,7.0,left,0.0,0.6189226799979224,,accuracy,space,2.474141738995968,,,,,,0.0,1.0,1.0,0.0,7.0,0.0,14.0,1.0,263.9654871629973,,,,,,,,,263.95871176799847,264.7575850950016,265.5493978949962,265.5412012750021,265.5416888489999,265.5493978949962,265.5493978949962,265.5493978949962,266.1757033899994,,,,,,,,,,,,,,,,,,,,,,,,,,,,,,left,0.0,0.6189226799979224,,,,,,sub-173,1,random_dot,89.30477846339137,
left,left,15.0,1.0,7.0,right,0.0,0.8732808470012969,,accuracy,space,2.474141738995968,,,,,,0.0,1.0,1.0,0.0,7.0,1.0,15.0,0.0,266.1828688230016,,,,,,,,,266.1760079329979,266.52419288900273,267.316055285999,267.3078557120025,267.3083450429985,267.316055285999,267.316055285999,267.316055285999,268.1926355289979,,,,,,,,,,,,,,,,,,,,,,,,,,,,,,right,0.0,0.8732808470012969,,,,,,sub-173,1,random_dot,89.30477846339137,
right,right,16.0,0.0,8.0,left,0.0,0.7645262139994884,,accuracy,space,2.474141738995968,,,,,,0.0,1.0,1.0,0.0,8.0,0.0,16.0,1.0,268.1995516160023,,,,,,,,,268.1928985889972,268.99084092299745,269.78265496699896,269.7744960939963,269.7749779119986,269.78265496699896,269.78265496699896,269.78265496699896,270.5497669570032,,,,,,,,,,,,,,,,,,,,,,,,,,,,,,left,0.0,0.7645262139994884,,,,,,sub-173,1,random_dot,89.30477846339137,
left,left,17.0,1.0,8.0,right,0.0,0.8302515079994919,,accuracy,space,2.474141738995968,,,,,,0.0,1.0,1.0,0.0,8.0,1.0,17.0,0.0,270.5583361300014,,,,,,,,,270.5500628380032,270.64625649299705,271.44088742200256,271.43066167800134,271.43125447499915,271.44088742200256,271.44088742200256,271.44088742200256,272.275690788003,,,,,,,,,,,,,,,,,,,,,,,,,,,,,,right,0.0,0.8302515079994919,,,,,,sub-173,1,random_dot,89.30477846339137,
right,right,18.0,0.0,9.0,left,0.0,1.9527595019972068,,accuracy,space,2.474141738995968,,,,,,0.0,1.0,1.0,0.0,9.0,0.0,18.0,1.0,272.282506112002,,,,,,,,,272.2759503289999,272.3741187639971,273.1662656970002,273.1579010130008,273.15838289199746,273.1662656970002,273.1662656970002,273.1662656970002,275.1312897259995,,,,,,,,,,,,,,,,,,,,,,,,,,,,,,left,0.0,1.9527595019972068,,,,,,sub-173,1,random_dot,89.30477846339137,
left,left,19.0,1.0,9.0,right,0.0,1.0158644469993303,,accuracy,space,2.474141738995968,,,,,,0.0,1.0,1.0,0.0,9.0,1.0,19.0,0.0,275.14203951299714,,,,,,,,,275.1316612180017,275.9249040970026,276.71710405700287,276.7082983240034,276.7087821629975,276.71710405700287,276.71710405700287,276.71710405700287,277.7356062789986,,,,,,,,,,,,,,,,,,,,,,,,,,,,,,right,0.0,1.0158644469993303,,,,,,sub-173,1,random_dot,89.30477846339137,
left,left,20.0,0.0,10.0,right,0.0,1.796361289001652,,accuracy,space,2.474141738995968,,,,,,0.0,1.0,1.0,0.0,10.0,0.0,20.0,0.0,277.74645886899816,,,,,,,,,277.73591654399934,278.53190358600114,279.3244516859995,279.3150032129997,279.3156045689975,279.3244516859995,279.3244516859995,279.3244516859995,281.1260858910028,,,,,,,,,,,,,,,,,,,,,,,,,,,,,,right,0.0,1.796361289001652,,,,,,sub-173,1,random_dot,89.30477846339137,
right,right,21.0,1.0,10.0,right,1.0,1.3391542300014407,,accuracy,space,2.474141738995968,,,,,,0.0,1.0,1.0,0.0,10.0,1.0,21.0,1.0,281.1352303070016,,,,,,,,,281.12636935200135,281.4748250859993,282.2676182119976,282.2585095559989,282.2589892890028,282.2676182119976,282.2676182119976,282.2676182119976,283.6094962349962,,,,,,,,,,,,,,,,,,,,,,,,,,,,,,right,1.0,1.3391542300014407,,,,,,sub-173,1,random_dot,89.30477846339137,
right,right,22.0,0.0,11.0,left,0.0,0.9574892649980028,,accuracy,space,2.474141738995968,,,,,,0.0,1.0,1.0,0.0,11.0,0.0,22.0,1.0,283.61837677600124,,,,,,,,,283.6097656400016,283.9581087069964,284.75016015699657,284.7414842569997,284.74196555800154,284.75016015699657,284.75016015699657,284.75016015699657,285.7149373779976,,,,,,,,,,,,,,,,,,,,,,,,,,,,,,left,0.0,0.9574892649980028,,,,,,sub-173,1,random_dot,89.30477846339137,
left,left,23.0,1.0,11.0,right,0.0,0.8968470959953265,,accuracy,space,2.474141738995968,,,,,,0.0,1.0,1.0,0.0,11.0,1.0,23.0,0.0,285.72501297800045,,,,,,,,,285.71525948600174,285.8080983819964,286.6007525739988,286.5917108880021,286.5921959510015,286.6007525739988,286.6007525739988,286.6007525739988,287.509584241001,,,,,,,,,,,,,,,,,,,,,,,,,,,,,,right,0.0,0.8968470959953265,,,,,,sub-173,1,random_dot,89.30477846339137,
right,right,24.0,0.0,12.0,right,1.0,0.7559723379963543,,accuracy,space,2.474141738995968,,,,,,0.0,1.0,1.0,0.0,12.0,0.0,24.0,1.0,287.51842371199746,,,,,,,,,287.51000658499834,287.857974837003,288.64963444099703,288.6415362129992,288.6418332760004,288.64963444099703,288.64963444099703,288.64963444099703,289.4146612339973,,,,,,,,,,,,,,,,,,,,,,,,,,,,,,right,1.0,0.7559723379963543,,,,,,sub-173,1,random_dot,89.30477846339137,
left,left,25.0,1.0,12.0,left,1.0,0.7143542289995821,,accuracy,space,2.474141738995968,,,,,,0.0,1.0,1.0,0.0,12.0,1.0,25.0,0.0,289.42490009599715,,,,,,,,,289.41498260200024,289.75782962599624,290.5501133930011,290.5413875700033,290.54186962999665,290.5501133930011,290.5501133930011,290.5501133930011,291.2696603250006,,,,,,,,,,,,,,,,,,,,,,,,,,,,,,left,1.0,0.7143542289995821,,,,,,sub-173,1,random_dot,89.30477846339137,
right,right,26.0,0.0,13.0,right,1.0,1.558058708003955,,accuracy,space,2.474141738995968,,,,,,0.0,1.0,1.0,0.0,13.0,0.0,26.0,1.0,291.2792562179966,,,,,,,,,291.2699929959999,292.0651053949987,292.85830754999915,292.8478440339968,292.84844182300003,292.85830754999915,292.85830754999915,292.85830754999915,294.42585379999946,,,,,,,,,,,,,,,,,,,,,,,,,,,,,,right,1.0,1.558058708003955,,,,,,sub-173,1,random_dot,89.30477846339137,
left,left,27.0,1.0,13.0,left,1.0,1.2719105159994797,,accuracy,space,2.474141738995968,,,,,,0.0,1.0,1.0,0.0,13.0,1.0,27.0,0.0,294.43529190200206,,,,,,,,,294.4262270449981,294.7746429289982,295.5673456730001,295.5582756759977,295.55875574999664,295.5673456730001,295.5673456730001,295.5673456730001,296.8422290689996,,,,,,,,,,,,,,,,,,,,,,,,,,,,,,left,1.0,1.2719105159994797,,,,,,sub-173,1,random_dot,89.30477846339137,
left,left,28.0,0.0,14.0,right,0.0,0.9568867900015904,,accuracy,space,2.474141738995968,,,,,,0.0,1.0,1.0,0.0,14.0,0.0,28.0,0.0,296.85083018199657,,,,,,,,,296.8424911780021,296.94126453199715,297.7342283570033,297.72491785100283,297.72542347599665,297.7342283570033,297.7342283570033,297.7342283570033,298.6925248499974,,,,,,,,,,,,,,,,,,,,,,,,,,,,,,right,0.0,0.9568867900015904,,,,,,sub-173,1,random_dot,89.30477846339137,
right,right,29.0,1.0,14.0,left,0.0,1.142587772999832,,accuracy,space,2.474141738995968,,,,,,0.0,1.0,1.0,0.0,14.0,1.0,29.0,1.0,298.69963703399844,,,,,,,,,298.6927924929987,299.4912260659985,300.2833624319974,300.2746651510024,300.27514233299735,300.2833624319974,300.2833624319974,300.2833624319974,301.43570020000334,,,,,,,,,,,,,,,,,,,,,,,,,,,,,,left,0.0,1.142587772999832,,,,,,sub-173,1,random_dot,89.30477846339137,
left,left,30.0,0.0,15.0,right,0.0,1.2630305040001986,,accuracy,space,2.474141738995968,,,,,,0.0,1.0,1.0,0.0,15.0,0.0,30.0,0.0,301.4460979590003,,,,,,,,,301.4360769880004,301.7816026799992,302.5749379339977,302.5651888669963,302.5657894199976,302.5749379339977,302.5749379339977,302.5749379339977,303.847804817,,,,,,,,,,,,,,,,,,,,,,,,,,,,,,right,0.0,1.2630305040001986,,,,,,sub-173,1,random_dot,89.30477846339137,
right,right,31.0,1.0,15.0,right,1.0,1.34462443600205,,accuracy,space,2.474141738995968,,,,,,0.0,1.0,1.0,0.0,15.0,1.0,31.0,1.0,303.858359302998,,,,,,,,,303.84817605799617,304.1911888269969,304.98324413700175,304.97459550500207,304.97507348100044,304.98324413700175,304.98324413700175,304.98324413700175,306.3305509159982,,,,,,,,,,,,,,,,,,,,,,,,,,,,,,right,1.0,1.34462443600205,,,,,,sub-173,1,random_dot,89.30477846339137,
left,left,32.0,0.0,16.0,left,1.0,0.8930828390002716,,accuracy,space,2.474141738995968,,,,,,0.0,1.0,1.0,0.0,16.0,0.0,32.0,0.0,306.34135760900244,,,,,,,,,306.3308096050023,307.52421235899965,308.316682466997,308.3079186510004,308.3084372200028,308.316682466997,308.316682466997,308.316682466997,309.214051308998,,,,,,,,,,,,,,,,,,,,,,,,,,,,,,left,1.0,0.8930828390002716,,,,,,sub-173,1,random_dot,89.30477846339137,
right,right,33.0,1.0,16.0,right,1.0,0.7248057309989235,,accuracy,space,2.474141738995968,,,,,,0.0,1.0,1.0,0.0,16.0,1.0,33.0,1.0,309.22465802499937,,,,,,,,,309.21430609899835,309.5577743190006,310.34985851599777,310.34122239200224,310.3417021830028,310.34985851599777,310.34985851599777,310.34985851599777,311.08103271399887,,,,,,,,,,,,,,,,,,,,,,,,,,,,,,right,1.0,0.7248057309989235,,,,,,sub-173,1,random_dot,89.30477846339137,
right,right,34.0,0.0,17.0,right,1.0,1.0991663570021046,,accuracy,space,2.474141738995968,,,,,,0.0,1.0,1.0,0.0,17.0,0.0,34.0,1.0,311.0915673319978,,,,,,,,,311.0813496010014,311.42403151500184,312.2164222430001,312.2076797580012,312.2082008099969,312.2164222430001,312.2164222430001,312.2164222430001,313.32554313100263,,,,,,,,,,,,,,,,,,,,,,,,,,,,,,right,1.0,1.0991663570021046,,,,,,sub-173,1,random_dot,89.30477846339137,
left,left,35.0,1.0,17.0,left,1.0,1.002932075993158,,accuracy,space,2.474141738995968,,,,,,0.0,1.0,1.0,0.0,17.0,1.0,35.0,0.0,313.3348583120023,,,,,,,,,313.3258590580008,313.6743183880026,314.4666146439995,314.45783059999667,314.45834695999656,314.4666146439995,314.4666146439995,314.4666146439995,315.4801701089964,,,,,,,,,,,,,,,,,,,,,,,,,,,,,,left,1.0,1.002932075993158,,,,,,sub-173,1,random_dot,89.30477846339137,
left,left,36.0,0.0,18.0,left,1.0,0.6977409870014526,,accuracy,space,2.474141738995968,,,,,,0.0,1.0,1.0,0.0,18.0,0.0,36.0,0.0,315.4911033039971,,,,,,,,,315.48055657200166,316.2741343890011,317.0666964429984,317.0576965029977,317.0582052480022,317.0666964429984,317.0666964429984,317.0666964429984,317.7754209010018,,,,,,,,,,,,,,,,,,,,,,,,,,,,,,left,1.0,0.6977409870014526,,,,,,sub-173,1,random_dot,89.30477846339137,
right,right,37.0,1.0,18.0,left,0.0,1.2306456540027284,,accuracy,space,2.474141738995968,,,,,,0.0,1.0,1.0,0.0,18.0,1.0,37.0,1.0,317.7848317300013,,,,,,,,,317.7757383720018,318.57437828600087,319.3665673020005,319.3577658909999,319.35828833300184,319.3665673020005,319.3665673020005,319.3665673020005,320.6093280170025,,,,,,,,,,,,,,,,,,,,,,,,,,,,,,left,0.0,1.2306456540027284,,,,,,sub-173,1,random_dot,89.30477846339137,
right,right,38.0,0.0,19.0,right,1.0,0.888678176997928,,accuracy,space,2.474141738995968,,,,,,0.0,1.0,1.0,0.0,19.0,0.0,38.0,1.0,320.61888409999665,,,,,,,,,320.6098923780009,320.70776714599924,321.49944235300063,321.49094912299915,321.4914586860032,321.49944235300063,321.49944235300063,321.49944235300063,322.39800146200287,,,,,,,,,,,,,,,,,,,,,,,,,,,,,,right,1.0,0.888678176997928,,,,,,sub-173,1,random_dot,89.30477846339137,
left,left,39.0,1.0,19.0,right,0.0,0.6940649860043777,,accuracy,space,2.474141738995968,,,,,,0.0,1.0,1.0,0.0,19.0,1.0,39.0,0.0,322.4065654130027,,,,,,,,,322.3983735810034,323.59097385100176,324.38313654399826,324.374329844999,324.3748066219996,324.38313654399826,324.38313654399826,324.38313654399826,325.0852351950016,,,,,,,,,,,,,,,,,,,,,,,,,,,,,,right,0.0,0.6940649860043777,,,,,,sub-173,1,random_dot,89.30477846339137,
left,left,40.0,0.0,20.0,left,1.0,1.52820327700465,,accuracy,space,2.474141738995968,,,,,,0.0,1.0,1.0,0.0,20.0,0.0,40.0,0.0,325.09539595700335,,,,,,,,,325.085631695998,326.2813506769962,327.074763538003,327.0649889350025,327.06559204000223,327.074763538003,327.074763538003,327.074763538003,328.608467762002,,,,,,,,,,,,,,,,,,,,,,,,,,,,,,left,1.0,1.52820327700465,,,,,,sub-173,1,random_dot,89.30477846339137,
right,right,41.0,1.0,20.0,right,1.0,0.9246521099994424,,accuracy,space,2.474141738995968,,,,,,0.0,1.0,1.0,0.0,20.0,1.0,41.0,1.0,328.6170726889977,,,,,,,,,328.60873212000297,329.8070926770015,330.5993010059974,330.59064333599963,330.5911257319967,330.5993010059974,330.5993010059974,330.5993010059974,331.5317468209978,,,,,,,,,,,,,,,,,,,,,,,,,,,,,,right,1.0,0.9246521099994424,,,,,,sub-173,1,random_dot,89.30477846339137,
right,right,42.0,0.0,21.0,left,0.0,1.083637108997209,,accuracy,space,2.474141738995968,,,,,,0.0,1.0,1.0,0.0,21.0,0.0,42.0,1.0,331.5400605699979,,,,,,,,,331.5320766119985,332.32922794500337,333.1231087289998,333.1129256810018,333.11345058699953,333.1231087289998,333.1231087289998,333.1231087289998,334.2151336070019,,,,,,,,,,,,,,,,,,,,,,,,,,,,,,left,0.0,1.083637108997209,,,,,,sub-173,1,random_dot,89.30477846339137,
left,left,43.0,1.0,21.0,right,0.0,0.8121536430044216,,accuracy,space,2.474141738995968,,,,,,0.0,1.0,1.0,0.0,21.0,1.0,43.0,0.0,334.2220748230029,,,,,,,,,334.2155288740032,334.5630813609969,335.35656357800326,335.34661590999895,335.3472219190008,335.35656357800326,335.35656357800326,335.35656357800326,336.1738690709972,,,,,,,,,,,,,,,,,,,,,,,,,,,,,,right,0.0,0.8121536430044216,,,,,,sub-173,1,random_dot,89.30477846339137,
left,left,44.0,0.0,22.0,right,0.0,0.9762296310000238,,accuracy,space,2.474141738995968,,,,,,0.0,1.0,1.0,0.0,22.0,0.0,44.0,0.0,336.1805944680018,,,,,,,,,336.1741305570031,336.512601223003,337.3064360240023,337.2962624119973,337.29684488099883,337.3064360240023,337.3064360240023,337.3064360240023,338.2906201110018,,,,,,,,,,,,,,,,,,,,,,,,,,,,,,right,0.0,0.9762296310000238,,,,,,sub-173,1,random_dot,89.30477846339137,
right,right,45.0,1.0,22.0,right,1.0,0.8371940389988595,,accuracy,space,2.474141738995968,,,,,,0.0,1.0,1.0,0.0,22.0,1.0,45.0,1.0,338.2973772339974,,,,,,,,,338.2909328550013,339.0795688479993,339.87323813999683,339.86329382900294,339.86387664700305,339.87323813999683,339.87323813999683,339.87323813999683,340.71631917299965,,,,,,,,,,,,,,,,,,,,,,,,,,,,,,right,1.0,0.8371940389988595,,,,,,sub-173,1,random_dot,89.30477846339137,
right,right,46.0,0.0,23.0,left,0.0,0.7957909430042491,,accuracy,space,2.474141738995968,,,,,,0.0,1.0,1.0,0.0,23.0,0.0,46.0,1.0,340.72367244699853,,,,,,,,,340.7165959900012,341.9131923929963,342.70664544199826,342.69686872499733,342.6974136220015,342.70664544199826,342.70664544199826,342.70664544199826,343.5081521259999,,,,,,,,,,,,,,,,,,,,,,,,,,,,,,left,0.0,0.7957909430042491,,,,,,sub-173,1,random_dot,89.30477846339137,
left,left,47.0,1.0,23.0,left,1.0,0.7928421600008733,,accuracy,space,2.474141738995968,,,,,,0.0,1.0,1.0,0.0,23.0,1.0,47.0,0.0,343.5150471369998,,,,,,,,,343.5084414759985,343.60648489499727,344.39845579199755,344.3901767749994,344.39065602100163,344.39845579199755,344.39845579199755,344.39845579199755,345.19889321299706,,,,,,,,,,,,,,,,,,,,,,,,,,,,,,left,1.0,0.7928421600008733,,,,,,sub-173,1,random_dot,89.30477846339137,
right,right,48.0,0.0,24.0,right,1.0,0.9714759069975116,,accuracy,space,2.474141738995968,,,,,,0.0,1.0,1.0,0.0,24.0,0.0,48.0,1.0,345.2073304919977,,,,,,,,,345.19922396900074,345.54621380099707,346.3398759310003,346.32993773400085,346.3305083360028,346.3398759310003,346.3398759310003,346.3398759310003,347.3150373629978,,,,,,,,,,,,,,,,,,,,,,,,,,,,,,right,1.0,0.9714759069975116,,,,,,sub-173,1,random_dot,89.30477846339137,
left,left,49.0,1.0,24.0,left,1.0,0.905763657996431,,accuracy,space,2.474141738995968,,,,,,0.0,1.0,1.0,0.0,24.0,1.0,49.0,0.0,347.32303215799766,,,,,,,,,347.31530220199784,348.1123495540014,348.9063641429966,348.89609285999904,348.89666989599937,348.9063641429966,348.9063641429966,348.9063641429966,349.81507099999726,,,,,,,,,,,,,,,,,,,,,,,,,,,,,,left,1.0,0.905763657996431,,,,,,sub-173,1,random_dot,89.30477846339137,
right,right,50.0,0.0,25.0,right,1.0,0.9287284890015144,,accuracy,space,2.474141738995968,,,,,,0.0,1.0,1.0,0.0,25.0,0.0,50.0,1.0,349.82306064300064,,,,,,,,,349.81535696500214,349.9125256789994,350.70638300899736,350.6960120139993,350.6966317289989,350.70638300899736,350.70638300899736,350.70638300899736,351.64068507600314,,,,,,,,,,,,,,,,,,,,,,,,,,,,,,right,1.0,0.9287284890015144,,,,,,sub-173,1,random_dot,89.30477846339137,
left,left,51.0,1.0,25.0,left,1.0,2.0998141129966825,,accuracy,space,2.474141738995968,,,,,,0.0,1.0,1.0,0.0,25.0,1.0,51.0,0.0,351.6475153529973,,,,,,,,,351.6409565060021,351.97935080000025,352.7730959719993,352.7628244529988,352.7634022929997,352.7730959719993,352.7730959719993,352.7730959719993,354.87406575200293,,,,,,,,,,,,,,,,,,,,,,,,,,,,,,left,1.0,2.0998141129966825,,,,,,sub-173,1,random_dot,89.30477846339137,
right,right,52.0,0.0,26.0,right,1.0,0.6888852840056643,,accuracy,space,2.474141738995968,,,,,,0.0,1.0,1.0,0.0,26.0,0.0,52.0,1.0,354.87957538699993,,,,,,,,,354.8743492740032,355.67300670700206,356.4650732200025,356.45670830400195,356.4572288369964,356.4650732200025,356.4650732200025,356.4650732200025,357.15714381,,,,,,,,,,,,,,,,,,,,,,,,,,,,,,right,1.0,0.6888852840056643,,,,,,sub-173,1,random_dot,89.30477846339137,
left,left,53.0,1.0,26.0,left,1.0,0.7569507919979515,,accuracy,space,2.474141738995968,,,,,,0.0,1.0,1.0,0.0,26.0,1.0,53.0,0.0,357.1644533739964,,,,,,,,,357.15743012799794,357.2561796500013,358.04780339699937,358.0399468089963,358.0404712890013,358.04780339699937,358.04780339699937,358.04780339699937,358.8070071140028,,,,,,,,,,,,,,,,,,,,,,,,,,,,,,left,1.0,0.7569507919979515,,,,,,sub-173,1,random_dot,89.30477846339137,
right,right,54.0,0.0,27.0,right,1.0,0.7921047400013776,,accuracy,space,2.474141738995968,,,,,,0.0,1.0,1.0,0.0,27.0,0.0,54.0,1.0,358.8141817029973,,,,,,,,,358.80729389299813,359.14597330499964,359.93962949600245,359.92947456699767,359.9300593829976,359.93962949600245,359.93962949600245,359.93962949600245,360.7404062409987,,,,,,,,,,,,,,,,,,,,,,,,,,,,,,right,1.0,0.7921047400013776,,,,,,sub-173,1,random_dot,89.30477846339137,
left,left,55.0,1.0,27.0,left,1.0,0.8017314059979981,,accuracy,space,2.474141738995968,,,,,,0.0,1.0,1.0,0.0,27.0,1.0,55.0,0.0,360.7476852089967,,,,,,,,,360.74070631500217,361.0787856519965,361.8728714730023,361.8624839100012,361.8630195239966,361.8728714730023,361.8728714730023,361.8728714730023,362.6814161889997,,,,,,,,,,,,,,,,,,,,,,,,,,,,,,left,1.0,0.8017314059979981,,,,,,sub-173,1,random_dot,89.30477846339137,
left,left,56.0,0.0,28.0,right,0.0,0.4437690100021427,,accuracy,space,2.474141738995968,,,,,,0.0,1.0,1.0,0.0,28.0,0.0,56.0,0.0,362.6893129410018,,,,,,,,,362.6816979040013,363.0291442939997,363.82282187999954,363.81243142199673,363.81301781500224,363.82282187999954,363.82282187999954,363.82282187999954,364.27409195100336,,,,,,,,,,,,,,,,,,,,,,,,,,,,,,right,0.0,0.4437690100021427,,,,,,sub-173,1,random_dot,89.30477846339137,
right,right,57.0,1.0,28.0,left,0.0,0.3977137879992369,,accuracy,space,2.474141738995968,,,,,,0.0,1.0,1.0,0.0,28.0,1.0,57.0,1.0,364.28200630700303,,,,,,,,,364.2744366810002,365.0729572939963,365.8646859079963,365.8564690830026,365.8569462209998,365.8646859079963,365.8646859079963,365.8646859079963,366.2654579719965,,,,,,,,,,,,,,,,,,,,,,,,,,,,,,left,0.0,0.3977137879992369,,,,,,sub-173,1,random_dot,89.30477846339137,
left,left,58.0,0.0,29.0,left,1.0,0.7773307819952606,,accuracy,space,2.474141738995968,,,,,,0.0,1.0,1.0,0.0,29.0,0.0,58.0,0.0,366.2736845570034,,,,,,,,,366.2657326539993,367.4623686069972,368.2561163069986,368.2461129329968,368.246730081999,368.2561163069986,368.2561163069986,368.2561163069986,369.04061869499856,,,,,,,,,,,,,,,,,,,,,,,,,,,,,,left,1.0,0.7773307819952606,,,,,,sub-173,1,random_dot,89.30477846339137,
right,right,59.0,1.0,29.0,left,0.0,0.7550601760012796,,accuracy,space,2.474141738995968,,,,,,0.0,1.0,1.0,0.0,29.0,1.0,59.0,1.0,369.0473791080003,,,,,,,,,369.0409304220011,369.1395317790011,369.9312280789964,369.9231608549962,369.9236450829994,369.9312280789964,369.9312280789964,369.9312280789964,370.6902363949994,,,,,,,,,,,,,,,,,,,,,,,,,,,,,,left,0.0,0.7550601760012796,,,,,,sub-173,1,random_dot,89.30477846339137,
,,1.0,1.0,0.0,,,,,accuracy,space,2.474141738995968,,,,,,0.0,1.0,1.0,0.0,,,,,,,,,,,,,,,,,,,,,,,,,,,,,,,,,,,,,,,,,,,,,,,,,,,,,,,,,,,,sub-173,1,random_dot,89.30477846339137,
,,,,,,,,,,,,,,,,,,,,,,,,,,,,,,,,,,,,,,,,,,,,,,,,,,,,,,,,,,,,,,,,,,,,,,,,,,,,370.6935798289997,370.701316036997,375.6959876280016,375.6901109609971,sub-173,1,random_dot,89.30477846339137,
