direction,corrAns,thisN,thisTrialN,thisRepN,respDots.keys,respDots.corr,respDots.rt,respDots.duration,randomInstr,respRandomInstr.keys,respRandomInstr.rt,respRandomInstr.duration,practice_trials.thisRepN,practice_trials.thisTrialN,practice_trials.thisN,practice_trials.thisIndex,instr_trials.thisRepN,instr_trials.thisTrialN,instr_trials.thisN,instr_trials.thisIndex,test_trials.thisRepN,test_trials.thisTrialN,test_trials.thisN,test_trials.thisIndex,thisRow.t,notes,general_instruction.started,textGeneralInstr.started,respGeneralInstr.started,general_instruction.stopped,respGeneralInstr.keys,respGeneralInstr.rt,respGeneralInstr.duration,ITI.started,fixcross.started,fixcross.stopped,ITI.stopped,dots.started,backgroundDots.started,stimulusDots.started,respDots.started,dots.stopped,practice_trials.respDots.keys,practice_trials.respDots.corr,practice_trials.respDots.rt,practice_trials.respDots.duration,feedback.started,textFeedback.started,feedback.stopped,textFeedback.stopped,info.started,textInfo.started,keyRespInfo.started,info.stopped,keyRespInfo.keys,keyRespInfo.rt,keyRespInfo.duration,test_instruction.started,textTestInstr.started,respTestInstr.started,test_instruction.stopped,respTestInstr.keys,respTestInstr.rt,respTestInstr.duration,random_instruction.started,textRandomInstr.started,respRandomInstr.started,random_instruction.stopped,instr_trials.respRandomInstr.keys,instr_trials.respRandomInstr.rt,instr_trials.respRandomInstr.duration,test_trials.respDots.keys,test_trials.respDots.corr,test_trials.respDots.rt,test_trials.respDots.duration,goodbye.started,textGoodbye.started,goodbye.stopped,participant,session,expName,frameRate,Unnamed: 86
,,,,,,,,,,,,,,,,,,,,,,,,,,,0.0149991079997562,0.0360053189997415,0.0360053189997415,6.233371518999775,space,6.168070562000139,,,,,,,,,,,,,,,,,,,,,,,,,,,,,,,,,,,,,,,,,,,,,,,sub-078,1,random_dot,57.80208429905104,
left,left,0.0,0.0,0.0,right,0.0,1.793465304000165,,,,,,0.0,0.0,0.0,0.0,,,,,,,,,6.266636448999634,,,,,,,,,6.24196381999991,6.343425599000511,7.163741780999771,7.142447299000196,7.142722864999996,7.163741780999771,7.163741780999771,7.163741780999771,8.960771283999748,right,0.0,1.793465304000165,,8.96607972000038,8.993634073000067,9.476521966000291,,,,,,,,,,,,,,,,,,,,,,,,,,,,,,sub-078,1,random_dot,57.80208429905104,
right,right,1.0,1.0,0.0,right,1.0,3.579503584000122,,,,,,0.0,1.0,1.0,1.0,,,,,,,,,9.49314320600024,,,,,,,,,9.47677008699975,10.66030000000046,11.462918487000024,11.444346621000475,11.44462084299994,11.462918487000024,11.462918487000024,11.462918487000024,15.045058157000312,right,1.0,3.579503584000122,,15.050161219000074,15.064989166000489,15.54598983699998,,,,,,,,,,,,,,,,,,,,,,,,,,,,,,sub-078,1,random_dot,57.80208429905104,
left,left,2.0,0.0,1.0,left,1.0,0.901336371999605,,,,,,1.0,0.0,2.0,0.0,,,,,,,,,15.56248254900038,,,,,,,,,15.54622239499986,16.746559246999823,17.54662408600052,17.53001851800036,17.53029837699978,17.54662408600052,17.54662408600052,17.54662408600052,18.467498809000062,left,1.0,0.901336371999605,,18.467579559000114,18.482069990000127,18.980942592000247,,,,,,,,,,,,,,,,,,,,,,,,,,,,,,sub-078,1,random_dot,57.80208429905104,
right,right,3.0,1.0,1.0,right,1.0,0.6594593560002977,,,,,,1.0,1.0,3.0,1.0,,,,,,,,,18.99755654599994,,,,,,,,,18.98117190900029,19.0809018380005,19.88382587999968,19.865125950999754,19.86538424900027,19.88382587999968,19.88382587999968,19.88382587999968,20.562733558999756,right,1.0,0.6594593560002977,,20.562820836000355,20.574626047000493,21.065188931000197,,,,,,,,,,,,,,,,,,,,,,,,,,,,,,sub-078,1,random_dot,57.80208429905104,
right,right,4.0,0.0,2.0,right,1.0,0.7877244460005386,,,,,,2.0,0.0,4.0,1.0,,,,,,,,,21.08189206099996,,,,,,,,,21.06543834600052,21.865569163000146,22.6684393810001,22.64971666800011,22.64998300699972,22.6684393810001,22.6684393810001,22.6684393810001,23.465462185000437,right,1.0,0.7877244460005386,,23.465548049000063,23.4769725619999,23.966813396999896,,,,,,,,,,,,,,,,,,,,,,,,,,,,,,sub-078,1,random_dot,57.80208429905104,
left,left,5.0,1.0,2.0,left,1.0,0.7499799459992573,,,,,,2.0,1.0,5.0,0.0,,,,,,,,,23.983114472000125,,,,,,,,,23.96705040000052,24.31690303400046,25.117661608999697,25.101195135000125,25.101446044999648,25.117661608999697,25.117661608999697,25.117661608999697,25.8736104970003,left,1.0,0.7499799459992573,,25.87369708700044,25.886561479999727,26.384420076000424,,,,,,,,,,,,,,,,,,,,,,,,,,,,,,sub-078,1,random_dot,57.80208429905104,
left,left,6.0,0.0,3.0,right,0.0,0.9120785439999964,,,,,,3.0,0.0,6.0,0.0,,,,,,,,,26.401004788000137,,,,,,,,,26.384648180999648,27.18493288100035,27.987841572000438,27.96888617500008,27.96914772899981,27.987841572000438,27.987841572000438,27.987841572000438,28.91910089999965,right,0.0,0.9120785439999964,,28.921389009999984,28.934558398000263,29.41961269800049,29.43574325999998,,,,,,,,,,,,,,,,,,,,,,,,,,,,,sub-078,1,random_dot,57.80208429905104,
right,right,7.0,1.0,3.0,left,0.0,0.752160570000342,,,,,,3.0,1.0,7.0,1.0,,,,,,,,,29.43574325999998,,,,,,,,,29.41983029099993,30.21950265899977,31.022152424000524,31.003834635999738,31.00409340599981,31.022152424000524,31.022152424000524,31.022152424000524,31.79287276099967,left,0.0,0.752160570000342,,31.79296585999964,31.80592982899998,32.30394234200048,,,,,,,,,,,,,,,,,,,,,,,,,,,,,,sub-078,1,random_dot,57.80208429905104,
right,right,8.0,0.0,4.0,right,1.0,0.781259021000551,,,,,,4.0,0.0,8.0,1.0,,,,,,,,,32.32051374300045,,,,,,,,,32.30419007300043,33.10378860000037,33.90745589800008,33.88848063200021,33.88874404800026,33.90745589800008,33.90745589800008,33.90745589800008,34.69497390600009,right,1.0,0.781259021000551,,34.69751835399984,34.710247691000404,35.205135181000514,,,,,,,,,,,,,,,,,,,,,,,,,,,,,,sub-078,1,random_dot,57.80208429905104,
left,left,9.0,1.0,4.0,left,1.0,0.8500205769996683,,,,,,4.0,1.0,9.0,0.0,,,,,,,,,35.22202993300016,,,,,,,,,35.20536649800033,36.00549316500019,36.80839161400036,36.78994463100025,36.79028351400029,36.80839161400036,36.80839161400036,36.80839161400036,37.67199930900006,left,1.0,0.8500205769996683,,37.67216045500027,37.68834484099989,38.17330148800011,,,,,,,,,,,,,,,,,,,,,,,,,,,,,,sub-078,1,random_dot,57.80208429905104,
left,left,10.0,0.0,5.0,left,1.0,1.237888231999932,,,,,,5.0,0.0,10.0,0.0,,,,,,,,,38.19016328999987,,,,,,,,,38.17355075999967,38.52363077500013,39.32649625999966,39.30777264700009,39.30804664399966,39.32649625999966,39.32649625999966,39.32649625999966,40.572193050999886,left,1.0,1.237888231999932,,40.57227925200005,40.58537378999972,41.074725899999976,,,,,,,,,,,,,,,,,,,,,,,,,,,,,,sub-078,1,random_dot,57.80208429905104,
right,right,11.0,1.0,5.0,right,1.0,0.962740513999961,,,,,,5.0,1.0,11.0,1.0,,,,,,,,,41.09146824100026,,,,,,,,,41.07495737099998,42.27471396100009,43.07799673600039,43.05946736700025,43.05972726599976,43.07799673600039,43.07799673600039,43.07799673600039,44.06195623500025,right,1.0,0.962740513999961,,44.06203196600018,44.074879914999656,44.5602553130002,44.57628125100018,,,,,,,,,,,,,,,,,,,,,,,,,,,,,sub-078,1,random_dot,57.80208429905104,
left,left,12.0,0.0,6.0,left,1.0,0.8632329989995924,,,,,,6.0,0.0,12.0,0.0,,,,,,,,,44.57628125100018,,,,,,,,,44.56047325500003,44.926619773999846,45.72715233300005,45.71054707300027,45.71080668000013,45.72715233300005,45.72715233300005,45.72715233300005,46.61075916299978,left,1.0,0.8632329989995924,,46.61091081300037,46.624726834000285,47.11129093799991,47.12760834599976,,,,,,,,,,,,,,,,,,,,,,,,,,,,,sub-078,1,random_dot,57.80208429905104,
right,right,13.0,1.0,6.0,right,1.0,0.7283418139995774,,,,,,6.0,1.0,13.0,1.0,,,,,,,,,47.12760834599976,,,,,,,,,47.11151042100028,47.46099803800007,48.26433183300014,48.24553870900036,48.24580136999976,48.26433183300014,48.26433183300014,48.26433183300014,49.00661082500028,right,1.0,0.7283418139995774,,49.00694744500015,49.02220505800051,49.51260993100004,,,,,,,,,,,,,,,,,,,,,,,,,,,,,,sub-078,1,random_dot,57.80208429905104,
left,left,14.0,0.0,7.0,left,1.0,0.8999528720005401,,,,,,7.0,0.0,14.0,0.0,,,,,,,,,49.52839205200053,,,,,,,,,49.512879910000265,49.86222902100053,50.66589270199984,50.64652167500026,50.64687215499998,50.66589270199984,50.66589270199984,50.66589270199984,51.584026515000005,left,1.0,0.8999528720005401,,51.58411074600008,51.598329878000186,52.09721700699993,,,,,,,,,,,,,,,,,,,,,,,,,,,,,,sub-078,1,random_dot,57.80208429905104,
right,right,15.0,1.0,7.0,right,1.0,0.8208423149999362,,,,,,7.0,1.0,15.0,1.0,,,,,,,,,52.11326729000029,,,,,,,,,52.09755318200041,52.44701647300008,53.24947558700024,53.231010712999705,53.23126918999969,53.24947558700024,53.24947558700024,53.24947558700024,54.09340624099968,right,1.0,0.8208423149999362,,54.09357434499998,54.1062363709998,54.59778976800044,,,,,,,,,,,,,,,,,,,,,,,,,,,,,,sub-078,1,random_dot,57.80208429905104,
left,left,16.0,0.0,8.0,left,1.0,0.7654379240002527,,,,,,8.0,0.0,16.0,0.0,,,,,,,,,54.61451056100032,,,,,,,,,54.59801988399977,55.398001847999694,56.201056249999965,56.18245720200048,56.18271800900038,56.201056249999965,56.201056249999965,56.201056249999965,56.98210860400013,left,1.0,0.7654379240002527,,56.98218799200004,56.996439646,57.48269862000052,,,,,,,,,,,,,,,,,,,,,,,,,,,,,,sub-078,1,random_dot,57.80208429905104,
right,right,17.0,1.0,8.0,right,1.0,1.5435205399999177,,,,,,8.0,1.0,17.0,1.0,,,,,,,,,57.49919017100001,,,,,,,,,57.48292882300029,58.6827682359999,59.48603483399984,59.46716160000051,59.46742404500037,59.48603483399984,59.48603483399984,59.48603483399984,61.03428982700007,right,1.0,1.5435205399999177,,61.03438301500046,61.04868027999965,61.53476299999966,61.55112974799977,,,,,,,,,,,,,,,,,,,,,,,,,,,,,sub-078,1,random_dot,57.80208429905104,
right,right,18.0,0.0,9.0,left,0.0,0.9123006969994094,,,,,,9.0,0.0,18.0,1.0,,,,,,,,,61.55112974799977,,,,,,,,,61.53497891999996,61.63428478199967,62.43701249500009,62.41867555899989,62.41893484800039,62.43701249500009,62.43701249500009,62.43701249500009,63.35515787700024,left,0.0,0.9123006969994094,,63.35745579900049,63.369719979000365,63.85265513200011,63.86883211700024,,,,,,,,,,,,,,,,,,,,,,,,,,,,,sub-078,1,random_dot,57.80208429905104,
left,left,19.0,1.0,9.0,left,1.0,1.385933958000351,,,,,,9.0,1.0,19.0,0.0,,,,,,,,,63.86883211700024,,,,,,,,,63.85287392900045,63.968801781000366,64.77202260600006,64.75325885599977,64.75353743400046,64.77202260600006,64.77202260600006,64.77202260600006,66.18199377699966,left,1.0,1.385933958000351,,66.18500032500015,66.197987904,66.68653251599972,,,,,,,,,,,,,,,,,,,,,,,,,,,,,,sub-078,1,random_dot,57.80208429905104,
,,,,,,,,,,,,,,,,,,,,,,,,,,,,,,,,,,,,,,,,,,,,,,,,,,,66.68662625900015,66.70288458200048,66.70288458200048,68.90557641499981,space,2.1920260030001373,,,,,,,,,,,,,,,,,,,,,,,sub-078,1,random_dot,57.80208429905104,
,,,,,,,,,,,,,,,,,,,,,,,,,,,,,,,,,,,,,,,,,,,,,,,,,,,,,,,,,,68.90563646999999,68.92292390800048,68.92292390800048,73.24141794000025,space,4.300975344000108,,,,,,,,,,,,,,,,sub-078,1,random_dot,57.80208429905104,
right,right,0.0,0.0,0.0,right,1.0,2.2097010310008045,,speed,space,2.788748445999772,,,,,,0.0,0.0,0.0,1.0,0.0,0.0,0.0,1.0,76.14562912600013,,,,,,,,,76.13029311399987,77.32522503000018,78.13027733000035,78.10891622800045,78.10919450799975,78.13027733000035,78.13027733000035,78.13027733000035,80.34456552000029,,,,,,,,,,,,,,,,,,,,,,,73.30060539399983,73.32681995999974,73.32681995999974,76.12589961699996,space,2.788748445999772,,right,1.0,2.2097010310008045,,,,,sub-078,1,random_dot,57.80208429905104,
left,left,1.0,1.0,0.0,left,1.0,0.9337897569994312,,speed,space,2.788748445999772,,,,,,0.0,0.0,0.0,1.0,0.0,1.0,1.0,0.0,80.35835071299971,,,,,,,,,80.34486161600034,81.543818311,82.34694199299975,82.32811196800048,82.32838156799971,82.34694199299975,82.34694199299975,82.34694199299975,83.29232332900028,,,,,,,,,,,,,,,,,,,,,,,,,,,,,,left,1.0,0.9337897569994312,,,,,sub-078,1,random_dot,57.80208429905104,
right,right,2.0,0.0,1.0,right,1.0,0.7964680380000573,,speed,space,2.788748445999772,,,,,,0.0,0.0,0.0,1.0,1.0,0.0,2.0,1.0,83.30572724900048,,,,,,,,,83.29261373500049,83.39464330200008,84.19748228699973,84.17883385999994,84.17909223900006,84.19748228699973,84.19748228699973,84.19748228699973,85.00094299900047,,,,,,,,,,,,,,,,,,,,,,,,,,,,,,right,1.0,0.7964680380000573,,,,,sub-078,1,random_dot,57.80208429905104,
left,left,3.0,1.0,1.0,left,1.0,0.8125067849996412,,speed,space,2.788748445999772,,,,,,0.0,0.0,0.0,1.0,1.0,1.0,3.0,0.0,85.01462619100039,,,,,,,,,85.00123781999991,85.11222477299998,85.91471555600037,85.89645712899983,85.8967176189999,85.91471555600037,85.91471555600037,85.91471555600037,86.73384179999994,,,,,,,,,,,,,,,,,,,,,,,,,,,,,,left,1.0,0.8125067849996412,,,,,sub-078,1,random_dot,57.80208429905104,
left,left,4.0,0.0,2.0,left,1.0,0.8446592119998968,,speed,space,2.788748445999772,,,,,,0.0,0.0,0.0,1.0,2.0,0.0,4.0,0.0,86.74688229200001,,,,,,,,,86.73410498599969,86.84625331300049,87.64902959099982,87.63056917599988,87.63083360200017,87.64902959099982,87.64902959099982,87.64902959099982,88.50219397000001,,,,,,,,,,,,,,,,,,,,,,,,,,,,,,left,1.0,0.8446592119998968,,,,,sub-078,1,random_dot,57.80208429905104,
right,right,5.0,1.0,2.0,right,1.0,0.9383031490006032,,speed,space,2.788748445999772,,,,,,0.0,0.0,0.0,1.0,2.0,1.0,5.0,1.0,88.5152333900005,,,,,,,,,88.50249701899975,88.86431261800044,89.66598154700023,89.64807756400023,89.64833639800054,89.66598154700023,89.66598154700023,89.66598154700023,90.61436546000004,,,,,,,,,,,,,,,,,,,,,,,,,,,,,,right,1.0,0.9383031490006032,,,,,sub-078,1,random_dot,57.80208429905104,
right,right,6.0,0.0,3.0,left,0.0,0.752596416000415,,speed,space,2.788748445999772,,,,,,0.0,0.0,0.0,1.0,3.0,0.0,6.0,1.0,90.62784424100028,,,,,,,,,90.61464451200028,91.81534237699998,92.61841620900032,92.59946649599988,92.59972853900037,92.61841620900032,92.61841620900032,92.61841620900032,93.38712460100032,,,,,,,,,,,,,,,,,,,,,,,,,,,,,,left,0.0,0.752596416000415,,,,,sub-078,1,random_dot,57.80208429905104,
left,left,7.0,1.0,3.0,left,1.0,0.9542616320004528,,speed,space,2.788748445999772,,,,,,0.0,0.0,0.0,1.0,3.0,1.0,7.0,0.0,93.4027085509997,,,,,,,,,93.38742020399968,94.19986787699963,95.00237059899972,94.98415373199988,94.98441531400022,95.00237059899972,95.00237059899972,95.00237059899972,95.96333869200043,,,,,,,,,,,,,,,,,,,,,,,,,,,,,,left,1.0,0.9542616320004528,,,,,sub-078,1,random_dot,57.80208429905104,
right,right,8.0,0.0,4.0,right,1.0,0.6018117399999028,,speed,space,2.788748445999772,,,,,,0.0,0.0,0.0,1.0,4.0,0.0,8.0,1.0,95.97623311300048,,,,,,,,,95.96370823600046,96.76772011000048,97.57118919100049,97.55206765599996,97.55231717199968,97.57118919100049,97.57118919100049,97.57118919100049,98.19481720699967,,,,,,,,,,,,,,,,,,,,,,,,,,,,,,right,1.0,0.6018117399999028,,,,,sub-078,1,random_dot,57.80208429905104,
left,left,9.0,1.0,4.0,left,1.0,0.6786076560001675,,speed,space,2.788748445999772,,,,,,0.0,0.0,0.0,1.0,4.0,1.0,9.0,0.0,98.20747253599984,,,,,,,,,98.19579044500006,98.30193887099996,99.10437287900004,99.08601511000052,99.08627213999988,99.10437287900004,99.10437287900004,99.10437287900004,99.7918223200004,,,,,,,,,,,,,,,,,,,,,,,,,,,,,,left,1.0,0.6786076560001675,,,,,sub-078,1,random_dot,57.80208429905104,
right,right,10.0,0.0,5.0,right,1.0,0.5875957469997957,,speed,space,2.788748445999772,,,,,,0.0,0.0,0.0,1.0,5.0,0.0,10.0,1.0,99.80725581699971,,,,,,,,,99.7921221610004,101.0031005560004,101.80615125700024,101.78723463900042,101.78750033100005,101.80615125700024,101.80615125700024,101.80615125700024,102.39938790399992,,,,,,,,,,,,,,,,,,,,,,,,,,,,,,right,1.0,0.5875957469997957,,,,,sub-078,1,random_dot,57.80208429905104,
left,left,11.0,1.0,5.0,left,1.0,0.4437889939999877,,speed,space,2.788748445999772,,,,,,0.0,0.0,0.0,1.0,5.0,1.0,11.0,0.0,102.41208023699984,,,,,,,,,102.39972442100044,103.60438390000036,104.40736753400051,104.38855915099975,104.38881780199972,104.40736753400051,104.40736753400051,104.40736753400051,104.85612438800035,,,,,,,,,,,,,,,,,,,,,,,,,,,,,,left,1.0,0.4437889939999877,,,,,sub-078,1,random_dot,57.80208429905104,
right,right,12.0,0.0,6.0,right,1.0,0.4124525979996178,,speed,space,2.788748445999772,,,,,,0.0,0.0,0.0,1.0,6.0,0.0,12.0,1.0,104.86983126599988,,,,,,,,,104.85642003399973,104.97181725399967,105.77422762399964,105.75580453200018,105.7560630480002,105.77422762399964,105.77422762399964,105.77422762399964,106.20774849700048,,,,,,,,,,,,,,,,,,,,,,,,,,,,,,right,1.0,0.4124525979996178,,,,,sub-078,1,random_dot,57.80208429905104,
left,left,13.0,1.0,6.0,left,1.0,0.4046792030003416,,speed,space,2.788748445999772,,,,,,0.0,0.0,0.0,1.0,6.0,1.0,13.0,0.0,106.22052128999984,,,,,,,,,106.20806565699968,107.02267317800032,107.82502378699974,107.80676517499978,107.80702329500036,107.82502378699974,107.82502378699974,107.82502378699974,108.2395813760004,,,,,,,,,,,,,,,,,,,,,,,,,,,,,,left,1.0,0.4046792030003416,,,,,sub-078,1,random_dot,57.80208429905104,
right,right,14.0,0.0,7.0,right,1.0,0.4345883759997377,,speed,space,2.788748445999772,,,,,,0.0,0.0,0.0,1.0,7.0,0.0,14.0,1.0,108.25320654700045,,,,,,,,,108.2398567600003,109.0402670100002,109.842445536,109.8244791269999,109.82476609600052,109.842445536,109.842445536,109.842445536,110.28761612200014,,,,,,,,,,,,,,,,,,,,,,,,,,,,,,right,1.0,0.4345883759997377,,,,,sub-078,1,random_dot,57.80208429905104,
left,left,15.0,1.0,7.0,left,1.0,1.2388230930000643,,speed,space,2.788748445999772,,,,,,0.0,0.0,0.0,1.0,7.0,1.0,15.0,0.0,110.30057341199972,,,,,,,,,110.28791840699978,110.39108706499974,111.19321264500012,111.1751627829999,111.1754266099997,111.19321264500012,111.19321264500012,111.19321264500012,112.44419289300004,,,,,,,,,,,,,,,,,,,,,,,,,,,,,,left,1.0,1.2388230930000643,,,,,sub-078,1,random_dot,57.80208429905104,
right,right,16.0,0.0,8.0,right,1.0,0.8499517529999139,,speed,space,2.788748445999772,,,,,,0.0,0.0,0.0,1.0,8.0,0.0,16.0,1.0,112.45611770899995,,,,,,,,,112.44450159700044,112.80873185699966,113.61139216799984,113.59293727000022,113.59319466299984,113.61139216799984,113.61139216799984,113.61139216799984,114.47694677900016,,,,,,,,,,,,,,,,,,,,,,,,,,,,,,right,1.0,0.8499517529999139,,,,,sub-078,1,random_dot,57.80208429905104,
left,left,17.0,1.0,8.0,left,1.0,0.6601483309996183,,speed,space,2.788748445999772,,,,,,0.0,0.0,0.0,1.0,8.0,1.0,17.0,0.0,114.49311583400048,,,,,,,,,114.47749819,114.82631773499998,115.62918809300028,115.61056686899974,115.61082451200036,115.62918809300028,115.62918809300028,115.62918809300028,116.29577759299993,,,,,,,,,,,,,,,,,,,,,,,,,,,,,,left,1.0,0.6601483309996183,,,,,sub-078,1,random_dot,57.80208429905104,
right,right,18.0,0.0,9.0,right,1.0,0.6885890230005316,,speed,space,2.788748445999772,,,,,,0.0,0.0,0.0,1.0,9.0,0.0,18.0,1.0,116.311523503,,,,,,,,,116.29608593300054,116.66058693600009,117.4633298230001,117.44467193000035,117.44493101399983,117.4633298230001,117.4633298230001,117.4633298230001,118.16806581200036,,,,,,,,,,,,,,,,,,,,,,,,,,,,,,right,1.0,0.6885890230005316,,,,,sub-078,1,random_dot,57.80208429905104,
left,left,19.0,1.0,9.0,left,1.0,0.7452604209993297,,speed,space,2.788748445999772,,,,,,0.0,0.0,0.0,1.0,9.0,1.0,19.0,0.0,118.18244821700046,,,,,,,,,118.16848634899998,118.9787200740002,119.79039371700036,119.7709489230001,119.77220747899992,119.79039371700036,119.79039371700036,119.79039371700036,120.54640244300026,,,,,,,,,,,,,,,,,,,,,,,,,,,,,,left,1.0,0.7452604209993297,,,,,sub-078,1,random_dot,57.80208429905104,
left,left,20.0,0.0,10.0,left,1.0,0.675816171000406,,speed,space,2.788748445999772,,,,,,0.0,0.0,0.0,1.0,10.0,0.0,20.0,0.0,120.55993392399978,,,,,,,,,120.546698483,121.34612984700016,122.1483210160004,122.13027920100012,122.13054287799967,122.1483210160004,122.1483210160004,122.1483210160004,122.84419700299986,,,,,,,,,,,,,,,,,,,,,,,,,,,,,,left,1.0,0.675816171000406,,,,,sub-078,1,random_dot,57.80208429905104,
right,right,21.0,1.0,10.0,right,1.0,0.6284778810004354,,speed,space,2.788748445999772,,,,,,0.0,0.0,0.0,1.0,10.0,1.0,21.0,1.0,122.85574970900052,,,,,,,,,122.84446972800016,122.94683043199984,123.74990321699988,123.731100469,123.731359806,123.74990321699988,123.74990321699988,123.74990321699988,124.38116356800036,,,,,,,,,,,,,,,,,,,,,,,,,,,,,,right,1.0,0.6284778810004354,,,,,sub-078,1,random_dot,57.80208429905104,
right,right,22.0,0.0,11.0,right,1.0,0.6657847490005224,,speed,space,2.788748445999772,,,,,,0.0,0.0,0.0,1.0,11.0,0.0,22.0,1.0,124.39492766500008,,,,,,,,,124.38143865700022,124.48080950700025,125.2824237450004,125.2652006999997,125.26545879600052,125.2824237450004,125.2824237450004,125.2824237450004,125.95850198700008,,,,,,,,,,,,,,,,,,,,,,,,,,,,,,right,1.0,0.6657847490005224,,,,,sub-078,1,random_dot,57.80208429905104,
left,left,23.0,1.0,11.0,left,1.0,0.5311843469999076,,speed,space,2.788748445999772,,,,,,0.0,0.0,0.0,1.0,11.0,1.0,23.0,0.0,125.97108202900016,,,,,,,,,125.9590549780005,126.76532291500008,127.56810619899989,127.54937171500023,127.54963506500007,127.56810619899989,127.56810619899989,127.56810619899989,128.10463042100037,,,,,,,,,,,,,,,,,,,,,,,,,,,,,,left,1.0,0.5311843469999076,,,,,sub-078,1,random_dot,57.80208429905104,
left,left,24.0,0.0,12.0,left,1.0,1.396899957999267,,speed,space,2.788748445999772,,,,,,0.0,0.0,0.0,1.0,12.0,0.0,24.0,0.0,128.11622173700016,,,,,,,,,128.10492987599991,128.21559733400045,129.01784325399967,128.99972240500028,128.99998470100036,129.01784325399967,129.01784325399967,129.01784325399967,130.42168350599968,,,,,,,,,,,,,,,,,,,,,,,,,,,,,,left,1.0,1.396899957999267,,,,,sub-078,1,random_dot,57.80208429905104,
right,right,25.0,1.0,12.0,right,1.0,1.1981552940005713,,speed,space,2.788748445999772,,,,,,0.0,0.0,0.0,1.0,12.0,1.0,25.0,1.0,130.43501472200023,,,,,,,,,130.42198455400012,131.23407238799973,132.0361252470002,132.01801436999995,132.01828394400036,132.0361252470002,132.0361252470002,132.0361252470002,133.24112731600053,,,,,,,,,,,,,,,,,,,,,,,,,,,,,,right,1.0,1.1981552940005713,,,,,sub-078,1,random_dot,57.80208429905104,
right,right,26.0,0.0,13.0,right,1.0,0.6690732890001527,,speed,space,2.788748445999772,,,,,,0.0,0.0,0.0,1.0,13.0,0.0,26.0,1.0,133.25624272700043,,,,,,,,,133.24140795400035,133.601920264,134.4034008970002,134.38566863600045,134.38591993499995,134.4034008970002,134.4034008970002,134.4034008970002,135.08641885999987,,,,,,,,,,,,,,,,,,,,,,,,,,,,,,right,1.0,0.6690732890001527,,,,,sub-078,1,random_dot,57.80208429905104,
left,left,27.0,1.0,13.0,left,1.0,0.6199139319996902,,speed,space,2.788748445999772,,,,,,0.0,0.0,0.0,1.0,13.0,1.0,27.0,0.0,135.100335481,,,,,,,,,135.08688256700043,136.2865825429999,137.08962300500025,137.07083841799977,137.071101259,137.08962300500025,137.08962300500025,137.08962300500025,137.72120995800014,,,,,,,,,,,,,,,,,,,,,,,,,,,,,,left,1.0,0.6199139319996902,,,,,sub-078,1,random_dot,57.80208429905104,
left,left,28.0,0.0,14.0,left,1.0,0.7049846359996081,,speed,space,2.788748445999772,,,,,,0.0,0.0,0.0,1.0,14.0,0.0,28.0,0.0,137.73490751999998,,,,,,,,,137.72153035199972,138.0706850940005,138.87337021199983,138.85478187900026,138.85504582700014,138.87337021199983,138.87337021199983,138.87337021199983,139.5901309110004,,,,,,,,,,,,,,,,,,,,,,,,,,,,,,left,1.0,0.7049846359996081,,,,,sub-078,1,random_dot,57.80208429905104,
right,right,29.0,1.0,14.0,right,1.0,0.7936171319997811,,speed,space,2.788748445999772,,,,,,0.0,0.0,0.0,1.0,14.0,1.0,29.0,1.0,139.60562917100015,,,,,,,,,139.5904113100005,140.80520504600008,141.6083323869998,141.58942038500027,141.5896804969998,141.6083323869998,141.6083323869998,141.6083323869998,142.4213534190003,,,,,,,,,,,,,,,,,,,,,,,,,,,,,,right,1.0,0.7936171319997811,,,,,sub-078,1,random_dot,57.80208429905104,
left,left,30.0,0.0,15.0,left,1.0,0.5649393260000579,,speed,space,2.788748445999772,,,,,,0.0,0.0,0.0,1.0,15.0,0.0,30.0,0.0,142.43375397700038,,,,,,,,,142.42165406100048,142.77294255299967,143.57559570299964,143.55715970100027,143.5574188820001,143.57559570299964,143.57559570299964,143.57559570299964,144.15220492800017,,,,,,,,,,,,,,,,,,,,,,,,,,,,,,left,1.0,0.5649393260000579,,,,,sub-078,1,random_dot,57.80208429905104,
right,right,31.0,1.0,15.0,right,1.0,0.4825885310001467,,speed,space,2.788748445999772,,,,,,0.0,0.0,0.0,1.0,15.0,1.0,31.0,1.0,144.1646903680003,,,,,,,,,144.15251220899972,145.35730947899992,146.16036006099966,146.14155438600028,146.1418177860005,146.16036006099966,146.16036006099966,146.16036006099966,146.6471307110005,,,,,,,,,,,,,,,,,,,,,,,,,,,,,,right,1.0,0.4825885310001467,,,,,sub-078,1,random_dot,57.80208429905104,
left,left,32.0,0.0,16.0,left,1.0,0.5685322740000629,,speed,space,2.788748445999772,,,,,,0.0,0.0,0.0,1.0,16.0,0.0,32.0,0.0,146.6600116870004,,,,,,,,,146.64742379000018,147.00818532300036,147.80949025399968,147.79251136899984,147.79277117899983,147.80949025399968,147.80949025399968,147.80949025399968,148.3830355830005,,,,,,,,,,,,,,,,,,,,,,,,,,,,,,left,1.0,0.5685322740000629,,,,,sub-078,1,random_dot,57.80208429905104,
right,right,33.0,1.0,16.0,right,1.0,0.4996621350001078,,speed,space,2.788748445999772,,,,,,0.0,0.0,0.0,1.0,16.0,1.0,33.0,1.0,148.39753351699983,,,,,,,,,148.38340236600015,148.7424296250001,149.54552691400022,149.52655639800014,149.52681707200009,149.54552691400022,149.54552691400022,149.54552691400022,150.0498009339999,,,,,,,,,,,,,,,,,,,,,,,,,,,,,,right,1.0,0.4996621350001078,,,,,sub-078,1,random_dot,57.80208429905104,
left,left,34.0,0.0,17.0,left,1.0,0.599395469999763,,speed,space,2.788748445999772,,,,,,0.0,0.0,0.0,1.0,17.0,0.0,34.0,0.0,150.0627057669999,,,,,,,,,150.0501790139997,151.26021720599965,152.06280801100002,152.0442548230003,152.04451787299968,152.06280801100002,152.06280801100002,152.06280801100002,152.67387395399965,,,,,,,,,,,,,,,,,,,,,,,,,,,,,,left,1.0,0.599395469999763,,,,,sub-078,1,random_dot,57.80208429905104,
right,right,35.0,1.0,17.0,right,1.0,0.7121208979997391,,speed,space,2.788748445999772,,,,,,0.0,0.0,0.0,1.0,17.0,1.0,35.0,1.0,152.68668079000054,,,,,,,,,152.6741906420002,152.77776690599967,153.58091138300006,153.56189499100037,153.56215297699964,153.58091138300006,153.58091138300006,153.58091138300006,154.30102129900024,,,,,,,,,,,,,,,,,,,,,,,,,,,,,,right,1.0,0.7121208979997391,,,,,sub-078,1,random_dot,57.80208429905104,
left,left,36.0,0.0,18.0,left,1.0,0.6695974160002152,,speed,space,2.788748445999772,,,,,,0.0,0.0,0.0,1.0,18.0,0.0,36.0,0.0,154.3139005080002,,,,,,,,,154.30128760299976,155.11189221299992,155.91446251900015,155.89626126799976,155.8965242740005,155.91446251900015,155.91446251900015,155.91446251900015,156.5955827280004,,,,,,,,,,,,,,,,,,,,,,,,,,,,,,left,1.0,0.6695974160002152,,,,,sub-078,1,random_dot,57.80208429905104,
right,right,37.0,1.0,18.0,right,1.0,0.8361604450001323,,speed,space,2.788748445999772,,,,,,0.0,0.0,0.0,1.0,18.0,1.0,37.0,1.0,156.60910437599978,,,,,,,,,156.59587512800044,156.94629789200008,157.74852712499978,157.7303807039998,157.73063872400053,157.74852712499978,157.74852712499978,157.74852712499978,158.59561392100022,,,,,,,,,,,,,,,,,,,,,,,,,,,,,,right,1.0,0.8361604450001323,,,,,sub-078,1,random_dot,57.80208429905104,
right,right,38.0,0.0,19.0,left,0.0,0.9875715860007404,,speed,space,2.788748445999772,,,,,,0.0,0.0,0.0,1.0,19.0,0.0,38.0,1.0,158.60894026300048,,,,,,,,,158.59587630500027,159.39746826100054,160.19824643999982,160.18165517299985,160.1819174530001,160.19824643999982,160.19824643999982,160.19824643999982,161.2068316900004,,,,,,,,,,,,,,,,,,,,,,,,,,,,,,left,0.0,0.9875715860007404,,,,,sub-078,1,random_dot,57.80208429905104,
left,left,39.0,1.0,19.0,left,1.0,0.879441687000508,,speed,space,2.788748445999772,,,,,,0.0,0.0,0.0,1.0,19.0,1.0,39.0,0.0,161.22055830499994,,,,,,,,,161.20762969099997,161.315137005,162.11798989199997,162.0999515880003,162.1001962119999,162.11798989199997,162.11798989199997,162.11798989199997,163.01865527399968,,,,,,,,,,,,,,,,,,,,,,,,,,,,,,left,1.0,0.879441687000508,,,,,sub-078,1,random_dot,57.80208429905104,
right,right,40.0,0.0,20.0,right,1.0,1.1346770319996722,,speed,space,2.788748445999772,,,,,,0.0,0.0,0.0,1.0,20.0,0.0,40.0,1.0,163.03118531400014,,,,,,,,,163.01894499300033,163.13263638900025,163.93342777199996,163.9168233070004,163.91708518199994,163.93342777199996,163.93342777199996,163.93342777199996,165.07031363199985,,,,,,,,,,,,,,,,,,,,,,,,,,,,,,right,1.0,1.1346770319996722,,,,,sub-078,1,random_dot,57.80208429905104,
left,left,41.0,1.0,20.0,left,1.0,0.7692367189993092,,speed,space,2.788748445999772,,,,,,0.0,0.0,0.0,1.0,20.0,1.0,41.0,0.0,165.08402308899986,,,,,,,,,165.07062078299987,165.18335549699987,165.98611716400046,165.96763448900035,165.9679036710004,165.98611716400046,165.98611716400046,165.98611716400046,166.77614744600032,,,,,,,,,,,,,,,,,,,,,,,,,,,,,,left,1.0,0.7692367189993092,,,,,sub-078,1,random_dot,57.80208429905104,
left,left,42.0,0.0,21.0,left,1.0,0.8680355129999953,,speed,space,2.788748445999772,,,,,,0.0,0.0,0.0,1.0,21.0,0.0,42.0,0.0,166.7890010629999,,,,,,,,,166.77710312300042,167.9848187079997,168.78798744699998,168.76900970299994,168.76927080400037,168.78798744699998,168.78798744699998,168.78798744699998,169.67440238699965,,,,,,,,,,,,,,,,,,,,,,,,,,,,,,left,1.0,0.8680355129999953,,,,,sub-078,1,random_dot,57.80208429905104,
right,right,43.0,1.0,21.0,right,1.0,0.632460490000085,,speed,space,2.788748445999772,,,,,,0.0,0.0,0.0,1.0,21.0,1.0,43.0,1.0,169.68608683399998,,,,,,,,,169.6747027629999,170.48602084100003,171.2929823200002,171.27122276299997,171.27160688500044,171.2929823200002,171.2929823200002,171.2929823200002,171.93332848000043,,,,,,,,,,,,,,,,,,,,,,,,,,,,,,right,1.0,0.632460490000085,,,,,sub-078,1,random_dot,57.80208429905104,
left,left,44.0,0.0,22.0,left,1.0,0.6558206580002661,,speed,space,2.788748445999772,,,,,,0.0,0.0,0.0,1.0,22.0,0.0,44.0,0.0,171.94610973,,,,,,,,,171.9336138560002,172.03630790399984,172.83966016900013,172.82095232400025,172.82122001399966,172.83966016900013,172.83966016900013,172.83966016900013,173.49984312299966,,,,,,,,,,,,,,,,,,,,,,,,,,,,,,left,1.0,0.6558206580002661,,,,,sub-078,1,random_dot,57.80208429905104,
right,right,45.0,1.0,22.0,right,1.0,0.6306480469993403,,speed,space,2.788748445999772,,,,,,0.0,0.0,0.0,1.0,22.0,1.0,45.0,1.0,173.5124457789998,,,,,,,,,173.50015072000042,173.60427869100022,174.40739372999997,174.3885474460003,174.38880420999976,174.40739372999997,174.40739372999997,174.40739372999997,175.04627818900008,,,,,,,,,,,,,,,,,,,,,,,,,,,,,,right,1.0,0.6306480469993403,,,,,sub-078,1,random_dot,57.80208429905104,
right,right,46.0,0.0,23.0,left,0.0,0.3551610180002171,,speed,space,2.788748445999772,,,,,,0.0,0.0,0.0,1.0,23.0,0.0,46.0,1.0,175.06019358899994,,,,,,,,,175.0469268730003,175.40503937999983,176.20774560599966,176.18926843600002,176.18952620799973,176.20774560599966,176.20774560599966,176.20774560599966,176.56920012200044,,,,,,,,,,,,,,,,,,,,,,,,,,,,,,left,0.0,0.3551610180002171,,,,,sub-078,1,random_dot,57.80208429905104,
left,left,47.0,1.0,23.0,right,0.0,0.4734197460002178,,speed,space,2.788748445999772,,,,,,0.0,0.0,0.0,1.0,23.0,1.0,47.0,0.0,176.58202986499964,,,,,,,,,176.5694977969997,176.92225808500007,177.7238443690003,177.70665954700053,177.70692346299984,177.7238443690003,177.7238443690003,177.7238443690003,178.20820484100022,,,,,,,,,,,,,,,,,,,,,,,,,,,,,,right,0.0,0.4734197460002178,,,,,sub-078,1,random_dot,57.80208429905104,
right,right,48.0,0.0,24.0,right,1.0,1.3932474920002278,,speed,space,2.788748445999772,,,,,,0.0,0.0,0.0,1.0,24.0,0.0,48.0,1.0,178.2238858640003,,,,,,,,,178.2084702960001,178.3071386390002,179.10929867899995,179.0908502760003,179.09111936699992,179.10929867899995,179.10929867899995,179.10929867899995,180.52211542700024,,,,,,,,,,,,,,,,,,,,,,,,,,,,,,right,1.0,1.3932474920002278,,,,,sub-078,1,random_dot,57.80208429905104,
left,left,49.0,1.0,24.0,left,1.0,0.9985758530001476,,speed,space,2.788748445999772,,,,,,0.0,0.0,0.0,1.0,24.0,1.0,49.0,0.0,180.53396360100032,,,,,,,,,180.52237379000053,181.3242881850001,182.1272173280004,182.10871778799992,182.1089878390003,182.1272173280004,182.1272173280004,182.1272173280004,183.1458374680005,,,,,,,,,,,,,,,,,,,,,,,,,,,,,,left,1.0,0.9985758530001476,,,,,sub-078,1,random_dot,57.80208429905104,
right,right,50.0,0.0,25.0,right,1.0,0.3863746470005935,,speed,space,2.788748445999772,,,,,,0.0,0.0,0.0,1.0,25.0,0.0,50.0,1.0,183.1602495070001,,,,,,,,,183.146117837,183.9590411850004,184.76136570800008,184.74324519099991,184.7435145700001,184.76136570800008,184.76136570800008,184.76136570800008,185.1654184300005,,,,,,,,,,,,,,,,,,,,,,,,,,,,,,right,1.0,0.3863746470005935,,,,,sub-078,1,random_dot,57.80208429905104,
left,left,51.0,1.0,25.0,left,1.0,0.5155096759999651,,speed,space,2.788748445999772,,,,,,0.0,0.0,0.0,1.0,25.0,1.0,51.0,0.0,185.1798243379999,,,,,,,,,185.16571936299988,185.27645393700004,186.07905328000012,186.06051381399996,186.06078750100005,186.07905328000012,186.07905328000012,186.07905328000012,186.59843197200007,,,,,,,,,,,,,,,,,,,,,,,,,,,,,,left,1.0,0.5155096759999651,,,,,sub-078,1,random_dot,57.80208429905104,
right,right,52.0,0.0,26.0,right,1.0,0.4673829929997737,,speed,space,2.788748445999772,,,,,,0.0,0.0,0.0,1.0,26.0,0.0,52.0,1.0,186.61138901100003,,,,,,,,,186.5987156279998,186.7103149049999,187.51326724699996,187.4946765120003,187.49493650400015,187.51326724699996,187.51326724699996,187.51326724699996,187.99021395599996,,,,,,,,,,,,,,,,,,,,,,,,,,,,,,right,1.0,0.4673829929997737,,,,,sub-078,1,random_dot,57.80208429905104,
left,left,53.0,1.0,26.0,left,1.0,1.146109179000632,,speed,space,2.788748445999772,,,,,,0.0,0.0,0.0,1.0,26.0,1.0,53.0,0.0,188.00251614100037,,,,,,,,,187.99048715499976,188.7948616680005,189.59763316299995,189.5788805680004,189.57914235000044,189.59763316299995,189.59763316299995,189.59763316299995,190.76299653499973,,,,,,,,,,,,,,,,,,,,,,,,,,,,,,left,1.0,1.146109179000632,,,,,sub-078,1,random_dot,57.80208429905104,
right,right,54.0,0.0,27.0,left,0.0,0.9299662439998428,,speed,space,2.788748445999772,,,,,,0.0,0.0,0.0,1.0,27.0,0.0,54.0,1.0,190.77561594300005,,,,,,,,,190.76326288699968,191.96272952300023,192.76603052599967,192.7471183180005,192.74738197100032,192.76603052599967,192.76603052599967,192.76603052599967,193.71734776999983,,,,,,,,,,,,,,,,,,,,,,,,,,,,,,left,0.0,0.9299662439998428,,,,,sub-078,1,random_dot,57.80208429905104,
left,left,55.0,1.0,27.0,left,1.0,1.0925431709993063,,speed,space,2.788748445999772,,,,,,0.0,0.0,0.0,1.0,27.0,1.0,55.0,0.0,193.73173885100005,,,,,,,,,193.7176425990001,194.0805746160004,194.883296082,194.86466761599968,194.86492442300005,194.883296082,194.883296082,194.883296082,195.99564280200048,,,,,,,,,,,,,,,,,,,,,,,,,,,,,,left,1.0,1.0925431709993063,,,,,sub-078,1,random_dot,57.80208429905104,
left,left,56.0,0.0,28.0,right,0.0,3.011967473000368,,speed,space,2.788748445999772,,,,,,0.0,0.0,0.0,1.0,28.0,0.0,56.0,0.0,196.00720502700003,,,,,,,,,195.9959384720005,196.09829034199996,196.9010618940001,196.88240620600027,196.88267171000007,196.9010618940001,196.9010618940001,196.9010618940001,199.92344187100025,,,,,,,,,,,,,,,,,,,,,,,,,,,,,,right,0.0,3.011967473000368,,,,,sub-078,1,random_dot,57.80208429905104,
right,right,57.0,1.0,28.0,right,1.0,0.7480028410000159,,speed,space,2.788748445999772,,,,,,0.0,0.0,0.0,1.0,28.0,1.0,57.0,1.0,199.9378832069997,,,,,,,,,199.92386328199973,201.1338616439998,201.94330512899975,201.92239287600023,201.9228213160004,201.94330512899975,201.94330512899975,201.94330512899975,202.704095907,,,,,,,,,,,,,,,,,,,,,,,,,,,,,,right,1.0,0.7480028410000159,,,,,sub-078,1,random_dot,57.80208429905104,
right,right,58.0,0.0,29.0,left,0.0,0.9701544999998076,,speed,space,2.788748445999772,,,,,,0.0,0.0,0.0,1.0,29.0,0.0,58.0,1.0,202.71984915699977,,,,,,,,,202.70439919,203.06814877800025,203.87097534700024,203.8525035470002,203.85276486899969,203.87097534700024,203.87097534700024,203.87097534700024,204.85181497400023,,,,,,,,,,,,,,,,,,,,,,,,,,,,,,left,0.0,0.9701544999998076,,,,,sub-078,1,random_dot,57.80208429905104,
left,left,59.0,1.0,29.0,left,1.0,0.9490972459998376,,speed,space,2.788748445999772,,,,,,0.0,0.0,0.0,1.0,29.0,1.0,59.0,0.0,204.86548181800023,,,,,,,,,204.85209673100053,205.2025427110002,206.00521919899984,205.9866049130005,205.9868671459999,206.00521919899984,206.00521919899984,206.00521919899984,206.97284337099973,,,,,,,,,,,,,,,,,,,,,,,,,,,,,,left,1.0,0.9490972459998376,,,,,sub-078,1,random_dot,57.80208429905104,
,,0.0,0.0,0.0,,,,,speed,space,2.788748445999772,,,,,,0.0,0.0,0.0,1.0,,,,,,,,,,,,,,,,,,,,,,,,,,,,,,,,,,,,,,,,,,,,,,,,,,,,,,,,,,,sub-078,1,random_dot,57.80208429905104,
left,left,0.0,0.0,0.0,left,1.0,1.3629362570000012,,accuracy,space,2.2825256429996443,,,,,,0.0,1.0,1.0,0.0,0.0,0.0,0.0,0.0,209.30870342300025,,,,,,,,,209.29375148800045,209.6546401960004,210.4578504030005,210.4389235280005,210.43919255899985,210.4578504030005,210.4578504030005,210.4578504030005,211.82471169699969,,,,,,,,,,,,,,,,,,,,,,,206.9842229779997,206.99793877000047,206.99793877000047,209.28900334900027,space,2.2825256429996443,,left,1.0,1.3629362570000012,,,,,sub-078,1,random_dot,57.80208429905104,
right,right,1.0,1.0,0.0,right,1.0,0.5818666870000015,,accuracy,space,2.2825256429996443,,,,,,0.0,1.0,1.0,0.0,0.0,1.0,1.0,1.0,211.84033664300023,,,,,,,,,211.8250145520005,213.03952379699967,213.8427437970004,213.82389053800037,213.82415153700003,213.8427437970004,213.8427437970004,213.8427437970004,214.43203307899967,,,,,,,,,,,,,,,,,,,,,,,,,,,,,,right,1.0,0.5818666870000015,,,,,sub-078,1,random_dot,57.80208429905104,
right,right,2.0,0.0,1.0,right,1.0,0.6611598590006906,,accuracy,space,2.2825256429996443,,,,,,0.0,1.0,1.0,0.0,1.0,0.0,2.0,1.0,214.4462900119997,,,,,,,,,214.4328508489998,215.2405933629998,216.0432169570004,216.0246983019997,216.02495837900003,216.0432169570004,216.0432169570004,216.0432169570004,216.7085141990001,,,,,,,,,,,,,,,,,,,,,,,,,,,,,,right,1.0,0.6611598590006906,,,,,sub-078,1,random_dot,57.80208429905104,
left,left,3.0,1.0,1.0,left,1.0,0.6349995359996683,,accuracy,space,2.2825256429996443,,,,,,0.0,1.0,1.0,0.0,1.0,1.0,3.0,0.0,216.7222356780003,,,,,,,,,216.70879084300032,216.80740390499977,217.6109442059997,217.59223092699995,217.592489443,217.6109442059997,217.6109442059997,217.6109442059997,218.25732220600003,,,,,,,,,,,,,,,,,,,,,,,,,,,,,,left,1.0,0.6349995359996683,,,,,sub-078,1,random_dot,57.80208429905104,
right,right,4.0,0.0,2.0,right,1.0,0.71588956100004,,accuracy,space,2.2825256429996443,,,,,,0.0,1.0,1.0,0.0,2.0,0.0,4.0,1.0,218.2707348189997,,,,,,,,,218.2576257050005,219.05899492800015,219.86205715800045,219.84311235899983,219.8433747290001,219.86205715800045,219.86205715800045,219.86205715800045,220.59640073799983,,,,,,,,,,,,,,,,,,,,,,,,,,,,,,right,1.0,0.71588956100004,,,,,sub-078,1,random_dot,57.80208429905104,
left,left,5.0,1.0,2.0,left,1.0,3.142429372999686,,accuracy,space,2.2825256429996443,,,,,,0.0,1.0,1.0,0.0,2.0,1.0,5.0,0.0,220.6118698070004,,,,,,,,,220.59666701399965,220.7095657230002,221.51281228900007,221.494226027,221.49448662400027,221.51281228900007,221.51281228900007,221.51281228900007,224.6746170260003,,,,,,,,,,,,,,,,,,,,,,,,,,,,,,left,1.0,3.142429372999686,,,,,sub-078,1,random_dot,57.80208429905104,
left,left,6.0,0.0,3.0,left,1.0,2.412842100000489,,accuracy,space,2.2825256429996443,,,,,,0.0,1.0,1.0,0.0,3.0,0.0,6.0,0.0,224.68566157700025,,,,,,,,,224.6749062079998,225.47823458699983,226.28198877900013,226.26316388800024,226.26343142800036,226.28198877900013,226.28198877900013,226.28198877900013,228.70849791599997,,,,,,,,,,,,,,,,,,,,,,,,,,,,,,left,1.0,2.412842100000489,,,,,sub-078,1,random_dot,57.80208429905104,
right,right,7.0,1.0,3.0,right,1.0,3.867654560000119,,accuracy,space,2.2825256429996443,,,,,,0.0,1.0,1.0,0.0,3.0,1.0,7.0,1.0,228.72080622799967,,,,,,,,,228.7087782260005,229.06341884199992,229.86706907200005,229.8481898520004,229.8484642379999,229.86706907200005,229.86706907200005,229.86706907200005,233.74893622400032,,,,,,,,,,,,,,,,,,,,,,,,,,,,,,right,1.0,3.867654560000119,,,,,sub-078,1,random_dot,57.80208429905104,
left,left,8.0,0.0,4.0,left,1.0,0.9379244080000716,,accuracy,space,2.2825256429996443,,,,,,0.0,1.0,1.0,0.0,4.0,0.0,8.0,0.0,233.7626126590003,,,,,,,,,233.749219886,234.5499762700001,235.351688834,235.33358819000023,235.33384686200043,235.351688834,235.351688834,235.351688834,236.29389430500032,,,,,,,,,,,,,,,,,,,,,,,,,,,,,,left,1.0,0.9379244080000716,,,,,sub-078,1,random_dot,57.80208429905104,
right,right,9.0,1.0,4.0,right,1.0,0.9952821960005168,,accuracy,space,2.2825256429996443,,,,,,0.0,1.0,1.0,0.0,4.0,1.0,9.0,1.0,236.3070995879998,,,,,,,,,236.294874876,237.10107195,237.9034861380005,237.8854747739997,237.88572634699997,237.9034861380005,237.9034861380005,237.9034861380005,238.9044050450002,,,,,,,,,,,,,,,,,,,,,,,,,,,,,,right,1.0,0.9952821960005168,,,,,sub-078,1,random_dot,57.80208429905104,
left,left,10.0,0.0,5.0,left,1.0,0.7942149709997466,,accuracy,space,2.2825256429996443,,,,,,0.0,1.0,1.0,0.0,5.0,0.0,10.0,0.0,238.9210897330004,,,,,,,,,238.904694934,239.269111308,240.07213535899973,240.05282159200036,240.0530827680004,240.07213535899973,240.07213535899973,240.07213535899973,240.8833311380004,,,,,,,,,,,,,,,,,,,,,,,,,,,,,,left,1.0,0.7942149709997466,,,,,sub-078,1,random_dot,57.80208429905104,
right,right,11.0,1.0,5.0,right,1.0,1.0462648020002234,,accuracy,space,2.2825256429996443,,,,,,0.0,1.0,1.0,0.0,5.0,1.0,11.0,1.0,240.8964785469998,,,,,,,,,240.88361933099984,241.236857332,242.04147620799995,242.02154166299988,242.0218576079997,242.04147620799995,242.04147620799995,242.04147620799995,243.10137886699977,,,,,,,,,,,,,,,,,,,,,,,,,,,,,,right,1.0,1.0462648020002234,,,,,sub-078,1,random_dot,57.80208429905104,
left,left,12.0,0.0,6.0,left,1.0,0.6345256799995695,,accuracy,space,2.2825256429996443,,,,,,0.0,1.0,1.0,0.0,6.0,0.0,12.0,0.0,243.11706924600003,,,,,,,,,243.10192178800023,243.45335306299967,244.25637673300025,244.23814482200032,244.23844209300023,244.25637673300025,244.25637673300025,244.25637673300025,244.900169644,,,,,,,,,,,,,,,,,,,,,,,,,,,,,,left,1.0,0.6345256799995695,,,,,sub-078,1,random_dot,57.80208429905104,
right,right,13.0,1.0,6.0,left,0.0,0.6858983760002957,,accuracy,space,2.2825256429996443,,,,,,0.0,1.0,1.0,0.0,6.0,1.0,13.0,1.0,244.91269059299972,,,,,,,,,244.90047992499967,245.7050406380004,246.5081029009998,246.48954425300053,246.48980267000024,246.5081029009998,246.5081029009998,246.5081029009998,247.2159250679997,,,,,,,,,,,,,,,,,,,,,,,,,,,,,,left,0.0,0.6858983760002957,,,,,sub-078,1,random_dot,57.80208429905104,
right,right,14.0,0.0,7.0,right,1.0,0.6937907940000514,,accuracy,space,2.2825256429996443,,,,,,0.0,1.0,1.0,0.0,7.0,0.0,14.0,1.0,247.2278342310001,,,,,,,,,247.21650556300028,248.02305064400025,248.82550693699977,248.80699036500027,248.8072542460004,248.82550693699977,248.82550693699977,248.82550693699977,249.53961308100045,,,,,,,,,,,,,,,,,,,,,,,,,,,,,,right,1.0,0.6937907940000514,,,,,sub-078,1,random_dot,57.80208429905104,
left,left,15.0,1.0,7.0,left,1.0,0.7111569779999627,,accuracy,space,2.2825256429996443,,,,,,0.0,1.0,1.0,0.0,7.0,1.0,15.0,0.0,249.55216069900047,,,,,,,,,249.5400502780003,249.890324516,250.69325610800024,250.67449973400016,250.67476107899984,250.69325610800024,250.69325610800024,250.69325610800024,251.40913123300012,,,,,,,,,,,,,,,,,,,,,,,,,,,,,,left,1.0,0.7111569779999627,,,,,sub-078,1,random_dot,57.80208429905104,
left,left,16.0,0.0,8.0,left,1.0,0.7842254679999314,,accuracy,space,2.2825256429996443,,,,,,0.0,1.0,1.0,0.0,8.0,0.0,16.0,0.0,251.4231421020004,,,,,,,,,251.40941156900044,252.60829122700036,253.4087510320005,253.39209185500025,253.39235738000025,253.4087510320005,253.4087510320005,253.4087510320005,254.2044646459999,,,,,,,,,,,,,,,,,,,,,,,,,,,,,,left,1.0,0.7842254679999314,,,,,sub-078,1,random_dot,57.80208429905104,
right,right,17.0,1.0,8.0,right,1.0,0.5821760839999115,,accuracy,space,2.2825256429996443,,,,,,0.0,1.0,1.0,0.0,8.0,1.0,17.0,1.0,254.21689772199989,,,,,,,,,254.20478171099967,255.00934896699985,255.8125012359997,255.79373269700045,255.7939913440005,255.8125012359997,255.8125012359997,255.8125012359997,256.4061596009997,,,,,,,,,,,,,,,,,,,,,,,,,,,,,,right,1.0,0.5821760839999115,,,,,sub-078,1,random_dot,57.80208429905104,
left,left,18.0,0.0,9.0,left,1.0,0.5674306999999317,,accuracy,space,2.2825256429996443,,,,,,0.0,1.0,1.0,0.0,9.0,0.0,18.0,0.0,256.41895916999965,,,,,,,,,256.4064608839999,256.5104176519999,257.31316481700014,257.29442465600005,257.2946870100004,257.31316481700014,257.31316481700014,257.31316481700014,257.89106914400054,,,,,,,,,,,,,,,,,,,,,,,,,,,,,,left,1.0,0.5674306999999317,,,,,sub-078,1,random_dot,57.80208429905104,
right,right,19.0,1.0,9.0,right,1.0,0.8433063490001587,,accuracy,space,2.2825256429996443,,,,,,0.0,1.0,1.0,0.0,9.0,1.0,19.0,1.0,257.9041381630004,,,,,,,,,257.8913528519997,259.09488668999984,259.89792264599964,259.8789724139997,259.87923576699995,259.89792264599964,259.89792264599964,259.89792264599964,260.7480621550003,,,,,,,,,,,,,,,,,,,,,,,,,,,,,,right,1.0,0.8433063490001587,,,,,sub-078,1,random_dot,57.80208429905104,
right,right,20.0,0.0,10.0,right,1.0,0.5563404550002815,,accuracy,space,2.2825256429996443,,,,,,0.0,1.0,1.0,0.0,10.0,0.0,20.0,1.0,260.7635410310004,,,,,,,,,260.74835697599974,261.96270749199994,262.76566986299986,262.74690831800035,262.7471792289998,262.76566986299986,262.76566986299986,262.76566986299986,263.34039659799964,,,,,,,,,,,,,,,,,,,,,,,,,,,,,,right,1.0,0.5563404550002815,,,,,sub-078,1,random_dot,57.80208429905104,
left,left,21.0,1.0,10.0,left,1.0,0.5370072530004109,,accuracy,space,2.2825256429996443,,,,,,0.0,1.0,1.0,0.0,10.0,1.0,21.0,0.0,263.35382399599985,,,,,,,,,263.341090983,263.69682821600054,264.5001830399997,264.4811906340001,264.4814473890001,264.5001830399997,264.5001830399997,264.5001830399997,265.05582828800016,,,,,,,,,,,,,,,,,,,,,,,,,,,,,,left,1.0,0.5370072530004109,,,,,sub-078,1,random_dot,57.80208429905104,
left,left,22.0,0.0,11.0,left,1.0,1.0727205200000751,,accuracy,space,2.2825256429996443,,,,,,0.0,1.0,1.0,0.0,11.0,0.0,22.0,0.0,265.0702737849997,,,,,,,,,265.0567882510004,265.1642366340002,265.9670190960005,265.9484203150005,265.94868062800015,265.9670190960005,265.9670190960005,265.9670190960005,267.0497262070003,,,,,,,,,,,,,,,,,,,,,,,,,,,,,,left,1.0,1.0727205200000751,,,,,sub-078,1,random_dot,57.80208429905104,
right,right,23.0,1.0,11.0,right,1.0,0.6826520220001839,,accuracy,space,2.2825256429996443,,,,,,0.0,1.0,1.0,0.0,11.0,1.0,23.0,1.0,267.0636728119998,,,,,,,,,267.050019413,267.16513555300025,267.96777773400026,267.94931681100024,267.94956264400025,267.96777773400026,267.96777773400026,267.96777773400026,268.66860374800035,,,,,,,,,,,,,,,,,,,,,,,,,,,,,,right,1.0,0.6826520220001839,,,,,sub-078,1,random_dot,57.80208429905104,
right,right,24.0,0.0,12.0,right,1.0,0.744421782000245,,accuracy,space,2.2825256429996443,,,,,,0.0,1.0,1.0,0.0,12.0,0.0,24.0,1.0,268.683866204,,,,,,,,,268.6688713630001,269.883154487,270.68563866600016,270.66733740200016,270.66759704299966,270.68563866600016,270.68563866600016,270.68563866600016,271.4353106409999,,,,,,,,,,,,,,,,,,,,,,,,,,,,,,right,1.0,0.744421782000245,,,,,sub-078,1,random_dot,57.80208429905104,
left,left,25.0,1.0,12.0,right,0.0,4.234662171999844,,accuracy,space,2.2825256429996443,,,,,,0.0,1.0,1.0,0.0,12.0,1.0,25.0,0.0,271.44910239100045,,,,,,,,,271.4355917100001,272.25092816600045,273.05344226800025,273.0351863149999,273.0354529739998,273.05344226800025,273.05344226800025,273.05344226800025,277.30795379200026,,,,,,,,,,,,,,,,,,,,,,,,,,,,,,right,0.0,4.234662171999844,,,,,sub-078,1,random_dot,57.80208429905104,
left,left,26.0,0.0,13.0,right,0.0,1.003584537000279,,accuracy,space,2.2825256429996443,,,,,,0.0,1.0,1.0,0.0,13.0,0.0,26.0,0.0,277.3223227810004,,,,,,,,,277.30823899200004,277.6701797610003,278.47308349099967,278.45427164800003,278.454532836,278.47308349099967,278.47308349099967,278.47308349099967,279.4794434920004,,,,,,,,,,,,,,,,,,,,,,,,,,,,,,right,0.0,1.003584537000279,,,,,sub-078,1,random_dot,57.80208429905104,
right,right,27.0,1.0,13.0,right,1.0,1.1615724659995976,,accuracy,space,2.2825256429996443,,,,,,0.0,1.0,1.0,0.0,13.0,1.0,27.0,1.0,279.493916679,,,,,,,,,279.4805132020001,280.28830018400004,281.0915075040002,281.0724385270005,281.0726965290005,281.0915075040002,281.0915075040002,281.0915075040002,282.2600829760004,,,,,,,,,,,,,,,,,,,,,,,,,,,,,,right,1.0,1.1615724659995976,,,,,sub-078,1,random_dot,57.80208429905104,
left,left,28.0,0.0,14.0,left,1.0,0.6696625710001172,,accuracy,space,2.2825256429996443,,,,,,0.0,1.0,1.0,0.0,14.0,0.0,28.0,0.0,282.2718020029997,,,,,,,,,282.2603809310003,283.4731243470005,284.2762868640002,284.2572915239998,284.257541084,284.2762868640002,284.2762868640002,284.2762868640002,284.95487318899995,,,,,,,,,,,,,,,,,,,,,,,,,,,,,,left,1.0,0.6696625710001172,,,,,sub-078,1,random_dot,57.80208429905104,
right,right,29.0,1.0,14.0,right,1.0,0.6833857040001021,,accuracy,space,2.2825256429996443,,,,,,0.0,1.0,1.0,0.0,14.0,1.0,29.0,1.0,284.96815589200014,,,,,,,,,284.95516840799974,286.15757990899965,286.96044493000045,286.9416602190004,286.94192164000015,286.96044493000045,286.96044493000045,286.96044493000045,287.66214445600053,,,,,,,,,,,,,,,,,,,,,,,,,,,,,,right,1.0,0.6833857040001021,,,,,sub-078,1,random_dot,57.80208429905104,
right,right,30.0,0.0,15.0,right,1.0,0.6808784410004591,,accuracy,space,2.2825256429996443,,,,,,0.0,1.0,1.0,0.0,15.0,0.0,30.0,1.0,287.6753603950001,,,,,,,,,287.662444738,288.4751520460004,289.27785821900034,289.2595088879998,289.2597687970001,289.27785821900034,289.27785821900034,289.27785821900034,289.9776512389999,,,,,,,,,,,,,,,,,,,,,,,,,,,,,,right,1.0,0.6808784410004591,,,,,sub-078,1,random_dot,57.80208429905104,
left,left,31.0,1.0,15.0,left,1.0,0.9246502480000344,,accuracy,space,2.2825256429996443,,,,,,0.0,1.0,1.0,0.0,15.0,1.0,31.0,0.0,289.9903148029998,,,,,,,,,289.97794349299966,290.79305465499965,291.5962065720005,291.57737320199976,291.5776357100003,291.5962065720005,291.5962065720005,291.5962065720005,292.54118525600006,,,,,,,,,,,,,,,,,,,,,,,,,,,,,,left,1.0,0.9246502480000344,,,,,sub-078,1,random_dot,57.80208429905104,
right,right,32.0,0.0,16.0,right,1.0,0.6725481489993399,,accuracy,space,2.2825256429996443,,,,,,0.0,1.0,1.0,0.0,16.0,0.0,32.0,1.0,292.5530142380003,,,,,,,,,292.5414870129998,293.744709779,294.54720809399987,294.5285564160004,294.5288095369997,294.54720809399987,294.54720809399987,294.54720809399987,295.2301709660005,,,,,,,,,,,,,,,,,,,,,,,,,,,,,,right,1.0,0.6725481489993399,,,,,sub-078,1,random_dot,57.80208429905104,
left,left,33.0,1.0,16.0,left,1.0,0.8505580900000496,,accuracy,space,2.2825256429996443,,,,,,0.0,1.0,1.0,0.0,16.0,1.0,33.0,0.0,295.24410870999964,,,,,,,,,295.23045451600046,296.0457868880003,296.84851356200033,296.82972430599966,296.8299877059999,296.84851356200033,296.84851356200033,296.84851356200033,297.709233953,,,,,,,,,,,,,,,,,,,,,,,,,,,,,,left,1.0,0.8505580900000496,,,,,sub-078,1,random_dot,57.80208429905104,
right,right,34.0,0.0,17.0,right,1.0,0.7258718889997908,,accuracy,space,2.2825256429996443,,,,,,0.0,1.0,1.0,0.0,17.0,0.0,34.0,1.0,297.7199987720005,,,,,,,,,297.7095244470001,297.8123296849999,298.6158179559998,298.59724689999985,298.597506049,298.6158179559998,298.6158179559998,298.6158179559998,299.3484707180005,,,,,,,,,,,,,,,,,,,,,,,,,,,,,,right,1.0,0.7258718889997908,,,,,sub-078,1,random_dot,57.80208429905104,
left,left,35.0,1.0,17.0,left,1.0,0.9256007719995978,,accuracy,space,2.2825256429996443,,,,,,0.0,1.0,1.0,0.0,17.0,1.0,35.0,0.0,299.3620433870001,,,,,,,,,299.3487625930002,300.54764188599984,301.3508088710005,301.3319883060003,301.3322497620002,301.3508088710005,301.3508088710005,301.3508088710005,302.28244357899985,,,,,,,,,,,,,,,,,,,,,,,,,,,,,,left,1.0,0.9256007719995978,,,,,sub-078,1,random_dot,57.80208429905104,
left,left,36.0,0.0,18.0,left,1.0,0.8799100370006272,,accuracy,space,2.2825256429996443,,,,,,0.0,1.0,1.0,0.0,18.0,0.0,36.0,0.0,302.29634562200044,,,,,,,,,302.2827246710003,303.4823262919999,304.28447141499964,304.266640158,304.2668994679998,304.28447141499964,304.28447141499964,304.28447141499964,305.178948535,,,,,,,,,,,,,,,,,,,,,,,,,,,,,,left,1.0,0.8799100370006272,,,,,sub-078,1,random_dot,57.80208429905104,
right,right,37.0,1.0,18.0,right,1.0,0.611786447000668,,accuracy,space,2.2825256429996443,,,,,,0.0,1.0,1.0,0.0,18.0,1.0,37.0,1.0,305.19128259599984,,,,,,,,,305.1792576449998,305.9835875079998,306.78667124000003,306.76779580699986,306.7680592220004,306.78667124000003,306.78667124000003,306.78667124000003,307.41965073699976,,,,,,,,,,,,,,,,,,,,,,,,,,,,,,right,1.0,0.611786447000668,,,,,sub-078,1,random_dot,57.80208429905104,
right,right,38.0,0.0,19.0,right,1.0,0.7291332610002428,,accuracy,space,2.2825256429996443,,,,,,0.0,1.0,1.0,0.0,19.0,0.0,38.0,1.0,307.4322648690004,,,,,,,,,307.41991661300017,307.7845686640003,308.58730264800033,308.56913007,308.5693855340005,308.58730264800033,308.58730264800033,308.58730264800033,309.318909478,,,,,,,,,,,,,,,,,,,,,,,,,,,,,,right,1.0,0.7291332610002428,,,,,sub-078,1,random_dot,57.80208429905104,
left,left,39.0,1.0,19.0,left,1.0,0.6613428500004375,,accuracy,space,2.2825256429996443,,,,,,0.0,1.0,1.0,0.0,19.0,1.0,39.0,0.0,309.3328249920005,,,,,,,,,309.319210658,309.66868979799983,310.4712939070005,310.4528629030001,310.4531245520002,310.4712939070005,310.4712939070005,310.4712939070005,311.1364688980002,,,,,,,,,,,,,,,,,,,,,,,,,,,,,,left,1.0,0.6613428500004375,,,,,sub-078,1,random_dot,57.80208429905104,
right,right,40.0,0.0,20.0,right,1.0,0.6289187459997265,,accuracy,space,2.2825256429996443,,,,,,0.0,1.0,1.0,0.0,20.0,0.0,40.0,1.0,311.1501628140004,,,,,,,,,311.13675396800045,311.2360499610004,312.03860126699965,312.0201401969998,312.02039748900006,312.03860126699965,312.03860126699965,312.03860126699965,312.68827234699984,,,,,,,,,,,,,,,,,,,,,,,,,,,,,,right,1.0,0.6289187459997265,,,,,sub-078,1,random_dot,57.80208429905104,
left,left,41.0,1.0,20.0,left,1.0,0.750504521000039,,accuracy,space,2.2825256429996443,,,,,,0.0,1.0,1.0,0.0,20.0,1.0,41.0,0.0,312.70068424800047,,,,,,,,,312.6885544910001,313.9038420449997,314.70688767200045,314.6881179990005,314.68837184699987,314.70688767200045,314.70688767200045,314.70688767200045,315.467713516,,,,,,,,,,,,,,,,,,,,,,,,,,,,,,left,1.0,0.750504521000039,,,,,sub-078,1,random_dot,57.80208429905104,
left,left,42.0,0.0,21.0,left,1.0,0.8598949110000831,,accuracy,space,2.2825256429996443,,,,,,0.0,1.0,1.0,0.0,21.0,0.0,42.0,0.0,315.4801808860002,,,,,,,,,315.4679942160001,315.5715421670002,316.37403097399965,316.35577638500035,316.3560398740001,316.37403097399965,316.37403097399965,316.37403097399965,317.2373175109997,,,,,,,,,,,,,,,,,,,,,,,,,,,,,,left,1.0,0.8598949110000831,,,,,sub-078,1,random_dot,57.80208429905104,
right,right,43.0,1.0,21.0,right,1.0,0.6630805790000522,,accuracy,space,2.2825256429996443,,,,,,0.0,1.0,1.0,0.0,21.0,1.0,43.0,1.0,317.2506726600004,,,,,,,,,317.237613499,318.4394998910002,319.2418149530004,319.22353674900023,319.22380133299976,319.2418149530004,319.2418149530004,319.2418149530004,319.9258748929997,,,,,,,,,,,,,,,,,,,,,,,,,,,,,,right,1.0,0.6630805790000522,,,,,sub-078,1,random_dot,57.80208429905104,
right,right,44.0,0.0,22.0,right,1.0,0.7664695820003544,,accuracy,space,2.2825256429996443,,,,,,0.0,1.0,1.0,0.0,22.0,0.0,44.0,1.0,319.9384565549999,,,,,,,,,319.9261689920004,321.1407480070002,321.9436820589999,321.92501817799985,321.92527695900026,321.9436820589999,321.9436820589999,321.9436820589999,322.7202055950001,,,,,,,,,,,,,,,,,,,,,,,,,,,,,,right,1.0,0.7664695820003544,,,,,sub-078,1,random_dot,57.80208429905104,
left,left,45.0,1.0,22.0,left,1.0,1.0966289009993488,,accuracy,space,2.2825256429996443,,,,,,0.0,1.0,1.0,0.0,22.0,1.0,45.0,0.0,322.7309368470005,,,,,,,,,322.720515043,322.82498054200005,323.6281337270002,323.6091711400004,323.609428883,323.6281337270002,323.6281337270002,323.6281337270002,324.7422104879997,,,,,,,,,,,,,,,,,,,,,,,,,,,,,,left,1.0,1.0966289009993488,,,,,sub-078,1,random_dot,57.80208429905104,
right,right,46.0,0.0,23.0,right,1.0,0.5809846570000445,,accuracy,space,2.2825256429996443,,,,,,0.0,1.0,1.0,0.0,23.0,0.0,46.0,1.0,324.75561451700014,,,,,,,,,324.7424758440002,325.09694622500047,325.91207593800027,325.8934625720003,325.89372414599984,325.91207593800027,325.91207593800027,325.91207593800027,326.5050764690004,,,,,,,,,,,,,,,,,,,,,,,,,,,,,,right,1.0,0.5809846570000445,,,,,sub-078,1,random_dot,57.80208429905104,
left,left,47.0,1.0,23.0,left,1.0,1.1315369699996154,,accuracy,space,2.2825256429996443,,,,,,0.0,1.0,1.0,0.0,23.0,1.0,47.0,0.0,326.51765455199984,,,,,,,,,326.50559928500024,326.860462486,327.66234389300007,327.64423516399984,327.644499432,327.66234389300007,327.66234389300007,327.66234389300007,328.79931685799966,,,,,,,,,,,,,,,,,,,,,,,,,,,,,,left,1.0,1.1315369699996154,,,,,sub-078,1,random_dot,57.80208429905104,
right,right,48.0,0.0,24.0,right,1.0,0.7332224900001165,,accuracy,space,2.2825256429996443,,,,,,0.0,1.0,1.0,0.0,24.0,0.0,48.0,1.0,328.81469393000043,,,,,,,,,328.7996016899997,329.6114504850002,330.41428079100024,330.39562358500007,330.3958820070002,330.41428079100024,330.41428079100024,330.41428079100024,331.15183580699977,,,,,,,,,,,,,,,,,,,,,,,,,,,,,,right,1.0,0.7332224900001165,,,,,sub-078,1,random_dot,57.80208429905104,
left,left,49.0,1.0,24.0,left,1.0,0.7840058649999264,,accuracy,space,2.2825256429996443,,,,,,0.0,1.0,1.0,0.0,24.0,1.0,49.0,0.0,331.1647499740002,,,,,,,,,331.1521172339999,331.5124488930005,332.3156621850003,332.2968329280002,332.2970916820004,332.3156621850003,332.3156621850003,332.3156621850003,333.11805193800046,,,,,,,,,,,,,,,,,,,,,,,,,,,,,,left,1.0,0.7840058649999264,,,,,sub-078,1,random_dot,57.80208429905104,
right,right,50.0,0.0,25.0,right,1.0,0.6543314890004694,,accuracy,space,2.2825256429996443,,,,,,0.0,1.0,1.0,0.0,25.0,0.0,50.0,1.0,333.131045227,,,,,,,,,333.11834719299986,333.93016783300027,334.7324015229997,334.7142878100003,334.71456106200003,334.7324015229997,334.7324015229997,334.7324015229997,335.3976893649997,,,,,,,,,,,,,,,,,,,,,,,,,,,,,,right,1.0,0.6543314890004694,,,,,sub-078,1,random_dot,57.80208429905104,
left,left,51.0,1.0,25.0,left,1.0,1.1138415969999187,,accuracy,space,2.2825256429996443,,,,,,0.0,1.0,1.0,0.0,25.0,1.0,51.0,0.0,335.41386524799964,,,,,,,,,335.3981211649998,336.1979589310004,336.99921386999995,336.98214345199995,336.9824164669999,336.99921386999995,336.99921386999995,336.99921386999995,338.13272275800045,,,,,,,,,,,,,,,,,,,,,,,,,,,,,,left,1.0,1.1138415969999187,,,,,sub-078,1,random_dot,57.80208429905104,
left,left,52.0,0.0,26.0,left,1.0,0.9499581270001728,,accuracy,space,2.2825256429996443,,,,,,0.0,1.0,1.0,0.0,26.0,0.0,52.0,0.0,338.1453386780004,,,,,,,,,338.1330111770003,338.93246103599995,339.7351846419997,339.71661991899964,339.7168796060005,339.7351846419997,339.7351846419997,339.7351846419997,340.7047654500002,,,,,,,,,,,,,,,,,,,,,,,,,,,,,,left,1.0,0.9499581270001728,,,,,sub-078,1,random_dot,57.80208429905104,
right,right,53.0,1.0,26.0,right,1.0,0.9470112260005408,,accuracy,space,2.2825256429996443,,,,,,0.0,1.0,1.0,0.0,26.0,1.0,53.0,1.0,340.719044904,,,,,,,,,340.705031429,341.91724511099983,342.72019710600034,342.70158866099973,342.70186037999974,342.72019710600034,342.72019710600034,342.72019710600034,343.6797107550001,,,,,,,,,,,,,,,,,,,,,,,,,,,,,,right,1.0,0.9470112260005408,,,,,sub-078,1,random_dot,57.80208429905104,
right,right,54.0,0.0,27.0,right,1.0,1.3887422369998603,,accuracy,space,2.2825256429996443,,,,,,0.0,1.0,1.0,0.0,27.0,0.0,54.0,1.0,343.6921730080003,,,,,,,,,343.68003505700017,344.48548794,345.2881541320003,345.26948639199964,345.2697476780004,345.2881541320003,345.2881541320003,345.2881541320003,346.68256101299994,,,,,,,,,,,,,,,,,,,,,,,,,,,,,,right,1.0,1.3887422369998603,,,,,sub-078,1,random_dot,57.80208429905104,
left,left,55.0,1.0,27.0,left,1.0,1.5195320450002328,,accuracy,space,2.2825256429996443,,,,,,0.0,1.0,1.0,0.0,27.0,1.0,55.0,0.0,346.69532124800025,,,,,,,,,346.68285666799966,347.0362929290004,347.8375971080004,347.8206167600001,347.8208791930001,347.8375971080004,347.8375971080004,347.8375971080004,349.375155488,,,,,,,,,,,,,,,,,,,,,,,,,,,,,,left,1.0,1.5195320450002328,,,,,sub-078,1,random_dot,57.80208429905104,
left,left,56.0,0.0,28.0,left,1.0,1.3630656959994667,,accuracy,space,2.2825256429996443,,,,,,0.0,1.0,1.0,0.0,28.0,0.0,56.0,0.0,349.3893016809998,,,,,,,,,349.3754393899999,349.487968247,350.2907726980002,350.27184447699983,350.272101175,350.2907726980002,350.2907726980002,350.2907726980002,351.6629753469997,,,,,,,,,,,,,,,,,,,,,,,,,,,,,,left,1.0,1.3630656959994667,,,,,sub-078,1,random_dot,57.80208429905104,
right,right,57.0,1.0,28.0,right,1.0,1.529353906000324,,accuracy,space,2.2825256429996443,,,,,,0.0,1.0,1.0,0.0,28.0,1.0,57.0,1.0,351.677156791,,,,,,,,,351.66345100000035,352.021682607,352.8257140880005,352.80626852600017,352.80652739000016,352.8257140880005,352.8257140880005,352.8257140880005,354.3643387310003,,,,,,,,,,,,,,,,,,,,,,,,,,,,,,right,1.0,1.529353906000324,,,,,sub-078,1,random_dot,57.80208429905104,
left,left,58.0,0.0,29.0,left,1.0,2.8795825580000383,,accuracy,space,2.2825256429996443,,,,,,0.0,1.0,1.0,0.0,29.0,0.0,58.0,0.0,354.37913431700053,,,,,,,,,354.3647244559997,354.72340234400053,355.5263833750005,355.5075577759999,355.5078264060003,355.5263833750005,355.5263833750005,355.5263833750005,358.41411233800045,,,,,,,,,,,,,,,,,,,,,,,,,,,,,,left,1.0,2.8795825580000383,,,,,sub-078,1,random_dot,57.80208429905104,
right,right,59.0,1.0,29.0,right,1.0,0.8541641850006272,,accuracy,space,2.2825256429996443,,,,,,0.0,1.0,1.0,0.0,29.0,1.0,59.0,1.0,358.4272225650002,,,,,,,,,358.41442118299983,358.5246500840003,359.3281286840001,359.30948216100023,359.3097420029999,359.3281286840001,359.3281286840001,359.3281286840001,360.18909761099985,,,,,,,,,,,,,,,,,,,,,,,,,,,,,,right,1.0,0.8541641850006272,,,,,sub-078,1,random_dot,57.80208429905104,
,,1.0,1.0,0.0,,,,,accuracy,space,2.2825256429996443,,,,,,0.0,1.0,1.0,0.0,,,,,,,,,,,,,,,,,,,,,,,,,,,,,,,,,,,,,,,,,,,,,,,,,,,,,,,,,,,sub-078,1,random_dot,57.80208429905104,
,,,,,,,,,,,,,,,,,,,,,,,,,,,,,,,,,,,,,,,,,,,,,,,,,,,,,,,,,,,,,,,,,,,,,,,,,,,,360.19268286700026,360.20760675600013,365.1949816200004,sub-078,1,random_dot,57.80208429905104,
