wordCTK,colorCTK,corrAnsCTK,congruentCTK,thisN,thisTrialN,thisRepN,keyResp_CTK.keys,keyResp_CTK.corr,keyResp_CTK.rt,keyResp_CTK.duration,wordPractice,colorPractice,corrAnsPractice,congruentPractice,respPractice.keys,respPractice.corr,respPractice.rt,respPractice.duration,word,color,corrAns,congruent,keyResp_test_run.keys,keyResp_test_run.corr,keyResp_test_run.rt,keyResp_test_run.duration,trials_CTK.thisRepN,trials_CTK.thisTrialN,trials_CTK.thisN,trials_CTK.thisIndex,trials_practice.thisRepN,trials_practice.thisTrialN,trials_practice.thisN,trials_practice.thisIndex,trials_test.thisRepN,trials_test.thisTrialN,trials_test.thisN,trials_test.thisIndex,thisRow.t,notes,instruction.started,instr_text.started,instr_image.started,instr_resp.started,instruction.stopped,instr_resp.keys,instr_resp.rt,instr_resp.duration,instr_color_to_key.started,instr_ctk.started,resp_ctk.started,instr_color_to_key.stopped,resp_ctk.keys,resp_ctk.rt,resp_ctk.duration,ITI.started,fixcross.started,fixcross.stopped,ITI.stopped,color_to_key_run.started,stimulus_CTK.started,keyResp_CTK.started,color_to_key_run.stopped,trials_CTK.keyResp_CTK.keys,trials_CTK.keyResp_CTK.corr,trials_CTK.keyResp_CTK.rt,trials_CTK.keyResp_CTK.duration,instr_practice.started,instr_practice_text.started,instr_practice_resp.started,instr_practice.stopped,instr_practice_resp.keys,instr_practice_resp.rt,instr_practice_resp.duration,practice_run.started,stimulus_practice.started,respPractice.started,practice_run.stopped,trials_practice.respPractice.keys,trials_practice.respPractice.corr,trials_practice.respPractice.rt,trials_practice.respPractice.duration,feedback.started,textFeedback.started,feedback.stopped,textFeedback.stopped,instr_test.started,instr_test_text.started,instr_test_resp.started,instr_test.stopped,instr_test_resp.keys,instr_test_resp.rt,instr_test_resp.duration,test_run.started,stimulus_test_run.started,keyResp_test_run.started,test_run.stopped,trials_test.keyResp_test_run.keys,trials_test.keyResp_test_run.corr,trials_test.keyResp_test_run.rt,trials_test.keyResp_test_run.duration,goodbye.started,textGoodbye.started,goodbye.stopped,participant,session,expName,frameRate,Unnamed: 112
,,,,,,,,,,,,,,,,,,,,,,,,,,,,,,,,,,,,,,,,,0.003403500013519,0.0454928000108338,0.0454928000108338,0.0454928000108338,17.255181499989703,space,17.20792449999135,,,,,,,,,,,,,,,,,,,,,,,,,,,,,,,,,,,,,,,,,,,,,,,,,,,,,,,,,,sub-197,1,stroop_test,59.908112934130415,
,,,,,,,,,,,,,,,,,,,,,,,,,,,,,,,,,,,,,,,,,,,,,,,,,17.25525489996653,17.270442500011995,17.270442500011995,19.65823589998763,space,2.381428799999412,,,,,,,,,,,,,,,,,,,,,,,,,,,,,,,,,,,,,,,,,,,,,,,,,,,sub-197,1,stroop_test,59.908112934130415,
test,yellow,g,1.0,0.0,0.0,0.0,g,1.0,1.6619471999583766,,,,,,,,,,,,,,,,,,0.0,0.0,0.0,1.0,,,,,,,,,19.693926399981137,,,,,,,,,,,,,,,,,19.68996009998955,20.864190399996005,21.664782000007108,21.65044289996149,21.656213000009306,21.664782000007108,21.664782000007108,23.33629000000656,g,1.0,1.6619471999583766,,,,,,,,,,,,,,,,,,,,,,,,,,,,,,,,,,,,,,,sub-197,1,stroop_test,59.908112934130415,
test,red,r,1.0,1.0,1.0,0.0,r,1.0,0.5507467999705113,,,,,,,,,,,,,,,,,,0.0,1.0,1.0,0.0,,,,,,,,,23.350876999960747,,,,,,,,,,,,,,,,,23.336584399978165,24.13615119998576,24.938214299967512,24.9221776999766,24.92272370000137,24.938214299967512,24.938214299967512,25.490549899986945,r,1.0,0.5507467999705113,,,,,,,,,,,,,,,,,,,,,,,,,,,,,,,,,,,,,,,sub-197,1,stroop_test,59.908112934130415,
test,blue,b,1.0,2.0,2.0,0.0,b,1.0,1.2110300000058487,,,,,,,,,,,,,,,,,,0.0,2.0,2.0,2.0,,,,,,,,,25.505140999972355,,,,,,,,,,,,,,,,,25.490839099977165,26.69017969997367,27.491954099969007,27.47623560001375,27.476685700006783,27.491954099969007,27.491954099969007,28.710339299985208,b,1.0,1.2110300000058487,,,,,,,,,,,,,,,,,,,,,,,,,,,,,,,,,,,,,,,sub-197,1,stroop_test,59.908112934130415,
test,red,r,1.0,3.0,0.0,1.0,r,1.0,0.5925851999782026,,,,,,,,,,,,,,,,,,1.0,0.0,3.0,0.0,,,,,,,,,28.72587329999078,,,,,,,,,,,,,,,,,28.710648700012825,29.911947100015823,30.712409999978263,30.695864100009203,30.69640570000047,30.712409999978263,30.712409999978263,31.31511199998204,r,1.0,0.5925851999782026,,,,,,,,,,,,,,,,,,,,,,,,,,,,,,,,,,,,,,,sub-197,1,stroop_test,59.908112934130415,
test,yellow,g,1.0,4.0,1.0,1.0,g,1.0,0.6619312000111677,,,,,,,,,,,,,,,,,,1.0,1.0,4.0,1.0,,,,,,,,,31.330857999972068,,,,,,,,,,,,,,,,,31.31547169998521,31.664364799973555,32.465015699970536,32.44908649998251,32.44960589997936,32.465015699970536,32.465015699970536,33.13504289998673,g,1.0,0.6619312000111677,,,,,,,,,,,,,,,,,,,,,,,,,,,,,,,,,,,,,,,sub-197,1,stroop_test,59.908112934130415,
test,blue,b,1.0,5.0,2.0,1.0,b,1.0,0.4329612999572418,,,,,,,,,,,,,,,,,,1.0,2.0,5.0,2.0,,,,,,,,,33.149282999977004,,,,,,,,,,,,,,,,,33.13540400000056,34.334535699978005,35.1367498000036,35.12167550000595,35.12213839998003,35.1367498000036,35.1367498000036,35.57213980000233,b,1.0,0.4329612999572418,,,,,,,,,,,,,,,,,,,,,,,,,,,,,,,,,,,,,,,sub-197,1,stroop_test,59.908112934130415,
test,red,r,1.0,6.0,0.0,2.0,r,1.0,0.4111920000286773,,,,,,,,,,,,,,,,,,2.0,0.0,6.0,0.0,,,,,,,,,35.58671060000779,,,,,,,,,,,,,,,,,35.57243329996709,36.37168199999724,37.1732195999939,37.155952300003264,37.1564561999985,37.1732195999939,37.1732195999939,37.58985089999624,r,1.0,0.4111920000286773,,,,,,,,,,,,,,,,,,,,,,,,,,,,,,,,,,,,,,,sub-197,1,stroop_test,59.908112934130415,
test,blue,b,1.0,7.0,1.0,2.0,b,1.0,0.4392553000361658,,,,,,,,,,,,,,,,,,2.0,1.0,7.0,2.0,,,,,,,,,37.60658009996405,,,,,,,,,,,,,,,,,37.5902114000055,38.391523999976926,39.19212259998312,39.176331599999685,39.17677359998925,39.19212259998312,39.19212259998312,39.64427749998868,b,1.0,0.4392553000361658,,,,,,,,,,,,,,,,,,,,,,,,,,,,,,,,,,,,,,,sub-197,1,stroop_test,59.908112934130415,
test,yellow,g,1.0,8.0,2.0,2.0,g,1.0,0.577928599959705,,,,,,,,,,,,,,,,,,2.0,2.0,8.0,1.0,,,,,,,,,39.66031110001495,,,,,,,,,,,,,,,,,39.64463789999718,40.84524389996659,41.646692499984056,41.630684899981134,41.63123279996216,41.646692499984056,41.646692499984056,42.23050920001697,g,1.0,0.577928599959705,,,,,,,,,,,,,,,,,,,,,,,,,,,,,,,,,,,,,,,sub-197,1,stroop_test,59.908112934130415,
test,red,r,1.0,9.0,0.0,3.0,r,1.0,0.6130046999896877,,,,,,,,,,,,,,,,,,3.0,0.0,9.0,0.0,,,,,,,,,42.24640429997817,,,,,,,,,,,,,,,,,42.230796799995005,43.03233079996426,43.833355300012045,43.81727439997485,43.817810699983966,43.833355300012045,43.833355300012045,44.45175929996185,r,1.0,0.6130046999896877,,,,,,,,,,,,,,,,,,,,,,,,,,,,,,,,,,,,,,,sub-197,1,stroop_test,59.908112934130415,
test,yellow,g,1.0,10.0,1.0,3.0,g,1.0,0.587313299998641,,,,,,,,,,,,,,,,,,3.0,1.0,10.0,1.0,,,,,,,,,44.46708729997045,,,,,,,,,,,,,,,,,44.45212570001604,45.65262760000769,46.45325550000416,46.438507999992,46.43904979998479,46.45325550000416,46.45325550000416,47.05564179999055,g,1.0,0.587313299998641,,,,,,,,,,,,,,,,,,,,,,,,,,,,,,,,,,,,,,,sub-197,1,stroop_test,59.908112934130415,
test,blue,b,1.0,11.0,2.0,3.0,b,1.0,1.1126245000050403,,,,,,,,,,,,,,,,,,3.0,2.0,11.0,2.0,,,,,,,,,47.07152419997146,,,,,,,,,,,,,,,,,47.05599999998231,48.25655369996093,49.0574982999824,49.04139989998657,49.0418481999659,49.0574982999824,49.0574982999824,50.1761564000044,b,1.0,1.1126245000050403,,,,,,,,,,,,,,,,,,,,,,,,,,,,,,,,,,,,,,,sub-197,1,stroop_test,59.908112934130415,
,,,,,,,,,,,,,,,,,,,,,,,,,,,,,,,,,,,,,,,,,,,,,,,,,,,,,,,,,,,,,,,,,,,,50.17629259999376,50.191995100001805,50.191995100001805,51.2451005000039,space,1.0369938999647277,,,,,,,,,,,,,,,,,,,,,,,,,,,,,,,,sub-197,1,stroop_test,59.908112934130415,
,,,,0.0,0.0,0.0,,,,,blau,blue,b,1.0,b,1.0,0.7519634999916889,,,,,,,,,,,,,,0.0,0.0,0.0,5.0,,,,,51.28160789998947,,,,,,,,,,,,,,,,,51.2776078999741,51.60178699996322,52.40088540001307,52.38615779997781,,,,,,,,,,,,,,,,52.39213270001346,52.40088540001307,52.40088540001307,53.15455139998812,b,1.0,0.7519634999916889,,53.16156529996079,53.16882469999837,54.15551810001489,,,,,,,,,,,,,,,,,,,,sub-197,1,stroop_test,59.908112934130415,
,,,,1.0,1.0,0.0,,,,,gelb,yellow,g,1.0,g,1.0,0.6441040000063367,,,,,,,,,,,,,,0.0,1.0,1.0,10.0,,,,,54.17118760000449,,,,,,,,,,,,,,,,,54.155904399987776,54.25528350000968,55.0557166999788,55.04042309999932,,,,,,,,,,,,,,,,55.04303559998516,55.0557166999788,55.0557166999788,55.708261399995536,g,1.0,0.6441040000063367,,55.70874279999407,55.72342200001003,56.708668100007344,56.7248152999673,,,,,,,,,,,,,,,,,,,sub-197,1,stroop_test,59.908112934130415,
,,,,2.0,2.0,0.0,,,,,gelb,blue,b,0.0,b,1.0,0.7151999999769032,,,,,,,,,,,,,,0.0,2.0,2.0,9.0,,,,,56.7248152999673,,,,,,,,,,,,,,,,,56.708978999988176,57.50999519997277,58.31090479996056,58.29445659997873,,,,,,,,,,,,,,,,58.29496209998615,58.31090479996056,58.31090479996056,59.02954049996333,b,1.0,0.7151999999769032,,59.03000410000095,59.04620009998325,60.03010199998971,,,,,,,,,,,,,,,,,,,,sub-197,1,stroop_test,59.908112934130415,
,,,,3.0,3.0,0.0,,,,,rot,red,r,1.0,r,1.0,0.3254807000048458,,,,,,,,,,,,,,0.0,3.0,3.0,1.0,,,,,60.04662549996283,,,,,,,,,,,,,,,,,60.030527099967,61.2316593999858,62.03304050001316,62.01778719999129,,,,,,,,,,,,,,,,62.021890399977565,62.03304050001316,62.03304050001316,62.36858299997402,r,1.0,0.3254807000048458,,62.3691070000059,62.38393289997475,63.36920389998704,63.38565559999552,,,,,,,,,,,,,,,,,,,sub-197,1,stroop_test,59.908112934130415,
,,,,4.0,4.0,0.0,,,,,rot,yellow,g,0.0,g,1.0,0.5106392000452615,,,,,,,,,,,,,,0.0,4.0,4.0,3.0,,,,,63.38565559999552,,,,,,,,,,,,,,,,,63.36956309998641,64.16997019998962,64.97187569999369,64.95616649999283,,,,,,,,,,,,,,,,64.95670979999704,64.97187569999369,64.97187569999369,65.49040969996713,g,1.0,0.5106392000452615,,65.49087149999104,65.5058008999913,66.49071749998257,,,,,,,,,,,,,,,,,,,,sub-197,1,stroop_test,59.908112934130415,
,,,,5.0,5.0,0.0,,,,,gelb,yellow,g,1.0,g,1.0,0.4872743999585509,,,,,,,,,,,,,,0.0,5.0,5.0,11.0,,,,,66.50755069998559,,,,,,,,,,,,,,,,,66.49115269997856,66.84123909997288,67.64215420000255,67.62610359996324,,,,,,,,,,,,,,,,67.6289466000162,67.64215420000255,67.64215420000255,68.14451050001662,g,1.0,0.4872743999585509,,68.14497809996828,68.159167899983,69.14492749999044,,,,,,,,,,,,,,,,,,,,sub-197,1,stroop_test,59.908112934130415,
,,,,6.0,6.0,0.0,,,,,rot,blue,b,0.0,b,1.0,0.6141348999808542,,,,,,,,,,,,,,0.0,6.0,6.0,2.0,,,,,69.16128499998013,,,,,,,,,,,,,,,,,69.14530129998457,70.34665279998444,71.14750329998787,71.13165759999538,,,,,,,,,,,,,,,,71.13411069998983,71.14750329998787,71.14750329998787,71.76555939996615,b,1.0,0.6141348999808542,,71.76602460001595,71.7811420999933,72.76673229999142,,,,,,,,,,,,,,,,,,,,sub-197,1,stroop_test,59.908112934130415,
,,,,7.0,7.0,0.0,,,,,blau,red,r,0.0,r,1.0,0.5065273000509478,,,,,,,,,,,,,,0.0,7.0,7.0,4.0,,,,,72.78346429998055,,,,,,,,,,,,,,,,,72.76710940001067,73.11702619999414,73.91811540001072,73.90244009997696,,,,,,,,,,,,,,,,73.90511950000655,73.91811540001072,73.91811540001072,74.43689579999773,r,1.0,0.5065273000509478,,74.43736310000531,74.45173139998224,75.437087600003,75.45357939996757,,,,,,,,,,,,,,,,,,,sub-197,1,stroop_test,59.908112934130415,
,,,,8.0,8.0,0.0,,,,,blau,yellow,g,0.0,g,1.0,0.5679303999640979,,,,,,,,,,,,,,0.0,8.0,8.0,7.0,,,,,75.45357939996757,,,,,,,,,,,,,,,,,75.43735039996682,75.7878368999809,76.58869519998552,76.57374019996496,,,,,,,,,,,,,,,,76.5742361000157,76.58869519998552,76.58869519998552,77.1582589999889,g,1.0,0.5679303999640979,,77.15878789999988,77.17253519996302,78.15855089999968,78.17415119998623,,,,,,,,,,,,,,,,,,,sub-197,1,stroop_test,59.908112934130415,
,,,,9.0,9.0,0.0,,,,,gelb,red,r,0.0,r,1.0,0.8297005000058562,,,,,,,,,,,,,,0.0,9.0,9.0,8.0,,,,,78.17415119998623,,,,,,,,,,,,,,,,,78.15883400000166,78.25821070000529,79.05971890001092,79.04357450001407,,,,,,,,,,,,,,,,79.04633199999807,79.05971890001092,79.05971890001092,79.89547759998823,r,1.0,0.8297005000058562,,79.89607489999617,79.9101565000019,80.89580100000603,,,,,,,,,,,,,,,,,,,,sub-197,1,stroop_test,59.908112934130415,
,,,,10.0,10.0,0.0,,,,,blau,blue,b,1.0,b,1.0,0.9239639000152238,,,,,,,,,,,,,,0.0,10.0,10.0,6.0,,,,,80.91244939999888,,,,,,,,,,,,,,,,,80.89620760001708,80.99617539998144,81.79722850001417,81.7811447000131,,,,,,,,,,,,,,,,81.78357819997473,81.79722850001417,81.79722850001417,82.7331969999941,b,1.0,0.9239639000152238,,82.73365529999137,82.74764680000953,83.7339423999656,83.74924999999348,,,,,,,,,,,,,,,,,,,sub-197,1,stroop_test,59.908112934130415,
,,,,11.0,11.0,0.0,,,,,rot,red,r,1.0,r,1.0,0.5344785000197589,,,,,,,,,,,,,,0.0,11.0,11.0,0.0,,,,,83.74924999999348,,,,,,,,,,,,,,,,,83.73424309998518,84.93460869998671,85.73596059996635,85.71942410001066,,,,,,,,,,,,,,,,85.72228409996023,85.73596059996635,85.73596059996635,86.2721673999913,r,1.0,0.5344785000197589,,86.27267179999035,86.28723089996492,87.27173400000902,87.28769119997742,,,,,,,,,,,,,,,,,,,sub-197,1,stroop_test,59.908112934130415,
,,,,12.0,0.0,1.0,,,,,gelb,blue,b,0.0,b,1.0,0.6735279000131413,,,,,,,,,,,,,,1.0,0.0,12.0,9.0,,,,,87.28769119997742,,,,,,,,,,,,,,,,,87.27199679997284,87.38813779997872,88.18979759997455,88.17407000000821,,,,,,,,,,,,,,,,88.17682439996861,88.18979759997455,88.18979759997455,88.87532589997863,b,1.0,0.6735279000131413,,88.87589399999706,88.89091309998184,89.87630080000963,,,,,,,,,,,,,,,,,,,,sub-197,1,stroop_test,59.908112934130415,
,,,,13.0,1.0,1.0,,,,,gelb,yellow,g,1.0,g,1.0,0.5160828999942169,,,,,,,,,,,,,,1.0,1.0,13.0,11.0,,,,,89.89219310000772,,,,,,,,,,,,,,,,,89.87667719996534,89.97649059997639,90.77732349996222,90.761332199967,,,,,,,,,,,,,,,,90.76177729998015,90.77732349996222,90.77732349996222,91.2963890999672,g,1.0,0.5160828999942169,,91.29685370001243,91.31200460001128,92.29660519998288,,,,,,,,,,,,,,,,,,,,sub-197,1,stroop_test,59.908112934130415,
,,,,14.0,2.0,1.0,,,,,blau,blue,b,1.0,b,1.0,0.5017635999829508,,,,,,,,,,,,,,1.0,2.0,14.0,6.0,,,,,92.31341659999453,,,,,,,,,,,,,,,,,92.29700530000264,93.49797590001252,94.29843189998064,94.28351739997744,,,,,,,,,,,,,,,,94.2856843000045,94.29843189998064,94.29843189998064,94.80150160001358,b,1.0,0.5017635999829508,,94.80196760001128,94.815559700015,95.80185619997792,,,,,,,,,,,,,,,,,,,,sub-197,1,stroop_test,59.908112934130415,
,,,,15.0,3.0,1.0,,,,,rot,blue,b,0.0,b,1.0,0.9899388999911024,,,,,,,,,,,,,,1.0,3.0,15.0,2.0,,,,,95.81859480001732,,,,,,,,,,,,,,,,,95.80222459998912,95.90086140000494,96.70323529996676,96.68670409999322,,,,,,,,,,,,,,,,96.68908350000856,96.70323529996676,96.70323529996676,97.70621410000604,b,1.0,0.9899388999911024,,97.70669889997224,97.7211753000156,98.70673360000364,98.72213090001604,,,,,,,,,,,,,,,,,,,sub-197,1,stroop_test,59.908112934130415,
,,,,16.0,4.0,1.0,,,,,blau,blue,b,1.0,g,0.0,0.6341219000169076,,,,,,,,,,,,,,1.0,4.0,16.0,5.0,,,,,98.72213090001604,,,,,,,,,,,,,,,,,98.70701559999723,99.05587869999,99.85771599999862,99.84221129998332,,,,,,,,,,,,,,,,99.84492659999523,99.85771599999862,99.85771599999862,100.49352469999576,g,0.0,0.6341219000169076,,100.49830320000184,100.50823639996815,101.49373240000568,101.5098003000021,,,,,,,,,,,,,,,,,,,sub-197,1,stroop_test,59.908112934130415,
,,,,17.0,5.0,1.0,,,,,gelb,yellow,g,1.0,g,1.0,0.5543689000187442,,,,,,,,,,,,,,1.0,5.0,17.0,10.0,,,,,101.5098003000021,,,,,,,,,,,,,,,,,101.49412439996377,101.8442963999696,102.64575590001186,102.6295822999673,,,,,,,,,,,,,,,,102.63275200000498,102.64575590001186,102.64575590001186,103.21385719999672,g,1.0,0.5543689000187442,,103.21681179996811,103.22956880001584,104.2149069000152,,,,,,,,,,,,,,,,,,,,sub-197,1,stroop_test,59.908112934130415,
,,,,18.0,6.0,1.0,,,,,blau,yellow,g,0.0,g,1.0,0.6337074000039138,,,,,,,,,,,,,,1.0,6.0,18.0,7.0,,,,,104.23129929997958,,,,,,,,,,,,,,,,,104.21533330000238,105.41543850000016,106.21776719996706,106.20169119996716,,,,,,,,,,,,,,,,106.20388290000848,106.21776719996706,106.21776719996706,106.85334809997585,g,1.0,0.6337074000039138,,106.8539243999985,106.86799439997412,107.85319270001492,107.8691558999708,,,,,,,,,,,,,,,,,,,sub-197,1,stroop_test,59.908112934130415,
,,,,19.0,7.0,1.0,,,,,rot,yellow,g,0.0,g,1.0,0.5067953999969177,,,,,,,,,,,,,,1.0,7.0,19.0,3.0,,,,,107.8691558999708,,,,,,,,,,,,,,,,,107.85347859998,107.9536388000124,108.75477699999465,108.73859959997937,,,,,,,,,,,,,,,,108.74165029998404,108.75477699999465,108.75477699999465,109.27290340000764,g,1.0,0.5067953999969177,,109.27338119997876,109.28862740000476,110.2741062999703,,,,,,,,,,,,,,,,,,,,sub-197,1,stroop_test,59.908112934130415,
,,,,20.0,8.0,1.0,,,,,rot,red,r,1.0,r,1.0,0.5636905999854207,,,,,,,,,,,,,,1.0,8.0,20.0,1.0,,,,,110.2906877999776,,,,,,,,,,,,,,,,,110.274466199975,111.07480880001094,111.87582409998868,111.86021000001348,,,,,,,,,,,,,,,,111.86065240000607,111.87582409998868,111.87582409998868,112.4445428000181,r,1.0,0.5636905999854207,,112.44511319999584,112.46031509997556,113.44488189998084,,,,,,,,,,,,,,,,,,,,sub-197,1,stroop_test,59.908112934130415,
,,,,21.0,9.0,1.0,,,,,rot,red,r,1.0,r,1.0,0.5303054000250995,,,,,,,,,,,,,,1.0,9.0,21.0,0.0,,,,,113.46204710000892,,,,,,,,,,,,,,,,,113.445258199994,113.54501559998609,114.3458735999884,114.33057320001537,,,,,,,,,,,,,,,,114.33100700000068,114.3458735999884,114.3458735999884,114.88195979996816,r,1.0,0.5303054000250995,,114.88251610001316,114.89747149997856,115.8829418999958,,,,,,,,,,,,,,,,,,,,sub-197,1,stroop_test,59.908112934130415,
,,,,22.0,10.0,1.0,,,,,blau,red,r,0.0,r,1.0,0.8507289999979548,,,,,,,,,,,,,,1.0,10.0,22.0,4.0,,,,,115.89890359999843,,,,,,,,,,,,,,,,,115.88334020000184,117.08303629996954,117.88447079999604,117.86822010000468,,,,,,,,,,,,,,,,117.87124780000886,117.88447079999604,117.88447079999604,118.73769899999024,r,1.0,0.8507289999979548,,118.73826549999649,118.75357810000423,119.73880110000027,,,,,,,,,,,,,,,,,,,,sub-197,1,stroop_test,59.908112934130415,
,,,,23.0,11.0,1.0,,,,,gelb,red,r,0.0,r,1.0,0.5807192999636754,,,,,,,,,,,,,,1.0,11.0,23.0,8.0,,,,,119.754775599984,,,,,,,,,,,,,,,,,119.73919260001276,120.53877519996604,121.3398020999739,121.32359139999608,,,,,,,,,,,,,,,,121.32666299998527,121.3398020999739,121.3398020999739,121.92578809999397,r,1.0,0.5807192999636754,,121.9263731999672,121.9405490999925,122.92640110000502,122.942579799972,,,,,,,,,,,,,,,,,,,sub-197,1,stroop_test,59.908112934130415,
,,,,,,,,,,,,,,,,,,,,,,,,,,,,,,,,,,,,,,,,,,,,,,,,,,,,,,,,,,,,,,,,,,,,,,,,,,,,,,,,,,,,,,,122.9265516999876,122.942579799972,122.942579799972,128.31923429999733,space,5.36042629997246,,,,,,,,,,,,,sub-197,1,stroop_test,59.908112934130415,
,,,,0.0,0.0,0.0,,,,,,,,,,,,,rot,red,r,1.0,r,1.0,0.6127123000333086,,,,,,,,,,0.0,0.0,0.0,0.0,128.36080510000463,,,,,,,,,,,,,,,,,128.35762889997568,128.67686179996235,129.47772399999667,129.46125749999192,,,,,,,,,,,,,,,,,,,,,,,,,,,,,,,,,,,129.46375749999424,129.47772399999667,129.47772399999667,130.09518030000618,r,1.0,0.6127123000333086,,,,,sub-197,1,stroop_test,59.908112934130415,
,,,,1.0,1.0,0.0,,,,,,,,,,,,,blau,yellow,g,0.0,g,1.0,0.768683800008148,,,,,,,,,,0.0,1.0,1.0,7.0,130.11145650001708,,,,,,,,,,,,,,,,,130.09555600001477,130.44594830001006,131.2476033999701,131.2307556999731,,,,,,,,,,,,,,,,,,,,,,,,,,,,,,,,,,,131.23301919997903,131.2476033999701,131.2476033999701,132.0326760999742,g,1.0,0.768683800008148,,,,,sub-197,1,stroop_test,59.908112934130415,
,,,,2.0,2.0,0.0,,,,,,,,,,,,,rot,blue,b,0.0,b,1.0,0.8628732999786735,,,,,,,,,,0.0,2.0,2.0,2.0,132.04848749999655,,,,,,,,,,,,,,,,,132.03309039998567,132.38200179999694,133.18337869999232,133.16781000001356,,,,,,,,,,,,,,,,,,,,,,,,,,,,,,,,,,,133.17058609996457,133.18337869999232,133.18337869999232,134.05291769996984,b,1.0,0.8628732999786735,,,,,sub-197,1,stroop_test,59.908112934130415,
,,,,3.0,3.0,0.0,,,,,,,,,,,,,gelb,yellow,g,1.0,g,1.0,0.624452999967616,,,,,,,,,,0.0,3.0,3.0,11.0,134.06820969999535,,,,,,,,,,,,,,,,,134.05324290000135,134.16825940000126,134.96974279999267,134.95372769999085,,,,,,,,,,,,,,,,,,,,,,,,,,,,,,,,,,,134.95624490000773,134.96974279999267,134.96974279999267,135.6050199000165,g,1.0,0.624452999967616,,,,,sub-197,1,stroop_test,59.908112934130415,
,,,,4.0,4.0,0.0,,,,,,,,,,,,,gelb,blue,b,0.0,b,1.0,0.6604237999999896,,,,,,,,,,0.0,4.0,4.0,9.0,135.62073349999264,,,,,,,,,,,,,,,,,135.60539340000832,135.97122559999116,136.772545899963,136.75633209996158,,,,,,,,,,,,,,,,,,,,,,,,,,,,,,,,,,,136.75688639999134,136.772545899963,136.772545899963,137.44155599997612,b,1.0,0.6604237999999896,,,,,sub-197,1,stroop_test,59.908112934130415,
,,,,5.0,5.0,0.0,,,,,,,,,,,,,rot,red,r,1.0,r,1.0,0.4976750999921933,,,,,,,,,,0.0,5.0,5.0,1.0,137.45666480000364,,,,,,,,,,,,,,,,,137.4419819000177,137.79066030000104,138.59111649997067,138.5757341000135,,,,,,,,,,,,,,,,,,,,,,,,,,,,,,,,,,,138.57886040001176,138.59111649997067,138.59111649997067,139.093591700017,r,1.0,0.4976750999921933,,,,,sub-197,1,stroop_test,59.908112934130415,
,,,,6.0,6.0,0.0,,,,,,,,,,,,,rot,yellow,g,0.0,g,1.0,0.4370938000502065,,,,,,,,,,0.0,6.0,6.0,3.0,139.10931359999813,,,,,,,,,,,,,,,,,139.09393269999418,139.893272300018,140.69518099998822,140.67903439997465,,,,,,,,,,,,,,,,,,,,,,,,,,,,,,,,,,,140.6794968000031,140.69518099998822,140.69518099998822,141.14712259999942,g,1.0,0.4370938000502065,,,,,sub-197,1,stroop_test,59.908112934130415,
,,,,7.0,7.0,0.0,,,,,,,,,,,,,gelb,red,r,0.0,r,1.0,0.688233399996534,,,,,,,,,,0.0,7.0,7.0,8.0,141.16261599998688,,,,,,,,,,,,,,,,,141.14761250000447,142.34732239996083,143.147785499983,143.13223439996364,,,,,,,,,,,,,,,,,,,,,,,,,,,,,,,,,,,143.13515129999723,143.147785499983,143.147785499983,143.85101990000112,r,1.0,0.688233399996534,,,,,sub-197,1,stroop_test,59.908112934130415,
,,,,8.0,8.0,0.0,,,,,,,,,,,,,gelb,yellow,g,1.0,g,1.0,0.8951339999912307,,,,,,,,,,0.0,8.0,8.0,10.0,143.8662133999751,,,,,,,,,,,,,,,,,143.85144409997156,144.2005480999942,145.00179860001663,144.98471039999276,,,,,,,,,,,,,,,,,,,,,,,,,,,,,,,,,,,144.98515069996938,145.00179860001663,145.00179860001663,145.90441730001476,g,1.0,0.8951339999912307,,,,,sub-197,1,stroop_test,59.908112934130415,
,,,,9.0,9.0,0.0,,,,,,,,,,,,,blau,blue,b,1.0,b,1.0,0.5337927999789827,,,,,,,,,,0.0,9.0,9.0,6.0,145.91870019998169,,,,,,,,,,,,,,,,,145.90480149997163,146.27031559997704,147.07132679998176,147.05574629997136,,,,,,,,,,,,,,,,,,,,,,,,,,,,,,,,,,,147.05792409996502,147.07132679998176,147.07132679998176,147.6070449000108,b,1.0,0.5337927999789827,,,,,sub-197,1,stroop_test,59.908112934130415,
,,,,10.0,10.0,0.0,,,,,,,,,,,,,blau,red,r,0.0,r,1.0,0.4859219000209123,,,,,,,,,,0.0,10.0,10.0,4.0,147.62184089998482,,,,,,,,,,,,,,,,,147.6073730000062,147.9561851999606,148.75754069996765,148.7418125999975,,,,,,,,,,,,,,,,,,,,,,,,,,,,,,,,,,,148.74235690000933,148.75754069996765,148.75754069996765,149.25969829998212,r,1.0,0.4859219000209123,,,,,sub-197,1,stroop_test,59.908112934130415,
,,,,11.0,11.0,0.0,,,,,,,,,,,,,blau,blue,b,1.0,b,1.0,1.0007037000032142,,,,,,,,,,0.0,11.0,11.0,5.0,149.27448700001696,,,,,,,,,,,,,,,,,149.26002089999383,150.07509679999202,150.87766439997358,150.86166479997337,,,,,,,,,,,,,,,,,,,,,,,,,,,,,,,,,,,150.862221999967,150.87766439997358,150.87766439997358,151.87999689998105,b,1.0,1.0007037000032142,,,,,sub-197,1,stroop_test,59.908112934130415,
,,,,12.0,0.0,1.0,,,,,,,,,,,,,blau,yellow,g,0.0,g,1.0,0.5357912000035867,,,,,,,,,,1.0,0.0,12.0,7.0,151.8943006999907,,,,,,,,,,,,,,,,,151.88040059997002,153.07980469998438,153.8818391999812,153.86589640000602,,,,,,,,,,,,,,,,,,,,,,,,,,,,,,,,,,,153.8663434999762,153.8818391999812,153.8818391999812,154.43380759999854,g,1.0,0.5357912000035867,,,,,sub-197,1,stroop_test,59.908112934130415,
,,,,13.0,1.0,1.0,,,,,,,,,,,,,rot,blue,b,0.0,b,1.0,1.5035556000075303,,,,,,,,,,1.0,1.0,13.0,2.0,154.44862250000006,,,,,,,,,,,,,,,,,154.4342187999864,154.54974669998046,155.35085160000017,155.33477439999115,,,,,,,,,,,,,,,,,,,,,,,,,,,,,,,,,,,155.33722679998027,155.35085160000017,155.35085160000017,156.87037229997804,b,1.0,1.5035556000075303,,,,,sub-197,1,stroop_test,59.908112934130415,
,,,,14.0,2.0,1.0,,,,,,,,,,,,,blau,red,r,0.0,r,1.0,0.5306688999990001,,,,,,,,,,1.0,2.0,14.0,4.0,156.88620730000548,,,,,,,,,,,,,,,,,156.8707255999907,156.96979619999183,157.77101229998516,157.75465999997687,,,,,,,,,,,,,,,,,,,,,,,,,,,,,,,,,,,157.75691880000522,157.77101229998516,157.77101229998516,158.30595650000032,r,1.0,0.5306688999990001,,,,,sub-197,1,stroop_test,59.908112934130415,
,,,,15.0,3.0,1.0,,,,,,,,,,,,,blau,blue,b,1.0,b,1.0,0.7288154999841936,,,,,,,,,,1.0,3.0,15.0,5.0,158.32147630001418,,,,,,,,,,,,,,,,,158.3063788000145,159.10595090000425,159.90691670001252,159.89175399998203,,,,,,,,,,,,,,,,,,,,,,,,,,,,,,,,,,,159.8922184999683,159.90691670001252,159.90691670001252,160.64327449997654,b,1.0,0.7288154999841936,,,,,sub-197,1,stroop_test,59.908112934130415,
,,,,16.0,4.0,1.0,,,,,,,,,,,,,gelb,blue,b,0.0,b,1.0,0.6612167000421323,,,,,,,,,,1.0,4.0,16.0,9.0,160.65799500001594,,,,,,,,,,,,,,,,,160.6435935999616,161.44299579999642,162.2438885999727,162.22844470001291,,,,,,,,,,,,,,,,,,,,,,,,,,,,,,,,,,,162.23095040000044,162.2438885999727,162.2438885999727,162.9136461999733,b,1.0,0.6612167000421323,,,,,sub-197,1,stroop_test,59.908112934130415,
,,,,17.0,5.0,1.0,,,,,,,,,,,,,rot,red,r,1.0,r,1.0,0.6394546999945305,,,,,,,,,,1.0,5.0,17.0,0.0,162.92873139999574,,,,,,,,,,,,,,,,,162.91396819998045,163.27921030001016,164.07988440000918,164.06467970000813,,,,,,,,,,,,,,,,,,,,,,,,,,,,,,,,,,,164.067077899992,164.07988440000918,164.07988440000918,164.73318709997693,r,1.0,0.6394546999945305,,,,,sub-197,1,stroop_test,59.908112934130415,
,,,,18.0,6.0,1.0,,,,,,,,,,,,,gelb,yellow,g,1.0,g,1.0,0.6393120000138879,,,,,,,,,,1.0,6.0,18.0,11.0,164.74723249999806,,,,,,,,,,,,,,,,,164.7335829999647,165.93357079999987,166.7350267000147,166.71887759998208,,,,,,,,,,,,,,,,,,,,,,,,,,,,,,,,,,,166.72254719998455,166.7350267000147,166.7350267000147,167.38649969996186,g,1.0,0.6393120000138879,,,,,sub-197,1,stroop_test,59.908112934130415,
,,,,19.0,7.0,1.0,,,,,,,,,,,,,gelb,yellow,g,1.0,g,1.0,0.6295866000000387,,,,,,,,,,1.0,7.0,19.0,10.0,167.40231589996256,,,,,,,,,,,,,,,,,167.38681799999904,168.5877630999894,169.38860920001753,169.37230889999773,,,,,,,,,,,,,,,,,,,,,,,,,,,,,,,,,,,169.37279090000084,169.38860920001753,169.38860920001753,170.02444000000833,g,1.0,0.6295866000000387,,,,,sub-197,1,stroop_test,59.908112934130415,
,,,,20.0,8.0,1.0,,,,,,,,,,,,,rot,yellow,g,0.0,g,1.0,1.2519836000283249,,,,,,,,,,1.0,8.0,20.0,3.0,170.03960359998746,,,,,,,,,,,,,,,,,170.0247657999862,170.1389688999625,170.94055950001348,170.92553850001423,,,,,,,,,,,,,,,,,,,,,,,,,,,,,,,,,,,170.92801279999549,170.94055950001348,170.94055950001348,172.19462670001667,g,1.0,1.2519836000283249,,,,,sub-197,1,stroop_test,59.908112934130415,
,,,,21.0,9.0,1.0,,,,,,,,,,,,,blau,blue,b,1.0,b,1.0,0.5371801000437699,,,,,,,,,,1.0,9.0,21.0,6.0,172.20867999998154,,,,,,,,,,,,,,,,,172.19505549996393,173.394546800002,174.19608460000018,174.1804129999946,,,,,,,,,,,,,,,,,,,,,,,,,,,,,,,,,,,174.18306010001106,174.19608460000018,174.19608460000018,174.7481099999859,b,1.0,0.5371801000437699,,,,,sub-197,1,stroop_test,59.908112934130415,
,,,,22.0,10.0,1.0,,,,,,,,,,,,,gelb,red,r,0.0,r,1.0,0.4889442999847233,,,,,,,,,,1.0,10.0,22.0,8.0,174.76360489998478,,,,,,,,,,,,,,,,,174.7485055999714,174.8627264999668,175.66395079996437,175.64885130000766,,,,,,,,,,,,,,,,,,,,,,,,,,,,,,,,,,,175.6514748999616,175.66395079996437,175.66395079996437,176.16629630001262,r,1.0,0.4889442999847233,,,,,sub-197,1,stroop_test,59.908112934130415,
,,,,23.0,11.0,1.0,,,,,,,,,,,,,rot,red,r,1.0,r,1.0,0.6078566999640316,,,,,,,,,,1.0,11.0,23.0,1.0,176.1823298999807,,,,,,,,,,,,,,,,,176.16662319999887,176.5151443000068,177.316340499965,177.30149209999945,,,,,,,,,,,,,,,,,,,,,,,,,,,,,,,,,,,177.30400319996988,177.316340499965,177.316340499965,177.93645480001578,r,1.0,0.6078566999640316,,,,,sub-197,1,stroop_test,59.908112934130415,
,,,,24.0,0.0,2.0,,,,,,,,,,,,,blau,blue,b,1.0,b,1.0,0.7535478000063449,,,,,,,,,,2.0,0.0,24.0,5.0,177.95050959999207,,,,,,,,,,,,,,,,,177.9367783999769,179.13584960001754,179.93745440000205,179.92238479998196,,,,,,,,,,,,,,,,,,,,,,,,,,,,,,,,,,,179.92452309996588,179.93745440000205,179.93745440000205,180.70708879997252,b,1.0,0.7535478000063449,,,,,sub-197,1,stroop_test,59.908112934130415,
,,,,25.0,1.0,2.0,,,,,,,,,,,,,rot,red,r,1.0,r,1.0,0.5577340999734588,,,,,,,,,,2.0,1.0,25.0,0.0,180.72230889997445,,,,,,,,,,,,,,,,,180.707513100002,181.907572600001,182.70848639996257,182.6937218999956,,,,,,,,,,,,,,,,,,,,,,,,,,,,,,,,,,,182.69779299997023,182.70848639996257,182.70848639996257,183.2771396000171,r,1.0,0.5577340999734588,,,,,sub-197,1,stroop_test,59.908112934130415,
,,,,26.0,2.0,2.0,,,,,,,,,,,,,rot,blue,b,0.0,b,1.0,0.9689417000045067,,,,,,,,,,2.0,2.0,26.0,2.0,183.2923977000173,,,,,,,,,,,,,,,,,183.2775219999603,184.4776084999903,185.2791915999842,185.2633010999998,,,,,,,,,,,,,,,,,,,,,,,,,,,,,,,,,,,185.26373639999656,185.2791915999842,185.2791915999842,186.26557160000084,b,1.0,0.9689417000045067,,,,,sub-197,1,stroop_test,59.908112934130415,
,,,,27.0,3.0,2.0,,,,,,,,,,,,,blau,blue,b,1.0,b,1.0,0.560487299982924,,,,,,,,,,2.0,3.0,27.0,6.0,186.28102579998085,,,,,,,,,,,,,,,,,186.26599439996065,186.3645213000127,187.16554469999392,187.1498962999904,,,,,,,,,,,,,,,,,,,,,,,,,,,,,,,,,,,187.1523646999849,187.16554469999392,187.16554469999392,187.73399789998075,b,1.0,0.560487299982924,,,,,sub-197,1,stroop_test,59.908112934130415,
,,,,28.0,4.0,2.0,,,,,,,,,,,,,gelb,yellow,g,1.0,g,1.0,0.5982347999815829,,,,,,,,,,2.0,4.0,28.0,11.0,187.74983270000664,,,,,,,,,,,,,,,,,187.7343198999879,188.53435769997304,189.3340629999875,189.3200234000105,,,,,,,,,,,,,,,,,,,,,,,,,,,,,,,,,,,189.3224435999873,189.3340629999875,189.3340629999875,189.93743069999616,g,1.0,0.5982347999815829,,,,,sub-197,1,stroop_test,59.908112934130415,
,,,,29.0,5.0,2.0,,,,,,,,,,,,,blau,red,r,0.0,r,1.0,3.0723438000422902,,,,,,,,,,2.0,5.0,29.0,4.0,189.95242069999225,,,,,,,,,,,,,,,,,189.93784500000768,191.1385482999613,191.93977950001133,191.92226959997788,,,,,,,,,,,,,,,,,,,,,,,,,,,,,,,,,,,191.9248641000013,191.93977950001133,191.93977950001133,195.0293538999977,r,1.0,3.0723438000422902,,,,,sub-197,1,stroop_test,59.908112934130415,
,,,,30.0,6.0,2.0,,,,,,,,,,,,,rot,yellow,g,0.0,g,1.0,0.7235504999989644,,,,,,,,,,2.0,6.0,30.0,3.0,195.043465099996,,,,,,,,,,,,,,,,,195.0296820999938,195.14461209997532,195.94524329999692,195.92988099996,,,,,,,,,,,,,,,,,,,,,,,,,,,,,,,,,,,195.93226239999055,195.94524329999692,195.94524329999692,196.6821554999915,g,1.0,0.7235504999989644,,,,,sub-197,1,stroop_test,59.908112934130415,
,,,,31.0,7.0,2.0,,,,,,,,,,,,,gelb,yellow,g,1.0,g,1.0,0.7647151999990456,,,,,,,,,,2.0,7.0,31.0,10.0,196.69675519998415,,,,,,,,,,,,,,,,,196.68256729998396,197.88169509998988,198.6834684999776,198.66746779996905,,,,,,,,,,,,,,,,,,,,,,,,,,,,,,,,,,,198.6711546999868,198.6834684999776,198.6834684999776,199.45173859997885,g,1.0,0.7647151999990456,,,,,sub-197,1,stroop_test,59.908112934130415,
,,,,32.0,8.0,2.0,,,,,,,,,,,,,blau,yellow,g,0.0,g,1.0,0.8840322999749333,,,,,,,,,,2.0,8.0,32.0,7.0,199.4667078999919,,,,,,,,,,,,,,,,,199.45216059999075,200.2513567999704,201.0538119999692,201.03760939999484,,,,,,,,,,,,,,,,,,,,,,,,,,,,,,,,,,,201.03992339997785,201.0538119999692,201.0538119999692,201.9552016999805,g,1.0,0.8840322999749333,,,,,sub-197,1,stroop_test,59.908112934130415,
,,,,33.0,9.0,2.0,,,,,,,,,,,,,rot,red,r,1.0,r,1.0,0.8877872999873944,,,,,,,,,,2.0,9.0,33.0,1.0,201.97244549996685,,,,,,,,,,,,,,,,,201.955607299984,202.05537849996472,202.85655630001563,202.84065490000648,,,,,,,,,,,,,,,,,,,,,,,,,,,,,,,,,,,202.8437334999908,202.85655630001563,202.85655630001563,203.75853270001244,r,1.0,0.8877872999873944,,,,,sub-197,1,stroop_test,59.908112934130415,
,,,,34.0,10.0,2.0,,,,,,,,,,,,,gelb,red,r,0.0,r,1.0,0.568742299976293,,,,,,,,,,2.0,10.0,34.0,8.0,203.77450900000983,,,,,,,,,,,,,,,,,203.75894540001173,204.9597262999741,205.76056109997444,205.74501189996957,,,,,,,,,,,,,,,,,,,,,,,,,,,,,,,,,,,205.7474479000084,205.76056109997444,205.76056109997444,206.34683339996263,r,1.0,0.568742299976293,,,,,sub-197,1,stroop_test,59.908112934130415,
,,,,35.0,11.0,2.0,,,,,,,,,,,,,gelb,blue,b,0.0,b,1.0,0.8180278000072576,,,,,,,,,,2.0,11.0,35.0,9.0,206.3613144999836,,,,,,,,,,,,,,,,,206.34726010001032,207.54668580001453,208.34746939997424,208.33206869999407,,,,,,,,,,,,,,,,,,,,,,,,,,,,,,,,,,,208.33280109998304,208.34746939997424,208.34746939997424,209.16759839997397,b,1.0,0.8180278000072576,,,,,sub-197,1,stroop_test,59.908112934130415,
,,,,36.0,0.0,3.0,,,,,,,,,,,,,rot,red,r,1.0,r,1.0,0.8113598999916576,,,,,,,,,,3.0,0.0,36.0,0.0,209.18171520001488,,,,,,,,,,,,,,,,,209.1679691000027,209.98392550001157,210.78534259996377,210.76867690001384,,,,,,,,,,,,,,,,,,,,,,,,,,,,,,,,,,,210.77118129999144,210.78534259996377,210.78534259996377,211.603261900018,r,1.0,0.8113598999916576,,,,,sub-197,1,stroop_test,59.908112934130415,
,,,,37.0,1.0,3.0,,,,,,,,,,,,,blau,yellow,g,0.0,g,1.0,0.3222294999868609,,,,,,,,,,3.0,1.0,37.0,7.0,211.6195783999865,,,,,,,,,,,,,,,,,211.60363169998163,211.70328109996623,212.50451729999625,212.48727059998785,,,,,,,,,,,,,,,,,,,,,,,,,,,,,,,,,,,212.489625599992,212.50451729999625,212.50451729999625,212.838602999982,g,1.0,0.3222294999868609,,,,,sub-197,1,stroop_test,59.908112934130415,
,,,,38.0,2.0,3.0,,,,,,,,,,,,,gelb,blue,b,0.0,r,0.0,0.9373677999828942,,,,,,,,,,3.0,2.0,38.0,9.0,212.8545481999754,,,,,,,,,,,,,,,,,212.83892959996592,213.18902809999415,213.98986480000892,213.974077699997,,,,,,,,,,,,,,,,,,,,,,,,,,,,,,,,,,,213.97782779997212,213.98986480000892,213.98986480000892,214.94272769999225,r,0.0,0.9373677999828942,,,,,sub-197,1,stroop_test,59.908112934130415,
,,,,39.0,3.0,3.0,,,,,,,,,,,,,blau,blue,b,1.0,b,1.0,0.6944668999640271,,,,,,,,,,3.0,3.0,39.0,6.0,214.95806739997352,,,,,,,,,,,,,,,,,214.94314759998812,216.14222749997865,216.9443874999997,216.9288574999664,,,,,,,,,,,,,,,,,,,,,,,,,,,,,,,,,,,216.9309729000088,216.9443874999997,216.9443874999997,217.6466362999636,b,1.0,0.6944668999640271,,,,,sub-197,1,stroop_test,59.908112934130415,
,,,,40.0,4.0,3.0,,,,,,,,,,,,,rot,yellow,g,0.0,r,0.0,0.6877250000252388,,,,,,,,,,3.0,4.0,40.0,3.0,217.66227069997692,,,,,,,,,,,,,,,,,217.6469580999692,217.76186460000463,218.5633467999869,218.54706909996457,,,,,,,,,,,,,,,,,,,,,,,,,,,,,,,,,,,218.5494659999968,218.5633467999869,218.5633467999869,219.2655281999614,r,0.0,0.6877250000252388,,,,,sub-197,1,stroop_test,59.908112934130415,
,,,,41.0,5.0,3.0,,,,,,,,,,,,,gelb,yellow,g,1.0,g,1.0,0.7971186999930069,,,,,,,,,,3.0,5.0,41.0,10.0,219.2810100999777,,,,,,,,,,,,,,,,,219.2659461000003,219.61538809997728,220.4163762999815,220.40058479999425,,,,,,,,,,,,,,,,,,,,,,,,,,,,,,,,,,,220.4036031999858,220.4163762999815,220.4163762999815,221.21838099998425,g,1.0,0.7971186999930069,,,,,sub-197,1,stroop_test,59.908112934130415,
,,,,42.0,6.0,3.0,,,,,,,,,,,,,blau,blue,b,1.0,b,1.0,0.556122200039681,,,,,,,,,,3.0,6.0,42.0,5.0,221.2334254999878,,,,,,,,,,,,,,,,,221.2187011999777,222.03411880001656,222.83668840001337,222.82096529996488,,,,,,,,,,,,,,,,,,,,,,,,,,,,,,,,,,,222.8232171999989,222.83668840001337,222.83668840001337,223.4056697000051,b,1.0,0.556122200039681,,,,,sub-197,1,stroop_test,59.908112934130415,
,,,,43.0,7.0,3.0,,,,,,,,,,,,,gelb,red,r,0.0,b,0.0,1.2738438000087626,,,,,,,,,,3.0,7.0,43.0,8.0,223.42103289999068,,,,,,,,,,,,,,,,,223.4060923999641,223.77146819996412,224.5723570999689,224.5571131000179,,,,,,,,,,,,,,,,,,,,,,,,,,,,,,,,,,,224.55961429997117,224.5723570999689,224.5723570999689,225.8585292999633,b,0.0,1.2738438000087626,,,,,sub-197,1,stroop_test,59.908112934130415,
,,,,44.0,8.0,3.0,,,,,,,,,,,,,rot,blue,b,0.0,b,1.0,0.7247020999784581,,,,,,,,,,3.0,8.0,44.0,2.0,225.87356209999416,,,,,,,,,,,,,,,,,225.858848200005,227.0600045999745,227.8603868999635,227.84518770000432,,,,,,,,,,,,,,,,,,,,,,,,,,,,,,,,,,,227.84888559998944,227.8603868999635,227.8603868999635,228.59674259996973,b,1.0,0.7247020999784581,,,,,sub-197,1,stroop_test,59.908112934130415,
,,,,45.0,9.0,3.0,,,,,,,,,,,,,rot,red,r,1.0,r,1.0,0.5032634999952279,,,,,,,,,,3.0,9.0,45.0,1.0,228.61175619997084,,,,,,,,,,,,,,,,,228.59717079997063,228.96187120000832,229.76363880001009,229.74766799999637,,,,,,,,,,,,,,,,,,,,,,,,,,,,,,,,,,,229.7482294999645,229.76363880001009,229.76363880001009,230.282836999977,r,1.0,0.5032634999952279,,,,,sub-197,1,stroop_test,59.908112934130415,
,,,,46.0,10.0,3.0,,,,,,,,,,,,,gelb,yellow,g,1.0,g,1.0,0.5023861000081524,,,,,,,,,,3.0,10.0,46.0,11.0,230.29819860000865,,,,,,,,,,,,,,,,,230.28325879998735,230.63158569997177,231.43311009998436,231.4177309999941,,,,,,,,,,,,,,,,,,,,,,,,,,,,,,,,,,,231.4202093000058,231.43311009998436,231.43311009998436,231.95126050000545,g,1.0,0.5023861000081524,,,,,sub-197,1,stroop_test,59.908112934130415,
,,,,47.0,11.0,3.0,,,,,,,,,,,,,blau,red,r,0.0,b,0.0,0.481685800012201,,,,,,,,,,3.0,11.0,47.0,4.0,231.9669164000079,,,,,,,,,,,,,,,,,231.9516045000055,233.15116999996823,233.95374500000617,233.93724729999667,,,,,,,,,,,,,,,,,,,,,,,,,,,,,,,,,,,233.93951369996648,233.95374500000617,233.95374500000617,234.4385331000085,b,0.0,0.481685800012201,,,,,sub-197,1,stroop_test,59.908112934130415,
,,,,48.0,0.0,4.0,,,,,,,,,,,,,rot,yellow,g,0.0,g,1.0,0.8892626999877393,,,,,,,,,,4.0,0.0,48.0,3.0,234.45395260001533,,,,,,,,,,,,,,,,,234.4388603999978,235.63969789998373,236.44055749999825,236.4234948999947,,,,,,,,,,,,,,,,,,,,,,,,,,,,,,,,,,,236.42626370000653,236.44055749999825,236.44055749999825,237.34221879998225,g,1.0,0.8892626999877393,,,,,sub-197,1,stroop_test,59.908112934130415,
,,,,49.0,1.0,4.0,,,,,,,,,,,,,blau,yellow,g,0.0,r,0.0,0.65433980000671,,,,,,,,,,4.0,1.0,49.0,7.0,237.3578616000013,,,,,,,,,,,,,,,,,237.34253600001105,237.4419073999743,238.242970399966,238.22690650000004,,,,,,,,,,,,,,,,,,,,,,,,,,,,,,,,,,,238.2299966000137,238.242970399966,238.242970399966,238.9120544999605,r,0.0,0.65433980000671,,,,,sub-197,1,stroop_test,59.908112934130415,
,,,,50.0,2.0,4.0,,,,,,,,,,,,,gelb,blue,b,0.0,b,1.0,0.9602210000157356,,,,,,,,,,4.0,2.0,50.0,9.0,238.92745169997212,,,,,,,,,,,,,,,,,238.91241639998043,240.1123254999984,240.9144135999959,240.8981172000058,,,,,,,,,,,,,,,,,,,,,,,,,,,,,,,,,,,240.90070980001477,240.9144135999959,240.9144135999959,241.88319069996945,b,1.0,0.9602210000157356,,,,,sub-197,1,stroop_test,59.908112934130415,
,,,,51.0,3.0,4.0,,,,,,,,,,,,,rot,red,r,1.0,r,1.0,0.8017060999991372,,,,,,,,,,4.0,3.0,51.0,1.0,241.8984351999825,,,,,,,,,,,,,,,,,241.8835328000132,242.23209499998484,243.03389099997003,243.0181870000088,,,,,,,,,,,,,,,,,,,,,,,,,,,,,,,,,,,243.02119529998163,243.03389099997003,243.03389099997003,243.8371524999966,r,1.0,0.8017060999991372,,,,,sub-197,1,stroop_test,59.908112934130415,
,,,,52.0,4.0,4.0,,,,,,,,,,,,,gelb,red,r,0.0,r,1.0,1.2391791999689303,,,,,,,,,,4.0,4.0,52.0,8.0,243.85231839999324,,,,,,,,,,,,,,,,,243.83757819997845,244.2020732999663,245.00377369998023,244.98765839997213,,,,,,,,,,,,,,,,,,,,,,,,,,,,,,,,,,,244.99009779997868,245.00377369998023,245.00377369998023,246.2558720000088,r,1.0,1.2391791999689303,,,,,sub-197,1,stroop_test,59.908112934130415,
,,,,53.0,5.0,4.0,,,,,,,,,,,,,rot,blue,b,0.0,b,1.0,0.880878500000108,,,,,,,,,,4.0,5.0,53.0,2.0,246.27209819998825,,,,,,,,,,,,,,,,,246.25628309999595,247.45733619999373,248.25802730000575,248.2427698000101,,,,,,,,,,,,,,,,,,,,,,,,,,,,,,,,,,,248.24533120001436,248.25802730000575,248.25802730000575,249.14431229996265,b,1.0,0.880878500000108,,,,,sub-197,1,stroop_test,59.908112934130415,
,,,,54.0,6.0,4.0,,,,,,,,,,,,,rot,red,r,1.0,r,1.0,0.6673960000043735,,,,,,,,,,4.0,6.0,54.0,0.0,249.1590827999753,,,,,,,,,,,,,,,,,249.14463739999337,249.25941150001017,250.06147199997213,250.04563070001316,,,,,,,,,,,,,,,,,,,,,,,,,,,,,,,,,,,250.0460793999955,250.06147199997213,250.06147199997213,250.73032289999537,r,1.0,0.6673960000043735,,,,,sub-197,1,stroop_test,59.908112934130415,
,,,,55.0,7.0,4.0,,,,,,,,,,,,,blau,blue,b,1.0,b,1.0,0.7397632999927737,,,,,,,,,,4.0,7.0,55.0,6.0,250.74495969997952,,,,,,,,,,,,,,,,,250.73073999997,251.07947180001065,251.8807977999677,251.86502339999424,,,,,,,,,,,,,,,,,,,,,,,,,,,,,,,,,,,251.86764419998508,251.8807977999677,251.8807977999677,252.633273000014,b,1.0,0.7397632999927737,,,,,sub-197,1,stroop_test,59.908112934130415,
,,,,56.0,8.0,4.0,,,,,,,,,,,,,gelb,yellow,g,1.0,g,1.0,1.1455707999994047,,,,,,,,,,4.0,8.0,56.0,10.0,252.6474009999656,,,,,,,,,,,,,,,,,252.63370229996508,253.83227889996488,254.63443869998449,254.6184383999789,,,,,,,,,,,,,,,,,,,,,,,,,,,,,,,,,,,254.62102029996456,254.63443869998449,254.63443869998449,255.7877595999744,g,1.0,1.1455707999994047,,,,,sub-197,1,stroop_test,59.908112934130415,
,,,,57.0,9.0,4.0,,,,,,,,,,,,,gelb,yellow,g,1.0,g,1.0,0.4867168999626301,,,,,,,,,,4.0,9.0,57.0,11.0,255.8032024999848,,,,,,,,,,,,,,,,,255.7880944999633,255.9033066999982,256.70466789999045,256.68909599998733,,,,,,,,,,,,,,,,,,,,,,,,,,,,,,,,,,,256.68955569999525,256.70466789999045,256.70466789999045,257.20577529998263,g,1.0,0.4867168999626301,,,,,sub-197,1,stroop_test,59.908112934130415,
,,,,58.0,10.0,4.0,,,,,,,,,,,,,blau,blue,b,1.0,b,1.0,0.5610904999775812,,,,,,,,,,4.0,10.0,58.0,5.0,257.22149059997173,,,,,,,,,,,,,,,,,257.2060878999764,257.3054799999809,258.1065224999911,258.09109999996144,,,,,,,,,,,,,,,,,,,,,,,,,,,,,,,,,,,258.0943339999649,258.1065224999911,258.1065224999911,258.6759101999924,b,1.0,0.5610904999775812,,,,,sub-197,1,stroop_test,59.908112934130415,
,,,,59.0,11.0,4.0,,,,,,,,,,,,,blau,red,r,0.0,r,1.0,0.91766799998004,,,,,,,,,,4.0,11.0,59.0,4.0,258.69137949997094,,,,,,,,,,,,,,,,,258.67623489996186,259.02522229996976,259.8260767000029,259.8104792999802,,,,,,,,,,,,,,,,,,,,,,,,,,,,,,,,,,,259.81091749999905,259.8260767000029,259.8260767000029,260.74551490001613,r,1.0,0.91766799998004,,,,,sub-197,1,stroop_test,59.908112934130415,
,,,,60.0,0.0,5.0,,,,,,,,,,,,,gelb,yellow,g,1.0,g,1.0,0.7721678999951109,,,,,,,,,,5.0,0.0,60.0,10.0,260.7607360999682,,,,,,,,,,,,,,,,,260.7459324999945,261.09495499997865,261.8956294999807,261.8794238999835,,,,,,,,,,,,,,,,,,,,,,,,,,,,,,,,,,,261.8825375000015,261.8956294999807,261.8956294999807,262.6813306999975,g,1.0,0.7721678999951109,,,,,sub-197,1,stroop_test,59.908112934130415,
,,,,61.0,1.0,5.0,,,,,,,,,,,,,rot,yellow,g,0.0,g,1.0,0.4828944000182673,,,,,,,,,,5.0,1.0,61.0,3.0,262.69772990001366,,,,,,,,,,,,,,,,,262.6816693000146,263.4813820999698,264.2830948999617,264.2668953000102,,,,,,,,,,,,,,,,,,,,,,,,,,,,,,,,,,,264.2693912999821,264.2830948999617,264.2830948999617,264.7684967999812,g,1.0,0.4828944000182673,,,,,sub-197,1,stroop_test,59.908112934130415,
,,,,62.0,2.0,5.0,,,,,,,,,,,,,gelb,blue,b,0.0,b,1.0,0.6342612999724224,,,,,,,,,,5.0,2.0,62.0,9.0,264.78424050001195,,,,,,,,,,,,,,,,,264.7688228999614,264.8837260999717,265.68558789999224,265.66946399997687,,,,,,,,,,,,,,,,,,,,,,,,,,,,,,,,,,,265.6725902999751,265.68558789999224,265.68558789999224,266.321191199997,b,1.0,0.6342612999724224,,,,,sub-197,1,stroop_test,59.908112934130415,
,,,,63.0,3.0,5.0,,,,,,,,,,,,,blau,blue,b,1.0,b,1.0,0.4780105999670923,,,,,,,,,,5.0,3.0,63.0,5.0,266.3357859000098,,,,,,,,,,,,,,,,,266.3215150999604,266.43636100000003,267.2371104999911,267.22163599997293,,,,,,,,,,,,,,,,,,,,,,,,,,,,,,,,,,,267.22381359996507,267.2371104999911,267.2371104999911,267.7227521999739,b,1.0,0.4780105999670923,,,,,sub-197,1,stroop_test,59.908112934130415,
,,,,64.0,4.0,5.0,,,,,,,,,,,,,blau,blue,b,1.0,b,1.0,0.4392665000050328,,,,,,,,,,5.0,4.0,64.0,6.0,267.7375683999853,,,,,,,,,,,,,,,,,267.7230719999643,268.5228014999884,269.32373689999804,269.30739239999093,,,,,,,,,,,,,,,,,,,,,,,,,,,,,,,,,,,269.30783529998735,269.32373689999804,269.32373689999804,269.7752695999807,b,1.0,0.4392665000050328,,,,,sub-197,1,stroop_test,59.908112934130415,
,,,,65.0,5.0,5.0,,,,,,,,,,,,,gelb,yellow,g,1.0,g,1.0,0.6920014999923296,,,,,,,,,,5.0,5.0,65.0,11.0,269.7910003999714,,,,,,,,,,,,,,,,,269.77559510001447,270.5752381999628,271.37647149997065,271.36176910001086,,,,,,,,,,,,,,,,,,,,,,,,,,,,,,,,,,,271.36494210001547,271.37647149997065,271.37647149997065,272.0795114999637,g,1.0,0.6920014999923296,,,,,sub-197,1,stroop_test,59.908112934130415,
,,,,66.0,6.0,5.0,,,,,,,,,,,,,rot,red,r,1.0,r,1.0,0.723204399982933,,,,,,,,,,5.0,6.0,66.0,0.0,272.0942251000088,,,,,,,,,,,,,,,,,272.07983760000207,272.4287731999648,273.22995239996817,273.21366070001386,,,,,,,,,,,,,,,,,,,,,,,,,,,,,,,,,,,273.21631059999345,273.22995239996817,273.22995239996817,273.96457449998707,r,1.0,0.723204399982933,,,,,sub-197,1,stroop_test,59.908112934130415,
,,,,67.0,7.0,5.0,,,,,,,,,,,,,rot,blue,b,0.0,b,1.0,0.8099653999670409,,,,,,,,,,5.0,7.0,67.0,2.0,273.9804117999738,,,,,,,,,,,,,,,,,273.9649967000005,274.76461139996536,275.56623100000434,275.5497291999636,,,,,,,,,,,,,,,,,,,,,,,,,,,,,,,,,,,275.5501715000137,275.56623100000434,275.56623100000434,276.38528859999496,b,1.0,0.8099653999670409,,,,,sub-197,1,stroop_test,59.908112934130415,
,,,,68.0,8.0,5.0,,,,,,,,,,,,,rot,red,r,1.0,r,1.0,0.5450282000238076,,,,,,,,,,5.0,8.0,68.0,1.0,276.40003209997667,,,,,,,,,,,,,,,,,276.3857018999988,277.18579000001773,277.98734559997683,277.9710228999611,,,,,,,,,,,,,,,,,,,,,,,,,,,,,,,,,,,277.971580500016,277.98734559997683,277.98734559997683,278.53950939996867,r,1.0,0.5450282000238076,,,,,sub-197,1,stroop_test,59.908112934130415,
,,,,69.0,9.0,5.0,,,,,,,,,,,,,blau,yellow,g,0.0,g,1.0,0.8345689999987371,,,,,,,,,,5.0,9.0,69.0,7.0,278.55479470000137,,,,,,,,,,,,,,,,,278.5399277000106,279.33907390001696,280.14057879999746,280.1231511000078,,,,,,,,,,,,,,,,,,,,,,,,,,,,,,,,,,,280.1254719999852,280.14057879999746,280.14057879999746,280.9767260999652,g,1.0,0.8345689999987371,,,,,sub-197,1,stroop_test,59.908112934130415,
,,,,70.0,10.0,5.0,,,,,,,,,,,,,gelb,red,r,0.0,b,0.0,0.634709500009194,,,,,,,,,,5.0,10.0,70.0,8.0,280.9913830999867,,,,,,,,,,,,,,,,,280.97705290000886,281.77615449996665,282.5776479999768,282.56162069999846,,,,,,,,,,,,,,,,,,,,,,,,,,,,,,,,,,,282.564118099981,282.5776479999768,282.5776479999768,283.2135953999823,b,0.0,0.634709500009194,,,,,sub-197,1,stroop_test,59.908112934130415,
,,,,71.0,11.0,5.0,,,,,,,,,,,,,blau,red,r,0.0,r,1.0,1.0142869999981483,,,,,,,,,,5.0,11.0,71.0,4.0,283.2285765999696,,,,,,,,,,,,,,,,,283.21406139998,284.0284296000027,284.8299626999651,284.81422870000824,,,,,,,,,,,,,,,,,,,,,,,,,,,,,,,,,,,284.8165233999607,284.8299626999651,284.8299626999651,285.8496035999852,r,1.0,1.0142869999981483,,,,,sub-197,1,stroop_test,59.908112934130415,
,,,,72.0,0.0,6.0,,,,,,,,,,,,,blau,red,r,0.0,r,1.0,0.532492300029844,,,,,,,,,,6.0,0.0,72.0,4.0,285.86515329999384,,,,,,,,,,,,,,,,,285.84992459998466,286.64937629998894,287.4506104000029,287.4344062000164,,,,,,,,,,,,,,,,,,,,,,,,,,,,,,,,,,,287.434898699983,287.4506104000029,287.4506104000029,287.9865642999648,r,1.0,0.532492300029844,,,,,sub-197,1,stroop_test,59.908112934130415,
,,,,73.0,1.0,6.0,,,,,,,,,,,,,blau,blue,b,1.0,b,1.0,1.107574800029397,,,,,,,,,,6.0,1.0,73.0,5.0,288.0027240999625,,,,,,,,,,,,,,,,,287.98707209998975,288.7867959999712,289.587810099998,289.5726534000132,,,,,,,,,,,,,,,,,,,,,,,,,,,,,,,,,,,289.57308960001683,289.587810099998,289.587810099998,290.707448799978,b,1.0,1.107574800029397,,,,,sub-197,1,stroop_test,59.908112934130415,
,,,,74.0,2.0,6.0,,,,,,,,,,,,,gelb,yellow,g,1.0,g,1.0,0.6776566000189632,,,,,,,,,,6.0,2.0,74.0,10.0,290.72322449996136,,,,,,,,,,,,,,,,,290.7077698999783,291.50776169996243,292.3093006999697,292.2933332999819,,,,,,,,,,,,,,,,,,,,,,,,,,,,,,,,,,,292.2966646999703,292.3093006999697,292.3093006999697,292.99499300000025,g,1.0,0.6776566000189632,,,,,sub-197,1,stroop_test,59.908112934130415,
,,,,75.0,3.0,6.0,,,,,,,,,,,,,rot,red,r,1.0,b,0.0,0.4820983000099659,,,,,,,,,,6.0,3.0,75.0,0.0,293.010392999975,,,,,,,,,,,,,,,,,292.9953203999903,293.09329479996813,293.8948497999809,293.8786850000033,,,,,,,,,,,,,,,,,,,,,,,,,,,,,,,,,,,293.881077500002,293.8948497999809,293.8948497999809,294.3792905000155,b,0.0,0.4820983000099659,,,,,sub-197,1,stroop_test,59.908112934130415,
,,,,76.0,4.0,6.0,,,,,,,,,,,,,rot,yellow,g,0.0,g,1.0,0.8862431999878027,,,,,,,,,,6.0,4.0,76.0,3.0,294.394450999971,,,,,,,,,,,,,,,,,294.3796785000013,295.58054890000494,296.38170630001696,296.36585389997344,,,,,,,,,,,,,,,,,,,,,,,,,,,,,,,,,,,296.3662918999908,296.38170630001696,296.38170630001696,297.28284830000484,g,1.0,0.8862431999878027,,,,,sub-197,1,stroop_test,59.908112934130415,
,,,,77.0,5.0,6.0,,,,,,,,,,,,,gelb,blue,b,0.0,b,1.0,0.8239331999793649,,,,,,,,,,6.0,5.0,77.0,9.0,297.29915169999003,,,,,,,,,,,,,,,,,297.28321389999473,297.38267809996614,298.1845139999641,298.16823169996496,,,,,,,,,,,,,,,,,,,,,,,,,,,,,,,,,,,298.17096730001504,298.1845139999641,298.1845139999641,299.02050569996936,b,1.0,0.8239331999793649,,,,,sub-197,1,stroop_test,59.908112934130415,
,,,,78.0,6.0,6.0,,,,,,,,,,,,,gelb,red,r,0.0,r,1.0,1.3725983999902382,,,,,,,,,,6.0,6.0,78.0,8.0,299.0359344999888,,,,,,,,,,,,,,,,,299.0208439999842,299.82014129997697,300.6214893999859,300.6055976999924,,,,,,,,,,,,,,,,,,,,,,,,,,,,,,,,,,,300.6060448999633,300.6214893999859,300.6214893999859,302.00849229999585,r,1.0,1.3725983999902382,,,,,sub-197,1,stroop_test,59.908112934130415,
,,,,79.0,7.0,6.0,,,,,,,,,,,,,blau,yellow,g,0.0,g,1.0,0.7683827999862842,,,,,,,,,,6.0,7.0,79.0,7.0,302.02277089998825,,,,,,,,,,,,,,,,,302.0088156000129,303.2089907999616,304.0100413999753,303.9946666000178,,,,,,,,,,,,,,,,,,,,,,,,,,,,,,,,,,,303.99733189999824,304.0100413999753,304.0100413999753,304.7948949999991,g,1.0,0.7683827999862842,,,,,sub-197,1,stroop_test,59.908112934130415,
,,,,80.0,8.0,6.0,,,,,,,,,,,,,rot,blue,b,0.0,b,1.0,1.020476300036535,,,,,,,,,,6.0,8.0,80.0,2.0,304.81047640001634,,,,,,,,,,,,,,,,,304.7952506999718,305.9961638000095,306.7975375999813,306.7819749999908,,,,,,,,,,,,,,,,,,,,,,,,,,,,,,,,,,,306.78449019999243,306.7975375999813,306.7975375999813,307.83383189997403,b,1.0,1.020476300036535,,,,,sub-197,1,stroop_test,59.908112934130415,
,,,,81.0,9.0,6.0,,,,,,,,,,,,,gelb,yellow,g,1.0,g,1.0,1.420044400030747,,,,,,,,,,6.0,9.0,81.0,11.0,307.84936759999255,,,,,,,,,,,,,,,,,307.83417619997635,308.6342358000111,309.43559229996754,309.41920529998606,,,,,,,,,,,,,,,,,,,,,,,,,,,,,,,,,,,309.42311669996707,309.43559229996754,309.43559229996754,310.8714032999705,g,1.0,1.420044400030747,,,,,sub-197,1,stroop_test,59.908112934130415,
,,,,82.0,10.0,6.0,,,,,,,,,,,,,blau,blue,b,1.0,b,1.0,0.5209381000022404,,,,,,,,,,6.0,10.0,82.0,6.0,310.8867222999688,,,,,,,,,,,,,,,,,310.8718466999708,312.0724466000101,312.87301649997244,312.85791459999746,,,,,,,,,,,,,,,,,,,,,,,,,,,,,,,,,,,312.860303799971,312.87301649997244,312.87301649997244,313.40842569997767,b,1.0,0.5209381000022404,,,,,sub-197,1,stroop_test,59.908112934130415,
,,,,83.0,11.0,6.0,,,,,,,,,,,,,rot,red,r,1.0,r,1.0,0.5699398000142537,,,,,,,,,,6.0,11.0,83.0,1.0,313.4244846999645,,,,,,,,,,,,,,,,,313.40875689999666,313.77497470000526,314.5753456999664,314.5592144000111,,,,,,,,,,,,,,,,,,,,,,,,,,,,,,,,,,,314.5622361999704,314.5753456999664,314.5753456999664,315.1605847000028,r,1.0,0.5699398000142537,,,,,sub-197,1,stroop_test,59.908112934130415,
,,,,84.0,0.0,7.0,,,,,,,,,,,,,blau,red,r,0.0,r,1.0,0.8789634999702685,,,,,,,,,,7.0,0.0,84.0,4.0,315.1760140999686,,,,,,,,,,,,,,,,,315.160904599994,316.361330899992,317.16369909996865,317.1464007999748,,,,,,,,,,,,,,,,,,,,,,,,,,,,,,,,,,,317.14904180000303,317.16369909996865,317.16369909996865,318.04857809998794,r,1.0,0.8789634999702685,,,,,sub-197,1,stroop_test,59.908112934130415,
,,,,85.0,1.0,7.0,,,,,,,,,,,,,blau,blue,b,1.0,b,1.0,0.8076004000031389,,,,,,,,,,7.0,1.0,85.0,5.0,318.0642835999606,,,,,,,,,,,,,,,,,318.0489004999981,318.147935499961,318.9484681999893,318.933055099973,,,,,,,,,,,,,,,,,,,,,,,,,,,,,,,,,,,318.9335086999927,318.9484681999893,318.9484681999893,319.76866409997456,b,1.0,0.8076004000031389,,,,,sub-197,1,stroop_test,59.908112934130415,
,,,,86.0,2.0,7.0,,,,,,,,,,,,,gelb,yellow,g,1.0,g,1.0,0.5127655999967828,,,,,,,,,,7.0,2.0,86.0,10.0,319.78411139996024,,,,,,,,,,,,,,,,,319.769088400004,320.9695978999953,321.7703726000036,321.7547744999756,,,,,,,,,,,,,,,,,,,,,,,,,,,,,,,,,,,321.7573822999839,321.7703726000036,321.7703726000036,322.2888651000103,g,1.0,0.5127655999967828,,,,,sub-197,1,stroop_test,59.908112934130415,
,,,,87.0,3.0,7.0,,,,,,,,,,,,,gelb,blue,b,0.0,b,1.0,0.9604704999946988,,,,,,,,,,7.0,3.0,87.0,9.0,322.30447239999194,,,,,,,,,,,,,,,,,322.2892863000161,323.0890492000035,323.8902798999916,323.87411039997824,,,,,,,,,,,,,,,,,,,,,,,,,,,,,,,,,,,323.87454990000697,323.8902798999916,323.8902798999916,324.85801909997826,b,1.0,0.9604704999946988,,,,,sub-197,1,stroop_test,59.908112934130415,
,,,,88.0,4.0,7.0,,,,,,,,,,,,,blau,blue,b,1.0,b,1.0,0.4538201999966986,,,,,,,,,,7.0,4.0,88.0,6.0,324.87405889999354,,,,,,,,,,,,,,,,,324.858433699992,324.9588332999847,325.7591244999785,325.7439175999607,,,,,,,,,,,,,,,,,,,,,,,,,,,,,,,,,,,325.74656040000264,325.7591244999785,325.7591244999785,326.2283866999787,b,1.0,0.4538201999966986,,,,,sub-197,1,stroop_test,59.908112934130415,
,,,,89.0,5.0,7.0,,,,,,,,,,,,,rot,yellow,g,0.0,r,0.0,0.6793989000143483,,,,,,,,,,7.0,5.0,89.0,3.0,326.24320929998066,,,,,,,,,,,,,,,,,326.2288170999964,326.57797899999423,327.3791543999687,327.36326949996874,,,,,,,,,,,,,,,,,,,,,,,,,,,,,,,,,,,327.366371000011,327.3791543999687,327.3791543999687,328.063355899998,r,0.0,0.6793989000143483,,,,,sub-197,1,stroop_test,59.908112934130415,
,,,,90.0,6.0,7.0,,,,,,,,,,,,,gelb,yellow,g,1.0,g,1.0,0.684734100010246,,,,,,,,,,7.0,6.0,90.0,11.0,328.0793358999654,,,,,,,,,,,,,,,,,328.0637720999657,328.4127348999609,329.21503199997824,329.1988812999916,,,,,,,,,,,,,,,,,,,,,,,,,,,,,,,,,,,329.2013283999986,329.21503199997824,329.21503199997824,329.91686960001243,g,1.0,0.684734100010246,,,,,sub-197,1,stroop_test,59.908112934130415,
,,,,91.0,7.0,7.0,,,,,,,,,,,,,gelb,red,r,0.0,r,1.0,1.0807885999674909,,,,,,,,,,7.0,7.0,91.0,8.0,329.93210460001137,,,,,,,,,,,,,,,,,329.91728709999006,331.1175252000103,331.9180359999882,331.9020997000043,,,,,,,,,,,,,,,,,,,,,,,,,,,,,,,,,,,331.9025205000071,331.9180359999882,331.9180359999882,333.0053410999826,r,1.0,1.0807885999674909,,,,,sub-197,1,stroop_test,59.908112934130415,
,,,,92.0,8.0,7.0,,,,,,,,,,,,,rot,red,r,1.0,r,1.0,1.032807799987495,,,,,,,,,,7.0,8.0,92.0,0.0,333.0198412999744,,,,,,,,,,,,,,,,,333.0056671999628,333.1204709999729,333.92121609998867,333.9062978000147,,,,,,,,,,,,,,,,,,,,,,,,,,,,,,,,,,,333.9097235999652,333.92121609998867,333.92121609998867,334.9572260999703,r,1.0,1.032807799987495,,,,,sub-197,1,stroop_test,59.908112934130415,
,,,,93.0,9.0,7.0,,,,,,,,,,,,,rot,blue,b,0.0,b,1.0,0.7346226999652572,,,,,,,,,,7.0,9.0,93.0,2.0,334.9728064999799,,,,,,,,,,,,,,,,,334.9576317999745,335.75823589996435,336.5592717999825,336.5434540999704,,,,,,,,,,,,,,,,,,,,,,,,,,,,,,,,,,,336.5440203999751,336.5592717999825,336.5592717999825,337.3106244999799,b,1.0,0.7346226999652572,,,,,sub-197,1,stroop_test,59.908112934130415,
,,,,94.0,10.0,7.0,,,,,,,,,,,,,rot,red,r,1.0,r,1.0,0.8141310000210069,,,,,,,,,,7.0,10.0,94.0,1.0,337.32621699996525,,,,,,,,,,,,,,,,,337.311046399991,338.11194560001604,338.91323189996183,338.8974753000075,,,,,,,,,,,,,,,,,,,,,,,,,,,,,,,,,,,338.8980256000068,338.91323189996183,338.91323189996183,339.7310301999678,r,1.0,0.8141310000210069,,,,,sub-197,1,stroop_test,59.908112934130415,
,,,,95.0,11.0,7.0,,,,,,,,,,,,,blau,yellow,g,0.0,g,1.0,2.113183000008576,,,,,,,,,,7.0,11.0,95.0,7.0,339.74690189998364,,,,,,,,,,,,,,,,,339.73144609999144,340.53238439996494,341.33346499997424,341.3168416999979,,,,,,,,,,,,,,,,,,,,,,,,,,,,,,,,,,,341.31908370001474,341.33346499997424,341.33346499997424,343.4543676999747,g,1.0,2.113183000008576,,,,,sub-197,1,stroop_test,59.908112934130415,
,,,,96.0,0.0,8.0,,,,,,,,,,,,,gelb,yellow,g,1.0,g,1.0,0.846313200017903,,,,,,,,,,8.0,0.0,96.0,10.0,343.46925339999143,,,,,,,,,,,,,,,,,343.4546923000016,344.2548984999885,345.05489249998936,345.03964370000176,,,,,,,,,,,,,,,,,,,,,,,,,,,,,,,,,,,345.0429617000045,345.05489249998936,345.05489249998936,345.9085792999831,g,1.0,0.846313200017903,,,,,sub-197,1,stroop_test,59.908112934130415,
,,,,97.0,1.0,8.0,,,,,,,,,,,,,rot,yellow,g,0.0,g,1.0,0.6037559999967925,,,,,,,,,,8.0,1.0,97.0,3.0,345.9233717999887,,,,,,,,,,,,,,,,,345.90902779996395,346.7079827999696,347.50886489998084,347.4935468999902,,,,,,,,,,,,,,,,,,,,,,,,,,,,,,,,,,,347.4971982999705,347.50886489998084,347.50886489998084,348.1281607999699,g,1.0,0.6037559999967925,,,,,sub-197,1,stroop_test,59.908112934130415,
,,,,98.0,2.0,8.0,,,,,,,,,,,,,blau,red,r,0.0,b,0.0,0.7766388999880292,,,,,,,,,,8.0,2.0,98.0,4.0,348.14421990001574,,,,,,,,,,,,,,,,,348.12848700000905,348.9285016999929,349.7297706999816,349.7134854000178,,,,,,,,,,,,,,,,,,,,,,,,,,,,,,,,,,,349.71613169997,349.7297706999816,349.7297706999816,350.51557049999246,b,0.0,0.7766388999880292,,,,,sub-197,1,stroop_test,59.908112934130415,
,,,,99.0,3.0,8.0,,,,,,,,,,,,,gelb,blue,b,0.0,g,0.0,1.1208273000083864,,,,,,,,,,8.0,3.0,99.0,9.0,350.530933299975,,,,,,,,,,,,,,,,,350.51601399999345,350.8811516999849,351.68255430000136,351.66676089999964,,,,,,,,,,,,,,,,,,,,,,,,,,,,,,,,,,,351.6698617999791,351.68255430000136,351.68255430000136,352.8190991000156,g,0.0,1.1208273000083864,,,,,sub-197,1,stroop_test,59.908112934130415,
,,,,100.0,4.0,8.0,,,,,,,,,,,,,gelb,yellow,g,1.0,g,1.0,0.8000334000098519,,,,,,,,,,8.0,4.0,100.0,11.0,352.8343892999692,,,,,,,,,,,,,,,,,352.8194242999889,353.61837749998085,354.4197386999731,354.4046684000059,,,,,,,,,,,,,,,,,,,,,,,,,,,,,,,,,,,354.405173200008,354.4197386999731,354.4197386999731,355.2217959999689,g,1.0,0.8000334000098519,,,,,sub-197,1,stroop_test,59.908112934130415,
,,,,101.0,5.0,8.0,,,,,,,,,,,,,blau,blue,b,1.0,b,1.0,0.5941923999926075,,,,,,,,,,8.0,5.0,101.0,6.0,355.2374297999777,,,,,,,,,,,,,,,,,355.222225799982,355.5722781000077,356.37224130000686,356.3560495999991,,,,,,,,,,,,,,,,,,,,,,,,,,,,,,,,,,,356.3595470999717,356.37224130000686,356.37224130000686,356.9752068999805,b,1.0,0.5941923999926075,,,,,sub-197,1,stroop_test,59.908112934130415,
,,,,102.0,6.0,8.0,,,,,,,,,,,,,blau,yellow,g,0.0,r,0.0,0.8122884000185877,,,,,,,,,,8.0,6.0,102.0,7.0,356.9900760999881,,,,,,,,,,,,,,,,,356.97552390000783,358.1760023999959,358.9768429999822,358.96030239999527,,,,,,,,,,,,,,,,,,,,,,,,,,,,,,,,,,,358.9608472000109,358.9768429999822,358.9768429999822,359.7963968999684,r,0.0,0.8122884000185877,,,,,sub-197,1,stroop_test,59.908112934130415,
,,,,103.0,7.0,8.0,,,,,,,,,,,,,gelb,red,r,0.0,r,1.0,0.8496146000106819,,,,,,,,,,8.0,7.0,103.0,8.0,359.8105473999749,,,,,,,,,,,,,,,,,359.7967244000174,359.9119134999928,360.71217610000167,360.6963258999749,,,,,,,,,,,,,,,,,,,,,,,,,,,,,,,,,,,360.6987478999654,360.71217610000167,360.71217610000167,361.5642497999943,r,1.0,0.8496146000106819,,,,,sub-197,1,stroop_test,59.908112934130415,
,,,,104.0,8.0,8.0,,,,,,,,,,,,,rot,blue,b,0.0,b,1.0,0.9964056000462732,,,,,,,,,,8.0,8.0,104.0,2.0,361.5800542999641,,,,,,,,,,,,,,,,,361.5645617999835,361.6643934000167,362.4645576999756,362.4490376000176,,,,,,,,,,,,,,,,,,,,,,,,,,,,,,,,,,,362.4525902000023,362.4645576999756,362.4645576999756,363.4685608000145,b,1.0,0.9964056000462732,,,,,sub-197,1,stroop_test,59.908112934130415,
,,,,105.0,9.0,8.0,,,,,,,,,,,,,rot,red,r,1.0,r,1.0,0.7514880999806337,,,,,,,,,,8.0,9.0,105.0,0.0,363.48302410001634,,,,,,,,,,,,,,,,,363.4688884000061,364.2686267999816,365.0694621999865,365.05345399997896,,,,,,,,,,,,,,,,,,,,,,,,,,,,,,,,,,,365.0538885999704,365.0694621999865,365.0694621999865,365.8222275999724,r,1.0,0.7514880999806337,,,,,sub-197,1,stroop_test,59.908112934130415,
,,,,106.0,10.0,8.0,,,,,,,,,,,,,blau,blue,b,1.0,b,1.0,0.7165254999999888,,,,,,,,,,8.0,10.0,106.0,5.0,365.8371513999882,,,,,,,,,,,,,,,,,365.82254670001566,367.02271320001455,367.82389549998334,367.8081569999922,,,,,,,,,,,,,,,,,,,,,,,,,,,,,,,,,,,367.81077370001,367.82389549998334,367.82389549998334,368.54295390000334,b,1.0,0.7165254999999888,,,,,sub-197,1,stroop_test,59.908112934130415,
,,,,107.0,11.0,8.0,,,,,,,,,,,,,rot,red,r,1.0,r,1.0,0.7720346999703906,,,,,,,,,,8.0,11.0,107.0,1.0,368.5582290000166,,,,,,,,,,,,,,,,,368.54331510001794,368.89252910000505,369.69321309996303,369.67695290001575,,,,,,,,,,,,,,,,,,,,,,,,,,,,,,,,,,,369.6797055999632,369.69321309996303,369.69321309996303,370.4782999000163,r,1.0,0.7720346999703906,,,,,sub-197,1,stroop_test,59.908112934130415,
,,,,108.0,0.0,9.0,,,,,,,,,,,,,rot,red,r,1.0,r,1.0,0.6416990000288934,,,,,,,,,,9.0,0.0,108.0,1.0,370.4938480000128,,,,,,,,,,,,,,,,,370.4786300999695,370.57880319998367,371.37809089996153,371.36213369999314,,,,,,,,,,,,,,,,,,,,,,,,,,,,,,,,,,,371.3625595999765,371.37809089996153,371.37809089996153,372.030225399998,r,1.0,0.6416990000288934,,,,,sub-197,1,stroop_test,59.908112934130415,
,,,,109.0,1.0,9.0,,,,,,,,,,,,,blau,red,r,0.0,r,1.0,1.229907600034494,,,,,,,,,,9.0,1.0,109.0,4.0,372.04611110000405,,,,,,,,,,,,,,,,,372.0306057999842,373.2310804000008,374.0319882999757,374.0158759999904,,,,,,,,,,,,,,,,,,,,,,,,,,,,,,,,,,,374.0185090000159,374.0319882999757,374.0319882999757,375.2693294999772,r,1.0,1.229907600034494,,,,,sub-197,1,stroop_test,59.908112934130415,
,,,,110.0,2.0,9.0,,,,,,,,,,,,,blau,blue,b,1.0,b,1.0,1.290833699982613,,,,,,,,,,9.0,2.0,110.0,6.0,375.2841907999828,,,,,,,,,,,,,,,,,375.2696780000115,375.3675779000041,376.1690364999813,376.15349649998825,,,,,,,,,,,,,,,,,,,,,,,,,,,,,,,,,,,376.1541029000073,376.1690364999813,376.1690364999813,377.4728380999877,b,1.0,1.290833699982613,,,,,sub-197,1,stroop_test,59.908112934130415,
,,,,111.0,3.0,9.0,,,,,,,,,,,,,rot,red,r,1.0,r,1.0,0.7361382999806665,,,,,,,,,,9.0,3.0,111.0,0.0,377.4876292999834,,,,,,,,,,,,,,,,,377.4732241000165,378.6735604999704,379.4747668000055,379.4586947999778,,,,,,,,,,,,,,,,,,,,,,,,,,,,,,,,,,,379.46119269996416,379.4747668000055,379.4747668000055,380.2269023999688,r,1.0,0.7361382999806665,,,,,sub-197,1,stroop_test,59.908112934130415,
,,,,112.0,4.0,9.0,,,,,,,,,,,,,rot,yellow,g,0.0,g,1.0,0.6967344000004232,,,,,,,,,,9.0,4.0,112.0,3.0,380.24180939997314,,,,,,,,,,,,,,,,,380.227226899995,381.02637879998656,381.8273798999726,381.81270040001255,,,,,,,,,,,,,,,,,,,,,,,,,,,,,,,,,,,381.8131742000114,381.8273798999726,381.8273798999726,382.53137460001744,g,1.0,0.6967344000004232,,,,,sub-197,1,stroop_test,59.908112934130415,
,,,,113.0,5.0,9.0,,,,,,,,,,,,,gelb,red,r,0.0,b,0.0,0.5883307000040077,,,,,,,,,,9.0,5.0,113.0,8.0,382.5448403999908,,,,,,,,,,,,,,,,,382.5317340999609,382.6458245000104,383.44660209998256,383.43066839996027,,,,,,,,,,,,,,,,,,,,,,,,,,,,,,,,,,,383.4345465999795,383.44660209998256,383.44660209998256,384.0497366999625,b,0.0,0.5883307000040077,,,,,sub-197,1,stroop_test,59.908112934130415,
,,,,114.0,6.0,9.0,,,,,,,,,,,,,gelb,yellow,g,1.0,g,1.0,0.7034540999447927,,,,,,,,,,9.0,6.0,114.0,10.0,384.0643706999836,,,,,,,,,,,,,,,,,384.0500767999911,385.2505758999614,386.0514753999887,386.03572449996136,,,,,,,,,,,,,,,,,,,,,,,,,,,,,,,,,,,386.0362364000175,386.0514753999887,386.0514753999887,386.7694534999901,g,1.0,0.7034540999447927,,,,,sub-197,1,stroop_test,59.908112934130415,
,,,,115.0,7.0,9.0,,,,,,,,,,,,,gelb,blue,b,0.0,b,1.0,1.453198799979873,,,,,,,,,,9.0,7.0,115.0,9.0,386.7847869999823,,,,,,,,,,,,,,,,,386.7697667999892,387.1199596999795,387.920004500018,387.9055031000171,,,,,,,,,,,,,,,,,,,,,,,,,,,,,,,,,,,387.9060138000059,387.920004500018,387.920004500018,389.37487100000726,b,1.0,1.453198799979873,,,,,sub-197,1,stroop_test,59.908112934130415,
,,,,116.0,8.0,9.0,,,,,,,,,,,,,rot,blue,b,0.0,b,1.0,1.0632508000126109,,,,,,,,,,9.0,8.0,116.0,2.0,389.3895910999854,,,,,,,,,,,,,,,,,389.37519260001136,389.7403349999804,390.5404993999982,390.5252288999618,,,,,,,,,,,,,,,,,,,,,,,,,,,,,,,,,,,390.5276324999868,390.5404993999982,390.5404993999982,391.6114855000051,b,1.0,1.0632508000126109,,,,,sub-197,1,stroop_test,59.908112934130415,
,,,,117.0,9.0,9.0,,,,,,,,,,,,,gelb,yellow,g,1.0,g,1.0,0.9248412000015378,,,,,,,,,,9.0,9.0,117.0,11.0,391.625378799974,,,,,,,,,,,,,,,,,391.6119299000129,391.96067890001,392.7606479999959,392.7444996999693,,,,,,,,,,,,,,,,,,,,,,,,,,,,,,,,,,,392.7474734999705,392.7606479999959,392.7606479999959,393.69753409997793,g,1.0,0.9248412000015378,,,,,sub-197,1,stroop_test,59.908112934130415,
,,,,118.0,10.0,9.0,,,,,,,,,,,,,blau,yellow,g,0.0,g,1.0,1.688486200000625,,,,,,,,,,9.0,10.0,118.0,7.0,393.7130100000068,,,,,,,,,,,,,,,,,393.69786079996265,394.4976601999952,395.2990399000119,395.2829185000155,,,,,,,,,,,,,,,,,,,,,,,,,,,,,,,,,,,395.2851552999928,395.2990399000119,395.2990399000119,397.0027183999773,g,1.0,1.688486200000625,,,,,sub-197,1,stroop_test,59.908112934130415,
,,,,119.0,11.0,9.0,,,,,,,,,,,,,blau,blue,b,1.0,b,1.0,0.9813739000237548,,,,,,,,,,9.0,11.0,119.0,5.0,397.0174994000117,,,,,,,,,,,,,,,,,397.0031338999979,397.1018249999616,397.9029343000148,397.8873554000165,,,,,,,,,,,,,,,,,,,,,,,,,,,,,,,,,,,397.8878295000177,397.9029343000148,397.9029343000148,398.8886485999683,b,1.0,0.9813739000237548,,,,,sub-197,1,stroop_test,59.908112934130415,
,,,,,,,,,,,,,,,,,,,,,,,,,,,,,,,,,,,,,,,,,,,,,,,,,,,,,,,,,,,,,,,,,,,,,,,,,,,,,,,,,,,,,,,,,,,,,,,,,,,,,,398.8888088999665,398.90326779999305,403.8955836999812,sub-197,1,stroop_test,59.908112934130415,
