wordCTK,colorCTK,corrAnsCTK,congruentCTK,thisN,thisTrialN,thisRepN,keyResp_CTK.keys,keyResp_CTK.corr,keyResp_CTK.rt,keyResp_CTK.duration,wordPractice,colorPractice,corrAnsPractice,congruentPractice,respPractice.keys,respPractice.corr,respPractice.rt,respPractice.duration,word,color,corrAns,congruent,keyResp_test_run.keys,keyResp_test_run.corr,keyResp_test_run.rt,keyResp_test_run.duration,trials_CTK.thisRepN,trials_CTK.thisTrialN,trials_CTK.thisN,trials_CTK.thisIndex,trials_practice.thisRepN,trials_practice.thisTrialN,trials_practice.thisN,trials_practice.thisIndex,trials_test.thisRepN,trials_test.thisTrialN,trials_test.thisN,trials_test.thisIndex,thisRow.t,notes,instruction.started,instr_text.started,instr_image.started,instr_resp.started,instruction.stopped,instr_resp.keys,instr_resp.rt,instr_resp.duration,instr_color_to_key.started,instr_ctk.started,resp_ctk.started,instr_color_to_key.stopped,resp_ctk.keys,resp_ctk.rt,resp_ctk.duration,ITI.started,fixcross.started,fixcross.stopped,ITI.stopped,color_to_key_run.started,stimulus_CTK.started,keyResp_CTK.started,color_to_key_run.stopped,trials_CTK.keyResp_CTK.keys,trials_CTK.keyResp_CTK.corr,trials_CTK.keyResp_CTK.rt,trials_CTK.keyResp_CTK.duration,instr_practice.started,instr_practice_text.started,instr_practice_resp.started,instr_practice.stopped,instr_practice_resp.keys,instr_practice_resp.rt,instr_practice_resp.duration,practice_run.started,stimulus_practice.started,respPractice.started,practice_run.stopped,trials_practice.respPractice.keys,trials_practice.respPractice.corr,trials_practice.respPractice.rt,trials_practice.respPractice.duration,feedback.started,textFeedback.started,feedback.stopped,textFeedback.stopped,instr_test.started,instr_test_text.started,instr_test_resp.started,instr_test.stopped,instr_test_resp.keys,instr_test_resp.rt,instr_test_resp.duration,test_run.started,stimulus_test_run.started,keyResp_test_run.started,test_run.stopped,trials_test.keyResp_test_run.keys,trials_test.keyResp_test_run.corr,trials_test.keyResp_test_run.rt,trials_test.keyResp_test_run.duration,goodbye.started,textGoodbye.started,textGoodbye.stopped,goodbye.stopped,participant,session,expName,frameRate,Unnamed: 113
,,,,,,,,,,,,,,,,,,,,,,,,,,,,,,,,,,,,,,,,,0.0117227500013541,0.020669874997111,0.020669874997111,0.020669874997111,61.30914883301011,space,61.21600970800501,,,,,,,,,,,,,,,,,,,,,,,,,,,,,,,,,,,,,,,,,,,,,,,,,,,,,,,,,,,sub-220,1,stroop_test,120.04567740663474,
,,,,,,,,,,,,,,,,,,,,,,,,,,,,,,,,,,,,,,,,,,,,,,,,,61.30924241701723,61.35697020799853,61.35697020799853,70.89504958299221,space,9.535339417023351,,,,,,,,,,,,,,,,,,,,,,,,,,,,,,,,,,,,,,,,,,,,,,,,,,,,sub-220,1,stroop_test,120.04567740663474,
test,red,r,1.0,0.0,0.0,0.0,r,1.0,1.02586033398984,,,,,,,,,,,,,,,,,,0.0,0.0,0.0,0.0,,,,,,,,,70.94189033299335,,,,,,,,,,,,,,,,,70.91959475001204,72.09522879199358,72.89578345799237,72.88141770800576,72.88899083301658,72.89578345799237,72.89578345799237,73.92825979201007,r,1.0,1.02586033398984,,,,,,,,,,,,,,,,,,,,,,,,,,,,,,,,,,,,,,,,sub-220,1,stroop_test,120.04567740663474,
test,yellow,g,1.0,1.0,1.0,0.0,g,1.0,0.5438735419884324,,,,,,,,,,,,,,,,,,0.0,1.0,1.0,1.0,,,,,,,,,73.93870145801338,,,,,,,,,,,,,,,,,73.92877341699204,74.72564945800696,75.51840691699181,75.50985045800917,75.51066208299017,75.51840691699181,75.51840691699181,76.06626266700914,g,1.0,0.5438735419884324,,,,,,,,,,,,,,,,,,,,,,,,,,,,,,,,,,,,,,,,sub-220,1,stroop_test,120.04567740663474,
test,blue,b,1.0,2.0,2.0,0.0,b,1.0,0.5076806249853689,,,,,,,,,,,,,,,,,,0.0,2.0,2.0,2.0,,,,,,,,,76.07583658301155,,,,,,,,,,,,,,,,,76.06665287501528,76.86529779201373,77.65792120801052,77.6498137919989,77.65052312499029,77.65792120801052,77.65792120801052,78.1782258329913,b,1.0,0.5076806249853689,,,,,,,,,,,,,,,,,,,,,,,,,,,,,,,,,,,,,,,,sub-220,1,stroop_test,120.04567740663474,
test,red,r,1.0,3.0,0.0,1.0,r,1.0,0.4906220409902744,,,,,,,,,,,,,,,,,,1.0,0.0,3.0,0.0,,,,,,,,,78.1923073749931,,,,,,,,,,,,,,,,,78.17862904199865,78.52557591701043,79.31776716699824,79.30964958301047,79.31038662500214,79.31776716699824,79.31776716699824,79.81115104199853,r,1.0,0.4906220409902744,,,,,,,,,,,,,,,,,,,,,,,,,,,,,,,,,,,,,,,,sub-220,1,stroop_test,120.04567740663474,
test,yellow,g,1.0,4.0,1.0,1.0,g,1.0,0.677811000001384,,,,,,,,,,,,,,,,,,1.0,1.0,4.0,1.0,,,,,,,,,79.82087883300846,,,,,,,,,,,,,,,,,79.81158358301036,81.00886591701419,81.8010124170105,81.79295104200719,81.79362370801391,81.8010124170105,81.8010124170105,82.48365875001764,g,1.0,0.677811000001384,,,,,,,,,,,,,,,,,,,,,,,,,,,,,,,,,,,,,,,,sub-220,1,stroop_test,120.04567740663474,
test,blue,b,1.0,5.0,2.0,1.0,b,1.0,0.3805615839955862,,,,,,,,,,,,,,,,,,1.0,2.0,5.0,2.0,,,,,,,,,82.49389983300352,,,,,,,,,,,,,,,,,82.48405033300514,83.28290645801462,84.07421391701791,84.06621675001225,84.06690512501518,84.07421391701791,84.07421391701791,84.46087591699325,b,1.0,0.3805615839955862,,,,,,,,,,,,,,,,,,,,,,,,,,,,,,,,,,,,,,,,sub-220,1,stroop_test,120.04567740663474,
test,yellow,g,1.0,6.0,0.0,2.0,g,1.0,0.8598674169916194,,,,,,,,,,,,,,,,,,2.0,0.0,6.0,1.0,,,,,,,,,84.47572404201492,,,,,,,,,,,,,,,,,84.46126112499041,85.25905754198902,86.05114175000926,86.04301062499871,86.04370591699262,86.05114175000926,86.05114175000926,86.91692420799518,g,1.0,0.8598674169916194,,,,,,,,,,,,,,,,,,,,,,,,,,,,,,,,,,,,,,,,sub-220,1,stroop_test,120.04567740663474,
test,blue,b,1.0,7.0,1.0,2.0,b,1.0,0.8122715000063181,,,,,,,,,,,,,,,,,,2.0,1.0,7.0,2.0,,,,,,,,,86.94213966699317,,,,,,,,,,,,,,,,,86.91728749999311,87.26585587501177,88.06761658299365,88.05964875000063,88.06029179200414,88.06761658299365,88.06761658299365,88.88410475000273,b,1.0,0.8122715000063181,,,,,,,,,,,,,,,,,,,,,,,,,,,,,,,,,,,,,,,,sub-220,1,stroop_test,120.04567740663474,
test,red,r,1.0,8.0,2.0,2.0,r,1.0,0.6180681250116322,,,,,,,,,,,,,,,,,,2.0,2.0,8.0,0.0,,,,,,,,,88.89429600001313,,,,,,,,,,,,,,,,,88.88456883298932,89.68231224999181,90.48433450001176,90.4763987500046,90.4770534170093,90.48433450001176,90.48433450001176,91.11074616698896,r,1.0,0.6180681250116322,,,,,,,,,,,,,,,,,,,,,,,,,,,,,,,,,,,,,,,,sub-220,1,stroop_test,120.04567740663474,
test,blue,b,1.0,9.0,0.0,3.0,b,1.0,0.8496745830052532,,,,,,,,,,,,,,,,,,3.0,0.0,9.0,2.0,,,,,,,,,91.12039754199212,,,,,,,,,,,,,,,,,91.11113254199154,91.45910829200876,92.25185695799884,92.24318129199672,92.24382199998944,92.25185695799884,92.25185695799884,93.11123554199004,b,1.0,0.8496745830052532,,,,,,,,,,,,,,,,,,,,,,,,,,,,,,,,,,,,,,,,sub-220,1,stroop_test,120.04567740663474,
test,yellow,g,1.0,10.0,1.0,3.0,g,1.0,0.6247085830254946,,,,,,,,,,,,,,,,,,3.0,1.0,10.0,1.0,,,,,,,,,93.12110116699478,,,,,,,,,,,,,,,,,93.11163270799445,93.20913341699634,94.00199150000115,93.99348224999268,93.99429724999936,94.00199150000115,94.00199150000115,94.63299887499306,g,1.0,0.6247085830254946,,,,,,,,,,,,,,,,,,,,,,,,,,,,,,,,,,,,,,,,sub-220,1,stroop_test,120.04567740663474,
test,red,r,1.0,11.0,2.0,3.0,r,1.0,0.7641034160042182,,,,,,,,,,,,,,,,,,3.0,2.0,11.0,0.0,,,,,,,,,94.64227499999106,,,,,,,,,,,,,,,,,94.6333897500008,94.73283833300228,95.53405037499031,95.52632479200838,95.52701900000102,95.53405037499031,95.53405037499031,96.3010821249918,r,1.0,0.7641034160042182,,,,,,,,,,,,,,,,,,,,,,,,,,,,,,,,,,,,,,,,sub-220,1,stroop_test,120.04567740663474,
,,,,,,,,,,,,,,,,,,,,,,,,,,,,,,,,,,,,,,,,,,,,,,,,,,,,,,,,,,,,,,,,,,,,96.30128595800488,96.31387758301572,96.31387758301572,103.77853999999934,space,7.462011208990589,,,,,,,,,,,,,,,,,,,,,,,,,,,,,,,,,sub-220,1,stroop_test,120.04567740663474,
,,,,0.0,0.0,0.0,,,,,gelb,red,r,0.0,r,1.0,1.0052818749973085,,,,,,,,,,,,,,0.0,0.0,0.0,8.0,,,,,103.80223724999814,,,,,,,,,,,,,,,,,103.79343670801607,103.8758894999919,104.67312854199554,104.66001395799684,,,,,,,,,,,,,,,,104.6657718330098,104.67312854199554,104.67312854199554,105.68393920801464,r,1.0,1.0052818749973085,,105.69022741701338,105.700871500012,106.6929187499918,,,,,,,,,,,,,,,,,,,,,sub-220,1,stroop_test,120.04567740663474,
,,,,1.0,1.0,0.0,,,,,gelb,yellow,g,1.0,b,0.0,0.5717748329916503,,,,,,,,,,,,,,0.0,1.0,1.0,11.0,,,,,106.69895708299008,,,,,,,,,,,,,,,,,106.6934570829908,107.032090875,107.82538337499136,107.8157406669925,,,,,,,,,,,,,,,,107.8163934579934,107.82538337499136,107.82538337499136,108.40116450001368,b,0.0,0.5717748329916503,,108.40699158300411,108.41766395801096,109.40939345801598,,,,,,,,,,,,,,,,,,,,,sub-220,1,stroop_test,120.04567740663474,
,,,,2.0,2.0,0.0,,,,,gelb,blue,b,0.0,b,1.0,0.9760296659951564,,,,,,,,,,,,,,0.0,2.0,2.0,9.0,,,,,109.41530275001423,,,,,,,,,,,,,,,,,109.40984679199757,110.19907620799496,110.99156066699652,110.98354895800004,,,,,,,,,,,,,,,,110.98418683299678,110.99156066699652,110.99156066699652,111.97825279200332,b,1.0,0.9760296659951564,,111.98193966699182,111.9932114580006,112.97651162499096,112.98237137499382,,,,,,,,,,,,,,,,,,,,sub-220,1,stroop_test,120.04567740663474,
,,,,3.0,3.0,0.0,,,,,rot,red,r,1.0,r,1.0,0.5880203749984503,,,,,,,,,,,,,,0.0,3.0,3.0,0.0,,,,,112.98237137499382,,,,,,,,,,,,,,,,,112.97696870801155,113.77612283299096,114.57211220799944,114.5597137500008,,,,,,,,,,,,,,,,114.56473595800344,114.57211220799944,114.57211220799944,115.1726177080127,r,1.0,0.5880203749984503,,115.17321412501042,115.18288454200956,116.17615870799636,,,,,,,,,,,,,,,,,,,,,sub-220,1,stroop_test,120.04567740663474,
,,,,4.0,4.0,0.0,,,,,blau,red,r,0.0,r,1.0,0.8347292919934262,,,,,,,,,,,,,,0.0,4.0,4.0,4.0,,,,,116.18132754199904,,,,,,,,,,,,,,,,,116.17661612501252,117.36606287499308,118.16233783299684,118.15038379200269,,,,,,,,,,,,,,,,118.15531075000764,118.16233783299684,118.16233783299684,119.0010691670177,r,1.0,0.8347292919934262,,119.00178616700578,119.01418941700832,119.99847983301152,120.00945283300824,,,,,,,,,,,,,,,,,,,,sub-220,1,stroop_test,120.04567740663474,
,,,,5.0,5.0,0.0,,,,,rot,red,r,1.0,r,1.0,0.7592949169920757,,,,,,,,,,,,,,0.0,5.0,5.0,1.0,,,,,120.00945283300824,,,,,,,,,,,,,,,,,119.9989683330059,120.79925312500563,121.6090501669969,121.58268316701287,,,,,,,,,,,,,,,,121.58632312499684,121.6090501669969,121.6090501669969,122.37806308301516,r,1.0,0.7592949169920757,,122.3787032919936,122.38958424999146,123.3770240000158,123.38259620801546,,,,,,,,,,,,,,,,,,,,sub-220,1,stroop_test,120.04567740663474,
,,,,6.0,6.0,0.0,,,,,blau,blue,b,1.0,b,1.0,1.4387652089935727,,,,,,,,,,,,,,0.0,6.0,6.0,5.0,,,,,123.38259620801546,,,,,,,,,,,,,,,,,123.37753341699135,123.47619187500096,124.27118845799124,124.2603421669919,,,,,,,,,,,,,,,,124.2639881669893,124.27118845799124,124.27118845799124,125.71264283300845,b,1.0,1.4387652089935727,,125.71340979199158,125.72451445800834,126.7103452500014,126.7160217500059,,,,,,,,,,,,,,,,,,,,sub-220,1,stroop_test,120.04567740663474,
,,,,7.0,7.0,0.0,,,,,blau,blue,b,1.0,b,1.0,1.0147688750003,,,,,,,,,,,,,,0.0,7.0,7.0,6.0,,,,,126.7160217500059,,,,,,,,,,,,,,,,,126.71086237501004,127.9095400829974,128.70254595798906,128.69407879200298,,,,,,,,,,,,,,,,128.69481958300457,128.70254595798906,128.70254595798906,129.72845041699475,b,1.0,1.0147688750003,,129.72945000001346,129.7408220829966,130.72664558299584,130.73245116701582,,,,,,,,,,,,,,,,,,,,sub-220,1,stroop_test,120.04567740663474,
,,,,8.0,8.0,0.0,,,,,blau,yellow,g,0.0,g,1.0,0.8357121250010096,,,,,,,,,,,,,,0.0,8.0,8.0,7.0,,,,,130.73245116701582,,,,,,,,,,,,,,,,,130.72711204199004,131.52603579199058,132.31916874999297,132.31031229201471,,,,,,,,,,,,,,,,132.31096875001094,132.31916874999297,132.31916874999297,133.16183362499578,g,1.0,0.8357121250010096,,133.16250183299417,133.1734187080001,134.16027191700414,134.1662448749994,,,,,,,,,,,,,,,,,,,,sub-220,1,stroop_test,120.04567740663474,
,,,,9.0,9.0,0.0,,,,,rot,yellow,g,0.0,g,1.0,1.5635004589858,,,,,,,,,,,,,,0.0,9.0,9.0,3.0,,,,,134.1662448749994,,,,,,,,,,,,,,,,,134.16076920801424,135.35959500001627,136.15207124999142,136.14356058300473,,,,,,,,,,,,,,,,136.14688508299878,136.15207124999142,136.15207124999142,137.7184472079971,g,1.0,1.5635004589858,,137.71905137499562,137.7308034170128,138.71551441701013,138.72632099999464,,,,,,,,,,,,,,,,,,,,sub-220,1,stroop_test,120.04567740663474,
,,,,10.0,10.0,0.0,,,,,gelb,yellow,g,1.0,g,1.0,0.9272234999807552,,,,,,,,,,,,,,0.0,10.0,10.0,10.0,,,,,138.72632099999464,,,,,,,,,,,,,,,,,138.7159692500136,138.8161452920176,139.62175708299037,139.61043866700493,,,,,,,,,,,,,,,,139.6143888749939,139.62175708299037,139.62175708299037,140.5512622499955,g,1.0,0.9272234999807552,,140.55182662501466,140.5639021669922,141.54890170801082,141.55976220799494,,,,,,,,,,,,,,,,,,,,sub-220,1,stroop_test,120.04567740663474,
,,,,11.0,11.0,0.0,,,,,rot,blue,b,0.0,b,1.0,0.7050883749907371,,,,,,,,,,,,,,0.0,11.0,11.0,2.0,,,,,141.55976220799494,,,,,,,,,,,,,,,,,141.54935591699905,141.90015012500226,142.70500316700782,142.6936681669904,,,,,,,,,,,,,,,,142.6975001670071,142.70500316700782,142.70500316700782,143.41215162500157,b,1.0,0.7050883749907371,,143.4127292080084,143.42358783300733,144.4106027079979,144.41662229201756,,,,,,,,,,,,,,,,,,,,sub-220,1,stroop_test,120.04567740663474,
,,,,12.0,0.0,1.0,,,,,rot,red,r,1.0,r,1.0,0.6768802079895977,,,,,,,,,,,,,,1.0,0.0,12.0,0.0,,,,,144.41662229201756,,,,,,,,,,,,,,,,,144.41112012500523,145.20972766701016,146.00157237501116,145.99369816700346,,,,,,,,,,,,,,,,145.9943379170145,146.00157237501116,146.00157237501116,146.6832479579898,r,1.0,0.6768802079895977,,146.68381270801183,146.6946989170101,147.68346404199838,147.692830917018,,,,,,,,,,,,,,,,,,,,sub-220,1,stroop_test,120.04567740663474,
,,,,13.0,1.0,1.0,,,,,gelb,red,r,0.0,r,1.0,1.0834449169924485,,,,,,,,,,,,,,1.0,1.0,13.0,8.0,,,,,147.692830917018,,,,,,,,,,,,,,,,,147.68394933300442,148.88299300000654,149.67911437500152,149.66681112500373,,,,,,,,,,,,,,,,149.67060441701324,149.67911437500152,149.67911437500152,150.7669420829916,r,1.0,1.0834449169924485,,150.76752116699936,150.77857858300558,151.76577716699103,151.77659916700213,,,,,,,,,,,,,,,,,,,,sub-220,1,stroop_test,120.04567740663474,
,,,,14.0,2.0,1.0,,,,,blau,blue,b,1.0,b,1.0,0.7645324580080342,,,,,,,,,,,,,,1.0,2.0,14.0,6.0,,,,,151.77659916700213,,,,,,,,,,,,,,,,,151.7662450830103,152.96617879200494,153.7618998750113,153.750091666996,,,,,,,,,,,,,,,,153.75381670799106,153.7618998750113,153.7618998750113,154.52901649998967,b,1.0,0.7645324580080342,,154.5297348750173,154.54073179198895,155.5271447080013,155.53293120799935,,,,,,,,,,,,,,,,,,,,sub-220,1,stroop_test,120.04567740663474,
,,,,15.0,3.0,1.0,,,,,blau,yellow,g,0.0,g,1.0,0.850412875006441,,,,,,,,,,,,,,1.0,3.0,15.0,7.0,,,,,155.53293120799935,,,,,,,,,,,,,,,,,155.52758566700504,155.8765857499966,156.669138792,156.66060400000424,,,,,,,,,,,,,,,,156.66125970799476,156.669138792,156.669138792,157.52858904199093,g,1.0,0.850412875006441,,157.52930495800683,157.54036099999212,158.52722466699197,158.53315433301032,,,,,,,,,,,,,,,,,,,,sub-220,1,stroop_test,120.04567740663474,
,,,,16.0,4.0,1.0,,,,,gelb,yellow,g,1.0,g,1.0,0.8043994580220897,,,,,,,,,,,,,,1.0,4.0,16.0,10.0,,,,,158.53315433301032,,,,,,,,,,,,,,,,,158.52768225001637,159.3265568329953,160.12269391701557,160.11047329200665,,,,,,,,,,,,,,,,160.1153570000024,160.12269391701557,160.12269391701557,160.9402216669987,g,1.0,0.8043994580220897,,160.94080254199798,160.9505010000139,161.9435833329917,,,,,,,,,,,,,,,,,,,,,sub-220,1,stroop_test,120.04567740663474,
,,,,17.0,5.0,1.0,,,,,gelb,blue,b,0.0,b,1.0,0.818715625006007,,,,,,,,,,,,,,1.0,5.0,17.0,9.0,,,,,161.94879062499967,,,,,,,,,,,,,,,,,161.94404216701514,163.13308637498994,163.9349795000162,163.92727208300494,,,,,,,,,,,,,,,,163.9279283329961,163.9349795000162,163.9349795000162,164.76175670800149,b,1.0,0.818715625006007,,164.76271854201332,164.7741359579959,165.76063100001193,165.76659758301685,,,,,,,,,,,,,,,,,,,,sub-220,1,stroop_test,120.04567740663474,
,,,,18.0,6.0,1.0,,,,,rot,blue,b,0.0,b,1.0,0.9767523329937832,,,,,,,,,,,,,,1.0,6.0,18.0,2.0,,,,,165.76659758301685,,,,,,,,,,,,,,,,,165.7610863329901,166.96001066701135,167.75540358299622,167.7439575830067,,,,,,,,,,,,,,,,167.7480212500086,167.75540358299622,167.75540358299622,168.73511008301284,b,1.0,0.9767523329937832,,168.73568629199872,168.7480146670132,169.73263141699135,169.74346695799613,,,,,,,,,,,,,,,,,,,,sub-220,1,stroop_test,120.04567740663474,
,,,,19.0,7.0,1.0,,,,,rot,red,r,1.0,r,1.0,0.7763711670122575,,,,,,,,,,,,,,1.0,7.0,19.0,1.0,,,,,169.74346695799613,,,,,,,,,,,,,,,,,169.73310695801047,170.93338695800048,171.7350001670129,171.7275117500103,,,,,,,,,,,,,,,,171.72814166700118,171.7350001670129,171.7350001670129,172.5181858750002,r,1.0,0.7763711670122575,,172.5188649999909,172.5314122500131,173.51785883301636,173.5264053750143,,,,,,,,,,,,,,,,,,,,sub-220,1,stroop_test,120.04567740663474,
,,,,20.0,8.0,1.0,,,,,blau,blue,b,1.0,b,1.0,0.882267667009728,,,,,,,,,,,,,,1.0,8.0,20.0,5.0,,,,,173.5264053750143,,,,,,,,,,,,,,,,,173.5184995830059,174.71563470800174,175.51230320800096,175.49939720801194,,,,,,,,,,,,,,,,175.5042564579926,175.51230320800096,175.51230320800096,176.40170616700198,b,1.0,0.882267667009728,,176.40227883300395,176.41454041699762,177.4001770830073,177.40983291700832,,,,,,,,,,,,,,,,,,,,sub-220,1,stroop_test,120.04567740663474,
,,,,21.0,9.0,1.0,,,,,blau,red,r,0.0,r,1.0,0.954738250002265,,,,,,,,,,,,,,1.0,9.0,21.0,4.0,,,,,177.40983291700832,,,,,,,,,,,,,,,,,177.4006549580081,178.6001641670009,179.40235183300683,179.39433429201017,,,,,,,,,,,,,,,,179.39500537500135,179.40235183300683,179.40235183300683,180.36235816701085,r,1.0,0.954738250002265,,180.3630655420129,180.3737058750121,181.3608154579997,181.36658604201511,,,,,,,,,,,,,,,,,,,,sub-220,1,stroop_test,120.04567740663474,
,,,,22.0,10.0,1.0,,,,,gelb,yellow,g,1.0,g,1.0,0.8655450000078417,,,,,,,,,,,,,,1.0,10.0,22.0,11.0,,,,,181.36658604201511,,,,,,,,,,,,,,,,,181.36127987501092,181.7101916669926,182.50619712501063,182.49440512500587,,,,,,,,,,,,,,,,182.4989507080172,182.50619712501063,182.50619712501063,183.37898395801312,g,1.0,0.8655450000078417,,183.3796722080151,183.3905827080016,184.37740349999515,184.38289999999688,,,,,,,,,,,,,,,,,,,,sub-220,1,stroop_test,120.04567740663474,
,,,,23.0,11.0,1.0,,,,,rot,yellow,g,0.0,g,1.0,1.0501882919925265,,,,,,,,,,,,,,1.0,11.0,23.0,3.0,,,,,184.38289999999688,,,,,,,,,,,,,,,,,184.3778614999901,184.47697200000405,185.27184533301624,185.26084804200215,,,,,,,,,,,,,,,,185.2642952500028,185.27184533301624,185.27184533301624,186.3292450000008,g,1.0,1.0501882919925265,,186.3298607500037,186.34087162499785,187.32746170801693,187.3344485420093,,,,,,,,,,,,,,,,,,,,sub-220,1,stroop_test,120.04567740663474,
,,,,,,,,,,,,,,,,,,,,,,,,,,,,,,,,,,,,,,,,,,,,,,,,,,,,,,,,,,,,,,,,,,,,,,,,,,,,,,,,,,,,,,,187.32764754199889,187.3344485420093,187.3344485420093,194.78028029200505,space,7.443242874986026,,,,,,,,,,,,,,sub-220,1,stroop_test,120.04567740663474,
,,,,0.0,0.0,0.0,,,,,,,,,,,,,blau,blue,b,1.0,b,1.0,0.7053125840029679,,,,,,,,,,0.0,0.0,0.0,5.0,194.8045658330084,,,,,,,,,,,,,,,,,194.79522624998933,195.57732029201,196.37234291699133,196.36095533301705,,,,,,,,,,,,,,,,,,,,,,,,,,,,,,,,,,,196.36512104200665,196.37234291699133,196.37234291699133,197.0801956669893,b,1.0,0.7053125840029679,,,,,,sub-220,1,stroop_test,120.04567740663474,
,,,,1.0,1.0,0.0,,,,,,,,,,,,,gelb,yellow,g,1.0,g,1.0,0.7533202500198968,,,,,,,,,,0.0,1.0,1.0,11.0,197.0902417920006,,,,,,,,,,,,,,,,,197.0807990420144,197.8772844999912,198.6738476669998,198.66131195801427,,,,,,,,,,,,,,,,,,,,,,,,,,,,,,,,,,,198.666172792,198.6738476669998,198.6738476669998,199.4297807500116,g,1.0,0.7533202500198968,,,,,,sub-220,1,stroop_test,120.04567740663474,
,,,,2.0,2.0,0.0,,,,,,,,,,,,,rot,blue,b,0.0,b,1.0,0.8569411660137121,,,,,,,,,,0.0,2.0,2.0,2.0,199.43973933300003,,,,,,,,,,,,,,,,,199.4303957500088,199.52681712500635,200.32297758301135,200.3111287500069,,,,,,,,,,,,,,,,,,,,,,,,,,,,,,,,,,,200.31527720799204,200.32297758301135,200.32297758301135,201.18518862500787,b,1.0,0.8569411660137121,,,,,,sub-220,1,stroop_test,120.04567740663474,
,,,,3.0,3.0,0.0,,,,,,,,,,,,,gelb,red,r,0.0,r,1.0,0.4189519170031417,,,,,,,,,,0.0,3.0,3.0,8.0,201.1950643750024,,,,,,,,,,,,,,,,,201.1856184579956,201.98382316701463,202.77919641701737,202.76791558301196,,,,,,,,,,,,,,,,,,,,,,,,,,,,,,,,,,,202.7716800420021,202.77919641701737,202.77919641701737,203.201893541991,r,1.0,0.4189519170031417,,,,,,sub-220,1,stroop_test,120.04567740663474,
,,,,4.0,4.0,0.0,,,,,,,,,,,,,rot,yellow,g,0.0,g,1.0,0.6989485840022098,,,,,,,,,,0.0,4.0,4.0,3.0,203.2117573750147,,,,,,,,,,,,,,,,,203.2023289999925,204.40054375000184,205.1965788330126,205.18446112499805,,,,,,,,,,,,,,,,,,,,,,,,,,,,,,,,,,,205.18905929199536,205.1965788330126,205.1965788330126,205.90226045800955,g,1.0,0.6989485840022098,,,,,,sub-220,1,stroop_test,120.04567740663474,
,,,,5.0,5.0,0.0,,,,,,,,,,,,,blau,blue,b,1.0,b,1.0,0.7560672920080833,,,,,,,,,,0.0,5.0,5.0,6.0,205.9120837500086,,,,,,,,,,,,,,,,,205.90268879200448,207.10059837499284,207.90598266699817,207.89445712501765,,,,,,,,,,,,,,,,,,,,,,,,,,,,,,,,,,,207.89840566701605,207.90598266699817,207.90598266699817,208.6680449169944,b,1.0,0.7560672920080833,,,,,,sub-220,1,stroop_test,120.04567740663474,
,,,,6.0,6.0,0.0,,,,,,,,,,,,,blau,yellow,g,0.0,g,1.0,0.9514687919872812,,,,,,,,,,0.0,6.0,6.0,7.0,208.69360058300663,,,,,,,,,,,,,,,,,208.6684797079943,208.7673415830068,209.5600829170144,209.5505617079907,,,,,,,,,,,,,,,,,,,,,,,,,,,,,,,,,,,209.55123691700285,209.5600829170144,209.5600829170144,210.51777829200728,g,1.0,0.9514687919872812,,,,,,sub-220,1,stroop_test,120.04567740663474,
,,,,7.0,7.0,0.0,,,,,,,,,,,,,gelb,yellow,g,1.0,g,1.0,0.631400999991456,,,,,,,,,,0.0,7.0,7.0,10.0,210.527303083014,,,,,,,,,,,,,,,,,210.5182075829944,210.8671575420012,211.66248745800112,211.6508601669921,,,,,,,,,,,,,,,,,,,,,,,,,,,,,,,,,,,211.6552126250172,211.66248745800112,211.66248745800112,212.2965436250088,g,1.0,0.631400999991456,,,,,,sub-220,1,stroop_test,120.04567740663474,
,,,,8.0,8.0,0.0,,,,,,,,,,,,,rot,red,r,1.0,r,1.0,0.55106208298821,,,,,,,,,,0.0,8.0,8.0,1.0,212.30678854201687,,,,,,,,,,,,,,,,,212.2971503330045,213.49393804199644,214.28908387501724,214.27772725000975,,,,,,,,,,,,,,,,,,,,,,,,,,,,,,,,,,,214.28157195801032,214.28908387501724,214.28908387501724,214.8453240419913,r,1.0,0.55106208298821,,,,,,sub-220,1,stroop_test,120.04567740663474,
,,,,9.0,9.0,0.0,,,,,,,,,,,,,rot,red,r,1.0,r,1.0,0.5807887089904398,,,,,,,,,,0.0,9.0,9.0,0.0,214.8550661249901,,,,,,,,,,,,,,,,,214.84577370801708,216.0439502079971,216.83562495801016,216.82777308300135,,,,,,,,,,,,,,,,,,,,,,,,,,,,,,,,,,,216.82845495801303,216.83562495801016,216.83562495801016,217.4189750830119,r,1.0,0.5807887089904398,,,,,,sub-220,1,stroop_test,120.04567740663474,
,,,,10.0,10.0,0.0,,,,,,,,,,,,,blau,red,r,0.0,r,1.0,0.6723790839896537,,,,,,,,,,0.0,10.0,10.0,4.0,217.42939362500329,,,,,,,,,,,,,,,,,217.4195182500116,218.61719345799065,219.413136749994,219.40131200000175,,,,,,,,,,,,,,,,,,,,,,,,,,,,,,,,,,,219.405425917008,219.413136749994,219.413136749994,220.0957676249964,r,1.0,0.6723790839896537,,,,,,sub-220,1,stroop_test,120.04567740663474,
,,,,11.0,11.0,0.0,,,,,,,,,,,,,gelb,blue,b,0.0,b,1.0,1.0620040000067092,,,,,,,,,,0.0,11.0,11.0,9.0,220.105701374996,,,,,,,,,,,,,,,,,220.0962163330114,221.29400279201215,222.08959737501573,222.0780840420048,,,,,,,,,,,,,,,,,,,,,,,,,,,,,,,,,,,222.08218975001364,222.08959737501573,222.08959737501573,223.16304520799892,b,1.0,1.0620040000067092,,,,,,sub-220,1,stroop_test,120.04567740663474,
,,,,12.0,0.0,1.0,,,,,,,,,,,,,blau,yellow,g,0.0,g,1.0,0.7885647090151906,,,,,,,,,,1.0,0.0,12.0,7.0,223.17364670799,,,,,,,,,,,,,,,,,223.16380100001695,223.96072191701387,224.75623791699763,224.7447565420007,,,,,,,,,,,,,,,,,,,,,,,,,,,,,,,,,,,224.74903083301612,224.75623791699763,224.75623791699763,225.55772333301135,g,1.0,0.7885647090151906,,,,,,sub-220,1,stroop_test,120.04567740663474,
,,,,13.0,1.0,1.0,,,,,,,,,,,,,blau,red,r,0.0,r,1.0,0.7597795829933602,,,,,,,,,,1.0,1.0,13.0,4.0,225.56606000001196,,,,,,,,,,,,,,,,,225.5581592080125,226.35059179199743,227.15282700001265,227.14467245800188,,,,,,,,,,,,,,,,,,,,,,,,,,,,,,,,,,,227.1453443749924,227.15282700001265,227.15282700001265,227.91861383299693,r,1.0,0.7597795829933602,,,,,,sub-220,1,stroop_test,120.04567740663474,
,,,,14.0,2.0,1.0,,,,,,,,,,,,,gelb,yellow,g,1.0,g,1.0,2.0571673750237096,,,,,,,,,,1.0,2.0,14.0,11.0,227.9289290829911,,,,,,,,,,,,,,,,,227.91903562500372,228.7176327079942,229.5222970000177,229.51135312500992,,,,,,,,,,,,,,,,,,,,,,,,,,,,,,,,,,,229.51491462500417,229.5222970000177,229.5222970000177,231.58534070799945,g,1.0,2.0571673750237096,,,,,,sub-220,1,stroop_test,120.04567740663474,
,,,,15.0,3.0,1.0,,,,,,,,,,,,,gelb,yellow,g,1.0,g,1.0,0.7377956669952255,,,,,,,,,,1.0,3.0,15.0,10.0,231.59588341700143,,,,,,,,,,,,,,,,,231.58577495801728,232.3841578749998,233.18591045800716,233.17796150001232,,,,,,,,,,,,,,,,,,,,,,,,,,,,,,,,,,,233.17862045799848,233.18591045800716,233.18591045800716,233.92949679199955,g,1.0,0.7377956669952255,,,,,,sub-220,1,stroop_test,120.04567740663474,
,,,,16.0,4.0,1.0,,,,,,,,,,,,,rot,red,r,1.0,r,1.0,0.5737393339804839,,,,,,,,,,1.0,4.0,16.0,1.0,233.93928545800736,,,,,,,,,,,,,,,,,233.92994183299012,234.2775197919982,235.07328145799693,235.0613328329928,,,,,,,,,,,,,,,,,,,,,,,,,,,,,,,,,,,235.06576716699053,235.07328145799693,235.07328145799693,235.6531074999948,r,1.0,0.5737393339804839,,,,,,sub-220,1,stroop_test,120.04567740663474,
,,,,17.0,5.0,1.0,,,,,,,,,,,,,gelb,blue,b,0.0,b,1.0,0.3832354170153849,,,,,,,,,,1.0,5.0,17.0,9.0,235.66316079199896,,,,,,,,,,,,,,,,,235.6535498329904,235.75019462499768,236.54409300000407,236.5333424170094,,,,,,,,,,,,,,,,,,,,,,,,,,,,,,,,,,,236.53716249999707,236.54409300000407,236.54409300000407,236.92985120799855,b,1.0,0.3832354170153849,,,,,,sub-220,1,stroop_test,120.04567740663474,
,,,,18.0,6.0,1.0,,,,,,,,,,,,,rot,red,r,1.0,r,1.0,0.5056162079854403,,,,,,,,,,1.0,6.0,18.0,0.0,236.93985491700005,,,,,,,,,,,,,,,,,236.9304234579904,237.72768787501263,238.5224607080163,238.51153891699505,,,,,,,,,,,,,,,,,,,,,,,,,,,,,,,,,,,238.5150132080016,238.5224607080163,238.5224607080163,239.04003649999504,r,1.0,0.5056162079854403,,,,,,sub-220,1,stroop_test,120.04567740663474,
,,,,19.0,7.0,1.0,,,,,,,,,,,,,blau,blue,b,1.0,b,1.0,0.648370957991574,,,,,,,,,,1.0,7.0,19.0,5.0,239.04816854200908,,,,,,,,,,,,,,,,,239.04048133300967,239.83251070801637,240.62950412501232,240.61739683299675,,,,,,,,,,,,,,,,,,,,,,,,,,,,,,,,,,,240.62203891700483,240.62950412501232,240.62950412501232,241.28048708301503,b,1.0,0.648370957991574,,,,,,sub-220,1,stroop_test,120.04567740663474,
,,,,20.0,8.0,1.0,,,,,,,,,,,,,rot,blue,b,0.0,b,1.0,0.6189368329942226,,,,,,,,,,1.0,8.0,20.0,2.0,241.2904348750017,,,,,,,,,,,,,,,,,241.2810720000125,241.62761024999784,242.422946583014,242.41155187500408,,,,,,,,,,,,,,,,,,,,,,,,,,,,,,,,,,,242.41541279200464,242.422946583014,242.422946583014,243.0462882500142,b,1.0,0.6189368329942226,,,,,,sub-220,1,stroop_test,120.04567740663474,
,,,,21.0,9.0,1.0,,,,,,,,,,,,,blau,blue,b,1.0,b,1.0,0.439357666997239,,,,,,,,,,1.0,9.0,21.0,6.0,243.05639862499083,,,,,,,,,,,,,,,,,243.04684833300416,243.39430308301235,244.1890642500075,244.17818087499472,,,,,,,,,,,,,,,,,,,,,,,,,,,,,,,,,,,244.1818172080093,244.1890642500075,244.1890642500075,244.6336959580076,b,1.0,0.439357666997239,,,,,,sub-220,1,stroop_test,120.04567740663474,
,,,,22.0,10.0,1.0,,,,,,,,,,,,,gelb,red,r,0.0,r,1.0,0.6501837089890614,,,,,,,,,,1.0,10.0,22.0,8.0,244.64321425001253,,,,,,,,,,,,,,,,,244.6341325000103,245.4345110830036,246.23906829199404,246.22832850000125,,,,,,,,,,,,,,,,,,,,,,,,,,,,,,,,,,,246.23190154199256,246.23906829199404,246.23906829199404,246.89653045800517,r,1.0,0.6501837089890614,,,,,,sub-220,1,stroop_test,120.04567740663474,
,,,,23.0,11.0,1.0,,,,,,,,,,,,,rot,yellow,g,0.0,g,1.0,0.6206794590107165,,,,,,,,,,1.0,11.0,23.0,3.0,246.90638383300396,,,,,,,,,,,,,,,,,246.89697637499197,247.2444560000149,248.0407699579955,248.02839108300395,,,,,,,,,,,,,,,,,,,,,,,,,,,,,,,,,,,248.0329867080145,248.0407699579955,248.0407699579955,248.66392012499276,g,1.0,0.6206794590107165,,,,,,sub-220,1,stroop_test,120.04567740663474,
,,,,24.0,0.0,2.0,,,,,,,,,,,,,blau,red,r,0.0,r,1.0,0.946761041006539,,,,,,,,,,2.0,0.0,24.0,4.0,248.67397574998904,,,,,,,,,,,,,,,,,248.66447183300625,249.8611916670052,250.65614829200783,250.6449920829909,,,,,,,,,,,,,,,,,,,,,,,,,,,,,,,,,,,250.6488183749898,250.65614829200783,250.65614829200783,251.6129682500032,r,1.0,0.946761041006539,,,,,,sub-220,1,stroop_test,120.04567740663474,
,,,,25.0,1.0,2.0,,,,,,,,,,,,,rot,red,r,1.0,r,1.0,0.6138810839911457,,,,,,,,,,2.0,1.0,25.0,0.0,251.62285083299503,,,,,,,,,,,,,,,,,251.6135182500002,251.7108707500156,252.50605341698972,252.49498524999944,,,,,,,,,,,,,,,,,,,,,,,,,,,,,,,,,,,252.49864666699432,252.50605341698972,252.50605341698972,253.12976308300856,r,1.0,0.6138810839911457,,,,,,sub-220,1,stroop_test,120.04567740663474,
,,,,26.0,2.0,2.0,,,,,,,,,,,,,rot,red,r,1.0,r,1.0,0.4264157089928631,,,,,,,,,,2.0,2.0,26.0,1.0,253.1397055000125,,,,,,,,,,,,,,,,,253.13031604199205,253.2274803330074,254.01927087499644,254.0113129169913,,,,,,,,,,,,,,,,,,,,,,,,,,,,,,,,,,,254.01199733300015,254.01927087499644,254.01927087499644,254.4578837080044,r,1.0,0.4264157089928631,,,,,,sub-220,1,stroop_test,120.04567740663474,
,,,,27.0,3.0,2.0,,,,,,,,,,,,,blau,blue,b,1.0,b,1.0,0.6465537080075592,,,,,,,,,,2.0,3.0,27.0,6.0,254.46658179201768,,,,,,,,,,,,,,,,,254.458328083012,255.2513776250125,256.0556469169969,256.04489783299505,,,,,,,,,,,,,,,,,,,,,,,,,,,,,,,,,,,256.0483261249901,256.0556469169969,256.0556469169969,256.7132265419932,b,1.0,0.6465537080075592,,,,,,sub-220,1,stroop_test,120.04567740663474,
,,,,28.0,4.0,2.0,,,,,,,,,,,,,gelb,yellow,g,1.0,r,0.0,0.6567254160181619,,,,,,,,,,2.0,4.0,28.0,11.0,256.7230963330076,,,,,,,,,,,,,,,,,256.7136809999938,257.51134208301664,258.3058121670037,258.2950480419968,,,,,,,,,,,,,,,,,,,,,,,,,,,,,,,,,,,258.29864300001645,258.3058121670037,258.3058121670037,258.9689422920055,r,0.0,0.6567254160181619,,,,,,sub-220,1,stroop_test,120.04567740663474,
,,,,29.0,5.0,2.0,,,,,,,,,,,,,gelb,red,r,0.0,r,1.0,2.012516249989858,,,,,,,,,,2.0,5.0,29.0,8.0,258.9942319999973,,,,,,,,,,,,,,,,,258.9693720829964,259.0669835000008,259.86053912501666,259.85058699999354,,,,,,,,,,,,,,,,,,,,,,,,,,,,,,,,,,,259.851288417005,259.86053912501666,259.86053912501666,261.879754708003,r,1.0,2.012516249989858,,,,,,sub-220,1,stroop_test,120.04567740663474,
,,,,30.0,6.0,2.0,,,,,,,,,,,,,rot,yellow,g,0.0,g,1.0,0.93231362500228,,,,,,,,,,2.0,6.0,30.0,3.0,261.889708667004,,,,,,,,,,,,,,,,,261.88019825000083,262.22784966698964,263.0227447919897,263.01176220801426,,,,,,,,,,,,,,,,,,,,,,,,,,,,,,,,,,,263.01545487501426,263.0227447919897,263.0227447919897,263.9631322080095,g,1.0,0.93231362500228,,,,,,sub-220,1,stroop_test,120.04567740663474,
,,,,31.0,7.0,2.0,,,,,,,,,,,,,blau,yellow,g,0.0,g,1.0,0.4472143329912796,,,,,,,,,,2.0,7.0,31.0,7.0,263.97307737500523,,,,,,,,,,,,,,,,,263.9635989170056,264.76121366699226,265.5564000830054,265.54504658299265,,,,,,,,,,,,,,,,,,,,,,,,,,,,,,,,,,,265.5492603330058,265.5564000830054,265.5564000830054,266.01309787499486,g,1.0,0.4472143329912796,,,,,,sub-220,1,stroop_test,120.04567740663474,
,,,,32.0,8.0,2.0,,,,,,,,,,,,,blau,blue,b,1.0,b,1.0,1.021344750013668,,,,,,,,,,2.0,8.0,32.0,5.0,266.02317208299064,,,,,,,,,,,,,,,,,266.01354016701225,266.11094400001457,266.9032810420031,266.8951207920036,,,,,,,,,,,,,,,,,,,,,,,,,,,,,,,,,,,266.89575266701286,266.9032810420031,266.9032810420031,267.93065575000946,b,1.0,1.021344750013668,,,,,,sub-220,1,stroop_test,120.04567740663474,
,,,,33.0,9.0,2.0,,,,,,,,,,,,,rot,blue,b,0.0,b,1.0,2.604682374978438,,,,,,,,,,2.0,9.0,33.0,2.0,267.94088616699446,,,,,,,,,,,,,,,,,267.93122137500905,268.0275553750107,268.8228451250179,268.81170200000633,,,,,,,,,,,,,,,,,,,,,,,,,,,,,,,,,,,268.8154930000019,268.8228451250179,268.8228451250179,271.4301155830035,b,1.0,2.604682374978438,,,,,,sub-220,1,stroop_test,120.04567740663474,
,,,,34.0,10.0,2.0,,,,,,,,,,,,,gelb,yellow,g,1.0,g,1.0,1.420286958978977,,,,,,,,,,2.0,10.0,34.0,10.0,271.4398865000112,,,,,,,,,,,,,,,,,271.4305916670128,272.2280007080117,273.0239699170052,273.0121468750003,,,,,,,,,,,,,,,,,,,,,,,,,,,,,,,,,,,273.0164557500102,273.0239699170052,273.0239699170052,274.44676220801193,g,1.0,1.420286958978977,,,,,,sub-220,1,stroop_test,120.04567740663474,
,,,,35.0,11.0,2.0,,,,,,,,,,,,,gelb,blue,b,0.0,b,1.0,0.7331263340020087,,,,,,,,,,2.0,11.0,35.0,9.0,274.45699166701525,,,,,,,,,,,,,,,,,274.4473162080103,275.2447193750122,276.03655445799814,276.0285898750008,,,,,,,,,,,,,,,,,,,,,,,,,,,,,,,,,,,276.0292486250109,276.03655445799814,276.03655445799814,276.7800732080068,b,1.0,0.7331263340020087,,,,,,sub-220,1,stroop_test,120.04567740663474,
,,,,36.0,0.0,3.0,,,,,,,,,,,,,rot,yellow,g,0.0,g,1.0,0.9605683330155445,,,,,,,,,,3.0,0.0,36.0,3.0,276.78979758301284,,,,,,,,,,,,,,,,,276.7805094580108,277.57801554200705,278.3720517499896,278.36185762501555,,,,,,,,,,,,,,,,,,,,,,,,,,,,,,,,,,,278.3652684999979,278.3720517499896,278.3720517499896,279.33668079201016,g,1.0,0.9605683330155445,,,,,,sub-220,1,stroop_test,120.04567740663474,
,,,,37.0,1.0,3.0,,,,,,,,,,,,,blau,blue,b,1.0,b,1.0,0.9815281250048428,,,,,,,,,,3.0,1.0,37.0,5.0,279.3466487500118,,,,,,,,,,,,,,,,,279.33712124999147,279.433639750001,280.2442675830098,280.2177814579918,,,,,,,,,,,,,,,,,,,,,,,,,,,,,,,,,,,280.2216359580052,280.2442675830098,280.2442675830098,281.2299680419965,b,1.0,0.9815281250048428,,,,,,sub-220,1,stroop_test,120.04567740663474,
,,,,38.0,2.0,3.0,,,,,,,,,,,,,rot,red,r,1.0,r,1.0,0.8210377500217874,,,,,,,,,,3.0,2.0,38.0,1.0,281.23944512501475,,,,,,,,,,,,,,,,,281.230410417018,282.0281282920041,282.82336754200514,282.81217145800474,,,,,,,,,,,,,,,,,,,,,,,,,,,,,,,,,,,282.81596791700576,282.82336754200514,282.82336754200514,283.64695125000435,r,1.0,0.8210377500217874,,,,,,sub-220,1,stroop_test,120.04567740663474,
,,,,39.0,3.0,3.0,,,,,,,,,,,,,gelb,blue,b,0.0,b,1.0,0.9938381249958184,,,,,,,,,,3.0,3.0,39.0,9.0,283.6568260829954,,,,,,,,,,,,,,,,,283.6474207499996,284.84477483300725,285.6407672080095,285.6287983749935,,,,,,,,,,,,,,,,,,,,,,,,,,,,,,,,,,,285.63340900000185,285.6407672080095,285.6407672080095,286.63672587499605,b,1.0,0.9938381249958184,,,,,,sub-220,1,stroop_test,120.04567740663474,
,,,,40.0,4.0,3.0,,,,,,,,,,,,,gelb,red,r,0.0,r,1.0,0.9257540830003564,,,,,,,,,,3.0,4.0,40.0,8.0,286.6469497079961,,,,,,,,,,,,,,,,,286.6371668750071,287.8343140420038,288.6367064579972,288.6287284580176,,,,,,,,,,,,,,,,,,,,,,,,,,,,,,,,,,,288.6294065419934,288.6367064579972,288.6367064579972,289.56908070799545,r,1.0,0.9257540830003564,,,,,,sub-220,1,stroop_test,120.04567740663474,
,,,,41.0,5.0,3.0,,,,,,,,,,,,,gelb,yellow,g,1.0,g,1.0,1.3320626660133712,,,,,,,,,,3.0,5.0,41.0,10.0,289.594518583006,,,,,,,,,,,,,,,,,289.569500542013,290.7678190830047,291.5706415830064,291.5623586669972,,,,,,,,,,,,,,,,,,,,,,,,,,,,,,,,,,,291.5630562079896,291.5706415830064,291.5706415830064,292.91369229200063,g,1.0,1.3320626660133712,,,,,,sub-220,1,stroop_test,120.04567740663474,
,,,,42.0,6.0,3.0,,,,,,,,,,,,,gelb,yellow,g,1.0,g,1.0,0.6360231669968925,,,,,,,,,,3.0,6.0,42.0,11.0,292.923794708011,,,,,,,,,,,,,,,,,292.9142654580064,293.7115878330078,294.5036212920095,294.495517125004,,,,,,,,,,,,,,,,,,,,,,,,,,,,,,,,,,,294.49618554199697,294.5036212920095,294.5036212920095,295.1467087079945,g,1.0,0.6360231669968925,,,,,,sub-220,1,stroop_test,120.04567740663474,
,,,,43.0,7.0,3.0,,,,,,,,,,,,,rot,red,r,1.0,r,1.0,0.9634841670049354,,,,,,,,,,3.0,7.0,43.0,0.0,295.15634858299745,,,,,,,,,,,,,,,,,295.14715783300926,295.2446625000157,296.0402110000141,296.02893416699953,,,,,,,,,,,,,,,,,,,,,,,,,,,,,,,,,,,296.0328368750052,296.0402110000141,296.0402110000141,297.0135982919892,r,1.0,0.9634841670049354,,,,,,sub-220,1,stroop_test,120.04567740663474,
,,,,44.0,8.0,3.0,,,,,,,,,,,,,blau,yellow,g,0.0,g,1.0,1.4713085829862391,,,,,,,,,,3.0,8.0,44.0,7.0,297.023633542005,,,,,,,,,,,,,,,,,297.0140783750103,297.1110941669904,297.9073844169907,297.8955279579968,,,,,,,,,,,,,,,,,,,,,,,,,,,,,,,,,,,297.899933083012,297.9073844169907,297.9073844169907,299.381172333,g,1.0,1.4713085829862391,,,,,,sub-220,1,stroop_test,120.04567740663474,
,,,,45.0,9.0,3.0,,,,,,,,,,,,,rot,blue,b,0.0,b,1.0,2.255236124998192,,,,,,,,,,3.0,9.0,45.0,2.0,299.39133295801,,,,,,,,,,,,,,,,,299.38167641698965,300.17835429200204,300.973574292002,300.96227862499654,,,,,,,,,,,,,,,,,,,,,,,,,,,,,,,,,,,300.96617354199407,300.973574292002,300.973574292002,303.2313805829908,b,1.0,2.255236124998192,,,,,,sub-220,1,stroop_test,120.04567740663474,
,,,,46.0,10.0,3.0,,,,,,,,,,,,,blau,red,r,0.0,r,1.0,0.7214812079910189,,,,,,,,,,3.0,10.0,46.0,4.0,303.2412752920063,,,,,,,,,,,,,,,,,303.2319800420082,304.0281829170126,304.8237401249935,304.81235283301794,,,,,,,,,,,,,,,,,,,,,,,,,,,,,,,,,,,304.8163939169899,304.8237401249935,304.8237401249935,305.547597458004,r,1.0,0.7214812079910189,,,,,,sub-220,1,stroop_test,120.04567740663474,
,,,,47.0,11.0,3.0,,,,,,,,,,,,,blau,blue,b,1.0,b,1.0,1.3424963750003371,,,,,,,,,,3.0,11.0,47.0,6.0,305.55757358300616,,,,,,,,,,,,,,,,,305.5480377500062,305.64506124999025,306.43756420799764,306.4291251669929,,,,,,,,,,,,,,,,,,,,,,,,,,,,,,,,,,,306.429799125006,306.43756420799764,306.43756420799764,307.7860072499898,b,1.0,1.3424963750003371,,,,,,sub-220,1,stroop_test,120.04567740663474,
,,,,48.0,0.0,4.0,,,,,,,,,,,,,blau,blue,b,1.0,b,1.0,0.4827352919965051,,,,,,,,,,4.0,0.0,48.0,6.0,307.7967221250001,,,,,,,,,,,,,,,,,307.7864464170125,308.1350816670165,308.9370111669996,308.9289982920164,,,,,,,,,,,,,,,,,,,,,,,,,,,,,,,,,,,308.92964575000224,308.9370111669996,308.9370111669996,309.43013791699195,b,1.0,0.4827352919965051,,,,,,sub-220,1,stroop_test,120.04567740663474,
,,,,49.0,1.0,4.0,,,,,,,,,,,,,gelb,yellow,g,1.0,g,1.0,0.6511956249887589,,,,,,,,,,4.0,1.0,49.0,11.0,309.4398954999924,,,,,,,,,,,,,,,,,309.4305711670022,309.7782369999913,310.5739586669952,310.5622978750034,,,,,,,,,,,,,,,,,,,,,,,,,,,,,,,,,,,310.5663057079946,310.5739586669952,310.5739586669952,311.2304726250004,g,1.0,0.6511956249887589,,,,,,sub-220,1,stroop_test,120.04567740663474,
,,,,50.0,2.0,4.0,,,,,,,,,,,,,rot,blue,b,0.0,b,1.0,1.400602125009755,,,,,,,,,,4.0,2.0,50.0,2.0,311.24041125000804,,,,,,,,,,,,,,,,,311.2310227919952,312.0285041250172,312.82420166701195,312.8123028750124,,,,,,,,,,,,,,,,,,,,,,,,,,,,,,,,,,,312.8168908329972,312.82420166701195,312.82420166701195,314.2305720419972,b,1.0,1.400602125009755,,,,,,sub-220,1,stroop_test,120.04567740663474,
,,,,51.0,3.0,4.0,,,,,,,,,,,,,blau,blue,b,1.0,b,1.0,1.5758366669761017,,,,,,,,,,4.0,3.0,51.0,5.0,314.2408477080171,,,,,,,,,,,,,,,,,314.2311171249894,315.4284473329899,316.2233239579946,316.21244229201693,,,,,,,,,,,,,,,,,,,,,,,,,,,,,,,,,,,316.2162091670034,316.2233239579946,316.2233239579946,317.80337470798986,b,1.0,1.5758366669761017,,,,,,sub-220,1,stroop_test,120.04567740663474,
,,,,52.0,4.0,4.0,,,,,,,,,,,,,rot,red,r,1.0,r,1.0,0.6072930830123369,,,,,,,,,,4.0,4.0,52.0,0.0,317.8136299170146,,,,,,,,,,,,,,,,,317.80391175000113,318.6020482919994,319.4064372499997,319.3956959579955,,,,,,,,,,,,,,,,,,,,,,,,,,,,,,,,,,,319.3990072500019,319.4064372499997,319.4064372499997,320.01973304199055,r,1.0,0.6072930830123369,,,,,,sub-220,1,stroop_test,120.04567740663474,
,,,,53.0,5.0,4.0,,,,,,,,,,,,,blau,red,r,0.0,r,1.0,0.4088943340175319,,,,,,,,,,4.0,5.0,53.0,4.0,320.02999887499027,,,,,,,,,,,,,,,,,320.0201667920046,320.3690948750009,321.17342529201414,321.1625858749903,,,,,,,,,,,,,,,,,,,,,,,,,,,,,,,,,,,321.1662335830042,321.17342529201414,321.17342529201414,321.58669941700646,r,1.0,0.4088943340175319,,,,,,sub-220,1,stroop_test,120.04567740663474,
,,,,54.0,6.0,4.0,,,,,,,,,,,,,rot,red,r,1.0,r,1.0,0.3878675830201246,,,,,,,,,,4.0,6.0,54.0,1.0,321.5968206250109,,,,,,,,,,,,,,,,,321.58713450000505,322.7850334579998,323.5904606250115,323.579253917007,,,,,,,,,,,,,,,,,,,,,,,,,,,,,,,,,,,323.5831060830096,323.5904606250115,323.5904606250115,323.9808523750107,r,1.0,0.3878675830201246,,,,,,sub-220,1,stroop_test,120.04567740663474,
,,,,55.0,7.0,4.0,,,,,,,,,,,,,gelb,blue,b,0.0,b,1.0,0.7512746250140481,,,,,,,,,,4.0,7.0,55.0,9.0,323.99080983299064,,,,,,,,,,,,,,,,,323.98137604200747,324.3285378750006,325.1244816670078,325.1129368330003,,,,,,,,,,,,,,,,,,,,,,,,,,,,,,,,,,,325.1172225420014,325.1244816670078,325.1244816670078,325.8800255419919,b,1.0,0.7512746250140481,,,,,,sub-220,1,stroop_test,120.04567740663474,
,,,,56.0,8.0,4.0,,,,,,,,,,,,,gelb,yellow,g,1.0,g,1.0,0.4186678749974817,,,,,,,,,,4.0,8.0,56.0,10.0,325.8901047499967,,,,,,,,,,,,,,,,,325.88057412501075,327.0783327080135,327.87074725001,327.8625278749969,,,,,,,,,,,,,,,,,,,,,,,,,,,,,,,,,,,327.86317566700745,327.87074725001,327.87074725001,328.29744604200823,g,1.0,0.4186678749974817,,,,,,sub-220,1,stroop_test,120.04567740663474,
,,,,57.0,9.0,4.0,,,,,,,,,,,,,rot,yellow,g,0.0,g,1.0,0.5177495829993859,,,,,,,,,,4.0,9.0,57.0,3.0,328.3076097500161,,,,,,,,,,,,,,,,,328.29799533300684,328.39516549999826,329.1904695830017,329.17913237499306,,,,,,,,,,,,,,,,,,,,,,,,,,,,,,,,,,,329.18295679200673,329.1904695830017,329.1904695830017,329.7136336250114,g,1.0,0.5177495829993859,,,,,,sub-220,1,stroop_test,120.04567740663474,
,,,,58.0,10.0,4.0,,,,,,,,,,,,,blau,yellow,g,0.0,g,1.0,0.3946916249988135,,,,,,,,,,4.0,10.0,58.0,7.0,329.72400079199,,,,,,,,,,,,,,,,,329.7141746669949,330.0617961669923,330.8585185830016,330.8458223750058,,,,,,,,,,,,,,,,,,,,,,,,,,,,,,,,,,,330.8511475830164,330.8585185830016,330.8585185830016,331.2635785829916,g,1.0,0.3946916249988135,,,,,,sub-220,1,stroop_test,120.04567740663474,
,,,,59.0,11.0,4.0,,,,,,,,,,,,,gelb,red,r,0.0,r,1.0,0.6892025420092978,,,,,,,,,,4.0,11.0,59.0,8.0,331.27347945800284,,,,,,,,,,,,,,,,,331.2640058750112,331.3612867920019,332.1568940000143,332.14602545800153,,,,,,,,,,,,,,,,,,,,,,,,,,,,,,,,,,,332.1497007920116,332.1568940000143,332.1568940000143,332.8589884169924,r,1.0,0.6892025420092978,,,,,,sub-220,1,stroop_test,120.04567740663474,
,,,,60.0,0.0,5.0,,,,,,,,,,,,,rot,yellow,g,0.0,g,1.0,0.6133652499993332,,,,,,,,,,5.0,0.0,60.0,3.0,332.8670841669955,,,,,,,,,,,,,,,,,332.8594102500065,333.2022730000026,334.00818458301364,333.9960598330072,,,,,,,,,,,,,,,,,,,,,,,,,,,,,,,,,,,334.0005791670119,334.00818458301364,334.00818458301364,334.630891000008,g,1.0,0.6133652499993332,,,,,,sub-220,1,stroop_test,120.04567740663474,
,,,,61.0,1.0,5.0,,,,,,,,,,,,,rot,red,r,1.0,r,1.0,0.6093605829810258,,,,,,,,,,5.0,1.0,61.0,0.0,334.6416736670071,,,,,,,,,,,,,,,,,334.63164400000824,334.72880549999536,335.52051979201497,335.51256962501793,,,,,,,,,,,,,,,,,,,,,,,,,,,,,,,,,,,335.5132206249982,335.52051979201497,335.52051979201497,336.13580308301607,r,1.0,0.6093605829810258,,,,,,sub-220,1,stroop_test,120.04567740663474,
,,,,62.0,2.0,5.0,,,,,,,,,,,,,gelb,red,r,0.0,r,1.0,0.4738330830004997,,,,,,,,,,5.0,2.0,62.0,8.0,336.14551837500767,,,,,,,,,,,,,,,,,336.1362164170132,337.32864675001474,338.1240628329979,338.11258704200736,,,,,,,,,,,,,,,,,,,,,,,,,,,,,,,,,,,338.1166231670068,338.1240628329979,338.1240628329979,338.6033316249959,r,1.0,0.4738330830004997,,,,,,sub-220,1,stroop_test,120.04567740663474,
,,,,63.0,3.0,5.0,,,,,,,,,,,,,blau,yellow,g,0.0,g,1.0,0.9834602090122644,,,,,,,,,,5.0,3.0,63.0,7.0,338.6134223330009,,,,,,,,,,,,,,,,,338.60386416700203,338.70200054199086,339.5073041249998,339.4959960830165,,,,,,,,,,,,,,,,,,,,,,,,,,,,,,,,,,,339.5000905420165,339.5073041249998,339.5073041249998,340.496895874996,g,1.0,0.9834602090122644,,,,,,sub-220,1,stroop_test,120.04567740663474,
,,,,64.0,4.0,5.0,,,,,,,,,,,,,gelb,yellow,g,1.0,g,1.0,0.6111032500048168,,,,,,,,,,5.0,4.0,64.0,10.0,340.5063292919949,,,,,,,,,,,,,,,,,340.49733204199583,340.59557741699973,341.3905227080104,341.3793582500075,,,,,,,,,,,,,,,,,,,,,,,,,,,,,,,,,,,341.38333154199063,341.3905227080104,341.3905227080104,342.0043327079911,g,1.0,0.6111032500048168,,,,,,sub-220,1,stroop_test,120.04567740663474,
,,,,65.0,5.0,5.0,,,,,,,,,,,,,gelb,yellow,g,1.0,g,1.0,0.4918022500060033,,,,,,,,,,5.0,5.0,65.0,11.0,342.0145633330103,,,,,,,,,,,,,,,,,342.0048738330079,342.101445917011,342.8948364169919,342.8844594580005,,,,,,,,,,,,,,,,,,,,,,,,,,,,,,,,,,,342.885146332992,342.8948364169919,342.8948364169919,343.39738825001405,g,1.0,0.4918022500060033,,,,,,sub-220,1,stroop_test,120.04567740663474,
,,,,66.0,6.0,5.0,,,,,,,,,,,,,rot,red,r,1.0,r,1.0,1.0445131250016857,,,,,,,,,,5.0,6.0,66.0,1.0,343.40749754200806,,,,,,,,,,,,,,,,,343.3979194170097,343.74552870800835,344.5403752500133,344.52946312501444,,,,,,,,,,,,,,,,,,,,,,,,,,,,,,,,,,,344.53335966699524,344.5403752500133,344.5403752500133,345.58757249999326,r,1.0,1.0445131250016857,,,,,,sub-220,1,stroop_test,120.04567740663474,
,,,,67.0,7.0,5.0,,,,,,,,,,,,,rot,blue,b,0.0,b,1.0,0.6570253329991829,,,,,,,,,,5.0,7.0,67.0,2.0,345.597821125004,,,,,,,,,,,,,,,,,345.58803291700315,346.385128666996,347.188135000004,347.1794569999911,,,,,,,,,,,,,,,,,,,,,,,,,,,,,,,,,,,347.18010162501014,347.188135000004,347.188135000004,347.847196000017,b,1.0,0.6570253329991829,,,,,,sub-220,1,stroop_test,120.04567740663474,
,,,,68.0,8.0,5.0,,,,,,,,,,,,,gelb,blue,b,0.0,b,1.0,0.4581455409934278,,,,,,,,,,5.0,8.0,68.0,9.0,347.8570440420008,,,,,,,,,,,,,,,,,347.84763316699537,348.1954853750067,348.98988920799457,348.9793020419893,,,,,,,,,,,,,,,,,,,,,,,,,,,,,,,,,,,348.98266120799235,348.98988920799457,348.98988920799457,349.4534293329925,b,1.0,0.4581455409934278,,,,,,sub-220,1,stroop_test,120.04567740663474,
,,,,69.0,9.0,5.0,,,,,,,,,,,,,blau,red,r,0.0,r,1.0,1.6975191670062486,,,,,,,,,,5.0,9.0,69.0,4.0,349.4640093749913,,,,,,,,,,,,,,,,,349.4538539579953,350.25230875000125,351.05733120799414,351.04606133300695,,,,,,,,,,,,,,,,,,,,,,,,,,,,,,,,,,,351.04996754199965,351.05733120799414,351.05733120799414,352.7644210419967,r,1.0,1.6975191670062486,,,,,,sub-220,1,stroop_test,120.04567740663474,
,,,,70.0,10.0,5.0,,,,,,,,,,,,,blau,blue,b,1.0,b,1.0,0.8744399579882156,,,,,,,,,,5.0,10.0,70.0,6.0,352.7743620830006,,,,,,,,,,,,,,,,,352.7648688330082,352.8617429170117,353.65442125001573,353.64609804199426,,,,,,,,,,,,,,,,,,,,,,,,,,,,,,,,,,,353.6469048750005,353.65442125001573,353.65442125001573,354.5345922920096,b,1.0,0.8744399579882156,,,,,,sub-220,1,stroop_test,120.04567740663474,
,,,,71.0,11.0,5.0,,,,,,,,,,,,,blau,blue,b,1.0,b,1.0,0.6589098749973346,,,,,,,,,,5.0,11.0,71.0,5.0,354.54524991699145,,,,,,,,,,,,,,,,,354.535022666998,354.87896445801016,355.6706889170164,355.66276000000653,,,,,,,,,,,,,,,,,,,,,,,,,,,,,,,,,,,355.6634174170031,355.6706889170164,355.6706889170164,356.3422797920066,b,1.0,0.6589098749973346,,,,,,sub-220,1,stroop_test,120.04567740663474,
,,,,72.0,0.0,6.0,,,,,,,,,,,,,blau,yellow,g,0.0,g,1.0,1.002256458014017,,,,,,,,,,6.0,0.0,72.0,7.0,356.3508210419968,,,,,,,,,,,,,,,,,356.3427154170058,356.685345417005,357.47824387499713,357.470201499993,,,,,,,,,,,,,,,,,,,,,,,,,,,,,,,,,,,357.4708841670072,357.47824387499713,357.47824387499713,358.48693625000305,g,1.0,1.002256458014017,,,,,,sub-220,1,stroop_test,120.04567740663474,
,,,,73.0,1.0,6.0,,,,,,,,,,,,,blau,red,r,0.0,r,1.0,0.7777355420112144,,,,,,,,,,6.0,1.0,73.0,4.0,358.4974030420126,,,,,,,,,,,,,,,,,358.48735220800154,358.8361832080118,359.63717037500464,359.6294687500049,,,,,,,,,,,,,,,,,,,,,,,,,,,,,,,,,,,359.63011337499483,359.63717037500464,359.63717037500464,360.4199788749975,r,1.0,0.7777355420112144,,,,,,sub-220,1,stroop_test,120.04567740663474,
,,,,74.0,2.0,6.0,,,,,,,,,,,,,blau,blue,b,1.0,b,1.0,2.185010625020368,,,,,,,,,,6.0,2.0,74.0,5.0,360.4453293750121,,,,,,,,,,,,,,,,,360.4204094579909,360.7684507080121,361.56104258299456,361.5528424580116,,,,,,,,,,,,,,,,,,,,,,,,,,,,,,,,,,,361.5535290419939,361.56104258299456,361.56104258299456,363.7486397920002,b,1.0,2.185010625020368,,,,,,sub-220,1,stroop_test,120.04567740663474,
,,,,75.0,3.0,6.0,,,,,,,,,,,,,gelb,blue,b,0.0,b,1.0,0.5251815840019844,,,,,,,,,,6.0,3.0,75.0,9.0,363.7585466669989,,,,,,,,,,,,,,,,,363.7492340829922,363.8455140000151,364.64022604201455,364.6295068330073,,,,,,,,,,,,,,,,,,,,,,,,,,,,,,,,,,,364.6330954169971,364.64022604201455,364.64022604201455,365.1697953749972,b,1.0,0.5251815840019844,,,,,,sub-220,1,stroop_test,120.04567740663474,
,,,,76.0,4.0,6.0,,,,,,,,,,,,,rot,yellow,g,0.0,g,1.0,0.7375512080034241,,,,,,,,,,6.0,4.0,76.0,3.0,365.1792389579932,,,,,,,,,,,,,,,,,365.1702340420161,365.5195922499988,366.324967499997,366.3132206670125,,,,,,,,,,,,,,,,,,,,,,,,,,,,,,,,,,,366.31730295799207,366.324967499997,366.324967499997,367.0654555420042,g,1.0,0.7375512080034241,,,,,,sub-220,1,stroop_test,120.04567740663474,
,,,,77.0,5.0,6.0,,,,,,,,,,,,,rot,red,r,1.0,r,1.0,0.6225569999951404,,,,,,,,,,6.0,5.0,77.0,1.0,367.0756838330126,,,,,,,,,,,,,,,,,367.0660793330171,367.1620804170088,367.95377029199153,367.9462640419952,,,,,,,,,,,,,,,,,,,,,,,,,,,,,,,,,,,367.9469138749992,367.95377029199153,367.95377029199153,368.5808409170131,r,1.0,0.6225569999951404,,,,,,sub-220,1,stroop_test,120.04567740663474,
,,,,78.0,6.0,6.0,,,,,,,,,,,,,rot,red,r,1.0,r,1.0,2.899443207978038,,,,,,,,,,6.0,6.0,78.0,0.0,368.590597167,,,,,,,,,,,,,,,,,368.5812722080154,368.92903004199616,369.72096879201126,369.7129680830112,,,,,,,,,,,,,,,,,,,,,,,,,,,,,,,,,,,369.7136137500056,369.72096879201126,369.72096879201126,372.6313354170125,r,1.0,2.899443207978038,,,,,,sub-220,1,stroop_test,120.04567740663474,
,,,,79.0,7.0,6.0,,,,,,,,,,,,,gelb,yellow,g,1.0,g,1.0,0.7405715829809196,,,,,,,,,,6.0,7.0,79.0,10.0,372.64153900000383,,,,,,,,,,,,,,,,,372.6318829169904,372.979111291992,373.775840916991,373.7631388329901,,,,,,,,,,,,,,,,,,,,,,,,,,,,,,,,,,,373.7684102499916,373.775840916991,373.775840916991,374.52026995801134,g,1.0,0.7405715829809196,,,,,,sub-220,1,stroop_test,120.04567740663474,
,,,,80.0,8.0,6.0,,,,,,,,,,,,,gelb,red,r,0.0,r,1.0,0.6646445000078529,,,,,,,,,,6.0,8.0,80.0,8.0,374.53087620800943,,,,,,,,,,,,,,,,,374.5206847919908,375.3194239579898,376.1201839169953,376.1127135830175,,,,,,,,,,,,,,,,,,,,,,,,,,,,,,,,,,,376.11325570801273,376.1201839169953,376.1201839169953,376.787383582996,r,1.0,0.6646445000078529,,,,,,sub-220,1,stroop_test,120.04567740663474,
,,,,81.0,9.0,6.0,,,,,,,,,,,,,gelb,yellow,g,1.0,g,1.0,0.8134721250098664,,,,,,,,,,6.0,9.0,81.0,11.0,376.7976539579977,,,,,,,,,,,,,,,,,376.7878094580082,376.8853453749907,377.6785883330158,377.66849608300254,,,,,,,,,,,,,,,,,,,,,,,,,,,,,,,,,,,377.6691615830059,377.6785883330158,377.6785883330158,378.4973870000104,g,1.0,0.8134721250098664,,,,,,sub-220,1,stroop_test,120.04567740663474,
,,,,82.0,10.0,6.0,,,,,,,,,,,,,rot,blue,b,0.0,b,1.0,0.4679115420149173,,,,,,,,,,6.0,10.0,82.0,2.0,378.5068627920118,,,,,,,,,,,,,,,,,378.4978280419891,378.8459842079901,379.6415466670005,379.6299182919902,,,,,,,,,,,,,,,,,,,,,,,,,,,,,,,,,,,379.6338662499911,379.6415466670005,379.6415466670005,380.1149755420047,b,1.0,0.4679115420149173,,,,,,sub-220,1,stroop_test,120.04567740663474,
,,,,83.0,11.0,6.0,,,,,,,,,,,,,blau,blue,b,1.0,b,1.0,0.5493057499988936,,,,,,,,,,6.0,11.0,83.0,6.0,380.1254324170004,,,,,,,,,,,,,,,,,380.1156628330064,380.2125550420024,381.0070707919949,380.9965411250014,,,,,,,,,,,,,,,,,,,,,,,,,,,,,,,,,,,380.9998696249968,381.0070707919949,381.0070707919949,381.5643650419952,b,1.0,0.5493057499988936,,,,,,sub-220,1,stroop_test,120.04567740663474,
,,,,84.0,0.0,7.0,,,,,,,,,,,,,blau,blue,b,1.0,b,1.0,0.5008611670054961,,,,,,,,,,7.0,0.0,84.0,6.0,381.5743593329971,,,,,,,,,,,,,,,,,381.5648096670048,381.6625447080005,382.4547047080123,382.4465167919989,,,,,,,,,,,,,,,,,,,,,,,,,,,,,,,,,,,382.4472111669893,382.4547047080123,382.4547047080123,382.9646656670084,b,1.0,0.5008611670054961,,,,,,sub-220,1,stroop_test,120.04567740663474,
,,,,85.0,1.0,7.0,,,,,,,,,,,,,rot,blue,b,0.0,b,1.0,0.7590837919851765,,,,,,,,,,7.0,1.0,85.0,2.0,382.9749363750161,,,,,,,,,,,,,,,,,382.9652251669904,384.1625444169913,384.9578876250016,384.946510083013,,,,,,,,,,,,,,,,,,,,,,,,,,,,,,,,,,,384.95042904201546,384.9578876250016,384.9578876250016,385.7290146250161,b,1.0,0.7590837919851765,,,,,,sub-220,1,stroop_test,120.04567740663474,
,,,,86.0,2.0,7.0,,,,,,,,,,,,,rot,yellow,g,0.0,g,1.0,0.892179499991471,,,,,,,,,,7.0,2.0,86.0,3.0,385.73746320800274,,,,,,,,,,,,,,,,,385.729482833005,386.5193639170029,387.321216625016,387.3131656670012,,,,,,,,,,,,,,,,,,,,,,,,,,,,,,,,,,,387.31382041701,387.321216625016,387.321216625016,388.22544075001497,g,1.0,0.892179499991471,,,,,,sub-220,1,stroop_test,120.04567740663474,
,,,,87.0,3.0,7.0,,,,,,,,,,,,,blau,blue,b,1.0,b,1.0,0.8833962090138812,,,,,,,,,,7.0,3.0,87.0,5.0,388.2329550420109,,,,,,,,,,,,,,,,,388.2258861250011,388.5697031250165,389.3746394170157,389.3633077919949,,,,,,,,,,,,,,,,,,,,,,,,,,,,,,,,,,,389.367308624991,389.3746394170157,389.3746394170157,390.2643815829943,b,1.0,0.8833962090138812,,,,,,sub-220,1,stroop_test,120.04567740663474,
,,,,88.0,4.0,7.0,,,,,,,,,,,,,gelb,yellow,g,1.0,g,1.0,0.5947359160054475,,,,,,,,,,7.0,4.0,88.0,10.0,390.2741221670003,,,,,,,,,,,,,,,,,390.2648254579981,390.3624955830164,391.159082750004,391.1468161669909,,,,,,,,,,,,,,,,,,,,,,,,,,,,,,,,,,,391.1514086670068,391.159082750004,391.159082750004,391.7649645830097,g,1.0,0.5947359160054475,,,,,,sub-220,1,stroop_test,120.04567740663474,
,,,,89.0,5.0,7.0,,,,,,,,,,,,,gelb,blue,b,0.0,b,1.0,0.8821547910047229,,,,,,,,,,7.0,5.0,89.0,9.0,391.77495341701433,,,,,,,,,,,,,,,,,391.7655270000105,392.5627915000077,393.3545664169942,393.3466193749919,,,,,,,,,,,,,,,,,,,,,,,,,,,,,,,,,,,393.34725975000765,393.3545664169942,393.3545664169942,394.2475503750029,b,1.0,0.8821547910047229,,,,,,sub-220,1,stroop_test,120.04567740663474,
,,,,90.0,6.0,7.0,,,,,,,,,,,,,blau,red,r,0.0,r,1.0,0.9245467500004452,,,,,,,,,,7.0,6.0,90.0,4.0,394.257296833006,,,,,,,,,,,,,,,,,394.2479739580013,394.59605808299966,395.3918011670176,395.3799369579938,,,,,,,,,,,,,,,,,,,,,,,,,,,,,,,,,,,395.3844741669891,395.3918011670176,395.3918011670176,396.321121749992,r,1.0,0.9245467500004452,,,,,,sub-220,1,stroop_test,120.04567740663474,
,,,,91.0,7.0,7.0,,,,,,,,,,,,,gelb,yellow,g,1.0,g,1.0,0.7461115409969352,,,,,,,,,,7.0,7.0,91.0,11.0,396.3316380830074,,,,,,,,,,,,,,,,,396.32165025,396.6697475830151,397.474710917013,397.4635029170022,,,,,,,,,,,,,,,,,,,,,,,,,,,,,,,,,,,397.4674101670098,397.474710917013,397.474710917013,398.2315467080043,g,1.0,0.7461115409969352,,,,,,sub-220,1,stroop_test,120.04567740663474,
,,,,92.0,8.0,7.0,,,,,,,,,,,,,gelb,red,r,0.0,r,1.0,0.6838386669987813,,,,,,,,,,7.0,8.0,92.0,8.0,398.2417923329922,,,,,,,,,,,,,,,,,398.232106542011,398.32932058299775,399.1212163330056,399.11347725000815,,,,,,,,,,,,,,,,,,,,,,,,,,,,,,,,,,,399.11417862499366,399.1212163330056,399.1212163330056,399.8144930830167,r,1.0,0.6838386669987813,,,,,,sub-220,1,stroop_test,120.04567740663474,
,,,,93.0,9.0,7.0,,,,,,,,,,,,,rot,red,r,1.0,r,1.0,0.5902662909938954,,,,,,,,,,7.0,9.0,93.0,1.0,399.8246314580029,,,,,,,,,,,,,,,,,399.81495683299727,400.162744583009,400.9585643330065,400.9466696669988,,,,,,,,,,,,,,,,,,,,,,,,,,,,,,,,,,,400.9509387080034,400.9585643330065,400.9585643330065,401.5541001250094,r,1.0,0.5902662909938954,,,,,,sub-220,1,stroop_test,120.04567740663474,
,,,,94.0,10.0,7.0,,,,,,,,,,,,,rot,red,r,1.0,r,1.0,0.5138956670125481,,,,,,,,,,7.0,10.0,94.0,0.0,401.5645639169961,,,,,,,,,,,,,,,,,401.55452270800015,401.6516530420049,402.4454834999924,402.4351805000042,,,,,,,,,,,,,,,,,,,,,,,,,,,,,,,,,,,402.4358633749944,402.4454834999924,402.4454834999924,402.9648382079904,r,1.0,0.5138956670125481,,,,,,sub-220,1,stroop_test,120.04567740663474,
,,,,95.0,11.0,7.0,,,,,,,,,,,,,blau,yellow,g,0.0,g,1.0,1.113661083014449,,,,,,,,,,7.0,11.0,95.0,7.0,402.9748372499889,,,,,,,,,,,,,,,,,402.9653591249953,404.1628377500165,404.9581273749936,404.94678804199793,,,,,,,,,,,,,,,,,,,,,,,,,,,,,,,,,,,404.9507629169966,404.9581273749936,404.9581273749936,406.081219582993,g,1.0,1.113661083014449,,,,,,sub-220,1,stroop_test,120.04567740663474,
,,,,96.0,0.0,8.0,,,,,,,,,,,,,blau,yellow,g,0.0,g,1.0,0.4083625829953234,,,,,,,,,,8.0,0.0,96.0,7.0,406.0910094169958,,,,,,,,,,,,,,,,,406.0816593329946,406.4293934580055,407.2214845000126,407.2133639999957,,,,,,,,,,,,,,,,,,,,,,,,,,,,,,,,,,,407.21402720801416,407.2214845000126,407.2214845000126,407.63188083301065,g,1.0,0.4083625829953234,,,,,,sub-220,1,stroop_test,120.04567740663474,
,,,,97.0,1.0,8.0,,,,,,,,,,,,,blau,red,r,0.0,r,1.0,0.8582119579950813,,,,,,,,,,8.0,1.0,97.0,4.0,407.6417938329978,,,,,,,,,,,,,,,,,407.6323116669955,408.8295642500161,409.621391416993,409.6134809580108,,,,,,,,,,,,,,,,,,,,,,,,,,,,,,,,,,,409.6141987919982,409.621391416993,409.621391416993,410.48190250000334,r,1.0,0.8582119579950813,,,,,,sub-220,1,stroop_test,120.04567740663474,
,,,,98.0,2.0,8.0,,,,,,,,,,,,,rot,blue,b,0.0,b,1.0,1.0269239159824792,,,,,,,,,,8.0,2.0,98.0,2.0,410.4918905830127,,,,,,,,,,,,,,,,,410.4823847080115,411.2795059579949,412.0757633750036,412.0635581249953,,,,,,,,,,,,,,,,,,,,,,,,,,,,,,,,,,,412.0681190830073,412.0757633750036,412.0757633750036,413.10506016699946,b,1.0,1.0269239159824792,,,,,,sub-220,1,stroop_test,120.04567740663474,
,,,,99.0,3.0,8.0,,,,,,,,,,,,,gelb,yellow,g,1.0,g,1.0,1.2546770000190008,,,,,,,,,,8.0,3.0,99.0,11.0,413.1152718749945,,,,,,,,,,,,,,,,,413.1056167499919,413.20336070799385,414.0083424999903,413.9969054580142,,,,,,,,,,,,,,,,,,,,,,,,,,,,,,,,,,,414.0008562500007,414.0083424999903,414.0083424999903,415.2646262079943,g,1.0,1.2546770000190008,,,,,,sub-220,1,stroop_test,120.04567740663474,
,,,,100.0,4.0,8.0,,,,,,,,,,,,,blau,blue,b,1.0,b,1.0,2.9540958750003483,,,,,,,,,,8.0,4.0,100.0,5.0,415.2728360420151,,,,,,,,,,,,,,,,,415.2649455000064,416.0629330420052,416.859142041998,416.8468984999927,,,,,,,,,,,,,,,,,,,,,,,,,,,,,,,,,,,416.8516873749904,416.859142041998,416.859142041998,419.8178950420115,b,1.0,2.9540958750003483,,,,,,sub-220,1,stroop_test,120.04567740663474,
,,,,101.0,5.0,8.0,,,,,,,,,,,,,blau,blue,b,1.0,b,1.0,0.6185930409992579,,,,,,,,,,8.0,5.0,101.0,6.0,419.8313922499947,,,,,,,,,,,,,,,,,419.8196306250175,419.9132085420133,420.7052457499958,420.69724762500846,,,,,,,,,,,,,,,,,,,,,,,,,,,,,,,,,,,420.6980060829956,420.7052457499958,420.7052457499958,421.3311457920063,b,1.0,0.6185930409992579,,,,,,sub-220,1,stroop_test,120.04567740663474,
,,,,102.0,6.0,8.0,,,,,,,,,,,,,rot,red,r,1.0,r,1.0,1.088586124998983,,,,,,,,,,8.0,6.0,102.0,1.0,421.3409943750012,,,,,,,,,,,,,,,,,421.3315884580079,422.5294700000086,423.326710082998,423.31384404201526,,,,,,,,,,,,,,,,,,,,,,,,,,,,,,,,,,,423.3189945000049,423.326710082998,423.326710082998,424.4208293750125,r,1.0,1.088586124998983,,,,,,sub-220,1,stroop_test,120.04567740663474,
,,,,103.0,7.0,8.0,,,,,,,,,,,,,gelb,red,r,0.0,r,1.0,0.843494583008578,,,,,,,,,,8.0,7.0,103.0,8.0,424.4314984169905,,,,,,,,,,,,,,,,,424.4212586669892,424.7696172920114,425.5793344580161,425.5528023329971,,,,,,,,,,,,,,,,,,,,,,,,,,,,,,,,,,,425.556444042013,425.5793344580161,425.5793344580161,426.43121366700507,r,1.0,0.843494583008578,,,,,,sub-220,1,stroop_test,120.04567740663474,
,,,,104.0,8.0,8.0,,,,,,,,,,,,,gelb,blue,b,0.0,b,1.0,0.859462458989583,,,,,,,,,,8.0,8.0,104.0,9.0,426.4411945420143,,,,,,,,,,,,,,,,,426.43166495801415,427.2297360000084,428.021291083016,428.0137364169932,,,,,,,,,,,,,,,,,,,,,,,,,,,,,,,,,,,428.014401583001,428.021291083016,428.021291083016,428.8869868750044,b,1.0,0.859462458989583,,,,,,sub-220,1,stroop_test,120.04567740663474,
,,,,105.0,9.0,8.0,,,,,,,,,,,,,rot,yellow,g,0.0,g,1.0,1.468108500004746,,,,,,,,,,8.0,9.0,105.0,3.0,428.8966793750005,,,,,,,,,,,,,,,,,428.8874188750051,429.6861991249898,430.4960613329895,430.47001399999135,,,,,,,,,,,,,,,,,,,,,,,,,,,,,,,,,,,430.4731395830168,430.4960613329895,430.4960613329895,431.9709600420029,g,1.0,1.468108500004746,,,,,,sub-220,1,stroop_test,120.04567740663474,
,,,,106.0,10.0,8.0,,,,,,,,,,,,,rot,red,r,1.0,r,1.0,0.6870650829805527,,,,,,,,,,8.0,10.0,106.0,0.0,431.98147829200025,,,,,,,,,,,,,,,,,431.9713919170026,432.069355500018,432.8625022500055,432.8529569999955,,,,,,,,,,,,,,,,,,,,,,,,,,,,,,,,,,,432.8536357920093,432.8625022500055,432.8625022500055,433.554343833006,r,1.0,0.6870650829805527,,,,,,sub-220,1,stroop_test,120.04567740663474,
,,,,107.0,11.0,8.0,,,,,,,,,,,,,gelb,yellow,g,1.0,g,1.0,1.0885499170108233,,,,,,,,,,8.0,11.0,107.0,10.0,433.5649398330133,,,,,,,,,,,,,,,,,433.55475866701454,433.9030726249912,434.7087446670048,434.6973081250035,,,,,,,,,,,,,,,,,,,,,,,,,,,,,,,,,,,434.701678500016,434.7087446670048,434.7087446670048,435.8100928750064,g,1.0,1.0885499170108233,,,,,,sub-220,1,stroop_test,120.04567740663474,
,,,,108.0,0.0,9.0,,,,,,,,,,,,,blau,blue,b,1.0,b,1.0,1.2590884999954142,,,,,,,,,,9.0,0.0,108.0,5.0,435.8178808329976,,,,,,,,,,,,,,,,,435.8105331670085,437.0030112079985,437.7966837499989,437.786098792014,,,,,,,,,,,,,,,,,,,,,,,,,,,,,,,,,,,437.78957675001584,437.7966837499989,437.7966837499989,439.0652591249964,b,1.0,1.2590884999954142,,,,,,sub-220,1,stroop_test,120.04567740663474,
,,,,109.0,1.0,9.0,,,,,,,,,,,,,blau,yellow,g,0.0,g,1.0,0.5761226660106331,,,,,,,,,,9.0,1.0,109.0,7.0,439.0754684580024,,,,,,,,,,,,,,,,,439.0658865830046,439.86318320801365,440.6560415420099,440.6475126250007,,,,,,,,,,,,,,,,,,,,,,,,,,,,,,,,,,,440.6483149580017,440.6560415420099,440.6560415420099,441.23804995801765,g,1.0,0.5761226660106331,,,,,,sub-220,1,stroop_test,120.04567740663474,
,,,,110.0,2.0,9.0,,,,,,,,,,,,,gelb,red,r,0.0,r,1.0,0.6927582079952117,,,,,,,,,,9.0,2.0,110.0,8.0,441.2483854170132,,,,,,,,,,,,,,,,,441.2385927080177,442.436056208011,443.2319591669948,443.2197619169892,,,,,,,,,,,,,,,,,,,,,,,,,,,,,,,,,,,443.2240958749898,443.2319591669948,443.2319591669948,443.9315473329916,r,1.0,0.6927582079952117,,,,,,sub-220,1,stroop_test,120.04567740663474,
,,,,111.0,3.0,9.0,,,,,,,,,,,,,blau,red,r,0.0,r,1.0,0.4815813330060337,,,,,,,,,,9.0,3.0,111.0,4.0,443.941275167017,,,,,,,,,,,,,,,,,443.9319859580137,444.2799469580059,445.07447520800633,445.063721500017,,,,,,,,,,,,,,,,,,,,,,,,,,,,,,,,,,,445.0673585420009,445.07447520800633,445.07447520800633,445.5652821249969,r,1.0,0.4815813330060337,,,,,,sub-220,1,stroop_test,120.04567740663474,
,,,,112.0,4.0,9.0,,,,,,,,,,,,,rot,red,r,1.0,r,1.0,1.0036994999973103,,,,,,,,,,9.0,4.0,112.0,0.0,445.575471292017,,,,,,,,,,,,,,,,,445.5657818329928,446.7630799580074,447.5595013330167,447.5471862920094,,,,,,,,,,,,,,,,,,,,,,,,,,,,,,,,,,,447.5518165829999,447.5595013330167,447.5595013330167,448.5656008750084,r,1.0,1.0036994999973103,,,,,,sub-220,1,stroop_test,120.04567740663474,
,,,,113.0,5.0,9.0,,,,,,,,,,,,,rot,blue,b,0.0,b,1.0,0.5541526659799274,,,,,,,,,,9.0,5.0,113.0,2.0,448.57558116700966,,,,,,,,,,,,,,,,,448.5660437080078,448.6632779999927,449.4549251249992,449.4471349169908,,,,,,,,,,,,,,,,,,,,,,,,,,,,,,,,,,,449.4477898330079,449.4549251249992,449.4549251249992,450.0150125419896,b,1.0,0.5541526659799274,,,,,,sub-220,1,stroop_test,120.04567740663474,
,,,,114.0,6.0,9.0,,,,,,,,,,,,,gelb,blue,b,0.0,b,1.0,0.6050717920006718,,,,,,,,,,9.0,6.0,114.0,9.0,450.0247590419895,,,,,,,,,,,,,,,,,450.0154372919933,450.11346704201424,450.9088994170015,450.8972007080156,,,,,,,,,,,,,,,,,,,,,,,,,,,,,,,,,,,450.9013917919947,450.9088994170015,450.9088994170015,451.5163487500104,b,1.0,0.6050717920006718,,,,,,sub-220,1,stroop_test,120.04567740663474,
,,,,115.0,7.0,9.0,,,,,,,,,,,,,rot,red,r,1.0,r,1.0,0.5544951669871807,,,,,,,,,,9.0,7.0,115.0,1.0,451.5263325000124,,,,,,,,,,,,,,,,,451.5167838750058,451.86339404201135,452.6591517500056,452.6472375000012,,,,,,,,,,,,,,,,,,,,,,,,,,,,,,,,,,,452.6515479999944,452.6591517500056,452.6591517500056,453.2161078749923,r,1.0,0.5544951669871807,,,,,,sub-220,1,stroop_test,120.04567740663474,
,,,,116.0,8.0,9.0,,,,,,,,,,,,,blau,blue,b,1.0,b,1.0,0.4131634590157773,,,,,,,,,,9.0,8.0,116.0,6.0,453.2261018750141,,,,,,,,,,,,,,,,,453.2166142500064,453.3133681670006,454.10821837501135,454.0972971250012,,,,,,,,,,,,,,,,,,,,,,,,,,,,,,,,,,,454.10104608300026,454.10821837501135,454.10821837501135,454.5323222079896,b,1.0,0.4131634590157773,,,,,,sub-220,1,stroop_test,120.04567740663474,
,,,,117.0,9.0,9.0,,,,,,,,,,,,,gelb,yellow,g,1.0,g,1.0,0.3832423329877201,,,,,,,,,,9.0,9.0,117.0,11.0,454.542650916992,,,,,,,,,,,,,,,,,454.5328667499998,454.87996083300095,455.676376916992,455.6644437079958,,,,,,,,,,,,,,,,,,,,,,,,,,,,,,,,,,,455.6689902920043,455.676376916992,455.676376916992,456.0655858750106,g,1.0,0.3832423329877201,,,,,,sub-220,1,stroop_test,120.04567740663474,
,,,,118.0,10.0,9.0,,,,,,,,,,,,,rot,yellow,g,0.0,g,1.0,0.4300253340043127,,,,,,,,,,9.0,10.0,118.0,3.0,456.0753288750129,,,,,,,,,,,,,,,,,456.0660330830142,457.26351337501546,458.05947779200505,458.0474046670133,,,,,,,,,,,,,,,,,,,,,,,,,,,,,,,,,,,458.0519892919983,458.05947779200505,458.05947779200505,458.4989295419946,g,1.0,0.4300253340043127,,,,,,sub-220,1,stroop_test,120.04567740663474,
,,,,119.0,11.0,9.0,,,,,,,,,,,,,gelb,yellow,g,1.0,g,1.0,0.4978838330134749,,,,,,,,,,9.0,11.0,119.0,10.0,458.5085221249901,,,,,,,,,,,,,,,,,458.4994250420132,458.5963531669986,459.3910013750137,459.3803465829988,,,,,,,,,,,,,,,,,,,,,,,,,,,,,,,,,,,459.3837907499983,459.3910013750137,459.3910013750137,459.8987063750101,g,1.0,0.4978838330134749,,,,,,sub-220,1,stroop_test,120.04567740663474,
,,,,,,,,,,,,,,,,,,,,,,,,,,,,,,,,,,,,,,,,,,,,,,,,,,,,,,,,,,,,,,,,,,,,,,,,,,,,,,,,,,,,,,,,,,,,,,,,,,,,,,459.8989894580154,459.91021654198994,464.9017004999914,464.8974997079931,sub-220,1,stroop_test,120.04567740663474,
