direction,corrAns,randomInstr,practice_trials.thisRepN,practice_trials.thisTrialN,practice_trials.thisN,practice_trials.thisIndex,instr_trials.thisRepN,instr_trials.thisTrialN,instr_trials.thisN,instr_trials.thisIndex,test_trials.thisRepN,test_trials.thisTrialN,test_trials.thisN,test_trials.thisIndex,thisRow.t,notes,general_instruction.started,textGeneralInstr.started,respGeneralInstr.started,general_instruction.stopped,respGeneralInstr.keys,respGeneralInstr.rt,respGeneralInstr.duration,ITI.started,fixcross.started,fixcross.stopped,ITI.stopped,dots.started,backgroundDots.started,stimulusDots.started,respDots.started,stimulusDots.stopped,dots.stopped,respDots.keys,respDots.corr,respDots.rt,respDots.duration,feedback.started,textFeedback.started,feedback.stopped,textFeedback.stopped,info.started,textInfo.started,keyRespInfo.started,info.stopped,keyRespInfo.keys,keyRespInfo.rt,keyRespInfo.duration,test_instruction.started,textTestInstr.started,respTestInstr.started,test_instruction.stopped,respTestInstr.keys,respTestInstr.rt,respTestInstr.duration,random_instruction.started,textRandomInstr.started,respRandomInstr.started,random_instruction.stopped,respRandomInstr.keys,respRandomInstr.rt,respRandomInstr.duration,goodbye.started,textGoodbye.started,goodbye.stopped,participant,session,expName,frameRate,Unnamed: 73
,,,,,,,,,,,,,,,,,0.0250388000000043,0.0339064000000064,0.0339064000000064,39.15558680000001,space,57.6004844,,,,,,,,,,,,,,,,,,,,,,,,,,,,,,,,,,,,,,,,,,,,sub-051,1.0,random_dot,60.01820952477024,
left,left,,0.0,0.0,0.0,0.0,,,,,,,,,39.1727429,,,,,,,,,39.16928580000001,40.3686371,41.1689939,41.1533298,41.15338589999999,41.1689939,41.1689939,41.1689939,46.16654629999999,47.9681894,left,1.0,25.290943099999996,,47.9696701,47.9881264,48.4815284,,,,,,,,,,,,,,,,,,,,,,,,,,sub-051,1.0,random_dot,60.01820952477024,
right,right,,0.0,1.0,1.0,1.0,,,,,,,,,48.49746110000001,,,,,,,,,48.48255549999999,48.830581300000006,49.63121140000001,49.6148484,49.614891400000005,49.63121140000001,49.63121140000001,49.63121140000001,,52.9162772,left,0.0,21.776616699999977,,52.91714010000001,52.9397424,53.4279608,,,,,,,,,,,,,,,,,,,,,,,,,,sub-051,1.0,random_dot,60.01820952477024,
left,left,,1.0,0.0,2.0,0.0,,,,,,,,,53.44476940000001,,,,,,,,,53.4287535,54.2276795,55.0283025,55.012196200000005,55.0122365,55.0283025,55.0283025,55.0283025,60.02530659999999,60.65994459999999,right,0.0,24.122515099999987,,60.6608555,60.6739604,61.1733654,,,,,,,,,,,,,,,,,,,,,,,,,,sub-051,1.0,random_dot,60.01820952477024,
right,right,,1.0,1.0,3.0,1.0,,,,,,,,,61.1892019,,,,,,,,,61.17470119999999,62.373287000000005,63.1736387,63.157855600000005,63.15790960000001,63.1736387,63.1736387,63.1736387,68.17113169999999,68.6238266,left,0.0,23.9333278,,68.6249568,68.63614340000001,69.13581099999999,,,,,,,,,,,,,,,,,,,,,,,,,,sub-051,1.0,random_dot,60.01820952477024,
left,left,,2.0,0.0,4.0,0.0,,,,,,,,,69.1517136,,,,,,,,,69.13668229999999,69.93569070000001,70.7365221,70.72055839999999,70.720605,70.7365221,70.7365221,70.7365221,,72.8885157,left,1.0,20.63172689999999,,72.88939250000001,72.9009332,73.38568660000001,73.400398,,,,,,,,,,,,,,,,,,,,,,,,,sub-051,1.0,random_dot,60.01820952477024,
right,right,,2.0,1.0,5.0,1.0,,,,,,,,,73.400398,,,,,,,,,73.38670189999999,74.60001539999999,75.40043270000001,75.3850875,75.3851305,75.40043270000001,75.40043270000001,75.40043270000001,,76.93518220000001,right,1.0,20.02774110000001,,76.93621200000001,76.9485153,77.4334341,77.44809079999999,,,,,,,,,,,,,,,,,,,,,,,,,sub-051,1.0,random_dot,60.01820952477024,
right,right,,3.0,0.0,6.0,1.0,,,,,,,,,77.44809079999999,,,,,,,,,77.43425339999999,77.7982848,78.5986814,78.5821185,78.58216009999998,78.5986814,78.5986814,78.5986814,,79.84982699999998,left,0.0,19.74434199999999,,79.850563,79.86343780000001,80.34852989999999,80.36323289999999,,,,,,,,,,,,,,,,,,,,,,,,,sub-051,1.0,random_dot,60.01820952477024,
left,left,,3.0,1.0,7.0,0.0,,,,,,,,,80.36323289999999,,,,,,,,,80.34943360000003,81.1614759,81.96317359999998,81.94779589999999,81.94785929999998,81.96317359999998,81.96317359999998,81.96317359999998,,85.01505590000002,left,1.0,21.532353700000016,,85.01591320000003,85.02741929999999,85.51237030000001,85.52724959999998,,,,,,,,,,,,,,,,,,,,,,,,,sub-051,1.0,random_dot,60.01820952477024,
left,left,,4.0,0.0,8.0,0.0,,,,,,,,,85.52724959999998,,,,,,,,,85.51331400000001,85.87722219999998,86.67720890000001,86.66214099999999,86.66220530000001,86.67720890000001,86.67720890000001,86.67720890000001,,90.1117368,right,0.0,21.916442499999988,,90.112605,90.12465390000004,90.6093764,90.6242217,,,,,,,,,,,,,,,,,,,,,,,,,sub-051,1.0,random_dot,60.01820952477024,
right,right,,4.0,1.0,9.0,1.0,,,,,,,,,90.6242217,,,,,,,,,90.610247,91.424116,92.2244567,92.2083264,92.208377,92.2244567,92.2244567,92.2244567,,93.5761332,right,1.0,19.84323699999996,,93.5771415,93.58918229999998,94.0741553,94.08945480000004,,,,,,,,,,,,,,,,,,,,,,,,,sub-051,1.0,random_dot,60.01820952477024,
right,right,,5.0,0.0,10.0,1.0,,,,,,,,,94.08945480000004,,,,,,,,,94.0750257,94.43874179999996,95.23965280000002,95.22370479999998,95.2237613,95.23965280000002,95.23965280000002,95.23965280000002,,98.05672239999998,right,1.0,21.31002429999998,,98.0577893,98.0701182,98.5547746,98.57012519999998,,,,,,,,,,,,,,,,,,,,,,,,,sub-051,1.0,random_dot,60.01820952477024,
left,left,,5.0,1.0,11.0,0.0,,,,,,,,,98.57012519999998,,,,,,,,,98.55568209999998,98.6700587,99.47021600000002,99.4546577,99.4547026,99.47021600000002,99.47021600000002,99.47021600000002,,102.8381366,right,0.0,21.859318400000035,,102.8393033,102.8507175,103.3363643,103.3504391,,,,,,,,,,,,,,,,,,,,,,,,,sub-051,1.0,random_dot,60.01820952477024,
right,right,,6.0,0.0,12.0,1.0,,,,,,,,,103.3504391,,,,,,,,,103.33733759999998,103.45059999999998,104.2507241,104.2357828,104.2358308,104.2507241,104.2507241,104.2507241,,105.8694768,left,0.0,20.09859990000004,,105.8705365,105.8825901,106.36746079999998,106.3822263,,,,,,,,,,,,,,,,,,,,,,,,,sub-051,1.0,random_dot,60.01820952477024,
left,left,,6.0,1.0,13.0,0.0,,,,,,,,,106.3822263,,,,,,,,,106.3683655,107.18221459999998,107.9825961,107.96676799999996,107.9668071,107.9825961,107.9825961,107.9825961,,110.233195,left,1.0,20.731810699999954,,110.23402030000004,110.2469569,110.73084020000002,110.7465015,,,,,,,,,,,,,,,,,,,,,,,,,sub-051,1.0,random_dot,60.01820952477024,
right,right,,7.0,0.0,14.0,1.0,,,,,,,,,110.7465015,,,,,,,,,110.73153290000002,111.09635490000002,111.8968272,111.8810493,111.8810923,111.8968272,111.8968272,111.8968272,,116.1640758,right,1.0,22.75594079999999,,116.16496750000002,116.1768913,116.66136980000002,116.6770448,,,,,,,,,,,,,,,,,,,,,,,,,sub-051,1.0,random_dot,60.01820952477024,
left,left,,7.0,1.0,15.0,0.0,,,,,,,,,116.6770448,,,,,,,,,116.6622804,117.47654409999998,118.27689569999998,118.26083480000004,118.26089770000002,118.27689569999998,118.27689569999998,118.27689569999998,,121.62722950000004,right,0.0,21.83244739999995,,121.62835900000002,121.64115210000004,122.1253128,122.14032,,,,,,,,,,,,,,,,,,,,,,,,,sub-051,1.0,random_dot,60.01820952477024,
left,left,,8.0,0.0,16.0,0.0,,,,,,,,,122.14032,,,,,,,,,122.126228,122.2403791,123.0410143,123.02454889999998,123.0246377,123.0410143,123.0410143,123.0410143,128.03797369999998,128.25789640000002,right,0.0,23.69852279999995,,128.2590043,128.2701752,128.75532719999998,128.7697563,,,,,,,,,,,,,,,,,,,,,,,,,sub-051,1.0,random_dot,60.01820952477024,
right,right,,8.0,1.0,17.0,1.0,,,,,,,,,128.7697563,,,,,,,,,128.75627690000002,129.1196411,129.92011599999998,129.9044006,129.90443739999998,129.92011599999998,129.92011599999998,129.92011599999998,,131.4885735,left,0.0,20.05562539999997,,131.48949639999998,131.501765,131.9858,132.0015448,,,,,,,,,,,,,,,,,,,,,,,,,sub-051,1.0,random_dot,60.01820952477024,
right,right,,9.0,0.0,18.0,1.0,,,,,,,,,132.0015448,,,,,,,,,131.98664599999998,132.10184610000002,132.91837740000005,132.9027943,132.90285960000003,132.91837740000005,132.91837740000005,132.91837740000005,,134.61983990000002,right,1.0,20.194255500000025,,134.6209009,134.6328895,135.11810670000003,135.13292299999998,,,,,,,,,,,,,,,,,,,,,,,,,sub-051,1.0,random_dot,60.01820952477024,
left,left,,9.0,1.0,19.0,0.0,,,,,,,,,135.13292299999998,,,,,,,,,135.1190084,135.93297959999998,136.7329258,136.7172156,136.7172467,136.7329258,136.7329258,136.7329258,,140.0494092,left,1.0,21.81166719999996,,140.05000900000002,140.0632686,140.5472088,140.56313350000002,,,,,,,,,,,,,,,,,,,,,,,,,sub-051,1.0,random_dot,60.01820952477024,
,,,,,,,,,,,,,,,,,,,,,,,,,,,,,,,,,,,,,,,,,,140.5473165,140.56313350000002,140.56313350000002,150.5439732,space,28.4663558,,,,,,,,,,,,,,,,,,,sub-051,1.0,random_dot,60.01820952477024,
,,,,,,,,,,,,,,,,,,,,,,,,,,,,,,,,,,,,,,,,,,,,,,,,,150.5440743,150.55800509999997,150.55800509999997,165.43659,space,33.3623886,,,,,,,,,,,,sub-051,1.0,random_dot,60.01820952477024,
right,right,accuracy,,,,,0.0,0.0,0.0,0.0,0.0,0.0,0.0,1.0,170.3816001,,,,,,,,,170.3773141,170.73017309999997,171.53037049999998,171.5141925,171.5142435,171.53037049999998,171.53037049999998,171.53037049999998,,175.51483,right,1.0,22.463198699999992,,,,,,,,,,,,,,,,,,,,165.44469869999998,165.47943970000003,165.47943970000003,170.36609919999998,space,23.377268699999973,,,,,sub-051,1.0,random_dot,60.01820952477024,
left,left,accuracy,,,,,0.0,0.0,0.0,0.0,0.0,1.0,1.0,0.0,175.52722709999998,,,,,,,,,175.5180035,176.3270677,177.1275962,177.11227520000003,177.11233180000002,177.1275962,177.1275962,177.1275962,,181.6780571,right,0.0,23.03415299999997,,,,,,,,,,,,,,,,,,,,,,,,,,,,,,sub-051,1.0,random_dot,60.01820952477024,
left,left,accuracy,,,,,0.0,0.0,0.0,0.0,1.0,0.0,2.0,0.0,181.6905449,,,,,,,,,181.6803795,182.4906322,183.3072094,183.2917209,183.2917683,183.3072094,183.3072094,183.3072094,188.3048962,188.8572713,right,0.0,24.03029049999995,,,,,,,,,,,,,,,,,,,,,,,,,,,,,,sub-051,1.0,random_dot,60.01820952477024,
right,right,accuracy,,,,,0.0,0.0,0.0,0.0,1.0,1.0,3.0,1.0,188.869995,,,,,,,,,188.8590174,189.2197128,190.0202206,190.0046636,190.00472470000005,190.0202206,190.0202206,190.0202206,,192.2723555,left,0.0,20.745880400000004,,,,,,,,,,,,,,,,,,,,,,,,,,,,,,sub-051,1.0,random_dot,60.01820952477024,
right,right,accuracy,,,,,0.0,0.0,0.0,0.0,2.0,0.0,4.0,1.0,192.2844074,,,,,,,,,192.2741629,193.48446550000003,194.2847732,194.2693463,194.2693988,194.2847732,194.2847732,194.2847732,,198.9004438,right,1.0,23.100898099999966,,,,,,,,,,,,,,,,,,,,,,,,,,,,,,sub-051,1.0,random_dot,60.01820952477024,
left,left,accuracy,,,,,0.0,0.0,0.0,0.0,2.0,1.0,5.0,0.0,198.9147462,,,,,,,,,198.9019837,199.2641962,200.0648709,200.0486687,200.0487078,200.0648709,200.0648709,200.0648709,,201.8328357,left,1.0,20.25879289999997,,,,,,,,,,,,,,,,,,,,,,,,,,,,,,sub-051,1.0,random_dot,60.01820952477024,
left,left,accuracy,,,,,0.0,0.0,0.0,0.0,3.0,0.0,6.0,0.0,201.846258,,,,,,,,,201.8346205,202.1957679,202.9967429,202.9797084,202.9797336,202.9967429,202.9967429,202.9967429,,206.5319205,left,1.0,22.02821209999999,,,,,,,,,,,,,,,,,,,,,,,,,,,,,,sub-051,1.0,random_dot,60.01820952477024,
right,right,accuracy,,,,,0.0,0.0,0.0,0.0,3.0,1.0,7.0,1.0,206.5436947,,,,,,,,,206.5334242,207.3430588,208.1439773,208.1277213,208.127769,208.1439773,208.1439773,208.1439773,,210.8615851,right,1.0,21.197893800000003,,,,,,,,,,,,,,,,,,,,,,,,,,,,,,sub-051,1.0,random_dot,60.01820952477024,
left,left,accuracy,,,,,0.0,0.0,0.0,0.0,4.0,0.0,8.0,0.0,210.8746775,,,,,,,,,210.8633034,211.2245395,212.0248294,212.0091881,212.0092321,212.0248294,212.0248294,212.0248294,,215.7756729,left,1.0,22.243221299999988,,,,,,,,,,,,,,,,,,,,,,,,,,,,,,sub-051,1.0,random_dot,60.01820952477024,
right,right,accuracy,,,,,0.0,0.0,0.0,0.0,4.0,1.0,9.0,1.0,215.7882091,,,,,,,,,215.7776193,216.5879404,217.3884724,217.3724916,217.3725393,217.3884724,217.3884724,217.3884724,222.3856618,222.5226468,left,0.0,23.62850949999998,,,,,,,,,,,,,,,,,,,,,,,,,,,,,,sub-051,1.0,random_dot,60.01820952477024,
left,left,accuracy,,,,,0.0,0.0,0.0,0.0,5.0,0.0,10.0,0.0,222.5345126,,,,,,,,,222.5243015,222.6346252,223.4351281,223.4200888,223.4201449,223.4351281,223.4351281,223.4351281,,227.4354821,left,1.0,22.49339660000001,,,,,,,,,,,,,,,,,,,,,,,,,,,,,,sub-051,1.0,random_dot,60.01820952477024,
right,right,accuracy,,,,,0.0,0.0,0.0,0.0,5.0,1.0,11.0,1.0,227.448754,,,,,,,,,227.43682450000003,227.5487198,228.3491816,228.33347970000003,228.3335255,228.3491816,228.3491816,228.3491816,,232.4504328,right,1.0,22.58085779999996,,,,,,,,,,,,,,,,,,,,,,,,,,,,,,sub-051,1.0,random_dot,60.01820952477024,
left,left,accuracy,,,,,0.0,0.0,0.0,0.0,6.0,0.0,12.0,0.0,232.4631313,,,,,,,,,232.4521541,233.2622243,234.0625518,234.0477602,234.04781240000003,234.0625518,234.0625518,234.0625518,,237.69747020000003,right,0.0,22.112724999999983,,,,,,,,,,,,,,,,,,,,,,,,,,,,,,sub-051,1.0,random_dot,60.01820952477024,
right,right,accuracy,,,,,0.0,0.0,0.0,0.0,6.0,1.0,13.0,1.0,237.7100756,,,,,,,,,237.6992083,238.5092748,239.3094537,239.2947044,239.2947646,239.3094537,239.3094537,239.3094537,244.3072245,245.2086707,left,0.0,24.38874730000001,,,,,,,,,,,,,,,,,,,,,,,,,,,,,,sub-051,1.0,random_dot,60.01820952477024,
left,left,accuracy,,,,,0.0,0.0,0.0,0.0,7.0,0.0,14.0,0.0,245.222444,,,,,,,,,245.2104599,245.3220587,246.12256040000003,246.1074473,246.1074898,246.12256040000003,246.12256040000003,246.12256040000003,,250.2562589,left,1.0,22.62289429999996,,,,,,,,,,,,,,,,,,,,,,,,,,,,,,sub-051,1.0,random_dot,60.01820952477024,
right,right,accuracy,,,,,0.0,0.0,0.0,0.0,7.0,1.0,15.0,1.0,250.269312,,,,,,,,,250.2580273,251.0692771,251.8695327,251.853218,251.8532576,251.8695327,251.8695327,251.8695327,,255.5545705,right,1.0,22.179334999999952,,,,,,,,,,,,,,,,,,,,,,,,,,,,,,sub-051,1.0,random_dot,60.01820952477024,
left,left,accuracy,,,,,0.0,0.0,0.0,0.0,8.0,0.0,16.0,0.0,255.5663665,,,,,,,,,255.5562601,256.3660578,257.1661877,257.15040309999995,257.15044720000003,257.1661877,257.1661877,257.1661877,,261.4336575,left,1.0,22.75559820000001,,,,,,,,,,,,,,,,,,,,,,,,,,,,,,sub-051,1.0,random_dot,60.01820952477024,
right,right,accuracy,,,,,0.0,0.0,0.0,0.0,8.0,1.0,17.0,1.0,261.44667100000004,,,,,,,,,261.4352785,262.24658,263.04693080000004,263.03036050000003,263.03040780000003,263.04693080000004,263.04693080000004,263.04693080000004,,265.53116950000003,left,0.0,20.970578700000036,,,,,,,,,,,,,,,,,,,,,,,,,,,,,,sub-051,1.0,random_dot,60.01820952477024,
right,right,accuracy,,,,,0.0,0.0,0.0,0.0,9.0,0.0,18.0,1.0,265.5442151,,,,,,,,,265.53313419999995,265.89425329999995,266.69447190000005,266.6789437,266.6789871,266.69447190000005,266.69447190000005,266.69447190000005,,269.6948381,right,1.0,21.48354990000001,,,,,,,,,,,,,,,,,,,,,,,,,,,,,,sub-051,1.0,random_dot,60.01820952477024,
left,left,accuracy,,,,,0.0,0.0,0.0,0.0,9.0,1.0,19.0,0.0,269.70768210000006,,,,,,,,,269.69637220000004,270.0583384,270.8584326,270.8431952,270.84323770000003,270.8584326,270.8584326,270.8584326,275.856546,276.22492120000004,left,1.0,23.853633899999977,,,,,,,,,,,,,,,,,,,,,,,,,,,,,,sub-051,1.0,random_dot,60.01820952477024,
right,right,accuracy,,,,,0.0,0.0,0.0,0.0,10.0,0.0,20.0,1.0,276.238333,,,,,,,,,276.2267317,276.5881995,277.388915,277.37219200000004,277.37223800000004,277.388915,277.388915,277.388915,282.3860222,282.52267500000005,right,1.0,23.613304599999992,,,,,,,,,,,,,,,,,,,,,,,,,,,,,,sub-051,1.0,random_dot,60.01820952477024,
left,left,accuracy,,,,,0.0,0.0,0.0,0.0,10.0,1.0,21.0,0.0,282.5349252,,,,,,,,,282.52428510000004,283.33438880000006,284.13544360000003,284.11883950000004,284.1188991,284.13544360000003,284.13544360000003,284.13544360000003,289.1323191,289.4358427,left,1.0,23.7934113,,,,,,,,,,,,,,,,,,,,,,,,,,,,,,sub-051,1.0,random_dot,60.01820952477024,
right,right,accuracy,,,,,0.0,0.0,0.0,0.0,11.0,0.0,22.0,1.0,289.44784200000004,,,,,,,,,289.4375172,290.2472742,291.0476718,291.0325282,291.0325786,291.0476718,291.0476718,291.0476718,,292.1001411,left,0.0,19.537297299999977,,,,,,,,,,,,,,,,,,,,,,,,,,,,,,sub-051,1.0,random_dot,60.01820952477024,
left,left,accuracy,,,,,0.0,0.0,0.0,0.0,11.0,1.0,23.0,0.0,292.1130122,,,,,,,,,292.1019375,292.21313840000005,293.0133235,292.99770320000005,292.9977622,293.0133235,293.0133235,293.0133235,,296.7795099,left,1.0,22.251691900000026,,,,,,,,,,,,,,,,,,,,,,,,,,,,,,sub-051,1.0,random_dot,60.01820952477024,
left,left,accuracy,,,,,0.0,0.0,0.0,0.0,12.0,0.0,24.0,0.0,296.79341839999995,,,,,,,,,296.7807255,297.1434123,297.94405229999995,297.9282174,297.92826030000003,297.94405229999995,297.94405229999995,297.94405229999995,,300.44510649999995,right,0.0,20.98652899999996,,,,,,,,,,,,,,,,,,,,,,,,,,,,,,sub-051,1.0,random_dot,60.01820952477024,
right,right,accuracy,,,,,0.0,0.0,0.0,0.0,12.0,1.0,25.0,1.0,300.4582227,,,,,,,,,300.4468912,300.5585103,301.35887890000004,301.3426515,301.3427017,301.35887890000004,301.35887890000004,301.35887890000004,,305.5087429,left,0.0,22.640092100000004,,,,,,,,,,,,,,,,,,,,,,,,,,,,,,sub-051,1.0,random_dot,60.01820952477024,
left,left,accuracy,,,,,0.0,0.0,0.0,0.0,13.0,0.0,26.0,0.0,305.522371,,,,,,,,,305.51033959999995,306.72193360000006,307.5223334,307.5066512,307.5067037,307.5223334,307.5223334,307.5223334,312.5192099,312.80505689999995,right,0.0,23.76818099999997,,,,,,,,,,,,,,,,,,,,,,,,,,,,,,sub-051,1.0,random_dot,60.01820952477024,
right,right,accuracy,,,,,0.0,0.0,0.0,0.0,13.0,1.0,27.0,1.0,312.81834260000005,,,,,,,,,312.8068949,313.1683663,313.9686894,313.9524818,313.95252689999995,313.9686894,313.9686894,313.9686894,318.96603430000005,319.434532,right,1.0,23.95683200000002,,,,,,,,,,,,,,,,,,,,,,,,,,,,,,sub-051,1.0,random_dot,60.01820952477024,
right,right,accuracy,,,,,0.0,0.0,0.0,0.0,14.0,0.0,28.0,1.0,319.44806270000004,,,,,,,,,319.43655590000003,320.2475711,321.0484087,321.03238380000005,321.0324431,321.0484087,321.0484087,321.0484087,,325.0323794,left,0.0,22.47810039999996,,,,,,,,,,,,,,,,,,,,,,,,,,,,,,sub-051,1.0,random_dot,60.01820952477024,
left,left,accuracy,,,,,0.0,0.0,0.0,0.0,14.0,1.0,29.0,0.0,325.044767,,,,,,,,,325.0341642,325.1448874,325.9454148,325.92971910000006,325.9297639,325.9454148,325.9454148,325.9454148,,329.8287223,right,0.0,22.364272399999948,,,,,,,,,,,,,,,,,,,,,,,,,,,,,,sub-051,1.0,random_dot,60.01820952477024,
right,right,accuracy,,,,,0.0,0.0,0.0,0.0,15.0,0.0,30.0,1.0,329.8422415,,,,,,,,,329.8305051,329.9421804,330.74275650000004,330.72681120000004,330.72686710000005,330.74275650000004,330.74275650000004,330.74275650000004,335.7397522,335.7920901,left,0.0,23.54116240000002,,,,,,,,,,,,,,,,,,,,,,,,,,,,,,sub-051,1.0,random_dot,60.01820952477024,
left,left,accuracy,,,,,0.0,0.0,0.0,0.0,15.0,1.0,31.0,0.0,335.80512309999995,,,,,,,,,335.7951709,337.0050123,337.8052493,337.789216,337.7892726,337.8052493,337.8052493,337.8052493,,341.5400562,left,1.0,22.22646070000002,,,,,,,,,,,,,,,,,,,,,,,,,,,,,,sub-051,1.0,random_dot,60.01820952477024,
left,left,accuracy,,,,,0.0,0.0,0.0,0.0,16.0,0.0,32.0,0.0,341.5530481999999,,,,,,,,,341.5416338,342.3519933,343.152432,343.1362402,343.1362947,343.152432,343.152432,343.152432,348.1498405,348.5183587,right,0.0,23.846700000000112,,,,,,,,,,,,,,,,,,,,,,,,,,,,,,sub-051,1.0,random_dot,60.01820952477024,
right,right,accuracy,,,,,0.0,0.0,0.0,0.0,16.0,1.0,33.0,1.0,348.5319098,,,,,,,,,348.5200841,348.88196229999994,349.6975436,349.6812721,349.6813205,349.6975436,349.6975436,349.6975436,,353.7147757,right,1.0,22.509638300000063,,,,,,,,,,,,,,,,,,,,,,,,,,,,,,sub-051,1.0,random_dot,60.01820952477024,
right,right,accuracy,,,,,0.0,0.0,0.0,0.0,17.0,0.0,34.0,1.0,353.7282177999999,,,,,,,,,353.7163441,354.0792106,354.8959785,354.87986579999995,354.8799207999999,354.8959785,354.8959785,354.8959785,,358.9123724,right,1.0,22.506637900000044,,,,,,,,,,,,,,,,,,,,,,,,,,,,,,sub-051,1.0,random_dot,60.01820952477024,
left,left,accuracy,,,,,0.0,0.0,0.0,0.0,17.0,1.0,35.0,0.0,358.9263026,,,,,,,,,358.9144438999999,359.2758231,360.07642279999993,360.06024289999993,360.0602895999999,360.07642279999993,360.07642279999993,360.07642279999993,,364.85992809999993,left,1.0,23.261865500000056,,,,,,,,,,,,,,,,,,,,,,,,,,,,,,sub-051,1.0,random_dot,60.01820952477024,
right,right,accuracy,,,,,0.0,0.0,0.0,0.0,18.0,0.0,36.0,1.0,364.8727359999999,,,,,,,,,364.86172149999993,365.6726244,366.4726584,366.4571539,366.4572091,366.4726584,366.4726584,366.4726584,,370.5399361,right,1.0,22.551533699999997,,,,,,,,,,,,,,,,,,,,,,,,,,,,,,sub-051,1.0,random_dot,60.01820952477024,
left,left,accuracy,,,,,0.0,0.0,0.0,0.0,18.0,1.0,37.0,0.0,370.5526765,,,,,,,,,370.5418136999999,370.9029964,371.7198105,371.7040804,371.7041322,371.7198105,371.7198105,371.7198105,,375.953744,right,0.0,22.726236700000012,,,,,,,,,,,,,,,,,,,,,,,,,,,,,,sub-051,1.0,random_dot,60.01820952477024,
right,right,accuracy,,,,,0.0,0.0,0.0,0.0,19.0,0.0,38.0,1.0,375.9665927,,,,,,,,,375.9555618,376.066704,376.8675932,376.850907,376.8509618,376.8675932,376.8675932,376.8675932,381.8641473,382.1338959,left,0.0,23.75491990000006,,,,,,,,,,,,,,,,,,,,,,,,,,,,,,sub-051,1.0,random_dot,60.01820952477024,
left,left,accuracy,,,,,0.0,0.0,0.0,0.0,19.0,1.0,39.0,0.0,382.1467342,,,,,,,,,382.1357026,382.4967194999999,383.2968866,383.2815591,383.2816044,383.2968866,383.2968866,383.2968866,,388.1135788,left,1.0,23.30809620000008,,,,,,,,,,,,,,,,,,,,,,,,,,,,,,sub-051,1.0,random_dot,60.01820952477024,
left,left,accuracy,,,,,0.0,0.0,0.0,0.0,20.0,0.0,40.0,0.0,388.126614,,,,,,,,,388.1153838,389.3263832,390.1263622,390.11079699999993,390.110839,390.1263622,390.1263622,390.1263622,395.1237953,395.2761514,left,1.0,23.63210900000007,,,,,,,,,,,,,,,,,,,,,,,,,,,,,,sub-051,1.0,random_dot,60.01820952477024,
right,right,accuracy,,,,,0.0,0.0,0.0,0.0,20.0,1.0,41.0,1.0,395.2890556,,,,,,,,,395.2779937,395.6389289,396.4395297,396.4242198,396.4242785,396.4395297,396.4395297,396.4395297,,400.6400239,right,1.0,22.69233470000012,,,,,,,,,,,,,,,,,,,,,,,,,,,,,,sub-051,1.0,random_dot,60.01820952477024,
left,left,accuracy,,,,,0.0,0.0,0.0,0.0,21.0,0.0,42.0,0.0,400.6532063,,,,,,,,,400.6417858,401.4527196,402.2531202,402.2365493,402.2366026,402.2531202,402.2531202,402.2531202,407.2503465,409.0018660999999,left,1.0,25.22799340000012,,,,,,,,,,,,,,,,,,,,,,,,,,,,,,sub-051,1.0,random_dot,60.01820952477024,
right,right,accuracy,,,,,0.0,0.0,0.0,0.0,21.0,1.0,43.0,1.0,409.0150378999999,,,,,,,,,409.0036589,409.1148791,409.9305883999999,409.9148768,409.9149549,409.9305883999999,409.9305883999999,409.9305883999999,,413.7495708,left,0.0,22.30510520000001,,,,,,,,,,,,,,,,,,,,,,,,,,,,,,sub-051,1.0,random_dot,60.01820952477024,
right,right,accuracy,,,,,0.0,0.0,0.0,0.0,22.0,0.0,44.0,1.0,413.7624025,,,,,,,,,413.7513842999999,414.9620199,415.7624331,415.7461984,415.7462415,415.7624331,415.7624331,415.7624331,420.7595604,421.3457639,right,1.0,24.07090239999997,,,,,,,,,,,,,,,,,,,,,,,,,,,,,,sub-051,1.0,random_dot,60.01820952477024,
left,left,accuracy,,,,,0.0,0.0,0.0,0.0,22.0,1.0,45.0,0.0,421.3580598,,,,,,,,,421.3474573,421.458135,422.25842119999993,422.24262809999993,422.2426823999999,422.25842119999993,422.25842119999993,422.25842119999993,,426.8244204,right,0.0,23.04583150000002,,,,,,,,,,,,,,,,,,,,,,,,,,,,,,sub-051,1.0,random_dot,60.01820952477024,
right,right,accuracy,,,,,0.0,0.0,0.0,0.0,23.0,0.0,46.0,1.0,426.8384254,,,,,,,,,426.8256156,427.6389135,428.4553447999999,428.43946399999993,428.4395114,428.4553447999999,428.4553447999999,428.4553447999999,433.4525858,433.8558389,right,1.0,23.885056700000007,,,,,,,,,,,,,,,,,,,,,,,,,,,,,,sub-051,1.0,random_dot,60.01820952477024,
left,left,accuracy,,,,,0.0,0.0,0.0,0.0,23.0,1.0,47.0,0.0,433.8681685,,,,,,,,,433.8575624,434.2178144999999,435.0180128999999,435.0026737,435.0027317,435.0180128999999,435.0180128999999,435.0180128999999,440.0152151,440.2340711,left,1.0,23.697377399999997,,,,,,,,,,,,,,,,,,,,,,,,,,,,,,sub-051,1.0,random_dot,60.01820952477024,
right,right,accuracy,,,,,0.0,0.0,0.0,0.0,24.0,0.0,48.0,1.0,440.2476502,,,,,,,,,440.2354943,441.0474188,441.8484422,441.8319877,441.8320365,441.8484422,441.8484422,441.8484422,,445.9629592,left,0.0,22.60277750000006,,,,,,,,,,,,,,,,,,,,,,,,,,,,,,sub-051,1.0,random_dot,60.01820952477024,
left,left,accuracy,,,,,0.0,0.0,0.0,0.0,24.0,1.0,49.0,0.0,445.9765619,,,,,,,,,445.9638014,446.0775463,446.878479,446.8620973999999,446.86214,446.878479,446.878479,446.878479,,451.1444859,right,0.0,22.751252700000062,,,,,,,,,,,,,,,,,,,,,,,,,,,,,,sub-051,1.0,random_dot,60.01820952477024,
left,left,accuracy,,,,,0.0,0.0,0.0,0.0,25.0,0.0,50.0,0.0,451.1581782,,,,,,,,,451.14643,451.9578348,452.7584757999999,452.743071,452.7431062,452.7584757999999,452.7584757999999,452.7584757999999,457.7551199999999,458.1584587,left,1.0,23.88106970000007,,,,,,,,,,,,,,,,,,,,,,,,,,,,,,sub-051,1.0,random_dot,60.01820952477024,
right,right,accuracy,,,,,0.0,0.0,0.0,0.0,25.0,1.0,51.0,1.0,458.1714001,,,,,,,,,458.1602449,458.5208752,459.3211587999999,459.3042052999999,459.3042279,459.3211587999999,459.3211587999999,459.3211587999999,,462.6540567,right,1.0,21.82349770000002,,,,,,,,,,,,,,,,,,,,,,,,,,,,,,sub-051,1.0,random_dot,60.01820952477024,
right,right,accuracy,,,,,0.0,0.0,0.0,0.0,26.0,0.0,52.0,1.0,462.6683557,,,,,,,,,462.6551036999999,463.86785,464.6683335,464.6518363,464.6518785999999,464.6683335,464.6683335,464.6683335,,468.2342398999999,left,0.0,22.059154300000102,,,,,,,,,,,,,,,,,,,,,,,,,,,,,,sub-051,1.0,random_dot,60.01820952477024,
left,left,accuracy,,,,,0.0,0.0,0.0,0.0,26.0,1.0,53.0,0.0,468.2485108999999,,,,,,,,,468.2356288,469.4482363,470.2488552,470.2326729,470.23271019999993,470.2488552,470.2488552,470.2488552,,474.6323011999999,right,0.0,22.86289019999998,,,,,,,,,,,,,,,,,,,,,,,,,,,,,,sub-051,1.0,random_dot,60.01820952477024,
left,left,accuracy,,,,,0.0,0.0,0.0,0.0,27.0,0.0,54.0,0.0,474.6450626,,,,,,,,,474.6341322999999,474.9956842,475.7955592,475.7795362,475.7795718,475.7955592,475.7955592,475.7955592,,479.462999,right,0.0,22.15187320000001,,,,,,,,,,,,,,,,,,,,,,,,,,,,,,sub-051,1.0,random_dot,60.01820952477024,
right,right,accuracy,,,,,0.0,0.0,0.0,0.0,27.0,1.0,55.0,1.0,479.4759801,,,,,,,,,479.4648528,480.6758194,481.4758941,481.4608287,481.4608819,481.4758941,481.4758941,481.4758941,486.47324789999993,486.7740918999999,left,0.0,23.785206300000084,,,,,,,,,,,,,,,,,,,,,,,,,,,,,,sub-051,1.0,random_dot,60.01820952477024,
right,right,accuracy,,,,,0.0,0.0,0.0,0.0,28.0,0.0,56.0,1.0,486.7883943,,,,,,,,,486.7754132,486.8890341,487.689047,487.67310509999993,487.6731535,487.689047,487.689047,487.689047,,491.6725422999999,right,1.0,22.46751660000001,,,,,,,,,,,,,,,,,,,,,,,,,,,,,,sub-051,1.0,random_dot,60.01820952477024,
left,left,accuracy,,,,,0.0,0.0,0.0,0.0,28.0,1.0,57.0,0.0,491.6859463999999,,,,,,,,,491.6743177,492.885065,493.685444,493.6704523,493.6704947,493.685444,493.685444,493.685444,498.682586,499.0366002,right,0.0,23.84524190000002,,,,,,,,,,,,,,,,,,,,,,,,,,,,,,sub-051,1.0,random_dot,60.01820952477024,
right,right,accuracy,,,,,0.0,0.0,0.0,0.0,29.0,0.0,58.0,1.0,499.0486809,,,,,,,,,499.0385426,499.39905049999993,500.2156423,500.1991614,500.1991985,500.2156423,500.2156423,500.2156423,505.2130871,505.5319098,right,1.0,23.797088099999883,,,,,,,,,,,,,,,,,,,,,,,,,,,,,,sub-051,1.0,random_dot,60.01820952477024,
left,left,accuracy,,,,,0.0,0.0,0.0,0.0,29.0,1.0,59.0,0.0,505.54501529999993,,,,,,,,,505.5334775,506.34435439999993,507.1450497999999,507.1291362,507.129185,507.1450497999999,507.1450497999999,507.1450497999999,512.1424334999999,512.4607186999999,left,1.0,23.805585900000096,,,,,,,,,,,,,,,,,,,,,,,,,,,,,,sub-051,1.0,random_dot,60.01820952477024,
,,accuracy,,,,,0.0,0.0,0.0,0.0,,,,,,,,,,,,,,,,,,,,,,,,,,,,,,,,,,,,,,,,,,,,,,,,,,,,,,,,sub-051,1.0,random_dot,60.01820952477024,
left,left,speed,,,,,0.0,1.0,1.0,1.0,0.0,0.0,0.0,0.0,517.2454673999999,,,,,,,,,517.2405192,518.4211302,519.2213866999999,519.2052628,519.2053114,519.2213866999999,519.2213866999999,519.2213866999999,,519.9573415,right,0.0,19.220986299999936,,,,,,,,,,,,,,,,,,,,512.4620567,512.4763081,512.4763081,517.2088712999999,space,23.22672609999995,,,,,sub-051,1.0,random_dot,60.01820952477024,
right,right,speed,,,,,0.0,1.0,1.0,1.0,0.0,1.0,1.0,1.0,519.9703344999999,,,,,,,,,519.9592802,521.1697427,521.9701233,521.9541184999999,521.9541537,521.9701233,521.9701233,521.9701233,,522.8392767,right,1.0,19.35688880000009,,,,,,,,,,,,,,,,,,,,,,,,,,,,,,sub-051,1.0,random_dot,60.01820952477024,
left,left,speed,,,,,0.0,1.0,1.0,1.0,1.0,0.0,2.0,0.0,522.8520904,,,,,,,,,522.8408072999999,524.0513432,524.8520765999999,524.8357138,524.8357588,524.8520765999999,524.8520765999999,524.8520765999999,,525.6870996,left,1.0,19.32533509999996,,,,,,,,,,,,,,,,,,,,,,,,,,,,,,sub-051,1.0,random_dot,60.01820952477024,
right,right,speed,,,,,0.0,1.0,1.0,1.0,1.0,1.0,3.0,1.0,525.7003844,,,,,,,,,525.689571,525.8002827,526.6010127,526.584561,526.5845969,526.6010127,526.6010127,526.6010127,,527.8883513,right,1.0,19.774959500000136,,,,,,,,,,,,,,,,,,,,,,,,,,,,,,sub-051,1.0,random_dot,60.01820952477024,
left,left,speed,,,,,0.0,1.0,1.0,1.0,2.0,0.0,4.0,0.0,527.8993869,,,,,,,,,527.8896927,529.0988807,529.8990071,529.8827239999999,529.8827652,529.8990071,529.8990071,529.8990071,,531.1008403999999,left,1.0,19.69215300000008,,,,,,,,,,,,,,,,,,,,,,,,,,,,,,sub-051,1.0,random_dot,60.01820952477024,
right,right,speed,,,,,0.0,1.0,1.0,1.0,2.0,1.0,5.0,1.0,531.114253,,,,,,,,,531.1023739999999,531.4639396,532.2645603999999,532.2480723,532.24812,532.2645603999999,532.2645603999999,532.2645603999999,,534.1488266,left,0.0,20.371467099999904,,,,,,,,,,,,,,,,,,,,,,,,,,,,,,sub-051,1.0,random_dot,60.01820952477024,
right,right,speed,,,,,0.0,1.0,1.0,1.0,3.0,0.0,6.0,1.0,534.1623429,,,,,,,,,534.1501737,534.5122765,535.3127607,535.2964863,535.2965296,535.3127607,535.3127607,535.3127607,,535.9979243,right,1.0,19.177070800000024,,,,,,,,,,,,,,,,,,,,,,,,,,,,,,sub-051,1.0,random_dot,60.01820952477024,
left,left,speed,,,,,0.0,1.0,1.0,1.0,3.0,1.0,7.0,0.0,536.011455,,,,,,,,,535.9993346,536.8108786,537.6115454,537.5949105,537.5949452,537.6115454,537.6115454,537.6115454,,538.2473835,left,1.0,19.127743999999893,,,,,,,,,,,,,,,,,,,,,,,,,,,,,,sub-051,1.0,random_dot,60.01820952477024,
right,right,speed,,,,,0.0,1.0,1.0,1.0,4.0,0.0,8.0,1.0,538.2602673,,,,,,,,,538.2487942,538.3601523,539.1606317,539.143926,539.1439551999999,539.1606317,539.1606317,539.1606317,,540.3788988,right,1.0,19.69953610000005,,,,,,,,,,,,,,,,,,,,,,,,,,,,,,sub-051,1.0,random_dot,60.01820952477024,
left,left,speed,,,,,0.0,1.0,1.0,1.0,4.0,1.0,9.0,0.0,540.3923407999999,,,,,,,,,540.3801078,540.4923662,541.2929938,541.2764020999999,541.2764351,541.2929938,541.2929938,541.2929938,,542.5435797,left,1.0,19.731082899999933,,,,,,,,,,,,,,,,,,,,,,,,,,,,,,sub-051,1.0,random_dot,60.01820952477024,
left,left,speed,,,,,0.0,1.0,1.0,1.0,5.0,0.0,10.0,0.0,542.5575636,,,,,,,,,542.5448682,542.9074463,543.708038,543.6915336,543.6915679,543.708038,543.708038,543.708038,,545.2931781999999,left,1.0,20.0760808,,,,,,,,,,,,,,,,,,,,,,,,,,,,,,sub-051,1.0,random_dot,60.01820952477024,
right,right,speed,,,,,0.0,1.0,1.0,1.0,5.0,1.0,11.0,1.0,545.3061435999999,,,,,,,,,545.2950544,546.5058187999999,547.3060793,547.2907546,547.290806,547.3060793,547.3060793,547.3060793,,548.2086257,right,1.0,19.38954609999996,,,,,,,,,,,,,,,,,,,,,,,,,,,,,,sub-051,1.0,random_dot,60.01820952477024,
right,right,speed,,,,,0.0,1.0,1.0,1.0,6.0,0.0,12.0,1.0,548.2214624999999,,,,,,,,,548.2106451,549.0210979,549.8215405999999,549.8056624,549.8057355999999,549.8215405999999,549.8215405999999,549.8215405999999,,550.7232947,left,0.0,19.382937999999967,,,,,,,,,,,,,,,,,,,,,,,,,,,,,,sub-051,1.0,random_dot,60.01820952477024,
left,left,speed,,,,,0.0,1.0,1.0,1.0,6.0,1.0,13.0,0.0,550.7369387,,,,,,,,,550.7250852999999,551.0866540999999,551.8872097,551.8714286,551.8714954,551.8872097,551.8872097,551.8872097,,552.7056742,right,0.0,19.30148420000012,,,,,,,,,,,,,,,,,,,,,,,,,,,,,,sub-051,1.0,random_dot,60.01820952477024,
left,left,speed,,,,,0.0,1.0,1.0,1.0,7.0,0.0,14.0,0.0,552.7189662999999,,,,,,,,,552.7075354,552.8191839,553.6195954,553.6031492999999,553.6032114,553.6195954,553.6195954,553.6195954,,554.6215152999999,left,1.0,19.485675300000025,,,,,,,,,,,,,,,,,,,,,,,,,,,,,,sub-051,1.0,random_dot,60.01820952477024,
right,right,speed,,,,,0.0,1.0,1.0,1.0,7.0,1.0,15.0,1.0,554.6346421999999,,,,,,,,,554.623254,555.4343041,556.2350484,556.2190109,556.2190597,556.2350484,556.2350484,556.2350484,,557.0204838,right,1.0,19.2738106999999,,,,,,,,,,,,,,,,,,,,,,,,,,,,,,sub-051,1.0,random_dot,60.01820952477024,
right,right,speed,,,,,0.0,1.0,1.0,1.0,8.0,0.0,16.0,1.0,557.0330445999999,,,,,,,,,557.0224118,557.3834982,558.1838452,558.1676719999999,558.1677583,558.1838452,558.1838452,558.1838452,,559.1686346,left,0.0,19.477946000000088,,,,,,,,,,,,,,,,,,,,,,,,,,,,,,sub-051,1.0,random_dot,60.01820952477024,
left,left,speed,,,,,0.0,1.0,1.0,1.0,8.0,1.0,17.0,0.0,559.1820933,,,,,,,,,559.1704264,559.9820416,560.7822265,560.7662722,560.7663213999999,560.7822265,560.7822265,560.7822265,,561.651606,left,1.0,19.35504880000008,,,,,,,,,,,,,,,,,,,,,,,,,,,,,,sub-051,1.0,random_dot,60.01820952477024,
left,left,speed,,,,,0.0,1.0,1.0,1.0,9.0,0.0,18.0,0.0,561.6643153,,,,,,,,,561.6532347,562.463581,563.264139,563.2485803999999,563.2486325,563.264139,563.264139,563.264139,,564.0990315,left,1.0,19.32197220000012,,,,,,,,,,,,,,,,,,,,,,,,,,,,,,sub-051,1.0,random_dot,60.01820952477024,
right,right,speed,,,,,0.0,1.0,1.0,1.0,9.0,1.0,19.0,1.0,564.1127260999999,,,,,,,,,564.1007915,564.4626483,565.2631007,565.2464239999999,565.2464716,565.2631007,565.2631007,565.2631007,,565.7835139,right,1.0,19.014324200000143,,,,,,,,,,,,,,,,,,,,,,,,,,,,,,sub-051,1.0,random_dot,60.01820952477024,
right,right,speed,,,,,0.0,1.0,1.0,1.0,10.0,0.0,20.0,1.0,565.7953271,,,,,,,,,565.7852649,566.9944928,567.7949917,567.7788767,567.7789335,567.7949917,567.7949917,567.7949917,,568.6807858999999,left,0.0,19.3699309000001,,,,,,,,,,,,,,,,,,,,,,,,,,,,,,sub-051,1.0,random_dot,60.01820952477024,
left,left,speed,,,,,0.0,1.0,1.0,1.0,10.0,1.0,21.0,0.0,568.6931531,,,,,,,,,568.6831105,568.7936406,569.5937305,569.5780271,569.5780695,569.5937305,569.5937305,569.5937305,,570.9125709,right,0.0,19.800952199999983,,,,,,,,,,,,,,,,,,,,,,,,,,,,,,sub-051,1.0,random_dot,60.01820952477024,
right,right,speed,,,,,0.0,1.0,1.0,1.0,11.0,0.0,22.0,1.0,570.9257639,,,,,,,,,570.9141010999999,572.1252791,572.9255403999999,572.9097184,572.9097638999999,572.9255403999999,572.9255403999999,572.9255403999999,,574.0612515,right,1.0,19.619539099999884,,,,,,,,,,,,,,,,,,,,,,,,,,,,,,sub-051,1.0,random_dot,60.01820952477024,
left,left,speed,,,,,0.0,1.0,1.0,1.0,11.0,1.0,23.0,0.0,574.0735933999999,,,,,,,,,574.0631735,575.2732893,576.0740875,576.0576892,576.0577469,576.0740875,576.0740875,576.0740875,,576.6930658,left,1.0,19.103456900000083,,,,,,,,,,,,,,,,,,,,,,,,,,,,,,sub-051,1.0,random_dot,60.01820952477024,
right,right,speed,,,,,0.0,1.0,1.0,1.0,12.0,0.0,24.0,1.0,576.7058023999999,,,,,,,,,576.6949453999999,577.9054328,578.7057798999999,578.6895724,578.6896131999999,578.7057798999999,578.7057798999999,578.7057798999999,,579.5241712,right,1.0,19.309610800000087,,,,,,,,,,,,,,,,,,,,,,,,,,,,,,sub-051,1.0,random_dot,60.01820952477024,
left,left,speed,,,,,0.0,1.0,1.0,1.0,12.0,1.0,25.0,0.0,579.5376203999999,,,,,,,,,579.525819,580.3372317999999,581.1376365,581.1225492,581.1226072,581.1376365,581.1376365,581.1376365,,582.1403626,left,1.0,19.48804270000005,,,,,,,,,,,,,,,,,,,,,,,,,,,,,,sub-051,1.0,random_dot,60.01820952477024,
right,right,speed,,,,,0.0,1.0,1.0,1.0,13.0,0.0,26.0,1.0,582.1526986,,,,,,,,,582.1423616999999,582.2527026,583.0532681999999,583.0370313999999,583.0370697999999,583.0532681999999,583.0532681999999,583.0532681999999,,583.907165,right,1.0,19.34773130000008,,,,,,,,,,,,,,,,,,,,,,,,,,,,,,sub-051,1.0,random_dot,60.01820952477024,
left,left,speed,,,,,0.0,1.0,1.0,1.0,13.0,1.0,27.0,0.0,583.9188955,,,,,,,,,583.9087036999999,584.0189095999999,584.8189909,584.803551,584.8036003999999,584.8189909,584.8189909,584.8189909,,585.7870515999999,left,1.0,19.451501400000097,,,,,,,,,,,,,,,,,,,,,,,,,,,,,,sub-051,1.0,random_dot,60.01820952477024,
right,right,speed,,,,,0.0,1.0,1.0,1.0,14.0,0.0,28.0,1.0,585.8007398999999,,,,,,,,,585.7896913999999,586.1506292,586.951121,586.9354311,586.9355092,586.951121,586.951121,586.951121,,587.8034658,left,0.0,19.34554700000001,,,,,,,,,,,,,,,,,,,,,,,,,,,,,,sub-051,1.0,random_dot,60.01820952477024,
left,left,speed,,,,,0.0,1.0,1.0,1.0,14.0,1.0,29.0,0.0,587.8162143,,,,,,,,,587.8053828,587.9168338,588.7335481,588.7171,588.7171726,588.7335481,588.7335481,588.7335481,,589.4693692,left,1.0,19.21787109999991,,,,,,,,,,,,,,,,,,,,,,,,,,,,,,sub-051,1.0,random_dot,60.01820952477024,
right,right,speed,,,,,0.0,1.0,1.0,1.0,15.0,0.0,30.0,1.0,589.4820882,,,,,,,,,589.4709045,589.8320732999999,590.6323371,590.6162167,590.6162567,590.6323371,590.6323371,590.6323371,,591.2349823999999,right,1.0,19.09645679999994,,,,,,,,,,,,,,,,,,,,,,,,,,,,,,sub-051,1.0,random_dot,60.01820952477024,
left,left,speed,,,,,0.0,1.0,1.0,1.0,15.0,1.0,31.0,0.0,591.2477294,,,,,,,,,591.2366524,591.5981568,592.4152043,592.3992276,592.3993009,592.4152043,592.4152043,592.4152043,,593.2000759,left,1.0,19.272935800000027,,,,,,,,,,,,,,,,,,,,,,,,,,,,,,sub-051,1.0,random_dot,60.01820952477024,
right,right,speed,,,,,0.0,1.0,1.0,1.0,16.0,0.0,32.0,1.0,593.2133992,,,,,,,,,593.2018704,593.313449,594.1138784999999,594.0972370999999,594.0972633,594.1138784999999,594.1138784999999,594.1138784999999,,594.8490449,right,1.0,19.224263300000075,,,,,,,,,,,,,,,,,,,,,,,,,,,,,,sub-051,1.0,random_dot,60.01820952477024,
left,left,speed,,,,,0.0,1.0,1.0,1.0,16.0,1.0,33.0,0.0,594.8624523,,,,,,,,,594.8506917,594.9625353,595.7632133999999,595.7471481,595.7471858,595.7632133999999,595.7632133999999,595.7632133999999,,596.4810083,left,1.0,19.203151200000093,,,,,,,,,,,,,,,,,,,,,,,,,,,,,,sub-051,1.0,random_dot,60.01820952477024,
left,left,speed,,,,,0.0,1.0,1.0,1.0,17.0,0.0,34.0,0.0,596.4951507,,,,,,,,,596.4825612,597.2947975999999,598.1115196999999,598.09613,598.0961757,598.1115196999999,598.1115196999999,598.1115196999999,,598.7805581,right,0.0,19.1516127000001,,,,,,,,,,,,,,,,,,,,,,,,,,,,,,sub-051,1.0,random_dot,60.01820952477024,
right,right,speed,,,,,0.0,1.0,1.0,1.0,17.0,1.0,35.0,1.0,598.7937554,,,,,,,,,598.7824147,599.9930582999999,600.7933782,600.7770965,600.7771392999999,600.7933782,600.7933782,600.7933782,,601.3287045,left,0.0,19.024281400000064,,,,,,,,,,,,,,,,,,,,,,,,,,,,,,sub-051,1.0,random_dot,60.01820952477024,
right,right,speed,,,,,0.0,1.0,1.0,1.0,18.0,0.0,36.0,1.0,601.341957,,,,,,,,,601.3309094,602.5417953,603.3419705,603.3264535,603.3265083,603.3419705,603.3419705,603.3419705,,603.977187,left,0.0,19.125481299999933,,,,,,,,,,,,,,,,,,,,,,,,,,,,,,sub-051,1.0,random_dot,60.01820952477024,
left,left,speed,,,,,0.0,1.0,1.0,1.0,18.0,1.0,37.0,0.0,603.9908243,,,,,,,,,603.9789511,604.3408832,605.1408197,605.1252572,605.1253037,605.1408197,605.1408197,605.1408197,,605.8434088,left,1.0,19.181593799999973,,,,,,,,,,,,,,,,,,,,,,,,,,,,,,sub-051,1.0,random_dot,60.01820952477024,
left,left,speed,,,,,0.0,1.0,1.0,1.0,19.0,0.0,38.0,0.0,605.8567051,,,,,,,,,605.8450048,606.2060835999999,607.0067771,606.9909444,606.9909954,607.0067771,607.0067771,607.0067771,,607.809118,left,1.0,19.293736100000046,,,,,,,,,,,,,,,,,,,,,,,,,,,,,,sub-051,1.0,random_dot,60.01820952477024,
right,right,speed,,,,,0.0,1.0,1.0,1.0,19.0,1.0,39.0,1.0,607.8218856,,,,,,,,,607.8110256,608.1715072,608.9723399,608.956506,608.9565529,608.9723399,608.9723399,608.9723399,,609.7242527999999,left,0.0,19.23223459999997,,,,,,,,,,,,,,,,,,,,,,,,,,,,,,sub-051,1.0,random_dot,60.01820952477024,
left,left,speed,,,,,0.0,1.0,1.0,1.0,20.0,0.0,40.0,0.0,609.7377240999999,,,,,,,,,609.7261752,610.087692,610.8878837999999,610.8727897,610.8728404,610.8878837999999,610.8878837999999,610.8878837999999,,611.8064607,left,1.0,19.400453500000022,,,,,,,,,,,,,,,,,,,,,,,,,,,,,,sub-051,1.0,random_dot,60.01820952477024,
right,right,speed,,,,,0.0,1.0,1.0,1.0,20.0,1.0,41.0,1.0,611.8197501,,,,,,,,,611.8083041,612.1696706,612.9699406,612.9543523,612.9544062,612.9699406,612.9699406,612.9699406,,613.8887066,left,0.0,19.40254010000001,,,,,,,,,,,,,,,,,,,,,,,,,,,,,,sub-051,1.0,random_dot,60.01820952477024,
left,left,speed,,,,,0.0,1.0,1.0,1.0,21.0,0.0,42.0,0.0,613.9020112,,,,,,,,,613.8905976,614.7013516,615.5019398,615.4858350999999,615.4858818,615.5019398,615.5019398,615.5019398,,616.3037998,left,1.0,19.29223210000009,,,,,,,,,,,,,,,,,,,,,,,,,,,,,,sub-051,1.0,random_dot,60.01820952477024,
right,right,speed,,,,,0.0,1.0,1.0,1.0,21.0,1.0,43.0,1.0,616.3171957999999,,,,,,,,,616.3055448,617.5163669,618.3169709,618.3007408999999,618.3007855,618.3169709,618.3169709,618.3169709,,619.6038195,right,1.0,19.779841199999964,,,,,,,,,,,,,,,,,,,,,,,,,,,,,,sub-051,1.0,random_dot,60.01820952477024,
left,left,speed,,,,,0.0,1.0,1.0,1.0,22.0,0.0,44.0,0.0,619.6152337,,,,,,,,,619.6053582999999,619.9653154,620.7659097999999,620.7499044,620.7499422999999,620.7659097999999,620.7659097999999,620.7659097999999,,621.9176130999999,left,1.0,19.63339989999997,,,,,,,,,,,,,,,,,,,,,,,,,,,,,,sub-051,1.0,random_dot,60.01820952477024,
right,right,speed,,,,,0.0,1.0,1.0,1.0,22.0,1.0,45.0,1.0,621.9308935,,,,,,,,,621.9195161,623.130195,623.9310636,623.9146211,623.9146781,623.9310636,623.9310636,623.9310636,,625.1159494,right,1.0,19.670835099999977,,,,,,,,,,,,,,,,,,,,,,,,,,,,,,sub-051,1.0,random_dot,60.01820952477024,
left,left,speed,,,,,0.0,1.0,1.0,1.0,23.0,0.0,46.0,0.0,625.1291347,,,,,,,,,625.1177077,625.2292927,626.0297443,626.0129632,626.0129956,626.0297443,626.0297443,626.0297443,,626.7655437999999,left,1.0,19.222024000000147,,,,,,,,,,,,,,,,,,,,,,,,,,,,,,sub-051,1.0,random_dot,60.01820952477024,
right,right,speed,,,,,0.0,1.0,1.0,1.0,23.0,1.0,47.0,1.0,626.777826,,,,,,,,,626.767216,627.1279228,627.9286951,627.9124466999999,627.9124949,627.9286951,627.9286951,627.9286951,,628.7973118,right,1.0,19.354004799999984,,,,,,,,,,,,,,,,,,,,,,,,,,,,,,sub-051,1.0,random_dot,60.01820952477024,
left,left,speed,,,,,0.0,1.0,1.0,1.0,24.0,0.0,48.0,0.0,628.8103826,,,,,,,,,628.7989639,630.0096404,630.8102883,630.7949128,630.7949603999999,630.8102883,630.8102883,630.8102883,,632.1615492,left,1.0,19.837081700000116,,,,,,,,,,,,,,,,,,,,,,,,,,,,,,sub-051,1.0,random_dot,60.01820952477024,
right,right,speed,,,,,0.0,1.0,1.0,1.0,24.0,1.0,49.0,1.0,632.1753579,,,,,,,,,632.1628188,633.374746,634.1916129,634.1766312,634.1766802,634.1916129,634.1916129,634.1916129,,635.6940318,right,1.0,19.98422089999997,,,,,,,,,,,,,,,,,,,,,,,,,,,,,,sub-051,1.0,random_dot,60.01820952477024,
right,right,speed,,,,,0.0,1.0,1.0,1.0,25.0,0.0,50.0,1.0,635.7066665,,,,,,,,,635.6959812,636.0562377,636.8568891,636.8411225,636.8411742999999,636.8568891,636.8568891,636.8568891,,637.924868,left,0.0,19.548273600000016,,,,,,,,,,,,,,,,,,,,,,,,,,,,,,sub-051,1.0,random_dot,60.01820952477024,
left,left,speed,,,,,0.0,1.0,1.0,1.0,25.0,1.0,51.0,0.0,637.9389565,,,,,,,,,637.9267738,638.2885173,639.088989,639.0735013,639.0735536999999,639.088989,639.088989,639.088989,,639.9238832999999,left,1.0,19.322141900000133,,,,,,,,,,,,,,,,,,,,,,,,,,,,,,sub-051,1.0,random_dot,60.01820952477024,
left,left,speed,,,,,0.0,1.0,1.0,1.0,26.0,0.0,52.0,0.0,639.937567,,,,,,,,,639.9256856,641.1370928,641.9374035,641.9217193,641.9217745999999,641.9374035,641.9374035,641.9374035,,642.8061068999999,right,0.0,19.35971559999996,,,,,,,,,,,,,,,,,,,,,,,,,,,,,,sub-051,1.0,random_dot,60.01820952477024,
right,right,speed,,,,,0.0,1.0,1.0,1.0,26.0,1.0,53.0,1.0,642.8194182,,,,,,,,,642.8079031,642.9192218,643.7199162,643.704078,643.7041256,643.7199162,643.7199162,643.7199162,,645.6866567,right,1.0,20.45515720000003,,,,,,,,,,,,,,,,,,,,,,,,,,,,,,sub-051,1.0,random_dot,60.01820952477024,
left,left,speed,,,,,0.0,1.0,1.0,1.0,27.0,0.0,54.0,0.0,645.700753,,,,,,,,,645.6882297999999,646.5004392,647.3010492999999,647.2847831,647.2848418,647.3010492999999,647.3010492999999,647.3010492999999,,648.0867284999999,left,1.0,19.26945860000012,,,,,,,,,,,,,,,,,,,,,,,,,,,,,,sub-051,1.0,random_dot,60.01820952477024,
right,right,speed,,,,,0.0,1.0,1.0,1.0,27.0,1.0,55.0,1.0,648.0995889,,,,,,,,,648.0887839,649.2988629,650.0998304999999,650.0837213,650.0837742,650.0998304999999,650.0998304999999,650.0998304999999,,652.4001462,right,1.0,20.78441050000015,,,,,,,,,,,,,,,,,,,,,,,,,,,,,,sub-051,1.0,random_dot,60.01820952477024,
right,right,speed,,,,,0.0,1.0,1.0,1.0,28.0,0.0,56.0,1.0,652.4142279,,,,,,,,,652.4018473,653.6135992999999,654.4137856,654.398026,654.3980836999999,654.4137856,654.4137856,654.4137856,,655.3322165999999,right,1.0,19.40075840000009,,,,,,,,,,,,,,,,,,,,,,,,,,,,,,sub-051,1.0,random_dot,60.01820952477024,
left,left,speed,,,,,0.0,1.0,1.0,1.0,28.0,1.0,57.0,0.0,655.3456203,,,,,,,,,655.3339424,655.4455018,656.2462509999999,656.230991,656.2310494999999,656.2462509999999,656.2462509999999,656.2462509999999,,657.3145961,left,1.0,19.55172119999997,,,,,,,,,,,,,,,,,,,,,,,,,,,,,,sub-051,1.0,random_dot,60.01820952477024,
right,right,speed,,,,,0.0,1.0,1.0,1.0,29.0,0.0,58.0,1.0,657.3280907,,,,,,,,,657.3163393,658.527532,659.327766,659.3120751,659.312133,659.327766,659.327766,659.327766,,660.1465486999999,left,0.0,19.3086019000001,,,,,,,,,,,,,,,,,,,,,,,,,,,,,,sub-051,1.0,random_dot,60.01820952477024,
left,left,speed,,,,,0.0,1.0,1.0,1.0,29.0,1.0,59.0,0.0,660.1598200999999,,,,,,,,,660.148136,660.9596825,661.7765757999999,661.7605837,661.7606241,661.7765757999999,661.7765757999999,661.7765757999999,,663.0612021,left,1.0,19.76510239999993,,,,,,,,,,,,,,,,,,,,,,,,,,,,,,sub-051,1.0,random_dot,60.01820952477024,
,,speed,,,,,0.0,1.0,1.0,1.0,,,,,,,,,,,,,,,,,,,,,,,,,,,,,,,,,,,,,,,,,,,,,,,,,,,,,,,,sub-051,1.0,random_dot,60.01820952477024,
,,,,,,,,,,,,,,,,,,,,,,,,,,,,,,,,,,,,,,,,,,,,,,,,,,,,,,,,,,,,,,,663.0626466,663.0748281,668.0725238,sub-051,,,,
