wordCTK,colorCTK,corrAnsCTK,congruentCTK,thisN,thisTrialN,thisRepN,keyResp_CTK.keys,keyResp_CTK.corr,keyResp_CTK.rt,keyResp_CTK.duration,wordPractice,colorPractice,corrAnsPractice,congruentPractice,respPractice.keys,respPractice.corr,respPractice.rt,respPractice.duration,word,color,corrAns,congruent,keyResp_test_run.keys,keyResp_test_run.corr,keyResp_test_run.rt,keyResp_test_run.duration,trials_CTK.thisRepN,trials_CTK.thisTrialN,trials_CTK.thisN,trials_CTK.thisIndex,trials_practice.thisRepN,trials_practice.thisTrialN,trials_practice.thisN,trials_practice.thisIndex,trials_test.thisRepN,trials_test.thisTrialN,trials_test.thisN,trials_test.thisIndex,thisRow.t,notes,instruction.started,instr_text.started,instr_image.started,instr_resp.started,instruction.stopped,instr_resp.keys,instr_resp.rt,instr_resp.duration,instr_color_to_key.started,instr_ctk.started,resp_ctk.started,instr_color_to_key.stopped,resp_ctk.keys,resp_ctk.rt,resp_ctk.duration,ITI.started,fixcross.started,fixcross.stopped,ITI.stopped,color_to_key_run.started,stimulus_CTK.started,keyResp_CTK.started,color_to_key_run.stopped,trials_CTK.keyResp_CTK.keys,trials_CTK.keyResp_CTK.corr,trials_CTK.keyResp_CTK.rt,trials_CTK.keyResp_CTK.duration,instr_practice.started,instr_practice_text.started,instr_practice_resp.started,instr_practice.stopped,instr_practice_resp.keys,instr_practice_resp.rt,instr_practice_resp.duration,practice_run.started,stimulus_practice.started,respPractice.started,practice_run.stopped,trials_practice.respPractice.keys,trials_practice.respPractice.corr,trials_practice.respPractice.rt,trials_practice.respPractice.duration,feedback.started,textFeedback.started,feedback.stopped,textFeedback.stopped,instr_test.started,instr_test_text.started,instr_test_resp.started,instr_test.stopped,instr_test_resp.keys,instr_test_resp.rt,instr_test_resp.duration,test_run.started,stimulus_test_run.started,keyResp_test_run.started,test_run.stopped,trials_test.keyResp_test_run.keys,trials_test.keyResp_test_run.corr,trials_test.keyResp_test_run.rt,trials_test.keyResp_test_run.duration,goodbye.started,textGoodbye.started,goodbye.stopped,participant,session,date,expName,psychopyVersion,frameRate,expStart
,,,,,,,,,,,,,,,,,,,,,,,,,,,,,,,,,,,,,,,,,0.0033367,0.089877,0.089877,0.089877,103.1269336,space,103.0185416,None,,,,,,,,,,,,,,,,,,,,,,,,,,,,,,,,,,,,,,,,,,,,,,,,,,,,,,,,,sub-208,1,2025-03-12_11h40.31.037,stroop_test,04.02.2024,60.06604863,2025-03-12 11h40.41.069211 +0100
,,,,,,,,,,,,,,,,,,,,,,,,,,,,,,,,,,,,,,,,,,,,,,,,,103.1270239,103.1397568,103.1397568,114.3829277,space,11.2376215,None,,,,,,,,,,,,,,,,,,,,,,,,,,,,,,,,,,,,,,,,,,,,,,,,,,sub-208,1,2025-03-12_11h40.31.037,stroop_test,04.02.2024,60.06604863,2025-03-12 11h40.41.069211 +0100
test,red,r,1,0,0,0,r,1,0.484445,None,,,,,,,,,,,,,,,,,0,0,0,0,,,,,,,,,114.4057549,,,,,,,,,,,,,,,,,114.4007464,115.5986462,116.412745,116.3835078,116.407487,116.412745,116.412745,116.9014458,r,1,0.484445,None,,,,,,,,,,,,,,,,,,,,,,,,,,,,,,,,,,,,,,sub-208,1,2025-03-12_11h40.31.037,stroop_test,04.02.2024,60.06604863,2025-03-12 11h40.41.069211 +0100
test,yellow,g,1,1,1,0,g,1,1.0402312,None,,,,,,,,,,,,,,,,,0,1,1,1,,,,,,,,,116.9158581,,,,,,,,,,,,,,,,,116.9019986,117.7162744,118.5173925,118.5013628,118.502039,118.5173925,118.5173925,119.5700699,g,1,1.0402312,None,,,,,,,,,,,,,,,,,,,,,,,,,,,,,,,,,,,,,,sub-208,1,2025-03-12_11h40.31.037,stroop_test,04.02.2024,60.06604863,2025-03-12 11h40.41.069211 +0100
test,blue,b,1,2,2,0,b,1,0.4412394,None,,,,,,,,,,,,,,,,,0,2,2,2,,,,,,,,,119.5843116,,,,,,,,,,,,,,,,,119.570774,120.7857018,121.5858234,121.5700309,121.5707633,121.5858234,121.5858234,122.0380804,b,1,0.4412394,None,,,,,,,,,,,,,,,,,,,,,,,,,,,,,,,,,,,,,,sub-208,1,2025-03-12_11h40.31.037,stroop_test,04.02.2024,60.06604863,2025-03-12 11h40.41.069211 +0100
test,red,r,1,3,0,1,r,1,0.6429449,None,,,,,,,,,,,,,,,,,1,0,3,0,,,,,,,,,122.0526408,,,,,,,,,,,,,,,,,122.0385418,122.4029584,123.2037552,123.1879149,123.1885741,123.2037552,123.2037552,123.8559036,r,1,0.6429449,None,,,,,,,,,,,,,,,,,,,,,,,,,,,,,,,,,,,,,,sub-208,1,2025-03-12_11h40.31.037,stroop_test,04.02.2024,60.06604863,2025-03-12 11h40.41.069211 +0100
test,yellow,g,1,4,1,1,g,1,0.7048846,None,,,,,,,,,,,,,,,,,1,1,4,1,,,,,,,,,123.8709489,,,,,,,,,,,,,,,,,123.8563481,124.2210887,125.0213654,125.0057343,125.0062239,125.0213654,125.0213654,125.7403351,g,1,0.7048846,None,,,,,,,,,,,,,,,,,,,,,,,,,,,,,,,,,,,,,,sub-208,1,2025-03-12_11h40.31.037,stroop_test,04.02.2024,60.06604863,2025-03-12 11h40.41.069211 +0100
test,blue,b,1,5,2,1,b,1,0.5705103,None,,,,,,,,,,,,,,,,,1,2,5,2,,,,,,,,,125.755168,,,,,,,,,,,,,,,,,125.7407969,126.1053461,126.9061767,126.8905247,126.8911826,126.9061767,126.9061767,127.4918849,b,1,0.5705103,None,,,,,,,,,,,,,,,,,,,,,,,,,,,,,,,,,,,,,,sub-208,1,2025-03-12_11h40.31.037,stroop_test,04.02.2024,60.06604863,2025-03-12 11h40.41.069211 +0100
test,blue,b,1,6,0,2,b,1,1.0387567,None,,,,,,,,,,,,,,,,,2,0,6,2,,,,,,,,,127.5063035,,,,,,,,,,,,,,,,,127.492619,128.3069161,129.1074833,129.0917079,129.0924908,129.1074833,129.1074833,130.1599945,b,1,1.0387567,None,,,,,,,,,,,,,,,,,,,,,,,,,,,,,,,,,,,,,,sub-208,1,2025-03-12_11h40.31.037,stroop_test,04.02.2024,60.06604863,2025-03-12 11h40.41.069211 +0100
test,red,r,1,7,1,2,r,1,0.477418,None,,,,,,,,,,,,,,,,,2,1,7,0,,,,,,,,,130.1750258,,,,,,,,,,,,,,,,,130.1605974,131.3592006,132.1599133,132.1441677,132.1448247,132.1599133,132.1599133,132.6452922,r,1,0.477418,None,,,,,,,,,,,,,,,,,,,,,,,,,,,,,,,,,,,,,,sub-208,1,2025-03-12_11h40.31.037,stroop_test,04.02.2024,60.06604863,2025-03-12 11h40.41.069211 +0100
test,yellow,g,1,8,2,2,g,1,0.5966126,None,,,,,,,,,,,,,,,,,2,2,8,1,,,,,,,,,132.6603445,,,,,,,,,,,,,,,,,132.6457422,133.0102397,133.8107934,133.7949656,133.7957347,133.8107934,133.8107934,134.4130412,g,1,0.5966126,None,,,,,,,,,,,,,,,,,,,,,,,,,,,,,,,,,,,,,,sub-208,1,2025-03-12_11h40.31.037,stroop_test,04.02.2024,60.06604863,2025-03-12 11h40.41.069211 +0100
test,yellow,g,1,9,0,3,g,1,0.6881256,None,,,,,,,,,,,,,,,,,3,0,9,1,,,,,,,,,134.4281909,,,,,,,,,,,,,,,,,134.4135614,134.7782743,135.578957,135.5631526,135.5639529,135.578957,135.578957,136.280966,g,1,0.6881256,None,,,,,,,,,,,,,,,,,,,,,,,,,,,,,,,,,,,,,,sub-208,1,2025-03-12_11h40.31.037,stroop_test,04.02.2024,60.06604863,2025-03-12 11h40.41.069211 +0100
test,blue,b,1,10,1,3,b,1,0.6093384,None,,,,,,,,,,,,,,,,,3,1,10,2,,,,,,,,,136.296067,,,,,,,,,,,,,,,,,136.2814169,136.6463096,137.4469231,137.430665,137.4314422,137.4469231,137.4469231,138.0654129,b,1,0.6093384,None,,,,,,,,,,,,,,,,,,,,,,,,,,,,,,,,,,,,,,sub-208,1,2025-03-12_11h40.31.037,stroop_test,04.02.2024,60.06604863,2025-03-12 11h40.41.069211 +0100
test,red,r,1,11,2,3,r,1,0.4057972,None,,,,,,,,,,,,,,,,,3,2,11,0,,,,,,,,,138.0804045,,,,,,,,,,,,,,,,,138.0659211,138.4304756,139.231409,139.2159011,139.2167435,139.231409,139.231409,139.6501804,r,1,0.4057972,None,,,,,,,,,,,,,,,,,,,,,,,,,,,,,,,,,,,,,,sub-208,1,2025-03-12_11h40.31.037,stroop_test,04.02.2024,60.06604863,2025-03-12 11h40.41.069211 +0100
,,,,,,,,,,,,,,,,,,,,,,,,,,,,,,,,,,,,,,,,,,,,,,,,,,,,,,,,,,,,,,,,,,,,139.6504028,139.6651635,139.6651635,147.291675,space,7.6226591,None,,,,,,,,,,,,,,,,,,,,,,,,,,,,,,,sub-208,1,2025-03-12_11h40.31.037,stroop_test,04.02.2024,60.06604863,2025-03-12 11h40.41.069211 +0100
,,,,0,0,0,,,,,gelb,yellow,g,1,g,1,1.0777037,None,,,,,,,,,,,,,0,0,0,11,,,,,147.3139358,,,,,,,,,,,,,,,,,147.3092559,148.5043167,149.3191548,149.2888367,,,,,,,,,,,,,,,,149.3114635,149.3191548,149.3191548,150.4072011,g,1,1.0777037,None,150.4297384,150.4412944,151.4231717,,,,,,,,,,,,,,,,,,,,sub-208,1,2025-03-12_11h40.31.037,stroop_test,04.02.2024,60.06604863,2025-03-12 11h40.41.069211 +0100
,,,,1,1,0,,,,,gelb,yellow,g,1,g,1,0.5793412,None,,,,,,,,,,,,,0,1,1,10,,,,,151.4399482,,,,,,,,,,,,,,,,,151.4236764,152.207057,153.0073777,152.9921059,,,,,,,,,,,,,,,,152.9928494,153.0073777,153.0073777,153.5918941,g,1,0.5793412,None,153.5924284,153.60749,154.592241,,,,,,,,,,,,,,,,,,,,sub-208,1,2025-03-12_11h40.31.037,stroop_test,04.02.2024,60.06604863,2025-03-12 11h40.41.069211 +0100
,,,,2,2,0,,,,,rot,blue,b,0,b,1,1.4647143,None,,,,,,,,,,,,,0,2,2,2,,,,,154.6086167,,,,,,,,,,,,,,,,,154.5927391,155.7924494,156.5932399,156.5779103,,,,,,,,,,,,,,,,156.5867078,156.5932399,156.5932399,158.0626718,b,1,1.4647143,None,158.0634428,158.0775614,159.0623335,159.0779754,,,,,,,,,,,,,,,,,,,sub-208,1,2025-03-12_11h40.31.037,stroop_test,04.02.2024,60.06604863,2025-03-12 11h40.41.069211 +0100
,,,,3,3,0,,,,,gelb,blue,b,0,b,1,0.9044612,None,,,,,,,,,,,,,0,3,3,9,,,,,159.0779754,,,,,,,,,,,,,,,,,159.062728,159.8619127,160.6628803,160.6472102,,,,,,,,,,,,,,,,160.6521496,160.6628803,160.6628803,161.5819149,b,1,0.9044612,None,161.5826763,161.5966766,162.581664,162.5969706,,,,,,,,,,,,,,,,,,,sub-208,1,2025-03-12_11h40.31.037,stroop_test,04.02.2024,60.06604863,2025-03-12 11h40.41.069211 +0100
,,,,4,4,0,,,,,rot,red,r,1,r,1,0.5687574,None,,,,,,,,,,,,,0,4,4,0,,,,,162.5969706,,,,,,,,,,,,,,,,,162.582109,162.6969958,163.4977335,163.4824144,,,,,,,,,,,,,,,,163.4879145,163.4977335,163.4977335,164.0839302,r,1,0.5687574,None,164.084765,164.0986799,165.0837524,165.0991725,,,,,,,,,,,,,,,,,,,sub-208,1,2025-03-12_11h40.31.037,stroop_test,04.02.2024,60.06604863,2025-03-12 11h40.41.069211 +0100
,,,,5,5,0,,,,,blau,red,r,0,r,1,0.9310882,None,,,,,,,,,,,,,0,5,5,4,,,,,165.0991725,,,,,,,,,,,,,,,,,165.0841992,165.1989587,166.0163103,165.9837512,,,,,,,,,,,,,,,,166.0080518,166.0163103,166.0163103,166.9521119,r,1,0.9310882,None,166.9529335,166.9668392,167.9521699,167.9677774,,,,,,,,,,,,,,,,,,,sub-208,1,2025-03-12_11h40.31.037,stroop_test,04.02.2024,60.06604863,2025-03-12 11h40.41.069211 +0100
,,,,6,6,0,,,,,blau,yellow,g,0,g,1,0.7544026,None,,,,,,,,,,,,,0,6,6,7,,,,,167.9677774,,,,,,,,,,,,,,,,,167.9527692,168.3011768,169.1020693,169.0860981,,,,,,,,,,,,,,,,169.0868187,169.1020693,169.1020693,169.8704744,g,1,0.7544026,None,169.8712157,169.885519,170.8706762,170.8863553,,,,,,,,,,,,,,,,,,,sub-208,1,2025-03-12_11h40.31.037,stroop_test,04.02.2024,60.06604863,2025-03-12 11h40.41.069211 +0100
,,,,7,7,0,,,,,rot,yellow,g,0,g,1,0.5556481,None,,,,,,,,,,,,,0,7,7,3,,,,,170.8863553,,,,,,,,,,,,,,,,,170.8712149,172.0702872,172.8715099,172.8563759,,,,,,,,,,,,,,,,172.8619224,172.8715099,172.8715099,173.4399422,g,1,0.5556481,None,173.4407516,173.4547457,174.4396838,174.4557281,,,,,,,,,,,,,,,,,,,sub-208,1,2025-03-12_11h40.31.037,stroop_test,04.02.2024,60.06604863,2025-03-12 11h40.41.069211 +0100
,,,,8,8,0,,,,,gelb,red,r,0,r,1,0.6868225,None,,,,,,,,,,,,,0,8,8,8,,,,,174.4557281,,,,,,,,,,,,,,,,,174.4401516,174.7892557,175.5894377,175.5741039,,,,,,,,,,,,,,,,175.5791496,175.5894377,175.5894377,176.2919226,r,1,0.6868225,None,176.2926166,176.30673,177.2918417,177.3075535,,,,,,,,,,,,,,,,,,,sub-208,1,2025-03-12_11h40.31.037,stroop_test,04.02.2024,60.06604863,2025-03-12 11h40.41.069211 +0100
,,,,9,9,0,,,,,blau,blue,b,1,b,1,0.7889757,None,,,,,,,,,,,,,0,9,9,6,,,,,177.3075535,,,,,,,,,,,,,,,,,177.2923343,177.4077851,178.2079169,178.1924977,,,,,,,,,,,,,,,,178.1974916,178.2079169,178.2079169,179.0106612,b,1,0.7889757,None,179.0113881,179.0253396,180.0102592,180.0259051,,,,,,,,,,,,,,,,,,,sub-208,1,2025-03-12_11h40.31.037,stroop_test,04.02.2024,60.06604863,2025-03-12 11h40.41.069211 +0100
,,,,10,10,0,,,,,blau,blue,b,1,b,1,0.6404693,None,,,,,,,,,,,,,0,10,10,5,,,,,180.0259051,,,,,,,,,,,,,,,,,180.0107557,180.1262275,180.9265802,180.9107369,,,,,,,,,,,,,,,,180.9114404,180.9265802,180.9265802,181.5791238,b,1,0.6404693,None,181.5798883,181.5935276,182.5787625,182.5944662,,,,,,,,,,,,,,,,,,,sub-208,1,2025-03-12_11h40.31.037,stroop_test,04.02.2024,60.06604863,2025-03-12 11h40.41.069211 +0100
,,,,11,11,0,,,,,rot,red,r,1,r,1,0.6881963,None,,,,,,,,,,,,,0,11,11,1,,,,,182.5944662,,,,,,,,,,,,,,,,,182.5794527,183.3780934,184.178676,184.1631181,,,,,,,,,,,,,,,,184.1684816,184.178676,184.178676,184.8814109,r,1,0.6881963,None,184.8821365,184.8962918,185.8811172,185.8965987,,,,,,,,,,,,,,,,,,,sub-208,1,2025-03-12_11h40.31.037,stroop_test,04.02.2024,60.06604863,2025-03-12 11h40.41.069211 +0100
,,,,12,0,1,,,,,rot,blue,b,0,b,1,1.210824,None,,,,,,,,,,,,,1,0,12,2,,,,,185.8965987,,,,,,,,,,,,,,,,,185.881557,185.9966748,186.7971893,186.7815261,,,,,,,,,,,,,,,,186.782318,186.7971893,186.7971893,188.0169028,b,1,1.210824,None,188.0176729,188.0317167,189.0168826,189.031888,,,,,,,,,,,,,,,,,,,sub-208,1,2025-03-12_11h40.31.037,stroop_test,04.02.2024,60.06604863,2025-03-12 11h40.41.069211 +0100
,,,,13,1,1,,,,,gelb,red,r,0,r,1,1.9003482,None,,,,,,,,,,,,,1,1,13,8,,,,,189.031888,,,,,,,,,,,,,,,,,189.017341,189.8162609,190.6164794,190.6009506,,,,,,,,,,,,,,,,190.6069202,190.6164794,190.6164794,192.5199693,r,1,1.9003482,None,192.520709,192.5348194,193.5195717,193.5349932,,,,,,,,,,,,,,,,,,,sub-208,1,2025-03-12_11h40.31.037,stroop_test,04.02.2024,60.06604863,2025-03-12 11h40.41.069211 +0100
,,,,14,2,1,,,,,blau,red,r,0,r,1,0.7868395,None,,,,,,,,,,,,,1,2,14,4,,,,,193.5349932,,,,,,,,,,,,,,,,,193.52001,194.7195134,195.5201417,195.5043895,,,,,,,,,,,,,,,,195.5095874,195.5201417,195.5201417,196.3223033,r,1,0.7868395,None,196.323071,196.3371036,197.3226785,197.3380338,,,,,,,,,,,,,,,,,,,sub-208,1,2025-03-12_11h40.31.037,stroop_test,04.02.2024,60.06604863,2025-03-12 11h40.41.069211 +0100
,,,,15,3,1,,,,,gelb,blue,b,0,b,1,1.3636852,None,,,,,,,,,,,,,1,3,15,9,,,,,197.3380338,,,,,,,,,,,,,,,,,197.3231981,198.1225827,198.9224696,198.9061073,,,,,,,,,,,,,,,,198.9113549,198.9224696,198.9224696,200.2912427,b,1,1.3636852,None,200.2919787,200.3060632,201.2913984,201.3072219,,,,,,,,,,,,,,,,,,,sub-208,1,2025-03-12_11h40.31.037,stroop_test,04.02.2024,60.06604863,2025-03-12 11h40.41.069211 +0100
,,,,16,4,1,,,,,rot,red,r,1,r,1,0.5573319,None,,,,,,,,,,,,,1,4,16,0,,,,,201.3072219,,,,,,,,,,,,,,,,,201.2918167,202.0905379,202.8911343,202.8752131,,,,,,,,,,,,,,,,202.8781851,202.8911343,202.8911343,203.4601094,r,1,0.5573319,None,203.4605472,203.4756307,204.46006,204.4756105,,,,,,,,,,,,,,,,,,,sub-208,1,2025-03-12_11h40.31.037,stroop_test,04.02.2024,60.06604863,2025-03-12 11h40.41.069211 +0100
,,,,17,5,1,,,,,gelb,yellow,g,1,g,1,0.7070371,None,,,,,,,,,,,,,1,5,17,10,,,,,204.4756105,,,,,,,,,,,,,,,,,204.4606382,204.8092332,205.6100797,205.5945637,,,,,,,,,,,,,,,,205.5997246,205.6100797,205.6100797,206.3295307,g,1,0.7070371,None,206.3303091,206.3440373,207.3292556,207.3449076,,,,,,,,,,,,,,,,,,,sub-208,1,2025-03-12_11h40.31.037,stroop_test,04.02.2024,60.06604863,2025-03-12 11h40.41.069211 +0100
,,,,18,6,1,,,,,gelb,yellow,g,1,g,1,0.4829629,None,,,,,,,,,,,,,1,6,18,11,,,,,207.3449076,,,,,,,,,,,,,,,,,207.3297205,207.4447238,208.2454975,208.2300803,,,,,,,,,,,,,,,,208.2308019,208.2454975,208.2454975,208.7313658,g,1,0.4829629,None,208.731982,208.7456531,209.7308834,209.7462919,,,,,,,,,,,,,,,,,,,sub-208,1,2025-03-12_11h40.31.037,stroop_test,04.02.2024,60.06604863,2025-03-12 11h40.41.069211 +0100
,,,,19,7,1,,,,,blau,blue,b,1,b,1,0.7210422,None,,,,,,,,,,,,,1,7,19,5,,,,,209.7462919,,,,,,,,,,,,,,,,,209.7313222,209.8464172,210.6472164,210.6314009,,,,,,,,,,,,,,,,210.6370915,210.6472164,210.6472164,211.3833623,b,1,0.7210422,None,211.3843578,211.3977262,212.3826546,212.3983744,,,,,,,,,,,,,,,,,,,sub-208,1,2025-03-12_11h40.31.037,stroop_test,04.02.2024,60.06604863,2025-03-12 11h40.41.069211 +0100
,,,,20,8,1,,,,,rot,yellow,g,0,g,1,0.7148094,None,,,,,,,,,,,,,1,8,20,3,,,,,212.3983744,,,,,,,,,,,,,,,,,212.3831744,213.1820071,213.9824289,213.9669652,,,,,,,,,,,,,,,,213.9724593,213.9824289,213.9824289,214.7019384,g,1,0.7148094,None,214.7026883,214.716664,215.7015231,215.7170064,,,,,,,,,,,,,,,,,,,sub-208,1,2025-03-12_11h40.31.037,stroop_test,04.02.2024,60.06604863,2025-03-12 11h40.41.069211 +0100
,,,,21,9,1,,,,,blau,blue,b,1,b,1,0.7205237,None,,,,,,,,,,,,,1,9,21,6,,,,,215.7170064,,,,,,,,,,,,,,,,,215.702042,215.8174272,216.617496,216.602468,,,,,,,,,,,,,,,,216.6076283,216.617496,216.617496,217.3535095,b,1,0.7205237,None,217.3542032,217.3680733,218.3536356,218.3687001,,,,,,,,,,,,,,,,,,,sub-208,1,2025-03-12_11h40.31.037,stroop_test,04.02.2024,60.06604863,2025-03-12 11h40.41.069211 +0100
,,,,22,10,1,,,,,rot,red,r,1,r,1,0.5086034,None,,,,,,,,,,,,,1,10,22,1,,,,,218.3687001,,,,,,,,,,,,,,,,,218.3541064,218.4688988,219.2694639,219.2536863,,,,,,,,,,,,,,,,219.2593598,219.2694639,219.2694639,219.7884951,r,1,0.5086034,None,219.7892731,219.8034771,220.7881492,220.8041823,,,,,,,,,,,,,,,,,,,sub-208,1,2025-03-12_11h40.31.037,stroop_test,04.02.2024,60.06604863,2025-03-12 11h40.41.069211 +0100
,,,,23,11,1,,,,,blau,yellow,g,0,g,1,0.9189649,None,,,,,,,,,,,,,1,11,23,7,,,,,220.8041823,,,,,,,,,,,,,,,,,220.7886706,221.1376764,221.9383037,221.9223518,,,,,,,,,,,,,,,,221.9274807,221.9383037,221.9383037,222.8737944,g,1,0.9189649,None,222.8745095,222.8891298,223.8730411,223.8893106,,,,,,,,,,,,,,,,,,,sub-208,1,2025-03-12_11h40.31.037,stroop_test,04.02.2024,60.06604863,2025-03-12 11h40.41.069211 +0100
,,,,,,,,,,,,,,,,,,,,,,,,,,,,,,,,,,,,,,,,,,,,,,,,,,,,,,,,,,,,,,,,,,,,,,,,,,,,,,,,,,,,,,,223.8731852,223.8893106,223.8893106,227.0271998,space,3.128433,None,,,,,,,,,,,,sub-208,1,2025-03-12_11h40.31.037,stroop_test,04.02.2024,60.06604863,2025-03-12 11h40.41.069211 +0100
,,,,0,0,0,,,,,,,,,,,,,rot,yellow,g,0,g,1,1.7749554,None,,,,,,,,,0,0,0,3,227.1241223,,,,,,,,,,,,,,,,,227.046895,228.2426761,229.0431951,229.0268268,,,,,,,,,,,,,,,,,,,,,,,,,,,,,,,,,,,229.0322897,229.0431951,229.0431951,230.829495,g,1,1.7749554,None,,,,sub-208,1,2025-03-12_11h40.31.037,stroop_test,04.02.2024,60.06604863,2025-03-12 11h40.41.069211 +0100
,,,,1,1,0,,,,,,,,,,,,,gelb,red,r,0,r,1,0.6234444,None,,,,,,,,,0,1,1,8,230.8444874,,,,,,,,,,,,,,,,,230.8300703,231.1945963,231.994985,231.9790578,,,,,,,,,,,,,,,,,,,,,,,,,,,,,,,,,,,231.9841724,231.994985,231.994985,232.6311171,r,1,0.6234444,None,,,,sub-208,1,2025-03-12_11h40.31.037,stroop_test,04.02.2024,60.06604863,2025-03-12 11h40.41.069211 +0100
,,,,2,2,0,,,,,,,,,,,,,rot,blue,b,0,b,1,0.6019909,None,,,,,,,,,0,2,2,2,232.6455569,,,,,,,,,,,,,,,,,232.6319465,233.4460164,234.2462789,234.2308425,,,,,,,,,,,,,,,,,,,,,,,,,,,,,,,,,,,234.2368026,234.2462789,234.2462789,234.8653245,b,1,0.6019909,None,,,,sub-208,1,2025-03-12_11h40.31.037,stroop_test,04.02.2024,60.06604863,2025-03-12 11h40.41.069211 +0100
,,,,3,3,0,,,,,,,,,,,,,gelb,yellow,g,1,g,1,0.6367064,None,,,,,,,,,0,3,3,11,234.8803617,,,,,,,,,,,,,,,,,234.8659127,235.2306342,236.0309354,236.01539,,,,,,,,,,,,,,,,,,,,,,,,,,,,,,,,,,,236.0206023,236.0309354,236.0309354,236.683632,g,1,0.6367064,None,,,,sub-208,1,2025-03-12_11h40.31.037,stroop_test,04.02.2024,60.06604863,2025-03-12 11h40.41.069211 +0100
,,,,4,4,0,,,,,,,,,,,,,gelb,blue,b,0,b,1,0.6093585,None,,,,,,,,,0,4,4,9,236.6981007,,,,,,,,,,,,,,,,,236.6841853,237.0484178,237.8489899,237.8333652,,,,,,,,,,,,,,,,,,,,,,,,,,,,,,,,,,,237.834098,237.8489899,237.8489899,238.4683637,b,1,0.6093585,None,,,,sub-208,1,2025-03-12_11h40.31.037,stroop_test,04.02.2024,60.06604863,2025-03-12 11h40.41.069211 +0100
,,,,5,5,0,,,,,,,,,,,,,rot,red,r,1,r,1,0.5235355,None,,,,,,,,,0,5,5,1,238.4829801,,,,,,,,,,,,,,,,,238.4688797,239.6836793,240.4840399,240.4687857,,,,,,,,,,,,,,,,,,,,,,,,,,,,,,,,,,,240.4742988,240.4840399,240.4840399,241.0199692,r,1,0.5235355,None,,,,sub-208,1,2025-03-12_11h40.31.037,stroop_test,04.02.2024,60.06604863,2025-03-12 11h40.41.069211 +0100
,,,,6,6,0,,,,,,,,,,,,,rot,red,r,1,r,1,0.3924897,None,,,,,,,,,0,6,6,0,241.0347409,,,,,,,,,,,,,,,,,241.0205731,241.3848421,242.1852625,242.1697668,,,,,,,,,,,,,,,,,,,,,,,,,,,,,,,,,,,242.1704385,242.1852625,242.1852625,242.5875674,r,1,0.3924897,None,,,,sub-208,1,2025-03-12_11h40.31.037,stroop_test,04.02.2024,60.06604863,2025-03-12 11h40.41.069211 +0100
,,,,7,7,0,,,,,,,,,,,,,blau,blue,b,1,b,1,0.6948957,None,,,,,,,,,0,7,7,5,242.6022722,,,,,,,,,,,,,,,,,242.5881154,242.9528054,243.7531326,243.737278,,,,,,,,,,,,,,,,,,,,,,,,,,,,,,,,,,,243.7427417,243.7531326,243.7531326,244.4562572,b,1,0.6948957,None,,,,sub-208,1,2025-03-12_11h40.31.037,stroop_test,04.02.2024,60.06604863,2025-03-12 11h40.41.069211 +0100
,,,,8,8,0,,,,,,,,,,,,,blau,blue,b,1,b,1,0.7570077,None,,,,,,,,,0,8,8,6,244.4705997,,,,,,,,,,,,,,,,,244.4567883,245.6714937,246.4714798,246.4562512,,,,,,,,,,,,,,,,,,,,,,,,,,,,,,,,,,,246.4570605,246.4714798,246.4714798,247.2407262,b,1,0.7570077,None,,,,sub-208,1,2025-03-12_11h40.31.037,stroop_test,04.02.2024,60.06604863,2025-03-12 11h40.41.069211 +0100
,,,,9,9,0,,,,,,,,,,,,,blau,yellow,g,0,g,1,0.620715,None,,,,,,,,,0,9,9,7,247.2554813,,,,,,,,,,,,,,,,,247.2412841,248.0562181,248.8564593,248.8405205,,,,,,,,,,,,,,,,,,,,,,,,,,,,,,,,,,,248.8412789,248.8564593,248.8564593,249.4923303,g,1,0.620715,None,,,,sub-208,1,2025-03-12_11h40.31.037,stroop_test,04.02.2024,60.06604863,2025-03-12 11h40.41.069211 +0100
,,,,10,10,0,,,,,,,,,,,,,gelb,yellow,g,1,g,1,0.569928,None,,,,,,,,,0,10,10,10,249.5072889,,,,,,,,,,,,,,,,,249.4928626,249.6073774,250.4075645,250.3920054,,,,,,,,,,,,,,,,,,,,,,,,,,,,,,,,,,,250.3980061,250.4075645,250.4075645,250.9933636,g,1,0.569928,None,,,,sub-208,1,2025-03-12_11h40.31.037,stroop_test,04.02.2024,60.06604863,2025-03-12 11h40.41.069211 +0100
,,,,11,11,0,,,,,,,,,,,,,blau,red,r,0,r,1,0.7494394,None,,,,,,,,,0,11,11,4,251.0080451,,,,,,,,,,,,,,,,,250.9939264,252.2091097,253.0094503,252.9938717,,,,,,,,,,,,,,,,,,,,,,,,,,,,,,,,,,,252.9994923,253.0094503,253.0094503,253.7621115,r,1,0.7494394,None,,,,sub-208,1,2025-03-12_11h40.31.037,stroop_test,04.02.2024,60.06604863,2025-03-12 11h40.41.069211 +0100
,,,,12,0,1,,,,,,,,,,,,,blau,yellow,g,0,g,1,0.8913493,None,,,,,,,,,1,0,12,7,253.7766598,,,,,,,,,,,,,,,,,253.7626187,254.1271514,254.927616,254.911839,,,,,,,,,,,,,,,,,,,,,,,,,,,,,,,,,,,254.9126256,254.927616,254.927616,255.8302779,g,1,0.8913493,None,,,,sub-208,1,2025-03-12_11h40.31.037,stroop_test,04.02.2024,60.06604863,2025-03-12 11h40.41.069211 +0100
,,,,13,1,1,,,,,,,,,,,,,rot,red,r,1,r,1,0.8732051,None,,,,,,,,,1,1,13,1,255.8449255,,,,,,,,,,,,,,,,,255.8308325,255.945061,256.7451272,256.7293873,,,,,,,,,,,,,,,,,,,,,,,,,,,,,,,,,,,256.7350411,256.7451272,256.7451272,257.6309378,r,1,0.8732051,None,,,,sub-208,1,2025-03-12_11h40.31.037,stroop_test,04.02.2024,60.06604863,2025-03-12 11h40.41.069211 +0100
,,,,14,2,1,,,,,,,,,,,,,gelb,yellow,g,1,g,1,0.481354,None,,,,,,,,,1,2,14,11,257.6460237,,,,,,,,,,,,,,,,,257.6315266,257.7463013,258.5464147,258.5306809,,,,,,,,,,,,,,,,,,,,,,,,,,,,,,,,,,,258.5348282,258.5464147,258.5464147,259.0313261,g,1,0.481354,None,,,,sub-208,1,2025-03-12_11h40.31.037,stroop_test,04.02.2024,60.06604863,2025-03-12 11h40.41.069211 +0100
,,,,15,3,1,,,,,,,,,,,,,rot,blue,b,0,b,1,0.6290582,None,,,,,,,,,1,3,15,2,259.0466303,,,,,,,,,,,,,,,,,259.0317307,260.2475296,261.0482523,261.032919,,,,,,,,,,,,,,,,,,,,,,,,,,,,,,,,,,,261.0388149,261.0482523,261.0482523,261.683819,b,1,0.6290582,None,,,,sub-208,1,2025-03-12_11h40.31.037,stroop_test,04.02.2024,60.06604863,2025-03-12 11h40.41.069211 +0100
,,,,16,4,1,,,,,,,,,,,,,blau,blue,b,1,b,1,0.6779283,None,,,,,,,,,1,4,16,6,261.6989485,,,,,,,,,,,,,,,,,261.6844096,262.4994556,263.2998655,263.2843166,,,,,,,,,,,,,,,,,,,,,,,,,,,,,,,,,,,263.2909657,263.2998655,263.2998655,263.9855306,b,1,0.6779283,None,,,,sub-208,1,2025-03-12_11h40.31.037,stroop_test,04.02.2024,60.06604863,2025-03-12 11h40.41.069211 +0100
,,,,17,5,1,,,,,,,,,,,,,rot,yellow,g,0,g,1,0.8563597,None,,,,,,,,,1,5,17,3,264.0003304,,,,,,,,,,,,,,,,,263.9861723,265.2011257,266.0017563,265.9858474,,,,,,,,,,,,,,,,,,,,,,,,,,,,,,,,,,,265.9914783,266.0017563,266.0017563,266.8711597,g,1,0.8563597,None,,,,sub-208,1,2025-03-12_11h40.31.037,stroop_test,04.02.2024,60.06604863,2025-03-12 11h40.41.069211 +0100
,,,,18,6,1,,,,,,,,,,,,,rot,red,r,1,r,1,0.5103427,None,,,,,,,,,1,6,18,0,266.8858476,,,,,,,,,,,,,,,,,266.8716763,268.0867571,268.8870776,268.8712391,,,,,,,,,,,,,,,,,,,,,,,,,,,,,,,,,,,268.8718987,268.8870776,268.8870776,269.4063315,r,1,0.5103427,None,,,,sub-208,1,2025-03-12_11h40.31.037,stroop_test,04.02.2024,60.06604863,2025-03-12 11h40.41.069211 +0100
,,,,19,7,1,,,,,,,,,,,,,gelb,blue,b,0,b,1,0.9267218,None,,,,,,,,,1,7,19,9,269.4209053,,,,,,,,,,,,,,,,,269.4069326,270.2211957,271.0217886,271.0064378,,,,,,,,,,,,,,,,,,,,,,,,,,,,,,,,,,,271.0118286,271.0217886,271.0217886,271.9583156,b,1,0.9267218,None,,,,sub-208,1,2025-03-12_11h40.31.037,stroop_test,04.02.2024,60.06604863,2025-03-12 11h40.41.069211 +0100
,,,,20,8,1,,,,,,,,,,,,,gelb,yellow,g,1,g,1,0.7428399,None,,,,,,,,,1,8,20,10,271.9726792,,,,,,,,,,,,,,,,,271.9588984,273.1735078,273.9744973,273.9580303,,,,,,,,,,,,,,,,,,,,,,,,,,,,,,,,,,,273.9588102,273.9744973,273.9744973,274.7264773,g,1,0.7428399,None,,,,sub-208,1,2025-03-12_11h40.31.037,stroop_test,04.02.2024,60.06604863,2025-03-12 11h40.41.069211 +0100
,,,,21,9,1,,,,,,,,,,,,,blau,red,r,0,r,1,1.2148727,None,,,,,,,,,1,9,21,4,274.7407748,,,,,,,,,,,,,,,,,274.7272244,275.9419032,276.7429436,276.7272023,,,,,,,,,,,,,,,,,,,,,,,,,,,,,,,,,,,276.7339472,276.7429436,276.7429436,277.9617581,r,1,1.2148727,None,,,,sub-208,1,2025-03-12_11h40.31.037,stroop_test,04.02.2024,60.06604863,2025-03-12 11h40.41.069211 +0100
,,,,22,10,1,,,,,,,,,,,,,gelb,red,r,0,r,1,0.4196637,None,,,,,,,,,1,10,22,8,277.9763947,,,,,,,,,,,,,,,,,277.9621585,279.1775649,279.9778542,279.9621989,,,,,,,,,,,,,,,,,,,,,,,,,,,,,,,,,,,279.9674692,279.9778542,279.9778542,280.4136774,r,1,0.4196637,None,,,,sub-208,1,2025-03-12_11h40.31.037,stroop_test,04.02.2024,60.06604863,2025-03-12 11h40.41.069211 +0100
,,,,23,11,1,,,,,,,,,,,,,blau,blue,b,1,b,1,0.8796358,None,,,,,,,,,1,11,23,5,280.4281973,,,,,,,,,,,,,,,,,280.4142324,280.7783476,281.5788275,281.5638478,,,,,,,,,,,,,,,,,,,,,,,,,,,,,,,,,,,281.5700291,281.5788275,281.5788275,282.4652752,b,1,0.8796358,None,,,,sub-208,1,2025-03-12_11h40.31.037,stroop_test,04.02.2024,60.06604863,2025-03-12 11h40.41.069211 +0100
,,,,24,0,2,,,,,,,,,,,,,blau,red,r,0,r,1,0.7979397,None,,,,,,,,,2,0,24,4,282.4800224,,,,,,,,,,,,,,,,,282.4658731,282.8303367,283.6306293,283.6151406,,,,,,,,,,,,,,,,,,,,,,,,,,,,,,,,,,,283.6158959,283.6306293,283.6306293,284.4343187,r,1,0.7979397,None,,,,sub-208,1,2025-03-12_11h40.31.037,stroop_test,04.02.2024,60.06604863,2025-03-12 11h40.41.069211 +0100
,,,,25,1,2,,,,,,,,,,,,,gelb,red,r,0,r,1,0.428786,None,,,,,,,,,2,1,25,8,284.4479263,,,,,,,,,,,,,,,,,284.434991,285.6487389,286.4491133,286.4333779,,,,,,,,,,,,,,,,,,,,,,,,,,,,,,,,,,,286.4385645,286.4491133,286.4491133,286.8844946,r,1,0.428786,None,,,,sub-208,1,2025-03-12_11h40.31.037,stroop_test,04.02.2024,60.06604863,2025-03-12 11h40.41.069211 +0100
,,,,26,2,2,,,,,,,,,,,,,rot,red,r,1,r,1,0.4341584,None,,,,,,,,,2,2,26,1,286.8993347,,,,,,,,,,,,,,,,,286.8850747,288.0838011,288.8847401,288.8686008,,,,,,,,,,,,,,,,,,,,,,,,,,,,,,,,,,,288.875599,288.8847401,288.8847401,289.3360446,r,1,0.4341584,None,,,,sub-208,1,2025-03-12_11h40.31.037,stroop_test,04.02.2024,60.06604863,2025-03-12 11h40.41.069211 +0100
,,,,27,3,2,,,,,,,,,,,,,rot,red,r,1,r,1,0.4864793,None,,,,,,,,,2,3,27,0,289.3512642,,,,,,,,,,,,,,,,,289.3366515,289.4514687,290.2517079,290.2363464,,,,,,,,,,,,,,,,,,,,,,,,,,,,,,,,,,,290.2371053,290.2517079,290.2517079,290.7536659,r,1,0.4864793,None,,,,sub-208,1,2025-03-12_11h40.31.037,stroop_test,04.02.2024,60.06604863,2025-03-12 11h40.41.069211 +0100
,,,,28,4,2,,,,,,,,,,,,,blau,yellow,g,0,g,1,0.8787879,None,,,,,,,,,2,4,28,7,290.7687846,,,,,,,,,,,,,,,,,290.7541712,290.8688577,291.6696119,291.6540352,,,,,,,,,,,,,,,,,,,,,,,,,,,,,,,,,,,291.6592531,291.6696119,291.6696119,292.5556648,g,1,0.8787879,None,,,,sub-208,1,2025-03-12_11h40.31.037,stroop_test,04.02.2024,60.06604863,2025-03-12 11h40.41.069211 +0100
,,,,29,5,2,,,,,,,,,,,,,gelb,blue,b,0,b,1,0.7069421,None,,,,,,,,,2,5,29,9,292.5699344,,,,,,,,,,,,,,,,,292.5562369,293.3703927,294.170972,294.15555,,,,,,,,,,,,,,,,,,,,,,,,,,,,,,,,,,,294.1606853,294.170972,294.170972,294.8904204,b,1,0.7069421,None,,,,sub-208,1,2025-03-12_11h40.31.037,stroop_test,04.02.2024,60.06604863,2025-03-12 11h40.41.069211 +0100
,,,,30,6,2,,,,,,,,,,,,,gelb,yellow,g,1,g,1,0.4817835,None,,,,,,,,,2,6,30,10,294.9051565,,,,,,,,,,,,,,,,,294.8910464,295.2551315,296.0560879,296.0398864,,,,,,,,,,,,,,,,,,,,,,,,,,,,,,,,,,,296.0407021,296.0560879,296.0560879,296.5411216,g,1,0.4817835,None,,,,sub-208,1,2025-03-12_11h40.31.037,stroop_test,04.02.2024,60.06604863,2025-03-12 11h40.41.069211 +0100
,,,,31,7,2,,,,,,,,,,,,,blau,blue,b,1,b,1,0.7019896,None,,,,,,,,,2,7,31,6,296.5562184,,,,,,,,,,,,,,,,,296.5416805,296.6564233,297.456837,297.4410526,,,,,,,,,,,,,,,,,,,,,,,,,,,,,,,,,,,297.4465403,297.456837,297.456837,298.1759214,b,1,0.7019896,None,,,,sub-208,1,2025-03-12_11h40.31.037,stroop_test,04.02.2024,60.06604863,2025-03-12 11h40.41.069211 +0100
,,,,32,8,2,,,,,,,,,,,,,rot,yellow,g,0,g,1,0.7755701,None,,,,,,,,,2,8,32,3,298.1905907,,,,,,,,,,,,,,,,,298.1764328,299.3912234,300.1920632,300.1765131,,,,,,,,,,,,,,,,,,,,,,,,,,,,,,,,,,,300.1820393,300.1920632,300.1920632,300.9778474,g,1,0.7755701,None,,,,sub-208,1,2025-03-12_11h40.31.037,stroop_test,04.02.2024,60.06604863,2025-03-12 11h40.41.069211 +0100
,,,,33,9,2,,,,,,,,,,,,,blau,blue,b,1,b,1,0.8044804,None,,,,,,,,,2,9,33,5,300.992557,,,,,,,,,,,,,,,,,300.9783461,301.0924834,301.8929072,301.8772922,,,,,,,,,,,,,,,,,,,,,,,,,,,,,,,,,,,301.8824242,301.8929072,301.8929072,302.7125729,b,1,0.8044804,None,,,,sub-208,1,2025-03-12_11h40.31.037,stroop_test,04.02.2024,60.06604863,2025-03-12 11h40.41.069211 +0100
,,,,34,10,2,,,,,,,,,,,,,gelb,yellow,g,1,g,1,0.5499707,None,,,,,,,,,2,10,34,11,302.7271255,,,,,,,,,,,,,,,,,302.7132032,302.8274744,303.6280274,303.6121191,,,,,,,,,,,,,,,,,,,,,,,,,,,,,,,,,,,303.6174421,303.6280274,303.6280274,304.1815299,g,1,0.5499707,None,,,,sub-208,1,2025-03-12_11h40.31.037,stroop_test,04.02.2024,60.06604863,2025-03-12 11h40.41.069211 +0100
,,,,35,11,2,,,,,,,,,,,,,rot,blue,b,0,b,1,0.9524625,None,,,,,,,,,2,11,35,2,304.1947373,,,,,,,,,,,,,,,,,304.1822016,304.9950962,305.7956354,305.7801492,,,,,,,,,,,,,,,,,,,,,,,,,,,,,,,,,,,305.7856848,305.7956354,305.7956354,306.7649862,b,1,0.9524625,None,,,,sub-208,1,2025-03-12_11h40.31.037,stroop_test,04.02.2024,60.06604863,2025-03-12 11h40.41.069211 +0100
,,,,36,0,3,,,,,,,,,,,,,gelb,yellow,g,1,g,1,1.0780795,None,,,,,,,,,3,0,36,10,306.7798594,,,,,,,,,,,,,,,,,306.7654882,306.8798944,307.6803736,307.6647298,,,,,,,,,,,,,,,,,,,,,,,,,,,,,,,,,,,307.6707429,307.6803736,307.6803736,308.7663705,g,1,1.0780795,None,,,,sub-208,1,2025-03-12_11h40.31.037,stroop_test,04.02.2024,60.06604863,2025-03-12 11h40.41.069211 +0100
,,,,37,1,3,,,,,,,,,,,,,rot,yellow,g,0,g,1,0.604759,None,,,,,,,,,3,1,37,3,308.7807482,,,,,,,,,,,,,,,,,308.7668885,309.1314735,309.9335685,309.9165357,,,,,,,,,,,,,,,,,,,,,,,,,,,,,,,,,,,309.9236358,309.9335685,309.9335685,310.5512712,g,1,0.604759,None,,,,sub-208,1,2025-03-12_11h40.31.037,stroop_test,04.02.2024,60.06604863,2025-03-12 11h40.41.069211 +0100
,,,,38,2,3,,,,,,,,,,,,,rot,red,r,1,r,1,0.5120066,None,,,,,,,,,3,2,38,0,310.5655295,,,,,,,,,,,,,,,,,310.5519031,310.9158376,311.7163721,311.7008129,,,,,,,,,,,,,,,,,,,,,,,,,,,,,,,,,,,311.7015257,311.7163721,311.7163721,312.2354981,r,1,0.5120066,None,,,,sub-208,1,2025-03-12_11h40.31.037,stroop_test,04.02.2024,60.06604863,2025-03-12 11h40.41.069211 +0100
,,,,39,3,3,,,,,,,,,,,,,gelb,blue,b,0,b,1,0.7575724,None,,,,,,,,,3,3,39,9,312.2502556,,,,,,,,,,,,,,,,,312.2360634,313.4511495,314.2516027,314.2362922,,,,,,,,,,,,,,,,,,,,,,,,,,,,,,,,,,,314.2413211,314.2516027,314.2516027,315.020962,b,1,0.7575724,None,,,,sub-208,1,2025-03-12_11h40.31.037,stroop_test,04.02.2024,60.06604863,2025-03-12 11h40.41.069211 +0100
,,,,40,4,3,,,,,,,,,,,,,gelb,red,r,0,r,1,1.0516096,None,,,,,,,,,3,4,40,8,315.0353785,,,,,,,,,,,,,,,,,315.0215932,315.3858186,316.1861779,316.1707078,,,,,,,,,,,,,,,,,,,,,,,,,,,,,,,,,,,316.1713819,316.1861779,316.1861779,317.2404504,r,1,1.0516096,None,,,,sub-208,1,2025-03-12_11h40.31.037,stroop_test,04.02.2024,60.06604863,2025-03-12 11h40.41.069211 +0100
,,,,41,5,3,,,,,,,,,,,,,rot,blue,b,0,b,1,1.354401,None,,,,,,,,,3,5,41,2,317.2536244,,,,,,,,,,,,,,,,,317.2410443,318.0542074,318.8544516,318.8391022,,,,,,,,,,,,,,,,,,,,,,,,,,,,,,,,,,,318.8449753,318.8544516,318.8544516,320.2240946,b,1,1.354401,None,,,,sub-208,1,2025-03-12_11h40.31.037,stroop_test,04.02.2024,60.06604863,2025-03-12 11h40.41.069211 +0100
,,,,42,6,3,,,,,,,,,,,,,blau,blue,b,1,b,1,0.5892563,None,,,,,,,,,3,6,42,6,320.2390865,,,,,,,,,,,,,,,,,320.224602,320.5891963,321.3898896,321.3739075,,,,,,,,,,,,,,,,,,,,,,,,,,,,,,,,,,,321.3795723,321.3898896,321.3898896,321.9920032,b,1,0.5892563,None,,,,sub-208,1,2025-03-12_11h40.31.037,stroop_test,04.02.2024,60.06604863,2025-03-12 11h40.41.069211 +0100
,,,,43,7,3,,,,,,,,,,,,,rot,red,r,1,r,1,0.9518389,None,,,,,,,,,3,7,43,1,322.0071457,,,,,,,,,,,,,,,,,321.9927621,322.3572371,323.1579561,323.1421021,,,,,,,,,,,,,,,,,,,,,,,,,,,,,,,,,,,323.1489958,323.1579561,323.1579561,324.1266744,r,1,0.9518389,None,,,,sub-208,1,2025-03-12_11h40.31.037,stroop_test,04.02.2024,60.06604863,2025-03-12 11h40.41.069211 +0100
,,,,44,8,3,,,,,,,,,,,,,blau,yellow,g,0,g,1,0.7264393,None,,,,,,,,,3,8,44,7,324.1420451,,,,,,,,,,,,,,,,,324.1272714,324.4922004,325.2927481,325.2769297,,,,,,,,,,,,,,,,,,,,,,,,,,,,,,,,,,,325.2820359,325.2927481,325.2927481,326.028427,g,1,0.7264393,None,,,,sub-208,1,2025-03-12_11h40.31.037,stroop_test,04.02.2024,60.06604863,2025-03-12 11h40.41.069211 +0100
,,,,45,9,3,,,,,,,,,,,,,gelb,yellow,g,1,g,1,0.8456219,None,,,,,,,,,3,9,45,11,326.0428248,,,,,,,,,,,,,,,,,326.0289437,326.3928685,327.1935535,327.1785117,,,,,,,,,,,,,,,,,,,,,,,,,,,,,,,,,,,327.1841043,327.1935535,327.1935535,328.0463628,g,1,0.8456219,None,,,,sub-208,1,2025-03-12_11h40.31.037,stroop_test,04.02.2024,60.06604863,2025-03-12 11h40.41.069211 +0100
,,,,46,10,3,,,,,,,,,,,,,blau,blue,b,1,b,1,1.1048158,None,,,,,,,,,3,10,46,5,328.0610984,,,,,,,,,,,,,,,,,328.0469234,329.2622561,330.063887,330.0468672,,,,,,,,,,,,,,,,,,,,,,,,,,,,,,,,,,,330.0544609,330.063887,330.063887,331.1815812,b,1,1.1048158,None,,,,sub-208,1,2025-03-12_11h40.31.037,stroop_test,04.02.2024,60.06604863,2025-03-12 11h40.41.069211 +0100
,,,,47,11,3,,,,,,,,,,,,,blau,red,r,0,r,1,1.0018764,None,,,,,,,,,3,11,47,4,331.1965959,,,,,,,,,,,,,,,,,331.1821594,331.5469358,332.3473215,332.3319385,,,,,,,,,,,,,,,,,,,,,,,,,,,,,,,,,,,332.3327132,332.3473215,332.3473215,333.3664607,r,1,1.0018764,None,,,,sub-208,1,2025-03-12_11h40.31.037,stroop_test,04.02.2024,60.06604863,2025-03-12 11h40.41.069211 +0100
,,,,48,0,4,,,,,,,,,,,,,gelb,blue,b,0,b,1,0.7464449,None,,,,,,,,,4,0,48,9,333.3812724,,,,,,,,,,,,,,,,,333.3670919,333.4814164,334.2818145,334.2663713,,,,,,,,,,,,,,,,,,,,,,,,,,,,,,,,,,,334.271519,334.2818145,334.2818145,335.0343778,b,1,0.7464449,None,,,,sub-208,1,2025-03-12_11h40.31.037,stroop_test,04.02.2024,60.06604863,2025-03-12 11h40.41.069211 +0100
,,,,49,1,4,,,,,,,,,,,,,rot,blue,b,0,b,1,0.999114,None,,,,,,,,,4,1,49,2,335.0490188,,,,,,,,,,,,,,,,,335.0349666,335.8500163,336.6504738,336.6342744,,,,,,,,,,,,,,,,,,,,,,,,,,,,,,,,,,,336.6404462,336.6504738,336.6504738,337.6528049,b,1,0.999114,None,,,,sub-208,1,2025-03-12_11h40.31.037,stroop_test,04.02.2024,60.06604863,2025-03-12 11h40.41.069211 +0100
,,,,50,2,4,,,,,,,,,,,,,blau,yellow,g,0,g,1,1.0294864,None,,,,,,,,,4,2,50,7,337.6679767,,,,,,,,,,,,,,,,,337.6533048,338.4682241,339.2690879,339.2532461,,,,,,,,,,,,,,,,,,,,,,,,,,,,,,,,,,,339.2585155,339.2690879,339.2690879,340.3051991,g,1,1.0294864,None,,,,sub-208,1,2025-03-12_11h40.31.037,stroop_test,04.02.2024,60.06604863,2025-03-12 11h40.41.069211 +0100
,,,,51,3,4,,,,,,,,,,,,,blau,red,r,0,r,1,0.5690103,None,,,,,,,,,4,3,51,4,340.3194151,,,,,,,,,,,,,,,,,340.3060666,340.6699818,341.4705713,341.4545909,,,,,,,,,,,,,,,,,,,,,,,,,,,,,,,,,,,341.4556941,341.4705713,341.4705713,342.0566393,r,1,0.5690103,None,,,,sub-208,1,2025-03-12_11h40.31.037,stroop_test,04.02.2024,60.06604863,2025-03-12 11h40.41.069211 +0100
,,,,52,4,4,,,,,,,,,,,,,blau,blue,b,1,b,1,0.6880371,None,,,,,,,,,4,4,52,6,342.0706001,,,,,,,,,,,,,,,,,342.0572413,342.170856,342.9712371,342.9556822,,,,,,,,,,,,,,,,,,,,,,,,,,,,,,,,,,,342.9563635,342.9712371,342.9712371,343.6743867,b,1,0.6880371,None,,,,sub-208,1,2025-03-12_11h40.31.037,stroop_test,04.02.2024,60.06604863,2025-03-12 11h40.41.069211 +0100
,,,,53,5,4,,,,,,,,,,,,,rot,red,r,1,r,1,0.6100032,None,,,,,,,,,4,5,53,0,343.6884773,,,,,,,,,,,,,,,,,343.6754234,343.7887124,344.5889482,344.5737951,,,,,,,,,,,,,,,,,,,,,,,,,,,,,,,,,,,344.5796093,344.5889482,344.5889482,345.208161,r,1,0.6100032,None,,,,sub-208,1,2025-03-12_11h40.31.037,stroop_test,04.02.2024,60.06604863,2025-03-12 11h40.41.069211 +0100
,,,,54,6,4,,,,,,,,,,,,,gelb,red,r,0,r,1,1.0654537,None,,,,,,,,,4,6,54,8,345.2226634,,,,,,,,,,,,,,,,,345.2086617,346.4233584,347.2243654,347.2084319,,,,,,,,,,,,,,,,,,,,,,,,,,,,,,,,,,,347.2136682,347.2243654,347.2243654,348.2942165,r,1,1.0654537,None,,,,sub-208,1,2025-03-12_11h40.31.037,stroop_test,04.02.2024,60.06604863,2025-03-12 11h40.41.069211 +0100
,,,,55,7,4,,,,,,,,,,,,,gelb,yellow,g,1,g,1,0.6602158,None,,,,,,,,,4,7,55,10,348.3084762,,,,,,,,,,,,,,,,,348.2948918,348.4085785,349.2087418,349.1935591,,,,,,,,,,,,,,,,,,,,,,,,,,,,,,,,,,,349.1942446,349.2087418,349.2087418,349.8777623,g,1,0.6602158,None,,,,sub-208,1,2025-03-12_11h40.31.037,stroop_test,04.02.2024,60.06604863,2025-03-12 11h40.41.069211 +0100
,,,,56,8,4,,,,,,,,,,,,,gelb,yellow,g,1,g,1,1.1050925,None,,,,,,,,,4,8,56,11,349.8923528,,,,,,,,,,,,,,,,,349.8784212,350.6932756,351.4935845,351.4785939,,,,,,,,,,,,,,,,,,,,,,,,,,,,,,,,,,,351.4793597,351.4935845,351.4935845,352.6131868,g,1,1.1050925,None,,,,sub-208,1,2025-03-12_11h40.31.037,stroop_test,04.02.2024,60.06604863,2025-03-12 11h40.41.069211 +0100
,,,,57,9,4,,,,,,,,,,,,,rot,yellow,g,0,g,1,0.6985971,None,,,,,,,,,4,9,57,3,352.6281399,,,,,,,,,,,,,,,,,352.6137306,352.9784217,353.7803335,353.7632871,,,,,,,,,,,,,,,,,,,,,,,,,,,,,,,,,,,353.77048,353.7803335,353.7803335,354.4820796,g,1,0.6985971,None,,,,sub-208,1,2025-03-12_11h40.31.037,stroop_test,04.02.2024,60.06604863,2025-03-12 11h40.41.069211 +0100
,,,,58,10,4,,,,,,,,,,,,,blau,blue,b,1,b,1,1.061509,None,,,,,,,,,4,10,58,5,354.4960256,,,,,,,,,,,,,,,,,354.4826307,354.8462723,355.64706,355.6310861,,,,,,,,,,,,,,,,,,,,,,,,,,,,,,,,,,,355.6370109,355.64706,355.64706,356.7159354,b,1,1.061509,None,,,,sub-208,1,2025-03-12_11h40.31.037,stroop_test,04.02.2024,60.06604863,2025-03-12 11h40.41.069211 +0100
,,,,59,11,4,,,,,,,,,,,,,rot,red,r,1,r,1,1.1971409,None,,,,,,,,,4,11,59,1,356.730533,,,,,,,,,,,,,,,,,356.7164657,357.080995,357.8816215,357.8662658,,,,,,,,,,,,,,,,,,,,,,,,,,,,,,,,,,,357.8721539,357.8816215,357.8816215,359.0841767,r,1,1.1971409,None,,,,sub-208,1,2025-03-12_11h40.31.037,stroop_test,04.02.2024,60.06604863,2025-03-12 11h40.41.069211 +0100
,,,,60,0,5,,,,,,,,,,,,,rot,red,r,1,r,1,0.4561889,None,,,,,,,,,5,0,60,1,359.0990072,,,,,,,,,,,,,,,,,359.0847408,359.8825672,360.6832709,360.6678255,,,,,,,,,,,,,,,,,,,,,,,,,,,,,,,,,,,360.6685939,360.6832709,360.6832709,361.1522275,r,1,0.4561889,None,,,,sub-208,1,2025-03-12_11h40.31.037,stroop_test,04.02.2024,60.06604863,2025-03-12 11h40.41.069211 +0100
,,,,61,1,5,,,,,,,,,,,,,blau,blue,b,1,b,1,0.9068919,None,,,,,,,,,5,1,61,5,361.1670205,,,,,,,,,,,,,,,,,361.1527292,362.3512082,363.1516311,363.1364146,,,,,,,,,,,,,,,,,,,,,,,,,,,,,,,,,,,363.1417775,363.1516311,363.1516311,364.0709188,b,1,0.9068919,None,,,,sub-208,1,2025-03-12_11h40.31.037,stroop_test,04.02.2024,60.06604863,2025-03-12 11h40.41.069211 +0100
,,,,62,2,5,,,,,,,,,,,,,rot,red,r,1,r,1,1.2521147,None,,,,,,,,,5,2,62,0,364.0861057,,,,,,,,,,,,,,,,,364.0714827,364.4364731,365.2365856,365.2211033,,,,,,,,,,,,,,,,,,,,,,,,,,,,,,,,,,,365.2262134,365.2365856,365.2365856,366.5060423,r,1,1.2521147,None,,,,sub-208,1,2025-03-12_11h40.31.037,stroop_test,04.02.2024,60.06604863,2025-03-12 11h40.41.069211 +0100
,,,,63,3,5,,,,,,,,,,,,,gelb,yellow,g,1,g,1,0.7577792,None,,,,,,,,,5,3,63,10,366.5208302,,,,,,,,,,,,,,,,,366.5066039,366.8712551,367.6716795,367.6558905,,,,,,,,,,,,,,,,,,,,,,,,,,,,,,,,,,,367.6618902,367.6716795,367.6716795,368.4404182,g,1,0.7577792,None,,,,sub-208,1,2025-03-12_11h40.31.037,stroop_test,04.02.2024,60.06604863,2025-03-12 11h40.41.069211 +0100
,,,,64,4,5,,,,,,,,,,,,,blau,yellow,g,0,g,1,0.4129388,None,,,,,,,,,5,4,64,7,368.4553932,,,,,,,,,,,,,,,,,368.4409235,368.8061348,369.6061136,369.5903377,,,,,,,,,,,,,,,,,,,,,,,,,,,,,,,,,,,369.5954191,369.6061136,369.6061136,370.0255009,g,1,0.4129388,None,,,,sub-208,1,2025-03-12_11h40.31.037,stroop_test,04.02.2024,60.06604863,2025-03-12 11h40.41.069211 +0100
,,,,65,5,5,,,,,,,,,,,,,gelb,red,r,0,r,1,1.2377419,None,,,,,,,,,5,5,65,8,370.0400361,,,,,,,,,,,,,,,,,370.0261588,371.2406245,372.0413268,372.0257571,,,,,,,,,,,,,,,,,,,,,,,,,,,,,,,,,,,372.0314508,372.0413268,372.0413268,373.2939301,r,1,1.2377419,None,,,,sub-208,1,2025-03-12_11h40.31.037,stroop_test,04.02.2024,60.06604863,2025-03-12 11h40.41.069211 +0100
,,,,66,6,5,,,,,,,,,,,,,blau,red,r,0,r,1,0.9542863,None,,,,,,,,,5,6,66,4,373.3088273,,,,,,,,,,,,,,,,,373.2944808,374.4927765,375.2939061,375.2778094,,,,,,,,,,,,,,,,,,,,,,,,,,,,,,,,,,,375.282755,375.2939061,375.2939061,376.262736,r,1,0.9542863,None,,,,sub-208,1,2025-03-12_11h40.31.037,stroop_test,04.02.2024,60.06604863,2025-03-12 11h40.41.069211 +0100
,,,,67,7,5,,,,,,,,,,,,,blau,blue,b,1,b,1,0.8605515,None,,,,,,,,,5,7,67,6,376.2776058,,,,,,,,,,,,,,,,,376.263235,376.6280047,377.4285706,377.4129099,,,,,,,,,,,,,,,,,,,,,,,,,,,,,,,,,,,377.4136957,377.4285706,377.4285706,378.2973255,b,1,0.8605515,None,,,,sub-208,1,2025-03-12_11h40.31.037,stroop_test,04.02.2024,60.06604863,2025-03-12 11h40.41.069211 +0100
,,,,68,8,5,,,,,,,,,,,,,rot,yellow,g,0,g,1,1.5654277,None,,,,,,,,,5,8,68,3,378.3124762,,,,,,,,,,,,,,,,,378.29783,379.1128032,379.9139234,379.8979509,,,,,,,,,,,,,,,,,,,,,,,,,,,,,,,,,,,379.9040099,379.9139234,379.9139234,381.4831058,g,1,1.5654277,None,,,,sub-208,1,2025-03-12_11h40.31.037,stroop_test,04.02.2024,60.06604863,2025-03-12 11h40.41.069211 +0100
,,,,69,9,5,,,,,,,,,,,,,gelb,yellow,g,1,g,1,0.6103159,None,,,,,,,,,5,9,69,11,381.498013,,,,,,,,,,,,,,,,,381.4836668,381.847929,382.6485002,382.6330893,,,,,,,,,,,,,,,,,,,,,,,,,,,,,,,,,,,382.6389794,382.6485002,382.6485002,383.2678516,g,1,0.6103159,None,,,,sub-208,1,2025-03-12_11h40.31.037,stroop_test,04.02.2024,60.06604863,2025-03-12 11h40.41.069211 +0100
,,,,70,10,5,,,,,,,,,,,,,gelb,blue,b,0,b,1,0.7544663,None,,,,,,,,,5,10,70,9,383.2821051,,,,,,,,,,,,,,,,,383.2684062,384.4833747,385.2839836,385.2682233,,,,,,,,,,,,,,,,,,,,,,,,,,,,,,,,,,,385.2689444,385.2839836,385.2839836,386.0530602,b,1,0.7544663,None,,,,sub-208,1,2025-03-12_11h40.31.037,stroop_test,04.02.2024,60.06604863,2025-03-12 11h40.41.069211 +0100
,,,,71,11,5,,,,,,,,,,,,,rot,blue,b,0,b,1,0.9406443,None,,,,,,,,,5,11,71,2,386.0678584,,,,,,,,,,,,,,,,,386.0536247,386.8682949,387.6684561,387.6532751,,,,,,,,,,,,,,,,,,,,,,,,,,,,,,,,,,,387.6587086,387.6684561,387.6684561,388.6216242,b,1,0.9406443,None,,,,sub-208,1,2025-03-12_11h40.31.037,stroop_test,04.02.2024,60.06604863,2025-03-12 11h40.41.069211 +0100
,,,,72,0,6,,,,,,,,,,,,,rot,blue,b,0,b,1,0.8723493,None,,,,,,,,,6,0,72,2,388.6362036,,,,,,,,,,,,,,,,,388.622169,389.4367602,390.2370247,390.2215774,,,,,,,,,,,,,,,,,,,,,,,,,,,,,,,,,,,390.2224413,390.2370247,390.2370247,391.1236206,b,1,0.8723493,None,,,,sub-208,1,2025-03-12_11h40.31.037,stroop_test,04.02.2024,60.06604863,2025-03-12 11h40.41.069211 +0100
,,,,73,1,6,,,,,,,,,,,,,rot,red,r,1,r,1,0.8391496,None,,,,,,,,,6,1,73,0,391.1375851,,,,,,,,,,,,,,,,,391.1245134,391.9382519,392.739149,392.7232465,,,,,,,,,,,,,,,,,,,,,,,,,,,,,,,,,,,392.7239684,392.739149,392.739149,393.591056,r,1,0.8391496,None,,,,sub-208,1,2025-03-12_11h40.31.037,stroop_test,04.02.2024,60.06604863,2025-03-12 11h40.41.069211 +0100
,,,,74,2,6,,,,,,,,,,,,,gelb,blue,b,0,b,1,1.2119252,None,,,,,,,,,6,2,74,9,393.6062,,,,,,,,,,,,,,,,,393.591554,393.956471,394.7568121,394.7411666,,,,,,,,,,,,,,,,,,,,,,,,,,,,,,,,,,,394.7466647,394.7568121,394.7568121,395.975692,b,1,1.2119252,None,,,,sub-208,1,2025-03-12_11h40.31.037,stroop_test,04.02.2024,60.06604863,2025-03-12 11h40.41.069211 +0100
,,,,75,3,6,,,,,,,,,,,,,rot,red,r,1,r,1,0.8768011,None,,,,,,,,,6,3,75,1,395.990723,,,,,,,,,,,,,,,,,395.9762052,396.0908334,396.8914885,396.8757563,,,,,,,,,,,,,,,,,,,,,,,,,,,,,,,,,,,396.8813192,396.8914885,396.8914885,397.7776332,r,1,0.8768011,None,,,,sub-208,1,2025-03-12_11h40.31.037,stroop_test,04.02.2024,60.06604863,2025-03-12 11h40.41.069211 +0100
,,,,76,4,6,,,,,,,,,,,,,blau,blue,b,1,b,1,0.7559549,None,,,,,,,,,6,4,76,5,397.792089,,,,,,,,,,,,,,,,,397.7781298,398.1426468,398.9428553,398.9274859,,,,,,,,,,,,,,,,,,,,,,,,,,,,,,,,,,,398.9329928,398.9428553,398.9428553,399.7122599,b,1,0.7559549,None,,,,sub-208,1,2025-03-12_11h40.31.037,stroop_test,04.02.2024,60.06604863,2025-03-12 11h40.41.069211 +0100
,,,,77,5,6,,,,,,,,,,,,,blau,red,r,0,r,1,1.2118176,None,,,,,,,,,6,5,77,4,399.7274116,,,,,,,,,,,,,,,,,399.7128275,399.8273289,400.6275201,400.6122227,,,,,,,,,,,,,,,,,,,,,,,,,,,,,,,,,,,400.6129217,400.6275201,400.6275201,401.8469504,r,1,1.2118176,None,,,,sub-208,1,2025-03-12_11h40.31.037,stroop_test,04.02.2024,60.06604863,2025-03-12 11h40.41.069211 +0100
,,,,78,6,6,,,,,,,,,,,,,gelb,yellow,g,1,g,1,0.6022084,None,,,,,,,,,6,6,78,10,401.861537,,,,,,,,,,,,,,,,,401.8475264,403.0457279,403.8467208,403.8302421,,,,,,,,,,,,,,,,,,,,,,,,,,,,,,,,,,,403.8368452,403.8467208,403.8467208,404.4655385,g,1,0.6022084,None,,,,sub-208,1,2025-03-12_11h40.31.037,stroop_test,04.02.2024,60.06604863,2025-03-12 11h40.41.069211 +0100
,,,,79,7,6,,,,,,,,,,,,,blau,blue,b,1,b,1,0.6870409,None,,,,,,,,,6,7,79,6,404.4804387,,,,,,,,,,,,,,,,,404.4660724,404.8307766,405.6315836,405.6158157,,,,,,,,,,,,,,,,,,,,,,,,,,,,,,,,,,,405.6220666,405.6315836,405.6315836,406.3335243,b,1,0.6870409,None,,,,sub-208,1,2025-03-12_11h40.31.037,stroop_test,04.02.2024,60.06604863,2025-03-12 11h40.41.069211 +0100
,,,,80,8,6,,,,,,,,,,,,,blau,yellow,g,0,g,1,0.9697023,None,,,,,,,,,6,8,80,7,406.3478772,,,,,,,,,,,,,,,,,406.3340351,406.4483765,407.2490963,407.233491,,,,,,,,,,,,,,,,,,,,,,,,,,,,,,,,,,,407.2343084,407.2490963,407.2490963,408.2349833,g,1,0.9697023,None,,,,sub-208,1,2025-03-12_11h40.31.037,stroop_test,04.02.2024,60.06604863,2025-03-12 11h40.41.069211 +0100
,,,,81,9,6,,,,,,,,,,,,,gelb,yellow,g,1,g,1,0.6597055,None,,,,,,,,,6,9,81,11,408.24945,,,,,,,,,,,,,,,,,408.2356726,408.3497699,409.1499376,409.1345525,,,,,,,,,,,,,,,,,,,,,,,,,,,,,,,,,,,409.1399358,409.1499376,409.1499376,409.8198556,g,1,0.6597055,None,,,,sub-208,1,2025-03-12_11h40.31.037,stroop_test,04.02.2024,60.06604863,2025-03-12 11h40.41.069211 +0100
,,,,82,10,6,,,,,,,,,,,,,gelb,red,r,0,r,1,0.9248171,None,,,,,,,,,6,10,82,8,409.8537735,,,,,,,,,,,,,,,,,409.8204698,410.1845356,410.9847846,410.9693063,,,,,,,,,,,,,,,,,,,,,,,,,,,,,,,,,,,410.9701349,410.9847846,410.9847846,411.9204596,r,1,0.9248171,None,,,,sub-208,1,2025-03-12_11h40.31.037,stroop_test,04.02.2024,60.06604863,2025-03-12 11h40.41.069211 +0100
,,,,83,11,6,,,,,,,,,,,,,rot,yellow,g,0,g,1,1.2137191,None,,,,,,,,,6,11,83,3,411.9351636,,,,,,,,,,,,,,,,,411.9211753,412.7356085,413.5361118,413.5209759,,,,,,,,,,,,,,,,,,,,,,,,,,,,,,,,,,,413.5268332,413.5361118,413.5361118,414.7558848,g,1,1.2137191,None,,,,sub-208,1,2025-03-12_11h40.31.037,stroop_test,04.02.2024,60.06604863,2025-03-12 11h40.41.069211 +0100
,,,,84,0,7,,,,,,,,,,,,,rot,red,r,1,r,1,0.9472377,None,,,,,,,,,7,0,84,1,414.7705156,,,,,,,,,,,,,,,,,414.7563848,415.1208527,415.9215818,415.9061232,,,,,,,,,,,,,,,,,,,,,,,,,,,,,,,,,,,415.9068036,415.9215818,415.9215818,416.8741478,r,1,0.9472377,None,,,,sub-208,1,2025-03-12_11h40.31.037,stroop_test,04.02.2024,60.06604863,2025-03-12 11h40.41.069211 +0100
,,,,85,1,7,,,,,,,,,,,,,rot,red,r,1,r,1,0.5903136,None,,,,,,,,,7,1,85,0,416.8888202,,,,,,,,,,,,,,,,,416.8748337,416.9886227,417.7894286,417.7742096,,,,,,,,,,,,,,,,,,,,,,,,,,,,,,,,,,,417.7749813,417.7894286,417.7894286,418.3913367,r,1,0.5903136,None,,,,sub-208,1,2025-03-12_11h40.31.037,stroop_test,04.02.2024,60.06604863,2025-03-12 11h40.41.069211 +0100
,,,,86,2,7,,,,,,,,,,,,,blau,blue,b,1,b,1,0.6819011,None,,,,,,,,,7,2,86,5,418.4065772,,,,,,,,,,,,,,,,,418.3919226,418.5067538,419.3068883,419.2914896,,,,,,,,,,,,,,,,,,,,,,,,,,,,,,,,,,,419.2966658,419.3068883,419.3068883,419.9930002,b,1,0.6819011,None,,,,sub-208,1,2025-03-12_11h40.31.037,stroop_test,04.02.2024,60.06604863,2025-03-12 11h40.41.069211 +0100
,,,,87,3,7,,,,,,,,,,,,,gelb,yellow,g,1,g,1,0.7295816,None,,,,,,,,,7,3,87,11,420.0073098,,,,,,,,,,,,,,,,,419.9934972,421.2085794,422.0087333,421.9933458,,,,,,,,,,,,,,,,,,,,,,,,,,,,,,,,,,,421.9995465,422.0087333,422.0087333,422.7448163,g,1,0.7295816,None,,,,sub-208,1,2025-03-12_11h40.31.037,stroop_test,04.02.2024,60.06604863,2025-03-12 11h40.41.069211 +0100
,,,,88,4,7,,,,,,,,,,,,,rot,yellow,g,0,g,1,0.8792533,None,,,,,,,,,7,4,88,3,422.7597593,,,,,,,,,,,,,,,,,422.7453229,423.9604689,424.7607443,424.7454748,,,,,,,,,,,,,,,,,,,,,,,,,,,,,,,,,,,424.7515142,424.7607443,424.7607443,425.6468161,g,1,0.8792533,None,,,,sub-208,1,2025-03-12_11h40.31.037,stroop_test,04.02.2024,60.06604863,2025-03-12 11h40.41.069211 +0100
,,,,89,5,7,,,,,,,,,,,,,gelb,red,r,0,r,1,0.7090272,None,,,,,,,,,7,5,89,8,425.6614777,,,,,,,,,,,,,,,,,425.6474347,425.7615279,426.5618725,426.5465337,,,,,,,,,,,,,,,,,,,,,,,,,,,,,,,,,,,426.551765,426.5618725,426.5618725,427.2810924,r,1,0.7090272,None,,,,sub-208,1,2025-03-12_11h40.31.037,stroop_test,04.02.2024,60.06604863,2025-03-12 11h40.41.069211 +0100
,,,,90,6,7,,,,,,,,,,,,,gelb,yellow,g,1,g,1,0.5628278,None,,,,,,,,,7,6,90,10,427.2957821,,,,,,,,,,,,,,,,,427.2816859,428.4970148,429.2971783,429.2814268,,,,,,,,,,,,,,,,,,,,,,,,,,,,,,,,,,,429.282172,429.2971783,429.2971783,429.8663582,g,1,0.5628278,None,,,,sub-208,1,2025-03-12_11h40.31.037,stroop_test,04.02.2024,60.06604863,2025-03-12 11h40.41.069211 +0100
,,,,91,7,7,,,,,,,,,,,,,gelb,blue,b,0,b,1,0.7876603,None,,,,,,,,,7,7,91,9,429.8810628,,,,,,,,,,,,,,,,,429.866854,429.9810284,430.7816274,430.7661291,,,,,,,,,,,,,,,,,,,,,,,,,,,,,,,,,,,430.7667998,430.7816274,430.7816274,431.5841551,b,1,0.7876603,None,,,,sub-208,1,2025-03-12_11h40.31.037,stroop_test,04.02.2024,60.06604863,2025-03-12 11h40.41.069211 +0100
,,,,92,8,7,,,,,,,,,,,,,blau,blue,b,1,b,1,0.6807717,None,,,,,,,,,7,8,92,6,431.5988217,,,,,,,,,,,,,,,,,431.5848219,431.6988587,432.4992603,432.4834374,,,,,,,,,,,,,,,,,,,,,,,,,,,,,,,,,,,432.4868692,432.4992603,432.4992603,433.185064,b,1,0.6807717,None,,,,sub-208,1,2025-03-12_11h40.31.037,stroop_test,04.02.2024,60.06604863,2025-03-12 11h40.41.069211 +0100
,,,,93,9,7,,,,,,,,,,,,,blau,red,r,0,r,1,0.855563,None,,,,,,,,,7,9,93,4,433.2002101,,,,,,,,,,,,,,,,,433.1855648,434.3843072,435.1845006,435.1693239,,,,,,,,,,,,,,,,,,,,,,,,,,,,,,,,,,,435.1700807,435.1845006,435.1845006,436.0537146,r,1,0.855563,None,,,,sub-208,1,2025-03-12_11h40.31.037,stroop_test,04.02.2024,60.06604863,2025-03-12 11h40.41.069211 +0100
,,,,94,10,7,,,,,,,,,,,,,blau,yellow,g,0,g,1,1.0502542,None,,,,,,,,,7,10,94,7,436.068558,,,,,,,,,,,,,,,,,436.0543148,436.4189743,437.2195856,437.2040358,,,,,,,,,,,,,,,,,,,,,,,,,,,,,,,,,,,437.2047456,437.2195856,437.2195856,438.2734688,g,1,1.0502542,None,,,,sub-208,1,2025-03-12_11h40.31.037,stroop_test,04.02.2024,60.06604863,2025-03-12 11h40.41.069211 +0100
,,,,95,11,7,,,,,,,,,,,,,rot,blue,b,0,b,1,0.9615016,None,,,,,,,,,7,11,95,2,438.2871226,,,,,,,,,,,,,,,,,438.2740778,438.6371512,439.4385569,439.4220622,,,,,,,,,,,,,,,,,,,,,,,,,,,,,,,,,,,439.429224,439.4385569,439.4385569,440.4065552,b,1,0.9615016,None,,,,sub-208,1,2025-03-12_11h40.31.037,stroop_test,04.02.2024,60.06604863,2025-03-12 11h40.41.069211 +0100
,,,,96,0,8,,,,,,,,,,,,,blau,blue,b,1,b,1,0.607331,None,,,,,,,,,8,0,96,5,440.421485,,,,,,,,,,,,,,,,,440.4071106,441.2224027,442.0229032,442.0071155,,,,,,,,,,,,,,,,,,,,,,,,,,,,,,,,,,,442.0125745,442.0229032,442.0229032,442.6418814,b,1,0.607331,None,,,,sub-208,1,2025-03-12_11h40.31.037,stroop_test,04.02.2024,60.06604863,2025-03-12 11h40.41.069211 +0100
,,,,97,1,8,,,,,,,,,,,,,blau,red,r,0,r,1,0.8229962,None,,,,,,,,,8,1,97,4,442.6563048,,,,,,,,,,,,,,,,,442.6424503,443.4571408,444.2574638,444.2422064,,,,,,,,,,,,,,,,,,,,,,,,,,,,,,,,,,,444.2429572,444.2574638,444.2574638,445.0937012,r,1,0.8229962,None,,,,sub-208,1,2025-03-12_11h40.31.037,stroop_test,04.02.2024,60.06604863,2025-03-12 11h40.41.069211 +0100
,,,,98,2,8,,,,,,,,,,,,,rot,red,r,1,r,1,0.4107231,None,,,,,,,,,8,2,98,0,445.1085245,,,,,,,,,,,,,,,,,445.0942805,445.2084975,446.0089173,445.993298,,,,,,,,,,,,,,,,,,,,,,,,,,,,,,,,,,,445.9985905,446.0089173,446.0089173,446.4278125,r,1,0.4107231,None,,,,sub-208,1,2025-03-12_11h40.31.037,stroop_test,04.02.2024,60.06604863,2025-03-12 11h40.41.069211 +0100
,,,,99,3,8,,,,,,,,,,,,,gelb,red,r,0,r,1,0.5061376,None,,,,,,,,,8,3,99,8,446.4426466,,,,,,,,,,,,,,,,,446.4283528,446.5424621,447.3434345,447.327503,,,,,,,,,,,,,,,,,,,,,,,,,,,,,,,,,,,447.3333065,447.3434345,447.3434345,447.8622923,r,1,0.5061376,None,,,,sub-208,1,2025-03-12_11h40.31.037,stroop_test,04.02.2024,60.06604863,2025-03-12 11h40.41.069211 +0100
,,,,100,4,8,,,,,,,,,,,,,blau,blue,b,1,b,1,0.6227269,None,,,,,,,,,8,4,100,6,447.8769803,,,,,,,,,,,,,,,,,447.8628709,448.6771894,449.4781476,449.4622623,,,,,,,,,,,,,,,,,,,,,,,,,,,,,,,,,,,449.4673761,449.4781476,449.4781476,450.1131204,b,1,0.6227269,None,,,,sub-208,1,2025-03-12_11h40.31.037,stroop_test,04.02.2024,60.06604863,2025-03-12 11h40.41.069211 +0100
,,,,101,5,8,,,,,,,,,,,,,gelb,blue,b,0,b,1,0.5579736,None,,,,,,,,,8,5,101,9,450.1281636,,,,,,,,,,,,,,,,,450.1136864,450.9122717,451.7125756,451.6971031,,,,,,,,,,,,,,,,,,,,,,,,,,,,,,,,,,,451.7027938,451.7125756,451.7125756,452.2819728,b,1,0.5579736,None,,,,sub-208,1,2025-03-12_11h40.31.037,stroop_test,04.02.2024,60.06604863,2025-03-12 11h40.41.069211 +0100
,,,,102,6,8,,,,,,,,,,,,,rot,red,r,1,r,1,0.6716755,None,,,,,,,,,8,6,102,1,452.2965214,,,,,,,,,,,,,,,,,452.2825867,453.497509,454.298153,454.2823661,,,,,,,,,,,,,,,,,,,,,,,,,,,,,,,,,,,454.2879746,454.298153,454.298153,454.9837682,r,1,0.6716755,None,,,,sub-208,1,2025-03-12_11h40.31.037,stroop_test,04.02.2024,60.06604863,2025-03-12 11h40.41.069211 +0100
,,,,103,7,8,,,,,,,,,,,,,gelb,yellow,g,1,g,1,0.8407338,None,,,,,,,,,8,7,103,11,454.9985236,,,,,,,,,,,,,,,,,454.984357,455.7987046,456.5989181,456.582948,,,,,,,,,,,,,,,,,,,,,,,,,,,,,,,,,,,456.5859934,456.5989181,456.5989181,457.4518735,g,1,0.8407338,None,,,,sub-208,1,2025-03-12_11h40.31.037,stroop_test,04.02.2024,60.06604863,2025-03-12 11h40.41.069211 +0100
,,,,104,8,8,,,,,,,,,,,,,rot,yellow,g,0,g,1,0.8018901,None,,,,,,,,,8,8,104,3,457.466488,,,,,,,,,,,,,,,,,457.4524129,457.5669779,458.3674386,458.3513924,,,,,,,,,,,,,,,,,,,,,,,,,,,,,,,,,,,458.3572924,458.3674386,458.3674386,459.1868207,g,1,0.8018901,None,,,,sub-208,1,2025-03-12_11h40.31.037,stroop_test,04.02.2024,60.06604863,2025-03-12 11h40.41.069211 +0100
,,,,105,9,8,,,,,,,,,,,,,blau,yellow,g,0,g,1,0.568238,None,,,,,,,,,8,9,105,7,459.2011216,,,,,,,,,,,,,,,,,459.1873825,459.5510809,460.352103,460.3366588,,,,,,,,,,,,,,,,,,,,,,,,,,,,,,,,,,,460.3414944,460.352103,460.352103,460.9373506,g,1,0.568238,None,,,,sub-208,1,2025-03-12_11h40.31.037,stroop_test,04.02.2024,60.06604863,2025-03-12 11h40.41.069211 +0100
,,,,106,10,8,,,,,,,,,,,,,gelb,yellow,g,1,g,1,0.6726217,None,,,,,,,,,8,10,106,10,460.9523111,,,,,,,,,,,,,,,,,460.937898,462.1365933,462.9372786,462.92136,,,,,,,,,,,,,,,,,,,,,,,,,,,,,,,,,,,462.9274562,462.9372786,462.9372786,463.622822,g,1,0.6726217,None,,,,sub-208,1,2025-03-12_11h40.31.037,stroop_test,04.02.2024,60.06604863,2025-03-12 11h40.41.069211 +0100
,,,,107,11,8,,,,,,,,,,,,,rot,blue,b,0,b,1,1.1603747,None,,,,,,,,,8,11,107,2,463.6373207,,,,,,,,,,,,,,,,,463.6233469,464.4381292,465.240272,465.2234594,,,,,,,,,,,,,,,,,,,,,,,,,,,,,,,,,,,465.2301507,465.240272,465.240272,466.4080719,b,1,1.1603747,None,,,,sub-208,1,2025-03-12_11h40.31.037,stroop_test,04.02.2024,60.06604863,2025-03-12 11h40.41.069211 +0100
,,,,108,0,9,,,,,,,,,,,,,gelb,blue,b,0,b,1,0.6973717,None,,,,,,,,,9,0,108,9,466.4227389,,,,,,,,,,,,,,,,,466.40859,466.5224659,467.3231669,467.3080729,,,,,,,,,,,,,,,,,,,,,,,,,,,,,,,,,,,467.3133808,467.3231669,467.3231669,468.0244424,b,1,0.6973717,None,,,,sub-208,1,2025-03-12_11h40.31.037,stroop_test,04.02.2024,60.06604863,2025-03-12 11h40.41.069211 +0100
,,,,109,1,9,,,,,,,,,,,,,blau,yellow,g,0,g,1,1.0657691,None,,,,,,,,,9,1,109,7,468.0400665,,,,,,,,,,,,,,,,,468.0247515,468.3743187,469.1746674,469.1594045,,,,,,,,,,,,,,,,,,,,,,,,,,,,,,,,,,,469.165649,469.1746674,469.1746674,470.2442742,g,1,1.0657691,None,,,,sub-208,1,2025-03-12_11h40.31.037,stroop_test,04.02.2024,60.06604863,2025-03-12 11h40.41.069211 +0100
,,,,110,2,9,,,,,,,,,,,,,rot,blue,b,0,b,1,1.1286563,None,,,,,,,,,9,2,110,2,470.2587076,,,,,,,,,,,,,,,,,470.2448562,470.3590993,471.1608515,471.1443222,,,,,,,,,,,,,,,,,,,,,,,,,,,,,,,,,,,471.1506294,471.1608515,471.1608515,472.2956193,b,1,1.1286563,None,,,,sub-208,1,2025-03-12_11h40.31.037,stroop_test,04.02.2024,60.06604863,2025-03-12 11h40.41.069211 +0100
,,,,111,3,9,,,,,,,,,,,,,rot,yellow,g,0,g,1,1.0585984,None,,,,,,,,,9,3,111,3,472.3102085,,,,,,,,,,,,,,,,,472.2961247,472.4103848,473.2109491,473.1957236,,,,,,,,,,,,,,,,,,,,,,,,,,,,,,,,,,,473.1965572,473.2109491,473.2109491,474.2799376,g,1,1.0585984,None,,,,sub-208,1,2025-03-12_11h40.31.037,stroop_test,04.02.2024,60.06604863,2025-03-12 11h40.41.069211 +0100
,,,,112,4,9,,,,,,,,,,,,,blau,blue,b,1,b,1,0.7148195,None,,,,,,,,,9,4,112,5,474.2948617,,,,,,,,,,,,,,,,,474.2804495,474.3951326,475.1956659,475.180123,,,,,,,,,,,,,,,,,,,,,,,,,,,,,,,,,,,475.1838194,475.1956659,475.1956659,475.9143804,b,1,0.7148195,None,,,,sub-208,1,2025-03-12_11h40.31.037,stroop_test,04.02.2024,60.06604863,2025-03-12 11h40.41.069211 +0100
,,,,113,5,9,,,,,,,,,,,,,gelb,red,r,0,r,1,0.6702305,None,,,,,,,,,9,5,113,8,475.9293779,,,,,,,,,,,,,,,,,475.9149477,476.2793926,477.0802858,477.0647859,,,,,,,,,,,,,,,,,,,,,,,,,,,,,,,,,,,477.0701186,477.0802858,477.0802858,477.7660165,r,1,0.6702305,None,,,,sub-208,1,2025-03-12_11h40.31.037,stroop_test,04.02.2024,60.06604863,2025-03-12 11h40.41.069211 +0100
,,,,114,6,9,,,,,,,,,,,,,blau,red,r,0,r,1,0.7583882,None,,,,,,,,,9,6,114,4,477.7807745,,,,,,,,,,,,,,,,,477.7666679,477.8802915,478.6813497,478.665806,,,,,,,,,,,,,,,,,,,,,,,,,,,,,,,,,,,478.6688996,478.6813497,478.6813497,479.4502922,r,1,0.7583882,None,,,,sub-208,1,2025-03-12_11h40.31.037,stroop_test,04.02.2024,60.06604863,2025-03-12 11h40.41.069211 +0100
,,,,115,7,9,,,,,,,,,,,,,blau,blue,b,1,b,1,0.6140997,None,,,,,,,,,9,7,115,6,479.46502,,,,,,,,,,,,,,,,,479.4508555,480.2655906,481.0661562,481.0502843,,,,,,,,,,,,,,,,,,,,,,,,,,,,,,,,,,,481.0511835,481.0661562,481.0661562,481.6853017,b,1,0.6140997,None,,,,sub-208,1,2025-03-12_11h40.31.037,stroop_test,04.02.2024,60.06604863,2025-03-12 11h40.41.069211 +0100
,,,,116,8,9,,,,,,,,,,,,,gelb,yellow,g,1,g,1,0.9782382,None,,,,,,,,,9,8,116,10,481.7001597,,,,,,,,,,,,,,,,,481.6858123,482.50076,483.3011208,483.2856284,,,,,,,,,,,,,,,,,,,,,,,,,,,,,,,,,,,483.2924083,483.3011208,483.3011208,484.2865144,g,1,0.9782382,None,,,,sub-208,1,2025-03-12_11h40.31.037,stroop_test,04.02.2024,60.06604863,2025-03-12 11h40.41.069211 +0100
,,,,117,9,9,,,,,,,,,,,,,gelb,yellow,g,1,g,1,0.6980879,None,,,,,,,,,9,9,117,11,484.3018757,,,,,,,,,,,,,,,,,484.2869584,484.4019024,485.2026038,485.1865077,,,,,,,,,,,,,,,,,,,,,,,,,,,,,,,,,,,485.1872728,485.2026038,485.2026038,485.904635,g,1,0.6980879,None,,,,sub-208,1,2025-03-12_11h40.31.037,stroop_test,04.02.2024,60.06604863,2025-03-12 11h40.41.069211 +0100
,,,,118,10,9,,,,,,,,,,,,,rot,red,r,1,r,1,0.6493407,None,,,,,,,,,9,10,118,1,485.9197675,,,,,,,,,,,,,,,,,485.905218,486.2700189,487.0701948,487.0546457,,,,,,,,,,,,,,,,,,,,,,,,,,,,,,,,,,,487.0607725,487.0701948,487.0701948,487.72308,r,1,0.6493407,None,,,,sub-208,1,2025-03-12_11h40.31.037,stroop_test,04.02.2024,60.06604863,2025-03-12 11h40.41.069211 +0100
,,,,119,11,9,,,,,,,,,,,,,rot,red,r,1,r,1,0.8620443,None,,,,,,,,,9,11,119,0,487.7376765,,,,,,,,,,,,,,,,,487.7236819,487.8377052,488.6378823,488.6223334,,,,,,,,,,,,,,,,,,,,,,,,,,,,,,,,,,,488.6231038,488.6378823,488.6378823,489.5077806,r,1,0.8620443,None,,,,sub-208,1,2025-03-12_11h40.31.037,stroop_test,04.02.2024,60.06604863,2025-03-12 11h40.41.069211 +0100
,,,,,,,,,,,,,,,,,,,,,,,,,,,,,,,,,,,,,,,,,,,,,,,,,,,,,,,,,,,,,,,,,,,,,,,,,,,,,,,,,,,,,,,,,,,,,,,,,,,,,,489.508215,489.5218825,494.5093229,sub-208,1,2025-03-12_11h40.31.037,stroop_test,04.02.2024,60.06604863,2025-03-12 11h40.41.069211 +0100
