wordCTK,colorCTK,corrAnsCTK,congruentCTK,thisN,thisTrialN,thisRepN,keyResp_CTK.keys,keyResp_CTK.corr,keyResp_CTK.rt,keyResp_CTK.duration,wordPractice,colorPractice,corrAnsPractice,congruentPractice,respPractice.keys,respPractice.corr,respPractice.rt,respPractice.duration,word,color,corrAns,congruent,keyResp_test_run.keys,keyResp_test_run.corr,keyResp_test_run.rt,keyResp_test_run.duration,trials_CTK.thisRepN,trials_CTK.thisTrialN,trials_CTK.thisN,trials_CTK.thisIndex,trials_practice.thisRepN,trials_practice.thisTrialN,trials_practice.thisN,trials_practice.thisIndex,trials_test.thisRepN,trials_test.thisTrialN,trials_test.thisN,trials_test.thisIndex,thisRow.t,notes,instruction.started,instr_text.started,instr_image.started,instr_resp.started,instruction.stopped,instr_resp.keys,instr_resp.rt,instr_resp.duration,instr_color_to_key.started,instr_ctk.started,resp_ctk.started,instr_color_to_key.stopped,resp_ctk.keys,resp_ctk.rt,resp_ctk.duration,ITI.started,fixcross.started,fixcross.stopped,ITI.stopped,color_to_key_run.started,stimulus_CTK.started,keyResp_CTK.started,color_to_key_run.stopped,trials_CTK.keyResp_CTK.keys,trials_CTK.keyResp_CTK.corr,trials_CTK.keyResp_CTK.rt,trials_CTK.keyResp_CTK.duration,instr_practice.started,instr_practice_text.started,instr_practice_resp.started,instr_practice.stopped,instr_practice_resp.keys,instr_practice_resp.rt,instr_practice_resp.duration,practice_run.started,stimulus_practice.started,respPractice.started,practice_run.stopped,trials_practice.respPractice.keys,trials_practice.respPractice.corr,trials_practice.respPractice.rt,trials_practice.respPractice.duration,feedback.started,textFeedback.started,feedback.stopped,textFeedback.stopped,instr_test.started,instr_test_text.started,instr_test_resp.started,instr_test.stopped,instr_test_resp.keys,instr_test_resp.rt,instr_test_resp.duration,test_run.started,stimulus_test_run.started,keyResp_test_run.started,test_run.stopped,trials_test.keyResp_test_run.keys,trials_test.keyResp_test_run.corr,trials_test.keyResp_test_run.rt,trials_test.keyResp_test_run.duration,goodbye.started,textGoodbye.started,goodbye.stopped,participant,session,expName,frameRate,Unnamed: 112
,,,,,,,,,,,,,,,,,,,,,,,,,,,,,,,,,,,,,,,,,0.0144882670001607,0.0412214800003312,0.0412214800003312,0.0412214800003312,1.992227245000322,space,1.916386416000023,,,,,,,,,,,,,,,,,,,,,,,,,,,,,,,,,,,,,,,,,,,,,,,,,,,,,,,,,,sub-079,1,stroop_test,55.03052945197692,
,,,,,,,,,,,,,,,,,,,,,,,,,,,,,,,,,,,,,,,,,,,,,,,,,1.9922905860003084,2.017839716000253,2.017839716000253,3.915220342000339,space,1.8868937530000949,,,,,,,,,,,,,,,,,,,,,,,,,,,,,,,,,,,,,,,,,,,,,,,,,,,sub-079,1,stroop_test,55.03052945197692,
test,blue,b,1.0,0.0,0.0,0.0,b,1.0,1.4814891920000264,,,,,,,,,,,,,,,,,,0.0,0.0,0.0,2.0,,,,,,,,,3.945562066000093,,,,,,,,,,,,,,,,,3.928860727000029,5.117705105000368,5.93711281800006,5.915653795000253,5.920697928000209,5.93711281800006,5.93711281800006,7.437740162000409,b,1.0,1.4814891920000264,,,,,,,,,,,,,,,,,,,,,,,,,,,,,,,,,,,,,,,sub-079,1,stroop_test,55.03052945197692,
test,red,r,1.0,1.0,1.0,0.0,r,1.0,0.7105567319999864,,,,,,,,,,,,,,,,,,0.0,1.0,1.0,0.0,,,,,,,,,7.454031600000235,,,,,,,,,,,,,,,,,7.438222490000044,7.800471604999984,8.605288311000095,8.586566482000308,8.58719222300033,8.605288311000095,8.605288311000095,9.328212665000136,r,1.0,0.7105567319999864,,,,,,,,,,,,,,,,,,,,,,,,,,,,,,,,,,,,,,,sub-079,1,stroop_test,55.03052945197692,
test,yellow,g,1.0,2.0,2.0,0.0,g,1.0,0.4770334730001195,,,,,,,,,,,,,,,,,,0.0,2.0,2.0,1.0,,,,,,,,,9.345831916000408,,,,,,,,,,,,,,,,,9.328654338999968,9.685161021000113,10.486528388000352,10.468618804000016,10.469240522000293,10.486528388000352,10.486528388000352,10.972569083000051,g,1.0,0.4770334730001195,,,,,,,,,,,,,,,,,,,,,,,,,,,,,,,,,,,,,,,sub-079,1,stroop_test,55.03052945197692,
test,blue,b,1.0,3.0,0.0,1.0,b,1.0,0.8117225830001189,,,,,,,,,,,,,,,,,,1.0,0.0,3.0,2.0,,,,,,,,,10.989316684000189,,,,,,,,,,,,,,,,,10.972990389000188,11.783998450000126,12.58536916600042,12.569035268000334,12.569475178000175,12.58536916600042,12.58536916600042,13.404673522000394,b,1.0,0.8117225830001189,,,,,,,,,,,,,,,,,,,,,,,,,,,,,,,,,,,,,,,sub-079,1,stroop_test,55.03052945197692,
test,yellow,g,1.0,4.0,1.0,1.0,g,1.0,0.6853811989999485,,,,,,,,,,,,,,,,,,1.0,1.0,4.0,1.0,,,,,,,,,13.421723665000172,,,,,,,,,,,,,,,,,13.404999992000285,13.76925836700002,14.568770474000305,14.552718328000084,14.553100523000012,14.568770474000305,14.568770474000305,15.271849645000202,g,1.0,0.6853811989999485,,,,,,,,,,,,,,,,,,,,,,,,,,,,,,,,,,,,,,,sub-079,1,stroop_test,55.03052945197692,
test,red,r,1.0,5.0,2.0,1.0,r,1.0,0.5510691929998757,,,,,,,,,,,,,,,,,,1.0,2.0,5.0,0.0,,,,,,,,,15.289623212000151,,,,,,,,,,,,,,,,,15.27212267699997,15.635995984000148,16.437115435000123,16.420910351000202,16.42129947400008,16.437115435000123,16.437115435000123,17.005513255000096,r,1.0,0.5510691929998757,,,,,,,,,,,,,,,,,,,,,,,,,,,,,,,,,,,,,,,sub-079,1,stroop_test,55.03052945197692,
test,blue,b,1.0,6.0,0.0,2.0,b,1.0,0.6748239210000975,,,,,,,,,,,,,,,,,,2.0,0.0,6.0,2.0,,,,,,,,,17.020226428000115,,,,,,,,,,,,,,,,,17.005795128000045,17.820681400000012,18.621237243,18.605019710000303,18.605404013000225,18.621237243,18.621237243,19.30549238499998,b,1.0,0.6748239210000975,,,,,,,,,,,,,,,,,,,,,,,,,,,,,,,,,,,,,,,sub-079,1,stroop_test,55.03052945197692,
test,red,r,1.0,7.0,1.0,2.0,r,1.0,0.6675606439998774,,,,,,,,,,,,,,,,,,2.0,1.0,7.0,0.0,,,,,,,,,19.32111018600017,,,,,,,,,,,,,,,,,19.30573306400038,19.654868061000343,20.456152680000287,20.4393761780002,20.43978564200006,20.456152680000287,20.456152680000287,21.14056992800033,r,1.0,0.6675606439998774,,,,,,,,,,,,,,,,,,,,,,,,,,,,,,,,,,,,,,,sub-079,1,stroop_test,55.03052945197692,
test,yellow,g,1.0,8.0,2.0,2.0,g,1.0,0.5907468659997903,,,,,,,,,,,,,,,,,,2.0,2.0,8.0,1.0,,,,,,,,,21.156873365000138,,,,,,,,,,,,,,,,,21.14083168300021,22.35634043400023,23.15623250500039,23.14020489900031,23.14061054900003,23.15623250500039,23.15623250500039,23.7582369630004,g,1.0,0.5907468659997903,,,,,,,,,,,,,,,,,,,,,,,,,,,,,,,,,,,,,,,sub-079,1,stroop_test,55.03052945197692,
test,blue,b,1.0,9.0,0.0,3.0,b,1.0,0.4680066389996682,,,,,,,,,,,,,,,,,,3.0,0.0,9.0,2.0,,,,,,,,,23.774395152000125,,,,,,,,,,,,,,,,,23.758515273000285,24.95740093500035,25.75871090400005,25.7417337830002,25.742236933000186,25.75871090400005,25.75871090400005,26.24405799500028,b,1.0,0.4680066389996682,,,,,,,,,,,,,,,,,,,,,,,,,,,,,,,,,,,,,,,sub-079,1,stroop_test,55.03052945197692,
test,red,r,1.0,10.0,1.0,3.0,r,1.0,0.7683776310000212,,,,,,,,,,,,,,,,,,3.0,1.0,10.0,0.0,,,,,,,,,26.263029578999976,,,,,,,,,,,,,,,,,26.244455025000207,26.60837712800003,27.408980531,27.392557037000188,27.392982523000228,27.408980531,27.408980531,28.193574936000005,r,1.0,0.7683776310000212,,,,,,,,,,,,,,,,,,,,,,,,,,,,,,,,,,,,,,,sub-079,1,stroop_test,55.03052945197692,
test,yellow,g,1.0,11.0,2.0,3.0,g,1.0,0.5502802309997605,,,,,,,,,,,,,,,,,,3.0,2.0,11.0,1.0,,,,,,,,,28.20932261500002,,,,,,,,,,,,,,,,,28.193862255000116,29.39292116600018,30.193125429000247,30.17673944500029,30.1771649680004,30.193125429000247,30.193125429000247,30.7460074530004,g,1.0,0.5502802309997605,,,,,,,,,,,,,,,,,,,,,,,,,,,,,,,,,,,,,,,sub-079,1,stroop_test,55.03052945197692,
,,,,,,,,,,,,,,,,,,,,,,,,,,,,,,,,,,,,,,,,,,,,,,,,,,,,,,,,,,,,,,,,,,,,30.746135703000164,30.76372600500008,30.76372600500008,32.01374111200039,space,1.2419702270003654,,,,,,,,,,,,,,,,,,,,,,,,,,,,,,,,sub-079,1,stroop_test,55.03052945197692,
,,,,0.0,0.0,0.0,,,,,rot,blue,b,0.0,r,0.0,0.9900210199998584,,,,,,,,,,,,,,0.0,0.0,0.0,2.0,,,,,32.040393856000264,,,,,,,,,,,,,,,,,32.025945336000404,33.22797511199997,34.03684615300017,34.016351960000065,,,,,,,,,,,,,,,,34.02417452100008,34.03684615300017,34.03684615300017,35.03068310200024,r,0.0,0.9900210199998584,,35.03659885900015,35.05241094100029,36.046209164000174,,,,,,,,,,,,,,,,,,,,sub-079,1,stroop_test,55.03052945197692,
,,,,1.0,1.0,0.0,,,,,gelb,yellow,g,1.0,g,1.0,0.9432924029997594,,,,,,,,,,,,,,0.0,1.0,1.0,11.0,,,,,36.06362924200039,,,,,,,,,,,,,,,,,36.04651267899999,36.84661461900032,37.65059397599998,37.6306413010002,,,,,,,,,,,,,,,,37.634540527000354,37.65059397599998,37.65059397599998,38.598924888000056,g,1.0,0.9432924029997594,,38.60237549500016,38.61863231500001,39.615590348000296,,,,,,,,,,,,,,,,,,,,sub-079,1,stroop_test,55.03052945197692,
,,,,2.0,2.0,0.0,,,,,gelb,yellow,g,1.0,g,1.0,0.5928393770000184,,,,,,,,,,,,,,0.0,2.0,2.0,10.0,,,,,39.63184971800001,,,,,,,,,,,,,,,,,39.61604728800012,40.41568982400031,41.21660896700041,41.19926324700009,,,,,,,,,,,,,,,,41.1996492330004,41.21660896700041,41.21660896700041,41.81780661700032,g,1.0,0.5928393770000184,,41.81824833000019,41.83400407099998,42.82349801400005,,,,,,,,,,,,,,,,,,,,sub-079,1,stroop_test,55.03052945197692,
,,,,3.0,3.0,0.0,,,,,rot,red,r,1.0,r,1.0,0.6141771299999164,,,,,,,,,,,,,,0.0,3.0,3.0,1.0,,,,,42.83933735700021,,,,,,,,,,,,,,,,,42.82390321900039,43.18276658700006,43.98773773200037,43.96903731600014,,,,,,,,,,,,,,,,43.97300300200004,43.98773773200037,43.98773773200037,44.61835938800005,r,1.0,0.6141771299999164,,44.61879376500019,44.63623873900042,45.63402162600005,,,,,,,,,,,,,,,,,,,,sub-079,1,stroop_test,55.03052945197692,
,,,,4.0,4.0,0.0,,,,,rot,red,r,1.0,r,1.0,0.6907200430000557,,,,,,,,,,,,,,0.0,4.0,4.0,0.0,,,,,45.65066786500029,,,,,,,,,,,,,,,,,45.6343354960004,45.968215437000254,46.76845172499998,46.75197913200009,,,,,,,,,,,,,,,,46.75239957000031,46.76845172499998,46.76845172499998,47.46988943400038,r,1.0,0.6907200430000557,,47.47033288000012,47.485400139000376,48.4851644080004,,,,,,,,,,,,,,,,,,,,sub-079,1,stroop_test,55.03052945197692,
,,,,5.0,5.0,0.0,,,,,blau,blue,b,1.0,b,1.0,0.6739859750000505,,,,,,,,,,,,,,0.0,5.0,5.0,5.0,,,,,48.50266370100008,,,,,,,,,,,,,,,,,48.485440528000254,49.686049190000176,50.48949228800029,50.47006537600009,,,,,,,,,,,,,,,,50.47322653600031,50.48949228800029,50.48949228800029,51.17158188500025,b,1.0,0.6739859750000505,,51.17202607800027,51.1884943910004,52.18771061300004,,,,,,,,,,,,,,,,,,,,sub-079,1,stroop_test,55.03052945197692,
,,,,6.0,6.0,0.0,,,,,rot,yellow,g,0.0,g,1.0,1.8819719429998256,,,,,,,,,,,,,,0.0,6.0,6.0,3.0,,,,,52.20370380800023,,,,,,,,,,,,,,,,,52.18808225800012,52.5372891650004,53.3411947010004,53.321674280000025,,,,,,,,,,,,,,,,53.32565818400008,53.3411947010004,53.3411947010004,55.240843105000295,g,1.0,1.8819719429998256,,55.241275040000346,55.25675815500017,56.24048649100041,56.25586894800017,,,,,,,,,,,,,,,,,,,sub-079,1,stroop_test,55.03052945197692,
,,,,7.0,7.0,0.0,,,,,gelb,red,r,0.0,r,1.0,1.2318173580001712,,,,,,,,,,,,,,0.0,7.0,7.0,8.0,,,,,56.25586894800017,,,,,,,,,,,,,,,,,56.2407728320004,57.0561745,57.85972720000018,57.84052159700013,,,,,,,,,,,,,,,,57.84330693000038,57.85972720000018,57.85972720000018,59.109119052000096,r,1.0,1.2318173580001712,,59.10955149500023,59.12463060100026,60.10872271300013,60.12378980600033,,,,,,,,,,,,,,,,,,,sub-079,1,stroop_test,55.03052945197692,
,,,,8.0,8.0,0.0,,,,,blau,yellow,g,0.0,g,1.0,1.041198526000244,,,,,,,,,,,,,,0.0,8.0,8.0,7.0,,,,,60.12378980600033,,,,,,,,,,,,,,,,,60.10902146200033,60.9242573030001,61.72707732500021,61.70904979600027,,,,,,,,,,,,,,,,61.71153902700007,61.72707732500021,61.72707732500021,62.7766133060004,g,1.0,1.041198526000244,,62.77705151300006,62.79373770100028,63.79226302100005,,,,,,,,,,,,,,,,,,,,sub-079,1,stroop_test,55.03052945197692,
,,,,9.0,9.0,0.0,,,,,gelb,blue,b,0.0,b,1.0,0.9652323690002048,,,,,,,,,,,,,,0.0,9.0,9.0,9.0,,,,,63.80984201900037,,,,,,,,,,,,,,,,,63.79259441100021,64.57614703900026,65.37974832400005,65.36112496600026,,,,,,,,,,,,,,,,65.363517623,65.37974832400005,65.37974832400005,66.36207579400025,b,1.0,0.9652323690002048,,66.36252477300013,66.3794154950001,67.37755935900032,,,,,,,,,,,,,,,,,,,,sub-079,1,stroop_test,55.03052945197692,
,,,,10.0,10.0,0.0,,,,,blau,red,r,0.0,r,1.0,0.8063624930000515,,,,,,,,,,,,,,0.0,10.0,10.0,4.0,,,,,67.3943818280004,,,,,,,,,,,,,,,,,67.37783015500008,67.47767557500038,68.27988184300011,68.26179685100033,,,,,,,,,,,,,,,,68.26415257100007,68.27988184300011,68.27988184300011,69.09640761500032,r,1.0,0.8063624930000515,,69.09686125000007,69.11324312600027,70.09638514300013,70.11238857000035,,,,,,,,,,,,,,,,,,,sub-079,1,stroop_test,55.03052945197692,
,,,,11.0,11.0,0.0,,,,,blau,blue,b,1.0,b,1.0,0.7009867189999568,,,,,,,,,,,,,,0.0,11.0,11.0,6.0,,,,,70.11238857000035,,,,,,,,,,,,,,,,,70.09665397800018,70.445718081,71.2466540610003,71.2301650190002,,,,,,,,,,,,,,,,71.23058948400012,71.2466540610003,71.2466540610003,71.96480742800031,b,1.0,0.7009867189999568,,71.96525395300023,71.98044539400007,72.96394281600033,72.980025888,,,,,,,,,,,,,,,,,,,sub-079,1,stroop_test,55.03052945197692,
,,,,12.0,0.0,1.0,,,,,blau,blue,b,1.0,b,1.0,1.1077979520000554,,,,,,,,,,,,,,1.0,0.0,12.0,5.0,,,,,72.980025888,,,,,,,,,,,,,,,,,72.96420141900035,73.33021239800019,74.13092023200034,74.11469506700041,,,,,,,,,,,,,,,,74.11510361199998,74.13092023200034,74.13092023200034,75.24876014000029,b,1.0,1.1077979520000554,,75.24919643300018,75.26572667000028,76.24889945500036,76.26531441700035,,,,,,,,,,,,,,,,,,,sub-079,1,stroop_test,55.03052945197692,
,,,,13.0,1.0,1.0,,,,,gelb,blue,b,0.0,b,1.0,0.91253037999968,,,,,,,,,,,,,,1.0,1.0,13.0,9.0,,,,,76.26531441700035,,,,,,,,,,,,,,,,,76.24914618100001,77.04944753000018,77.85150017700016,77.83339860000024,,,,,,,,,,,,,,,,77.83580761300027,77.85150017700016,77.85150017700016,78.76787710300005,b,1.0,0.91253037999968,,78.76832201000025,78.783143268,79.76757458100019,79.78301713600013,,,,,,,,,,,,,,,,,,,sub-079,1,stroop_test,55.03052945197692,
,,,,14.0,2.0,1.0,,,,,blau,blue,b,1.0,b,1.0,0.5726453119996222,,,,,,,,,,,,,,1.0,2.0,14.0,6.0,,,,,79.78301713600013,,,,,,,,,,,,,,,,,79.76784988500003,80.11702767900033,80.91976717600028,80.901299999,,,,,,,,,,,,,,,,80.90414315500038,80.91976717600028,80.91976717600028,81.50209875300015,b,1.0,0.5726453119996222,,81.50255293300006,81.51908902900004,82.51831824800001,,,,,,,,,,,,,,,,,,,,sub-079,1,stroop_test,55.03052945197692,
,,,,15.0,3.0,1.0,,,,,rot,yellow,g,0.0,g,1.0,1.0162940049999634,,,,,,,,,,,,,,1.0,3.0,15.0,3.0,,,,,82.53472940700021,,,,,,,,,,,,,,,,,82.51861320300031,82.85163146200011,83.65409149700008,83.63595983200003,,,,,,,,,,,,,,,,83.63832916900037,83.65409149700008,83.65409149700008,84.68802516300002,g,1.0,1.0162940049999634,,84.68845917300041,84.70213258900003,85.68694954700004,85.70293105600012,,,,,,,,,,,,,,,,,,,sub-079,1,stroop_test,55.03052945197692,
,,,,16.0,4.0,1.0,,,,,gelb,yellow,g,1.0,g,1.0,0.7854352370000015,,,,,,,,,,,,,,1.0,4.0,16.0,10.0,,,,,85.70293105600012,,,,,,,,,,,,,,,,,85.6872190060003,85.80313390300034,86.60549530800017,86.58731237500024,,,,,,,,,,,,,,,,86.58961605400009,86.60549530800017,86.60549530800017,87.41168233300004,g,1.0,0.7854352370000015,,87.41338969900016,87.43043645700027,88.42120616400007,,,,,,,,,,,,,,,,,,,,sub-079,1,stroop_test,55.03052945197692,
,,,,17.0,5.0,1.0,,,,,blau,yellow,g,0.0,g,1.0,0.9074605750001864,,,,,,,,,,,,,,1.0,5.0,17.0,7.0,,,,,88.43791872800011,,,,,,,,,,,,,,,,,88.42149222600028,88.7712135390002,89.57408709800029,89.55520089600031,,,,,,,,,,,,,,,,89.55762115300013,89.57408709800029,89.57408709800029,90.4899220000002,g,1.0,0.9074605750001864,,90.49035681700023,90.506956146,91.50590945800012,,,,,,,,,,,,,,,,,,,,sub-079,1,stroop_test,55.03052945197692,
,,,,18.0,6.0,1.0,,,,,rot,blue,b,0.0,b,1.0,1.2116168229999855,,,,,,,,,,,,,,1.0,6.0,18.0,2.0,,,,,91.52244659400004,,,,,,,,,,,,,,,,,91.50616829400042,91.58913701400024,92.39210743400008,92.37345209000024,,,,,,,,,,,,,,,,92.37579617300024,92.39210743400008,92.39210743400008,93.6081022520002,b,1.0,1.2116168229999855,,93.60854153300032,93.62494603599998,94.62387509700012,,,,,,,,,,,,,,,,,,,,sub-079,1,stroop_test,55.03052945197692,
,,,,19.0,7.0,1.0,,,,,rot,red,r,1.0,r,1.0,0.6161285560001488,,,,,,,,,,,,,,1.0,7.0,19.0,0.0,,,,,94.640706915,,,,,,,,,,,,,,,,,94.624194471,95.8079547020002,96.60849840800029,96.59210781900038,,,,,,,,,,,,,,,,96.59252456100012,96.60849840800029,96.60849840800029,97.227063671,r,1.0,0.6161285560001488,,97.2274913170004,97.24391557000035,98.2420507920001,,,,,,,,,,,,,,,,,,,,sub-079,1,stroop_test,55.03052945197692,
,,,,20.0,8.0,1.0,,,,,blau,red,r,0.0,r,1.0,1.1813237330002266,,,,,,,,,,,,,,1.0,8.0,20.0,4.0,,,,,98.25904211800024,,,,,,,,,,,,,,,,,98.24247957800026,99.0259703050001,99.8456704780001,99.82701345300028,,,,,,,,,,,,,,,,99.829283261,99.8456704780001,99.8456704780001,101.0292336260004,r,1.0,1.1813237330002266,,101.02965620000032,101.04613396500008,102.0442073690001,,,,,,,,,,,,,,,,,,,,sub-079,1,stroop_test,55.03052945197692,
,,,,21.0,9.0,1.0,,,,,gelb,red,r,0.0,r,1.0,0.7953539049999563,,,,,,,,,,,,,,1.0,9.0,21.0,8.0,,,,,102.06079955800033,,,,,,,,,,,,,,,,,102.04448610999998,103.24461033800026,104.04762449000008,104.02895918600008,,,,,,,,,,,,,,,,104.03156383000032,104.04762449000008,104.04762449000008,104.84753663500032,r,1.0,0.7953539049999563,,104.84796256900016,104.86472373300012,105.86271655100018,,,,,,,,,,,,,,,,,,,,sub-079,1,stroop_test,55.03052945197692,
,,,,22.0,10.0,1.0,,,,,gelb,yellow,g,1.0,g,1.0,0.7303595819998918,,,,,,,,,,,,,,1.0,10.0,22.0,11.0,,,,,105.87927789100011,,,,,,,,,,,,,,,,,105.86301414000036,106.6630006930004,107.4633468510001,107.4471531500003,,,,,,,,,,,,,,,,107.4475422940004,107.4633468510001,107.4633468510001,108.19888931900005,g,1.0,0.7303595819998918,,108.19927344300004,108.215696193,109.21421562700016,,,,,,,,,,,,,,,,,,,,sub-079,1,stroop_test,55.03052945197692,
,,,,23.0,11.0,1.0,,,,,rot,red,r,1.0,r,1.0,1.0190130579999277,,,,,,,,,,,,,,1.0,11.0,23.0,1.0,,,,,109.23055642400004,,,,,,,,,,,,,,,,,109.2145194640002,109.99773825400008,110.8005711120004,110.782334687,,,,,,,,,,,,,,,,110.78472690000036,110.8005711120004,110.8005711120004,111.8331527510004,r,1.0,1.0190130579999277,,111.83358762800026,111.85008437900024,112.84905731400022,,,,,,,,,,,,,,,,,,,,sub-079,1,stroop_test,55.03052945197692,
,,,,,,,,,,,,,,,,,,,,,,,,,,,,,,,,,,,,,,,,,,,,,,,,,,,,,,,,,,,,,,,,,,,,,,,,,,,,,,,,,,,,,,,112.84917230500014,112.86573268400024,112.86573268400024,153.97085932000027,space,41.098593903000165,,,,,,,,,,,,,sub-079,1,stroop_test,55.03052945197692,
,,,,0.0,0.0,0.0,,,,,,,,,,,,,rot,red,r,1.0,r,1.0,0.9709043490001932,,,,,,,,,,0.0,0.0,0.0,1.0,153.9969475390003,,,,,,,,,,,,,,,,,153.98352967900018,155.18619472800037,155.98898704500016,155.97041677800007,,,,,,,,,,,,,,,,,,,,,,,,,,,,,,,,,,,155.97274462600035,155.98898704500016,155.98898704500016,156.97090981200017,r,1.0,0.9709043490001932,,,,,sub-079,1,stroop_test,55.03052945197692,
,,,,1.0,1.0,0.0,,,,,,,,,,,,,gelb,red,r,0.0,r,1.0,0.6862922049999725,,,,,,,,,,0.0,1.0,1.0,8.0,156.98664682300023,,,,,,,,,,,,,,,,,156.97121537700014,157.77025258100002,158.57341125200037,158.55462883100017,,,,,,,,,,,,,,,,,,,,,,,,,,,,,,,,,,,158.5571297370002,158.57341125200037,158.57341125200037,159.27271690700036,r,1.0,0.6862922049999725,,,,,sub-079,1,stroop_test,55.03052945197692,
,,,,2.0,2.0,0.0,,,,,,,,,,,,,blau,red,r,0.0,r,1.0,1.1280548089998774,,,,,,,,,,0.0,2.0,2.0,4.0,159.28867403200002,,,,,,,,,,,,,,,,,159.27303036700005,160.4716435800001,161.27531785500014,161.25615521600002,,,,,,,,,,,,,,,,,,,,,,,,,,,,,,,,,,,161.2590317080003,161.27531785500014,161.27531785500014,162.40804404300025,r,1.0,1.1280548089998774,,,,,sub-079,1,stroop_test,55.03052945197692,
,,,,3.0,3.0,0.0,,,,,,,,,,,,,gelb,blue,b,0.0,b,1.0,0.7493847749997258,,,,,,,,,,0.0,3.0,3.0,9.0,162.42426050400036,,,,,,,,,,,,,,,,,162.40850270700005,163.6231749210001,164.4260819150004,164.40731143500034,,,,,,,,,,,,,,,,,,,,,,,,,,,,,,,,,,,164.40967075800015,164.4260819150004,164.4260819150004,165.1921415290003,b,1.0,0.7493847749997258,,,,,sub-079,1,stroop_test,55.03052945197692,
,,,,4.0,4.0,0.0,,,,,,,,,,,,,gelb,yellow,g,1.0,g,1.0,0.5994109270000081,,,,,,,,,,0.0,4.0,4.0,11.0,165.20778392700004,,,,,,,,,,,,,,,,,165.19244393600002,165.30759753200027,166.10748400900002,166.09160975700024,,,,,,,,,,,,,,,,,,,,,,,,,,,,,,,,,,,166.092027272,166.10748400900002,166.10748400900002,166.70972558300036,g,1.0,0.5994109270000081,,,,,sub-079,1,stroop_test,55.03052945197692,
,,,,5.0,5.0,0.0,,,,,,,,,,,,,blau,blue,b,1.0,b,1.0,0.7577431529998648,,,,,,,,,,0.0,5.0,5.0,5.0,166.72546194799995,,,,,,,,,,,,,,,,,166.71001818900004,167.52506999900015,168.32594403200028,168.30928619400038,,,,,,,,,,,,,,,,,,,,,,,,,,,,,,,,,,,168.3116501430004,168.32594403200028,168.32594403200028,169.09419197500029,b,1.0,0.7577431529998648,,,,,sub-079,1,stroop_test,55.03052945197692,
,,,,6.0,6.0,0.0,,,,,,,,,,,,,blau,yellow,g,0.0,g,1.0,0.6517243549997147,,,,,,,,,,0.0,6.0,6.0,7.0,169.10992943300016,,,,,,,,,,,,,,,,,169.09450579400027,169.2091519530004,170.009682504,169.99326656100038,,,,,,,,,,,,,,,,,,,,,,,,,,,,,,,,,,,169.99367016400038,170.009682504,170.009682504,170.678517716,g,1.0,0.6517243549997147,,,,,sub-079,1,stroop_test,55.03052945197692,
,,,,7.0,7.0,0.0,,,,,,,,,,,,,rot,red,r,1.0,r,1.0,0.5504591200001414,,,,,,,,,,0.0,7.0,7.0,0.0,170.693226461,,,,,,,,,,,,,,,,,170.678816482,171.8936631700003,172.69510062000018,172.6780650720002,,,,,,,,,,,,,,,,,,,,,,,,,,,,,,,,,,,172.68050966500005,172.69510062000018,172.69510062000018,173.26260415900015,r,1.0,0.5504591200001414,,,,,sub-079,1,stroop_test,55.03052945197692,
,,,,8.0,8.0,0.0,,,,,,,,,,,,,blau,blue,b,1.0,b,1.0,0.6177500680000776,,,,,,,,,,0.0,8.0,8.0,6.0,173.2792745640004,,,,,,,,,,,,,,,,,173.2628996950002,173.3776982290001,174.1782396460003,174.16221598400034,,,,,,,,,,,,,,,,,,,,,,,,,,,,,,,,,,,174.164577043,174.1782396460003,174.1782396460003,174.8141039320003,b,1.0,0.6177500680000776,,,,,sub-079,1,stroop_test,55.03052945197692,
,,,,9.0,9.0,0.0,,,,,,,,,,,,,rot,blue,b,0.0,b,1.0,1.0893763090002722,,,,,,,,,,0.0,9.0,9.0,2.0,174.82907411600036,,,,,,,,,,,,,,,,,174.81450245000042,174.92893126100034,175.73163098600023,175.712871275,,,,,,,,,,,,,,,,,,,,,,,,,,,,,,,,,,,175.7152188900004,175.73163098600023,175.73163098600023,176.8312862470002,b,1.0,1.0893763090002722,,,,,sub-079,1,stroop_test,55.03052945197692,
,,,,10.0,10.0,0.0,,,,,,,,,,,,,rot,yellow,g,0.0,g,1.0,0.9347586220001176,,,,,,,,,,0.0,10.0,10.0,3.0,176.84709079700042,,,,,,,,,,,,,,,,,176.83160146299997,178.04651415000035,178.84677093400023,178.83098507000022,,,,,,,,,,,,,,,,,,,,,,,,,,,,,,,,,,,178.83142005800028,178.84677093400023,178.84677093400023,179.7988300830002,g,1.0,0.9347586220001176,,,,,sub-079,1,stroop_test,55.03052945197692,
,,,,11.0,11.0,0.0,,,,,,,,,,,,,gelb,yellow,g,1.0,g,1.0,0.5143971350003085,,,,,,,,,,0.0,11.0,11.0,10.0,179.81394556600026,,,,,,,,,,,,,,,,,179.79914391400007,180.1644356480001,180.96768792400007,180.9487019430003,,,,,,,,,,,,,,,,,,,,,,,,,,,,,,,,,,,180.9516101420004,180.96768792400007,180.96768792400007,181.48414296200008,g,1.0,0.5143971350003085,,,,,sub-079,1,stroop_test,55.03052945197692,
,,,,12.0,0.0,1.0,,,,,,,,,,,,,gelb,yellow,g,1.0,g,1.0,0.4025274749997152,,,,,,,,,,1.0,0.0,12.0,10.0,181.49999951900008,,,,,,,,,,,,,,,,,181.4844370560004,182.29863168200015,183.09916663900003,183.082962984,,,,,,,,,,,,,,,,,,,,,,,,,,,,,,,,,,,183.08339586700004,183.09916663900003,183.09916663900003,183.5169690130001,g,1.0,0.4025274749997152,,,,,sub-079,1,stroop_test,55.03052945197692,
,,,,13.0,1.0,1.0,,,,,,,,,,,,,blau,blue,b,1.0,b,1.0,0.5498371639996549,,,,,,,,,,1.0,1.0,13.0,6.0,183.53121931700025,,,,,,,,,,,,,,,,,183.5172712790004,184.31609019200005,185.1186140560003,185.10088168400037,,,,,,,,,,,,,,,,,,,,,,,,,,,,,,,,,,,185.10322058600013,185.1186140560003,185.1186140560003,185.68529702100025,b,1.0,0.5498371639996549,,,,,sub-079,1,stroop_test,55.03052945197692,
,,,,14.0,2.0,1.0,,,,,,,,,,,,,rot,yellow,g,0.0,g,1.0,1.1158765079999284,,,,,,,,,,1.0,2.0,14.0,3.0,185.702099266,,,,,,,,,,,,,,,,,185.685599681,186.05057671600025,186.85350730200025,186.8348333490003,,,,,,,,,,,,,,,,,,,,,,,,,,,,,,,,,,,186.837231558,186.85350730200025,186.85350730200025,187.98740065500036,g,1.0,1.1158765079999284,,,,,sub-079,1,stroop_test,55.03052945197692,
,,,,15.0,3.0,1.0,,,,,,,,,,,,,gelb,blue,b,0.0,b,1.0,1.2173982220001562,,,,,,,,,,1.0,3.0,15.0,9.0,188.00189140200015,,,,,,,,,,,,,,,,,187.9876979100004,189.2020464560001,190.003490823,189.98592533200008,,,,,,,,,,,,,,,,,,,,,,,,,,,,,,,,,,,189.98819811300015,190.003490823,190.003490823,191.2380430840003,b,1.0,1.2173982220001562,,,,,sub-079,1,stroop_test,55.03052945197692,
,,,,16.0,4.0,1.0,,,,,,,,,,,,,rot,blue,b,0.0,b,1.0,0.7951931699999477,,,,,,,,,,1.0,4.0,16.0,2.0,191.2544657950002,,,,,,,,,,,,,,,,,191.2383612250001,192.0532854160001,192.85579692600004,192.83786304500015,,,,,,,,,,,,,,,,,,,,,,,,,,,,,,,,,,,192.84019344200036,192.85579692600004,192.85579692600004,193.6563542380004,b,1.0,0.7951931699999477,,,,,sub-079,1,stroop_test,55.03052945197692,
,,,,17.0,5.0,1.0,,,,,,,,,,,,,gelb,yellow,g,1.0,g,1.0,0.5248880129997815,,,,,,,,,,1.0,5.0,17.0,11.0,193.672047821,,,,,,,,,,,,,,,,,193.6566487670002,194.871432683,195.6744057410001,195.655552621,,,,,,,,,,,,,,,,,,,,,,,,,,,,,,,,,,,195.6585236540004,195.6744057410001,195.6744057410001,196.20684952600004,g,1.0,0.5248880129997815,,,,,sub-079,1,stroop_test,55.03052945197692,
,,,,18.0,6.0,1.0,,,,,,,,,,,,,blau,yellow,g,0.0,g,1.0,0.5989106480001283,,,,,,,,,,1.0,6.0,18.0,7.0,196.22280888600017,,,,,,,,,,,,,,,,,196.207164036,196.57220789300027,197.374440521,197.35625228400025,,,,,,,,,,,,,,,,,,,,,,,,,,,,,,,,,,,197.3585816730001,197.374440521,197.374440521,197.9752954140004,g,1.0,0.5989106480001283,,,,,sub-079,1,stroop_test,55.03052945197692,
,,,,19.0,7.0,1.0,,,,,,,,,,,,,rot,red,r,1.0,r,1.0,0.5386484330001622,,,,,,,,,,1.0,7.0,19.0,1.0,197.9911344660004,,,,,,,,,,,,,,,,,197.975612017,198.7894809720001,199.593105938,199.57416120900007,,,,,,,,,,,,,,,,,,,,,,,,,,,,,,,,,,,199.576780847,199.593105938,199.593105938,200.14343824300025,r,1.0,0.5386484330001622,,,,,sub-079,1,stroop_test,55.03052945197692,
,,,,20.0,8.0,1.0,,,,,,,,,,,,,blau,blue,b,1.0,b,1.0,0.6089719220003644,,,,,,,,,,1.0,8.0,20.0,5.0,200.1613482990001,,,,,,,,,,,,,,,,,200.14395353100008,200.25759928900013,201.058954954,201.04105848000015,,,,,,,,,,,,,,,,,,,,,,,,,,,,,,,,,,,201.0434243920004,201.058954954,201.058954954,201.67613090900025,b,1.0,0.6089719220003644,,,,,sub-079,1,stroop_test,55.03052945197692,
,,,,21.0,9.0,1.0,,,,,,,,,,,,,blau,red,r,0.0,r,1.0,1.1723853489997964,,,,,,,,,,1.0,9.0,21.0,4.0,201.6919364540004,,,,,,,,,,,,,,,,,201.676435888,202.0411008170004,202.8424583850001,202.825812434,,,,,,,,,,,,,,,,,,,,,,,,,,,,,,,,,,,202.8262437780004,202.8424583850001,202.8424583850001,204.0271748930004,r,1.0,1.1723853489997964,,,,,sub-079,1,stroop_test,55.03052945197692,
,,,,22.0,10.0,1.0,,,,,,,,,,,,,gelb,red,r,0.0,r,1.0,0.8599232400001711,,,,,,,,,,1.0,10.0,22.0,8.0,204.04349408000007,,,,,,,,,,,,,,,,,204.02747947800023,204.1430002050001,204.9428497060003,204.92642419000003,,,,,,,,,,,,,,,,,,,,,,,,,,,,,,,,,,,204.92893425700004,204.9428497060003,204.9428497060003,205.81120771800036,r,1.0,0.8599232400001711,,,,,sub-079,1,stroop_test,55.03052945197692,
,,,,23.0,11.0,1.0,,,,,,,,,,,,,rot,red,r,1.0,r,1.0,0.5837729579998268,,,,,,,,,,1.0,11.0,23.0,0.0,205.8270450510004,,,,,,,,,,,,,,,,,205.81150642800003,206.61030929000023,207.41297309600031,207.39451132500017,,,,,,,,,,,,,,,,,,,,,,,,,,,,,,,,,,,207.39686542900017,207.41297309600031,207.41297309600031,208.0120464050001,r,1.0,0.5837729579998268,,,,,sub-079,1,stroop_test,55.03052945197692,
,,,,24.0,0.0,2.0,,,,,,,,,,,,,gelb,red,r,0.0,r,1.0,0.738317029999962,,,,,,,,,,2.0,0.0,24.0,8.0,208.02797454500023,,,,,,,,,,,,,,,,,208.0123432760001,208.8112752660004,209.61410765100027,209.5956719320002,,,,,,,,,,,,,,,,,,,,,,,,,,,,,,,,,,,209.59817495700008,209.61410765100027,209.61410765100027,210.3642597080002,r,1.0,0.738317029999962,,,,,sub-079,1,stroop_test,55.03052945197692,
,,,,25.0,1.0,2.0,,,,,,,,,,,,,blau,red,r,0.0,r,1.0,0.6560373800002708,,,,,,,,,,2.0,1.0,25.0,4.0,210.38308600400023,,,,,,,,,,,,,,,,,210.3647818960003,211.1790085040002,211.98114890700023,211.9633603010002,,,,,,,,,,,,,,,,,,,,,,,,,,,,,,,,,,,211.96570945700023,211.98114890700023,211.98114890700023,212.6478043080001,r,1.0,0.6560373800002708,,,,,sub-079,1,stroop_test,55.03052945197692,
,,,,26.0,2.0,2.0,,,,,,,,,,,,,gelb,blue,b,0.0,b,1.0,0.651440563000051,,,,,,,,,,2.0,2.0,26.0,9.0,212.66381027100036,,,,,,,,,,,,,,,,,212.6481189820001,213.0133368290003,213.8159800210001,213.797822301,,,,,,,,,,,,,,,,,,,,,,,,,,,,,,,,,,,213.80015359900017,213.8159800210001,213.8159800210001,214.4827533600001,b,1.0,0.651440563000051,,,,,sub-079,1,stroop_test,55.03052945197692,
,,,,27.0,3.0,2.0,,,,,,,,,,,,,gelb,yellow,g,1.0,g,1.0,0.5569394590002048,,,,,,,,,,2.0,3.0,27.0,11.0,214.498470257,,,,,,,,,,,,,,,,,214.483057292,214.59800804900036,215.39801297800025,215.382100239,,,,,,,,,,,,,,,,,,,,,,,,,,,,,,,,,,,215.3825319160001,215.39801297800025,215.39801297800025,215.96733561200017,g,1.0,0.5569394590002048,,,,,sub-079,1,stroop_test,55.03052945197692,
,,,,28.0,4.0,2.0,,,,,,,,,,,,,blau,blue,b,1.0,b,1.0,0.5093785210001442,,,,,,,,,,2.0,4.0,28.0,5.0,215.98476979900036,,,,,,,,,,,,,,,,,215.96763612500035,217.1822437370001,217.98521361800024,217.9674705670004,,,,,,,,,,,,,,,,,,,,,,,,,,,,,,,,,,,217.97213003200025,217.98521361800024,217.98521361800024,218.5012070180001,b,1.0,0.5093785210001442,,,,,sub-079,1,stroop_test,55.03052945197692,
,,,,29.0,5.0,2.0,,,,,,,,,,,,,rot,yellow,g,0.0,g,1.0,1.0950436719999743,,,,,,,,,,2.0,5.0,29.0,3.0,218.51850245700007,,,,,,,,,,,,,,,,,218.50150762300015,218.61733600900016,219.4367527410004,219.4180583870002,,,,,,,,,,,,,,,,,,,,,,,,,,,,,,,,,,,219.421471267,219.4367527410004,219.4367527410004,220.55524619900007,g,1.0,1.0950436719999743,,,,,sub-079,1,stroop_test,55.03052945197692,
,,,,30.0,6.0,2.0,,,,,,,,,,,,,gelb,yellow,g,1.0,g,1.0,0.611743843000113,,,,,,,,,,2.0,6.0,30.0,10.0,220.5733604840002,,,,,,,,,,,,,,,,,220.55572573900008,220.91694786300013,221.71961957600024,221.70150180400012,,,,,,,,,,,,,,,,,,,,,,,,,,,,,,,,,,,221.70392856300032,221.71961957600024,221.71961957600024,222.336633375,g,1.0,0.611743843000113,,,,,sub-079,1,stroop_test,55.03052945197692,
,,,,31.0,7.0,2.0,,,,,,,,,,,,,blau,yellow,g,0.0,g,1.0,0.5477287730000171,,,,,,,,,,2.0,7.0,31.0,7.0,222.352538915,,,,,,,,,,,,,,,,,222.33694705100012,222.70120776800013,223.50410367800032,223.48545417800003,,,,,,,,,,,,,,,,,,,,,,,,,,,,,,,,,,,223.4878620280001,223.50410367800032,223.50410367800032,224.05438329900016,g,1.0,0.5477287730000171,,,,,sub-079,1,stroop_test,55.03052945197692,
,,,,32.0,8.0,2.0,,,,,,,,,,,,,blau,blue,b,1.0,b,1.0,0.6282918870001595,,,,,,,,,,2.0,8.0,32.0,6.0,224.07159033300013,,,,,,,,,,,,,,,,,224.05468460200015,224.16980846900012,224.9707489700004,224.9529780710004,,,,,,,,,,,,,,,,,,,,,,,,,,,,,,,,,,,224.9534002610003,224.9707489700004,224.9707489700004,225.6045125210003,b,1.0,0.6282918870001595,,,,,sub-079,1,stroop_test,55.03052945197692,
,,,,33.0,9.0,2.0,,,,,,,,,,,,,rot,red,r,1.0,r,1.0,0.5556853580001189,,,,,,,,,,2.0,9.0,33.0,0.0,225.6201649200002,,,,,,,,,,,,,,,,,225.60481194000025,225.9695835800003,226.7723519850001,226.753552871,,,,,,,,,,,,,,,,,,,,,,,,,,,,,,,,,,,226.7558980470003,226.7723519850001,226.7723519850001,227.33812343,r,1.0,0.5556853580001189,,,,,sub-079,1,stroop_test,55.03052945197692,
,,,,34.0,10.0,2.0,,,,,,,,,,,,,rot,blue,b,0.0,b,1.0,1.1629727680001452,,,,,,,,,,2.0,10.0,34.0,2.0,227.3541896240004,,,,,,,,,,,,,,,,,227.3384349310004,227.70364409900003,228.5019992720004,228.4877533470003,,,,,,,,,,,,,,,,,,,,,,,,,,,,,,,,,,,228.488107703,228.5019992720004,228.5019992720004,229.6729109730004,b,1.0,1.1629727680001452,,,,,sub-079,1,stroop_test,55.03052945197692,
,,,,35.0,11.0,2.0,,,,,,,,,,,,,rot,red,r,1.0,r,1.0,0.5520934370001669,,,,,,,,,,2.0,11.0,35.0,1.0,229.68862110500004,,,,,,,,,,,,,,,,,229.6732056560004,230.0379284100004,230.8426255010004,230.8261113440003,,,,,,,,,,,,,,,,,,,,,,,,,,,,,,,,,,,230.8268407630003,230.8426255010004,230.8426255010004,231.4068584610004,r,1.0,0.5520934370001669,,,,,sub-079,1,stroop_test,55.03052945197692,
,,,,36.0,0.0,3.0,,,,,,,,,,,,,blau,red,r,0.0,r,1.0,0.4157087319999846,,,,,,,,,,3.0,0.0,36.0,4.0,231.423499386,,,,,,,,,,,,,,,,,231.40716173600003,231.52209815900005,232.3231971770001,232.3064928190001,,,,,,,,,,,,,,,,,,,,,,,,,,,,,,,,,,,232.30871411800035,232.3231971770001,232.3231971770001,232.74135844800003,r,1.0,0.4157087319999846,,,,,sub-079,1,stroop_test,55.03052945197692,
,,,,37.0,1.0,3.0,,,,,,,,,,,,,blau,blue,b,1.0,b,1.0,0.5842184769999221,,,,,,,,,,3.0,1.0,37.0,5.0,232.75549992600008,,,,,,,,,,,,,,,,,232.7416595650002,233.106373997,233.906656784,233.89034269900003,,,,,,,,,,,,,,,,,,,,,,,,,,,,,,,,,,,233.8907379100001,233.906656784,233.906656784,234.4928556300001,b,1.0,0.5842184769999221,,,,,sub-079,1,stroop_test,55.03052945197692,
,,,,38.0,2.0,3.0,,,,,,,,,,,,,rot,yellow,g,0.0,g,1.0,0.7591575159999593,,,,,,,,,,3.0,2.0,38.0,3.0,234.50701434600023,,,,,,,,,,,,,,,,,234.4931489850001,235.7076752060002,236.50867935900035,236.4919508830003,,,,,,,,,,,,,,,,,,,,,,,,,,,,,,,,,,,236.49483866500032,236.50867935900035,236.50867935900035,237.2761599130004,g,1.0,0.7591575159999593,,,,,sub-079,1,stroop_test,55.03052945197692,
,,,,39.0,3.0,3.0,,,,,,,,,,,,,blau,yellow,g,0.0,g,1.0,0.7833347519999734,,,,,,,,,,3.0,3.0,39.0,7.0,237.29204371900005,,,,,,,,,,,,,,,,,237.2764540740004,237.3914509160004,238.193832598,238.1756979880001,,,,,,,,,,,,,,,,,,,,,,,,,,,,,,,,,,,238.1781981840004,238.193832598,238.193832598,238.99400476900016,g,1.0,0.7833347519999734,,,,,sub-079,1,stroop_test,55.03052945197692,
,,,,40.0,4.0,3.0,,,,,,,,,,,,,gelb,yellow,g,1.0,g,1.0,0.5443608979999226,,,,,,,,,,3.0,4.0,40.0,10.0,239.00861814200016,,,,,,,,,,,,,,,,,238.994330432,239.80933160500035,240.6117944300004,240.5934783030002,,,,,,,,,,,,,,,,,,,,,,,,,,,,,,,,,,,240.59579644900032,240.6117944300004,240.6117944300004,241.1653505450004,g,1.0,0.5443608979999226,,,,,sub-079,1,stroop_test,55.03052945197692,
,,,,41.0,5.0,3.0,,,,,,,,,,,,,gelb,red,r,0.0,r,1.0,0.80159503699997,,,,,,,,,,3.0,5.0,41.0,8.0,241.18016530400016,,,,,,,,,,,,,,,,,241.16589651100003,241.5268906480001,242.327557567,242.3113820210001,,,,,,,,,,,,,,,,,,,,,,,,,,,,,,,,,,,242.3118108630001,242.327557567,242.327557567,243.1457664050004,r,1.0,0.80159503699997,,,,,sub-079,1,stroop_test,55.03052945197692,
,,,,42.0,6.0,3.0,,,,,,,,,,,,,rot,red,r,1.0,r,1.0,0.5620813769996857,,,,,,,,,,3.0,6.0,42.0,0.0,243.16240938500005,,,,,,,,,,,,,,,,,243.14607479300005,243.51116276500036,244.3306550760003,244.31206464600015,,,,,,,,,,,,,,,,,,,,,,,,,,,,,,,,,,,244.3141941050003,244.3306550760003,244.3306550760003,244.897193625,r,1.0,0.5620813769996857,,,,,sub-079,1,stroop_test,55.03052945197692,
,,,,43.0,7.0,3.0,,,,,,,,,,,,,gelb,yellow,g,1.0,g,1.0,0.5641506939996361,,,,,,,,,,3.0,7.0,43.0,11.0,244.91380182300009,,,,,,,,,,,,,,,,,244.8974820450003,246.1122762800001,246.9149325440003,246.89670704800028,,,,,,,,,,,,,,,,,,,,,,,,,,,,,,,,,,,246.8989007340001,246.9149325440003,246.9149325440003,247.4814117570004,g,1.0,0.5641506939996361,,,,,sub-079,1,stroop_test,55.03052945197692,
,,,,44.0,8.0,3.0,,,,,,,,,,,,,blau,blue,b,1.0,b,1.0,0.5801953899999717,,,,,,,,,,3.0,8.0,44.0,6.0,247.497006308,,,,,,,,,,,,,,,,,247.48170339800023,247.5962657900004,248.39901131900024,248.38067236200004,,,,,,,,,,,,,,,,,,,,,,,,,,,,,,,,,,,248.38304430800008,248.39901131900024,248.39901131900024,248.9826117380003,b,1.0,0.5801953899999717,,,,,sub-079,1,stroop_test,55.03052945197692,
,,,,45.0,9.0,3.0,,,,,,,,,,,,,gelb,blue,b,0.0,b,1.0,0.6486271419998957,,,,,,,,,,3.0,9.0,45.0,9.0,248.9990128470004,,,,,,,,,,,,,,,,,248.98291200400035,250.1976585770003,251.0001739240001,250.98176157800023,,,,,,,,,,,,,,,,,,,,,,,,,,,,,,,,,,,250.983965121,251.0001739240001,251.0001739240001,251.6508402250001,b,1.0,0.6486271419998957,,,,,sub-079,1,stroop_test,55.03052945197692,
,,,,46.0,10.0,3.0,,,,,,,,,,,,,rot,red,r,1.0,r,1.0,0.4975357110001823,,,,,,,,,,3.0,10.0,46.0,1.0,251.667279365,,,,,,,,,,,,,,,,,251.65113198900008,252.86554128900025,253.6690999870002,253.6497902130004,,,,,,,,,,,,,,,,,,,,,,,,,,,,,,,,,,,253.65274274500007,253.6690999870002,253.6690999870002,254.1686228600001,r,1.0,0.4975357110001823,,,,,sub-079,1,stroop_test,55.03052945197692,
,,,,47.0,11.0,3.0,,,,,,,,,,,,,rot,blue,b,0.0,b,1.0,0.5765159720003794,,,,,,,,,,3.0,11.0,47.0,2.0,254.184997716,,,,,,,,,,,,,,,,,254.1689181400002,254.53300109400016,255.33356455500007,255.3172626960004,,,,,,,,,,,,,,,,,,,,,,,,,,,,,,,,,,,255.31766976400013,255.33356455500007,255.33356455500007,255.918296327,b,1.0,0.5765159720003794,,,,,sub-079,1,stroop_test,55.03052945197692,
,,,,48.0,0.0,4.0,,,,,,,,,,,,,rot,red,r,1.0,r,1.0,0.5765464080000129,,,,,,,,,,4.0,0.0,48.0,0.0,255.934149663,,,,,,,,,,,,,,,,,255.918594794,256.0335898760004,256.8343929380003,256.8180446240003,,,,,,,,,,,,,,,,,,,,,,,,,,,,,,,,,,,256.8184490620001,256.8343929380003,256.8343929380003,257.4189279230004,r,1.0,0.5765464080000129,,,,,sub-079,1,stroop_test,55.03052945197692,
,,,,49.0,1.0,4.0,,,,,,,,,,,,,blau,yellow,g,0.0,g,1.0,0.550160003000201,,,,,,,,,,4.0,1.0,49.0,7.0,257.4349241550003,,,,,,,,,,,,,,,,,257.41922782400025,257.53447896900025,258.337213967,258.3187709590002,,,,,,,,,,,,,,,,,,,,,,,,,,,,,,,,,,,258.3211730150001,258.337213967,258.337213967,258.90304899500006,g,1.0,0.550160003000201,,,,,sub-079,1,stroop_test,55.03052945197692,
,,,,50.0,2.0,4.0,,,,,,,,,,,,,blau,blue,b,1.0,b,1.0,0.5432079100000919,,,,,,,,,,4.0,2.0,50.0,5.0,258.920059861,,,,,,,,,,,,,,,,,258.90334600100005,259.0187462370004,259.8195059230002,259.8029297330004,,,,,,,,,,,,,,,,,,,,,,,,,,,,,,,,,,,259.8033366290001,259.8195059230002,259.8195059230002,260.3707641300002,b,1.0,0.5432079100000919,,,,,sub-079,1,stroop_test,55.03052945197692,
,,,,51.0,3.0,4.0,,,,,,,,,,,,,blau,red,r,0.0,r,1.0,0.5097956509998767,,,,,,,,,,4.0,3.0,51.0,4.0,260.38689569400003,,,,,,,,,,,,,,,,,260.371077972,261.57017346700013,262.3705867110002,262.3540951150003,,,,,,,,,,,,,,,,,,,,,,,,,,,,,,,,,,,262.35451896500035,262.3705867110002,262.3705867110002,262.8882534420004,r,1.0,0.5097956509998767,,,,,sub-079,1,stroop_test,55.03052945197692,
,,,,52.0,4.0,4.0,,,,,,,,,,,,,gelb,blue,b,0.0,b,1.0,0.56628953299969,,,,,,,,,,4.0,4.0,52.0,9.0,262.9041888320003,,,,,,,,,,,,,,,,,262.8885553100004,263.68719088000034,264.4896095850004,264.4715584820001,,,,,,,,,,,,,,,,,,,,,,,,,,,,,,,,,,,264.4739338450004,264.4896095850004,264.4896095850004,265.073774902,b,1.0,0.56628953299969,,,,,sub-079,1,stroop_test,55.03052945197692,
,,,,53.0,5.0,4.0,,,,,,,,,,,,,gelb,yellow,g,1.0,g,1.0,0.5171836330000588,,,,,,,,,,4.0,5.0,53.0,11.0,265.08837884000013,,,,,,,,,,,,,,,,,265.07407355600026,265.888443502,266.6893639560003,266.6727559590004,,,,,,,,,,,,,,,,,,,,,,,,,,,,,,,,,,,266.673173961,266.6893639560003,266.6893639560003,267.208541473,g,1.0,0.5171836330000588,,,,,sub-079,1,stroop_test,55.03052945197692,
,,,,54.0,6.0,4.0,,,,,,,,,,,,,rot,blue,b,0.0,b,1.0,0.6749719999997978,,,,,,,,,,4.0,6.0,54.0,2.0,267.2241569290004,,,,,,,,,,,,,,,,,267.2088536850001,267.57244697900023,268.3752608670002,268.35681851900017,,,,,,,,,,,,,,,,,,,,,,,,,,,,,,,,,,,268.35895579900034,268.3752608670002,268.3752608670002,269.0584579190004,b,1.0,0.6749719999997978,,,,,sub-079,1,stroop_test,55.03052945197692,
,,,,55.0,7.0,4.0,,,,,,,,,,,,,blau,blue,b,1.0,b,1.0,0.4956894900001316,,,,,,,,,,4.0,7.0,55.0,6.0,269.07477218600025,,,,,,,,,,,,,,,,,269.05876457800014,269.8736137340002,270.6771235220004,270.658183128,,,,,,,,,,,,,,,,,,,,,,,,,,,,,,,,,,,270.66051873100014,270.6771235220004,270.6771235220004,271.1761408350003,b,1.0,0.4956894900001316,,,,,sub-079,1,stroop_test,55.03052945197692,
,,,,56.0,8.0,4.0,,,,,,,,,,,,,rot,yellow,g,0.0,g,1.0,0.5471177730000818,,,,,,,,,,4.0,8.0,56.0,3.0,271.1919828770001,,,,,,,,,,,,,,,,,271.17644224100013,271.5412242010002,272.3440586800002,272.3254639210004,,,,,,,,,,,,,,,,,,,,,,,,,,,,,,,,,,,272.32788844800007,272.3440586800002,272.3440586800002,272.8938173060001,g,1.0,0.5471177730000818,,,,,sub-079,1,stroop_test,55.03052945197692,
,,,,57.0,9.0,4.0,,,,,,,,,,,,,gelb,yellow,g,1.0,g,1.0,0.532777421999981,,,,,,,,,,4.0,9.0,57.0,10.0,272.9098529340004,,,,,,,,,,,,,,,,,272.89410798100016,273.70876484400014,274.5116195960004,274.493161722,,,,,,,,,,,,,,,,,,,,,,,,,,,,,,,,,,,274.4961088150003,274.5116195960004,274.5116195960004,275.0605350310002,g,1.0,0.532777421999981,,,,,sub-079,1,stroop_test,55.03052945197692,
,,,,58.0,10.0,4.0,,,,,,,,,,,,,rot,red,r,1.0,r,1.0,0.6752052809997622,,,,,,,,,,4.0,10.0,58.0,1.0,275.0765958520001,,,,,,,,,,,,,,,,,275.060857465,275.4093527750001,276.2118487900002,276.1940330030002,,,,,,,,,,,,,,,,,,,,,,,,,,,,,,,,,,,276.19638370600023,276.2118487900002,276.2118487900002,276.89565087100027,r,1.0,0.6752052809997622,,,,,sub-079,1,stroop_test,55.03052945197692,
,,,,59.0,11.0,4.0,,,,,,,,,,,,,gelb,red,r,0.0,r,1.0,0.829988677000074,,,,,,,,,,4.0,11.0,59.0,8.0,276.91153098600034,,,,,,,,,,,,,,,,,276.895944893,277.0104684720004,277.813152535,277.79475044200035,,,,,,,,,,,,,,,,,,,,,,,,,,,,,,,,,,,277.7971497110002,277.813152535,277.813152535,278.6462688490001,r,1.0,0.829988677000074,,,,,sub-079,1,stroop_test,55.03052945197692,
,,,,60.0,0.0,5.0,,,,,,,,,,,,,blau,yellow,g,0.0,g,1.0,0.6725120619998961,,,,,,,,,,5.0,0.0,60.0,7.0,278.66202448800004,,,,,,,,,,,,,,,,,278.6465836670004,279.01125554400005,279.8140853550003,279.7958940770004,,,,,,,,,,,,,,,,,,,,,,,,,,,,,,,,,,,279.798324505,279.8140853550003,279.8140853550003,280.4966656650004,g,1.0,0.6725120619998961,,,,,sub-079,1,stroop_test,55.03052945197692,
,,,,61.0,1.0,5.0,,,,,,,,,,,,,gelb,yellow,g,1.0,g,1.0,0.550535872999717,,,,,,,,,,5.0,1.0,61.0,11.0,280.51251186200034,,,,,,,,,,,,,,,,,280.49697721500024,280.8623374230001,281.6635202790003,281.646366981,,,,,,,,,,,,,,,,,,,,,,,,,,,,,,,,,,,281.648740436,281.6635202790003,281.6635202790003,282.23178794800015,g,1.0,0.550535872999717,,,,,sub-079,1,stroop_test,55.03052945197692,
,,,,62.0,2.0,5.0,,,,,,,,,,,,,rot,yellow,g,0.0,g,1.0,0.5469423109998388,,,,,,,,,,5.0,2.0,62.0,3.0,282.246385337,,,,,,,,,,,,,,,,,282.2320849470002,283.4467289260001,284.2488006880003,284.2309,,,,,,,,,,,,,,,,,,,,,,,,,,,,,,,,,,,284.23299152300024,284.2488006880003,284.2488006880003,284.7994731230001,g,1.0,0.5469423109998388,,,,,sub-079,1,stroop_test,55.03052945197692,
,,,,63.0,3.0,5.0,,,,,,,,,,,,,blau,blue,b,1.0,b,1.0,0.9897307109999928,,,,,,,,,,5.0,3.0,63.0,5.0,284.8151107200001,,,,,,,,,,,,,,,,,284.7997609810004,285.1642810840003,285.966737493,285.9483125390002,,,,,,,,,,,,,,,,,,,,,,,,,,,,,,,,,,,285.9507390040003,285.966737493,285.966737493,286.9663579520002,b,1.0,0.9897307109999928,,,,,sub-079,1,stroop_test,55.03052945197692,
,,,,64.0,4.0,5.0,,,,,,,,,,,,,rot,blue,b,0.0,b,1.0,0.5484641719999672,,,,,,,,,,5.0,4.0,64.0,2.0,286.9822544980002,,,,,,,,,,,,,,,,,286.9666683610003,287.3318207480001,288.1350823020002,288.11606645400025,,,,,,,,,,,,,,,,,,,,,,,,,,,,,,,,,,,288.118988573,288.1350823020002,288.1350823020002,288.7010130230001,b,1.0,0.5484641719999672,,,,,sub-079,1,stroop_test,55.03052945197692,
,,,,65.0,5.0,5.0,,,,,,,,,,,,,rot,red,r,1.0,r,1.0,0.5838699809996797,,,,,,,,,,5.0,5.0,65.0,0.0,288.714212847,,,,,,,,,,,,,,,,,288.70132310500003,289.51621294000006,290.316382645,290.300419231,,,,,,,,,,,,,,,,,,,,,,,,,,,,,,,,,,,290.30084640700034,290.316382645,290.316382645,290.9027605230003,r,1.0,0.5838699809996797,,,,,sub-079,1,stroop_test,55.03052945197692,
,,,,66.0,6.0,5.0,,,,,,,,,,,,,blau,blue,b,1.0,b,1.0,0.5488883179996265,,,,,,,,,,5.0,6.0,66.0,6.0,290.9184982060001,,,,,,,,,,,,,,,,,290.9030622920004,292.11807505000024,292.9205974600004,292.9019626400004,,,,,,,,,,,,,,,,,,,,,,,,,,,,,,,,,,,292.9044683080001,292.9205974600004,292.9205974600004,293.486414773,b,1.0,0.5488883179996265,,,,,sub-079,1,stroop_test,55.03052945197692,
,,,,67.0,7.0,5.0,,,,,,,,,,,,,rot,red,r,1.0,r,1.0,0.681843182999728,,,,,,,,,,5.0,7.0,67.0,1.0,293.49951272900034,,,,,,,,,,,,,,,,,293.4867209700001,294.70218632700016,295.50430744000005,295.48641723200035,,,,,,,,,,,,,,,,,,,,,,,,,,,,,,,,,,,295.488754,295.50430744000005,295.50430744000005,296.1880978590002,r,1.0,0.681843182999728,,,,,sub-079,1,stroop_test,55.03052945197692,
,,,,68.0,8.0,5.0,,,,,,,,,,,,,gelb,blue,b,0.0,b,1.0,0.7732931449995704,,,,,,,,,,5.0,8.0,68.0,9.0,296.20382204900034,,,,,,,,,,,,,,,,,296.18838841900015,297.40330597,298.20517541000027,298.18760379100013,,,,,,,,,,,,,,,,,,,,,,,,,,,,,,,,,,,298.1897440990001,298.20517541000027,298.20517541000027,298.9881770920001,b,1.0,0.7732931449995704,,,,,sub-079,1,stroop_test,55.03052945197692,
,,,,69.0,9.0,5.0,,,,,,,,,,,,,gelb,red,r,0.0,r,1.0,1.2473169700001565,,,,,,,,,,5.0,9.0,69.0,8.0,299.00392954100016,,,,,,,,,,,,,,,,,298.98845452800015,299.354307652,300.15481875700016,300.138524727,,,,,,,,,,,,,,,,,,,,,,,,,,,,,,,,,,,300.138963377,300.15481875700016,300.15481875700016,301.40709875500033,r,1.0,1.2473169700001565,,,,,sub-079,1,stroop_test,55.03052945197692,
,,,,70.0,10.0,5.0,,,,,,,,,,,,,gelb,yellow,g,1.0,g,1.0,0.4153140090002125,,,,,,,,,,5.0,10.0,70.0,10.0,301.4226903470003,,,,,,,,,,,,,,,,,301.4074016460004,301.77232238600027,302.575115441,302.55652635900015,,,,,,,,,,,,,,,,,,,,,,,,,,,,,,,,,,,302.55724768200025,302.575115441,302.575115441,303.008014342,g,1.0,0.4153140090002125,,,,,sub-079,1,stroop_test,55.03052945197692,
,,,,71.0,11.0,5.0,,,,,,,,,,,,,blau,red,r,0.0,r,1.0,1.2968246730001738,,,,,,,,,,5.0,11.0,71.0,4.0,303.02245566700003,,,,,,,,,,,,,,,,,303.008300772,303.37112583800035,304.1748520660003,304.1571180000001,,,,,,,,,,,,,,,,,,,,,,,,,,,,,,,,,,,304.15948718300024,304.1748520660003,304.1748520660003,305.47569830400016,r,1.0,1.2968246730001738,,,,,sub-079,1,stroop_test,55.03052945197692,
,,,,72.0,0.0,6.0,,,,,,,,,,,,,blau,blue,b,1.0,b,1.0,0.5669438850000006,,,,,,,,,,6.0,0.0,72.0,5.0,305.491430908,,,,,,,,,,,,,,,,,305.4759856190003,305.8407055570001,306.6413761800004,306.6249318500004,,,,,,,,,,,,,,,,,,,,,,,,,,,,,,,,,,,306.6253487060003,306.6413761800004,306.6413761800004,307.21051485,b,1.0,0.5669438850000006,,,,,sub-079,1,stroop_test,55.03052945197692,
,,,,73.0,1.0,6.0,,,,,,,,,,,,,rot,yellow,g,0.0,g,1.0,0.3914385739999488,,,,,,,,,,6.0,1.0,73.0,3.0,307.2266114900003,,,,,,,,,,,,,,,,,307.210809189,308.4252501980004,309.22791503400003,309.2095866120003,,,,,,,,,,,,,,,,,,,,,,,,,,,,,,,,,,,309.21188952600005,309.22791503400003,309.22791503400003,309.627133942,g,1.0,0.3914385739999488,,,,,sub-079,1,stroop_test,55.03052945197692,
,,,,74.0,2.0,6.0,,,,,,,,,,,,,rot,red,r,1.0,r,1.0,0.3936627279999811,,,,,,,,,,6.0,2.0,74.0,0.0,309.64157790900026,,,,,,,,,,,,,,,,,309.62744967900016,309.9923653810001,310.7924933170002,310.77651577200004,,,,,,,,,,,,,,,,,,,,,,,,,,,,,,,,,,,310.77693422300035,310.7924933170002,310.7924933170002,311.1944779750001,r,1.0,0.3936627279999811,,,,,sub-079,1,stroop_test,55.03052945197692,
,,,,75.0,3.0,6.0,,,,,,,,,,,,,rot,blue,b,0.0,b,1.0,0.4568049099998461,,,,,,,,,,6.0,3.0,75.0,2.0,311.2105040010001,,,,,,,,,,,,,,,,,311.1947701590002,312.3940066090004,313.19444888800035,313.17800411200005,,,,,,,,,,,,,,,,,,,,,,,,,,,,,,,,,,,313.17839565700024,313.19444888800035,313.19444888800035,313.66200645200024,b,1.0,0.4568049099998461,,,,,sub-079,1,stroop_test,55.03052945197692,
,,,,76.0,4.0,6.0,,,,,,,,,,,,,gelb,blue,b,0.0,b,1.0,0.5797324239997579,,,,,,,,,,6.0,4.0,76.0,9.0,313.6778861070002,,,,,,,,,,,,,,,,,313.6622998810003,314.01112050500024,314.81578196300006,314.79565736500035,,,,,,,,,,,,,,,,,,,,,,,,,,,,,,,,,,,314.7995670160003,314.81578196300006,314.81578196300006,315.39750155,b,1.0,0.5797324239997579,,,,,sub-079,1,stroop_test,55.03052945197692,
,,,,77.0,5.0,6.0,,,,,,,,,,,,,rot,red,r,1.0,r,1.0,0.6976200590002009,,,,,,,,,,6.0,5.0,77.0,1.0,315.41333818600015,,,,,,,,,,,,,,,,,315.3978008850004,316.61248511700023,317.41553569300004,317.3968738810004,,,,,,,,,,,,,,,,,,,,,,,,,,,,,,,,,,,317.399212327,317.41553569300004,317.41553569300004,318.1157437240004,r,1.0,0.6976200590002009,,,,,sub-079,1,stroop_test,55.03052945197692,
,,,,78.0,6.0,6.0,,,,,,,,,,,,,gelb,red,r,0.0,r,1.0,0.6480155520002882,,,,,,,,,,6.0,6.0,78.0,8.0,318.1315275510001,,,,,,,,,,,,,,,,,318.11603232000016,318.93039343500004,319.7310083770003,319.71423621700023,,,,,,,,,,,,,,,,,,,,,,,,,,,,,,,,,,,319.7164142650004,319.7310083770003,319.7310083770003,320.3830715680001,r,1.0,0.6480155520002882,,,,,sub-079,1,stroop_test,55.03052945197692,
,,,,79.0,7.0,6.0,,,,,,,,,,,,,gelb,yellow,g,1.0,g,1.0,0.4165264480002406,,,,,,,,,,6.0,7.0,79.0,11.0,320.397445739,,,,,,,,,,,,,,,,,320.3833616380002,320.4976047600003,321.298262327,321.2818675900003,,,,,,,,,,,,,,,,,,,,,,,,,,,,,,,,,,,321.28230237800017,321.298262327,321.298262327,321.71721503000026,g,1.0,0.4165264480002406,,,,,sub-079,1,stroop_test,55.03052945197692,
,,,,80.0,8.0,6.0,,,,,,,,,,,,,blau,red,r,0.0,r,1.0,1.255553514999974,,,,,,,,,,6.0,8.0,80.0,4.0,321.73284985400005,,,,,,,,,,,,,,,,,321.7175038100004,321.83126348700034,322.6339824860001,322.61617667400014,,,,,,,,,,,,,,,,,,,,,,,,,,,,,,,,,,,322.61842699,322.6339824860001,322.6339824860001,323.900200951,r,1.0,1.255553514999974,,,,,sub-079,1,stroop_test,55.03052945197692,
,,,,81.0,9.0,6.0,,,,,,,,,,,,,blau,yellow,g,0.0,g,1.0,0.7641193639997255,,,,,,,,,,6.0,9.0,81.0,7.0,323.9172995840004,,,,,,,,,,,,,,,,,323.90050723700006,323.9987352870003,324.7998505330001,324.78359011700013,,,,,,,,,,,,,,,,,,,,,,,,,,,,,,,,,,,324.7840170980003,324.7998505330001,324.7998505330001,325.5689398080003,g,1.0,0.7641193639997255,,,,,sub-079,1,stroop_test,55.03052945197692,
,,,,82.0,10.0,6.0,,,,,,,,,,,,,blau,blue,b,1.0,b,1.0,0.4175754329999108,,,,,,,,,,6.0,10.0,82.0,6.0,325.5848413800004,,,,,,,,,,,,,,,,,325.569231256,326.78407429000026,327.584549316,327.5680373600003,,,,,,,,,,,,,,,,,,,,,,,,,,,,,,,,,,,327.5684114770001,327.584549316,327.584549316,328.02029307600014,b,1.0,0.4175754329999108,,,,,sub-079,1,stroop_test,55.03052945197692,
,,,,83.0,11.0,6.0,,,,,,,,,,,,,gelb,yellow,g,1.0,g,1.0,0.5380367679999836,,,,,,,,,,6.0,11.0,83.0,10.0,328.0350118030001,,,,,,,,,,,,,,,,,328.0206070680001,328.384798604,329.1870583640002,329.1687524990002,,,,,,,,,,,,,,,,,,,,,,,,,,,,,,,,,,,329.17088425600014,329.1870583640002,329.1870583640002,329.7365575800004,g,1.0,0.5380367679999836,,,,,sub-079,1,stroop_test,55.03052945197692,
,,,,84.0,0.0,7.0,,,,,,,,,,,,,blau,blue,b,1.0,b,1.0,0.5657497649999641,,,,,,,,,,7.0,0.0,84.0,5.0,329.75244790800025,,,,,,,,,,,,,,,,,329.7368604000003,329.8521531870001,330.6550394560004,330.6363386310004,,,,,,,,,,,,,,,,,,,,,,,,,,,,,,,,,,,330.6387123980003,330.6550394560004,330.6550394560004,331.2375074910001,b,1.0,0.5657497649999641,,,,,sub-079,1,stroop_test,55.03052945197692,
,,,,85.0,1.0,7.0,,,,,,,,,,,,,gelb,yellow,g,1.0,g,1.0,0.6040442700000312,,,,,,,,,,7.0,1.0,85.0,11.0,331.25350938600013,,,,,,,,,,,,,,,,,331.2378413160004,331.6028110780003,332.406298249,332.38729923300025,,,,,,,,,,,,,,,,,,,,,,,,,,,,,,,,,,,332.3903339130002,332.406298249,332.406298249,333.0211829310001,g,1.0,0.6040442700000312,,,,,sub-079,1,stroop_test,55.03052945197692,
,,,,86.0,2.0,7.0,,,,,,,,,,,,,blau,yellow,g,0.0,g,1.0,0.9986870310003724,,,,,,,,,,7.0,2.0,86.0,7.0,333.03785190400004,,,,,,,,,,,,,,,,,333.021482697,333.37128645500025,334.173395669,334.1548372260004,,,,,,,,,,,,,,,,,,,,,,,,,,,,,,,,,,,334.1573394740003,334.173395669,334.173395669,335.1737908130003,g,1.0,0.9986870310003724,,,,,sub-079,1,stroop_test,55.03052945197692,
,,,,87.0,3.0,7.0,,,,,,,,,,,,,gelb,blue,b,0.0,b,1.0,0.709251170999778,,,,,,,,,,7.0,3.0,87.0,9.0,335.19031498000004,,,,,,,,,,,,,,,,,335.17408571900023,335.988370175,336.79010034600014,336.77239374600003,,,,,,,,,,,,,,,,,,,,,,,,,,,,,,,,,,,336.7747791410002,336.79010034600014,336.79010034600014,337.50773895700013,b,1.0,0.709251170999778,,,,,sub-079,1,stroop_test,55.03052945197692,
,,,,88.0,4.0,7.0,,,,,,,,,,,,,gelb,yellow,g,1.0,g,1.0,0.5820829149997735,,,,,,,,,,7.0,4.0,88.0,10.0,337.5240667760004,,,,,,,,,,,,,,,,,337.5080486840002,338.32268474500006,339.12323883900035,339.1069190990001,,,,,,,,,,,,,,,,,,,,,,,,,,,,,,,,,,,339.107346408,339.12323883900035,339.12323883900035,339.7090069330002,g,1.0,0.5820829149997735,,,,,sub-079,1,stroop_test,55.03052945197692,
,,,,89.0,5.0,7.0,,,,,,,,,,,,,blau,blue,b,1.0,b,1.0,1.1916620179999882,,,,,,,,,,7.0,5.0,89.0,6.0,339.72498010000027,,,,,,,,,,,,,,,,,339.7093069290004,339.823250896,340.62572252100017,340.6077265190001,,,,,,,,,,,,,,,,,,,,,,,,,,,,,,,,,,,340.6101472160003,340.62572252100017,340.62572252100017,341.8257998700001,b,1.0,1.1916620179999882,,,,,sub-079,1,stroop_test,55.03052945197692,
,,,,90.0,6.0,7.0,,,,,,,,,,,,,rot,red,r,1.0,r,1.0,0.5479854390000582,,,,,,,,,,7.0,6.0,90.0,0.0,341.8416704770002,,,,,,,,,,,,,,,,,341.82609545900004,342.6247093490001,343.4284626890003,343.4091669170002,,,,,,,,,,,,,,,,,,,,,,,,,,,,,,,,,,,343.41182285800005,343.4284626890003,343.4284626890003,343.9942793180003,r,1.0,0.5479854390000582,,,,,sub-079,1,stroop_test,55.03052945197692,
,,,,91.0,7.0,7.0,,,,,,,,,,,,,rot,blue,b,0.0,b,1.0,0.8668350060002012,,,,,,,,,,7.0,7.0,91.0,2.0,344.00728141900026,,,,,,,,,,,,,,,,,343.99457621400006,344.35899349500005,345.1599493220001,345.14326856900016,,,,,,,,,,,,,,,,,,,,,,,,,,,,,,,,,,,345.1436870100001,345.1599493220001,345.1599493220001,346.044503738,b,1.0,0.8668350060002012,,,,,sub-079,1,stroop_test,55.03052945197692,
,,,,92.0,8.0,7.0,,,,,,,,,,,,,gelb,red,r,0.0,r,1.0,0.9909826830003112,,,,,,,,,,7.0,8.0,92.0,8.0,346.05934762100014,,,,,,,,,,,,,,,,,346.0448398010003,347.2431884360003,348.04409957000007,348.02794173600023,,,,,,,,,,,,,,,,,,,,,,,,,,,,,,,,,,,348.0303187170002,348.04409957000007,348.04409957000007,349.04565003300013,r,1.0,0.9909826830003112,,,,,sub-079,1,stroop_test,55.03052945197692,
,,,,93.0,9.0,7.0,,,,,,,,,,,,,rot,yellow,g,0.0,g,1.0,0.5998588519996702,,,,,,,,,,7.0,9.0,93.0,3.0,349.06150486100023,,,,,,,,,,,,,,,,,349.0459499960002,350.2449949380002,351.0475238990002,351.0292106280003,,,,,,,,,,,,,,,,,,,,,,,,,,,,,,,,,,,351.0321958000004,351.0475238990002,351.0475238990002,351.6630791780003,g,1.0,0.5998588519996702,,,,,sub-079,1,stroop_test,55.03052945197692,
,,,,94.0,10.0,7.0,,,,,,,,,,,,,rot,red,r,1.0,r,1.0,0.6274524199998268,,,,,,,,,,7.0,10.0,94.0,1.0,351.6791246730004,,,,,,,,,,,,,,,,,351.6633824820001,352.01237323700025,352.8124979260001,352.7962701280003,,,,,,,,,,,,,,,,,,,,,,,,,,,,,,,,,,,352.7966889460004,352.8124979260001,352.8124979260001,353.44794685000033,r,1.0,0.6274524199998268,,,,,sub-079,1,stroop_test,55.03052945197692,
,,,,95.0,11.0,7.0,,,,,,,,,,,,,blau,red,r,0.0,r,1.0,0.6734219889999622,,,,,,,,,,7.0,11.0,95.0,4.0,353.46404376600003,,,,,,,,,,,,,,,,,353.4482548210003,353.79738045600016,354.6158501760001,354.597573689,,,,,,,,,,,,,,,,,,,,,,,,,,,,,,,,,,,354.60001922300034,354.6158501760001,354.6158501760001,355.29837965100023,r,1.0,0.6734219889999622,,,,,sub-079,1,stroop_test,55.03052945197692,
,,,,96.0,0.0,8.0,,,,,,,,,,,,,gelb,red,r,0.0,r,1.0,0.6543278089998239,,,,,,,,,,8.0,0.0,96.0,8.0,355.3141946320002,,,,,,,,,,,,,,,,,355.29869619600004,356.114570879,356.9171737470001,356.8987044360001,,,,,,,,,,,,,,,,,,,,,,,,,,,,,,,,,,,356.901099146,356.9171737470001,356.9171737470001,357.5831954100004,r,1.0,0.6543278089998239,,,,,sub-079,1,stroop_test,55.03052945197692,
,,,,97.0,1.0,8.0,,,,,,,,,,,,,rot,yellow,g,0.0,g,1.0,0.6256580809999832,,,,,,,,,,8.0,1.0,97.0,3.0,357.5991043390004,,,,,,,,,,,,,,,,,357.58350666900014,357.9481526030004,358.75086626300026,358.732981869,,,,,,,,,,,,,,,,,,,,,,,,,,,,,,,,,,,358.7352709400002,358.75086626300026,358.75086626300026,359.38418586100033,g,1.0,0.6256580809999832,,,,,sub-079,1,stroop_test,55.03052945197692,
,,,,98.0,2.0,8.0,,,,,,,,,,,,,rot,red,r,1.0,r,1.0,0.5742066600000726,,,,,,,,,,8.0,2.0,98.0,1.0,359.3997936990004,,,,,,,,,,,,,,,,,359.38449208300017,360.1995663970001,361.00087683400034,360.9839821970004,,,,,,,,,,,,,,,,,,,,,,,,,,,,,,,,,,,360.98440908500015,361.00087683400034,361.00087683400034,361.5846620400002,r,1.0,0.5742066600000726,,,,,sub-079,1,stroop_test,55.03052945197692,
,,,,99.0,3.0,8.0,,,,,,,,,,,,,blau,blue,b,1.0,b,1.0,0.5827282979998927,,,,,,,,,,8.0,3.0,99.0,5.0,361.6006790870001,,,,,,,,,,,,,,,,,361.5849582820001,362.38413272800017,363.1867085670001,363.1687539990003,,,,,,,,,,,,,,,,,,,,,,,,,,,,,,,,,,,363.17113339000025,363.1867085670001,363.1867085670001,363.78745287400034,b,1.0,0.5827282979998927,,,,,sub-079,1,stroop_test,55.03052945197692,
,,,,100.0,4.0,8.0,,,,,,,,,,,,,blau,red,r,0.0,r,1.0,0.9322461830001884,,,,,,,,,,8.0,4.0,100.0,4.0,363.802426233,,,,,,,,,,,,,,,,,363.7877599100002,364.601844586,365.4023181970001,365.38607752100006,,,,,,,,,,,,,,,,,,,,,,,,,,,,,,,,,,,365.38648784800034,365.4023181970001,365.4023181970001,366.3377862890002,r,1.0,0.9322461830001884,,,,,sub-079,1,stroop_test,55.03052945197692,
,,,,101.0,5.0,8.0,,,,,,,,,,,,,rot,red,r,1.0,r,1.0,0.5999541020000834,,,,,,,,,,8.0,5.0,101.0,0.0,366.3534121790003,,,,,,,,,,,,,,,,,366.33808758500027,366.4529129290004,367.2554139020003,367.2369952560002,,,,,,,,,,,,,,,,,,,,,,,,,,,,,,,,,,,367.2393211110002,367.2554139020003,367.2554139020003,367.871883065,r,1.0,0.5999541020000834,,,,,sub-079,1,stroop_test,55.03052945197692,
,,,,102.0,6.0,8.0,,,,,,,,,,,,,gelb,yellow,g,1.0,g,1.0,0.5465207610000107,,,,,,,,,,8.0,6.0,102.0,10.0,367.8885910700001,,,,,,,,,,,,,,,,,367.8722035100004,368.2369590480002,369.04034075200025,369.02138989000014,,,,,,,,,,,,,,,,,,,,,,,,,,,,,,,,,,,369.02435471100034,369.04034075200025,369.04034075200025,369.5900338190004,g,1.0,0.5465207610000107,,,,,sub-079,1,stroop_test,55.03052945197692,
,,,,103.0,7.0,8.0,,,,,,,,,,,,,gelb,yellow,g,1.0,g,1.0,0.5413301160001538,,,,,,,,,,8.0,7.0,103.0,11.0,369.606307987,,,,,,,,,,,,,,,,,369.5903235370001,370.8046360940002,371.60525593500006,371.5890997180004,,,,,,,,,,,,,,,,,,,,,,,,,,,,,,,,,,,371.5895292710002,371.60525593500006,371.60525593500006,372.1572232380004,g,1.0,0.5413301160001538,,,,,sub-079,1,stroop_test,55.03052945197692,
,,,,104.0,8.0,8.0,,,,,,,,,,,,,rot,blue,b,0.0,b,1.0,1.0081920079996962,,,,,,,,,,8.0,8.0,104.0,2.0,372.1729746340002,,,,,,,,,,,,,,,,,372.1575364260002,372.9721638300002,373.7749400870002,373.756992698,,,,,,,,,,,,,,,,,,,,,,,,,,,,,,,,,,,373.7593184410002,373.7749400870002,373.7749400870002,374.79170005700007,b,1.0,1.0081920079996962,,,,,sub-079,1,stroop_test,55.03052945197692,
,,,,105.0,9.0,8.0,,,,,,,,,,,,,blau,yellow,g,0.0,g,1.0,1.0994983099999445,,,,,,,,,,8.0,9.0,105.0,7.0,374.8084046250001,,,,,,,,,,,,,,,,,374.7920107740001,375.6067268050001,376.4098408650002,376.3913831070004,,,,,,,,,,,,,,,,,,,,,,,,,,,,,,,,,,,376.393772033,376.4098408650002,376.4098408650002,377.5270267540004,g,1.0,1.0994983099999445,,,,,sub-079,1,stroop_test,55.03052945197692,
,,,,106.0,10.0,8.0,,,,,,,,,,,,,gelb,blue,b,0.0,b,1.0,0.6785019570002078,,,,,,,,,,8.0,10.0,106.0,9.0,377.54165182,,,,,,,,,,,,,,,,,377.5273256540004,378.7419103270004,379.5449030790001,379.52620390500033,,,,,,,,,,,,,,,,,,,,,,,,,,,,,,,,,,,379.5285753630001,379.5449030790001,379.5449030790001,380.2280795200004,b,1.0,0.6785019570002078,,,,,sub-079,1,stroop_test,55.03052945197692,
,,,,107.0,11.0,8.0,,,,,,,,,,,,,blau,blue,b,1.0,b,1.0,0.4663521120000951,,,,,,,,,,8.0,11.0,107.0,6.0,380.2438090130004,,,,,,,,,,,,,,,,,380.2283780810003,380.3425178720004,381.14565354900014,381.1271207120003,,,,,,,,,,,,,,,,,,,,,,,,,,,,,,,,,,,381.12963928,381.14565354900014,381.14565354900014,381.6277927740002,b,1.0,0.4663521120000951,,,,,sub-079,1,stroop_test,55.03052945197692,
,,,,108.0,0.0,9.0,,,,,,,,,,,,,gelb,blue,b,0.0,b,1.0,0.3881080579999434,,,,,,,,,,9.0,0.0,108.0,9.0,381.6435830300002,,,,,,,,,,,,,,,,,381.62809742900026,381.99351633900005,382.799129598,382.7776698490002,,,,,,,,,,,,,,,,,,,,,,,,,,,,,,,,,,,382.780087135,382.799129598,382.799129598,383.1954543620004,b,1.0,0.3881080579999434,,,,,sub-079,1,stroop_test,55.03052945197692,
,,,,109.0,1.0,9.0,,,,,,,,,,,,,gelb,yellow,g,1.0,g,1.0,0.4601609350002036,,,,,,,,,,9.0,1.0,109.0,10.0,383.21145009300017,,,,,,,,,,,,,,,,,383.1957650630002,383.56134965,384.36146834300007,384.3452306050003,,,,,,,,,,,,,,,,,,,,,,,,,,,,,,,,,,,384.3456154140004,384.36146834300007,384.36146834300007,384.828824573,g,1.0,0.4601609350002036,,,,,sub-079,1,stroop_test,55.03052945197692,
,,,,110.0,2.0,9.0,,,,,,,,,,,,,rot,red,r,1.0,r,1.0,0.4435189519999767,,,,,,,,,,9.0,2.0,110.0,0.0,384.8445633440001,,,,,,,,,,,,,,,,,384.829123515,385.62832981500014,386.4311441130003,386.4128797490002,,,,,,,,,,,,,,,,,,,,,,,,,,,,,,,,,,,386.41586719800034,386.4311441130003,386.4311441130003,386.8810704140001,r,1.0,0.4435189519999767,,,,,sub-079,1,stroop_test,55.03052945197692,
,,,,111.0,3.0,9.0,,,,,,,,,,,,,rot,red,r,1.0,r,1.0,0.4015029840002171,,,,,,,,,,9.0,3.0,111.0,1.0,386.897259374,,,,,,,,,,,,,,,,,386.88138666500026,388.0963802250003,388.897039551,388.8807134550002,,,,,,,,,,,,,,,,,,,,,,,,,,,,,,,,,,,388.8811313250003,388.897039551,388.897039551,389.31518793500027,r,1.0,0.4015029840002171,,,,,sub-079,1,stroop_test,55.03052945197692,
,,,,112.0,4.0,9.0,,,,,,,,,,,,,blau,red,r,0.0,r,1.0,0.4053679640001064,,,,,,,,,,9.0,4.0,112.0,4.0,389.3309530040001,,,,,,,,,,,,,,,,,389.3154836020003,389.6804705600002,390.4830691440002,390.464618338,,,,,,,,,,,,,,,,,,,,,,,,,,,,,,,,,,,390.4667715970004,390.4830691440002,390.4830691440002,390.899289639,r,1.0,0.4053679640001064,,,,,sub-079,1,stroop_test,55.03052945197692,
,,,,113.0,5.0,9.0,,,,,,,,,,,,,blau,blue,b,1.0,b,1.0,0.4622805070002869,,,,,,,,,,9.0,5.0,113.0,5.0,390.9150806880002,,,,,,,,,,,,,,,,,390.89960434800014,392.11489723800014,392.9148614560004,392.8988754940001,,,,,,,,,,,,,,,,,,,,,,,,,,,,,,,,,,,392.8992977940002,392.9148614560004,392.9148614560004,393.383972394,b,1.0,0.4622805070002869,,,,,sub-079,1,stroop_test,55.03052945197692,
,,,,114.0,6.0,9.0,,,,,,,,,,,,,rot,yellow,g,0.0,g,1.0,0.443928078999761,,,,,,,,,,9.0,6.0,114.0,3.0,393.3997076310002,,,,,,,,,,,,,,,,,393.38429304300007,394.5977423630002,395.40155301,395.3835897400004,,,,,,,,,,,,,,,,,,,,,,,,,,,,,,,,,,,395.38592971900016,395.40155301,395.40155301,395.85210312000027,g,1.0,0.443928078999761,,,,,sub-079,1,stroop_test,55.03052945197692,
,,,,115.0,7.0,9.0,,,,,,,,,,,,,blau,blue,b,1.0,b,1.0,0.5387068060003912,,,,,,,,,,9.0,7.0,115.0,6.0,395.866159103,,,,,,,,,,,,,,,,,395.8523996420004,396.2167547670001,397.01945065200016,397.00120086800007,,,,,,,,,,,,,,,,,,,,,,,,,,,,,,,,,,,397.0035909940002,397.01945065200016,397.01945065200016,397.5687193830004,b,1.0,0.5387068060003912,,,,,sub-079,1,stroop_test,55.03052945197692,
,,,,116.0,8.0,9.0,,,,,,,,,,,,,blau,yellow,g,0.0,g,1.0,1.049353117999999,,,,,,,,,,9.0,8.0,116.0,7.0,397.5846279340003,,,,,,,,,,,,,,,,,397.5690372150002,397.68422937800005,398.48511077600006,398.4686682020001,,,,,,,,,,,,,,,,,,,,,,,,,,,,,,,,,,,398.4692478430002,398.48511077600006,398.48511077600006,399.5372302800001,g,1.0,1.049353117999999,,,,,sub-079,1,stroop_test,55.03052945197692,
,,,,117.0,9.0,9.0,,,,,,,,,,,,,gelb,yellow,g,1.0,g,1.0,0.5141316689996529,,,,,,,,,,9.0,9.0,117.0,11.0,399.55311027100015,,,,,,,,,,,,,,,,,399.537531508,399.9019015210001,400.70454133500016,400.686265756,,,,,,,,,,,,,,,,,,,,,,,,,,,,,,,,,,,400.68851693800025,400.70454133500016,400.70454133500016,401.22231996200026,g,1.0,0.5141316689996529,,,,,sub-079,1,stroop_test,55.03052945197692,
,,,,118.0,10.0,9.0,,,,,,,,,,,,,rot,blue,b,0.0,b,1.0,1.5558662399998866,,,,,,,,,,9.0,10.0,118.0,2.0,401.2382065370002,,,,,,,,,,,,,,,,,401.2226480080003,402.4364044220001,403.26264375300025,403.2222681920002,,,,,,,,,,,,,,,,,,,,,,,,,,,,,,,,,,,403.224952902,403.26264375300025,403.26264375300025,404.823403808,b,1.0,1.5558662399998866,,,,,sub-079,1,stroop_test,55.03052945197692,
,,,,119.0,11.0,9.0,,,,,,,,,,,,,gelb,red,r,0.0,r,1.0,0.9718718859999173,,,,,,,,,,9.0,11.0,119.0,8.0,404.8385741130001,,,,,,,,,,,,,,,,,404.82372249200034,404.9386781310004,405.7411537420003,405.7221727730002,,,,,,,,,,,,,,,,,,,,,,,,,,,,,,,,,,,405.7254111720004,405.7411537420003,405.7411537420003,406.7229090830001,r,1.0,0.9718718859999173,,,,,sub-079,1,stroop_test,55.03052945197692,
,,,,,,,,,,,,,,,,,,,,,,,,,,,,,,,,,,,,,,,,,,,,,,,,,,,,,,,,,,,,,,,,,,,,,,,,,,,,,,,,,,,,,,,,,,,,,,,,,,,,,,406.7230762460004,406.74023619200034,411.7243777130002,sub-079,1,stroop_test,55.03052945197692,
