wordCTK,colorCTK,corrAnsCTK,congruentCTK,thisN,thisTrialN,thisRepN,keyResp_CTK.keys,keyResp_CTK.corr,keyResp_CTK.rt,keyResp_CTK.duration,wordPractice,colorPractice,corrAnsPractice,congruentPractice,respPractice.keys,respPractice.corr,respPractice.rt,respPractice.duration,word,color,corrAns,congruent,keyResp_test_run.keys,keyResp_test_run.corr,keyResp_test_run.rt,keyResp_test_run.duration,trials_CTK.thisRepN,trials_CTK.thisTrialN,trials_CTK.thisN,trials_CTK.thisIndex,trials_practice.thisRepN,trials_practice.thisTrialN,trials_practice.thisN,trials_practice.thisIndex,trials_test.thisRepN,trials_test.thisTrialN,trials_test.thisN,trials_test.thisIndex,thisRow.t,notes,instruction.started,instr_text.started,instr_image.started,instr_resp.started,instruction.stopped,instr_resp.keys,instr_resp.rt,instr_resp.duration,instr_color_to_key.started,instr_ctk.started,resp_ctk.started,instr_color_to_key.stopped,resp_ctk.keys,resp_ctk.rt,resp_ctk.duration,ITI.started,fixcross.started,fixcross.stopped,ITI.stopped,color_to_key_run.started,stimulus_CTK.started,keyResp_CTK.started,color_to_key_run.stopped,trials_CTK.keyResp_CTK.keys,trials_CTK.keyResp_CTK.corr,trials_CTK.keyResp_CTK.rt,trials_CTK.keyResp_CTK.duration,instr_practice.started,instr_practice_text.started,instr_practice_resp.started,instr_practice.stopped,instr_practice_resp.keys,instr_practice_resp.rt,instr_practice_resp.duration,practice_run.started,stimulus_practice.started,respPractice.started,practice_run.stopped,trials_practice.respPractice.keys,trials_practice.respPractice.corr,trials_practice.respPractice.rt,trials_practice.respPractice.duration,feedback.started,textFeedback.started,feedback.stopped,textFeedback.stopped,instr_test.started,instr_test_text.started,instr_test_resp.started,instr_test.stopped,instr_test_resp.keys,instr_test_resp.rt,instr_test_resp.duration,test_run.started,stimulus_test_run.started,keyResp_test_run.started,test_run.stopped,trials_test.keyResp_test_run.keys,trials_test.keyResp_test_run.corr,trials_test.keyResp_test_run.rt,trials_test.keyResp_test_run.duration,goodbye.started,textGoodbye.started,textGoodbye.stopped,goodbye.stopped,participant,session,expName,frameRate,Unnamed: 113
,,,,,,,,,,,,,,,,,,,,,,,,,,,,,,,,,,,,,,,,,0.009757375002664,0.0230965000009746,0.0230965000009746,0.0230965000009746,115.15418608400068,space,115.08296370800235,,,,,,,,,,,,,,,,,,,,,,,,,,,,,,,,,,,,,,,,,,,,,,,,,,,,,,,,,,,sub-161,1,stroop_test,119.97912410895916,
,,,,,,,,,,,,,,,,,,,,,,,,,,,,,,,,,,,,,,,,,,,,,,,,,115.1542784589983,115.1930487089994,115.1930487089994,120.23741883400362,space,5.03308495899546,,,,,,,,,,,,,,,,,,,,,,,,,,,,,,,,,,,,,,,,,,,,,,,,,,,,sub-161,1,stroop_test,119.97912410895916,
test,red,r,1.0,0.0,0.0,0.0,r,1.0,0.5884777910032426,,,,,,,,,,,,,,,,,,0.0,0.0,0.0,0.0,,,,,,,,,120.27822775000097,,,,,,,,,,,,,,,,,120.2587992090048,120.33438916700106,121.13284879200364,121.11882666699968,121.12539887500316,121.13284879200364,121.13284879200364,121.726528625004,r,1.0,0.5884777910032426,,,,,,,,,,,,,,,,,,,,,,,,,,,,,,,,,,,,,,,,sub-161,1,stroop_test,119.97912410895916,
test,blue,b,1.0,1.0,1.0,0.0,b,1.0,0.712130416999571,,,,,,,,,,,,,,,,,,0.0,1.0,1.0,2.0,,,,,,,,,121.75140625000496,,,,,,,,,,,,,,,,,121.72690791700006,122.92524454199884,123.71836541700031,123.70922295900527,123.70988654200482,123.71836541700031,123.71836541700031,124.43704133400024,b,1.0,0.712130416999571,,,,,,,,,,,,,,,,,,,,,,,,,,,,,,,,,,,,,,,,sub-161,1,stroop_test,119.97912410895916,
test,yellow,g,1.0,2.0,2.0,0.0,g,1.0,3.5443801660003373,,,,,,,,,,,,,,,,,,0.0,2.0,2.0,1.0,,,,,,,,,124.44589266700496,,,,,,,,,,,,,,,,,124.43743141699817,125.63546874999884,126.42736587500258,126.41928883400396,126.41993083400304,126.42736587500258,126.42736587500258,129.97656624999945,g,1.0,3.5443801660003373,,,,,,,,,,,,,,,,,,,,,,,,,,,,,,,,,,,,,,,,sub-161,1,stroop_test,119.97912410895916,
test,red,r,1.0,3.0,0.0,1.0,r,1.0,1.4836617079999996,,,,,,,,,,,,,,,,,,1.0,0.0,3.0,0.0,,,,,,,,,129.98517316699872,,,,,,,,,,,,,,,,,129.97703920899949,131.1754821249997,131.96840945900476,131.95925612500287,131.95994208400225,131.96840945900476,131.96840945900476,133.45447033399978,r,1.0,1.4836617079999996,,,,,,,,,,,,,,,,,,,,,,,,,,,,,,,,,,,,,,,,sub-161,1,stroop_test,119.97912410895916,
test,yellow,g,1.0,4.0,1.0,1.0,g,1.0,1.911958582997613,,,,,,,,,,,,,,,,,,1.0,1.0,4.0,1.0,,,,,,,,,133.4635081669985,,,,,,,,,,,,,,,,,133.45489074999932,134.65205595899897,135.4442900840004,135.43628070900013,135.4369670840024,135.4442900840004,135.4442900840004,137.36032450000494,g,1.0,1.911958582997613,,,,,,,,,,,,,,,,,,,,,,,,,,,,,,,,,,,,,,,,sub-161,1,stroop_test,119.97912410895916,
test,blue,b,1.0,5.0,2.0,1.0,b,1.0,0.9382778340004734,,,,,,,,,,,,,,,,,,1.0,2.0,5.0,2.0,,,,,,,,,137.36876958400535,,,,,,,,,,,,,,,,,137.36069179200422,137.70909504200245,138.50096750000375,138.49300070900065,138.49366029199882,138.50096750000375,138.50096750000375,139.44355512499897,b,1.0,0.9382778340004734,,,,,,,,,,,,,,,,,,,,,,,,,,,,,,,,,,,,,,,,sub-161,1,stroop_test,119.97912410895916,
test,blue,b,1.0,6.0,0.0,2.0,b,1.0,1.1099599579974893,,,,,,,,,,,,,,,,,,2.0,0.0,6.0,2.0,,,,,,,,,139.4527404170003,,,,,,,,,,,,,,,,,139.44392745900404,139.79267091699876,140.58517741700052,140.5765803750037,140.5771174590045,140.58517741700052,140.58517741700052,141.70405608400324,b,1.0,1.1099599579974893,,,,,,,,,,,,,,,,,,,,,,,,,,,,,,,,,,,,,,,,sub-161,1,stroop_test,119.97912410895916,
test,yellow,g,1.0,7.0,1.0,2.0,g,1.0,0.622277500006021,,,,,,,,,,,,,,,,,,2.0,1.0,7.0,1.0,,,,,,,,,141.71345779200055,,,,,,,,,,,,,,,,,141.7045417920017,142.05223933399975,142.84435225000198,142.8363967500045,142.83705254200322,142.84435225000198,142.84435225000198,143.47086429200135,g,1.0,0.622277500006021,,,,,,,,,,,,,,,,,,,,,,,,,,,,,,,,,,,,,,,,sub-161,1,stroop_test,119.97912410895916,
test,red,r,1.0,8.0,2.0,2.0,r,1.0,0.4206662500000675,,,,,,,,,,,,,,,,,,2.0,2.0,8.0,0.0,,,,,,,,,143.47976454200398,,,,,,,,,,,,,,,,,143.47125029200106,143.56918970900006,144.35970649999945,144.35278700000345,144.35334129200055,144.35970649999945,144.35970649999945,144.78657662500336,r,1.0,0.4206662500000675,,,,,,,,,,,,,,,,,,,,,,,,,,,,,,,,,,,,,,,,sub-161,1,stroop_test,119.97912410895916,
test,red,r,1.0,9.0,0.0,3.0,r,1.0,0.9786367920023622,,,,,,,,,,,,,,,,,,3.0,0.0,9.0,0.0,,,,,,,,,144.79254349999974,,,,,,,,,,,,,,,,,144.78676170900144,145.57582312500017,146.36865991700324,146.35939241699816,146.36010208399966,146.36865991700324,146.36865991700324,147.35440050000034,r,1.0,0.9786367920023622,,,,,,,,,,,,,,,,,,,,,,,,,,,,,,,,,,,,,,,,sub-161,1,stroop_test,119.97912410895916,
test,blue,b,1.0,10.0,1.0,3.0,b,1.0,0.5605131250049453,,,,,,,,,,,,,,,,,,3.0,1.0,10.0,2.0,,,,,,,,,147.36399104200245,,,,,,,,,,,,,,,,,147.35488479200285,147.7024851669994,148.49458041699836,148.4865992920022,148.487280500005,148.49458041699836,148.49458041699836,149.06139216700103,b,1.0,0.5605131250049453,,,,,,,,,,,,,,,,,,,,,,,,,,,,,,,,,,,,,,,,sub-161,1,stroop_test,119.97912410895916,
test,yellow,g,1.0,11.0,2.0,3.0,g,1.0,0.4063889999961247,,,,,,,,,,,,,,,,,,3.0,2.0,11.0,1.0,,,,,,,,,149.07055095900432,,,,,,,,,,,,,,,,,149.0617937920033,149.85925570900145,150.65202062499884,150.6421944590038,150.642761916999,150.65202062499884,150.65202062499884,151.0604545840033,g,1.0,0.4063889999961247,,,,,,,,,,,,,,,,,,,,,,,,,,,,,,,,,,,,,,,,sub-161,1,stroop_test,119.97912410895916,
,,,,,,,,,,,,,,,,,,,,,,,,,,,,,,,,,,,,,,,,,,,,,,,,,,,,,,,,,,,,,,,,,,,,151.06063004200405,151.07134999999835,151.07134999999835,157.96977212500497,space,6.8877537500011385,,,,,,,,,,,,,,,,,,,,,,,,,,,,,,,,,sub-161,1,stroop_test,119.97912410895916,
,,,,0.0,0.0,0.0,,,,,gelb,blue,b,0.0,b,1.0,0.9220061659943894,,,,,,,,,,,,,,0.0,0.0,0.0,9.0,,,,,157.99076195900125,,,,,,,,,,,,,,,,,157.98236383400217,159.1592881250035,159.95539400000416,159.94240195900056,,,,,,,,,,,,,,,,159.94883783400292,159.95539400000416,159.95539400000416,160.8882156250038,b,1.0,0.9220061659943894,,160.89437787500356,160.90473958400253,161.89148537500296,,,,,,,,,,,,,,,,,,,,,sub-161,1,stroop_test,119.97912410895916,
,,,,1.0,1.0,0.0,,,,,gelb,yellow,g,1.0,g,1.0,0.788564624999708,,,,,,,,,,,,,,0.0,1.0,1.0,10.0,,,,,161.9027859170019,,,,,,,,,,,,,,,,,161.89192129200092,163.086284584002,163.87875825000083,163.87044820900337,,,,,,,,,,,,,,,,163.87123254199832,163.87875825000083,163.87875825000083,164.67138604199863,g,1.0,0.788564624999708,,164.67204345900245,164.6826825840035,165.6700883750018,165.6760898749999,,,,,,,,,,,,,,,,,,,,sub-161,1,stroop_test,119.97912410895916,
,,,,2.0,2.0,0.0,,,,,blau,blue,b,1.0,b,1.0,0.6927482500032056,,,,,,,,,,,,,,0.0,2.0,2.0,5.0,,,,,165.6760898749999,,,,,,,,,,,,,,,,,165.67055662500206,166.01932508400205,166.81673283399869,166.80345712500275,,,,,,,,,,,,,,,,166.80943995900452,166.81673283399869,166.81673283399869,167.51207525000063,b,1.0,0.6927482500032056,,167.5127869170028,167.52244916700147,168.50999891700485,168.5194443750006,,,,,,,,,,,,,,,,,,,,sub-161,1,stroop_test,119.97912410895916,
,,,,3.0,3.0,0.0,,,,,gelb,red,r,0.0,r,1.0,1.212428999999247,,,,,,,,,,,,,,0.0,3.0,3.0,8.0,,,,,168.5194443750006,,,,,,,,,,,,,,,,,168.5104602920037,169.30990908400418,170.1050698340041,170.09294349999982,,,,,,,,,,,,,,,,170.09675433400116,170.1050698340041,170.1050698340041,171.3217712090045,r,1.0,1.212428999999247,,171.3225406249985,171.33290212500287,172.32063266700425,172.326478959003,,,,,,,,,,,,,,,,,,,,sub-161,1,stroop_test,119.97912410895916,
,,,,4.0,4.0,0.0,,,,,rot,blue,b,0.0,b,1.0,1.136314791998302,,,,,,,,,,,,,,0.0,4.0,4.0,2.0,,,,,172.326478959003,,,,,,,,,,,,,,,,,172.3211468340014,173.5197486670004,174.31707066699892,174.30362337500264,,,,,,,,,,,,,,,,174.3093707090011,174.31707066699892,174.31707066699892,175.4558434999999,b,1.0,1.136314791998302,,175.45657558400126,175.46691916700365,176.45412933400075,176.45993208399886,,,,,,,,,,,,,,,,,,,,sub-161,1,stroop_test,119.97912410895916,
,,,,5.0,5.0,0.0,,,,,rot,yellow,g,0.0,g,1.0,0.8145583750010701,,,,,,,,,,,,,,0.0,5.0,5.0,3.0,,,,,176.45993208399886,,,,,,,,,,,,,,,,,176.45461174999946,177.6531478340039,178.4449700000041,178.43710799999826,,,,,,,,,,,,,,,,178.43782491700404,178.4449700000041,178.4449700000041,179.2618432090021,g,1.0,0.8145583750010701,,179.262415666999,179.2722142499988,180.25895716700325,180.26998716700476,,,,,,,,,,,,,,,,,,,,sub-161,1,stroop_test,119.97912410895916,
,,,,6.0,6.0,0.0,,,,,gelb,yellow,g,1.0,g,1.0,0.6758791249958449,,,,,,,,,,,,,,0.0,6.0,6.0,11.0,,,,,180.26998716700476,,,,,,,,,,,,,,,,,180.2594287090033,181.46019162500303,182.26480058400196,182.2537795419994,,,,,,,,,,,,,,,,182.25762879200192,182.26480058400196,182.26480058400196,182.94528174999868,g,1.0,0.6758791249958449,,182.94597866700497,182.95596300000037,183.9423290420018,183.9532204999996,,,,,,,,,,,,,,,,,,,,sub-161,1,stroop_test,119.97912410895916,
,,,,7.0,7.0,0.0,,,,,rot,red,r,1.0,r,1.0,0.5319201669990434,,,,,,,,,,,,,,0.0,7.0,7.0,0.0,,,,,183.9532204999996,,,,,,,,,,,,,,,,,183.94279208400255,185.1429315839996,185.94857616700028,185.9373592500051,,,,,,,,,,,,,,,,185.9411685419982,185.94857616700028,185.94857616700028,186.4889387920048,r,1.0,0.5319201669990434,,186.4896068750022,186.4997787090033,187.48730679200528,187.4929293750029,,,,,,,,,,,,,,,,,,,,sub-161,1,stroop_test,119.97912410895916,
,,,,8.0,8.0,0.0,,,,,rot,red,r,1.0,r,1.0,0.794463457998063,,,,,,,,,,,,,,0.0,8.0,8.0,1.0,,,,,187.4929293750029,,,,,,,,,,,,,,,,,187.48775170899896,187.5865252920048,188.37998925000284,188.3711040000053,,,,,,,,,,,,,,,,188.37188929200056,188.37998925000284,188.37998925000284,189.178219292,r,1.0,0.794463457998063,,189.1787911249994,189.1891475840021,190.17627262500173,190.1868007500016,,,,,,,,,,,,,,,,,,,,sub-161,1,stroop_test,119.97912410895916,
,,,,9.0,9.0,0.0,,,,,blau,yellow,g,0.0,g,1.0,1.4211041669987026,,,,,,,,,,,,,,0.0,9.0,9.0,7.0,,,,,190.1868007500016,,,,,,,,,,,,,,,,,190.17674395900397,191.3762969169984,192.1728480840029,192.16116666699963,,,,,,,,,,,,,,,,192.1657069590001,192.1728480840029,192.1728480840029,193.6052322090036,g,1.0,1.4211041669987026,,193.60580725000185,193.61608037500264,194.60413029199844,194.6101276670015,,,,,,,,,,,,,,,,,,,,sub-161,1,stroop_test,119.97912410895916,
,,,,10.0,10.0,0.0,,,,,blau,blue,b,1.0,b,1.0,0.9122484580002492,,,,,,,,,,,,,,0.0,10.0,10.0,6.0,,,,,194.6101276670015,,,,,,,,,,,,,,,,,194.60459025000452,194.70335466699908,195.4955462500002,195.4875167920036,,,,,,,,,,,,,,,,195.488165458999,195.4955462500002,195.4955462500002,196.41236670900253,b,1.0,0.9122484580002492,,196.41294016699976,196.42292679200185,197.4109463749992,197.41988154200223,,,,,,,,,,,,,,,,,,,,sub-161,1,stroop_test,119.97912410895916,
,,,,11.0,11.0,0.0,,,,,blau,red,r,0.0,r,1.0,0.7970074580007349,,,,,,,,,,,,,,0.0,11.0,11.0,4.0,,,,,197.41988154200223,,,,,,,,,,,,,,,,,197.41140091700072,197.7603126670001,198.56215854200127,198.55419887500463,,,,,,,,,,,,,,,,198.5548310419981,198.56215854200127,198.56215854200127,199.3616242499993,r,1.0,0.7970074580007349,,199.36232283400025,199.37274849999807,200.3596711670034,200.3704828750051,,,,,,,,,,,,,,,,,,,,sub-161,1,stroop_test,119.97912410895916,
,,,,12.0,0.0,1.0,,,,,rot,red,r,1.0,r,1.0,0.7507946659970912,,,,,,,,,,,,,,1.0,0.0,12.0,0.0,,,,,200.3704828750051,,,,,,,,,,,,,,,,,200.360109250003,201.16023379200487,201.96511358400312,201.9543018750046,,,,,,,,,,,,,,,,201.9578202500052,201.96511358400312,201.96511358400312,202.72222920900091,r,1.0,0.7507946659970912,,202.72278645900224,202.7328766249993,203.7212429170031,203.72686283400253,,,,,,,,,,,,,,,,,,,,sub-161,1,stroop_test,119.97912410895916,
,,,,13.0,1.0,1.0,,,,,blau,yellow,g,0.0,g,1.0,0.755214208002144,,,,,,,,,,,,,,1.0,1.0,13.0,7.0,,,,,203.72686283400253,,,,,,,,,,,,,,,,,203.7216975420015,204.52070395900228,205.31650762500067,205.30439699999988,,,,,,,,,,,,,,,,205.30894166700452,205.31650762500067,205.31650762500067,206.07833650000248,g,1.0,0.755214208002144,,206.0788915000012,206.08903375000227,207.07621604199807,207.08720595900377,,,,,,,,,,,,,,,,,,,,sub-161,1,stroop_test,119.97912410895916,
,,,,14.0,2.0,1.0,,,,,gelb,red,r,0.0,r,1.0,1.1470084579996185,,,,,,,,,,,,,,1.0,2.0,14.0,8.0,,,,,207.08720595900377,,,,,,,,,,,,,,,,,207.0766559170006,208.27671037500116,209.06999620900024,209.05966833400453,,,,,,,,,,,,,,,,209.0630979589987,209.06999620900024,209.06999620900024,210.22219725000468,r,1.0,1.1470084579996185,,210.22278533400092,210.2327357920003,211.2210060840007,211.2267738340015,,,,,,,,,,,,,,,,,,,,sub-161,1,stroop_test,119.97912410895916,
,,,,15.0,3.0,1.0,,,,,gelb,yellow,g,1.0,g,1.0,1.3773744579957563,,,,,,,,,,,,,,1.0,3.0,15.0,10.0,,,,,211.2267738340015,,,,,,,,,,,,,,,,,211.2214657920049,211.32073345900423,212.1126537500022,212.1045584169988,,,,,,,,,,,,,,,,212.10520254199943,212.1126537500022,212.1126537500022,213.4954414169988,g,1.0,1.3773744579957563,,213.49623558400344,213.5063714170028,214.4933195420017,214.50398433399823,,,,,,,,,,,,,,,,,,,,sub-161,1,stroop_test,119.97912410895916,
,,,,16.0,4.0,1.0,,,,,blau,red,r,0.0,r,1.0,0.8676331669994397,,,,,,,,,,,,,,1.0,4.0,16.0,4.0,,,,,214.50398433399823,,,,,,,,,,,,,,,,,214.4937852920048,215.29408587500075,216.0991606250027,216.08814691700536,,,,,,,,,,,,,,,,216.09208216700063,216.0991606250027,216.0991606250027,216.9731400840028,r,1.0,0.8676331669994397,,216.9738512500044,216.98400508399936,217.97112012500293,217.97678262500267,,,,,,,,,,,,,,,,,,,,sub-161,1,stroop_test,119.97912410895916,
,,,,17.0,5.0,1.0,,,,,blau,blue,b,1.0,b,1.0,1.1016129999989062,,,,,,,,,,,,,,1.0,5.0,17.0,5.0,,,,,217.97678262500267,,,,,,,,,,,,,,,,,217.9715674170002,218.07076770900312,218.86263262500145,218.85491845900103,,,,,,,,,,,,,,,,218.85559283399925,218.86263262500145,218.86263262500145,219.9726147500041,b,1.0,1.1016129999989062,,219.97317341699815,219.98346912499983,220.971173209,220.97656400000412,,,,,,,,,,,,,,,,,,,,sub-161,1,stroop_test,119.97912410895916,
,,,,18.0,6.0,1.0,,,,,rot,blue,b,0.0,b,1.0,0.9927114579986664,,,,,,,,,,,,,,1.0,6.0,18.0,2.0,,,,,220.97656400000412,,,,,,,,,,,,,,,,,220.97161470900028,221.07077558400488,221.8665963750027,221.8548498340024,,,,,,,,,,,,,,,,221.8592230840004,221.8665963750027,221.8665963750027,222.8622347499986,b,1.0,0.9927114579986664,,222.8627832499988,222.87291145900235,223.8614155000032,223.87076158400305,,,,,,,,,,,,,,,,,,,,sub-161,1,stroop_test,119.97912410895916,
,,,,19.0,7.0,1.0,,,,,rot,red,r,1.0,r,1.0,0.6532998749971739,,,,,,,,,,,,,,1.0,7.0,19.0,1.0,,,,,223.87076158400305,,,,,,,,,,,,,,,,,223.8618572089981,224.2107422090048,225.01291533400217,225.00485620900145,,,,,,,,,,,,,,,,225.0054811670052,225.01291533400217,225.01291533400217,225.6732714169993,r,1.0,0.6532998749971739,,225.67410370900325,225.6852832920049,226.67123437500413,226.6770185420028,,,,,,,,,,,,,,,,,,,,sub-161,1,stroop_test,119.97912410895916,
,,,,20.0,8.0,1.0,,,,,gelb,yellow,g,1.0,g,1.0,0.7578304170019692,,,,,,,,,,,,,,1.0,8.0,20.0,11.0,,,,,226.6770185420028,,,,,,,,,,,,,,,,,226.6716916670048,227.8710295839992,228.66623025000445,228.65493270900333,,,,,,,,,,,,,,,,228.65883079200285,228.66623025000445,228.66623025000445,229.4291028750013,g,1.0,0.7578304170019692,,229.4297614169991,229.44021491699823,230.4278823749992,230.4374533750015,,,,,,,,,,,,,,,,,,,,sub-161,1,stroop_test,119.97912410895916,
,,,,21.0,9.0,1.0,,,,,blau,blue,b,1.0,b,1.0,0.6549003749969415,,,,,,,,,,,,,,1.0,9.0,21.0,6.0,,,,,230.4374533750015,,,,,,,,,,,,,,,,,230.4282319999984,230.52778487500476,231.33303008400253,231.32156512499927,,,,,,,,,,,,,,,,231.3254622500026,231.33303008400253,231.33303008400253,231.9906354999985,b,1.0,0.6549003749969415,,231.9913443750047,232.00231595899825,232.9883264169985,232.9942453340045,,,,,,,,,,,,,,,,,,,,sub-161,1,stroop_test,119.97912410895916,
,,,,22.0,10.0,1.0,,,,,gelb,blue,b,0.0,b,1.0,0.4237751249966095,,,,,,,,,,,,,,1.0,10.0,22.0,9.0,,,,,232.9942453340045,,,,,,,,,,,,,,,,,232.9887696670048,233.7880133340004,234.5840901670017,234.57597683399945,,,,,,,,,,,,,,,,234.57859316700345,234.5840901670017,234.5840901670017,235.01250995900045,b,1.0,0.4237751249966095,,235.0130967090008,235.02361941699928,236.01060237500496,236.0212844589987,,,,,,,,,,,,,,,,,,,,sub-161,1,stroop_test,119.97912410895916,
,,,,23.0,11.0,1.0,,,,,rot,yellow,g,0.0,g,1.0,0.7661597919941414,,,,,,,,,,,,,,1.0,11.0,23.0,3.0,,,,,236.0212844589987,,,,,,,,,,,,,,,,,236.01108104200105,236.36125225000436,237.16653004199907,237.15534766700148,,,,,,,,,,,,,,,,237.15906687499955,237.16653004199907,237.16653004199907,237.93994391700107,g,1.0,0.7661597919941414,,237.9405273750017,237.9508461670048,238.93858412500413,238.94625208400248,,,,,,,,,,,,,,,,,,,,sub-161,1,stroop_test,119.97912410895916,
,,,,,,,,,,,,,,,,,,,,,,,,,,,,,,,,,,,,,,,,,,,,,,,,,,,,,,,,,,,,,,,,,,,,,,,,,,,,,,,,,,,,,,,238.9387691669981,238.94625208400248,238.94625208400248,244.6906456249999,space,5.742094417000772,,,,,,,,,,,,,,sub-161,1,stroop_test,119.97912410895916,
,,,,0.0,0.0,0.0,,,,,,,,,,,,,gelb,blue,b,0.0,b,1.0,0.7949176670008455,,,,,,,,,,0.0,0.0,0.0,9.0,244.71420470900196,,,,,,,,,,,,,,,,,244.70571654200467,245.48823316700145,246.28385370899923,246.27198299999876,,,,,,,,,,,,,,,,,,,,,,,,,,,,,,,,,,,246.2762927920048,246.28385370899923,246.28385370899923,247.0901778340049,b,1.0,0.7949176670008455,,,,,,sub-161,1,stroop_test,119.97912410895916,
,,,,1.0,1.0,0.0,,,,,,,,,,,,,gelb,red,r,0.0,r,1.0,0.6876710830038064,,,,,,,,,,0.0,1.0,1.0,8.0,247.0993412090029,,,,,,,,,,,,,,,,,247.0906236250012,247.18746529200143,247.97965733399903,247.9719976250053,,,,,,,,,,,,,,,,,,,,,,,,,,,,,,,,,,,247.97264433400412,247.97965733399903,247.97965733399903,248.67344379200225,r,1.0,0.6876710830038064,,,,,,sub-161,1,stroop_test,119.97912410895916,
,,,,2.0,2.0,0.0,,,,,,,,,,,,,blau,red,r,0.0,r,1.0,0.578247375000501,,,,,,,,,,0.0,2.0,2.0,4.0,248.6831979999988,,,,,,,,,,,,,,,,,248.6739914589998,248.77151241699903,249.566191083999,249.55529333400045,,,,,,,,,,,,,,,,,,,,,,,,,,,,,,,,,,,249.55919920900487,249.566191083999,249.566191083999,250.14656733399897,r,1.0,0.578247375000501,,,,,,sub-161,1,stroop_test,119.97912410895916,
,,,,3.0,3.0,0.0,,,,,,,,,,,,,rot,blue,b,0.0,r,0.0,0.7305009159972542,,,,,,,,,,0.0,3.0,3.0,2.0,250.15683870900105,,,,,,,,,,,,,,,,,250.1469950419996,250.24509583400504,251.04932070900395,251.03875716699983,,,,,,,,,,,,,,,,,,,,,,,,,,,,,,,,,,,251.0419870840051,251.04932070900395,251.04932070900395,251.79035462500175,r,0.0,0.7305009159972542,,,,,,sub-161,1,stroop_test,119.97912410895916,
,,,,4.0,4.0,0.0,,,,,,,,,,,,,blau,blue,b,1.0,b,1.0,0.6825600839947583,,,,,,,,,,0.0,4.0,4.0,6.0,251.7994541250009,,,,,,,,,,,,,,,,,251.7908013339984,252.587984167003,253.38268704200163,253.37203879200388,,,,,,,,,,,,,,,,,,,,,,,,,,,,,,,,,,,253.37575041699893,253.38268704200163,253.38268704200163,254.07371162500203,b,1.0,0.6825600839947583,,,,,,sub-161,1,stroop_test,119.97912410895916,
,,,,5.0,5.0,0.0,,,,,,,,,,,,,rot,red,r,1.0,r,1.0,0.7875110829991172,,,,,,,,,,0.0,5.0,5.0,1.0,254.08270512500167,,,,,,,,,,,,,,,,,254.07415583400143,255.27171029199965,256.0675094590042,256.0555452500048,,,,,,,,,,,,,,,,,,,,,,,,,,,,,,,,,,,256.0598354169997,256.0675094590042,256.0675094590042,256.85775724999985,r,1.0,0.7875110829991172,,,,,,sub-161,1,stroop_test,119.97912410895916,
,,,,6.0,6.0,0.0,,,,,,,,,,,,,blau,yellow,g,0.0,g,1.0,0.7643816249983502,,,,,,,,,,0.0,6.0,6.0,7.0,256.8671265840021,,,,,,,,,,,,,,,,,256.8583166250028,257.6547972500048,258.44999495900265,258.439018709003,,,,,,,,,,,,,,,,,,,,,,,,,,,,,,,,,,,258.4428082500017,258.44999495900265,258.44999495900265,259.2234625839992,g,1.0,0.7643816249983502,,,,,,sub-161,1,stroop_test,119.97912410895916,
,,,,7.0,7.0,0.0,,,,,,,,,,,,,rot,yellow,g,0.0,g,1.0,0.8015721670017228,,,,,,,,,,0.0,7.0,7.0,3.0,259.23262879200047,,,,,,,,,,,,,,,,,259.223912292,259.3216669169997,260.1170278339996,260.105523834005,,,,,,,,,,,,,,,,,,,,,,,,,,,,,,,,,,,260.1096309999993,260.1170278339996,260.1170278339996,260.9236164590038,g,1.0,0.8015721670017228,,,,,,sub-161,1,stroop_test,119.97912410895916,
,,,,8.0,8.0,0.0,,,,,,,,,,,,,blau,blue,b,1.0,b,1.0,0.6879863750000368,,,,,,,,,,0.0,8.0,8.0,5.0,260.9331527090035,,,,,,,,,,,,,,,,,260.9241670420015,261.72184387499874,262.51633391700307,262.5057965840024,,,,,,,,,,,,,,,,,,,,,,,,,,,,,,,,,,,262.5091142090023,262.51633391700307,262.51633391700307,263.206899417004,b,1.0,0.6879863750000368,,,,,,sub-161,1,stroop_test,119.97912410895916,
,,,,9.0,9.0,0.0,,,,,,,,,,,,,rot,red,r,1.0,r,1.0,0.4545213749952381,,,,,,,,,,0.0,9.0,9.0,0.0,263.2161987500004,,,,,,,,,,,,,,,,,263.20741212500434,264.00527087500086,264.80084575000365,264.7890590840034,,,,,,,,,,,,,,,,,,,,,,,,,,,,,,,,,,,264.7929130000048,264.80084575000365,264.80084575000365,265.2583808339987,r,1.0,0.4545213749952381,,,,,,sub-161,1,stroop_test,119.97912410895916,
,,,,10.0,10.0,0.0,,,,,,,,,,,,,gelb,yellow,g,1.0,g,1.0,0.58734120799636,,,,,,,,,,0.0,10.0,10.0,11.0,265.2680844589995,,,,,,,,,,,,,,,,,265.25894854200305,266.4553518340035,267.25060308400134,267.2392341250016,,,,,,,,,,,,,,,,,,,,,,,,,,,,,,,,,,,267.24320004200126,267.25060308400134,267.25060308400134,267.8405349169989,g,1.0,0.58734120799636,,,,,,sub-161,1,stroop_test,119.97912410895916,
,,,,11.0,11.0,0.0,,,,,,,,,,,,,gelb,yellow,g,1.0,g,1.0,0.5329072079985053,,,,,,,,,,0.0,11.0,11.0,10.0,267.8496702090051,,,,,,,,,,,,,,,,,267.8410860840013,269.03820895899844,269.83053933400515,269.82252829200297,,,,,,,,,,,,,,,,,,,,,,,,,,,,,,,,,,,269.8231765419987,269.83053933400515,269.83053933400515,270.373720292002,g,1.0,0.5329072079985053,,,,,,sub-161,1,stroop_test,119.97912410895916,
,,,,12.0,0.0,1.0,,,,,,,,,,,,,rot,red,r,1.0,r,1.0,0.7913432499990449,,,,,,,,,,1.0,0.0,12.0,1.0,270.38298504200066,,,,,,,,,,,,,,,,,270.3741902090041,270.7219942090014,271.51657837500534,271.50578787500126,,,,,,,,,,,,,,,,,,,,,,,,,,,,,,,,,,,271.5092993340004,271.51657837500534,271.51657837500534,272.31354275000194,r,1.0,0.7913432499990449,,,,,,sub-161,1,stroop_test,119.97912410895916,
,,,,13.0,1.0,1.0,,,,,,,,,,,,,gelb,blue,b,0.0,b,1.0,1.08602591700037,,,,,,,,,,1.0,1.0,13.0,9.0,272.3382537500001,,,,,,,,,,,,,,,,,272.31397833400115,273.5114997499986,274.3056985420044,274.2947869589989,,,,,,,,,,,,,,,,,,,,,,,,,,,,,,,,,,,274.2984407920012,274.3056985420044,274.3056985420044,275.39536795900494,b,1.0,1.08602591700037,,,,,,sub-161,1,stroop_test,119.97912410895916,
,,,,14.0,2.0,1.0,,,,,,,,,,,,,rot,red,r,1.0,r,1.0,0.7253015000023879,,,,,,,,,,1.0,2.0,14.0,0.0,275.40441799999826,,,,,,,,,,,,,,,,,275.3957936250008,276.19502191700303,276.9890146250036,276.9781348750039,,,,,,,,,,,,,,,,,,,,,,,,,,,,,,,,,,,276.98156408400246,276.9890146250036,276.9890146250036,277.7241988750029,r,1.0,0.7253015000023879,,,,,,sub-161,1,stroop_test,119.97912410895916,
,,,,15.0,3.0,1.0,,,,,,,,,,,,,blau,yellow,g,0.0,g,1.0,0.6047901249985443,,,,,,,,,,1.0,3.0,15.0,7.0,277.73331950000284,,,,,,,,,,,,,,,,,277.7246390420041,278.52225600000384,279.31754141700367,279.3060103750031,,,,,,,,,,,,,,,,,,,,,,,,,,,,,,,,,,,279.31034524999995,279.31754141700367,279.31754141700367,279.9247138749997,g,1.0,0.6047901249985443,,,,,,sub-161,1,stroop_test,119.97912410895916,
,,,,16.0,4.0,1.0,,,,,,,,,,,,,gelb,yellow,g,1.0,g,1.0,0.5129817500055651,,,,,,,,,,1.0,4.0,16.0,10.0,279.93078733400034,,,,,,,,,,,,,,,,,279.9251783340005,281.1222530419982,281.9175564590041,281.90624079199915,,,,,,,,,,,,,,,,,,,,,,,,,,,,,,,,,,,281.9101967500028,281.9175564590041,281.9175564590041,282.4406124169982,g,1.0,0.5129817500055651,,,,,,sub-161,1,stroop_test,119.97912410895916,
,,,,17.0,5.0,1.0,,,,,,,,,,,,,blau,blue,b,1.0,b,1.0,0.6798670420030248,,,,,,,,,,1.0,5.0,17.0,5.0,282.44964691700443,,,,,,,,,,,,,,,,,282.4410380420013,282.53899308400287,283.3340455840007,283.32277504200465,,,,,,,,,,,,,,,,,,,,,,,,,,,,,,,,,,,283.3266897499998,283.3340455840007,283.3340455840007,284.0239272090039,b,1.0,0.6798670420030248,,,,,,sub-161,1,stroop_test,119.97912410895916,
,,,,18.0,6.0,1.0,,,,,,,,,,,,,blau,red,r,0.0,r,1.0,0.5527215830006753,,,,,,,,,,1.0,6.0,18.0,4.0,284.0325322089993,,,,,,,,,,,,,,,,,284.02442795900424,284.3722723750034,285.16452804200526,285.1562640839984,,,,,,,,,,,,,,,,,,,,,,,,,,,,,,,,,,,285.15698683400115,285.16452804200526,285.16452804200526,285.72418254199874,r,1.0,0.5527215830006753,,,,,,sub-161,1,stroop_test,119.97912410895916,
,,,,19.0,7.0,1.0,,,,,,,,,,,,,gelb,yellow,g,1.0,g,1.0,0.6126153330042143,,,,,,,,,,1.0,7.0,19.0,11.0,285.7333041250022,,,,,,,,,,,,,,,,,285.7246225000053,285.8225028340021,286.6176047090048,286.6064302090017,,,,,,,,,,,,,,,,,,,,,,,,,,,,,,,,,,,286.6102879590035,286.6176047090048,286.6176047090048,287.2411773339991,g,1.0,0.6126153330042143,,,,,,sub-161,1,stroop_test,119.97912410895916,
,,,,20.0,8.0,1.0,,,,,,,,,,,,,rot,yellow,g,0.0,g,1.0,0.5220352920005098,,,,,,,,,,1.0,8.0,20.0,3.0,287.2507640840049,,,,,,,,,,,,,,,,,287.24175050000485,288.438723709005,289.23381429200526,289.2231750420033,,,,,,,,,,,,,,,,,,,,,,,,,,,,,,,,,,,289.2264585000012,289.23381429200526,289.23381429200526,289.7581569169997,g,1.0,0.5220352920005098,,,,,,sub-161,1,stroop_test,119.97912410895916,
,,,,21.0,9.0,1.0,,,,,,,,,,,,,blau,blue,b,1.0,b,1.0,0.6136423749994719,,,,,,,,,,1.0,9.0,21.0,6.0,289.7673167090033,,,,,,,,,,,,,,,,,289.758589875004,290.95577812500414,291.7508105419984,291.7396824169992,,,,,,,,,,,,,,,,,,,,,,,,,,,,,,,,,,,291.7435099590002,291.7508105419984,291.7508105419984,292.3744741670016,b,1.0,0.6136423749994719,,,,,,sub-161,1,stroop_test,119.97912410895916,
,,,,22.0,10.0,1.0,,,,,,,,,,,,,gelb,red,r,0.0,r,1.0,0.6155410830033361,,,,,,,,,,1.0,10.0,22.0,8.0,292.3835797089996,,,,,,,,,,,,,,,,,292.37492070900043,292.72222487500403,293.51687266700173,293.50625800000125,,,,,,,,,,,,,,,,,,,,,,,,,,,,,,,,,,,293.50980029199854,293.51687266700173,293.51687266700173,294.14100595900527,r,1.0,0.6155410830033361,,,,,,sub-161,1,stroop_test,119.97912410895916,
,,,,23.0,11.0,1.0,,,,,,,,,,,,,rot,blue,b,0.0,b,1.0,0.6556794999996782,,,,,,,,,,1.0,11.0,23.0,2.0,294.1501230840004,,,,,,,,,,,,,,,,,294.14156562500284,295.33894245899864,296.13625487500394,296.12328466700274,,,,,,,,,,,,,,,,,,,,,,,,,,,,,,,,,,,296.1285147919989,296.13625487500394,296.13625487500394,296.7958896249984,b,1.0,0.6556794999996782,,,,,,sub-161,1,stroop_test,119.97912410895916,
,,,,24.0,0.0,2.0,,,,,,,,,,,,,rot,red,r,1.0,r,1.0,0.7211899999965681,,,,,,,,,,2.0,0.0,24.0,0.0,296.8052552090012,,,,,,,,,,,,,,,,,296.79633083400404,297.5958252089986,298.39829004200146,298.3901070840002,,,,,,,,,,,,,,,,,,,,,,,,,,,,,,,,,,,298.3907799590015,298.39829004200146,298.39829004200146,299.1246660420002,r,1.0,0.7211899999965681,,,,,,sub-161,1,stroop_test,119.97912410895916,
,,,,25.0,1.0,2.0,,,,,,,,,,,,,gelb,blue,b,0.0,b,1.0,0.7208553340024082,,,,,,,,,,2.0,1.0,25.0,9.0,299.13385774999915,,,,,,,,,,,,,,,,,299.1252453749985,299.92226500000106,300.7180249590019,300.7067196670032,,,,,,,,,,,,,,,,,,,,,,,,,,,,,,,,,,,300.7106534589984,300.7180249590019,300.7180249590019,301.44138162500167,b,1.0,0.7208553340024082,,,,,,sub-161,1,stroop_test,119.97912410895916,
,,,,26.0,2.0,2.0,,,,,,,,,,,,,rot,blue,b,0.0,b,1.0,0.4391550829968764,,,,,,,,,,2.0,2.0,26.0,2.0,301.4506724169987,,,,,,,,,,,,,,,,,301.4419228340048,301.789046124999,302.5845814170025,302.5734486670044,,,,,,,,,,,,,,,,,,,,,,,,,,,,,,,,,,,302.57723149999947,302.5845814170025,302.5845814170025,303.0306221249993,b,1.0,0.4391550829968764,,,,,,sub-161,1,stroop_test,119.97912410895916,
,,,,27.0,3.0,2.0,,,,,,,,,,,,,rot,yellow,g,0.0,g,1.0,0.5683100000023842,,,,,,,,,,2.0,3.0,27.0,3.0,303.039479375002,,,,,,,,,,,,,,,,,303.0310525419991,303.380284167004,304.18108779199974,304.1734442500019,,,,,,,,,,,,,,,,,,,,,,,,,,,,,,,,,,,304.1740748750017,304.18108779199974,304.18108779199974,304.7578832090003,g,1.0,0.5683100000023842,,,,,,sub-161,1,stroop_test,119.97912410895916,
,,,,28.0,4.0,2.0,,,,,,,,,,,,,gelb,yellow,g,1.0,g,1.0,0.4335964170022635,,,,,,,,,,2.0,4.0,28.0,10.0,304.7669259169997,,,,,,,,,,,,,,,,,304.7583201250018,305.5561322499998,306.3513142919983,306.3401432500032,,,,,,,,,,,,,,,,,,,,,,,,,,,,,,,,,,,306.3439638339987,306.3513142919983,306.3513142919983,306.79179908399965,g,1.0,0.4335964170022635,,,,,,sub-161,1,stroop_test,119.97912410895916,
,,,,29.0,5.0,2.0,,,,,,,,,,,,,blau,blue,b,1.0,b,1.0,0.6048684999987017,,,,,,,,,,2.0,5.0,29.0,5.0,306.801045334003,,,,,,,,,,,,,,,,,306.7922314169992,307.9897230839997,308.7850438750029,308.77318816700426,,,,,,,,,,,,,,,,,,,,,,,,,,,,,,,,,,,308.7775120840015,308.7850438750029,308.7850438750029,309.3988362090022,b,1.0,0.6048684999987017,,,,,,sub-161,1,stroop_test,119.97912410895916,
,,,,30.0,6.0,2.0,,,,,,,,,,,,,blau,yellow,g,0.0,g,1.0,0.7623345840038382,,,,,,,,,,2.0,6.0,30.0,7.0,309.4079013750016,,,,,,,,,,,,,,,,,309.3992567919995,310.1957332500024,310.98894400000427,310.9786347920017,,,,,,,,,,,,,,,,,,,,,,,,,,,,,,,,,,,310.9792700840044,310.98894400000427,310.98894400000427,311.7583620420046,g,1.0,0.7623345840038382,,,,,,sub-161,1,stroop_test,119.97912410895916,
,,,,31.0,7.0,2.0,,,,,,,,,,,,,blau,blue,b,1.0,b,1.0,0.6093485419987701,,,,,,,,,,2.0,7.0,31.0,6.0,311.7673732500043,,,,,,,,,,,,,,,,,311.75880383400363,312.55613920900214,313.34734862500045,313.3398084590008,,,,,,,,,,,,,,,,,,,,,,,,,,,,,,,,,,,313.3404563340009,313.34734862500045,313.34734862500045,313.9644962500024,b,1.0,0.6093485419987701,,,,,,sub-161,1,stroop_test,119.97912410895916,
,,,,32.0,8.0,2.0,,,,,,,,,,,,,blau,red,r,0.0,r,1.0,1.0925218329939526,,,,,,,,,,2.0,8.0,32.0,4.0,313.9730051250008,,,,,,,,,,,,,,,,,313.9649170000048,314.76249354200263,315.55571233400406,315.5459982920001,,,,,,,,,,,,,,,,,,,,,,,,,,,,,,,,,,,315.5466370420036,315.55571233400406,315.55571233400406,316.65815362500143,r,1.0,1.0925218329939526,,,,,,sub-161,1,stroop_test,119.97912410895916,
,,,,33.0,9.0,2.0,,,,,,,,,,,,,rot,red,r,1.0,r,1.0,0.4727397919996292,,,,,,,,,,2.0,9.0,33.0,1.0,316.6673340000052,,,,,,,,,,,,,,,,,316.65858470900275,317.856207542005,318.6517953340008,318.6403584590007,,,,,,,,,,,,,,,,,,,,,,,,,,,,,,,,,,,318.644424750004,318.6517953340008,318.6517953340008,319.13161737500195,r,1.0,0.4727397919996292,,,,,,sub-161,1,stroop_test,119.97912410895916,
,,,,34.0,10.0,2.0,,,,,,,,,,,,,gelb,red,r,0.0,r,1.0,1.0593481250034529,,,,,,,,,,2.0,10.0,34.0,8.0,319.141875334004,,,,,,,,,,,,,,,,,319.13218400000187,319.4798582500007,320.2855918339992,320.2737366670044,,,,,,,,,,,,,,,,,,,,,,,,,,,,,,,,,,,320.2782856250051,320.2855918339992,320.2855918339992,321.3472934169986,r,1.0,1.0593481250034529,,,,,,sub-161,1,stroop_test,119.97912410895916,
,,,,35.0,11.0,2.0,,,,,,,,,,,,,gelb,yellow,g,1.0,g,1.0,0.6134111249994021,,,,,,,,,,2.0,11.0,35.0,11.0,321.3558868340042,,,,,,,,,,,,,,,,,321.3477037500052,322.14644995900017,322.9485762500044,322.9405790840028,,,,,,,,,,,,,,,,,,,,,,,,,,,,,,,,,,,322.9412348340047,322.9485762500044,322.9485762500044,323.56442370900186,g,1.0,0.6134111249994021,,,,,,sub-161,1,stroop_test,119.97912410895916,
,,,,36.0,0.0,3.0,,,,,,,,,,,,,rot,yellow,g,0.0,g,1.0,0.928917042001558,,,,,,,,,,3.0,0.0,36.0,3.0,323.5894680420024,,,,,,,,,,,,,,,,,323.5649396670051,324.763455291999,325.5694709169984,325.55722458400123,,,,,,,,,,,,,,,,,,,,,,,,,,,,,,,,,,,325.56182091699884,325.5694709169984,325.5694709169984,326.5086674170016,g,1.0,0.928917042001558,,,,,,sub-161,1,stroop_test,119.97912410895916,
,,,,37.0,1.0,3.0,,,,,,,,,,,,,gelb,blue,b,0.0,b,1.0,0.6504228750054608,,,,,,,,,,3.0,1.0,37.0,9.0,326.518070625003,,,,,,,,,,,,,,,,,326.50922141699994,326.60641891699925,327.4025771250017,327.3908010419982,,,,,,,,,,,,,,,,,,,,,,,,,,,,,,,,,,,327.3950338750001,327.4025771250017,327.4025771250017,328.0585672919988,b,1.0,0.6504228750054608,,,,,,sub-161,1,stroop_test,119.97912410895916,
,,,,38.0,2.0,3.0,,,,,,,,,,,,,blau,red,r,0.0,r,1.0,0.6624159999992116,,,,,,,,,,3.0,2.0,38.0,4.0,328.06772537500365,,,,,,,,,,,,,,,,,328.0590154590027,328.8565427920039,329.6518154590012,329.6407398750016,,,,,,,,,,,,,,,,,,,,,,,,,,,,,,,,,,,329.6445987920015,329.6518154590012,329.6518154590012,330.3255381670024,r,1.0,0.6624159999992116,,,,,,sub-161,1,stroop_test,119.97912410895916,
,,,,39.0,3.0,3.0,,,,,,,,,,,,,rot,red,r,1.0,r,1.0,0.4227612920003594,,,,,,,,,,3.0,3.0,39.0,1.0,330.33523070900264,,,,,,,,,,,,,,,,,330.32609741700435,330.67302195900265,331.4678354589996,331.45723312500195,,,,,,,,,,,,,,,,,,,,,,,,,,,,,,,,,,,331.46053820900124,331.4678354589996,331.4678354589996,331.8989288340017,r,1.0,0.4227612920003594,,,,,,sub-161,1,stroop_test,119.97912410895916,
,,,,40.0,4.0,3.0,,,,,,,,,,,,,blau,yellow,g,0.0,g,1.0,0.6522862499987241,,,,,,,,,,3.0,4.0,40.0,7.0,331.9084631250007,,,,,,,,,,,,,,,,,331.89938025000447,333.0967762920045,333.8926627500041,333.8803223750001,,,,,,,,,,,,,,,,,,,,,,,,,,,,,,,,,,,333.8849740000005,333.8926627500041,333.8926627500041,334.5481162920041,g,1.0,0.6522862499987241,,,,,,sub-161,1,stroop_test,119.97912410895916,
,,,,41.0,5.0,3.0,,,,,,,,,,,,,gelb,yellow,g,1.0,g,1.0,0.4314497909945203,,,,,,,,,,3.0,5.0,41.0,11.0,334.5729786669981,,,,,,,,,,,,,,,,,334.5485379169986,335.7460296670033,336.5423350839992,336.5305041669999,,,,,,,,,,,,,,,,,,,,,,,,,,,,,,,,,,,336.5343676670018,336.5423350839992,336.5423350839992,336.97607787499874,g,1.0,0.4314497909945203,,,,,,sub-161,1,stroop_test,119.97912410895916,
,,,,42.0,6.0,3.0,,,,,,,,,,,,,rot,blue,b,0.0,b,1.0,1.3550437919984688,,,,,,,,,,3.0,6.0,42.0,2.0,336.98201079200226,,,,,,,,,,,,,,,,,336.9765383339982,338.1737862919981,338.96851762499864,338.95730708400515,,,,,,,,,,,,,,,,,,,,,,,,,,,,,,,,,,,338.96123441700183,338.96851762499864,338.96851762499864,340.3261790420001,b,1.0,1.3550437919984688,,,,,,sub-161,1,stroop_test,119.97912410895916,
,,,,43.0,7.0,3.0,,,,,,,,,,,,,blau,blue,b,1.0,b,1.0,0.8377584589979961,,,,,,,,,,3.0,7.0,43.0,5.0,340.33545162500377,,,,,,,,,,,,,,,,,340.3266836250041,341.5234939590009,342.31929595900147,342.30767429200205,,,,,,,,,,,,,,,,,,,,,,,,,,,,,,,,,,,342.3118635840001,342.31929595900147,342.31929595900147,343.1594664170043,b,1.0,0.8377584589979961,,,,,,sub-161,1,stroop_test,119.97912410895916,
,,,,44.0,8.0,3.0,,,,,,,,,,,,,gelb,yellow,g,1.0,g,1.0,0.7333259160004673,,,,,,,,,,3.0,8.0,44.0,10.0,343.1687027500011,,,,,,,,,,,,,,,,,343.159895417004,344.35710225000366,345.15209687500464,345.14082849999977,,,,,,,,,,,,,,,,,,,,,,,,,,,,,,,,,,,345.1447097499986,345.15209687500464,345.15209687500464,345.8918564589985,g,1.0,0.7333259160004673,,,,,,sub-161,1,stroop_test,119.97912410895916,
,,,,45.0,9.0,3.0,,,,,,,,,,,,,gelb,red,r,0.0,r,1.0,0.7014043329982087,,,,,,,,,,3.0,9.0,45.0,8.0,345.90122254200105,,,,,,,,,,,,,,,,,345.8922840000014,345.99024083399854,346.7825553750008,346.774481542001,,,,,,,,,,,,,,,,,,,,,,,,,,,,,,,,,,,346.7751263750033,346.7825553750008,346.7825553750008,347.4925393750018,r,1.0,0.7014043329982087,,,,,,sub-161,1,stroop_test,119.97912410895916,
,,,,46.0,10.0,3.0,,,,,,,,,,,,,rot,red,r,1.0,r,1.0,0.4895448749957722,,,,,,,,,,3.0,10.0,46.0,0.0,347.5018370840044,,,,,,,,,,,,,,,,,347.4930286250019,348.69045624999853,349.48555441699864,349.47436091700365,,,,,,,,,,,,,,,,,,,,,,,,,,,,,,,,,,,349.4781656250052,349.48555441699864,349.48555441699864,349.9808215840021,r,1.0,0.4895448749957722,,,,,,sub-161,1,stroop_test,119.97912410895916,
,,,,47.0,11.0,3.0,,,,,,,,,,,,,blau,blue,b,1.0,b,1.0,1.022711582998454,,,,,,,,,,3.0,11.0,47.0,6.0,349.9900114589982,,,,,,,,,,,,,,,,,349.98123704200407,350.33024908399966,351.13531595899985,351.12424862500484,,,,,,,,,,,,,,,,,,,,,,,,,,,,,,,,,,,351.12811441699887,351.13531595899985,351.13531595899985,352.1649655000001,b,1.0,1.022711582998454,,,,,,sub-161,1,stroop_test,119.97912410895916,
,,,,48.0,0.0,4.0,,,,,,,,,,,,,gelb,red,r,0.0,r,1.0,1.0579468330033706,,,,,,,,,,4.0,0.0,48.0,8.0,352.1742577920013,,,,,,,,,,,,,,,,,352.16539708400524,353.3626833340022,354.1561093339988,354.1460952499983,,,,,,,,,,,,,,,,,,,,,,,,,,,,,,,,,,,354.149153792001,354.1561093339988,354.1561093339988,355.2165671670009,r,1.0,1.0579468330033706,,,,,,sub-161,1,stroop_test,119.97912410895916,
,,,,49.0,1.0,4.0,,,,,,,,,,,,,blau,red,r,0.0,r,1.0,0.5136852499999804,,,,,,,,,,4.0,1.0,49.0,4.0,355.226300250004,,,,,,,,,,,,,,,,,355.2171042500049,355.56396425000275,356.3697505000018,356.3579875420037,,,,,,,,,,,,,,,,,,,,,,,,,,,,,,,,,,,356.3623509169993,356.3697505000018,356.3697505000018,356.89321624999866,r,1.0,0.5136852499999804,,,,,,sub-161,1,stroop_test,119.97912410895916,
,,,,50.0,2.0,4.0,,,,,,,,,,,,,gelb,blue,b,0.0,b,1.0,0.606280499996501,,,,,,,,,,4.0,2.0,50.0,9.0,356.90243049999845,,,,,,,,,,,,,,,,,356.8938198750038,358.09027100000094,358.8876310420019,358.8746873749988,,,,,,,,,,,,,,,,,,,,,,,,,,,,,,,,,,,358.8801933750001,358.8876310420019,358.8876310420019,359.49755845899926,b,1.0,0.606280499996501,,,,,,sub-161,1,stroop_test,119.97912410895916,
,,,,51.0,3.0,4.0,,,,,,,,,,,,,blau,blue,b,1.0,b,1.0,0.4838144169989391,,,,,,,,,,4.0,3.0,51.0,5.0,359.506532667001,,,,,,,,,,,,,,,,,359.49798154200107,360.6969389590013,361.4900067499984,361.47976833400025,,,,,,,,,,,,,,,,,,,,,,,,,,,,,,,,,,,361.48282412499975,361.4900067499984,361.4900067499984,361.97622533400136,b,1.0,0.4838144169989391,,,,,,sub-161,1,stroop_test,119.97912410895916,
,,,,52.0,4.0,4.0,,,,,,,,,,,,,rot,red,r,1.0,r,1.0,0.600325375002285,,,,,,,,,,4.0,4.0,52.0,0.0,361.9854195420048,,,,,,,,,,,,,,,,,361.9767587919996,362.3237400420039,363.1199655419987,363.1082894170031,,,,,,,,,,,,,,,,,,,,,,,,,,,,,,,,,,,363.112422709004,363.1199655419987,363.1199655419987,363.72540379199927,r,1.0,0.600325375002285,,,,,,sub-161,1,stroop_test,119.97912410895916,
,,,,53.0,5.0,4.0,,,,,,,,,,,,,blau,yellow,g,0.0,g,1.0,0.5284379169970634,,,,,,,,,,4.0,5.0,53.0,7.0,363.7345436250034,,,,,,,,,,,,,,,,,363.72583524999936,364.923926042,365.71885158400255,365.7079872090035,,,,,,,,,,,,,,,,,,,,,,,,,,,,,,,,,,,365.71176900000137,365.71885158400255,365.71885158400255,366.2577796670012,g,1.0,0.5284379169970634,,,,,,sub-161,1,stroop_test,119.97912410895916,
,,,,54.0,6.0,4.0,,,,,,,,,,,,,blau,blue,b,1.0,b,1.0,1.0288027499991586,,,,,,,,,,4.0,6.0,54.0,6.0,366.2665771669999,,,,,,,,,,,,,,,,,366.2581852920048,366.34946024999954,367.1474324590017,367.1401956670016,,,,,,,,,,,,,,,,,,,,,,,,,,,,,,,,,,,367.1408857499992,367.1474324590017,367.1474324590017,368.18188141700375,b,1.0,1.0288027499991586,,,,,,sub-161,1,stroop_test,119.97912410895916,
,,,,55.0,7.0,4.0,,,,,,,,,,,,,rot,red,r,1.0,r,1.0,0.4599993329975405,,,,,,,,,,4.0,7.0,55.0,1.0,368.1912559999983,,,,,,,,,,,,,,,,,368.1822943340012,368.53097558399895,369.33605637500295,369.32477704199846,,,,,,,,,,,,,,,,,,,,,,,,,,,,,,,,,,,369.32860508400336,369.33605637500295,369.33605637500295,369.7998697920048,r,1.0,0.4599993329975405,,,,,,sub-161,1,stroop_test,119.97912410895916,
,,,,56.0,8.0,4.0,,,,,,,,,,,,,rot,blue,b,0.0,r,0.0,0.4690258749978966,,,,,,,,,,4.0,8.0,56.0,2.0,369.8091101250029,,,,,,,,,,,,,,,,,369.8004019170039,370.9973561670049,371.7903781670029,371.7805433750036,,,,,,,,,,,,,,,,,,,,,,,,,,,,,,,,,,,371.78124241700425,371.7903781670029,371.7903781670029,372.26584,r,0.0,0.4690258749978966,,,,,,sub-161,1,stroop_test,119.97912410895916,
,,,,57.0,9.0,4.0,,,,,,,,,,,,,rot,yellow,g,0.0,g,1.0,1.191158166002424,,,,,,,,,,4.0,9.0,57.0,3.0,372.27643674999854,,,,,,,,,,,,,,,,,372.2663660840044,373.464642292005,374.26649354200345,374.2581601670026,,,,,,,,,,,,,,,,,,,,,,,,,,,,,,,,,,,374.258812,374.26649354200345,374.26649354200345,375.4598791250028,g,1.0,1.191158166002424,,,,,,sub-161,1,stroop_test,119.97912410895916,
,,,,58.0,10.0,4.0,,,,,,,,,,,,,gelb,yellow,g,1.0,g,1.0,0.6713659589950112,,,,,,,,,,4.0,10.0,58.0,11.0,375.4689983339995,,,,,,,,,,,,,,,,,375.46031075000064,375.8077299590004,376.60357533400384,376.5914513750031,,,,,,,,,,,,,,,,,,,,,,,,,,,,,,,,,,,376.5960833749996,376.60357533400384,376.60357533400384,377.2835375420036,g,1.0,0.6713659589950112,,,,,,sub-161,1,stroop_test,119.97912410895916,
,,,,59.0,11.0,4.0,,,,,,,,,,,,,gelb,yellow,g,1.0,g,1.0,0.4601616660002037,,,,,,,,,,4.0,11.0,59.0,10.0,377.2932440000004,,,,,,,,,,,,,,,,,377.2839502920033,378.4809835839988,379.2825077919988,379.2747787920016,,,,,,,,,,,,,,,,,,,,,,,,,,,,,,,,,,,379.2754362089981,379.2825077919988,379.2825077919988,379.74906695900427,g,1.0,0.4601616660002037,,,,,,sub-161,1,stroop_test,119.97912410895916,
,,,,60.0,0.0,5.0,,,,,,,,,,,,,gelb,red,r,0.0,r,1.0,1.8530027919987333,,,,,,,,,,5.0,0.0,60.0,8.0,379.7739826670004,,,,,,,,,,,,,,,,,379.7494861669984,379.847691959003,380.6493878340043,380.641506,,,,,,,,,,,,,,,,,,,,,,,,,,,,,,,,,,,380.6421465000021,380.6493878340043,380.6493878340043,382.5096136670036,r,1.0,1.8530027919987333,,,,,,sub-161,1,stroop_test,119.97912410895916,
,,,,61.0,1.0,5.0,,,,,,,,,,,,,gelb,yellow,g,1.0,g,1.0,0.8162732909986516,,,,,,,,,,5.0,1.0,61.0,10.0,382.5188287089986,,,,,,,,,,,,,,,,,382.5101551250045,382.857748334005,383.6503190420044,383.6421180000034,,,,,,,,,,,,,,,,,,,,,,,,,,,,,,,,,,,383.6428237090004,383.6503190420044,383.6503190420044,384.4767829999983,g,1.0,0.8162732909986516,,,,,,sub-161,1,stroop_test,119.97912410895916,
,,,,62.0,2.0,5.0,,,,,,,,,,,,,rot,yellow,g,0.0,g,1.0,1.025148166998406,,,,,,,,,,5.0,2.0,62.0,3.0,384.4861033749985,,,,,,,,,,,,,,,,,384.47731158399984,384.82424166700366,385.6212798749984,385.6087142920005,,,,,,,,,,,,,,,,,,,,,,,,,,,,,,,,,,,385.6135082920009,385.6212798749984,385.6212798749984,386.6496310000002,g,1.0,1.025148166998406,,,,,,sub-161,1,stroop_test,119.97912410895916,
,,,,63.0,3.0,5.0,,,,,,,,,,,,,blau,yellow,g,0.0,g,1.0,0.766793000002508,,,,,,,,,,5.0,3.0,63.0,7.0,386.66025375000027,,,,,,,,,,,,,,,,,386.6500462920012,386.9977927090004,387.7936692920048,387.78203529200255,,,,,,,,,,,,,,,,,,,,,,,,,,,,,,,,,,,387.7859741249995,387.7936692920048,387.7936692920048,388.56537058400136,g,1.0,0.766793000002508,,,,,,sub-161,1,stroop_test,119.97912410895916,
,,,,64.0,4.0,5.0,,,,,,,,,,,,,gelb,blue,b,0.0,b,1.0,0.5882157500018366,,,,,,,,,,5.0,4.0,64.0,9.0,388.5744673340014,,,,,,,,,,,,,,,,,388.5657955839997,388.6672287090041,389.4695902500025,389.4584257919996,,,,,,,,,,,,,,,,,,,,,,,,,,,,,,,,,,,389.4623685840052,389.4695902500025,389.4695902500025,390.0602377500036,b,1.0,0.5882157500018366,,,,,,sub-161,1,stroop_test,119.97912410895916,
,,,,65.0,5.0,5.0,,,,,,,,,,,,,gelb,yellow,g,1.0,g,1.0,0.5834985420005978,,,,,,,,,,5.0,5.0,65.0,11.0,390.069434584002,,,,,,,,,,,,,,,,,390.06068466700526,391.2580213340043,392.0495917090011,392.0417905840004,,,,,,,,,,,,,,,,,,,,,,,,,,,,,,,,,,,392.0424455840039,392.0495917090011,392.0495917090011,392.6431845420011,g,1.0,0.5834985420005978,,,,,,sub-161,1,stroop_test,119.97912410895916,
,,,,66.0,6.0,5.0,,,,,,,,,,,,,rot,red,r,1.0,r,1.0,0.6883392080053454,,,,,,,,,,5.0,6.0,66.0,1.0,392.6520015420029,,,,,,,,,,,,,,,,,392.6437741670016,392.7410900840041,393.5365603340033,393.5253438340005,,,,,,,,,,,,,,,,,,,,,,,,,,,,,,,,,,,393.5291830420029,393.5365603340033,393.5365603340033,394.2272888340012,r,1.0,0.6883392080053454,,,,,,sub-161,1,stroop_test,119.97912410895916,
,,,,67.0,7.0,5.0,,,,,,,,,,,,,blau,blue,b,1.0,b,1.0,1.0223432909988333,,,,,,,,,,5.0,7.0,67.0,6.0,394.23650295900006,,,,,,,,,,,,,,,,,394.2277194589988,394.3247315000044,395.1195748750033,395.1085587089983,,,,,,,,,,,,,,,,,,,,,,,,,,,,,,,,,,,395.1123639170037,395.1195748750033,395.1195748750033,396.1443832090008,b,1.0,1.0223432909988333,,,,,,sub-161,1,stroop_test,119.97912410895916,
,,,,68.0,8.0,5.0,,,,,,,,,,,,,rot,red,r,1.0,r,1.0,0.9045252079959027,,,,,,,,,,5.0,8.0,68.0,0.0,396.15354145900346,,,,,,,,,,,,,,,,,396.1448184170004,396.2411731250031,397.0363596669995,397.0254689170033,,,,,,,,,,,,,,,,,,,,,,,,,,,,,,,,,,,397.0289803749984,397.0363596669995,397.0363596669995,397.9436371250049,r,1.0,0.9045252079959027,,,,,,sub-161,1,stroop_test,119.97912410895916,
,,,,69.0,9.0,5.0,,,,,,,,,,,,,blau,blue,b,1.0,b,1.0,0.5923837499940419,,,,,,,,,,5.0,9.0,69.0,5.0,397.95237683400046,,,,,,,,,,,,,,,,,397.9440869590034,399.1412921250012,399.93655183399824,399.9253347920021,,,,,,,,,,,,,,,,,,,,,,,,,,,,,,,,,,,399.9292222090007,399.93655183399824,399.93655183399824,400.53285916700406,b,1.0,0.5923837499940419,,,,,,sub-161,1,stroop_test,119.97912410895916,
,,,,70.0,10.0,5.0,,,,,,,,,,,,,rot,blue,b,0.0,b,1.0,0.5103405830013799,,,,,,,,,,5.0,10.0,70.0,2.0,400.55772137500026,,,,,,,,,,,,,,,,,400.5333232090052,401.3316662500001,402.1273464590049,402.1149851670052,,,,,,,,,,,,,,,,,,,,,,,,,,,,,,,,,,,402.1190332500046,402.1273464590049,402.1273464590049,402.6436914590013,b,1.0,0.5103405830013799,,,,,,sub-161,1,stroop_test,119.97912410895916,
,,,,71.0,11.0,5.0,,,,,,,,,,,,,blau,red,r,0.0,r,1.0,0.5415882500019507,,,,,,,,,,5.0,11.0,71.0,4.0,402.6530766249998,,,,,,,,,,,,,,,,,402.64419812500273,402.99168933400506,403.7875877090046,403.7756574170053,,,,,,,,,,,,,,,,,,,,,,,,,,,,,,,,,,,403.7801469590049,403.7875877090046,403.7875877090046,404.33341087499866,r,1.0,0.5415882500019507,,,,,,sub-161,1,stroop_test,119.97912410895916,
,,,,72.0,0.0,6.0,,,,,,,,,,,,,blau,yellow,g,0.0,g,1.0,0.6914827500004321,,,,,,,,,,6.0,0.0,72.0,7.0,404.3435532920048,,,,,,,,,,,,,,,,,404.3338820839999,405.5315255000023,406.3335088340027,406.3257142500006,,,,,,,,,,,,,,,,,,,,,,,,,,,,,,,,,,,406.3263599999991,406.3335088340027,406.3335088340027,407.02736391700455,g,1.0,0.6914827500004321,,,,,,sub-161,1,stroop_test,119.97912410895916,
,,,,73.0,1.0,6.0,,,,,,,,,,,,,gelb,yellow,g,1.0,g,1.0,0.3921390420000534,,,,,,,,,,6.0,1.0,73.0,11.0,407.03667824999866,,,,,,,,,,,,,,,,,407.0278900839985,408.2250284590045,409.0202698339999,409.0089695420029,,,,,,,,,,,,,,,,,,,,,,,,,,,,,,,,,,,409.0128211250049,409.0202698339999,409.0202698339999,409.4163496670008,g,1.0,0.3921390420000534,,,,,,sub-161,1,stroop_test,119.97912410895916,
,,,,74.0,2.0,6.0,,,,,,,,,,,,,rot,blue,b,0.0,b,1.0,0.8236696660023881,,,,,,,,,,6.0,2.0,74.0,2.0,409.4414172500037,,,,,,,,,,,,,,,,,409.41676087499945,409.7647775840014,410.5695838340034,410.5589352090028,,,,,,,,,,,,,,,,,,,,,,,,,,,,,,,,,,,410.5621762090013,410.5695838340034,410.5695838340034,411.4001702090027,b,1.0,0.8236696660023881,,,,,,sub-161,1,stroop_test,119.97912410895916,
,,,,75.0,3.0,6.0,,,,,,,,,,,,,rot,yellow,g,0.0,g,1.0,0.7315990829956718,,,,,,,,,,6.0,3.0,75.0,3.0,411.41056579200085,,,,,,,,,,,,,,,,,411.4006953749995,412.5982277920048,413.4002147499996,413.3924086670013,,,,,,,,,,,,,,,,,,,,,,,,,,,,,,,,,,,413.3930639590035,413.4002147499996,413.4002147499996,414.1592957920002,g,1.0,0.7315990829956718,,,,,,sub-161,1,stroop_test,119.97912410895916,
,,,,76.0,4.0,6.0,,,,,,,,,,,,,gelb,red,r,0.0,r,1.0,0.7770687079973868,,,,,,,,,,6.0,4.0,76.0,8.0,414.17528875000426,,,,,,,,,,,,,,,,,414.15983633400174,415.347849292004,416.1416655840003,416.1311369169998,,,,,,,,,,,,,,,,,,,,,,,,,,,,,,,,,,,416.1347113340016,416.1416655840003,416.1416655840003,416.9268818339988,r,1.0,0.7770687079973868,,,,,,sub-161,1,stroop_test,119.97912410895916,
,,,,77.0,5.0,6.0,,,,,,,,,,,,,blau,blue,b,1.0,b,1.0,0.6407171249957173,,,,,,,,,,6.0,5.0,77.0,5.0,416.9361724170012,,,,,,,,,,,,,,,,,416.9273253749998,417.025231874999,417.8200176669998,417.809222625001,,,,,,,,,,,,,,,,,,,,,,,,,,,,,,,,,,,417.8129257090041,417.8200176669998,417.8200176669998,418.4669239590002,b,1.0,0.6407171249957173,,,,,,sub-161,1,stroop_test,119.97912410895916,
,,,,78.0,6.0,6.0,,,,,,,,,,,,,gelb,yellow,g,1.0,g,1.0,0.797092499997234,,,,,,,,,,6.0,6.0,78.0,10.0,418.4914416669999,,,,,,,,,,,,,,,,,418.4673434170036,419.665501042,420.47237504200166,420.4594337919989,,,,,,,,,,,,,,,,,,,,,,,,,,,,,,,,,,,420.4647574590053,420.47237504200166,420.47237504200166,421.2775263750009,g,1.0,0.797092499997234,,,,,,sub-161,1,stroop_test,119.97912410895916,
,,,,79.0,7.0,6.0,,,,,,,,,,,,,rot,red,r,1.0,r,1.0,0.7218785420045606,,,,,,,,,,6.0,7.0,79.0,0.0,421.2871744590011,,,,,,,,,,,,,,,,,421.2780667920015,422.07525562500086,422.8705675000019,422.8592191670032,,,,,,,,,,,,,,,,,,,,,,,,,,,,,,,,,,,422.8629865840048,422.8705675000019,422.8705675000019,423.5947582920053,r,1.0,0.7218785420045606,,,,,,sub-161,1,stroop_test,119.97912410895916,
,,,,80.0,8.0,6.0,,,,,,,,,,,,,blau,red,r,0.0,r,1.0,0.5094272499991348,,,,,,,,,,6.0,8.0,80.0,4.0,423.600741000002,,,,,,,,,,,,,,,,,423.5951882090012,423.942026292003,424.737510125,424.72615025000414,,,,,,,,,,,,,,,,,,,,,,,,,,,,,,,,,,,424.7301339170008,424.737510125,424.737510125,425.2490592500035,r,1.0,0.5094272499991348,,,,,,sub-161,1,stroop_test,119.97912410895916,
,,,,81.0,9.0,6.0,,,,,,,,,,,,,blau,blue,b,1.0,b,1.0,0.575184374996752,,,,,,,,,,6.0,9.0,81.0,6.0,425.2583142090007,,,,,,,,,,,,,,,,,425.24947454200446,425.3482758750033,426.1414789170012,426.13136062500416,,,,,,,,,,,,,,,,,,,,,,,,,,,,,,,,,,,426.1320590000032,426.1414789170012,426.1414789170012,426.7270553749986,b,1.0,0.575184374996752,,,,,,sub-161,1,stroop_test,119.97912410895916,
,,,,82.0,10.0,6.0,,,,,,,,,,,,,gelb,blue,b,0.0,b,1.0,0.6403367500024615,,,,,,,,,,6.0,10.0,82.0,9.0,426.7363212920027,,,,,,,,,,,,,,,,,426.7275934999998,427.9253624170015,428.7203512499982,428.709433834003,,,,,,,,,,,,,,,,,,,,,,,,,,,,,,,,,,,428.7130450420009,428.7203512499982,428.7203512499982,429.3675951250043,b,1.0,0.6403367500024615,,,,,,sub-161,1,stroop_test,119.97912410895916,
,,,,83.0,11.0,6.0,,,,,,,,,,,,,rot,red,r,1.0,g,0.0,0.5807176250018529,,,,,,,,,,6.0,11.0,83.0,1.0,429.3771344170018,,,,,,,,,,,,,,,,,429.3680203340045,430.5652419170001,431.3610697090044,431.3494032090021,,,,,,,,,,,,,,,,,,,,,,,,,,,,,,,,,,,431.3527629590026,431.3610697090044,431.3610697090044,431.9443700000047,g,0.0,0.5807176250018529,,,,,,sub-161,1,stroop_test,119.97912410895916,
,,,,84.0,0.0,7.0,,,,,,,,,,,,,blau,blue,b,1.0,b,1.0,0.82703762500023,,,,,,,,,,7.0,0.0,84.0,6.0,431.9537319170049,,,,,,,,,,,,,,,,,431.94490054200287,432.29234587500105,433.0882857920005,433.0761312500035,,,,,,,,,,,,,,,,,,,,,,,,,,,,,,,,,,,433.0808088749982,433.0882857920005,433.0882857920005,433.9272358750022,b,1.0,0.82703762500023,,,,,,sub-161,1,stroop_test,119.97912410895916,
,,,,85.0,1.0,7.0,,,,,,,,,,,,,rot,red,r,1.0,r,1.0,0.5317486249987269,,,,,,,,,,7.0,1.0,85.0,0.0,433.936547917001,,,,,,,,,,,,,,,,,433.9277682920001,434.0255266250024,434.8198576249997,434.8092845840001,,,,,,,,,,,,,,,,,,,,,,,,,,,,,,,,,,,434.81260087500414,434.8198576249997,434.8198576249997,435.3605590840016,r,1.0,0.5317486249987269,,,,,,sub-161,1,stroop_test,119.97912410895916,
,,,,86.0,2.0,7.0,,,,,,,,,,,,,gelb,yellow,g,1.0,g,1.0,0.6527823750002426,,,,,,,,,,7.0,2.0,86.0,10.0,435.36975233400153,,,,,,,,,,,,,,,,,435.36111466700095,436.15924337500473,436.9540586670046,436.9425565839993,,,,,,,,,,,,,,,,,,,,,,,,,,,,,,,,,,,436.9465282500023,436.9540586670046,436.9540586670046,437.61093704200175,g,1.0,0.6527823750002426,,,,,,sub-161,1,stroop_test,119.97912410895916,
,,,,87.0,3.0,7.0,,,,,,,,,,,,,blau,blue,b,1.0,b,1.0,0.6624305829973309,,,,,,,,,,7.0,3.0,87.0,5.0,437.6204354170041,,,,,,,,,,,,,,,,,437.6114805840043,437.9592354589986,438.75350441699993,438.7427902920026,,,,,,,,,,,,,,,,,,,,,,,,,,,,,,,,,,,438.74628716699954,438.75350441699993,438.75350441699993,439.42742654200265,b,1.0,0.6624305829973309,,,,,,sub-161,1,stroop_test,119.97912410895916,
,,,,88.0,4.0,7.0,,,,,,,,,,,,,gelb,red,r,0.0,r,1.0,0.912878457995248,,,,,,,,,,7.0,4.0,88.0,8.0,439.4362502090007,,,,,,,,,,,,,,,,,439.4278581670005,439.5250113750008,440.3203939170053,440.309400584003,,,,,,,,,,,,,,,,,,,,,,,,,,,,,,,,,,,440.3132975840053,440.3203939170053,440.3203939170053,441.2445388339984,r,1.0,0.912878457995248,,,,,,sub-161,1,stroop_test,119.97912410895916,
,,,,89.0,5.0,7.0,,,,,,,,,,,,,blau,red,r,0.0,r,1.0,0.4729977090028114,,,,,,,,,,7.0,5.0,89.0,4.0,441.25376941700233,,,,,,,,,,,,,,,,,441.24505562500417,441.5922317920049,442.3872486250039,442.3764904999989,,,,,,,,,,,,,,,,,,,,,,,,,,,,,,,,,,,442.3800333340041,442.3872486250039,442.3872486250039,442.8672460419984,r,1.0,0.4729977090028114,,,,,,sub-161,1,stroop_test,119.97912410895916,
,,,,90.0,6.0,7.0,,,,,,,,,,,,,gelb,blue,b,0.0,b,1.0,0.9129311659999076,,,,,,,,,,7.0,6.0,90.0,9.0,442.8781520839984,,,,,,,,,,,,,,,,,442.8677797920027,443.6660627500023,444.4753973750048,444.4493265839992,,,,,,,,,,,,,,,,,,,,,,,,,,,,,,,,,,,444.4526714169988,444.4753973750048,444.4753973750048,445.3945011250034,b,1.0,0.9129311659999076,,,,,,sub-161,1,stroop_test,119.97912410895916,
,,,,91.0,7.0,7.0,,,,,,,,,,,,,rot,yellow,g,0.0,r,0.0,1.2991416250006296,,,,,,,,,,7.0,7.0,91.0,3.0,445.40401862499857,,,,,,,,,,,,,,,,,445.39504270900215,446.1927900840019,446.9880310840017,446.9766519590048,,,,,,,,,,,,,,,,,,,,,,,,,,,,,,,,,,,446.98054737500206,446.9880310840017,446.9880310840017,448.29434929200215,r,0.0,1.2991416250006296,,,,,,sub-161,1,stroop_test,119.97912410895916,
,,,,92.0,8.0,7.0,,,,,,,,,,,,,rot,red,r,1.0,r,1.0,0.7733504580028239,,,,,,,,,,7.0,8.0,92.0,1.0,448.3034501670045,,,,,,,,,,,,,,,,,448.294800542004,448.6425467920053,449.4330961669984,449.426324,,,,,,,,,,,,,,,,,,,,,,,,,,,,,,,,,,,449.4269917920028,449.4330961669984,449.4330961669984,450.2115532500029,r,1.0,0.7733504580028239,,,,,,sub-161,1,stroop_test,119.97912410895916,
,,,,93.0,9.0,7.0,,,,,,,,,,,,,blau,yellow,g,0.0,g,1.0,1.7117608330008809,,,,,,,,,,7.0,9.0,93.0,7.0,450.2210077920026,,,,,,,,,,,,,,,,,450.2120977090017,450.30903925000166,451.1052422089997,451.0933226670022,,,,,,,,,,,,,,,,,,,,,,,,,,,,,,,,,,,451.0976203750033,451.1052422089997,451.1052422089997,452.8279268750048,g,1.0,1.7117608330008809,,,,,,sub-161,1,stroop_test,119.97912410895916,
,,,,94.0,10.0,7.0,,,,,,,,,,,,,gelb,yellow,g,1.0,g,1.0,0.6014260420051869,,,,,,,,,,7.0,10.0,94.0,11.0,452.8367599170015,,,,,,,,,,,,,,,,,452.8283582500008,454.026021042002,454.8216072089999,454.80983095899865,,,,,,,,,,,,,,,,,,,,,,,,,,,,,,,,,,,454.8144500420021,454.8216072089999,454.8216072089999,455.42825470900425,g,1.0,0.6014260420051869,,,,,,sub-161,1,stroop_test,119.97912410895916,
,,,,95.0,11.0,7.0,,,,,,,,,,,,,rot,blue,b,0.0,b,1.0,1.5165936250050436,,,,,,,,,,7.0,11.0,95.0,2.0,455.4375517090011,,,,,,,,,,,,,,,,,455.42879191700194,455.5260564589989,456.3205231250031,456.3098488340038,,,,,,,,,,,,,,,,,,,,,,,,,,,,,,,,,,,456.3131668339993,456.3205231250031,456.3205231250031,457.8445972920017,b,1.0,1.5165936250050436,,,,,,sub-161,1,stroop_test,119.97912410895916,
,,,,96.0,0.0,8.0,,,,,,,,,,,,,rot,red,r,1.0,r,1.0,0.6696414170000935,,,,,,,,,,8.0,0.0,96.0,1.0,457.8537981250047,,,,,,,,,,,,,,,,,457.8451165420047,457.9427673750033,458.7345346670045,458.7266238750017,,,,,,,,,,,,,,,,,,,,,,,,,,,,,,,,,,,458.7272834169999,458.7345346670045,458.7345346670045,459.4115658750016,r,1.0,0.6696414170000935,,,,,,sub-161,1,stroop_test,119.97912410895916,
,,,,97.0,1.0,8.0,,,,,,,,,,,,,gelb,red,r,0.0,g,0.0,0.7128815830001258,,,,,,,,,,8.0,1.0,97.0,8.0,459.4218524169992,,,,,,,,,,,,,,,,,459.4122842500001,459.5094883339989,460.304094500003,460.29329941700416,,,,,,,,,,,,,,,,,,,,,,,,,,,,,,,,,,,460.29697270900215,460.304094500003,460.304094500003,461.02795958400384,g,0.0,0.7128815830001258,,,,,,sub-161,1,stroop_test,119.97912410895916,
,,,,98.0,2.0,8.0,,,,,,,,,,,,,rot,red,r,1.0,r,1.0,0.5410888330006856,,,,,,,,,,8.0,2.0,98.0,0.0,461.0370024590011,,,,,,,,,,,,,,,,,461.0284013339988,461.3760028750039,462.1711240000004,462.16005312500056,,,,,,,,,,,,,,,,,,,,,,,,,,,,,,,,,,,462.1637251249995,462.1711240000004,462.1711240000004,462.71771320900007,r,1.0,0.5410888330006856,,,,,,sub-161,1,stroop_test,119.97912410895916,
,,,,99.0,3.0,8.0,,,,,,,,,,,,,blau,yellow,g,0.0,g,1.0,0.7341938750032568,,,,,,,,,,8.0,3.0,99.0,7.0,462.7424640840036,,,,,,,,,,,,,,,,,462.7181575840005,463.91483300000255,464.7086158750026,464.6984159589993,,,,,,,,,,,,,,,,,,,,,,,,,,,,,,,,,,,464.70147295900097,464.7086158750026,464.7086158750026,465.445139250005,g,1.0,0.7341938750032568,,,,,,sub-161,1,stroop_test,119.97912410895916,
,,,,100.0,4.0,8.0,,,,,,,,,,,,,gelb,blue,b,0.0,b,1.0,0.7793525830056751,,,,,,,,,,8.0,4.0,100.0,9.0,465.4542481250028,,,,,,,,,,,,,,,,,465.4455703339991,465.5431130840007,466.33904987500136,466.326839166999,,,,,,,,,,,,,,,,,,,,,,,,,,,,,,,,,,,466.331527209004,466.33904987500136,466.33904987500136,467.1282159590046,b,1.0,0.7793525830056751,,,,,,sub-161,1,stroop_test,119.97912410895916,
,,,,101.0,5.0,8.0,,,,,,,,,,,,,gelb,yellow,g,1.0,g,1.0,0.7351635829982115,,,,,,,,,,8.0,5.0,101.0,10.0,467.1374817090036,,,,,,,,,,,,,,,,,467.12872916700144,467.9262696250007,468.7185822090032,468.7103941669993,,,,,,,,,,,,,,,,,,,,,,,,,,,,,,,,,,,468.71109416700347,468.7185822090032,468.7185822090032,469.46100316700176,g,1.0,0.7351635829982115,,,,,,sub-161,1,stroop_test,119.97912410895916,
,,,,102.0,6.0,8.0,,,,,,,,,,,,,rot,blue,b,0.0,b,1.0,0.6875460410010419,,,,,,,,,,8.0,6.0,102.0,2.0,469.4696500420032,,,,,,,,,,,,,,,,,469.4614322920024,469.8097385000001,470.6067541250013,470.5939147919999,,,,,,,,,,,,,,,,,,,,,,,,,,,,,,,,,,,470.5990408750004,470.6067541250013,470.6067541250013,471.3016534999988,b,1.0,0.6875460410010419,,,,,,sub-161,1,stroop_test,119.97912410895916,
,,,,103.0,7.0,8.0,,,,,,,,,,,,,blau,blue,b,1.0,b,1.0,0.4440579169968259,,,,,,,,,,8.0,7.0,103.0,5.0,471.3110165420003,,,,,,,,,,,,,,,,,471.3021746250015,472.4998208340039,473.3060041249992,473.2939941250006,,,,,,,,,,,,,,,,,,,,,,,,,,,,,,,,,,,473.298637042004,473.3060041249992,473.3060041249992,473.7526408749982,b,1.0,0.4440579169968259,,,,,,sub-161,1,stroop_test,119.97912410895916,
,,,,104.0,8.0,8.0,,,,,,,,,,,,,gelb,yellow,g,1.0,g,1.0,0.6512900000016089,,,,,,,,,,8.0,8.0,104.0,11.0,473.7625324590044,,,,,,,,,,,,,,,,,473.7531908750025,474.9500082500017,475.7593680420032,475.7331558750011,,,,,,,,,,,,,,,,,,,,,,,,,,,,,,,,,,,475.7367827499984,475.7593680420032,475.7593680420032,476.4189927920015,g,1.0,0.6512900000016089,,,,,,sub-161,1,stroop_test,119.97912410895916,
,,,,105.0,9.0,8.0,,,,,,,,,,,,,blau,red,r,0.0,r,1.0,0.5420659579976927,,,,,,,,,,8.0,9.0,105.0,4.0,476.42867366700375,,,,,,,,,,,,,,,,,476.41941729200335,476.7666095419991,477.5623270420037,477.550383875001,,,,,,,,,,,,,,,,,,,,,,,,,,,,,,,,,,,477.5542378340033,477.5623270420037,477.5623270420037,478.1114165420004,r,1.0,0.5420659579976927,,,,,,sub-161,1,stroop_test,119.97912410895916,
,,,,106.0,10.0,8.0,,,,,,,,,,,,,rot,yellow,g,0.0,g,1.0,0.612723875005031,,,,,,,,,,8.0,10.0,106.0,3.0,478.1205012920036,,,,,,,,,,,,,,,,,478.1118834170047,479.3099993750002,480.1048230000015,480.093847917,,,,,,,,,,,,,,,,,,,,,,,,,,,,,,,,,,,480.0974987500013,480.1048230000015,480.1048230000015,480.7286159170035,g,1.0,0.612723875005031,,,,,,sub-161,1,stroop_test,119.97912410895916,
,,,,107.0,11.0,8.0,,,,,,,,,,,,,blau,blue,b,1.0,b,1.0,0.7712506250027218,,,,,,,,,,8.0,11.0,107.0,6.0,480.73805870900105,,,,,,,,,,,,,,,,,480.7291528339993,481.0768198750011,481.8715820420039,481.860700792,,,,,,,,,,,,,,,,,,,,,,,,,,,,,,,,,,,481.8644337500009,481.8715820420039,481.8715820420039,482.6452115840002,b,1.0,0.7712506250027218,,,,,,sub-161,1,stroop_test,119.97912410895916,
,,,,108.0,0.0,9.0,,,,,,,,,,,,,blau,yellow,g,0.0,g,1.0,0.7050228340012836,,,,,,,,,,9.0,0.0,108.0,7.0,482.6543480840046,,,,,,,,,,,,,,,,,482.6456500420026,482.9931017089984,483.78511045900086,483.7772808750015,,,,,,,,,,,,,,,,,,,,,,,,,,,,,,,,,,,483.7779320420013,483.78511045900086,483.78511045900086,484.4948870000008,g,1.0,0.7050228340012836,,,,,,sub-161,1,stroop_test,119.97912410895916,
,,,,109.0,1.0,9.0,,,,,,,,,,,,,rot,red,r,1.0,r,1.0,1.1117451669997536,,,,,,,,,,9.0,1.0,109.0,1.0,484.5005307500032,,,,,,,,,,,,,,,,,484.4953101249994,485.69327783400513,486.4882867499982,486.4774306670006,,,,,,,,,,,,,,,,,,,,,,,,,,,,,,,,,,,486.4809370420044,486.4882867499982,486.4882867499982,487.6119017500023,r,1.0,1.1117451669997536,,,,,,sub-161,1,stroop_test,119.97912410895916,
,,,,110.0,2.0,9.0,,,,,,,,,,,,,gelb,yellow,g,1.0,g,1.0,1.0713012080013868,,,,,,,,,,9.0,2.0,110.0,10.0,487.62093874999846,,,,,,,,,,,,,,,,,487.6123320840052,488.8101977920014,489.6053450000036,489.59402858400426,,,,,,,,,,,,,,,,,,,,,,,,,,,,,,,,,,,489.59809291700367,489.6053450000036,489.6053450000036,490.6786430420034,g,1.0,1.0713012080013868,,,,,,sub-161,1,stroop_test,119.97912410895916,
,,,,111.0,3.0,9.0,,,,,,,,,,,,,blau,blue,b,1.0,b,1.0,0.6883081249980023,,,,,,,,,,9.0,3.0,111.0,6.0,490.68796279199887,,,,,,,,,,,,,,,,,490.67907441699936,491.0267595000041,491.8215570840039,491.810533459,,,,,,,,,,,,,,,,,,,,,,,,,,,,,,,,,,,491.8142227920034,491.8215570840039,491.8215570840039,492.51231733400346,b,1.0,0.6883081249980023,,,,,,sub-161,1,stroop_test,119.97912410895916,
,,,,112.0,4.0,9.0,,,,,,,,,,,,,rot,blue,b,0.0,b,1.0,1.086170750000747,,,,,,,,,,9.0,4.0,112.0,2.0,492.5211841249984,,,,,,,,,,,,,,,,,492.5127520000024,493.710262917004,494.5053479589988,494.4941734169988,,,,,,,,,,,,,,,,,,,,,,,,,,,,,,,,,,,494.4979857500002,494.5053479589988,494.5053479589988,495.5953609170029,b,1.0,1.086170750000747,,,,,,sub-161,1,stroop_test,119.97912410895916,
,,,,113.0,5.0,9.0,,,,,,,,,,,,,blau,blue,b,1.0,b,1.0,0.582135875003587,,,,,,,,,,9.0,5.0,113.0,5.0,495.6047403340053,,,,,,,,,,,,,,,,,495.59591616700345,495.6937340420045,496.48938479200297,496.4778506250004,,,,,,,,,,,,,,,,,,,,,,,,,,,,,,,,,,,496.48196499999904,496.48938479200297,496.48938479200297,497.0784332090043,b,1.0,0.582135875003587,,,,,,sub-161,1,stroop_test,119.97912410895916,
,,,,114.0,6.0,9.0,,,,,,,,,,,,,gelb,blue,b,0.0,b,1.0,0.4789455830032239,,,,,,,,,,9.0,6.0,114.0,9.0,497.0875247500008,,,,,,,,,,,,,,,,,497.0788716669995,498.27675387500494,499.0732740840031,499.06147958400106,,,,,,,,,,,,,,,,,,,,,,,,,,,,,,,,,,,499.0659547500036,499.0732740840031,499.0732740840031,499.561766167004,b,1.0,0.4789455830032239,,,,,,sub-161,1,stroop_test,119.97912410895916,
,,,,115.0,7.0,9.0,,,,,,,,,,,,,blau,red,r,0.0,r,1.0,1.397528166999109,,,,,,,,,,9.0,7.0,115.0,4.0,499.5709622499999,,,,,,,,,,,,,,,,,499.5621962090008,500.7602789590019,501.5550757500023,501.54428650000045,,,,,,,,,,,,,,,,,,,,,,,,,,,,,,,,,,,501.5479359590026,501.5550757500023,501.5550757500023,502.96243675000005,r,1.0,1.397528166999109,,,,,,sub-161,1,stroop_test,119.97912410895916,
,,,,116.0,8.0,9.0,,,,,,,,,,,,,rot,red,r,1.0,r,1.0,0.8371580829989398,,,,,,,,,,9.0,8.0,116.0,0.0,502.9717185420013,,,,,,,,,,,,,,,,,502.9629740419987,504.1602121670003,504.9565278340015,504.9443058340039,,,,,,,,,,,,,,,,,,,,,,,,,,,,,,,,,,,504.948814084004,504.9565278340015,504.9565278340015,505.79607520900026,r,1.0,0.8371580829989398,,,,,,sub-161,1,stroop_test,119.97912410895916,
,,,,117.0,9.0,9.0,,,,,,,,,,,,,rot,yellow,g,0.0,g,1.0,1.479600874998141,,,,,,,,,,9.0,9.0,117.0,3.0,505.8054285000035,,,,,,,,,,,,,,,,,505.7966022090041,505.893579167001,506.68626941700495,506.6780600839993,,,,,,,,,,,,,,,,,,,,,,,,,,,,,,,,,,,506.6787571669993,506.68626941700495,506.68626941700495,508.1683710840007,g,1.0,1.479600874998141,,,,,,sub-161,1,stroop_test,119.97912410895916,
,,,,118.0,10.0,9.0,,,,,,,,,,,,,gelb,yellow,g,1.0,g,1.0,0.743131249997532,,,,,,,,,,9.0,10.0,118.0,11.0,508.19352370900015,,,,,,,,,,,,,,,,,508.1688078750012,508.9672229589996,509.763141125004,509.7505052089982,,,,,,,,,,,,,,,,,,,,,,,,,,,,,,,,,,,509.7546022500028,509.763141125004,509.763141125004,510.5127136670053,g,1.0,0.743131249997532,,,,,,sub-161,1,stroop_test,119.97912410895916,
,,,,119.0,11.0,9.0,,,,,,,,,,,,,gelb,red,r,0.0,r,1.0,1.5626980419983738,,,,,,,,,,9.0,11.0,119.0,8.0,510.52208208400407,,,,,,,,,,,,,,,,,510.5132628749998,511.3103353340048,512.1022197089987,512.0943972090026,,,,,,,,,,,,,,,,,,,,,,,,,,,,,,,,,,,512.0950451669996,512.1022197089987,512.1022197089987,513.6683862089994,r,1.0,1.5626980419983738,,,,,,sub-161,1,stroop_test,119.97912410895916,
,,,,,,,,,,,,,,,,,,,,,,,,,,,,,,,,,,,,,,,,,,,,,,,,,,,,,,,,,,,,,,,,,,,,,,,,,,,,,,,,,,,,,,,,,,,,,,,,,,,,,,513.6686013340004,513.679199875005,518.6775106249988,518.6662482920001,sub-161,1,stroop_test,119.97912410895916,
