direction,corrAns,randomInstr,practice_trials.thisRepN,practice_trials.thisTrialN,practice_trials.thisN,practice_trials.thisIndex,instr_trials.thisRepN,instr_trials.thisTrialN,instr_trials.thisN,instr_trials.thisIndex,test_trials.thisRepN,test_trials.thisTrialN,test_trials.thisN,test_trials.thisIndex,thisRow.t,notes,general_instruction.started,textGeneralInstr.started,respGeneralInstr.started,general_instruction.stopped,respGeneralInstr.keys,respGeneralInstr.rt,respGeneralInstr.duration,ITI.started,fixcross.started,fixcross.stopped,ITI.stopped,dots.started,backgroundDots.started,stimulusDots.started,respDots.started,stimulusDots.stopped,dots.stopped,respDots.keys,respDots.corr,respDots.rt,respDots.duration,feedback.started,textFeedback.started,feedback.stopped,textFeedback.stopped,info.started,textInfo.started,keyRespInfo.started,info.stopped,keyRespInfo.keys,keyRespInfo.rt,keyRespInfo.duration,test_instruction.started,textTestInstr.started,respTestInstr.started,test_instruction.stopped,respTestInstr.keys,respTestInstr.rt,respTestInstr.duration,random_instruction.started,textRandomInstr.started,respRandomInstr.started,random_instruction.stopped,respRandomInstr.keys,respRandomInstr.rt,respRandomInstr.duration,goodbye.started,textGoodbye.started,goodbye.stopped,participant,session,expName,frameRate,Unnamed: 73
,,,,,,,,,,,,,,,,,0.0264349000062793,0.0426540999906137,0.0426540999906137,43.02122760005295,space,104.93185839999931,,,,,,,,,,,,,,,,,,,,,,,,,,,,,,,,,,,,,,,,,,,,sub-190,1.0,random_dot,59.535433133183645,
left,left,,0.0,0.0,0.0,0.0,,,,,,,,,43.05388570006471,,,,,,,,,43.04393889999483,43.37053610000294,44.18648340005893,44.15506320004352,44.15508759999648,44.18648340005893,44.18648340005893,44.18648340005893,49.16696120006964,58.181212899973616,right,0.0,75.9425091999583,,58.193662700010464,58.213713100063615,58.695126999984495,,,,,,,,,,,,,,,,,,,,,,,,,,sub-190,1.0,random_dot,59.535433133183645,
right,right,,0.0,1.0,1.0,1.0,,,,,,,,,58.712667100015096,,,,,,,,,58.695739399991,59.89535440003965,60.71164360002149,60.6953714999836,60.69539980008267,60.71164360002149,60.71164360002149,60.71164360002149,65.7096915000584,66.29227089998312,right,1.0,67.52469740004744,,66.29298240004573,66.30848160001915,66.79200440004934,66.80772080004681,,,,,,,,,,,,,,,,,,,,,,,,,sub-190,1.0,random_dot,59.535433133183645,
right,right,,1.0,0.0,2.0,1.0,,,,,,,,,66.80772080004681,,,,,,,,,66.79244550003204,68.00797250005417,68.8076564000221,68.79154830006883,68.791567999986,68.8076564000221,68.8076564000221,68.8076564000221,,72.84042690007482,right,1.0,65.9875841998728,,72.84096569998655,72.85532199998852,73.33996940008365,73.35612000001129,,,,,,,,,,,,,,,,,,,,,,,,,sub-190,1.0,random_dot,59.535433133183645,
left,left,,1.0,1.0,3.0,0.0,,,,,,,,,73.35612000001129,,,,,,,,,73.34038980002515,73.45492769998964,74.25440019997768,74.2387568000704,74.23878390004393,74.25440019997768,74.25440019997768,74.25440019997768,79.2524459999986,80.0028112999862,left,1.0,67.69047339993995,,80.00338140001986,80.01743980008177,80.50182890007272,80.51825439999811,,,,,,,,,,,,,,,,,,,,,,,,,sub-190,1.0,random_dot,59.535433133183645,
left,left,,2.0,0.0,4.0,0.0,,,,,,,,,80.51825439999811,,,,,,,,,80.50223700003698,80.86758580000605,81.66688819997944,81.65134760004003,81.65136610006448,81.66688819997944,81.66688819997944,81.66688819997944,,84.68315840000287,left,1.0,64.96976759994868,,84.68365360004827,84.69871030002832,85.18352299998514,85.19871770008467,,,,,,,,,,,,,,,,,,,,,,,,,sub-190,1.0,random_dot,59.535433133183645,
right,right,,2.0,1.0,5.0,1.0,,,,,,,,,85.19871770008467,,,,,,,,,85.18401379999705,86.39905500004534,87.19773510005325,87.18260200007353,87.18262640002649,87.19773510005325,87.19773510005325,87.19773510005325,,89.18154260003939,right,1.0,63.93081799999345,,89.18212080001831,89.19685270008631,89.68032420007512,89.69644870003685,,,,,,,,,,,,,,,,,,,,,,,,,sub-190,1.0,random_dot,59.535433133183645,
right,right,,3.0,0.0,6.0,1.0,,,,,,,,,89.69644870003685,,,,,,,,,89.68088330002502,90.49629689997528,91.31189440004528,91.29731659998652,91.29734990000723,91.31189440004528,91.31189440004528,91.31189440004528,,93.49491930007936,left,0.0,64.13015789992642,,93.49545300006866,93.51059239997994,93.99577640008648,94.0113572999835,,,,,,,,,,,,,,,,,,,,,,,,,sub-190,1.0,random_dot,59.535433133183645,
left,left,,3.0,1.0,7.0,0.0,,,,,,,,,94.0113572999835,,,,,,,,,93.99622710002586,94.36177489999682,95.16088580002544,95.1450896000024,95.14511100004891,95.16088580002544,95.16088580002544,95.16088580002544,,98.95913810003547,left,1.0,65.74420910002664,,98.95964730007108,98.97458360006569,99.45890900003724,99.47493999998552,,,,,,,,,,,,,,,,,,,,,,,,,sub-190,1.0,random_dot,59.535433133183645,
left,left,,4.0,0.0,8.0,0.0,,,,,,,,,99.47493999998552,,,,,,,,,99.45931469998322,99.82541569997557,100.62458820000757,100.60901250003371,100.60903160006274,100.62458820000757,100.62458820000757,100.62458820000757,,102.15781940007582,right,0.0,63.4877277999185,,102.15833370003384,102.17334500001743,102.65785439999308,102.6740117999725,,,,,,,,,,,,,,,,,,,,,,,,,sub-190,1.0,random_dot,59.535433133183645,
right,right,,4.0,1.0,9.0,1.0,,,,,,,,,102.6740117999725,,,,,,,,,102.65840590000153,103.87149290007072,104.67292100004852,104.656506099971,104.65652590000536,104.67292100004852,104.67292100004852,104.67292100004852,,109.17118399997707,right,1.0,66.4399556000717,,109.17178830003832,109.18590709997808,109.66993540001567,109.68590480007695,,,,,,,,,,,,,,,,,,,,,,,,,sub-190,1.0,random_dot,59.535433133183645,
right,right,,5.0,0.0,10.0,1.0,,,,,,,,,109.68590480007695,,,,,,,,,109.6703285999829,110.88586180005224,111.68455180001912,111.66972640005406,111.66974639997352,111.68455180001912,111.68455180001912,111.68455180001912,,114.7510722000152,right,1.0,65.01213980000466,,114.7516335999826,114.7665595000144,115.2508207000792,115.2661747999955,,,,,,,,,,,,,,,,,,,,,,,,,sub-190,1.0,random_dot,59.535433133183645,
left,left,,5.0,1.0,11.0,0.0,,,,,,,,,115.2661747999955,,,,,,,,,115.25126300007103,115.35010110004804,116.14982340007556,116.13330920005684,116.13333450001664,116.14982340007556,116.14982340007556,116.14982340007556,,117.26621590007562,left,1.0,63.06022540002596,,117.2667287000222,117.28144020005128,117.76542399998289,117.78145720006432,,,,,,,,,,,,,,,,,,,,,,,,,sub-190,1.0,random_dot,59.535433133183645,
left,left,,6.0,0.0,12.0,0.0,,,,,,,,,117.78145720006432,,,,,,,,,117.76599890005308,118.13211400003638,118.93190770002548,118.91623089998028,118.91625050001312,118.93190770002548,118.93190770002548,118.93190770002548,,120.61451780004428,right,0.0,63.631278799963184,,120.61503530002663,120.62966550001876,121.11411610001232,121.13013740000316,,,,,,,,,,,,,,,,,,,,,,,,,sub-190,1.0,random_dot,59.535433133183645,
right,right,,6.0,1.0,13.0,1.0,,,,,,,,,121.13013740000316,,,,,,,,,121.11451940005644,121.93029569997452,122.72883909998929,122.71356730000116,122.713586900034,122.72883909998929,122.72883909998929,122.72883909998929,,124.84674609999638,right,1.0,64.07290020002984,,124.84729110007174,124.86154100007845,125.34462780004831,125.36187350004911,,,,,,,,,,,,,,,,,,,,,,,,,sub-190,1.0,random_dot,59.535433133183645,
left,left,,7.0,0.0,14.0,0.0,,,,,,,,,125.36187350004911,,,,,,,,,125.34504090005066,125.4611080000177,126.27732430002652,126.26209139998537,126.26211400004104,126.27732430002652,126.27732430002652,126.27732430002652,,127.77681060007308,left,1.0,63.44263769988902,,127.77727199997751,127.79259680001996,128.2776775000384,128.29571570002008,,,,,,,,,,,,,,,,,,,,,,,,,sub-190,1.0,random_dot,59.535433133183645,
right,right,,7.0,1.0,15.0,1.0,,,,,,,,,128.29571570002008,,,,,,,,,128.27808670001104,129.09278609999456,129.89391199999957,129.8768535000272,129.87689459999092,129.89391199999957,129.89391199999957,129.89391199999957,,130.99191149999388,right,1.0,63.03850419993978,,130.99241860001348,131.00762450008187,131.49271290004253,131.5090161000844,,,,,,,,,,,,,,,,,,,,,,,,,sub-190,1.0,random_dot,59.535433133183645,
left,left,,8.0,0.0,16.0,0.0,,,,,,,,,131.5090161000844,,,,,,,,,131.4930964000523,131.85807070008013,132.6742272999836,132.65835470007733,132.6583822000539,132.6742272999836,132.6742272999836,132.6742272999836,,135.32417979999445,left,1.0,64.59925760002807,,135.32469390006736,135.33934319997206,135.82299720006995,135.84005130000878,,,,,,,,,,,,,,,,,,,,,,,,,sub-190,1.0,random_dot,59.535433133183645,
right,right,,8.0,1.0,17.0,1.0,,,,,,,,,135.84005130000878,,,,,,,,,135.82343580003362,137.03849710000213,137.8383157000644,137.8230713000521,137.82311430003028,137.8383157000644,137.8383157000644,137.8383157000644,,139.10523920005653,right,1.0,63.22192419995554,,139.10573670000304,139.12034969998058,139.60511020000558,139.62111820001155,,,,,,,,,,,,,,,,,,,,,,,,,sub-190,1.0,random_dot,59.535433133183645,
right,right,,9.0,0.0,18.0,1.0,,,,,,,,,139.62111820001155,,,,,,,,,139.60553930001333,139.72103710006922,140.53681510000024,140.52141150005627,140.5214352000039,140.53681510000024,140.53681510000024,140.53681510000024,,142.98636560002342,right,1.0,64.40325259999372,,142.9868812999921,143.00182850006968,143.48596890002955,143.50195130007342,,,,,,,,,,,,,,,,,,,,,,,,,sub-190,1.0,random_dot,59.535433133183645,
left,left,,9.0,1.0,19.0,0.0,,,,,,,,,143.50195130007342,,,,,,,,,143.48651980003342,143.85168249998242,144.66831690003164,144.65266360004898,144.65269550005905,144.66831690003164,144.66831690003164,144.66831690003164,,147.4850376000395,left,1.0,64.75715589988977,,147.48559960001148,147.49956030002795,147.98415749997366,147.99919370003045,,,,,,,,,,,,,,,,,,,,,,,,,sub-190,1.0,random_dot,59.535433133183645,
,,,,,,,,,,,,,,,,,,,,,,,,,,,,,,,,,,,,,,,,,,147.984254400013,147.99919370003045,147.99919370003045,156.56207990006078,space,70.50912249996327,,,,,,,,,,,,,,,,,,,sub-190,1.0,random_dot,59.535433133183645,
,,,,,,,,,,,,,,,,,,,,,,,,,,,,,,,,,,,,,,,,,,,,,,,,,156.56211230007466,156.57745820004493,156.57745820004493,164.14216719998512,space,69.50649930001236,,,,,,,,,,,,sub-190,1.0,random_dot,59.535433133183645,
left,left,speed,,,,,0.0,0.0,0.0,1.0,0.0,0.0,0.0,0.0,167.6222473999951,,,,,,,,,167.61329360003583,168.4227279999759,169.22198749997187,169.20595299999695,169.20598760002758,169.22198749997187,169.22198749997187,169.22198749997187,,170.1398408000823,right,0.0,62.866528399987146,,,,,,,,,,,,,,,,,,,,164.1457769999979,164.17478940007277,164.17478940007277,167.60651419998612,space,65.37383949989453,,,,,sub-190,1.0,random_dot,59.535433133183645,
right,right,speed,,,,,0.0,0.0,0.0,1.0,0.0,1.0,1.0,1.0,170.15413639997132,,,,,,,,,170.1410418000305,170.2551051999908,171.0707604000345,171.05509380006697,171.05511269997805,171.0707604000345,171.0707604000345,171.0707604000345,,174.50278300000355,right,1.0,65.37401679996401,,,,,,,,,,,,,,,,,,,,,,,,,,,,,,sub-190,1.0,random_dot,59.535433133183645,
left,left,speed,,,,,0.0,0.0,0.0,1.0,1.0,0.0,2.0,0.0,174.5190213000169,,,,,,,,,174.5036892000353,174.60232479998376,175.4018148999894,175.3863214000594,175.3863454000093,175.4018148999894,175.4018148999894,175.4018148999894,,176.6851482000202,left,1.0,63.22607049997896,,,,,,,,,,,,,,,,,,,,,,,,,,,,,,sub-190,1.0,random_dot,59.535433133183645,
right,right,speed,,,,,0.0,0.0,0.0,1.0,1.0,1.0,3.0,1.0,176.70048400002997,,,,,,,,,176.68639100005385,177.50000170001294,178.30120620003436,178.28463550005108,178.28465990000404,178.30120620003436,178.30120620003436,178.30120620003436,,181.8664113000268,right,1.0,65.51116579992231,,,,,,,,,,,,,,,,,,,,,,,,,,,,,,sub-190,1.0,random_dot,59.535433133183645,
right,right,speed,,,,,0.0,0.0,0.0,1.0,2.0,0.0,4.0,1.0,181.8822432999732,,,,,,,,,181.8674395000562,181.98170200001917,182.78174920007584,182.76586909999605,182.7658994999947,182.78174920007584,182.78174920007584,182.78174920007584,187.7784957999829,188.5290282000788,left,0.0,67.70047010004055,,,,,,,,,,,,,,,,,,,,,,,,,,,,,,sub-190,1.0,random_dot,59.535433133183645,
left,left,speed,,,,,0.0,0.0,0.0,1.0,2.0,1.0,5.0,0.0,188.545519300038,,,,,,,,,188.53012880007736,188.8946694000624,189.69495999999344,189.6798825999722,189.67996530001983,189.69495999999344,189.69495999999344,189.69495999999344,,190.8116784000304,left,1.0,63.07146669994109,,,,,,,,,,,,,,,,,,,,,,,,,,,,,,sub-190,1.0,random_dot,59.535433133183645,
left,left,speed,,,,,0.0,0.0,0.0,1.0,3.0,0.0,6.0,0.0,190.82649540004783,,,,,,,,,190.81272300006825,191.17732130002696,191.9766317000613,191.96066890005025,191.9607063999865,191.9766317000613,191.9766317000613,191.9766317000613,,192.8439917999785,right,0.0,62.81479579990264,,,,,,,,,,,,,,,,,,,,,,,,,,,,,,sub-190,1.0,random_dot,59.535433133183645,
right,right,speed,,,,,0.0,0.0,0.0,1.0,3.0,1.0,7.0,1.0,192.85986510000657,,,,,,,,,192.8449771000305,193.2093910999829,194.0267658000812,194.01019449997693,194.01021750003565,194.0267658000812,194.0267658000812,194.0267658000812,,196.97505330003327,left,0.0,64.90223989996593,,,,,,,,,,,,,,,,,,,,,,,,,,,,,,sub-190,1.0,random_dot,59.535433133183645,
right,right,speed,,,,,0.0,0.0,0.0,1.0,4.0,0.0,8.0,1.0,196.99066330003552,,,,,,,,,196.97600660007447,197.79013790003955,198.59042340004817,198.57358950003984,198.57361040008252,198.59042340004817,198.59042340004817,198.59042340004817,203.58625759999268,204.2706236999948,right,1.0,67.62335100001656,,,,,,,,,,,,,,,,,,,,,,,,,,,,,,sub-190,1.0,random_dot,59.535433133183645,
left,left,speed,,,,,0.0,0.0,0.0,1.0,4.0,1.0,9.0,0.0,204.2864267000696,,,,,,,,,204.27153829997405,204.38718439999505,205.1865282000508,205.1702665999765,205.1702862000093,205.1865282000508,205.1865282000508,205.1865282000508,,206.30300359998364,left,1.0,63.06491900002584,,,,,,,,,,,,,,,,,,,,,,,,,,,,,,sub-190,1.0,random_dot,59.535433133183645,
right,right,speed,,,,,0.0,0.0,0.0,1.0,5.0,0.0,10.0,1.0,206.3189741000533,,,,,,,,,206.303973400034,207.10173160000704,207.902099500061,207.88542710000183,207.88544670003463,207.902099500061,207.902099500061,207.902099500061,,210.25134369998705,right,1.0,64.28867579996586,,,,,,,,,,,,,,,,,,,,,,,,,,,,,,sub-190,1.0,random_dot,59.535433133183645,
left,left,speed,,,,,0.0,0.0,0.0,1.0,5.0,1.0,11.0,0.0,210.26656410004944,,,,,,,,,210.25223270000424,211.06584459997248,211.86559950001535,211.84910600003784,211.84913240000608,211.86559950001535,211.86559950001535,211.86559950001535,,214.23337899998296,right,0.0,64.31772399996407,,,,,,,,,,,,,,,,,,,,,,,,,,,,,,sub-190,1.0,random_dot,59.535433133183645,
right,right,speed,,,,,0.0,0.0,0.0,1.0,6.0,0.0,12.0,1.0,214.24808420008048,,,,,,,,,214.23433770006525,214.5985933999764,215.4139993999852,215.39905030000955,215.3990691000363,215.4139993999852,215.4139993999852,215.4139993999852,,219.04640430002476,left,0.0,65.58753330004402,,,,,,,,,,,,,,,,,,,,,,,,,,,,,,sub-190,1.0,random_dot,59.535433133183645,
left,left,speed,,,,,0.0,0.0,0.0,1.0,6.0,1.0,13.0,0.0,219.06255989999045,,,,,,,,,219.04728230007456,219.86189529998228,220.66132150008343,220.64627160003877,220.6463201000588,220.66132150008343,220.66132150008343,220.66132150008343,225.65917730005455,226.275992800016,left,1.0,67.56541599996854,,,,,,,,,,,,,,,,,,,,,,,,,,,,,,sub-190,1.0,random_dot,59.535433133183645,
left,left,speed,,,,,0.0,0.0,0.0,1.0,7.0,0.0,14.0,0.0,226.2943208999932,,,,,,,,,226.2769537999993,226.391439500032,227.1914751000004,227.17557570000645,227.17559480003547,227.1914751000004,227.1914751000004,227.1914751000004,,228.3081948000472,left,1.0,63.06493869994301,,,,,,,,,,,,,,,,,,,,,,,,,,,,,,sub-190,1.0,random_dot,59.535433133183645,
right,right,speed,,,,,0.0,0.0,0.0,1.0,7.0,1.0,15.0,1.0,228.32370760000776,,,,,,,,,228.3091489999788,229.5239054000704,230.32305650005583,230.30713029997423,230.30715830007105,230.32305650005583,230.32305650005583,230.32305650005583,,232.8552922999952,left,0.0,64.48364959994797,,,,,,,,,,,,,,,,,,,,,,,,,,,,,,sub-190,1.0,random_dot,59.535433133183645,
left,left,speed,,,,,0.0,0.0,0.0,1.0,8.0,0.0,16.0,0.0,232.871257300023,,,,,,,,,232.85617530008312,233.20524979999757,234.00408470002003,233.9884792000521,233.98849929997232,234.00408470002003,234.00408470002003,234.00408470002003,,237.036373800016,right,0.0,64.98634970001876,,,,,,,,,,,,,,,,,,,,,,,,,,,,,,sub-190,1.0,random_dot,59.535433133183645,
right,right,speed,,,,,0.0,0.0,0.0,1.0,8.0,1.0,17.0,1.0,237.05273920006584,,,,,,,,,237.0372761000181,237.83585120004136,238.6355820000172,238.6195397999836,238.61956220003776,238.6355820000172,238.6355820000172,238.6355820000172,243.63309330004267,243.9016437000828,left,0.0,67.2213622998679,,,,,,,,,,,,,,,,,,,,,,,,,,,,,,sub-190,1.0,random_dot,59.535433133183645,
right,right,speed,,,,,0.0,0.0,0.0,1.0,9.0,0.0,18.0,1.0,243.91581400006544,,,,,,,,,243.90260600007605,244.7166222999804,245.53232360002585,245.5166677000234,245.51670120004565,245.53232360002585,245.53232360002585,245.53232360002585,,247.3492530999938,right,1.0,63.76008079992607,,,,,,,,,,,,,,,,,,,,,,,,,,,,,,sub-190,1.0,random_dot,59.535433133183645,
left,left,speed,,,,,0.0,0.0,0.0,1.0,9.0,1.0,19.0,0.0,247.36498279997613,,,,,,,,,247.35025040002077,247.46433840005196,248.26337060006333,248.24835720006377,248.2483905000845,248.26337060006333,248.26337060006333,248.26337060006333,,251.7968223000644,right,0.0,65.48305479995906,,,,,,,,,,,,,,,,,,,,,,,,,,,,,,sub-190,1.0,random_dot,59.535433133183645,
left,left,speed,,,,,0.0,0.0,0.0,1.0,10.0,0.0,20.0,0.0,251.81163540005215,,,,,,,,,251.79818899999373,253.01244349998888,253.8107161000371,253.79604569997173,253.79606510000303,253.8107161000371,253.8107161000371,253.8107161000371,,256.12767539999913,left,1.0,64.26532809995115,,,,,,,,,,,,,,,,,,,,,,,,,,,,,,sub-190,1.0,random_dot,59.535433133183645,
right,right,speed,,,,,0.0,0.0,0.0,1.0,10.0,1.0,21.0,1.0,256.14252760005184,,,,,,,,,256.1286463000579,257.34155460004695,258.1419409000082,258.1262324000709,258.1262534999987,258.1419409000082,258.1419409000082,258.1419409000082,263.1394756999798,263.44013320002705,left,0.0,67.23851789999753,,,,,,,,,,,,,,,,,,,,,,,,,,,,,,sub-190,1.0,random_dot,59.535433133183645,
left,left,speed,,,,,0.0,0.0,0.0,1.0,11.0,0.0,22.0,0.0,263.45513100002427,,,,,,,,,263.4411192000844,263.7890322000021,264.58916760003194,264.5728395000333,264.5728645999916,264.58916760003194,264.58916760003194,264.58916760003194,,267.1891672000056,left,1.0,64.54753459990025,,,,,,,,,,,,,,,,,,,,,,,,,,,,,,sub-190,1.0,random_dot,59.535433133183645,
right,right,speed,,,,,0.0,0.0,0.0,1.0,11.0,1.0,23.0,1.0,267.20456810004544,,,,,,,,,267.19027500005905,268.0029573000502,268.8037802000763,268.78756000008434,268.7875833000289,268.8037802000763,268.8037802000763,268.8037802000763,,270.65603050007485,right,1.0,63.80181950004771,,,,,,,,,,,,,,,,,,,,,,,,,,,,,,sub-190,1.0,random_dot,59.535433133183645,
right,right,speed,,,,,0.0,0.0,0.0,1.0,12.0,0.0,24.0,1.0,270.66905060003046,,,,,,,,,270.6569695000071,271.868039800087,272.6676109000109,272.6513558999868,272.6513761000242,272.6676109000109,272.6676109000109,272.6676109000109,,273.5840107999975,right,1.0,62.85745099990163,,,,,,,,,,,,,,,,,,,,,,,,,,,,,,sub-190,1.0,random_dot,59.535433133183645,
left,left,speed,,,,,0.0,0.0,0.0,1.0,12.0,1.0,25.0,0.0,273.6001727000112,,,,,,,,,273.58498629997484,273.6836157999933,274.4832306000171,274.46748059999663,274.4674999000272,274.4832306000171,274.4832306000171,274.4832306000171,279.48052089998964,279.5494404999772,right,0.0,67.01657410000917,,,,,,,,,,,,,,,,,,,,,,,,,,,,,,sub-190,1.0,random_dot,59.535433133183645,
right,right,speed,,,,,0.0,0.0,0.0,1.0,13.0,0.0,26.0,1.0,279.5634108000668,,,,,,,,,279.5503895999864,280.3639581999741,281.16392500000075,281.148102200008,281.1481224000454,281.16392500000075,281.16392500000075,281.16392500000075,,283.7122836000053,left,0.0,64.49054779997095,,,,,,,,,,,,,,,,,,,,,,,,,,,,,,sub-190,1.0,random_dot,59.535433133183645,
left,left,speed,,,,,0.0,0.0,0.0,1.0,13.0,1.0,27.0,0.0,283.728990899981,,,,,,,,,283.71313270006794,283.8127616000129,284.6286393000046,284.6126018000068,284.61262040003203,284.6286393000046,284.6286393000046,284.6286393000046,,286.894745000056,left,1.0,64.21990469994489,,,,,,,,,,,,,,,,,,,,,,,,,,,,,,sub-190,1.0,random_dot,59.535433133183645,
left,left,speed,,,,,0.0,0.0,0.0,1.0,14.0,0.0,28.0,0.0,286.9110854000319,,,,,,,,,286.895666000084,287.01016060006805,287.8098763000453,287.7941289000446,287.7941511999816,287.8098763000453,287.8098763000453,287.8098763000453,,292.2421476000454,left,1.0,66.38081659993622,,,,,,,,,,,,,,,,,,,,,,,,,,,,,,sub-190,1.0,random_dot,59.535433133183645,
right,right,speed,,,,,0.0,0.0,0.0,1.0,14.0,1.0,29.0,1.0,292.2574935000157,,,,,,,,,292.2430636000354,292.3574116000673,293.1574246999808,293.14044690004084,293.140475400025,293.1574246999808,293.1574246999808,293.1574246999808,,296.78928280004766,right,1.0,65.57754199998453,,,,,,,,,,,,,,,,,,,,,,,,,,,,,,sub-190,1.0,random_dot,59.535433133183645,
left,left,speed,,,,,0.0,0.0,0.0,1.0,15.0,0.0,30.0,0.0,296.8049974000314,,,,,,,,,296.7901962000178,297.1549091000343,297.95382499997504,297.93892880005296,297.9389459000668,297.95382499997504,297.95382499997504,297.95382499997504,302.9525820000563,304.00253489997704,left,1.0,68.00023999996483,,,,,,,,,,,,,,,,,,,,,,,,,,,,,,sub-190,1.0,random_dot,59.535433133183645,
right,right,speed,,,,,0.0,0.0,0.0,1.0,15.0,1.0,31.0,1.0,304.0178367000772,,,,,,,,,304.0036494000815,304.81785600003786,305.6173385999864,305.601916900021,305.60193550004624,305.6173385999864,305.6173385999864,305.6173385999864,,308.85100670007523,right,1.0,65.18208239995874,,,,,,,,,,,,,,,,,,,,,,,,,,,,,,sub-190,1.0,random_dot,59.535433133183645,
left,left,speed,,,,,0.0,0.0,0.0,1.0,16.0,0.0,32.0,0.0,308.8657889000606,,,,,,,,,308.8519563999725,310.0649664000375,310.8648559000576,310.84927600005176,310.84929949999787,310.8648559000576,310.8648559000576,310.8648559000576,,314.2793626000639,right,0.0,65.36079870001413,,,,,,,,,,,,,,,,,,,,,,,,,,,,,,sub-190,1.0,random_dot,59.535433133183645,
right,right,speed,,,,,0.0,0.0,0.0,1.0,16.0,1.0,33.0,1.0,314.29530990007333,,,,,,,,,314.2802912000334,314.6291479000356,315.44459980004467,315.42935700004455,315.42937640007585,315.44459980004467,315.44459980004467,315.44459980004467,,317.01373070001137,left,0.0,63.5172070999397,,,,,,,,,,,,,,,,,,,,,,,,,,,,,,sub-190,1.0,random_dot,59.535433133183645,
right,right,speed,,,,,0.0,0.0,0.0,1.0,17.0,0.0,34.0,1.0,317.02760680008214,,,,,,,,,317.01478560001124,317.82830549997743,318.6278420999879,318.61168870003894,318.6117120999843,318.6278420999879,318.6278420999879,318.6278420999879,,321.2108605999965,right,1.0,64.53816849994473,,,,,,,,,,,,,,,,,,,,,,,,,,,,,,sub-190,1.0,random_dot,59.535433133183645,
left,left,speed,,,,,0.0,0.0,0.0,1.0,17.0,1.0,35.0,0.0,321.22615250002127,,,,,,,,,321.2118543999968,321.32575289998204,322.126002300065,322.1098850000417,322.1099074999802,322.126002300065,322.126002300065,322.126002300065,,325.607194500044,left,1.0,65.43502370000351,,,,,,,,,,,,,,,,,,,,,,,,,,,,,,sub-190,1.0,random_dot,59.535433133183645,
left,left,speed,,,,,0.0,0.0,0.0,1.0,18.0,0.0,36.0,0.0,325.6226081000641,,,,,,,,,325.60811080003623,326.82293690007646,327.62262889998965,327.6076889000833,327.6077217999846,327.62262889998965,327.62262889998965,327.62262889998965,332.62090420001186,333.1536336999852,left,1.0,67.47666139993817,,,,,,,,,,,,,,,,,,,,,,,,,,,,,,sub-190,1.0,random_dot,59.535433133183645,
right,right,speed,,,,,0.0,0.0,0.0,1.0,18.0,1.0,37.0,1.0,333.1705990000628,,,,,,,,,333.1545481000794,333.9697195000481,334.78604620008264,334.76852290006354,334.7685420999769,334.78604620008264,334.78604620008264,334.78604620008264,,338.18434530007653,right,1.0,65.3409229000099,,,,,,,,,,,,,,,,,,,,,,,,,,,,,,sub-190,1.0,random_dot,59.535433133183645,
right,right,speed,,,,,0.0,0.0,0.0,1.0,19.0,0.0,38.0,1.0,338.20005790004507,,,,,,,,,338.18537500000093,338.5334220000077,339.333590800059,339.31692820007447,339.3169469999848,339.333590800059,339.333590800059,339.333590800059,,342.3323089000769,right,1.0,64.94109510001726,,,,,,,,,,,,,,,,,,,,,,,,,,,,,,sub-190,1.0,random_dot,59.535433133183645,
left,left,speed,,,,,0.0,0.0,0.0,1.0,19.0,1.0,39.0,0.0,342.347801099997,,,,,,,,,342.33341950003523,343.1479989000363,343.9474587000441,343.9314504000358,343.93146950006485,343.9474587000441,343.9474587000441,343.9474587000441,,345.1977634000359,left,1.0,63.20005660003517,,,,,,,,,,,,,,,,,,,,,,,,,,,,,,sub-190,1.0,random_dot,59.535433133183645,
right,right,speed,,,,,0.0,0.0,0.0,1.0,20.0,0.0,40.0,1.0,345.21302480006125,,,,,,,,,345.1987171000801,346.01325159997214,346.8129593000049,346.7965681999922,346.79658720002044,346.8129593000049,346.8129593000049,346.8129593000049,,350.0463072999846,left,0.0,65.17560139996931,,,,,,,,,,,,,,,,,,,,,,,,,,,,,,sub-190,1.0,random_dot,59.535433133183645,
left,left,speed,,,,,0.0,0.0,0.0,1.0,20.0,1.0,41.0,0.0,350.0611776000587,,,,,,,,,350.04727620002814,351.26005679997616,352.060739699984,352.0436060000211,352.0436420000624,352.060739699984,352.060739699984,352.060739699984,357.056849900051,357.72416420001537,left,1.0,67.61120839999057,,,,,,,,,,,,,,,,,,,,,,,,,,,,,,sub-190,1.0,random_dot,59.535433133183645,
right,right,speed,,,,,0.0,0.0,0.0,1.0,21.0,0.0,42.0,1.0,357.7393406999763,,,,,,,,,357.725204700022,358.07340520003345,358.8725726000266,358.8568605000619,358.85688019997906,358.8725726000266,358.8725726000266,358.8725726000266,363.8704800000414,364.304712500074,left,0.0,67.3728082999587,,,,,,,,,,,,,,,,,,,,,,,,,,,,,,sub-190,1.0,random_dot,59.535433133183645,
left,left,speed,,,,,0.0,0.0,0.0,1.0,21.0,1.0,43.0,0.0,364.3192653000588,,,,,,,,,364.3056493999902,365.1196757000871,365.91931070003193,365.9035461000167,365.9035778000252,365.91931070003193,365.91931070003193,365.91931070003193,,369.66746899997815,left,1.0,65.70252559997607,,,,,,,,,,,,,,,,,,,,,,,,,,,,,,sub-190,1.0,random_dot,59.535433133183645,
right,right,speed,,,,,0.0,0.0,0.0,1.0,22.0,0.0,44.0,1.0,369.6832849000348,,,,,,,,,369.6683374000713,369.76726390002295,370.5673826000421,370.550505500054,370.5505360000534,370.5673826000421,370.5673826000421,370.5673826000421,,371.9662276000017,right,1.0,63.34184079989791,,,,,,,,,,,,,,,,,,,,,,,,,,,,,,sub-190,1.0,random_dot,59.535433133183645,
left,left,speed,,,,,0.0,0.0,0.0,1.0,22.0,1.0,45.0,0.0,371.9828637000173,,,,,,,,,371.96709010005,372.7831962000346,373.5990769000491,373.58209759998135,373.58211990003474,373.5990769000491,373.5990769000491,373.5990769000491,,377.56408200005535,right,0.0,65.91882030002307,,,,,,,,,,,,,,,,,,,,,,,,,,,,,,sub-190,1.0,random_dot,59.535433133183645,
left,left,speed,,,,,0.0,0.0,0.0,1.0,23.0,0.0,46.0,0.0,377.5805214000866,,,,,,,,,377.5650221999968,378.3803944999818,379.1965957999928,379.183214000077,379.1832379000261,379.1965957999928,379.1965957999928,379.1965957999928,,383.06297149998136,left,1.0,65.82154589996208,,,,,,,,,,,,,,,,,,,,,,,,,,,,,,sub-190,1.0,random_dot,59.535433133183645,
right,right,speed,,,,,0.0,0.0,0.0,1.0,23.0,1.0,47.0,1.0,383.0770985999843,,,,,,,,,383.0640726999845,383.1768228000728,383.9778373000445,383.9613818000071,383.9614063000772,383.9778373000445,383.9778373000445,383.9778373000445,,386.209796500043,left,0.0,64.17681370000355,,,,,,,,,,,,,,,,,,,,,,,,,,,,,,sub-190,1.0,random_dot,59.535433133183645,
right,right,speed,,,,,0.0,0.0,0.0,1.0,24.0,0.0,48.0,1.0,386.2248520000139,,,,,,,,,386.2108127999818,387.02480550005566,387.8240008000285,387.8082932999823,387.8083133000182,387.8240008000285,387.8240008000285,387.8240008000285,,390.54069060005713,right,1.0,64.66297069995198,,,,,,,,,,,,,,,,,,,,,,,,,,,,,,sub-190,1.0,random_dot,59.535433133183645,
left,left,speed,,,,,0.0,0.0,0.0,1.0,24.0,1.0,49.0,0.0,390.55656260007527,,,,,,,,,390.5417920000618,391.75599400000647,392.5556730000535,392.539739400032,392.539758100058,392.5556730000535,392.5556730000535,392.5556730000535,397.5523654000135,397.9360833000392,right,0.0,67.33545520005282,,,,,,,,,,,,,,,,,,,,,,,,,,,,,,sub-190,1.0,random_dot,59.535433133183645,
left,left,speed,,,,,0.0,0.0,0.0,1.0,25.0,0.0,50.0,0.0,397.95179500000086,,,,,,,,,397.9370082999813,398.0363514000783,398.85273050004616,398.83520960004535,398.8352310999762,398.85273050004616,398.85273050004616,398.85273050004616,403.8492843999993,404.6507465000032,left,1.0,67.73805629997514,,,,,,,,,,,,,,,,,,,,,,,,,,,,,,sub-190,1.0,random_dot,59.535433133183645,
right,right,speed,,,,,0.0,0.0,0.0,1.0,25.0,1.0,51.0,1.0,404.666943600052,,,,,,,,,404.65171490004286,404.76569110003766,405.56522140000015,405.5495453000767,405.54956429998856,405.56522140000015,405.56522140000015,405.56522140000015,,407.6817744000582,right,1.0,64.06861740001477,,,,,,,,,,,,,,,,,,,,,,,,,,,,,,sub-190,1.0,random_dot,59.535433133183645,
right,right,speed,,,,,0.0,0.0,0.0,1.0,26.0,0.0,52.0,1.0,407.6976566000376,,,,,,,,,407.6826832999941,408.4971351000713,409.2960762999719,409.2807368000504,409.2807564000832,409.2960762999719,409.2960762999719,409.2960762999719,,413.31231980002485,right,1.0,65.95758070005104,,,,,,,,,,,,,,,,,,,,,,,,,,,,,,sub-190,1.0,random_dot,59.535433133183645,
left,left,speed,,,,,0.0,0.0,0.0,1.0,26.0,1.0,53.0,0.0,413.32701600005385,,,,,,,,,413.313276299974,414.1267841000808,414.9272672000807,414.911525500007,414.9115449000383,414.9272672000807,414.9272672000807,414.9272672000807,,418.7924818000756,left,1.0,65.81535489996895,,,,,,,,,,,,,,,,,,,,,,,,,,,,,,sub-190,1.0,random_dot,59.535433133183645,
right,right,speed,,,,,0.0,0.0,0.0,1.0,27.0,0.0,54.0,1.0,418.8073223000392,,,,,,,,,418.7934444000712,419.6085104000522,420.4241727000335,420.4080621000612,420.4080818999792,420.4241727000335,420.4241727000335,420.4241727000335,,422.4904386000708,right,1.0,64.01214890007395,,,,,,,,,,,,,,,,,,,,,,,,,,,,,,sub-190,1.0,random_dot,59.535433133183645,
left,left,speed,,,,,0.0,0.0,0.0,1.0,27.0,1.0,55.0,0.0,422.5057876000647,,,,,,,,,422.4913810000289,423.7061660999898,424.5052251999732,424.4897865999956,424.4898202000186,424.5052251999732,424.5052251999732,424.5052251999732,,428.03763160004746,right,0.0,65.47943559999112,,,,,,,,,,,,,,,,,,,,,,,,,,,,,,sub-190,1.0,random_dot,59.535433133183645,
left,left,speed,,,,,0.0,0.0,0.0,1.0,28.0,0.0,56.0,0.0,428.0534107000567,,,,,,,,,428.0389603000367,428.852799699991,429.65357460000087,429.6372116000857,429.63723400002345,429.65357460000087,429.65357460000087,429.65357460000087,,433.55136819998734,right,0.0,65.84397579997312,,,,,,,,,,,,,,,,,,,,,,,,,,,,,,sub-190,1.0,random_dot,59.535433133183645,
right,right,speed,,,,,0.0,0.0,0.0,1.0,28.0,1.0,57.0,1.0,433.5673369000433,,,,,,,,,433.5523345000111,434.3672737000743,435.1831014000345,435.167177699972,435.1672127000056,435.1831014000345,435.1831014000345,435.1831014000345,,437.083328000037,left,0.0,63.8420393000124,,,,,,,,,,,,,,,,,,,,,,,,,,,,,,sub-190,1.0,random_dot,59.535433133183645,
right,right,speed,,,,,0.0,0.0,0.0,1.0,29.0,0.0,58.0,1.0,437.098015800002,,,,,,,,,437.08430690004025,437.8980538999895,438.6980304999743,438.6829167000251,438.68293980008457,438.6980304999743,438.6980304999743,438.6980304999743,,442.9964978999924,left,0.0,66.24127769994084,,,,,,,,,,,,,,,,,,,,,,,,,,,,,,sub-190,1.0,random_dot,59.535433133183645,
left,left,speed,,,,,0.0,0.0,0.0,1.0,29.0,1.0,59.0,0.0,443.0130028000567,,,,,,,,,442.9973842999898,443.36244310007896,444.16205230006017,444.14572570007294,444.1457552000648,444.16205230006017,444.16205230006017,444.16205230006017,,448.9600484999828,right,0.0,66.73892929998692,,,,,,,,,,,,,,,,,,,,,,,,,,,,,,sub-190,1.0,random_dot,59.535433133183645,
,,speed,,,,,0.0,0.0,0.0,1.0,,,,,,,,,,,,,,,,,,,,,,,,,,,,,,,,,,,,,,,,,,,,,,,,,,,,,,,,sub-190,1.0,random_dot,59.535433133183645,
left,left,accuracy,,,,,0.0,1.0,1.0,0.0,0.0,0.0,0.0,0.0,454.4560654000379,,,,,,,,,454.4475050000474,454.80646300001536,455.6058348000515,455.58993470005225,455.5899591000052,455.6058348000515,455.6058348000515,455.6058348000515,,459.9206719000358,left,1.0,66.25965140003245,,,,,,,,,,,,,,,,,,,,448.960958300042,448.9756313000107,448.9756313000107,454.4405760000227,space,67.41799239988904,,,,,sub-190,1.0,random_dot,59.535433133183645,
right,right,accuracy,,,,,0.0,1.0,1.0,0.0,0.0,1.0,1.0,1.0,459.9360500000184,,,,,,,,,459.92192840005737,460.2704427000135,461.06993310002144,461.05499550001696,461.0550285000354,461.06993310002144,461.06993310002144,461.06993310002144,,464.88601230003405,right,1.0,65.76825919991825,,,,,,,,,,,,,,,,,,,,,,,,,,,,,,sub-190,1.0,random_dot,59.535433133183645,
left,left,accuracy,,,,,0.0,1.0,1.0,0.0,1.0,0.0,2.0,0.0,464.90048539999407,,,,,,,,,464.8870081000496,465.00096490001306,465.79956509999465,465.7842970000347,465.78431710007135,465.79956509999465,465.79956509999465,465.79956509999465,,470.09924390004016,left,1.0,66.24816529999953,,,,,,,,,,,,,,,,,,,,,,,,,,,,,,sub-190,1.0,random_dot,59.535433133183645,
right,right,accuracy,,,,,0.0,1.0,1.0,0.0,1.0,1.0,3.0,1.0,470.1139723000815,,,,,,,,,470.1002163999947,470.9147635999834,471.7139761999715,471.69935240002815,471.699375599972,471.7139761999715,471.7139761999715,471.7139761999715,,474.72973850008566,right,1.0,64.9581707000034,,,,,,,,,,,,,,,,,,,,,,,,,,,,,,sub-190,1.0,random_dot,59.535433133183645,
left,left,accuracy,,,,,0.0,1.0,1.0,0.0,2.0,0.0,4.0,0.0,474.7461236000527,,,,,,,,,474.7306615000125,474.8456675000489,475.6450582999969,475.6293846999761,475.62940520001575,475.6450582999969,475.6450582999969,475.6450582999969,,480.2768475000048,right,0.0,66.57492309994996,,,,,,,,,,,,,,,,,,,,,,,,,,,,,,sub-190,1.0,random_dot,59.535433133183645,
right,right,accuracy,,,,,0.0,1.0,1.0,0.0,2.0,1.0,5.0,1.0,480.2931473000208,,,,,,,,,480.2777704000473,480.6419418000151,481.4414370000595,481.4264145999914,481.4264378000517,481.4414370000595,481.4414370000595,481.4414370000595,,485.1919155999785,left,0.0,65.7055934999371,,,,,,,,,,,,,,,,,,,,,,,,,,,,,,sub-190,1.0,random_dot,59.535433133183645,
left,left,accuracy,,,,,0.0,1.0,1.0,0.0,3.0,0.0,6.0,0.0,485.2075251999777,,,,,,,,,485.1929021000397,486.4066359000281,487.2227210000856,487.2059778000694,487.2059999000048,487.2227210000856,487.2227210000856,487.2227210000856,,490.2886549000396,left,1.0,65.00669720000587,,,,,,,,,,,,,,,,,,,,,,,,,,,,,,sub-190,1.0,random_dot,59.535433133183645,
right,right,accuracy,,,,,0.0,1.0,1.0,0.0,3.0,1.0,7.0,1.0,490.3035544999875,,,,,,,,,490.2897467999719,491.1037823000224,491.9043311000569,491.8873689000029,491.8873886000365,491.9043311000569,491.9043311000569,491.9043311000569,,493.5873415999813,right,1.0,63.63429719989654,,,,,,,,,,,,,,,,,,,,,,,,,,,,,,sub-190,1.0,random_dot,59.535433133183645,
left,left,accuracy,,,,,0.0,1.0,1.0,0.0,4.0,0.0,8.0,0.0,493.60246640001424,,,,,,,,,493.5883324000752,493.7029812000692,494.50211640005,494.486419999972,494.48644500004593,494.50211640005,494.50211640005,494.50211640005,,498.8518111000303,left,1.0,66.29052319994662,,,,,,,,,,,,,,,,,,,,,,,,,,,,,,sub-190,1.0,random_dot,59.535433133183645,
right,right,accuracy,,,,,0.0,1.0,1.0,0.0,4.0,1.0,9.0,1.0,498.8665004000068,,,,,,,,,498.8527416000143,500.0669166999869,500.882985400036,500.8653451000573,500.8653678999981,500.882985400036,500.882985400036,500.882985400036,,504.3660449000308,left,0.0,65.4303651000373,,,,,,,,,,,,,,,,,,,,,,,,,,,,,,sub-190,1.0,random_dot,59.535433133183645,
left,left,accuracy,,,,,0.0,1.0,1.0,0.0,5.0,0.0,10.0,0.0,504.3805352000054,,,,,,,,,504.36700079997536,505.17994330008514,505.9795050000539,505.9642730000196,505.9642935000593,505.9795050000539,505.9795050000539,505.9795050000539,,509.4284870000556,left,1.0,65.40040969999973,,,,,,,,,,,,,,,,,,,,,,,,,,,,,,sub-190,1.0,random_dot,59.535433133183645,
right,right,accuracy,,,,,0.0,1.0,1.0,0.0,5.0,1.0,11.0,1.0,509.44446200004313,,,,,,,,,509.42941780004185,510.64499010005966,511.4608489000239,511.4441629999783,511.4441922000842,511.4608489000239,511.4608489000239,511.4608489000239,,515.4587264000438,left,0.0,65.95142059994396,,,,,,,,,,,,,,,,,,,,,,,,,,,,,,sub-190,1.0,random_dot,59.535433133183645,
left,left,accuracy,,,,,0.0,1.0,1.0,0.0,6.0,0.0,12.0,0.0,515.4773155000294,,,,,,,,,515.4596551000141,516.6730598000577,517.4733544000192,517.4576459000818,517.4576727000531,517.4733544000192,517.4733544000192,517.4733544000192,,521.0899785000365,right,0.0,65.57147799991071,,,,,,,,,,,,,,,,,,,,,,,,,,,,,,sub-190,1.0,random_dot,59.535433133183645,
right,right,accuracy,,,,,0.0,1.0,1.0,0.0,6.0,1.0,13.0,1.0,521.1049073999748,,,,,,,,,521.0909847000148,521.9041595000308,522.7043930999935,522.6873877000762,522.6874316000612,522.7043930999935,522.7043930999935,522.7043930999935,527.7016238999786,527.7687483000336,right,1.0,67.01416039990727,,,,,,,,,,,,,,,,,,,,,,,,,,,,,,sub-190,1.0,random_dot,59.535433133183645,
right,right,accuracy,,,,,0.0,1.0,1.0,0.0,7.0,0.0,14.0,1.0,527.7842278999742,,,,,,,,,527.7696452999953,528.1350437999936,528.9503017000388,528.9344695999753,528.9344897000119,528.9503017000388,528.9503017000388,528.9503017000388,,531.716671800008,left,0.0,64.71250969998073,,,,,,,,,,,,,,,,,,,,,,,,,,,,,,sub-190,1.0,random_dot,59.535433133183645,
left,left,accuracy,,,,,0.0,1.0,1.0,0.0,7.0,1.0,15.0,0.0,531.7323142000241,,,,,,,,,531.7175495000556,532.5156663000816,533.3158662000205,533.2992872999748,533.2993072000099,533.3158662000205,533.3158662000205,533.3158662000205,538.3127510000486,539.0135019000154,right,0.0,67.63816149998456,,,,,,,,,,,,,,,,,,,,,,,,,,,,,,sub-190,1.0,random_dot,59.535433133183645,
left,left,accuracy,,,,,0.0,1.0,1.0,0.0,8.0,0.0,16.0,0.0,539.0296516000526,,,,,,,,,539.014454600052,539.8285491000861,540.6280743000098,540.6123488000594,540.6123719000025,540.6280743000098,540.6280743000098,540.6280743000098,,543.8942676000297,left,1.0,65.21467689995188,,,,,,,,,,,,,,,,,,,,,,,,,,,,,,sub-190,1.0,random_dot,59.535433133183645,
right,right,accuracy,,,,,0.0,1.0,1.0,0.0,8.0,1.0,17.0,1.0,543.9100136000197,,,,,,,,,543.8952254999895,544.6933070999803,545.4927540000062,545.4770130000543,545.477039200021,545.4927540000062,545.4927540000062,545.4927540000062,,546.8251644000411,right,1.0,63.28271149995271,,,,,,,,,,,,,,,,,,,,,,,,,,,,,,sub-190,1.0,random_dot,59.535433133183645,
right,right,accuracy,,,,,0.0,1.0,1.0,0.0,9.0,0.0,18.0,1.0,546.8411459000781,,,,,,,,,546.8260780000128,547.1917320999783,547.9915491000284,547.9748048000038,547.9748244000366,547.9915491000284,547.9915491000284,547.9915491000284,552.9882961000549,553.7058190000243,right,1.0,67.6563513999572,,,,,,,,,,,,,,,,,,,,,,,,,,,,,,sub-190,1.0,random_dot,59.535433133183645,
left,left,accuracy,,,,,0.0,1.0,1.0,0.0,9.0,1.0,19.0,0.0,553.7212144000223,,,,,,,,,553.7067812000168,554.5204700999893,555.320381800062,555.3052500999765,555.3052701000124,555.320381800062,555.320381800062,555.320381800062,,559.6199862000067,right,0.0,66.25462020002306,,,,,,,,,,,,,,,,,,,,,,,,,,,,,,sub-190,1.0,random_dot,59.535433133183645,
left,left,accuracy,,,,,0.0,1.0,1.0,0.0,10.0,0.0,20.0,0.0,559.6343840999762,,,,,,,,,559.6209576000692,560.8346195999766,561.6341866999865,561.6184209000785,561.6184405999957,561.6341866999865,561.6341866999865,561.6341866999865,,564.033297099988,left,1.0,64.35443319997285,,,,,,,,,,,,,,,,,,,,,,,,,,,,,,sub-190,1.0,random_dot,59.535433133183645,
right,right,accuracy,,,,,0.0,1.0,1.0,0.0,10.0,1.0,21.0,1.0,564.0495015999768,,,,,,,,,564.034220200032,564.3822118000826,565.1823965000222,565.1659115999937,565.1659308000235,565.1823965000222,565.1823965000222,565.1823965000222,,569.2641991000855,right,1.0,66.02677909994964,,,,,,,,,,,,,,,,,,,,,,,,,,,,,,sub-190,1.0,random_dot,59.535433133183645,
right,right,accuracy,,,,,0.0,1.0,1.0,0.0,11.0,0.0,22.0,1.0,569.2792175000068,,,,,,,,,569.2653673000168,569.3801875000354,570.1970709000016,570.1791543000145,570.1791833000025,570.1970709000016,570.1970709000016,570.1970709000016,,574.1119586999994,left,0.0,65.86239359993488,,,,,,,,,,,,,,,,,,,,,,,,,,,,,,sub-190,1.0,random_dot,59.535433133183645,
left,left,accuracy,,,,,0.0,1.0,1.0,0.0,11.0,1.0,23.0,0.0,574.1279200999998,,,,,,,,,574.1129063999979,574.4763457999798,575.2771070000017,575.2611706000753,575.2611906999955,575.2771070000017,575.2771070000017,575.2771070000017,,579.5418412000872,left,1.0,66.21466049994342,,,,,,,,,,,,,,,,,,,,,,,,,,,,,,sub-190,1.0,random_dot,59.535433133183645,
right,right,accuracy,,,,,0.0,1.0,1.0,0.0,12.0,0.0,24.0,1.0,579.5578281000489,,,,,,,,,579.5428135000402,579.6577653000131,580.4578273000661,580.4418930000393,580.4419290000806,580.4578273000661,580.4578273000661,580.4578273000661,,583.4902119999751,right,1.0,64.98550549999345,,,,,,,,,,,,,,,,,,,,,,,,,,,,,,sub-190,1.0,random_dot,59.535433133183645,
left,left,accuracy,,,,,0.0,1.0,1.0,0.0,12.0,1.0,25.0,0.0,583.505137900007,,,,,,,,,583.491176999989,583.8554842000594,584.6556949000806,584.6403517000144,584.6403776999796,584.6556949000806,584.6556949000806,584.6556949000806,,586.238824,right,0.0,63.5300120000029,,,,,,,,,,,,,,,,,,,,,,,,,,,,,,sub-190,1.0,random_dot,59.535433133183645,
right,right,accuracy,,,,,0.0,1.0,1.0,0.0,13.0,0.0,26.0,1.0,586.2539212000556,,,,,,,,,586.2397742000176,586.6043386000674,587.4031350000296,587.3877355000004,587.387755200034,587.4031350000296,587.4031350000296,587.4031350000296,,592.2350603999803,left,0.0,66.77606930001639,,,,,,,,,,,,,,,,,,,,,,,,,,,,,,sub-190,1.0,random_dot,59.535433133183645,
left,left,accuracy,,,,,0.0,1.0,1.0,0.0,13.0,1.0,27.0,0.0,592.2503898000577,,,,,,,,,592.2359381000279,592.3351996000856,593.150761500001,593.1351557000307,593.1351746000582,593.150761500001,593.150761500001,593.150761500001,,595.7838091000449,left,1.0,64.58608539996203,,,,,,,,,,,,,,,,,,,,,,,,,,,,,,sub-190,1.0,random_dot,59.535433133183645,
left,left,accuracy,,,,,0.0,1.0,1.0,0.0,14.0,0.0,28.0,0.0,595.7995718000457,,,,,,,,,595.7849543000339,596.5995167000219,597.3986655999906,597.3827188999858,597.3827385000186,597.3986655999906,597.3986655999906,597.3986655999906,602.3959275999805,603.0297126000514,right,0.0,67.57458729995415,,,,,,,,,,,,,,,,,,,,,,,,,,,,,,sub-190,1.0,random_dot,59.535433133183645,
right,right,accuracy,,,,,0.0,1.0,1.0,0.0,14.0,1.0,29.0,1.0,603.0450391999912,,,,,,,,,603.0306178000756,603.8449550999794,604.6614683000371,604.646302600042,604.6463226000778,604.6614683000371,604.6614683000371,604.6614683000371,,608.6101014000596,right,1.0,65.88899829995353,,,,,,,,,,,,,,,,,,,,,,,,,,,,,,sub-190,1.0,random_dot,59.535433133183645,
right,right,accuracy,,,,,0.0,1.0,1.0,0.0,15.0,0.0,30.0,1.0,608.62554430007,,,,,,,,,608.6109651000006,608.7266180000734,609.5255733000813,609.5104069000809,609.510430400027,609.5255733000813,609.5255733000813,609.5255733000813,,613.2927606999874,right,1.0,65.72231379989535,,,,,,,,,,,,,,,,,,,,,,,,,,,,,,sub-190,1.0,random_dot,59.535433133183645,
left,left,accuracy,,,,,0.0,1.0,1.0,0.0,15.0,1.0,31.0,0.0,613.3067141000647,,,,,,,,,613.2937795000616,614.1061200000113,614.9061544999713,614.8900205000537,614.8900425999891,614.9061544999713,614.9061544999713,614.9061544999713,619.9045355999842,620.5211037000408,left,1.0,67.55435849993955,,,,,,,,,,,,,,,,,,,,,,,,,,,,,,sub-190,1.0,random_dot,59.535433133183645,
right,right,accuracy,,,,,0.0,1.0,1.0,0.0,16.0,0.0,32.0,1.0,620.5358222000068,,,,,,,,,620.522088100086,621.7358433000045,622.5526289000409,622.536523799994,622.5365430000238,622.5526289000409,622.5526289000409,622.5526289000409,,626.0511754000327,right,1.0,65.45064319996163,,,,,,,,,,,,,,,,,,,,,,,,,,,,,,sub-190,1.0,random_dot,59.535433133183645,
left,left,accuracy,,,,,0.0,1.0,1.0,0.0,16.0,1.0,33.0,0.0,626.0666688000783,,,,,,,,,626.0521090000402,626.1675655000145,626.9671857000794,626.9508272000821,626.9508471000008,626.9671857000794,626.9671857000794,626.9671857000794,631.9637070000172,632.5821354000363,left,1.0,67.5620620000409,,,,,,,,,,,,,,,,,,,,,,,,,,,,,,sub-190,1.0,random_dot,59.535433133183645,
right,right,accuracy,,,,,0.0,1.0,1.0,0.0,17.0,0.0,34.0,1.0,632.59748700005,,,,,,,,,632.5830784999998,633.7961652000668,634.5956480000168,634.5790777000366,634.5791004999774,634.5956480000168,634.5956480000168,634.5956480000168,,636.962028900045,right,1.0,64.31850459997077,,,,,,,,,,,,,,,,,,,,,,,,,,,,,,sub-190,1.0,random_dot,59.535433133183645,
left,left,accuracy,,,,,0.0,1.0,1.0,0.0,17.0,1.0,35.0,0.0,636.9771300000139,,,,,,,,,636.9629858999979,637.7783976000501,638.5776471000863,638.5622250000015,638.5622448000358,638.5776471000863,638.5776471000863,638.5776471000863,,641.7101421999978,left,1.0,65.07330549997278,,,,,,,,,,,,,,,,,,,,,,,,,,,,,,sub-190,1.0,random_dot,59.535433133183645,
right,right,accuracy,,,,,0.0,1.0,1.0,0.0,18.0,0.0,36.0,1.0,641.7250833000289,,,,,,,,,641.7110619000159,641.826022000052,642.6254854999715,642.6094809999922,642.6095112999901,642.6254854999715,642.6254854999715,642.6254854999715,,643.7412466000533,right,1.0,63.05516240000725,,,,,,,,,,,,,,,,,,,,,,,,,,,,,,sub-190,1.0,random_dot,59.535433133183645,
left,left,accuracy,,,,,0.0,1.0,1.0,0.0,18.0,1.0,37.0,0.0,643.7572442999808,,,,,,,,,643.7421598000219,644.9408483000007,645.7405955999857,645.7240851999959,645.724104700028,645.7405955999857,645.7405955999857,645.7405955999857,650.7375245000003,651.2887373000849,left,1.0,67.50142639991827,,,,,,,,,,,,,,,,,,,,,,,,,,,,,,sub-190,1.0,random_dot,59.535433133183645,
left,left,accuracy,,,,,0.0,1.0,1.0,0.0,19.0,0.0,38.0,0.0,651.3040154000046,,,,,,,,,651.2897674000124,652.1039425000781,652.9037520000711,652.8875029999763,652.8875225000083,652.9037520000711,652.9037520000711,652.9037520000711,657.9018480000086,658.8192726999987,right,0.0,67.87031649996061,,,,,,,,,,,,,,,,,,,,,,,,,,,,,,sub-190,1.0,random_dot,59.535433133183645,
right,right,accuracy,,,,,0.0,1.0,1.0,0.0,19.0,1.0,39.0,1.0,658.833964999998,,,,,,,,,658.8202252000337,658.9339799999725,659.7339272000827,659.7176842000335,659.7177037000656,659.7339272000827,659.7339272000827,659.7339272000827,664.7308795000426,665.2815921000438,left,0.0,67.49472720001359,,,,,,,,,,,,,,,,,,,,,,,,,,,,,,sub-190,1.0,random_dot,59.535433133183645,
right,right,accuracy,,,,,0.0,1.0,1.0,0.0,20.0,0.0,40.0,1.0,665.2968989000656,,,,,,,,,665.2826235999819,666.0971479000291,666.8966398000484,666.8805940999882,666.8806125000119,666.8966398000484,666.8966398000484,666.8966398000484,,669.7128274000715,right,1.0,64.7578516000649,,,,,,,,,,,,,,,,,,,,,,,,,,,,,,sub-190,1.0,random_dot,59.535433133183645,
left,left,accuracy,,,,,0.0,1.0,1.0,0.0,20.0,1.0,41.0,0.0,669.7282082000747,,,,,,,,,669.7138319000369,670.0781496000709,670.8777476000832,670.8617073000642,670.8617269999813,670.8777476000832,670.8777476000832,670.8777476000832,,672.5115838000784,left,1.0,63.57818419998512,,,,,,,,,,,,,,,,,,,,,,,,,,,,,,sub-190,1.0,random_dot,59.535433133183645,
right,right,accuracy,,,,,0.0,1.0,1.0,0.0,21.0,0.0,42.0,1.0,672.5269182000775,,,,,,,,,672.5125727000413,672.8763154000044,673.6764442999847,673.6601434000768,673.660163099994,673.6764442999847,673.6764442999847,673.6764442999847,,675.9761559000472,right,1.0,64.24402189999819,,,,,,,,,,,,,,,,,,,,,,,,,,,,,,sub-190,1.0,random_dot,59.535433133183645,
left,left,accuracy,,,,,0.0,1.0,1.0,0.0,21.0,1.0,43.0,0.0,675.9916036999784,,,,,,,,,675.977118800045,676.3418034000788,677.1412649999838,677.1255581000587,677.1255776999751,677.1412649999838,677.1412649999838,677.1412649999838,682.139127900009,682.4891895999899,right,0.0,67.29842120001558,,,,,,,,,,,,,,,,,,,,,,,,,,,,,,sub-190,1.0,random_dot,59.535433133183645,
right,right,accuracy,,,,,0.0,1.0,1.0,0.0,22.0,0.0,44.0,1.0,682.5049393000081,,,,,,,,,682.4902710000752,682.6043893999886,683.4047340999823,683.3880761000328,683.3880979000824,683.4047340999823,683.4047340999823,683.4047340999823,,686.5375999000389,right,1.0,65.08678319992032,,,,,,,,,,,,,,,,,,,,,,,,,,,,,,sub-190,1.0,random_dot,59.535433133183645,
left,left,accuracy,,,,,0.0,1.0,1.0,0.0,22.0,1.0,45.0,0.0,686.552963300026,,,,,,,,,686.5385737000033,686.6528629000532,687.4526669000043,687.4363622000674,687.4363815999823,687.4526669000043,687.4526669000043,687.4526669000043,,691.2020523999818,left,1.0,65.70090349996462,,,,,,,,,,,,,,,,,,,,,,,,,,,,,,sub-190,1.0,random_dot,59.535433133183645,
right,right,accuracy,,,,,0.0,1.0,1.0,0.0,23.0,0.0,46.0,1.0,691.216665300075,,,,,,,,,691.2029980000807,691.5670957000693,692.3837863000808,692.3674872000702,692.3675065999851,692.3837863000808,692.3837863000808,692.3837863000808,,696.8163796999725,right,1.0,66.37452459998894,,,,,,,,,,,,,,,,,,,,,,,,,,,,,,sub-190,1.0,random_dot,59.535433133183645,
left,left,accuracy,,,,,0.0,1.0,1.0,0.0,23.0,1.0,47.0,0.0,696.8307089000009,,,,,,,,,696.817360999994,697.6301295000594,698.4304980000015,698.4138761999784,698.4138958000112,698.4304980000015,698.4304980000015,698.4304980000015,703.4270188000519,704.0789503999986,right,0.0,67.60354979999829,,,,,,,,,,,,,,,,,,,,,,,,,,,,,,sub-190,1.0,random_dot,59.535433133183645,
left,left,accuracy,,,,,0.0,1.0,1.0,0.0,24.0,0.0,48.0,0.0,704.09318169998,,,,,,,,,704.0799267999828,705.2925963000162,706.0926246000454,706.0764540000819,706.0764737999998,706.0926246000454,706.0926246000454,706.0926246000454,,708.6761027000612,left,1.0,64.5341779999435,,,,,,,,,,,,,,,,,,,,,,,,,,,,,,sub-190,1.0,random_dot,59.535433133183645,
right,right,accuracy,,,,,0.0,1.0,1.0,0.0,24.0,1.0,49.0,1.0,708.6914203000488,,,,,,,,,708.6770585000049,708.7911123000085,709.5907370999921,709.5740604000166,709.5740784000373,709.5907370999921,709.5907370999921,709.5907370999921,,713.0904912999831,right,1.0,65.4403565999819,,,,,,,,,,,,,,,,,,,,,,,,,,,,,,sub-190,1.0,random_dot,59.535433133183645,
right,right,accuracy,,,,,0.0,1.0,1.0,0.0,25.0,0.0,50.0,1.0,713.1057924000779,,,,,,,,,713.091600600048,713.4555786000565,714.2552012000233,714.2403401000192,714.2403737000423,714.2552012000233,714.2552012000233,714.2552012000233,,717.9050509000663,right,1.0,65.59440659999382,,,,,,,,,,,,,,,,,,,,,,,,,,,,,,sub-190,1.0,random_dot,59.535433133183645,
left,left,accuracy,,,,,0.0,1.0,1.0,0.0,25.0,1.0,51.0,0.0,717.9198250999907,,,,,,,,,717.906016800087,718.2692946000025,719.0693442000775,719.0530115000438,719.0530312000774,719.0693442000775,719.0693442000775,719.0693442000775,,723.0525380000472,left,1.0,65.93414390005637,,,,,,,,,,,,,,,,,,,,,,,,,,,,,,sub-190,1.0,random_dot,59.535433133183645,
right,right,accuracy,,,,,0.0,1.0,1.0,0.0,26.0,0.0,52.0,1.0,723.0671626999974,,,,,,,,,723.0534414000576,723.8672882000683,724.6829419999849,724.6671133000636,724.6671366000082,724.6829419999849,724.6829419999849,724.6829419999849,,728.1995914999861,right,1.0,65.46005790005438,,,,,,,,,,,,,,,,,,,,,,,,,,,,,,sub-190,1.0,random_dot,59.535433133183645,
left,left,accuracy,,,,,0.0,1.0,1.0,0.0,26.0,1.0,53.0,0.0,728.2147576999851,,,,,,,,,728.2005958000664,728.3146901000291,729.1141931000166,729.0985285000643,729.0985559000401,729.1141931000166,729.1141931000166,729.1141931000166,,730.4816801000852,left,1.0,63.32128909998573,,,,,,,,,,,,,,,,,,,,,,,,,,,,,,sub-190,1.0,random_dot,59.535433133183645,
right,right,accuracy,,,,,0.0,1.0,1.0,0.0,27.0,0.0,54.0,1.0,730.4960544999922,,,,,,,,,730.4826556000626,731.2958537000231,732.0961274000583,732.0794694999931,732.0794953000732,732.0961274000583,732.0961274000583,732.0961274000583,,735.1960920999991,right,1.0,65.0429857999552,,,,,,,,,,,,,,,,,,,,,,,,,,,,,,sub-190,1.0,random_dot,59.535433133183645,
left,left,accuracy,,,,,0.0,1.0,1.0,0.0,27.0,1.0,55.0,0.0,735.2107968999771,,,,,,,,,735.1970317000523,736.0104368000757,736.8100484000752,736.7934603000758,736.7934928999748,736.8100484000752,736.8100484000752,736.8100484000752,,739.0932800000301,left,1.0,64.22326659993269,,,,,,,,,,,,,,,,,,,,,,,,,,,,,,sub-190,1.0,random_dot,59.535433133183645,
right,right,accuracy,,,,,0.0,1.0,1.0,0.0,28.0,0.0,56.0,1.0,739.1089596999809,,,,,,,,,739.0942052999744,740.308226800058,741.1080179000273,741.0911170999752,741.0911360000027,741.1080179000273,741.1080179000273,741.1080179000273,,743.3245940000052,right,1.0,64.16699900000822,,,,,,,,,,,,,,,,,,,,,,,,,,,,,,sub-190,1.0,random_dot,59.535433133183645,
left,left,accuracy,,,,,0.0,1.0,1.0,0.0,28.0,1.0,57.0,0.0,743.3391495000105,,,,,,,,,743.3255408999976,743.6894649000606,744.4893720999826,744.4729884000262,744.4730081000598,744.4893720999826,744.4893720999826,744.4893720999826,,748.4048160000239,right,0.0,65.86875120003242,,,,,,,,,,,,,,,,,,,,,,,,,,,,,,sub-190,1.0,random_dot,59.535433133183645,
left,left,accuracy,,,,,0.0,1.0,1.0,0.0,29.0,0.0,58.0,0.0,748.4200284000253,,,,,,,,,748.4057994000614,748.7697342999745,749.5701359000523,749.5538015000056,749.5538201000309,749.5701359000523,749.5701359000523,749.5701359000523,,752.6525025999872,right,0.0,65.02642209990881,,,,,,,,,,,,,,,,,,,,,,,,,,,,,,sub-190,1.0,random_dot,59.535433133183645,
right,right,accuracy,,,,,0.0,1.0,1.0,0.0,29.0,1.0,59.0,1.0,752.6677329000086,,,,,,,,,752.6534081000136,753.8673448000336,754.6673876000568,754.6508851000108,754.6509082000703,754.6673876000568,754.6673876000568,754.6673876000568,,758.4667409000685,right,1.0,65.74695820000488,,,,,,,,,,,,,,,,,,,,,,,,,,,,,,sub-190,1.0,random_dot,59.535433133183645,
,,accuracy,,,,,0.0,1.0,1.0,0.0,,,,,,,,,,,,,,,,,,,,,,,,,,,,,,,,,,,,,,,,,,,,,,,,,,,,,,,,sub-190,1.0,random_dot,59.535433133183645,
,,,,,,,,,,,,,,,,,,,,,,,,,,,,,,,,,,,,,,,,,,,,,,,,,,,,,,,,,,,,,,,758.4674910000758,758.4816711000167,763.4797996000852,sub-190,,,,
