direction,corrAns,randomInstr,practice_trials.thisRepN,practice_trials.thisTrialN,practice_trials.thisN,practice_trials.thisIndex,instr_trials.thisRepN,instr_trials.thisTrialN,instr_trials.thisN,instr_trials.thisIndex,test_trials.thisRepN,test_trials.thisTrialN,test_trials.thisN,test_trials.thisIndex,thisRow.t,notes,general_instruction.started,textGeneralInstr.started,respGeneralInstr.started,general_instruction.stopped,respGeneralInstr.keys,respGeneralInstr.rt,respGeneralInstr.duration,ITI.started,fixcross.started,fixcross.stopped,ITI.stopped,dots.started,backgroundDots.started,stimulusDots.started,respDots.started,stimulusDots.stopped,dots.stopped,respDots.keys,respDots.corr,respDots.rt,respDots.duration,feedback.started,textFeedback.started,feedback.stopped,textFeedback.stopped,info.started,textInfo.started,keyRespInfo.started,info.stopped,keyRespInfo.keys,keyRespInfo.rt,keyRespInfo.duration,test_instruction.started,textTestInstr.started,respTestInstr.started,test_instruction.stopped,respTestInstr.keys,respTestInstr.rt,respTestInstr.duration,random_instruction.started,textRandomInstr.started,respRandomInstr.started,random_instruction.stopped,respRandomInstr.keys,respRandomInstr.rt,respRandomInstr.duration,goodbye.started,textGoodbye.started,textGoodbye.stopped,goodbye.stopped,participant,session,expName,frameRate,Unnamed: 74
,,,,,,,,,,,,,,,,,0.0087706999997863,0.0165750000001025,0.0165750000001025,20.170517799999743,space,51.94781860000012,,,,,,,,,,,,,,,,,,,,,,,,,,,,,,,,,,,,,,,,,,,,,sub-027,1.0,random_dot,60.166697853021454,
right,right,,0.0,0.0,0.0,1.0,,,,,,,,,20.22796689999996,,,,,,,,,20.220742399999835,20.53503069999988,21.351573299999927,21.319938499999807,21.319978900000024,21.351573299999927,21.351573299999927,21.351573299999927,26.32353310000008,27.193249399999782,right,1.0,37.63302570000042,,27.194567000000006,27.22757569999976,27.707014000000072,,,,,,,,,,,,,,,,,,,,,,,,,,,sub-027,1.0,random_dot,60.166697853021454,
left,left,,0.0,1.0,1.0,0.0,,,,,,,,,27.723006199999872,,,,,,,,,27.70794190000015,28.056728999999905,28.858764399999927,28.84210500000017,28.84215200000017,28.858764399999927,28.858764399999927,28.858764399999927,,32.19655199999988,right,0.0,35.12632739999981,,32.1975508999999,32.22541390000015,32.71019660000002,,,,,,,,,,,,,,,,,,,,,,,,,,,sub-027,1.0,random_dot,60.166697853021454,
left,left,,1.0,0.0,2.0,0.0,,,,,,,,,32.72663409999996,,,,,,,,,32.71105410000018,32.80993790000002,33.61194410000007,33.59887759999992,33.59891870000001,33.61194410000007,33.61194410000007,33.61194410000007,,36.449352799999815,left,1.0,34.62269560000004,,36.450400600000194,36.46260859999984,36.94762649999984,36.96284939999987,,,,,,,,,,,,,,,,,,,,,,,,,,sub-027,1.0,random_dot,60.166697853021454,
right,right,,1.0,1.0,3.0,1.0,,,,,,,,,36.96284939999987,,,,,,,,,36.94851329999983,38.16387780000014,38.96574180000016,38.94899249999981,38.949038199999904,38.96574180000016,38.96574180000016,38.96574180000016,,40.45261190000019,right,1.0,33.26934949999986,,40.45347420000007,40.46555750000016,40.95071980000012,40.96550419999994,,,,,,,,,,,,,,,,,,,,,,,,,,sub-027,1.0,random_dot,60.166697853021454,
left,left,,2.0,0.0,4.0,0.0,,,,,,,,,40.96550419999994,,,,,,,,,40.95172199999979,41.31588030000012,42.11782290000019,42.10147909999978,42.10151839999981,42.11782290000019,42.11782290000019,42.11782290000019,,44.87215079999987,right,0.0,34.54786000000013,,44.87317269999994,44.890262299999904,45.38600459999998,,,,,,,,,,,,,,,,,,,,,,,,,,,sub-027,1.0,random_dot,60.166697853021454,
right,right,,2.0,1.0,5.0,1.0,,,,,,,,,45.4020359000001,,,,,,,,,45.38689590000013,46.18590080000013,46.98784579999983,46.97142699999995,46.97146840000005,46.98784579999983,46.98784579999983,46.98784579999983,,48.59109660000013,left,0.0,33.396930599999905,,48.5921715999998,48.604327699999885,49.08942119999983,49.10458130000006,,,,,,,,,,,,,,,,,,,,,,,,,,sub-027,1.0,random_dot,60.166697853021454,
left,left,,3.0,0.0,6.0,0.0,,,,,,,,,49.10458130000006,,,,,,,,,49.09011229999987,49.90516459999981,50.70712270000013,50.69095789999983,50.69100359999993,50.70712270000013,50.70712270000013,50.70712270000013,,53.42842470000005,right,0.0,34.50757680000015,,53.42955859999984,53.56538439999986,53.94166009999981,,,,,,,,,,,,,,,,,,,,,,,,,,,sub-027,1.0,random_dot,60.166697853021454,
right,right,,3.0,1.0,7.0,1.0,,,,,,,,,53.95811370000001,,,,,,,,,53.94251660000009,54.04138359999979,54.843362999999954,54.82663480000019,54.82667390000006,54.843362999999954,54.843362999999954,54.843362999999954,,57.6809902,right,1.0,34.62179510000033,,57.68190449999975,57.69546439999976,58.17916009999999,58.19429660000014,,,,,,,,,,,,,,,,,,,,,,,,,,sub-027,1.0,random_dot,60.166697853021454,
right,right,,4.0,0.0,8.0,1.0,,,,,,,,,58.19429660000014,,,,,,,,,58.17989630000011,58.29437619999999,59.09647540000015,59.07987529999991,59.07991540000012,59.09647540000015,59.09647540000015,59.09647540000015,,60.80024420000018,left,0.0,33.49882759999991,,60.801379,60.81727959999989,61.313724099999945,,,,,,,,,,,,,,,,,,,,,,,,,,,sub-027,1.0,random_dot,60.166697853021454,
left,left,,4.0,1.0,9.0,0.0,,,,,,,,,61.3301034000001,,,,,,,,,61.31482649999998,61.41326579999986,62.21521159999975,62.19855479999978,62.19859110000016,62.21521159999975,62.21521159999975,62.21521159999975,,64.21950990000005,left,1.0,33.79075039999998,,64.22055159999991,64.23456570000008,64.7328435999998,,,,,,,,,,,,,,,,,,,,,,,,,,,sub-027,1.0,random_dot,60.166697853021454,
left,left,,5.0,0.0,10.0,0.0,,,,,,,,,64.74883629999977,,,,,,,,,64.73365430000013,64.83230049999975,65.63406110000005,65.61732010000014,65.61736289999999,65.63406110000005,65.63406110000005,65.63406110000005,,68.10471980000011,left,1.0,34.26077409999971,,68.10581150000007,68.1179447999998,68.60282169999982,68.61805670000012,,,,,,,,,,,,,,,,,,,,,,,,,,sub-027,1.0,random_dot,60.166697853021454,
right,right,,5.0,1.0,11.0,1.0,,,,,,,,,68.61805670000012,,,,,,,,,68.60350759999983,68.96830749999981,69.77031769999985,69.75408090000019,69.7541428999998,69.77031769999985,69.77031769999985,69.77031769999985,,71.54027050000013,right,1.0,33.5543375000002,,71.54132879999997,71.55338549999988,72.03871990000016,72.05397979999998,,,,,,,,,,,,,,,,,,,,,,,,,,sub-027,1.0,random_dot,60.166697853021454,
left,left,,6.0,0.0,12.0,0.0,,,,,,,,,72.05397979999998,,,,,,,,,72.0395110999998,72.40407289999985,73.20620529999997,73.1901084000001,73.19015850000005,73.20620529999997,73.20620529999997,73.20620529999997,,75.31013110000004,left,1.0,33.888755800000126,,75.31125999999995,75.32305140000017,75.80776130000004,75.82322770000019,,,,,,,,,,,,,,,,,,,,,,,,,,sub-027,1.0,random_dot,60.166697853021454,
right,right,,6.0,1.0,13.0,1.0,,,,,,,,,75.82322770000019,,,,,,,,,75.80858020000005,77.02411500000017,77.82585019999988,77.80944009999985,77.8094931999999,77.82585019999988,77.82585019999988,77.82585019999988,,79.66405070000019,right,1.0,33.63021320000007,,79.66494770000008,79.67580559999988,80.16086910000013,80.17620750000015,,,,,,,,,,,,,,,,,,,,,,,,,,sub-027,1.0,random_dot,60.166697853021454,
right,right,,7.0,0.0,14.0,1.0,,,,,,,,,80.17620750000015,,,,,,,,,80.16175440000006,81.37700940000013,82.17923370000017,82.16275499999983,82.16279900000018,82.17923370000017,82.17923370000017,82.17923370000017,,84.23292820000006,left,0.0,33.84577029999991,,84.23399659999995,84.24893759999986,84.74654680000003,,,,,,,,,,,,,,,,,,,,,,,,,,,sub-027,1.0,random_dot,60.166697853021454,
left,left,,7.0,1.0,15.0,0.0,,,,,,,,,84.76281890000018,,,,,,,,,84.74728849999974,84.84606880000001,85.64791669999977,85.63161979999995,85.6316597,85.64791669999977,85.64791669999977,85.64791669999977,,88.11893939999982,right,0.0,34.257282099999884,,88.12008879999985,88.13178639999978,88.61704650000001,88.63245030000007,,,,,,,,,,,,,,,,,,,,,,,,,,sub-027,1.0,random_dot,60.166697853021454,
right,right,,8.0,0.0,16.0,1.0,,,,,,,,,88.63245030000007,,,,,,,,,88.61792289999994,88.98254469999983,89.78453919999993,89.76751299999978,89.76756260000002,89.78453919999993,89.78453919999993,89.78453919999993,,92.35575470000003,right,1.0,34.35130070000014,,92.35691300000008,92.37069169999997,92.86884079999982,,,,,,,,,,,,,,,,,,,,,,,,,,,sub-027,1.0,random_dot,60.166697853021454,
left,left,,8.0,1.0,17.0,0.0,,,,,,,,,92.88499890000004,,,,,,,,,92.86987809999982,93.21859360000008,94.0207019999998,94.0042696999999,94.0043154,94.0207019999998,94.0207019999998,94.0207019999998,,97.07499280000002,left,1.0,34.83415250000007,,97.07602659999976,97.08813770000006,97.57331590000013,97.58836259999998,,,,,,,,,,,,,,,,,,,,,,,,,,sub-027,1.0,random_dot,60.166697853021454,
right,right,,9.0,0.0,18.0,1.0,,,,,,,,,97.58836259999998,,,,,,,,,97.57419040000012,98.7891854999998,99.59104070000012,99.57448479999994,99.57452269999976,99.59104070000012,99.59104070000012,99.59104070000012,,102.27844539999978,right,1.0,34.47426540000015,,102.27918020000016,102.29164679999984,102.7765918,102.79173179999998,,,,,,,,,,,,,,,,,,,,,,,,,,sub-027,1.0,random_dot,60.166697853021454,
left,left,,9.0,1.0,19.0,0.0,,,,,,,,,102.79173179999998,,,,,,,,,102.77761599999984,103.14214270000002,103.94420600000012,103.92758670000012,103.9276319999999,103.94420600000012,103.94420600000012,103.94420600000012,,106.2311623999999,right,0.0,34.08143599999994,,106.23216880000018,106.24838129999988,106.74484380000013,,,,,,,,,,,,,,,,,,,,,,,,,,,sub-027,1.0,random_dot,60.166697853021454,
,,,,,,,,,,,,,,,,,,,,,,,,,,,,,,,,,,,,,,,,,,106.74496249999991,106.76156149999996,106.76156149999996,110.5496364999999,space,35.5732794999999,,,,,,,,,,,,,,,,,,,,sub-027,1.0,random_dot,60.166697853021454,
,,,,,,,,,,,,,,,,,,,,,,,,,,,,,,,,,,,,,,,,,,,,,,,,,110.54974429999992,110.56416660000014,110.56416660000014,117.47116950000007,space,38.690773300000274,,,,,,,,,,,,,sub-027,1.0,random_dot,60.166697853021454,
right,right,accuracy,,,,,0.0,0.0,0.0,0.0,0.0,0.0,0.0,1.0,120.80891040000006,,,,,,,,,120.80420939999976,121.1548002999998,121.95664850000004,121.93998479999982,121.94002799999998,121.95664850000004,121.95664850000004,121.95664850000004,,123.84370829999988,right,1.0,33.67865400000028,,,,,,,,,,,,,,,,,,,,117.47948240000004,117.53318039999976,117.53318039999976,120.78954410000006,space,35.04209589999982,,,,,,sub-027,1.0,random_dot,60.166697853021454,
left,left,accuracy,,,,,0.0,0.0,0.0,0.0,0.0,1.0,1.0,0.0,123.85652290000009,,,,,,,,,123.8463271999999,124.65705750000006,125.45886130000008,125.44272360000014,125.4427667,125.45886130000008,125.45886130000008,125.45886130000008,,127.84573450000016,left,1.0,34.167469900000015,,,,,,,,,,,,,,,,,,,,,,,,,,,,,,,sub-027,1.0,random_dot,60.166697853021454,
right,right,accuracy,,,,,0.0,0.0,0.0,0.0,1.0,0.0,2.0,1.0,127.85935579999978,,,,,,,,,127.8476916999998,127.95948869999984,128.76252459999978,128.74464439999974,128.74468049999996,128.76252459999978,128.76252459999978,128.76252459999978,,131.91435180000008,left,0.0,34.933618300000035,,,,,,,,,,,,,,,,,,,,,,,,,,,,,,,sub-027,1.0,random_dot,60.166697853021454,
left,left,accuracy,,,,,0.0,0.0,0.0,0.0,1.0,1.0,3.0,0.0,131.92895850000014,,,,,,,,,131.9160508,132.27896899999996,133.0808876000001,133.06451930000003,133.06456350000008,133.0808876000001,133.0808876000001,133.0808876000001,,136.21806419999984,left,1.0,34.924892499999714,,,,,,,,,,,,,,,,,,,,,,,,,,,,,,,sub-027,1.0,random_dot,60.166697853021454,
right,right,accuracy,,,,,0.0,0.0,0.0,0.0,2.0,0.0,4.0,1.0,136.2315862999999,,,,,,,,,136.21996850000005,136.58235120000018,137.38387319999993,137.36715689999983,137.36721260000013,137.38387319999993,137.38387319999993,137.38387319999993,,139.3043775000001,right,1.0,33.70223189999979,,,,,,,,,,,,,,,,,,,,,,,,,,,,,,,sub-027,1.0,random_dot,60.166697853021454,
left,left,accuracy,,,,,0.0,0.0,0.0,0.0,2.0,1.0,5.0,0.0,139.31728169999997,,,,,,,,,139.30655089999982,139.66734880000013,140.46934699999974,140.45282369999995,140.4528639,140.46934699999974,140.46934699999974,140.46934699999974,,143.07339709999997,right,0.0,34.39622090000012,,,,,,,,,,,,,,,,,,,,,,,,,,,,,,,sub-027,1.0,random_dot,60.166697853021454,
left,left,accuracy,,,,,0.0,0.0,0.0,0.0,3.0,0.0,6.0,0.0,143.08642999999984,,,,,,,,,143.0754606999999,143.18681179999976,143.98850439999978,143.97226169999976,143.97230469999977,143.98850439999978,143.98850439999978,143.98850439999978,,146.4256577000001,left,1.0,34.226944300000014,,,,,,,,,,,,,,,,,,,,,,,,,,,,,,,sub-027,1.0,random_dot,60.166697853021454,
right,right,accuracy,,,,,0.0,0.0,0.0,0.0,3.0,1.0,7.0,1.0,146.43882359999998,,,,,,,,,146.42746799999986,147.23930299999984,148.04140069999994,148.02492140000004,148.02496459999975,148.04140069999994,148.04140069999994,148.04140069999994,,149.9948000999998,right,1.0,33.73368849999997,,,,,,,,,,,,,,,,,,,,,,,,,,,,,,,sub-027,1.0,random_dot,60.166697853021454,
left,left,accuracy,,,,,0.0,0.0,0.0,0.0,4.0,0.0,8.0,0.0,150.00799770000003,,,,,,,,,149.99791219999997,150.1081180000001,150.91015650000008,150.8934220000001,150.89348109999992,150.91015650000008,150.91015650000008,150.91015650000008,,154.71546660000013,left,1.0,35.585793100000046,,,,,,,,,,,,,,,,,,,,,,,,,,,,,,,sub-027,1.0,random_dot,60.166697853021454,
right,right,accuracy,,,,,0.0,0.0,0.0,0.0,4.0,1.0,9.0,1.0,154.72806769999988,,,,,,,,,154.71779370000013,155.0782221999998,155.88112640000008,155.8633331000001,155.86336540000002,155.88112640000008,155.88112640000008,155.88112640000008,,158.0504851999999,right,1.0,33.96458329999996,,,,,,,,,,,,,,,,,,,,,,,,,,,,,,,sub-027,1.0,random_dot,60.166697853021454,
left,left,accuracy,,,,,0.0,0.0,0.0,0.0,5.0,0.0,10.0,0.0,158.06357369999978,,,,,,,,,158.05340269999988,158.1646796,158.96685949999983,158.94912290000002,158.94915189999983,158.96685949999983,158.96685949999983,158.96685949999983,,162.76995320000017,right,0.0,35.58918980000044,,,,,,,,,,,,,,,,,,,,,,,,,,,,,,,sub-027,1.0,random_dot,60.166697853021454,
right,right,accuracy,,,,,0.0,0.0,0.0,0.0,5.0,1.0,11.0,1.0,162.78339670000014,,,,,,,,,162.77171640000006,163.5838730999999,164.38600619999988,164.36895550000008,164.36898310000015,164.38600619999988,164.38600619999988,164.38600619999988,,167.0568456000001,right,1.0,34.45959640000001,,,,,,,,,,,,,,,,,,,,,,,,,,,,,,,sub-027,1.0,random_dot,60.166697853021454,
right,right,accuracy,,,,,0.0,0.0,0.0,0.0,6.0,0.0,12.0,1.0,167.06987639999988,,,,,,,,,167.05889810000008,167.42035369999985,168.22185850000005,168.20593069999995,168.20598000000018,168.22185850000005,168.22185850000005,168.22185850000005,,171.26006629999983,left,0.0,34.8243394000001,,,,,,,,,,,,,,,,,,,,,,,,,,,,,,,sub-027,1.0,random_dot,60.166697853021454,
left,left,accuracy,,,,,0.0,0.0,0.0,0.0,6.0,1.0,13.0,0.0,171.27262010000004,,,,,,,,,171.2626725,172.4733881000002,173.27563759999975,173.25905590000002,173.25909880000015,173.27563759999975,173.27563759999975,173.27563759999975,,175.42880220000006,right,0.0,33.93884170000001,,,,,,,,,,,,,,,,,,,,,,,,,,,,,,,sub-027,1.0,random_dot,60.166697853021454,
left,left,accuracy,,,,,0.0,0.0,0.0,0.0,7.0,0.0,14.0,0.0,175.4422966000002,,,,,,,,,175.43041029999995,176.24264360000006,177.04463729999998,177.02843759999996,177.0284772,177.04463729999998,177.04463729999998,177.04463729999998,,179.96646009999995,left,1.0,34.709717700000056,,,,,,,,,,,,,,,,,,,,,,,,,,,,,,,sub-027,1.0,random_dot,60.166697853021454,
right,right,accuracy,,,,,0.0,0.0,0.0,0.0,7.0,1.0,15.0,1.0,179.9786035000002,,,,,,,,,179.9694429000001,181.1796909,181.98169019999975,181.96529689999988,181.9653361999999,181.98169019999975,181.98169019999975,181.98169019999975,,184.4689186999999,right,1.0,34.27298639999981,,,,,,,,,,,,,,,,,,,,,,,,,,,,,,,sub-027,1.0,random_dot,60.166697853021454,
right,right,accuracy,,,,,0.0,0.0,0.0,0.0,8.0,0.0,16.0,1.0,184.48206709999977,,,,,,,,,184.47099369999975,184.58225249999987,185.38394890000015,185.3671122000001,185.36716479999995,185.38394890000015,185.38394890000015,185.38394890000015,,189.07223680000016,left,0.0,35.4714712,,,,,,,,,,,,,,,,,,,,,,,,,,,,,,,sub-027,1.0,random_dot,60.166697853021454,
left,left,accuracy,,,,,0.0,0.0,0.0,0.0,8.0,1.0,17.0,0.0,189.0848179999998,,,,,,,,,189.0753583000001,189.8857002,190.68755729999972,190.67136440000013,190.67140389999983,190.68755729999972,190.68755729999972,190.68755729999972,,194.09274950000008,left,1.0,35.1873470999999,,,,,,,,,,,,,,,,,,,,,,,,,,,,,,,sub-027,1.0,random_dot,60.166697853021454,
left,left,accuracy,,,,,0.0,0.0,0.0,0.0,9.0,0.0,18.0,0.0,194.10544290000007,,,,,,,,,194.0955567000001,194.4555298,195.2574995,195.2409930999997,195.24103280000008,195.2574995,195.2574995,195.2574995,,198.42801240000017,left,1.0,34.957400100000086,,,,,,,,,,,,,,,,,,,,,,,,,,,,,,,sub-027,1.0,random_dot,60.166697853021454,
right,right,accuracy,,,,,0.0,0.0,0.0,0.0,9.0,1.0,19.0,1.0,198.4417030999998,,,,,,,,,198.43002579999984,199.2421571,200.04435090000013,200.02748059999976,200.02751820000003,200.04435090000013,200.04435090000013,200.04435090000013,,201.41369059999988,right,1.0,33.150736099999904,,,,,,,,,,,,,,,,,,,,,,,,,,,,,,,sub-027,1.0,random_dot,60.166697853021454,
left,left,accuracy,,,,,0.0,0.0,0.0,0.0,10.0,0.0,20.0,0.0,201.4269046999998,,,,,,,,,201.41588820000013,201.52715940000007,202.32915300000013,202.3122505000001,202.31229059999987,202.32915300000013,202.32915300000013,202.32915300000013,,203.71524069999987,left,1.0,33.16628790000004,,,,,,,,,,,,,,,,,,,,,,,,,,,,,,,sub-027,1.0,random_dot,60.166697853021454,
right,right,accuracy,,,,,0.0,0.0,0.0,0.0,10.0,1.0,21.0,1.0,203.72849039999983,,,,,,,,,203.71746540000004,204.5290937,205.3309202999999,205.313592,205.31362309999983,205.3309202999999,205.3309202999999,205.3309202999999,,206.4841261000001,right,1.0,32.94457800000009,,,,,,,,,,,,,,,,,,,,,,,,,,,,,,,sub-027,1.0,random_dot,60.166697853021454,
left,left,accuracy,,,,,0.0,0.0,0.0,0.0,11.0,0.0,22.0,0.0,206.4971955000001,,,,,,,,,206.48621980000007,206.5972342,207.3993322000001,207.38295479999988,207.3829962,207.3993322000001,207.3993322000001,207.3993322000001,,209.5198264999999,left,1.0,33.91550360000019,,,,,,,,,,,,,,,,,,,,,,,,,,,,,,,sub-027,1.0,random_dot,60.166697853021454,
right,right,accuracy,,,,,0.0,0.0,0.0,0.0,11.0,1.0,23.0,1.0,209.53249319999983,,,,,,,,,209.52194819999977,210.3333521,211.13509190000013,211.11848759999972,211.11852670000007,211.13509190000013,211.13509190000013,211.13509190000013,,212.65509509999995,left,0.0,33.30002330000025,,,,,,,,,,,,,,,,,,,,,,,,,,,,,,,sub-027,1.0,random_dot,60.166697853021454,
right,right,accuracy,,,,,0.0,0.0,0.0,0.0,12.0,0.0,24.0,1.0,212.6680891000001,,,,,,,,,212.65754509999988,213.86901679999983,214.67087039999976,214.65430149999972,214.65434349999987,214.67087039999976,214.67087039999976,214.67087039999976,,216.5741606000001,right,1.0,33.69524030000002,,,,,,,,,,,,,,,,,,,,,,,,,,,,,,,sub-027,1.0,random_dot,60.166697853021454,
left,left,accuracy,,,,,0.0,0.0,0.0,0.0,12.0,1.0,25.0,0.0,216.58770300000012,,,,,,,,,216.57625199999984,217.38837599999988,218.18997519999996,218.17368420000005,218.17373839999985,218.18997519999996,218.18997519999996,218.18997519999996,,221.1984048999998,left,1.0,34.78519939999978,,,,,,,,,,,,,,,,,,,,,,,,,,,,,,,sub-027,1.0,random_dot,60.166697853021454,
right,right,accuracy,,,,,0.0,0.0,0.0,0.0,13.0,0.0,26.0,1.0,221.20733560000008,,,,,,,,,221.2002127000001,221.55756800000017,222.3597227,222.34282429999985,222.34286440000005,222.3597227,222.3597227,222.3597227,,224.2629925000001,right,1.0,33.68536030000041,,,,,,,,,,,,,,,,,,,,,,,,,,,,,,,sub-027,1.0,random_dot,60.166697853021454,
left,left,accuracy,,,,,0.0,0.0,0.0,0.0,13.0,1.0,27.0,0.0,224.27618619999976,,,,,,,,,224.26524569999992,224.37628360000008,225.1782429,225.16149170000017,225.1615428,225.1782429,225.1782429,225.1782429,,227.09839120000012,left,1.0,33.7065848000002,,,,,,,,,,,,,,,,,,,,,,,,,,,,,,,sub-027,1.0,random_dot,60.166697853021454,
right,right,accuracy,,,,,0.0,0.0,0.0,0.0,14.0,0.0,28.0,1.0,227.11153689999992,,,,,,,,,227.10081630000013,227.4616188,228.26379959999983,228.24704949999975,228.24708599999985,228.26379959999983,228.26379959999983,228.26379959999983,,230.06728699999985,right,1.0,33.5909058000002,,,,,,,,,,,,,,,,,,,,,,,,,,,,,,,sub-027,1.0,random_dot,60.166697853021454,
left,left,accuracy,,,,,0.0,0.0,0.0,0.0,14.0,1.0,29.0,0.0,230.0805325000001,,,,,,,,,230.06950449999977,230.43051990000004,231.2324438999999,231.21588740000016,231.21594370000005,231.2324438999999,231.2324438999999,231.2324438999999,,232.7698909000001,left,1.0,33.33281209999996,,,,,,,,,,,,,,,,,,,,,,,,,,,,,,,sub-027,1.0,random_dot,60.166697853021454,
right,right,accuracy,,,,,0.0,0.0,0.0,0.0,15.0,0.0,30.0,1.0,232.78190360000008,,,,,,,,,232.77207719999976,233.5829702000001,234.3844748000001,234.3679391000001,234.3679788999998,234.3844748000001,234.3844748000001,234.3844748000001,,235.83784719999997,right,1.0,33.241590100000394,,,,,,,,,,,,,,,,,,,,,,,,,,,,,,,sub-027,1.0,random_dot,60.166697853021454,
left,left,accuracy,,,,,0.0,0.0,0.0,0.0,15.0,1.0,31.0,0.0,235.85088039999985,,,,,,,,,235.83951720000005,236.20107999999985,237.00320839999995,236.98657319999984,236.9866130999999,237.00320839999995,237.00320839999995,237.00320839999995,,238.60615419999976,left,1.0,33.39146050000045,,,,,,,,,,,,,,,,,,,,,,,,,,,,,,,sub-027,1.0,random_dot,60.166697853021454,
right,right,accuracy,,,,,0.0,0.0,0.0,0.0,16.0,0.0,32.0,1.0,238.61939070000017,,,,,,,,,238.6081067,238.96965619999992,239.77183830000013,239.7555514999999,239.75560319999977,239.77183830000013,239.77183830000013,239.77183830000013,,241.4582196000001,right,1.0,33.473640799999885,,,,,,,,,,,,,,,,,,,,,,,,,,,,,,,sub-027,1.0,random_dot,60.166697853021454,
left,left,accuracy,,,,,0.0,0.0,0.0,0.0,16.0,1.0,33.0,0.0,241.47123079999983,,,,,,,,,241.4605388,241.5715442000001,242.37339089999975,242.35692389999983,242.35696319999988,242.37339089999975,242.37339089999975,242.37339089999975,,244.82745939999995,left,1.0,34.24145379999982,,,,,,,,,,,,,,,,,,,,,,,,,,,,,,,sub-027,1.0,random_dot,60.166697853021454,
left,left,accuracy,,,,,0.0,0.0,0.0,0.0,17.0,0.0,34.0,0.0,244.84066140000004,,,,,,,,,244.8294056,246.0415849000001,246.8432355,246.8268785,246.82691889999975,246.8432355,246.8432355,246.8432355,,248.9803545,left,1.0,33.92189240000016,,,,,,,,,,,,,,,,,,,,,,,,,,,,,,,sub-027,1.0,random_dot,60.166697853021454,
right,right,accuracy,,,,,0.0,0.0,0.0,0.0,17.0,1.0,35.0,1.0,248.9934443000002,,,,,,,,,248.9821105000001,250.19410599999992,250.9963235,250.97939099999985,250.9794284999998,250.9963235,250.9963235,250.9963235,,253.29999700000008,right,1.0,34.089436000000205,,,,,,,,,,,,,,,,,,,,,,,,,,,,,,,sub-027,1.0,random_dot,60.166697853021454,
left,left,accuracy,,,,,0.0,0.0,0.0,0.0,18.0,0.0,36.0,0.0,253.31301209999992,,,,,,,,,253.30204060000003,253.66342209999996,254.46517649999987,254.4487871000001,254.4488486,254.46517649999987,254.46517649999987,254.46517649999987,,256.4352146000001,left,1.0,33.75028859999975,,,,,,,,,,,,,,,,,,,,,,,,,,,,,,,sub-027,1.0,random_dot,60.166697853021454,
right,right,accuracy,,,,,0.0,0.0,0.0,0.0,18.0,1.0,37.0,1.0,256.44887419999986,,,,,,,,,256.4381822,256.7987594000001,257.60065110000005,257.58411909999995,257.58419079999976,257.60065110000005,257.60065110000005,257.60065110000005,,259.4204208000001,left,0.0,33.60435340000004,,,,,,,,,,,,,,,,,,,,,,,,,,,,,,,sub-027,1.0,random_dot,60.166697853021454,
right,right,accuracy,,,,,0.0,0.0,0.0,0.0,19.0,0.0,38.0,1.0,259.43403720000015,,,,,,,,,259.42234830000007,259.78446889999987,260.5860905999998,260.5694482999997,260.56949080000004,260.5860905999998,260.5860905999998,260.5860905999998,,262.6251825999998,left,0.0,33.828711900000144,,,,,,,,,,,,,,,,,,,,,,,,,,,,,,,sub-027,1.0,random_dot,60.166697853021454,
left,left,accuracy,,,,,0.0,0.0,0.0,0.0,19.0,1.0,39.0,0.0,262.63633720000007,,,,,,,,,262.6273090999998,262.73641439999983,263.53828190000013,263.5217539,263.52180929999986,263.53828190000013,263.53828190000013,263.53828190000013,,265.8916955,left,1.0,34.13661779999984,,,,,,,,,,,,,,,,,,,,,,,,,,,,,,,sub-027,1.0,random_dot,60.166697853021454,
left,left,accuracy,,,,,0.0,0.0,0.0,0.0,20.0,0.0,40.0,0.0,265.9050784000001,,,,,,,,,265.8936515999999,266.00502819999974,266.8070852999999,266.7905096999998,266.79054959999985,266.8070852999999,266.8070852999999,266.8070852999999,,269.32765930000005,left,1.0,34.308225799999946,,,,,,,,,,,,,,,,,,,,,,,,,,,,,,,sub-027,1.0,random_dot,60.166697853021454,
right,right,accuracy,,,,,0.0,0.0,0.0,0.0,20.0,1.0,41.0,1.0,269.3407732999999,,,,,,,,,269.3297349999998,270.54165139999986,271.34374949999983,271.32775660000016,271.3278273000001,271.34374949999983,271.34374949999983,271.34374949999983,,272.74670190000006,right,1.0,33.19117090000009,,,,,,,,,,,,,,,,,,,,,,,,,,,,,,,sub-027,1.0,random_dot,60.166697853021454,
right,right,accuracy,,,,,0.0,0.0,0.0,0.0,21.0,0.0,42.0,1.0,272.7598772000001,,,,,,,,,272.7488779,273.96084459999975,274.7626215,274.7458625999998,274.7459140000001,274.7626215,274.7626215,274.7626215,,277.18357479999986,right,1.0,34.212636900000234,,,,,,,,,,,,,,,,,,,,,,,,,,,,,,,sub-027,1.0,random_dot,60.166697853021454,
left,left,accuracy,,,,,0.0,0.0,0.0,0.0,21.0,1.0,43.0,0.0,277.19632139999976,,,,,,,,,277.1855577000001,277.2963300000001,278.0983765000001,278.08183039999994,278.0818703,278.0983765000001,278.0983765000001,278.0983765000001,,279.7679457999998,left,1.0,33.45775259999982,,,,,,,,,,,,,,,,,,,,,,,,,,,,,,,sub-027,1.0,random_dot,60.166697853021454,
right,right,accuracy,,,,,0.0,0.0,0.0,0.0,22.0,0.0,44.0,1.0,279.7816616,,,,,,,,,279.77000610000005,280.1322025999998,280.93352079999977,280.91708130000006,280.9171255000001,280.93352079999977,280.93352079999977,280.93352079999977,,282.15314390000003,right,1.0,33.002060000000256,,,,,,,,,,,,,,,,,,,,,,,,,,,,,,,sub-027,1.0,random_dot,60.166697853021454,
left,left,accuracy,,,,,0.0,0.0,0.0,0.0,22.0,1.0,45.0,0.0,282.16642950000005,,,,,,,,,282.1554397,282.2663885000002,283.0683226000001,283.0514966999999,283.05153629999995,283.0683226000001,283.0683226000001,283.0683226000001,,284.8720967,left,1.0,33.596794500000215,,,,,,,,,,,,,,,,,,,,,,,,,,,,,,,sub-027,1.0,random_dot,60.166697853021454,
left,left,accuracy,,,,,0.0,0.0,0.0,0.0,23.0,0.0,46.0,0.0,284.8850206000002,,,,,,,,,284.87395620000007,284.9850689,285.78706580000016,285.77386609999985,285.7739069,285.78706580000016,285.78706580000016,285.78706580000016,,288.3749535000002,right,0.0,34.36794180000015,,,,,,,,,,,,,,,,,,,,,,,,,,,,,,,sub-027,1.0,random_dot,60.166697853021454,
right,right,accuracy,,,,,0.0,0.0,0.0,0.0,23.0,1.0,47.0,1.0,288.3872686999998,,,,,,,,,288.37947459999987,289.18808409999974,289.99004920000016,289.9733713999999,289.9734116,289.99004920000016,289.99004920000016,289.99004920000016,,291.5264247,right,1.0,33.32495710000012,,,,,,,,,,,,,,,,,,,,,,,,,,,,,,,sub-027,1.0,random_dot,60.166697853021454,
right,right,accuracy,,,,,0.0,0.0,0.0,0.0,24.0,0.0,48.0,1.0,291.5393856999999,,,,,,,,,291.52852040000016,292.3401444000001,293.1421535999998,293.1251650999998,293.1252046999998,293.1421535999998,293.1421535999998,293.1421535999998,,294.6316149,right,1.0,33.273087699999905,,,,,,,,,,,,,,,,,,,,,,,,,,,,,,,sub-027,1.0,random_dot,60.166697853021454,
left,left,accuracy,,,,,0.0,0.0,0.0,0.0,24.0,1.0,49.0,0.0,294.64158769999995,,,,,,,,,294.6333058,294.7418076999997,295.543694,295.5270488000001,295.5270875000001,295.543694,295.543694,295.543694,,297.3821564,left,1.0,33.63169400000015,,,,,,,,,,,,,,,,,,,,,,,,,,,,,,,sub-027,1.0,random_dot,60.166697853021454,
right,right,accuracy,,,,,0.0,0.0,0.0,0.0,25.0,0.0,50.0,1.0,297.3935637,,,,,,,,,297.3842043,298.19406359999994,298.99605680000013,298.9793301,298.9793696000001,298.99605680000013,298.99605680000013,298.99605680000013,,300.2494588999998,right,1.0,33.039477199999965,,,,,,,,,,,,,,,,,,,,,,,,,,,,,,,sub-027,1.0,random_dot,60.166697853021454,
left,left,accuracy,,,,,0.0,0.0,0.0,0.0,25.0,1.0,51.0,0.0,300.2623005999999,,,,,,,,,300.2514640999998,300.3622520999997,301.16424529999995,301.1475710999998,301.1476143,301.16424529999995,301.16424529999995,301.16424529999995,,302.8505436999999,right,0.0,33.48098800000025,,,,,,,,,,,,,,,,,,,,,,,,,,,,,,,sub-027,1.0,random_dot,60.166697853021454,
right,right,accuracy,,,,,0.0,0.0,0.0,0.0,26.0,0.0,52.0,1.0,302.8645762000001,,,,,,,,,302.8531170000001,304.0650218999999,304.8669724000001,304.8507739000001,304.85091079999984,304.8669724000001,304.8669724000001,304.8669724000001,,306.1537539000001,right,1.0,33.07852680000042,,,,,,,,,,,,,,,,,,,,,,,,,,,,,,,sub-027,1.0,random_dot,60.166697853021454,
left,left,accuracy,,,,,0.0,0.0,0.0,0.0,26.0,1.0,53.0,0.0,306.1664571000001,,,,,,,,,306.15655909999987,306.51679779999995,307.31850780000013,307.3019764999999,307.30201959999977,307.31850780000013,307.31850780000013,307.31850780000013,,309.37232619999986,left,1.0,33.837228600000344,,,,,,,,,,,,,,,,,,,,,,,,,,,,,,,sub-027,1.0,random_dot,60.166697853021454,
left,left,accuracy,,,,,0.0,0.0,0.0,0.0,27.0,0.0,54.0,0.0,309.3851679999998,,,,,,,,,309.3756322999998,309.4851902999999,310.2872318,310.2704923000001,310.27053220000016,310.2872318,310.2872318,310.2872318,,312.2413701999999,left,1.0,33.74906970000029,,,,,,,,,,,,,,,,,,,,,,,,,,,,,,,sub-027,1.0,random_dot,60.166697853021454,
right,right,accuracy,,,,,0.0,0.0,0.0,0.0,27.0,1.0,55.0,1.0,312.2537803,,,,,,,,,312.2437197,313.45472100000006,314.25709800000004,314.2400091999998,314.2400511999999,314.25709800000004,314.25709800000004,314.25709800000004,,315.71002309999994,right,1.0,33.238901799999894,,,,,,,,,,,,,,,,,,,,,,,,,,,,,,,sub-027,1.0,random_dot,60.166697853021454,
right,right,accuracy,,,,,0.0,0.0,0.0,0.0,28.0,0.0,56.0,1.0,315.72311899999977,,,,,,,,,315.71209839999983,315.8232216000001,316.62508190000017,316.6082523,316.6082898,316.62508190000017,316.62508190000017,316.62508190000017,,318.94579650000014,left,0.0,34.11047770000005,,,,,,,,,,,,,,,,,,,,,,,,,,,,,,,sub-027,1.0,random_dot,60.166697853021454,
left,left,accuracy,,,,,0.0,0.0,0.0,0.0,28.0,1.0,57.0,0.0,318.9584212999998,,,,,,,,,318.9480503,319.05932470000016,319.86078050000015,319.84408799999983,319.8441357000001,319.86078050000015,319.86078050000015,319.86078050000015,,322.4812232,left,1.0,34.41514939999979,,,,,,,,,,,,,,,,,,,,,,,,,,,,,,,sub-027,1.0,random_dot,60.166697853021454,
left,left,accuracy,,,,,0.0,0.0,0.0,0.0,29.0,0.0,58.0,0.0,322.49458909999976,,,,,,,,,322.4829203999998,323.69531529999995,324.4971858999997,324.4804186000001,324.4804558999999,324.4971858999997,324.4971858999997,324.4971858999997,,325.63313579999976,right,0.0,32.92896810000002,,,,,,,,,,,,,,,,,,,,,,,,,,,,,,,sub-027,1.0,random_dot,60.166697853021454,
right,right,accuracy,,,,,0.0,0.0,0.0,0.0,29.0,1.0,59.0,1.0,325.6464522000001,,,,,,,,,325.63515929999994,325.74668299999985,326.5486541,326.53166280000005,326.5317064000001,326.5486541,326.5486541,326.5486541,,328.9187994999997,right,1.0,34.15729959999999,,,,,,,,,,,,,,,,,,,,,,,,,,,,,,,sub-027,1.0,random_dot,60.166697853021454,
,,accuracy,,,,,0.0,0.0,0.0,0.0,,,,,,,,,,,,,,,,,,,,,,,,,,,,,,,,,,,,,,,,,,,,,,,,,,,,,,,,,sub-027,1.0,random_dot,60.166697853021454,
left,left,speed,,,,,0.0,1.0,1.0,1.0,0.0,0.0,0.0,0.0,333.0429786,,,,,,,,,333.0373257000001,333.8356374,334.6377422999999,334.6202275999999,334.62025360000007,334.6377422999999,334.6377422999999,334.6377422999999,,335.3237098,right,0.0,32.467664499999955,,,,,,,,,,,,,,,,,,,,328.9209225999998,328.94579780000004,328.94579780000004,333.0206250000001,space,35.85957669999971,,,,,,sub-027,1.0,random_dot,60.166697853021454,
right,right,speed,,,,,0.0,1.0,1.0,1.0,0.0,1.0,1.0,1.0,335.33662559999993,,,,,,,,,335.3263711,336.5374397999999,337.3395624,337.3227873000001,337.3228549999999,337.3395624,337.3395624,337.3395624,,338.4588011999999,left,0.0,32.90656839999974,,,,,,,,,,,,,,,,,,,,,,,,,,,,,,,sub-027,1.0,random_dot,60.166697853021454,
left,left,speed,,,,,0.0,1.0,1.0,1.0,1.0,0.0,2.0,0.0,338.4719698999997,,,,,,,,,338.4611144999999,338.8224991000002,339.6244624000001,339.6077265999997,339.60775650000005,339.6244624000001,339.6244624000001,339.6244624000001,,340.4100512,right,0.0,32.5715110000001,,,,,,,,,,,,,,,,,,,,,,,,,,,,,,,sub-027,1.0,random_dot,60.166697853021454,
right,right,speed,,,,,0.0,1.0,1.0,1.0,1.0,1.0,3.0,1.0,340.4235730999999,,,,,,,,,340.41197680000005,340.7739496999998,341.5755887,341.5592035999998,341.55925530000013,341.5755887,341.5755887,341.5755887,,342.33343190000005,right,1.0,32.55274559999998,,,,,,,,,,,,,,,,,,,,,,,,,,,,,,,sub-027,1.0,random_dot,60.166697853021454,
right,right,speed,,,,,0.0,1.0,1.0,1.0,2.0,0.0,4.0,1.0,342.345589,,,,,,,,,342.34004700000014,342.6917589999998,343.49362599999995,343.4769904,343.4770308000002,343.49362599999995,343.49362599999995,343.49362599999995,,344.4297382999998,right,1.0,32.72226980000005,,,,,,,,,,,,,,,,,,,,,,,,,,,,,,,sub-027,1.0,random_dot,60.166697853021454,
left,left,speed,,,,,0.0,1.0,1.0,1.0,2.0,1.0,5.0,0.0,344.4430283000001,,,,,,,,,344.4319658999998,344.54292540000006,345.3451764000001,345.3284632,345.3285043000001,345.3451764000001,345.3451764000001,345.3451764000001,,345.98188489999984,left,1.0,32.43072860000029,,,,,,,,,,,,,,,,,,,,,,,,,,,,,,,sub-027,1.0,random_dot,60.166697853021454,
left,left,speed,,,,,0.0,1.0,1.0,1.0,3.0,0.0,6.0,0.0,345.9942924000002,,,,,,,,,345.9840961,346.09411550000004,346.89598609999985,346.8802433999999,346.88029000000006,346.89598609999985,346.89598609999985,346.89598609999985,,347.6857675000001,left,1.0,32.56943860000001,,,,,,,,,,,,,,,,,,,,,,,,,,,,,,,sub-027,1.0,random_dot,60.166697853021454,
right,right,speed,,,,,0.0,1.0,1.0,1.0,3.0,1.0,7.0,1.0,347.69519720000017,,,,,,,,,347.6876179000001,348.04550070000005,348.84744969999974,348.8308441999998,348.8308989000002,348.84744969999974,348.84744969999974,348.84744969999974,,349.65001159999974,right,1.0,32.58873130000029,,,,,,,,,,,,,,,,,,,,,,,,,,,,,,,sub-027,1.0,random_dot,60.166697853021454,
left,left,speed,,,,,0.0,1.0,1.0,1.0,4.0,0.0,8.0,0.0,349.6629991,,,,,,,,,349.6519610999999,350.0133697000001,350.8154334999999,350.798761,350.79880189999994,350.8154334999999,350.8154334999999,350.8154334999999,,351.4013009,left,1.0,32.37017180000021,,,,,,,,,,,,,,,,,,,,,,,,,,,,,,,sub-027,1.0,random_dot,60.166697853021454,
right,right,speed,,,,,0.0,1.0,1.0,1.0,4.0,1.0,9.0,1.0,351.4145629999998,,,,,,,,,351.40354990000014,351.76491750000014,352.5668724000002,352.55057450000004,352.5506271999998,352.5668724000002,352.5668724000002,352.5668724000002,,353.1361627000001,left,0.0,32.348912200000086,,,,,,,,,,,,,,,,,,,,,,,,,,,,,,,sub-027,1.0,random_dot,60.166697853021454,
left,left,speed,,,,,0.0,1.0,1.0,1.0,5.0,0.0,10.0,0.0,353.1490337,,,,,,,,,353.13832379999985,353.9494301,354.7514554999998,354.7348336,354.7348729999999,354.7514554999998,354.7514554999998,354.7514554999998,,355.38757369999985,left,1.0,32.424279899999874,,,,,,,,,,,,,,,,,,,,,,,,,,,,,,,sub-027,1.0,random_dot,60.166697853021454,
right,right,speed,,,,,0.0,1.0,1.0,1.0,5.0,1.0,11.0,1.0,355.4005289000001,,,,,,,,,355.3898128999999,355.7509528999999,356.5527983000002,356.5358387000001,356.5358704,356.5527983000002,356.5527983000002,356.5527983000002,,357.2723261000001,right,1.0,32.50265450000006,,,,,,,,,,,,,,,,,,,,,,,,,,,,,,,sub-027,1.0,random_dot,60.166697853021454,
left,left,speed,,,,,0.0,1.0,1.0,1.0,6.0,0.0,12.0,0.0,357.2853538999998,,,,,,,,,357.2747565999998,358.0856686000002,358.8875868,358.8713025000002,358.8713416999999,358.8875868,358.8875868,358.8875868,,359.4908808,left,1.0,32.39802430000009,,,,,,,,,,,,,,,,,,,,,,,,,,,,,,,sub-027,1.0,random_dot,60.166697853021454,
right,right,speed,,,,,0.0,1.0,1.0,1.0,6.0,1.0,13.0,1.0,359.5033997999999,,,,,,,,,359.4930585000002,360.70440169999983,361.5061034999999,361.4893794999998,361.48941920000016,361.5061034999999,361.5061034999999,361.5061034999999,,362.3260682999999,left,0.0,32.60978200000045,,,,,,,,,,,,,,,,,,,,,,,,,,,,,,,sub-027,1.0,random_dot,60.166697853021454,
right,right,speed,,,,,0.0,1.0,1.0,1.0,7.0,0.0,14.0,1.0,362.3385370000001,,,,,,,,,362.3281938,363.5394720999998,364.34153639999977,364.3246635,364.3247035999998,364.34153639999977,364.34153639999977,364.34153639999977,,365.1610271,right,1.0,32.60432700000047,,,,,,,,,,,,,,,,,,,,,,,,,,,,,,,sub-027,1.0,random_dot,60.166697853021454,
left,left,speed,,,,,0.0,1.0,1.0,1.0,7.0,1.0,15.0,0.0,365.17416159999993,,,,,,,,,365.1641851999998,365.52448490000006,366.32630340000014,366.3097278999999,366.30978449999975,366.32630340000014,366.32630340000014,366.32630340000014,,367.11231659999976,left,1.0,32.57998859999998,,,,,,,,,,,,,,,,,,,,,,,,,,,,,,,sub-027,1.0,random_dot,60.166697853021454,
left,left,speed,,,,,0.0,1.0,1.0,1.0,8.0,0.0,16.0,0.0,367.1254339000002,,,,,,,,,367.1158044999997,367.4755620000001,368.27795430000015,368.26108859999977,368.2611379,368.27795430000015,368.27795430000015,368.27795430000015,,369.26440999999977,left,1.0,32.77790610000011,,,,,,,,,,,,,,,,,,,,,,,,,,,,,,,sub-027,1.0,random_dot,60.166697853021454,
right,right,speed,,,,,0.0,1.0,1.0,1.0,8.0,1.0,17.0,1.0,369.2770759,,,,,,,,,369.2664166999998,369.6270976999999,370.428958,370.4124640999999,370.41250020000007,370.428958,370.428958,370.428958,,371.1994702000002,right,1.0,32.55664949999982,,,,,,,,,,,,,,,,,,,,,,,,,,,,,,,sub-027,1.0,random_dot,60.166697853021454,
left,left,speed,,,,,0.0,1.0,1.0,1.0,9.0,0.0,18.0,0.0,371.21127369999977,,,,,,,,,371.20153930000015,371.3114547999999,372.1134941999999,372.0971454,372.0971853000001,372.1134941999999,372.1134941999999,372.1134941999999,,373.0168628000001,left,1.0,32.69244810000009,,,,,,,,,,,,,,,,,,,,,,,,,,,,,,,sub-027,1.0,random_dot,60.166697853021454,
right,right,speed,,,,,0.0,1.0,1.0,1.0,9.0,1.0,19.0,1.0,373.02960669999993,,,,,,,,,373.0191027000001,373.8298657999999,374.6324092,374.6149802,374.6150078999999,374.6324092,374.6324092,374.6324092,,376.2020799000002,right,1.0,33.35334190000003,,,,,,,,,,,,,,,,,,,,,,,,,,,,,,,sub-027,1.0,random_dot,60.166697853021454,
left,left,speed,,,,,0.0,1.0,1.0,1.0,10.0,0.0,20.0,0.0,376.2149015999999,,,,,,,,,376.2042363000001,377.0155359999999,377.81747970000015,377.8017034,377.80174709999983,377.81747970000015,377.81747970000015,377.81747970000015,,378.78695979999975,left,1.0,32.75848589999987,,,,,,,,,,,,,,,,,,,,,,,,,,,,,,,sub-027,1.0,random_dot,60.166697853021454,
right,right,speed,,,,,0.0,1.0,1.0,1.0,10.0,1.0,21.0,1.0,378.8002099,,,,,,,,,378.78922710000006,379.1503130000001,379.952444,379.9358062000001,379.9358748999998,379.952444,379.952444,379.952444,,380.7381885,right,1.0,32.57399570000007,,,,,,,,,,,,,,,,,,,,,,,,,,,,,,,sub-027,1.0,random_dot,60.166697853021454,
left,left,speed,,,,,0.0,1.0,1.0,1.0,11.0,0.0,22.0,0.0,380.7512738999999,,,,,,,,,380.7404529,381.5519432000001,382.3540861000001,382.337254,382.33729399999993,382.3540861000001,382.3540861000001,382.3540861000001,,383.1732256,left,1.0,32.61210799999981,,,,,,,,,,,,,,,,,,,,,,,,,,,,,,,sub-027,1.0,random_dot,60.166697853021454,
right,right,speed,,,,,0.0,1.0,1.0,1.0,11.0,1.0,23.0,1.0,383.18653959999983,,,,,,,,,383.17530149999993,383.5371779000002,384.3388504999998,384.3219932000002,384.32203290000007,384.3388504999998,384.3388504999998,384.3388504999998,,385.80858910000006,right,1.0,33.257090999999946,,,,,,,,,,,,,,,,,,,,,,,,,,,,,,,sub-027,1.0,random_dot,60.166697853021454,
right,right,speed,,,,,0.0,1.0,1.0,1.0,12.0,0.0,24.0,1.0,385.8217948000001,,,,,,,,,385.8106800000001,387.0223578,387.8244381,387.8077911,387.80785890000016,387.8244381,387.8244381,387.8244381,,388.9447178999999,right,1.0,32.91136310000002,,,,,,,,,,,,,,,,,,,,,,,,,,,,,,,sub-027,1.0,random_dot,60.166697853021454,
left,left,speed,,,,,0.0,1.0,1.0,1.0,12.0,1.0,25.0,0.0,388.9570853,,,,,,,,,388.9465359999999,389.7580214,390.55976770000007,390.5435481,390.5435944999999,390.55976770000007,390.55976770000007,390.55976770000007,,391.7293205000001,left,1.0,32.95779060000041,,,,,,,,,,,,,,,,,,,,,,,,,,,,,,,sub-027,1.0,random_dot,60.166697853021454,
right,right,speed,,,,,0.0,1.0,1.0,1.0,13.0,0.0,26.0,1.0,391.7424519000001,,,,,,,,,391.73138949999975,392.94328540000015,393.7452460999998,393.7282630999998,393.72830680000015,393.7452460999998,393.7452460999998,393.7452460999998,,394.4647952999999,right,1.0,32.51123409999991,,,,,,,,,,,,,,,,,,,,,,,,,,,,,,,sub-027,1.0,random_dot,60.166697853021454,
left,left,speed,,,,,0.0,1.0,1.0,1.0,13.0,1.0,27.0,0.0,394.47773879999977,,,,,,,,,394.46702049999976,394.57789539999976,395.3796459,395.3630555999998,395.3630954,395.3796459,395.3796459,395.3796459,,396.3158970999998,right,0.0,32.71621060000007,,,,,,,,,,,,,,,,,,,,,,,,,,,,,,,sub-027,1.0,random_dot,60.166697853021454,
right,right,speed,,,,,0.0,1.0,1.0,1.0,14.0,0.0,28.0,1.0,396.3292019999999,,,,,,,,,396.3178131999998,397.12988069999983,397.9315379999998,397.9157083999999,397.9157623000001,397.9315379999998,397.9315379999998,397.9315379999998,,398.7342958999998,right,1.0,32.58435079999981,,,,,,,,,,,,,,,,,,,,,,,,,,,,,,,sub-027,1.0,random_dot,60.166697853021454,
left,left,speed,,,,,0.0,1.0,1.0,1.0,14.0,1.0,29.0,0.0,398.74719330000016,,,,,,,,,398.73625630000015,399.0976556999999,399.8993211000002,399.88261090000015,399.8826555999999,399.8993211000002,399.8993211000002,399.8993211000002,,400.7022603,right,0.0,32.58754779999981,,,,,,,,,,,,,,,,,,,,,,,,,,,,,,,sub-027,1.0,random_dot,60.166697853021454,
left,left,speed,,,,,0.0,1.0,1.0,1.0,15.0,0.0,30.0,0.0,400.7155088,,,,,,,,,400.7044323,401.91605100000015,402.7180899,402.7014027999999,402.7014522,402.7180899,402.7180899,402.7180899,,404.2217310000001,left,1.0,33.29842210000015,,,,,,,,,,,,,,,,,,,,,,,,,,,,,,,sub-027,1.0,random_dot,60.166697853021454,
right,right,speed,,,,,0.0,1.0,1.0,1.0,15.0,1.0,31.0,1.0,404.2344056000002,,,,,,,,,404.2236879000002,405.43518630000017,406.23765330000015,406.22052589999976,406.2205761,406.23765330000015,406.23765330000015,406.23765330000015,,408.6414424999998,right,1.0,34.18941720000021,,,,,,,,,,,,,,,,,,,,,,,,,,,,,,,sub-027,1.0,random_dot,60.166697853021454,
left,left,speed,,,,,0.0,1.0,1.0,1.0,16.0,0.0,32.0,0.0,408.6540844000001,,,,,,,,,408.6435209000001,409.00436690000015,409.8062973000001,409.7895948,409.7896397999998,409.8062973000001,409.8062973000001,409.8062973000001,,410.5589817,left,1.0,32.539814000000206,,,,,,,,,,,,,,,,,,,,,,,,,,,,,,,sub-027,1.0,random_dot,60.166697853021454,
right,right,speed,,,,,0.0,1.0,1.0,1.0,16.0,1.0,33.0,1.0,410.5723416999999,,,,,,,,,410.5609893999999,411.3730845999999,412.1748677000001,412.1577775999999,412.1578208000001,412.1748677000001,412.1748677000001,412.1748677000001,,413.9779604999999,left,0.0,33.59131900000011,,,,,,,,,,,,,,,,,,,,,,,,,,,,,,,sub-027,1.0,random_dot,60.166697853021454,
left,left,speed,,,,,0.0,1.0,1.0,1.0,17.0,0.0,34.0,0.0,413.99123819999977,,,,,,,,,413.9801818000001,415.1920166,415.9939737999998,415.9774275999998,415.9774676000002,415.9939737999998,415.9939737999998,415.9939737999998,,417.88149029999977,left,1.0,33.672731699999986,,,,,,,,,,,,,,,,,,,,,,,,,,,,,,,sub-027,1.0,random_dot,60.166697853021454,
right,right,speed,,,,,0.0,1.0,1.0,1.0,17.0,1.0,35.0,1.0,417.8938242999998,,,,,,,,,417.8836157999999,419.0948103999999,419.8968028999998,419.8803217,419.8803665,419.8968028999998,419.8968028999998,419.8968028999998,,421.3168996,right,1.0,33.2100190000001,,,,,,,,,,,,,,,,,,,,,,,,,,,,,,,sub-027,1.0,random_dot,60.166697853021454,
left,left,speed,,,,,0.0,1.0,1.0,1.0,18.0,0.0,36.0,0.0,421.3296065,,,,,,,,,421.3191327999998,422.13127209999993,422.9319464,422.9158183,422.9158576,422.9319464,422.9319464,422.9319464,,424.1018583999999,left,1.0,32.964073100000405,,,,,,,,,,,,,,,,,,,,,,,,,,,,,,,sub-027,1.0,random_dot,60.166697853021454,
right,right,speed,,,,,0.0,1.0,1.0,1.0,18.0,1.0,37.0,1.0,424.1147971999999,,,,,,,,,424.1038629999998,424.2149380000001,425.0171030000001,425.0005870999999,425.0006244000001,425.0171030000001,425.0171030000001,425.0171030000001,,426.3205066,right,1.0,33.09880949999979,,,,,,,,,,,,,,,,,,,,,,,,,,,,,,,sub-027,1.0,random_dot,60.166697853021454,
left,left,speed,,,,,0.0,1.0,1.0,1.0,19.0,0.0,38.0,0.0,426.3329841,,,,,,,,,426.3227731000002,427.1341441,427.9356164999999,427.9198061000002,427.91985609999983,427.9356164999999,427.9356164999999,427.9356164999999,,428.75812570000016,right,0.0,32.600380100000166,,,,,,,,,,,,,,,,,,,,,,,,,,,,,,,sub-027,1.0,random_dot,60.166697853021454,
right,right,speed,,,,,0.0,1.0,1.0,1.0,19.0,1.0,39.0,1.0,428.7685483,,,,,,,,,428.75910829999975,429.11802480000006,429.9202239000001,429.9033141,429.90336990000014,429.9202239000001,429.9202239000001,429.9202239000001,,431.79063929999984,right,1.0,33.65629919999992,,,,,,,,,,,,,,,,,,,,,,,,,,,,,,,sub-027,1.0,random_dot,60.166697853021454,
left,left,speed,,,,,0.0,1.0,1.0,1.0,20.0,0.0,40.0,0.0,431.80355359999976,,,,,,,,,431.7938275000001,431.9035336000002,432.70532950000006,432.6884154,432.6884501,432.70532950000006,432.70532950000006,432.70532950000006,,433.6917122,left,1.0,32.770680000000084,,,,,,,,,,,,,,,,,,,,,,,,,,,,,,,sub-027,1.0,random_dot,60.166697853021454,
right,right,speed,,,,,0.0,1.0,1.0,1.0,20.0,1.0,41.0,1.0,433.7049581000001,,,,,,,,,433.6942828000001,434.05511579999984,434.8570703999999,434.8403024999998,434.8403377999998,434.8570703999999,434.8570703999999,434.8570703999999,,436.7610731999998,right,1.0,33.6992381,,,,,,,,,,,,,,,,,,,,,,,,,,,,,,,sub-027,1.0,random_dot,60.166697853021454,
right,right,speed,,,,,0.0,1.0,1.0,1.0,21.0,0.0,42.0,1.0,436.7735756000002,,,,,,,,,436.7632914999999,437.1240954,437.9261897000001,437.9092875000001,437.90933970000015,437.9261897000001,437.9261897000001,437.9261897000001,,440.7306171,left,0.0,34.60005140000021,,,,,,,,,,,,,,,,,,,,,,,,,,,,,,,sub-027,1.0,random_dot,60.166697853021454,
left,left,speed,,,,,0.0,1.0,1.0,1.0,21.0,1.0,43.0,0.0,440.7433651000001,,,,,,,,,440.73267780000015,441.5435072999999,442.34597369999983,442.3289085000001,442.32895009999993,442.34597369999983,442.34597369999983,442.34597369999983,,443.8990930999999,left,1.0,33.34014810000008,,,,,,,,,,,,,,,,,,,,,,,,,,,,,,,sub-027,1.0,random_dot,60.166697853021454,
left,left,speed,,,,,0.0,1.0,1.0,1.0,22.0,0.0,44.0,0.0,443.91185080000014,,,,,,,,,443.9017017000001,444.2621558000001,445.0640521,445.0475468,445.04758790000005,445.0640521,445.0640521,445.0640521,,446.8671390999998,right,0.0,33.592960100000255,,,,,,,,,,,,,,,,,,,,,,,,,,,,,,,sub-027,1.0,random_dot,60.166697853021454,
right,right,speed,,,,,0.0,1.0,1.0,1.0,22.0,1.0,45.0,1.0,446.8806571999999,,,,,,,,,446.86891860000014,447.6811419999999,448.4830978,448.4666305999999,448.4666696999998,448.4830978,448.4830978,448.4830978,,450.57014249999975,right,1.0,33.873292799999945,,,,,,,,,,,,,,,,,,,,,,,,,,,,,,,sub-027,1.0,random_dot,60.166697853021454,
right,right,speed,,,,,0.0,1.0,1.0,1.0,23.0,0.0,46.0,1.0,450.5830793999999,,,,,,,,,450.5723133000001,451.78391150000016,452.5860545999999,452.5692979999999,452.5693369999999,452.5860545999999,452.5860545999999,452.5860545999999,,454.15628609999976,left,0.0,33.35001920000013,,,,,,,,,,,,,,,,,,,,,,,,,,,,,,,sub-027,1.0,random_dot,60.166697853021454,
left,left,speed,,,,,0.0,1.0,1.0,1.0,23.0,1.0,47.0,0.0,454.1693494000001,,,,,,,,,454.1581013,454.2693952999998,455.07104070000014,455.0544114,455.05444750000015,455.07104070000014,455.07104070000014,455.07104070000014,,455.7902221,left,1.0,32.5052241999997,,,,,,,,,,,,,,,,,,,,,,,,,,,,,,,sub-027,1.0,random_dot,60.166697853021454,
right,right,speed,,,,,0.0,1.0,1.0,1.0,24.0,0.0,48.0,1.0,455.8037104,,,,,,,,,455.7923116000002,455.90346199999976,456.70565110000007,456.6888684999999,456.6889074999999,456.70565110000007,456.70565110000007,456.70565110000007,,458.0924098,right,1.0,33.18053540000028,,,,,,,,,,,,,,,,,,,,,,,,,,,,,,,sub-027,1.0,random_dot,60.166697853021454,
left,left,speed,,,,,0.0,1.0,1.0,1.0,24.0,1.0,49.0,0.0,458.10512119999976,,,,,,,,,458.0945563999999,458.2056097999998,459.0071825999999,458.9904940000001,458.99054620000015,459.0071825999999,459.0071825999999,459.0071825999999,,460.7105915000002,left,1.0,33.49932669999998,,,,,,,,,,,,,,,,,,,,,,,,,,,,,,,sub-027,1.0,random_dot,60.166697853021454,
right,right,speed,,,,,0.0,1.0,1.0,1.0,25.0,0.0,50.0,1.0,460.7237255,,,,,,,,,460.7129356999999,461.9249746999999,462.7262473999999,462.7098111999999,462.7098624999999,462.7262473999999,462.7262473999999,462.7262473999999,,463.3814403000001,right,1.0,32.440154599999914,,,,,,,,,,,,,,,,,,,,,,,,,,,,,,,sub-027,1.0,random_dot,60.166697853021454,
left,left,speed,,,,,0.0,1.0,1.0,1.0,25.0,1.0,51.0,0.0,463.3920349,,,,,,,,,463.3833872999999,464.592987,465.3952014000001,465.3783026000001,465.3783524,465.3952014000001,465.3952014000001,465.3952014000001,,466.7143802999999,right,0.0,33.10091599999987,,,,,,,,,,,,,,,,,,,,,,,,,,,,,,,sub-027,1.0,random_dot,60.166697853021454,
right,right,speed,,,,,0.0,1.0,1.0,1.0,26.0,0.0,52.0,1.0,466.7276302999999,,,,,,,,,466.7177424000001,466.8276443999998,467.63005859999976,467.6130063999999,467.613046,467.63005859999976,467.63005859999976,467.63005859999976,,469.2330603,left,0.0,33.386619599999904,,,,,,,,,,,,,,,,,,,,,,,,,,,,,,,sub-027,1.0,random_dot,60.166697853021454,
left,left,speed,,,,,0.0,1.0,1.0,1.0,26.0,1.0,53.0,0.0,469.2460544999999,,,,,,,,,469.2359311999999,470.44712279999976,471.2491169,471.2324294,471.2324700999998,471.2491169,471.2491169,471.2491169,,472.6683349,left,1.0,33.208037200000035,,,,,,,,,,,,,,,,,,,,,,,,,,,,,,,sub-027,1.0,random_dot,60.166697853021454,
left,left,speed,,,,,0.0,1.0,1.0,1.0,27.0,0.0,54.0,0.0,472.6818948999999,,,,,,,,,472.6706451999999,472.7822913999999,473.5840091999999,473.56775979999975,473.5678051,473.5840091999999,473.5840091999999,473.5840091999999,,474.5864179,left,1.0,32.782724300000154,,,,,,,,,,,,,,,,,,,,,,,,,,,,,,,sub-027,1.0,random_dot,60.166697853021454,
right,right,speed,,,,,0.0,1.0,1.0,1.0,27.0,1.0,55.0,1.0,474.59972149999976,,,,,,,,,474.5888347,474.7002161,475.5019280000001,475.4853678,475.4854086999999,475.5019280000001,475.5019280000001,475.5019280000001,,476.5063061000001,right,1.0,32.795153200000186,,,,,,,,,,,,,,,,,,,,,,,,,,,,,,,sub-027,1.0,random_dot,60.166697853021454,
left,left,speed,,,,,0.0,1.0,1.0,1.0,28.0,0.0,56.0,0.0,476.5182574999999,,,,,,,,,476.50842479999983,476.8679984999999,477.67030879999993,477.6536707999999,477.6537100999999,477.67030879999993,477.67030879999993,477.67030879999993,,478.6394316000001,left,1.0,32.75605210000003,,,,,,,,,,,,,,,,,,,,,,,,,,,,,,,sub-027,1.0,random_dot,60.166697853021454,
right,right,speed,,,,,0.0,1.0,1.0,1.0,28.0,1.0,57.0,1.0,478.6553248999999,,,,,,,,,478.6416771999998,479.4534171,480.2553684999998,480.23957949999976,480.2396232000001,480.2553684999998,480.2553684999998,480.2553684999998,,481.2081051,right,1.0,32.741996499999914,,,,,,,,,,,,,,,,,,,,,,,,,,,,,,,sub-027,1.0,random_dot,60.166697853021454,
right,right,speed,,,,,0.0,1.0,1.0,1.0,29.0,0.0,58.0,1.0,481.2211416,,,,,,,,,481.21024780000016,481.571528,482.3733020999998,482.3566114,482.3566473000001,482.3733020999998,482.3733020999998,482.3733020999998,,483.3093187999998,left,0.0,32.72324439999966,,,,,,,,,,,,,,,,,,,,,,,,,,,,,,,sub-027,1.0,random_dot,60.166697853021454,
left,left,speed,,,,,0.0,1.0,1.0,1.0,29.0,1.0,59.0,0.0,483.3228242999999,,,,,,,,,483.31098680000014,484.5234237,485.32578090000015,485.3086239999998,485.30867880000005,485.32578090000015,485.32578090000015,485.32578090000015,,486.51175980000016,left,1.0,32.97107129999995,,,,,,,,,,,,,,,,,,,,,,,,,,,,,,,sub-027,1.0,random_dot,60.166697853021454,
,,speed,,,,,0.0,1.0,1.0,1.0,,,,,,,,,,,,,,,,,,,,,,,,,,,,,,,,,,,,,,,,,,,,,,,,,,,,,,,,,sub-027,1.0,random_dot,60.166697853021454,
,,,,,,,,,,,,,,,,,,,,,,,,,,,,,,,,,,,,,,,,,,,,,,,,,,,,,,,,,,,,,,,486.5131415999999,486.5249009999998,491.5286394,491.5130264999998,sub-027,,,,
