wordCTK,colorCTK,corrAnsCTK,congruentCTK,thisN,thisTrialN,thisRepN,keyResp_CTK.keys,keyResp_CTK.corr,keyResp_CTK.rt,keyResp_CTK.duration,wordPractice,colorPractice,corrAnsPractice,congruentPractice,respPractice.keys,respPractice.corr,respPractice.rt,respPractice.duration,word,color,corrAns,congruent,keyResp_test_run.keys,keyResp_test_run.corr,keyResp_test_run.rt,keyResp_test_run.duration,trials_CTK.thisRepN,trials_CTK.thisTrialN,trials_CTK.thisN,trials_CTK.thisIndex,trials_practice.thisRepN,trials_practice.thisTrialN,trials_practice.thisN,trials_practice.thisIndex,trials_test.thisRepN,trials_test.thisTrialN,trials_test.thisN,trials_test.thisIndex,thisRow.t,notes,instruction.started,instr_text.started,instr_image.started,instr_resp.started,instruction.stopped,instr_resp.keys,instr_resp.rt,instr_resp.duration,instr_color_to_key.started,instr_ctk.started,resp_ctk.started,instr_color_to_key.stopped,resp_ctk.keys,resp_ctk.rt,resp_ctk.duration,ITI.started,fixcross.started,fixcross.stopped,ITI.stopped,color_to_key_run.started,stimulus_CTK.started,keyResp_CTK.started,color_to_key_run.stopped,trials_CTK.keyResp_CTK.keys,trials_CTK.keyResp_CTK.corr,trials_CTK.keyResp_CTK.rt,trials_CTK.keyResp_CTK.duration,instr_practice.started,instr_practice_text.started,instr_practice_resp.started,instr_practice.stopped,instr_practice_resp.keys,instr_practice_resp.rt,instr_practice_resp.duration,practice_run.started,stimulus_practice.started,respPractice.started,practice_run.stopped,trials_practice.respPractice.keys,trials_practice.respPractice.corr,trials_practice.respPractice.rt,trials_practice.respPractice.duration,feedback.started,textFeedback.started,textFeedback.stopped,feedback.stopped,instr_test.started,instr_test_text.started,instr_test_resp.started,instr_test.stopped,instr_test_resp.keys,instr_test_resp.rt,instr_test_resp.duration,test_run.started,stimulus_test_run.started,keyResp_test_run.started,test_run.stopped,trials_test.keyResp_test_run.keys,trials_test.keyResp_test_run.corr,trials_test.keyResp_test_run.rt,trials_test.keyResp_test_run.duration,goodbye.started,textGoodbye.started,goodbye.stopped,participant,session,expName,frameRate,Unnamed: 112
,,,,,,,,,,,,,,,,,,,,,,,,,,,,,,,,,,,,,,,,,0.0142606000299565,0.0309577999869361,0.0309577999869361,0.0309577999869361,77.9817021000199,space,77.90871879999759,,,,,,,,,,,,,,,,,,,,,,,,,,,,,,,,,,,,,,,,,,,,,,,,,,,,,,,,,,sub-066,1,stroop_test,59.9012587732769,
,,,,,,,,,,,,,,,,,,,,,,,,,,,,,,,,,,,,,,,,,,,,,,,,,77.98174760001712,77.99570949998451,77.99570949998451,89.84649130003527,space,11.835448700003326,,,,,,,,,,,,,,,,,,,,,,,,,,,,,,,,,,,,,,,,,,,,,,,,,,,sub-066,1,stroop_test,59.9012587732769,
test,blue,b,1.0,0.0,0.0,0.0,b,1.0,1.1351566999801437,,,,,,,,,,,,,,,,,,0.0,0.0,0.0,2.0,,,,,,,,,89.88002979999874,,,,,,,,,,,,,,,,,89.87487070000498,89.94938420003746,90.74824410001747,90.73261439998168,90.73727889999282,90.74824410001747,90.74824410001747,91.89947639999446,b,1.0,1.1351566999801437,,,,,,,,,,,,,,,,,,,,,,,,,,,,,,,,,,,,,,,sub-066,1,stroop_test,59.9012587732769,
test,yellow,g,1.0,1.0,1.0,0.0,g,1.0,1.7553374000126496,,,,,,,,,,,,,,,,,,0.0,1.0,1.0,1.0,,,,,,,,,91.91545840003528,,,,,,,,,,,,,,,,,91.899718700035,92.24912960000802,93.0495756000164,93.0331809000345,93.03359710000224,93.0495756000164,93.0495756000164,94.81619799998587,g,1.0,1.7553374000126496,,,,,,,,,,,,,,,,,,,,,,,,,,,,,,,,,,,,,,,sub-066,1,stroop_test,59.9012587732769,
test,red,r,1.0,2.0,2.0,0.0,r,1.0,0.6151323999511078,,,,,,,,,,,,,,,,,,0.0,2.0,2.0,0.0,,,,,,,,,94.83239669998876,,,,,,,,,,,,,,,,,94.81644840002993,94.91609549999704,95.71580579999136,95.69923989998642,95.69967860000908,95.71580579999136,95.71580579999136,96.33342740003718,r,1.0,0.6151323999511078,,,,,,,,,,,,,,,,,,,,,,,,,,,,,,,,,,,,,,,sub-066,1,stroop_test,59.9012587732769,
test,red,r,1.0,3.0,0.0,1.0,r,1.0,0.7667791999992914,,,,,,,,,,,,,,,,,,1.0,0.0,3.0,0.0,,,,,,,,,96.3491708000074,,,,,,,,,,,,,,,,,96.33366960001877,97.54934710002271,98.34898619999876,98.33297320001292,98.33327589998952,98.34898619999876,98.34898619999876,99.13242249999894,r,1.0,0.7667791999992914,,,,,,,,,,,,,,,,,,,,,,,,,,,,,,,,,,,,,,,sub-066,1,stroop_test,59.9012587732769,
test,yellow,g,1.0,4.0,1.0,1.0,g,1.0,1.2607343000127005,,,,,,,,,,,,,,,,,,1.0,1.0,4.0,1.0,,,,,,,,,99.14873379998608,,,,,,,,,,,,,,,,,99.13266080000903,99.2324466999853,100.03242689999752,100.01636509998934,100.01678370003356,100.03242689999752,100.03242689999752,101.29926790000172,g,1.0,1.2607343000127005,,,,,,,,,,,,,,,,,,,,,,,,,,,,,,,,,,,,,,,sub-066,1,stroop_test,59.9012587732769,
test,blue,b,1.0,5.0,2.0,1.0,b,1.0,0.4534028999623842,,,,,,,,,,,,,,,,,,1.0,2.0,5.0,2.0,,,,,,,,,101.31555190001382,,,,,,,,,,,,,,,,,101.29950020002434,101.64912100002402,102.4486884000362,102.43325440003537,102.43365800002356,102.4486884000362,102.4486884000362,102.91631880000932,b,1.0,0.4534028999623842,,,,,,,,,,,,,,,,,,,,,,,,,,,,,,,,,,,,,,,sub-066,1,stroop_test,59.9012587732769,
test,red,r,1.0,6.0,0.0,2.0,r,1.0,0.6719265999854542,,,,,,,,,,,,,,,,,,2.0,0.0,6.0,0.0,,,,,,,,,102.93232500000158,,,,,,,,,,,,,,,,,102.91652810003144,103.0157176000066,103.8156001000316,103.79951410001377,103.799863799999,103.8156001000316,103.8156001000316,104.49903850001284,r,1.0,0.6719265999854542,,,,,,,,,,,,,,,,,,,,,,,,,,,,,,,,,,,,,,,sub-066,1,stroop_test,59.9012587732769,
test,blue,b,1.0,7.0,1.0,2.0,b,1.0,1.1810215000296012,,,,,,,,,,,,,,,,,,2.0,1.0,7.0,2.0,,,,,,,,,104.51554819999728,,,,,,,,,,,,,,,,,104.49930070003028,104.84909989999142,105.64872669999022,105.63271839998195,105.63322429999243,105.64872669999022,105.64872669999022,106.83291070000269,b,1.0,1.1810215000296012,,,,,,,,,,,,,,,,,,,,,,,,,,,,,,,,,,,,,,,sub-066,1,stroop_test,59.9012587732769,
test,yellow,g,1.0,8.0,2.0,2.0,g,1.0,0.9369803000008688,,,,,,,,,,,,,,,,,,2.0,2.0,8.0,1.0,,,,,,,,,106.84897490002912,,,,,,,,,,,,,,,,,106.83319269999627,108.04839609999908,108.84861009998713,108.83239589998266,108.8328082000371,108.84861009998713,108.84861009998713,109.79885000002103,g,1.0,0.9369803000008688,,,,,,,,,,,,,,,,,,,,,,,,,,,,,,,,,,,,,,,sub-066,1,stroop_test,59.9012587732769,
test,blue,b,1.0,9.0,0.0,3.0,b,1.0,0.9231971999979578,,,,,,,,,,,,,,,,,,3.0,0.0,9.0,2.0,,,,,,,,,109.815149400034,,,,,,,,,,,,,,,,,109.79908289999004,110.14881069998955,110.94900359999156,110.93233959999634,110.93271710001864,110.94900359999156,110.94900359999156,111.88242989999708,b,1.0,0.9231971999979578,,,,,,,,,,,,,,,,,,,,,,,,,,,,,,,,,,,,,,,sub-066,1,stroop_test,59.9012587732769,
test,red,r,1.0,10.0,1.0,3.0,r,1.0,0.777832199994009,,,,,,,,,,,,,,,,,,3.0,1.0,10.0,0.0,,,,,,,,,111.89837940002326,,,,,,,,,,,,,,,,,111.88272110000251,112.23195250000572,113.03182580001884,113.0156121000182,113.01602949999506,113.03182580001884,113.03182580001884,113.81588110001758,r,1.0,0.777832199994009,,,,,,,,,,,,,,,,,,,,,,,,,,,,,,,,,,,,,,,sub-066,1,stroop_test,59.9012587732769,
test,yellow,g,1.0,11.0,2.0,3.0,g,1.0,0.808734500024002,,,,,,,,,,,,,,,,,,3.0,2.0,11.0,1.0,,,,,,,,,113.832113499986,,,,,,,,,,,,,,,,,113.8161421000259,115.01514339999994,115.81503619998692,115.79890659998637,115.799330800015,115.81503619998692,115.81503619998692,116.63242720003473,g,1.0,0.808734500024002,,,,,,,,,,,,,,,,,,,,,,,,,,,,,,,,,,,,,,,sub-066,1,stroop_test,59.9012587732769,
,,,,,,,,,,,,,,,,,,,,,,,,,,,,,,,,,,,,,,,,,,,,,,,,,,,,,,,,,,,,,,,,,,,,116.6325491000316,116.6486766000162,116.6486766000162,122.23231019999366,space,5.567043200018816,,,,,,,,,,,,,,,,,,,,,,,,,,,,,,,,sub-066,1,stroop_test,59.9012587732769,
,,,,0.0,0.0,0.0,,,,,rot,yellow,g,0.0,r,0.0,1.3262626000214368,,,,,,,,,,,,,,0.0,0.0,0.0,3.0,,,,,122.26109570002882,,,,,,,,,,,,,,,,,122.24631499999668,123.04500839998946,123.8444848000072,123.82871999999044,,,,,,,,,,,,,,,,123.83203789999244,123.8444848000072,123.8444848000072,125.17901439999696,r,0.0,1.3262626000214368,,125.18460680003044,125.19439640000928,126.1958304999862,126.17887539998628,,,,,,,,,,,,,,,,,,,sub-066,1,stroop_test,59.9012587732769,
,,,,1.0,1.0,0.0,,,,,gelb,blue,b,0.0,b,1.0,1.1893926999764517,,,,,,,,,,,,,,0.0,1.0,1.0,9.0,,,,,126.1958304999862,,,,,,,,,,,,,,,,,126.17916790000164,126.97834119998151,127.77812040003482,127.76267780002672,,,,,,,,,,,,,,,,127.76685640000504,127.77812040003482,127.77812040003482,128.97972890001256,b,1.0,1.1893926999764517,,128.98293990001548,128.99441560002742,129.99551899998914,129.97955089999596,,,,,,,,,,,,,,,,,,,sub-066,1,stroop_test,59.9012587732769,
,,,,2.0,2.0,0.0,,,,,gelb,yellow,g,1.0,g,1.0,0.7884986000135541,,,,,,,,,,,,,,0.0,2.0,2.0,11.0,,,,,129.99551899998914,,,,,,,,,,,,,,,,,129.97980630001985,130.0783170000068,130.87757700000657,130.8623739000177,,,,,,,,,,,,,,,,130.8627293999889,130.87757700000657,130.87757700000657,131.6790544000105,g,1.0,0.7884986000135541,,131.67937760002678,131.69420289999107,132.695387499989,132.6789499000297,,,,,,,,,,,,,,,,,,,sub-066,1,stroop_test,59.9012587732769,
,,,,3.0,3.0,0.0,,,,,blau,red,r,0.0,r,1.0,0.5499559000018053,,,,,,,,,,,,,,0.0,3.0,3.0,4.0,,,,,132.695387499989,,,,,,,,,,,,,,,,,132.67919470003108,133.02814559999388,133.82758260000264,133.81249710003613,,,,,,,,,,,,,,,,133.8152649999829,133.82758260000264,133.82758260000264,134.37888199998997,r,1.0,0.5499559000018053,,134.37920490000397,134.39498819998698,135.3953695000382,135.37896970001748,,,,,,,,,,,,,,,,,,,sub-066,1,stroop_test,59.9012587732769,
,,,,4.0,4.0,0.0,,,,,gelb,yellow,g,1.0,g,1.0,0.7400143999839202,,,,,,,,,,,,,,0.0,4.0,4.0,10.0,,,,,135.3953695000382,,,,,,,,,,,,,,,,,135.37921420001658,135.72851700003957,136.52757069998188,136.5123348000343,,,,,,,,,,,,,,,,136.5145319000003,136.52757069998188,136.52757069998188,137.27908960002242,g,1.0,0.7400143999839202,,137.27940300002228,137.2959754000185,,138.2952168000047,,,,,,,,,,,,,,,,,,,sub-066,1,stroop_test,59.9012587732769,
,,,,5.0,5.0,0.0,,,,,gelb,red,r,0.0,r,1.0,1.6327609999570996,,,,,,,,,,,,,,0.0,5.0,5.0,8.0,,,,,138.31157590000657,,,,,,,,,,,,,,,,,138.29546320001828,138.64484239998274,139.44556510000257,139.4289100000169,,,,,,,,,,,,,,,,139.42927880003117,139.44556510000257,139.44556510000257,141.0792960000108,r,1.0,1.6327609999570996,,141.07960350002395,141.0941068000393,142.0950104999938,142.07864419999532,,,,,,,,,,,,,,,,,,,sub-066,1,stroop_test,59.9012587732769,
,,,,6.0,6.0,0.0,,,,,blau,blue,b,1.0,b,1.0,0.6890631999704055,,,,,,,,,,,,,,0.0,6.0,6.0,6.0,,,,,142.0950104999938,,,,,,,,,,,,,,,,,142.07888089999324,142.17876089998754,142.97780739999143,142.96179380000103,,,,,,,,,,,,,,,,142.96342739998363,142.97780739999143,142.97780739999143,143.67891070002224,b,1.0,0.6890631999704055,,143.6792469000211,143.69435589999193,144.6952538000187,144.67863799998304,,,,,,,,,,,,,,,,,,,sub-066,1,stroop_test,59.9012587732769,
,,,,7.0,7.0,0.0,,,,,blau,blue,b,1.0,b,1.0,0.8006001000176184,,,,,,,,,,,,,,0.0,7.0,7.0,5.0,,,,,144.6952538000187,,,,,,,,,,,,,,,,,144.67888630001107,145.87855429999763,146.6788567000185,146.662292300025,,,,,,,,,,,,,,,,146.662646199984,146.6788567000185,146.6788567000185,147.49569180002436,b,1.0,0.8006001000176184,,147.4960083999904,147.51064280001447,148.51121409999905,148.49487890000455,,,,,,,,,,,,,,,,,,,sub-066,1,stroop_test,59.9012587732769,
,,,,8.0,8.0,0.0,,,,,rot,blue,b,0.0,b,1.0,0.904463200015016,,,,,,,,,,,,,,0.0,8.0,8.0,2.0,,,,,148.51121409999905,,,,,,,,,,,,,,,,,148.49515000003157,149.69484459998785,150.4941872000345,150.47878790000686,,,,,,,,,,,,,,,,150.48051700001815,150.4941872000345,150.4941872000345,151.4124453000259,b,1.0,0.904463200015016,,151.41275730001507,151.4269851000281,152.42772189999232,152.41125459998148,,,,,,,,,,,,,,,,,,,sub-066,1,stroop_test,59.9012587732769,
,,,,9.0,9.0,0.0,,,,,blau,yellow,g,0.0,g,1.0,0.8415940999984741,,,,,,,,,,,,,,0.0,9.0,9.0,7.0,,,,,152.42772189999232,,,,,,,,,,,,,,,,,152.41153600002872,152.77791699999943,153.57719660003204,153.56220470002154,,,,,,,,,,,,,,,,153.56389729998773,153.57719660003204,153.57719660003204,154.42915650003124,g,1.0,0.8415940999984741,,154.42964550002944,154.4441513000056,155.44444590003695,155.42845970002236,,,,,,,,,,,,,,,,,,,sub-066,1,stroop_test,59.9012587732769,
,,,,10.0,10.0,0.0,,,,,rot,red,r,1.0,r,1.0,0.414875199960079,,,,,,,,,,,,,,0.0,10.0,10.0,1.0,,,,,155.44444590003695,,,,,,,,,,,,,,,,,155.42871140001807,156.2445933999843,157.04416210000636,157.02874360000715,,,,,,,,,,,,,,,,157.0306733000325,157.04416210000636,157.04416210000636,157.4616094999947,r,1.0,0.414875199960079,,157.46192730002804,157.47851580003044,158.477972600027,158.46200070000486,,,,,,,,,,,,,,,,,,,sub-066,1,stroop_test,59.9012587732769,
,,,,11.0,11.0,0.0,,,,,rot,red,r,1.0,r,1.0,0.6051862000022084,,,,,,,,,,,,,,0.0,11.0,11.0,0.0,,,,,158.477972600027,,,,,,,,,,,,,,,,,158.46225069998764,159.26123370003188,160.0616674000048,160.0446959999972,,,,,,,,,,,,,,,,160.04503300000215,160.0616674000048,160.0616674000048,160.6781328000361,r,1.0,0.6051862000022084,,160.67847009998513,160.69422499998473,,161.67824969999492,,,,,,,,,,,,,,,,,,,sub-066,1,stroop_test,59.9012587732769,
,,,,12.0,0.0,1.0,,,,,rot,blue,b,0.0,b,1.0,0.6447359999874607,,,,,,,,,,,,,,1.0,0.0,12.0,2.0,,,,,161.69471860001795,,,,,,,,,,,,,,,,,161.6785482999985,162.47755800001323,163.27859410003293,163.26221509999596,,,,,,,,,,,,,,,,163.26257950003492,163.27859410003293,163.27859410003293,163.92837979999604,b,1.0,0.6447359999874607,,163.92875309998635,163.94437789998483,164.9440745000029,164.92800070001977,,,,,,,,,,,,,,,,,,,sub-066,1,stroop_test,59.9012587732769,
,,,,13.0,1.0,1.0,,,,,blau,blue,b,1.0,b,1.0,0.7227825000300072,,,,,,,,,,,,,,1.0,1.0,13.0,5.0,,,,,164.9440745000029,,,,,,,,,,,,,,,,,164.92828190000728,166.12725900002988,166.92848719999893,166.91114979999838,,,,,,,,,,,,,,,,166.9129735000315,166.92848719999893,166.92848719999893,167.6615238999948,b,1.0,0.7227825000300072,,167.66187750000972,167.6776011000038,168.67728430003626,168.66111759998603,,,,,,,,,,,,,,,,,,,sub-066,1,stroop_test,59.9012587732769,
,,,,14.0,2.0,1.0,,,,,gelb,red,r,0.0,r,1.0,0.6799747999757528,,,,,,,,,,,,,,1.0,2.0,14.0,8.0,,,,,168.67728430003626,,,,,,,,,,,,,,,,,168.661361400038,169.027328199998,169.8271571000223,169.81179900001734,,,,,,,,,,,,,,,,169.813751699985,169.8271571000223,169.8271571000223,170.511459500005,r,1.0,0.6799747999757528,,170.51181540003745,170.52704710001126,171.5278835000354,171.5117431000108,,,,,,,,,,,,,,,,,,,sub-066,1,stroop_test,59.9012587732769,
,,,,15.0,3.0,1.0,,,,,rot,red,r,1.0,r,1.0,0.6337063999962993,,,,,,,,,,,,,,1.0,3.0,15.0,0.0,,,,,171.5278835000354,,,,,,,,,,,,,,,,,171.51204830000643,171.8605181000312,172.6605287999846,172.644153500034,,,,,,,,,,,,,,,,172.64616489998298,172.6605287999846,172.6605287999846,173.29540170001565,r,1.0,0.6337063999962993,,173.29572009999538,173.3099905999843,174.31096450000769,174.2946660000016,,,,,,,,,,,,,,,,,,,sub-066,1,stroop_test,59.9012587732769,
,,,,16.0,4.0,1.0,,,,,gelb,yellow,g,1.0,g,1.0,0.7004009999800473,,,,,,,,,,,,,,1.0,4.0,16.0,10.0,,,,,174.31096450000769,,,,,,,,,,,,,,,,,174.29491430002963,175.51080630003707,176.30980809999164,176.29516129998956,,,,,,,,,,,,,,,,176.297797599982,176.30980809999164,176.30980809999164,177.01154010003663,g,1.0,0.7004009999800473,,177.01187019998906,177.0265642000013,178.02725340001052,178.0110101000173,,,,,,,,,,,,,,,,,,,sub-066,1,stroop_test,59.9012587732769,
,,,,17.0,5.0,1.0,,,,,gelb,blue,b,0.0,b,1.0,0.5397445000126027,,,,,,,,,,,,,,1.0,5.0,17.0,9.0,,,,,178.02725340001052,,,,,,,,,,,,,,,,,178.0112626000191,178.8275147000095,179.6276205999893,179.61087470001075,,,,,,,,,,,,,,,,179.61117739998735,179.6276205999893,179.6276205999893,180.17836259998148,b,1.0,0.5397445000126027,,180.1786718000076,180.19346280000173,181.1940338999848,181.1778534000041,,,,,,,,,,,,,,,,,,,sub-066,1,stroop_test,59.9012587732769,
,,,,18.0,6.0,1.0,,,,,blau,blue,b,1.0,b,1.0,0.6645348999882117,,,,,,,,,,,,,,1.0,6.0,18.0,6.0,,,,,181.1940338999848,,,,,,,,,,,,,,,,,181.1780979000032,181.27750840003137,182.07676170003836,182.0611284000333,,,,,,,,,,,,,,,,182.06381700001657,182.07676170003836,182.07676170003836,182.74424560001356,b,1.0,0.6645348999882117,,182.7445512000122,182.7614456000156,,183.76037430000724,,,,,,,,,,,,,,,,,,,sub-066,1,stroop_test,59.9012587732769,
,,,,19.0,7.0,1.0,,,,,blau,red,r,0.0,r,1.0,0.6706098999711685,,,,,,,,,,,,,,1.0,7.0,19.0,4.0,,,,,183.7769843999995,,,,,,,,,,,,,,,,,183.76067960000364,184.09394210000755,184.8944937000051,184.87770020001332,,,,,,,,,,,,,,,,184.87805669999216,184.8944937000051,184.8944937000051,185.57846280001104,r,1.0,0.6706098999711685,,185.5788035999867,185.59328810003356,186.5943982999888,186.57786980003584,,,,,,,,,,,,,,,,,,,sub-066,1,stroop_test,59.9012587732769,
,,,,20.0,8.0,1.0,,,,,blau,yellow,g,0.0,g,1.0,0.7312367999693379,,,,,,,,,,,,,,1.0,8.0,20.0,7.0,,,,,186.5943982999888,,,,,,,,,,,,,,,,,186.5781461999868,186.6934608999873,187.4927509999834,187.47823240002617,,,,,,,,,,,,,,,,187.47856200003295,187.4927509999834,187.4927509999834,188.22742170002311,g,1.0,0.7312367999693379,,188.22785570001,188.24440249998588,189.2437205000315,189.2277021000045,,,,,,,,,,,,,,,,,,,sub-066,1,stroop_test,59.9012587732769,
,,,,21.0,9.0,1.0,,,,,rot,red,r,1.0,r,1.0,0.5861554000293836,,,,,,,,,,,,,,1.0,9.0,21.0,1.0,,,,,189.2437205000315,,,,,,,,,,,,,,,,,189.22798800002784,189.32767929998224,190.1265572999837,190.11114480003016,,,,,,,,,,,,,,,,190.11284110002453,190.1265572999837,190.1265572999837,190.7283805999905,r,1.0,0.5861554000293836,,190.7286867999937,190.7428695000126,191.74423060001573,191.72776700003303,,,,,,,,,,,,,,,,,,,sub-066,1,stroop_test,59.9012587732769,
,,,,22.0,10.0,1.0,,,,,rot,yellow,g,0.0,g,1.0,0.7027285000076517,,,,,,,,,,,,,,1.0,10.0,22.0,3.0,,,,,191.74423060001573,,,,,,,,,,,,,,,,,191.728051699989,191.82663409999805,192.62607800000117,192.6107236000244,,,,,,,,,,,,,,,,192.61100309999887,192.62607800000117,192.62607800000117,193.344545800006,g,1.0,0.7027285000076517,,193.3449003000278,193.35972910001877,194.36059950001072,194.3448214000091,,,,,,,,,,,,,,,,,,,sub-066,1,stroop_test,59.9012587732769,
,,,,23.0,11.0,1.0,,,,,gelb,yellow,g,1.0,g,1.0,0.6157459000241943,,,,,,,,,,,,,,1.0,11.0,23.0,11.0,,,,,194.36059950001072,,,,,,,,,,,,,,,,,194.34509790001903,195.1439495999948,195.94260140002007,195.9269181999844,,,,,,,,,,,,,,,,195.92894010001328,195.94260140002007,195.94260140002007,196.5606121000019,g,1.0,0.6157459000241943,,196.56091380002908,196.5767882000073,197.57672860001912,197.5605355000007,,,,,,,,,,,,,,,,,,,sub-066,1,stroop_test,59.9012587732769,
,,,,,,,,,,,,,,,,,,,,,,,,,,,,,,,,,,,,,,,,,,,,,,,,,,,,,,,,,,,,,,,,,,,,,,,,,,,,,,,,,,,,,,,197.5606303000241,197.57672860001912,197.57672860001912,208.67708460002905,space,11.094074399967212,,,,,,,,,,,,,sub-066,1,stroop_test,59.9012587732769,
,,,,0.0,0.0,0.0,,,,,,,,,,,,,rot,yellow,g,0.0,g,1.0,0.862881799985189,,,,,,,,,,0.0,0.0,0.0,3.0,208.7090699999826,,,,,,,,,,,,,,,,,208.6994013999938,209.87663240003167,210.67576120002195,210.66075949999504,,,,,,,,,,,,,,,,,,,,,,,,,,,,,,,,,,,210.66257719998248,210.67576120002195,210.67576120002195,211.54404080001405,g,1.0,0.862881799985189,,,,,sub-066,1,stroop_test,59.9012587732769,
,,,,1.0,1.0,0.0,,,,,,,,,,,,,blau,blue,b,1.0,b,1.0,0.558755400008522,,,,,,,,,,0.0,1.0,1.0,6.0,211.5604755000095,,,,,,,,,,,,,,,,,211.5442605999997,211.8937353999936,212.69219229999,212.6765942000202,,,,,,,,,,,,,,,,,,,,,,,,,,,,,,,,,,,212.6782574999961,212.69219229999,212.69219229999,213.2604023999884,b,1.0,0.558755400008522,,,,,sub-066,1,stroop_test,59.9012587732769,
,,,,2.0,2.0,0.0,,,,,,,,,,,,,gelb,blue,b,0.0,b,1.0,0.6391898999572732,,,,,,,,,,0.0,2.0,2.0,9.0,213.27677320002115,,,,,,,,,,,,,,,,,213.26062970003116,213.3600824000314,214.15946400002576,214.14391720003917,,,,,,,,,,,,,,,,,,,,,,,,,,,,,,,,,,,214.14595169998935,214.15946400002576,214.15946400002576,214.8102151000057,b,1.0,0.6391898999572732,,,,,sub-066,1,stroop_test,59.9012587732769,
,,,,3.0,3.0,0.0,,,,,,,,,,,,,gelb,yellow,g,1.0,g,1.0,0.5353832999826409,,,,,,,,,,0.0,3.0,3.0,10.0,214.82631149998636,,,,,,,,,,,,,,,,,214.8104287000024,215.16009329998636,215.95969260000857,215.94333470001584,,,,,,,,,,,,,,,,,,,,,,,,,,,,,,,,,,,215.9437167000142,215.95969260000857,215.95969260000857,216.51017120003235,g,1.0,0.5353832999826409,,,,,sub-066,1,stroop_test,59.9012587732769,
,,,,4.0,4.0,0.0,,,,,,,,,,,,,rot,red,r,1.0,r,1.0,0.583348499960266,,,,,,,,,,0.0,4.0,4.0,1.0,216.52632140001515,,,,,,,,,,,,,,,,,216.51040100003596,217.70931720000223,218.50928870000644,218.4936539999908,,,,,,,,,,,,,,,,,,,,,,,,,,,,,,,,,,,218.4953372000018,218.50928870000644,218.50928870000644,219.0943383999984,r,1.0,0.583348499960266,,,,,sub-066,1,stroop_test,59.9012587732769,
,,,,5.0,5.0,0.0,,,,,,,,,,,,,blau,yellow,g,0.0,g,1.0,0.6997275999747217,,,,,,,,,,0.0,5.0,5.0,7.0,219.1103765000007,,,,,,,,,,,,,,,,,219.09455079998588,219.4602617000346,220.259232499986,220.2435873000068,,,,,,,,,,,,,,,,,,,,,,,,,,,,,,,,,,,220.2455615000217,220.259232499986,220.259232499986,220.9608472000109,g,1.0,0.6997275999747217,,,,,sub-066,1,stroop_test,59.9012587732769,
,,,,6.0,6.0,0.0,,,,,,,,,,,,,rot,red,r,1.0,r,1.0,0.5824727999861352,,,,,,,,,,0.0,6.0,6.0,0.0,220.976604400028,,,,,,,,,,,,,,,,,220.9612211000058,221.0596309999819,221.85909049998736,221.84380139998396,,,,,,,,,,,,,,,,,,,,,,,,,,,,,,,,,,,221.8455215999857,221.85909049998736,221.85909049998736,222.4436583000352,r,1.0,0.5824727999861352,,,,,sub-066,1,stroop_test,59.9012587732769,
,,,,7.0,7.0,0.0,,,,,,,,,,,,,gelb,red,r,0.0,r,1.0,0.6911432000342757,,,,,,,,,,0.0,7.0,7.0,8.0,222.45942400000055,,,,,,,,,,,,,,,,,222.44386200001463,223.2598233000026,224.05890870001167,224.04360700002871,,,,,,,,,,,,,,,,,,,,,,,,,,,,,,,,,,,224.0457718999824,224.05890870001167,224.05890870001167,224.7602630000329,r,1.0,0.6911432000342757,,,,,sub-066,1,stroop_test,59.9012587732769,
,,,,8.0,8.0,0.0,,,,,,,,,,,,,gelb,yellow,g,1.0,g,1.0,0.6553203000221401,,,,,,,,,,0.0,8.0,8.0,11.0,224.77612560003763,,,,,,,,,,,,,,,,,224.76049509999572,225.5594605000224,226.3602905999869,226.3438894000137,,,,,,,,,,,,,,,,,,,,,,,,,,,,,,,,,,,226.34427579998737,226.3602905999869,226.3602905999869,227.0266772999894,g,1.0,0.6553203000221401,,,,,sub-066,1,stroop_test,59.9012587732769,
,,,,9.0,9.0,0.0,,,,,,,,,,,,,rot,blue,b,0.0,b,1.0,0.8470469000167213,,,,,,,,,,0.0,9.0,9.0,2.0,227.04319599998416,,,,,,,,,,,,,,,,,227.02692249999384,227.12626910000108,227.9256542000221,227.91060840000864,,,,,,,,,,,,,,,,,,,,,,,,,,,,,,,,,,,227.9123556999839,227.9256542000221,227.9256542000221,228.7766855999944,b,1.0,0.8470469000167213,,,,,sub-066,1,stroop_test,59.9012587732769,
,,,,10.0,10.0,0.0,,,,,,,,,,,,,blau,red,r,0.0,r,1.0,0.735225000011269,,,,,,,,,,0.0,10.0,10.0,4.0,228.79248070000904,,,,,,,,,,,,,,,,,228.77695999998832,228.87631710001733,229.67581069999144,229.6601969000185,,,,,,,,,,,,,,,,,,,,,,,,,,,,,,,,,,,229.66192210000008,229.67581069999144,229.67581069999144,230.42628349998267,r,1.0,0.735225000011269,,,,,sub-066,1,stroop_test,59.9012587732769,
,,,,11.0,11.0,0.0,,,,,,,,,,,,,blau,blue,b,1.0,b,1.0,0.7925314999883994,,,,,,,,,,0.0,11.0,11.0,5.0,230.44245119998232,,,,,,,,,,,,,,,,,230.4265111000277,231.6257586000138,232.42656480002915,232.4095058999956,,,,,,,,,,,,,,,,,,,,,,,,,,,,,,,,,,,232.40986980003072,232.42656480002915,232.42656480002915,233.22657689999323,b,1.0,0.7925314999883994,,,,,sub-066,1,stroop_test,59.9012587732769,
,,,,12.0,0.0,1.0,,,,,,,,,,,,,gelb,red,r,0.0,r,1.0,0.6998520000488497,,,,,,,,,,1.0,0.0,12.0,8.0,233.2430475000292,,,,,,,,,,,,,,,,,233.22683020000116,234.4265929000103,235.2249277000083,235.2096400000155,,,,,,,,,,,,,,,,,,,,,,,,,,,,,,,,,,,235.21188010001788,235.2249277000083,235.2249277000083,235.92687339999247,r,1.0,0.6998520000488497,,,,,sub-066,1,stroop_test,59.9012587732769,
,,,,13.0,1.0,1.0,,,,,,,,,,,,,blau,red,r,0.0,r,1.0,0.5849740999983624,,,,,,,,,,1.0,1.0,13.0,4.0,235.9423346000258,,,,,,,,,,,,,,,,,235.92714230000277,236.02595199999632,236.8253657000023,236.80976820003707,,,,,,,,,,,,,,,,,,,,,,,,,,,,,,,,,,,236.8116120999912,236.8253657000023,236.8253657000023,237.42680030001796,r,1.0,0.5849740999983624,,,,,sub-066,1,stroop_test,59.9012587732769,
,,,,14.0,2.0,1.0,,,,,,,,,,,,,rot,yellow,g,0.0,g,1.0,0.6959223999874666,,,,,,,,,,1.0,2.0,14.0,3.0,237.44308970001293,,,,,,,,,,,,,,,,,237.4270304000238,237.52624740003372,238.32514100003755,238.3093197999988,,,,,,,,,,,,,,,,,,,,,,,,,,,,,,,,,,,238.31104270002103,238.32514100003755,238.32514100003755,239.02643860003445,g,1.0,0.6959223999874666,,,,,sub-066,1,stroop_test,59.9012587732769,
,,,,15.0,3.0,1.0,,,,,,,,,,,,,blau,yellow,g,0.0,g,1.0,0.4585351999849081,,,,,,,,,,1.0,3.0,15.0,7.0,239.0423843000317,,,,,,,,,,,,,,,,,239.02669630001765,239.8259025000152,240.6256300000241,240.6093861000263,,,,,,,,,,,,,,,,,,,,,,,,,,,,,,,,,,,240.61113780003507,240.6256300000241,240.6256300000241,241.0929058000329,g,1.0,0.4585351999849081,,,,,sub-066,1,stroop_test,59.9012587732769,
,,,,16.0,4.0,1.0,,,,,,,,,,,,,blau,blue,b,1.0,b,1.0,0.6703595000435598,,,,,,,,,,1.0,4.0,16.0,5.0,241.10907030000817,,,,,,,,,,,,,,,,,241.0931615000009,241.19256930000847,241.99236790003488,241.9759272999945,,,,,,,,,,,,,,,,,,,,,,,,,,,,,,,,,,,241.97626890003448,241.99236790003488,241.99236790003488,242.6759129000129,b,1.0,0.6703595000435598,,,,,sub-066,1,stroop_test,59.9012587732769,
,,,,17.0,5.0,1.0,,,,,,,,,,,,,rot,red,r,1.0,r,1.0,0.7761503999936394,,,,,,,,,,1.0,5.0,17.0,1.0,242.6923335000174,,,,,,,,,,,,,,,,,242.67614440002944,242.77550410002004,243.57472080003936,243.55979959998515,,,,,,,,,,,,,,,,,,,,,,,,,,,,,,,,,,,243.5615454000072,243.57472080003936,243.57472080003936,244.35950570000568,r,1.0,0.7761503999936394,,,,,sub-066,1,stroop_test,59.9012587732769,
,,,,18.0,6.0,1.0,,,,,,,,,,,,,rot,red,r,1.0,r,1.0,0.6787908000405878,,,,,,,,,,1.0,6.0,18.0,0.0,244.37549559999024,,,,,,,,,,,,,,,,,244.35977089998775,245.15932869998505,245.9589822000125,245.9426056999946,,,,,,,,,,,,,,,,,,,,,,,,,,,,,,,,,,,245.94305470003744,245.9589822000125,245.9589822000125,246.64290740003344,r,1.0,0.6787908000405878,,,,,sub-066,1,stroop_test,59.9012587732769,
,,,,19.0,7.0,1.0,,,,,,,,,,,,,gelb,blue,b,0.0,b,1.0,0.6003861000062898,,,,,,,,,,1.0,7.0,19.0,9.0,246.65868890000277,,,,,,,,,,,,,,,,,246.6431993999868,247.44205830001735,248.24155169998997,248.22603880002865,,,,,,,,,,,,,,,,,,,,,,,,,,,,,,,,,,,248.2283605000121,248.24155169998997,248.24155169998997,248.84297190001237,b,1.0,0.6003861000062898,,,,,sub-066,1,stroop_test,59.9012587732769,
,,,,20.0,8.0,1.0,,,,,,,,,,,,,rot,blue,b,0.0,b,1.0,0.5873559999745339,,,,,,,,,,1.0,8.0,20.0,2.0,248.85980540001765,,,,,,,,,,,,,,,,,248.8431928000064,250.04201849998208,250.84170380001888,250.82611050002745,,,,,,,,,,,,,,,,,,,,,,,,,,,,,,,,,,,250.82776840002043,250.84170380001888,250.84170380001888,251.4429229000234,b,1.0,0.5873559999745339,,,,,sub-066,1,stroop_test,59.9012587732769,
,,,,21.0,9.0,1.0,,,,,,,,,,,,,blau,blue,b,1.0,b,1.0,0.6185917000402696,,,,,,,,,,1.0,9.0,21.0,6.0,251.45890890003648,,,,,,,,,,,,,,,,,251.4431709999917,252.25870679999932,253.0578803999815,253.0425705999951,,,,,,,,,,,,,,,,,,,,,,,,,,,,,,,,,,,253.0442562000244,253.0578803999815,253.0578803999815,253.69313199998575,b,1.0,0.6185917000402696,,,,,sub-066,1,stroop_test,59.9012587732769,
,,,,22.0,10.0,1.0,,,,,,,,,,,,,gelb,yellow,g,1.0,g,1.0,0.5978625999996439,,,,,,,,,,1.0,10.0,22.0,10.0,253.70921689999523,,,,,,,,,,,,,,,,,253.6934429000248,253.79226230003405,254.5911361000035,254.57565449998947,,,,,,,,,,,,,,,,,,,,,,,,,,,,,,,,,,,254.57761370000665,254.5911361000035,254.5911361000035,255.19263559998944,g,1.0,0.5978625999996439,,,,,sub-066,1,stroop_test,59.9012587732769,
,,,,23.0,11.0,1.0,,,,,,,,,,,,,gelb,yellow,g,1.0,g,1.0,0.3843239999841898,,,,,,,,,,1.0,11.0,23.0,11.0,255.20856980001557,,,,,,,,,,,,,,,,,255.1928814999992,255.99175220000325,256.79195179999806,256.7756972000352,,,,,,,,,,,,,,,,,,,,,,,,,,,,,,,,,,,256.7760846000165,256.79195179999806,256.79195179999806,257.1922695999965,g,1.0,0.3843239999841898,,,,,sub-066,1,stroop_test,59.9012587732769,
,,,,24.0,0.0,2.0,,,,,,,,,,,,,gelb,blue,b,0.0,b,1.0,0.7567536999704316,,,,,,,,,,2.0,0.0,24.0,9.0,257.2085665999912,,,,,,,,,,,,,,,,,257.19248840003274,258.00770710001234,258.80782650003675,258.79158550000284,,,,,,,,,,,,,,,,,,,,,,,,,,,,,,,,,,,258.7918624000158,258.80782650003675,258.80782650003675,259.5754213000182,b,1.0,0.7567536999704316,,,,,sub-066,1,stroop_test,59.9012587732769,
,,,,25.0,1.0,2.0,,,,,,,,,,,,,blau,blue,b,1.0,b,1.0,0.6499406999791972,,,,,,,,,,2.0,1.0,25.0,6.0,259.5911690000212,,,,,,,,,,,,,,,,,259.57568200002424,259.92441660002805,260.7246370000066,260.70837240002584,,,,,,,,,,,,,,,,,,,,,,,,,,,,,,,,,,,260.7100151000195,260.7246370000066,260.7246370000066,261.3755093000364,b,1.0,0.6499406999791972,,,,,sub-066,1,stroop_test,59.9012587732769,
,,,,26.0,2.0,2.0,,,,,,,,,,,,,rot,yellow,g,0.0,g,1.0,0.6500662000034936,,,,,,,,,,2.0,2.0,26.0,3.0,261.3910708000185,,,,,,,,,,,,,,,,,261.3757609000313,262.57489109999733,263.3746280000196,263.35841320001055,,,,,,,,,,,,,,,,,,,,,,,,,,,,,,,,,,,263.3604955000337,263.3746280000196,263.3746280000196,264.02552170003764,g,1.0,0.6500662000034936,,,,,sub-066,1,stroop_test,59.9012587732769,
,,,,27.0,3.0,2.0,,,,,,,,,,,,,rot,blue,b,0.0,b,1.0,1.1631932000163945,,,,,,,,,,2.0,3.0,27.0,2.0,264.04126000002725,,,,,,,,,,,,,,,,,264.02578349999385,264.1249339000205,264.9246434000088,264.90826540003764,,,,,,,,,,,,,,,,,,,,,,,,,,,,,,,,,,,264.90861799998675,264.9246434000088,264.9246434000088,266.09181150002405,b,1.0,1.1631932000163945,,,,,sub-066,1,stroop_test,59.9012587732769,
,,,,28.0,4.0,2.0,,,,,,,,,,,,,gelb,red,r,0.0,r,1.0,0.4480799000011757,,,,,,,,,,2.0,4.0,28.0,8.0,266.10768930002814,,,,,,,,,,,,,,,,,266.09207750001224,266.89105380000547,267.6916935000336,267.6748718000017,,,,,,,,,,,,,,,,,,,,,,,,,,,,,,,,,,,267.6768890999956,267.6916935000336,267.6916935000336,268.1417078000377,r,1.0,0.4480799000011757,,,,,sub-066,1,stroop_test,59.9012587732769,
,,,,29.0,5.0,2.0,,,,,,,,,,,,,blau,yellow,g,0.0,g,1.0,0.7969953999854624,,,,,,,,,,2.0,5.0,29.0,7.0,268.1582967999857,,,,,,,,,,,,,,,,,268.1419416000135,268.24115690001054,269.040982800012,269.0247223000042,,,,,,,,,,,,,,,,,,,,,,,,,,,,,,,,,,,269.0263624000363,269.040982800012,269.040982800012,269.84178980003344,g,1.0,0.7969953999854624,,,,,sub-066,1,stroop_test,59.9012587732769,
,,,,30.0,6.0,2.0,,,,,,,,,,,,,rot,red,r,1.0,r,1.0,0.6020382999558933,,,,,,,,,,2.0,6.0,30.0,0.0,269.85770380002214,,,,,,,,,,,,,,,,,269.8420601999969,271.0409470000304,271.84090459998697,271.8246273000259,,,,,,,,,,,,,,,,,,,,,,,,,,,,,,,,,,,271.82641650002915,271.84090459998697,271.84090459998697,272.45828000002075,r,1.0,0.6020382999558933,,,,,sub-066,1,stroop_test,59.9012587732769,
,,,,31.0,7.0,2.0,,,,,,,,,,,,,blau,red,r,0.0,r,1.0,0.6780574999866076,,,,,,,,,,2.0,7.0,31.0,4.0,272.47426950000226,,,,,,,,,,,,,,,,,272.4585387000116,273.6575259999954,274.4577077000285,274.4412955000298,,,,,,,,,,,,,,,,,,,,,,,,,,,,,,,,,,,274.44297239999287,274.4577077000285,274.4577077000285,275.14169499999844,r,1.0,0.6780574999866076,,,,,sub-066,1,stroop_test,59.9012587732769,
,,,,32.0,8.0,2.0,,,,,,,,,,,,,blau,blue,b,1.0,b,1.0,0.74286120000761,,,,,,,,,,2.0,8.0,32.0,5.0,275.1576754000271,,,,,,,,,,,,,,,,,275.14194000000134,275.24101290002,276.0407538000145,276.0245312000043,,,,,,,,,,,,,,,,,,,,,,,,,,,,,,,,,,,276.0248532000114,276.0407538000145,276.0407538000145,276.79108870000346,b,1.0,0.74286120000761,,,,,sub-066,1,stroop_test,59.9012587732769,
,,,,33.0,9.0,2.0,,,,,,,,,,,,,gelb,yellow,g,1.0,g,1.0,1.1638622999889776,,,,,,,,,,2.0,9.0,33.0,10.0,276.80726530001266,,,,,,,,,,,,,,,,,276.7912937999936,277.1406672000303,277.9405003000284,277.924124400015,,,,,,,,,,,,,,,,,,,,,,,,,,,,,,,,,,,277.9264183000196,277.9405003000284,277.9405003000284,279.10792989999754,g,1.0,1.1638622999889776,,,,,sub-066,1,stroop_test,59.9012587732769,
,,,,34.0,10.0,2.0,,,,,,,,,,,,,rot,red,r,1.0,r,1.0,0.7492510000010952,,,,,,,,,,2.0,10.0,34.0,1.0,279.1238980999915,,,,,,,,,,,,,,,,,279.1082073000143,279.90768350003054,280.70783319999464,280.6910406000097,,,,,,,,,,,,,,,,,,,,,,,,,,,,,,,,,,,280.6926881999825,280.70783319999464,280.70783319999464,281.4582189000212,r,1.0,0.7492510000010952,,,,,sub-066,1,stroop_test,59.9012587732769,
,,,,35.0,11.0,2.0,,,,,,,,,,,,,gelb,yellow,g,1.0,g,1.0,0.6036594000179321,,,,,,,,,,2.0,11.0,35.0,11.0,281.47426310001174,,,,,,,,,,,,,,,,,281.4584765000036,281.80761299998267,282.6079649000312,282.59144879999803,,,,,,,,,,,,,,,,,,,,,,,,,,,,,,,,,,,282.5938199000084,282.6079649000312,282.6079649000312,283.2249242999824,g,1.0,0.6036594000179321,,,,,sub-066,1,stroop_test,59.9012587732769,
,,,,36.0,0.0,3.0,,,,,,,,,,,,,rot,red,r,1.0,r,1.0,0.6192660999950022,,,,,,,,,,3.0,0.0,36.0,0.0,283.24059930001386,,,,,,,,,,,,,,,,,283.2251569000073,284.44088449998526,285.24058280000463,285.2241960000247,,,,,,,,,,,,,,,,,,,,,,,,,,,,,,,,,,,285.2259181999834,285.24058280000463,285.24058280000463,285.8750369999907,r,1.0,0.6192660999950022,,,,,sub-066,1,stroop_test,59.9012587732769,
,,,,37.0,1.0,3.0,,,,,,,,,,,,,blau,blue,b,1.0,b,1.0,0.5742461999761872,,,,,,,,,,3.0,1.0,37.0,6.0,285.8912253000308,,,,,,,,,,,,,,,,,285.8752964999876,287.0902928999858,287.89106029999675,287.8745615000371,,,,,,,,,,,,,,,,,,,,,,,,,,,,,,,,,,,287.876308100007,287.89106029999675,287.89106029999675,288.47429440001724,b,1.0,0.5742461999761872,,,,,sub-066,1,stroop_test,59.9012587732769,
,,,,38.0,2.0,3.0,,,,,,,,,,,,,gelb,yellow,g,1.0,g,1.0,0.5910830000066198,,,,,,,,,,3.0,2.0,38.0,11.0,288.49059260002105,,,,,,,,,,,,,,,,,288.4745163000189,289.2737688000197,290.0737666999921,290.05789140000707,,,,,,,,,,,,,,,,,,,,,,,,,,,,,,,,,,,290.06018870003754,290.0737666999921,290.0737666999921,290.6743758000084,g,1.0,0.5910830000066198,,,,,sub-066,1,stroop_test,59.9012587732769,
,,,,39.0,3.0,3.0,,,,,,,,,,,,,gelb,blue,b,0.0,b,1.0,0.8563652000157163,,,,,,,,,,3.0,3.0,39.0,9.0,290.6909100000048,,,,,,,,,,,,,,,,,290.67462539998814,290.773822600022,291.57399330002954,291.5578395000193,,,,,,,,,,,,,,,,,,,,,,,,,,,,,,,,,,,291.5582132000127,291.57399330002954,291.57399330002954,292.4415880999877,b,1.0,0.8563652000157163,,,,,sub-066,1,stroop_test,59.9012587732769,
,,,,40.0,4.0,3.0,,,,,,,,,,,,,blau,blue,b,1.0,b,1.0,0.6036810000077821,,,,,,,,,,3.0,4.0,40.0,5.0,292.45728780003265,,,,,,,,,,,,,,,,,292.44184410001617,292.8068019000348,293.6074043000117,293.5912303000223,,,,,,,,,,,,,,,,,,,,,,,,,,,,,,,,,,,293.59294060000684,293.6074043000117,293.6074043000117,294.2249850000371,b,1.0,0.6036810000077821,,,,,sub-066,1,stroop_test,59.9012587732769,
,,,,41.0,5.0,3.0,,,,,,,,,,,,,blau,red,r,0.0,r,1.0,0.6479824999696575,,,,,,,,,,3.0,5.0,41.0,4.0,294.24020500003826,,,,,,,,,,,,,,,,,294.22520789998816,294.34037039999384,295.14021169999614,295.12398129998473,,,,,,,,,,,,,,,,,,,,,,,,,,,,,,,,,,,295.12432639999315,295.14021169999614,295.14021169999614,295.7906262000324,r,1.0,0.6479824999696575,,,,,sub-066,1,stroop_test,59.9012587732769,
,,,,42.0,6.0,3.0,,,,,,,,,,,,,blau,yellow,g,0.0,g,1.0,0.5078773000277579,,,,,,,,,,3.0,6.0,42.0,7.0,295.807161899982,,,,,,,,,,,,,,,,,295.7908881999901,296.59009150002385,297.3900817999965,297.3738249000162,,,,,,,,,,,,,,,,,,,,,,,,,,,,,,,,,,,297.37420120002935,297.3900817999965,297.3900817999965,297.90737590001663,g,1.0,0.5078773000277579,,,,,sub-066,1,stroop_test,59.9012587732769,
,,,,43.0,7.0,3.0,,,,,,,,,,,,,gelb,red,r,0.0,r,1.0,0.5674066999927163,,,,,,,,,,3.0,7.0,43.0,8.0,297.9234290000168,,,,,,,,,,,,,,,,,297.90764029999264,298.256744000013,299.0572222000337,299.0408029999817,,,,,,,,,,,,,,,,,,,,,,,,,,,,,,,,,,,299.0426894000266,299.0572222000337,299.0572222000337,299.6408035000204,r,1.0,0.5674066999927163,,,,,sub-066,1,stroop_test,59.9012587732769,
,,,,44.0,8.0,3.0,,,,,,,,,,,,,gelb,yellow,g,1.0,g,1.0,0.9655814999714494,,,,,,,,,,3.0,8.0,44.0,10.0,299.65749379998306,,,,,,,,,,,,,,,,,299.64103830000386,299.9900398000027,300.7900749000255,300.77401100000134,,,,,,,,,,,,,,,,,,,,,,,,,,,,,,,,,,,300.7744717000169,300.7900749000255,300.7900749000255,301.7572971000336,g,1.0,0.9655814999714494,,,,,sub-066,1,stroop_test,59.9012587732769,
,,,,45.0,9.0,3.0,,,,,,,,,,,,,rot,yellow,g,0.0,g,1.0,0.6269617000361905,,,,,,,,,,3.0,9.0,45.0,3.0,301.77368159999605,,,,,,,,,,,,,,,,,301.75755680003203,302.1067238000105,302.9066498000175,302.8910568000283,,,,,,,,,,,,,,,,,,,,,,,,,,,,,,,,,,,302.89276200003223,302.9066498000175,302.9066498000175,303.5407404000289,g,1.0,0.6269617000361905,,,,,sub-066,1,stroop_test,59.9012587732769,
,,,,46.0,10.0,3.0,,,,,,,,,,,,,rot,red,r,1.0,r,1.0,0.7950120999594219,,,,,,,,,,3.0,10.0,46.0,1.0,303.55680660001235,,,,,,,,,,,,,,,,,303.54100650001783,304.74046940001426,305.54037619999144,305.5241174999974,,,,,,,,,,,,,,,,,,,,,,,,,,,,,,,,,,,305.52449109999,305.54037619999144,305.54037619999144,306.3405078999931,r,1.0,0.7950120999594219,,,,,sub-066,1,stroop_test,59.9012587732769,
,,,,47.0,11.0,3.0,,,,,,,,,,,,,rot,blue,b,0.0,b,1.0,0.7384811000083573,,,,,,,,,,3.0,11.0,47.0,2.0,306.3567860000185,,,,,,,,,,,,,,,,,306.34076729998924,306.69033060001675,307.4905209999997,307.474108800001,,,,,,,,,,,,,,,,,,,,,,,,,,,,,,,,,,,307.4745345999836,307.4905209999997,307.4905209999997,308.24063810001826,b,1.0,0.7384811000083573,,,,,sub-066,1,stroop_test,59.9012587732769,
,,,,48.0,0.0,4.0,,,,,,,,,,,,,blau,blue,b,1.0,b,1.0,0.6518723999615759,,,,,,,,,,4.0,0.0,48.0,6.0,308.2569615999819,,,,,,,,,,,,,,,,,308.24092790001305,308.3399138000095,309.1400260000373,309.12409789999947,,,,,,,,,,,,,,,,,,,,,,,,,,,,,,,,,,,309.1262434000382,309.1400260000373,309.1400260000373,309.8070127000101,b,1.0,0.6518723999615759,,,,,sub-066,1,stroop_test,59.9012587732769,
,,,,49.0,1.0,4.0,,,,,,,,,,,,,rot,blue,b,0.0,b,1.0,0.4975929000065662,,,,,,,,,,4.0,1.0,49.0,2.0,309.823251600028,,,,,,,,,,,,,,,,,309.807272200007,311.0063955000369,311.80633160000434,311.79025870002806,,,,,,,,,,,,,,,,,,,,,,,,,,,,,,,,,,,311.7920027000364,311.80633160000434,311.80633160000434,312.30693600000814,b,1.0,0.4975929000065662,,,,,sub-066,1,stroop_test,59.9012587732769,
,,,,50.0,2.0,4.0,,,,,,,,,,,,,rot,red,r,1.0,r,1.0,0.6810514000244439,,,,,,,,,,4.0,2.0,50.0,1.0,312.3237636000267,,,,,,,,,,,,,,,,,312.30716780002695,313.50631670001894,314.3065521999961,314.2904991999967,,,,,,,,,,,,,,,,,,,,,,,,,,,,,,,,,,,314.29080519999843,314.3065521999961,314.3065521999961,314.9902770000044,r,1.0,0.6810514000244439,,,,,sub-066,1,stroop_test,59.9012587732769,
,,,,51.0,3.0,4.0,,,,,,,,,,,,,blau,red,r,0.0,r,1.0,0.6990880999946967,,,,,,,,,,4.0,3.0,51.0,4.0,315.0065425999928,,,,,,,,,,,,,,,,,314.9905557000311,316.1901298000012,316.98979570000665,316.97420300001977,,,,,,,,,,,,,,,,,,,,,,,,,,,,,,,,,,,316.9759612000198,316.98979570000665,316.98979570000665,317.6904710000381,r,1.0,0.6990880999946967,,,,,sub-066,1,stroop_test,59.9012587732769,
,,,,52.0,4.0,4.0,,,,,,,,,,,,,blau,yellow,g,0.0,g,1.0,0.7012047999887727,,,,,,,,,,4.0,4.0,52.0,7.0,317.7070382999955,,,,,,,,,,,,,,,,,317.6906815000111,317.7895974999992,318.5900995000265,318.5740824000095,,,,,,,,,,,,,,,,,,,,,,,,,,,,,,,,,,,318.57440600002883,318.5900995000265,318.5900995000265,319.30690650001634,g,1.0,0.7012047999887727,,,,,sub-066,1,stroop_test,59.9012587732769,
,,,,53.0,5.0,4.0,,,,,,,,,,,,,rot,red,r,1.0,r,1.0,0.7111915000132285,,,,,,,,,,4.0,5.0,53.0,0.0,319.3229022999876,,,,,,,,,,,,,,,,,319.3071575000067,320.5062084000092,321.3069581000018,321.2902921999921,,,,,,,,,,,,,,,,,,,,,,,,,,,,,,,,,,,321.29200329998275,321.3069581000018,321.3069581000018,322.0235622000182,r,1.0,0.7111915000132285,,,,,sub-066,1,stroop_test,59.9012587732769,
,,,,54.0,6.0,4.0,,,,,,,,,,,,,gelb,blue,b,0.0,b,1.0,0.6523411000380293,,,,,,,,,,4.0,6.0,54.0,9.0,322.040272800019,,,,,,,,,,,,,,,,,322.02380349999294,323.22278080001706,324.0232362000388,324.0069810000132,,,,,,,,,,,,,,,,,,,,,,,,,,,,,,,,,,,324.00887780002085,324.0232362000388,324.0232362000388,324.6898744000355,b,1.0,0.6523411000380293,,,,,sub-066,1,stroop_test,59.9012587732769,
,,,,55.0,7.0,4.0,,,,,,,,,,,,,blau,blue,b,1.0,b,1.0,0.5244003000552766,,,,,,,,,,4.0,7.0,55.0,5.0,324.7062178000342,,,,,,,,,,,,,,,,,324.6901344000362,325.0401225000387,325.8394155999995,325.823353499989,,,,,,,,,,,,,,,,,,,,,,,,,,,,,,,,,,,325.82540570001584,325.8394155999995,325.8394155999995,326.37330520001706,b,1.0,0.5244003000552766,,,,,sub-066,1,stroop_test,59.9012587732769,
,,,,56.0,8.0,4.0,,,,,,,,,,,,,rot,yellow,g,0.0,g,1.0,0.987611399963498,,,,,,,,,,4.0,8.0,56.0,3.0,326.389333900006,,,,,,,,,,,,,,,,,326.37359959998867,327.57263010001043,328.3726827999926,328.3564199000248,,,,,,,,,,,,,,,,,,,,,,,,,,,,,,,,,,,328.35799739998765,328.3726827999926,328.3726827999926,329.37323409999954,g,1.0,0.987611399963498,,,,,sub-066,1,stroop_test,59.9012587732769,
,,,,57.0,9.0,4.0,,,,,,,,,,,,,gelb,yellow,g,1.0,g,1.0,0.5744262000080198,,,,,,,,,,4.0,9.0,57.0,11.0,329.3892388000386,,,,,,,,,,,,,,,,,329.3734728000127,330.5727680000128,331.37251479999395,331.3562336000032,,,,,,,,,,,,,,,,,,,,,,,,,,,,,,,,,,,331.3582946000388,331.37251479999395,331.37251479999395,331.9565019999864,g,1.0,0.5744262000080198,,,,,sub-066,1,stroop_test,59.9012587732769,
,,,,58.0,10.0,4.0,,,,,,,,,,,,,gelb,red,r,0.0,r,1.0,0.6369867000030354,,,,,,,,,,4.0,10.0,58.0,8.0,331.97262349998346,,,,,,,,,,,,,,,,,331.95672950003063,332.3060358000221,333.1065318000037,333.09008059999906,,,,,,,,,,,,,,,,,,,,,,,,,,,,,,,,,,,333.090475999983,333.1065318000037,333.1065318000037,333.75664079998387,r,1.0,0.6369867000030354,,,,,sub-066,1,stroop_test,59.9012587732769,
,,,,59.0,11.0,4.0,,,,,,,,,,,,,gelb,yellow,g,1.0,g,1.0,0.6467077999841422,,,,,,,,,,4.0,11.0,59.0,10.0,333.77309430000605,,,,,,,,,,,,,,,,,333.75687219999963,334.5557748000137,335.3558149000164,335.33946799999103,,,,,,,,,,,,,,,,,,,,,,,,,,,,,,,,,,,335.3397837000084,335.3558149000164,335.3558149000164,336.0066659000004,g,1.0,0.6467077999841422,,,,,sub-066,1,stroop_test,59.9012587732769,
,,,,60.0,0.0,5.0,,,,,,,,,,,,,gelb,yellow,g,1.0,g,1.0,0.6175440000370145,,,,,,,,,,5.0,0.0,60.0,10.0,336.0224182000384,,,,,,,,,,,,,,,,,336.0069527000305,336.8065495000337,337.6056532000075,337.58946799999103,,,,,,,,,,,,,,,,,,,,,,,,,,,,,,,,,,,337.5898574999883,337.6056532000075,337.6056532000075,338.2395663000061,g,1.0,0.6175440000370145,,,,,sub-066,1,stroop_test,59.9012587732769,
,,,,61.0,1.0,5.0,,,,,,,,,,,,,gelb,red,r,0.0,r,1.0,0.6549600000143982,,,,,,,,,,5.0,1.0,61.0,8.0,338.2556980000227,,,,,,,,,,,,,,,,,338.239804700017,338.3390388999833,339.1395629000035,339.12347240000963,,,,,,,,,,,,,,,,,,,,,,,,,,,,,,,,,,,339.12385790003464,339.1395629000035,339.1395629000035,339.8069837000221,r,1.0,0.6549600000143982,,,,,sub-066,1,stroop_test,59.9012587732769,
,,,,62.0,2.0,5.0,,,,,,,,,,,,,rot,red,r,1.0,r,1.0,0.751675899955444,,,,,,,,,,5.0,2.0,62.0,0.0,339.82251880003605,,,,,,,,,,,,,,,,,339.8072583000176,340.1560991000151,340.95572660001926,340.93924320000224,,,,,,,,,,,,,,,,,,,,,,,,,,,,,,,,,,,340.9410210000351,340.95572660001926,340.95572660001926,341.7231408000225,r,1.0,0.751675899955444,,,,,sub-066,1,stroop_test,59.9012587732769,
,,,,63.0,3.0,5.0,,,,,,,,,,,,,rot,blue,b,0.0,b,1.0,0.5936598999542184,,,,,,,,,,5.0,3.0,63.0,2.0,341.73893960000714,,,,,,,,,,,,,,,,,341.7233675000025,342.0723987999954,342.872715400008,342.8564402000047,,,,,,,,,,,,,,,,,,,,,,,,,,,,,,,,,,,342.8567592999898,342.872715400008,342.872715400008,343.4731026000227,b,1.0,0.5936598999542184,,,,,sub-066,1,stroop_test,59.9012587732769,
,,,,64.0,4.0,5.0,,,,,,,,,,,,,gelb,yellow,g,1.0,g,1.0,0.6231330999871716,,,,,,,,,,5.0,4.0,64.0,11.0,343.48943250003504,,,,,,,,,,,,,,,,,343.47336940001696,343.5727641999838,344.3724656000268,344.3558701000293,,,,,,,,,,,,,,,,,,,,,,,,,,,,,,,,,,,344.3580963999848,344.3724656000268,344.3724656000268,345.0066579999984,g,1.0,0.6231330999871716,,,,,sub-066,1,stroop_test,59.9012587732769,
,,,,65.0,5.0,5.0,,,,,,,,,,,,,gelb,blue,b,0.0,g,0.0,0.8077532000024803,,,,,,,,,,5.0,5.0,65.0,9.0,345.0226759000216,,,,,,,,,,,,,,,,,345.00688739999896,345.3561062000226,346.15610600000946,346.1395361000323,,,,,,,,,,,,,,,,,,,,,,,,,,,,,,,,,,,346.1398681999999,346.15610600000946,346.15610600000946,346.97301190003054,g,0.0,0.8077532000024803,,,,,sub-066,1,stroop_test,59.9012587732769,
,,,,66.0,6.0,5.0,,,,,,,,,,,,,blau,red,r,0.0,r,1.0,1.50800839997828,,,,,,,,,,5.0,6.0,66.0,4.0,346.9890566000249,,,,,,,,,,,,,,,,,346.9732335000299,347.07223420002265,347.87281470000744,347.85633069998585,,,,,,,,,,,,,,,,,,,,,,,,,,,,,,,,,,,347.858066899993,347.87281470000744,347.87281470000744,349.3897900999873,r,1.0,1.50800839997828,,,,,sub-066,1,stroop_test,59.9012587732769,
,,,,67.0,7.0,5.0,,,,,,,,,,,,,rot,yellow,g,0.0,g,1.0,0.8236510999849997,,,,,,,,,,5.0,7.0,67.0,3.0,349.4060164000257,,,,,,,,,,,,,,,,,349.39001269999426,349.4894082000246,350.2887660000124,350.2724195999908,,,,,,,,,,,,,,,,,,,,,,,,,,,,,,,,,,,350.2741050000186,350.2887660000124,350.2887660000124,351.1229184999829,g,1.0,0.8236510999849997,,,,,sub-066,1,stroop_test,59.9012587732769,
,,,,68.0,8.0,5.0,,,,,,,,,,,,,rot,red,r,1.0,r,1.0,0.7919740999932401,,,,,,,,,,5.0,8.0,68.0,1.0,351.13881530001527,,,,,,,,,,,,,,,,,351.1231471000356,351.9226757999859,352.72218550002435,352.7057591000339,,,,,,,,,,,,,,,,,,,,,,,,,,,,,,,,,,,352.7060783000197,352.72218550002435,352.72218550002435,353.5228155000368,r,1.0,0.7919740999932401,,,,,sub-066,1,stroop_test,59.9012587732769,
,,,,69.0,9.0,5.0,,,,,,,,,,,,,blau,blue,b,1.0,b,1.0,0.5673160000005737,,,,,,,,,,5.0,9.0,69.0,5.0,353.53920210001525,,,,,,,,,,,,,,,,,353.5230473999982,354.7219506999827,355.52242470002966,355.5062788000214,,,,,,,,,,,,,,,,,,,,,,,,,,,,,,,,,,,355.5080566999968,355.52242470002966,355.52242470002966,356.106592199998,b,1.0,0.5673160000005737,,,,,sub-066,1,stroop_test,59.9012587732769,
,,,,70.0,10.0,5.0,,,,,,,,,,,,,blau,yellow,g,0.0,g,1.0,1.2634123000316322,,,,,,,,,,5.0,10.0,70.0,7.0,356.1224727000226,,,,,,,,,,,,,,,,,356.1068057999946,356.22195520001696,357.0224892999977,357.0061251000152,,,,,,,,,,,,,,,,,,,,,,,,,,,,,,,,,,,357.0064250000287,357.0224892999977,357.0224892999977,358.2891758999904,g,1.0,1.2634123000316322,,,,,sub-066,1,stroop_test,59.9012587732769,
,,,,71.0,11.0,5.0,,,,,,,,,,,,,blau,blue,b,1.0,b,1.0,0.9831338000367396,,,,,,,,,,5.0,11.0,71.0,6.0,358.3056543000275,,,,,,,,,,,,,,,,,358.28940360003617,359.4886566000059,360.2889961000183,360.2728078000364,,,,,,,,,,,,,,,,,,,,,,,,,,,,,,,,,,,360.2731734000263,360.2889961000183,360.2889961000183,361.2734646000317,b,1.0,0.9831338000367396,,,,,sub-066,1,stroop_test,59.9012587732769,
,,,,72.0,0.0,6.0,,,,,,,,,,,,,gelb,yellow,g,1.0,g,1.0,0.6945132999680936,,,,,,,,,,6.0,0.0,72.0,11.0,361.2890333000105,,,,,,,,,,,,,,,,,361.2736791000352,361.3886649000342,362.18920080002863,362.172704400029,,,,,,,,,,,,,,,,,,,,,,,,,,,,,,,,,,,362.1756084000226,362.18920080002863,362.18920080002863,362.8892854999867,g,1.0,0.6945132999680936,,,,,sub-066,1,stroop_test,59.9012587732769,
,,,,73.0,1.0,6.0,,,,,,,,,,,,,rot,yellow,g,0.0,g,1.0,1.0669919000356458,,,,,,,,,,6.0,1.0,73.0,3.0,362.90567890001694,,,,,,,,,,,,,,,,,362.88954960001865,363.6884328000015,364.48893049999606,364.4728586000274,,,,,,,,,,,,,,,,,,,,,,,,,,,,,,,,,,,364.4745641000336,364.48893049999606,364.48893049999606,365.57280470000114,g,1.0,1.0669919000356458,,,,,sub-066,1,stroop_test,59.9012587732769,
,,,,74.0,2.0,6.0,,,,,,,,,,,,,gelb,blue,b,0.0,b,1.0,0.8966008999850601,,,,,,,,,,6.0,2.0,74.0,9.0,365.5884128999896,,,,,,,,,,,,,,,,,365.5730457000318,366.3718434000039,367.1721546000336,367.1559575999854,,,,,,,,,,,,,,,,,,,,,,,,,,,,,,,,,,,367.1579384999932,367.1721546000336,367.1721546000336,368.07258320000255,b,1.0,0.8966008999850601,,,,,sub-066,1,stroop_test,59.9012587732769,
,,,,75.0,3.0,6.0,,,,,,,,,,,,,gelb,yellow,g,1.0,g,1.0,1.0094949000049382,,,,,,,,,,6.0,3.0,75.0,10.0,368.088882400014,,,,,,,,,,,,,,,,,368.0728061000118,368.172205800016,368.9720528000034,368.955834500026,,,,,,,,,,,,,,,,,,,,,,,,,,,,,,,,,,,368.9561722000362,368.9720528000034,368.9720528000034,369.9890930000111,g,1.0,1.0094949000049382,,,,,sub-066,1,stroop_test,59.9012587732769,
,,,,76.0,4.0,6.0,,,,,,,,,,,,,rot,blue,b,0.0,b,1.0,0.671497699979227,,,,,,,,,,6.0,4.0,76.0,2.0,370.00485440000193,,,,,,,,,,,,,,,,,369.98931040003663,370.0883199000382,370.8884100000141,370.87246360001154,,,,,,,,,,,,,,,,,,,,,,,,,,,,,,,,,,,370.87417999998434,370.8884100000141,370.8884100000141,371.5721773999976,b,1.0,0.671497699979227,,,,,sub-066,1,stroop_test,59.9012587732769,
,,,,77.0,5.0,6.0,,,,,,,,,,,,,blau,blue,b,1.0,b,1.0,0.6413480999763124,,,,,,,,,,6.0,5.0,77.0,5.0,371.5881585000316,,,,,,,,,,,,,,,,,371.5724168000161,371.9214950000169,372.7223611000227,372.7057493000175,,,,,,,,,,,,,,,,,,,,,,,,,,,,,,,,,,,372.7074952999829,372.7223611000227,372.7223611000227,373.3724324000068,b,1.0,0.6413480999763124,,,,,sub-066,1,stroop_test,59.9012587732769,
,,,,78.0,6.0,6.0,,,,,,,,,,,,,blau,blue,b,1.0,b,1.0,0.7660643000272103,,,,,,,,,,6.0,6.0,78.0,6.0,373.388367000036,,,,,,,,,,,,,,,,,373.37264990003314,373.4720802000375,374.2722396000172,374.2557717000018,,,,,,,,,,,,,,,,,,,,,,,,,,,,,,,,,,,374.2561438999837,374.2722396000172,374.2722396000172,375.0397596000112,b,1.0,0.7660643000272103,,,,,sub-066,1,stroop_test,59.9012587732769,
,,,,79.0,7.0,6.0,,,,,,,,,,,,,rot,red,r,1.0,r,1.0,0.5800417000427842,,,,,,,,,,6.0,7.0,79.0,1.0,375.0549211000325,,,,,,,,,,,,,,,,,375.039966500015,375.40501680003945,376.2052540000295,376.189305900014,,,,,,,,,,,,,,,,,,,,,,,,,,,,,,,,,,,376.1913971999893,376.2052540000295,376.2052540000295,376.78891470003873,r,1.0,0.5800417000427842,,,,,sub-066,1,stroop_test,59.9012587732769,
,,,,80.0,8.0,6.0,,,,,,,,,,,,,gelb,red,r,0.0,r,1.0,0.4971192000084556,,,,,,,,,,6.0,8.0,80.0,8.0,376.8047680000309,,,,,,,,,,,,,,,,,376.7891525999876,376.8886876000324,377.6889231000096,377.67186709999805,,,,,,,,,,,,,,,,,,,,,,,,,,,,,,,,,,,377.673787000007,377.6889231000096,377.6889231000096,378.1889732999844,r,1.0,0.4971192000084556,,,,,sub-066,1,stroop_test,59.9012587732769,
,,,,81.0,9.0,6.0,,,,,,,,,,,,,blau,red,r,0.0,r,1.0,0.5076625000219792,,,,,,,,,,6.0,9.0,81.0,4.0,378.2051872999873,,,,,,,,,,,,,,,,,378.1891863000346,378.288233600033,379.0885522000026,379.07223910000175,,,,,,,,,,,,,,,,,,,,,,,,,,,,,,,,,,,379.07397050003055,379.0885522000026,379.0885522000026,379.6055817999877,r,1.0,0.5076625000219792,,,,,sub-066,1,stroop_test,59.9012587732769,
,,,,82.0,10.0,6.0,,,,,,,,,,,,,blau,yellow,g,0.0,g,1.0,0.5165907999617048,,,,,,,,,,6.0,10.0,82.0,7.0,379.62193289998686,,,,,,,,,,,,,,,,,379.6058074000175,379.95520660001785,380.7549626000109,380.7384397999849,,,,,,,,,,,,,,,,,,,,,,,,,,,,,,,,,,,380.73877120000543,380.7549626000109,380.7549626000109,381.2727222000249,g,1.0,0.5165907999617048,,,,,sub-066,1,stroop_test,59.9012587732769,
,,,,83.0,11.0,6.0,,,,,,,,,,,,,rot,red,r,1.0,r,1.0,0.5727918000193313,,,,,,,,,,6.0,11.0,83.0,0.0,381.2881825999939,,,,,,,,,,,,,,,,,381.272931399988,381.3717462000204,382.1714531999896,382.1557437999873,,,,,,,,,,,,,,,,,,,,,,,,,,,,,,,,,,,382.1574428000022,382.1714531999896,382.1714531999896,382.7563364999951,r,1.0,0.5727918000193313,,,,,sub-066,1,stroop_test,59.9012587732769,
,,,,84.0,0.0,7.0,,,,,,,,,,,,,rot,red,r,1.0,r,1.0,0.7001181999803521,,,,,,,,,,7.0,0.0,84.0,0.0,382.7713575999951,,,,,,,,,,,,,,,,,382.75658520002617,382.8712308999966,383.6718643000349,383.6552402999951,,,,,,,,,,,,,,,,,,,,,,,,,,,,,,,,,,,383.6555704000057,383.6718643000349,383.6718643000349,384.3895319000003,r,1.0,0.7001181999803521,,,,,sub-066,1,stroop_test,59.9012587732769,
,,,,85.0,1.0,7.0,,,,,,,,,,,,,gelb,blue,b,0.0,b,1.0,0.5327247999957763,,,,,,,,,,7.0,1.0,85.0,9.0,384.404745900014,,,,,,,,,,,,,,,,,384.3897802000283,385.20518739998806,386.0047374999849,385.9890550000128,,,,,,,,,,,,,,,,,,,,,,,,,,,,,,,,,,,385.9913072999916,386.0047374999849,386.0047374999849,386.5388774999883,b,1.0,0.5327247999957763,,,,,sub-066,1,stroop_test,59.9012587732769,
,,,,86.0,2.0,7.0,,,,,,,,,,,,,blau,blue,b,1.0,b,1.0,0.7870693000149913,,,,,,,,,,7.0,2.0,86.0,5.0,386.5547614000389,,,,,,,,,,,,,,,,,386.539084899996,387.338355600019,388.138367000036,388.1220786999911,,,,,,,,,,,,,,,,,,,,,,,,,,,,,,,,,,,388.1238602999947,388.138367000036,388.138367000036,388.93857490003575,b,1.0,0.7870693000149913,,,,,sub-066,1,stroop_test,59.9012587732769,
,,,,87.0,3.0,7.0,,,,,,,,,,,,,gelb,red,r,0.0,r,1.0,0.5601429999805987,,,,,,,,,,7.0,3.0,87.0,8.0,388.9545435000328,,,,,,,,,,,,,,,,,388.93883619998815,389.7383226000238,390.5384202999994,390.5219155999948,,,,,,,,,,,,,,,,,,,,,,,,,,,,,,,,,,,390.5238527000183,390.5384202999994,390.5384202999994,391.10516330000246,r,1.0,0.5601429999805987,,,,,sub-066,1,stroop_test,59.9012587732769,
,,,,88.0,4.0,7.0,,,,,,,,,,,,,gelb,yellow,g,1.0,g,1.0,0.6091572000295855,,,,,,,,,,7.0,4.0,88.0,11.0,391.1210943000042,,,,,,,,,,,,,,,,,391.1054405000177,391.2044391999953,392.0043804000016,391.98813670000527,,,,,,,,,,,,,,,,,,,,,,,,,,,,,,,,,,,391.9884227000293,392.0043804000016,392.0043804000016,392.6221212000237,g,1.0,0.6091572000295855,,,,,sub-066,1,stroop_test,59.9012587732769,
,,,,89.0,5.0,7.0,,,,,,,,,,,,,blau,yellow,g,0.0,g,1.0,0.5564361999859102,,,,,,,,,,7.0,5.0,89.0,7.0,392.6383014000021,,,,,,,,,,,,,,,,,392.6224316000007,392.97152319998713,393.77106380002806,393.75480930000776,,,,,,,,,,,,,,,,,,,,,,,,,,,,,,,,,,,393.7567383000278,393.77106380002806,393.77106380002806,394.3384491000325,g,1.0,0.5564361999859102,,,,,sub-066,1,stroop_test,59.9012587732769,
,,,,90.0,6.0,7.0,,,,,,,,,,,,,blau,red,r,0.0,r,1.0,0.6208861999912187,,,,,,,,,,7.0,6.0,90.0,4.0,394.3547879999969,,,,,,,,,,,,,,,,,394.3386972000008,395.5376775999903,396.3377390000387,396.32140570000047,,,,,,,,,,,,,,,,,,,,,,,,,,,,,,,,,,,396.32170820003375,396.3377390000387,396.3377390000387,396.97164450003766,r,1.0,0.6208861999912187,,,,,sub-066,1,stroop_test,59.9012587732769,
,,,,91.0,7.0,7.0,,,,,,,,,,,,,gelb,yellow,g,1.0,g,1.0,0.6640310999937356,,,,,,,,,,7.0,7.0,91.0,10.0,396.9882448000135,,,,,,,,,,,,,,,,,396.97187060001306,398.1715560000157,398.9715759000392,398.9551620000275,,,,,,,,,,,,,,,,,,,,,,,,,,,,,,,,,,,398.9574312000186,398.9715759000392,398.9715759000392,399.6379912000266,g,1.0,0.6640310999937356,,,,,sub-066,1,stroop_test,59.9012587732769,
,,,,92.0,8.0,7.0,,,,,,,,,,,,,rot,red,r,1.0,r,1.0,0.9229041999788024,,,,,,,,,,7.0,8.0,92.0,1.0,399.6549051000038,,,,,,,,,,,,,,,,,399.6382073999848,400.83801599999424,401.6381757000345,401.62201829999685,,,,,,,,,,,,,,,,,,,,,,,,,,,,,,,,,,,401.62367000000086,401.6381757000345,401.6381757000345,402.5715646999888,r,1.0,0.9229041999788024,,,,,sub-066,1,stroop_test,59.9012587732769,
,,,,93.0,9.0,7.0,,,,,,,,,,,,,blau,blue,b,1.0,b,1.0,0.7245737999910489,,,,,,,,,,7.0,9.0,93.0,6.0,402.5881190000218,,,,,,,,,,,,,,,,,402.5717973000137,402.6716603999957,403.4710865000379,403.45501849998254,,,,,,,,,,,,,,,,,,,,,,,,,,,,,,,,,,,403.4567619999871,403.4710865000379,403.4710865000379,404.2048072000034,b,1.0,0.7245737999910489,,,,,sub-066,1,stroop_test,59.9012587732769,
,,,,94.0,10.0,7.0,,,,,,,,,,,,,rot,yellow,g,0.0,g,1.0,0.8830300999688916,,,,,,,,,,7.0,10.0,94.0,3.0,404.22147869999753,,,,,,,,,,,,,,,,,404.20508059998974,405.40481059998274,406.2046425000299,406.1880479000392,,,,,,,,,,,,,,,,,,,,,,,,,,,,,,,,,,,406.1897053000285,406.2046425000299,406.2046425000299,407.089061799983,g,1.0,0.8830300999688916,,,,,sub-066,1,stroop_test,59.9012587732769,
,,,,95.0,11.0,7.0,,,,,,,,,,,,,rot,blue,b,0.0,b,1.0,0.7131077999947593,,,,,,,,,,7.0,11.0,95.0,2.0,407.1045829000068,,,,,,,,,,,,,,,,,407.0892710000044,407.4547371999943,408.2542292000144,408.2377171000117,,,,,,,,,,,,,,,,,,,,,,,,,,,,,,,,,,,408.2381537000183,408.2542292000144,408.2542292000144,408.9714602000313,b,1.0,0.7131077999947593,,,,,sub-066,1,stroop_test,59.9012587732769,
,,,,96.0,0.0,8.0,,,,,,,,,,,,,blau,red,r,0.0,r,1.0,0.8166333999834023,,,,,,,,,,8.0,0.0,96.0,4.0,408.98766099999193,,,,,,,,,,,,,,,,,408.97170190000907,409.3213242000202,410.1211529999855,410.1042566000251,,,,,,,,,,,,,,,,,,,,,,,,,,,,,,,,,,,410.1060334999929,410.1211529999855,410.1211529999855,410.9387826999882,r,1.0,0.8166333999834023,,,,,sub-066,1,stroop_test,59.9012587732769,
,,,,97.0,1.0,8.0,,,,,,,,,,,,,rot,yellow,g,0.0,g,1.0,0.7568790999939665,,,,,,,,,,8.0,1.0,97.0,3.0,410.9541173999896,,,,,,,,,,,,,,,,,410.939024900028,411.7543857999845,412.5544458000222,412.5380882000318,,,,,,,,,,,,,,,,,,,,,,,,,,,,,,,,,,,412.5398750000168,412.5544458000222,412.5544458000222,413.3217314000358,g,1.0,0.7568790999939665,,,,,sub-066,1,stroop_test,59.9012587732769,
,,,,98.0,2.0,8.0,,,,,,,,,,,,,rot,red,r,1.0,r,1.0,0.8047704999917187,,,,,,,,,,8.0,2.0,98.0,0.0,413.3379655000172,,,,,,,,,,,,,,,,,413.3220011999947,413.4207848000224,414.2210755000124,414.2043961000163,,,,,,,,,,,,,,,,,,,,,,,,,,,,,,,,,,,414.2046883000294,414.2210755000124,414.2210755000124,415.0377791000065,r,1.0,0.8047704999917187,,,,,sub-066,1,stroop_test,59.9012587732769,
,,,,99.0,3.0,8.0,,,,,,,,,,,,,gelb,red,r,0.0,r,1.0,0.8368426999659277,,,,,,,,,,8.0,3.0,99.0,8.0,415.0538869000157,,,,,,,,,,,,,,,,,415.03805700002704,416.23771810001926,417.0376125000184,417.0215771000367,,,,,,,,,,,,,,,,,,,,,,,,,,,,,,,,,,,417.0239720999962,417.0376125000184,417.0376125000184,417.8886468000128,r,1.0,0.8368426999659277,,,,,sub-066,1,stroop_test,59.9012587732769,
,,,,100.0,4.0,8.0,,,,,,,,,,,,,blau,blue,b,1.0,b,1.0,0.8340988000272773,,,,,,,,,,8.0,4.0,100.0,5.0,417.9043162000016,,,,,,,,,,,,,,,,,417.8888841000153,418.0043003000319,418.8046538000344,418.78734570002416,,,,,,,,,,,,,,,,,,,,,,,,,,,,,,,,,,,418.7889677000349,418.8046538000344,418.8046538000344,419.6550652000005,b,1.0,0.8340988000272773,,,,,sub-066,1,stroop_test,59.9012587732769,
,,,,101.0,5.0,8.0,,,,,,,,,,,,,gelb,yellow,g,1.0,g,1.0,0.8475549999857321,,,,,,,,,,8.0,5.0,101.0,10.0,419.67109740001615,,,,,,,,,,,,,,,,,419.6552872000029,420.8544739999925,421.653632200032,421.6373135999893,,,,,,,,,,,,,,,,,,,,,,,,,,,,,,,,,,,421.639304100012,421.653632200032,421.653632200032,422.5041975000058,g,1.0,0.8475549999857321,,,,,sub-066,1,stroop_test,59.9012587732769,
,,,,102.0,6.0,8.0,,,,,,,,,,,,,gelb,yellow,g,1.0,g,1.0,0.802065700001549,,,,,,,,,,8.0,6.0,102.0,11.0,422.520903000026,,,,,,,,,,,,,,,,,422.50443650002126,422.8542576000327,423.6542643000139,423.6375280999928,,,,,,,,,,,,,,,,,,,,,,,,,,,,,,,,,,,423.637906900025,423.6542643000139,423.6542643000139,424.4715678000357,g,1.0,0.802065700001549,,,,,sub-066,1,stroop_test,59.9012587732769,
,,,,103.0,7.0,8.0,,,,,,,,,,,,,blau,blue,b,1.0,b,1.0,1.3883369999821298,,,,,,,,,,8.0,7.0,103.0,6.0,424.487391200033,,,,,,,,,,,,,,,,,424.4717866000137,424.58744209998986,425.3871236999985,425.3714192000334,,,,,,,,,,,,,,,,,,,,,,,,,,,,,,,,,,,425.3732191000017,425.3871236999985,425.3871236999985,426.7879021000117,b,1.0,1.3883369999821298,,,,,sub-066,1,stroop_test,59.9012587732769,
,,,,104.0,8.0,8.0,,,,,,,,,,,,,gelb,blue,b,0.0,b,1.0,0.8456388000049628,,,,,,,,,,8.0,8.0,104.0,9.0,426.8036975000287,,,,,,,,,,,,,,,,,426.7881219999981,426.8873600999941,427.68742279999424,427.670741799986,,,,,,,,,,,,,,,,,,,,,,,,,,,,,,,,,,,427.67315009998856,427.68742279999424,427.68742279999424,428.5378288000357,b,1.0,0.8456388000049628,,,,,sub-066,1,stroop_test,59.9012587732769,
,,,,105.0,9.0,8.0,,,,,,,,,,,,,blau,yellow,g,0.0,g,1.0,0.9272355000139214,,,,,,,,,,8.0,9.0,105.0,7.0,428.5536017999984,,,,,,,,,,,,,,,,,428.538089699985,428.6370046000229,429.4373167000013,429.4210293000215,,,,,,,,,,,,,,,,,,,,,,,,,,,,,,,,,,,429.4229572000331,429.4373167000013,429.4373167000013,430.3707129000104,g,1.0,0.9272355000139214,,,,,sub-066,1,stroop_test,59.9012587732769,
,,,,106.0,10.0,8.0,,,,,,,,,,,,,rot,red,r,1.0,r,1.0,0.5669628999894485,,,,,,,,,,8.0,10.0,106.0,1.0,430.3868872000021,,,,,,,,,,,,,,,,,430.37093299999833,431.170368799998,431.9702504000161,431.9543047000189,,,,,,,,,,,,,,,,,,,,,,,,,,,,,,,,,,,431.9559392000083,431.9702504000161,431.9702504000161,432.5540472000139,r,1.0,0.5669628999894485,,,,,sub-066,1,stroop_test,59.9012587732769,
,,,,107.0,11.0,8.0,,,,,,,,,,,,,rot,blue,b,0.0,b,1.0,0.9493692999822088,,,,,,,,,,8.0,11.0,107.0,2.0,432.5701212999993,,,,,,,,,,,,,,,,,432.5542724999832,432.6533989000018,433.45354170002975,433.43747529998654,,,,,,,,,,,,,,,,,,,,,,,,,,,,,,,,,,,433.4377626000205,433.45354170002975,433.45354170002975,434.4042653000215,b,1.0,0.9493692999822088,,,,,sub-066,1,stroop_test,59.9012587732769,
,,,,108.0,0.0,9.0,,,,,,,,,,,,,gelb,blue,b,0.0,b,1.0,0.6292536000255495,,,,,,,,,,9.0,0.0,108.0,9.0,434.4199713999988,,,,,,,,,,,,,,,,,434.4044870000216,435.2038348999922,436.0038842000067,435.9876510000322,,,,,,,,,,,,,,,,,,,,,,,,,,,,,,,,,,,435.989590000012,436.0038842000067,436.0038842000067,436.6375842000125,b,1.0,0.6292536000255495,,,,,sub-066,1,stroop_test,59.9012587732769,
,,,,109.0,1.0,9.0,,,,,,,,,,,,,rot,red,r,1.0,r,1.0,0.6527525999699719,,,,,,,,,,9.0,1.0,109.0,1.0,436.6538128000102,,,,,,,,,,,,,,,,,436.63780630001565,437.8370356000378,438.6375504999887,438.62102890003007,,,,,,,,,,,,,,,,,,,,,,,,,,,,,,,,,,,438.6228400000255,438.6375504999887,438.6375504999887,439.304673000006,r,1.0,0.6527525999699719,,,,,sub-066,1,stroop_test,59.9012587732769,
,,,,110.0,2.0,9.0,,,,,,,,,,,,,rot,blue,b,0.0,b,1.0,0.7471463000401855,,,,,,,,,,9.0,2.0,110.0,2.0,439.320141800039,,,,,,,,,,,,,,,,,439.3049366000341,440.5040573999868,441.3036877000122,441.28736250003567,,,,,,,,,,,,,,,,,,,,,,,,,,,,,,,,,,,441.2877012999961,441.3036877000122,441.3036877000122,442.0536642000079,b,1.0,0.7471463000401855,,,,,sub-066,1,stroop_test,59.9012587732769,
,,,,111.0,3.0,9.0,,,,,,,,,,,,,blau,red,r,0.0,r,1.0,1.4434573000180535,,,,,,,,,,9.0,3.0,111.0,4.0,442.0703884999966,,,,,,,,,,,,,,,,,442.05391090002377,442.853141700034,443.6539973000181,443.6369500000146,,,,,,,,,,,,,,,,,,,,,,,,,,,,,,,,,,,443.6390410999884,443.6539973000181,443.6539973000181,445.103782500024,r,1.0,1.4434573000180535,,,,,sub-066,1,stroop_test,59.9012587732769,
,,,,112.0,4.0,9.0,,,,,,,,,,,,,gelb,yellow,g,1.0,g,1.0,0.5624147000489756,,,,,,,,,,9.0,4.0,112.0,10.0,445.1196969000157,,,,,,,,,,,,,,,,,445.1040132000344,445.453762500023,446.2536235000007,446.23726950003766,,,,,,,,,,,,,,,,,,,,,,,,,,,,,,,,,,,446.2392883999855,446.2536235000007,446.2536235000007,446.8209983999841,g,1.0,0.5624147000489756,,,,,sub-066,1,stroop_test,59.9012587732769,
,,,,113.0,5.0,9.0,,,,,,,,,,,,,gelb,red,r,0.0,r,1.0,0.4989866999676451,,,,,,,,,,9.0,5.0,113.0,8.0,446.8371439999901,,,,,,,,,,,,,,,,,446.8212133999914,447.62023910001153,448.420275099983,448.4035080000176,,,,,,,,,,,,,,,,,,,,,,,,,,,,,,,,,,,448.40395830001216,448.420275099983,448.420275099983,448.9205500000389,r,1.0,0.4989866999676451,,,,,sub-066,1,stroop_test,59.9012587732769,
,,,,114.0,6.0,9.0,,,,,,,,,,,,,rot,yellow,g,0.0,g,1.0,0.9915446999948472,,,,,,,,,,9.0,6.0,114.0,3.0,448.937158100016,,,,,,,,,,,,,,,,,448.92077580001205,449.7196404000279,450.5201734000002,450.5039684000076,,,,,,,,,,,,,,,,,,,,,,,,,,,,,,,,,,,450.5055798999965,450.5201734000002,450.5201734000002,451.5209706000169,g,1.0,0.9915446999948472,,,,,sub-066,1,stroop_test,59.9012587732769,
,,,,115.0,7.0,9.0,,,,,,,,,,,,,blau,blue,b,1.0,b,1.0,0.565625200048089,,,,,,,,,,9.0,7.0,115.0,5.0,451.5363213000237,,,,,,,,,,,,,,,,,451.5212165000266,451.8862500999821,452.68674259999534,452.6702990999911,,,,,,,,,,,,,,,,,,,,,,,,,,,,,,,,,,,452.6720365000074,452.68674259999534,452.68674259999534,453.2538342000335,b,1.0,0.565625200048089,,,,,sub-066,1,stroop_test,59.9012587732769,
,,,,116.0,8.0,9.0,,,,,,,,,,,,,blau,yellow,g,0.0,g,1.0,0.7774344999925233,,,,,,,,,,9.0,8.0,116.0,7.0,453.27041440003086,,,,,,,,,,,,,,,,,453.2540578999906,454.4536587999901,455.25329550000606,455.2367258000304,,,,,,,,,,,,,,,,,,,,,,,,,,,,,,,,,,,455.2371472000377,455.25329550000606,455.25329550000606,456.0369842000073,g,1.0,0.7774344999925233,,,,,sub-066,1,stroop_test,59.9012587732769,
,,,,117.0,9.0,9.0,,,,,,,,,,,,,rot,red,r,1.0,r,1.0,0.9045628000167198,,,,,,,,,,9.0,9.0,117.0,0.0,456.0530021000304,,,,,,,,,,,,,,,,,456.03726030001417,456.8361678000074,457.636168099998,457.61969359999057,,,,,,,,,,,,,,,,,,,,,,,,,,,,,,,,,,,457.6214627000154,457.636168099998,457.636168099998,458.55348609999055,r,1.0,0.9045628000167198,,,,,sub-066,1,stroop_test,59.9012587732769,
,,,,118.0,10.0,9.0,,,,,,,,,,,,,blau,blue,b,1.0,b,1.0,0.6926450000028126,,,,,,,,,,9.0,10.0,118.0,6.0,458.5693572000018,,,,,,,,,,,,,,,,,458.5537205000292,458.652859200025,459.4533362000366,459.4367099000374,,,,,,,,,,,,,,,,,,,,,,,,,,,,,,,,,,,459.4388400000171,459.4533362000366,459.4533362000366,460.15336039999966,b,1.0,0.6926450000028126,,,,,sub-066,1,stroop_test,59.9012587732769,
,,,,119.0,11.0,9.0,,,,,,,,,,,,,gelb,yellow,g,1.0,g,1.0,1.2402598999906331,,,,,,,,,,9.0,11.0,119.0,11.0,460.1693227000069,,,,,,,,,,,,,,,,,460.1536231000209,461.3528301999904,462.1534103000304,462.1369602000341,,,,,,,,,,,,,,,,,,,,,,,,,,,,,,,,,,,462.13893329998245,462.1534103000304,462.1534103000304,463.4033311000094,g,1.0,1.2402598999906331,,,,,sub-066,1,stroop_test,59.9012587732769,
,,,,,,,,,,,,,,,,,,,,,,,,,,,,,,,,,,,,,,,,,,,,,,,,,,,,,,,,,,,,,,,,,,,,,,,,,,,,,,,,,,,,,,,,,,,,,,,,,,,,,,463.4034704000224,463.4195442000055,468.403440300026,sub-066,1,stroop_test,59.9012587732769,
