wordCTK,colorCTK,corrAnsCTK,congruentCTK,thisN,thisTrialN,thisRepN,keyResp_CTK.keys,keyResp_CTK.corr,keyResp_CTK.rt,keyResp_CTK.duration,wordPractice,colorPractice,corrAnsPractice,congruentPractice,respPractice.keys,respPractice.corr,respPractice.rt,respPractice.duration,word,color,corrAns,congruent,keyResp_test_run.keys,keyResp_test_run.corr,keyResp_test_run.rt,keyResp_test_run.duration,trials_CTK.thisRepN,trials_CTK.thisTrialN,trials_CTK.thisN,trials_CTK.thisIndex,trials_practice.thisRepN,trials_practice.thisTrialN,trials_practice.thisN,trials_practice.thisIndex,trials_test.thisRepN,trials_test.thisTrialN,trials_test.thisN,trials_test.thisIndex,thisRow.t,notes,instruction.started,instr_text.started,instr_image.started,instr_resp.started,instruction.stopped,instr_resp.keys,instr_resp.rt,instr_resp.duration,instr_color_to_key.started,instr_ctk.started,resp_ctk.started,instr_color_to_key.stopped,resp_ctk.keys,resp_ctk.rt,resp_ctk.duration,ITI.started,fixcross.started,fixcross.stopped,ITI.stopped,color_to_key_run.started,stimulus_CTK.started,keyResp_CTK.started,color_to_key_run.stopped,trials_CTK.keyResp_CTK.keys,trials_CTK.keyResp_CTK.corr,trials_CTK.keyResp_CTK.rt,trials_CTK.keyResp_CTK.duration,instr_practice.started,instr_practice_text.started,instr_practice_resp.started,instr_practice.stopped,instr_practice_resp.keys,instr_practice_resp.rt,instr_practice_resp.duration,practice_run.started,stimulus_practice.started,respPractice.started,practice_run.stopped,trials_practice.respPractice.keys,trials_practice.respPractice.corr,trials_practice.respPractice.rt,trials_practice.respPractice.duration,feedback.started,textFeedback.started,textFeedback.stopped,feedback.stopped,instr_test.started,instr_test_text.started,instr_test_resp.started,instr_test.stopped,instr_test_resp.keys,instr_test_resp.rt,instr_test_resp.duration,test_run.started,stimulus_test_run.started,keyResp_test_run.started,test_run.stopped,trials_test.keyResp_test_run.keys,trials_test.keyResp_test_run.corr,trials_test.keyResp_test_run.rt,trials_test.keyResp_test_run.duration,goodbye.started,textGoodbye.started,textGoodbye.stopped,goodbye.stopped,participant,session,expName,frameRate,Unnamed: 113
,,,,,,,,,,,,,,,,,,,,,,,,,,,,,,,,,,,,,,,,,0.0203330460062716,0.0414950360136572,0.0414950360136572,0.0414950360136572,4.381737324991264,space,4.320444128999952,,,,,,,,,,,,,,,,,,,,,,,,,,,,,,,,,,,,,,,,,,,,,,,,,,,,,,,,,,,sub-149,1,stroop_test,,
,,,,,,,,,,,,,,,,,,,,,,,,,,,,,,,,,,,,,,,,,,,,,,,,,4.381786431011278,4.394312090997119,4.394312090997119,10.406478966993744,space,6.007873742986703,,,,,,,,,,,,,,,,,,,,,,,,,,,,,,,,,,,,,,,,,,,,,,,,,,,,sub-149,1,stroop_test,,
test,blue,b,1.0,0.0,0.0,0.0,b,1.0,0.5516333830018993,,,,,,,,,,,,,,,,,,0.0,0.0,0.0,2.0,,,,,,,,,10.427802646008786,,,,,,,,,,,,,,,,,10.416633196990006,11.204884395992847,11.99890661999234,11.988833665993296,11.992961539013775,11.99890661999234,11.99890661999234,12.556070510006975,b,1.0,0.5516333830018993,,,,,,,,,,,,,,,,,,,,,,,,,,,,,,,,,,,,,,,,sub-149,1,stroop_test,,
test,yellow,g,1.0,1.0,1.0,0.0,g,1.0,0.5426178890047595,,,,,,,,,,,,,,,,,,0.0,1.0,1.0,1.0,,,,,,,,,12.562745970004473,,,,,,,,,,,,,,,,,12.55635238601826,13.354889295995235,14.14543405501172,14.138921614008725,14.139409441006135,14.14543405501172,14.14543405501172,14.689821328996914,g,1.0,0.5426178890047595,,,,,,,,,,,,,,,,,,,,,,,,,,,,,,,,,,,,,,,,sub-149,1,stroop_test,,
test,red,r,1.0,2.0,2.0,0.0,r,1.0,0.5591409129847307,,,,,,,,,,,,,,,,,,0.0,2.0,2.0,0.0,,,,,,,,,14.696586564008612,,,,,,,,,,,,,,,,,14.690098849008791,15.038259635010036,15.828588964999652,15.822495750995586,15.823005949001526,15.828588964999652,15.828588964999652,16.38952649201383,r,1.0,0.5591409129847307,,,,,,,,,,,,,,,,,,,,,,,,,,,,,,,,,,,,,,,,sub-149,1,stroop_test,,
test,blue,b,1.0,3.0,0.0,1.0,b,1.0,0.5873678489879239,,,,,,,,,,,,,,,,,,1.0,0.0,3.0,2.0,,,,,,,,,16.39612127401051,,,,,,,,,,,,,,,,,16.38979606499197,16.488267184991855,17.278409015998477,17.27222316901316,17.272705709008733,17.278409015998477,17.278409015998477,17.87321388401324,b,1.0,0.5873678489879239,,,,,,,,,,,,,,,,,,,,,,,,,,,,,,,,,,,,,,,,sub-149,1,stroop_test,,
test,red,r,1.0,4.0,1.0,1.0,r,1.0,0.7253538540098816,,,,,,,,,,,,,,,,,,1.0,1.0,4.0,0.0,,,,,,,,,17.879969667003024,,,,,,,,,,,,,,,,,17.873481085989624,19.07162488499307,19.861986185016576,19.855716612015385,19.85620298900176,19.861986185016576,19.861986185016576,20.589817653002683,r,1.0,0.7253538540098816,,,,,,,,,,,,,,,,,,,,,,,,,,,,,,,,,,,,,,,,sub-149,1,stroop_test,,
test,yellow,g,1.0,5.0,2.0,1.0,g,1.0,0.6536829010001384,,,,,,,,,,,,,,,,,,1.0,2.0,5.0,1.0,,,,,,,,,20.596385909011588,,,,,,,,,,,,,,,,,20.590098931017565,21.788223626004765,22.578909600997576,22.57234699500259,22.57283660300891,22.578909600997576,22.578909600997576,23.24018592800712,g,1.0,0.6536829010001384,,,,,,,,,,,,,,,,,,,,,,,,,,,,,,,,,,,,,,,,sub-149,1,stroop_test,,
test,yellow,g,1.0,6.0,0.0,2.0,g,1.0,0.5664256699965335,,,,,,,,,,,,,,,,,,2.0,0.0,6.0,1.0,,,,,,,,,23.246888825990027,,,,,,,,,,,,,,,,,23.240537141013192,23.588529297005152,24.379105194995645,24.372343688999536,24.373018367012264,24.379105194995645,24.379105194995645,24.956857776007386,g,1.0,0.5664256699965335,,,,,,,,,,,,,,,,,,,,,,,,,,,,,,,,,,,,,,,,sub-149,1,stroop_test,,
test,red,r,1.0,7.0,1.0,2.0,r,1.0,0.8115966070035938,,,,,,,,,,,,,,,,,,2.0,1.0,7.0,0.0,,,,,,,,,24.96373834399856,,,,,,,,,,,,,,,,,24.9571834540111,25.75505274400348,26.54560504699475,26.53894881301676,26.53943679999793,26.54560504699475,26.54560504699475,27.36248718900606,r,1.0,0.8115966070035938,,,,,,,,,,,,,,,,,,,,,,,,,,,,,,,,,,,,,,,,sub-149,1,stroop_test,,
test,blue,b,1.0,8.0,2.0,2.0,b,1.0,0.6414501980179921,,,,,,,,,,,,,,,,,,2.0,2.0,8.0,2.0,,,,,,,,,27.37160883401521,,,,,,,,,,,,,,,,,27.362832593003983,27.710257163009373,28.50502584700007,28.494166529999347,28.49464686700958,28.50502584700007,28.50502584700007,29.1569470789982,b,1.0,0.6414501980179921,,,,,,,,,,,,,,,,,,,,,,,,,,,,,,,,,,,,,,,,sub-149,1,stroop_test,,
test,blue,b,1.0,9.0,0.0,3.0,b,1.0,0.6228084749891423,,,,,,,,,,,,,,,,,,3.0,0.0,9.0,2.0,,,,,,,,,29.16371900201193,,,,,,,,,,,,,,,,,29.15728303100332,29.50499006500468,30.29567142299493,30.289092804014217,30.28958371700719,30.29567142299493,30.29567142299493,30.92364315301529,b,1.0,0.6228084749891423,,,,,,,,,,,,,,,,,,,,,,,,,,,,,,,,,,,,,,,,sub-149,1,stroop_test,,
test,red,r,1.0,10.0,1.0,3.0,r,1.0,0.734667096985504,,,,,,,,,,,,,,,,,,3.0,1.0,10.0,0.0,,,,,,,,,30.93050258999574,,,,,,,,,,,,,,,,,30.924005859997123,31.021940561011437,31.81233034399338,31.805733693006918,31.806228503992315,31.81233034399338,31.81233034399338,32.55670901801204,r,1.0,0.734667096985504,,,,,,,,,,,,,,,,,,,,,,,,,,,,,,,,,,,,,,,,sub-149,1,stroop_test,,
test,yellow,g,1.0,11.0,2.0,3.0,g,1.0,0.4820939780038316,,,,,,,,,,,,,,,,,,3.0,2.0,11.0,1.0,,,,,,,,,32.56348055700073,,,,,,,,,,,,,,,,,32.556980908993864,33.75511258901679,34.545826785004465,34.53926348101231,34.53974278600072,34.545826785004465,34.545826785004465,35.04046993199154,g,1.0,0.4820939780038316,,,,,,,,,,,,,,,,,,,,,,,,,,,,,,,,,,,,,,,,sub-149,1,stroop_test,,
,,,,,,,,,,,,,,,,,,,,,,,,,,,,,,,,,,,,,,,,,,,,,,,,,,,,,,,,,,,,,,,,,,,,35.04062551600509,35.048966889997246,35.048966889997246,39.09524947099271,space,4.043232173018623,,,,,,,,,,,,,,,,,,,,,,,,,,,,,,,,,sub-149,1,stroop_test,,
,,,,0.0,0.0,0.0,,,,,gelb,red,r,0.0,r,1.0,0.6590489759983029,,,,,,,,,,,,,,0.0,0.0,0.0,8.0,,,,,39.1095611579949,,,,,,,,,,,,,,,,,39.10322625501431,39.19367847900139,39.988168943003984,39.97763250701246,,,,,,,,,,,,,,,,39.98148954799399,39.988168943003984,39.988168943003984,40.65713728801347,r,1.0,0.6590489759983029,,40.661701733013615,40.66908596199937,41.66099129599752,41.65597241299111,,,,,,,,,,,,,,,,,,,,sub-149,1,stroop_test,,
,,,,1.0,1.0,0.0,,,,,blau,blue,b,1.0,b,1.0,0.5418922500102781,,,,,,,,,,,,,,0.0,1.0,1.0,5.0,,,,,41.66099129599752,,,,,,,,,,,,,,,,,41.65630344001693,42.00510642598965,42.79884437299916,42.78912532300456,,,,,,,,,,,,,,,,42.79272734199185,42.79884437299916,42.79884437299916,43.34585242799949,b,1.0,0.5418922500102781,,43.34626019699499,43.35509134901804,44.34449180500815,44.339377255993895,,,,,,,,,,,,,,,,,,,,sub-149,1,stroop_test,,
,,,,2.0,2.0,0.0,,,,,rot,yellow,g,0.0,g,1.0,0.5852510429976974,,,,,,,,,,,,,,0.0,2.0,2.0,3.0,,,,,44.34449180500815,,,,,,,,,,,,,,,,,44.33969978700043,45.14369670499582,45.93830308801262,45.927582353004254,,,,,,,,,,,,,,,,45.93090041601681,45.93830308801262,45.93830308801262,46.529008962010266,g,1.0,0.5852510429976974,,46.52952288099914,46.538230753998505,47.527763123012846,47.52266406099079,,,,,,,,,,,,,,,,,,,,sub-149,1,stroop_test,,
,,,,3.0,3.0,0.0,,,,,gelb,yellow,g,1.0,g,1.0,0.5316948289982975,,,,,,,,,,,,,,0.0,3.0,3.0,10.0,,,,,47.527763123012846,,,,,,,,,,,,,,,,,47.52298481200705,48.727055533003295,49.52165130400681,49.509978062007576,,,,,,,,,,,,,,,,49.5125798190129,49.52165130400681,49.52165130400681,50.0570837300038,g,1.0,0.5316948289982975,,50.05755637501716,50.065091668016976,51.06105793401366,51.0558034350106,,,,,,,,,,,,,,,,,,,,sub-149,1,stroop_test,,
,,,,4.0,4.0,0.0,,,,,blau,yellow,g,0.0,g,1.0,0.6215687920048367,,,,,,,,,,,,,,0.0,4.0,4.0,7.0,,,,,51.06105793401366,,,,,,,,,,,,,,,,,51.056146346993046,51.15507399701164,51.94810385801247,51.93905933899805,,,,,,,,,,,,,,,,51.94211667400669,51.94810385801247,51.94810385801247,52.573378444998525,g,1.0,0.6215687920048367,,52.57381234501372,52.58108386400272,53.5777854360058,53.57245505400351,,,,,,,,,,,,,,,,,,,,sub-149,1,stroop_test,,
,,,,5.0,5.0,0.0,,,,,gelb,blue,b,0.0,b,1.0,0.509221031999914,,,,,,,,,,,,,,0.0,5.0,5.0,9.0,,,,,53.5777854360058,,,,,,,,,,,,,,,,,53.57277999698999,53.67181620799238,54.46460774200386,54.45576529001119,,,,,,,,,,,,,,,,54.45860646100482,54.46460774200386,54.46460774200386,54.97937945800368,b,1.0,0.509221031999914,,54.97980879899114,54.98839816500549,55.97778583801119,55.97243058399181,,,,,,,,,,,,,,,,,,,,sub-149,1,stroop_test,,
,,,,6.0,6.0,0.0,,,,,blau,blue,b,1.0,b,1.0,0.5896081689861603,,,,,,,,,,,,,,0.0,6.0,6.0,6.0,,,,,55.97778583801119,,,,,,,,,,,,,,,,,55.97275760999764,56.32713515701471,57.12172320799437,57.11099399201339,,,,,,,,,,,,,,,,57.113468933996046,57.12172320799437,57.12172320799437,57.72252694299095,b,1.0,0.5896081689861603,,57.72295160699287,57.728567762998864,58.727899646997685,58.72278591801296,,,,,,,,,,,,,,,,,,,,sub-149,1,stroop_test,,
,,,,7.0,7.0,0.0,,,,,rot,red,r,1.0,r,1.0,0.5755522020044737,,,,,,,,,,,,,,0.0,7.0,7.0,0.0,,,,,58.727899646997685,,,,,,,,,,,,,,,,,58.72313066999777,59.910316205990966,60.705043897003634,60.69433029499487,,,,,,,,,,,,,,,,60.69689029300935,60.705043897003634,60.705043897003634,61.29041982500348,r,1.0,0.5755522020044737,,61.29094145601266,61.298342601017794,62.29433958799928,62.28932804401848,,,,,,,,,,,,,,,,,,,,sub-149,1,stroop_test,,
,,,,8.0,8.0,0.0,,,,,gelb,yellow,g,1.0,g,1.0,0.4005333219829481,,,,,,,,,,,,,,0.0,8.0,8.0,11.0,,,,,62.29433958799928,,,,,,,,,,,,,,,,,62.28965961001813,62.388441557006445,63.18097189301625,63.17252707001171,,,,,,,,,,,,,,,,63.17500861000735,63.18097189301625,63.18097189301625,63.590110885998,g,1.0,0.4005333219829481,,63.59053333901102,63.59796072699828,64.59443372100941,64.58919220700045,,,,,,,,,,,,,,,,,,,,sub-149,1,stroop_test,,
,,,,9.0,9.0,0.0,,,,,blau,red,r,0.0,r,1.0,0.5711598829948343,,,,,,,,,,,,,,0.0,9.0,9.0,4.0,,,,,64.59443372100941,,,,,,,,,,,,,,,,,64.58951857601642,64.68852952099405,65.48114463200909,65.47255495999707,,,,,,,,,,,,,,,,65.47517644200707,65.48114463200909,65.48114463200909,66.05679207501817,r,1.0,0.5711598829948343,,66.05721805000212,66.0644875660073,67.06126321200281,67.0560859090183,,,,,,,,,,,,,,,,,,,,sub-149,1,stroop_test,,
,,,,10.0,10.0,0.0,,,,,rot,red,r,1.0,r,1.0,0.5325709479802754,,,,,,,,,,,,,,0.0,10.0,10.0,1.0,,,,,67.06126321200281,,,,,,,,,,,,,,,,,67.05640632801806,67.40526890501496,68.19780298499973,68.18939441099064,,,,,,,,,,,,,,,,68.19181598501746,68.19780298499973,68.19780298499973,68.74018710799282,r,1.0,0.5325709479802754,,68.74062904799939,68.7481031230127,69.74392451299354,69.73921794601483,,,,,,,,,,,,,,,,,,,,sub-149,1,stroop_test,,
,,,,11.0,11.0,0.0,,,,,rot,blue,b,0.0,b,1.0,0.6288554049970116,,,,,,,,,,,,,,0.0,11.0,11.0,2.0,,,,,69.74392451299354,,,,,,,,,,,,,,,,,69.73948507601744,69.8386063860089,70.62904783998965,70.62259208899923,,,,,,,,,,,,,,,,70.62307570400299,70.62904783998965,70.62904783998965,71.26221543899737,b,1.0,0.6288554049970116,,71.26263096299954,71.27152372300043,72.26129831699654,72.25590834100149,,,,,,,,,,,,,,,,,,,,sub-149,1,stroop_test,,
,,,,12.0,0.0,1.0,,,,,blau,blue,b,1.0,b,1.0,0.5685999970010016,,,,,,,,,,,,,,1.0,0.0,12.0,6.0,,,,,72.26129831699654,,,,,,,,,,,,,,,,,72.25625666999258,73.46067522501107,74.25522866600659,74.24445145201753,,,,,,,,,,,,,,,,74.24749916000292,74.25522866600659,74.25522866600659,74.82776152400766,b,1.0,0.5685999970010016,,74.82810643099947,74.8382424750016,75.82777966701542,75.82253017701441,,,,,,,,,,,,,,,,,,,,sub-149,1,stroop_test,,
,,,,13.0,1.0,1.0,,,,,gelb,blue,b,0.0,b,1.0,0.9310058580012992,,,,,,,,,,,,,,1.0,1.0,13.0,9.0,,,,,75.82777966701542,,,,,,,,,,,,,,,,,75.82285005500307,75.92661336099263,76.72174783900846,76.71118457600824,,,,,,,,,,,,,,,,76.71373258100357,76.72174783900846,76.72174783900846,77.65703126500011,b,1.0,0.9310058580012992,,77.65746213699458,77.6647710929974,78.66125944501255,78.65589273700607,,,,,,,,,,,,,,,,,,,,sub-149,1,stroop_test,,
,,,,14.0,2.0,1.0,,,,,blau,blue,b,1.0,b,1.0,0.5427099730004556,,,,,,,,,,,,,,1.0,2.0,14.0,5.0,,,,,78.66125944501255,,,,,,,,,,,,,,,,,78.6562346300052,79.45535743099754,80.24806760001229,80.23919294201187,,,,,,,,,,,,,,,,80.24180292600067,80.24806760001229,80.24806760001229,80.79620907100616,b,1.0,0.5427099730004556,,80.79664303001482,80.80485549601144,81.7944026190089,81.78929486399284,,,,,,,,,,,,,,,,,,,,sub-149,1,stroop_test,,
,,,,15.0,3.0,1.0,,,,,blau,yellow,g,0.0,g,1.0,1.7902698969992343,,,,,,,,,,,,,,1.0,3.0,15.0,7.0,,,,,81.7944026190089,,,,,,,,,,,,,,,,,81.7896145269915,81.89369903999614,82.68860867701005,82.67759325599764,,,,,,,,,,,,,,,,82.67809290101286,82.68860867701005,82.68860867701005,84.49022420399706,g,1.0,1.7902698969992343,,84.49065798500669,84.49790323499474,85.49403393999091,85.4891722240136,,,,,,,,,,,,,,,,,,,,sub-149,1,stroop_test,,
,,,,16.0,4.0,1.0,,,,,rot,red,r,1.0,r,1.0,0.5640227659896482,,,,,,,,,,,,,,1.0,4.0,16.0,0.0,,,,,85.49403393999091,,,,,,,,,,,,,,,,,85.48948276601732,86.28875257101026,87.08124436700018,87.07262415598962,,,,,,,,,,,,,,,,87.07527758801007,87.08124436700018,87.08124436700018,87.65692553599365,r,1.0,0.5640227659896482,,87.6574238500034,87.66501992099802,88.66103415499674,88.65625536200241,,,,,,,,,,,,,,,,,,,,sub-149,1,stroop_test,,
,,,,17.0,5.0,1.0,,,,,rot,red,r,1.0,r,1.0,0.5756194480054546,,,,,,,,,,,,,,1.0,5.0,17.0,1.0,,,,,88.66103415499674,,,,,,,,,,,,,,,,,88.65658963899477,89.45524793901131,90.24628102901625,90.23958195900197,,,,,,,,,,,,,,,,90.240068892017,90.24628102901625,90.24628102901625,90.8236283849983,r,1.0,0.5756194480054546,,90.82405837599072,90.8312532500131,91.82800061700982,91.82275444100378,,,,,,,,,,,,,,,,,,,,sub-149,1,stroop_test,,
,,,,18.0,6.0,1.0,,,,,blau,red,r,0.0,b,0.0,0.9768626489967572,,,,,,,,,,,,,,1.0,6.0,18.0,4.0,,,,,91.82800061700982,,,,,,,,,,,,,,,,,91.82307326301816,92.1719667490106,92.9648130479909,92.95596279599704,,,,,,,,,,,,,,,,92.95857154100668,92.9648130479909,92.9648130479909,93.94557532400358,b,0.0,0.9768626489967572,,93.95007629500468,93.95804386000964,94.95506910100812,94.9445687039988,,,,,,,,,,,,,,,,,,,,sub-149,1,stroop_test,,
,,,,19.0,7.0,1.0,,,,,gelb,yellow,g,1.0,g,1.0,0.7634405590069946,,,,,,,,,,,,,,1.0,7.0,19.0,10.0,,,,,94.95506910100812,,,,,,,,,,,,,,,,,94.94488738200744,96.14378444600152,96.9386410099978,96.92779802400035,,,,,,,,,,,,,,,,96.93059286501376,96.9386410099978,96.9386410099978,97.70734587099288,g,1.0,0.7634405590069946,,97.70993923500646,97.71726869500708,98.71121942001628,98.70597290500882,,,,,,,,,,,,,,,,,,,,sub-149,1,stroop_test,,
,,,,20.0,8.0,1.0,,,,,rot,yellow,g,0.0,g,1.0,0.8800360540044494,,,,,,,,,,,,,,1.0,8.0,20.0,3.0,,,,,98.71121942001628,,,,,,,,,,,,,,,,,98.7063041490037,99.05553469300504,99.8480718480132,99.839307140006,,,,,,,,,,,,,,,,99.84187796601329,99.8480718480132,99.8480718480132,100.74054857098965,g,1.0,0.8800360540044494,,100.74105875499664,100.74849626401556,101.74472305100062,101.73938679599088,,,,,,,,,,,,,,,,,,,,sub-149,1,stroop_test,,
,,,,21.0,9.0,1.0,,,,,gelb,yellow,g,1.0,g,1.0,0.6203479309915565,,,,,,,,,,,,,,1.0,9.0,21.0,11.0,,,,,101.74472305100062,,,,,,,,,,,,,,,,,101.73971107800024,101.8387180470163,102.63167683800566,102.62292204701224,,,,,,,,,,,,,,,,102.62550210600602,102.63167683800566,102.63167683800566,103.2571355359978,g,1.0,0.6203479309915565,,103.25755591501364,103.2648198470124,104.26127234401064,104.25598517700564,,,,,,,,,,,,,,,,,,,,sub-149,1,stroop_test,,
,,,,22.0,10.0,1.0,,,,,gelb,red,r,0.0,r,1.0,0.7468065249850042,,,,,,,,,,,,,,1.0,10.0,22.0,8.0,,,,,104.26127234401064,,,,,,,,,,,,,,,,,104.25630788799026,104.35537416199804,105.1457319179899,105.13932768901576,,,,,,,,,,,,,,,,105.13982375600608,105.1457319179899,105.1457319179899,105.89568671799498,r,1.0,0.7468065249850042,,105.89611189000424,105.90531707901393,106.89461708400631,106.88933304400416,,,,,,,,,,,,,,,,,,,,sub-149,1,stroop_test,,
,,,,23.0,11.0,1.0,,,,,rot,blue,b,0.0,b,1.0,0.702070970000932,,,,,,,,,,,,,,1.0,11.0,23.0,2.0,,,,,106.89461708400631,,,,,,,,,,,,,,,,,106.88966016101767,107.24385076601176,108.0385005279968,108.02816148800775,,,,,,,,,,,,,,,,108.03078235199791,108.0385005279968,108.0385005279968,108.7458783420152,b,1.0,0.702070970000932,,108.74630772299132,108.7552691489982,109.74627368099756,109.73943609400884,,,,,,,,,,,,,,,,,,,,sub-149,1,stroop_test,,
,,,,,,,,,,,,,,,,,,,,,,,,,,,,,,,,,,,,,,,,,,,,,,,,,,,,,,,,,,,,,,,,,,,,,,,,,,,,,,,,,,,,,,,109.73957961800625,109.74627368099756,109.74627368099756,114.85688197499258,space,5.103076480998425,,,,,,,,,,,,,,sub-149,1,stroop_test,,
,,,,0.0,0.0,0.0,,,,,,,,,,,,,rot,yellow,g,0.0,g,1.0,0.7068717680231202,,,,,,,,,,0.0,0.0,0.0,3.0,114.87495470399152,,,,,,,,,,,,,,,,,114.86669130501105,116.05538033801712,116.8482534190116,116.83952128799864,,,,,,,,,,,,,,,,,,,,,,,,,,,,,,,,,,,116.84233462400152,116.8482534190116,116.8482534190116,117.5572328630078,g,1.0,0.7068717680231202,,,,,,sub-149,1,stroop_test,,
,,,,1.0,1.0,0.0,,,,,,,,,,,,,gelb,yellow,g,1.0,g,1.0,0.5067978969891556,,,,,,,,,,0.0,1.0,1.0,11.0,117.56394763401477,,,,,,,,,,,,,,,,,117.55754376700496,117.65524588699918,118.44800478901016,118.439347483014,,,,,,,,,,,,,,,,,,,,,,,,,,,,,,,,,,,118.44185624300736,118.44800478901016,118.44800478901016,118.95632634698995,g,1.0,0.5067978969891556,,,,,,sub-149,1,stroop_test,,
,,,,2.0,2.0,0.0,,,,,,,,,,,,,blau,red,r,0.0,r,1.0,0.6371414599998388,,,,,,,,,,0.0,2.0,2.0,4.0,118.96245910800644,,,,,,,,,,,,,,,,,118.9565915580024,119.74421925100614,120.53860902000451,120.52795149901068,,,,,,,,,,,,,,,,,,,,,,,,,,,,,,,,,,,120.53053839501808,120.53860902000451,120.53860902000451,121.17934590100776,r,1.0,0.6371414599998388,,,,,,sub-149,1,stroop_test,,
,,,,3.0,3.0,0.0,,,,,,,,,,,,,rot,blue,b,0.0,b,1.0,0.5794166289852001,,,,,,,,,,0.0,3.0,3.0,2.0,121.18853180899168,,,,,,,,,,,,,,,,,121.1796949210111,121.27728402300272,122.07201754301786,122.06132757299928,,,,,,,,,,,,,,,,,,,,,,,,,,,,,,,,,,,122.06416531500872,122.07201754301786,122.07201754301786,122.65674797599786,b,1.0,0.5794166289852001,,,,,,sub-149,1,stroop_test,,
,,,,4.0,4.0,0.0,,,,,,,,,,,,,rot,red,r,1.0,r,1.0,0.5963665340095758,,,,,,,,,,0.0,4.0,4.0,1.0,122.66334562099657,,,,,,,,,,,,,,,,,122.65705360099672,123.00561123201624,123.7955698010046,123.78934571999709,,,,,,,,,,,,,,,,,,,,,,,,,,,,,,,,,,,123.78983841600711,123.7955698010046,123.7955698010046,124.3959719419945,r,1.0,0.5963665340095758,,,,,,sub-149,1,stroop_test,,
,,,,5.0,5.0,0.0,,,,,,,,,,,,,blau,blue,b,1.0,b,1.0,0.5642453340115026,,,,,,,,,,0.0,5.0,5.0,6.0,124.40520938800182,,,,,,,,,,,,,,,,,124.39627543700044,125.19385642401176,125.98870439600432,125.97795241200949,,,,,,,,,,,,,,,,,,,,,,,,,,,,,,,,,,,125.98056894901674,125.98870439600432,125.98870439600432,126.55712408901309,b,1.0,0.5642453340115026,,,,,,sub-149,1,stroop_test,,
,,,,6.0,6.0,0.0,,,,,,,,,,,,,blau,yellow,g,0.0,g,1.0,0.4861075079825241,,,,,,,,,,0.0,6.0,6.0,7.0,126.56369135301792,,,,,,,,,,,,,,,,,126.55743766800153,126.90542966400972,127.6956233009987,127.68938872101717,,,,,,,,,,,,,,,,,,,,,,,,,,,,,,,,,,,127.6898995230149,127.6956233009987,127.6956233009987,128.19078255799832,g,1.0,0.4861075079825241,,,,,,sub-149,1,stroop_test,,
,,,,7.0,7.0,0.0,,,,,,,,,,,,,gelb,blue,b,0.0,b,1.0,0.5450173999997787,,,,,,,,,,0.0,7.0,7.0,9.0,128.19755290899775,,,,,,,,,,,,,,,,,128.19108919601422,129.38889157699305,130.18137606800883,130.17270541301696,,,,,,,,,,,,,,,,,,,,,,,,,,,,,,,,,,,130.1752216219902,130.18137606800883,130.18137606800883,130.72893293001107,b,1.0,0.5450173999997787,,,,,,sub-149,1,stroop_test,,
,,,,8.0,8.0,0.0,,,,,,,,,,,,,blau,blue,b,1.0,b,1.0,0.6089561390108429,,,,,,,,,,0.0,8.0,8.0,5.0,130.7386966070044,,,,,,,,,,,,,,,,,130.7292388450005,131.52728688300704,132.32200663801632,132.31117931200424,,,,,,,,,,,,,,,,,,,,,,,,,,,,,,,,,,,132.31382396901608,132.32200663801632,132.32200663801632,132.940718657017,b,1.0,0.6089561390108429,,,,,,sub-149,1,stroop_test,,
,,,,9.0,9.0,0.0,,,,,,,,,,,,,gelb,yellow,g,1.0,g,1.0,0.5513690809893887,,,,,,,,,,0.0,9.0,9.0,10.0,132.94751011801418,,,,,,,,,,,,,,,,,132.94107054601773,133.2887256309914,134.08184654300567,134.07275369600393,,,,,,,,,,,,,,,,,,,,,,,,,,,,,,,,,,,134.07548780800423,134.08184654300567,134.08184654300567,134.6403462550079,g,1.0,0.5513690809893887,,,,,,sub-149,1,stroop_test,,
,,,,10.0,10.0,0.0,,,,,,,,,,,,,gelb,red,r,0.0,r,1.0,0.5606042650179006,,,,,,,,,,0.0,10.0,10.0,8.0,134.64690541100572,,,,,,,,,,,,,,,,,134.6406555190042,134.73870400799206,135.52932267601136,135.5227836779959,,,,,,,,,,,,,,,,,,,,,,,,,,,,,,,,,,,135.5232773940079,135.52932267601136,135.52932267601136,136.0979299689934,r,1.0,0.5606042650179006,,,,,,sub-149,1,stroop_test,,
,,,,11.0,11.0,0.0,,,,,,,,,,,,,rot,red,r,1.0,r,1.0,0.6160242889891379,,,,,,,,,,0.0,11.0,11.0,0.0,136.10527272100444,,,,,,,,,,,,,,,,,136.09819864699966,137.2938404130109,138.08871394500602,138.07786228400073,,,,,,,,,,,,,,,,,,,,,,,,,,,,,,,,,,,138.08039645699318,138.08871394500602,138.08871394500602,138.70707329601282,r,1.0,0.6160242889891379,,,,,,sub-149,1,stroop_test,,
,,,,12.0,0.0,1.0,,,,,,,,,,,,,blau,blue,b,1.0,b,1.0,0.5563315479957964,,,,,,,,,,1.0,0.0,12.0,6.0,138.71370404199115,,,,,,,,,,,,,,,,,138.70737742300844,138.8052793770039,139.598563416017,139.58962523099035,,,,,,,,,,,,,,,,,,,,,,,,,,,,,,,,,,,139.59225132901338,139.598563416017,139.598563416017,140.1567484489933,b,1.0,0.5563315479957964,,,,,,sub-149,1,stroop_test,,
,,,,13.0,1.0,1.0,,,,,,,,,,,,,rot,red,r,1.0,r,1.0,0.573261771001853,,,,,,,,,,1.0,1.0,13.0,1.0,140.163426300016,,,,,,,,,,,,,,,,,140.1570692929963,141.35558363300515,142.148362412001,142.13955650301068,,,,,,,,,,,,,,,,,,,,,,,,,,,,,,,,,,,142.14215080600115,142.148362412001,142.148362412001,142.72351981999236,r,1.0,0.573261771001853,,,,,,sub-149,1,stroop_test,,
,,,,14.0,2.0,1.0,,,,,,,,,,,,,gelb,yellow,g,1.0,g,1.0,0.6024628710001707,,,,,,,,,,1.0,2.0,14.0,10.0,142.7301721679978,,,,,,,,,,,,,,,,,142.7238384039956,143.52218048399664,144.31516311698942,144.30616307500168,,,,,,,,,,,,,,,,,,,,,,,,,,,,,,,,,,,144.3089851459954,144.31516311698942,144.31516311698942,144.92377563100308,g,1.0,0.6024628710001707,,,,,,sub-149,1,stroop_test,,
,,,,15.0,3.0,1.0,,,,,,,,,,,,,gelb,yellow,g,1.0,g,1.0,0.4551144120050594,,,,,,,,,,1.0,3.0,15.0,11.0,144.93044947899762,,,,,,,,,,,,,,,,,144.92408341899863,146.12212612800067,146.91295568400528,146.9063616740168,,,,,,,,,,,,,,,,,,,,,,,,,,,,,,,,,,,146.906850475003,146.91295568400528,146.91295568400528,147.3735698419914,g,1.0,0.4551144120050594,,,,,,sub-149,1,stroop_test,,
,,,,16.0,4.0,1.0,,,,,,,,,,,,,blau,red,r,0.0,r,1.0,0.8157104900164995,,,,,,,,,,1.0,4.0,16.0,4.0,147.38025945200934,,,,,,,,,,,,,,,,,147.37387262599077,147.47218898899155,148.26523466600338,148.2563560460112,,,,,,,,,,,,,,,,,,,,,,,,,,,,,,,,,,,148.25917287400807,148.26523466600338,148.26523466600338,149.09067173401127,r,1.0,0.8157104900164995,,,,,,sub-149,1,stroop_test,,
,,,,17.0,5.0,1.0,,,,,,,,,,,,,blau,blue,b,1.0,b,1.0,0.5970293520076666,,,,,,,,,,1.0,5.0,17.0,5.0,149.09759985099663,,,,,,,,,,,,,,,,,149.09104861601372,149.4388122940145,150.22915146200103,150.22309924900765,,,,,,,,,,,,,,,,,,,,,,,,,,,,,,,,,,,150.22359730899916,150.22915146200103,150.22915146200103,150.82913087899215,b,1.0,0.5970293520076666,,,,,,sub-149,1,stroop_test,,
,,,,18.0,6.0,1.0,,,,,,,,,,,,,blau,yellow,g,0.0,g,1.0,0.6570883849926759,,,,,,,,,,1.0,6.0,18.0,7.0,150.83857875299873,,,,,,,,,,,,,,,,,150.82943566000904,150.92739515699213,151.72217028899468,151.71135238799616,,,,,,,,,,,,,,,,,,,,,,,,,,,,,,,,,,,151.71183841800666,151.72217028899468,151.72217028899468,152.39076657700934,g,1.0,0.6570883849926759,,,,,,sub-149,1,stroop_test,,
,,,,19.0,7.0,1.0,,,,,,,,,,,,,gelb,red,r,0.0,r,1.0,0.8068710420047864,,,,,,,,,,1.0,7.0,19.0,8.0,152.39759706199402,,,,,,,,,,,,,,,,,152.3911468530132,153.58883087799768,154.38149054799578,154.37281578799593,,,,,,,,,,,,,,,,,,,,,,,,,,,,,,,,,,,154.37544953700854,154.38149054799578,154.38149054799578,155.1903794509999,r,1.0,0.8068710420047864,,,,,,sub-149,1,stroop_test,,
,,,,20.0,8.0,1.0,,,,,,,,,,,,,gelb,blue,b,0.0,b,1.0,0.6561789469851647,,,,,,,,,,1.0,8.0,20.0,9.0,155.19694572800654,,,,,,,,,,,,,,,,,155.19068881100975,155.53887468299945,156.32952849499998,156.32282357299118,,,,,,,,,,,,,,,,,,,,,,,,,,,,,,,,,,,156.32349085700116,156.32952849499998,156.32952849499998,156.99052465500426,b,1.0,0.6561789469851647,,,,,,sub-149,1,stroop_test,,
,,,,21.0,9.0,1.0,,,,,,,,,,,,,rot,red,r,1.0,r,1.0,0.5772428209893405,,,,,,,,,,1.0,9.0,21.0,0.0,156.99730738901417,,,,,,,,,,,,,,,,,156.99083760299254,157.08884874900104,157.8813998530095,157.87313953999546,,,,,,,,,,,,,,,,,,,,,,,,,,,,,,,,,,,157.87540903800982,157.8813998530095,157.8813998530095,158.46244392101653,r,1.0,0.5772428209893405,,,,,,sub-149,1,stroop_test,,
,,,,22.0,10.0,1.0,,,,,,,,,,,,,rot,blue,b,0.0,b,1.0,0.5904221709934063,,,,,,,,,,1.0,10.0,22.0,2.0,158.4719792760152,,,,,,,,,,,,,,,,,158.4627391989925,159.6609657590161,160.45553833901067,160.4446654880012,,,,,,,,,,,,,,,,,,,,,,,,,,,,,,,,,,,160.44514551601603,160.45553833901067,160.45553833901067,161.05772312701447,b,1.0,0.5904221709934063,,,,,,sub-149,1,stroop_test,,
,,,,23.0,11.0,1.0,,,,,,,,,,,,,rot,yellow,g,0.0,g,1.0,0.6862992309906986,,,,,,,,,,1.0,11.0,23.0,3.0,161.06464048000635,,,,,,,,,,,,,,,,,161.05803533701692,161.40546773798997,162.19585790100973,162.1894468870014,,,,,,,,,,,,,,,,,,,,,,,,,,,,,,,,,,,162.18996193399653,162.19585790100973,162.19585790100973,162.89037769299466,g,1.0,0.6862992309906986,,,,,,sub-149,1,stroop_test,,
,,,,24.0,0.0,2.0,,,,,,,,,,,,,rot,yellow,g,0.0,g,1.0,1.0613441989989951,,,,,,,,,,2.0,0.0,24.0,3.0,162.89715817800607,,,,,,,,,,,,,,,,,162.8906845760066,164.08887264700024,164.8794971310126,164.87291531899243,,,,,,,,,,,,,,,,,,,,,,,,,,,,,,,,,,,164.87341550400015,164.8794971310126,164.8794971310126,165.94653019699035,g,1.0,1.0613441989989951,,,,,,sub-149,1,stroop_test,,
,,,,25.0,1.0,2.0,,,,,,,,,,,,,gelb,red,r,0.0,r,1.0,0.4685736790124792,,,,,,,,,,2.0,1.0,25.0,8.0,165.95545194801525,,,,,,,,,,,,,,,,,165.9469090939965,166.293981447001,167.08876106500975,167.07819121901412,,,,,,,,,,,,,,,,,,,,,,,,,,,,,,,,,,,167.08077128100558,167.08876106500975,167.08876106500975,167.56279394801822,r,1.0,0.4685736790124792,,,,,,sub-149,1,stroop_test,,
,,,,26.0,2.0,2.0,,,,,,,,,,,,,rot,red,r,1.0,r,1.0,0.5789370230049826,,,,,,,,,,2.0,2.0,26.0,1.0,167.5720990190166,,,,,,,,,,,,,,,,,167.56310128199402,167.66067620000103,168.4554336029978,168.44464104500366,,,,,,,,,,,,,,,,,,,,,,,,,,,,,,,,,,,168.44720196400883,168.4554336029978,168.4554336029978,169.04029940400503,r,1.0,0.5789370230049826,,,,,,sub-149,1,stroop_test,,
,,,,27.0,3.0,2.0,,,,,,,,,,,,,gelb,blue,b,0.0,b,1.0,0.4102123710035812,,,,,,,,,,2.0,3.0,27.0,9.0,169.0467314470152,,,,,,,,,,,,,,,,,169.04060456799925,169.83916596201016,170.63201997498982,170.62285910500214,,,,,,,,,,,,,,,,,,,,,,,,,,,,,,,,,,,170.62603448799928,170.63201997498982,170.63201997498982,171.04635385301663,b,1.0,0.4102123710035812,,,,,,sub-149,1,stroop_test,,
,,,,28.0,4.0,2.0,,,,,,,,,,,,,gelb,yellow,g,1.0,g,1.0,0.3534148690232541,,,,,,,,,,2.0,4.0,28.0,10.0,171.05538557399996,,,,,,,,,,,,,,,,,171.04665942801512,171.8439997450041,172.63901126899873,172.62810359001742,,,,,,,,,,,,,,,,,,,,,,,,,,,,,,,,,,,172.6285916719935,172.63901126899873,172.63901126899873,172.99584390799282,g,1.0,0.3534148690232541,,,,,,sub-149,1,stroop_test,,
,,,,29.0,5.0,2.0,,,,,,,,,,,,,rot,red,r,1.0,r,1.0,0.3441729240003042,,,,,,,,,,2.0,5.0,29.0,0.0,173.00559306400828,,,,,,,,,,,,,,,,,172.99615094301407,173.79405686899554,174.58884374800255,174.57791781899869,,,,,,,,,,,,,,,,,,,,,,,,,,,,,,,,,,,174.58057096399716,174.58884374800255,174.58884374800255,174.9407827790128,r,1.0,0.3441729240003042,,,,,,sub-149,1,stroop_test,,
,,,,30.0,6.0,2.0,,,,,,,,,,,,,blau,blue,b,1.0,b,1.0,0.5423962080094498,,,,,,,,,,2.0,6.0,30.0,5.0,174.9476971400145,,,,,,,,,,,,,,,,,174.94115579899517,175.03889107101713,175.83208756399108,175.82337776900386,,,,,,,,,,,,,,,,,,,,,,,,,,,,,,,,,,,175.8259925050079,175.83208756399108,175.83208756399108,176.37985426801606,b,1.0,0.5423962080094498,,,,,,sub-149,1,stroop_test,,
,,,,31.0,7.0,2.0,,,,,,,,,,,,,blau,yellow,g,0.0,g,1.0,0.4955806509824469,,,,,,,,,,2.0,7.0,31.0,7.0,176.3889280690055,,,,,,,,,,,,,,,,,176.38021753099747,177.17744004301494,177.9721686349949,177.96126277500298,,,,,,,,,,,,,,,,,,,,,,,,,,,,,,,,,,,177.96176254199236,177.9721686349949,177.9721686349949,178.4737076050078,g,1.0,0.4955806509824469,,,,,,sub-149,1,stroop_test,,
,,,,32.0,8.0,2.0,,,,,,,,,,,,,blau,blue,b,1.0,b,1.0,0.5072187449841294,,,,,,,,,,2.0,8.0,32.0,6.0,178.48042597601307,,,,,,,,,,,,,,,,,178.47401047800668,178.82240035801078,179.61311192400171,179.60654477399655,,,,,,,,,,,,,,,,,,,,,,,,,,,,,,,,,,,179.6070285970054,179.61311192400171,179.61311192400171,180.12349314699532,b,1.0,0.5072187449841294,,,,,,sub-149,1,stroop_test,,
,,,,33.0,9.0,2.0,,,,,,,,,,,,,rot,blue,b,0.0,b,1.0,0.7477611009962857,,,,,,,,,,2.0,9.0,33.0,2.0,180.12997978800558,,,,,,,,,,,,,,,,,180.12380715599284,181.32219048799016,182.1152665420086,182.10653660900425,,,,,,,,,,,,,,,,,,,,,,,,,,,,,,,,,,,182.10898652800824,182.1152665420086,182.1152665420086,182.87404895899817,b,1.0,0.7477611009962857,,,,,,sub-149,1,stroop_test,,
,,,,34.0,10.0,2.0,,,,,,,,,,,,,blau,red,r,0.0,r,1.0,0.593785225006286,,,,,,,,,,2.0,10.0,34.0,4.0,182.8807703180064,,,,,,,,,,,,,,,,,182.87445369301716,183.2222366920032,184.01517279699328,184.00625292700715,,,,,,,,,,,,,,,,,,,,,,,,,,,,,,,,,,,184.00895204101107,184.01517279699328,184.01517279699328,184.61299635400064,r,1.0,0.593785225006286,,,,,,sub-149,1,stroop_test,,
,,,,35.0,11.0,2.0,,,,,,,,,,,,,gelb,yellow,g,1.0,g,1.0,0.4271510390099138,,,,,,,,,,2.0,11.0,35.0,11.0,184.62192224999308,,,,,,,,,,,,,,,,,184.6133164310013,184.71088316800888,185.50537071499275,185.49466164401383,,,,,,,,,,,,,,,,,,,,,,,,,,,,,,,,,,,185.49722542401287,185.50537071499275,185.50537071499275,185.9403675220092,g,1.0,0.4271510390099138,,,,,,sub-149,1,stroop_test,,
,,,,36.0,0.0,3.0,,,,,,,,,,,,,gelb,yellow,g,1.0,g,1.0,0.6492038140131626,,,,,,,,,,3.0,0.0,36.0,10.0,185.94702531100484,,,,,,,,,,,,,,,,,185.94067471299783,187.13888239799417,187.92895632600997,187.92290450201835,,,,,,,,,,,,,,,,,,,,,,,,,,,,,,,,,,,187.9233089509944,187.92895632600997,187.92895632600997,188.5796858300164,g,1.0,0.6492038140131626,,,,,,sub-149,1,stroop_test,,
,,,,37.0,1.0,3.0,,,,,,,,,,,,,blau,red,r,0.0,r,1.0,0.8408353279810399,,,,,,,,,,3.0,1.0,37.0,4.0,188.58880348701496,,,,,,,,,,,,,,,,,188.57999663898957,188.6775753890106,189.47209458699217,189.46136976001435,,,,,,,,,,,,,,,,,,,,,,,,,,,,,,,,,,,189.4644228240068,189.47209458699217,189.47209458699217,190.32410066601005,r,1.0,0.8408353279810399,,,,,,sub-149,1,stroop_test,,
,,,,38.0,2.0,3.0,,,,,,,,,,,,,rot,red,r,1.0,r,1.0,0.4773117860022466,,,,,,,,,,3.0,2.0,38.0,0.0,190.33089290201315,,,,,,,,,,,,,,,,,190.32440687800408,191.5223893840157,192.3143281270168,192.30609785899287,,,,,,,,,,,,,,,,,,,,,,,,,,,,,,,,,,,192.30837026500376,192.3143281270168,192.3143281270168,192.79641367899603,r,1.0,0.4773117860022466,,,,,,sub-149,1,stroop_test,,
,,,,39.0,3.0,3.0,,,,,,,,,,,,,rot,blue,b,0.0,b,1.0,0.4806843240221496,,,,,,,,,,3.0,3.0,39.0,2.0,192.8054247870168,,,,,,,,,,,,,,,,,192.79678339799284,193.14438911899924,193.938902747992,193.92790221399628,,,,,,,,,,,,,,,,,,,,,,,,,,,,,,,,,,,193.92829437099863,193.938902747992,193.938902747992,194.4237877060077,b,1.0,0.4806843240221496,,,,,,sub-149,1,stroop_test,,
,,,,40.0,4.0,3.0,,,,,,,,,,,,,rot,red,r,1.0,r,1.0,0.6984486859873869,,,,,,,,,,3.0,4.0,40.0,1.0,194.43059016001644,,,,,,,,,,,,,,,,,194.4240941189928,194.52235568899775,195.3125229650177,195.30646153201812,,,,,,,,,,,,,,,,,,,,,,,,,,,,,,,,,,,195.30695071798985,195.3125229650177,195.3125229650177,196.01250703100231,r,1.0,0.6984486859873869,,,,,,sub-149,1,stroop_test,,
,,,,41.0,5.0,3.0,,,,,,,,,,,,,gelb,yellow,g,1.0,g,1.0,0.4676434450084343,,,,,,,,,,3.0,5.0,41.0,11.0,196.02208727199468,,,,,,,,,,,,,,,,,196.01279859201168,196.8108054420154,197.6055530180165,197.5951474810136,,,,,,,,,,,,,,,,,,,,,,,,,,,,,,,,,,,197.59801557901665,197.6055530180165,197.6055530180165,198.0787079500151,g,1.0,0.4676434450084343,,,,,,sub-149,1,stroop_test,,
,,,,42.0,6.0,3.0,,,,,,,,,,,,,blau,yellow,g,0.0,g,1.0,0.5422093410161324,,,,,,,,,,3.0,6.0,42.0,7.0,198.08900044599432,,,,,,,,,,,,,,,,,198.07900245400376,198.8776309009991,199.67225504800444,199.6614667949907,,,,,,,,,,,,,,,,,,,,,,,,,,,,,,,,,,,199.664177624014,199.67225504800444,199.67225504800444,200.2242090490181,g,1.0,0.5422093410161324,,,,,,sub-149,1,stroop_test,,
,,,,43.0,7.0,3.0,,,,,,,,,,,,,blau,blue,b,1.0,b,1.0,0.4331074900110252,,,,,,,,,,3.0,7.0,43.0,6.0,200.23117807199012,,,,,,,,,,,,,,,,,200.22459187399363,200.5723207250121,201.3629280739988,201.3563133070129,,,,,,,,,,,,,,,,,,,,,,,,,,,,,,,,,,,201.3569853939989,201.3629280739988,201.3629280739988,201.807911069016,b,1.0,0.4331074900110252,,,,,,sub-149,1,stroop_test,,
,,,,44.0,8.0,3.0,,,,,,,,,,,,,gelb,blue,b,0.0,b,1.0,0.6650353370059747,,,,,,,,,,3.0,8.0,44.0,9.0,201.8146669479902,,,,,,,,,,,,,,,,,201.80821627099067,202.155567534006,202.94652337100703,202.9389782930084,,,,,,,,,,,,,,,,,,,,,,,,,,,,,,,,,,,202.9409242529946,202.94652337100703,202.94652337100703,203.61342147400137,b,1.0,0.6650353370059747,,,,,,sub-149,1,stroop_test,,
,,,,45.0,9.0,3.0,,,,,,,,,,,,,blau,blue,b,1.0,b,1.0,0.5172447880031541,,,,,,,,,,3.0,9.0,45.0,5.0,203.6221776159946,,,,,,,,,,,,,,,,,203.6137239570089,204.811105433997,205.6052837439929,205.59493848399143,,,,,,,,,,,,,,,,,,,,,,,,,,,,,,,,,,,205.59739470400385,205.6052837439929,205.6052837439929,206.1244906570064,b,1.0,0.5172447880031541,,,,,,sub-149,1,stroop_test,,
,,,,46.0,10.0,3.0,,,,,,,,,,,,,gelb,red,r,0.0,r,1.0,0.5922381720156409,,,,,,,,,,3.0,10.0,46.0,8.0,206.1310806120164,,,,,,,,,,,,,,,,,206.12479733399232,206.22229356400203,207.01533746201312,207.0063328300021,,,,,,,,,,,,,,,,,,,,,,,,,,,,,,,,,,,207.00938440999016,207.01533746201312,207.01533746201312,207.61293004499748,r,1.0,0.5922381720156409,,,,,,sub-149,1,stroop_test,,
,,,,47.0,11.0,3.0,,,,,,,,,,,,,rot,yellow,g,0.0,g,1.0,0.4164245589927304,,,,,,,,,,3.0,11.0,47.0,3.0,207.6221646190097,,,,,,,,,,,,,,,,,207.61323702099617,208.41075119801096,209.20552146900445,209.19491933399692,,,,,,,,,,,,,,,,,,,,,,,,,,,,,,,,,,,209.1973460940062,209.20552146900445,209.20552146900445,209.62392166999047,g,1.0,0.4164245589927304,,,,,,sub-149,1,stroop_test,,
,,,,48.0,0.0,4.0,,,,,,,,,,,,,blau,blue,b,1.0,b,1.0,0.4467793620133307,,,,,,,,,,4.0,0.0,48.0,5.0,209.6305067450157,,,,,,,,,,,,,,,,,209.62422440000228,210.42242858899408,211.2158379710163,211.20632938999915,,,,,,,,,,,,,,,,,,,,,,,,,,,,,,,,,,,211.2093627360009,211.2158379710163,211.2158379710163,211.67316323600244,b,1.0,0.4467793620133307,,,,,,sub-149,1,stroop_test,,
,,,,49.0,1.0,4.0,,,,,,,,,,,,,rot,blue,b,0.0,b,1.0,0.5565941639943048,,,,,,,,,,4.0,1.0,49.0,2.0,211.6793678220129,,,,,,,,,,,,,,,,,211.67342091500177,212.8607984459959,213.6556202929933,213.6450619730167,,,,,,,,,,,,,,,,,,,,,,,,,,,,,,,,,,,213.64754181401804,213.6556202929933,213.6556202929933,214.22412690499917,b,1.0,0.5565941639943048,,,,,,sub-149,1,stroop_test,,
,,,,50.0,2.0,4.0,,,,,,,,,,,,,gelb,yellow,g,1.0,g,1.0,0.639548631006619,,,,,,,,,,4.0,2.0,50.0,10.0,214.2307654840115,,,,,,,,,,,,,,,,,214.2244417880138,214.32226600899597,215.11492795101367,215.1063291140017,,,,,,,,,,,,,,,,,,,,,,,,,,,,,,,,,,,215.10897498499253,215.11492795101367,215.11492795101367,215.75708148701236,g,1.0,0.639548631006619,,,,,,sub-149,1,stroop_test,,
,,,,51.0,3.0,4.0,,,,,,,,,,,,,rot,red,r,1.0,r,1.0,0.3362139549863059,,,,,,,,,,4.0,3.0,51.0,1.0,215.76349566999124,,,,,,,,,,,,,,,,,215.75739571801387,216.1056179210136,216.8984394799918,216.8897732619953,,,,,,,,,,,,,,,,,,,,,,,,,,,,,,,,,,,216.89224818799997,216.8984394799918,216.8984394799918,217.2404060219997,r,1.0,0.3362139549863059,,,,,,sub-149,1,stroop_test,,
,,,,52.0,4.0,4.0,,,,,,,,,,,,,gelb,red,r,0.0,r,1.0,0.6481274050020147,,,,,,,,,,4.0,4.0,52.0,8.0,217.24719358200676,,,,,,,,,,,,,,,,,217.2407307800022,218.03893402099493,218.83205782499863,218.82298815401737,,,,,,,,,,,,,,,,,,,,,,,,,,,,,,,,,,,218.8257589369896,218.83205782499863,218.83205782499863,219.4908550590044,r,1.0,0.6481274050020147,,,,,,sub-149,1,stroop_test,,
,,,,53.0,5.0,4.0,,,,,,,,,,,,,blau,blue,b,1.0,b,1.0,0.5639080689870752,,,,,,,,,,4.0,5.0,53.0,6.0,219.49764269700967,,,,,,,,,,,,,,,,,219.49119319801684,220.28897071900428,221.08203717300785,221.07318252601544,,,,,,,,,,,,,,,,,,,,,,,,,,,,,,,,,,,221.07601584901568,221.08203717300785,221.08203717300785,221.65779313701205,b,1.0,0.5639080689870752,,,,,,sub-149,1,stroop_test,,
,,,,54.0,6.0,4.0,,,,,,,,,,,,,gelb,yellow,g,1.0,g,1.0,0.6615688299934845,,,,,,,,,,4.0,6.0,54.0,11.0,221.66522743500536,,,,,,,,,,,,,,,,,221.658173481992,222.45535345200915,223.2486323199992,223.2397334779962,,,,,,,,,,,,,,,,,,,,,,,,,,,,,,,,,,,223.2423642649956,223.2486323199992,223.2486323199992,223.912625699013,g,1.0,0.6615688299934845,,,,,,sub-149,1,stroop_test,,
,,,,55.0,7.0,4.0,,,,,,,,,,,,,rot,red,r,1.0,r,1.0,0.4488517400168348,,,,,,,,,,4.0,7.0,55.0,0.0,223.9269625529996,,,,,,,,,,,,,,,,,223.91289609999512,224.0117630640161,224.80564485301147,224.7950305440172,,,,,,,,,,,,,,,,,,,,,,,,,,,,,,,,,,,224.7975908869994,224.80564485301147,224.80564485301147,225.2575188020128,r,1.0,0.4488517400168348,,,,,,sub-149,1,stroop_test,,
,,,,56.0,8.0,4.0,,,,,,,,,,,,,rot,yellow,g,0.0,g,1.0,0.4422878170153126,,,,,,,,,,4.0,8.0,56.0,3.0,225.2641750269977,,,,,,,,,,,,,,,,,225.2579093230015,225.35565844501247,226.14577692199964,226.13967821601543,,,,,,,,,,,,,,,,,,,,,,,,,,,,,,,,,,,226.1401732150116,226.14577692199964,226.14577692199964,226.59041490900563,g,1.0,0.4422878170153126,,,,,,sub-149,1,stroop_test,,
,,,,57.0,9.0,4.0,,,,,,,,,,,,,gelb,blue,b,0.0,b,1.0,0.3820543280162383,,,,,,,,,,4.0,9.0,57.0,9.0,226.59694167299315,,,,,,,,,,,,,,,,,226.590711508994,227.3890727120161,228.18108048901195,228.17266786299297,,,,,,,,,,,,,,,,,,,,,,,,,,,,,,,,,,,228.17539122799644,228.18108048901195,228.18108048901195,228.5741370570031,b,1.0,0.3820543280162383,,,,,,sub-149,1,stroop_test,,
,,,,58.0,10.0,4.0,,,,,,,,,,,,,blau,yellow,g,0.0,g,1.0,0.639601358998334,,,,,,,,,,4.0,10.0,58.0,7.0,228.58100294700125,,,,,,,,,,,,,,,,,228.57444232801208,228.67243110801792,229.46519348499717,229.4563286160119,,,,,,,,,,,,,,,,,,,,,,,,,,,,,,,,,,,229.45886322899605,229.46519348499717,229.46519348499717,230.10738552900148,g,1.0,0.639601358998334,,,,,,sub-149,1,stroop_test,,
,,,,59.0,11.0,4.0,,,,,,,,,,,,,blau,red,r,0.0,r,1.0,0.378035000001546,,,,,,,,,,4.0,11.0,59.0,4.0,230.11414876399795,,,,,,,,,,,,,,,,,230.10769177699692,231.30563730801805,232.09632800900727,232.08978620299604,,,,,,,,,,,,,,,,,,,,,,,,,,,,,,,,,,,232.09027699701252,232.09632800900727,232.09632800900727,232.47966147499392,r,1.0,0.378035000001546,,,,,,sub-149,1,stroop_test,,
,,,,60.0,0.0,5.0,,,,,,,,,,,,,gelb,red,r,0.0,r,1.0,0.4989859510096721,,,,,,,,,,5.0,0.0,60.0,8.0,232.48892262901063,,,,,,,,,,,,,,,,,232.4799678910058,232.82758326799376,233.622295328998,233.6115313009941,,,,,,,,,,,,,,,,,,,,,,,,,,,,,,,,,,,233.61408534800285,233.622295328998,233.622295328998,234.12383117800343,r,1.0,0.4989859510096721,,,,,,sub-149,1,stroop_test,,
,,,,61.0,1.0,5.0,,,,,,,,,,,,,blau,blue,b,1.0,b,1.0,0.4702623730117921,,,,,,,,,,5.0,1.0,61.0,5.0,234.13044441200327,,,,,,,,,,,,,,,,,234.12413323199144,234.47232995400557,235.265597502992,235.2564286699926,,,,,,,,,,,,,,,,,,,,,,,,,,,,,,,,,,,235.2594963620068,235.265597502992,235.265597502992,235.74075220999657,b,1.0,0.4702623730117921,,,,,,sub-149,1,stroop_test,,
,,,,62.0,2.0,5.0,,,,,,,,,,,,,blau,red,r,0.0,r,1.0,0.5484701629902702,,,,,,,,,,5.0,2.0,62.0,4.0,235.74746745900484,,,,,,,,,,,,,,,,,235.74106062800277,236.93917029799195,237.7293556810182,237.7233432760113,,,,,,,,,,,,,,,,,,,,,,,,,,,,,,,,,,,237.7238257020072,237.7293556810182,237.7293556810182,238.27943351800783,r,1.0,0.5484701629902702,,,,,,sub-149,1,stroop_test,,
,,,,63.0,3.0,5.0,,,,,,,,,,,,,rot,red,r,1.0,r,1.0,0.5302767089742702,,,,,,,,,,5.0,3.0,63.0,0.0,238.2889130449912,,,,,,,,,,,,,,,,,238.27972026501084,238.37797845801103,239.17225094299647,239.16160854900957,,,,,,,,,,,,,,,,,,,,,,,,,,,,,,,,,,,239.1641233979899,239.17225094299647,239.17225094299647,239.70740157700493,r,1.0,0.5302767089742702,,,,,,sub-149,1,stroop_test,,
,,,,64.0,4.0,5.0,,,,,,,,,,,,,blau,blue,b,1.0,b,1.0,0.5175387900089845,,,,,,,,,,5.0,4.0,64.0,6.0,239.714334963006,,,,,,,,,,,,,,,,,239.70771178699212,240.9056529260124,241.69821843801765,241.689725720993,,,,,,,,,,,,,,,,,,,,,,,,,,,,,,,,,,,241.6922212720092,241.69821843801765,241.69821843801765,242.2235990900081,b,1.0,0.5175387900089845,,,,,,sub-149,1,stroop_test,,
,,,,65.0,5.0,5.0,,,,,,,,,,,,,rot,red,r,1.0,r,1.0,0.497771718975855,,,,,,,,,,5.0,5.0,65.0,1.0,242.23015599901555,,,,,,,,,,,,,,,,,242.22390415600967,243.4224960260035,244.21549489401517,244.2066671730136,,,,,,,,,,,,,,,,,,,,,,,,,,,,,,,,,,,244.2092940660077,244.21549489401517,244.21549489401517,244.7241209890053,r,1.0,0.497771718975855,,,,,,sub-149,1,stroop_test,,
,,,,66.0,6.0,5.0,,,,,,,,,,,,,gelb,yellow,g,1.0,g,1.0,0.4475507620081771,,,,,,,,,,5.0,6.0,66.0,11.0,244.7309109159978,,,,,,,,,,,,,,,,,244.7244219979912,245.92234855899005,246.71516032001816,246.706364468002,,,,,,,,,,,,,,,,,,,,,,,,,,,,,,,,,,,246.70897366301503,246.71516032001816,246.71516032001816,247.17385664899484,g,1.0,0.4475507620081771,,,,,,sub-149,1,stroop_test,,
,,,,67.0,7.0,5.0,,,,,,,,,,,,,gelb,yellow,g,1.0,r,0.0,0.3759927449864335,,,,,,,,,,5.0,7.0,67.0,10.0,247.18036867299816,,,,,,,,,,,,,,,,,247.17417720300728,248.37239947001217,249.1625115160132,249.1563520960044,,,,,,,,,,,,,,,,,,,,,,,,,,,,,,,,,,,249.15681871099517,249.1625115160132,249.1625115160132,249.540337176004,r,0.0,0.3759927449864335,,,,,,sub-149,1,stroop_test,,
,,,,68.0,8.0,5.0,,,,,,,,,,,,,blau,yellow,g,0.0,g,1.0,0.8834346660005394,,,,,,,,,,5.0,8.0,68.0,7.0,249.54692737801813,,,,,,,,,,,,,,,,,249.54064245999325,249.63882488699164,250.43181030399865,250.4230097120162,,,,,,,,,,,,,,,,,,,,,,,,,,,,,,,,,,,250.4255474200181,250.43181030399865,250.43181030399865,251.3239428520028,g,1.0,0.8834346660005394,,,,,,sub-149,1,stroop_test,,
,,,,69.0,9.0,5.0,,,,,,,,,,,,,rot,blue,b,0.0,b,1.0,0.6030497140018269,,,,,,,,,,5.0,9.0,69.0,2.0,251.3307298340078,,,,,,,,,,,,,,,,,251.32425051901373,251.672688184015,252.46582695501277,252.4566576740181,,,,,,,,,,,,,,,,,,,,,,,,,,,,,,,,,,,252.45951019899803,252.46582695501277,252.46582695501277,253.07404259999748,b,1.0,0.6030497140018269,,,,,,sub-149,1,stroop_test,,
,,,,70.0,10.0,5.0,,,,,,,,,,,,,rot,yellow,g,0.0,g,1.0,0.759073424997041,,,,,,,,,,5.0,10.0,70.0,3.0,253.080692684016,,,,,,,,,,,,,,,,,253.07435057099792,253.17234280399865,253.9626430520148,253.95657240299624,,,,,,,,,,,,,,,,,,,,,,,,,,,,,,,,,,,253.95705952201388,253.9626430520148,253.9626430520148,254.7239262170042,g,1.0,0.759073424997041,,,,,,sub-149,1,stroop_test,,
,,,,71.0,11.0,5.0,,,,,,,,,,,,,gelb,blue,b,0.0,b,1.0,0.691357728006551,,,,,,,,,,5.0,11.0,71.0,9.0,254.73066111200023,,,,,,,,,,,,,,,,,254.7242262950167,254.8223744420102,255.61498874201789,255.6063733880001,,,,,,,,,,,,,,,,,,,,,,,,,,,,,,,,,,,255.6088477220037,255.61498874201789,255.61498874201789,256.31467743898975,b,1.0,0.691357728006551,,,,,,sub-149,1,stroop_test,,
,,,,72.0,0.0,6.0,,,,,,,,,,,,,blau,blue,b,1.0,b,1.0,0.6033974930178374,,,,,,,,,,6.0,0.0,72.0,6.0,256.3222415269993,,,,,,,,,,,,,,,,,256.314925128012,256.6611419169931,257.45569088699995,257.44516990799457,,,,,,,,,,,,,,,,,,,,,,,,,,,,,,,,,,,257.44779442599975,257.45569088699995,257.45569088699995,258.0628639240167,b,1.0,0.6033974930178374,,,,,,sub-149,1,stroop_test,,
,,,,73.0,1.0,6.0,,,,,,,,,,,,,gelb,yellow,g,1.0,g,1.0,0.5802917730179615,,,,,,,,,,6.0,1.0,73.0,11.0,258.07231342600426,,,,,,,,,,,,,,,,,258.063157519995,258.4110558020184,259.20560352900065,259.19475917401724,,,,,,,,,,,,,,,,,,,,,,,,,,,,,,,,,,,259.19746570201823,259.20560352900065,259.20560352900065,259.7907460849965,g,1.0,0.5802917730179615,,,,,,sub-149,1,stroop_test,,
,,,,74.0,2.0,6.0,,,,,,,,,,,,,rot,yellow,g,0.0,g,1.0,0.419228969985852,,,,,,,,,,6.0,2.0,74.0,3.0,259.7975794480008,,,,,,,,,,,,,,,,,259.7911215350032,260.5890021090163,261.3821411950048,261.3730913469917,,,,,,,,,,,,,,,,,,,,,,,,,,,,,,,,,,,261.37576472200453,261.3821411950048,261.3821411950048,261.80757935199654,g,1.0,0.419228969985852,,,,,,sub-149,1,stroop_test,,
,,,,75.0,3.0,6.0,,,,,,,,,,,,,rot,red,r,1.0,r,1.0,0.4160871130006853,,,,,,,,,,6.0,3.0,75.0,0.0,261.814450484002,,,,,,,,,,,,,,,,,261.8078861219983,263.0056898749899,263.79579854401527,263.78965029199026,,,,,,,,,,,,,,,,,,,,,,,,,,,,,,,,,,,263.7901556190045,263.79579854401527,263.79579854401527,264.22406784500345,r,1.0,0.4160871130006853,,,,,,sub-149,1,stroop_test,,
,,,,76.0,4.0,6.0,,,,,,,,,,,,,gelb,red,r,0.0,r,1.0,0.5409043300023768,,,,,,,,,,6.0,4.0,76.0,8.0,264.230718419014,,,,,,,,,,,,,,,,,264.2243693089986,265.02246630200534,265.8151026859996,265.80640788699384,,,,,,,,,,,,,,,,,,,,,,,,,,,,,,,,,,,265.809100457991,265.8151026859996,265.8151026859996,266.36464789300226,r,1.0,0.5409043300023768,,,,,,sub-149,1,stroop_test,,
,,,,77.0,5.0,6.0,,,,,,,,,,,,,rot,red,r,1.0,r,1.0,0.523966372013092,,,,,,,,,,6.0,5.0,77.0,1.0,266.3724767980166,,,,,,,,,,,,,,,,,266.3649566700042,267.16097308899043,267.9555388140143,267.9438892239996,,,,,,,,,,,,,,,,,,,,,,,,,,,,,,,,,,,267.9465660690039,267.9555388140143,267.9555388140143,268.4911450869986,r,1.0,0.523966372013092,,,,,,sub-149,1,stroop_test,,
,,,,78.0,6.0,6.0,,,,,,,,,,,,,blau,blue,b,1.0,b,1.0,0.5703399729973171,,,,,,,,,,6.0,6.0,78.0,5.0,268.4980344090145,,,,,,,,,,,,,,,,,268.4915189570165,269.2891326120007,270.0816624989966,270.0731954300136,,,,,,,,,,,,,,,,,,,,,,,,,,,,,,,,,,,270.0756240900082,270.0816624989966,270.0816624989966,270.65695655101445,b,1.0,0.5703399729973171,,,,,,sub-149,1,stroop_test,,
,,,,79.0,7.0,6.0,,,,,,,,,,,,,blau,red,r,0.0,r,1.0,0.8639534040121362,,,,,,,,,,6.0,7.0,79.0,4.0,270.663288301992,,,,,,,,,,,,,,,,,270.6572641090024,270.7558661889925,271.5461500539968,271.5397883109981,,,,,,,,,,,,,,,,,,,,,,,,,,,,,,,,,,,271.5402863729978,271.5461500539968,271.5461500539968,272.4127756130183,r,1.0,0.8639534040121362,,,,,,sub-149,1,stroop_test,,
,,,,80.0,8.0,6.0,,,,,,,,,,,,,gelb,yellow,g,1.0,g,1.0,0.5845733799797017,,,,,,,,,,6.0,8.0,80.0,10.0,272.4223944120168,,,,,,,,,,,,,,,,,272.4130655149929,272.511025232001,273.30571009399137,273.29483345901826,,,,,,,,,,,,,,,,,,,,,,,,,,,,,,,,,,,273.2974814109912,273.30571009399137,273.30571009399137,273.89632962000906,g,1.0,0.5845733799797017,,,,,,sub-149,1,stroop_test,,
,,,,81.0,9.0,6.0,,,,,,,,,,,,,gelb,blue,b,0.0,b,1.0,0.4961778229917399,,,,,,,,,,6.0,9.0,81.0,9.0,273.9057087720139,,,,,,,,,,,,,,,,,273.8966894019977,273.99426155301626,274.7891621089948,274.7785340200062,,,,,,,,,,,,,,,,,,,,,,,,,,,,,,,,,,,274.77900640899315,274.7891621089948,274.7891621089948,275.29009177398984,b,1.0,0.4961778229917399,,,,,,sub-149,1,stroop_test,,
,,,,82.0,10.0,6.0,,,,,,,,,,,,,rot,blue,b,0.0,b,1.0,0.5242159600020386,,,,,,,,,,6.0,10.0,82.0,2.0,275.2963626339915,,,,,,,,,,,,,,,,,275.2903626380139,276.0891796670039,276.88154412899166,276.873197865003,,,,,,,,,,,,,,,,,,,,,,,,,,,,,,,,,,,276.8756598250184,276.88154412899166,276.88154412899166,277.4074469850166,b,1.0,0.5242159600020386,,,,,,sub-149,1,stroop_test,,
,,,,83.0,11.0,6.0,,,,,,,,,,,,,blau,yellow,g,0.0,g,1.0,0.7001185179979075,,,,,,,,,,6.0,11.0,83.0,7.0,277.41423082599067,,,,,,,,,,,,,,,,,277.4077516740072,278.2058468690084,278.9985098520119,278.99006588899647,,,,,,,,,,,,,,,,,,,,,,,,,,,,,,,,,,,278.9925261850003,278.9985098520119,278.9985098520119,279.7077050929948,g,1.0,0.7001185179979075,,,,,,sub-149,1,stroop_test,,
,,,,84.0,0.0,7.0,,,,,,,,,,,,,blau,blue,b,1.0,b,1.0,0.5653554580057971,,,,,,,,,,7.0,0.0,84.0,6.0,279.7143764100037,,,,,,,,,,,,,,,,,279.70803203599644,280.505780506006,281.2960998630151,281.28977185700205,,,,,,,,,,,,,,,,,,,,,,,,,,,,,,,,,,,281.2902578620124,281.2960998630151,281.2960998630151,281.8633395560028,b,1.0,0.5653554580057971,,,,,,sub-149,1,stroop_test,,
,,,,85.0,1.0,7.0,,,,,,,,,,,,,gelb,yellow,g,1.0,g,1.0,0.6988716070191003,,,,,,,,,,7.0,1.0,85.0,10.0,281.8722028270131,,,,,,,,,,,,,,,,,281.8636426140147,281.96091495701694,282.7557298180181,282.7448840409925,,,,,,,,,,,,,,,,,,,,,,,,,,,,,,,,,,,282.747455403005,282.7557298180181,282.7557298180181,283.45739525099634,g,1.0,0.6988716070191003,,,,,,sub-149,1,stroop_test,,
,,,,86.0,2.0,7.0,,,,,,,,,,,,,rot,blue,b,0.0,b,1.0,0.556286207982339,,,,,,,,,,7.0,2.0,86.0,2.0,283.4640037550125,,,,,,,,,,,,,,,,,283.4576990790083,283.8056830879941,284.5999092220154,284.59050407100585,,,,,,,,,,,,,,,,,,,,,,,,,,,,,,,,,,,284.5939949580061,284.5999092220154,284.5999092220154,285.1641002529941,b,1.0,0.556286207982339,,,,,,sub-149,1,stroop_test,,
,,,,87.0,3.0,7.0,,,,,,,,,,,,,gelb,blue,b,0.0,b,1.0,0.5415772190026473,,,,,,,,,,7.0,3.0,87.0,9.0,285.1725156100001,,,,,,,,,,,,,,,,,285.1643594240013,286.3606594899902,287.15579598300974,287.14508176600793,,,,,,,,,,,,,,,,,,,,,,,,,,,,,,,,,,,287.1476375909988,287.15579598300974,287.15579598300974,287.7077610609995,b,1.0,0.5415772190026473,,,,,,sub-149,1,stroop_test,,
,,,,88.0,4.0,7.0,,,,,,,,,,,,,rot,red,r,1.0,r,1.0,0.6476856470108032,,,,,,,,,,7.0,4.0,88.0,0.0,287.71470565500204,,,,,,,,,,,,,,,,,287.7080672669981,288.5058753520134,289.29857615500805,289.2899613500049,,,,,,,,,,,,,,,,,,,,,,,,,,,,,,,,,,,289.29242607200285,289.29857615500805,289.29857615500805,289.95781362600974,r,1.0,0.6476856470108032,,,,,,sub-149,1,stroop_test,,
,,,,89.0,5.0,7.0,,,,,,,,,,,,,rot,red,r,1.0,r,1.0,0.5140910029876977,,,,,,,,,,7.0,5.0,89.0,1.0,289.9648036849976,,,,,,,,,,,,,,,,,289.95818860200234,290.75585100299213,291.5467017549963,291.5402090430144,,,,,,,,,,,,,,,,,,,,,,,,,,,,,,,,,,,291.5406933159975,291.5467017549963,291.5467017549963,292.0629044669913,r,1.0,0.5140910029876977,,,,,,sub-149,1,stroop_test,,
,,,,90.0,6.0,7.0,,,,,,,,,,,,,blau,blue,b,1.0,b,1.0,0.5254619720217306,,,,,,,,,,7.0,6.0,90.0,5.0,292.0723468880169,,,,,,,,,,,,,,,,,292.0632104090182,293.2609851100133,294.05588569000247,294.0451469190011,,,,,,,,,,,,,,,,,,,,,,,,,,,,,,,,,,,294.047785681003,294.05588569000247,294.05588569000247,294.5910638470086,b,1.0,0.5254619720217306,,,,,,sub-149,1,stroop_test,,
,,,,91.0,7.0,7.0,,,,,,,,,,,,,gelb,yellow,g,1.0,g,1.0,0.8072035200020764,,,,,,,,,,7.0,7.0,91.0,11.0,294.5978664979921,,,,,,,,,,,,,,,,,294.5914217160025,295.78917952399934,296.5824308170122,296.5731709070096,,,,,,,,,,,,,,,,,,,,,,,,,,,,,,,,,,,296.5762169219961,296.5824308170122,296.5824308170122,297.39815063701826,g,1.0,0.8072035200020764,,,,,,sub-149,1,stroop_test,,
,,,,92.0,8.0,7.0,,,,,,,,,,,,,rot,yellow,g,0.0,g,1.0,0.4998032570001669,,,,,,,,,,7.0,8.0,92.0,3.0,297.4057314870006,,,,,,,,,,,,,,,,,297.3984293290123,297.74461573400185,298.53919246801524,298.5283069210127,,,,,,,,,,,,,,,,,,,,,,,,,,,,,,,,,,,298.53079362699646,298.53919246801524,298.53919246801524,299.0407407270104,g,1.0,0.4998032570001669,,,,,,sub-149,1,stroop_test,,
,,,,93.0,9.0,7.0,,,,,,,,,,,,,gelb,red,r,0.0,r,1.0,0.566604591003852,,,,,,,,,,7.0,9.0,93.0,8.0,299.0473887450062,,,,,,,,,,,,,,,,,299.0410492749943,300.23916505501256,301.0320644169988,301.0232129190117,,,,,,,,,,,,,,,,,,,,,,,,,,,,,,,,,,,301.0260049370117,301.0320644169988,301.0320644169988,301.60741293401225,r,1.0,0.566604591003852,,,,,,sub-149,1,stroop_test,,
,,,,94.0,10.0,7.0,,,,,,,,,,,,,blau,yellow,g,0.0,g,1.0,0.6783185380045325,,,,,,,,,,7.0,10.0,94.0,7.0,301.6142144179903,,,,,,,,,,,,,,,,,301.60772112800623,302.80586404999485,303.599154888012,303.58999927999685,,,,,,,,,,,,,,,,,,,,,,,,,,,,,,,,,,,303.5929100550129,303.599154888012,303.599154888012,304.27961238400894,g,1.0,0.6783185380045325,,,,,,sub-149,1,stroop_test,,
,,,,95.0,11.0,7.0,,,,,,,,,,,,,blau,red,r,0.0,r,1.0,0.7115553430048749,,,,,,,,,,7.0,11.0,95.0,4.0,304.28918670499115,,,,,,,,,,,,,,,,,304.2799204750045,305.07769546099007,305.8778941339988,305.8725330840098,,,,,,,,,,,,,,,,,,,,,,,,,,,,,,,,,,,305.8728747119894,305.8778941339988,305.8778941339988,306.59153876200435,r,1.0,0.7115553430048749,,,,,,sub-149,1,stroop_test,,
,,,,96.0,0.0,8.0,,,,,,,,,,,,,blau,blue,b,1.0,b,1.0,0.5923810490057804,,,,,,,,,,8.0,0.0,96.0,6.0,306.5981777030101,,,,,,,,,,,,,,,,,306.5918437500077,307.3891374240048,308.17929207001,308.1730671740079,,,,,,,,,,,,,,,,,,,,,,,,,,,,,,,,,,,308.1735363540065,308.17929207001,308.17929207001,308.7737844719959,b,1.0,0.5923810490057804,,,,,,sub-149,1,stroop_test,,
,,,,97.0,1.0,8.0,,,,,,,,,,,,,rot,blue,b,0.0,b,1.0,0.4261572030081879,,,,,,,,,,8.0,1.0,97.0,2.0,308.7803693189926,,,,,,,,,,,,,,,,,308.77408824901795,309.1224451799935,309.91531990101794,309.9065448300098,,,,,,,,,,,,,,,,,,,,,,,,,,,,,,,,,,,309.9090825309977,309.91531990101794,309.91531990101794,310.34683334600413,b,1.0,0.4261572030081879,,,,,,sub-149,1,stroop_test,,
,,,,98.0,2.0,8.0,,,,,,,,,,,,,blau,red,r,0.0,r,1.0,0.4421341200068127,,,,,,,,,,8.0,2.0,98.0,4.0,310.3558700710128,,,,,,,,,,,,,,,,,310.3471400499984,311.5445709550113,312.3390878630162,312.3281292330066,,,,,,,,,,,,,,,,,,,,,,,,,,,,,,,,,,,312.33048067000345,312.3390878630162,312.3390878630162,312.7914374220127,r,1.0,0.4421341200068127,,,,,,sub-149,1,stroop_test,,
,,,,99.0,3.0,8.0,,,,,,,,,,,,,rot,yellow,g,0.0,g,1.0,0.4028750019788276,,,,,,,,,,8.0,3.0,99.0,3.0,312.7982061209914,,,,,,,,,,,,,,,,,312.7918423319934,313.58939525700407,314.3821892970009,314.3733095480129,,,,,,,,,,,,,,,,,,,,,,,,,,,,,,,,,,,314.3760544040124,314.3821892970009,314.3821892970009,314.7908365050098,g,1.0,0.4028750019788276,,,,,,sub-149,1,stroop_test,,
,,,,100.0,4.0,8.0,,,,,,,,,,,,,rot,red,r,1.0,r,1.0,0.6430935729877092,,,,,,,,,,8.0,4.0,100.0,0.0,314.7973869150155,,,,,,,,,,,,,,,,,314.79114565701457,314.8892029740091,315.6797541860142,315.67330843099626,,,,,,,,,,,,,,,,,,,,,,,,,,,,,,,,,,,315.67380728101125,315.6797541860142,315.6797541860142,316.3249012310116,r,1.0,0.6430935729877092,,,,,,sub-149,1,stroop_test,,
,,,,101.0,5.0,8.0,,,,,,,,,,,,,gelb,blue,b,0.0,b,1.0,0.498757975990884,,,,,,,,,,8.0,5.0,101.0,9.0,316.3315866210032,,,,,,,,,,,,,,,,,316.3252092929906,316.4224370540178,317.2153612690163,317.20652490100474,,,,,,,,,,,,,,,,,,,,,,,,,,,,,,,,,,,317.2091338589962,317.2153612690163,317.2153612690163,317.724539568997,b,1.0,0.498757975990884,,,,,,sub-149,1,stroop_test,,
,,,,102.0,6.0,8.0,,,,,,,,,,,,,gelb,red,r,0.0,r,1.0,1.0882807680172846,,,,,,,,,,8.0,6.0,102.0,8.0,317.7314582669933,,,,,,,,,,,,,,,,,317.7249136280152,318.07252776401583,318.8628494339937,318.85647567600245,,,,,,,,,,,,,,,,,,,,,,,,,,,,,,,,,,,318.8569702919922,318.8628494339937,318.8628494339937,319.95755138699315,r,1.0,1.0882807680172846,,,,,,sub-149,1,stroop_test,,
,,,,103.0,7.0,8.0,,,,,,,,,,,,,blau,blue,b,1.0,b,1.0,0.4819236829935107,,,,,,,,,,8.0,7.0,103.0,5.0,319.96419606899144,,,,,,,,,,,,,,,,,319.957858564012,320.7559268579935,321.548825505015,321.5399873809947,,,,,,,,,,,,,,,,,,,,,,,,,,,,,,,,,,,321.54264219099423,321.548825505015,321.548825505015,322.04104032801115,b,1.0,0.4819236829935107,,,,,,sub-149,1,stroop_test,,
,,,,104.0,8.0,8.0,,,,,,,,,,,,,gelb,yellow,g,1.0,g,1.0,0.5169645120040514,,,,,,,,,,8.0,8.0,104.0,10.0,322.04784461899544,,,,,,,,,,,,,,,,,322.0413438999967,322.8392235870124,323.63235425701714,323.6232391349913,,,,,,,,,,,,,,,,,,,,,,,,,,,,,,,,,,,323.6262933489925,323.63235425701714,323.63235425701714,324.15775481500896,g,1.0,0.5169645120040514,,,,,,sub-149,1,stroop_test,,
,,,,105.0,9.0,8.0,,,,,,,,,,,,,rot,red,r,1.0,r,1.0,0.4154457930126227,,,,,,,,,,8.0,9.0,105.0,1.0,324.1645785050059,,,,,,,,,,,,,,,,,324.15809513500426,324.2557273140119,325.0485039460182,325.0398639829946,,,,,,,,,,,,,,,,,,,,,,,,,,,,,,,,,,,325.0423560579948,325.0485039460182,325.0485039460182,325.47467499101185,r,1.0,0.4154457930126227,,,,,,sub-149,1,stroop_test,,
,,,,106.0,10.0,8.0,,,,,,,,,,,,,gelb,yellow,g,1.0,g,1.0,0.4613999310240615,,,,,,,,,,8.0,10.0,106.0,11.0,325.481559420994,,,,,,,,,,,,,,,,,325.475054672017,326.2725686070044,327.0650449189998,327.05654633499216,,,,,,,,,,,,,,,,,,,,,,,,,,,,,,,,,,,327.05900275701424,327.0650449189998,327.0650449189998,327.52914414499537,g,1.0,0.4613999310240615,,,,,,sub-149,1,stroop_test,,
,,,,107.0,11.0,8.0,,,,,,,,,,,,,blau,yellow,g,0.0,b,0.0,0.6390233239799272,,,,,,,,,,8.0,11.0,107.0,7.0,327.5391257860174,,,,,,,,,,,,,,,,,327.5294508890074,328.72769942999,329.52240234499914,329.5116388280003,,,,,,,,,,,,,,,,,,,,,,,,,,,,,,,,,,,329.51420728099765,329.52240234499914,329.52240234499914,330.1631715800031,b,0.0,0.6390233239799272,,,,,,sub-149,1,stroop_test,,
,,,,108.0,0.0,9.0,,,,,,,,,,,,,rot,red,r,1.0,r,1.0,0.590126530994894,,,,,,,,,,9.0,0.0,108.0,0.0,330.1724142690073,,,,,,,,,,,,,,,,,330.1634828620008,330.9612568980083,331.7559607590083,331.745286646008,,,,,,,,,,,,,,,,,,,,,,,,,,,,,,,,,,,331.74785741901724,331.7559607590083,331.7559607590083,332.3577748370008,r,1.0,0.590126530994894,,,,,,sub-149,1,stroop_test,,
,,,,109.0,1.0,9.0,,,,,,,,,,,,,gelb,red,r,0.0,r,1.0,0.9163355099735782,,,,,,,,,,9.0,1.0,109.0,8.0,332.36458366399165,,,,,,,,,,,,,,,,,332.3581480369903,332.70590603200253,333.49887978701736,333.4898804190161,,,,,,,,,,,,,,,,,,,,,,,,,,,,,,,,,,,333.4926277369959,333.49887978701736,333.49887978701736,334.42454167600954,r,1.0,0.9163355099735782,,,,,,sub-149,1,stroop_test,,
,,,,110.0,2.0,9.0,,,,,,,,,,,,,blau,yellow,g,0.0,g,1.0,0.7750389370194171,,,,,,,,,,9.0,2.0,110.0,7.0,334.4315910669975,,,,,,,,,,,,,,,,,334.42492512299214,335.6225996290159,336.415112023009,336.4066372700036,,,,,,,,,,,,,,,,,,,,,,,,,,,,,,,,,,,336.4090558619937,336.415112023009,336.415112023009,337.1981873479963,g,1.0,0.7750389370194171,,,,,,sub-149,1,stroop_test,,
,,,,111.0,3.0,9.0,,,,,,,,,,,,,blau,blue,b,1.0,b,1.0,0.4757640959869604,,,,,,,,,,9.0,3.0,111.0,5.0,337.20592435699655,,,,,,,,,,,,,,,,,337.19849089399213,337.54473135399166,338.33920255000703,338.3285526870168,,,,,,,,,,,,,,,,,,,,,,,,,,,,,,,,,,,338.3290410359914,338.33920255000703,338.33920255000703,338.8244306620036,b,1.0,0.4757640959869604,,,,,,sub-149,1,stroop_test,,
,,,,112.0,4.0,9.0,,,,,,,,,,,,,blau,blue,b,1.0,b,1.0,0.6227034869953059,,,,,,,,,,9.0,4.0,112.0,6.0,338.83115043200087,,,,,,,,,,,,,,,,,338.8247329790029,338.92247561799013,339.7130615180067,339.70661230100086,,,,,,,,,,,,,,,,,,,,,,,,,,,,,,,,,,,339.70709530700697,339.7130615180067,339.7130615180067,340.34081148100086,b,1.0,0.6227034869953059,,,,,,sub-149,1,stroop_test,,
,,,,113.0,5.0,9.0,,,,,,,,,,,,,gelb,yellow,g,1.0,g,1.0,0.8997281249903608,,,,,,,,,,9.0,5.0,113.0,11.0,340.3474626179959,,,,,,,,,,,,,,,,,340.3411131130124,341.53923214401584,342.3323821889935,342.3231711570116,,,,,,,,,,,,,,,,,,,,,,,,,,,,,,,,,,,342.3259098890121,342.3323821889935,342.3323821889935,343.24126221000915,g,1.0,0.8997281249903608,,,,,,sub-149,1,stroop_test,,
,,,,114.0,6.0,9.0,,,,,,,,,,,,,rot,red,r,1.0,r,1.0,0.5766727430163883,,,,,,,,,,9.0,6.0,114.0,1.0,343.2480559910182,,,,,,,,,,,,,,,,,343.2416330279957,343.5893624800083,344.3816867629939,344.3732431840035,,,,,,,,,,,,,,,,,,,,,,,,,,,,,,,,,,,344.37565672700293,344.3816867629939,344.3816867629939,344.963369723002,r,1.0,0.5766727430163883,,,,,,sub-149,1,stroop_test,,
,,,,115.0,7.0,9.0,,,,,,,,,,,,,gelb,yellow,g,1.0,g,1.0,0.6956023960083257,,,,,,,,,,9.0,7.0,115.0,10.0,344.972423180996,,,,,,,,,,,,,,,,,344.9637243580073,345.31111239799066,346.10585121199256,346.095578108012,,,,,,,,,,,,,,,,,,,,,,,,,,,,,,,,,,,346.0981239580142,346.10585121199256,346.10585121199256,346.80760689100134,g,1.0,0.6956023960083257,,,,,,sub-149,1,stroop_test,,
,,,,116.0,8.0,9.0,,,,,,,,,,,,,rot,yellow,g,0.0,g,1.0,0.5157607920118608,,,,,,,,,,9.0,8.0,116.0,3.0,346.81430468999315,,,,,,,,,,,,,,,,,346.8079155980085,347.6056146949996,348.39852642599726,348.3899029669992,,,,,,,,,,,,,,,,,,,,,,,,,,,,,,,,,,,348.39236810200964,348.39852642599726,348.39852642599726,348.92415905499365,g,1.0,0.5157607920118608,,,,,,sub-149,1,stroop_test,,
,,,,117.0,9.0,9.0,,,,,,,,,,,,,rot,blue,b,0.0,b,1.0,1.1657201729831286,,,,,,,,,,9.0,9.0,117.0,2.0,348.93087608899805,,,,,,,,,,,,,,,,,348.924465537013,349.02260404400295,349.81305152899586,349.806604996993,,,,,,,,,,,,,,,,,,,,,,,,,,,,,,,,,,,349.80709037400084,349.81305152899586,349.81305152899586,350.9906833030109,b,1.0,1.1657201729831286,,,,,,sub-149,1,stroop_test,,
,,,,118.0,10.0,9.0,,,,,,,,,,,,,gelb,blue,b,0.0,b,1.0,0.5859453620214481,,,,,,,,,,9.0,10.0,118.0,9.0,350.99711046600714,,,,,,,,,,,,,,,,,350.99098060201504,352.1892043080006,352.98282597999787,352.9732588320039,,,,,,,,,,,,,,,,,,,,,,,,,,,,,,,,,,,352.97630582700367,352.98282597999787,352.98282597999787,353.5738738020009,b,1.0,0.5859453620214481,,,,,,sub-149,1,stroop_test,,
,,,,119.0,11.0,9.0,,,,,,,,,,,,,blau,red,r,0.0,r,1.0,0.7193903979787137,,,,,,,,,,9.0,11.0,119.0,4.0,353.5804996959924,,,,,,,,,,,,,,,,,353.57418130501173,354.77262537000934,355.5653813130048,355.556877680996,,,,,,,,,,,,,,,,,,,,,,,,,,,,,,,,,,,355.559347174014,355.5653813130048,355.5653813130048,356.2912095799984,r,1.0,0.7193903979787137,,,,,,sub-149,1,stroop_test,,
,,,,,,,,,,,,,,,,,,,,,,,,,,,,,,,,,,,,,,,,,,,,,,,,,,,,,,,,,,,,,,,,,,,,,,,,,,,,,,,,,,,,,,,,,,,,,,,,,,,,,,356.2913895380043,356.29936597900814,361.2943501200061,361.2899980700168,sub-149,1,stroop_test,,
