wordCTK,colorCTK,corrAnsCTK,congruentCTK,thisN,thisTrialN,thisRepN,keyResp_CTK.keys,keyResp_CTK.corr,keyResp_CTK.rt,keyResp_CTK.duration,wordPractice,colorPractice,corrAnsPractice,congruentPractice,respPractice.keys,respPractice.corr,respPractice.rt,respPractice.duration,word,color,corrAns,congruent,keyResp_test_run.keys,keyResp_test_run.corr,keyResp_test_run.rt,keyResp_test_run.duration,trials_CTK.thisRepN,trials_CTK.thisTrialN,trials_CTK.thisN,trials_CTK.thisIndex,trials_practice.thisRepN,trials_practice.thisTrialN,trials_practice.thisN,trials_practice.thisIndex,trials_test.thisRepN,trials_test.thisTrialN,trials_test.thisN,trials_test.thisIndex,thisRow.t,notes,instruction.started,instr_text.started,instr_image.started,instr_resp.started,instruction.stopped,instr_resp.keys,instr_resp.rt,instr_resp.duration,instr_color_to_key.started,instr_ctk.started,resp_ctk.started,instr_color_to_key.stopped,resp_ctk.keys,resp_ctk.rt,resp_ctk.duration,ITI.started,fixcross.started,fixcross.stopped,ITI.stopped,color_to_key_run.started,stimulus_CTK.started,keyResp_CTK.started,color_to_key_run.stopped,trials_CTK.keyResp_CTK.keys,trials_CTK.keyResp_CTK.corr,trials_CTK.keyResp_CTK.rt,trials_CTK.keyResp_CTK.duration,instr_practice.started,instr_practice_text.started,instr_practice_resp.started,instr_practice.stopped,instr_practice_resp.keys,instr_practice_resp.rt,instr_practice_resp.duration,practice_run.started,stimulus_practice.started,respPractice.started,practice_run.stopped,trials_practice.respPractice.keys,trials_practice.respPractice.corr,trials_practice.respPractice.rt,trials_practice.respPractice.duration,feedback.started,textFeedback.started,textFeedback.stopped,feedback.stopped,instr_test.started,instr_test_text.started,instr_test_resp.started,instr_test.stopped,instr_test_resp.keys,instr_test_resp.rt,instr_test_resp.duration,test_run.started,stimulus_test_run.started,keyResp_test_run.started,test_run.stopped,trials_test.keyResp_test_run.keys,trials_test.keyResp_test_run.corr,trials_test.keyResp_test_run.rt,trials_test.keyResp_test_run.duration,goodbye.started,textGoodbye.started,textGoodbye.stopped,goodbye.stopped,participant,session,expName,frameRate,Unnamed: 113
,,,,,,,,,,,,,,,,,,,,,,,,,,,,,,,,,,,,,,,,,0.0114540829999896,0.0249861250013054,0.0249861250013054,0.0249861250013054,25.265173915999185,space,25.236628708000357,,,,,,,,,,,,,,,,,,,,,,,,,,,,,,,,,,,,,,,,,,,,,,,,,,,,,,,,,,,sub-128,1,stroop_test,121.18549712532888,
,,,,,,,,,,,,,,,,,,,,,,,,,,,,,,,,,,,,,,,,,,,,,,,,,25.265287250000256,25.280806416001724,25.280806416001724,30.638722457999396,space,5.355726125002548,,,,,,,,,,,,,,,,,,,,,,,,,,,,,,,,,,,,,,,,,,,,,,,,,,,,sub-128,1,stroop_test,121.18549712532888,
test,yellow,g,1.0,0.0,0.0,0.0,g,1.0,1.51217916600217,,,,,,,,,,,,,,,,,,0.0,0.0,0.0,1.0,,,,,,,,,30.67124070800128,,,,,,,,,,,,,,,,,30.65394358300182,30.985324583001784,31.787643083000148,31.770527915999992,31.77961383300135,31.787643083000148,31.787643083000148,33.304312083000696,g,1.0,1.51217916600217,,,,,,,,,,,,,,,,,,,,,,,,,,,,,,,,,,,,,,,,sub-128,1,stroop_test,121.18549712532888,
test,blue,b,1.0,1.0,1.0,0.0,b,1.0,0.7396666659988114,,,,,,,,,,,,,,,,,,0.0,1.0,1.0,2.0,,,,,,,,,33.314445874999365,,,,,,,,,,,,,,,,,33.304930250000325,34.102988250000635,34.89655337500153,34.88732762500149,34.88817625000229,34.89655337500153,34.89655337500153,35.638995083001646,b,1.0,0.7396666659988114,,,,,,,,,,,,,,,,,,,,,,,,,,,,,,,,,,,,,,,,sub-128,1,stroop_test,121.18549712532888,
test,red,r,1.0,2.0,2.0,0.0,r,1.0,0.3583452919992851,,,,,,,,,,,,,,,,,,0.0,2.0,2.0,0.0,,,,,,,,,35.64929162500266,,,,,,,,,,,,,,,,,35.63966612500008,35.736593290999735,36.52903312499984,36.5202050830012,36.52112141600082,36.52903312499984,36.52903312499984,36.89545795800223,r,1.0,0.3583452919992851,,,,,,,,,,,,,,,,,,,,,,,,,,,,,,,,,,,,,,,,sub-128,1,stroop_test,121.18549712532888,
test,blue,b,1.0,3.0,0.0,1.0,b,1.0,0.8294701659979182,,,,,,,,,,,,,,,,,,1.0,0.0,3.0,2.0,,,,,,,,,36.90794312499929,,,,,,,,,,,,,,,,,36.896016250000685,37.693636083000456,38.48483170799955,38.47669120800128,38.47734908300117,38.48483170799955,38.48483170799955,39.32179562500096,b,1.0,0.8294701659979182,,,,,,,,,,,,,,,,,,,,,,,,,,,,,,,,,,,,,,,,sub-128,1,stroop_test,121.18549712532888,
test,red,r,1.0,4.0,1.0,1.0,r,1.0,0.8693400420015678,,,,,,,,,,,,,,,,,,1.0,1.0,4.0,0.0,,,,,,,,,39.33291029099928,,,,,,,,,,,,,,,,,39.3224473750015,39.4189782909998,40.21243308300109,40.20371804100069,40.20440625000265,40.21243308300109,40.21243308300109,41.08794625000155,r,1.0,0.8693400420015678,,,,,,,,,,,,,,,,,,,,,,,,,,,,,,,,,,,,,,,,sub-128,1,stroop_test,121.18549712532888,
test,yellow,g,1.0,5.0,2.0,1.0,g,1.0,0.6979688329993223,,,,,,,,,,,,,,,,,,1.0,2.0,5.0,1.0,,,,,,,,,41.09902070799944,,,,,,,,,,,,,,,,,41.08862087500165,41.88631337500192,42.67826783300188,42.66956616600146,42.67027029100064,42.67826783300188,42.67826783300188,43.37833812499957,g,1.0,0.6979688329993223,,,,,,,,,,,,,,,,,,,,,,,,,,,,,,,,,,,,,,,,sub-128,1,stroop_test,121.18549712532888,
test,blue,b,1.0,6.0,0.0,2.0,b,1.0,0.6926035830001638,,,,,,,,,,,,,,,,,,2.0,0.0,6.0,2.0,,,,,,,,,43.387687875001575,,,,,,,,,,,,,,,,,43.37870270799976,44.17712337500052,44.97906587500256,44.97055854100108,44.971249791000446,44.97906587500256,44.97906587500256,45.67879775000256,b,1.0,0.6926035830001638,,,,,,,,,,,,,,,,,,,,,,,,,,,,,,,,,,,,,,,,sub-128,1,stroop_test,121.18549712532888,
test,yellow,g,1.0,7.0,1.0,2.0,g,1.0,0.9603901670016056,,,,,,,,,,,,,,,,,,2.0,1.0,7.0,1.0,,,,,,,,,45.69131645800008,,,,,,,,,,,,,,,,,45.679353416002414,46.02654954100217,46.818218250002246,46.81017412499932,46.81084279100105,46.818218250002246,46.818218250002246,47.7880388750018,g,1.0,0.9603901670016056,,,,,,,,,,,,,,,,,,,,,,,,,,,,,,,,,,,,,,,,sub-128,1,stroop_test,121.18549712532888,
test,red,r,1.0,8.0,2.0,2.0,r,1.0,0.6239603750000242,,,,,,,,,,,,,,,,,,2.0,2.0,8.0,0.0,,,,,,,,,47.79930687500018,,,,,,,,,,,,,,,,,47.78873812500024,48.58587066600012,49.3800747910027,49.37103491599919,49.371766500000376,49.3800747910027,49.3800747910027,50.01140062500053,r,1.0,0.6239603750000242,,,,,,,,,,,,,,,,,,,,,,,,,,,,,,,,,,,,,,,,sub-128,1,stroop_test,121.18549712532888,
test,red,r,1.0,9.0,0.0,3.0,r,1.0,0.5628272079993621,,,,,,,,,,,,,,,,,,3.0,0.0,9.0,0.0,,,,,,,,,50.02138929099965,,,,,,,,,,,,,,,,,50.01179737500206,51.21024708299956,52.01355933300147,52.003999500000646,52.0046912910002,52.01355933300147,52.01355933300147,52.57934045799993,r,1.0,0.5628272079993621,,,,,,,,,,,,,,,,,,,,,,,,,,,,,,,,,,,,,,,,sub-128,1,stroop_test,121.18549712532888,
test,yellow,g,1.0,10.0,1.0,3.0,g,1.0,0.557450083000731,,,,,,,,,,,,,,,,,,3.0,1.0,10.0,1.0,,,,,,,,,52.59091120800076,,,,,,,,,,,,,,,,,52.58000437500232,52.67670841600193,53.47895183299988,53.47032400000171,53.47104345800108,53.47895183299988,53.47895183299988,54.03891791600108,g,1.0,0.557450083000731,,,,,,,,,,,,,,,,,,,,,,,,,,,,,,,,,,,,,,,,sub-128,1,stroop_test,121.18549712532888,
test,blue,b,1.0,11.0,2.0,3.0,b,1.0,0.3627184590004617,,,,,,,,,,,,,,,,,,3.0,2.0,11.0,2.0,,,,,,,,,54.0492359580021,,,,,,,,,,,,,,,,,54.03960787500182,54.136770875000366,54.92848529100229,54.91988987500008,54.920575250002,54.92848529100229,54.92848529100229,55.29549633300121,b,1.0,0.3627184590004617,,,,,,,,,,,,,,,,,,,,,,,,,,,,,,,,,,,,,,,,sub-128,1,stroop_test,121.18549712532888,
,,,,,,,,,,,,,,,,,,,,,,,,,,,,,,,,,,,,,,,,,,,,,,,,,,,,,,,,,,,,,,,,,,,,55.2957722909996,55.3074736660019,55.3074736660019,57.63856500000111,space,2.3205239580020134,,,,,,,,,,,,,,,,,,,,,,,,,,,,,,,,,sub-128,1,stroop_test,121.18549712532888,
,,,,0.0,0.0,0.0,,,,,rot,yellow,g,0.0,g,1.0,0.9008199579984648,,,,,,,,,,,,,,0.0,0.0,0.0,3.0,,,,,57.66046279100192,,,,,,,,,,,,,,,,,57.65264545800164,58.436458791002224,59.2369993329994,59.220591790999606,,,,,,,,,,,,,,,,59.22839112500151,59.2369993329994,59.2369993329994,60.14467675000196,g,1.0,0.9008199579984648,,60.1512633750026,60.16022804100066,61.15285458300059,61.143481499999325,,,,,,,,,,,,,,,,,,,,sub-128,1,stroop_test,121.18549712532888,
,,,,1.0,1.0,0.0,,,,,rot,red,r,1.0,r,1.0,0.5005072919993836,,,,,,,,,,,,,,0.0,1.0,1.0,0.0,,,,,61.15285458300059,,,,,,,,,,,,,,,,,61.14393866600221,61.94375558300089,62.73572729100124,62.72754104100022,,,,,,,,,,,,,,,,62.72820074999981,62.73572729100124,62.73572729100124,63.24643237499913,r,1.0,0.5005072919993836,,63.24699387500005,63.25204754100196,64.24486083300144,64.23747808299959,,,,,,,,,,,,,,,,,,,,sub-128,1,stroop_test,121.18549712532888,
,,,,2.0,2.0,0.0,,,,,gelb,yellow,g,1.0,g,1.0,0.5582654169993475,,,,,,,,,,,,,,0.0,2.0,2.0,10.0,,,,,64.24486083300144,,,,,,,,,,,,,,,,,64.23811445799947,65.4455414160002,66.24552445800146,66.2298988750008,,,,,,,,,,,,,,,,66.23619875000077,66.24552445800146,66.24552445800146,66.80700287500076,g,1.0,0.5582654169993475,,66.80821333300264,66.82306754100136,67.81137970800046,67.80624004100173,,,,,,,,,,,,,,,,,,,,sub-128,1,stroop_test,121.18549712532888,
,,,,3.0,3.0,0.0,,,,,blau,red,r,0.0,b,0.0,0.6604394999994838,,,,,,,,,,,,,,0.0,3.0,3.0,4.0,,,,,67.81137970800046,,,,,,,,,,,,,,,,,67.80657925000196,68.15302475000135,68.95260525000049,68.93717266599924,,,,,,,,,,,,,,,,68.94449412500035,68.95260525000049,68.95260525000049,69.62185541600047,b,0.0,0.6604394999994838,,69.62699400000201,69.6371473750005,70.62738241600164,70.62062270800016,,,,,,,,,,,,,,,,,,,,sub-128,1,stroop_test,121.18549712532888,
,,,,4.0,4.0,0.0,,,,,gelb,red,r,0.0,r,1.0,0.4861050839972449,,,,,,,,,,,,,,0.0,4.0,4.0,8.0,,,,,70.62738241600164,,,,,,,,,,,,,,,,,70.6212169160026,70.71953987500092,71.518559250002,71.50379779099967,,,,,,,,,,,,,,,,71.50983783300035,71.518559250002,71.518559250002,72.01164450000215,r,1.0,0.4861050839972449,,72.01566137500049,72.02460862500084,73.01971454100203,73.0097766660001,,,,,,,,,,,,,,,,,,,,sub-128,1,stroop_test,121.18549712532888,
,,,,5.0,5.0,0.0,,,,,blau,blue,b,1.0,b,1.0,0.558301749999373,,,,,,,,,,,,,,0.0,5.0,5.0,6.0,,,,,73.01971454100203,,,,,,,,,,,,,,,,,73.010223958001,73.36023337500228,74.15599133300202,74.14356158300143,,,,,,,,,,,,,,,,74.14751983300084,74.15599133300202,74.15599133300202,74.72115012500217,b,1.0,0.558301749999373,,74.72186308299933,74.73125429100037,75.72665070800213,75.7203608330019,,,,,,,,,,,,,,,,,,,,sub-128,1,stroop_test,121.18549712532888,
,,,,6.0,6.0,0.0,,,,,gelb,blue,b,0.0,b,1.0,1.0809790409984998,,,,,,,,,,,,,,0.0,6.0,6.0,9.0,,,,,75.72665070800213,,,,,,,,,,,,,,,,,75.72083541599932,76.51978083300128,77.31691087500076,77.30351862500174,,,,,,,,,,,,,,,,77.30834037500244,77.31691087500076,77.31691087500076,78.40480941600254,b,1.0,1.0809790409984998,,78.40558041600161,78.41615204100162,79.41021462500066,79.4038117500022,,,,,,,,,,,,,,,,,,,,sub-128,1,stroop_test,121.18549712532888,
,,,,7.0,7.0,0.0,,,,,rot,blue,b,0.0,b,1.0,1.0415494580011,,,,,,,,,,,,,,0.0,7.0,7.0,2.0,,,,,79.41021462500066,,,,,,,,,,,,,,,,,79.40426566600217,80.20314775000224,81.00053545800256,80.98686112500218,,,,,,,,,,,,,,,,80.99190825000187,81.00053545800256,81.00053545800256,82.0443524580005,b,1.0,1.0415494580011,,82.04495820800003,82.05531458300175,83.05227304100117,83.04378829100096,,,,,,,,,,,,,,,,,,,,sub-128,1,stroop_test,121.18549712532888,
,,,,8.0,8.0,0.0,,,,,blau,blue,b,1.0,b,1.0,0.5545260420003615,,,,,,,,,,,,,,0.0,8.0,8.0,5.0,,,,,83.05227304100117,,,,,,,,,,,,,,,,,83.04424870799994,84.24352625000029,85.03915616599988,85.02678245800053,,,,,,,,,,,,,,,,85.03081166600168,85.03915616599988,85.03915616599988,85.60551758300062,b,1.0,0.5545260420003615,,85.6059481250013,85.61963925000236,86.61008729099922,86.60388058299941,,,,,,,,,,,,,,,,,,,,sub-128,1,stroop_test,121.18549712532888,
,,,,9.0,9.0,0.0,,,,,blau,yellow,g,0.0,g,1.0,0.6842570830012846,,,,,,,,,,,,,,0.0,9.0,9.0,7.0,,,,,86.61008729099922,,,,,,,,,,,,,,,,,86.6043478749998,87.80307866600197,88.59622474999924,88.58697445800135,,,,,,,,,,,,,,,,88.5878213750002,88.59622474999924,88.59622474999924,89.28765900000144,g,1.0,0.6842570830012846,,89.2886595830023,89.3011066250001,90.2932804580014,90.2871215410014,,,,,,,,,,,,,,,,,,,,sub-128,1,stroop_test,121.18549712532888,
,,,,10.0,10.0,0.0,,,,,rot,red,r,1.0,r,1.0,0.511700834002113,,,,,,,,,,,,,,0.0,10.0,10.0,1.0,,,,,90.2932804580014,,,,,,,,,,,,,,,,,90.28757754099934,90.63569720799931,91.43302120800216,91.420338791002,,,,,,,,,,,,,,,,91.4246584579996,91.43302120800216,91.43302120800216,91.95498779099944,r,1.0,0.511700834002113,,91.95582524999918,91.96597825000208,92.96026320800227,92.9538136250012,,,,,,,,,,,,,,,,,,,,sub-128,1,stroop_test,121.18549712532888,
,,,,11.0,11.0,0.0,,,,,gelb,yellow,g,1.0,g,1.0,0.4745363330002874,,,,,,,,,,,,,,0.0,11.0,11.0,11.0,,,,,92.96026320800227,,,,,,,,,,,,,,,,,92.9542775830014,93.75212366599952,94.5512813330024,94.53732020800088,,,,,,,,,,,,,,,,94.54334250000102,94.5512813330024,94.5512813330024,95.02870570800224,g,1.0,0.4745363330002874,,95.02957366600094,95.04176183299931,96.03627033299928,96.02665783300108,,,,,,,,,,,,,,,,,,,,sub-128,1,stroop_test,121.18549712532888,
,,,,12.0,0.0,1.0,,,,,blau,blue,b,1.0,b,1.0,0.4325799170001119,,,,,,,,,,,,,,1.0,0.0,12.0,5.0,,,,,96.03627033299928,,,,,,,,,,,,,,,,,96.02709987500202,96.37724066599912,97.18336879100023,97.17046466600004,,,,,,,,,,,,,,,,97.1750186249992,97.18336879100023,97.18336879100023,97.62157070800096,b,1.0,0.4325799170001119,,97.62229125000158,97.63153312500071,98.62734816599914,98.62065654099932,,,,,,,,,,,,,,,,,,,,sub-128,1,stroop_test,121.18549712532888,
,,,,13.0,1.0,1.0,,,,,gelb,blue,b,0.0,b,1.0,0.5036056669996469,,,,,,,,,,,,,,1.0,1.0,13.0,9.0,,,,,98.62734816599914,,,,,,,,,,,,,,,,,98.62127666599918,98.71979125000144,99.51627854099934,99.50351095800217,,,,,,,,,,,,,,,,99.50797383300232,99.51627854099934,99.51627854099934,100.0221253330019,b,1.0,0.5036056669996469,,100.02268708300107,100.03179312499924,101.02689233300045,101.02056108300168,,,,,,,,,,,,,,,,,,,,sub-128,1,stroop_test,121.18549712532888,
,,,,14.0,2.0,1.0,,,,,blau,yellow,g,0.0,g,1.0,0.5904373330013186,,,,,,,,,,,,,,1.0,2.0,14.0,7.0,,,,,101.02689233300045,,,,,,,,,,,,,,,,,101.02103158300088,101.81894262499918,102.61723695800174,102.60374175000106,,,,,,,,,,,,,,,,102.60860904100264,102.61723695800174,102.61723695800174,103.21194779100188,g,1.0,0.5904373330013186,,103.2128647080026,103.22448091600018,104.21885604099953,104.2103240409997,,,,,,,,,,,,,,,,,,,,sub-128,1,stroop_test,121.18549712532888,
,,,,15.0,3.0,1.0,,,,,gelb,yellow,g,1.0,g,1.0,0.4401765840011649,,,,,,,,,,,,,,1.0,3.0,15.0,11.0,,,,,104.21885604099953,,,,,,,,,,,,,,,,,104.21077879100268,105.01046970800236,105.80587566599934,105.79402329100049,,,,,,,,,,,,,,,,105.79819945800044,105.80587566599934,105.80587566599934,106.25469808300112,g,1.0,0.4401765840011649,,106.25543420800022,106.26507154100182,107.26041887500104,107.25387545800186,,,,,,,,,,,,,,,,,,,,sub-128,1,stroop_test,121.18549712532888,
,,,,16.0,4.0,1.0,,,,,rot,blue,b,0.0,b,1.0,0.5972192090011958,,,,,,,,,,,,,,1.0,4.0,16.0,2.0,,,,,107.26041887500104,,,,,,,,,,,,,,,,,107.25434554100138,108.05305879099978,108.85087249999924,108.83723341600124,,,,,,,,,,,,,,,,108.84225670800151,108.85087249999924,108.85087249999924,109.45516829100234,b,1.0,0.5972192090011958,,109.45618325000032,109.46622887500052,110.45921850000012,110.45289749999938,,,,,,,,,,,,,,,,,,,,sub-128,1,stroop_test,121.18549712532888,
,,,,17.0,5.0,1.0,,,,,rot,red,r,1.0,r,1.0,0.3226434170028369,,,,,,,,,,,,,,1.0,5.0,17.0,0.0,,,,,110.45921850000012,,,,,,,,,,,,,,,,,110.45337033300166,111.6529983750006,112.44701241599978,112.43738791600116,,,,,,,,,,,,,,,,112.43829216599988,112.44701241599978,112.44701241599978,112.77179966599942,r,1.0,0.3226434170028369,,112.77261079100208,112.78221820800172,113.7772756250015,113.77059616599944,,,,,,,,,,,,,,,,,,,,sub-128,1,stroop_test,121.18549712532888,
,,,,18.0,6.0,1.0,,,,,gelb,yellow,g,1.0,g,1.0,0.6577903750003316,,,,,,,,,,,,,,1.0,6.0,18.0,10.0,,,,,113.7772756250015,,,,,,,,,,,,,,,,,113.7711910830003,113.86966108300112,114.66669787499995,114.65296704100184,,,,,,,,,,,,,,,,114.65845900000204,114.66669787499995,114.66669787499995,115.3281702500026,g,1.0,0.6577903750003316,,115.32902599999944,115.34111412499988,116.33544829099992,116.32783291600208,,,,,,,,,,,,,,,,,,,,sub-128,1,stroop_test,121.18549712532888,
,,,,19.0,7.0,1.0,,,,,rot,red,r,1.0,r,1.0,0.5944559170020511,,,,,,,,,,,,,,1.0,7.0,19.0,1.0,,,,,116.33544829099992,,,,,,,,,,,,,,,,,116.32830666600056,116.6768021659991,117.48378920799952,117.47045841600266,,,,,,,,,,,,,,,,117.4753967079996,117.48378920799952,117.48378920799952,118.0886356660012,r,1.0,0.5944559170020511,,118.08983429100044,118.10249037500034,119.09276212500116,119.0864634999998,,,,,,,,,,,,,,,,,,,,sub-128,1,stroop_test,121.18549712532888,
,,,,20.0,8.0,1.0,,,,,blau,blue,b,1.0,b,1.0,0.5712473329986096,,,,,,,,,,,,,,1.0,8.0,20.0,6.0,,,,,119.09276212500116,,,,,,,,,,,,,,,,,119.086935583,119.18647562499972,119.98370458300268,119.97050241599936,,,,,,,,,,,,,,,,119.97535108300144,119.98370458300268,119.98370458300268,120.56129220799994,b,1.0,0.5712473329986096,,120.56201216599948,120.57403395800064,121.5685934159992,121.56079704100192,,,,,,,,,,,,,,,,,,,,sub-128,1,stroop_test,121.18549712532888,
,,,,21.0,9.0,1.0,,,,,blau,red,r,0.0,b,0.0,0.8179714170000807,,,,,,,,,,,,,,1.0,9.0,21.0,4.0,,,,,121.5685934159992,,,,,,,,,,,,,,,,,121.56124816599912,121.91016641600072,122.70183241600172,122.69360708300157,,,,,,,,,,,,,,,,122.69426725000083,122.70183241600172,122.70183241600172,123.52261379099946,b,0.0,0.8179714170000807,,123.52799349999988,123.54012654100006,,124.52398879099928,,,,,,,,,,,,,,,,,,,,sub-128,1,stroop_test,121.18549712532888,
,,,,22.0,10.0,1.0,,,,,gelb,red,r,0.0,r,1.0,0.80740833299933,,,,,,,,,,,,,,1.0,10.0,22.0,8.0,,,,,124.53539825000188,,,,,,,,,,,,,,,,,124.52452820799954,125.71872829100175,126.51353075000225,126.50294245800252,,,,,,,,,,,,,,,,126.5070008750008,126.51353075000225,126.51353075000225,127.32833395800117,r,1.0,0.80740833299933,,127.33276620800098,127.3427762909996,,128.3365792500008,,,,,,,,,,,,,,,,,,,,sub-128,1,stroop_test,121.18549712532888,
,,,,23.0,11.0,1.0,,,,,rot,yellow,g,0.0,g,1.0,0.7248627080007282,,,,,,,,,,,,,,1.0,11.0,23.0,3.0,,,,,128.3435418750014,,,,,,,,,,,,,,,,,128.3372190830014,129.52689162500246,130.33380029100226,130.32063108299917,,,,,,,,,,,,,,,,130.32529104100104,130.33380029100226,130.33380029100226,131.06154554100067,g,1.0,0.7248627080007282,,131.06226866600264,131.07400933300232,132.06810833300187,132.0599836250003,,,,,,,,,,,,,,,,,,,,sub-128,1,stroop_test,121.18549712532888,
,,,,,,,,,,,,,,,,,,,,,,,,,,,,,,,,,,,,,,,,,,,,,,,,,,,,,,,,,,,,,,,,,,,,,,,,,,,,,,,,,,,,,,,132.06015670800116,132.06810833300187,132.06810833300187,139.07110945800014,space,6.998753083000338,,,,,,,,,,,,,,sub-128,1,stroop_test,121.18549712532888,
,,,,0.0,0.0,0.0,,,,,,,,,,,,,rot,red,r,1.0,r,1.0,0.8611160410000593,,,,,,,,,,0.0,0.0,0.0,0.0,139.09851175000222,,,,,,,,,,,,,,,,,139.09008591599925,140.26969950000057,141.0669893330014,141.0533082080001,,,,,,,,,,,,,,,,,,,,,,,,,,,,,,,,,,,141.0583805000024,141.0669893330014,141.0669893330014,141.93769850000172,r,1.0,0.8611160410000593,,,,,,sub-128,1,stroop_test,121.18549712532888,
,,,,1.0,1.0,0.0,,,,,,,,,,,,,gelb,yellow,g,1.0,g,1.0,0.6482427500013728,,,,,,,,,,0.0,1.0,1.0,10.0,141.949331541,,,,,,,,,,,,,,,,,141.9384542500011,142.03477983300036,142.83395875000133,142.82062883300023,,,,,,,,,,,,,,,,,,,,,,,,,,,,,,,,,,,142.82561570799953,142.83395875000133,142.83395875000133,143.4881757080002,g,1.0,0.6482427500013728,,,,,,sub-128,1,stroop_test,121.18549712532888,
,,,,2.0,2.0,0.0,,,,,,,,,,,,,blau,blue,b,1.0,b,1.0,0.3767215000007127,,,,,,,,,,0.0,2.0,2.0,6.0,143.4969368330021,,,,,,,,,,,,,,,,,143.48876958300025,144.686284833002,145.48457899999994,145.47072404100254,,,,,,,,,,,,,,,,,,,,,,,,,,,,,,,,,,,145.4759269160022,145.48457899999994,145.48457899999994,145.87086825000006,b,1.0,0.3767215000007127,,,,,,sub-128,1,stroop_test,121.18549712532888,
,,,,3.0,3.0,0.0,,,,,,,,,,,,,gelb,yellow,g,1.0,g,1.0,0.7056477080004697,,,,,,,,,,0.0,3.0,3.0,11.0,145.87900070800242,,,,,,,,,,,,,,,,,145.87126095799977,145.96970708300069,146.7662768750015,146.75333600000158,,,,,,,,,,,,,,,,,,,,,,,,,,,,,,,,,,,146.7578837910005,146.7662768750015,146.7662768750015,147.4785417910025,g,1.0,0.7056477080004697,,,,,,sub-128,1,stroop_test,121.18549712532888,
,,,,4.0,4.0,0.0,,,,,,,,,,,,,blau,blue,b,1.0,b,1.0,0.6482845840000664,,,,,,,,,,0.0,4.0,4.0,5.0,147.4915480410018,,,,,,,,,,,,,,,,,147.47913904099914,148.677689250002,149.48329787500188,149.470419958001,,,,,,,,,,,,,,,,,,,,,,,,,,,,,,,,,,,149.47481029100163,149.48329787500188,149.48329787500188,150.13742366600127,b,1.0,0.6482845840000664,,,,,,sub-128,1,stroop_test,121.18549712532888,
,,,,5.0,5.0,0.0,,,,,,,,,,,,,rot,red,r,1.0,r,1.0,0.5365771249998943,,,,,,,,,,0.0,5.0,5.0,1.0,150.14697887500006,,,,,,,,,,,,,,,,,150.13807329100018,150.48534379100238,151.28380124999967,151.27040345800197,,,,,,,,,,,,,,,,,,,,,,,,,,,,,,,,,,,151.27491100000043,151.28380124999967,151.28380124999967,151.82629475000067,r,1.0,0.5365771249998943,,,,,,sub-128,1,stroop_test,121.18549712532888,
,,,,6.0,6.0,0.0,,,,,,,,,,,,,rot,blue,b,0.0,b,1.0,0.9906042080001498,,,,,,,,,,0.0,6.0,6.0,2.0,151.83517262500027,,,,,,,,,,,,,,,,,151.8266902079995,153.01904141600244,153.81252541600043,153.80384250000134,,,,,,,,,,,,,,,,,,,,,,,,,,,,,,,,,,,153.80450633299915,153.81252541600043,153.81252541600043,154.8060652080021,b,1.0,0.9906042080001498,,,,,,sub-128,1,stroop_test,121.18549712532888,
,,,,7.0,7.0,0.0,,,,,,,,,,,,,gelb,red,r,0.0,r,1.0,0.959897667002224,,,,,,,,,,0.0,7.0,7.0,8.0,154.8156020000024,,,,,,,,,,,,,,,,,154.80664595800044,154.9030989160019,155.7011265830006,155.6870581660005,,,,,,,,,,,,,,,,,,,,,,,,,,,,,,,,,,,155.6929676660002,155.7011265830006,155.7011265830006,156.6714803750001,r,1.0,0.959897667002224,,,,,,sub-128,1,stroop_test,121.18549712532888,
,,,,8.0,8.0,0.0,,,,,,,,,,,,,rot,yellow,g,0.0,g,1.0,1.1139191250003933,,,,,,,,,,0.0,8.0,8.0,3.0,156.68030791600177,,,,,,,,,,,,,,,,,156.67206554100267,157.46968458300034,158.2669595410007,158.2536551660014,,,,,,,,,,,,,,,,,,,,,,,,,,,,,,,,,,,158.25837500000125,158.2669595410007,158.2669595410007,159.3877127500018,g,1.0,1.1139191250003933,,,,,,sub-128,1,stroop_test,121.18549712532888,
,,,,9.0,9.0,0.0,,,,,,,,,,,,,gelb,blue,b,0.0,b,1.0,0.7698285410006065,,,,,,,,,,0.0,9.0,9.0,9.0,159.39899141600108,,,,,,,,,,,,,,,,,159.388512583002,159.73633899999913,160.53344654100147,160.5203547500023,,,,,,,,,,,,,,,,,,,,,,,,,,,,,,,,,,,160.5251362500021,160.53344654100147,160.53344654100147,161.3058400830014,b,1.0,0.7698285410006065,,,,,,sub-128,1,stroop_test,121.18549712532888,
,,,,10.0,10.0,0.0,,,,,,,,,,,,,blau,yellow,g,0.0,g,1.0,0.5376489580012276,,,,,,,,,,0.0,10.0,10.0,7.0,161.31606129099964,,,,,,,,,,,,,,,,,161.30659145800018,162.50296520800111,163.2993329580022,163.2866416249999,,,,,,,,,,,,,,,,,,,,,,,,,,,,,,,,,,,163.29122983300113,163.2993329580022,163.2993329580022,163.85122891600258,g,1.0,0.5376489580012276,,,,,,sub-128,1,stroop_test,121.18549712532888,
,,,,11.0,11.0,0.0,,,,,,,,,,,,,blau,red,r,0.0,r,1.0,1.0933338750000985,,,,,,,,,,0.0,11.0,11.0,4.0,163.8569169580005,,,,,,,,,,,,,,,,,163.85182550000172,164.6441980830023,165.44768929100246,165.43820345800123,,,,,,,,,,,,,,,,,,,,,,,,,,,,,,,,,,,165.43926691600063,165.44768929100246,165.44768929100246,166.54480500000136,r,1.0,1.0933338750000985,,,,,,sub-128,1,stroop_test,121.18549712532888,
,,,,12.0,0.0,1.0,,,,,,,,,,,,,rot,red,r,1.0,r,1.0,0.641255499998806,,,,,,,,,,1.0,0.0,12.0,0.0,166.5553092500013,,,,,,,,,,,,,,,,,166.54537025000172,166.64301595800134,167.43938891600192,167.42683758299972,,,,,,,,,,,,,,,,,,,,,,,,,,,,,,,,,,,167.43080787500003,167.43938891600192,167.43938891600192,168.08777579100206,r,1.0,0.641255499998806,,,,,,sub-128,1,stroop_test,121.18549712532888,
,,,,13.0,1.0,1.0,,,,,,,,,,,,,gelb,red,r,0.0,g,0.0,0.7083129579987144,,,,,,,,,,1.0,1.0,13.0,8.0,168.0962877080019,,,,,,,,,,,,,,,,,168.08818262500063,168.1864146250009,168.98403812499964,168.97055079100028,,,,,,,,,,,,,,,,,,,,,,,,,,,,,,,,,,,168.9755338750001,168.98403812499964,168.98403812499964,169.6953841249997,g,0.0,0.7083129579987144,,,,,,sub-128,1,stroop_test,121.18549712532888,
,,,,14.0,2.0,1.0,,,,,,,,,,,,,gelb,blue,b,0.0,b,1.0,0.5871840830004658,,,,,,,,,,1.0,2.0,14.0,9.0,169.70701545799966,,,,,,,,,,,,,,,,,169.69599537500108,169.79578308300188,170.59471366599973,170.58608904100038,,,,,,,,,,,,,,,,,,,,,,,,,,,,,,,,,,,170.58678979099932,170.59471366599973,170.59471366599973,171.18765424999947,b,1.0,0.5871840830004658,,,,,,sub-128,1,stroop_test,121.18549712532888,
,,,,15.0,3.0,1.0,,,,,,,,,,,,,blau,blue,b,1.0,b,1.0,0.5035897090019716,,,,,,,,,,1.0,3.0,15.0,5.0,171.1976634160019,,,,,,,,,,,,,,,,,171.18836858299983,172.38579933300207,173.18248341599974,173.16977875000157,,,,,,,,,,,,,,,,,,,,,,,,,,,,,,,,,,,173.17441804100235,173.18248341599974,173.18248341599974,173.6879755000009,b,1.0,0.5035897090019716,,,,,,sub-128,1,stroop_test,121.18549712532888,
,,,,16.0,4.0,1.0,,,,,,,,,,,,,gelb,yellow,g,1.0,g,1.0,0.658121583997854,,,,,,,,,,1.0,4.0,16.0,11.0,173.69382958300048,,,,,,,,,,,,,,,,,173.68849829100145,173.78529691600124,174.58420212499914,174.57026595800198,,,,,,,,,,,,,,,,,,,,,,,,,,,,,,,,,,,174.57584066600248,174.58420212499914,174.58420212499914,175.24465820800106,g,1.0,0.658121583997854,,,,,,sub-128,1,stroop_test,121.18549712532888,
,,,,17.0,5.0,1.0,,,,,,,,,,,,,blau,blue,b,1.0,b,1.0,0.6530480000001262,,,,,,,,,,1.0,5.0,17.0,6.0,175.2529882910021,,,,,,,,,,,,,,,,,175.24502295800266,176.04337837500134,176.8394280829998,176.82768608300103,,,,,,,,,,,,,,,,,,,,,,,,,,,,,,,,,,,176.83172354099952,176.8394280829998,176.8394280829998,177.4946921660012,b,1.0,0.6530480000001262,,,,,,sub-128,1,stroop_test,121.18549712532888,
,,,,18.0,6.0,1.0,,,,,,,,,,,,,gelb,yellow,g,1.0,g,1.0,0.8055294999976468,,,,,,,,,,1.0,6.0,18.0,10.0,177.50422316600088,,,,,,,,,,,,,,,,,177.4951989580004,177.84328945800007,178.63901979100046,178.62676945800197,,,,,,,,,,,,,,,,,,,,,,,,,,,,,,,,,,,178.63089550000225,178.63901979100046,178.63901979100046,179.45464816599997,g,1.0,0.8055294999976468,,,,,,sub-128,1,stroop_test,121.18549712532888,
,,,,19.0,7.0,1.0,,,,,,,,,,,,,rot,blue,b,0.0,b,1.0,0.8195803330017952,,,,,,,,,,1.0,7.0,19.0,2.0,179.46338391600148,,,,,,,,,,,,,,,,,179.45521670800008,180.65308095799992,181.4501226249995,181.4370493330025,,,,,,,,,,,,,,,,,,,,,,,,,,,,,,,,,,,181.4416656249996,181.4501226249995,181.4501226249995,182.2718467500017,b,1.0,0.8195803330017952,,,,,,sub-128,1,stroop_test,121.18549712532888,
,,,,20.0,8.0,1.0,,,,,,,,,,,,,rot,red,r,1.0,r,1.0,0.6093164580015582,,,,,,,,,,1.0,8.0,20.0,1.0,182.28020741600267,,,,,,,,,,,,,,,,,182.2724872079998,183.0685995410022,183.86173754099943,183.85312112500105,,,,,,,,,,,,,,,,,,,,,,,,,,,,,,,,,,,183.8538034580015,183.86173754099943,183.86173754099943,184.4764019159993,r,1.0,0.6093164580015582,,,,,,sub-128,1,stroop_test,121.18549712532888,
,,,,21.0,9.0,1.0,,,,,,,,,,,,,blau,yellow,g,0.0,g,1.0,1.0343491669991636,,,,,,,,,,1.0,9.0,21.0,7.0,184.48470420800004,,,,,,,,,,,,,,,,,184.476914875002,184.57470083299995,185.38525054099955,185.35879399999976,,,,,,,,,,,,,,,,,,,,,,,,,,,,,,,,,,,185.36233775000076,185.38525054099955,185.38525054099955,186.43055749999985,g,1.0,1.0343491669991636,,,,,,sub-128,1,stroop_test,121.18549712532888,
,,,,22.0,10.0,1.0,,,,,,,,,,,,,blau,red,r,0.0,r,1.0,0.704232874999434,,,,,,,,,,1.0,10.0,22.0,4.0,186.45220804100245,,,,,,,,,,,,,,,,,186.43108358300012,186.5242618330012,187.31852108300157,187.31062658299925,,,,,,,,,,,,,,,,,,,,,,,,,,,,,,,,,,,187.31124787500084,187.31852108300157,187.31852108300157,188.02752537500052,r,1.0,0.704232874999434,,,,,,sub-128,1,stroop_test,121.18549712532888,
,,,,23.0,11.0,1.0,,,,,,,,,,,,,rot,yellow,g,0.0,g,1.0,0.6801304580003489,,,,,,,,,,1.0,11.0,23.0,3.0,188.0523336250008,,,,,,,,,,,,,,,,,188.02793916600055,188.12612620800064,188.92262333300096,188.9098697080008,,,,,,,,,,,,,,,,,,,,,,,,,,,,,,,,,,,188.91384533300152,188.92262333300096,188.92262333300096,189.60481033299948,g,1.0,0.6801304580003489,,,,,,sub-128,1,stroop_test,121.18549712532888,
,,,,24.0,0.0,2.0,,,,,,,,,,,,,gelb,red,r,0.0,r,1.0,0.5618532090011286,,,,,,,,,,2.0,0.0,24.0,8.0,189.61350658300216,,,,,,,,,,,,,,,,,189.6053275410013,189.70294708300207,190.5003046660022,190.48691020800104,,,,,,,,,,,,,,,,,,,,,,,,,,,,,,,,,,,190.4917547080004,190.5003046660022,190.5003046660022,191.0712199160007,r,1.0,0.5618532090011286,,,,,,sub-128,1,stroop_test,121.18549712532888,
,,,,25.0,1.0,2.0,,,,,,,,,,,,,blau,yellow,g,0.0,g,1.0,0.6437850840011379,,,,,,,,,,2.0,1.0,25.0,7.0,191.079877958,,,,,,,,,,,,,,,,,191.07174104099977,191.86914525000248,192.66821562500263,192.65363912500104,,,,,,,,,,,,,,,,,,,,,,,,,,,,,,,,,,,192.65969233299984,192.66821562500263,192.66821562500263,193.32122725000227,g,1.0,0.6437850840011379,,,,,,sub-128,1,stroop_test,121.18549712532888,
,,,,26.0,2.0,2.0,,,,,,,,,,,,,rot,red,r,1.0,r,1.0,0.5213428339993698,,,,,,,,,,2.0,2.0,26.0,1.0,193.33086220800035,,,,,,,,,,,,,,,,,193.3217717080006,193.66941870799928,194.46572908300004,194.4528933750007,,,,,,,,,,,,,,,,,,,,,,,,,,,,,,,,,,,194.4573003330006,194.46572908300004,194.46572908300004,194.99030541600223,r,1.0,0.5213428339993698,,,,,,sub-128,1,stroop_test,121.18549712532888,
,,,,27.0,3.0,2.0,,,,,,,,,,,,,rot,yellow,g,0.0,g,1.0,0.7019416670009377,,,,,,,,,,2.0,3.0,27.0,3.0,194.9998001660024,,,,,,,,,,,,,,,,,194.9910594159992,195.7854792500002,196.57866425000248,196.5695953750001,,,,,,,,,,,,,,,,,,,,,,,,,,,,,,,,,,,196.57032016599987,196.57866425000248,196.57866425000248,197.28811983299968,g,1.0,0.7019416670009377,,,,,,sub-128,1,stroop_test,121.18549712532888,
,,,,28.0,4.0,2.0,,,,,,,,,,,,,gelb,yellow,g,1.0,g,1.0,0.4928047499997774,,,,,,,,,,2.0,4.0,28.0,11.0,197.29741516600188,,,,,,,,,,,,,,,,,197.2886877910023,197.63566750000248,198.43399183300065,198.4205475000017,,,,,,,,,,,,,,,,,,,,,,,,,,,,,,,,,,,198.42555579100008,198.43399183300065,198.43399183300065,198.9533007909995,g,1.0,0.4928047499997774,,,,,,sub-128,1,stroop_test,121.18549712532888,
,,,,29.0,5.0,2.0,,,,,,,,,,,,,rot,blue,b,0.0,b,1.0,0.6974412919989845,,,,,,,,,,2.0,5.0,29.0,2.0,198.96965441599968,,,,,,,,,,,,,,,,,198.95374004100088,199.0428237910019,199.83917858300265,199.8270187080016,,,,,,,,,,,,,,,,,,,,,,,,,,,,,,,,,,,199.83113095800215,199.83917858300265,199.83917858300265,200.5386350410008,b,1.0,0.6974412919989845,,,,,,sub-128,1,stroop_test,121.18549712532888,
,,,,30.0,6.0,2.0,,,,,,,,,,,,,gelb,yellow,g,1.0,g,1.0,0.5701889579977433,,,,,,,,,,2.0,6.0,30.0,10.0,200.5444053329993,,,,,,,,,,,,,,,,,200.53919312500147,200.88530075000017,201.68325775000267,201.67029116599952,,,,,,,,,,,,,,,,,,,,,,,,,,,,,,,,,,,201.67492891599977,201.68325775000267,201.68325775000267,202.26132549999969,g,1.0,0.5701889579977433,,,,,,sub-128,1,stroop_test,121.18549712532888,
,,,,31.0,7.0,2.0,,,,,,,,,,,,,blau,red,r,0.0,r,1.0,1.0137314999992668,,,,,,,,,,2.0,7.0,31.0,4.0,202.26934229100152,,,,,,,,,,,,,,,,,202.2617058750002,202.35919654100144,203.1561771250017,203.14425395800208,,,,,,,,,,,,,,,,,,,,,,,,,,,,,,,,,,,203.1483756660018,203.1561771250017,203.1561771250017,204.17770400000157,r,1.0,1.0137314999992668,,,,,,sub-128,1,stroop_test,121.18549712532888,
,,,,32.0,8.0,2.0,,,,,,,,,,,,,gelb,blue,b,0.0,b,1.0,1.3111052919994108,,,,,,,,,,2.0,8.0,32.0,9.0,204.18912004099911,,,,,,,,,,,,,,,,,204.1783147080023,204.9773033750025,205.7724910830002,205.7605479160011,,,,,,,,,,,,,,,,,,,,,,,,,,,,,,,,,,,205.76456445800068,205.7724910830002,205.7724910830002,207.08821620800157,b,1.0,1.3111052919994108,,,,,,sub-128,1,stroop_test,121.18549712532888,
,,,,33.0,9.0,2.0,,,,,,,,,,,,,blau,blue,b,1.0,b,1.0,0.5223541670020495,,,,,,,,,,2.0,9.0,33.0,5.0,207.09708350000076,,,,,,,,,,,,,,,,,207.08879720800175,207.18629633300225,207.9851002079995,207.9703810409992,,,,,,,,,,,,,,,,,,,,,,,,,,,,,,,,,,,207.9768132499994,207.9851002079995,207.9851002079995,208.51124662499933,b,1.0,0.5223541670020495,,,,,,sub-128,1,stroop_test,121.18549712532888,
,,,,34.0,10.0,2.0,,,,,,,,,,,,,rot,red,r,1.0,r,1.0,0.8693841250023979,,,,,,,,,,2.0,10.0,34.0,0.0,208.5357347909994,,,,,,,,,,,,,,,,,208.5117160000009,208.8600555410012,209.66673304100183,209.6536111250025,,,,,,,,,,,,,,,,,,,,,,,,,,,,,,,,,,,209.658039291,209.66673304100183,209.66673304100183,210.538367125002,r,1.0,0.8693841250023979,,,,,,sub-128,1,stroop_test,121.18549712532888,
,,,,35.0,11.0,2.0,,,,,,,,,,,,,blau,blue,b,1.0,b,1.0,1.0378368330020749,,,,,,,,,,2.0,11.0,35.0,6.0,210.54828774999987,,,,,,,,,,,,,,,,,210.5390593330012,210.63625054099973,211.4340088749996,211.42055012499983,,,,,,,,,,,,,,,,,,,,,,,,,,,,,,,,,,,211.4257677500027,211.4340088749996,211.4340088749996,212.47842641600076,b,1.0,1.0378368330020749,,,,,,sub-128,1,stroop_test,121.18549712532888,
,,,,36.0,0.0,3.0,,,,,,,,,,,,,blau,blue,b,1.0,b,1.0,0.5662609579994751,,,,,,,,,,3.0,0.0,36.0,6.0,212.491714541,,,,,,,,,,,,,,,,,212.479037041001,212.8274311660025,213.62891316600144,213.6205034580016,,,,,,,,,,,,,,,,,,,,,,,,,,,,,,,,,,,213.62118591599935,213.62891316600144,213.62891316600144,214.2044043330025,b,1.0,0.5662609579994751,,,,,,sub-128,1,stroop_test,121.18549712532888,
,,,,37.0,1.0,3.0,,,,,,,,,,,,,rot,red,r,1.0,r,1.0,0.6706827910020365,,,,,,,,,,3.0,1.0,37.0,1.0,214.21537333300148,,,,,,,,,,,,,,,,,214.20513358300013,215.0030775410014,215.79958004100263,215.7863588330001,,,,,,,,,,,,,,,,,,,,,,,,,,,,,,,,,,,215.79104070800167,215.79958004100263,215.79958004100263,216.4840152079996,r,1.0,0.6706827910020365,,,,,,sub-128,1,stroop_test,121.18549712532888,
,,,,38.0,2.0,3.0,,,,,,,,,,,,,gelb,blue,b,0.0,b,1.0,1.5152759160009737,,,,,,,,,,3.0,2.0,38.0,9.0,216.488999125002,,,,,,,,,,,,,,,,,216.48456791600256,217.67698770800047,218.4836737910009,218.47034987500228,,,,,,,,,,,,,,,,,,,,,,,,,,,,,,,,,,,218.47544299999936,218.4836737910009,218.4836737910009,220.0048740830025,b,1.0,1.5152759160009737,,,,,,sub-128,1,stroop_test,121.18549712532888,
,,,,39.0,3.0,3.0,,,,,,,,,,,,,blau,yellow,g,0.0,g,1.0,0.5975284159976582,,,,,,,,,,3.0,3.0,39.0,7.0,220.01628866600004,,,,,,,,,,,,,,,,,220.00556754100035,220.35284291599964,221.14966545800053,221.13681095799984,,,,,,,,,,,,,,,,,,,,,,,,,,,,,,,,,,,221.14143333299944,221.14966545800053,221.14966545800053,221.7547370409993,g,1.0,0.5975284159976582,,,,,,sub-128,1,stroop_test,121.18549712532888,
,,,,40.0,4.0,3.0,,,,,,,,,,,,,rot,yellow,g,0.0,g,1.0,0.5694318329988164,,,,,,,,,,3.0,4.0,40.0,3.0,221.76369879100093,,,,,,,,,,,,,,,,,221.75516858300037,221.8528655830014,222.64972425000087,222.6368348329997,,,,,,,,,,,,,,,,,,,,,,,,,,,,,,,,,,,222.6412784999993,222.64972425000087,222.64972425000087,223.2217498749997,g,1.0,0.5694318329988164,,,,,,sub-128,1,stroop_test,121.18549712532888,
,,,,41.0,5.0,3.0,,,,,,,,,,,,,rot,red,r,1.0,r,1.0,0.6127267920019221,,,,,,,,,,3.0,5.0,41.0,0.0,223.2316929160006,,,,,,,,,,,,,,,,,223.2224382500026,223.5695945410007,224.36244995800007,224.3536610830015,,,,,,,,,,,,,,,,,,,,,,,,,,,,,,,,,,,224.35436912500157,224.36244995800007,224.36244995800007,224.978234000002,r,1.0,0.6127267920019221,,,,,,sub-128,1,stroop_test,121.18549712532888,
,,,,42.0,6.0,3.0,,,,,,,,,,,,,gelb,yellow,g,1.0,g,1.0,1.395927917001245,,,,,,,,,,3.0,6.0,42.0,10.0,224.9883535830013,,,,,,,,,,,,,,,,,224.97881387500087,226.1763140410003,226.97438854100253,226.9606559999993,,,,,,,,,,,,,,,,,,,,,,,,,,,,,,,,,,,226.9665050830008,226.97438854100253,226.97438854100253,228.3843967079993,g,1.0,1.395927917001245,,,,,,sub-128,1,stroop_test,121.18549712532888,
,,,,43.0,7.0,3.0,,,,,,,,,,,,,gelb,yellow,g,1.0,g,1.0,0.5028532090000226,,,,,,,,,,3.0,7.0,43.0,11.0,228.38953091599976,,,,,,,,,,,,,,,,,228.384926666,228.72673212500013,229.51800154100056,229.51004691600247,,,,,,,,,,,,,,,,,,,,,,,,,,,,,,,,,,,229.5106979160009,229.51800154100056,229.51800154100056,230.0294294160012,g,1.0,0.5028532090000226,,,,,,sub-128,1,stroop_test,121.18549712532888,
,,,,44.0,8.0,3.0,,,,,,,,,,,,,rot,blue,b,0.0,b,1.0,3.0229450829974667,,,,,,,,,,3.0,8.0,44.0,2.0,230.04208245799964,,,,,,,,,,,,,,,,,230.03025133300247,230.82713074999992,231.6345756660012,231.6204742910013,,,,,,,,,,,,,,,,,,,,,,,,,,,,,,,,,,,231.6257783330002,231.6345756660012,231.6345756660012,234.6618443330008,b,1.0,3.0229450829974667,,,,,,sub-128,1,stroop_test,121.18549712532888,
,,,,45.0,9.0,3.0,,,,,,,,,,,,,gelb,red,r,0.0,r,1.0,0.7385757909978565,,,,,,,,,,3.0,9.0,45.0,8.0,234.67430641600004,,,,,,,,,,,,,,,,,234.66248700000145,235.86036745800084,236.65587208299985,236.6434824999997,,,,,,,,,,,,,,,,,,,,,,,,,,,,,,,,,,,236.6476109159994,236.65587208299985,236.65587208299985,237.40422433300049,r,1.0,0.7385757909978565,,,,,,sub-128,1,stroop_test,121.18549712532888,
,,,,46.0,10.0,3.0,,,,,,,,,,,,,blau,blue,b,1.0,b,1.0,1.5143080000016198,,,,,,,,,,3.0,10.0,46.0,5.0,237.4126987080017,,,,,,,,,,,,,,,,,237.40465858300013,238.2029353329999,238.99939129099948,238.9867615830008,,,,,,,,,,,,,,,,,,,,,,,,,,,,,,,,,,,238.99123795800188,238.99939129099948,238.99939129099948,240.5214558330008,b,1.0,1.5143080000016198,,,,,,sub-128,1,stroop_test,121.18549712532888,
,,,,47.0,11.0,3.0,,,,,,,,,,,,,blau,red,r,0.0,r,1.0,0.6952850419984316,,,,,,,,,,3.0,11.0,47.0,4.0,240.53022675000105,,,,,,,,,,,,,,,,,240.52206025000123,241.7187350000022,242.51298583300013,242.50373075000243,,,,,,,,,,,,,,,,,,,,,,,,,,,,,,,,,,,242.504607916002,242.51298583300013,242.51298583300013,243.2194689160024,r,1.0,0.6952850419984316,,,,,,sub-128,1,stroop_test,121.18549712532888,
,,,,48.0,0.0,4.0,,,,,,,,,,,,,blau,yellow,g,0.0,g,1.0,1.3848520829997142,,,,,,,,,,4.0,0.0,48.0,7.0,243.22457600000047,,,,,,,,,,,,,,,,,243.22004933300195,243.55956912500187,244.35168466600223,244.34349825000027,,,,,,,,,,,,,,,,,,,,,,,,,,,,,,,,,,,244.34415779100163,244.35168466600223,244.35168466600223,245.74414716600225,g,1.0,1.3848520829997142,,,,,,sub-128,1,stroop_test,121.18549712532888,
,,,,49.0,1.0,4.0,,,,,,,,,,,,,gelb,red,r,0.0,r,1.0,1.1757578750002722,,,,,,,,,,4.0,1.0,49.0,8.0,245.7682442500009,,,,,,,,,,,,,,,,,245.7446658330009,246.94390475000185,247.7507462909998,247.73707629099957,,,,,,,,,,,,,,,,,,,,,,,,,,,,,,,,,,,247.7424251660013,247.7507462909998,247.7507462909998,248.93578762499965,r,1.0,1.1757578750002722,,,,,,sub-128,1,stroop_test,121.18549712532888,
,,,,50.0,2.0,4.0,,,,,,,,,,,,,gelb,blue,b,0.0,b,1.0,1.2905871249968186,,,,,,,,,,4.0,2.0,50.0,9.0,248.94468212500212,,,,,,,,,,,,,,,,,248.9361912500026,249.2766078749992,250.07901875000243,250.0702930410007,,,,,,,,,,,,,,,,,,,,,,,,,,,,,,,,,,,250.07095979100268,250.07901875000243,250.07901875000243,251.37172270800147,b,1.0,1.2905871249968186,,,,,,sub-128,1,stroop_test,121.18549712532888,
,,,,51.0,3.0,4.0,,,,,,,,,,,,,gelb,yellow,g,1.0,g,1.0,0.5739972919982392,,,,,,,,,,4.0,3.0,51.0,11.0,251.3803687910004,,,,,,,,,,,,,,,,,251.3721686249992,251.71970420800065,252.5129398329991,252.50375862500005,,,,,,,,,,,,,,,,,,,,,,,,,,,,,,,,,,,252.50467204099917,252.5129398329991,252.5129398329991,253.09826316600083,g,1.0,0.5739972919982392,,,,,,sub-128,1,stroop_test,121.18549712532888,
,,,,52.0,4.0,4.0,,,,,,,,,,,,,rot,yellow,g,0.0,g,1.0,0.6975735000014538,,,,,,,,,,4.0,4.0,52.0,3.0,253.104126041002,,,,,,,,,,,,,,,,,253.0986401250011,253.4438304579999,254.23983912500265,254.22767162500168,,,,,,,,,,,,,,,,,,,,,,,,,,,,,,,,,,,254.23175954100225,254.23983912500265,254.23983912500265,254.94281650000264,g,1.0,0.6975735000014538,,,,,,sub-128,1,stroop_test,121.18549712532888,
,,,,53.0,5.0,4.0,,,,,,,,,,,,,gelb,yellow,g,1.0,g,1.0,0.4594682499991904,,,,,,,,,,4.0,5.0,53.0,10.0,254.951304041002,,,,,,,,,,,,,,,,,254.9432850410012,255.0426763329997,255.84354058300232,255.82773174999969,,,,,,,,,,,,,,,,,,,,,,,,,,,,,,,,,,,255.8355256249997,255.84354058300232,255.84354058300232,256.30525325000053,g,1.0,0.4594682499991904,,,,,,sub-128,1,stroop_test,121.18549712532888,
,,,,54.0,6.0,4.0,,,,,,,,,,,,,blau,blue,b,1.0,b,1.0,0.6480869590013754,,,,,,,,,,4.0,6.0,54.0,6.0,256.3146084159998,,,,,,,,,,,,,,,,,256.3057615409998,257.1015480829992,257.8995325830001,257.8867409580016,,,,,,,,,,,,,,,,,,,,,,,,,,,,,,,,,,,257.89126070800194,257.8995325830001,257.8995325830001,258.5552956249994,b,1.0,0.6480869590013754,,,,,,sub-128,1,stroop_test,121.18549712532888,
,,,,55.0,7.0,4.0,,,,,,,,,,,,,rot,red,r,1.0,r,1.0,0.493372790999274,,,,,,,,,,4.0,7.0,55.0,0.0,258.56663133300026,,,,,,,,,,,,,,,,,258.55608629100243,259.35232679100227,260.151163333001,260.13696337500005,,,,,,,,,,,,,,,,,,,,,,,,,,,,,,,,,,,260.142204541,260.151163333001,260.151163333001,260.65403966600206,r,1.0,0.493372790999274,,,,,,sub-128,1,stroop_test,121.18549712532888,
,,,,56.0,8.0,4.0,,,,,,,,,,,,,rot,blue,b,0.0,b,1.0,0.756783415999962,,,,,,,,,,4.0,8.0,56.0,2.0,260.66257345800113,,,,,,,,,,,,,,,,,260.65456495800026,261.8526248750022,262.6452748330012,262.63615579100224,,,,,,,,,,,,,,,,,,,,,,,,,,,,,,,,,,,262.63685458300097,262.6452748330012,262.6452748330012,263.4049607500019,b,1.0,0.756783415999962,,,,,,sub-128,1,stroop_test,121.18549712532888,
,,,,57.0,9.0,4.0,,,,,,,,,,,,,blau,red,r,0.0,g,0.0,0.7142217090004124,,,,,,,,,,4.0,9.0,57.0,4.0,263.41509987500103,,,,,,,,,,,,,,,,,263.40567254100097,264.60180587500145,265.4015800000016,265.3872396660008,,,,,,,,,,,,,,,,,,,,,,,,,,,,,,,,,,,265.3926741659998,265.4015800000016,265.4015800000016,266.12066295800105,g,0.0,0.7142217090004124,,,,,,sub-128,1,stroop_test,121.18549712532888,
,,,,58.0,10.0,4.0,,,,,,,,,,,,,rot,red,r,1.0,r,1.0,0.5870472919996246,,,,,,,,,,4.0,10.0,58.0,1.0,266.12833624999985,,,,,,,,,,,,,,,,,266.12109733300167,266.9186008329998,267.7167229580009,267.7031059159999,,,,,,,,,,,,,,,,,,,,,,,,,,,,,,,,,,,267.70755937500144,267.7167229580009,267.7167229580009,268.3100904160019,r,1.0,0.5870472919996246,,,,,,sub-128,1,stroop_test,121.18549712532888,
,,,,59.0,11.0,4.0,,,,,,,,,,,,,blau,blue,b,1.0,b,1.0,0.8994709590006096,,,,,,,,,,4.0,11.0,59.0,5.0,268.3185945000005,,,,,,,,,,,,,,,,,268.3105073750012,268.40708529100084,269.2061712499999,269.1940277909998,,,,,,,,,,,,,,,,,,,,,,,,,,,,,,,,,,,269.19795183300084,269.2061712499999,269.2061712499999,270.1113182500012,b,1.0,0.8994709590006096,,,,,,sub-128,1,stroop_test,121.18549712532888,
,,,,60.0,0.0,5.0,,,,,,,,,,,,,gelb,red,r,0.0,r,1.0,1.5492749579971132,,,,,,,,,,5.0,0.0,60.0,8.0,270.1215164999994,,,,,,,,,,,,,,,,,270.1118350409997,270.9094404999996,271.70567254100024,271.6936087079994,,,,,,,,,,,,,,,,,,,,,,,,,,,,,,,,,,,271.6976711660027,271.70567254100024,271.70567254100024,273.2627443750025,r,1.0,1.5492749579971132,,,,,,sub-128,1,stroop_test,121.18549712532888,
,,,,61.0,1.0,5.0,,,,,,,,,,,,,rot,red,r,1.0,r,1.0,0.4950274160000845,,,,,,,,,,5.0,1.0,61.0,1.0,273.2750648330002,,,,,,,,,,,,,,,,,273.26346837500023,273.3595030409997,274.16831037500015,274.15363066600185,,,,,,,,,,,,,,,,,,,,,,,,,,,,,,,,,,,274.1599143750027,274.16831037500015,274.16831037500015,274.6719260829996,r,1.0,0.4950274160000845,,,,,,sub-128,1,stroop_test,121.18549712532888,
,,,,62.0,2.0,5.0,,,,,,,,,,,,,gelb,yellow,g,1.0,g,1.0,0.6572526669988292,,,,,,,,,,5.0,2.0,62.0,11.0,274.68349800000215,,,,,,,,,,,,,,,,,274.6727542910012,275.46930200000133,276.26596979100214,276.2527795829992,,,,,,,,,,,,,,,,,,,,,,,,,,,,,,,,,,,276.2574001659996,276.26596979100214,276.26596979100214,276.92794725000203,g,1.0,0.6572526669988292,,,,,,sub-128,1,stroop_test,121.18549712532888,
,,,,63.0,3.0,5.0,,,,,,,,,,,,,blau,blue,b,1.0,b,1.0,0.7809568750017206,,,,,,,,,,5.0,3.0,63.0,5.0,276.937316208001,,,,,,,,,,,,,,,,,276.92841520799993,277.02548650000244,277.82211737500256,277.8096776250022,,,,,,,,,,,,,,,,,,,,,,,,,,,,,,,,,,,277.8137718750004,277.82211737500256,277.82211737500256,278.60554916600086,b,1.0,0.7809568750017206,,,,,,sub-128,1,stroop_test,121.18549712532888,
,,,,64.0,4.0,5.0,,,,,,,,,,,,,rot,blue,b,0.0,b,1.0,0.7731035420001717,,,,,,,,,,5.0,4.0,64.0,2.0,278.6155580830018,,,,,,,,,,,,,,,,,278.6062677910013,279.802638000001,280.6005627910017,280.5869844580011,,,,,,,,,,,,,,,,,,,,,,,,,,,,,,,,,,,280.5918457500011,280.6005627910017,280.6005627910017,281.3777914580023,b,1.0,0.7731035420001717,,,,,,sub-128,1,stroop_test,121.18549712532888,
,,,,65.0,5.0,5.0,,,,,,,,,,,,,rot,yellow,g,0.0,r,0.0,1.3678827500007174,,,,,,,,,,5.0,5.0,65.0,3.0,281.39070866600014,,,,,,,,,,,,,,,,,281.3784854580008,282.5768473749995,283.37946495800134,283.370497791002,,,,,,,,,,,,,,,,,,,,,,,,,,,,,,,,,,,283.37138525000046,283.37946495800134,283.37946495800134,284.7543608330016,r,0.0,1.3678827500007174,,,,,,sub-128,1,stroop_test,121.18549712532888,
,,,,66.0,6.0,5.0,,,,,,,,,,,,,blau,blue,b,1.0,b,1.0,0.6745621250011027,,,,,,,,,,5.0,6.0,66.0,6.0,284.7651805829992,,,,,,,,,,,,,,,,,284.7551815000006,285.95239591599966,286.75110337500155,286.73724204099926,,,,,,,,,,,,,,,,,,,,,,,,,,,,,,,,,,,286.7426119160009,286.75110337500155,286.75110337500155,287.42762500000026,b,1.0,0.6745621250011027,,,,,,sub-128,1,stroop_test,121.18549712532888,
,,,,67.0,7.0,5.0,,,,,,,,,,,,,rot,red,r,1.0,r,1.0,0.613556290998531,,,,,,,,,,5.0,7.0,67.0,0.0,287.4527783750018,,,,,,,,,,,,,,,,,287.42802395800027,287.7766968750002,288.5723625409992,288.56067624999923,,,,,,,,,,,,,,,,,,,,,,,,,,,,,,,,,,,288.56472975,288.5723625409992,288.5723625409992,289.1881797080023,r,1.0,0.613556290998531,,,,,,sub-128,1,stroop_test,121.18549712532888,
,,,,68.0,8.0,5.0,,,,,,,,,,,,,gelb,blue,b,0.0,b,1.0,0.8963147079994087,,,,,,,,,,5.0,8.0,68.0,9.0,289.1973207080009,,,,,,,,,,,,,,,,,289.1888146250021,289.9860002500027,290.7821470830022,290.7694067910016,,,,,,,,,,,,,,,,,,,,,,,,,,,,,,,,,,,290.7738504580011,290.7821470830022,290.7821470830022,291.6879982909996,b,1.0,0.8963147079994087,,,,,,sub-128,1,stroop_test,121.18549712532888,
,,,,69.0,9.0,5.0,,,,,,,,,,,,,blau,red,r,0.0,r,1.0,0.7505093749969092,,,,,,,,,,5.0,9.0,69.0,4.0,291.6970395829994,,,,,,,,,,,,,,,,,291.6885593750012,292.8861569159999,293.6852628330016,293.6704692910025,,,,,,,,,,,,,,,,,,,,,,,,,,,,,,,,,,,293.6771322080021,293.6852628330016,293.6852628330016,294.4424172079998,r,1.0,0.7505093749969092,,,,,,sub-128,1,stroop_test,121.18549712532888,
,,,,70.0,10.0,5.0,,,,,,,,,,,,,gelb,yellow,g,1.0,g,1.0,0.5779821670003003,,,,,,,,,,5.0,10.0,70.0,10.0,294.4518277080024,,,,,,,,,,,,,,,,,294.4427799580008,295.63514237500203,296.4307566250027,296.4196058330017,,,,,,,,,,,,,,,,,,,,,,,,,,,,,,,,,,,296.42354291599986,296.4307566250027,296.4307566250027,297.0114388330003,g,1.0,0.5779821670003003,,,,,,sub-128,1,stroop_test,121.18549712532888,
,,,,71.0,11.0,5.0,,,,,,,,,,,,,blau,yellow,g,0.0,g,1.0,0.4762245000019902,,,,,,,,,,5.0,11.0,71.0,7.0,297.02064533299927,,,,,,,,,,,,,,,,,297.01187974999993,297.35967170799995,298.1665420410027,298.153493916001,,,,,,,,,,,,,,,,,,,,,,,,,,,,,,,,,,,298.1581877080025,298.1665420410027,298.1665420410027,298.6450412080012,g,1.0,0.4762245000019902,,,,,,sub-128,1,stroop_test,121.18549712532888,
,,,,72.0,0.0,6.0,,,,,,,,,,,,,blau,red,r,0.0,r,1.0,0.9239860000016052,,,,,,,,,,6.0,0.0,72.0,4.0,298.6547203750015,,,,,,,,,,,,,,,,,298.645689666002,299.4435409159996,300.23505954100256,300.22692179099977,,,,,,,,,,,,,,,,,,,,,,,,,,,,,,,,,,,300.22757491599987,300.23505954100256,300.23505954100256,301.16128075000233,r,1.0,0.9239860000016052,,,,,,sub-128,1,stroop_test,121.18549712532888,
,,,,73.0,1.0,6.0,,,,,,,,,,,,,blau,blue,b,1.0,b,1.0,0.7682596249978815,,,,,,,,,,6.0,1.0,73.0,6.0,301.1694506660024,,,,,,,,,,,,,,,,,301.1617511250006,301.96028883300096,302.7619518749998,302.7534923750027,,,,,,,,,,,,,,,,,,,,,,,,,,,,,,,,,,,302.7541585409999,302.7619518749998,302.7619518749998,303.5378689999998,b,1.0,0.7682596249978815,,,,,,sub-128,1,stroop_test,121.18549712532888,
,,,,74.0,2.0,6.0,,,,,,,,,,,,,blau,blue,b,1.0,b,1.0,0.7936439160002919,,,,,,,,,,6.0,2.0,74.0,5.0,303.5476090830016,,,,,,,,,,,,,,,,,303.5385040830006,303.63620304100186,304.4281884580014,304.4199809160018,,,,,,,,,,,,,,,,,,,,,,,,,,,,,,,,,,,304.42060220799976,304.4281884580014,304.4281884580014,305.2268816659998,b,1.0,0.7936439160002919,,,,,,sub-128,1,stroop_test,121.18549712532888,
,,,,75.0,3.0,6.0,,,,,,,,,,,,,gelb,yellow,g,1.0,g,1.0,0.8641331670005457,,,,,,,,,,6.0,3.0,75.0,11.0,305.2353325410004,,,,,,,,,,,,,,,,,305.22741491600027,306.0248302079999,306.8218966250024,306.80919070800155,,,,,,,,,,,,,,,,,,,,,,,,,,,,,,,,,,,306.813287666002,306.8218966250024,306.8218966250024,307.6883105410016,g,1.0,0.8641331670005457,,,,,,sub-128,1,stroop_test,121.18549712532888,
,,,,76.0,4.0,6.0,,,,,,,,,,,,,blau,yellow,g,0.0,g,1.0,0.4485380830010399,,,,,,,,,,6.0,4.0,76.0,7.0,307.6977729579994,,,,,,,,,,,,,,,,,307.68903741599934,307.78608158300267,308.58265095800016,308.5697697079995,,,,,,,,,,,,,,,,,,,,,,,,,,,,,,,,,,,308.5742814580008,308.58265095800016,308.58265095800016,309.03741583300143,g,1.0,0.4485380830010399,,,,,,sub-128,1,stroop_test,121.18549712532888,
,,,,77.0,5.0,6.0,,,,,,,,,,,,,rot,blue,b,0.0,b,1.0,1.025478291001491,,,,,,,,,,6.0,5.0,77.0,2.0,309.0477430409992,,,,,,,,,,,,,,,,,309.0381694579992,309.8361284160019,310.63380362500175,310.6202750000012,,,,,,,,,,,,,,,,,,,,,,,,,,,,,,,,,,,310.6249806250016,310.63380362500175,310.63380362500175,311.6615530410017,b,1.0,1.025478291001491,,,,,,sub-128,1,stroop_test,121.18549712532888,
,,,,78.0,6.0,6.0,,,,,,,,,,,,,gelb,blue,b,0.0,b,1.0,0.6254174999994575,,,,,,,,,,6.0,6.0,78.0,9.0,311.6706979160008,,,,,,,,,,,,,,,,,311.6621634580006,311.7592330830012,312.55611837499964,312.54300012500244,,,,,,,,,,,,,,,,,,,,,,,,,,,,,,,,,,,312.5484453329991,312.55611837499964,312.55611837499964,313.1879411250011,b,1.0,0.6254174999994575,,,,,,sub-128,1,stroop_test,121.18549712532888,
,,,,79.0,7.0,6.0,,,,,,,,,,,,,rot,red,r,1.0,r,1.0,0.8594747499992081,,,,,,,,,,6.0,7.0,79.0,0.0,313.19646962499974,,,,,,,,,,,,,,,,,313.188478125001,313.9857034580018,314.7826022500012,314.7694908750018,,,,,,,,,,,,,,,,,,,,,,,,,,,,,,,,,,,314.77414820800186,314.7826022500012,314.7826022500012,315.64442124999914,r,1.0,0.8594747499992081,,,,,,sub-128,1,stroop_test,121.18549712532888,
,,,,80.0,8.0,6.0,,,,,,,,,,,,,gelb,yellow,g,1.0,g,1.0,0.8080182080011582,,,,,,,,,,6.0,8.0,80.0,10.0,315.66894554100145,,,,,,,,,,,,,,,,,315.6448679999994,315.7431884159996,316.5390665000013,316.52644775000226,,,,,,,,,,,,,,,,,,,,,,,,,,,,,,,,,,,316.5306024999991,316.5390665000013,316.5390665000013,317.3547816249993,g,1.0,0.8080182080011582,,,,,,sub-128,1,stroop_test,121.18549712532888,
,,,,81.0,9.0,6.0,,,,,,,,,,,,,gelb,red,r,0.0,r,1.0,0.8586477919998288,,,,,,,,,,6.0,9.0,81.0,8.0,317.3646485410027,,,,,,,,,,,,,,,,,317.3554565830018,318.1530097499999,318.9447862500019,318.9362794160006,,,,,,,,,,,,,,,,,,,,,,,,,,,,,,,,,,,318.93700100000206,318.9447862500019,318.9447862500019,319.8157742500007,r,1.0,0.8586477919998288,,,,,,sub-128,1,stroop_test,121.18549712532888,
,,,,82.0,10.0,6.0,,,,,,,,,,,,,rot,red,r,1.0,r,1.0,0.4789367080011288,,,,,,,,,,6.0,10.0,82.0,1.0,319.82101183300256,,,,,,,,,,,,,,,,,319.81617175000065,320.61074324999936,321.4175658749991,321.40364583300106,,,,,,,,,,,,,,,,,,,,,,,,,,,,,,,,,,,321.40886220800166,321.4175658749991,321.4175658749991,321.9048862080017,r,1.0,0.4789367080011288,,,,,,sub-128,1,stroop_test,121.18549712532888,
,,,,83.0,11.0,6.0,,,,,,,,,,,,,rot,yellow,g,0.0,g,1.0,1.234948291999899,,,,,,,,,,6.0,11.0,83.0,3.0,321.9155284160006,,,,,,,,,,,,,,,,,321.9056335000023,323.1028513750025,323.9018130830009,323.8925590409999,,,,,,,,,,,,,,,,,,,,,,,,,,,,,,,,,,,323.8932190830019,323.9018130830009,323.9018130830009,325.15149958300026,g,1.0,1.234948291999899,,,,,,sub-128,1,stroop_test,121.18549712532888,
,,,,84.0,0.0,7.0,,,,,,,,,,,,,gelb,yellow,g,1.0,g,1.0,0.4852561250008875,,,,,,,,,,7.0,0.0,84.0,11.0,325.1571135000013,,,,,,,,,,,,,,,,,325.1520170830008,325.94285950000267,326.7399012499991,326.7277958750019,,,,,,,,,,,,,,,,,,,,,,,,,,,,,,,,,,,326.73187125000186,326.7399012499991,326.7399012499991,327.2279929159995,g,1.0,0.4852561250008875,,,,,,sub-128,1,stroop_test,121.18549712532888,
,,,,85.0,1.0,7.0,,,,,,,,,,,,,gelb,red,r,0.0,r,1.0,1.0737172920016749,,,,,,,,,,7.0,1.0,85.0,8.0,327.23777750000227,,,,,,,,,,,,,,,,,327.2284095409996,328.42624325,329.2192429579991,329.2104073750015,,,,,,,,,,,,,,,,,,,,,,,,,,,,,,,,,,,329.2110542500013,329.2192429579991,329.2192429579991,330.3051369160021,r,1.0,1.0737172920016749,,,,,,sub-128,1,stroop_test,121.18549712532888,
,,,,86.0,2.0,7.0,,,,,,,,,,,,,gelb,blue,b,0.0,b,1.0,0.5866167080021114,,,,,,,,,,7.0,2.0,86.0,9.0,330.3167292500002,,,,,,,,,,,,,,,,,330.3060039580014,331.5025726250024,332.2957344999995,332.28677641600007,,,,,,,,,,,,,,,,,,,,,,,,,,,,,,,,,,,332.2876263750004,332.2957344999995,332.2957344999995,332.8882157500011,b,1.0,0.5866167080021114,,,,,,sub-128,1,stroop_test,121.18549712532888,
,,,,87.0,3.0,7.0,,,,,,,,,,,,,blau,red,r,0.0,r,1.0,0.7699955829993996,,,,,,,,,,7.0,3.0,87.0,4.0,332.8979225830008,,,,,,,,,,,,,,,,,332.888909958001,333.68619270800264,334.483550541001,334.4702684160002,,,,,,,,,,,,,,,,,,,,,,,,,,,,,,,,,,,334.47529312500046,334.483550541001,334.483550541001,335.26651895800023,r,1.0,0.7699955829993996,,,,,,sub-128,1,stroop_test,121.18549712532888,
,,,,88.0,4.0,7.0,,,,,,,,,,,,,blau,blue,b,1.0,b,1.0,1.7122487500018906,,,,,,,,,,7.0,4.0,88.0,5.0,335.27103137499944,,,,,,,,,,,,,,,,,335.2669130409995,336.0592914580011,336.8511835410027,336.84296741599974,,,,,,,,,,,,,,,,,,,,,,,,,,,,,,,,,,,336.8436075410027,336.8511835410027,336.8511835410027,338.57100133300264,b,1.0,1.7122487500018906,,,,,,sub-128,1,stroop_test,121.18549712532888,
,,,,89.0,5.0,7.0,,,,,,,,,,,,,blau,blue,b,1.0,b,1.0,0.6733574579993729,,,,,,,,,,7.0,5.0,89.0,6.0,338.57934000000023,,,,,,,,,,,,,,,,,338.57139854100024,339.7694412500023,340.56280637500095,340.5537801249993,,,,,,,,,,,,,,,,,,,,,,,,,,,,,,,,,,,340.55463175000114,340.56280637500095,340.56280637500095,341.2384826250018,b,1.0,0.6733574579993729,,,,,,sub-128,1,stroop_test,121.18549712532888,
,,,,90.0,6.0,7.0,,,,,,,,,,,,,gelb,yellow,g,1.0,g,1.0,0.8315758329990786,,,,,,,,,,7.0,6.0,90.0,10.0,341.2479362080012,,,,,,,,,,,,,,,,,341.239229791001,342.03614087499955,342.8347914160004,342.8202125829994,,,,,,,,,,,,,,,,,,,,,,,,,,,,,,,,,,,342.8265906660017,342.8347914160004,342.8347914160004,343.6714683329992,g,1.0,0.8315758329990786,,,,,,sub-128,1,stroop_test,121.18549712532888,
,,,,91.0,7.0,7.0,,,,,,,,,,,,,rot,red,r,1.0,r,1.0,0.3786835829996562,,,,,,,,,,7.0,7.0,91.0,1.0,343.68092395799977,,,,,,,,,,,,,,,,,343.6721406659999,344.8685326660016,345.6665205410027,345.6535178330014,,,,,,,,,,,,,,,,,,,,,,,,,,,,,,,,,,,345.65794291600105,345.6665205410027,345.6665205410027,346.05340562499987,r,1.0,0.3786835829996562,,,,,,sub-128,1,stroop_test,121.18549712532888,
,,,,92.0,8.0,7.0,,,,,,,,,,,,,blau,yellow,g,0.0,b,0.0,0.8667210000021441,,,,,,,,,,7.0,8.0,92.0,7.0,346.0616576659995,,,,,,,,,,,,,,,,,346.0538310410011,346.8440356249994,347.6498947910004,347.6367605000014,,,,,,,,,,,,,,,,,,,,,,,,,,,,,,,,,,,347.64135683300265,347.6498947910004,347.6498947910004,348.5206193330014,b,0.0,0.8667210000021441,,,,,,sub-128,1,stroop_test,121.18549712532888,
,,,,93.0,9.0,7.0,,,,,,,,,,,,,rot,yellow,g,0.0,g,1.0,0.9694670409990068,,,,,,,,,,7.0,9.0,93.0,3.0,348.5292636250015,,,,,,,,,,,,,,,,,348.5211677080006,348.61944437499915,349.41589454100176,349.4029780830024,,,,,,,,,,,,,,,,,,,,,,,,,,,,,,,,,,,349.4073943330004,349.41589454100176,349.41589454100176,350.387933500002,g,1.0,0.9694670409990068,,,,,,sub-128,1,stroop_test,121.18549712532888,
,,,,94.0,10.0,7.0,,,,,,,,,,,,,rot,blue,b,0.0,b,1.0,0.9373833749996264,,,,,,,,,,7.0,10.0,94.0,2.0,350.3970629159994,,,,,,,,,,,,,,,,,350.38856837500134,350.486054666002,351.2786190000006,351.2702228750022,,,,,,,,,,,,,,,,,,,,,,,,,,,,,,,,,,,351.2709169580012,351.2786190000006,351.2786190000006,352.2220635830017,b,1.0,0.9373833749996264,,,,,,sub-128,1,stroop_test,121.18549712532888,
,,,,95.0,11.0,7.0,,,,,,,,,,,,,rot,red,r,1.0,r,1.0,0.5179948340010014,,,,,,,,,,7.0,11.0,95.0,0.0,352.2327307910018,,,,,,,,,,,,,,,,,352.22269433300244,353.41901312499976,354.2131064580026,354.2036510830003,,,,,,,,,,,,,,,,,,,,,,,,,,,,,,,,,,,354.20452383299926,354.2131064580026,354.2131064580026,354.73808054099936,r,1.0,0.5179948340010014,,,,,,sub-128,1,stroop_test,121.18549712532888,
,,,,96.0,0.0,8.0,,,,,,,,,,,,,blau,blue,b,1.0,b,1.0,0.8022829580004327,,,,,,,,,,8.0,0.0,96.0,5.0,354.7469612080022,,,,,,,,,,,,,,,,,354.7387112910001,354.8360996250012,355.633425041,355.620269416002,,,,,,,,,,,,,,,,,,,,,,,,,,,,,,,,,,,355.6248449160012,355.633425041,355.633425041,356.43830787499974,b,1.0,0.8022829580004327,,,,,,sub-128,1,stroop_test,121.18549712532888,
,,,,97.0,1.0,8.0,,,,,,,,,,,,,rot,blue,b,0.0,b,1.0,1.1124181669983957,,,,,,,,,,8.0,1.0,97.0,2.0,356.4467629160026,,,,,,,,,,,,,,,,,356.4389383750022,357.63556900000185,358.434241166,358.42040441599966,,,,,,,,,,,,,,,,,,,,,,,,,,,,,,,,,,,358.42557795800167,358.434241166,358.434241166,359.5550693330006,b,1.0,1.1124181669983957,,,,,,sub-128,1,stroop_test,121.18549712532888,
,,,,98.0,2.0,8.0,,,,,,,,,,,,,blau,blue,b,1.0,b,1.0,0.5366253749998577,,,,,,,,,,8.0,2.0,98.0,6.0,359.5669772910005,,,,,,,,,,,,,,,,,359.5558520830018,359.90265295800054,360.699519875001,360.6867891660004,,,,,,,,,,,,,,,,,,,,,,,,,,,,,,,,,,,360.6912655410015,360.699519875001,360.699519875001,361.2383316660016,b,1.0,0.5366253749998577,,,,,,sub-128,1,stroop_test,121.18549712532888,
,,,,99.0,3.0,8.0,,,,,,,,,,,,,gelb,yellow,g,1.0,g,1.0,0.6484935000007681,,,,,,,,,,8.0,3.0,99.0,10.0,361.247367791002,,,,,,,,,,,,,,,,,361.23901000000114,362.4360374160024,363.23091045800174,363.2196196660007,,,,,,,,,,,,,,,,,,,,,,,,,,,,,,,,,,,363.2245695830025,363.23091045800174,363.23091045800174,363.8875171660002,g,1.0,0.6484935000007681,,,,,,sub-128,1,stroop_test,121.18549712532888,
,,,,100.0,4.0,8.0,,,,,,,,,,,,,blau,yellow,g,0.0,g,1.0,0.7242996669992863,,,,,,,,,,8.0,4.0,100.0,7.0,363.8969322500016,,,,,,,,,,,,,,,,,363.887946791001,365.0853278750001,365.8790617910017,365.8691176249995,,,,,,,,,,,,,,,,,,,,,,,,,,,,,,,,,,,365.8726009999991,365.8790617910017,365.8790617910017,366.60998437500166,g,1.0,0.7242996669992863,,,,,,sub-128,1,stroop_test,121.18549712532888,
,,,,101.0,5.0,8.0,,,,,,,,,,,,,gelb,blue,b,0.0,b,1.0,1.022756291000405,,,,,,,,,,8.0,5.0,101.0,9.0,366.6183920000003,,,,,,,,,,,,,,,,,366.610498541002,366.7084295829991,367.50207245800266,367.4923979580017,,,,,,,,,,,,,,,,,,,,,,,,,,,,,,,,,,,367.4953540410024,367.50207245800266,367.50207245800266,368.5279198749995,b,1.0,1.022756291000405,,,,,,sub-128,1,stroop_test,121.18549712532888,
,,,,102.0,6.0,8.0,,,,,,,,,,,,,rot,yellow,g,0.0,g,1.0,0.9646492080028112,,,,,,,,,,8.0,6.0,102.0,3.0,368.5377436660019,,,,,,,,,,,,,,,,,368.5284403750011,368.8769260410008,369.67221000000063,369.660366125001,,,,,,,,,,,,,,,,,,,,,,,,,,,,,,,,,,,369.66431750000265,369.67221000000063,369.67221000000063,370.6496917080003,g,1.0,0.9646492080028112,,,,,,sub-128,1,stroop_test,121.18549712532888,
,,,,103.0,7.0,8.0,,,,,,,,,,,,,gelb,yellow,g,1.0,g,1.0,0.623162207997666,,,,,,,,,,8.0,7.0,103.0,11.0,370.65413400000034,,,,,,,,,,,,,,,,,370.6500541660025,371.8432854999992,372.6489632910016,372.6360672080009,,,,,,,,,,,,,,,,,,,,,,,,,,,,,,,,,,,372.6404947080009,372.6489632910016,372.6489632910016,373.2775414579992,g,1.0,0.623162207997666,,,,,,sub-128,1,stroop_test,121.18549712532888,
,,,,104.0,8.0,8.0,,,,,,,,,,,,,gelb,red,r,0.0,r,1.0,0.5682258750020992,,,,,,,,,,8.0,8.0,104.0,8.0,373.28745212500144,,,,,,,,,,,,,,,,,373.2780559160019,374.0767796660002,374.8691462080024,374.8603510409994,,,,,,,,,,,,,,,,,,,,,,,,,,,,,,,,,,,374.8610588330012,374.8691462080024,374.8691462080024,375.4413291660021,r,1.0,0.5682258750020992,,,,,,sub-128,1,stroop_test,121.18549712532888,
,,,,105.0,9.0,8.0,,,,,,,,,,,,,blau,red,r,0.0,r,1.0,0.6190378329993109,,,,,,,,,,8.0,9.0,105.0,4.0,375.451889041,,,,,,,,,,,,,,,,,375.4420896250013,376.6357803329993,377.4333860830011,377.4200795830002,,,,,,,,,,,,,,,,,,,,,,,,,,,,,,,,,,,377.4247056250024,377.4333860830011,377.4333860830011,378.0554239580015,r,1.0,0.6190378329993109,,,,,,sub-128,1,stroop_test,121.18549712532888,
,,,,106.0,10.0,8.0,,,,,,,,,,,,,rot,red,r,1.0,r,1.0,0.5050254999987374,,,,,,,,,,8.0,10.0,106.0,1.0,378.0682955000011,,,,,,,,,,,,,,,,,378.0562637500007,378.1528511659999,378.9505694159998,378.93692083300266,,,,,,,,,,,,,,,,,,,,,,,,,,,,,,,,,,,378.9419569999991,378.9505694159998,378.9505694159998,379.4609095830019,r,1.0,0.5050254999987374,,,,,,sub-128,1,stroop_test,121.18549712532888,
,,,,107.0,11.0,8.0,,,,,,,,,,,,,rot,red,r,1.0,r,1.0,0.5028902500016557,,,,,,,,,,8.0,11.0,107.0,0.0,379.4739273330015,,,,,,,,,,,,,,,,,379.4615380830001,380.6598999580019,381.4516210410002,381.4432718749995,,,,,,,,,,,,,,,,,,,,,,,,,,,,,,,,,,,381.44394699999975,381.4516210410002,381.4516210410002,381.9615587080007,r,1.0,0.5028902500016557,,,,,,sub-128,1,stroop_test,121.18549712532888,
,,,,108.0,0.0,9.0,,,,,,,,,,,,,rot,yellow,g,0.0,g,1.0,1.668631083000946,,,,,,,,,,9.0,0.0,108.0,3.0,381.97379999999976,,,,,,,,,,,,,,,,,381.962123958001,382.3099850830004,383.1015331250019,383.0932523750016,,,,,,,,,,,,,,,,,,,,,,,,,,,,,,,,,,,383.0939158330002,383.1015331250019,383.1015331250019,384.7747720830012,g,1.0,1.668631083000946,,,,,,sub-128,1,stroop_test,121.18549712532888,
,,,,109.0,1.0,9.0,,,,,,,,,,,,,blau,yellow,g,0.0,g,1.0,0.5768533330010541,,,,,,,,,,9.0,1.0,109.0,7.0,384.8039767080009,,,,,,,,,,,,,,,,,384.7756343750007,385.56866745799925,386.3680896250007,386.3535509159992,,,,,,,,,,,,,,,,,,,,,,,,,,,,,,,,,,,386.3595729160006,386.3680896250007,386.3680896250007,386.9475129160018,g,1.0,0.5768533330010541,,,,,,sub-128,1,stroop_test,121.18549712532888,
,,,,110.0,2.0,9.0,,,,,,,,,,,,,blau,blue,b,1.0,b,1.0,0.9709446669985482,,,,,,,,,,9.0,2.0,110.0,5.0,386.9590700830013,,,,,,,,,,,,,,,,,386.9480803750012,387.04620370799967,387.8459055000021,387.8368833749992,,,,,,,,,,,,,,,,,,,,,,,,,,,,,,,,,,,387.837756500001,387.8459055000021,387.8459055000021,388.8214227080025,b,1.0,0.9709446669985482,,,,,,sub-128,1,stroop_test,121.18549712532888,
,,,,111.0,3.0,9.0,,,,,,,,,,,,,gelb,blue,b,0.0,b,1.0,0.7871071250010573,,,,,,,,,,9.0,3.0,111.0,9.0,388.8311479580007,,,,,,,,,,,,,,,,,388.8221165409996,390.0191695829999,390.8163003750015,390.8033028329992,,,,,,,,,,,,,,,,,,,,,,,,,,,,,,,,,,,390.8079921659992,390.8163003750015,390.8163003750015,391.6145716659994,b,1.0,0.7871071250010573,,,,,,sub-128,1,stroop_test,121.18549712532888,
,,,,112.0,4.0,9.0,,,,,,,,,,,,,blau,red,r,0.0,r,1.0,0.7593488340025942,,,,,,,,,,9.0,4.0,112.0,4.0,391.62070333299926,,,,,,,,,,,,,,,,,391.6149903330006,391.9598412910018,392.7555971660004,392.7432055829995,,,,,,,,,,,,,,,,,,,,,,,,,,,,,,,,,,,392.7472959580009,392.7555971660004,392.7555971660004,393.5211759160011,r,1.0,0.7593488340025942,,,,,,sub-128,1,stroop_test,121.18549712532888,
,,,,113.0,5.0,9.0,,,,,,,,,,,,,rot,red,r,1.0,r,1.0,0.4857098339998629,,,,,,,,,,9.0,5.0,113.0,1.0,393.5303665829997,,,,,,,,,,,,,,,,,393.5217901249998,394.3184194999994,395.1171905830015,395.1029842909993,,,,,,,,,,,,,,,,,,,,,,,,,,,,,,,,,,,395.1077881250021,395.1171905830015,395.1171905830015,395.60555450000174,r,1.0,0.4857098339998629,,,,,,sub-128,1,stroop_test,121.18549712532888,
,,,,114.0,6.0,9.0,,,,,,,,,,,,,blau,blue,b,1.0,b,1.0,0.7270078340006876,,,,,,,,,,9.0,6.0,114.0,6.0,395.6169104159999,,,,,,,,,,,,,,,,,395.6063952080003,396.401947958002,397.19959291600026,397.1867219580017,,,,,,,,,,,,,,,,,,,,,,,,,,,,,,,,,,,397.1912972909995,397.19959291600026,397.19959291600026,397.93742195800223,b,1.0,0.7270078340006876,,,,,,sub-128,1,stroop_test,121.18549712532888,
,,,,115.0,7.0,9.0,,,,,,,,,,,,,gelb,red,r,0.0,r,1.0,0.7041749170020921,,,,,,,,,,9.0,7.0,115.0,8.0,397.9462945000014,,,,,,,,,,,,,,,,,397.9378497910002,398.0359870829998,398.8318459580005,398.8201160410026,,,,,,,,,,,,,,,,,,,,,,,,,,,,,,,,,,,398.824112833001,398.8318459580005,398.8318459580005,399.5380842080013,r,1.0,0.7041749170020921,,,,,,sub-128,1,stroop_test,121.18549712532888,
,,,,116.0,8.0,9.0,,,,,,,,,,,,,gelb,yellow,g,1.0,g,1.0,0.5950885839993134,,,,,,,,,,9.0,8.0,116.0,11.0,399.547200625002,,,,,,,,,,,,,,,,,399.5386142909993,399.8860326249997,400.6787060000024,400.670107416001,,,,,,,,,,,,,,,,,,,,,,,,,,,,,,,,,,,400.6707950830023,400.6787060000024,400.6787060000024,401.2767612080024,g,1.0,0.5950885839993134,,,,,,sub-128,1,stroop_test,121.18549712532888,
,,,,117.0,9.0,9.0,,,,,,,,,,,,,gelb,yellow,g,1.0,g,1.0,0.4748984580000979,,,,,,,,,,9.0,9.0,117.0,10.0,401.2851066660005,,,,,,,,,,,,,,,,,401.27729112499946,401.6264554580012,402.41908183300256,402.41052800000034,,,,,,,,,,,,,,,,,,,,,,,,,,,,,,,,,,,402.411201916002,402.41908183300256,402.41908183300256,402.9044744160019,g,1.0,0.4748984580000979,,,,,,sub-128,1,stroop_test,121.18549712532888,
,,,,118.0,10.0,9.0,,,,,,,,,,,,,rot,blue,b,0.0,b,1.0,0.7915316250000615,,,,,,,,,,9.0,10.0,118.0,2.0,402.9134516660015,,,,,,,,,,,,,,,,,402.90500158299983,403.0025900410001,403.8012540830023,403.7867704580021,,,,,,,,,,,,,,,,,,,,,,,,,,,,,,,,,,,403.7927067500023,403.8012540830023,403.8012540830023,404.5949788750004,b,1.0,0.7915316250000615,,,,,,sub-128,1,stroop_test,121.18549712532888,
,,,,119.0,11.0,9.0,,,,,,,,,,,,,rot,red,r,1.0,r,1.0,0.567850332998205,,,,,,,,,,9.0,11.0,119.0,0.0,404.60466183300014,,,,,,,,,,,,,,,,,404.5955447080014,405.39292512500106,406.1847056250008,406.176396875002,,,,,,,,,,,,,,,,,,,,,,,,,,,,,,,,,,,406.1770557910022,406.1847056250008,406.1847056250008,406.754917000002,r,1.0,0.567850332998205,,,,,,sub-128,1,stroop_test,121.18549712532888,
,,,,,,,,,,,,,,,,,,,,,,,,,,,,,,,,,,,,,,,,,,,,,,,,,,,,,,,,,,,,,,,,,,,,,,,,,,,,,,,,,,,,,,,,,,,,,,,,,,,,,,406.755209166,406.7653272499993,411.7574473749992,411.7526361660021,sub-128,1,stroop_test,121.18549712532888,
