direction,corrAns,randomInstr,practice_trials.thisRepN,practice_trials.thisTrialN,practice_trials.thisN,practice_trials.thisIndex,instr_trials.thisRepN,instr_trials.thisTrialN,instr_trials.thisN,instr_trials.thisIndex,test_trials.thisRepN,test_trials.thisTrialN,test_trials.thisN,test_trials.thisIndex,thisRow.t,notes,general_instruction.started,textGeneralInstr.started,respGeneralInstr.started,general_instruction.stopped,respGeneralInstr.keys,respGeneralInstr.rt,respGeneralInstr.duration,ITI.started,fixcross.started,fixcross.stopped,ITI.stopped,dots.started,backgroundDots.started,stimulusDots.started,respDots.started,dots.stopped,respDots.keys,respDots.corr,respDots.rt,respDots.duration,feedback.started,textFeedback.started,feedback.stopped,stimulusDots.stopped,textFeedback.stopped,info.started,textInfo.started,keyRespInfo.started,info.stopped,keyRespInfo.keys,keyRespInfo.rt,keyRespInfo.duration,test_instruction.started,textTestInstr.started,respTestInstr.started,test_instruction.stopped,respTestInstr.keys,respTestInstr.rt,respTestInstr.duration,random_instruction.started,textRandomInstr.started,respRandomInstr.started,random_instruction.stopped,respRandomInstr.keys,respRandomInstr.rt,respRandomInstr.duration,goodbye.started,textGoodbye.started,goodbye.stopped,participant,session,expName,frameRate,Unnamed: 73
,,,,,,,,,,,,,,,,,0.0069650000000365,0.0244805000000383,0.0244805000000383,113.54835640000005,space,139.438091,,,,,,,,,,,,,,,,,,,,,,,,,,,,,,,,,,,,,,,,,,,,sub-029,2.0,random_dot,60.04974520893384,
left,left,,0.0,0.0,0.0,0.0,,,,,,,,,113.6306864,,,,,,,,,113.61947550000002,114.75580480000002,115.5637383,115.54257190000004,115.54265580000003,115.5637383,115.5637383,115.5637383,119.17950000000002,left,1.0,29.531998199999972,,119.18185390000002,119.22946260000003,119.69035210000004,,,,,,,,,,,,,,,,,,,,,,,,,,,sub-029,2.0,random_dot,60.04974520893384,
right,right,,0.0,1.0,1.0,1.0,,,,,,,,,119.70718880000004,,,,,,,,,119.6916177,120.8902908,121.69379930000002,121.674804,121.67486310000004,121.69379930000002,121.69379930000002,121.69379930000002,125.1702745,right,1.0,29.39512249999996,,125.1718649,125.1855673,125.6736869,,,,,,,,,,,,,,,,,,,,,,,,,,,sub-029,2.0,random_dot,60.04974520893384,
right,right,,1.0,0.0,2.0,1.0,,,,,,,,,125.69004160000004,,,,,,,,,125.67483020000005,126.8723453,127.6761399,127.6579822,127.65804050000004,127.6761399,127.6761399,127.6761399,130.63637320000004,right,1.0,28.87414979999994,,130.63809930000002,130.6513225,131.1403055,,,,,,,,,,,,,,,,,,,,,,,,,,,sub-029,2.0,random_dot,60.04974520893384,
left,left,,1.0,1.0,3.0,0.0,,,,,,,,,131.15653380000003,,,,,,,,,131.14153270000003,132.34016310000004,133.14320280000004,133.12451930000003,133.12457840000002,133.14320280000004,133.14320280000004,133.14320280000004,137.00240990000003,right,0.0,29.78268349999996,,137.0040449,137.03868640000002,137.5069793,,,,,,,,,,,,,,,,,,,,,,,,,,,sub-029,2.0,random_dot,60.04974520893384,
right,right,,2.0,0.0,4.0,1.0,,,,,,,,,137.52308800000003,,,,,,,,,137.5081169,138.3067557,139.1100821,139.0911362,139.09119530000004,139.1100821,139.1100821,139.1100821,141.4204133,left,0.0,28.218249799999967,,141.422006,141.43531570000005,141.92349000000002,,,,,,,,,,,,,,,,,,,,,,,,,,,sub-029,2.0,random_dot,60.04974520893384,
left,left,,2.0,1.0,5.0,0.0,,,,,,,,,141.93968,,,,,,,,,141.9247143,143.12302620000003,143.9266354,143.9081104,143.9081701,143.9266354,143.9266354,143.9266354,146.8000374,right,0.0,28.78812769999996,,146.80259030000002,146.815782,147.3065833,,,,,,,,,,,,,,,,,,,,,,,,,,,sub-029,2.0,random_dot,60.04974520893384,
left,left,,3.0,0.0,6.0,0.0,,,,,,,,,147.3228694,,,,,,,,,147.3078173,147.65636010000003,148.4602992,148.44121080000002,148.4412658,148.4602992,148.4602992,148.4602992,152.3470648,left,1.0,29.80518139999998,,152.34858250000002,152.37123150000002,152.8565797,,,,,,,,,,,,,,,,,,,,,,,,,,,sub-029,2.0,random_dot,60.04974520893384,
right,right,,3.0,1.0,7.0,1.0,,,,,,,,,152.872972,,,,,,,,,152.85778850000003,153.6562847,154.45966550000003,154.44116630000002,154.44122480000004,154.45966550000003,154.45966550000003,154.45966550000003,158.28669590000004,left,0.0,29.747663499999987,,158.28820010000004,158.3114789,158.7897757,,,,,,,,,,,,,,,,,,,,,,,,,,,sub-029,2.0,random_dot,60.04974520893384,
right,right,,4.0,0.0,8.0,1.0,,,,,,,,,158.8061465,,,,,,,,,158.7909619,159.989332,160.79251370000003,160.77411770000003,160.7741785,160.79251370000003,160.79251370000003,160.79251370000003,164.83576580000005,right,1.0,29.960991899999957,,164.8375411,164.85976450000004,165.33973480000003,,,,,,,,,,,,,,,,,,,,,,,,,,,sub-029,2.0,random_dot,60.04974520893384,
left,left,,4.0,1.0,9.0,0.0,,,,,,,,,165.35592380000003,,,,,,,,,165.34095050000002,166.139405,166.94277770000002,166.9239855,166.92404550000003,166.94277770000002,166.94277770000002,166.94277770000002,171.6026021,right,0.0,30.57616749999994,,171.60462900000005,171.6269929,172.10625780000004,,,,,,,,,,,,,,,,,,,,,,,,,,,sub-029,2.0,random_dot,60.04974520893384,
right,right,,5.0,0.0,10.0,1.0,,,,,,,,,172.12260450000002,,,,,,,,,172.10745180000004,172.45574770000002,173.25955720000002,173.24067260000004,173.2407308,173.25955720000002,173.25955720000002,173.25955720000002,192.72333410000005,left,0.0,45.38277979999998,,192.7243437,192.7384501,193.2226696,178.2566906,193.23830930000003,,,,,,,,,,,,,,,,,,,,,,,,,sub-029,2.0,random_dot,60.04974520893384,
left,left,,5.0,1.0,11.0,0.0,,,,,,,,,193.23830930000003,,,,,,,,,193.22340860000003,194.03829610000005,194.8385248,194.82261570000003,194.82265570000004,194.8385248,194.8385248,194.8385248,199.2630256,left,1.0,30.349125200000003,,199.26451280000003,199.28836820000004,199.7722751,,,,,,,,,,,,,,,,,,,,,,,,,,,sub-029,2.0,random_dot,60.04974520893384,
right,right,,6.0,0.0,12.0,1.0,,,,,,,,,199.7887746,,,,,,,,,199.7735376,200.57213090000005,201.37569970000004,201.3571803,201.3572392,201.37569970000004,201.37569970000004,201.37569970000004,204.42330100000004,right,1.0,28.960424299999943,,204.42430380000008,204.4380959,204.92245720000005,,204.93809180000005,,,,,,,,,,,,,,,,,,,,,,,,,sub-029,2.0,random_dot,60.04974520893384,
left,left,,6.0,1.0,13.0,0.0,,,,,,,,,204.93809180000005,,,,,,,,,204.9231945,206.13804430000005,206.93836770000007,206.92239070000005,206.9224309,206.93836770000007,206.93836770000007,206.93836770000007,210.3064237,right,0.0,29.29196810000002,,210.30742610000004,210.326859,210.82152630000007,,,,,,,,,,,,,,,,,,,,,,,,,,,sub-029,2.0,random_dot,60.04974520893384,
right,right,,7.0,0.0,14.0,1.0,,,,,,,,,210.83802550000007,,,,,,,,,210.8223273,211.621435,212.42161440000007,212.4056932,212.40573400000005,212.42161440000007,212.42161440000007,212.42161440000007,215.6397847000001,left,0.0,29.134241199999963,,215.64078040000004,215.6548214000001,216.13894490000007,,216.1545811,,,,,,,,,,,,,,,,,,,,,,,,,sub-029,2.0,random_dot,60.04974520893384,
left,left,,7.0,1.0,15.0,0.0,,,,,,,,,216.1545811,,,,,,,,,216.13965900000005,216.95464720000007,217.7549022000001,217.7389627,217.7390174,217.7549022000001,217.7549022000001,217.7549022000001,223.0894495,left,1.0,31.246411099999875,,223.0904352,223.1095011,223.6047413,222.75442080000005,,,,,,,,,,,,,,,,,,,,,,,,,,sub-029,2.0,random_dot,60.04974520893384,
left,left,,8.0,0.0,16.0,0.0,,,,,,,,,223.62107660000004,,,,,,,,,223.6055518000001,224.40442900000005,225.20464860000004,225.18871380000007,225.18875390000005,225.20464860000004,225.20464860000004,225.20464860000004,227.6895816,left,1.0,28.39603419999997,,227.6905808,227.7043338,228.18881320000003,,228.2043453,,,,,,,,,,,,,,,,,,,,,,,,,sub-029,2.0,random_dot,60.04974520893384,
right,right,,8.0,1.0,17.0,1.0,,,,,,,,,228.2043453,,,,,,,,,228.18952160000003,228.55431250000004,229.3546177000001,229.33868270000005,229.3387235,229.3546177000001,229.3546177000001,229.3546177000001,232.52288570000007,right,1.0,29.09270989999999,,232.5239008,232.53789200000008,233.02195360000007,,233.03761710000003,,,,,,,,,,,,,,,,,,,,,,,,,sub-029,2.0,random_dot,60.04974520893384,
right,right,,9.0,0.0,18.0,1.0,,,,,,,,,233.03761710000003,,,,,,,,,233.0226837,233.8375654,234.63797350000004,234.6220314,234.6220717,234.63797350000004,234.63797350000004,234.63797350000004,236.2225641,right,1.0,27.50270180000001,,236.22355100000004,236.23760130000005,236.72197630000005,,236.73755530000005,,,,,,,,,,,,,,,,,,,,,,,,,sub-029,2.0,random_dot,60.04974520893384,
left,left,,9.0,1.0,19.0,0.0,,,,,,,,,236.73755530000005,,,,,,,,,236.72270560000004,237.5376195,238.3380152,238.3219085000001,238.32195680000007,238.3380152,238.3380152,238.3380152,240.1058588,left,1.0,27.688071899999898,,240.1068629,240.12094520000005,240.6052532,,240.6207827000001,,,,,,,,,,,,,,,,,,,,,,,,,sub-029,2.0,random_dot,60.04974520893384,
,,,,,,,,,,,,,,,,,,,,,,,,,,,,,,,,,,,,,,,,,,240.6053694,240.6207827000001,240.6207827000001,248.5890022,space,33.87909129999997,,,,,,,,,,,,,,,,,,,sub-029,2.0,random_dot,60.04974520893384,
,,,,,,,,,,,,,,,,,,,,,,,,,,,,,,,,,,,,,,,,,,,,,,,,,248.58907440000007,248.6039783,248.6039783,264.72209340000006,space,42.03905139999989,,,,,,,,,,,,sub-029,2.0,random_dot,60.04974520893384,
right,right,speed,,,,,0.0,0.0,0.0,1.0,0.0,0.0,0.0,1.0,272.6152238,,,,,,,,,272.60534730000006,273.403631,274.20391870000003,274.18790580000007,274.18794950000006,274.20391870000003,274.20391870000003,274.20391870000003,275.6220187,left,0.0,27.338772099999854,,,,,,,,,,,,,,,,,,,,,264.7511141,264.80816390000007,264.80816390000007,272.5889056,space,33.695207299999936,,,,,sub-029,2.0,random_dot,60.04974520893384,
left,left,speed,,,,,0.0,0.0,0.0,1.0,0.0,1.0,1.0,0.0,275.6368648,,,,,,,,,275.6246291,276.43691780000006,277.2372336,277.2212333,277.2212747,277.2372336,277.2372336,277.2372336,279.234917,right,0.0,27.91759929999995,,,,,,,,,,,,,,,,,,,,,,,,,,,,,,,sub-029,2.0,random_dot,60.04974520893384,
left,left,speed,,,,,0.0,0.0,0.0,1.0,1.0,0.0,2.0,0.0,279.24835070000006,,,,,,,,,279.23793420000004,280.43726820000006,281.23716590000004,281.2211493,281.22118940000007,281.23716590000004,281.23716590000004,281.23716590000004,282.6289598000001,left,1.0,27.30270589999992,,,,,,,,,,,,,,,,,,,,,,,,,,,,,,,sub-029,2.0,random_dot,60.04974520893384,
right,right,speed,,,,,0.0,0.0,0.0,1.0,1.0,1.0,3.0,1.0,282.6534931,,,,,,,,,282.6320789,282.9872034,283.7905893,283.77218690000007,283.77225670000007,283.7905893,283.7905893,283.7905893,285.6113018,right,1.0,27.743599499999902,,,,,,,,,,,,,,,,,,,,,,,,,,,,,,,sub-029,2.0,random_dot,60.04974520893384,
left,left,speed,,,,,0.0,0.0,0.0,1.0,2.0,0.0,4.0,0.0,285.62539260000005,,,,,,,,,285.6143108,285.72064510000007,286.52375470000004,286.5053812,286.50544,286.52375470000004,286.52375470000004,286.52375470000004,287.7110394,left,1.0,27.10237239999998,,,,,,,,,,,,,,,,,,,,,,,,,,,,,,,sub-029,2.0,random_dot,60.04974520893384,
right,right,speed,,,,,0.0,0.0,0.0,1.0,2.0,1.0,5.0,1.0,287.7368491,,,,,,,,,287.7140168,288.92062280000005,289.7240826,289.70548140000005,289.70554230000005,289.7240826,289.7240826,289.7240826,291.8872443,left,0.0,28.08059959999997,,,,,,,,,,,,,,,,,,,,,,,,,,,,,,,sub-029,2.0,random_dot,60.04974520893384,
right,right,speed,,,,,0.0,0.0,0.0,1.0,3.0,0.0,6.0,1.0,291.90288,,,,,,,,,291.88845920000006,292.0028596,292.8028881,292.7868707,292.7868952,292.8028881,292.8028881,292.8028881,294.1968593,right,1.0,27.31779229999989,,,,,,,,,,,,,,,,,,,,,,,,,,,,,,,sub-029,2.0,random_dot,60.04974520893384,
left,left,speed,,,,,0.0,0.0,0.0,1.0,3.0,1.0,7.0,0.0,294.21204290000003,,,,,,,,,294.20125600000006,295.40411100000006,296.2081902,296.1887571,296.188816,296.2081902,296.2081902,296.2081902,297.4019221,left,1.0,27.107007899999928,,,,,,,,,,,,,,,,,,,,,,,,,,,,,,,sub-029,2.0,random_dot,60.04974520893384,
left,left,speed,,,,,0.0,0.0,0.0,1.0,4.0,0.0,8.0,0.0,297.41609930000004,,,,,,,,,297.4060653,298.62041250000004,299.4251428,299.40619060000006,299.4062494,299.4251428,299.4251428,299.4251428,300.8675271000001,right,0.0,27.363076199999966,,,,,,,,,,,,,,,,,,,,,,,,,,,,,,,sub-029,2.0,random_dot,60.04974520893384,
right,right,speed,,,,,0.0,0.0,0.0,1.0,4.0,1.0,9.0,1.0,300.8839121,,,,,,,,,300.872429,301.6701981,302.4737917,302.455338,302.4553963000001,302.4737917,302.4737917,302.4737917,303.9115511,right,1.0,27.34979100000004,,,,,,,,,,,,,,,,,,,,,,,,,,,,,,,sub-029,2.0,random_dot,60.04974520893384,
left,left,speed,,,,,0.0,0.0,0.0,1.0,5.0,0.0,10.0,0.0,303.92537630000004,,,,,,,,,303.9147626,304.0201757,304.8234003,304.8051353000001,304.8051947,304.8234003,304.8234003,304.8234003,306.0032295,left,1.0,27.091689299999928,,,,,,,,,,,,,,,,,,,,,,,,,,,,,,,sub-029,2.0,random_dot,60.04974520893384,
right,right,speed,,,,,0.0,0.0,0.0,1.0,5.0,1.0,11.0,1.0,306.0190183,,,,,,,,,306.0043557,306.80362890000004,307.6192771,307.6032764,307.6033013,307.6192771,307.6192771,307.6192771,308.9038547,right,1.0,27.21076879999993,,,,,,,,,,,,,,,,,,,,,,,,,,,,,,,sub-029,2.0,random_dot,60.04974520893384,
right,right,speed,,,,,0.0,0.0,0.0,1.0,6.0,0.0,12.0,1.0,308.9192497,,,,,,,,,308.9051214,309.7201911,310.5233717,310.5051013,310.5051599,310.5233717,310.5233717,310.5233717,311.7149398,right,1.0,27.109232299999974,,,,,,,,,,,,,,,,,,,,,,,,,,,,,,,sub-029,2.0,random_dot,60.04974520893384,
left,left,speed,,,,,0.0,0.0,0.0,1.0,6.0,1.0,13.0,0.0,311.72875280000005,,,,,,,,,311.7182258,311.8203068,312.61906020000004,312.60338580000007,312.6034068,312.61906020000004,312.61906020000004,312.61906020000004,313.6036361,left,1.0,26.896219999999914,,,,,,,,,,,,,,,,,,,,,,,,,,,,,,,sub-029,2.0,random_dot,60.04974520893384,
right,right,speed,,,,,0.0,0.0,0.0,1.0,7.0,0.0,14.0,1.0,313.6192113000001,,,,,,,,,313.60479280000004,314.4191637,315.21918730000004,315.2032796,315.2033044,315.21918730000004,315.21918730000004,315.21918730000004,316.23686380000004,right,1.0,26.93069829999996,,,,,,,,,,,,,,,,,,,,,,,,,,,,,,,sub-029,2.0,random_dot,60.04974520893384,
left,left,speed,,,,,0.0,0.0,0.0,1.0,7.0,1.0,15.0,0.0,316.2524839,,,,,,,,,316.23809800000004,316.60305100000005,317.40285360000007,317.3870961,317.387126,317.40285360000007,317.40285360000007,317.40285360000007,318.269993,left,1.0,26.778858800000023,,,,,,,,,,,,,,,,,,,,,,,,,,,,,,,sub-029,2.0,random_dot,60.04974520893384,
right,right,speed,,,,,0.0,0.0,0.0,1.0,8.0,0.0,16.0,1.0,318.2856031,,,,,,,,,318.2709396,319.07083880000005,319.88546700000006,319.86931830000003,319.8693363,319.88546700000006,319.88546700000006,319.88546700000006,320.95441370000003,left,0.0,26.993192699999952,,,,,,,,,,,,,,,,,,,,,,,,,,,,,,,sub-029,2.0,random_dot,60.04974520893384,
left,left,speed,,,,,0.0,0.0,0.0,1.0,8.0,1.0,17.0,0.0,320.9695134,,,,,,,,,320.9569326000001,321.31940370000007,322.11902050000003,322.1026178,322.1026353,322.11902050000003,322.11902050000003,322.11902050000003,323.97038810000004,left,1.0,27.77780849999993,,,,,,,,,,,,,,,,,,,,,,,,,,,,,,,sub-029,2.0,random_dot,60.04974520893384,
right,right,speed,,,,,0.0,0.0,0.0,1.0,9.0,0.0,18.0,1.0,323.9856857,,,,,,,,,323.97155900000007,324.33568550000007,325.1386600000001,325.12092870000004,325.12097660000006,325.1386600000001,325.1386600000001,325.1386600000001,326.30399840000007,right,1.0,27.071036900000024,,,,,,,,,,,,,,,,,,,,,,,,,,,,,,,sub-029,2.0,random_dot,60.04974520893384,
left,left,speed,,,,,0.0,0.0,0.0,1.0,9.0,1.0,19.0,0.0,326.31957910000006,,,,,,,,,326.306415,327.1195536,327.92079590000003,327.9040775,327.9041258,327.92079590000003,327.92079590000003,327.92079590000003,328.9908888,left,1.0,26.994606799999985,,,,,,,,,,,,,,,,,,,,,,,,,,,,,,,sub-029,2.0,random_dot,60.04974520893384,
left,left,speed,,,,,0.0,0.0,0.0,1.0,10.0,0.0,20.0,0.0,329.0053045,,,,,,,,,328.99328230000003,329.3528745,330.1539921,330.1374221,330.13746950000007,330.1539921,330.1539921,330.1539921,331.0605123,left,1.0,26.818229699999904,,,,,,,,,,,,,,,,,,,,,,,,,,,,,,,sub-029,2.0,random_dot,60.04974520893384,
right,right,speed,,,,,0.0,0.0,0.0,1.0,10.0,1.0,21.0,1.0,331.0851751,,,,,,,,,331.06370790000005,331.41946530000007,332.22076720000007,332.20408050000003,332.20413240000005,332.22076720000007,332.22076720000007,332.22076720000007,333.37112950000005,right,1.0,27.07472200000001,,,,,,,,,,,,,,,,,,,,,,,,,,,,,,,sub-029,2.0,random_dot,60.04974520893384,
right,right,speed,,,,,0.0,0.0,0.0,1.0,11.0,0.0,22.0,1.0,333.3866842,,,,,,,,,333.37408890000006,334.5861029,335.3871740000001,335.3706618,335.3707094,335.3871740000001,335.3871740000001,335.3871740000001,336.6107564,right,1.0,27.144917199999952,,,,,,,,,,,,,,,,,,,,,,,,,,,,,,,sub-029,2.0,random_dot,60.04974520893384,
left,left,speed,,,,,0.0,0.0,0.0,1.0,11.0,1.0,23.0,0.0,336.6352297,,,,,,,,,336.61314490000007,336.71947020000005,337.5206611,337.5039369,337.5039845,337.5206611,337.5206611,337.5206611,338.4105161,left,1.0,26.806531399999983,,,,,,,,,,,,,,,,,,,,,,,,,,,,,,,sub-029,2.0,random_dot,60.04974520893384,
left,left,speed,,,,,0.0,0.0,0.0,1.0,12.0,0.0,24.0,0.0,338.43504540000004,,,,,,,,,338.4129461,338.51932710000005,339.3205978,339.3038464,339.30389390000005,339.3205978,339.3205978,339.3205978,340.49280710000005,left,1.0,27.09064900000004,,,,,,,,,,,,,,,,,,,,,,,,,,,,,,,sub-029,2.0,random_dot,60.04974520893384,
right,right,speed,,,,,0.0,0.0,0.0,1.0,12.0,1.0,25.0,1.0,340.5073695,,,,,,,,,340.4952356,340.8527898,341.65403620000006,341.63726930000007,341.6373165,341.65403620000006,341.65403620000006,341.65403620000006,343.1896765,right,1.0,27.449579999999912,,,,,,,,,,,,,,,,,,,,,,,,,,,,,,,sub-029,2.0,random_dot,60.04974520893384,
right,right,speed,,,,,0.0,0.0,0.0,1.0,13.0,0.0,26.0,1.0,343.20352260000004,,,,,,,,,343.19204320000006,343.3025941,344.10379090000004,344.0871541,344.0872019,344.10379090000004,344.10379090000004,344.10379090000004,347.2882225000001,left,0.0,29.110183999999947,,,,,,,,,,,,,,,,,,,,,,,,,,,,,,,sub-029,2.0,random_dot,60.04974520893384,
left,left,speed,,,,,0.0,0.0,0.0,1.0,13.0,1.0,27.0,0.0,347.3029229,,,,,,,,,347.2906303,348.50253380000004,349.30359640000006,349.2868688,349.2869164,349.30359640000006,349.30359640000006,349.30359640000006,352.176785,left,1.0,28.7833751,,,,,,,,,,,,,,,,,,,,,,,,,,,,,,,sub-029,2.0,random_dot,60.04974520893384,
left,left,speed,,,,,0.0,0.0,0.0,1.0,14.0,0.0,28.0,0.0,352.19099730000005,,,,,,,,,352.17923930000006,352.9857903,353.7870313,353.7702753,353.7703253,353.7870313,353.7870313,353.7870313,356.15494910000007,right,0.0,28.27794799999998,,,,,,,,,,,,,,,,,,,,,,,,,,,,,,,sub-029,2.0,random_dot,60.04974520893384,
right,right,speed,,,,,0.0,0.0,0.0,1.0,14.0,1.0,29.0,1.0,356.1692925,,,,,,,,,356.15734210000005,356.2690771,357.0703874000001,357.0537012,357.05375130000004,357.0703874000001,357.0703874000001,357.0703874000001,357.9254164,right,1.0,26.77332539999992,,,,,,,,,,,,,,,,,,,,,,,,,,,,,,,sub-029,2.0,random_dot,60.04974520893384,
right,right,speed,,,,,0.0,0.0,0.0,1.0,15.0,0.0,30.0,1.0,357.93987930000003,,,,,,,,,357.9278561,359.13558610000007,359.9369594,359.92036440000004,359.9204122,359.9369594,359.9369594,359.9369594,360.8914002,right,1.0,26.86703529999994,,,,,,,,,,,,,,,,,,,,,,,,,,,,,,,sub-029,2.0,random_dot,60.04974520893384,
left,left,speed,,,,,0.0,0.0,0.0,1.0,15.0,1.0,31.0,0.0,360.905335,,,,,,,,,360.8938365,361.252396,362.05355040000006,362.036925,362.0369722,362.05355040000006,362.05355040000006,362.05355040000006,363.0043748000001,left,1.0,26.870429,,,,,,,,,,,,,,,,,,,,,,,,,,,,,,,sub-029,2.0,random_dot,60.04974520893384,
left,left,speed,,,,,0.0,0.0,0.0,1.0,16.0,0.0,32.0,0.0,363.019171,,,,,,,,,363.0067603,363.8189572,364.6201926,364.6034184,364.6034656000001,364.6201926,364.6201926,364.6201926,365.5767733,left,1.0,26.88188319999989,,,,,,,,,,,,,,,,,,,,,,,,,,,,,,,sub-029,2.0,random_dot,60.04974520893384,
right,right,speed,,,,,0.0,0.0,0.0,1.0,16.0,1.0,33.0,1.0,365.6013760000001,,,,,,,,,365.5792054,366.3854656,367.1868312,367.17016250000006,367.1702101,367.1868312,367.1868312,367.1868312,368.227076,right,1.0,26.95695140000004,,,,,,,,,,,,,,,,,,,,,,,,,,,,,,,sub-029,2.0,random_dot,60.04974520893384,
right,right,speed,,,,,0.0,0.0,0.0,1.0,17.0,0.0,34.0,1.0,368.2514015,,,,,,,,,368.2294432,369.0354943,369.8365947,369.82001550000007,369.8200636,369.8365947,369.8365947,369.8365947,371.653585,left,0.0,27.73644050000001,,,,,,,,,,,,,,,,,,,,,,,,,,,,,,,sub-029,2.0,random_dot,60.04974520893384,
left,left,speed,,,,,0.0,0.0,0.0,1.0,17.0,1.0,35.0,0.0,371.6688712,,,,,,,,,371.65596460000006,372.4687742,373.269961,373.2531926,373.2532834,373.269961,373.269961,373.269961,374.2558048,left,1.0,26.895657199999903,,,,,,,,,,,,,,,,,,,,,,,,,,,,,,,sub-029,2.0,random_dot,60.04974520893384,
left,left,speed,,,,,0.0,0.0,0.0,1.0,18.0,0.0,36.0,0.0,374.269735,,,,,,,,,374.258238,374.6188157,375.4201604,375.40331390000006,375.40336090000005,375.4201604,375.4201604,375.4201604,376.9091172,right,0.0,27.401186299999893,,,,,,,,,,,,,,,,,,,,,,,,,,,,,,,sub-029,2.0,random_dot,60.04974520893384,
right,right,speed,,,,,0.0,0.0,0.0,1.0,18.0,1.0,37.0,1.0,376.9233946000001,,,,,,,,,376.91176270000005,378.11871900000006,378.9197065000001,378.9030906,378.9031383,378.9197065000001,378.9197065000001,378.9197065000001,380.0926031,right,1.0,27.08396009999996,,,,,,,,,,,,,,,,,,,,,,,,,,,,,,,sub-029,2.0,random_dot,60.04974520893384,
left,left,speed,,,,,0.0,0.0,0.0,1.0,19.0,0.0,38.0,0.0,380.1068209,,,,,,,,,380.0950203,380.2019978000001,381.003232,380.9865084000001,380.9865559,381.003232,381.003232,381.003232,382.2764921,right,0.0,27.190453999999875,,,,,,,,,,,,,,,,,,,,,,,,,,,,,,,sub-029,2.0,random_dot,60.04974520893384,
right,right,speed,,,,,0.0,0.0,0.0,1.0,19.0,1.0,39.0,1.0,382.3010432,,,,,,,,,382.27886710000007,383.0851922000001,383.8866801,383.8697999,383.8698515,383.8866801,383.8866801,383.8866801,386.0911051000001,right,1.0,28.124486399999967,,,,,,,,,,,,,,,,,,,,,,,,,,,,,,,sub-029,2.0,random_dot,60.04974520893384,
left,left,speed,,,,,0.0,0.0,0.0,1.0,20.0,0.0,40.0,0.0,386.1057155,,,,,,,,,386.09351720000006,386.9018816,387.70343020000007,387.6864096000001,387.6864579000001,387.70343020000007,387.70343020000007,387.70343020000007,388.4401243,left,1.0,26.66029580000003,,,,,,,,,,,,,,,,,,,,,,,,,,,,,,,sub-029,2.0,random_dot,60.04974520893384,
right,right,speed,,,,,0.0,0.0,0.0,1.0,20.0,1.0,41.0,1.0,388.454523,,,,,,,,,388.44251070000007,388.8018551,389.6030256,389.58635090000007,389.5864018,389.6030256,389.6030256,389.6030256,390.5223491,right,1.0,26.83563750000002,,,,,,,,,,,,,,,,,,,,,,,,,,,,,,,sub-029,2.0,random_dot,60.04974520893384,
left,left,speed,,,,,0.0,0.0,0.0,1.0,21.0,0.0,42.0,0.0,390.5377128,,,,,,,,,390.5253645,390.8852588,391.6864739,391.6696850000001,391.6697332,391.6864739,391.6864739,391.6864739,392.7427523,left,1.0,26.96632600000004,,,,,,,,,,,,,,,,,,,,,,,,,,,,,,,sub-029,2.0,random_dot,60.04974520893384,
right,right,speed,,,,,0.0,0.0,0.0,1.0,21.0,1.0,43.0,1.0,392.7566593,,,,,,,,,392.74514970000007,393.9517691,394.7529529,394.73623800000007,394.7362863000001,394.7529529,394.7529529,394.7529529,395.48726510000006,right,1.0,26.65929890000001,,,,,,,,,,,,,,,,,,,,,,,,,,,,,,,sub-029,2.0,random_dot,60.04974520893384,
right,right,speed,,,,,0.0,0.0,0.0,1.0,22.0,0.0,44.0,1.0,395.5022686,,,,,,,,,395.4896494,396.7016194,397.5030484,397.4862835,397.4863368,397.5030484,397.5030484,397.5030484,398.4092234,right,1.0,26.8207683,,,,,,,,,,,,,,,,,,,,,,,,,,,,,,,sub-029,2.0,random_dot,60.04974520893384,
left,left,speed,,,,,0.0,0.0,0.0,1.0,22.0,1.0,45.0,0.0,398.4234941,,,,,,,,,398.41175740000006,399.6183202,400.4197212,400.4029301000001,400.4029789,400.4197212,400.4197212,400.4197212,401.776213,left,1.0,27.27461360000001,,,,,,,,,,,,,,,,,,,,,,,,,,,,,,,sub-029,2.0,random_dot,60.04974520893384,
right,right,speed,,,,,0.0,0.0,0.0,1.0,23.0,0.0,46.0,1.0,401.80069850000007,,,,,,,,,401.7786556,401.8849798,402.6864455,402.6696217,402.6696714,402.6864455,402.6864455,402.6864455,404.9474225,right,1.0,28.18133969999991,,,,,,,,,,,,,,,,,,,,,,,,,,,,,,,sub-029,2.0,random_dot,60.04974520893384,
left,left,speed,,,,,0.0,0.0,0.0,1.0,23.0,1.0,47.0,0.0,404.9621287,,,,,,,,,404.951598,405.3018504,406.1050745,406.0866489,406.086708,406.1050745,406.1050745,406.1050745,409.304498,right,0.0,29.11507309999996,,,,,,,,,,,,,,,,,,,,,,,,,,,,,,,sub-029,2.0,random_dot,60.04974520893384,
right,right,speed,,,,,0.0,0.0,0.0,1.0,24.0,0.0,48.0,1.0,409.3202244,,,,,,,,,409.3075395000001,410.11840530000006,410.9215626,410.9033087,410.9033673,410.9215626,410.9215626,410.9215626,412.0873423000001,right,1.0,27.075812799999937,,,,,,,,,,,,,,,,,,,,,,,,,,,,,,,sub-029,2.0,random_dot,60.04974520893384,
left,left,speed,,,,,0.0,0.0,0.0,1.0,24.0,1.0,49.0,0.0,412.1023597,,,,,,,,,412.09029770000006,413.3018301000001,414.1046067,414.0864710000001,414.0865373,414.1046067,414.1046067,414.1046067,414.8465562,left,1.0,26.663424200000065,,,,,,,,,,,,,,,,,,,,,,,,,,,,,,,sub-029,2.0,random_dot,60.04974520893384,
left,left,speed,,,,,0.0,0.0,0.0,1.0,25.0,0.0,50.0,0.0,414.8612709,,,,,,,,,414.85062990000006,415.65178950000006,416.4549027000001,416.4366714,416.4367304,416.4549027000001,416.4549027000001,416.4549027000001,418.5621529,left,1.0,28.02028000000001,,,,,,,,,,,,,,,,,,,,,,,,,,,,,,,sub-029,2.0,random_dot,60.04974520893384,
right,right,speed,,,,,0.0,0.0,0.0,1.0,25.0,1.0,51.0,1.0,418.5758679000001,,,,,,,,,418.5659812,419.3683111,420.1717148,420.1532995,420.15335890000006,420.1717148,420.1717148,420.1717148,421.08246600000007,right,1.0,26.820805099999973,,,,,,,,,,,,,,,,,,,,,,,,,,,,,,,sub-029,2.0,random_dot,60.04974520893384,
left,left,speed,,,,,0.0,0.0,0.0,1.0,26.0,0.0,52.0,0.0,421.1016683,,,,,,,,,421.085514,421.8849114,422.6882927,422.6699277,422.669987,422.6882927,422.6882927,422.6882927,423.9364366,left,1.0,27.170783299999982,,,,,,,,,,,,,,,,,,,,,,,,,,,,,,,sub-029,2.0,random_dot,60.04974520893384,
right,right,speed,,,,,0.0,0.0,0.0,1.0,26.0,1.0,53.0,1.0,423.9521058,,,,,,,,,423.93997450000006,424.3012922,425.1047577000001,425.0865995,425.0866604,425.1047577000001,425.1047577000001,425.1047577000001,426.3366035,right,1.0,27.14307339999988,,,,,,,,,,,,,,,,,,,,,,,,,,,,,,,sub-029,2.0,random_dot,60.04974520893384,
right,right,speed,,,,,0.0,0.0,0.0,1.0,27.0,0.0,54.0,1.0,426.3517685000001,,,,,,,,,426.33964420000007,427.1514887000001,427.9548343,427.9362593000001,427.9363183,427.9548343,427.9548343,427.9548343,428.76680210000006,right,1.0,26.72691949999995,,,,,,,,,,,,,,,,,,,,,,,,,,,,,,,sub-029,2.0,random_dot,60.04974520893384,
left,left,speed,,,,,0.0,0.0,0.0,1.0,27.0,1.0,55.0,0.0,428.7848101000001,,,,,,,,,428.7697471,428.8680662,429.67123950000007,429.6528356,429.6528951,429.67123950000007,429.67123950000007,429.67123950000007,430.4449241,left,1.0,26.68668580000002,,,,,,,,,,,,,,,,,,,,,,,,,,,,,,,sub-029,2.0,random_dot,60.04974520893384,
left,left,speed,,,,,0.0,0.0,0.0,1.0,28.0,0.0,56.0,0.0,430.45872600000007,,,,,,,,,430.4486726,431.2515999,432.0546421,432.0364259,432.0364837,432.0546421,432.0546421,432.0546421,434.2789384,left,1.0,28.146358499999963,,,,,,,,,,,,,,,,,,,,,,,,,,,,,,,sub-029,2.0,random_dot,60.04974520893384,
right,right,speed,,,,,0.0,0.0,0.0,1.0,28.0,1.0,57.0,1.0,434.292997,,,,,,,,,434.28234670000006,434.6346561,435.4382745,435.41992890000006,435.4199851,435.4382745,435.4382745,435.4382745,436.0586452,right,1.0,26.542790599999933,,,,,,,,,,,,,,,,,,,,,,,,,,,,,,,sub-029,2.0,random_dot,60.04974520893384,
right,right,speed,,,,,0.0,0.0,0.0,1.0,29.0,0.0,58.0,1.0,436.0727759,,,,,,,,,436.0619917,437.2679595000001,438.071462,438.0530214,438.0531054000001,438.071462,438.071462,438.071462,439.3979579000001,right,1.0,27.248802300000023,,,,,,,,,,,,,,,,,,,,,,,,,,,,,,,sub-029,2.0,random_dot,60.04974520893384,
left,left,speed,,,,,0.0,0.0,0.0,1.0,29.0,1.0,59.0,0.0,439.4116008,,,,,,,,,439.4011616,439.75117710000006,440.55506420000006,440.5362914,440.5363492,440.55506420000006,440.55506420000006,440.55506420000006,441.3060573,left,1.0,26.665551499999932,,,,,,,,,,,,,,,,,,,,,,,,,,,,,,,sub-029,2.0,random_dot,60.04974520893384,
,,speed,,,,,0.0,0.0,0.0,1.0,,,,,,,,,,,,,,,,,,,,,,,,,,,,,,,,,,,,,,,,,,,,,,,,,,,,,,,,sub-029,2.0,random_dot,60.04974520893384,
left,left,accuracy,,,,,0.0,1.0,1.0,0.0,0.0,0.0,0.0,0.0,453.3384108,,,,,,,,,453.32799050000006,453.41787110000007,454.22133070000007,454.2028976,454.2029614000001,454.22133070000007,454.22133070000007,454.22133070000007,459.4878526,left,1.0,31.185300100000006,,,,,459.2171326,,,,,,,,,,,,,,,,441.3092524,441.345059,441.345059,453.3043124000001,space,37.87270949999999,,,,,sub-029,2.0,random_dot,60.04974520893384,
right,right,accuracy,,,,,0.0,1.0,1.0,0.0,0.0,1.0,1.0,1.0,459.5043757,,,,,,,,,459.49176740000007,460.3010641,461.1039729,461.0857468,461.0858197,461.1039729,461.1039729,461.1039729,463.0444483,right,1.0,27.862849399999902,,,,,,,,,,,,,,,,,,,,,,,,,,,,,,,sub-029,2.0,random_dot,60.04974520893384,
left,left,accuracy,,,,,0.0,1.0,1.0,0.0,1.0,0.0,2.0,0.0,463.05862350000007,,,,,,,,,463.0480295,463.1508314,463.9540555,463.93576300000007,463.9358211,463.9540555,463.9540555,463.9540555,466.1614090000001,right,0.0,28.13144949999986,,,,,,,,,,,,,,,,,,,,,,,,,,,,,,,sub-029,2.0,random_dot,60.04974520893384,
right,right,accuracy,,,,,0.0,1.0,1.0,0.0,1.0,1.0,3.0,1.0,466.1767767,,,,,,,,,466.1660896,466.2676831,467.07061940000006,467.0525133,467.0525721,467.07061940000006,467.07061940000006,467.07061940000006,469.2138745,right,1.0,28.052757799999934,,,,,,,,,,,,,,,,,,,,,,,,,,,,,,,sub-029,2.0,random_dot,60.04974520893384,
right,right,accuracy,,,,,0.0,1.0,1.0,0.0,2.0,0.0,4.0,1.0,469.2275539,,,,,,,,,469.2177286,469.3173646,470.1208321,470.1023220000001,470.1023824,470.1208321,470.1208321,470.1208321,473.22204210000007,left,0.0,29.007911899999897,,,,,,,,,,,,,,,,,,,,,,,,,,,,,,,sub-029,2.0,random_dot,60.04974520893384,
left,left,accuracy,,,,,0.0,1.0,1.0,0.0,2.0,1.0,5.0,0.0,473.2371897,,,,,,,,,473.2250599,474.0339701,474.8371198,474.8187772,474.81883890000006,474.8371198,474.8371198,474.8371198,476.2731986,left,1.0,27.343956699999865,,,,,,,,,,,,,,,,,,,,,,,,,,,,,,,sub-029,2.0,random_dot,60.04974520893384,
left,left,accuracy,,,,,0.0,1.0,1.0,0.0,3.0,0.0,6.0,0.0,476.2881621,,,,,,,,,476.2761872,477.4839074,478.2872986,478.2688879,478.26896280000005,478.2872986,478.2872986,478.2872986,479.55927170000007,left,1.0,27.19597069999992,,,,,,,,,,,,,,,,,,,,,,,,,,,,,,,sub-029,2.0,random_dot,60.04974520893384,
right,right,accuracy,,,,,0.0,1.0,1.0,0.0,3.0,1.0,7.0,1.0,479.57300640000005,,,,,,,,,479.5623643,479.9171808,480.7202747,480.7020315,480.7020919,480.7202747,480.7202747,480.7202747,486.0537676,left,0.0,31.25702859999996,,,,,485.7173153,,,,,,,,,,,,,,,,,,,,,,,,,,sub-029,2.0,random_dot,60.04974520893384,
right,right,accuracy,,,,,0.0,1.0,1.0,0.0,4.0,0.0,8.0,1.0,486.0699018,,,,,,,,,486.0571857,487.2673029,488.0700123,488.0518721,488.05193340000005,488.0700123,488.0700123,488.0700123,488.8101368,right,1.0,26.664454899999896,,,,,,,,,,,,,,,,,,,,,,,,,,,,,,,sub-029,2.0,random_dot,60.04974520893384,
left,left,accuracy,,,,,0.0,1.0,1.0,0.0,4.0,1.0,9.0,0.0,488.825279,,,,,,,,,488.8146468,488.9171479,489.720278,489.7019567,489.7020168,489.720278,489.720278,489.720278,492.389078,right,0.0,28.57907079999984,,,,,,,,,,,,,,,,,,,,,,,,,,,,,,,sub-029,2.0,random_dot,60.04974520893384,
left,left,accuracy,,,,,0.0,1.0,1.0,0.0,5.0,0.0,10.0,0.0,492.4040348,,,,,,,,,492.3920379,492.7506439,493.5534789000001,493.5351111,493.5351725,493.5534789000001,493.5534789000001,493.5534789000001,494.57733600000006,right,0.0,26.938973699999902,,,,,,,,,,,,,,,,,,,,,,,,,,,,,,,sub-029,2.0,random_dot,60.04974520893384,
right,right,accuracy,,,,,0.0,1.0,1.0,0.0,5.0,1.0,11.0,1.0,494.59186940000006,,,,,,,,,494.5819168,494.6836052,495.4875902,495.4685960000001,495.4686549000001,495.4875902,495.4875902,495.4875902,499.0993655,right,1.0,29.5245546000001,,,,,,,,,,,,,,,,,,,,,,,,,,,,,,,sub-029,2.0,random_dot,60.04974520893384,
left,left,accuracy,,,,,0.0,1.0,1.0,0.0,6.0,0.0,12.0,0.0,499.1172557,,,,,,,,,499.10232500000006,499.46702790000006,500.2701894000001,500.2519859,500.25204500000007,500.2701894000001,500.2701894000001,500.2701894000001,501.84387090000007,left,1.0,27.48354130000007,,,,,,,,,,,,,,,,,,,,,,,,,,,,,,,sub-029,2.0,random_dot,60.04974520893384,
right,right,accuracy,,,,,0.0,1.0,1.0,0.0,6.0,1.0,13.0,1.0,501.8581894,,,,,,,,,501.8481879,501.9501232,502.75361140000007,502.7351336,502.7351922,502.75361140000007,502.75361140000007,502.75361140000007,504.2170588,left,0.0,27.385553099999925,,,,,,,,,,,,,,,,,,,,,,,,,,,,,,,sub-029,2.0,random_dot,60.04974520893384,
left,left,accuracy,,,,,0.0,1.0,1.0,0.0,7.0,0.0,14.0,0.0,504.23259700000006,,,,,,,,,504.2181855,505.4325255,506.2368016,506.2184328000001,506.2185002,506.2368016,506.2368016,506.2368016,509.16015490000007,left,1.0,28.832935700000007,,,,,,,,,,,,,,,,,,,,,,,,,,,,,,,sub-029,2.0,random_dot,60.04974520893384,
right,right,accuracy,,,,,0.0,1.0,1.0,0.0,7.0,1.0,15.0,1.0,509.1746553,,,,,,,,,509.1647999000001,510.3666815,511.1700501,511.1516784,511.151737,511.1700501,511.1700501,511.1700501,513.359086,right,1.0,28.10494799999981,,,,,,,,,,,,,,,,,,,,,,,,,,,,,,,sub-029,2.0,random_dot,60.04974520893384,
left,left,accuracy,,,,,0.0,1.0,1.0,0.0,8.0,0.0,16.0,0.0,513.3740928,,,,,,,,,513.3633994,514.5665866,515.3700818,515.3516937,515.3517523,515.3700818,515.3700818,515.3700818,518.6645570000001,right,0.0,29.21232950000001,,,,,,,,,,,,,,,,,,,,,,,,,,,,,,,sub-029,2.0,random_dot,60.04974520893384,
right,right,accuracy,,,,,0.0,1.0,1.0,0.0,8.0,1.0,17.0,1.0,518.6779333000001,,,,,,,,,518.6675036,519.4668725,520.2697806,520.2515294,520.2515889,520.2697806,520.2697806,520.2697806,523.0442442,left,0.0,28.698614599999928,,,,,,,,,,,,,,,,,,,,,,,,,,,,,,,sub-029,2.0,random_dot,60.04974520893384,
left,left,accuracy,,,,,0.0,1.0,1.0,0.0,9.0,0.0,18.0,0.0,523.0589648,,,,,,,,,523.0485065,524.2498432,525.053284,525.0349568,525.0350161,525.053284,525.053284,525.053284,530.403042,left,1.0,31.272237899999936,,,,,530.0492757000001,,,,,,,,,,,,,,,,,,,,,,,,,,sub-029,2.0,random_dot,60.04974520893384,
right,right,accuracy,,,,,0.0,1.0,1.0,0.0,9.0,1.0,19.0,1.0,530.4187077,,,,,,,,,530.405987,531.2162694,532.0197216,532.0011051,532.0011645000001,532.0197216,532.0197216,532.0197216,535.9509862,left,0.0,29.83832329999996,,,,,,,,,,,,,,,,,,,,,,,,,,,,,,,sub-029,2.0,random_dot,60.04974520893384,
right,right,accuracy,,,,,0.0,1.0,1.0,0.0,10.0,0.0,20.0,1.0,535.9661289000001,,,,,,,,,535.95393,536.7663983,537.5698274,537.5511874,537.5512475,537.5698274,537.5698274,537.5698274,542.6027262,right,1.0,30.948953599999868,,,,,542.5654152000001,,,,,,,,,,,,,,,,,,,,,,,,,,sub-029,2.0,random_dot,60.04974520893384,
left,left,accuracy,,,,,0.0,1.0,1.0,0.0,10.0,1.0,21.0,0.0,542.6186807,,,,,,,,,542.6060817,543.4161087,544.2199914,544.2009975,544.2010823,544.2199914,544.2199914,544.2199914,546.3713211,right,0.0,28.072064999999952,,,,,,,,,,,,,,,,,,,,,,,,,,,,,,,sub-029,2.0,random_dot,60.04974520893384,
right,right,accuracy,,,,,0.0,1.0,1.0,0.0,11.0,0.0,22.0,1.0,546.3871455,,,,,,,,,546.3743542,547.1829797,547.9859126,547.9675581,547.9676163,547.9859126,547.9859126,547.9859126,549.0756775,right,1.0,27.01359019999984,,,,,,,,,,,,,,,,,,,,,,,,,,,,,,,sub-029,2.0,random_dot,60.04974520893384,
left,left,accuracy,,,,,0.0,1.0,1.0,0.0,11.0,1.0,23.0,0.0,549.0907061,,,,,,,,,549.0800133,549.8827565,550.6859614,550.6674698,550.6675372,550.6859614,550.6859614,550.6859614,554.1136543,left,1.0,29.351820999999973,,,,,,,,,,,,,,,,,,,,,,,,,,,,,,,sub-029,2.0,random_dot,60.04974520893384,
left,left,accuracy,,,,,0.0,1.0,1.0,0.0,12.0,0.0,24.0,0.0,554.1271295,,,,,,,,,554.1166685000001,554.4659498,555.2694942,555.2509056,555.2509639,555.2694942,555.2694942,555.2694942,557.3405229,left,1.0,27.982465199999865,,,,,,,,,,,,,,,,,,,,,,,,,,,,,,,sub-029,2.0,random_dot,60.04974520893384,
right,right,accuracy,,,,,0.0,1.0,1.0,0.0,12.0,1.0,25.0,1.0,557.3654746,,,,,,,,,557.3435806,557.6993988,558.5027211,558.4840391,558.4840977,558.5027211,558.5027211,558.5027211,561.3744282,left,0.0,28.7856837999999,,,,,,,,,,,,,,,,,,,,,,,,,,,,,,,sub-029,2.0,random_dot,60.04974520893384,
left,left,accuracy,,,,,0.0,1.0,1.0,0.0,13.0,0.0,26.0,0.0,561.3875166,,,,,,,,,561.37751,561.4824818000001,562.2860124,562.2676314,562.2676899,562.2860124,562.2860124,562.2860124,565.274224,left,1.0,28.90524749999986,,,,,,,,,,,,,,,,,,,,,,,,,,,,,,,sub-029,2.0,random_dot,60.04974520893384,
right,right,accuracy,,,,,0.0,1.0,1.0,0.0,13.0,1.0,27.0,1.0,565.2888575000001,,,,,,,,,565.2778707,565.6323792000001,566.4356993,566.4171761,566.4172358000001,566.4356993,566.4356993,566.4356993,574.1024633000001,left,0.0,33.58735909999996,,,,,571.4317859,,,,,,,,,,,,,,,,,,,,,,,,,,sub-029,2.0,random_dot,60.04974520893384,
right,right,accuracy,,,,,0.0,1.0,1.0,0.0,14.0,0.0,28.0,1.0,574.1181584,,,,,,,,,574.1054946,575.3157227,576.1193074,576.1008132000001,576.1008719,576.1193074,576.1193074,576.1193074,580.5585771,right,1.0,30.359557199999813,,,,,,,,,,,,,,,,,,,,,,,,,,,,,,,sub-029,2.0,random_dot,60.04974520893384,
left,left,accuracy,,,,,0.0,1.0,1.0,0.0,14.0,1.0,29.0,0.0,580.5738597000001,,,,,,,,,580.5631337,580.9159223,581.7190512,581.7005574,581.7006173,581.7190512,581.7190512,581.7190512,586.1294443,left,1.0,30.328524300000023,,,,,,,,,,,,,,,,,,,,,,,,,,,,,,,sub-029,2.0,random_dot,60.04974520893384,
left,left,accuracy,,,,,0.0,1.0,1.0,0.0,15.0,0.0,30.0,0.0,586.1432148,,,,,,,,,586.1325397,586.4822633,587.2856234,587.2672158,587.2672762,587.2856234,587.2856234,587.2856234,590.7132735,left,1.0,29.34167950000005,,,,,,,,,,,,,,,,,,,,,,,,,,,,,,,sub-029,2.0,random_dot,60.04974520893384,
right,right,accuracy,,,,,0.0,1.0,1.0,0.0,15.0,1.0,31.0,1.0,590.7321537,,,,,,,,,590.7162264,591.9156613,592.7188309000001,592.7003972,592.700457,592.7188309000001,592.7188309000001,592.7188309000001,594.871826,right,1.0,28.07577409999988,,,,,,,,,,,,,,,,,,,,,,,,,,,,,,,sub-029,2.0,random_dot,60.04974520893384,
left,left,accuracy,,,,,0.0,1.0,1.0,0.0,16.0,0.0,32.0,0.0,594.8869045,,,,,,,,,594.8747584,594.9822276,595.7854401000001,595.7667048000001,595.7667636,595.7854401000001,595.7854401000001,595.7854401000001,600.1426025000001,left,1.0,30.274778300000094,,,,,,,,,,,,,,,,,,,,,,,,,,,,,,,sub-029,2.0,random_dot,60.04974520893384,
right,right,accuracy,,,,,0.0,1.0,1.0,0.0,16.0,1.0,33.0,1.0,600.1577853,,,,,,,,,600.147247,600.4999006,601.3142258,601.2982602000001,601.2982795,601.3142258,601.3142258,601.3142258,604.6834537,right,1.0,29.287104699999983,,,,,,,,,,,,,,,,,,,,,,,,,,,,,,,sub-029,2.0,random_dot,60.04974520893384,
right,right,accuracy,,,,,0.0,1.0,1.0,0.0,17.0,0.0,34.0,1.0,604.6984458000001,,,,,,,,,604.6865878,604.7982247,605.5998519,605.5829358,605.5829835000001,605.5998519,605.5998519,605.5998519,606.9223915,right,1.0,27.238487599999985,,,,,,,,,,,,,,,,,,,,,,,,,,,,,,,sub-029,2.0,random_dot,60.04974520893384,
left,left,accuracy,,,,,0.0,1.0,1.0,0.0,17.0,1.0,35.0,0.0,606.936692,,,,,,,,,606.9248298,607.2814596000001,608.0828191,608.0659228000001,608.065973,608.0828191,608.0828191,608.0828191,609.9536049000001,left,1.0,27.789443899999924,,,,,,,,,,,,,,,,,,,,,,,,,,,,,,,sub-029,2.0,random_dot,60.04974520893384,
left,left,accuracy,,,,,0.0,1.0,1.0,0.0,18.0,0.0,36.0,0.0,609.9682736,,,,,,,,,609.9560097,610.764779,611.5665506,611.5493261,611.5493742,611.5665506,611.5665506,611.5665506,617.2667252,left,1.0,31.61645080000005,,,,,616.5647401,,,,,,,,,,,,,,,,,,,,,,,,,,sub-029,2.0,random_dot,60.04974520893384,
right,right,accuracy,,,,,0.0,1.0,1.0,0.0,18.0,1.0,37.0,1.0,617.2815018,,,,,,,,,617.2691345000001,618.0812773,618.8828978,618.8660227,618.8660713,618.8828978,618.8828978,618.8828978,623.6658307,left,0.0,30.6956639,,,,,,,,,,,,,,,,,,,,,,,,,,,,,,,sub-029,2.0,random_dot,60.04974520893384,
right,right,accuracy,,,,,0.0,1.0,1.0,0.0,19.0,0.0,38.0,1.0,623.6812624,,,,,,,,,623.6682145,624.8811454,625.6828687,625.6659595,625.6660067,625.6828687,625.6828687,625.6828687,627.4348502,right,1.0,27.677021099999934,,,,,,,,,,,,,,,,,,,,,,,,,,,,,,,sub-029,2.0,random_dot,60.04974520893384,
left,left,accuracy,,,,,0.0,1.0,1.0,0.0,19.0,1.0,39.0,0.0,627.4494856,,,,,,,,,627.4373835,627.797823,628.5993898,628.5825547000001,628.5826029,628.5993898,628.5993898,628.5993898,635.0331338,right,0.0,32.350064100000054,,,,,633.5976107,,,,,,,,,,,,,,,,,,,,,,,,,,sub-029,2.0,random_dot,60.04974520893384,
right,right,accuracy,,,,,0.0,1.0,1.0,0.0,20.0,0.0,40.0,1.0,635.0479792,,,,,,,,,635.035765,635.8476362,636.6491524,636.6323218,636.6323696000001,636.6491524,636.6491524,636.6491524,640.3852105,left,0.0,29.65286649999996,,,,,,,,,,,,,,,,,,,,,,,,,,,,,,,sub-029,2.0,random_dot,60.04974520893384,
left,left,accuracy,,,,,0.0,1.0,1.0,0.0,20.0,1.0,41.0,0.0,640.399615,,,,,,,,,640.3875894,641.1975366,641.9994406000001,641.9822376,641.9822851,641.9994406000001,641.9994406000001,641.9994406000001,645.800381,left,1.0,29.718941499999914,,,,,,,,,,,,,,,,,,,,,,,,,,,,,,,sub-029,2.0,random_dot,60.04974520893384,
right,right,accuracy,,,,,0.0,1.0,1.0,0.0,21.0,0.0,42.0,1.0,645.8146754,,,,,,,,,645.8027749,645.9140973,646.715779,646.6986955,646.6987618,646.715779,646.715779,646.715779,650.5214154,right,1.0,29.72919590000004,,,,,,,,,,,,,,,,,,,,,,,,,,,,,,,sub-029,2.0,random_dot,60.04974520893384,
left,left,accuracy,,,,,0.0,1.0,1.0,0.0,21.0,1.0,43.0,0.0,650.535671,,,,,,,,,650.5237668,651.330735,652.1319977,652.1152643,652.1153122000001,652.1319977,652.1319977,652.1319977,656.0842218,left,1.0,29.873014799999964,,,,,,,,,,,,,,,,,,,,,,,,,,,,,,,sub-029,2.0,random_dot,60.04974520893384,
right,right,accuracy,,,,,0.0,1.0,1.0,0.0,22.0,0.0,44.0,1.0,656.0985726,,,,,,,,,656.0865904,657.2972948,658.0986084,658.0816887,658.0817372,658.0986084,658.0986084,658.0986084,661.3047214000001,right,1.0,29.129235900000022,,,,,,,,,,,,,,,,,,,,,,,,,,,,,,,sub-029,2.0,random_dot,60.04974520893384,
left,left,accuracy,,,,,0.0,1.0,1.0,0.0,22.0,1.0,45.0,0.0,661.3296395,,,,,,,,,661.3070981,661.4138278,662.2151115,662.1984753,662.1985235,662.2151115,662.2151115,662.2151115,666.0884774,right,0.0,29.790219899999897,,,,,,,,,,,,,,,,,,,,,,,,,,,,,,,sub-029,2.0,random_dot,60.04974520893384,
right,right,accuracy,,,,,0.0,1.0,1.0,0.0,23.0,0.0,46.0,1.0,666.1128848000001,,,,,,,,,666.0908264,666.1971095,666.9984288,666.9817218000001,666.9817696,666.9984288,666.9984288,666.9984288,669.8044744,right,1.0,28.71762870000009,,,,,,,,,,,,,,,,,,,,,,,,,,,,,,,sub-029,2.0,random_dot,60.04974520893384,
left,left,accuracy,,,,,0.0,1.0,1.0,0.0,23.0,1.0,47.0,0.0,669.8184988,,,,,,,,,669.8068545,670.1636523,670.9648006,670.948257,670.9483048000001,670.9648006,670.9648006,670.9648006,675.1377101,left,1.0,30.08978040000011,,,,,,,,,,,,,,,,,,,,,,,,,,,,,,,sub-029,2.0,random_dot,60.04974520893384,
left,left,accuracy,,,,,0.0,1.0,1.0,0.0,24.0,0.0,48.0,0.0,675.1520707,,,,,,,,,675.1401097,675.2469255,676.0484751,676.031663,676.0317106,676.0484751,676.0484751,676.0484751,677.6148085,left,1.0,27.473425799999973,,,,,,,,,,,,,,,,,,,,,,,,,,,,,,,sub-029,2.0,random_dot,60.04974520893384,
right,right,accuracy,,,,,0.0,1.0,1.0,0.0,24.0,1.0,49.0,1.0,677.6302823,,,,,,,,,677.6173261,678.4302408,679.231463,679.2148292,679.2148766,679.231463,679.231463,679.231463,682.0330479,left,0.0,28.722318199999904,,,,,,,,,,,,,,,,,,,,,,,,,,,,,,,sub-029,2.0,random_dot,60.04974520893384,
right,right,accuracy,,,,,0.0,1.0,1.0,0.0,25.0,0.0,50.0,1.0,682.047303,,,,,,,,,682.0354101,682.3968354,683.1979104000001,683.181276,683.1813235,683.1979104000001,683.1979104000001,683.1979104000001,685.4036392,right,1.0,28.12695389999988,,,,,,,,,,,,,,,,,,,,,,,,,,,,,,,sub-029,2.0,random_dot,60.04974520893384,
left,left,accuracy,,,,,0.0,1.0,1.0,0.0,25.0,1.0,51.0,0.0,685.4185398,,,,,,,,,685.4063268,685.5134756,686.3149599,686.2982604,686.2983078,686.3149599,686.3149599,686.3149599,687.6371056,right,0.0,27.24284829999988,,,,,,,,,,,,,,,,,,,,,,,,,,,,,,,sub-029,2.0,random_dot,60.04974520893384,
right,right,accuracy,,,,,0.0,1.0,1.0,0.0,26.0,0.0,52.0,1.0,687.6515921,,,,,,,,,687.6394917,688.4463814000001,689.250181,689.2319585,689.2320252000001,689.250181,689.250181,689.250181,690.4587036,right,1.0,27.13118380000003,,,,,,,,,,,,,,,,,,,,,,,,,,,,,,,sub-029,2.0,random_dot,60.04974520893384,
left,left,accuracy,,,,,0.0,1.0,1.0,0.0,26.0,1.0,53.0,0.0,690.4727507,,,,,,,,,690.4622932,691.6635828,692.4676524,692.4489195,692.4489764,692.4676524,692.4676524,692.4676524,694.6279163,right,0.0,28.06832110000005,,,,,,,,,,,,,,,,,,,,,,,,,,,,,,,sub-029,2.0,random_dot,60.04974520893384,
left,left,accuracy,,,,,0.0,1.0,1.0,0.0,27.0,0.0,54.0,0.0,694.6471007,,,,,,,,,694.630944,694.7303769,695.5338320000001,695.5155192,695.5155782,695.5338320000001,695.5338320000001,695.5338320000001,698.8403493000001,left,1.0,29.21935869999993,,,,,,,,,,,,,,,,,,,,,,,,,,,,,,,sub-029,2.0,random_dot,60.04974520893384,
right,right,accuracy,,,,,0.0,1.0,1.0,0.0,27.0,1.0,55.0,1.0,698.8628944000001,,,,,,,,,698.8437018,699.6470023,700.4501157,700.431788,700.4318561,700.4501157,700.4501157,700.4501157,704.7811286,right,1.0,30.2464551999999,,,,,,,,,,,,,,,,,,,,,,,,,,,,,,,sub-029,2.0,random_dot,60.04974520893384,
right,right,accuracy,,,,,0.0,1.0,1.0,0.0,28.0,0.0,56.0,1.0,704.7961205,,,,,,,,,704.7828728000001,705.9968766000001,706.7999325000001,706.7815371,706.781596,706.7999325000001,706.7999325000001,706.7999325000001,712.4167678000001,right,1.0,31.54066480000006,,,,,711.7816213,,,,,,,,,,,,,,,,,,,,,,,,,,sub-029,2.0,random_dot,60.04974520893384,
left,left,accuracy,,,,,0.0,1.0,1.0,0.0,28.0,1.0,57.0,0.0,712.4326742000001,,,,,,,,,712.4199682999999,712.5300433,713.3330205,713.3146962999999,713.3147550000001,713.3330205,713.3330205,713.3330205,714.6105316999999,left,1.0,27.202673100000084,,,,,,,,,,,,,,,,,,,,,,,,,,,,,,,sub-029,2.0,random_dot,60.04974520893384,
left,left,accuracy,,,,,0.0,1.0,1.0,0.0,29.0,0.0,58.0,0.0,714.6239724,,,,,,,,,714.6135778,714.713338,715.5164297000001,715.4981901000001,715.4982511999999,715.5164297000001,715.5164297000001,715.5164297000001,717.2392431000001,left,1.0,27.645676099999942,,,,,,,,,,,,,,,,,,,,,,,,,,,,,,,sub-029,2.0,random_dot,60.04974520893384,
right,right,accuracy,,,,,0.0,1.0,1.0,0.0,29.0,1.0,59.0,1.0,717.2541691000001,,,,,,,,,717.2435818000001,718.0465552999999,718.8496854,718.8312510000001,718.8313206,718.8496854,718.8496854,718.8496854,722.1747997,left,0.0,29.24916250000001,,,,,,,,,,,,,,,,,,,,,,,,,,,,,,,sub-029,2.0,random_dot,60.04974520893384,
,,accuracy,,,,,0.0,1.0,1.0,0.0,,,,,,,,,,,,,,,,,,,,,,,,,,,,,,,,,,,,,,,,,,,,,,,,,,,,,,,,sub-029,2.0,random_dot,60.04974520893384,
,,,,,,,,,,,,,,,,,,,,,,,,,,,,,,,,,,,,,,,,,,,,,,,,,,,,,,,,,,,,,,,722.1775604,722.1931010999999,727.1804669,sub-029,,,,
