direction,corrAns,thisN,thisTrialN,thisRepN,respDots.keys,respDots.corr,respDots.rt,respDots.duration,randomInstr,respRandomInstr.keys,respRandomInstr.rt,respRandomInstr.duration,practice_trials.thisRepN,practice_trials.thisTrialN,practice_trials.thisN,practice_trials.thisIndex,instr_trials.thisRepN,instr_trials.thisTrialN,instr_trials.thisN,instr_trials.thisIndex,test_trials.thisRepN,test_trials.thisTrialN,test_trials.thisN,test_trials.thisIndex,thisRow.t,notes,general_instruction.started,textGeneralInstr.started,respGeneralInstr.started,general_instruction.stopped,respGeneralInstr.keys,respGeneralInstr.rt,respGeneralInstr.duration,ITI.started,fixcross.started,fixcross.stopped,ITI.stopped,dots.started,backgroundDots.started,stimulusDots.started,respDots.started,dots.stopped,practice_trials.respDots.keys,practice_trials.respDots.corr,practice_trials.respDots.rt,practice_trials.respDots.duration,feedback.started,textFeedback.started,feedback.stopped,textFeedback.stopped,info.started,textInfo.started,keyRespInfo.started,info.stopped,keyRespInfo.keys,keyRespInfo.rt,keyRespInfo.duration,test_instruction.started,textTestInstr.started,respTestInstr.started,test_instruction.stopped,respTestInstr.keys,respTestInstr.rt,respTestInstr.duration,random_instruction.started,textRandomInstr.started,respRandomInstr.started,random_instruction.stopped,instr_trials.respRandomInstr.keys,instr_trials.respRandomInstr.rt,instr_trials.respRandomInstr.duration,test_trials.respDots.keys,test_trials.respDots.corr,test_trials.respDots.rt,test_trials.respDots.duration,stimulusDots.stopped,goodbye.started,textGoodbye.started,goodbye.stopped,participant,session,expName,frameRate
,,,,,,,,,,,,,,,,,,,,,,,,,,,0.0047543,0.011525,0.011525,12.644332,space,12.6220084,None,,,,,,,,,,,,,,,,,,,,,,,,,,,,,,,,,,,,,,,,,,,,,,,sub-205,1,random_dot,59.86693974
right,right,0,0,0,left,0,2.6688813,None,,,,,0,0,0,1,,,,,,,,,12.6650792,,,,,,,,,12.6603977,12.7504399,13.5639675,13.5350667,13.5355223,13.5639675,13.5639675,13.5639675,16.2383603,left,0,2.6688813,None,16.2667289,16.2740395,16.7536276,,,,,,,,,,,,,,,,,,,,,,,,,,,,,,,sub-205,1,random_dot,59.86693974
left,left,1,1,0,left,1,1.9871916,None,,,,,0,1,1,0,,,,,,,,,16.7704131,,,,,,,,,16.7540756,16.8535435,17.6553216,17.6377324,17.6382422,17.6553216,17.6553216,17.6553216,19.657618,left,1,1.9871916,None,19.6713211,19.6768543,20.1725808,,,,,,,,,,,,,,,,,,,,,,,,,,,,,,,sub-205,1,random_dot,59.86693974
right,right,2,0,1,right,1,1.668927,None,,,,,1,0,2,1,,,,,,,,,20.1890629,,,,,,,,,20.1730508,20.2723816,21.0741377,21.0571278,21.0576038,21.0741377,21.0741377,21.0741377,22.7594859,right,1,1.668927,None,22.7596216,22.7742627,23.2582975,23.2743697,,,,,,,,,,,,,,,,,,,,,,,,,,,,,,sub-205,1,random_dot,59.86693974
left,left,3,1,1,left,1,1.5367749,None,,,,,1,1,3,0,,,,,,,,,23.2743697,,,,,,,,,23.2587262,24.0748523,24.8768868,24.8590955,24.8596965,24.8768868,24.8768868,24.8768868,26.4288395,left,1,1.5367749,None,26.4290102,26.4436794,26.9272462,26.9437078,,,,,,,,,,,,,,,,,,,,,,,,,,,,,,sub-205,1,random_dot,59.86693974
right,right,4,0,2,right,1,1.3668429,None,,,,,2,0,4,1,,,,,,,,,26.9437078,,,,,,,,,26.9276693,27.744598,28.5462443,28.528423,28.5288821,28.5462443,28.5462443,28.5462443,29.9150666,right,1,1.3668429,None,29.9152465,29.9289122,30.4132478,30.4294687,,,,,,,,,,,,,,,,,,,,,,,,,,,,,,sub-205,1,random_dot,59.86693974
left,left,5,1,2,left,1,1.6599037,None,,,,,2,1,5,0,,,,,,,,,30.4294687,,,,,,,,,30.4136505,31.6304124,32.4322007,32.4143543,32.4148785,32.4322007,32.4322007,32.4322007,34.100261,left,1,1.6599037,None,34.1003476,34.1151334,34.5992111,34.6158317,,,,,,,,,,,,,,,,,,,,,,,,,,,,,,sub-205,1,random_dot,59.86693974
right,right,6,0,3,right,1,1.2321756,None,,,,,3,0,6,1,,,,,,,,,34.6158317,,,,,,,,,34.5996429,35.3994596,36.2012944,36.1837214,36.1841738,36.2012944,36.2012944,36.2012944,37.4361973,right,1,1.2321756,None,37.4363312,37.4506541,37.9349677,37.9513736,,,,,,,,,,,,,,,,,,,,,,,,,,,,,,sub-205,1,random_dot,59.86693974
left,left,7,1,3,left,1,0.8990405,None,,,,,3,1,7,0,,,,,,,,,37.9513736,,,,,,,,,37.935346,38.7516563,39.5539113,39.536309,39.5370569,39.5539113,39.5539113,39.5539113,40.455238,left,1,0.8990405,None,40.4553686,40.4695974,40.9537616,40.9700779,,,,,,,,,,,,,,,,,,,,,,,,,,,,,,sub-205,1,random_dot,59.86693974
left,left,8,0,4,left,1,0.8409067,None,,,,,4,0,8,0,,,,,,,,,40.9700779,,,,,,,,,40.9541964,41.7706465,42.5723328,42.5547345,42.5551956,42.5723328,42.5723328,42.5723328,43.4234812,left,1,0.8409067,None,43.4236243,43.4381874,43.9223541,43.9388793,,,,,,,,,,,,,,,,,,,,,,,,,,,,,,sub-205,1,random_dot,59.86693974
right,right,9,1,4,right,1,1.9187464,None,,,,,4,1,9,1,,,,,,,,,43.9388793,,,,,,,,,43.9227759,44.272562,45.0740309,45.0562161,45.0567004,45.0740309,45.0740309,45.0740309,47.0092258,right,1,1.9187464,None,47.0093821,47.0239482,47.5081751,47.5247777,,,,,,,,,,,,,,,,,,,,,,,,,,,,,,sub-205,1,random_dot,59.86693974
left,left,10,0,5,left,1,1.3461804,None,,,,,5,0,10,0,,,,,,,,,47.5247777,,,,,,,,,47.5085978,47.8751336,48.6767609,48.6591329,48.6596312,48.6767609,48.6767609,48.6767609,50.0278194,left,1,1.3461804,None,50.0279679,50.0430825,50.5271387,50.5431528,,,,,,,,,,,,,,,,,,,,,,,,,,,,,,sub-205,1,random_dot,59.86693974
right,right,11,1,5,right,1,1.9275297,None,,,,,5,1,11,1,,,,,,,,,50.5431528,,,,,,,,,50.5275611,50.6434383,51.4451361,51.4272294,51.4277116,51.4451361,51.4451361,51.4451361,53.3801696,right,1,1.9275297,None,53.3802995,53.3953899,53.8790365,53.8952723,,,,,,,,,,,,,,,,,,,,,,,,,,,,,,sub-205,1,random_dot,59.86693974
right,right,12,0,6,left,0,1.336298,None,,,,,6,0,12,1,,,,,,,,,53.8952723,,,,,,,,,53.8794779,53.995647,54.797078,54.7796948,54.7801793,54.797078,54.797078,54.797078,56.1491881,left,0,1.336298,None,56.1543055,56.1636649,56.6476795,56.6637001,,,,,,,,,,,,,,,,,,,,,,,,,,,,,,sub-205,1,random_dot,59.86693974
left,left,13,1,6,right,0,2.5166024,None,,,,,6,1,13,0,,,,,,,,,56.6637001,,,,,,,,,56.6480852,57.4649491,58.2664309,58.249307,58.2497346,58.2664309,58.2664309,58.2664309,60.7856078,right,0,2.5166024,None,60.7857389,60.8003165,61.2846897,61.3008326,,,,,,,,,,,,,,,,,,,,,,,,,,,,,,sub-205,1,random_dot,59.86693974
right,right,14,0,7,left,0,4.5792424,None,,,,,7,0,14,1,,,,,,,,,61.3008326,,,,,,,,,61.285091,61.4008027,62.2027025,62.1853334,62.1857941,62.2027025,62.2027025,62.2027025,66.7902795,left,0,4.5792424,None,66.790364,66.804786,67.2881308,67.3046913,,,,,,,,,,,,,,,,,,,,,,,,,,,,,,sub-205,1,random_dot,59.86693974
left,left,15,1,7,left,1,1.0152122,None,,,,,7,1,15,0,,,,,,,,,67.3046913,,,,,,,,,67.2884456,68.5052997,69.3077466,69.2901665,69.290638,69.3077466,69.3077466,69.3077466,70.3258084,left,1,1.0152122,None,70.3309283,70.3403957,70.8243208,70.8405023,,,,,,,,,,,,,,,,,,,,,,,,,,,,,,sub-205,1,random_dot,59.86693974
left,left,16,0,8,left,1,2.5193376,None,,,,,8,0,16,0,,,,,,,,,70.8405023,,,,,,,,,70.8250919,72.0414467,72.8431608,72.8255,72.8259503,72.8431608,72.8431608,72.8431608,75.3783274,left,1,2.5193376,None,75.3784585,75.3935773,75.8774333,75.8936304,,,,,,,,,,,,,,,,,,,,,,,,,,,,,,sub-205,1,random_dot,59.86693974
right,right,17,1,8,right,1,0.8923309,None,,,,,8,1,17,1,,,,,,,,,75.8936304,,,,,,,,,75.8778089,77.0783422,77.8801479,77.8626285,77.8630844,77.8801479,77.8801479,77.8801479,78.7812398,right,1,0.8923309,None,78.7813734,78.7958173,79.280366,79.2965525,,,,,,,,,,,,,,,,,,,,,,,,,,,,,,sub-205,1,random_dot,59.86693974
right,right,18,0,9,left,0,0.6544425,None,,,,,9,0,18,1,,,,,,,,,79.2965525,,,,,,,,,79.2807742,79.3964829,80.1980786,80.1807964,80.1813191,80.1980786,80.1980786,80.1980786,80.8663225,left,0,0.6544425,None,80.8709989,80.8805101,81.3651503,81.381326,,,,,,,,,,,,,,,,,,,,,,,,,,,,,,sub-205,1,random_dot,59.86693974
left,left,19,1,9,left,1,0.68648,None,,,,,9,1,19,0,,,,,,,,,81.381326,,,,,,,,,81.3655402,82.5656381,83.3668149,83.3492235,83.3496849,83.3668149,83.3668149,83.3668149,84.0684529,left,1,0.68648,None,84.0745129,84.0832931,84.5671993,84.5831735,,,,,,,,,,,,,,,,,,,,,,,,,,,,,,sub-205,1,random_dot,59.86693974
,,,,,,,,,,,,,,,,,,,,,,,,,,,,,,,,,,,,,,,,,,,,,,,,,,,84.5673841,84.5831735,84.5831735,88.0363818,space,3.450149,None,,,,,,,,,,,,,,,,,,,,,,,sub-205,1,random_dot,59.86693974
,,,,,,,,,,,,,,,,,,,,,,,,,,,,,,,,,,,,,,,,,,,,,,,,,,,,,,,,,,88.0364716,88.0529083,88.0529083,90.4884852,space,2.4297815,None,,,,,,,,,,,,,,,,sub-205,1,random_dot,59.86693974
left,left,0,0,0,left,1,0.7625825,None,accuracy,space,2.0428734,None,,,,,0,0,0,0,0,0,0,0,92.705938,,,,,,,,,92.6994611,93.4894784,94.2912178,94.2743327,94.2746267,94.2912178,94.2912178,94.2912178,95.0588023,,,,,,,,,,,,,,,,,,,,,,,90.6230213,90.6297873,90.6297873,92.6894117,space,2.0428734,None,left,1,0.7625825,None,,,,,sub-205,1,random_dot,59.86693974
right,right,1,1,0,right,1,1.5576203,None,accuracy,space,2.0428734,None,,,,,0,0,0,0,0,1,1,1,95.0740849,,,,,,,,,95.0592777,95.174081,95.9756541,95.9581925,95.9587363,95.9756541,95.9756541,95.9756541,97.5437312,,,,,,,,,,,,,,,,,,,,,,,,,,,,,,right,1,1.5576203,None,,,,,sub-205,1,random_dot,59.86693974
right,right,2,0,1,left,0,2.0113793,None,accuracy,space,2.0428734,None,,,,,0,0,0,0,1,0,2,1,97.5585253,,,,,,,,,97.5442619,97.9090391,98.7113494,98.6936025,98.6942244,98.7113494,98.7113494,98.7113494,100.7298268,,,,,,,,,,,,,,,,,,,,,,,,,,,,,,left,0,2.0113793,None,,,,,sub-205,1,random_dot,59.86693974
left,left,3,1,1,left,1,0.9863996,None,accuracy,space,2.0428734,None,,,,,0,0,0,0,1,1,3,0,100.7444422,,,,,,,,,100.7303658,101.9454249,102.747203,102.7293504,102.7298802,102.747203,102.747203,102.747203,103.7480735,,,,,,,,,,,,,,,,,,,,,,,,,,,,,,left,1,0.9863996,None,,,,,sub-205,1,random_dot,59.86693974
left,left,4,0,2,left,1,0.9747949,None,accuracy,space,2.0428734,None,,,,,0,0,0,0,2,0,4,0,103.7634329,,,,,,,,,103.7486086,104.9470683,105.7492063,105.7315662,105.7320228,105.7492063,105.7492063,105.7492063,106.7339723,,,,,,,,,,,,,,,,,,,,,,,,,,,,,,left,1,0.9747949,None,,,,,sub-205,1,random_dot,59.86693974
right,right,5,1,2,right,1,1.0139406,None,accuracy,space,2.0428734,None,,,,,0,0,0,0,2,1,5,1,106.7486562,,,,,,,,,106.7345668,106.8488778,107.6497439,107.6326002,107.6329296,107.6497439,107.6497439,107.6497439,108.6687594,,,,,,,,,,,,,,,,,,,,,,,,,,,,,,right,1,1.0139406,None,,,,,sub-205,1,random_dot,59.86693974
left,left,6,0,3,left,1,0.7582048,None,accuracy,space,2.0428734,None,,,,,0,0,0,0,3,0,6,0,108.6834248,,,,,,,,,108.6692921,109.0332488,109.8356005,109.8175124,109.8180787,109.8356005,109.8356005,109.8356005,110.6028744,,,,,,,,,,,,,,,,,,,,,,,,,,,,,,left,1,0.7582048,None,,,,,sub-205,1,random_dot,59.86693974
right,right,7,1,3,right,1,1.6641594,None,accuracy,space,2.0428734,None,,,,,0,0,0,0,3,1,7,1,110.6180587,,,,,,,,,110.6034593,110.7181095,111.5198435,111.5023753,111.5028597,111.5198435,111.5198435,111.5198435,113.1883985,,,,,,,,,,,,,,,,,,,,,,,,,,,,,,right,1,1.6641594,None,,,,,sub-205,1,random_dot,59.86693974
right,right,8,0,4,left,0,1.8989028,None,accuracy,space,2.0428734,None,,,,,0,0,0,0,4,0,8,1,113.203159,,,,,,,,,113.1889148,113.303478,114.1048046,114.0875006,114.0880423,114.1048046,114.1048046,114.1048046,116.0068196,,,,,,,,,,,,,,,,,,,,,,,,,,,,,,left,0,1.8989028,None,,,,,sub-205,1,random_dot,59.86693974
left,left,9,1,4,left,1,0.7898731,None,accuracy,space,2.0428734,None,,,,,0,0,0,0,4,1,9,0,116.0215776,,,,,,,,,116.0074291,116.822195,117.6239038,117.6064904,117.6069662,117.6239038,117.6239038,117.6239038,118.4251547,,,,,,,,,,,,,,,,,,,,,,,,,,,,,,left,1,0.7898731,None,,,,,sub-205,1,random_dot,59.86693974
left,left,10,0,5,left,1,1.1418937,None,accuracy,space,2.0428734,None,,,,,0,0,0,0,5,0,10,0,118.4402423,,,,,,,,,118.425712,118.7904991,119.5920295,119.5745543,119.5751423,119.5920295,119.5920295,119.5920295,120.7433905,,,,,,,,,,,,,,,,,,,,,,,,,,,,,,left,1,1.1418937,None,,,,,sub-205,1,random_dot,59.86693974
right,right,11,1,5,right,1,0.9733646,None,accuracy,space,2.0428734,None,,,,,0,0,0,0,5,1,11,1,120.7583133,,,,,,,,,120.7439494,121.1085122,121.9106728,121.8928905,121.8933761,121.9106728,121.9106728,121.9106728,122.8949394,,,,,,,,,,,,,,,,,,,,,,,,,,,,,,right,1,0.9733646,None,,,,,sub-205,1,random_dot,59.86693974
right,right,12,0,6,right,1,4.9623962,None,accuracy,space,2.0428734,None,,,,,0,0,0,0,6,0,12,1,122.9099773,,,,,,,,,122.8954639,123.2601886,124.0615464,124.0442463,124.044809,124.0615464,124.0615464,124.0615464,129.0328523,,,,,,,,,,,,,,,,,,,,,,,,,,,,,,right,1,4.9623962,None,129.04735,,,,sub-205,1,random_dot,59.86693974
left,left,13,1,6,left,1,0.8033757,None,accuracy,space,2.0428734,None,,,,,0,0,0,0,6,1,13,0,129.04735,,,,,,,,,129.0335903,129.3977513,130.1996266,130.1818293,130.1823158,130.1996266,130.1996266,130.1996266,131.0172173,,,,,,,,,,,,,,,,,,,,,,,,,,,,,,left,1,0.8033757,None,,,,,sub-205,1,random_dot,59.86693974
right,right,14,0,7,right,1,1.6384978,None,accuracy,space,2.0428734,None,,,,,0,0,0,0,7,0,14,1,131.0319009,,,,,,,,,131.0177737,132.2328766,133.0347964,133.0171607,133.017626,133.0347964,133.0347964,133.0347964,134.6865469,,,,,,,,,,,,,,,,,,,,,,,,,,,,,,right,1,1.6384978,None,,,,,sub-205,1,random_dot,59.86693974
left,left,15,1,7,left,1,2.2202249,None,accuracy,space,2.0428734,None,,,,,0,0,0,0,7,1,15,0,134.7009333,,,,,,,,,134.6870679,135.5015259,136.3039513,136.2863012,136.2868536,136.3039513,136.3039513,136.3039513,138.539029,,,,,,,,,,,,,,,,,,,,,,,,,,,,,,left,1,2.2202249,None,,,,,sub-205,1,random_dot,59.86693974
left,left,16,0,8,left,1,1.1173554,None,accuracy,space,2.0428734,None,,,,,0,0,0,0,8,0,16,0,138.5536449,,,,,,,,,138.5394755,139.3544672,140.1563956,140.1389654,140.1393913,140.1563956,140.1563956,140.1563956,141.2906037,,,,,,,,,,,,,,,,,,,,,,,,,,,,,,left,1,1.1173554,None,,,,,sub-205,1,random_dot,59.86693974
right,right,17,1,8,right,1,0.6659221,None,accuracy,space,2.0428734,None,,,,,0,0,0,0,8,1,17,1,141.3053631,,,,,,,,,141.2911267,141.4056905,142.2077019,142.1903448,142.1908824,142.2077019,142.2077019,142.2077019,142.8757922,,,,,,,,,,,,,,,,,,,,,,,,,,,,,,right,1,0.6659221,None,,,,,sub-205,1,random_dot,59.86693974
left,left,18,0,9,left,1,2.8111297,None,accuracy,space,2.0428734,None,,,,,0,0,0,0,9,0,18,0,142.8898889,,,,,,,,,142.8763134,144.0909257,144.892786,144.8750505,144.8755473,144.892786,144.892786,144.892786,147.7121105,,,,,,,,,,,,,,,,,,,,,,,,,,,,,,left,1,2.8111297,None,,,,,sub-205,1,random_dot,59.86693974
right,right,19,1,9,right,1,1.6147989,None,accuracy,space,2.0428734,None,,,,,0,0,0,0,9,1,19,1,147.7267727,,,,,,,,,147.7125882,148.0772514,148.878939,148.8610555,148.8614974,148.878939,148.878939,148.878939,150.4969755,,,,,,,,,,,,,,,,,,,,,,,,,,,,,,right,1,1.6147989,None,,,,,sub-205,1,random_dot,59.86693974
right,right,20,0,10,right,1,1.1295564,None,accuracy,space,2.0428734,None,,,,,0,0,0,0,10,0,20,1,150.5121009,,,,,,,,,150.4974491,151.3124475,152.114315,152.0972333,152.0977258,152.114315,152.114315,152.114315,153.2490198,,,,,,,,,,,,,,,,,,,,,,,,,,,,,,right,1,1.1295564,None,,,,,sub-205,1,random_dot,59.86693974
left,left,21,1,10,left,1,0.7170741,None,accuracy,space,2.0428734,None,,,,,0,0,0,0,10,1,21,0,153.2636771,,,,,,,,,153.2495328,153.3639882,154.1660648,154.1483823,154.1489163,154.1660648,154.1660648,154.1660648,154.9001315,,,,,,,,,,,,,,,,,,,,,,,,,,,,,,left,1,0.7170741,None,,,,,sub-205,1,random_dot,59.86693974
right,right,22,0,11,right,1,0.6568036,None,accuracy,space,2.0428734,None,,,,,0,0,0,0,11,0,22,1,154.9146222,,,,,,,,,154.9004692,155.0146329,155.8169849,155.799583,155.8000684,155.8169849,155.8169849,155.8169849,156.4843754,,,,,,,,,,,,,,,,,,,,,,,,,,,,,,right,1,0.6568036,None,,,,,sub-205,1,random_dot,59.86693974
left,left,23,1,11,left,1,0.6179976,None,accuracy,space,2.0428734,None,,,,,0,0,0,0,11,1,23,0,156.49947,,,,,,,,,156.484901,157.6834942,158.4855374,158.4679853,158.4685097,158.4855374,158.4855374,158.4855374,159.119193,,,,,,,,,,,,,,,,,,,,,,,,,,,,,,left,1,0.6179976,None,,,,,sub-205,1,random_dot,59.86693974
right,right,24,0,12,right,1,1.1969055,None,accuracy,space,2.0428734,None,,,,,0,0,0,0,12,0,24,1,159.134549,,,,,,,,,159.1197077,159.9350166,160.7369328,160.7197247,160.7201892,160.7369328,160.7369328,160.7369328,161.9381788,,,,,,,,,,,,,,,,,,,,,,,,,,,,,,right,1,1.1969055,None,,,,,sub-205,1,random_dot,59.86693974
left,left,25,1,12,left,1,0.6290701,None,accuracy,space,2.0428734,None,,,,,0,0,0,0,12,1,25,0,161.9533211,,,,,,,,,161.9386682,162.0533586,162.8550547,162.8375054,162.8379855,162.8550547,162.8550547,162.8550547,163.4893791,,,,,,,,,,,,,,,,,,,,,,,,,,,,,,left,1,0.6290701,None,,,,,sub-205,1,random_dot,59.86693974
left,left,26,0,13,left,1,0.7769767,None,accuracy,space,2.0428734,None,,,,,0,0,0,0,13,0,26,0,163.5042668,,,,,,,,,163.4898725,164.3053539,165.106415,165.0888225,165.0893234,165.106415,165.106415,165.106415,165.8910063,,,,,,,,,,,,,,,,,,,,,,,,,,,,,,left,1,0.7769767,None,,,,,sub-205,1,random_dot,59.86693974
right,right,27,1,13,right,1,1.0014922,None,accuracy,space,2.0428734,None,,,,,0,0,0,0,13,1,27,1,165.9055761,,,,,,,,,165.8915731,167.0903914,167.8921383,167.8748987,167.8754425,167.8921383,167.8921383,167.8921383,168.9098205,,,,,,,,,,,,,,,,,,,,,,,,,,,,,,right,1,1.0014922,None,,,,,sub-205,1,random_dot,59.86693974
right,right,28,0,14,left,0,1.4865136,None,accuracy,space,2.0428734,None,,,,,0,0,0,0,14,0,28,1,168.924441,,,,,,,,,168.9101609,169.2752682,170.0765357,170.0591304,170.0595828,170.0765357,170.0765357,170.0765357,171.5791219,,,,,,,,,,,,,,,,,,,,,,,,,,,,,,left,0,1.4865136,None,,,,,sub-205,1,random_dot,59.86693974
left,left,29,1,14,left,1,0.5687457,None,accuracy,space,2.0428734,None,,,,,0,0,0,0,14,1,29,0,171.5933598,,,,,,,,,171.5796338,172.7938214,173.5954398,173.5782073,173.5787828,173.5954398,173.5954398,173.5954398,174.1800562,,,,,,,,,,,,,,,,,,,,,,,,,,,,,,left,1,0.5687457,None,,,,,sub-205,1,random_dot,59.86693974
right,right,30,0,15,right,1,0.8363814,None,accuracy,space,2.0428734,None,,,,,0,0,0,0,15,0,30,1,174.1948449,,,,,,,,,174.1806352,174.5453203,175.3472962,175.3289859,175.3294376,175.3472962,175.3472962,175.3472962,176.1981121,,,,,,,,,,,,,,,,,,,,,,,,,,,,,,right,1,0.8363814,None,,,,,sub-205,1,random_dot,59.86693974
left,left,31,1,15,left,1,1.8881537,None,accuracy,space,2.0428734,None,,,,,0,0,0,0,15,1,31,0,176.2129339,,,,,,,,,176.1985824,177.0139598,177.815652,177.7977901,177.7984876,177.815652,177.815652,177.815652,179.717326,,,,,,,,,,,,,,,,,,,,,,,,,,,,,,left,1,1.8881537,None,,,,,sub-205,1,random_dot,59.86693974
left,left,32,0,16,left,1,0.6597522,None,accuracy,space,2.0428734,None,,,,,0,0,0,0,16,0,32,0,179.7323076,,,,,,,,,179.7178125,180.0827574,180.8841256,180.8663896,180.8668384,180.8841256,180.8841256,180.8841256,181.5517246,,,,,,,,,,,,,,,,,,,,,,,,,,,,,,left,1,0.6597522,None,,,,,sub-205,1,random_dot,59.86693974
right,right,33,1,16,right,1,1.0456253,None,accuracy,space,2.0428734,None,,,,,0,0,0,0,16,1,33,1,181.5663908,,,,,,,,,181.5522707,181.6666615,182.4683611,182.4513935,182.4518484,182.4683611,182.4683611,182.4683611,183.5197816,,,,,,,,,,,,,,,,,,,,,,,,,,,,,,right,1,1.0456253,None,,,,,sub-205,1,random_dot,59.86693974
left,left,34,0,17,left,1,2.9137328,None,accuracy,space,2.0428734,None,,,,,0,0,0,0,17,0,34,0,183.5346613,,,,,,,,,183.5203256,184.3188105,185.1203129,185.1027963,185.1032473,185.1203129,185.1203129,185.1203129,188.0394868,,,,,,,,,,,,,,,,,,,,,,,,,,,,,,left,1,2.9137328,None,,,,,sub-205,1,random_dot,59.86693974
right,right,35,1,17,right,1,2.0470324,None,accuracy,space,2.0428734,None,,,,,0,0,0,0,17,1,35,1,188.0545446,,,,,,,,,188.0399562,188.154801,188.956698,188.9388953,188.9394243,188.956698,188.956698,188.956698,191.0083418,,,,,,,,,,,,,,,,,,,,,,,,,,,,,,right,1,2.0470324,None,,,,,sub-205,1,random_dot,59.86693974
right,right,36,0,18,right,1,2.2486501,None,accuracy,space,2.0428734,None,,,,,0,0,0,0,18,0,36,1,191.0231821,,,,,,,,,191.0088632,191.1235813,191.9251573,191.9078946,191.9084208,191.9251573,191.9251573,191.9251573,194.1772524,,,,,,,,,,,,,,,,,,,,,,,,,,,,,,right,1,2.2486501,None,,,,,sub-205,1,random_dot,59.86693974
left,left,37,1,18,left,1,1.4597298,None,accuracy,space,2.0428734,None,,,,,0,0,0,0,18,1,37,0,194.1919747,,,,,,,,,194.1777516,194.5425119,195.3440614,195.3265325,195.3270175,195.3440614,195.3440614,195.3440614,196.8124975,,,,,,,,,,,,,,,,,,,,,,,,,,,,,,left,1,1.4597298,None,,,,,sub-205,1,random_dot,59.86693974
right,right,38,0,19,right,1,1.8543703,None,accuracy,space,2.0428734,None,,,,,0,0,0,0,19,0,38,1,196.8275774,,,,,,,,,196.8129786,197.6274506,198.4297748,198.4118113,198.4123684,198.4297748,198.4297748,198.4297748,200.2984601,,,,,,,,,,,,,,,,,,,,,,,,,,,,,,right,1,1.8543703,None,,,,,sub-205,1,random_dot,59.86693974
left,left,39,1,19,left,1,0.7581174,None,accuracy,space,2.0428734,None,,,,,0,0,0,0,19,1,39,0,200.3132867,,,,,,,,,200.2990152,201.1135792,201.915767,201.8975822,201.898166,201.915767,201.915767,201.915767,202.6828747,,,,,,,,,,,,,,,,,,,,,,,,,,,,,,left,1,0.7581174,None,,,,,sub-205,1,random_dot,59.86693974
left,left,40,0,20,left,1,3.1103903,None,accuracy,space,2.0428734,None,,,,,0,0,0,0,20,0,40,0,202.6977768,,,,,,,,,202.6833891,203.4818928,204.2834131,204.2659472,204.266407,204.2834131,204.2834131,204.2834131,207.4029415,,,,,,,,,,,,,,,,,,,,,,,,,,,,,,left,1,3.1103903,None,,,,,sub-205,1,random_dot,59.86693974
right,right,41,1,20,right,1,1.8051357,None,accuracy,space,2.0428734,None,,,,,0,0,0,0,20,1,41,1,207.4172878,,,,,,,,,207.4032656,207.7673718,208.5696271,208.5516463,208.551944,208.5696271,208.5696271,208.5696271,210.3886221,,,,,,,,,,,,,,,,,,,,,,,,,,,,,,right,1,1.8051357,None,,,,,sub-205,1,random_dot,59.86693974
right,right,42,0,21,left,0,2.2095368,None,accuracy,space,2.0428734,None,,,,,0,0,0,0,21,0,42,1,210.4031487,,,,,,,,,210.3891204,210.5028976,211.3050358,211.2878398,211.2883003,211.3050358,211.3050358,211.3050358,213.5239954,,,,,,,,,,,,,,,,,,,,,,,,,,,,,,left,0,2.2095368,None,,,,,sub-205,1,random_dot,59.86693974
left,left,43,1,21,left,1,0.8234773,None,accuracy,space,2.0428734,None,,,,,0,0,0,0,21,1,43,0,213.5388632,,,,,,,,,213.52455,214.3391306,215.1411199,215.1235741,215.1241341,215.1411199,215.1411199,215.1411199,215.9759861,,,,,,,,,,,,,,,,,,,,,,,,,,,,,,left,1,0.8234773,None,,,,,sub-205,1,random_dot,59.86693974
left,left,44,0,22,right,0,2.5109659,None,accuracy,space,2.0428734,None,,,,,0,0,0,0,22,0,44,0,215.9901417,,,,,,,,,215.9766855,217.1913481,217.9929594,217.9754813,217.9759071,217.9929594,217.9929594,217.9929594,220.5126301,,,,,,,,,,,,,,,,,,,,,,,,,,,,,,right,0,2.5109659,None,,,,,sub-205,1,random_dot,59.86693974
right,right,45,1,22,right,1,0.8457914,None,accuracy,space,2.0428734,None,,,,,0,0,0,0,22,1,45,1,220.5262086,,,,,,,,,220.5129983,221.7272394,222.5290427,222.5116716,222.5120967,222.5290427,222.5290427,222.5290427,223.3805114,,,,,,,,,,,,,,,,,,,,,,,,,,,,,,right,1,0.8457914,None,,,,,sub-205,1,random_dot,59.86693974
right,right,46,0,23,left,0,3.7773139,None,accuracy,space,2.0428734,None,,,,,0,0,0,0,23,0,46,1,223.3954156,,,,,,,,,223.3810302,223.7456049,224.5474208,224.5298534,224.5303317,224.5474208,224.5474208,224.5474208,228.3340862,,,,,,,,,,,,,,,,,,,,,,,,,,,,,,left,0,3.7773139,None,,,,,sub-205,1,random_dot,59.86693974
left,left,47,1,23,left,1,0.7438378,None,accuracy,space,2.0428734,None,,,,,0,0,0,0,23,1,47,0,228.3491539,,,,,,,,,228.3345842,228.6991403,229.5011571,229.4837904,229.4844047,229.5011571,229.5011571,229.5011571,230.2515665,,,,,,,,,,,,,,,,,,,,,,,,,,,,,,left,1,0.7438378,None,,,,,sub-205,1,random_dot,59.86693974
right,right,48,0,24,right,1,1.9255353,None,accuracy,space,2.0428734,None,,,,,0,0,0,0,24,0,48,1,230.2663719,,,,,,,,,230.2520426,230.3665934,231.1687374,231.1509457,231.1513593,231.1687374,231.1687374,231.1687374,233.1037343,,,,,,,,,,,,,,,,,,,,,,,,,,,,,,right,1,1.9255353,None,,,,,sub-205,1,random_dot,59.86693974
left,left,49,1,24,left,1,1.1144179,None,accuracy,space,2.0428734,None,,,,,0,0,0,0,24,1,49,0,233.118261,,,,,,,,,233.1042522,233.2187211,234.0206025,234.0032685,234.0037509,234.0206025,234.0206025,234.0206025,235.1386257,,,,,,,,,,,,,,,,,,,,,,,,,,,,,,left,1,1.1144179,None,,,,,sub-205,1,random_dot,59.86693974
left,left,50,0,25,left,1,1.239293,None,accuracy,space,2.0428734,None,,,,,0,0,0,0,25,0,50,0,235.1534917,,,,,,,,,235.1391384,235.5036115,236.3051912,236.2885747,236.2890718,236.3051912,236.3051912,236.3051912,237.5572665,,,,,,,,,,,,,,,,,,,,,,,,,,,,,,left,1,1.239293,None,,,,,sub-205,1,random_dot,59.86693974
right,right,51,1,25,right,1,0.9108312,None,accuracy,space,2.0428734,None,,,,,0,0,0,0,25,1,51,1,237.5720833,,,,,,,,,237.5577503,237.9217977,238.7238491,238.7064957,238.7069555,238.7238491,238.7238491,238.7238491,239.641959,,,,,,,,,,,,,,,,,,,,,,,,,,,,,,right,1,0.9108312,None,,,,,sub-205,1,random_dot,59.86693974
left,left,52,0,26,left,1,0.6259311,None,accuracy,space,2.0428734,None,,,,,0,0,0,0,26,0,52,0,239.6564484,,,,,,,,,239.6424701,240.457259,241.2591433,241.2415251,241.2420251,241.2591433,241.2591433,241.2591433,241.8931258,,,,,,,,,,,,,,,,,,,,,,,,,,,,,,left,1,0.6259311,None,,,,,sub-205,1,random_dot,59.86693974
right,right,53,1,26,right,1,0.6040592,None,accuracy,space,2.0428734,None,,,,,0,0,0,0,26,1,53,1,241.9081671,,,,,,,,,241.8937049,242.008112,242.8102298,242.7924144,242.7929065,242.8102298,242.8102298,242.8102298,243.4274193,,,,,,,,,,,,,,,,,,,,,,,,,,,,,,right,1,0.6040592,None,,,,,sub-205,1,random_dot,59.86693974
left,left,54,0,27,left,1,0.7596483,None,accuracy,space,2.0428734,None,,,,,0,0,0,0,27,0,54,0,243.4420973,,,,,,,,,243.4280608,244.2430872,245.0449844,245.0282167,245.0286805,245.0449844,245.0449844,245.0449844,245.8125568,,,,,,,,,,,,,,,,,,,,,,,,,,,,,,left,1,0.7596483,None,,,,,sub-205,1,random_dot,59.86693974
right,right,55,1,27,right,1,1.0662275,None,accuracy,space,2.0428734,None,,,,,0,0,0,0,27,1,55,1,245.8274032,,,,,,,,,245.8131033,246.1775414,246.9792626,246.9619964,246.9625361,246.9792626,246.9792626,246.9792626,248.0482362,,,,,,,,,,,,,,,,,,,,,,,,,,,,,,right,1,1.0662275,None,,,,,sub-205,1,random_dot,59.86693974
left,left,56,0,28,left,1,0.7795568,None,accuracy,space,2.0428734,None,,,,,0,0,0,0,28,0,56,0,248.0620923,,,,,,,,,248.0487007,248.1625603,248.9642173,248.9469034,248.9473854,248.9642173,248.9642173,248.9642173,249.7485466,,,,,,,,,,,,,,,,,,,,,,,,,,,,,,left,1,0.7795568,None,,,,,sub-205,1,random_dot,59.86693974
right,right,57,1,28,right,1,0.7249668,None,accuracy,space,2.0428734,None,,,,,0,0,0,0,28,1,57,1,249.7636383,,,,,,,,,249.7488955,250.9476897,251.7497111,251.7321407,251.7326288,251.7497111,251.7497111,251.7497111,252.4835265,,,,,,,,,,,,,,,,,,,,,,,,,,,,,,right,1,0.7249668,None,,,,,sub-205,1,random_dot,59.86693974
left,left,58,0,29,left,1,0.8840769,None,accuracy,space,2.0428734,None,,,,,0,0,0,0,29,0,58,0,252.498559,,,,,,,,,252.4840593,252.8491709,253.6505633,253.6332179,253.6337345,253.6505633,253.6505633,253.6505633,254.5522316,,,,,,,,,,,,,,,,,,,,,,,,,,,,,,left,1,0.8840769,None,,,,,sub-205,1,random_dot,59.86693974
right,right,59,1,29,right,1,0.6451912,None,accuracy,space,2.0428734,None,,,,,0,0,0,0,29,1,59,1,254.5663745,,,,,,,,,254.5530556,255.7676055,256.5696822,256.5522341,256.5527305,256.5696822,256.5696822,256.5696822,257.2206042,,,,,,,,,,,,,,,,,,,,,,,,,,,,,,right,1,0.6451912,None,,,,,sub-205,1,random_dot,59.86693974
,,0,0,0,,,,,accuracy,space,2.0428734,None,,,,,0,0,0,0,,,,,,,,,,,,,,,,,,,,,,,,,,,,,,,,,,,,,,,,,,,,,,,,,,,,,,,,,,,,sub-205,1,random_dot,59.86693974
left,left,0,0,0,left,1,0.6524313,None,speed,space,2.4455397,None,,,,,0,1,1,1,0,0,0,0,259.7200684,,,,,,,,,259.7149229,260.0708017,260.8721829,260.8548057,260.8553201,260.8721829,260.8721829,260.8721829,261.5399878,,,,,,,,,,,,,,,,,,,,,,,257.2442494,257.2489741,257.2489741,259.70488,space,2.4455397,None,left,1,0.6524313,None,,,,,sub-205,1,random_dot,59.86693974
right,right,1,1,0,right,1,0.5073421,None,speed,space,2.4455397,None,,,,,0,1,1,1,0,1,1,1,261.5547453,,,,,,,,,261.5404868,261.9055672,262.7071949,262.6898386,262.6903373,262.7071949,262.7071949,262.7071949,263.2247256,,,,,,,,,,,,,,,,,,,,,,,,,,,,,,right,1,0.5073421,None,,,,,sub-205,1,random_dot,59.86693974
right,right,2,0,1,left,0,1.332947,None,speed,space,2.4455397,None,,,,,0,1,1,1,1,0,2,1,263.2395207,,,,,,,,,263.2252439,264.0403766,264.8417906,264.8241787,264.8246676,264.8417906,264.8417906,264.8417906,266.1769056,,,,,,,,,,,,,,,,,,,,,,,,,,,,,,left,0,1.332947,None,,,,,sub-205,1,random_dot,59.86693974
left,left,3,1,1,left,1,1.0105917,None,speed,space,2.4455397,None,,,,,0,1,1,1,1,1,3,0,266.1916704,,,,,,,,,266.1774694,266.5420038,267.3439524,267.3258481,267.3265649,267.3439524,267.3439524,267.3439524,268.3613667,,,,,,,,,,,,,,,,,,,,,,,,,,,,,,left,1,1.0105917,None,,,,,sub-205,1,random_dot,59.86693974
left,left,4,0,2,left,1,0.8951059,None,speed,space,2.4455397,None,,,,,0,1,1,1,2,0,4,0,268.3762142,,,,,,,,,268.3618598,269.5773106,270.3792736,270.3613708,270.3618537,270.3792736,270.3792736,270.3792736,271.2808032,,,,,,,,,,,,,,,,,,,,,,,,,,,,,,left,1,0.8951059,None,,,,,sub-205,1,random_dot,59.86693974
right,right,5,1,2,right,1,0.5571232,None,speed,space,2.4455397,None,,,,,0,1,1,1,2,1,5,1,271.294941,,,,,,,,,271.2812638,272.0958422,272.8976156,272.880289,272.8808135,272.8976156,272.8976156,272.8976156,273.465208,,,,,,,,,,,,,,,,,,,,,,,,,,,,,,right,1,0.5571232,None,,,,,sub-205,1,random_dot,59.86693974
right,right,6,0,3,left,0,1.3521795,None,speed,space,2.4455397,None,,,,,0,1,1,1,3,0,6,1,273.4801915,,,,,,,,,273.4656655,274.6808781,275.4826499,275.4651378,275.465657,275.4826499,275.4826499,275.4826499,276.8503186,,,,,,,,,,,,,,,,,,,,,,,,,,,,,,left,0,1.3521795,None,,,,,sub-205,1,random_dot,59.86693974
left,left,7,1,3,left,1,1.2029476,None,speed,space,2.4455397,None,,,,,0,1,1,1,3,1,7,0,276.8656599,,,,,,,,,276.8508103,277.6500005,278.4512126,278.4337567,278.4342623,278.4512126,278.4512126,278.4512126,279.6692091,,,,,,,,,,,,,,,,,,,,,,,,,,,,,,left,1,1.2029476,None,,,,,sub-205,1,random_dot,59.86693974
left,left,8,0,4,left,1,0.9187703,None,speed,space,2.4455397,None,,,,,0,1,1,1,4,0,8,0,279.6842039,,,,,,,,,279.6697053,280.0347296,280.8361003,280.8188226,280.8193213,280.8361003,280.8361003,280.8361003,281.7711158,,,,,,,,,,,,,,,,,,,,,,,,,,,,,,left,1,0.9187703,None,,,,,sub-205,1,random_dot,59.86693974
right,right,9,1,4,right,1,0.6575639,None,speed,space,2.4455397,None,,,,,0,1,1,1,4,1,9,1,281.7855839,,,,,,,,,281.7716389,282.1357832,282.9374401,282.920019,282.9205206,282.9374401,282.9374401,282.9374401,283.6061375,,,,,,,,,,,,,,,,,,,,,,,,,,,,,,right,1,0.6575639,None,,,,,sub-205,1,random_dot,59.86693974
right,right,10,0,5,right,1,1.6626285,None,speed,space,2.4455397,None,,,,,0,1,1,1,5,0,10,1,283.61989,,,,,,,,,283.6066158,283.9704151,284.7722203,284.754907,284.7554464,284.7722203,284.7722203,284.7722203,286.4404191,,,,,,,,,,,,,,,,,,,,,,,,,,,,,,right,1,1.6626285,None,,,,,sub-205,1,random_dot,59.86693974
left,left,11,1,5,left,1,0.6174352,None,speed,space,2.4455397,None,,,,,0,1,1,1,5,1,11,0,286.4556237,,,,,,,,,286.4409224,286.8056123,287.6073335,287.5898228,287.5904623,287.6073335,287.6073335,287.6073335,288.2420071,,,,,,,,,,,,,,,,,,,,,,,,,,,,,,left,1,0.6174352,None,,,,,sub-205,1,random_dot,59.86693974
left,left,12,0,6,left,1,1.4664451,None,speed,space,2.4455397,None,,,,,0,1,1,1,6,0,12,0,288.2566755,,,,,,,,,288.2426122,288.3566988,289.1582245,289.1413638,289.1419039,289.1582245,289.1582245,289.1582245,290.6272603,,,,,,,,,,,,,,,,,,,,,,,,,,,,,,left,1,1.4664451,None,,,,,sub-205,1,random_dot,59.86693974
right,right,13,1,6,right,1,0.9107723,None,speed,space,2.4455397,None,,,,,0,1,1,1,6,1,13,1,290.6416715,,,,,,,,,290.6277664,291.4421737,292.2439344,292.2268632,292.227327,292.2439344,292.2439344,292.2439344,293.1617391,,,,,,,,,,,,,,,,,,,,,,,,,,,,,,right,1,0.9107723,None,,,,,sub-205,1,random_dot,59.86693974
left,left,14,0,7,left,1,1.0658896,None,speed,space,2.4455397,None,,,,,0,1,1,1,7,0,14,0,293.1768118,,,,,,,,,293.1622491,294.3776557,295.1795202,295.1620682,295.1624964,295.1795202,295.1795202,295.1795202,296.2479392,,,,,,,,,,,,,,,,,,,,,,,,,,,,,,left,1,1.0658896,None,,,,,sub-205,1,random_dot,59.86693974
right,right,15,1,7,right,1,0.7603781,None,speed,space,2.4455397,None,,,,,0,1,1,1,7,1,15,1,296.2619644,,,,,,,,,296.2484264,296.3624691,297.1645932,297.1468955,297.1476735,297.1645932,297.1645932,297.1645932,297.9317098,,,,,,,,,,,,,,,,,,,,,,,,,,,,,,right,1,0.7603781,None,,,,,sub-205,1,random_dot,59.86693974
left,left,16,0,8,left,1,0.6264956,None,speed,space,2.4455397,None,,,,,0,1,1,1,8,0,16,0,297.9464473,,,,,,,,,297.9322123,298.2971018,299.0987087,299.0812726,299.0817263,299.0987087,299.0987087,299.0987087,299.7330117,,,,,,,,,,,,,,,,,,,,,,,,,,,,,,left,1,0.6264956,None,,,,,sub-205,1,random_dot,59.86693974
right,right,17,1,8,right,1,0.5047345,None,speed,space,2.4455397,None,,,,,0,1,1,1,8,1,17,1,299.747972,,,,,,,,,299.7334757,299.847985,300.6495993,300.631963,300.632457,300.6495993,300.6495993,300.6495993,301.1675418,,,,,,,,,,,,,,,,,,,,,,,,,,,,,,right,1,0.5047345,None,,,,,sub-205,1,random_dot,59.86693974
right,right,18,0,9,right,1,0.5201422,None,speed,space,2.4455397,None,,,,,0,1,1,1,9,0,18,1,301.1824974,,,,,,,,,301.1680638,301.5321224,302.334412,302.3167161,302.3171693,302.334412,302.334412,302.334412,302.8684335,,,,,,,,,,,,,,,,,,,,,,,,,,,,,,right,1,0.5201422,None,,,,,sub-205,1,random_dot,59.86693974
left,left,19,1,9,left,1,0.7600309,None,speed,space,2.4455397,None,,,,,0,1,1,1,9,1,19,0,302.8832071,,,,,,,,,302.8689428,303.6843939,304.4857488,304.4682723,304.4687597,304.4857488,304.4857488,304.4857488,305.2534785,,,,,,,,,,,,,,,,,,,,,,,,,,,,,,left,1,0.7600309,None,,,,,sub-205,1,random_dot,59.86693974
left,left,20,0,10,right,0,2.2967005,None,speed,space,2.4455397,None,,,,,0,1,1,1,10,0,20,0,305.2687106,,,,,,,,,305.2539733,305.618431,306.420443,306.4032356,306.4037243,306.420443,306.420443,306.420443,308.7225503,,,,,,,,,,,,,,,,,,,,,,,,,,,,,,right,0,2.2967005,None,,,,,sub-205,1,random_dot,59.86693974
right,right,21,1,10,right,1,0.8862215,None,speed,space,2.4455397,None,,,,,0,1,1,1,10,1,21,1,308.7376005,,,,,,,,,308.7230521,309.0878561,309.8896891,309.8717669,309.8722942,309.8896891,309.8896891,309.8896891,310.7905942,,,,,,,,,,,,,,,,,,,,,,,,,,,,,,right,1,0.8862215,None,,,,,sub-205,1,random_dot,59.86693974
right,right,22,0,11,right,1,3.3685918,None,speed,space,2.4455397,None,,,,,0,1,1,1,11,0,22,1,310.8056492,,,,,,,,,310.791098,311.6063833,312.4078404,312.3904623,312.3909805,312.4078404,312.4078404,312.4078404,315.7943787,,,,,,,,,,,,,,,,,,,,,,,,,,,,,,right,1,3.3685918,None,,,,,sub-205,1,random_dot,59.86693974
left,left,23,1,11,left,1,0.8042964,None,speed,space,2.4455397,None,,,,,0,1,1,1,11,1,23,0,315.8091063,,,,,,,,,315.7950072,317.0098566,317.8117584,317.7943564,317.7948481,317.8117584,317.8117584,317.8117584,318.6293606,,,,,,,,,,,,,,,,,,,,,,,,,,,,,,left,1,0.8042964,None,,,,,sub-205,1,random_dot,59.86693974
right,right,24,0,12,right,1,0.8190667,None,speed,space,2.4455397,None,,,,,0,1,1,1,12,0,24,1,318.6445297,,,,,,,,,318.6299699,319.8452624,320.6469659,320.6294144,320.6298673,320.6469659,320.6469659,320.6469659,321.4814716,,,,,,,,,,,,,,,,,,,,,,,,,,,,,,right,1,0.8190667,None,,,,,sub-205,1,random_dot,59.86693974
left,left,25,1,12,left,1,0.7069769,None,speed,space,2.4455397,None,,,,,0,1,1,1,12,1,25,0,321.4960977,,,,,,,,,321.4820043,321.5960389,322.398498,322.3803453,322.3808094,322.398498,322.398498,322.398498,323.1155108,,,,,,,,,,,,,,,,,,,,,,,,,,,,,,left,1,0.7069769,None,,,,,sub-205,1,random_dot,59.86693974
left,left,26,0,13,right,0,1.7844034,None,speed,space,2.4455397,None,,,,,0,1,1,1,13,0,26,0,323.1309559,,,,,,,,,323.1160325,323.2305594,324.0322848,324.0145169,324.0149622,324.0322848,324.0322848,324.0322848,325.818958,,,,,,,,,,,,,,,,,,,,,,,,,,,,,,right,0,1.7844034,None,,,,,sub-205,1,random_dot,59.86693974
right,right,27,1,13,right,1,0.6204523,None,speed,space,2.4455397,None,,,,,0,1,1,1,13,1,27,1,325.8331343,,,,,,,,,325.8194451,327.0335835,327.8353642,327.8176102,327.8180652,327.8353642,327.8353642,327.8353642,328.4690514,,,,,,,,,,,,,,,,,,,,,,,,,,,,,,right,1,0.6204523,None,,,,,sub-205,1,random_dot,59.86693974
right,right,28,0,14,left,0,1.4597475,None,speed,space,2.4455397,None,,,,,0,1,1,1,14,0,28,1,328.4843415,,,,,,,,,328.4695844,328.8347762,329.6360416,329.6188575,329.6193112,329.6360416,329.6360416,329.6360416,331.1046383,,,,,,,,,,,,,,,,,,,,,,,,,,,,,,left,0,1.4597475,None,,,,,sub-205,1,random_dot,59.86693974
left,left,29,1,14,left,1,0.8944086,None,speed,space,2.4455397,None,,,,,0,1,1,1,14,1,29,0,331.1194388,,,,,,,,,331.1052413,331.4695859,332.2713835,332.2539765,332.2544806,332.2713835,332.2713835,332.2713835,333.1732655,,,,,,,,,,,,,,,,,,,,,,,,,,,,,,left,1,0.8944086,None,,,,,sub-205,1,random_dot,59.86693974
right,right,30,0,15,right,1,1.0050635,None,speed,space,2.4455397,None,,,,,0,1,1,1,15,0,30,1,333.1874584,,,,,,,,,333.1738143,333.9882447,334.7899204,334.7723726,334.7732003,334.7899204,334.7899204,334.7899204,335.8079603,,,,,,,,,,,,,,,,,,,,,,,,,,,,,,right,1,1.0050635,None,,,,,sub-205,1,random_dot,59.86693974
left,left,31,1,15,right,0,1.6011795,None,speed,space,2.4455397,None,,,,,0,1,1,1,15,1,31,0,335.8226586,,,,,,,,,335.8084481,335.9228408,336.7243783,336.7066305,336.7070506,336.7243783,336.7243783,336.7243783,338.342699,,,,,,,,,,,,,,,,,,,,,,,,,,,,,,right,0,1.6011795,None,,,,,sub-205,1,random_dot,59.86693974
left,left,32,0,16,left,1,1.0424833,None,speed,space,2.4455397,None,,,,,0,1,1,1,16,0,32,0,338.3577275,,,,,,,,,338.3432317,339.5420955,340.3429363,340.3256603,340.3261285,340.3429363,340.3429363,340.3429363,341.3951758,,,,,,,,,,,,,,,,,,,,,,,,,,,,,,left,1,1.0424833,None,,,,,sub-205,1,random_dot,59.86693974
right,right,33,1,16,right,1,1.043112,None,speed,space,2.4455397,None,,,,,0,1,1,1,16,1,33,1,341.4100496,,,,,,,,,341.395722,342.610323,343.4126716,343.3951524,343.3957127,343.4126716,343.4126716,343.4126716,344.4646384,,,,,,,,,,,,,,,,,,,,,,,,,,,,,,right,1,1.043112,None,,,,,sub-205,1,random_dot,59.86693974
right,right,34,0,17,right,1,1.5041995,None,speed,space,2.4455397,None,,,,,0,1,1,1,17,0,34,1,344.4788831,,,,,,,,,344.4653163,345.2792295,346.0814452,346.0638925,346.0644326,346.0814452,346.0814452,346.0814452,347.5993471,,,,,,,,,,,,,,,,,,,,,,,,,,,,,,right,1,1.5041995,None,,,,,sub-205,1,random_dot,59.86693974
left,left,35,1,17,left,1,2.8998179,None,speed,space,2.4455397,None,,,,,0,1,1,1,17,1,35,0,347.6140194,,,,,,,,,347.5998492,348.4149287,349.2165062,349.1992543,349.199756,349.2165062,349.2165062,349.2165062,352.1190604,,,,,,,,,,,,,,,,,,,,,,,,,,,,,,left,1,2.8998179,None,,,,,sub-205,1,random_dot,59.86693974
left,left,36,0,18,left,1,0.7992183,None,speed,space,2.4455397,None,,,,,0,1,1,1,18,0,36,0,352.1337128,,,,,,,,,352.1196084,353.3346956,354.1366555,354.1187702,354.119236,354.1366555,354.1366555,354.1366555,354.9382561,,,,,,,,,,,,,,,,,,,,,,,,,,,,,,left,1,0.7992183,None,,,,,sub-205,1,random_dot,59.86693974
right,right,37,1,18,right,1,0.9009389,None,speed,space,2.4455397,None,,,,,0,1,1,1,18,1,37,1,354.952698,,,,,,,,,354.9387668,355.3026574,356.1046385,356.087328,356.0878842,356.1046385,356.1046385,356.1046385,357.0224764,,,,,,,,,,,,,,,,,,,,,,,,,,,,,,right,1,0.9009389,None,,,,,sub-205,1,random_dot,59.86693974
left,left,38,0,19,left,1,1.7170003,None,speed,space,2.4455397,None,,,,,0,1,1,1,19,0,38,0,357.0370393,,,,,,,,,357.0231084,357.3873891,358.1889033,358.1718019,358.1722998,358.1889033,358.1889033,358.1889033,359.9080628,,,,,,,,,,,,,,,,,,,,,,,,,,,,,,left,1,1.7170003,None,,,,,sub-205,1,random_dot,59.86693974
right,right,39,1,19,right,1,0.7707201,None,speed,space,2.4455397,None,,,,,0,1,1,1,19,1,39,1,359.9225249,,,,,,,,,359.9085673,361.1237266,361.9250554,361.907868,361.908359,361.9250554,361.9250554,361.9250554,362.7097052,,,,,,,,,,,,,,,,,,,,,,,,,,,,,,right,1,0.7707201,None,,,,,sub-205,1,random_dot,59.86693974
right,right,40,0,20,right,1,0.7288893,None,speed,space,2.4455397,None,,,,,0,1,1,1,20,0,40,1,362.7241433,,,,,,,,,362.7101996,363.0744605,363.8767839,363.8592032,363.8596989,363.8767839,363.8767839,363.8767839,364.611068,,,,,,,,,,,,,,,,,,,,,,,,,,,,,,right,1,0.7288893,None,,,,,sub-205,1,random_dot,59.86693974
left,left,41,1,20,left,1,0.9673923,None,speed,space,2.4455397,None,,,,,0,1,1,1,20,1,41,0,364.6258729,,,,,,,,,364.6115978,364.9760196,365.7782521,365.7604461,365.7609138,365.7782521,365.7782521,365.7782521,366.7625473,,,,,,,,,,,,,,,,,,,,,,,,,,,,,,left,1,0.9673923,None,,,,,sub-205,1,random_dot,59.86693974
right,right,42,0,21,right,1,0.8855557,None,speed,space,2.4455397,None,,,,,0,1,1,1,21,0,42,1,366.7773433,,,,,,,,,366.7631025,367.1276419,367.929573,367.9118355,367.9123417,367.929573,367.929573,367.929573,368.8306881,,,,,,,,,,,,,,,,,,,,,,,,,,,,,,right,1,0.8855557,None,,,,,sub-205,1,random_dot,59.86693974
left,left,43,1,21,left,1,1.0277764,None,speed,space,2.4455397,None,,,,,0,1,1,1,21,1,43,0,368.8456363,,,,,,,,,368.8312236,368.9457919,369.7473601,369.7295613,369.730244,369.7473601,369.7473601,369.7473601,370.7818183,,,,,,,,,,,,,,,,,,,,,,,,,,,,,,left,1,1.0277764,None,,,,,sub-205,1,random_dot,59.86693974
left,left,44,0,22,right,0,3.9065447,None,speed,space,2.4455397,None,,,,,0,1,1,1,22,0,44,0,370.796301,,,,,,,,,370.7823037,370.8966852,371.6990241,371.6812543,371.681744,371.6990241,371.6990241,371.6990241,375.6185993,,,,,,,,,,,,,,,,,,,,,,,,,,,,,,right,0,3.9065447,None,,,,,sub-205,1,random_dot,59.86693974
right,right,45,1,22,right,1,2.40072,None,speed,space,2.4455397,None,,,,,0,1,1,1,22,1,45,1,375.6336134,,,,,,,,,375.6190721,375.7335298,376.5352065,376.5177893,376.5185573,376.5352065,376.5352065,376.5352065,378.9381468,,,,,,,,,,,,,,,,,,,,,,,,,,,,,,right,1,2.40072,None,,,,,sub-205,1,random_dot,59.86693974
right,right,46,0,23,right,1,4.7809378,None,speed,space,2.4455397,None,,,,,0,1,1,1,23,0,46,1,378.9522099,,,,,,,,,378.9386323,379.3023524,380.1045349,380.0869312,380.0874246,380.1045349,380.1045349,380.1045349,384.8918633,,,,,,,,,,,,,,,,,,,,,,,,,,,,,,right,1,4.7809378,None,,,,,sub-205,1,random_dot,59.86693974
left,left,47,1,23,right,0,1.6471557,None,speed,space,2.4455397,None,,,,,0,1,1,1,23,1,47,0,384.9064424,,,,,,,,,384.8924009,385.2564303,386.058365,386.0414116,386.0419368,386.058365,386.058365,386.058365,387.7097898,,,,,,,,,,,,,,,,,,,,,,,,,,,,,,right,0,1.6471557,None,,,,,sub-205,1,random_dot,59.86693974
left,left,48,0,24,left,1,0.8352893,None,speed,space,2.4455397,None,,,,,0,1,1,1,24,0,48,0,387.7250513,,,,,,,,,387.7103039,388.5090018,389.3107316,389.29351,389.2940076,389.3107316,389.3107316,389.3107316,390.1618419,,,,,,,,,,,,,,,,,,,,,,,,,,,,,,left,1,0.8352893,None,,,,,sub-205,1,random_dot,59.86693974
right,right,49,1,24,right,1,1.5059488,None,speed,space,2.4455397,None,,,,,0,1,1,1,24,1,49,1,390.176987,,,,,,,,,390.162405,390.9774817,391.7792947,391.7616068,391.762064,391.7792947,391.7792947,391.7792947,393.2974035,,,,,,,,,,,,,,,,,,,,,,,,,,,,,,right,1,1.5059488,None,,,,,sub-205,1,random_dot,59.86693974
left,left,50,0,25,right,0,1.9398968,None,speed,space,2.4455397,None,,,,,0,1,1,1,25,0,50,0,393.3118005,,,,,,,,,393.2978845,394.5129731,395.3152104,395.2973727,395.2978039,395.3152104,395.3152104,395.3152104,397.2664708,,,,,,,,,,,,,,,,,,,,,,,,,,,,,,right,0,1.9398968,None,,,,,sub-205,1,random_dot,59.86693974
right,right,51,1,25,right,1,1.2018764,None,speed,space,2.4455397,None,,,,,0,1,1,1,25,1,51,1,397.281111,,,,,,,,,397.2669431,398.0822236,398.8842595,398.8663822,398.86692,398.8842595,398.8842595,398.8842595,400.1024915,,,,,,,,,,,,,,,,,,,,,,,,,,,,,,right,1,1.2018764,None,,,,,sub-205,1,random_dot,59.86693974
right,right,52,0,26,right,1,2.4677675,None,speed,space,2.4455397,None,,,,,0,1,1,1,26,0,52,1,400.1167774,,,,,,,,,400.102972,400.4671271,401.2689858,401.2513075,401.2517059,401.2689858,401.2689858,401.2689858,403.7386031,,,,,,,,,,,,,,,,,,,,,,,,,,,,,,right,1,2.4677675,None,,,,,sub-205,1,random_dot,59.86693974
left,left,53,1,26,left,1,1.2821235,None,speed,space,2.4455397,None,,,,,0,1,1,1,26,1,53,0,403.7531912,,,,,,,,,403.7390709,404.9537111,405.7556315,405.7374436,405.7379415,405.7556315,405.7556315,405.7556315,407.0409106,,,,,,,,,,,,,,,,,,,,,,,,,,,,,,left,1,1.2821235,None,,,,,sub-205,1,random_dot,59.86693974
left,left,54,0,27,left,1,1.5183895,None,speed,space,2.4455397,None,,,,,0,1,1,1,27,0,54,0,407.0550737,,,,,,,,,407.0417235,407.8554998,408.657393,408.6397301,408.6402598,408.657393,408.657393,408.657393,410.1921789,,,,,,,,,,,,,,,,,,,,,,,,,,,,,,left,1,1.5183895,None,,,,,sub-205,1,random_dot,59.86693974
right,right,55,1,27,right,1,0.9867381,None,speed,space,2.4455397,None,,,,,0,1,1,1,27,1,55,1,410.206777,,,,,,,,,410.1926439,410.3068746,411.1089701,411.0912082,411.0916347,411.1089701,411.1089701,411.1089701,412.110338,,,,,,,,,,,,,,,,,,,,,,,,,,,,,,right,1,0.9867381,None,,,,,sub-205,1,random_dot,59.86693974
left,left,56,0,28,left,1,2.3191939,None,speed,space,2.4455397,None,,,,,0,1,1,1,28,0,56,0,412.1248879,,,,,,,,,412.1106709,412.9259844,413.7274103,413.7100749,413.7108479,413.7274103,413.7274103,413.7274103,416.0629873,,,,,,,,,,,,,,,,,,,,,,,,,,,,,,left,1,2.3191939,None,,,,,sub-205,1,random_dot,59.86693974
right,right,57,1,28,right,1,1.5363232,None,speed,space,2.4455397,None,,,,,0,1,1,1,28,1,57,1,416.0780102,,,,,,,,,416.0634892,416.878344,417.6802103,417.6627268,417.6632679,417.6802103,417.6802103,417.6802103,419.2319906,,,,,,,,,,,,,,,,,,,,,,,,,,,,,,right,1,1.5363232,None,,,,,sub-205,1,random_dot,59.86693974
right,right,58,0,29,right,1,4.6277922,None,speed,space,2.4455397,None,,,,,0,1,1,1,29,0,58,1,419.2467083,,,,,,,,,419.2327998,419.3470256,420.1485787,420.1310586,420.1315486,420.1485787,420.1485787,420.1485787,424.7856508,,,,,,,,,,,,,,,,,,,,,,,,,,,,,,right,1,4.6277922,None,,,,,sub-205,1,random_dot,59.86693974
left,left,59,1,29,left,1,0.8542954,None,speed,space,2.4455397,None,,,,,0,1,1,1,29,1,59,0,424.8007836,,,,,,,,,424.7861743,425.1506974,425.9525402,425.9350717,425.9356016,425.9525402,425.9525402,425.9525402,426.8202394,,,,,,,,,,,,,,,,,,,,,,,,,,,,,,left,1,0.8542954,None,,,,,sub-205,1,random_dot,59.86693974
,,1,1,0,,,,,speed,space,2.4455397,None,,,,,0,1,1,1,,,,,,,,,,,,,,,,,,,,,,,,,,,,,,,,,,,,,,,,,,,,,,,,,,,,,,,,,,,,sub-205,1,random_dot,59.86693974
,,,,,,,,,,,,,,,,,,,,,,,,,,,,,,,,,,,,,,,,,,,,,,,,,,,,,,,,,,,,,,,,,,,,,,,,,,,,,426.8266277,426.8351891,431.8224835,sub-205,1,random_dot,59.86693974
