direction,corrAns,randomInstr,practice_trials.thisRepN,practice_trials.thisTrialN,practice_trials.thisN,practice_trials.thisIndex,instr_trials.thisRepN,instr_trials.thisTrialN,instr_trials.thisN,instr_trials.thisIndex,test_trials.thisRepN,test_trials.thisTrialN,test_trials.thisN,test_trials.thisIndex,thisRow.t,notes,general_instruction.started,textGeneralInstr.started,respGeneralInstr.started,general_instruction.stopped,respGeneralInstr.keys,respGeneralInstr.rt,respGeneralInstr.duration,ITI.started,fixcross.started,fixcross.stopped,ITI.stopped,dots.started,backgroundDots.started,stimulusDots.started,respDots.started,stimulusDots.stopped,dots.stopped,respDots.keys,respDots.corr,respDots.rt,respDots.duration,feedback.started,textFeedback.started,feedback.stopped,textFeedback.stopped,info.started,textInfo.started,keyRespInfo.started,info.stopped,keyRespInfo.keys,keyRespInfo.rt,keyRespInfo.duration,test_instruction.started,textTestInstr.started,respTestInstr.started,test_instruction.stopped,respTestInstr.keys,respTestInstr.rt,respTestInstr.duration,random_instruction.started,textRandomInstr.started,respRandomInstr.started,random_instruction.stopped,respRandomInstr.keys,respRandomInstr.rt,respRandomInstr.duration,goodbye.started,textGoodbye.started,textGoodbye.stopped,goodbye.stopped,participant,session,expName,frameRate,Unnamed: 74
,,,,,,,,,,,,,,,,,0.0097971999999799,0.0188342999999804,0.0188342999999804,44.11983399999997,space,73.6783767,0.0019123000000149,,,,,,,,,,,,,,,,,,,,,,,,,,,,,,,,,,,,,,,,,,,,sub-026,1.0,random_dot,60.01752511734461,
left,left,,0.0,0.0,0.0,0.0,,,,,,,,,44.183464500000014,,,,,,,,,44.17424879999999,44.23388449999999,45.0435276,45.018660599999976,45.01869119999998,45.0435276,45.0435276,45.0435276,50.02293199999997,54.31133110000002,right,0.0,38.84662089999995,,54.31357780000002,54.341527499999984,54.8249533,,,,,,,,,,,,,,,,,,,,,,,,,,,sub-026,1.0,random_dot,60.01752511734461,
right,right,,0.0,1.0,1.0,1.0,,,,,,,,,54.84139899999997,,,,,,,,,54.82573070000001,55.62496199999998,56.42762140000002,56.40991049999997,56.40993839999999,56.42762140000002,56.42762140000002,56.42762140000002,,58.94687950000002,right,1.0,32.09195820000002,,58.94748870000001,58.96289760000002,59.46145189999999,,,,,,,,,,,,,,,,,,,,,,,,,,,sub-026,1.0,random_dot,60.01752511734461,
left,left,,1.0,0.0,2.0,0.0,,,,,,,,,59.478100600000005,,,,,,,,,59.4624743,60.26191399999999,61.06404620000001,61.046834399999966,61.04686939999999,61.06404620000001,61.06404620000001,61.06404620000001,,64.1174825,right,0.0,32.625647300000026,,64.11850429999998,64.13085050000001,64.6157566,64.63143739999998,,,,,,,,,,,,,,,,,,,,,,,,,,sub-026,1.0,random_dot,60.01752511734461,
right,right,,1.0,1.0,3.0,1.0,,,,,,,,,64.63143739999998,,,,,,,,,64.61647720000002,64.98192460000001,65.7839075,65.76698499999998,65.76703170000002,65.7839075,65.7839075,65.7839075,,68.00359120000002,right,1.0,31.80611319999997,,68.00462879999998,68.0171037,68.50225589999997,68.5174581,,,,,,,,,,,,,,,,,,,,,,,,,,sub-026,1.0,random_dot,60.01752511734461,
right,right,,2.0,0.0,4.0,1.0,,,,,,,,,68.5174581,,,,,,,,,68.50302879999998,68.86768319999999,69.6696609,69.65303660000001,69.65307580000001,69.6696609,69.6696609,69.6696609,,72.7242986,right,1.0,32.63049849999999,,72.72521519999998,72.73709769999999,73.22198479999997,73.2375376,,,,,,,,,,,,,,,,,,,,,,,,,,sub-026,1.0,random_dot,60.01752511734461,
left,left,,2.0,1.0,5.0,0.0,,,,,,,,,73.2375376,,,,,,,,,73.22272850000002,74.03784079999997,74.84013809999999,74.8230734,74.82311010000001,74.84013809999999,74.84013809999999,74.84013809999999,,77.29416629999997,left,1.0,32.02976469999999,,77.29487289999997,77.30705749999998,77.79175759999998,77.80726169999997,,,,,,,,,,,,,,,,,,,,,,,,,,sub-026,1.0,random_dot,60.01752511734461,
left,left,,3.0,0.0,6.0,0.0,,,,,,,,,77.80726169999997,,,,,,,,,77.79234639999999,77.90716800000001,78.70953709999998,78.69197989999998,78.69200139999998,78.70953709999998,78.70953709999998,78.70953709999998,,80.76323300000001,left,1.0,31.64162289999996,,80.76416740000002,80.77591839999997,81.26090929999998,81.27646329999999,,,,,,,,,,,,,,,,,,,,,,,,,,sub-026,1.0,random_dot,60.01752511734461,
right,right,,3.0,1.0,7.0,1.0,,,,,,,,,81.27646329999999,,,,,,,,,81.26171569999997,82.46695799999998,83.26882639999997,83.25230640000001,83.25233539999999,83.26882639999997,83.26882639999997,83.26882639999997,88.26880599999998,90.587604,right,1.0,36.901805699999954,,90.5893643,90.59920469999996,91.08522670000002,91.0998153,,,,,,,,,,,,,,,,,,,,,,,,,,sub-026,1.0,random_dot,60.01752511734461,
right,right,,4.0,0.0,8.0,1.0,,,,,,,,,91.0998153,,,,,,,,,91.0859031,91.9002378,92.70231510000002,92.68543060000002,92.68546550000002,92.70231510000002,92.70231510000002,92.70231510000002,,94.87246720000002,left,0.0,31.748259099999984,,94.87343579999998,94.8856672,95.37078150000002,95.3863756,,,,,,,,,,,,,,,,,,,,,,,,,,sub-026,1.0,random_dot,60.01752511734461,
left,left,,4.0,1.0,9.0,0.0,,,,,,,,,95.3863756,,,,,,,,,95.3716485,95.48610229999996,96.2881097,96.2713117,96.27135090000002,96.2881097,96.2881097,96.2881097,,97.75773449999996,left,1.0,31.04214589999998,,97.75868730000002,97.77101770000002,98.2596886,98.27136259999996,,,,,,,,,,,,,,,,,,,,,,,,,,sub-026,1.0,random_dot,60.01752511734461,
left,left,,5.0,0.0,10.0,0.0,,,,,,,,,98.27136259999996,,,,,,,,,98.26050049999998,98.62150839999998,99.4237566,99.4074367,99.40747879999998,99.4237566,99.4237566,99.4237566,,101.66138009999996,left,1.0,31.816964499999983,,101.66276019999998,101.6735481,102.15895969999995,102.17411019999996,,,,,,,,,,,,,,,,,,,,,,,,,,sub-026,1.0,random_dot,60.01752511734461,
right,right,,5.0,1.0,11.0,1.0,,,,,,,,,102.17411019999996,,,,,,,,,102.1597693,102.97498280000002,103.7769328,103.75993139999996,103.7599687,103.7769328,103.7769328,103.7769328,,107.21475529999998,right,1.0,33.01305080000003,,107.21628119999995,107.22775259999996,107.71264559999996,107.7279767,,,,,,,,,,,,,,,,,,,,,,,,,,sub-026,1.0,random_dot,60.01752511734461,
right,right,,6.0,0.0,12.0,1.0,,,,,,,,,107.7279767,,,,,,,,,107.7133136,107.8279066,108.6300511,108.61381869999995,108.61385869999998,108.6300511,108.6300511,108.6300511,,110.2000182,right,1.0,31.150199499999985,,110.20141080000002,110.2132942,110.6982739,110.71334050000002,,,,,,,,,,,,,,,,,,,,,,,,,,sub-026,1.0,random_dot,60.01752511734461,
left,left,,6.0,1.0,13.0,0.0,,,,,,,,,110.71334050000002,,,,,,,,,110.69896089999996,111.51371690000002,112.3160365,112.2988873,112.29892130000002,112.3160365,112.3160365,112.3160365,,114.50434660000002,left,1.0,31.774672399999982,,114.50529640000002,114.51605,115.00162089999998,115.01659030000002,,,,,,,,,,,,,,,,,,,,,,,,,,sub-026,1.0,random_dot,60.01752511734461,
left,left,,7.0,0.0,14.0,0.0,,,,,,,,,115.01659030000002,,,,,,,,,115.0023696,115.11646939999996,115.9183241,115.9015991,115.90163940000002,115.9183241,115.9183241,115.9183241,,119.9738372,right,0.0,33.63212730000004,,119.97485869999996,119.9876388,120.4714651,120.48671509999996,,,,,,,,,,,,,,,,,,,,,,,,,,sub-026,1.0,random_dot,60.01752511734461,
right,right,,7.0,1.0,15.0,1.0,,,,,,,,,120.48671509999996,,,,,,,,,120.4721862,121.2870861,122.0893281,122.07248850000002,122.0725278,122.0893281,122.0893281,122.0893281,,124.743427,right,1.0,32.23072380000002,,124.74448539999996,124.7579258,125.257633,,,,,,,,,,,,,,,,,,,,,,,,,,,sub-026,1.0,random_dot,60.01752511734461,
left,left,,8.0,0.0,16.0,0.0,,,,,,,,,125.27338529999996,,,,,,,,,125.2583611,126.4575153,127.2595215,127.2433444,127.2434131,127.2595215,127.2595215,127.2595215,,130.11368019999998,right,0.0,32.430573700000025,,130.1148839,130.12703349999998,130.61174339999997,130.62721670000002,,,,,,,,,,,,,,,,,,,,,,,,,,sub-026,1.0,random_dot,60.01752511734461,
right,right,,8.0,1.0,17.0,1.0,,,,,,,,,130.62721670000002,,,,,,,,,130.6125298,131.4274517,132.2296212,132.21358270000002,132.21362319999997,132.2296212,132.2296212,132.2296212,,134.8507227,left,0.0,32.20177080000002,,134.85176509999997,134.86394789999997,135.348811,135.36379189999997,,,,,,,,,,,,,,,,,,,,,,,,,,sub-026,1.0,random_dot,60.01752511734461,
left,left,,9.0,0.0,18.0,0.0,,,,,,,,,135.36379189999997,,,,,,,,,135.34954240000002,135.46385399999997,136.26609050000002,136.2492833,136.249323,136.26609050000002,136.26609050000002,136.26609050000002,,137.8189483,left,1.0,31.124858300000028,,137.8198924,137.83234140000002,138.3175114,138.3325433,,,,,,,,,,,,,,,,,,,,,,,,,,sub-026,1.0,random_dot,60.01752511734461,
right,right,,9.0,1.0,19.0,1.0,,,,,,,,,138.3325433,,,,,,,,,138.3182316,138.4325816,139.23477630000002,139.2182423,139.2182947,139.23477630000002,139.23477630000002,139.23477630000002,,141.5552995,right,1.0,31.895839199999955,,141.5562236,141.5695151,142.0688899,,,,,,,,,,,,,,,,,,,,,,,,,,,sub-026,1.0,random_dot,60.01752511734461,
,,,,,,,,,,,,,,,,,,,,,,,,,,,,,,,,,,,,,,,,,,142.0690877,142.0856256,142.0856256,151.46108779999997,space,38.95466239999996,,,,,,,,,,,,,,,,,,,,sub-026,1.0,random_dot,60.01752511734461,
,,,,,,,,,,,,,,,,,,,,,,,,,,,,,,,,,,,,,,,,,,,,,,,,,151.46123,151.47517749999997,151.47517749999997,158.95017510000002,space,37.04602699999992,,,,,,,,,,,,,sub-026,1.0,random_dot,60.01752511734461,
left,left,speed,,,,,0.0,0.0,0.0,1.0,0.0,0.0,0.0,0.0,165.3090092,,,,,,,,,165.3043328,165.65163570000004,166.45361189999994,166.4364971,166.43659330000003,166.45361189999994,166.45361189999994,166.45361189999994,,168.92384100000004,right,0.0,32.05669110000002,,,,,,,,,,,,,,,,,,,,158.96452009999996,159.01228100000003,159.01228100000003,165.28808149999998,space,35.85935050000006,,,,,,sub-026,1.0,random_dot,60.01752511734461,
right,right,speed,,,,,0.0,0.0,0.0,1.0,0.0,1.0,1.0,1.0,168.93729240000005,,,,,,,,,168.9261881,169.28749759999994,170.0892725,170.07229029999996,170.072318,170.0892725,170.0892725,170.0892725,,172.57653630000004,right,1.0,32.071913499999994,,,,,,,,,,,,,,,,,,,,,,,,,,,,,,,sub-026,1.0,random_dot,60.01752511734461,
right,right,speed,,,,,0.0,0.0,0.0,1.0,1.0,0.0,2.0,1.0,172.58964679999997,,,,,,,,,172.5786336,172.689752,173.49172929999995,173.47505149999995,173.47511810000003,173.49172929999995,173.49172929999995,173.49172929999995,178.47864689999994,179.68306459999997,left,0.0,35.768702700000006,,,,,,,,,,,,,,,,,,,,,,,,,,,,,,,sub-026,1.0,random_dot,60.01752511734461,
left,left,speed,,,,,0.0,0.0,0.0,1.0,1.0,1.0,3.0,0.0,179.6950177,,,,,,,,,179.6848301,180.0450806,180.8470615,180.8298849,180.8299369,180.8470615,180.8470615,180.8470615,,183.1333075,left,1.0,31.86324739999992,,,,,,,,,,,,,,,,,,,,,,,,,,,,,,,sub-026,1.0,random_dot,60.01752511734461,
right,right,speed,,,,,0.0,0.0,0.0,1.0,2.0,0.0,4.0,1.0,183.14701560000003,,,,,,,,,183.1350719,184.3477819,185.149768,185.1325118,185.1325468,185.149768,185.149768,185.149768,,188.67043679999995,right,1.0,33.10106719999993,,,,,,,,,,,,,,,,,,,,,,,,,,,,,,,sub-026,1.0,random_dot,60.01752511734461,
left,left,speed,,,,,0.0,0.0,0.0,1.0,2.0,1.0,5.0,0.0,188.6841769,,,,,,,,,188.67267359999997,188.78429570000003,189.58626000000004,189.5694586,189.56949540000005,189.58626000000004,189.58626000000004,189.58626000000004,,192.42433240000005,left,1.0,32.42551980000002,,,,,,,,,,,,,,,,,,,,,,,,,,,,,,,sub-026,1.0,random_dot,60.01752511734461,
left,left,speed,,,,,0.0,0.0,0.0,1.0,3.0,0.0,6.0,0.0,192.43689399999997,,,,,,,,,192.42598309999997,193.2372795,194.0393156,194.02273690000004,194.0227778,194.0393156,194.0393156,194.0393156,,197.32691450000004,right,0.0,32.86155880000007,,,,,,,,,,,,,,,,,,,,,,,,,,,,,,,sub-026,1.0,random_dot,60.01752511734461,
right,right,speed,,,,,0.0,0.0,0.0,1.0,3.0,1.0,7.0,1.0,197.34050660000003,,,,,,,,,197.3288524,197.4404309,198.24270590000003,198.2255199,198.22556310000004,198.24270590000003,198.24270590000003,198.24270590000003,,199.6630044,right,1.0,30.997918799999923,,,,,,,,,,,,,,,,,,,,,,,,,,,,,,,sub-026,1.0,random_dot,60.01752511734461,
left,left,speed,,,,,0.0,0.0,0.0,1.0,4.0,0.0,8.0,0.0,199.67662800000005,,,,,,,,,199.6680275,200.02528570000004,200.8274435,200.810079,200.8101085,200.8274435,200.8274435,200.8274435,,202.8653952,left,1.0,31.613626600000032,,,,,,,,,,,,,,,,,,,,,,,,,,,,,,,sub-026,1.0,random_dot,60.01752511734461,
right,right,speed,,,,,0.0,0.0,0.0,1.0,4.0,1.0,9.0,1.0,202.8773857,,,,,,,,,202.8698165,202.977315,203.7798086,203.763187,203.7632343,203.7798086,203.7798086,203.7798086,,205.36603390000005,right,1.0,31.17071540000001,,,,,,,,,,,,,,,,,,,,,,,,,,,,,,,sub-026,1.0,random_dot,60.01752511734461,
right,right,speed,,,,,0.0,0.0,0.0,1.0,5.0,0.0,10.0,1.0,205.3791714,,,,,,,,,205.36863229999997,206.5800601,207.3822014,207.36512129999997,207.3651675,207.3822014,207.3822014,207.3822014,,208.9520537,right,1.0,31.150205599999996,,,,,,,,,,,,,,,,,,,,,,,,,,,,,,,sub-026,1.0,random_dot,60.01752511734461,
left,left,speed,,,,,0.0,0.0,0.0,1.0,5.0,1.0,11.0,0.0,208.9647378,,,,,,,,,208.9533407,209.0648576,209.8669778,209.8496103,209.84963430000005,209.8669778,209.8669778,209.8669778,,212.28709760000004,left,1.0,32.00411790000004,,,,,,,,,,,,,,,,,,,,,,,,,,,,,,,sub-026,1.0,random_dot,60.01752511734461,
left,left,speed,,,,,0.0,0.0,0.0,1.0,6.0,0.0,12.0,0.0,212.3005618,,,,,,,,,212.28816240000003,212.4007141,213.2025052,213.1854571,213.1854895,213.2025052,213.2025052,213.2025052,,215.75602530000003,right,0.0,32.13806130000006,,,,,,,,,,,,,,,,,,,,,,,,,,,,,,,sub-026,1.0,random_dot,60.01752511734461,
right,right,speed,,,,,0.0,0.0,0.0,1.0,6.0,1.0,13.0,1.0,215.769765,,,,,,,,,215.75787519999997,215.86996910000005,216.6715035,216.655303,216.65538360000005,216.6715035,216.6715035,216.6715035,,218.3753942,right,1.0,31.27990059999996,,,,,,,,,,,,,,,,,,,,,,,,,,,,,,,sub-026,1.0,random_dot,60.01752511734461,
left,left,speed,,,,,0.0,0.0,0.0,1.0,7.0,0.0,14.0,0.0,218.38810679999995,,,,,,,,,218.37781399999997,218.48803780000003,219.2901088,219.2732245,219.2732685,219.2901088,219.2901088,219.2901088,,220.92662269999997,left,1.0,31.210704499999963,,,,,,,,,,,,,,,,,,,,,,,,,,,,,,,sub-026,1.0,random_dot,60.01752511734461,
right,right,speed,,,,,0.0,0.0,0.0,1.0,7.0,1.0,15.0,1.0,220.9398586,,,,,,,,,220.9282723,222.14053019999997,222.9426622,222.9264111,222.92644929999997,222.9426622,222.9426622,222.9426622,,225.0791236,right,1.0,31.708907199999945,,,,,,,,,,,,,,,,,,,,,,,,,,,,,,,sub-026,1.0,random_dot,60.01752511734461,
left,left,speed,,,,,0.0,0.0,0.0,1.0,8.0,0.0,16.0,0.0,225.09274200000004,,,,,,,,,225.08094600000004,225.4428421,226.24521660000005,226.2281224,226.2281507,226.24521660000005,226.24521660000005,226.24521660000005,,229.099531,left,1.0,32.42581810000007,,,,,,,,,,,,,,,,,,,,,,,,,,,,,,,sub-026,1.0,random_dot,60.01752511734461,
right,right,speed,,,,,0.0,0.0,0.0,1.0,8.0,1.0,17.0,1.0,229.11218180000003,,,,,,,,,229.1012726,229.9128519,230.7147963,230.6981217,230.6981618,230.7147963,230.7147963,230.7147963,,233.28523870000004,right,1.0,32.15592620000001,,,,,,,,,,,,,,,,,,,,,,,,,,,,,,,sub-026,1.0,random_dot,60.01752511734461,
left,left,speed,,,,,0.0,0.0,0.0,1.0,9.0,0.0,18.0,0.0,233.2983227,,,,,,,,,233.2879181,233.6486337,234.45057510000004,234.4338498,234.4338954,234.45057510000004,234.45057510000004,234.45057510000004,,236.8047464,left,1.0,31.94159219999989,,,,,,,,,,,,,,,,,,,,,,,,,,,,,,,sub-026,1.0,random_dot,60.01752511734461,
right,right,speed,,,,,0.0,0.0,0.0,1.0,9.0,1.0,19.0,1.0,236.8177386,,,,,,,,,236.80634999999995,238.0181735,238.820739,238.8035049,238.80353560000003,238.820739,238.820739,238.820739,,241.72414360000005,right,1.0,32.489903500000025,,,,,,,,,,,,,,,,,,,,,,,,,,,,,,,sub-026,1.0,random_dot,60.01752511734461,
left,left,speed,,,,,0.0,0.0,0.0,1.0,10.0,0.0,20.0,0.0,241.7376962,,,,,,,,,241.7259624,241.837633,242.6395122,242.62386560000004,242.62390300000004,242.6395122,242.6395122,242.6395122,,244.6767665,left,1.0,31.621148499999947,,,,,,,,,,,,,,,,,,,,,,,,,,,,,,,sub-026,1.0,random_dot,60.01752511734461,
right,right,speed,,,,,0.0,0.0,0.0,1.0,10.0,1.0,21.0,1.0,244.6897494,,,,,,,,,244.67878440000004,244.78969499999997,245.59184370000003,245.5754091,245.57548640000005,245.59184370000003,245.59184370000003,245.59184370000003,,248.26264630000003,right,1.0,32.249022000000025,,,,,,,,,,,,,,,,,,,,,,,,,,,,,,,sub-026,1.0,random_dot,60.01752511734461,
left,left,speed,,,,,0.0,0.0,0.0,1.0,11.0,0.0,22.0,0.0,248.2752707,,,,,,,,,248.26454349999997,249.07595000000003,249.87777559999995,249.8605484,249.8605692,249.87777559999995,249.87777559999995,249.87777559999995,,253.29864380000004,right,0.0,33.00331079999995,,,,,,,,,,,,,,,,,,,,,,,,,,,,,,,sub-026,1.0,random_dot,60.01752511734461,
right,right,speed,,,,,0.0,0.0,0.0,1.0,11.0,1.0,23.0,1.0,253.3122681,,,,,,,,,253.30050800000004,254.1128841,254.91515990000005,254.89812199999997,254.89816699999997,254.91515990000005,254.91515990000005,254.91515990000005,,256.885132,right,1.0,31.545638300000007,,,,,,,,,,,,,,,,,,,,,,,,,,,,,,,sub-026,1.0,random_dot,60.01752511734461,
right,right,speed,,,,,0.0,0.0,0.0,1.0,12.0,0.0,24.0,1.0,256.89814850000005,,,,,,,,,256.8867937,258.0989258,258.9009946,258.8842638,258.88429870000004,258.9009946,258.9009946,258.9009946,,261.4375272,right,1.0,32.11023210000002,,,,,,,,,,,,,,,,,,,,,,,,,,,,,,,sub-026,1.0,random_dot,60.01752511734461,
left,left,speed,,,,,0.0,0.0,0.0,1.0,12.0,1.0,25.0,0.0,261.45132979999994,,,,,,,,,261.4389897,261.55152,262.3534466,262.3364315,262.3364673,262.3534466,262.3534466,262.3534466,,263.9399085,left,1.0,31.16791619999998,,,,,,,,,,,,,,,,,,,,,,,,,,,,,,,sub-026,1.0,random_dot,60.01752511734461,
right,right,speed,,,,,0.0,0.0,0.0,1.0,13.0,0.0,26.0,1.0,263.9528901,,,,,,,,,263.9418509,264.7536844,265.55584639999995,265.5386383,265.5386776,265.55584639999995,265.55584639999995,265.55584639999995,,268.41025490000004,right,1.0,32.435076700000025,,,,,,,,,,,,,,,,,,,,,,,,,,,,,,,sub-026,1.0,random_dot,60.01752511734461,
left,left,speed,,,,,0.0,0.0,0.0,1.0,13.0,1.0,27.0,0.0,268.42261599999995,,,,,,,,,268.4121312,269.62351650000005,270.42560000000003,270.40879069999994,270.40882780000004,270.42560000000003,270.42560000000003,270.42560000000003,,274.1968813,left,1.0,33.34530130000002,,,,,,,,,,,,,,,,,,,,,,,,,,,,,,,sub-026,1.0,random_dot,60.01752511734461,
left,left,speed,,,,,0.0,0.0,0.0,1.0,14.0,0.0,28.0,0.0,274.2103912,,,,,,,,,274.1988147,274.56035569999995,275.36239149999994,275.34558159999995,275.34562200000005,275.36239149999994,275.36239149999994,275.36239149999994,,277.1985363,right,0.0,31.4089429,,,,,,,,,,,,,,,,,,,,,,,,,,,,,,,sub-026,1.0,random_dot,60.01752511734461,
right,right,speed,,,,,0.0,0.0,0.0,1.0,14.0,1.0,29.0,1.0,277.21247989999995,,,,,,,,,277.20039899999995,278.41297410000004,279.21508400000005,279.197738,279.19778699999995,279.21508400000005,279.21508400000005,279.21508400000005,,282.18678980000004,left,0.0,32.55638030000006,,,,,,,,,,,,,,,,,,,,,,,,,,,,,,,sub-026,1.0,random_dot,60.01752511734461,
left,left,speed,,,,,0.0,0.0,0.0,1.0,15.0,0.0,30.0,0.0,282.1990558,,,,,,,,,282.18860570000004,282.9994421,283.8015467,283.7849093,283.7849595,283.8015467,283.8015467,283.8015467,,285.7047599,right,0.0,31.480038800000045,,,,,,,,,,,,,,,,,,,,,,,,,,,,,,,sub-026,1.0,random_dot,60.01752511734461,
right,right,speed,,,,,0.0,0.0,0.0,1.0,15.0,1.0,31.0,1.0,285.7181085,,,,,,,,,285.7066589,286.91903549999995,287.72088440000005,287.703973,287.7040094,287.72088440000005,287.72088440000005,287.72088440000005,292.70810830000005,293.3435789,right,1.0,35.200170900000046,,,,,,,,,,,,,,,,,,,,,,,,,,,,,,,sub-026,1.0,random_dot,60.01752511734461,
left,left,speed,,,,,0.0,0.0,0.0,1.0,16.0,0.0,32.0,0.0,293.35675419999995,,,,,,,,,293.34552440000004,294.55755120000003,295.3596874,295.3429906,295.3430287,295.3596874,295.3596874,295.3596874,,296.9631259,left,1.0,31.181850999999995,,,,,,,,,,,,,,,,,,,,,,,,,,,,,,,sub-026,1.0,random_dot,60.01752511734461,
right,right,speed,,,,,0.0,0.0,0.0,1.0,16.0,1.0,33.0,1.0,296.9752496,,,,,,,,,296.9648211,297.32618019999995,298.1284121,298.1116111,298.1116498,298.1284121,298.1284121,298.1284121,,299.5481561,right,1.0,31.00345969999995,,,,,,,,,,,,,,,,,,,,,,,,,,,,,,,sub-026,1.0,random_dot,60.01752511734461,
left,left,speed,,,,,0.0,0.0,0.0,1.0,17.0,0.0,34.0,0.0,299.560844,,,,,,,,,299.550526,299.6609535,300.4629079,300.4464414,300.4464951,300.4629079,300.4629079,300.4629079,,301.1173225,right,0.0,30.22869910000003,,,,,,,,,,,,,,,,,,,,,,,,,,,,,,,sub-026,1.0,random_dot,60.01752511734461,
right,right,speed,,,,,0.0,0.0,0.0,1.0,17.0,1.0,35.0,1.0,301.1288743,,,,,,,,,301.1194892,301.4789514,302.281017,302.26409420000005,302.2641333,302.281017,302.281017,302.281017,,304.06769369999995,left,0.0,31.360178500000018,,,,,,,,,,,,,,,,,,,,,,,,,,,,,,,sub-026,1.0,random_dot,60.01752511734461,
right,right,speed,,,,,0.0,0.0,0.0,1.0,18.0,0.0,36.0,1.0,304.08084540000004,,,,,,,,,304.06974690000004,304.88141,305.6835224,305.66658270000005,305.6666209,305.6835224,305.6835224,305.6835224,,308.25429599999995,right,1.0,32.14798969999998,,,,,,,,,,,,,,,,,,,,,,,,,,,,,,,sub-026,1.0,random_dot,60.01752511734461,
left,left,speed,,,,,0.0,0.0,0.0,1.0,18.0,1.0,37.0,0.0,308.26722729999994,,,,,,,,,308.2562659,309.46802560000003,310.2703593,310.2530201,310.25306179999995,310.2703593,310.2703593,310.2703593,,313.025307,left,1.0,32.341590300000064,,,,,,,,,,,,,,,,,,,,,,,,,,,,,,,sub-026,1.0,random_dot,60.01752511734461,
right,right,speed,,,,,0.0,0.0,0.0,1.0,19.0,0.0,38.0,1.0,313.03702710000005,,,,,,,,,313.027375,313.3871994,314.18963599999995,314.17208170000004,314.17212429999995,314.18963599999995,314.18963599999995,314.18963599999995,,317.176798,right,1.0,32.56201989999994,,,,,,,,,,,,,,,,,,,,,,,,,,,,,,,sub-026,1.0,random_dot,60.01752511734461,
left,left,speed,,,,,0.0,0.0,0.0,1.0,19.0,1.0,39.0,0.0,317.18968800000005,,,,,,,,,317.17950140000005,317.5404065,318.34237599999994,318.3251715,318.32521840000004,318.34237599999994,318.34237599999994,318.34237599999994,,321.09599330000003,right,0.0,32.33892369999995,,,,,,,,,,,,,,,,,,,,,,,,,,,,,,,sub-026,1.0,random_dot,60.01752511734461,
right,right,speed,,,,,0.0,0.0,0.0,1.0,20.0,0.0,40.0,1.0,321.10930799999994,,,,,,,,,321.0979492,321.20927700000004,322.011204,321.99476560000005,321.99480570000003,322.011204,322.011204,322.011204,,325.5491208,left,0.0,33.11026739999994,,,,,,,,,,,,,,,,,,,,,,,,,,,,,,,sub-026,1.0,random_dot,60.01752511734461,
left,left,speed,,,,,0.0,0.0,0.0,1.0,20.0,1.0,41.0,0.0,325.562361,,,,,,,,,325.55112339999994,326.7630497,327.56539109999994,327.5524299,327.5524716,327.56539109999994,327.56539109999994,327.56539109999994,,329.3685312,left,1.0,31.37596239999999,,,,,,,,,,,,,,,,,,,,,,,,,,,,,,,sub-026,1.0,random_dot,60.01752511734461,
left,left,speed,,,,,0.0,0.0,0.0,1.0,21.0,0.0,42.0,0.0,329.3817427,,,,,,,,,329.37074399999995,329.4817899,330.2837698,330.2669367,330.2669751,330.2837698,330.2837698,330.2837698,,333.0878653,right,0.0,32.377981799999986,,,,,,,,,,,,,,,,,,,,,,,,,,,,,,,sub-026,1.0,random_dot,60.01752511734461,
right,right,speed,,,,,0.0,0.0,0.0,1.0,21.0,1.0,43.0,1.0,333.10105209999995,,,,,,,,,333.08986259999995,333.45093799999995,334.25332760000003,334.23633099999995,334.2363735,334.25332760000003,334.25332760000003,334.25332760000003,,336.9734989,left,0.0,32.29808550000001,,,,,,,,,,,,,,,,,,,,,,,,,,,,,,,sub-026,1.0,random_dot,60.01752511734461,
left,left,speed,,,,,0.0,0.0,0.0,1.0,22.0,0.0,44.0,0.0,336.9870728,,,,,,,,,336.9750586,338.1877548,338.9899111,338.9732225,338.97327470000005,338.9899111,338.9899111,338.9899111,,341.1099938,right,0.0,31.70171739999995,,,,,,,,,,,,,,,,,,,,,,,,,,,,,,,sub-026,1.0,random_dot,60.01752511734461,
right,right,speed,,,,,0.0,0.0,0.0,1.0,22.0,1.0,45.0,1.0,341.1230833,,,,,,,,,341.1121918,342.3240324,343.1262932,343.10916139999995,343.10920180000005,343.1262932,343.1262932,343.1262932,,346.41393630000005,right,1.0,32.866131499999995,,,,,,,,,,,,,,,,,,,,,,,,,,,,,,,sub-026,1.0,random_dot,60.01752511734461,
left,left,speed,,,,,0.0,0.0,0.0,1.0,23.0,0.0,46.0,0.0,346.4268406,,,,,,,,,346.4159657,346.7776398,347.5790201,347.56239600000004,347.5624465,347.5790201,347.5790201,347.5790201,,350.8670006,left,1.0,32.862632700000006,,,,,,,,,,,,,,,,,,,,,,,,,,,,,,,sub-026,1.0,random_dot,60.01752511734461,
right,right,speed,,,,,0.0,0.0,0.0,1.0,23.0,1.0,47.0,1.0,350.8799626,,,,,,,,,350.8689337,351.2300405,352.03207569999995,352.01525030000005,352.01528599999995,352.03207569999995,352.03207569999995,352.03207569999995,357.0189084,357.8555642,right,1.0,35.39937549999996,,,,,,,,,,,,,,,,,,,,,,,,,,,,,,,sub-026,1.0,random_dot,60.01752511734461,
left,left,speed,,,,,0.0,0.0,0.0,1.0,24.0,0.0,48.0,0.0,357.8682583,,,,,,,,,357.85826380000003,359.06915259999994,359.8708637,359.8540805,359.85411680000004,359.8708637,359.8708637,359.8708637,,361.5241905,left,1.0,31.23055149999999,,,,,,,,,,,,,,,,,,,,,,,,,,,,,,,sub-026,1.0,random_dot,60.01752511734461,
right,right,speed,,,,,0.0,0.0,0.0,1.0,24.0,1.0,49.0,1.0,361.5372944,,,,,,,,,361.5265667,361.8872455,362.689713,362.6725545000001,362.6725767,362.689713,362.689713,362.689713,,365.2768469,right,1.0,32.17280420000003,,,,,,,,,,,,,,,,,,,,,,,,,,,,,,,sub-026,1.0,random_dot,60.01752511734461,
left,left,speed,,,,,0.0,0.0,0.0,1.0,25.0,0.0,50.0,0.0,365.2899292,,,,,,,,,365.2787864,366.0903218,366.89226,366.8761775,366.8762224,366.89226,366.89226,366.89226,,369.6466734,left,1.0,32.33034230000004,,,,,,,,,,,,,,,,,,,,,,,,,,,,,,,sub-026,1.0,random_dot,60.01752511734461,
right,right,speed,,,,,0.0,0.0,0.0,1.0,25.0,1.0,51.0,1.0,369.6595606,,,,,,,,,369.6486834,369.7596373,370.5615468,370.5448154,370.5448582,370.5615468,370.5615468,370.5615468,,371.9318843,right,1.0,30.950279599999988,,,,,,,,,,,,,,,,,,,,,,,,,,,,,,,sub-026,1.0,random_dot,60.01752511734461,
right,right,speed,,,,,0.0,0.0,0.0,1.0,26.0,0.0,52.0,1.0,371.9447532,,,,,,,,,371.9336736,372.7452268,373.5469618,373.5305772,373.5306172,373.5469618,373.5469618,373.5469618,,375.0171382,right,1.0,31.045097699999985,,,,,,,,,,,,,,,,,,,,,,,,,,,,,,,sub-026,1.0,random_dot,60.01752511734461,
left,left,speed,,,,,0.0,0.0,0.0,1.0,26.0,1.0,53.0,0.0,375.0299642,,,,,,,,,375.0193459,375.1304759,375.9322835,375.9152642,375.9153037,375.9322835,375.9322835,375.9322835,,377.3690405,left,1.0,31.01243089999997,,,,,,,,,,,,,,,,,,,,,,,,,,,,,,,sub-026,1.0,random_dot,60.01752511734461,
right,right,speed,,,,,0.0,0.0,0.0,1.0,27.0,0.0,54.0,1.0,377.3813874,,,,,,,,,377.3714096,378.5822775,379.3845771,379.3678021,379.3678548,379.3845771,379.3845771,379.3845771,,381.9884484,right,1.0,32.18822929999993,,,,,,,,,,,,,,,,,,,,,,,,,,,,,,,sub-026,1.0,random_dot,60.01752511734461,
left,left,speed,,,,,0.0,0.0,0.0,1.0,27.0,1.0,55.0,0.0,382.0015201,,,,,,,,,381.9905496,382.3517288000001,383.1537457,383.1367794,383.1368192,383.1537457,383.1537457,383.1537457,,386.0075715,left,1.0,32.437885900000026,,,,,,,,,,,,,,,,,,,,,,,,,,,,,,,sub-026,1.0,random_dot,60.01752511734461,
left,left,speed,,,,,0.0,0.0,0.0,1.0,28.0,0.0,56.0,0.0,386.0207991,,,,,,,,,386.0095133,386.371144,387.1732577,387.1565021,387.1565377,387.1732577,387.1732577,387.1732577,,390.3450513,left,1.0,32.75902669999999,,,,,,,,,,,,,,,,,,,,,,,,,,,,,,,sub-026,1.0,random_dot,60.01752511734461,
right,right,speed,,,,,0.0,0.0,0.0,1.0,28.0,1.0,57.0,1.0,390.3575943,,,,,,,,,390.3480256,391.5581067,392.3601792,392.3435044,392.3435592,392.3601792,392.3601792,392.3601792,,395.647952,right,1.0,32.87201280000005,,,,,,,,,,,,,,,,,,,,,,,,,,,,,,,sub-026,1.0,random_dot,60.01752511734461,
right,right,speed,,,,,0.0,0.0,0.0,1.0,29.0,0.0,58.0,1.0,395.6607936,,,,,,,,,395.650032,396.0111476,396.8133412,396.7963857,396.7964256,396.8133412,396.8133412,396.8133412,,398.9499157,right,1.0,31.708861600000034,,,,,,,,,,,,,,,,,,,,,,,,,,,,,,,sub-026,1.0,random_dot,60.01752511734461,
left,left,speed,,,,,0.0,0.0,0.0,1.0,29.0,1.0,59.0,0.0,398.9631276,,,,,,,,,398.9524409,399.3134011,400.1155039,400.0989223,400.0989636000001,400.1155039,400.1155039,400.1155039,,403.0370314000001,left,1.0,32.5070834,,,,,,,,,,,,,,,,,,,,,,,,,,,,,,,sub-026,1.0,random_dot,60.01752511734461,
,,speed,,,,,0.0,0.0,0.0,1.0,,,,,,,,,,,,,,,,,,,,,,,,,,,,,,,,,,,,,,,,,,,,,,,,,,,,,,,,,sub-026,1.0,random_dot,60.01752511734461,
left,left,accuracy,,,,,0.0,1.0,1.0,0.0,0.0,0.0,0.0,0.0,412.4788336,,,,,,,,,412.4743083,413.2732565,414.0751222,414.0583717,414.0584141000001,414.0751222,414.0751222,414.0751222,,416.8626413,right,0.0,32.366955700000005,,,,,,,,,,,,,,,,,,,,403.0393131,403.0696339,403.0696339,412.4586298,space,38.96219960000002,,,,,,sub-026,1.0,random_dot,60.01752511734461,
right,right,accuracy,,,,,0.0,1.0,1.0,0.0,0.0,1.0,1.0,1.0,416.8758118,,,,,,,,,416.8652156,418.0763936,418.8785826,418.8617572,418.8617965,418.8785826,418.8785826,418.8785826,,420.1156831,right,1.0,30.82390119999997,,,,,,,,,,,,,,,,,,,,,,,,,,,,,,,sub-026,1.0,random_dot,60.01752511734461,
right,right,accuracy,,,,,0.0,1.0,1.0,0.0,1.0,0.0,2.0,1.0,420.1280519,,,,,,,,,420.1179678,420.9283975,421.7305612,421.7136424,421.7136781,421.7305612,421.7305612,421.7305612,,423.4841712,right,1.0,31.332068600000014,,,,,,,,,,,,,,,,,,,,,,,,,,,,,,,sub-026,1.0,random_dot,60.01752511734461,
left,left,accuracy,,,,,0.0,1.0,1.0,0.0,1.0,1.0,3.0,0.0,423.4970778,,,,,,,,,423.4862536,423.596967,424.3988368,424.3824542,424.3825074,424.3988368,424.3988368,424.3988368,,427.3195284,left,1.0,32.49353300000001,,,,,,,,,,,,,,,,,,,,,,,,,,,,,,,sub-026,1.0,random_dot,60.01752511734461,
right,right,accuracy,,,,,0.0,1.0,1.0,0.0,2.0,0.0,4.0,1.0,427.3331862,,,,,,,,,427.3216613,428.1334171,428.9355837,428.9185477,428.9185872000001,428.9355837,428.9355837,428.9355837,,430.688385,right,1.0,31.33716679999992,,,,,,,,,,,,,,,,,,,,,,,,,,,,,,,sub-026,1.0,random_dot,60.01752511734461,
left,left,accuracy,,,,,0.0,1.0,1.0,0.0,2.0,1.0,5.0,0.0,430.7019464,,,,,,,,,430.6905231,431.5026995,432.3045532,432.2876958,432.2877423,432.3045532,432.3045532,432.3045532,,434.5583278,left,1.0,31.83879660000008,,,,,,,,,,,,,,,,,,,,,,,,,,,,,,,sub-026,1.0,random_dot,60.01752511734461,
right,right,accuracy,,,,,0.0,1.0,1.0,0.0,3.0,0.0,6.0,1.0,434.5711483,,,,,,,,,434.5615773,434.9215398,435.7236899,435.7066511,435.7066959,435.7236899,435.7236899,435.7236899,,438.0939974,right,1.0,31.948901600000056,,,,,,,,,,,,,,,,,,,,,,,,,,,,,,,sub-026,1.0,random_dot,60.01752511734461,
left,left,accuracy,,,,,0.0,1.0,1.0,0.0,3.0,1.0,7.0,0.0,438.1070134,,,,,,,,,438.0961079,438.4572329,439.2592889,439.2423111,439.2423676,439.2592889,439.2592889,439.2592889,,441.7798135000001,left,1.0,32.10338410000003,,,,,,,,,,,,,,,,,,,,,,,,,,,,,,,sub-026,1.0,random_dot,60.01752511734461,
right,right,accuracy,,,,,0.0,1.0,1.0,0.0,4.0,0.0,8.0,1.0,441.7931049,,,,,,,,,441.7818713,441.8929955,442.6952558,442.6782997,442.6783359,442.6952558,442.6952558,442.6952558,,445.6992631,right,1.0,32.58749039999992,,,,,,,,,,,,,,,,,,,,,,,,,,,,,,,sub-026,1.0,random_dot,60.01752511734461,
left,left,accuracy,,,,,0.0,1.0,1.0,0.0,4.0,1.0,9.0,0.0,445.7126452,,,,,,,,,445.7013378,445.8124512,446.6142981,446.5978103,446.5978522,446.6142981,446.6142981,446.6142981,,450.3690681000001,left,1.0,33.33852839999992,,,,,,,,,,,,,,,,,,,,,,,,,,,,,,,sub-026,1.0,random_dot,60.01752511734461,
right,right,accuracy,,,,,0.0,1.0,1.0,0.0,5.0,0.0,10.0,1.0,450.3821496000001,,,,,,,,,450.3711026,450.7323949,451.5342912,451.5178606,451.5179115,451.5342912,451.5342912,451.5342912,,454.288416,right,1.0,32.32820410000005,,,,,,,,,,,,,,,,,,,,,,,,,,,,,,,sub-026,1.0,random_dot,60.01752511734461,
left,left,accuracy,,,,,0.0,1.0,1.0,0.0,5.0,1.0,11.0,0.0,454.3015755,,,,,,,,,454.2904669,455.1022417,455.9040278,455.8873956,455.8874321,455.9040278,455.9040278,455.9040278,,458.458752,right,0.0,32.13945599999994,,,,,,,,,,,,,,,,,,,,,,,,,,,,,,,sub-026,1.0,random_dot,60.01752511734461,
left,left,accuracy,,,,,0.0,1.0,1.0,0.0,6.0,0.0,12.0,0.0,458.4714234000001,,,,,,,,,458.4607949,459.6719388,460.4741945,460.4574607,460.4575155,460.4741945,460.4741945,460.4741945,,462.5939728,right,0.0,31.697854199999995,,,,,,,,,,,,,,,,,,,,,,,,,,,,,,,sub-026,1.0,random_dot,60.01752511734461,
right,right,accuracy,,,,,0.0,1.0,1.0,0.0,6.0,1.0,13.0,1.0,462.6076332,,,,,,,,,462.5959964,462.7073635,463.5095335,463.4925942,463.4926319,463.5095335,463.5095335,463.5095335,,464.5789297,left,0.0,30.652880699999912,,,,,,,,,,,,,,,,,,,,,,,,,,,,,,,sub-026,1.0,random_dot,60.01752511734461,
right,right,accuracy,,,,,0.0,1.0,1.0,0.0,7.0,0.0,14.0,1.0,464.5919457,,,,,,,,,464.5809988,465.3928451000001,466.1946918,466.177902,466.1779429,466.1946918,466.1946918,466.1946918,,468.4981709,right,1.0,31.877402099999983,,,,,,,,,,,,,,,,,,,,,,,,,,,,,,,sub-026,1.0,random_dot,60.01752511734461,
left,left,accuracy,,,,,0.0,1.0,1.0,0.0,7.0,1.0,15.0,0.0,468.5113848,,,,,,,,,468.5002268,469.3120622,470.1142577,470.0972966000001,470.0973377,470.1142577,470.1142577,470.1142577,,471.8009755000001,left,1.0,31.26795400000009,,,,,,,,,,,,,,,,,,,,,,,,,,,,,,,sub-026,1.0,random_dot,60.01752511734461,
right,right,accuracy,,,,,0.0,1.0,1.0,0.0,8.0,0.0,16.0,1.0,471.8136425,,,,,,,,,471.8032438,471.9136609,472.7156578,472.6990505,472.6990902,472.7156578,472.7156578,472.7156578,,475.4863887,right,1.0,32.34652599999998,,,,,,,,,,,,,,,,,,,,,,,,,,,,,,,sub-026,1.0,random_dot,60.01752511734461,
left,left,accuracy,,,,,0.0,1.0,1.0,0.0,8.0,1.0,17.0,0.0,475.4996671,,,,,,,,,475.488427,475.5998991,476.4016806,476.384968,476.3850122,476.4016806,476.4016806,476.4016806,,478.0559166000001,right,0.0,31.230544899999984,,,,,,,,,,,,,,,,,,,,,,,,,,,,,,,sub-026,1.0,random_dot,60.01752511734461,
left,left,accuracy,,,,,0.0,1.0,1.0,0.0,9.0,0.0,18.0,0.0,478.0679038,,,,,,,,,478.0588185,478.1680182,478.970047,478.9533633,478.9534039,478.970047,478.970047,478.970047,,481.0073359,right,0.0,31.62224359999999,,,,,,,,,,,,,,,,,,,,,,,,,,,,,,,sub-026,1.0,random_dot,60.01752511734461,
right,right,accuracy,,,,,0.0,1.0,1.0,0.0,9.0,1.0,19.0,1.0,481.0200318,,,,,,,,,481.0093978,481.1204054,481.9221791,481.9051995,481.9052395,481.9221791,481.9221791,481.9221791,,483.6091289,left,0.0,31.26045799999997,,,,,,,,,,,,,,,,,,,,,,,,,,,,,,,sub-026,1.0,random_dot,60.01752511734461,
left,left,accuracy,,,,,0.0,1.0,1.0,0.0,10.0,0.0,20.0,0.0,483.621952,,,,,,,,,483.6111339,483.9720855000001,484.7741109,484.7572487,484.757296,484.7741109,484.7741109,484.7741109,,488.2960751,left,1.0,33.10880009999994,,,,,,,,,,,,,,,,,,,,,,,,,,,,,,,sub-026,1.0,random_dot,60.01752511734461,
right,right,accuracy,,,,,0.0,1.0,1.0,0.0,10.0,1.0,21.0,1.0,488.3089208,,,,,,,,,488.2977523,489.1088805,489.9110345,489.8947245,489.8947782,489.9110345,489.9110345,489.9110345,,491.5307145,right,1.0,31.20208129999992,,,,,,,,,,,,,,,,,,,,,,,,,,,,,,,sub-026,1.0,random_dot,60.01752511734461,
right,right,accuracy,,,,,0.0,1.0,1.0,0.0,11.0,0.0,22.0,1.0,491.5443155,,,,,,,,,491.5335029,491.8944372,492.6966941,492.6795445,492.6795844,492.6966941,492.6966941,492.6966941,,494.299688,right,1.0,31.175571800000057,,,,,,,,,,,,,,,,,,,,,,,,,,,,,,,sub-026,1.0,random_dot,60.01752511734461,
left,left,accuracy,,,,,0.0,1.0,1.0,0.0,11.0,1.0,23.0,0.0,494.3126898,,,,,,,,,494.3017555,495.5135239,496.3153699,496.298735,496.2987764,496.3153699,496.3153699,496.3153699,,499.61976,left,1.0,32.877264099999934,,,,,,,,,,,,,,,,,,,,,,,,,,,,,,,sub-026,1.0,random_dot,60.01752511734461,
right,right,accuracy,,,,,0.0,1.0,1.0,0.0,12.0,0.0,24.0,1.0,499.6328939,,,,,,,,,499.6216896,499.7333816,500.5351628,500.5220378,500.5220758,500.5351628,500.5351628,500.5351628,,504.1399762,right,1.0,33.17760190000013,,,,,,,,,,,,,,,,,,,,,,,,,,,,,,,sub-026,1.0,random_dot,60.01752511734461,
left,left,accuracy,,,,,0.0,1.0,1.0,0.0,12.0,1.0,25.0,0.0,504.1531001,,,,,,,,,504.1433041,504.2527955000001,505.0549965,505.0381638,505.0382066,505.0549965,505.0549965,505.0549965,,507.1249824,left,1.0,31.64731449999988,,,,,,,,,,,,,,,,,,,,,,,,,,,,,,,sub-026,1.0,random_dot,60.01752511734461,
left,left,accuracy,,,,,0.0,1.0,1.0,0.0,13.0,0.0,26.0,0.0,507.1382559,,,,,,,,,507.1269939,507.4885161,508.2905886,508.2739936,508.2740393,508.2905886,508.2905886,508.2905886,,511.1112233,left,1.0,32.402579200000105,,,,,,,,,,,,,,,,,,,,,,,,,,,,,,,sub-026,1.0,random_dot,60.01752511734461,
right,right,accuracy,,,,,0.0,1.0,1.0,0.0,13.0,1.0,27.0,1.0,511.1243811000001,,,,,,,,,511.1132834,511.2246214000001,512.0264958,512.0094837,512.0095203,512.0264958,512.0264958,512.0264958,,514.2801704999999,right,1.0,31.837161100000003,,,,,,,,,,,,,,,,,,,,,,,,,,,,,,,sub-026,1.0,random_dot,60.01752511734461,
left,left,accuracy,,,,,0.0,1.0,1.0,0.0,14.0,0.0,28.0,0.0,514.2936676,,,,,,,,,514.2831733,514.6435046,515.4455295,515.4286504,515.4286846,515.4455295,515.4455295,515.4455295,,516.965311,left,1.0,31.097637599999985,,,,,,,,,,,,,,,,,,,,,,,,,,,,,,,sub-026,1.0,random_dot,60.01752511734461,
right,right,accuracy,,,,,0.0,1.0,1.0,0.0,14.0,1.0,29.0,1.0,516.9784819,,,,,,,,,516.9673485,517.3286312,518.1307507,518.114115,518.1141576,518.1307507,518.1307507,518.1307507,,519.3673609,right,1.0,30.82224359999998,,,,,,,,,,,,,,,,,,,,,,,,,,,,,,,sub-026,1.0,random_dot,60.01752511734461,
left,left,accuracy,,,,,0.0,1.0,1.0,0.0,15.0,0.0,30.0,0.0,519.380401,,,,,,,,,519.3695676,519.4802847,520.2820404,520.2656366,520.2656768,520.2820404,520.2820404,520.2820404,,522.9697558,left,1.0,32.2711301999999,,,,,,,,,,,,,,,,,,,,,,,,,,,,,,,sub-026,1.0,random_dot,60.01752511734461,
right,right,accuracy,,,,,0.0,1.0,1.0,0.0,15.0,1.0,31.0,1.0,522.9824734,,,,,,,,,522.9725912,524.1835417,524.9855942,524.9686753,524.9687160999999,524.9855942,524.9855942,524.9855942,,526.4383208,right,1.0,31.03824620000012,,,,,,,,,,,,,,,,,,,,,,,,,,,,,,,sub-026,1.0,random_dot,60.01752511734461,
right,right,accuracy,,,,,0.0,1.0,1.0,0.0,16.0,0.0,32.0,1.0,526.451893,,,,,,,,,526.4406695,526.5518373,527.3539863,527.3367577,527.3367973,527.3539863,527.3539863,527.3539863,,529.1569822,right,1.0,31.378834799999936,,,,,,,,,,,,,,,,,,,,,,,,,,,,,,,sub-026,1.0,random_dot,60.01752511734461,
left,left,accuracy,,,,,0.0,1.0,1.0,0.0,16.0,1.0,33.0,0.0,529.1702889,,,,,,,,,529.1589757,530.3709435,531.1730324,531.1561513,531.1562211,531.1730324,531.1730324,531.1730324,,534.5276862,left,1.0,32.940263600000094,,,,,,,,,,,,,,,,,,,,,,,,,,,,,,,sub-026,1.0,random_dot,60.01752511734461,
right,right,accuracy,,,,,0.0,1.0,1.0,0.0,17.0,0.0,34.0,1.0,534.5406282,,,,,,,,,534.5299347,534.6406723,535.4427743,535.4261996,535.4262494,535.4427743,535.4427743,535.4427743,,536.6460475,right,1.0,30.79080009999996,,,,,,,,,,,,,,,,,,,,,,,,,,,,,,,sub-026,1.0,random_dot,60.01752511734461,
left,left,accuracy,,,,,0.0,1.0,1.0,0.0,17.0,1.0,35.0,0.0,536.6586494,,,,,,,,,536.6481492,537.0089155,537.8110097,537.7943274,537.7943805,537.8110097,537.8110097,537.8110097,,540.565259,left,1.0,32.33222440000009,,,,,,,,,,,,,,,,,,,,,,,,,,,,,,,sub-026,1.0,random_dot,60.01752511734461,
right,right,accuracy,,,,,0.0,1.0,1.0,0.0,18.0,0.0,36.0,1.0,540.578121,,,,,,,,,540.5669851,541.7788808,542.5810519,542.5640463,542.5640834,542.5810519,542.5810519,542.5810519,,544.568026,right,1.0,31.5619567,,,,,,,,,,,,,,,,,,,,,,,,,,,,,,,sub-026,1.0,random_dot,60.01752511734461,
left,left,accuracy,,,,,0.0,1.0,1.0,0.0,18.0,1.0,37.0,0.0,544.5809816,,,,,,,,,544.5700324,544.9311058,545.7334384,545.7164579,545.7164983,545.7334384,545.7334384,545.7334384,,548.9040287,left,1.0,32.74906909999993,,,,,,,,,,,,,,,,,,,,,,,,,,,,,,,sub-026,1.0,random_dot,60.01752511734461,
left,left,accuracy,,,,,0.0,1.0,1.0,0.0,19.0,0.0,38.0,0.0,548.9171819,,,,,,,,,548.9062337,549.0176114,549.8192349,549.8027871,549.8028242,549.8192349,549.8192349,549.8192349,,551.5064490999999,left,1.0,31.27371070000004,,,,,,,,,,,,,,,,,,,,,,,,,,,,,,,sub-026,1.0,random_dot,60.01752511734461,
right,right,accuracy,,,,,0.0,1.0,1.0,0.0,19.0,1.0,39.0,1.0,551.5190274,,,,,,,,,551.5084782,551.6193239,552.4211268,552.404575,552.4046231,552.4211268,552.4211268,552.4211268,,553.6740905,right,1.0,30.832101199999897,,,,,,,,,,,,,,,,,,,,,,,,,,,,,,,sub-026,1.0,random_dot,60.01752511734461,
left,left,accuracy,,,,,0.0,1.0,1.0,0.0,20.0,0.0,40.0,0.0,553.6874927,,,,,,,,,553.677387,554.4876949,555.2895747,555.2726008,555.2726418,555.2895747,555.2895747,555.2895747,,558.9777871,left,1.0,33.26413530000002,,,,,,,,,,,,,,,,,,,,,,,,,,,,,,,sub-026,1.0,random_dot,60.01752511734461,
right,right,accuracy,,,,,0.0,1.0,1.0,0.0,20.0,1.0,41.0,1.0,558.9910299,,,,,,,,,558.9798229,559.7913667,560.5936313,560.576574,560.5766134,560.5936313,560.5936313,560.5936313,,561.6620238,right,1.0,30.64898210000013,,,,,,,,,,,,,,,,,,,,,,,,,,,,,,,sub-026,1.0,random_dot,60.01752511734461,
right,right,accuracy,,,,,0.0,1.0,1.0,0.0,21.0,0.0,42.0,1.0,561.6761704,,,,,,,,,561.663283,562.0264407,562.8284421,562.8112602,562.8112957,562.8284421,562.8284421,562.8284421,,564.4484707,right,1.0,31.194811699999946,,,,,,,,,,,,,,,,,,,,,,,,,,,,,,,sub-026,1.0,random_dot,60.01752511734461,
left,left,accuracy,,,,,0.0,1.0,1.0,0.0,21.0,1.0,43.0,0.0,564.4614703,,,,,,,,,564.4504126,565.262135,566.0640761,566.0468665,566.0469009,566.0640761,566.0640761,566.0640761,,567.7672669,left,1.0,31.278573399999917,,,,,,,,,,,,,,,,,,,,,,,,,,,,,,,sub-026,1.0,random_dot,60.01752511734461,
right,right,accuracy,,,,,0.0,1.0,1.0,0.0,22.0,0.0,44.0,1.0,567.7805109,,,,,,,,,567.7689434,567.8804738,568.6820285,568.6648242,568.6648487,568.6820285,568.6820285,568.6820285,,569.7506258,right,1.0,30.641204399999992,,,,,,,,,,,,,,,,,,,,,,,,,,,,,,,sub-026,1.0,random_dot,60.01752511734461,
left,left,accuracy,,,,,0.0,1.0,1.0,0.0,22.0,1.0,45.0,0.0,569.7646624,,,,,,,,,569.7522674,570.5654145,571.3673895,571.351045,571.3510856,571.3673895,571.3673895,571.3673895,,572.920675,left,1.0,31.13672560000009,,,,,,,,,,,,,,,,,,,,,,,,,,,,,,,sub-026,1.0,random_dot,60.01752511734461,
left,left,accuracy,,,,,0.0,1.0,1.0,0.0,23.0,0.0,46.0,0.0,572.9338528,,,,,,,,,572.9223888,574.1350416,574.9367393,574.9197894,574.9198269999999,574.9367393,574.9367393,574.9367393,,577.9744242,left,1.0,32.616820999999845,,,,,,,,,,,,,,,,,,,,,,,,,,,,,,,sub-026,1.0,random_dot,60.01752511734461,
right,right,accuracy,,,,,0.0,1.0,1.0,0.0,23.0,1.0,47.0,1.0,577.9872893,,,,,,,,,577.9766378,579.1881388,579.9903687999999,579.9735291,579.9735672,579.9903687999999,579.9903687999999,579.9903687999999,,580.8264361,right,1.0,30.42277230000002,,,,,,,,,,,,,,,,,,,,,,,,,,,,,,,sub-026,1.0,random_dot,60.01752511734461,
left,left,accuracy,,,,,0.0,1.0,1.0,0.0,24.0,0.0,48.0,0.0,580.8392337,,,,,,,,,580.8284835,581.1897667,581.9917889,581.9747624,581.9747985,581.9917889,581.9917889,581.9917889,,583.8282189,left,1.0,31.410931899999923,,,,,,,,,,,,,,,,,,,,,,,,,,,,,,,sub-026,1.0,random_dot,60.01752511734461,
right,right,accuracy,,,,,0.0,1.0,1.0,0.0,24.0,1.0,49.0,1.0,583.8408565,,,,,,,,,583.8303104,585.0425052,585.8445929,585.8274593,585.8274945,585.8445929,585.8445929,585.8445929,,586.6303299,right,1.0,30.369234600000027,,,,,,,,,,,,,,,,,,,,,,,,,,,,,,,sub-026,1.0,random_dot,60.01752511734461,
right,right,accuracy,,,,,0.0,1.0,1.0,0.0,25.0,0.0,50.0,1.0,586.6434156,,,,,,,,,586.6324155,586.993743,587.7956714,587.7826609,587.7826975,587.7956714,587.7956714,587.7956714,,588.8483034,right,1.0,30.627969899999925,,,,,,,,,,,,,,,,,,,,,,,,,,,,,,,sub-026,1.0,random_dot,60.01752511734461,
left,left,accuracy,,,,,0.0,1.0,1.0,0.0,25.0,1.0,51.0,0.0,588.8617756,,,,,,,,,588.8521285,589.2117716,590.0140863,589.9969758,589.9970133,590.0140863,590.0140863,590.0140863,,591.9504311,left,1.0,31.51883479999992,,,,,,,,,,,,,,,,,,,,,,,,,,,,,,,sub-026,1.0,random_dot,60.01752511734461,
right,right,accuracy,,,,,0.0,1.0,1.0,0.0,26.0,0.0,52.0,1.0,591.9638811,,,,,,,,,591.9525712,592.064105,592.8658372,592.849513,592.849579,592.8658372,592.8658372,592.8658372,,593.8187724,right,1.0,30.53823819999991,,,,,,,,,,,,,,,,,,,,,,,,,,,,,,,sub-026,1.0,random_dot,60.01752511734461,
left,left,accuracy,,,,,0.0,1.0,1.0,0.0,26.0,1.0,53.0,0.0,593.8317538,,,,,,,,,593.8207914,594.1819112,594.9838237,594.9670479,594.9670826,594.9838237,594.9838237,594.9838237,,598.0382724,left,1.0,32.63011049999989,,,,,,,,,,,,,,,,,,,,,,,,,,,,,,,sub-026,1.0,random_dot,60.01752511734461,
left,left,accuracy,,,,,0.0,1.0,1.0,0.0,27.0,0.0,54.0,0.0,598.0511989,,,,,,,,,598.0403116,598.4015715,599.2035074,599.186563,599.186606,599.2035074,599.2035074,599.2035074,,600.9232516,left,1.0,31.30019219999997,,,,,,,,,,,,,,,,,,,,,,,,,,,,,,,sub-026,1.0,random_dot,60.01752511734461,
right,right,accuracy,,,,,0.0,1.0,1.0,0.0,27.0,1.0,55.0,1.0,600.9367697,,,,,,,,,600.9251973,601.7369465,602.5392229,602.5223599,602.5223948,602.5392229,602.5392229,602.5392229,,603.45875,right,1.0,30.494273799999974,,,,,,,,,,,,,,,,,,,,,,,,,,,,,,,sub-026,1.0,random_dot,60.01752511734461,
left,left,accuracy,,,,,0.0,1.0,1.0,0.0,28.0,0.0,56.0,0.0,603.4716837,,,,,,,,,603.4615871999999,603.5717003999999,604.3737074,604.3570214,604.3570575,604.3737074,604.3737074,604.3737074,,605.6605378,right,0.0,30.859619599999974,,,,,,,,,,,,,,,,,,,,,,,,,,,,,,,sub-026,1.0,random_dot,60.01752511734461,
right,right,accuracy,,,,,0.0,1.0,1.0,0.0,28.0,1.0,57.0,1.0,605.6735038,,,,,,,,,605.6633175,606.874317,607.6764074,607.6593981999999,607.6594431999999,607.6764074,607.6764074,607.6764074,,609.2965708,right,1.0,31.19709239999997,,,,,,,,,,,,,,,,,,,,,,,,,,,,,,,sub-026,1.0,random_dot,60.01752511734461,
left,left,accuracy,,,,,0.0,1.0,1.0,0.0,29.0,0.0,58.0,0.0,609.3090743,,,,,,,,,609.2986774,609.4090702999999,610.2110692,610.194521,610.1945591,610.2110692,610.2110692,610.2110692,,614.18263,left,1.0,33.552709899999854,,,,,,,,,,,,,,,,,,,,,,,,,,,,,,,sub-026,1.0,random_dot,60.01752511734461,
right,right,accuracy,,,,,0.0,1.0,1.0,0.0,29.0,1.0,59.0,1.0,614.1960317,,,,,,,,,614.1846325,615.3968804,616.1988061,616.1817470999999,616.181787,616.1988061,616.1988061,616.1988061,,617.9019123,right,1.0,31.284664599999928,,,,,,,,,,,,,,,,,,,,,,,,,,,,,,,sub-026,1.0,random_dot,60.01752511734461,
,,accuracy,,,,,0.0,1.0,1.0,0.0,,,,,,,,,,,,,,,,,,,,,,,,,,,,,,,,,,,,,,,,,,,,,,,,,,,,,,,,,sub-026,1.0,random_dot,60.01752511734461,
,,,,,,,,,,,,,,,,,,,,,,,,,,,,,,,,,,,,,,,,,,,,,,,,,,,,,,,,,,,,,,,617.9033866,617.9150785,622.9183819,622.9034609,sub-026,,,,
