direction,corrAns,thisN,thisTrialN,thisRepN,respDots.keys,respDots.corr,respDots.rt,respDots.duration,randomInstr,respRandomInstr.keys,respRandomInstr.rt,respRandomInstr.duration,practice_trials.thisRepN,practice_trials.thisTrialN,practice_trials.thisN,practice_trials.thisIndex,instr_trials.thisRepN,instr_trials.thisTrialN,instr_trials.thisN,instr_trials.thisIndex,test_trials.thisRepN,test_trials.thisTrialN,test_trials.thisN,test_trials.thisIndex,thisRow.t,notes,general_instruction.started,textGeneralInstr.started,respGeneralInstr.started,general_instruction.stopped,respGeneralInstr.keys,respGeneralInstr.rt,respGeneralInstr.duration,ITI.started,fixcross.started,fixcross.stopped,ITI.stopped,dots.started,backgroundDots.started,stimulusDots.started,respDots.started,stimulusDots.stopped,dots.stopped,practice_trials.respDots.keys,practice_trials.respDots.corr,practice_trials.respDots.rt,practice_trials.respDots.duration,feedback.started,textFeedback.started,feedback.stopped,textFeedback.stopped,info.started,textInfo.started,keyRespInfo.started,info.stopped,keyRespInfo.keys,keyRespInfo.rt,keyRespInfo.duration,test_instruction.started,textTestInstr.started,respTestInstr.started,test_instruction.stopped,respTestInstr.keys,respTestInstr.rt,respTestInstr.duration,random_instruction.started,textRandomInstr.started,respRandomInstr.started,random_instruction.stopped,instr_trials.respRandomInstr.keys,instr_trials.respRandomInstr.rt,instr_trials.respRandomInstr.duration,test_trials.respDots.keys,test_trials.respDots.corr,test_trials.respDots.rt,test_trials.respDots.duration,goodbye.started,textGoodbye.started,goodbye.stopped,participant,session,expName,frameRate,Unnamed: 87
,,,,,,,,,,,,,,,,,,,,,,,,,,,0.0082368750008754,0.0141804579907329,0.0141804579907329,30.65560133299732,space,30.602405457990244,,,,,,,,,,,,,,,,,,,,,,,,,,,,,,,,,,,,,,,,,,,,,,,,sub-012,1,random_dot,,
left,left,0.0,0.0,0.0,right,0.0,6.380996625011903,,,,,,0.0,0.0,0.0,0.0,,,,,,,,,30.687607582993223,,,,,,,,,30.67513533300371,31.459189542001692,32.26159333299438,32.244227874994976,32.24473479199514,32.26159333299438,32.26159333299438,32.26159333299438,37.23725829199248,38.64680541699636,right,0.0,6.380996625011903,,38.6569115829916,38.73923670800286,39.1542097079946,,,,,,,,,,,,,,,,,,,,,,,,,,,,,,sub-012,1,random_dot,,
right,right,1.0,1.0,0.0,left,0.0,6.305470000006608,,,,,,0.0,1.0,1.0,1.0,,,,,,,,,39.16091062499618,,,,,,,,,39.15474012499908,39.24461629199504,40.036843458001385,40.02801904200169,40.02851779200137,40.036843458001385,40.036843458001385,40.036843458001385,45.02703908299736,46.34484925000288,left,0.0,6.305470000006608,,46.34498912499112,46.35623595799552,46.84342895800364,46.85397724999348,,,,,,,,,,,,,,,,,,,,,,,,,,,,,sub-012,1,random_dot,,
right,right,2.0,0.0,1.0,right,1.0,5.538672291993862,,,,,,1.0,0.0,2.0,1.0,,,,,,,,,46.85397724999348,,,,,,,,,46.843751708001946,46.944220374993165,47.73715458299557,47.728019250003854,47.72848233299737,47.73715458299557,47.73715458299557,47.73715458299557,52.72066679199634,53.28090233299008,right,1.0,5.538672291993862,,53.28843324999616,53.298039125002106,53.78747124999063,,,,,,,,,,,,,,,,,,,,,,,,,,,,,,sub-012,1,random_dot,,
left,left,3.0,1.0,1.0,left,1.0,5.824581916996976,,,,,,1.0,1.0,3.0,0.0,,,,,,,,,53.79411775000335,,,,,,,,,53.7878599169926,54.57796845799021,55.37051687500207,55.36158358299872,55.36202149999736,55.37051687500207,55.37051687500207,55.37051687500207,60.35396708299231,61.1981829169963,left,1.0,5.824581916996976,,61.198342082992895,61.20776808299706,61.694215416995576,61.704284624996944,,,,,,,,,,,,,,,,,,,,,,,,,,,,,sub-012,1,random_dot,,
left,left,4.0,0.0,2.0,right,0.0,5.97593162501289,,,,,,2.0,0.0,4.0,0.0,,,,,,,,,61.704284624996944,,,,,,,,,61.69461674999911,62.044595250001294,62.837567583002965,62.82824620799511,62.82869420800125,62.837567583002965,62.837567583002965,62.837567583002965,67.8207185420033,68.82275308298995,right,0.0,5.97593162501289,,68.82641174999299,68.83661195800232,69.3216189169907,69.32813879199966,,,,,,,,,,,,,,,,,,,,,,,,,,,,,sub-012,1,random_dot,,
right,right,5.0,1.0,2.0,right,1.0,5.530381707998458,,,,,,2.0,1.0,5.0,1.0,,,,,,,,,69.32813879199966,,,,,,,,,69.32215391698992,70.12088087499433,70.91395408299286,70.90493741699902,70.90557366699795,70.91395408299286,70.91395408299286,70.91395408299286,75.90425445800065,76.44735558298999,right,1.0,5.530381707998458,,76.45107416699466,76.4679386249918,76.95420591699076,,,,,,,,,,,,,,,,,,,,,,,,,,,,,,sub-012,1,random_dot,,
left,left,6.0,0.0,3.0,left,1.0,5.425650790988584,,,,,,3.0,0.0,6.0,0.0,,,,,,,,,76.96038999999291,,,,,,,,,76.95460804199683,77.04412045799836,77.83677037499729,77.82769083300082,77.82816370799264,77.83677037499729,77.83677037499729,77.83677037499729,82.82717645799858,83.27251312498993,left,1.0,5.425650790988584,,83.27266929199686,83.2818704169913,83.77174879200174,83.77837816700048,,,,,,,,,,,,,,,,,,,,,,,,,,,,,sub-012,1,random_dot,,
right,right,7.0,1.0,3.0,right,1.0,5.501673207996646,,,,,,3.0,1.0,7.0,1.0,,,,,,,,,83.77837816700048,,,,,,,,,83.77228604200354,83.87095512499218,84.66400849999627,84.65501520800171,84.65565975000209,84.66400849999627,84.66400849999627,84.66400849999627,89.64381866699841,90.1732339579903,right,1.0,5.501673207996646,,90.17338508299144,90.18272445799084,90.67130983299285,90.6776479580003,,,,,,,,,,,,,,,,,,,,,,,,,,,,,sub-012,1,random_dot,,
left,left,8.0,0.0,4.0,left,1.0,5.451025041998946,,,,,,4.0,0.0,8.0,0.0,,,,,,,,,90.6776479580003,,,,,,,,,90.67171112500364,91.47081779199652,92.263898374993,92.25509112500004,92.2557280829933,92.263898374993,92.263898374993,92.263898374993,97.25441708299331,97.72325320799428,left,1.0,5.451025041998946,,97.7233999579912,97.7327650829975,98.22177195799304,98.22819758299738,,,,,,,,,,,,,,,,,,,,,,,,,,,,,sub-012,1,random_dot,,
right,right,9.0,1.0,4.0,right,1.0,5.390114041001652,,,,,,4.0,1.0,9.0,1.0,,,,,,,,,98.22819758299738,,,,,,,,,98.22235229199578,99.02117920799355,99.88433624999016,99.8051699170028,99.80580729199572,99.88433624999016,99.88433624999016,99.88433624999016,104.79397174999758,105.2795390419924,right,1.0,5.390114041001652,,105.2796965000016,105.28981208299228,105.77802499999234,105.78745150000032,,,,,,,,,,,,,,,,,,,,,,,,,,,,,sub-012,1,random_dot,,
right,right,10.0,0.0,5.0,right,1.0,5.381252375009353,,,,,,5.0,0.0,10.0,1.0,,,,,,,,,105.78745150000032,,,,,,,,,105.77834962499035,105.87792533299944,106.6699074999924,106.66104999999516,106.66152345799492,106.6699074999924,106.6699074999924,106.6699074999924,111.6543544169981,112.0556084169948,right,1.0,5.381252375009353,,112.05576533300336,112.06517758299016,112.55531445798988,112.56193687499037,,,,,,,,,,,,,,,,,,,,,,,,,,,,,sub-012,1,random_dot,,
left,left,11.0,1.0,5.0,left,1.0,5.393783457999234,,,,,,5.0,1.0,11.0,0.0,,,,,,,,,112.56193687499037,,,,,,,,,112.55586675000086,113.35436933299934,114.14749458299777,114.13847283300127,114.139133167002,114.14749458299777,114.14749458299777,114.14749458299777,119.137651750003,119.54695658299896,left,1.0,5.393783457999234,,119.547110917003,119.55702516699968,120.04501883299965,120.05437341699144,,,,,,,,,,,,,,,,,,,,,,,,,,,,,sub-012,1,random_dot,,
left,left,12.0,0.0,6.0,left,1.0,5.377157499999157,,,,,,6.0,0.0,12.0,0.0,,,,,,,,,120.05437341699144,,,,,,,,,120.04539020798984,120.39478674999556,121.18651558300188,121.17805899999804,121.17839924999862,121.18651558300188,121.18651558300188,121.18651558300188,126.17738712500432,126.57333329199172,left,1.0,5.377157499999157,,126.57348670800276,126.5827916249982,127.07186745799844,127.07835487500417,,,,,,,,,,,,,,,,,,,,,,,,,,,,,sub-012,1,random_dot,,
right,right,13.0,1.0,6.0,right,1.0,5.374589624989312,,,,,,6.0,1.0,13.0,1.0,,,,,,,,,127.07835487500417,,,,,,,,,127.0724084169924,128.27115916699404,129.06352066699765,129.05494029200054,129.0555386670021,129.06352066699765,129.06352066699765,129.06352066699765,134.05445508299454,134.4417819169903,right,1.0,5.374589624989312,,134.44198887499806,134.45140420799726,134.9381015830004,134.94424870799412,,,,,,,,,,,,,,,,,,,,,,,,,,,,,sub-012,1,random_dot,,
right,right,14.0,0.0,7.0,right,1.0,5.517914957992616,,,,,,7.0,0.0,14.0,1.0,,,,,,,,,134.94424870799412,,,,,,,,,134.93851554200228,135.03774924999743,135.83083779200388,135.82196516699332,135.82261649999418,135.83083779200388,135.83083779200388,135.83083779200388,140.81156666699098,141.35684316699917,right,1.0,5.517914957992616,,141.35700024999096,141.36638058300014,141.855105249997,141.86150800000178,,,,,,,,,,,,,,,,,,,,,,,,,,,,,sub-012,1,random_dot,,
left,left,15.0,1.0,7.0,left,1.0,5.395995458005928,,,,,,7.0,1.0,15.0,0.0,,,,,,,,,141.86150800000178,,,,,,,,,141.8555447079998,143.05455641700246,143.84851279199938,143.83940554199216,143.8401707919984,143.84851279199938,143.84851279199938,143.84851279199938,148.8372178330028,149.2472434999945,left,1.0,5.395995458005928,,149.24740204199043,149.25702679199458,149.74451283300004,149.75437358299678,,,,,,,,,,,,,,,,,,,,,,,,,,,,,sub-012,1,random_dot,,
right,right,16.0,0.0,8.0,right,1.0,5.31738975000917,,,,,,8.0,0.0,16.0,1.0,,,,,,,,,149.75437358299678,,,,,,,,,149.74493329199322,149.8448777500016,150.63748033299635,150.62856379199366,150.62896516699402,150.63748033299635,150.63748033299635,150.63748033299635,155.62095487499028,155.9581145419943,right,1.0,5.31738975000917,,155.9583011670038,155.96794449999288,156.4554142919951,156.46196745800262,,,,,,,,,,,,,,,,,,,,,,,,,,,,,sub-012,1,random_dot,,
left,left,17.0,1.0,8.0,left,1.0,5.309540749993175,,,,,,8.0,1.0,17.0,0.0,,,,,,,,,156.46196745800262,,,,,,,,,156.45595658299862,157.65473391699197,158.448000666991,158.4388722080039,158.43961233299342,158.448000666991,158.448000666991,158.448000666991,163.43784466700163,163.76216708299762,left,1.0,5.309540749993175,,163.76232329200138,163.78735533299914,164.27147558299475,,,,,,,,,,,,,,,,,,,,,,,,,,,,,,sub-012,1,random_dot,,
left,left,18.0,0.0,9.0,left,1.0,5.368969874994946,,,,,,9.0,0.0,18.0,0.0,,,,,,,,,164.27801129200088,,,,,,,,,164.2719731249963,165.06168183300178,165.85365466699295,165.84526533300232,165.84559879200242,165.85365466699295,165.85365466699295,165.85365466699295,170.8442938329972,171.23061991699797,left,1.0,5.368969874994946,,171.2307721249963,171.2405973749992,171.7287057079957,171.73724733300332,,,,,,,,,,,,,,,,,,,,,,,,,,,,,sub-012,1,random_dot,,
right,right,19.0,1.0,9.0,right,1.0,5.316682874996332,,,,,,9.0,1.0,19.0,1.0,,,,,,,,,171.73724733300332,,,,,,,,,171.72905641699617,172.07822916700388,172.87105562500074,172.8615073330002,172.8621414579975,172.87105562500074,172.87105562500074,172.87105562500074,177.85438891699596,178.19012708299852,right,1.0,5.316682874996332,,178.19029649998993,178.19966062500316,178.68834004199016,178.69633929200063,,,,,,,,,,,,,,,,,,,,,,,,,,,,,sub-012,1,random_dot,,
,,,,,,,,,,,,,,,,,,,,,,,,,,,,,,,,,,,,,,,,,,,,,,,,,,,,178.68846016700263,178.69633929200063,178.69633929200063,181.63032637500143,space,2.926293333002832,,,,,,,,,,,,,,,,,,,,,,,sub-012,1,random_dot,,
,,,,,,,,,,,,,,,,,,,,,,,,,,,,,,,,,,,,,,,,,,,,,,,,,,,,,,,,,,,181.63047070799803,181.64317445800407,181.64317445800407,184.77339937500076,space,3.124639041008777,,,,,,,,,,,,,,,,sub-012,1,random_dot,,
right,right,0.0,0.0,0.0,right,1.0,1.4889164580090437,,speed,space,2.113064125005621,,,,,,0.0,0.0,0.0,1.0,0.0,0.0,0.0,1.0,186.94249262499216,,,,,,,,,186.93351670799893,188.1212519999972,188.914717666994,188.9055121669953,188.9061922499968,188.914717666994,188.914717666994,188.914717666994,,190.40660404200025,,,,,,,,,,,,,,,,,,,,,,,184.7944650830032,184.8035028329905,184.8035028329905,186.9242817499908,space,2.113064125005621,,right,1.0,1.4889164580090437,,,,,sub-012,1,random_dot,,
left,left,1.0,1.0,0.0,left,1.0,0.5327547500055516,,speed,space,2.113064125005621,,,,,,0.0,0.0,0.0,1.0,0.0,1.0,1.0,0.0,190.415684416992,,,,,,,,,190.40714383299928,191.20482958300272,191.99694075000295,191.98849487499683,191.98897120800396,191.99694075000295,191.99694075000295,191.99694075000295,,192.53853783299564,,,,,,,,,,,,,,,,,,,,,,,,,,,,,,left,1.0,0.5327547500055516,,,,,sub-012,1,random_dot,,
left,left,2.0,0.0,1.0,left,1.0,0.6593802499992307,,speed,space,2.113064125005621,,,,,,0.0,0.0,0.0,1.0,1.0,0.0,2.0,0.0,192.54560825000223,,,,,,,,,192.53886454200256,193.7277677499951,194.5203850830003,194.51191104199097,194.51230862499503,194.5203850830003,194.5203850830003,194.5203850830003,,195.1876680830028,,,,,,,,,,,,,,,,,,,,,,,,,,,,,,left,1.0,0.6593802499992307,,,,,sub-012,1,random_dot,,
right,right,3.0,1.0,1.0,right,1.0,1.1408139580016723,,speed,space,2.113064125005621,,,,,,0.0,0.0,0.0,1.0,1.0,1.0,3.0,1.0,195.19434433299463,,,,,,,,,195.18791654199595,195.27720687499092,196.07010195800103,196.06091591699808,196.06128987499687,196.07010195800103,196.07010195800103,196.07010195800103,,197.22319441699076,,,,,,,,,,,,,,,,,,,,,,,,,,,,,,right,1.0,1.1408139580016723,,,,,sub-012,1,random_dot,,
left,left,4.0,0.0,2.0,left,1.0,1.1180014999990815,,speed,space,2.113064125005621,,,,,,0.0,0.0,0.0,1.0,2.0,0.0,4.0,0.0,197.231388500004,,,,,,,,,197.2236825830041,198.4212392079935,199.21438016700267,199.20542820799164,199.2060742079921,199.21438016700267,199.21438016700267,199.21438016700267,,200.339542332993,,,,,,,,,,,,,,,,,,,,,,,,,,,,,,left,1.0,1.1180014999990815,,,,,sub-012,1,random_dot,,
right,right,5.0,1.0,2.0,left,0.0,0.9419957919890294,,speed,space,2.113064125005621,,,,,,0.0,0.0,0.0,1.0,2.0,1.0,5.0,1.0,200.3468807079917,,,,,,,,,200.34006304199283,201.5379358749924,202.32962991700333,202.3217558329925,202.32214462499545,202.32962991700333,202.32962991700333,202.32962991700333,,203.2741908329917,,,,,,,,,,,,,,,,,,,,,,,,,,,,,,left,0.0,0.9419957919890294,,,,,sub-012,1,random_dot,,
right,right,6.0,0.0,3.0,right,1.0,1.102243957997416,,speed,space,2.113064125005621,,,,,,0.0,0.0,0.0,1.0,3.0,0.0,6.0,1.0,203.28190995799375,,,,,,,,,203.27469558299344,204.0713433749916,204.86476562499595,204.8557848749915,204.85646912499212,204.86476562499595,204.86476562499595,204.86476562499595,,205.97234141700028,,,,,,,,,,,,,,,,,,,,,,,,,,,,,,right,1.0,1.102243957997416,,,,,sub-012,1,random_dot,,
left,left,7.0,1.0,3.0,left,1.0,0.6072894579992862,,speed,space,2.113064125005621,,,,,,0.0,0.0,0.0,1.0,3.0,1.0,7.0,0.0,205.9793351249973,,,,,,,,,205.97281262499743,207.1713788329944,207.96293908299413,207.95513729199592,207.95547141699356,207.96293908299413,207.96293908299413,207.96293908299413,,208.57998379199125,,,,,,,,,,,,,,,,,,,,,,,,,,,,,,left,1.0,0.6072894579992862,,,,,sub-012,1,random_dot,,
right,right,8.0,0.0,4.0,right,1.0,0.6540448750020005,,speed,space,2.113064125005621,,,,,,0.0,0.0,0.0,1.0,4.0,0.0,8.0,1.0,208.58846179199463,,,,,,,,,208.58035916699737,208.67750495800283,209.47018158299036,209.46149766699816,209.46190637499967,209.47018158299036,209.47018158299036,209.47018158299036,,210.12974195799325,,,,,,,,,,,,,,,,,,,,,,,,,,,,,,right,1.0,0.6540448750020005,,,,,sub-012,1,random_dot,,
left,left,9.0,1.0,4.0,left,1.0,0.8468454169924371,,speed,space,2.113064125005621,,,,,,0.0,0.0,0.0,1.0,4.0,1.0,9.0,0.0,210.15405570800067,,,,,,,,,210.1302374999941,211.32761020799808,212.12096920800104,212.1120625420008,212.112461458004,212.12096920800104,212.12096920800104,212.12096920800104,,212.97142941699715,,,,,,,,,,,,,,,,,,,,,,,,,,,,,,left,1.0,0.8468454169924371,,,,,sub-012,1,random_dot,,
right,right,10.0,0.0,5.0,right,1.0,0.7229666660132352,,speed,space,2.113064125005621,,,,,,0.0,0.0,0.0,1.0,5.0,0.0,10.0,1.0,212.9768527080014,,,,,,,,,212.9717437079962,213.0607128330012,213.85382933299115,213.8447695829964,213.84524716700253,213.85382933299115,213.85382933299115,213.85382933299115,,214.5807850830024,,,,,,,,,,,,,,,,,,,,,,,,,,,,,,right,1.0,0.7229666660132352,,,,,sub-012,1,random_dot,,
left,left,11.0,1.0,5.0,left,1.0,0.4995334590057609,,speed,space,2.113064125005621,,,,,,0.0,0.0,0.0,1.0,5.0,1.0,11.0,0.0,214.59018995799124,,,,,,,,,214.58128870799555,215.37852466700133,216.170981999996,216.16228345799027,216.1627696249925,216.170981999996,216.170981999996,216.170981999996,,216.67911358299895,,,,,,,,,,,,,,,,,,,,,,,,,,,,,,left,1.0,0.4995334590057609,,,,,sub-012,1,random_dot,,
right,right,12.0,0.0,6.0,right,1.0,0.512025582997012,,speed,space,2.113064125005621,,,,,,0.0,0.0,0.0,1.0,6.0,0.0,12.0,1.0,216.6885329579964,,,,,,,,,216.6795978329901,217.8782705420017,218.6709379999957,218.66208349999212,218.66248520799851,218.6709379999957,218.6709379999957,218.6709379999957,,219.18892812500417,,,,,,,,,,,,,,,,,,,,,,,,,,,,,,right,1.0,0.512025582997012,,,,,sub-012,1,random_dot,,
left,left,13.0,1.0,6.0,left,1.0,0.5463562920049299,,speed,space,2.113064125005621,,,,,,0.0,0.0,0.0,1.0,6.0,1.0,13.0,0.0,219.1953035829938,,,,,,,,,219.18932491699525,219.97771716699933,220.7708112499968,220.7619311669987,220.76232837499992,220.7708112499968,220.7708112499968,220.7708112499968,,221.323923457996,,,,,,,,,,,,,,,,,,,,,,,,,,,,,,left,1.0,0.5463562920049299,,,,,sub-012,1,random_dot,,
right,right,14.0,0.0,7.0,right,1.0,0.5001162920088973,,speed,space,2.113064125005621,,,,,,0.0,0.0,0.0,1.0,7.0,0.0,14.0,1.0,221.33276545799163,,,,,,,,,221.32443500000227,222.52144945799955,223.31383445799293,223.30545591699772,223.30594674999884,223.31383445799293,223.31383445799293,223.31383445799293,,223.8232564579957,,,,,,,,,,,,,,,,,,,,,,,,,,,,,,right,1.0,0.5001162920088973,,,,,sub-012,1,random_dot,,
left,left,15.0,1.0,7.0,left,1.0,0.5390652909991331,,speed,space,2.113064125005621,,,,,,0.0,0.0,0.0,1.0,7.0,1.0,15.0,0.0,223.8319954579929,,,,,,,,,223.82377433299555,223.9200950419909,224.7144392079936,224.70551304199037,224.7061304999952,224.7144392079936,224.7144392079936,224.7144392079936,,225.25622837500123,,,,,,,,,,,,,,,,,,,,,,,,,,,,,,left,1.0,0.5390652909991331,,,,,sub-012,1,random_dot,,
right,right,16.0,0.0,8.0,right,1.0,0.4288443340046797,,speed,space,2.113064125005621,,,,,,0.0,0.0,0.0,1.0,8.0,0.0,16.0,1.0,225.26308112499828,,,,,,,,,225.2565121249936,225.6048419169965,226.39807016699345,226.3889677499974,226.38960291699917,226.39807016699345,226.39807016699345,226.39807016699345,,226.82960558299965,,,,,,,,,,,,,,,,,,,,,,,,,,,,,,right,1.0,0.4288443340046797,,,,,sub-012,1,random_dot,,
left,left,17.0,1.0,8.0,left,1.0,0.5067992080003023,,speed,space,2.113064125005621,,,,,,0.0,0.0,0.0,1.0,8.0,1.0,17.0,0.0,226.85414987499823,,,,,,,,,226.8300869999948,226.92036333300348,227.71454099999391,227.7057799579925,227.706476249994,227.71454099999391,227.71454099999391,227.71454099999391,,228.22358579200227,,,,,,,,,,,,,,,,,,,,,,,,,,,,,,left,1.0,0.5067992080003023,,,,,sub-012,1,random_dot,,
right,right,18.0,0.0,9.0,right,1.0,0.5907476669963216,,speed,space,2.113064125005621,,,,,,0.0,0.0,0.0,1.0,9.0,0.0,18.0,1.0,228.231045958004,,,,,,,,,228.2240700419934,228.32132741699752,229.11464895799872,229.1055040420033,229.1061349999945,229.11464895799872,229.11464895799872,229.11464895799872,,229.7136109580024,,,,,,,,,,,,,,,,,,,,,,,,,,,,,,right,1.0,0.5907476669963216,,,,,sub-012,1,random_dot,,
left,left,19.0,1.0,9.0,left,1.0,0.5301636670046719,,speed,space,2.113064125005621,,,,,,0.0,0.0,0.0,1.0,9.0,1.0,19.0,0.0,229.7219843329949,,,,,,,,,229.714072332994,230.5112499169918,231.3035617919959,231.2947270000004,231.29512204199276,231.3035617919959,231.3035617919959,231.3035617919959,,231.83891195799515,,,,,,,,,,,,,,,,,,,,,,,,,,,,,,left,1.0,0.5301636670046719,,,,,sub-012,1,random_dot,,
right,right,20.0,0.0,10.0,right,1.0,0.7353437080018921,,speed,space,2.113064125005621,,,,,,0.0,0.0,0.0,1.0,10.0,0.0,20.0,1.0,231.8469376669964,,,,,,,,,231.83940616699687,232.62866433299496,233.42118954200123,233.4120939999993,233.41257029199917,233.42118954200123,233.42118954200123,233.42118954200123,,234.16344691699487,,,,,,,,,,,,,,,,,,,,,,,,,,,,,,right,1.0,0.7353437080018921,,,,,sub-012,1,random_dot,,
left,left,21.0,1.0,10.0,left,1.0,0.4311217089998536,,speed,space,2.113064125005621,,,,,,0.0,0.0,0.0,1.0,10.0,1.0,21.0,0.0,234.17171412499735,,,,,,,,,234.1639075419953,235.36258454200288,236.16412816700176,236.1553260829969,236.15587408299325,236.16412816700176,236.16412816700176,236.16412816700176,,236.59757604199692,,,,,,,,,,,,,,,,,,,,,,,,,,,,,,left,1.0,0.4311217089998536,,,,,sub-012,1,random_dot,,
left,left,22.0,0.0,11.0,left,1.0,0.5403215830010595,,speed,space,2.113064125005621,,,,,,0.0,0.0,0.0,1.0,11.0,0.0,22.0,0.0,236.60507808299732,,,,,,,,,236.59806950000348,237.79509433299245,238.58745150000323,238.5784744169941,238.57895799999824,238.58745150000323,238.58745150000323,238.58745150000323,,239.1304884169949,,,,,,,,,,,,,,,,,,,,,,,,,,,,,,left,1.0,0.5403215830010595,,,,,sub-012,1,random_dot,,
right,right,23.0,1.0,11.0,right,1.0,0.3833705419965554,,speed,space,2.113064125005621,,,,,,0.0,0.0,0.0,1.0,11.0,1.0,23.0,1.0,239.13795670800027,,,,,,,,,239.13078437499644,239.47780054199396,240.27137499999665,240.2624212919909,240.2629182919918,240.27137499999665,240.27137499999665,240.27137499999665,,240.65721949998988,,,,,,,,,,,,,,,,,,,,,,,,,,,,,,right,1.0,0.3833705419965554,,,,,sub-012,1,random_dot,,
right,right,24.0,0.0,12.0,right,1.0,0.7557832500024233,,speed,space,2.113064125005621,,,,,,0.0,0.0,0.0,1.0,12.0,0.0,24.0,1.0,240.6638281249907,,,,,,,,,240.65748366700427,241.45477345799736,242.2480534579954,242.23896745798996,242.2396463749901,242.2480534579954,242.2480534579954,242.2480534579954,,243.014002750002,,,,,,,,,,,,,,,,,,,,,,,,,,,,,,right,1.0,0.7557832500024233,,,,,sub-012,1,random_dot,,
left,left,25.0,1.0,12.0,left,1.0,0.3902382920059608,,speed,space,2.113064125005621,,,,,,0.0,0.0,0.0,1.0,12.0,1.0,25.0,0.0,243.02329954199377,,,,,,,,,243.0143804169929,244.21214470799896,245.00442241699784,244.9954629999993,244.99588074999335,245.00442241699784,245.00442241699784,245.00442241699784,,245.4057968330017,,,,,,,,,,,,,,,,,,,,,,,,,,,,,,left,1.0,0.3902382920059608,,,,,sub-012,1,random_dot,,
right,right,26.0,0.0,13.0,right,1.0,0.4669162079953821,,speed,space,2.113064125005621,,,,,,0.0,0.0,0.0,1.0,13.0,0.0,26.0,1.0,245.41380199999548,,,,,,,,,245.4060527919937,246.5951098749938,247.388069291992,247.3787694999919,247.37925250000265,247.388069291992,247.388069291992,247.388069291992,,247.85741770800087,,,,,,,,,,,,,,,,,,,,,,,,,,,,,,right,1.0,0.4669162079953821,,,,,sub-012,1,random_dot,,
left,left,27.0,1.0,13.0,left,1.0,0.3662473750009667,,speed,space,2.113064125005621,,,,,,0.0,0.0,0.0,1.0,13.0,1.0,27.0,0.0,247.86619479199,,,,,,,,,247.85797870799436,249.0549028329988,249.8470565419993,249.83864195799103,249.8391479580023,249.8470565419993,249.8470565419993,249.8470565419993,,250.2230909579957,,,,,,,,,,,,,,,,,,,,,,,,,,,,,,left,1.0,0.3662473750009667,,,,,sub-012,1,random_dot,,
right,right,28.0,0.0,14.0,right,1.0,0.4095557909895433,,speed,space,2.113064125005621,,,,,,0.0,0.0,0.0,1.0,14.0,0.0,28.0,1.0,250.2318424580008,,,,,,,,,250.2235761249904,251.02169058300208,251.81356624999896,251.80545495799743,251.80585254199104,251.81356624999896,251.81356624999896,251.81356624999896,,252.23020612499383,,,,,,,,,,,,,,,,,,,,,,,,,,,,,,right,1.0,0.4095557909895433,,,,,sub-012,1,random_dot,,
left,left,29.0,1.0,14.0,left,1.0,0.4848156660009408,,speed,space,2.113064125005621,,,,,,0.0,0.0,0.0,1.0,14.0,1.0,29.0,0.0,252.23966587499308,,,,,,,,,252.2307198329945,252.57846904199687,253.3807385830005,253.37202083299053,253.37256858299952,253.3807385830005,253.3807385830005,253.3807385830005,,253.87282416700327,,,,,,,,,,,,,,,,,,,,,,,,,,,,,,left,1.0,0.4848156660009408,,,,,sub-012,1,random_dot,,
left,left,30.0,0.0,15.0,left,1.0,0.6729344170016702,,speed,space,2.113064125005621,,,,,,0.0,0.0,0.0,1.0,15.0,0.0,30.0,0.0,253.8818906249944,,,,,,,,,253.8733450419968,254.6713773329975,255.46489995799493,255.4556922920019,255.45632225000008,255.46489995799493,255.46489995799493,255.46489995799493,,256.1465436669969,,,,,,,,,,,,,,,,,,,,,,,,,,,,,,left,1.0,0.6729344170016702,,,,,sub-012,1,random_dot,,
right,right,31.0,1.0,15.0,right,1.0,0.3721565830055624,,speed,space,2.113064125005621,,,,,,0.0,0.0,0.0,1.0,15.0,1.0,31.0,1.0,256.15508033300284,,,,,,,,,256.14704812499986,256.24410412499856,257.03770124999573,257.028847708003,257.02931741699285,257.03770124999573,257.03770124999573,257.03770124999573,,257.4132912920031,,,,,,,,,,,,,,,,,,,,,,,,,,,,,,right,1.0,0.3721565830055624,,,,,sub-012,1,random_dot,,
right,right,32.0,0.0,16.0,right,1.0,0.7962634170107776,,speed,space,2.113064125005621,,,,,,0.0,0.0,0.0,1.0,16.0,0.0,32.0,1.0,257.4229480829963,,,,,,,,,257.4138152499945,258.21199470799183,259.0041964169941,258.9955567080033,258.99604537499545,259.0041964169941,259.0041964169941,259.0041964169941,,259.8058226669964,,,,,,,,,,,,,,,,,,,,,,,,,,,,,,right,1.0,0.7962634170107776,,,,,sub-012,1,random_dot,,
left,left,33.0,1.0,16.0,left,1.0,0.4069288750033593,,speed,space,2.113064125005621,,,,,,0.0,0.0,0.0,1.0,16.0,1.0,33.0,0.0,259.81373199999507,,,,,,,,,259.8062853329902,260.5952324999962,261.387893082996,261.3789966250042,261.3794277919951,261.387893082996,261.387893082996,261.387893082996,,261.8065626250027,,,,,,,,,,,,,,,,,,,,,,,,,,,,,,left,1.0,0.4069288750033593,,,,,sub-012,1,random_dot,,
left,left,34.0,0.0,17.0,left,1.0,0.8901643330027582,,speed,space,2.113064125005621,,,,,,0.0,0.0,0.0,1.0,17.0,0.0,34.0,0.0,261.8153526249953,,,,,,,,,261.807055792,261.90478212499875,262.6982147499948,262.6890698329953,262.6896987499931,262.6982147499948,262.6982147499948,262.6982147499948,,263.59114437499375,,,,,,,,,,,,,,,,,,,,,,,,,,,,,,left,1.0,0.8901643330027582,,,,,sub-012,1,random_dot,,
right,right,35.0,1.0,17.0,right,1.0,0.5263309589936398,,speed,space,2.113064125005621,,,,,,0.0,0.0,0.0,1.0,17.0,1.0,35.0,1.0,263.6003101249953,,,,,,,,,263.59168641699944,264.7883444170002,265.5813994170021,265.5725360829965,265.5732333329943,265.5813994170021,265.5813994170021,265.5813994170021,,266.1136206249939,,,,,,,,,,,,,,,,,,,,,,,,,,,,,,right,1.0,0.5263309589936398,,,,,sub-012,1,random_dot,,
right,right,36.0,0.0,18.0,right,1.0,0.4894488749996526,,speed,space,2.113064125005621,,,,,,0.0,0.0,0.0,1.0,18.0,0.0,36.0,1.0,266.12114612499136,,,,,,,,,266.11390933299845,266.46182120799494,267.2546911669924,267.2458562919928,267.24627354199765,267.2546911669924,267.2546911669924,267.2546911669924,,267.74652662499284,,,,,,,,,,,,,,,,,,,,,,,,,,,,,,right,1.0,0.4894488749996526,,,,,sub-012,1,random_dot,,
left,left,37.0,1.0,18.0,left,1.0,0.3998467500059632,,speed,space,2.113064125005621,,,,,,0.0,0.0,0.0,1.0,18.0,1.0,37.0,0.0,267.7544214579975,,,,,,,,,267.747000125004,268.9453292919934,269.7382261669991,269.7291545420012,269.7295794579986,269.7382261669991,269.7382261669991,269.7382261669991,,270.1401683330041,,,,,,,,,,,,,,,,,,,,,,,,,,,,,,left,1.0,0.3998467500059632,,,,,sub-012,1,random_dot,,
right,right,38.0,0.0,19.0,right,1.0,0.5649888330081012,,speed,space,2.113064125005621,,,,,,0.0,0.0,0.0,1.0,19.0,0.0,38.0,1.0,270.1475229170028,,,,,,,,,270.1407039170008,271.33827312500216,272.1317988749943,272.12261554200086,272.1232395830011,272.1317988749943,272.1317988749943,272.1317988749943,,272.7053742919961,,,,,,,,,,,,,,,,,,,,,,,,,,,,,,right,1.0,0.5649888330081012,,,,,sub-012,1,random_dot,,
left,left,39.0,1.0,19.0,left,1.0,0.5684626669972204,,speed,space,2.113064125005621,,,,,,0.0,0.0,0.0,1.0,19.0,1.0,39.0,0.0,272.71361929200066,,,,,,,,,272.70584341700305,273.04522333299974,273.83716562499467,273.82834345799347,273.8288287920004,273.83716562499467,273.83716562499467,273.83716562499467,,274.4142055419943,,,,,,,,,,,,,,,,,,,,,,,,,,,,,,left,1.0,0.5684626669972204,,,,,sub-012,1,random_dot,,
right,right,40.0,0.0,20.0,right,1.0,0.6291969169978984,,speed,space,2.113064125005621,,,,,,0.0,0.0,0.0,1.0,20.0,0.0,40.0,1.0,274.4237605829985,,,,,,,,,274.4147530420014,274.76211233300273,275.5544660000014,275.5456902500009,275.5461432500015,275.5544660000014,275.5544660000014,275.5544660000014,,276.1895518329984,,,,,,,,,,,,,,,,,,,,,,,,,,,,,,right,1.0,0.6291969169978984,,,,,sub-012,1,random_dot,,
left,left,41.0,1.0,20.0,left,1.0,0.3886317500000587,,speed,space,2.113064125005621,,,,,,0.0,0.0,0.0,1.0,20.0,1.0,41.0,0.0,276.19684170799155,,,,,,,,,276.1900410419912,277.38826325000264,278.1815419170016,278.1725164169912,278.1731304999994,278.1815419170016,278.1815419170016,278.1815419170016,,278.572317291997,,,,,,,,,,,,,,,,,,,,,,,,,,,,,,left,1.0,0.3886317500000587,,,,,sub-012,1,random_dot,,
left,left,42.0,0.0,21.0,left,1.0,0.8306621660012752,,speed,space,2.113064125005621,,,,,,0.0,0.0,0.0,1.0,21.0,0.0,42.0,0.0,278.5802641249902,,,,,,,,,278.57280166700366,279.3619403749908,280.15377199999057,280.1449487499922,280.14533654200204,280.15377199999057,280.15377199999057,280.15377199999057,,280.9893372499937,,,,,,,,,,,,,,,,,,,,,,,,,,,,,,left,1.0,0.8306621660012752,,,,,sub-012,1,random_dot,,
right,right,43.0,1.0,21.0,right,1.0,0.7672600840014638,,speed,space,2.113064125005621,,,,,,0.0,0.0,0.0,1.0,21.0,1.0,43.0,1.0,280.99852233300044,,,,,,,,,280.9898758329946,281.08707554200373,281.88208408300125,281.87320375000127,281.874006500002,281.88208408300125,281.88208408300125,281.88208408300125,,282.6566372919915,,,,,,,,,,,,,,,,,,,,,,,,,,,,,,right,1.0,0.7672600840014638,,,,,sub-012,1,random_dot,,
right,right,44.0,0.0,22.0,right,1.0,0.7251760409999406,,speed,space,2.113064125005621,,,,,,0.0,0.0,0.0,1.0,22.0,0.0,44.0,1.0,282.6656018749927,,,,,,,,,282.6571374999912,283.4549715829926,284.2479918750032,284.23916791699594,284.23977933300193,284.2479918750032,284.2479918750032,284.2479918750032,,284.9803298749903,,,,,,,,,,,,,,,,,,,,,,,,,,,,,,right,1.0,0.7251760409999406,,,,,sub-012,1,random_dot,,
left,left,45.0,1.0,22.0,left,1.0,0.4646434169990243,,speed,space,2.113064125005621,,,,,,0.0,0.0,0.0,1.0,22.0,1.0,45.0,0.0,284.9900015000021,,,,,,,,,284.9808666250028,285.3286747079983,286.1211360419984,286.1122888329992,286.1127703329985,286.1211360419984,286.1211360419984,286.1211360419984,,286.59009099999093,,,,,,,,,,,,,,,,,,,,,,,,,,,,,,left,1.0,0.4646434169990243,,,,,sub-012,1,random_dot,,
right,right,46.0,0.0,23.0,right,1.0,0.4867112909996649,,speed,space,2.113064125005621,,,,,,0.0,0.0,0.0,1.0,23.0,0.0,46.0,1.0,286.5981307500042,,,,,,,,,286.5905817079911,287.38823366699216,288.18107587499253,288.17229387500265,288.17277308300254,288.18107587499253,288.18107587499253,288.18107587499253,,288.671922249996,,,,,,,,,,,,,,,,,,,,,,,,,,,,,,right,1.0,0.4867112909996649,,,,,sub-012,1,random_dot,,
left,left,47.0,1.0,23.0,left,1.0,0.8560564999934286,,speed,space,2.113064125005621,,,,,,0.0,0.0,0.0,1.0,23.0,1.0,47.0,0.0,288.6810553329997,,,,,,,,,288.6724683749926,288.76232429199445,289.5552108330012,289.54575900000054,289.5462324999972,289.5552108330012,289.5552108330012,289.5552108330012,,290.4214696249983,,,,,,,,,,,,,,,,,,,,,,,,,,,,,,left,1.0,0.8560564999934286,,,,,sub-012,1,random_dot,,
left,left,48.0,0.0,24.0,left,1.0,0.9733164579956792,,speed,space,2.113064125005621,,,,,,0.0,0.0,0.0,1.0,24.0,0.0,48.0,0.0,290.4301915830001,,,,,,,,,290.4218431670015,290.77165570799843,291.5643287499988,291.55561670799216,291.5560986670025,291.5643287499988,291.5643287499988,291.5643287499988,,292.5456249169947,,,,,,,,,,,,,,,,,,,,,,,,,,,,,,left,1.0,0.9733164579956792,,,,,sub-012,1,random_dot,,
right,right,49.0,1.0,24.0,right,1.0,1.6276725420029834,,speed,space,2.113064125005621,,,,,,0.0,0.0,0.0,1.0,24.0,1.0,49.0,1.0,292.5536714170012,,,,,,,,,292.5461486669956,292.6439105419995,293.4371605829947,293.4282242079935,293.42871437499707,293.4371605829947,293.4371605829947,293.4371605829947,,295.07328425000014,,,,,,,,,,,,,,,,,,,,,,,,,,,,,,right,1.0,1.6276725420029834,,,,,sub-012,1,random_dot,,
right,right,50.0,0.0,25.0,right,1.0,1.867578584002331,,speed,space,2.113064125005621,,,,,,0.0,0.0,0.0,1.0,25.0,0.0,50.0,1.0,295.08143700000073,,,,,,,,,295.0737803749944,295.87168408300204,296.6640899579943,296.65558966700337,296.65606112500245,296.6640899579943,296.6640899579943,296.6640899579943,,298.54021495800407,,,,,,,,,,,,,,,,,,,,,,,,,,,,,,right,1.0,1.867578584002331,,,,,sub-012,1,random_dot,,
left,left,51.0,1.0,25.0,left,1.0,0.4606952920003095,,speed,space,2.113064125005621,,,,,,0.0,0.0,0.0,1.0,25.0,1.0,51.0,0.0,298.5478222499951,,,,,,,,,298.5406825829996,298.88844362499367,299.68077224999433,299.67228749999776,299.6727656669973,299.68077224999433,299.68077224999433,299.68077224999433,,300.1483342080028,,,,,,,,,,,,,,,,,,,,,,,,,,,,,,left,1.0,0.4606952920003095,,,,,sub-012,1,random_dot,,
right,right,52.0,0.0,26.0,right,1.0,0.5124028749996796,,speed,space,2.113064125005621,,,,,,0.0,0.0,0.0,1.0,26.0,0.0,52.0,1.0,300.1574725829996,,,,,,,,,300.14887616700435,300.4952864579973,301.28720325000177,301.2786570419994,301.27906833299494,301.28720325000177,301.28720325000177,301.28720325000177,,301.80661112499365,,,,,,,,,,,,,,,,,,,,,,,,,,,,,,right,1.0,0.5124028749996796,,,,,sub-012,1,random_dot,,
left,left,53.0,1.0,26.0,left,1.0,0.5132352910004556,,speed,space,2.113064125005621,,,,,,0.0,0.0,0.0,1.0,26.0,1.0,53.0,0.0,301.81344762499793,,,,,,,,,301.80700333300047,303.0051672080008,303.7976883749943,303.7890214999934,303.78951029200107,303.7976883749943,303.7976883749943,303.7976883749943,,304.3134807919996,,,,,,,,,,,,,,,,,,,,,,,,,,,,,,left,1.0,0.5132352910004556,,,,,sub-012,1,random_dot,,
right,right,54.0,0.0,27.0,right,1.0,0.4531272089952836,,speed,space,2.113064125005621,,,,,,0.0,0.0,0.0,1.0,27.0,0.0,54.0,1.0,304.33772854199924,,,,,,,,,304.313971333002,304.6620272500004,305.4544444170024,305.4456237919949,305.44608529200195,305.4544444170024,305.4544444170024,305.4544444170024,,305.9119614169904,,,,,,,,,,,,,,,,,,,,,,,,,,,,,,right,1.0,0.4531272089952836,,,,,sub-012,1,random_dot,,
left,left,55.0,1.0,27.0,left,1.0,0.4893474999989848,,speed,space,2.113064125005621,,,,,,0.0,0.0,0.0,1.0,27.0,1.0,55.0,0.0,305.9203688330017,,,,,,,,,305.9122328329977,306.0139665000024,306.8149129579979,306.80607141699875,306.80673216699506,306.8149129579979,306.8149129579979,306.8149129579979,,307.3055719999975,,,,,,,,,,,,,,,,,,,,,,,,,,,,,,left,1.0,0.4893474999989848,,,,,sub-012,1,random_dot,,
right,right,56.0,0.0,28.0,right,1.0,0.4909870409901486,,speed,space,2.113064125005621,,,,,,0.0,0.0,0.0,1.0,28.0,0.0,56.0,1.0,307.3108094999916,,,,,,,,,307.3058309579937,308.09545262499887,308.8883779169992,308.8791909580032,308.87961012499,308.8883779169992,308.8883779169992,308.8883779169992,,309.3896380419901,,,,,,,,,,,,,,,,,,,,,,,,,,,,,,right,1.0,0.4909870409901486,,,,,sub-012,1,random_dot,,
left,left,57.0,1.0,28.0,left,1.0,0.4785755409975536,,speed,space,2.113064125005621,,,,,,0.0,0.0,0.0,1.0,28.0,1.0,57.0,0.0,309.398380832994,,,,,,,,,309.3900220420037,310.18840812500275,310.98075408299337,310.9723123750009,310.9728240419936,310.98075408299337,310.98075408299337,310.98075408299337,,311.4625382919912,,,,,,,,,,,,,,,,,,,,,,,,,,,,,,left,1.0,0.4785755409975536,,,,,sub-012,1,random_dot,,
right,right,58.0,0.0,29.0,right,1.0,0.482856125003309,,speed,space,2.113064125005621,,,,,,0.0,0.0,0.0,1.0,29.0,0.0,58.0,1.0,311.47082124999724,,,,,,,,,311.46300695800164,311.56110379200254,312.3552444169909,312.34589354199125,312.3463114579936,312.3552444169909,312.3552444169909,312.3552444169909,,312.8403739170026,,,,,,,,,,,,,,,,,,,,,,,,,,,,,,right,1.0,0.482856125003309,,,,,sub-012,1,random_dot,,
left,left,59.0,1.0,29.0,left,1.0,0.3981337500008521,,speed,space,2.113064125005621,,,,,,0.0,0.0,0.0,1.0,29.0,1.0,59.0,0.0,312.84832483300124,,,,,,,,,312.8408803749917,313.1885672920034,313.9817592079926,313.97258445799525,313.9732203750027,313.9817592079926,313.9817592079926,313.9817592079926,,314.38894037499267,,,,,,,,,,,,,,,,,,,,,,,,,,,,,,left,1.0,0.3981337500008521,,,,,sub-012,1,random_dot,,
,,0.0,0.0,0.0,,,,,speed,space,2.113064125005621,,,,,,0.0,0.0,0.0,1.0,,,,,,,,,,,,,,,,,,,,,,,,,,,,,,,,,,,,,,,,,,,,,,,,,,,,,,,,,,,,sub-012,1,random_dot,,
left,left,0.0,0.0,0.0,left,1.0,2.440925332994084,,accuracy,space,11.288117167001474,,,,,,0.0,1.0,1.0,0.0,0.0,0.0,0.0,0.0,325.7270064579934,,,,,,,,,325.71693487500306,325.8050866669946,326.5973935420043,326.5888634169969,326.5893683750037,326.5973935420043,326.5973935420043,326.5973935420043,,329.04004037499544,,,,,,,,,,,,,,,,,,,,,,,314.4017584169924,314.408744291999,314.408744291999,325.70880483300425,space,11.288117167001474,,left,1.0,2.440925332994084,,,,,sub-012,1,random_dot,,
right,right,1.0,1.0,0.0,right,1.0,0.4926421670097625,,accuracy,space,11.288117167001474,,,,,,0.0,1.0,1.0,0.0,0.0,1.0,1.0,1.0,329.0475506249932,,,,,,,,,329.0405507079995,330.23833016699064,331.03067870798986,331.02237516699824,331.0227931249974,331.03067870798986,331.03067870798986,331.03067870798986,,331.52809012499347,,,,,,,,,,,,,,,,,,,,,,,,,,,,,,right,1.0,0.4926421670097625,,,,,sub-012,1,random_dot,,
right,right,2.0,0.0,1.0,left,0.0,0.4676720830029808,,accuracy,space,11.288117167001474,,,,,,0.0,1.0,1.0,0.0,1.0,0.0,2.0,1.0,331.53822849999415,,,,,,,,,331.5284069999907,331.87197720799304,332.6642882919987,332.6557119999925,332.6562379169918,332.6642882919987,332.6642882919987,332.6642882919987,,333.1399483330024,,,,,,,,,,,,,,,,,,,,,,,,,,,,,,left,0.0,0.4676720830029808,,,,,sub-012,1,random_dot,,
left,left,3.0,1.0,1.0,left,1.0,0.5300180839985842,,accuracy,space,11.288117167001474,,,,,,0.0,1.0,1.0,0.0,1.0,1.0,3.0,0.0,333.148827291996,,,,,,,,,333.14044904199545,333.4885052079917,334.2817859999923,334.2729011249903,334.2735224170028,334.2817859999923,334.2817859999923,334.2817859999923,,334.8138435000001,,,,,,,,,,,,,,,,,,,,,,,,,,,,,,left,1.0,0.5300180839985842,,,,,sub-012,1,random_dot,,
right,right,4.0,0.0,2.0,right,1.0,0.5162177500023972,,accuracy,space,11.288117167001474,,,,,,0.0,1.0,1.0,0.0,2.0,0.0,4.0,1.0,334.8219861249964,,,,,,,,,334.8143530419911,336.0116806669976,336.80546995799523,336.7957306669996,336.7961923749972,336.80546995799523,336.80546995799523,336.80546995799523,,337.3242164999974,,,,,,,,,,,,,,,,,,,,,,,,,,,,,,right,1.0,0.5162177500023972,,,,,sub-012,1,random_dot,,
left,left,5.0,1.0,2.0,left,1.0,0.5701825410069432,,accuracy,space,11.288117167001474,,,,,,0.0,1.0,1.0,0.0,2.0,1.0,5.0,0.0,337.33330729199224,,,,,,,,,337.324763083001,337.4208007080015,338.213426125003,338.2054718330037,338.2058568749926,338.213426125003,338.213426125003,338.213426125003,,338.7895893329988,,,,,,,,,,,,,,,,,,,,,,,,,,,,,,left,1.0,0.5701825410069432,,,,,sub-012,1,random_dot,,
right,right,6.0,0.0,3.0,right,1.0,1.122483083003317,,accuracy,space,11.288117167001474,,,,,,0.0,1.0,1.0,0.0,3.0,0.0,6.0,1.0,338.7959863330034,,,,,,,,,338.78988937499525,339.1385093330028,339.9316879580001,339.92270304200065,339.9233112919901,339.9316879580001,339.9316879580001,339.9316879580001,,341.05701666699315,,,,,,,,,,,,,,,,,,,,,,,,,,,,,,right,1.0,1.122483083003317,,,,,sub-012,1,random_dot,,
left,left,7.0,1.0,3.0,left,1.0,0.6018533750029746,,accuracy,space,11.288117167001474,,,,,,0.0,1.0,1.0,0.0,3.0,1.0,7.0,0.0,341.0658867919992,,,,,,,,,341.0574992079928,341.85507187499024,342.6482781669911,342.63926224999886,342.6398837500019,342.6482781669911,342.6482781669911,342.6482781669911,,343.2569494579948,,,,,,,,,,,,,,,,,,,,,,,,,,,,,,left,1.0,0.6018533750029746,,,,,sub-012,1,random_dot,,
left,left,8.0,0.0,4.0,left,1.0,2.780922833990189,,accuracy,space,11.288117167001474,,,,,,0.0,1.0,1.0,0.0,4.0,0.0,8.0,0.0,343.26588395799627,,,,,,,,,343.257435291991,343.3551917500008,344.1481407919928,344.139216208001,344.1398609579919,344.1481407919928,344.1481407919928,344.1481407919928,,346.9403846249916,,,,,,,,,,,,,,,,,,,,,,,,,,,,,,left,1.0,2.780922833990189,,,,,sub-012,1,random_dot,,
right,right,9.0,1.0,4.0,right,1.0,1.253312000000733,,accuracy,space,11.288117167001474,,,,,,0.0,1.0,1.0,0.0,4.0,1.0,9.0,1.0,346.9493764170038,,,,,,,,,346.9408746669942,347.7383884169976,348.5313377919956,348.5226989579969,348.5233078329911,348.5313377919956,348.5313377919956,348.5313377919956,,349.7904227919935,,,,,,,,,,,,,,,,,,,,,,,,,,,,,,right,1.0,1.253312000000733,,,,,sub-012,1,random_dot,,
left,left,10.0,0.0,5.0,left,1.0,0.6947472909960197,,accuracy,space,11.288117167001474,,,,,,0.0,1.0,1.0,0.0,5.0,0.0,10.0,0.0,349.7992791669967,,,,,,,,,349.79091883299407,350.1387539169955,350.9315082499961,350.92260608299694,350.9231055830023,350.9315082499961,350.9315082499961,350.9315082499961,,351.6296502920013,,,,,,,,,,,,,,,,,,,,,,,,,,,,,,left,1.0,0.6947472909960197,,,,,sub-012,1,random_dot,,
right,right,11.0,1.0,5.0,right,1.0,0.6307772920117714,,accuracy,space,11.288117167001474,,,,,,0.0,1.0,1.0,0.0,5.0,1.0,11.0,1.0,351.63851208299457,,,,,,,,,351.6301295829908,351.9789977920009,352.78157849999843,352.7727353329974,352.7733842919988,352.78157849999843,352.78157849999843,352.78157849999843,,353.42326908299583,,,,,,,,,,,,,,,,,,,,,,,,,,,,,,right,1.0,0.6307772920117714,,,,,sub-012,1,random_dot,,
right,right,12.0,0.0,6.0,right,1.0,0.8699379169993335,,accuracy,space,11.288117167001474,,,,,,0.0,1.0,1.0,0.0,6.0,0.0,12.0,1.0,353.4303409999993,,,,,,,,,353.42378066699894,353.7718492080021,354.56518954200146,354.5563567499921,354.5570214170002,354.56518954200146,354.56518954200146,354.56518954200146,,355.44072195800254,,,,,,,,,,,,,,,,,,,,,,,,,,,,,,right,1.0,0.8699379169993335,,,,,sub-012,1,random_dot,,
left,left,13.0,1.0,6.0,left,1.0,0.5057436250062892,,accuracy,space,11.288117167001474,,,,,,0.0,1.0,1.0,0.0,6.0,1.0,13.0,0.0,355.44989974999044,,,,,,,,,355.4412601669901,355.7884008330002,356.5822428749961,356.573344791992,356.5740732080012,356.5822428749961,356.5822428749961,356.5822428749961,,357.09664504199463,,,,,,,,,,,,,,,,,,,,,,,,,,,,,,left,1.0,0.5057436250062892,,,,,sub-012,1,random_dot,,
right,right,14.0,0.0,7.0,right,1.0,0.5332330829987768,,accuracy,space,11.288117167001474,,,,,,0.0,1.0,1.0,0.0,7.0,0.0,14.0,1.0,357.12135420799314,,,,,,,,,357.09712483300245,357.4457949579956,358.23799149999104,358.22891012499167,358.2293887080013,358.23799149999104,358.23799149999104,358.23799149999104,,358.78136020799866,,,,,,,,,,,,,,,,,,,,,,,,,,,,,,right,1.0,0.5332330829987768,,,,,sub-012,1,random_dot,,
left,left,15.0,1.0,7.0,left,1.0,0.5063179169956129,,accuracy,space,11.288117167001474,,,,,,0.0,1.0,1.0,0.0,7.0,1.0,15.0,0.0,358.7908260419936,,,,,,,,,358.78176979199634,358.8783539580036,359.67090208300215,359.6622699169966,359.66266720800195,359.67090208300215,359.67090208300215,359.67090208300215,,360.1808106669924,,,,,,,,,,,,,,,,,,,,,,,,,,,,,,left,1.0,0.5063179169956129,,,,,sub-012,1,random_dot,,
right,right,16.0,0.0,8.0,right,1.0,0.945105083999806,,accuracy,space,11.288117167001474,,,,,,0.0,1.0,1.0,0.0,8.0,0.0,16.0,1.0,360.18996954199974,,,,,,,,,360.1812705420016,360.5287583750032,361.3206219580025,361.3119958750031,361.3123765829951,361.3206219580025,361.3206219580025,361.3206219580025,,362.2733772920037,,,,,,,,,,,,,,,,,,,,,,,,,,,,,,right,1.0,0.945105083999806,,,,,sub-012,1,random_dot,,
left,left,17.0,1.0,8.0,left,1.0,0.4180693329981295,,accuracy,space,11.288117167001474,,,,,,0.0,1.0,1.0,0.0,8.0,1.0,17.0,0.0,362.2804550830042,,,,,,,,,362.2737939170038,363.47183045800193,364.2642167079903,364.2556922919903,364.2561551249965,364.2642167079903,364.2642167079903,364.2642167079903,,364.6891237919917,,,,,,,,,,,,,,,,,,,,,,,,,,,,,,left,1.0,0.4180693329981295,,,,,sub-012,1,random_dot,,
right,right,18.0,0.0,9.0,right,1.0,0.6830543340038275,,accuracy,space,11.288117167001474,,,,,,0.0,1.0,1.0,0.0,9.0,0.0,18.0,1.0,364.6972663749912,,,,,,,,,364.6895799579943,365.0277308749937,365.8216370000009,365.81291729200166,365.8133322499925,365.8216370000009,365.8216370000009,365.8216370000009,,366.5068044579966,,,,,,,,,,,,,,,,,,,,,,,,,,,,,,right,1.0,0.6830543340038275,,,,,sub-012,1,random_dot,,
left,left,19.0,1.0,9.0,left,1.0,0.4182138750038575,,accuracy,space,11.288117167001474,,,,,,0.0,1.0,1.0,0.0,9.0,1.0,19.0,0.0,366.5136682079901,,,,,,,,,366.5072806249955,366.85541566699976,367.648438624994,367.63947945799737,367.64010733299074,367.648438624994,367.648438624994,367.648438624994,,368.07377099999576,,,,,,,,,,,,,,,,,,,,,,,,,,,,,,left,1.0,0.4182138750038575,,,,,sub-012,1,random_dot,,
right,right,20.0,0.0,10.0,right,1.0,0.4371722080104518,,accuracy,space,11.288117167001474,,,,,,0.0,1.0,1.0,0.0,10.0,0.0,20.0,1.0,368.08102416699694,,,,,,,,,368.0742707079917,368.4218679579935,369.2143013750028,369.2057923749962,369.2062717499939,369.2143013750028,369.2143013750028,369.2143013750028,,369.6570440829965,,,,,,,,,,,,,,,,,,,,,,,,,,,,,,right,1.0,0.4371722080104518,,,,,sub-012,1,random_dot,,
left,left,21.0,1.0,10.0,left,1.0,0.483062790997792,,accuracy,space,11.288117167001474,,,,,,0.0,1.0,1.0,0.0,10.0,1.0,21.0,0.0,369.6650330419943,,,,,,,,,369.6575439169974,369.75540799999726,370.5484382080031,370.53964487499616,370.5402913750004,370.5484382080031,370.5484382080031,370.5484382080031,,371.03996808300144,,,,,,,,,,,,,,,,,,,,,,,,,,,,,,left,1.0,0.483062790997792,,,,,sub-012,1,random_dot,,
right,right,22.0,0.0,11.0,right,1.0,0.5346625000092899,,accuracy,space,11.288117167001474,,,,,,0.0,1.0,1.0,0.0,11.0,0.0,22.0,1.0,371.0469710000034,,,,,,,,,371.040472541994,371.13865112500207,371.9315295419947,371.9227327499975,371.923322082992,371.9315295419947,371.9315295419947,371.9315295419947,,372.4729113329959,,,,,,,,,,,,,,,,,,,,,,,,,,,,,,right,1.0,0.5346625000092899,,,,,sub-012,1,random_dot,,
left,left,23.0,1.0,11.0,left,1.0,0.2841104580002138,,accuracy,space,11.288117167001474,,,,,,0.0,1.0,1.0,0.0,11.0,1.0,23.0,0.0,372.4817451249983,,,,,,,,,372.4734256669908,372.8126193749922,373.6046279169968,373.5959709579911,373.5963890419953,373.6046279169968,373.6046279169968,373.6046279169968,,373.8901009999972,,,,,,,,,,,,,,,,,,,,,,,,,,,,,,left,1.0,0.2841104580002138,,,,,sub-012,1,random_dot,,
left,left,24.0,0.0,12.0,left,1.0,0.7222512499865843,,accuracy,space,11.288117167001474,,,,,,0.0,1.0,1.0,0.0,12.0,0.0,24.0,0.0,373.8955829579936,,,,,,,,,373.89041295800416,373.98808691700106,374.7818562500033,374.7728230829962,374.77345074999903,374.7818562500033,374.7818562500033,374.7818562500033,,375.5149485830043,,,,,,,,,,,,,,,,,,,,,,,,,,,,,,left,1.0,0.7222512499865843,,,,,sub-012,1,random_dot,,
right,right,25.0,1.0,12.0,right,1.0,0.4069636250060284,,accuracy,space,11.288117167001474,,,,,,0.0,1.0,1.0,0.0,12.0,1.0,25.0,1.0,375.5208021669969,,,,,,,,,375.5152316250024,375.8623803329974,376.6540942080028,376.6453377500002,376.6457251249958,376.6540942080028,376.6540942080028,376.6540942080028,,377.06464141700417,,,,,,,,,,,,,,,,,,,,,,,,,,,,,,right,1.0,0.4069636250060284,,,,,sub-012,1,random_dot,,
left,left,26.0,0.0,13.0,left,1.0,0.6726479170029052,,accuracy,space,11.288117167001474,,,,,,0.0,1.0,1.0,0.0,13.0,0.0,26.0,0.0,377.0741862499999,,,,,,,,,377.0651198749984,377.41221429199504,378.20510395799647,378.1959771669936,378.1963676669984,378.20510395799647,378.20510395799647,378.20510395799647,,378.88044370799616,,,,,,,,,,,,,,,,,,,,,,,,,,,,,,left,1.0,0.6726479170029052,,,,,sub-012,1,random_dot,,
right,right,27.0,1.0,13.0,right,1.0,0.3986951669940026,,accuracy,space,11.288117167001474,,,,,,0.0,1.0,1.0,0.0,13.0,1.0,27.0,1.0,378.8902577080007,,,,,,,,,378.8809958329948,379.22899583299295,380.0308587920008,380.0225934999908,380.0230561670032,380.0308587920008,380.0308587920008,380.0308587920008,,380.4396996669966,,,,,,,,,,,,,,,,,,,,,,,,,,,,,,right,1.0,0.3986951669940026,,,,,sub-012,1,random_dot,,
left,left,28.0,0.0,14.0,left,1.0,0.4589080000005197,,accuracy,space,11.288117167001474,,,,,,0.0,1.0,1.0,0.0,14.0,0.0,28.0,0.0,380.4486975420005,,,,,,,,,380.4402087499912,380.5388279579929,381.33182433299953,381.3228550420026,381.32346191699617,381.33182433299953,381.33182433299953,381.33182433299953,,381.7977595830016,,,,,,,,,,,,,,,,,,,,,,,,,,,,,,left,1.0,0.4589080000005197,,,,,sub-012,1,random_dot,,
right,right,29.0,1.0,14.0,right,1.0,0.3575977919972501,,accuracy,space,11.288117167001474,,,,,,0.0,1.0,1.0,0.0,14.0,1.0,29.0,1.0,381.8071368329984,,,,,,,,,381.7982332919928,382.1454025830026,382.9387154169963,382.9294879169902,382.9299238749954,382.9387154169963,382.9387154169963,382.9387154169963,,383.3059467499989,,,,,,,,,,,,,,,,,,,,,,,,,,,,,,right,1.0,0.3575977919972501,,,,,sub-012,1,random_dot,,
right,right,30.0,0.0,15.0,right,1.0,0.6923603330069454,,accuracy,space,11.288117167001474,,,,,,0.0,1.0,1.0,0.0,15.0,0.0,30.0,1.0,383.31477491700207,,,,,,,,,383.306449249998,384.0955352500023,384.8874319169991,384.8784273749916,384.8788935829944,384.8874319169991,384.8874319169991,384.8874319169991,,385.59000258299056,,,,,,,,,,,,,,,,,,,,,,,,,,,,,,right,1.0,0.6923603330069454,,,,,sub-012,1,random_dot,,
left,left,31.0,1.0,15.0,left,1.0,0.4006395420001354,,accuracy,space,11.288117167001474,,,,,,0.0,1.0,1.0,0.0,15.0,1.0,31.0,0.0,385.5996204999974,,,,,,,,,385.5905037079938,386.3887487920001,387.1820649169968,387.17284679200384,387.173476750002,387.1820649169968,387.1820649169968,387.1820649169968,,387.58910804199695,,,,,,,,,,,,,,,,,,,,,,,,,,,,,,left,1.0,0.4006395420001354,,,,,sub-012,1,random_dot,,
right,right,32.0,0.0,16.0,right,1.0,0.2960222500114469,,accuracy,space,11.288117167001474,,,,,,0.0,1.0,1.0,0.0,16.0,0.0,32.0,1.0,387.59598625000217,,,,,,,,,387.5895058750029,388.7788684169937,389.57154512499983,389.5624954999949,389.5629124169936,389.57154512499983,389.57154512499983,389.57154512499983,,389.87263683299534,,,,,,,,,,,,,,,,,,,,,,,,,,,,,,right,1.0,0.2960222500114469,,,,,sub-012,1,random_dot,,
left,left,33.0,1.0,16.0,left,1.0,0.5191932919988176,,accuracy,space,11.288117167001474,,,,,,0.0,1.0,1.0,0.0,16.0,1.0,33.0,0.0,389.88134083300247,,,,,,,,,389.8731232499995,389.97200470799,390.7644834579987,390.75598750000063,390.75647879199823,390.7644834579987,390.7644834579987,390.7644834579987,,391.289805124994,,,,,,,,,,,,,,,,,,,,,,,,,,,,,,left,1.0,0.5191932919988176,,,,,sub-012,1,random_dot,,
left,left,34.0,0.0,17.0,left,1.0,0.5564510419935687,,accuracy,space,11.288117167001474,,,,,,0.0,1.0,1.0,0.0,17.0,0.0,34.0,0.0,391.2973584580032,,,,,,,,,391.2902989169961,392.0886007919908,392.88186891700025,392.87282612499257,392.8734551249945,392.88186891700025,392.88186891700025,392.88186891700025,,393.4474099999934,,,,,,,,,,,,,,,,,,,,,,,,,,,,,,left,1.0,0.5564510419935687,,,,,sub-012,1,random_dot,,
right,right,35.0,1.0,17.0,right,1.0,0.3497424590023001,,accuracy,space,11.288117167001474,,,,,,0.0,1.0,1.0,0.0,17.0,1.0,35.0,1.0,393.4569769579976,,,,,,,,,393.4478992079967,394.2454418749985,395.03875779199007,395.0296841249947,395.0300373749924,395.03875779199007,395.03875779199007,395.03875779199007,,395.3905146250036,,,,,,,,,,,,,,,,,,,,,,,,,,,,,,right,1.0,0.3497424590023001,,,,,sub-012,1,random_dot,,
right,right,36.0,0.0,18.0,right,1.0,0.8311689580004895,,accuracy,space,11.288117167001474,,,,,,0.0,1.0,1.0,0.0,18.0,0.0,36.0,1.0,395.3977014169941,,,,,,,,,395.3910583749967,396.18895004199294,396.9814957499912,396.9727189580008,396.9732567500032,396.9814957499912,396.9814957499912,396.9814957499912,,397.8232583749923,,,,,,,,,,,,,,,,,,,,,,,,,,,,,,right,1.0,0.8311689580004895,,,,,sub-012,1,random_dot,,
left,left,37.0,1.0,18.0,left,1.0,0.4608508340024855,,accuracy,space,11.288117167001474,,,,,,0.0,1.0,1.0,0.0,18.0,1.0,37.0,0.0,397.8321268330037,,,,,,,,,397.8237525000004,398.17210666699975,398.96421420799743,398.955703707994,398.9561853329942,398.96421420799743,398.96421420799743,398.96421420799743,,399.4305471249973,,,,,,,,,,,,,,,,,,,,,,,,,,,,,,left,1.0,0.4608508340024855,,,,,sub-012,1,random_dot,,
left,left,38.0,0.0,19.0,right,0.0,0.4376229579938808,,accuracy,space,11.288117167001474,,,,,,0.0,1.0,1.0,0.0,19.0,0.0,38.0,0.0,399.43820679199416,,,,,,,,,399.4308185830014,399.5278999169968,400.3214916669968,400.31221333300346,400.3126775830024,400.3214916669968,400.3214916669968,400.3214916669968,,400.761620958001,,,,,,,,,,,,,,,,,,,,,,,,,,,,,,right,0.0,0.4376229579938808,,,,,sub-012,1,random_dot,,
right,right,39.0,1.0,19.0,right,1.0,0.6690690420073224,,accuracy,space,11.288117167001474,,,,,,0.0,1.0,1.0,0.0,19.0,1.0,39.0,1.0,400.7718699169927,,,,,,,,,400.7618930829922,400.8555025419919,401.6472764999926,401.6391438330029,401.639620957998,401.6472764999926,401.6472764999926,401.6472764999926,,402.3240005830012,,,,,,,,,,,,,,,,,,,,,,,,,,,,,,right,1.0,0.6690690420073224,,,,,sub-012,1,random_dot,,
right,right,40.0,0.0,20.0,right,1.0,0.7116204170015408,,accuracy,space,11.288117167001474,,,,,,0.0,1.0,1.0,0.0,20.0,0.0,40.0,1.0,402.332674958001,,,,,,,,,402.3244592080009,402.42199862499547,403.2151592919981,403.2061417499936,403.20675616699737,403.2151592919981,403.2151592919981,403.2151592919981,,403.9287089999998,,,,,,,,,,,,,,,,,,,,,,,,,,,,,,right,1.0,0.7116204170015408,,,,,sub-012,1,random_dot,,
left,left,41.0,1.0,20.0,left,1.0,0.716113000002224,,accuracy,space,11.288117167001474,,,,,,0.0,1.0,1.0,0.0,20.0,1.0,41.0,0.0,403.9385187500011,,,,,,,,,403.9289944170014,405.1220559999929,405.91488237500016,405.9060812079988,405.9067162919964,405.91488237500016,405.91488237500016,405.91488237500016,,406.6384795420017,,,,,,,,,,,,,,,,,,,,,,,,,,,,,,left,1.0,0.716113000002224,,,,,sub-012,1,random_dot,,
right,right,42.0,0.0,21.0,right,1.0,0.526903374993708,,accuracy,space,11.288117167001474,,,,,,0.0,1.0,1.0,0.0,21.0,0.0,42.0,1.0,406.64533674999257,,,,,,,,,406.63875025000016,406.7282059169957,407.5210402499943,407.51221649999206,407.51267366699176,407.5210402499943,407.5210402499943,407.5210402499943,,408.056586916995,,,,,,,,,,,,,,,,,,,,,,,,,,,,,,right,1.0,0.526903374993708,,,,,sub-012,1,random_dot,,
left,left,43.0,1.0,21.0,left,1.0,0.4341757919901283,,accuracy,space,11.288117167001474,,,,,,0.0,1.0,1.0,0.0,21.0,1.0,43.0,0.0,408.0655764999974,,,,,,,,,408.0571093329927,409.2555172499997,410.0477624999912,410.0393332919921,410.0398202499928,410.0477624999912,410.0477624999912,410.0477624999912,,410.4889817919902,,,,,,,,,,,,,,,,,,,,,,,,,,,,,,left,1.0,0.4341757919901283,,,,,sub-012,1,random_dot,,
left,left,44.0,0.0,22.0,left,1.0,0.4461913749983068,,accuracy,space,11.288117167001474,,,,,,0.0,1.0,1.0,0.0,22.0,0.0,44.0,0.0,410.49602491699625,,,,,,,,,410.489447874992,411.27920437499415,412.07087170799787,412.0622383329901,412.0626394169958,412.07087170799787,412.07087170799787,412.07087170799787,,412.52384020799946,,,,,,,,,,,,,,,,,,,,,,,,,,,,,,left,1.0,0.4461913749983068,,,,,sub-012,1,random_dot,,
right,right,45.0,1.0,22.0,right,1.0,0.5065355419937987,,accuracy,space,11.288117167001474,,,,,,0.0,1.0,1.0,0.0,22.0,1.0,45.0,1.0,412.53059354200377,,,,,,,,,412.5241139169957,413.7221214579913,414.5153531249962,414.50635508299456,414.50696266700106,414.5153531249962,414.5153531249962,414.5153531249962,,415.0241895829968,,,,,,,,,,,,,,,,,,,,,,,,,,,,,,right,1.0,0.5065355419937987,,,,,sub-012,1,random_dot,,
right,right,46.0,0.0,23.0,right,1.0,0.4907492499914951,,accuracy,space,11.288117167001474,,,,,,0.0,1.0,1.0,0.0,23.0,0.0,46.0,1.0,415.0309575830033,,,,,,,,,415.0246677079994,415.12192858300114,415.9152925419912,415.90625512499537,415.9068672499998,415.9152925419912,415.9152925419912,415.9152925419912,,416.4129640000028,,,,,,,,,,,,,,,,,,,,,,,,,,,,,,right,1.0,0.4907492499914951,,,,,sub-012,1,random_dot,,
left,left,47.0,1.0,23.0,left,1.0,0.3339354579948121,,accuracy,space,11.288117167001474,,,,,,0.0,1.0,1.0,0.0,23.0,1.0,47.0,0.0,416.4207752499933,,,,,,,,,416.4132607079955,417.6129048750008,418.4158796669944,418.4065848750033,418.4072526669916,418.4158796669944,418.4158796669944,418.4158796669944,,418.7572042079992,,,,,,,,,,,,,,,,,,,,,,,,,,,,,,left,1.0,0.3339354579948121,,,,,sub-012,1,random_dot,,
right,right,48.0,0.0,24.0,right,1.0,0.4871149590035202,,accuracy,space,11.288117167001474,,,,,,0.0,1.0,1.0,0.0,24.0,0.0,48.0,1.0,418.7647132499988,,,,,,,,,418.7576916249964,418.8555044999957,419.6476707499969,419.6395797500009,419.6398952079908,419.6476707499969,419.6476707499969,419.6476707499969,,420.1400767079904,,,,,,,,,,,,,,,,,,,,,,,,,,,,,,right,1.0,0.4871149590035202,,,,,sub-012,1,random_dot,,
left,left,49.0,1.0,24.0,left,1.0,0.5347392919939011,,accuracy,space,11.288117167001474,,,,,,0.0,1.0,1.0,0.0,24.0,1.0,49.0,0.0,420.1476039580011,,,,,,,,,420.1405689169914,420.488820707993,421.2818956249976,421.272955374996,421.2735964169988,421.2818956249976,421.2818956249976,421.2818956249976,,421.8239477919997,,,,,,,,,,,,,,,,,,,,,,,,,,,,,,left,1.0,0.5347392919939011,,,,,sub-012,1,random_dot,,
right,right,50.0,0.0,25.0,right,1.0,0.3298287500074366,,accuracy,space,11.288117167001474,,,,,,0.0,1.0,1.0,0.0,25.0,0.0,50.0,1.0,421.8321267499996,,,,,,,,,421.82444245800434,421.9214999169926,422.71508604199335,422.7064328749984,422.7070505829906,422.71508604199335,422.71508604199335,422.71508604199335,,423.047596999997,,,,,,,,,,,,,,,,,,,,,,,,,,,,,,right,1.0,0.3298287500074366,,,,,sub-012,1,random_dot,,
left,left,51.0,1.0,25.0,left,1.0,0.5118004999967525,,accuracy,space,11.288117167001474,,,,,,0.0,1.0,1.0,0.0,25.0,1.0,51.0,0.0,423.0572462919954,,,,,,,,,423.04821437499777,423.39577400000417,424.18845008299104,424.1790957920021,424.1796977920021,424.18845008299104,424.18845008299104,424.18845008299104,,424.7056024170015,,,,,,,,,,,,,,,,,,,,,,,,,,,,,,left,1.0,0.5118004999967525,,,,,sub-012,1,random_dot,,
left,left,52.0,0.0,26.0,left,1.0,0.4951692920003552,,accuracy,space,11.288117167001474,,,,,,0.0,1.0,1.0,0.0,26.0,0.0,52.0,0.0,424.71433529199567,,,,,,,,,424.7060990419996,425.4958857500024,426.2877735420043,426.2794074999984,426.27974237500166,426.2877735420043,426.2877735420043,426.2877735420043,,426.7908483749925,,,,,,,,,,,,,,,,,,,,,,,,,,,,,,left,1.0,0.4951692920003552,,,,,sub-012,1,random_dot,,
right,right,53.0,1.0,26.0,right,1.0,0.340651374994195,,accuracy,space,11.288117167001474,,,,,,0.0,1.0,1.0,0.0,26.0,1.0,53.0,1.0,426.7985719999997,,,,,,,,,426.7913087079942,426.8886842499924,427.68165433299146,427.6729187919991,427.6735331669916,427.68165433299146,427.68165433299146,427.68165433299146,,428.02494716699584,,,,,,,,,,,,,,,,,,,,,,,,,,,,,,right,1.0,0.340651374994195,,,,,sub-012,1,random_dot,,
right,right,54.0,0.0,27.0,right,1.0,0.597471332992427,,accuracy,space,11.288117167001474,,,,,,0.0,1.0,1.0,0.0,27.0,0.0,54.0,1.0,428.0337429170031,,,,,,,,,428.0254674169992,428.3723626669962,429.1640312919917,429.15601512500143,429.156436958001,429.1640312919917,429.1640312919917,429.1640312919917,,429.7644334999932,,,,,,,,,,,,,,,,,,,,,,,,,,,,,,right,1.0,0.597471332992427,,,,,sub-012,1,random_dot,,
left,left,55.0,1.0,27.0,left,1.0,0.3933367499994347,,accuracy,space,11.288117167001474,,,,,,0.0,1.0,1.0,0.0,27.0,1.0,55.0,0.0,429.7724611250014,,,,,,,,,429.7649590420042,430.9624112919992,431.7543538329919,431.7460837499966,431.7464269579941,431.7543538329919,431.7543538329919,431.7543538329919,,432.1572266250005,,,,,,,,,,,,,,,,,,,,,,,,,,,,,,left,1.0,0.3933367499994347,,,,,sub-012,1,random_dot,,
right,right,56.0,0.0,28.0,right,1.0,0.3762171249982202,,accuracy,space,11.288117167001474,,,,,,0.0,1.0,1.0,0.0,28.0,0.0,56.0,1.0,432.1656592919898,,,,,,,,,432.1576878329943,432.5054047500016,433.2978246669954,433.2894363749947,433.28988912499335,433.2978246669954,433.2978246669954,433.2978246669954,,433.6800540419936,,,,,,,,,,,,,,,,,,,,,,,,,,,,,,right,1.0,0.3762171249982202,,,,,sub-012,1,random_dot,,
left,left,57.0,1.0,28.0,left,1.0,0.4339433749992167,,accuracy,space,11.288117167001474,,,,,,0.0,1.0,1.0,0.0,28.0,1.0,57.0,0.0,433.687466916992,,,,,,,,,433.6803228329954,434.87846808299946,435.67154212499736,435.6630875830015,435.6634834580036,435.67154212499736,435.67154212499736,435.67154212499736,,436.11582212499343,,,,,,,,,,,,,,,,,,,,,,,,,,,,,,left,1.0,0.4339433749992167,,,,,sub-012,1,random_dot,,
right,right,58.0,0.0,29.0,right,1.0,0.5419814580091042,,accuracy,space,11.288117167001474,,,,,,0.0,1.0,1.0,0.0,29.0,0.0,58.0,1.0,436.1246914170042,,,,,,,,,436.1161960000027,436.4626706249983,437.2551346249966,437.24629283299146,437.24672337499214,437.2551346249966,437.2551346249966,437.2551346249966,,437.80617287500354,,,,,,,,,,,,,,,,,,,,,,,,,,,,,,right,1.0,0.5419814580091042,,,,,sub-012,1,random_dot,,
left,left,59.0,1.0,29.0,left,1.0,0.4944414579949807,,accuracy,space,11.288117167001474,,,,,,0.0,1.0,1.0,0.0,29.0,1.0,59.0,0.0,437.8149984170013,,,,,,,,,437.8066635830037,438.146193958004,438.9380637499999,438.9291478329978,438.9295465000032,438.9380637499999,438.9380637499999,438.9380637499999,,439.4387888749916,,,,,,,,,,,,,,,,,,,,,,,,,,,,,,left,1.0,0.4944414579949807,,,,,sub-012,1,random_dot,,
,,1.0,1.0,0.0,,,,,accuracy,space,11.288117167001474,,,,,,0.0,1.0,1.0,0.0,,,,,,,,,,,,,,,,,,,,,,,,,,,,,,,,,,,,,,,,,,,,,,,,,,,,,,,,,,,,sub-012,1,random_dot,,
,,,,,,,,,,,,,,,,,,,,,,,,,,,,,,,,,,,,,,,,,,,,,,,,,,,,,,,,,,,,,,,,,,,,,,,,,,,,,439.4431951669976,439.4509377499926,444.438982541993,sub-012,1,random_dot,,
