wordCTK,colorCTK,corrAnsCTK,congruentCTK,thisN,thisTrialN,thisRepN,keyResp_CTK.keys,keyResp_CTK.corr,keyResp_CTK.rt,keyResp_CTK.duration,wordPractice,colorPractice,corrAnsPractice,congruentPractice,respPractice.keys,respPractice.corr,respPractice.rt,respPractice.duration,word,color,corrAns,congruent,keyResp_test_run.keys,keyResp_test_run.corr,keyResp_test_run.rt,keyResp_test_run.duration,trials_CTK.thisRepN,trials_CTK.thisTrialN,trials_CTK.thisN,trials_CTK.thisIndex,trials_practice.thisRepN,trials_practice.thisTrialN,trials_practice.thisN,trials_practice.thisIndex,trials_test.thisRepN,trials_test.thisTrialN,trials_test.thisN,trials_test.thisIndex,thisRow.t,notes,instruction.started,instr_text.started,instr_image.started,instr_resp.started,instruction.stopped,instr_resp.keys,instr_resp.rt,instr_resp.duration,instr_color_to_key.started,instr_ctk.started,resp_ctk.started,instr_color_to_key.stopped,resp_ctk.keys,resp_ctk.rt,resp_ctk.duration,ITI.started,fixcross.started,fixcross.stopped,ITI.stopped,color_to_key_run.started,stimulus_CTK.started,keyResp_CTK.started,color_to_key_run.stopped,trials_CTK.keyResp_CTK.keys,trials_CTK.keyResp_CTK.corr,trials_CTK.keyResp_CTK.rt,trials_CTK.keyResp_CTK.duration,instr_practice.started,instr_practice_text.started,instr_practice_resp.started,instr_practice.stopped,instr_practice_resp.keys,instr_practice_resp.rt,instr_practice_resp.duration,practice_run.started,stimulus_practice.started,respPractice.started,practice_run.stopped,trials_practice.respPractice.keys,trials_practice.respPractice.corr,trials_practice.respPractice.rt,trials_practice.respPractice.duration,feedback.started,textFeedback.started,feedback.stopped,textFeedback.stopped,instr_test.started,instr_test_text.started,instr_test_resp.started,instr_test.stopped,instr_test_resp.keys,instr_test_resp.rt,instr_test_resp.duration,test_run.started,stimulus_test_run.started,keyResp_test_run.started,test_run.stopped,trials_test.keyResp_test_run.keys,trials_test.keyResp_test_run.corr,trials_test.keyResp_test_run.rt,trials_test.keyResp_test_run.duration,goodbye.started,textGoodbye.started,goodbye.stopped,participant,session,expName,frameRate,Unnamed: 112
,,,,,,,,,,,,,,,,,,,,,,,,,,,,,,,,,,,,,,,,,0.0143937330003609,0.0360850430001846,0.0360850430001846,0.0360850430001846,24.963133409999955,space,24.909063827999944,,,,,,,,,,,,,,,,,,,,,,,,,,,,,,,,,,,,,,,,,,,,,,,,,,,,,,,,,,sub-044,1,stroop_test,60.25331578519818,
,,,,,,,,,,,,,,,,,,,,,,,,,,,,,,,,,,,,,,,,,,,,,,,,,24.963200301000143,24.97897965400034,24.97897965400034,35.06773707000002,space,10.08692696800017,,,,,,,,,,,,,,,,,,,,,,,,,,,,,,,,,,,,,,,,,,,,,,,,,,,sub-044,1,stroop_test,60.25331578519818,
test,yellow,g,1.0,0.0,0.0,0.0,g,1.0,0.8383111869998174,,,,,,,,,,,,,,,,,,0.0,0.0,0.0,1.0,,,,,,,,,35.10131840500026,,,,,,,,,,,,,,,,,35.08281642200018,35.16882468299991,35.98668563000001,35.96663742700002,35.970980947000044,35.98668563000001,35.98668563000001,36.83398547500019,g,1.0,0.8383111869998174,,,,,,,,,,,,,,,,,,,,,,,,,,,,,,,,,,,,,,,sub-044,1,stroop_test,60.25331578519818,
test,blue,b,1.0,1.0,1.0,0.0,b,1.0,0.4820962269996016,,,,,,,,,,,,,,,,,,0.0,1.0,1.0,2.0,,,,,,,,,36.85032280099995,,,,,,,,,,,,,,,,,36.83426781200024,38.0317454660003,38.83441984499996,38.81788240200012,38.81825387900017,38.83441984499996,38.83441984499996,39.31982221099997,b,1.0,0.4820962269996016,,,,,,,,,,,,,,,,,,,,,,,,,,,,,,,,,,,,,,,sub-044,1,stroop_test,60.25331578519818,
test,red,r,1.0,2.0,2.0,0.0,r,1.0,0.3898625950000678,,,,,,,,,,,,,,,,,,0.0,2.0,2.0,0.0,,,,,,,,,39.33582191200003,,,,,,,,,,,,,,,,,39.32010977200025,39.43431805799992,40.235039444999984,40.21861345800016,40.21900670500008,40.235039444999984,40.235039444999984,40.63647489899995,r,1.0,0.3898625950000678,,,,,,,,,,,,,,,,,,,,,,,,,,,,,,,,,,,,,,,sub-044,1,stroop_test,60.25331578519818,
test,blue,b,1.0,3.0,0.0,1.0,b,1.0,0.5584217240002545,,,,,,,,,,,,,,,,,,1.0,0.0,3.0,2.0,,,,,,,,,40.65226735000033,,,,,,,,,,,,,,,,,40.63675367199994,40.75157184599993,41.551683809000224,41.53601768399994,41.53643240400015,41.551683809000224,41.551683809000224,42.12075231400013,b,1.0,0.5584217240002545,,,,,,,,,,,,,,,,,,,,,,,,,,,,,,,,,,,,,,,sub-044,1,stroop_test,60.25331578519818,
test,red,r,1.0,4.0,1.0,1.0,r,1.0,0.8269871050001711,,,,,,,,,,,,,,,,,,1.0,1.0,4.0,0.0,,,,,,,,,42.13680411399992,,,,,,,,,,,,,,,,,42.121036625000215,42.48571534700022,43.28578281900036,43.27004196300004,43.270419229000254,43.28578281900036,43.28578281900036,44.12175599700004,r,1.0,0.8269871050001711,,,,,,,,,,,,,,,,,,,,,,,,,,,,,,,,,,,,,,,sub-044,1,stroop_test,60.25331578519818,
test,yellow,g,1.0,5.0,2.0,1.0,g,1.0,0.3003357449997565,,,,,,,,,,,,,,,,,,1.0,2.0,5.0,1.0,,,,,,,,,44.13829781100003,,,,,,,,,,,,,,,,,44.12203704600006,45.33703042400021,46.13775798999996,46.12136353699998,46.12174446900008,46.13775798999996,46.13775798999996,46.44041970900025,g,1.0,0.3003357449997565,,,,,,,,,,,,,,,,,,,,,,,,,,,,,,,,,,,,,,,sub-044,1,stroop_test,60.25331578519818,
test,red,r,1.0,6.0,0.0,2.0,r,1.0,0.4435502129999804,,,,,,,,,,,,,,,,,,2.0,0.0,6.0,0.0,,,,,,,,,46.456206243,,,,,,,,,,,,,,,,,46.44068455800016,46.804502174999925,47.604460562999975,47.58875315700016,47.58913284800019,47.604460562999975,47.604460562999975,48.05650355600028,r,1.0,0.4435502129999804,,,,,,,,,,,,,,,,,,,,,,,,,,,,,,,,,,,,,,,sub-044,1,stroop_test,60.25331578519818,
test,yellow,g,1.0,7.0,1.0,2.0,g,1.0,0.5770252910001545,,,,,,,,,,,,,,,,,,2.0,1.0,7.0,1.0,,,,,,,,,48.07122157399999,,,,,,,,,,,,,,,,,48.05677435000007,48.40635213700034,49.20537187300033,49.18929702300011,49.18968282100013,49.20537187300033,49.20537187300033,49.790999973,g,1.0,0.5770252910001545,,,,,,,,,,,,,,,,,,,,,,,,,,,,,,,,,,,,,,,sub-044,1,stroop_test,60.25331578519818,
test,blue,b,1.0,8.0,2.0,2.0,b,1.0,0.3052546829999301,,,,,,,,,,,,,,,,,,2.0,2.0,8.0,2.0,,,,,,,,,49.80698933700023,,,,,,,,,,,,,,,,,49.79128416200001,50.6059394480003,51.40639746600027,51.39059008499999,51.390988139,51.40639746600027,51.40639746600027,51.72467189700001,b,1.0,0.3052546829999301,,,,,,,,,,,,,,,,,,,,,,,,,,,,,,,,,,,,,,,sub-044,1,stroop_test,60.25331578519818,
test,blue,b,1.0,9.0,0.0,3.0,b,1.0,0.4515135259998715,,,,,,,,,,,,,,,,,,3.0,0.0,9.0,2.0,,,,,,,,,51.74088490200029,,,,,,,,,,,,,,,,,51.72493848400018,51.840034995000224,52.640708094000274,52.624583496000014,52.62499362100016,52.640708094000274,52.640708094000274,53.11003344400024,b,1.0,0.4515135259998715,,,,,,,,,,,,,,,,,,,,,,,,,,,,,,,,,,,,,,,sub-044,1,stroop_test,60.25331578519818,
test,red,r,1.0,10.0,1.0,3.0,r,1.0,0.6163941889999478,,,,,,,,,,,,,,,,,,3.0,1.0,10.0,0.0,,,,,,,,,53.12408055700007,,,,,,,,,,,,,,,,,53.11027666300015,54.324730771000304,55.12472281300006,55.10871485799999,55.10910190200002,55.12472281300006,55.12472281300006,55.744626101,r,1.0,0.6163941889999478,,,,,,,,,,,,,,,,,,,,,,,,,,,,,,,,,,,,,,,sub-044,1,stroop_test,60.25331578519818,
test,yellow,g,1.0,11.0,2.0,3.0,g,1.0,0.4671994960003758,,,,,,,,,,,,,,,,,,3.0,2.0,11.0,1.0,,,,,,,,,55.75886410300018,,,,,,,,,,,,,,,,,55.74489151800026,56.55914346200007,57.35938196200004,57.34319051900002,57.34357119600008,57.35938196200004,57.35938196200004,57.82859680799993,g,1.0,0.4671994960003758,,,,,,,,,,,,,,,,,,,,,,,,,,,,,,,,,,,,,,,sub-044,1,stroop_test,60.25331578519818,
,,,,,,,,,,,,,,,,,,,,,,,,,,,,,,,,,,,,,,,,,,,,,,,,,,,,,,,,,,,,,,,,,,,,57.82872515899999,57.845939500999975,57.845939500999975,60.16286354700014,space,2.311441549999927,,,,,,,,,,,,,,,,,,,,,,,,,,,,,,,,sub-044,1,stroop_test,60.25331578519818,
,,,,0.0,0.0,0.0,,,,,rot,yellow,g,0.0,r,0.0,0.8997313630002282,,,,,,,,,,,,,,0.0,0.0,0.0,3.0,,,,,60.188747436000085,,,,,,,,,,,,,,,,,60.17439361900006,60.52759233699999,61.33107316299993,61.311976488000255,,,,,,,,,,,,,,,,61.31570596100028,61.33107316299993,61.33107316299993,62.24675672100011,r,0.0,0.8997313630002282,,62.25280500899999,62.26969401399992,63.26222017999999,,,,,,,,,,,,,,,,,,,,sub-044,1,stroop_test,60.25331578519818,
,,,,1.0,1.0,0.0,,,,,blau,blue,b,1.0,b,1.0,0.781932525999764,,,,,,,,,,,,,,0.0,1.0,1.0,6.0,,,,,63.27900427300028,,,,,,,,,,,,,,,,,63.26250395600027,64.04602504200011,64.84963616000005,64.83014688999992,,,,,,,,,,,,,,,,64.83383931300023,64.84963616000005,64.84963616000005,65.648683979,b,1.0,0.781932525999764,,65.65274105300023,65.66913940600034,66.66383976800034,,,,,,,,,,,,,,,,,,,,sub-044,1,stroop_test,60.25331578519818,
,,,,2.0,2.0,0.0,,,,,gelb,yellow,g,1.0,g,1.0,0.6668559909999203,,,,,,,,,,,,,,0.0,2.0,2.0,11.0,,,,,66.68059720300016,,,,,,,,,,,,,,,,,66.66411997600017,67.01393704600014,67.81565432900015,67.79833174700025,,,,,,,,,,,,,,,,67.80056976600008,67.81565432900015,67.81565432900015,68.48447076699995,g,1.0,0.6668559909999203,,68.48491475100036,68.50173320000022,69.4985575200003,,,,,,,,,,,,,,,,,,,,sub-044,1,stroop_test,60.25331578519818,
,,,,3.0,3.0,0.0,,,,,blau,blue,b,1.0,b,1.0,0.6373596040002667,,,,,,,,,,,,,,0.0,3.0,3.0,5.0,,,,,69.51517111000021,,,,,,,,,,,,,,,,,69.49882116500021,69.84851326000035,70.65032937800015,70.63299362299995,,,,,,,,,,,,,,,,70.6352689360001,70.65032937800015,70.65032937800015,71.30098646200031,b,1.0,0.6373596040002667,,71.3013849060003,71.3182407080003,72.31666490299995,,,,,,,,,,,,,,,,,,,,sub-044,1,stroop_test,60.25331578519818,
,,,,4.0,4.0,0.0,,,,,blau,red,r,0.0,r,1.0,1.1479229430001396,,,,,,,,,,,,,,0.0,4.0,4.0,4.0,,,,,72.33325475500033,,,,,,,,,,,,,,,,,72.31692684600011,72.4165975740002,73.21702634600024,73.20082680299993,,,,,,,,,,,,,,,,73.20120524699996,73.21702634600024,73.21702634600024,74.36978305599996,r,1.0,1.1479229430001396,,74.37021682800014,74.38705107700025,75.38474988600001,,,,,,,,,,,,,,,,,,,,sub-044,1,stroop_test,60.25331578519818,
,,,,5.0,5.0,0.0,,,,,rot,red,r,1.0,r,1.0,0.6152458329997899,,,,,,,,,,,,,,0.0,5.0,5.0,1.0,,,,,75.40120551200016,,,,,,,,,,,,,,,,,75.38501136500008,75.73484779299997,76.53780351600017,76.5189119050001,,,,,,,,,,,,,,,,76.52248735900002,76.53780351600017,76.53780351600017,77.17096115300001,r,1.0,0.6152458329997899,,77.17148868799995,77.1868685710001,78.17012447900015,78.18600985800003,,,,,,,,,,,,,,,,,,,sub-044,1,stroop_test,60.25331578519818,
,,,,6.0,6.0,0.0,,,,,gelb,yellow,g,1.0,g,1.0,0.6547207439998601,,,,,,,,,,,,,,0.0,6.0,6.0,10.0,,,,,78.18600985800003,,,,,,,,,,,,,,,,,78.17037729100002,78.97289654700035,79.7879756530001,79.77065883100022,,,,,,,,,,,,,,,,79.77289315500002,79.7879756530001,79.7879756530001,80.45452904100011,g,1.0,0.6547207439998601,,80.45491979999997,80.47107290700023,81.45476300900009,81.47059550700033,,,,,,,,,,,,,,,,,,,sub-044,1,stroop_test,60.25331578519818,
,,,,7.0,7.0,0.0,,,,,blau,yellow,g,0.0,g,1.0,1.0834626120004032,,,,,,,,,,,,,,0.0,7.0,7.0,7.0,,,,,81.47059550700033,,,,,,,,,,,,,,,,,81.45500648899997,81.8042360520003,82.60628277400019,82.58863784100004,,,,,,,,,,,,,,,,82.59087538600033,82.60628277400019,82.60628277400019,83.70643913200001,g,1.0,1.0834626120004032,,83.70684727400021,83.72340508000025,84.70630831200015,84.72247299100036,,,,,,,,,,,,,,,,,,,sub-044,1,stroop_test,60.25331578519818,
,,,,8.0,8.0,0.0,,,,,rot,blue,b,0.0,b,1.0,1.2015242080001372,,,,,,,,,,,,,,0.0,8.0,8.0,2.0,,,,,84.72247299100036,,,,,,,,,,,,,,,,,84.70655046899992,85.90639702599992,86.70873749900011,86.69070036800031,,,,,,,,,,,,,,,,86.69305473400027,86.70873749900011,86.70873749900011,87.92526919400007,b,1.0,1.2015242080001372,,87.92566635599997,87.94321571499995,88.94134080699996,,,,,,,,,,,,,,,,,,,,sub-044,1,stroop_test,60.25331578519818,
,,,,9.0,9.0,0.0,,,,,gelb,red,r,0.0,r,1.0,0.8050835479998568,,,,,,,,,,,,,,0.0,9.0,9.0,8.0,,,,,88.95774891100018,,,,,,,,,,,,,,,,,88.94161242600012,89.27456230899998,90.0763350870002,90.05891136900027,,,,,,,,,,,,,,,,90.06115967799997,90.0763350870002,90.0763350870002,90.8936982780001,r,1.0,0.8050835479998568,,90.89412550499992,90.911038405,91.90919743800032,,,,,,,,,,,,,,,,,,,,sub-044,1,stroop_test,60.25331578519818,
,,,,10.0,10.0,0.0,,,,,rot,red,r,1.0,r,1.0,0.5644235649997427,,,,,,,,,,,,,,0.0,10.0,10.0,0.0,,,,,91.92552716299996,,,,,,,,,,,,,,,,,91.90953278300005,92.00932341499993,92.81120364800016,92.79351833400004,,,,,,,,,,,,,,,,92.79591045999996,92.81120364800016,92.81120364800016,93.37794657500037,r,1.0,0.5644235649997427,,93.37836201000027,93.39508399700026,94.39387309400036,,,,,,,,,,,,,,,,,,,,sub-044,1,stroop_test,60.25331578519818,
,,,,11.0,11.0,0.0,,,,,gelb,blue,b,0.0,b,1.0,0.8319545409999591,,,,,,,,,,,,,,0.0,11.0,11.0,9.0,,,,,94.41016204100016,,,,,,,,,,,,,,,,,94.39413892199993,94.47694578100028,95.27945521200036,95.26156888900005,,,,,,,,,,,,,,,,95.2641782820001,95.27945521200036,95.27945521200036,96.11357215499991,b,1.0,0.8319545409999591,,96.11400764000018,96.1315064710002,97.12853815500011,,,,,,,,,,,,,,,,,,,,sub-044,1,stroop_test,60.25331578519818,
,,,,12.0,0.0,1.0,,,,,blau,red,r,0.0,r,1.0,1.1448880910002115,,,,,,,,,,,,,,1.0,0.0,12.0,4.0,,,,,97.14494939700036,,,,,,,,,,,,,,,,,97.12890420600024,97.47847938399993,98.28020736999996,98.26276595800029,,,,,,,,,,,,,,,,98.26503335899996,98.28020736999996,98.28020736999996,99.44896899300012,r,1.0,1.1448880910002115,,99.44971400700024,99.46836178400008,100.46320925600004,,,,,,,,,,,,,,,,,,,,sub-044,1,stroop_test,60.25331578519818,
,,,,13.0,1.0,1.0,,,,,gelb,yellow,g,1.0,g,1.0,0.7211500290000004,,,,,,,,,,,,,,1.0,1.0,13.0,11.0,,,,,100.47983058,,,,,,,,,,,,,,,,,100.46346927800003,101.26358950700023,102.06507728099996,102.04777289599996,,,,,,,,,,,,,,,,102.05000154100026,102.06507728099996,102.06507728099996,102.79849465999996,g,1.0,0.7211500290000004,,102.79888781299996,102.81497394100006,103.79869606200008,103.81470574100013,,,,,,,,,,,,,,,,,,,sub-044,1,stroop_test,60.25331578519818,
,,,,14.0,2.0,1.0,,,,,rot,yellow,g,0.0,g,1.0,1.7230762059998597,,,,,,,,,,,,,,1.0,2.0,14.0,3.0,,,,,103.81470574100013,,,,,,,,,,,,,,,,,103.79894296300016,104.14843814000004,104.95046354700024,104.93261594000025,,,,,,,,,,,,,,,,104.93484263400023,104.95046354700024,104.95046354700024,106.684578504,g,1.0,1.7230762059998597,,106.6850330850002,106.70172523500014,107.69997538999996,,,,,,,,,,,,,,,,,,,,sub-044,1,stroop_test,60.25331578519818,
,,,,15.0,3.0,1.0,,,,,rot,red,r,1.0,r,1.0,0.9183110160001888,,,,,,,,,,,,,,1.0,3.0,15.0,1.0,,,,,107.71674857700008,,,,,,,,,,,,,,,,,107.70024009200006,108.0335342110002,108.8338030230002,108.81785842499994,,,,,,,,,,,,,,,,108.8182803200002,108.8338030230002,108.8338030230002,109.75430647500023,r,1.0,0.9183110160001888,,109.75479773400002,109.773343802,110.76799506499992,,,,,,,,,,,,,,,,,,,,sub-044,1,stroop_test,60.25331578519818,
,,,,16.0,4.0,1.0,,,,,blau,yellow,g,0.0,g,1.0,0.6918230319997747,,,,,,,,,,,,,,1.0,4.0,16.0,7.0,,,,,110.78485704600008,,,,,,,,,,,,,,,,,110.76825591600029,111.96865545100036,112.77056048800024,112.75303223300034,,,,,,,,,,,,,,,,112.75529175700012,112.77056048800024,112.77056048800024,113.47052304800036,g,1.0,0.6918230319997747,,113.4709517440001,113.4874890860001,114.48666608400026,,,,,,,,,,,,,,,,,,,,sub-044,1,stroop_test,60.25331578519818,
,,,,17.0,5.0,1.0,,,,,gelb,yellow,g,1.0,g,1.0,0.6332932780001101,,,,,,,,,,,,,,1.0,5.0,17.0,10.0,,,,,114.50318233999997,,,,,,,,,,,,,,,,,114.48694315400007,114.5697972830003,115.37204113000008,115.35416280900016,,,,,,,,,,,,,,,,115.3564277290002,115.37204113000008,115.37204113000008,116.02241534199992,g,1.0,0.6332932780001101,,116.02284754300037,116.03949253300016,117.03781462899995,,,,,,,,,,,,,,,,,,,,sub-044,1,stroop_test,60.25331578519818,
,,,,18.0,6.0,1.0,,,,,rot,red,r,1.0,r,1.0,0.5661731989998771,,,,,,,,,,,,,,1.0,6.0,18.0,0.0,,,,,117.0543842420002,,,,,,,,,,,,,,,,,117.03810960400006,117.83825603600008,118.64052747100004,118.62250295500009,,,,,,,,,,,,,,,,118.62516938900036,118.64052747100004,118.64052747100004,119.22327528999996,r,1.0,0.5661731989998771,,119.22367254400024,119.23846620900032,120.22311588599996,120.2393644230001,,,,,,,,,,,,,,,,,,,sub-044,1,stroop_test,60.25331578519818,
,,,,19.0,7.0,1.0,,,,,gelb,red,r,0.0,r,1.0,0.9763240529996438,,,,,,,,,,,,,,1.0,7.0,19.0,8.0,,,,,120.2393644230001,,,,,,,,,,,,,,,,,120.22336509900016,120.322395358,121.12318588300012,121.10696622100022,,,,,,,,,,,,,,,,121.10919444499996,121.12318588300012,121.12318588300012,122.10781355500012,r,1.0,0.9763240529996438,,122.10824458900017,122.12497772100004,123.12402539899996,,,,,,,,,,,,,,,,,,,,sub-044,1,stroop_test,60.25331578519818,
,,,,20.0,8.0,1.0,,,,,blau,blue,b,1.0,b,1.0,0.6134119549997195,,,,,,,,,,,,,,1.0,8.0,20.0,5.0,,,,,123.1419726500003,,,,,,,,,,,,,,,,,123.12429152999994,123.4571719730002,124.2624089650003,124.2433138780002,,,,,,,,,,,,,,,,124.24750766800024,124.2624089650003,124.2624089650003,124.89503865100004,b,1.0,0.6134119549997195,,124.89583001600022,124.91275363500016,125.9068050740002,,,,,,,,,,,,,,,,,,,,sub-044,1,stroop_test,60.25331578519818,
,,,,21.0,9.0,1.0,,,,,blau,blue,b,1.0,b,1.0,0.6681930019999527,,,,,,,,,,,,,,1.0,9.0,21.0,6.0,,,,,125.92524527100022,,,,,,,,,,,,,,,,,125.90757097000004,126.25821774900032,127.05935322200004,127.04377783300016,,,,,,,,,,,,,,,,127.04418238900008,127.05935322200004,127.05935322200004,127.74581041400006,b,1.0,0.6681930019999527,,127.74624063100008,127.76150403300016,128.76008594800032,,,,,,,,,,,,,,,,,,,,sub-044,1,stroop_test,60.25331578519818,
,,,,22.0,10.0,1.0,,,,,rot,blue,b,0.0,b,1.0,1.560693185999753,,,,,,,,,,,,,,1.0,10.0,22.0,2.0,,,,,128.77668463700002,,,,,,,,,,,,,,,,,128.76034606700023,129.56032949500013,130.36375701099996,130.34515025300016,,,,,,,,,,,,,,,,130.3482060629999,130.36375701099996,130.36375701099996,131.9302279440003,b,1.0,1.560693185999753,,131.93066266200003,131.94841846200006,132.9455369100001,,,,,,,,,,,,,,,,,,,,sub-044,1,stroop_test,60.25331578519818,
,,,,23.0,11.0,1.0,,,,,gelb,blue,b,0.0,b,1.0,0.8782753699997556,,,,,,,,,,,,,,1.0,11.0,23.0,9.0,,,,,132.96188202600024,,,,,,,,,,,,,,,,,132.94579071800035,133.04535757600024,133.84888793300024,133.82956305000016,,,,,,,,,,,,,,,,133.83178677000024,133.84888793300024,133.84888793300024,134.73165792300006,b,1.0,0.8782753699997556,,134.73210093600028,134.74988893499994,135.7466655789999,,,,,,,,,,,,,,,,,,,,sub-044,1,stroop_test,60.25331578519818,
,,,,,,,,,,,,,,,,,,,,,,,,,,,,,,,,,,,,,,,,,,,,,,,,,,,,,,,,,,,,,,,,,,,,,,,,,,,,,,,,,,,,,,,135.74677037300034,135.7629306040003,135.7629306040003,138.89972366500024,space,3.129212744999677,,,,,,,,,,,,,sub-044,1,stroop_test,60.25331578519818,
,,,,0.0,0.0,0.0,,,,,,,,,,,,,rot,yellow,g,0.0,g,1.0,1.113132091999887,,,,,,,,,,0.0,0.0,0.0,3.0,138.92641392199994,,,,,,,,,,,,,,,,,138.9122595130002,139.7151088630003,140.52110525600028,140.49994490400013,,,,,,,,,,,,,,,,,,,,,,,,,,,,,,,,,,,140.50402556300014,140.52110525600028,140.52110525600028,141.65127419200007,g,1.0,1.113132091999887,,,,,sub-044,1,stroop_test,60.25331578519818,
,,,,1.0,1.0,0.0,,,,,,,,,,,,,blau,red,r,0.0,r,1.0,1.181381624000096,,,,,,,,,,0.0,1.0,1.0,4.0,141.66608630600012,,,,,,,,,,,,,,,,,141.6515913410003,142.46650844500027,143.26876307500015,143.25088503799998,,,,,,,,,,,,,,,,,,,,,,,,,,,,,,,,,,,143.25302065000005,143.26876307500015,143.26876307500015,144.4532157540002,r,1.0,1.181381624000096,,,,,sub-044,1,stroop_test,60.25331578519818,
,,,,2.0,2.0,0.0,,,,,,,,,,,,,gelb,yellow,g,1.0,g,1.0,0.679182230999686,,,,,,,,,,0.0,2.0,2.0,11.0,144.469754793,,,,,,,,,,,,,,,,,144.45351944999993,145.26779853400012,146.06980748500018,146.05208752499993,,,,,,,,,,,,,,,,,,,,,,,,,,,,,,,,,,,146.05434404900006,146.06980748500018,146.06980748500018,146.7541244920003,g,1.0,0.679182230999686,,,,,sub-044,1,stroop_test,60.25331578519818,
,,,,3.0,3.0,0.0,,,,,,,,,,,,,blau,blue,b,1.0,b,1.0,0.6552161970002999,,,,,,,,,,0.0,3.0,3.0,5.0,146.77054242500026,,,,,,,,,,,,,,,,,146.754446509,146.86907750499995,147.67089346300008,147.65277609400027,,,,,,,,,,,,,,,,,,,,,,,,,,,,,,,,,,,147.65499518700017,147.67089346300008,147.67089346300008,148.3375886130002,b,1.0,0.6552161970002999,,,,,sub-044,1,stroop_test,60.25331578519818,
,,,,4.0,4.0,0.0,,,,,,,,,,,,,blau,blue,b,1.0,b,1.0,0.5398505979997026,,,,,,,,,,0.0,4.0,4.0,6.0,148.35340601500002,,,,,,,,,,,,,,,,,148.3379003670002,148.45248645600032,149.25264773800018,149.2366593380002,,,,,,,,,,,,,,,,,,,,,,,,,,,,,,,,,,,149.2370383350003,149.25264773800018,149.25264773800018,149.80511064400025,b,1.0,0.5398505979997026,,,,,sub-044,1,stroop_test,60.25331578519818,
,,,,5.0,5.0,0.0,,,,,,,,,,,,,gelb,yellow,g,1.0,g,1.0,0.5267078550000406,,,,,,,,,,0.0,5.0,5.0,10.0,149.8212569100001,,,,,,,,,,,,,,,,,149.80542093700024,149.91995978100022,150.72925080899995,150.7099301620001,,,,,,,,,,,,,,,,,,,,,,,,,,,,,,,,,,,150.71571120499993,150.72925080899995,150.72925080899995,151.27217195999992,g,1.0,0.5267078550000406,,,,,sub-044,1,stroop_test,60.25331578519818,
,,,,6.0,6.0,0.0,,,,,,,,,,,,,gelb,blue,b,0.0,b,1.0,0.941501111999969,,,,,,,,,,0.0,6.0,6.0,9.0,151.28787903600005,,,,,,,,,,,,,,,,,151.27247435200024,151.38684093200027,152.1876417809999,152.17192814400005,,,,,,,,,,,,,,,,,,,,,,,,,,,,,,,,,,,152.1723327730001,152.1876417809999,152.1876417809999,153.1396943320001,b,1.0,0.941501111999969,,,,,sub-044,1,stroop_test,60.25331578519818,
,,,,7.0,7.0,0.0,,,,,,,,,,,,,rot,red,r,1.0,r,1.0,0.5482786450002095,,,,,,,,,,0.0,7.0,7.0,0.0,153.15559869200024,,,,,,,,,,,,,,,,,153.14000669300003,154.3555079990001,155.15722434200006,155.1396368630003,,,,,,,,,,,,,,,,,,,,,,,,,,,,,,,,,,,155.14182397000013,155.15722434200006,155.15722434200006,155.70872288400005,r,1.0,0.5482786450002095,,,,,sub-044,1,stroop_test,60.25331578519818,
,,,,8.0,8.0,0.0,,,,,,,,,,,,,blau,yellow,g,0.0,g,1.0,0.5043323249997229,,,,,,,,,,0.0,8.0,8.0,7.0,155.72454235600026,,,,,,,,,,,,,,,,,155.7090292500002,156.92332703700004,157.72510809300002,157.70752045300014,,,,,,,,,,,,,,,,,,,,,,,,,,,,,,,,,,,157.71003621199998,157.72510809300002,157.72510809300002,158.24215954700003,g,1.0,0.5043323249997229,,,,,sub-044,1,stroop_test,60.25331578519818,
,,,,9.0,9.0,0.0,,,,,,,,,,,,,rot,red,r,1.0,r,1.0,0.5684525990000111,,,,,,,,,,0.0,9.0,9.0,1.0,158.25711292200003,,,,,,,,,,,,,,,,,158.24266468700034,159.05763222299993,159.85924687900024,159.84196509000003,,,,,,,,,,,,,,,,,,,,,,,,,,,,,,,,,,,159.84416407200024,159.85924687900024,159.85924687900024,160.4428607130003,r,1.0,0.5684525990000111,,,,,sub-044,1,stroop_test,60.25331578519818,
,,,,10.0,10.0,0.0,,,,,,,,,,,,,rot,blue,b,0.0,b,1.0,0.635719366000103,,,,,,,,,,0.0,10.0,10.0,2.0,160.45885462900014,,,,,,,,,,,,,,,,,160.44318366700008,160.80933207099997,161.60835001400028,161.59262304699996,,,,,,,,,,,,,,,,,,,,,,,,,,,,,,,,,,,161.59301869799992,161.60835001400028,161.60835001400028,162.26093612800014,b,1.0,0.635719366000103,,,,,sub-044,1,stroop_test,60.25331578519818,
,,,,11.0,11.0,0.0,,,,,,,,,,,,,gelb,red,r,0.0,r,1.0,0.6391803559999971,,,,,,,,,,0.0,11.0,11.0,8.0,162.2769605870003,,,,,,,,,,,,,,,,,162.26126539200004,162.62590780300025,163.42848091800033,163.41043753600025,,,,,,,,,,,,,,,,,,,,,,,,,,,,,,,,,,,163.41258873700008,163.42848091800033,163.42848091800033,164.07822720800004,r,1.0,0.6391803559999971,,,,,sub-044,1,stroop_test,60.25331578519818,
,,,,12.0,0.0,1.0,,,,,,,,,,,,,rot,yellow,g,0.0,g,1.0,0.5501740590002555,,,,,,,,,,1.0,0.0,12.0,3.0,164.0925461310003,,,,,,,,,,,,,,,,,164.07853242200008,164.89380203200017,165.69559526000012,165.6779603990003,,,,,,,,,,,,,,,,,,,,,,,,,,,,,,,,,,,165.68018637700015,165.69559526000012,165.69559526000012,166.26267174500026,g,1.0,0.5501740590002555,,,,,sub-044,1,stroop_test,60.25331578519818,
,,,,13.0,1.0,1.0,,,,,,,,,,,,,gelb,yellow,g,1.0,g,1.0,0.5485280650000277,,,,,,,,,,1.0,1.0,13.0,10.0,166.27870855200035,,,,,,,,,,,,,,,,,166.26297811299992,167.07798907300003,167.8807865560002,167.86251277600013,,,,,,,,,,,,,,,,,,,,,,,,,,,,,,,,,,,167.86505410000018,167.8807865560002,167.8807865560002,168.43185922800012,g,1.0,0.5485280650000277,,,,,sub-044,1,stroop_test,60.25331578519818,
,,,,14.0,2.0,1.0,,,,,,,,,,,,,rot,red,r,1.0,r,1.0,0.6552407849999327,,,,,,,,,,1.0,2.0,14.0,1.0,168.44776887900025,,,,,,,,,,,,,,,,,168.43217606100006,168.79558030499993,169.59701130800022,169.57974222400026,,,,,,,,,,,,,,,,,,,,,,,,,,,,,,,,,,,169.581878513,169.59701130800022,169.59701130800022,170.2646220820002,r,1.0,0.6552407849999327,,,,,sub-044,1,stroop_test,60.25331578519818,
,,,,15.0,3.0,1.0,,,,,,,,,,,,,gelb,red,r,0.0,r,1.0,0.6837092119999397,,,,,,,,,,1.0,3.0,15.0,8.0,170.2805737040003,,,,,,,,,,,,,,,,,170.26492283700009,171.07978771300031,171.88182769800005,171.8643138110001,,,,,,,,,,,,,,,,,,,,,,,,,,,,,,,,,,,171.8665688000001,171.88182769800005,171.88182769800005,172.58229574300003,r,1.0,0.6837092119999397,,,,,sub-044,1,stroop_test,60.25331578519818,
,,,,16.0,4.0,1.0,,,,,,,,,,,,,blau,blue,b,1.0,b,1.0,0.6390599930000462,,,,,,,,,,1.0,4.0,16.0,6.0,172.59713936100025,,,,,,,,,,,,,,,,,172.5826194350002,173.79784226099991,174.6002115680003,174.5822877280002,,,,,,,,,,,,,,,,,,,,,,,,,,,,,,,,,,,174.5849908690002,174.6002115680003,174.6002115680003,175.25045939100028,b,1.0,0.6390599930000462,,,,,sub-044,1,stroop_test,60.25331578519818,
,,,,17.0,5.0,1.0,,,,,,,,,,,,,rot,blue,b,0.0,b,1.0,1.048484388000361,,,,,,,,,,1.0,5.0,17.0,2.0,175.2664922419999,,,,,,,,,,,,,,,,,175.25076055199995,176.46600348200036,177.26830995699993,177.2504987430002,,,,,,,,,,,,,,,,,,,,,,,,,,,,,,,,,,,177.25293769900009,177.26830995699993,177.26830995699993,178.31956842299996,b,1.0,1.048484388000361,,,,,sub-044,1,stroop_test,60.25331578519818,
,,,,18.0,6.0,1.0,,,,,,,,,,,,,blau,yellow,g,0.0,g,1.0,1.109229692000099,,,,,,,,,,1.0,6.0,18.0,7.0,178.33546997400026,,,,,,,,,,,,,,,,,178.31986983800016,179.13379370700022,179.93557374400007,179.9181272640003,,,,,,,,,,,,,,,,,,,,,,,,,,,,,,,,,,,179.92037263800012,179.93557374400007,179.93557374400007,181.0534825700001,g,1.0,1.109229692000099,,,,,sub-044,1,stroop_test,60.25331578519818,
,,,,19.0,7.0,1.0,,,,,,,,,,,,,gelb,yellow,g,1.0,g,1.0,0.5499897220001913,,,,,,,,,,1.0,7.0,19.0,11.0,181.0696977400003,,,,,,,,,,,,,,,,,181.053804571,181.86843345800025,182.6707181490001,182.6526234769999,,,,,,,,,,,,,,,,,,,,,,,,,,,,,,,,,,,182.65487834600023,182.6707181490001,182.6707181490001,183.23929984200004,g,1.0,0.5499897220001913,,,,,sub-044,1,stroop_test,60.25331578519818,
,,,,20.0,8.0,1.0,,,,,,,,,,,,,blau,blue,b,1.0,b,1.0,0.5521804400000292,,,,,,,,,,1.0,8.0,20.0,5.0,183.253807607,,,,,,,,,,,,,,,,,183.23962368699995,184.05277655100008,184.85458967600016,184.8370789780001,,,,,,,,,,,,,,,,,,,,,,,,,,,,,,,,,,,184.83947540500003,184.85458967600016,184.85458967600016,185.421544755,b,1.0,0.5521804400000292,,,,,sub-044,1,stroop_test,60.25331578519818,
,,,,21.0,9.0,1.0,,,,,,,,,,,,,blau,red,r,0.0,r,1.0,0.5772284129998297,,,,,,,,,,1.0,9.0,21.0,4.0,185.43604647500024,,,,,,,,,,,,,,,,,185.4218359209999,186.22056665200037,187.02084265200028,187.00496320999991,,,,,,,,,,,,,,,,,,,,,,,,,,,,,,,,,,,187.005392693,187.02084265200028,187.02084265200028,187.60672770300016,r,1.0,0.5772284129998297,,,,,sub-044,1,stroop_test,60.25331578519818,
,,,,22.0,10.0,1.0,,,,,,,,,,,,,gelb,blue,b,0.0,b,1.0,0.7499730539998382,,,,,,,,,,1.0,10.0,22.0,9.0,187.62258562900024,,,,,,,,,,,,,,,,,187.6070354980002,187.7208816140001,188.52355946700027,188.50563317000024,,,,,,,,,,,,,,,,,,,,,,,,,,,,,,,,,,,188.50811085800024,188.52355946700027,188.52355946700027,189.290342585,b,1.0,0.7499730539998382,,,,,sub-044,1,stroop_test,60.25331578519818,
,,,,23.0,11.0,1.0,,,,,,,,,,,,,rot,red,r,1.0,r,1.0,0.5146246360000077,,,,,,,,,,1.0,11.0,23.0,0.0,189.306767479,,,,,,,,,,,,,,,,,189.29068170000028,190.10606987100027,190.9073468000001,190.88969624300037,,,,,,,,,,,,,,,,,,,,,,,,,,,,,,,,,,,190.89190617800023,190.9073468000001,190.9073468000001,191.4256428120002,r,1.0,0.5146246360000077,,,,,sub-044,1,stroop_test,60.25331578519818,
,,,,24.0,0.0,2.0,,,,,,,,,,,,,rot,red,r,1.0,r,1.0,0.552052719999665,,,,,,,,,,2.0,0.0,24.0,0.0,191.44253696400028,,,,,,,,,,,,,,,,,191.4259537120001,191.537960915,192.33998791600013,192.3240710519999,,,,,,,,,,,,,,,,,,,,,,,,,,,,,,,,,,,192.32447391999995,192.33998791600013,192.33998791600013,192.90810159600005,r,1.0,0.552052719999665,,,,,sub-044,1,stroop_test,60.25331578519818,
,,,,25.0,1.0,2.0,,,,,,,,,,,,,gelb,red,r,0.0,r,1.0,0.6223868570000377,,,,,,,,,,2.0,1.0,25.0,8.0,192.92397703200004,,,,,,,,,,,,,,,,,192.90838476399995,193.7073546370002,194.5097907940003,194.49176496300012,,,,,,,,,,,,,,,,,,,,,,,,,,,,,,,,,,,194.49445798600027,194.5097907940003,194.5097907940003,195.142850148,r,1.0,0.6223868570000377,,,,,sub-044,1,stroop_test,60.25331578519818,
,,,,26.0,2.0,2.0,,,,,,,,,,,,,gelb,yellow,g,1.0,g,1.0,0.6577235559998371,,,,,,,,,,2.0,2.0,26.0,11.0,195.15888463200008,,,,,,,,,,,,,,,,,195.1431600740002,195.2583956620001,196.0589351550002,196.0423613920002,,,,,,,,,,,,,,,,,,,,,,,,,,,,,,,,,,,196.04274720400008,196.0589351550002,196.0589351550002,196.727056278,g,1.0,0.6577235559998371,,,,,sub-044,1,stroop_test,60.25331578519818,
,,,,27.0,3.0,2.0,,,,,,,,,,,,,blau,blue,b,1.0,b,1.0,0.4897635589995843,,,,,,,,,,2.0,3.0,27.0,5.0,196.74297467299996,,,,,,,,,,,,,,,,,196.72735415800025,196.84214187499992,197.643897854,197.6264808880001,,,,,,,,,,,,,,,,,,,,,,,,,,,,,,,,,,,197.6286226090001,197.643897854,197.643897854,198.1442179800001,b,1.0,0.4897635589995843,,,,,sub-044,1,stroop_test,60.25331578519818,
,,,,28.0,4.0,2.0,,,,,,,,,,,,,blau,red,r,0.0,r,1.0,1.073811661000036,,,,,,,,,,2.0,4.0,28.0,4.0,198.16017432000035,,,,,,,,,,,,,,,,,198.14451371700036,198.2596875970003,199.05998542299997,199.0439173660002,,,,,,,,,,,,,,,,,,,,,,,,,,,,,,,,,,,199.0445151200001,199.05998542299997,199.05998542299997,200.14519392700004,r,1.0,1.073811661000036,,,,,sub-044,1,stroop_test,60.25331578519818,
,,,,29.0,5.0,2.0,,,,,,,,,,,,,rot,yellow,g,0.0,g,1.0,1.0321599249996325,,,,,,,,,,2.0,5.0,29.0,3.0,200.161160012,,,,,,,,,,,,,,,,,200.14550561400029,200.94406065600012,201.7467487849999,201.72850609200032,,,,,,,,,,,,,,,,,,,,,,,,,,,,,,,,,,,201.7309950240001,201.7467487849999,201.7467487849999,202.781174062,g,1.0,1.0321599249996325,,,,,sub-044,1,stroop_test,60.25331578519818,
,,,,30.0,6.0,2.0,,,,,,,,,,,,,rot,blue,b,0.0,b,1.0,0.7730314530003852,,,,,,,,,,2.0,6.0,30.0,2.0,202.79730187600035,,,,,,,,,,,,,,,,,202.78148586900036,202.89512081400017,203.69497540700013,203.67925547100003,,,,,,,,,,,,,,,,,,,,,,,,,,,,,,,,,,,203.67964453600007,203.69497540700013,203.69497540700013,204.48020125700032,b,1.0,0.7730314530003852,,,,,sub-044,1,stroop_test,60.25331578519818,
,,,,31.0,7.0,2.0,,,,,,,,,,,,,blau,yellow,g,0.0,g,1.0,0.909470846000204,,,,,,,,,,2.0,7.0,31.0,7.0,204.49474844800037,,,,,,,,,,,,,,,,,204.4804872770001,205.6796934500003,206.48166031000028,206.4640213470002,,,,,,,,,,,,,,,,,,,,,,,,,,,,,,,,,,,206.466354141,206.48166031000028,206.48166031000028,207.39877988000035,g,1.0,0.909470846000204,,,,,sub-044,1,stroop_test,60.25331578519818,
,,,,32.0,8.0,2.0,,,,,,,,,,,,,rot,red,r,1.0,r,1.0,0.5664175090000754,,,,,,,,,,2.0,8.0,32.0,1.0,207.41465537500017,,,,,,,,,,,,,,,,,207.3990891970002,208.597741392,209.39938864500027,209.38181098099997,,,,,,,,,,,,,,,,,,,,,,,,,,,,,,,,,,,209.38400461500032,209.39938864500027,209.39938864500027,209.9680911180003,r,1.0,0.5664175090000754,,,,,sub-044,1,stroop_test,60.25331578519818,
,,,,33.0,9.0,2.0,,,,,,,,,,,,,blau,blue,b,1.0,b,1.0,0.6640549740000097,,,,,,,,,,2.0,9.0,33.0,6.0,209.98408334100031,,,,,,,,,,,,,,,,,209.96840206100023,211.18228552000028,211.9846172090001,211.9668000810002,,,,,,,,,,,,,,,,,,,,,,,,,,,,,,,,,,,211.9690329670002,211.9846172090001,211.9846172090001,212.65229743100008,b,1.0,0.6640549740000097,,,,,sub-044,1,stroop_test,60.25331578519818,
,,,,34.0,10.0,2.0,,,,,,,,,,,,,gelb,yellow,g,1.0,g,1.0,0.6082205650000105,,,,,,,,,,2.0,10.0,34.0,10.0,212.6682287970002,,,,,,,,,,,,,,,,,212.652597499,213.86698717800027,214.6695969110001,214.6512191930001,,,,,,,,,,,,,,,,,,,,,,,,,,,,,,,,,,,214.65382221200025,214.6695969110001,214.6695969110001,215.2864631020002,g,1.0,0.6082205650000105,,,,,sub-044,1,stroop_test,60.25331578519818,
,,,,35.0,11.0,2.0,,,,,,,,,,,,,gelb,blue,b,0.0,b,1.0,0.9243439970000508,,,,,,,,,,2.0,11.0,35.0,9.0,215.301108313,,,,,,,,,,,,,,,,,215.28677997900013,215.4008938490001,216.20126473500025,216.18533941000032,,,,,,,,,,,,,,,,,,,,,,,,,,,,,,,,,,,216.1857108880004,216.20126473500025,216.20126473500025,217.13641509100037,b,1.0,0.9243439970000508,,,,,sub-044,1,stroop_test,60.25331578519818,
,,,,36.0,0.0,3.0,,,,,,,,,,,,,rot,red,r,1.0,r,1.0,0.4017121150000093,,,,,,,,,,3.0,0.0,36.0,0.0,217.15223598400007,,,,,,,,,,,,,,,,,217.13672011100016,217.9355784620002,218.7374865490001,218.71989234600005,,,,,,,,,,,,,,,,,,,,,,,,,,,,,,,,,,,218.7220779510003,218.7374865490001,218.7374865490001,219.15465493300007,r,1.0,0.4017121150000093,,,,,sub-044,1,stroop_test,60.25331578519818,
,,,,37.0,1.0,3.0,,,,,,,,,,,,,blau,yellow,g,0.0,g,1.0,0.5795879470001637,,,,,,,,,,3.0,1.0,37.0,7.0,219.17038959699997,,,,,,,,,,,,,,,,,219.15495976800003,219.96979118400031,220.77157268300016,220.75396447699995,,,,,,,,,,,,,,,,,,,,,,,,,,,,,,,,,,,220.75619843100003,220.77157268300016,220.77157268300016,221.3561606170001,g,1.0,0.5795879470001637,,,,,sub-044,1,stroop_test,60.25331578519818,
,,,,38.0,2.0,3.0,,,,,,,,,,,,,gelb,red,r,0.0,r,1.0,1.1838537429998723,,,,,,,,,,3.0,2.0,38.0,8.0,221.3719853540001,,,,,,,,,,,,,,,,,221.356480597,222.1709463500001,222.97295042,222.95502284600025,,,,,,,,,,,,,,,,,,,,,,,,,,,,,,,,,,,222.95724846800024,222.97295042,222.97295042,224.173619572,r,1.0,1.1838537429998723,,,,,sub-044,1,stroop_test,60.25331578519818,
,,,,39.0,3.0,3.0,,,,,,,,,,,,,rot,red,r,1.0,r,1.0,0.6167552980000437,,,,,,,,,,3.0,3.0,39.0,1.0,224.1876811480001,,,,,,,,,,,,,,,,,224.17392542300013,225.3893020770001,226.1908405610002,226.1733623530004,,,,,,,,,,,,,,,,,,,,,,,,,,,,,,,,,,,226.17557705100035,226.1908405610002,226.1908405610002,226.80937878900025,r,1.0,0.6167552980000437,,,,,sub-044,1,stroop_test,60.25331578519818,
,,,,40.0,4.0,3.0,,,,,,,,,,,,,rot,blue,b,0.0,b,1.0,0.6659022920002826,,,,,,,,,,3.0,4.0,40.0,2.0,226.82374960000016,,,,,,,,,,,,,,,,,226.8096908460002,227.62347412300005,228.42334424,228.4077881610001,,,,,,,,,,,,,,,,,,,,,,,,,,,,,,,,,,,228.40813776000005,228.42334424,228.42334424,229.092817622,b,1.0,0.6659022920002826,,,,,sub-044,1,stroop_test,60.25331578519818,
,,,,41.0,5.0,3.0,,,,,,,,,,,,,blau,blue,b,1.0,b,1.0,0.686502104000283,,,,,,,,,,3.0,5.0,41.0,6.0,229.11045674700017,,,,,,,,,,,,,,,,,229.0933350680002,229.1921670720003,229.99275551100027,229.9754925010002,,,,,,,,,,,,,,,,,,,,,,,,,,,,,,,,,,,229.97767468300023,229.99275551100027,229.99275551100027,230.693171805,b,1.0,0.686502104000283,,,,,sub-044,1,stroop_test,60.25331578519818,
,,,,42.0,6.0,3.0,,,,,,,,,,,,,rot,yellow,g,0.0,g,1.0,0.4355369429999882,,,,,,,,,,3.0,6.0,42.0,3.0,230.70941466500017,,,,,,,,,,,,,,,,,230.69348722500035,231.892046381,232.698584797,232.6782149210003,,,,,,,,,,,,,,,,,,,,,,,,,,,,,,,,,,,232.68078795400012,232.698584797,232.698584797,233.1439527790003,g,1.0,0.4355369429999882,,,,,sub-044,1,stroop_test,60.25331578519818,
,,,,43.0,7.0,3.0,,,,,,,,,,,,,gelb,blue,b,0.0,b,1.0,0.6978553570002077,,,,,,,,,,3.0,7.0,43.0,9.0,233.16001056899995,,,,,,,,,,,,,,,,,233.14427819899996,233.50944382700027,234.31200190500024,234.29381117999992,,,,,,,,,,,,,,,,,,,,,,,,,,,,,,,,,,,234.2965009190002,234.31200190500024,234.31200190500024,235.01278728100036,b,1.0,0.6978553570002077,,,,,sub-044,1,stroop_test,60.25331578519818,
,,,,44.0,8.0,3.0,,,,,,,,,,,,,blau,red,r,0.0,r,1.0,0.7721708020003462,,,,,,,,,,3.0,8.0,44.0,4.0,235.0284022730002,,,,,,,,,,,,,,,,,235.01308604099995,235.3772418870003,236.17938352200008,236.1613485400003,,,,,,,,,,,,,,,,,,,,,,,,,,,,,,,,,,,236.1635901479999,236.17938352200008,236.17938352200008,236.9624348000002,r,1.0,0.7721708020003462,,,,,sub-044,1,stroop_test,60.25331578519818,
,,,,45.0,9.0,3.0,,,,,,,,,,,,,gelb,yellow,g,1.0,g,1.0,0.598608613000124,,,,,,,,,,3.0,9.0,45.0,11.0,236.97861587600028,,,,,,,,,,,,,,,,,236.9627336530002,237.07776067800023,237.88007321600023,237.86232093800027,,,,,,,,,,,,,,,,,,,,,,,,,,,,,,,,,,,237.86457712300037,237.88007321600023,237.88007321600023,238.48120638799992,g,1.0,0.598608613000124,,,,,sub-044,1,stroop_test,60.25331578519818,
,,,,46.0,10.0,3.0,,,,,,,,,,,,,gelb,yellow,g,1.0,g,1.0,0.6134214109997629,,,,,,,,,,3.0,10.0,46.0,10.0,238.49706477000015,,,,,,,,,,,,,,,,,238.48150951000025,238.59539172299992,239.39526381299996,239.37956515900032,,,,,,,,,,,,,,,,,,,,,,,,,,,,,,,,,,,239.3799389579999,239.39526381299996,239.39526381299996,240.0152850960003,g,1.0,0.6134214109997629,,,,,sub-044,1,stroop_test,60.25331578519818,
,,,,47.0,11.0,3.0,,,,,,,,,,,,,blau,blue,b,1.0,b,1.0,0.5639524230000461,,,,,,,,,,3.0,11.0,47.0,5.0,240.03121771800036,,,,,,,,,,,,,,,,,240.0155853340002,240.82969271799996,241.63145313800032,241.6140930000001,,,,,,,,,,,,,,,,,,,,,,,,,,,,,,,,,,,241.61632643200028,241.63145313800032,241.63145313800032,242.1994658830004,b,1.0,0.5639524230000461,,,,,sub-044,1,stroop_test,60.25331578519818,
,,,,48.0,0.0,4.0,,,,,,,,,,,,,rot,yellow,g,0.0,g,1.0,1.0713324640000792,,,,,,,,,,4.0,0.0,48.0,3.0,242.21567298200037,,,,,,,,,,,,,,,,,242.1997645920001,243.0139003449999,243.81593988000031,243.798551932,,,,,,,,,,,,,,,,,,,,,,,,,,,,,,,,,,,243.800766973,243.81593988000031,243.81593988000031,244.89929465600017,g,1.0,1.0713324640000792,,,,,sub-044,1,stroop_test,60.25331578519818,
,,,,49.0,1.0,4.0,,,,,,,,,,,,,rot,red,r,1.0,r,1.0,0.5958438900001966,,,,,,,,,,4.0,1.0,49.0,1.0,244.91348321600023,,,,,,,,,,,,,,,,,244.8995895170001,244.998187531,245.79699334499992,245.7826900350001,,,,,,,,,,,,,,,,,,,,,,,,,,,,,,,,,,,245.78306698300003,245.79699334499992,245.79699334499992,246.40123789300011,r,1.0,0.5958438900001966,,,,,sub-044,1,stroop_test,60.25331578519818,
,,,,50.0,2.0,4.0,,,,,,,,,,,,,gelb,blue,b,0.0,b,1.0,0.7672179409996716,,,,,,,,,,4.0,2.0,50.0,9.0,246.41718107199995,,,,,,,,,,,,,,,,,246.40155241999992,247.61629298700015,248.4181494750001,248.4005515570002,,,,,,,,,,,,,,,,,,,,,,,,,,,,,,,,,,,248.4028053970001,248.4181494750001,248.4181494750001,249.20168282500023,b,1.0,0.7672179409996716,,,,,sub-044,1,stroop_test,60.25331578519818,
,,,,51.0,3.0,4.0,,,,,,,,,,,,,rot,red,r,1.0,r,1.0,0.6088944240000274,,,,,,,,,,4.0,3.0,51.0,0.0,249.21754109500037,,,,,,,,,,,,,,,,,249.20198610900025,249.5672817720001,250.36906036500025,250.35148117100016,,,,,,,,,,,,,,,,,,,,,,,,,,,,,,,,,,,250.3537138730003,250.36906036500025,250.36906036500025,250.9861099310001,r,1.0,0.6088944240000274,,,,,sub-044,1,stroop_test,60.25331578519818,
,,,,52.0,4.0,4.0,,,,,,,,,,,,,gelb,red,r,0.0,r,1.0,0.7226039930001207,,,,,,,,,,4.0,4.0,52.0,8.0,251.00156395000025,,,,,,,,,,,,,,,,,250.986406777,251.1013162250001,251.9040050460003,251.88558467600024,,,,,,,,,,,,,,,,,,,,,,,,,,,,,,,,,,,251.8884347160001,251.9040050460003,251.9040050460003,252.63643934400037,r,1.0,0.7226039930001207,,,,,sub-044,1,stroop_test,60.25331578519818,
,,,,53.0,5.0,4.0,,,,,,,,,,,,,gelb,yellow,g,1.0,g,1.0,0.473639422999895,,,,,,,,,,4.0,5.0,53.0,10.0,252.65215483500012,,,,,,,,,,,,,,,,,252.63672166000012,253.4357446210001,254.23603362600036,254.21989675600025,,,,,,,,,,,,,,,,,,,,,,,,,,,,,,,,,,,254.22026867000025,254.23603362600036,254.23603362600036,254.72061701500024,g,1.0,0.473639422999895,,,,,sub-044,1,stroop_test,60.25331578519818,
,,,,54.0,6.0,4.0,,,,,,,,,,,,,gelb,yellow,g,1.0,g,1.0,0.4900067049998142,,,,,,,,,,4.0,6.0,54.0,11.0,254.73673817500003,,,,,,,,,,,,,,,,,254.7208972870003,254.83634457000016,255.6367340500001,255.6205994300003,,,,,,,,,,,,,,,,,,,,,,,,,,,,,,,,,,,255.62096847700013,255.6367340500001,255.6367340500001,256.13814496800023,g,1.0,0.4900067049998142,,,,,sub-044,1,stroop_test,60.25331578519818,
,,,,55.0,7.0,4.0,,,,,,,,,,,,,blau,yellow,g,0.0,g,1.0,0.8562785220001388,,,,,,,,,,4.0,7.0,55.0,7.0,256.1541909390003,,,,,,,,,,,,,,,,,256.1384845299999,256.5038148400004,257.3060562220003,257.28804417400033,,,,,,,,,,,,,,,,,,,,,,,,,,,,,,,,,,,257.2903100110002,257.3060562220003,257.3060562220003,258.1729920950001,g,1.0,0.8562785220001388,,,,,sub-044,1,stroop_test,60.25331578519818,
,,,,56.0,8.0,4.0,,,,,,,,,,,,,blau,red,r,0.0,r,1.0,0.7079856359996484,,,,,,,,,,4.0,8.0,56.0,4.0,258.189000334,,,,,,,,,,,,,,,,,258.1732921400003,258.28806301600025,259.0878087000001,259.07223840300003,,,,,,,,,,,,,,,,,,,,,,,,,,,,,,,,,,,259.07259876000035,259.0878087000001,259.0878087000001,259.8069935210001,r,1.0,0.7079856359996484,,,,,sub-044,1,stroop_test,60.25331578519818,
,,,,57.0,9.0,4.0,,,,,,,,,,,,,blau,blue,b,1.0,b,1.0,0.591674170999795,,,,,,,,,,4.0,9.0,57.0,6.0,259.822793113,,,,,,,,,,,,,,,,,259.80729873400014,259.92206996100003,260.7221983019999,260.7066072460002,,,,,,,,,,,,,,,,,,,,,,,,,,,,,,,,,,,260.7069772560003,260.7221983019999,260.7221983019999,261.32415676400024,b,1.0,0.591674170999795,,,,,sub-044,1,stroop_test,60.25331578519818,
,,,,58.0,10.0,4.0,,,,,,,,,,,,,blau,blue,b,1.0,b,1.0,0.6537783759999911,,,,,,,,,,4.0,10.0,58.0,5.0,261.3398694780003,,,,,,,,,,,,,,,,,261.32446822400016,261.6897168610003,262.487981147,262.4739976790001,,,,,,,,,,,,,,,,,,,,,,,,,,,,,,,,,,,262.474386073,262.487981147,262.487981147,263.1598267630002,b,1.0,0.6537783759999911,,,,,sub-044,1,stroop_test,60.25331578519818,
,,,,59.0,11.0,4.0,,,,,,,,,,,,,rot,blue,b,0.0,b,1.0,0.8947849189999033,,,,,,,,,,4.0,11.0,59.0,2.0,263.1738009210003,,,,,,,,,,,,,,,,,263.160099402,263.5238045640004,264.3253873970002,264.30801469900007,,,,,,,,,,,,,,,,,,,,,,,,,,,,,,,,,,,264.3102604380001,264.3253873970002,264.3253873970002,265.22685438200006,b,1.0,0.8947849189999033,,,,,sub-044,1,stroop_test,60.25331578519818,
,,,,60.0,0.0,5.0,,,,,,,,,,,,,gelb,red,r,0.0,r,1.0,0.834891910999886,,,,,,,,,,5.0,0.0,60.0,8.0,265.24309114900007,,,,,,,,,,,,,,,,,265.2271804420002,266.0418521219999,266.844117053,266.8260103880002,,,,,,,,,,,,,,,,,,,,,,,,,,,,,,,,,,,266.82841286400026,266.844117053,266.844117053,267.6945184230003,r,1.0,0.834891910999886,,,,,sub-044,1,stroop_test,60.25331578519818,
,,,,61.0,1.0,5.0,,,,,,,,,,,,,rot,red,r,1.0,r,1.0,0.5063620290002291,,,,,,,,,,5.0,1.0,61.0,1.0,267.7101675900003,,,,,,,,,,,,,,,,,267.6948195939999,268.909686255,269.71148801100026,269.69394631600017,,,,,,,,,,,,,,,,,,,,,,,,,,,,,,,,,,,269.6961373080003,269.71148801100026,269.71148801100026,270.22846196499995,r,1.0,0.5063620290002291,,,,,sub-044,1,stroop_test,60.25331578519818,
,,,,62.0,2.0,5.0,,,,,,,,,,,,,rot,red,r,1.0,r,1.0,0.4394906729999093,,,,,,,,,,5.0,2.0,62.0,0.0,270.24424638200026,,,,,,,,,,,,,,,,,270.22877615000016,270.5938407120002,271.3942752540001,271.377839924,,,,,,,,,,,,,,,,,,,,,,,,,,,,,,,,,,,271.37821305000034,271.3942752540001,271.3942752540001,271.8458974660002,r,1.0,0.4394906729999093,,,,,sub-044,1,stroop_test,60.25331578519818,
,,,,63.0,3.0,5.0,,,,,,,,,,,,,blau,red,r,0.0,r,1.0,0.6054949970002781,,,,,,,,,,5.0,3.0,63.0,4.0,271.8606797090001,,,,,,,,,,,,,,,,,271.84617903200024,272.6448138740002,273.44735953200006,273.429036992,,,,,,,,,,,,,,,,,,,,,,,,,,,,,,,,,,,273.43178645800026,273.44735953200006,273.44735953200006,274.06325050800024,r,1.0,0.6054949970002781,,,,,sub-044,1,stroop_test,60.25331578519818,
,,,,64.0,4.0,5.0,,,,,,,,,,,,,rot,blue,b,0.0,b,1.0,0.7490894590000607,,,,,,,,,,5.0,4.0,64.0,2.0,274.07913236800005,,,,,,,,,,,,,,,,,274.063529131,275.262634271,276.0646596470001,276.047023054,,,,,,,,,,,,,,,,,,,,,,,,,,,,,,,,,,,276.0492198500001,276.0646596470001,276.0646596470001,276.81645070700006,b,1.0,0.7490894590000607,,,,,sub-044,1,stroop_test,60.25331578519818,
,,,,65.0,5.0,5.0,,,,,,,,,,,,,gelb,yellow,g,1.0,g,1.0,0.4505961689997093,,,,,,,,,,5.0,5.0,65.0,10.0,276.83249201800027,,,,,,,,,,,,,,,,,276.81676327000014,278.03077228200027,278.83235332899994,278.81476625100004,,,,,,,,,,,,,,,,,,,,,,,,,,,,,,,,,,,278.81700704700006,278.83235332899994,278.83235332899994,279.299595639,g,1.0,0.4505961689997093,,,,,sub-044,1,stroop_test,60.25331578519818,
,,,,66.0,6.0,5.0,,,,,,,,,,,,,blau,yellow,g,0.0,g,1.0,0.7163330230000611,,,,,,,,,,5.0,6.0,66.0,7.0,279.31618239,,,,,,,,,,,,,,,,,279.29989928700024,280.115094924,280.917349031,280.89935627900013,,,,,,,,,,,,,,,,,,,,,,,,,,,,,,,,,,,280.9016126450001,280.917349031,280.917349031,281.65147609099995,g,1.0,0.7163330230000611,,,,,sub-044,1,stroop_test,60.25331578519818,
,,,,67.0,7.0,5.0,,,,,,,,,,,,,blau,blue,b,1.0,b,1.0,0.8654566820000582,,,,,,,,,,5.0,7.0,67.0,6.0,281.6656836320003,,,,,,,,,,,,,,,,,281.65175237500034,282.4660931000003,283.26637002300004,283.2504282640002,,,,,,,,,,,,,,,,,,,,,,,,,,,,,,,,,,,283.25082478700006,283.26637002300004,283.26637002300004,284.13646669200034,b,1.0,0.8654566820000582,,,,,sub-044,1,stroop_test,60.25331578519818,
,,,,68.0,8.0,5.0,,,,,,,,,,,,,gelb,blue,b,0.0,b,1.0,0.5200053829998978,,,,,,,,,,5.0,8.0,68.0,9.0,284.15122152000004,,,,,,,,,,,,,,,,,284.136783168,284.2511490050001,285.0528694990003,285.0347442110001,,,,,,,,,,,,,,,,,,,,,,,,,,,,,,,,,,,285.0371142849999,285.0528694990003,285.0528694990003,285.58607133500027,b,1.0,0.5200053829998978,,,,,sub-044,1,stroop_test,60.25331578519818,
,,,,69.0,9.0,5.0,,,,,,,,,,,,,blau,blue,b,1.0,b,1.0,0.438141873999939,,,,,,,,,,5.0,9.0,69.0,5.0,285.60238367600004,,,,,,,,,,,,,,,,,285.58636783600014,286.40163379700016,287.203757881,287.18557602600004,,,,,,,,,,,,,,,,,,,,,,,,,,,,,,,,,,,287.187806334,287.203757881,287.203757881,287.6532837,b,1.0,0.438141873999939,,,,,sub-044,1,stroop_test,60.25331578519818,
,,,,70.0,10.0,5.0,,,,,,,,,,,,,gelb,yellow,g,1.0,g,1.0,0.5745448010002292,,,,,,,,,,5.0,10.0,70.0,11.0,287.6692356970002,,,,,,,,,,,,,,,,,287.65358078300005,288.85255217700023,289.65324846400017,289.6370795910002,,,,,,,,,,,,,,,,,,,,,,,,,,,,,,,,,,,289.6394505090002,289.65324846400017,289.65324846400017,290.2383614680002,g,1.0,0.5745448010002292,,,,,sub-044,1,stroop_test,60.25331578519818,
,,,,71.0,11.0,5.0,,,,,,,,,,,,,rot,yellow,g,0.0,g,1.0,0.5700685020001401,,,,,,,,,,5.0,11.0,71.0,3.0,290.25425513400023,,,,,,,,,,,,,,,,,290.238659313,291.453797054,292.2576159770001,292.2380994160003,,,,,,,,,,,,,,,,,,,,,,,,,,,,,,,,,,,292.2420224370003,292.2576159770001,292.2576159770001,292.839368252,g,1.0,0.5700685020001401,,,,,sub-044,1,stroop_test,60.25331578519818,
,,,,72.0,0.0,6.0,,,,,,,,,,,,,rot,blue,b,0.0,b,1.0,0.6721614920002139,,,,,,,,,,6.0,0.0,72.0,2.0,292.85530139799994,,,,,,,,,,,,,,,,,292.83966677900025,292.9543918879999,293.754867395,293.73899557999994,,,,,,,,,,,,,,,,,,,,,,,,,,,,,,,,,,,293.7393674110004,293.754867395,293.754867395,294.439932802,b,1.0,0.6721614920002139,,,,,sub-044,1,stroop_test,60.25331578519818,
,,,,73.0,1.0,6.0,,,,,,,,,,,,,blau,blue,b,1.0,b,1.0,0.5017690569998194,,,,,,,,,,6.0,1.0,73.0,5.0,294.45577146999995,,,,,,,,,,,,,,,,,294.44022134900024,295.6389519290001,296.44122962400024,296.4237255840003,,,,,,,,,,,,,,,,,,,,,,,,,,,,,,,,,,,296.42598846600004,296.44122962400024,296.44122962400024,296.958016651,b,1.0,0.5017690569998194,,,,,sub-044,1,stroop_test,60.25331578519818,
,,,,74.0,2.0,6.0,,,,,,,,,,,,,rot,red,r,1.0,r,1.0,0.6327005529997223,,,,,,,,,,6.0,2.0,74.0,1.0,296.97407625000005,,,,,,,,,,,,,,,,,296.95831600500014,298.1735314890002,298.97521440200035,298.9578240149999,,,,,,,,,,,,,,,,,,,,,,,,,,,,,,,,,,,298.96002260600017,298.97521440200035,298.97521440200035,299.61039918000006,r,1.0,0.6327005529997223,,,,,sub-044,1,stroop_test,60.25331578519818,
,,,,75.0,3.0,6.0,,,,,,,,,,,,,rot,yellow,g,0.0,g,1.0,0.9406590110002072,,,,,,,,,,6.0,3.0,75.0,3.0,299.62511730999995,,,,,,,,,,,,,,,,,299.61071702000027,299.7244030940001,300.5247819179999,300.50852042,,,,,,,,,,,,,,,,,,,,,,,,,,,,,,,,,,,300.508883641,300.5247819179999,300.5247819179999,301.47607753500006,g,1.0,0.9406590110002072,,,,,sub-044,1,stroop_test,60.25331578519818,
,,,,76.0,4.0,6.0,,,,,,,,,,,,,gelb,blue,b,0.0,b,1.0,0.4580849410003793,,,,,,,,,,6.0,4.0,76.0,9.0,301.4920049950001,,,,,,,,,,,,,,,,,301.4763647580003,301.5752382320002,302.3774611399999,302.35953834400016,,,,,,,,,,,,,,,,,,,,,,,,,,,,,,,,,,,302.3619245499999,302.3774611399999,302.3774611399999,302.84391297,b,1.0,0.4580849410003793,,,,,sub-044,1,stroop_test,60.25331578519818,
,,,,77.0,5.0,6.0,,,,,,,,,,,,,blau,yellow,g,0.0,g,1.0,0.6178649520002182,,,,,,,,,,6.0,5.0,77.0,7.0,302.8599923390002,,,,,,,,,,,,,,,,,302.84422907299995,303.6426583780003,304.44651866799995,304.4270541770002,,,,,,,,,,,,,,,,,,,,,,,,,,,,,,,,,,,304.4294234480003,304.44651866799995,304.44651866799995,305.07852546799995,g,1.0,0.6178649520002182,,,,,sub-044,1,stroop_test,60.25331578519818,
,,,,78.0,6.0,6.0,,,,,,,,,,,,,blau,red,r,0.0,r,1.0,0.5074146970000584,,,,,,,,,,6.0,6.0,78.0,4.0,305.0942794890002,,,,,,,,,,,,,,,,,305.07882212899995,305.89398030600023,306.69494825300035,306.67848043000004,,,,,,,,,,,,,,,,,,,,,,,,,,,,,,,,,,,306.6788909910001,306.69494825300035,306.69494825300035,307.2130260240001,r,1.0,0.5074146970000584,,,,,sub-044,1,stroop_test,60.25331578519818,
,,,,79.0,7.0,6.0,,,,,,,,,,,,,rot,red,r,1.0,g,0.0,0.4533424659998673,,,,,,,,,,6.0,7.0,79.0,0.0,307.2288547630001,,,,,,,,,,,,,,,,,307.2133293510001,308.02825550000034,308.83024575200034,308.812665038,,,,,,,,,,,,,,,,,,,,,,,,,,,,,,,,,,,308.814903513,308.83024575200034,308.83024575200034,309.29757711,g,0.0,0.4533424659998673,,,,,sub-044,1,stroop_test,60.25331578519818,
,,,,80.0,8.0,6.0,,,,,,,,,,,,,blau,blue,b,1.0,b,1.0,1.2602889280001364,,,,,,,,,,6.0,8.0,80.0,6.0,309.313160448,,,,,,,,,,,,,,,,,309.29785237600026,309.41240283100024,310.2149004050002,310.1967641189999,,,,,,,,,,,,,,,,,,,,,,,,,,,,,,,,,,,310.1995361890004,310.2149004050002,310.2149004050002,311.48232516100006,b,1.0,1.2602889280001364,,,,,sub-044,1,stroop_test,60.25331578519818,
,,,,81.0,9.0,6.0,,,,,,,,,,,,,gelb,yellow,g,1.0,g,1.0,0.6662994339999386,,,,,,,,,,6.0,9.0,81.0,11.0,311.4984711070001,,,,,,,,,,,,,,,,,311.4826264369999,312.29690598000025,313.099165308,313.08132412600025,,,,,,,,,,,,,,,,,,,,,,,,,,,,,,,,,,,313.0836425550001,313.099165308,313.099165308,313.78303578500027,g,1.0,0.6662994339999386,,,,,sub-044,1,stroop_test,60.25331578519818,
,,,,82.0,10.0,6.0,,,,,,,,,,,,,gelb,red,r,0.0,r,1.0,0.8521713029999773,,,,,,,,,,6.0,10.0,82.0,8.0,313.7974066740003,,,,,,,,,,,,,,,,,313.78332930700026,314.9984132220002,315.79825798599995,315.7824906300002,,,,,,,,,,,,,,,,,,,,,,,,,,,,,,,,,,,315.78286265700035,315.79825798599995,315.79825798599995,316.66931892699995,r,1.0,0.8521713029999773,,,,,sub-044,1,stroop_test,60.25331578519818,
,,,,83.0,11.0,6.0,,,,,,,,,,,,,gelb,yellow,g,1.0,g,1.0,1.125140133000059,,,,,,,,,,6.0,11.0,83.0,10.0,316.6837675670004,,,,,,,,,,,,,,,,,316.669636354,317.4826117890002,318.28316164700027,318.26706126499994,,,,,,,,,,,,,,,,,,,,,,,,,,,,,,,,,,,318.26743466300013,318.28316164700027,318.28316164700027,319.4189713780001,g,1.0,1.125140133000059,,,,,sub-044,1,stroop_test,60.25331578519818,
,,,,84.0,0.0,7.0,,,,,,,,,,,,,gelb,yellow,g,1.0,g,1.0,0.5684311529998922,,,,,,,,,,7.0,0.0,84.0,11.0,319.4352396019999,,,,,,,,,,,,,,,,,319.41928530700034,319.53369402399994,320.3343861530002,320.3179327400003,,,,,,,,,,,,,,,,,,,,,,,,,,,,,,,,,,,320.31832144500004,320.3343861530002,320.3343861530002,320.91995934000033,g,1.0,0.5684311529998922,,,,,sub-044,1,stroop_test,60.25331578519818,
,,,,85.0,1.0,7.0,,,,,,,,,,,,,gelb,red,r,0.0,r,1.0,1.0196907890003786,,,,,,,,,,7.0,1.0,85.0,8.0,320.9328706370002,,,,,,,,,,,,,,,,,320.920268807,321.0344929390003,321.83507621900026,321.818636686,,,,,,,,,,,,,,,,,,,,,,,,,,,,,,,,,,,321.8189954640002,321.83507621900026,321.83507621900026,322.8705064569999,r,1.0,1.0196907890003786,,,,,sub-044,1,stroop_test,60.25331578519818,
,,,,86.0,2.0,7.0,,,,,,,,,,,,,blau,blue,b,1.0,b,1.0,0.5661483660001068,,,,,,,,,,7.0,2.0,86.0,5.0,322.886349852,,,,,,,,,,,,,,,,,322.8708094190001,323.685561498,324.4878535170001,324.47031786100024,,,,,,,,,,,,,,,,,,,,,,,,,,,,,,,,,,,324.4724430820001,324.4878535170001,324.4878535170001,325.071343181,b,1.0,0.5661483660001068,,,,,sub-044,1,stroop_test,60.25331578519818,
,,,,87.0,3.0,7.0,,,,,,,,,,,,,rot,red,r,1.0,r,1.0,0.6887318609997237,,,,,,,,,,7.0,3.0,87.0,0.0,325.0862979820004,,,,,,,,,,,,,,,,,325.0716185450001,325.18651526500025,325.98831085200027,325.970495648,,,,,,,,,,,,,,,,,,,,,,,,,,,,,,,,,,,325.97276004000014,325.98831085200027,325.98831085200027,326.68879844799994,r,1.0,0.6887318609997237,,,,,sub-044,1,stroop_test,60.25331578519818,
,,,,88.0,4.0,7.0,,,,,,,,,,,,,blau,blue,b,1.0,b,1.0,0.6164317759998994,,,,,,,,,,7.0,4.0,88.0,6.0,326.70459331300026,,,,,,,,,,,,,,,,,326.68910009,326.80384458200024,327.60575403400026,327.5880719900001,,,,,,,,,,,,,,,,,,,,,,,,,,,,,,,,,,,327.5904151290001,327.60575403400026,327.60575403400026,328.22411055600014,b,1.0,0.6164317759998994,,,,,sub-044,1,stroop_test,60.25331578519818,
,,,,89.0,5.0,7.0,,,,,,,,,,,,,gelb,blue,b,0.0,b,1.0,0.6221610160000637,,,,,,,,,,7.0,5.0,89.0,9.0,328.24011607600005,,,,,,,,,,,,,,,,,328.22443190600006,328.3377410150001,329.1405041600001,329.12250172600034,,,,,,,,,,,,,,,,,,,,,,,,,,,,,,,,,,,329.1249882840002,329.1405041600001,329.1405041600001,329.77247462700007,b,1.0,0.6221610160000637,,,,,sub-044,1,stroop_test,60.25331578519818,
,,,,90.0,6.0,7.0,,,,,,,,,,,,,rot,red,r,1.0,r,1.0,0.6052958840000429,,,,,,,,,,7.0,6.0,90.0,1.0,329.7887637030003,,,,,,,,,,,,,,,,,329.7727414330002,329.87193158900027,330.67402891500024,330.6562005330002,,,,,,,,,,,,,,,,,,,,,,,,,,,,,,,,,,,330.6587293970001,330.67402891500024,330.67402891500024,331.29118429100026,r,1.0,0.6052958840000429,,,,,sub-044,1,stroop_test,60.25331578519818,
,,,,91.0,7.0,7.0,,,,,,,,,,,,,blau,yellow,g,0.0,g,1.0,0.704630176000137,,,,,,,,,,7.0,7.0,91.0,7.0,331.3068353040003,,,,,,,,,,,,,,,,,331.291495599,332.50657548200024,333.3081394760002,333.2907698940003,,,,,,,,,,,,,,,,,,,,,,,,,,,,,,,,,,,333.29313308300016,333.3081394760002,333.3081394760002,334.0255695660003,g,1.0,0.704630176000137,,,,,sub-044,1,stroop_test,60.25331578519818,
,,,,92.0,8.0,7.0,,,,,,,,,,,,,rot,yellow,g,0.0,g,1.0,0.499567307000234,,,,,,,,,,7.0,8.0,92.0,3.0,334.0416681920001,,,,,,,,,,,,,,,,,334.02587988000005,334.14067096300005,334.94254795100005,334.9249139880003,,,,,,,,,,,,,,,,,,,,,,,,,,,,,,,,,,,334.9272629940001,334.94254795100005,334.94254795100005,335.444317772,g,1.0,0.499567307000234,,,,,sub-044,1,stroop_test,60.25331578519818,
,,,,93.0,9.0,7.0,,,,,,,,,,,,,blau,red,r,0.0,r,1.0,0.9825567679999948,,,,,,,,,,7.0,9.0,93.0,4.0,335.4604289660001,,,,,,,,,,,,,,,,,335.4446259380002,335.5579809360001,336.359559645,336.34233080700005,,,,,,,,,,,,,,,,,,,,,,,,,,,,,,,,,,,336.34449511,336.359559645,336.359559645,337.344984028,r,1.0,0.9825567679999948,,,,,sub-044,1,stroop_test,60.25331578519818,
,,,,94.0,10.0,7.0,,,,,,,,,,,,,gelb,yellow,g,1.0,g,1.0,0.7329480600001261,,,,,,,,,,7.0,10.0,94.0,10.0,337.3621331890004,,,,,,,,,,,,,,,,,337.3453348339999,337.4588211280002,338.26189824400035,338.24344520600016,,,,,,,,,,,,,,,,,,,,,,,,,,,,,,,,,,,338.24586002700016,338.26189824400035,338.26189824400035,339.0112983250001,g,1.0,0.7329480600001261,,,,,sub-044,1,stroop_test,60.25331578519818,
,,,,95.0,11.0,7.0,,,,,,,,,,,,,rot,blue,b,0.0,b,1.0,1.0973188789998858,,,,,,,,,,7.0,11.0,95.0,2.0,339.0271133370002,,,,,,,,,,,,,,,,,339.0116166810003,339.82655181200016,340.6281050299999,340.61079691700024,,,,,,,,,,,,,,,,,,,,,,,,,,,,,,,,,,,340.613001618,340.6281050299999,340.6281050299999,341.72965091100014,b,1.0,1.0973188789998858,,,,,sub-044,1,stroop_test,60.25331578519818,
,,,,96.0,0.0,8.0,,,,,,,,,,,,,blau,red,r,0.0,r,1.0,0.9876124690003962,,,,,,,,,,8.0,0.0,96.0,4.0,341.74577513600025,,,,,,,,,,,,,,,,,341.72994720199995,342.544759336,343.346435043,343.329024056,,,,,,,,,,,,,,,,,,,,,,,,,,,,,,,,,,,343.3312557490003,343.346435043,343.346435043,344.3468178850003,r,1.0,0.9876124690003962,,,,,sub-044,1,stroop_test,60.25331578519818,
,,,,97.0,1.0,8.0,,,,,,,,,,,,,rot,yellow,g,0.0,g,1.0,1.0143683619999138,,,,,,,,,,8.0,1.0,97.0,3.0,344.3626811859999,,,,,,,,,,,,,,,,,344.347118618,344.71235172700017,345.52708779500017,345.4973965680001,,,,,,,,,,,,,,,,,,,,,,,,,,,,,,,,,,,345.50123824,345.52708779500017,345.52708779500017,346.54893155100035,g,1.0,1.0143683619999138,,,,,sub-044,1,stroop_test,60.25331578519818,
,,,,98.0,2.0,8.0,,,,,,,,,,,,,rot,blue,b,0.0,b,1.0,1.4117022280001947,,,,,,,,,,8.0,2.0,98.0,2.0,346.5649439910003,,,,,,,,,,,,,,,,,346.54923116400005,347.7638588660002,348.56381489900014,348.5481654150003,,,,,,,,,,,,,,,,,,,,,,,,,,,,,,,,,,,348.548547938,348.56381489900014,348.56381489900014,349.98380319000034,b,1.0,1.4117022280001947,,,,,sub-044,1,stroop_test,60.25331578519818,
,,,,99.0,3.0,8.0,,,,,,,,,,,,,rot,red,r,1.0,r,1.0,0.6680089670003326,,,,,,,,,,8.0,3.0,99.0,0.0,349.99828269,,,,,,,,,,,,,,,,,349.98408449499993,350.34831749800014,351.1481714470001,351.132670256,,,,,,,,,,,,,,,,,,,,,,,,,,,,,,,,,,,351.1331090829999,351.1481714470001,351.1481714470001,351.81821420999995,r,1.0,0.6680089670003326,,,,,sub-044,1,stroop_test,60.25331578519818,
,,,,100.0,4.0,8.0,,,,,,,,,,,,,blau,blue,b,1.0,b,1.0,0.6645395479999934,,,,,,,,,,8.0,4.0,100.0,5.0,351.83443412299994,,,,,,,,,,,,,,,,,351.8185159950003,351.9325662350002,352.73240294000016,352.71665189700025,,,,,,,,,,,,,,,,,,,,,,,,,,,,,,,,,,,352.7188317100004,352.73240294000016,352.73240294000016,353.40212094000026,b,1.0,0.6645395479999934,,,,,sub-044,1,stroop_test,60.25331578519818,
,,,,101.0,5.0,8.0,,,,,,,,,,,,,gelb,yellow,g,1.0,g,1.0,0.6168663029998243,,,,,,,,,,8.0,5.0,101.0,11.0,353.41801458500004,,,,,,,,,,,,,,,,,353.4024333960001,353.76658167999994,354.56844161100025,354.55116043900034,,,,,,,,,,,,,,,,,,,,,,,,,,,,,,,,,,,354.55341057800024,354.56844161100025,354.56844161100025,355.2037994770003,g,1.0,0.6168663029998243,,,,,sub-044,1,stroop_test,60.25331578519818,
,,,,102.0,6.0,8.0,,,,,,,,,,,,,blau,yellow,g,0.0,g,1.0,0.7157566239998232,,,,,,,,,,8.0,6.0,102.0,7.0,355.21816961900004,,,,,,,,,,,,,,,,,355.2041043590002,356.41797375900023,357.219953668,357.20222958500017,,,,,,,,,,,,,,,,,,,,,,,,,,,,,,,,,,,357.20448022400024,357.219953668,357.219953668,357.9533907509999,g,1.0,0.7157566239998232,,,,,sub-044,1,stroop_test,60.25331578519818,
,,,,103.0,7.0,8.0,,,,,,,,,,,,,rot,red,r,1.0,r,1.0,0.5852519230002144,,,,,,,,,,8.0,7.0,103.0,1.0,357.968174179,,,,,,,,,,,,,,,,,357.953672609,358.7690402130001,359.56963376500016,359.5534626050003,,,,,,,,,,,,,,,,,,,,,,,,,,,,,,,,,,,359.5556511970003,359.56963376500016,359.56963376500016,360.17083141800003,r,1.0,0.5852519230002144,,,,,sub-044,1,stroop_test,60.25331578519818,
,,,,104.0,8.0,8.0,,,,,,,,,,,,,blau,blue,b,1.0,b,1.0,0.5164921740001773,,,,,,,,,,8.0,8.0,104.0,6.0,360.18689642100026,,,,,,,,,,,,,,,,,360.17112936700005,360.2696955350002,361.0718456520003,361.054231477,,,,,,,,,,,,,,,,,,,,,,,,,,,,,,,,,,,361.05651061900016,361.0718456520003,361.0718456520003,361.6051365210001,b,1.0,0.5164921740001773,,,,,sub-044,1,stroop_test,60.25331578519818,
,,,,105.0,9.0,8.0,,,,,,,,,,,,,gelb,yellow,g,1.0,g,1.0,0.5228322200000548,,,,,,,,,,8.0,9.0,105.0,10.0,361.6182820419999,,,,,,,,,,,,,,,,,361.6054557520001,362.804170079,363.60641357500026,363.588477063,,,,,,,,,,,,,,,,,,,,,,,,,,,,,,,,,,,363.591192981,363.60641357500026,363.60641357500026,364.1388881570001,g,1.0,0.5228322200000548,,,,,sub-044,1,stroop_test,60.25331578519818,
,,,,106.0,10.0,8.0,,,,,,,,,,,,,gelb,blue,b,0.0,b,1.0,0.9338644660001592,,,,,,,,,,8.0,10.0,106.0,9.0,364.15455875900034,,,,,,,,,,,,,,,,,364.1391711640004,364.48843582200016,365.288838727,365.2725270730002,,,,,,,,,,,,,,,,,,,,,,,,,,,,,,,,,,,365.2728969110003,365.288838727,365.288838727,366.2254236850004,b,1.0,0.9338644660001592,,,,,sub-044,1,stroop_test,60.25331578519818,
,,,,107.0,11.0,8.0,,,,,,,,,,,,,gelb,red,r,0.0,r,1.0,0.5596310390001236,,,,,,,,,,8.0,11.0,107.0,8.0,366.24004365500014,,,,,,,,,,,,,,,,,366.225724206,366.589487102,367.390836611,367.374367082,,,,,,,,,,,,,,,,,,,,,,,,,,,,,,,,,,,367.37476541900014,367.390836611,367.390836611,367.9589432990001,r,1.0,0.5596310390001236,,,,,sub-044,1,stroop_test,60.25331578519818,
,,,,108.0,0.0,9.0,,,,,,,,,,,,,gelb,yellow,g,1.0,g,1.0,0.54110301899982,,,,,,,,,,9.0,0.0,108.0,10.0,367.9749997650001,,,,,,,,,,,,,,,,,367.959247499,368.32362894100015,369.12385032300017,369.1071799260003,,,,,,,,,,,,,,,,,,,,,,,,,,,,,,,,,,,369.1075368229999,369.12385032300017,369.12385032300017,369.675750892,g,1.0,0.54110301899982,,,,,sub-044,1,stroop_test,60.25331578519818,
,,,,109.0,1.0,9.0,,,,,,,,,,,,,rot,yellow,g,0.0,g,1.0,0.769688739999765,,,,,,,,,,9.0,1.0,109.0,3.0,369.691941561,,,,,,,,,,,,,,,,,369.67607140200016,369.7909134440001,370.5930456330002,370.575116085,,,,,,,,,,,,,,,,,,,,,,,,,,,,,,,,,,,370.5773354160001,370.5930456330002,370.5930456330002,371.3761742810002,g,1.0,0.769688739999765,,,,,sub-044,1,stroop_test,60.25331578519818,
,,,,110.0,2.0,9.0,,,,,,,,,,,,,gelb,red,r,0.0,r,1.0,0.7905389689999538,,,,,,,,,,9.0,2.0,110.0,8.0,371.3916416520001,,,,,,,,,,,,,,,,,371.3764541740002,371.7417820260002,372.5431860580002,372.526088138,,,,,,,,,,,,,,,,,,,,,,,,,,,,,,,,,,,372.5282102420001,372.5431860580002,372.5431860580002,373.34371949800015,r,1.0,0.7905389689999538,,,,,sub-044,1,stroop_test,60.25331578519818,
,,,,111.0,3.0,9.0,,,,,,,,,,,,,blau,yellow,g,0.0,g,1.0,0.6669817550000516,,,,,,,,,,9.0,3.0,111.0,7.0,373.3595982370002,,,,,,,,,,,,,,,,,373.3440291370002,373.4594070920002,374.260714729,374.24322037799993,,,,,,,,,,,,,,,,,,,,,,,,,,,,,,,,,,,374.24542194000014,374.260714729,374.260714729,374.9455772760002,g,1.0,0.6669817550000516,,,,,sub-044,1,stroop_test,60.25331578519818,
,,,,112.0,4.0,9.0,,,,,,,,,,,,,blau,blue,b,1.0,b,1.0,0.4388872079998691,,,,,,,,,,9.0,4.0,112.0,6.0,374.959956444,,,,,,,,,,,,,,,,,374.945869577,375.3105221300002,376.13168164200033,376.1121568520002,,,,,,,,,,,,,,,,,,,,,,,,,,,,,,,,,,,376.11285177200034,376.13168164200033,376.13168164200033,376.5791008340002,b,1.0,0.4388872079998691,,,,,sub-044,1,stroop_test,60.25331578519818,
,,,,113.0,5.0,9.0,,,,,,,,,,,,,gelb,blue,b,0.0,b,1.0,0.91555395100022,,,,,,,,,,9.0,5.0,113.0,9.0,376.5948426939999,,,,,,,,,,,,,,,,,376.57940076800014,377.7946158720001,378.5972609720002,378.5789289890004,,,,,,,,,,,,,,,,,,,,,,,,,,,,,,,,,,,378.58108260300014,378.5972609720002,378.5972609720002,379.51485328800027,b,1.0,0.91555395100022,,,,,sub-044,1,stroop_test,60.25331578519818,
,,,,114.0,6.0,9.0,,,,,,,,,,,,,blau,red,r,0.0,r,1.0,0.6149002649999602,,,,,,,,,,9.0,6.0,114.0,4.0,379.53076781100026,,,,,,,,,,,,,,,,,379.515147433,379.8791013499999,380.68102814400027,380.663336269,,,,,,,,,,,,,,,,,,,,,,,,,,,,,,,,,,,380.6655165750003,380.68102814400027,380.68102814400027,381.298933043,r,1.0,0.6149002649999602,,,,,sub-044,1,stroop_test,60.25331578519818,
,,,,115.0,7.0,9.0,,,,,,,,,,,,,gelb,yellow,g,1.0,g,1.0,0.616060361000109,,,,,,,,,,9.0,7.0,115.0,11.0,381.314743381,,,,,,,,,,,,,,,,,381.29922548600007,382.11342625900033,382.91607822700007,382.8978731840002,,,,,,,,,,,,,,,,,,,,,,,,,,,,,,,,,,,382.90064013300025,382.91607822700007,382.91607822700007,383.5498944170004,g,1.0,0.616060361000109,,,,,sub-044,1,stroop_test,60.25331578519818,
,,,,116.0,8.0,9.0,,,,,,,,,,,,,blau,blue,b,1.0,b,1.0,0.7171409269999458,,,,,,,,,,9.0,8.0,116.0,5.0,383.5643922140002,,,,,,,,,,,,,,,,,383.5501716970002,383.9142809929999,384.715872148,384.698550565,,,,,,,,,,,,,,,,,,,,,,,,,,,,,,,,,,,384.7007596880003,384.715872148,384.715872148,385.4505084590001,b,1.0,0.7171409269999458,,,,,sub-044,1,stroop_test,60.25331578519818,
,,,,117.0,9.0,9.0,,,,,,,,,,,,,rot,red,r,1.0,r,1.0,0.5861195299999054,,,,,,,,,,9.0,9.0,117.0,0.0,385.464946734,,,,,,,,,,,,,,,,,385.4507834430001,385.565094475,386.3709556490003,386.3515664890001,,,,,,,,,,,,,,,,,,,,,,,,,,,,,,,,,,,386.3547986880003,386.3709556490003,386.3709556490003,386.9672777410001,r,1.0,0.5861195299999054,,,,,sub-044,1,stroop_test,60.25331578519818,
,,,,118.0,10.0,9.0,,,,,,,,,,,,,rot,blue,b,0.0,b,1.0,0.8729079120003007,,,,,,,,,,9.0,10.0,118.0,2.0,386.983263739,,,,,,,,,,,,,,,,,386.96760333600014,387.782876284,388.5829876580001,388.567003655,,,,,,,,,,,,,,,,,,,,,,,,,,,,,,,,,,,388.5673806489999,388.5829876580001,388.5829876580001,389.467712832,b,1.0,0.8729079120003007,,,,,sub-044,1,stroop_test,60.25331578519818,
,,,,119.0,11.0,9.0,,,,,,,,,,,,,rot,red,r,1.0,r,1.0,0.6179585469999438,,,,,,,,,,9.0,11.0,119.0,1.0,389.483675383,,,,,,,,,,,,,,,,,389.46799201700014,390.26727039800016,391.0674686340003,391.05170513500025,,,,,,,,,,,,,,,,,,,,,,,,,,,,,,,,,,,391.052099516,391.0674686340003,391.0674686340003,391.687404285,r,1.0,0.6179585469999438,,,,,sub-044,1,stroop_test,60.25331578519818,
,,,,,,,,,,,,,,,,,,,,,,,,,,,,,,,,,,,,,,,,,,,,,,,,,,,,,,,,,,,,,,,,,,,,,,,,,,,,,,,,,,,,,,,,,,,,,,,,,,,,,,391.687572802,391.7050394140001,396.6877906280001,sub-044,1,stroop_test,60.25331578519818,
