wordCTK,colorCTK,corrAnsCTK,congruentCTK,thisN,thisTrialN,thisRepN,keyResp_CTK.keys,keyResp_CTK.corr,keyResp_CTK.rt,keyResp_CTK.duration,wordPractice,colorPractice,corrAnsPractice,congruentPractice,respPractice.keys,respPractice.corr,respPractice.rt,respPractice.duration,word,color,corrAns,congruent,keyResp_test_run.keys,keyResp_test_run.corr,keyResp_test_run.rt,keyResp_test_run.duration,trials_CTK.thisRepN,trials_CTK.thisTrialN,trials_CTK.thisN,trials_CTK.thisIndex,trials_practice.thisRepN,trials_practice.thisTrialN,trials_practice.thisN,trials_practice.thisIndex,trials_test.thisRepN,trials_test.thisTrialN,trials_test.thisN,trials_test.thisIndex,thisRow.t,notes,instruction.started,instr_text.started,instr_image.started,instr_resp.started,instruction.stopped,instr_resp.keys,instr_resp.rt,instr_resp.duration,instr_color_to_key.started,instr_ctk.started,resp_ctk.started,instr_color_to_key.stopped,resp_ctk.keys,resp_ctk.rt,resp_ctk.duration,ITI.started,fixcross.started,fixcross.stopped,ITI.stopped,color_to_key_run.started,stimulus_CTK.started,keyResp_CTK.started,color_to_key_run.stopped,trials_CTK.keyResp_CTK.keys,trials_CTK.keyResp_CTK.corr,trials_CTK.keyResp_CTK.rt,trials_CTK.keyResp_CTK.duration,instr_practice.started,instr_practice_text.started,instr_practice_resp.started,instr_practice.stopped,instr_practice_resp.keys,instr_practice_resp.rt,instr_practice_resp.duration,practice_run.started,stimulus_practice.started,respPractice.started,practice_run.stopped,trials_practice.respPractice.keys,trials_practice.respPractice.corr,trials_practice.respPractice.rt,trials_practice.respPractice.duration,feedback.started,textFeedback.started,feedback.stopped,textFeedback.stopped,instr_test.started,instr_test_text.started,instr_test_resp.started,instr_test.stopped,instr_test_resp.keys,instr_test_resp.rt,instr_test_resp.duration,test_run.started,stimulus_test_run.started,keyResp_test_run.started,test_run.stopped,trials_test.keyResp_test_run.keys,trials_test.keyResp_test_run.corr,trials_test.keyResp_test_run.rt,trials_test.keyResp_test_run.duration,goodbye.started,textGoodbye.started,textGoodbye.stopped,goodbye.stopped,participant,session,expName,frameRate,Unnamed: 113
,,,,,,,,,,,,,,,,,,,,,,,,,,,,,,,,,,,,,,,,,0.0196559930000148,0.0600183229998947,0.0600183229998947,0.0600183229998947,32.72990475200004,space,32.663399648999984,,,,,,,,,,,,,,,,,,,,,,,,,,,,,,,,,,,,,,,,,,,,,,,,,,,,,,,,,,,sub-129,1,stroop_test,63.60209309418596,
,,,,,,,,,,,,,,,,,,,,,,,,,,,,,,,,,,,,,,,,,,,,,,,,,32.729987679999795,32.74273062300017,32.74273062300017,39.01974542800053,space,6.273698933999185,,,,,,,,,,,,,,,,,,,,,,,,,,,,,,,,,,,,,,,,,,,,,,,,,,,,sub-129,1,stroop_test,63.60209309418596,
test,blue,b,1.0,0.0,0.0,0.0,b,1.0,0.8779369989997576,,,,,,,,,,,,,,,,,,0.0,0.0,0.0,2.0,,,,,,,,,39.053197408000415,,,,,,,,,,,,,,,,,39.0419742009999,39.12231837000036,39.92865672800053,39.912334534000365,39.91917180500059,39.92865672800053,39.92865672800053,40.8197182820004,b,1.0,0.8779369989997576,,,,,,,,,,,,,,,,,,,,,,,,,,,,,,,,,,,,,,,,sub-129,1,stroop_test,63.60209309418596,
test,yellow,g,1.0,1.0,1.0,0.0,g,1.0,0.704673492999973,,,,,,,,,,,,,,,,,,0.0,1.0,1.0,1.0,,,,,,,,,40.83297325800049,,,,,,,,,,,,,,,,,40.82012569000017,40.92836081200039,41.72725963399989,41.71618083000067,41.7169841140003,41.72725963399989,41.72725963399989,42.436071287999766,g,1.0,0.704673492999973,,,,,,,,,,,,,,,,,,,,,,,,,,,,,,,,,,,,,,,,sub-129,1,stroop_test,63.60209309418596,
test,red,r,1.0,2.0,2.0,0.0,r,1.0,0.5688846309994915,,,,,,,,,,,,,,,,,,0.0,2.0,2.0,0.0,,,,,,,,,42.44848480400015,,,,,,,,,,,,,,,,,42.43650393400003,42.53747480600032,43.333556558000055,43.321681969000565,43.32250062000003,43.333556558000055,43.333556558000055,43.9059431730002,r,1.0,0.5688846309994915,,,,,,,,,,,,,,,,,,,,,,,,,,,,,,,,,,,,,,,,sub-129,1,stroop_test,63.60209309418596,
test,yellow,g,1.0,3.0,0.0,1.0,g,1.0,0.7698209139998653,,,,,,,,,,,,,,,,,,1.0,0.0,3.0,1.0,,,,,,,,,43.91775002200029,,,,,,,,,,,,,,,,,43.906320431000495,44.00416226500056,44.80059148100008,44.788446864000434,44.789263480000045,44.80059148100008,44.80059148100008,45.58120190099999,g,1.0,0.7698209139998653,,,,,,,,,,,,,,,,,,,,,,,,,,,,,,,,,,,,,,,,sub-129,1,stroop_test,63.60209309418596,
test,red,r,1.0,4.0,1.0,1.0,r,1.0,0.9674945019996812,,,,,,,,,,,,,,,,,,1.0,1.0,4.0,0.0,,,,,,,,,45.59373093100021,,,,,,,,,,,,,,,,,45.58173045300009,46.7774229810002,47.57151377399987,47.562150931999895,47.56294062500001,47.57151377399987,47.57151377399987,48.55209205600022,r,1.0,0.9674945019996812,,,,,,,,,,,,,,,,,,,,,,,,,,,,,,,,,,,,,,,,sub-129,1,stroop_test,63.60209309418596,
test,blue,b,1.0,5.0,2.0,1.0,b,1.0,0.7697662040000068,,,,,,,,,,,,,,,,,,1.0,2.0,5.0,2.0,,,,,,,,,48.56614083900058,,,,,,,,,,,,,,,,,48.55264186900058,48.901402504000544,49.69714810400001,49.68564891000005,49.68644884400055,49.69714810400001,49.69714810400001,50.473258492999776,b,1.0,0.7697662040000068,,,,,,,,,,,,,,,,,,,,,,,,,,,,,,,,,,,,,,,,sub-129,1,stroop_test,63.60209309418596,
test,blue,b,1.0,6.0,0.0,2.0,b,1.0,0.4228456249993542,,,,,,,,,,,,,,,,,,2.0,0.0,6.0,2.0,,,,,,,,,50.48489545200027,,,,,,,,,,,,,,,,,50.47370103200046,50.578017753000495,51.37379531199986,51.36265161400024,51.36342763799985,51.37379531199986,51.37379531199986,51.80285439100044,b,1.0,0.4228456249993542,,,,,,,,,,,,,,,,,,,,,,,,,,,,,,,,,,,,,,,,sub-129,1,stroop_test,63.60209309418596,
test,red,r,1.0,7.0,1.0,2.0,r,1.0,0.7092999970000164,,,,,,,,,,,,,,,,,,2.0,1.0,7.0,0.0,,,,,,,,,51.8166897480005,,,,,,,,,,,,,,,,,51.80338199900052,52.162059674000375,52.957254680000005,52.94598620600027,52.94677262799996,52.957254680000005,52.957254680000005,53.6800794210003,r,1.0,0.7092999970000164,,,,,,,,,,,,,,,,,,,,,,,,,,,,,,,,,,,,,,,,sub-129,1,stroop_test,63.60209309418596,
test,yellow,g,1.0,8.0,2.0,2.0,g,1.0,0.5924197589993128,,,,,,,,,,,,,,,,,,2.0,2.0,8.0,1.0,,,,,,,,,53.69143860599979,,,,,,,,,,,,,,,,,53.68036639500042,53.77811735500018,54.57691701100066,54.56813126399993,54.56873374400038,54.57691701100066,54.57691701100066,55.17423486200005,g,1.0,0.5924197589993128,,,,,,,,,,,,,,,,,,,,,,,,,,,,,,,,,,,,,,,,sub-129,1,stroop_test,63.60209309418596,
test,red,r,1.0,9.0,0.0,3.0,r,1.0,0.5072617890000402,,,,,,,,,,,,,,,,,,3.0,0.0,9.0,0.0,,,,,,,,,55.18656493800063,,,,,,,,,,,,,,,,,55.17480051300026,55.2777509409998,56.095356947000255,56.078094704999785,56.07869099800064,56.095356947000255,56.095356947000255,56.60729708600047,r,1.0,0.5072617890000402,,,,,,,,,,,,,,,,,,,,,,,,,,,,,,,,,,,,,,,,sub-129,1,stroop_test,63.60209309418596,
test,yellow,g,1.0,10.0,1.0,3.0,g,1.0,0.5020496220004134,,,,,,,,,,,,,,,,,,3.0,1.0,10.0,1.0,,,,,,,,,56.61937707000016,,,,,,,,,,,,,,,,,56.60780148699996,56.9512632320002,57.746462428000086,57.73515109300024,57.735979563,57.746462428000086,57.746462428000086,58.2518941899998,g,1.0,0.5020496220004134,,,,,,,,,,,,,,,,,,,,,,,,,,,,,,,,,,,,,,,,sub-129,1,stroop_test,63.60209309418596,
test,blue,b,1.0,11.0,2.0,3.0,b,1.0,0.4094899539995822,,,,,,,,,,,,,,,,,,3.0,2.0,11.0,2.0,,,,,,,,,58.26379573600025,,,,,,,,,,,,,,,,,58.25236272500024,58.60145861700039,59.40400107500045,59.394385718000194,59.39518683700044,59.40400107500045,59.40400107500045,59.82077057700008,b,1.0,0.4094899539995822,,,,,,,,,,,,,,,,,,,,,,,,,,,,,,,,,,,,,,,,sub-129,1,stroop_test,63.60209309418596,
,,,,,,,,,,,,,,,,,,,,,,,,,,,,,,,,,,,,,,,,,,,,,,,,,,,,,,,,,,,,,,,,,,,,59.820961505000014,59.83303434499976,59.83303434499976,63.91447773100026,space,4.071191623000232,,,,,,,,,,,,,,,,,,,,,,,,,,,,,,,,,sub-129,1,stroop_test,63.60209309418596,
,,,,0.0,0.0,0.0,,,,,blau,red,r,0.0,r,1.0,1.1437321140001586,,,,,,,,,,,,,,0.0,0.0,0.0,4.0,,,,,63.94013966800048,,,,,,,,,,,,,,,,,63.92888703600056,65.11043381899981,65.91023048999978,65.89445949800029,,,,,,,,,,,,,,,,65.90090710000004,65.91023048999978,65.91023048999978,67.0642521790005,r,1.0,1.1437321140001586,,67.07112424500065,67.08301691300039,68.06497025499993,,,,,,,,,,,,,,,,,,,,,sub-129,1,stroop_test,63.60209309418596,
,,,,1.0,1.0,0.0,,,,,gelb,yellow,g,1.0,g,1.0,0.7535123560001011,,,,,,,,,,,,,,0.0,1.0,1.0,10.0,,,,,68.07812331500008,,,,,,,,,,,,,,,,,68.06551640199996,68.17808122000042,68.98233419900043,68.96864024000024,,,,,,,,,,,,,,,,68.97335046900025,68.98233419900043,68.98233419900043,69.74014215399984,g,1.0,0.7535123560001011,,69.74092496400044,69.7534545640001,70.7450170990005,,,,,,,,,,,,,,,,,,,,,sub-129,1,stroop_test,63.60209309418596,
,,,,2.0,2.0,0.0,,,,,rot,red,r,1.0,r,1.0,0.7461503710001125,,,,,,,,,,,,,,0.0,2.0,2.0,0.0,,,,,70.75381199599997,,,,,,,,,,,,,,,,,70.74557265100066,71.08804107100059,71.89913495400015,71.88226722099989,,,,,,,,,,,,,,,,71.88729672299996,71.89913495400015,71.89913495400015,72.66290613100045,r,1.0,0.7461503710001125,,72.66353686300045,72.67479385200022,73.6608450040003,73.66768979600056,,,,,,,,,,,,,,,,,,,,sub-129,1,stroop_test,63.60209309418596,
,,,,3.0,3.0,0.0,,,,,rot,yellow,g,0.0,r,0.0,0.8280745970005228,,,,,,,,,,,,,,0.0,3.0,3.0,3.0,,,,,73.66768979600056,,,,,,,,,,,,,,,,,73.66124001299977,74.85997952300022,75.65408869800012,75.64511055700041,,,,,,,,,,,,,,,,75.64589672900001,75.65408869800012,75.65408869800012,76.49937683799999,r,0.0,0.8280745970005228,,76.50403163700048,76.51601791600024,77.51139249900007,,,,,,,,,,,,,,,,,,,,,sub-129,1,stroop_test,63.60209309418596,
,,,,4.0,4.0,0.0,,,,,gelb,yellow,g,1.0,g,1.0,0.6872710859997824,,,,,,,,,,,,,,0.0,4.0,4.0,11.0,,,,,77.52045576100045,,,,,,,,,,,,,,,,,77.51193311299994,78.29327767300038,79.09133864700016,79.07829783899979,,,,,,,,,,,,,,,,79.08297551800024,79.09133864700016,79.09133864700016,79.78490490500008,g,1.0,0.6872710859997824,,79.78983168600007,79.80290395700013,80.79321865100064,,,,,,,,,,,,,,,,,,,,,sub-129,1,stroop_test,63.60209309418596,
,,,,5.0,5.0,0.0,,,,,gelb,blue,b,0.0,b,1.0,0.8618797400004041,,,,,,,,,,,,,,0.0,5.0,5.0,9.0,,,,,80.8105072950002,,,,,,,,,,,,,,,,,80.79374741100037,81.13428294799996,81.9310171750003,81.91911370100024,,,,,,,,,,,,,,,,81.91990432300008,81.9310171750003,81.9310171750003,82.79706103900025,b,1.0,0.8618797400004041,,82.7976098830004,82.81078545800028,83.79557820199989,83.80431701700036,,,,,,,,,,,,,,,,,,,,sub-129,1,stroop_test,63.60209309418596,
,,,,6.0,6.0,0.0,,,,,blau,blue,b,1.0,b,1.0,0.713548291000734,,,,,,,,,,,,,,0.0,6.0,6.0,6.0,,,,,83.80431701700036,,,,,,,,,,,,,,,,,83.7960873359998,84.99317908100056,85.79190153699983,85.77832892600054,,,,,,,,,,,,,,,,85.78280182700018,85.79190153699983,85.79190153699983,86.51383847299985,b,1.0,0.713548291000734,,86.51470635300029,86.52852492000056,87.51703678500053,,,,,,,,,,,,,,,,,,,,,sub-129,1,stroop_test,63.60209309418596,
,,,,7.0,7.0,0.0,,,,,blau,yellow,g,0.0,g,1.0,0.917473790999793,,,,,,,,,,,,,,0.0,7.0,7.0,7.0,,,,,87.52659187000063,,,,,,,,,,,,,,,,,87.51768096700016,88.31009071600056,89.10409873299977,89.09424292499989,,,,,,,,,,,,,,,,89.09502872900066,89.10409873299977,89.10409873299977,90.03035857600025,g,1.0,0.917473790999793,,90.0312120260005,90.044608401,91.02878139099994,91.03748272699976,,,,,,,,,,,,,,,,,,,,sub-129,1,stroop_test,63.60209309418596,
,,,,8.0,8.0,0.0,,,,,blau,blue,b,1.0,b,1.0,0.6951440459997684,,,,,,,,,,,,,,0.0,8.0,8.0,5.0,,,,,91.03748272699976,,,,,,,,,,,,,,,,,91.029281997,91.8265504609999,92.62115153000012,92.61147208000057,,,,,,,,,,,,,,,,92.6122436630003,92.62115153000012,92.62115153000012,93.32288084100036,b,1.0,0.6951440459997684,,93.32374647800044,93.33720912199988,94.3277918040003,,,,,,,,,,,,,,,,,,,,,sub-129,1,stroop_test,63.60209309418596,
,,,,9.0,9.0,0.0,,,,,rot,blue,b,0.0,b,1.0,1.2056734359994152,,,,,,,,,,,,,,0.0,9.0,9.0,2.0,,,,,94.33686819500052,,,,,,,,,,,,,,,,,94.32832404400052,94.41998848100047,95.22623112700056,95.21230814400042,,,,,,,,,,,,,,,,95.21674408499985,95.22623112700056,95.22623112700056,96.440056552,b,1.0,1.2056734359994152,,96.44062897500044,96.45441053800003,97.44777377599983,,,,,,,,,,,,,,,,,,,,,sub-129,1,stroop_test,63.60209309418596,
,,,,10.0,10.0,0.0,,,,,rot,red,r,1.0,r,1.0,0.7796060359996773,,,,,,,,,,,,,,0.0,10.0,10.0,1.0,,,,,97.46101803300007,,,,,,,,,,,,,,,,,97.4483035610001,98.63411698100026,99.43002863200036,99.4188133480002,,,,,,,,,,,,,,,,99.41961712600003,99.43002863200036,99.43002863200036,100.21195953700044,r,1.0,0.7796060359996773,,100.21287439800015,100.2260058890006,101.2119963920004,101.22070782900028,,,,,,,,,,,,,,,,,,,,sub-129,1,stroop_test,63.60209309418596,
,,,,11.0,11.0,0.0,,,,,gelb,red,r,0.0,r,1.0,0.8705955939994965,,,,,,,,,,,,,,0.0,11.0,11.0,8.0,,,,,101.22070782900028,,,,,,,,,,,,,,,,,101.2125058390002,102.009676271,102.80530633099988,102.79373297199982,,,,,,,,,,,,,,,,102.79703473500012,102.80530633099988,102.80530633099988,103.68084998500036,r,1.0,0.8705955939994965,,103.68174458300018,103.69452666899996,104.67930780700044,104.68803129200025,,,,,,,,,,,,,,,,,,,,sub-129,1,stroop_test,63.60209309418596,
,,,,12.0,0.0,1.0,,,,,gelb,blue,b,0.0,b,1.0,0.8090620539996962,,,,,,,,,,,,,,1.0,0.0,12.0,9.0,,,,,104.68803129200025,,,,,,,,,,,,,,,,,104.67969762699975,105.87642418999984,106.67089502599993,106.66089461899992,,,,,,,,,,,,,,,,106.66167442300048,106.67089502599993,106.67089502599993,107.48473581000052,b,1.0,0.8090620539996962,,107.48538551900036,107.4983188590004,108.48194170999976,108.49429352600056,,,,,,,,,,,,,,,,,,,,sub-129,1,stroop_test,63.60209309418596,
,,,,13.0,1.0,1.0,,,,,blau,yellow,g,0.0,r,0.0,0.820033715000136,,,,,,,,,,,,,,1.0,1.0,13.0,7.0,,,,,108.49429352600056,,,,,,,,,,,,,,,,,108.48245152300024,109.2841042179998,110.08072087900018,110.0677552369998,,,,,,,,,,,,,,,,110.07170191500065,110.08072087900018,110.08072087900018,110.9125536190004,r,0.0,0.820033715000136,,110.9162182730006,110.9284421530001,111.9144099260002,,,,,,,,,,,,,,,,,,,,,sub-129,1,stroop_test,63.60209309418596,
,,,,14.0,2.0,1.0,,,,,blau,red,r,0.0,r,1.0,1.0672541280000587,,,,,,,,,,,,,,1.0,2.0,14.0,4.0,,,,,111.92754328499996,,,,,,,,,,,,,,,,,111.91493528499996,112.26100098799998,113.05639018200054,113.04599718300052,,,,,,,,,,,,,,,,113.04651385099989,113.05639018200054,113.05639018200054,114.1337385349998,r,1.0,1.0672541280000587,,114.13650327200048,114.14820825300012,115.132656365,115.14404240100066,,,,,,,,,,,,,,,,,,,,sub-129,1,stroop_test,63.60209309418596,
,,,,15.0,3.0,1.0,,,,,gelb,yellow,g,1.0,g,1.0,0.725365414999942,,,,,,,,,,,,,,1.0,3.0,15.0,10.0,,,,,115.14404240100066,,,,,,,,,,,,,,,,,115.13316616700013,115.47613687800003,116.27103234100014,116.26002415200036,,,,,,,,,,,,,,,,116.2633101500005,116.27103234100014,116.27103234100014,117.00583598100002,g,1.0,0.725365414999942,,117.0065995619998,117.01825736499995,118.00929789900056,,,,,,,,,,,,,,,,,,,,,sub-129,1,stroop_test,63.60209309418596,
,,,,16.0,4.0,1.0,,,,,blau,blue,b,1.0,b,1.0,0.5207474209992142,,,,,,,,,,,,,,1.0,4.0,16.0,5.0,,,,,118.0166685989998,,,,,,,,,,,,,,,,,118.00981800000044,119.19956546200046,119.99780170200027,119.98409978100062,,,,,,,,,,,,,,,,119.9888436400006,119.99780170200027,119.99780170200027,120.52279383600036,b,1.0,0.5207474209992142,,120.52367640600004,120.5364033699998,121.52797649200056,,,,,,,,,,,,,,,,,,,,,sub-129,1,stroop_test,63.60209309418596,
,,,,17.0,5.0,1.0,,,,,gelb,yellow,g,1.0,g,1.0,0.8020959350005796,,,,,,,,,,,,,,1.0,5.0,17.0,11.0,,,,,121.5367572590003,,,,,,,,,,,,,,,,,121.52851853799984,121.86970746299994,122.66957748599998,122.6542777579998,,,,,,,,,,,,,,,,122.65927518399984,122.66957748599998,122.66957748599998,123.48287785400044,g,1.0,0.8020959350005796,,123.48354724599994,123.50909134999984,124.48359945599988,,,,,,,,,,,,,,,,,,,,,sub-129,1,stroop_test,63.60209309418596,
,,,,18.0,6.0,1.0,,,,,rot,red,r,1.0,r,1.0,0.5943317070004923,,,,,,,,,,,,,,1.0,6.0,18.0,1.0,,,,,124.49303596700064,,,,,,,,,,,,,,,,,124.48429007899996,125.27594522300024,126.07273918400006,126.06034958200053,,,,,,,,,,,,,,,,126.06474119999984,126.07273918400006,126.07273918400006,126.67190021100032,r,1.0,0.5943317070004923,,126.67259921799996,126.68512917099996,127.6767048820002,,,,,,,,,,,,,,,,,,,,,sub-129,1,stroop_test,63.60209309418596,
,,,,19.0,7.0,1.0,,,,,rot,red,r,1.0,r,1.0,0.7364808150005047,,,,,,,,,,,,,,1.0,7.0,19.0,0.0,,,,,127.68386997800008,,,,,,,,,,,,,,,,,127.67722412200057,128.46656559700023,129.26216023100005,129.25092913900062,,,,,,,,,,,,,,,,129.2517331070003,129.26216023100005,129.26216023100005,130.01487855800042,r,1.0,0.7364808150005047,,130.01550898200003,130.02674286,131.01146101799986,131.01893211600054,,,,,,,,,,,,,,,,,,,,sub-129,1,stroop_test,63.60209309418596,
,,,,20.0,8.0,1.0,,,,,gelb,red,r,0.0,r,1.0,0.5684055430001536,,,,,,,,,,,,,,1.0,8.0,20.0,8.0,,,,,131.01893211600054,,,,,,,,,,,,,,,,,131.01198328400005,131.35933533500065,132.1567582380003,132.14376147199982,,,,,,,,,,,,,,,,132.1484968980003,132.1567582380003,132.1567582380003,132.72858090699992,r,1.0,0.5684055430001536,,132.7291489950003,132.7415011740004,133.72659278799983,133.7335023229998,,,,,,,,,,,,,,,,,,,,sub-129,1,stroop_test,63.60209309418596,
,,,,21.0,9.0,1.0,,,,,rot,blue,b,0.0,b,1.0,0.5146195799998168,,,,,,,,,,,,,,1.0,9.0,21.0,2.0,,,,,133.7335023229998,,,,,,,,,,,,,,,,,133.72710587500023,134.9256127460003,135.72200132000037,135.709843009,,,,,,,,,,,,,,,,135.7142145329999,135.72200132000037,135.72200132000037,136.2453870950003,b,1.0,0.5146195799998168,,136.24603826800012,136.25701278399993,137.2448161299999,137.25361629100007,,,,,,,,,,,,,,,,,,,,sub-129,1,stroop_test,63.60209309418596,
,,,,22.0,10.0,1.0,,,,,rot,yellow,g,0.0,r,0.0,0.8582621300001847,,,,,,,,,,,,,,1.0,10.0,22.0,3.0,,,,,137.25361629100007,,,,,,,,,,,,,,,,,137.24535431999993,137.5985115150006,138.39970006400017,138.38760571900002,,,,,,,,,,,,,,,,138.38866217899977,138.39970006400017,138.39970006400017,139.26180825900065,r,0.0,0.8582621300001847,,139.26510341199992,139.27957937700012,140.2700731720006,,,,,,,,,,,,,,,,,,,,,sub-129,1,stroop_test,63.60209309418596,
,,,,23.0,11.0,1.0,,,,,blau,blue,b,1.0,b,1.0,0.6223428280000007,,,,,,,,,,,,,,1.0,11.0,23.0,6.0,,,,,140.28183103100037,,,,,,,,,,,,,,,,,140.27076712000053,140.3601776559999,141.15926222300004,141.14477794699997,,,,,,,,,,,,,,,,141.1492984890001,141.15926222300004,141.15926222300004,141.78428598499977,b,1.0,0.6223428280000007,,141.78805343400018,141.80034371400052,142.79383660799976,,,,,,,,,,,,,,,,,,,,,sub-129,1,stroop_test,63.60209309418596,
,,,,,,,,,,,,,,,,,,,,,,,,,,,,,,,,,,,,,,,,,,,,,,,,,,,,,,,,,,,,,,,,,,,,,,,,,,,,,,,,,,,,,,,142.7940872700001,142.80572349900012,142.80572349900012,146.58808129299996,space,3.7741396810006336,,,,,,,,,,,,,,sub-129,1,stroop_test,63.60209309418596,
,,,,0.0,0.0,0.0,,,,,,,,,,,,,rot,yellow,g,0.0,g,1.0,1.0173112349993971,,,,,,,,,,0.0,0.0,0.0,3.0,146.61038662600004,,,,,,,,,,,,,,,,,146.59834672800025,147.38386058300057,148.18038656099998,148.1673856590005,,,,,,,,,,,,,,,,,,,,,,,,,,,,,,,,,,,148.1713679760005,148.18038656099998,148.18038656099998,149.20638469999994,g,1.0,1.0173112349993971,,,,,,sub-129,1,stroop_test,63.60209309418596,
,,,,1.0,1.0,0.0,,,,,,,,,,,,,blau,yellow,g,0.0,g,1.0,0.6211892219998845,,,,,,,,,,0.0,1.0,1.0,7.0,149.21887082100056,,,,,,,,,,,,,,,,,149.20697048800048,150.40027422300045,151.19785914400018,151.18481218000034,,,,,,,,,,,,,,,,,,,,,,,,,,,,,,,,,,,151.18864567400033,151.19785914400018,151.19785914400018,151.82883650700023,g,1.0,0.6211892219998845,,,,,,sub-129,1,stroop_test,63.60209309418596,
,,,,2.0,2.0,0.0,,,,,,,,,,,,,gelb,yellow,g,1.0,g,1.0,0.4771925610002654,,,,,,,,,,0.0,2.0,2.0,10.0,151.8398111240003,,,,,,,,,,,,,,,,,151.82928105200062,153.02566189900062,153.81989620100012,153.8091096349999,,,,,,,,,,,,,,,,,,,,,,,,,,,,,,,,,,,153.81235954600015,153.81989620100012,153.81989620100012,154.30301335000058,g,1.0,0.4771925610002654,,,,,,sub-129,1,stroop_test,63.60209309418596,
,,,,3.0,3.0,0.0,,,,,,,,,,,,,blau,red,r,0.0,r,1.0,0.7665577099996881,,,,,,,,,,0.0,3.0,3.0,4.0,154.31342214300005,,,,,,,,,,,,,,,,,154.3034715700005,154.39798863299984,155.19596275999993,155.18241808699986,,,,,,,,,,,,,,,,,,,,,,,,,,,,,,,,,,,155.1860842240003,155.19596275999993,155.19596275999993,155.9718817840003,r,1.0,0.7665577099996881,,,,,,sub-129,1,stroop_test,63.60209309418596,
,,,,4.0,4.0,0.0,,,,,,,,,,,,,blau,blue,b,1.0,b,1.0,0.4075876880006035,,,,,,,,,,0.0,4.0,4.0,5.0,155.98310885200044,,,,,,,,,,,,,,,,,155.9723246909998,156.31740960600018,157.11918335100015,157.10972392500025,,,,,,,,,,,,,,,,,,,,,,,,,,,,,,,,,,,157.1105001750002,157.11918335100015,157.11918335100015,157.53000446199985,b,1.0,0.4075876880006035,,,,,,sub-129,1,stroop_test,63.60209309418596,
,,,,5.0,5.0,0.0,,,,,,,,,,,,,rot,red,r,1.0,r,1.0,0.4797658670004239,,,,,,,,,,0.0,5.0,5.0,0.0,157.54223711600025,,,,,,,,,,,,,,,,,157.53068301799976,157.87588141300057,158.67266433799978,158.65979064300063,,,,,,,,,,,,,,,,,,,,,,,,,,,,,,,,,,,158.66425043399977,158.67266433799978,158.67266433799978,159.16147483399982,r,1.0,0.4797658670004239,,,,,,sub-129,1,stroop_test,63.60209309418596,
,,,,6.0,6.0,0.0,,,,,,,,,,,,,gelb,blue,b,0.0,b,1.0,0.5061686760000157,,,,,,,,,,0.0,6.0,6.0,9.0,159.17175391,,,,,,,,,,,,,,,,,159.16193507700063,159.95932438199998,160.75592384500032,160.74331014400013,,,,,,,,,,,,,,,,,,,,,,,,,,,,,,,,,,,160.74768493800002,160.75592384500032,160.75592384500032,161.27218365499994,b,1.0,0.5061686760000157,,,,,,sub-129,1,stroop_test,63.60209309418596,
,,,,7.0,7.0,0.0,,,,,,,,,,,,,gelb,red,r,0.0,r,1.0,1.018986660000337,,,,,,,,,,0.0,7.0,7.0,8.0,161.2833220299999,,,,,,,,,,,,,,,,,161.27267056500023,161.37591181900007,162.17101949600055,162.16067766500055,,,,,,,,,,,,,,,,,,,,,,,,,,,,,,,,,,,162.16146215900062,162.17101949600055,162.17101949600055,163.19630354899982,r,1.0,1.018986660000337,,,,,,sub-129,1,stroop_test,63.60209309418596,
,,,,8.0,8.0,0.0,,,,,,,,,,,,,rot,blue,b,0.0,b,1.0,0.6006054700001187,,,,,,,,,,0.0,8.0,8.0,2.0,163.2077292140002,,,,,,,,,,,,,,,,,163.1969117990002,164.39203956599977,165.18660299400017,165.17579632900015,,,,,,,,,,,,,,,,,,,,,,,,,,,,,,,,,,,165.17901526100013,165.18660299400017,165.18660299400017,165.80167096100013,b,1.0,0.6006054700001187,,,,,,sub-129,1,stroop_test,63.60209309418596,
,,,,9.0,9.0,0.0,,,,,,,,,,,,,rot,red,r,1.0,r,1.0,0.8484558199997991,,,,,,,,,,0.0,9.0,9.0,1.0,165.80993938600022,,,,,,,,,,,,,,,,,165.80211688200052,166.15347561599992,166.9587724390003,166.9475900260004,,,,,,,,,,,,,,,,,,,,,,,,,,,,,,,,,,,166.94838518300003,166.9587724390003,166.9587724390003,167.81639708400053,r,1.0,0.8484558199997991,,,,,,sub-129,1,stroop_test,63.60209309418596,
,,,,10.0,10.0,0.0,,,,,,,,,,,,,blau,blue,b,1.0,b,1.0,0.6620824439996795,,,,,,,,,,0.0,10.0,10.0,6.0,167.8265878530001,,,,,,,,,,,,,,,,,167.8168502819999,169.00913216299978,169.80421595700045,169.79346806500052,,,,,,,,,,,,,,,,,,,,,,,,,,,,,,,,,,,169.7967841110003,169.80421595700045,169.80421595700045,170.47830545099987,b,1.0,0.6620824439996795,,,,,,sub-129,1,stroop_test,63.60209309418596,
,,,,11.0,11.0,0.0,,,,,,,,,,,,,gelb,yellow,g,1.0,g,1.0,0.7066155880002043,,,,,,,,,,0.0,11.0,11.0,11.0,170.48885751000034,,,,,,,,,,,,,,,,,170.47874851000051,171.67558375000044,172.4731634740001,172.46044464199986,,,,,,,,,,,,,,,,,,,,,,,,,,,,,,,,,,,172.46481558600044,172.4731634740001,172.4731634740001,173.18769599400002,g,1.0,0.7066155880002043,,,,,,sub-129,1,stroop_test,63.60209309418596,
,,,,12.0,0.0,1.0,,,,,,,,,,,,,rot,yellow,g,0.0,g,1.0,0.6198227879995102,,,,,,,,,,1.0,0.0,12.0,3.0,173.1998486250004,,,,,,,,,,,,,,,,,173.18835647500055,173.9814923640006,174.77961840199987,174.76665034300004,,,,,,,,,,,,,,,,,,,,,,,,,,,,,,,,,,,174.77108799899997,174.77961840199987,174.77961840199987,175.41109282700018,g,1.0,0.6198227879995102,,,,,,sub-129,1,stroop_test,63.60209309418596,
,,,,13.0,1.0,1.0,,,,,,,,,,,,,blau,blue,b,1.0,b,1.0,0.4869441040000311,,,,,,,,,,1.0,1.0,13.0,6.0,175.4208420800005,,,,,,,,,,,,,,,,,175.41154661600012,176.60874983400026,177.40597977900052,177.39365280400034,,,,,,,,,,,,,,,,,,,,,,,,,,,,,,,,,,,177.39799942399986,177.40597977900052,177.40597977900052,177.89579136000066,b,1.0,0.4869441040000311,,,,,,sub-129,1,stroop_test,63.60209309418596,
,,,,14.0,2.0,1.0,,,,,,,,,,,,,gelb,blue,b,0.0,b,1.0,0.393054812999253,,,,,,,,,,1.0,2.0,14.0,9.0,177.90712326799985,,,,,,,,,,,,,,,,,177.89643747900027,178.69232255600036,179.48910114699993,179.47629411199978,,,,,,,,,,,,,,,,,,,,,,,,,,,,,,,,,,,179.48091886100065,179.48910114699993,179.48910114699993,179.8855162159998,b,1.0,0.393054812999253,,,,,,sub-129,1,stroop_test,63.60209309418596,
,,,,15.0,3.0,1.0,,,,,,,,,,,,,gelb,red,r,0.0,r,1.0,0.6240906200000609,,,,,,,,,,1.0,3.0,15.0,8.0,179.89636812900062,,,,,,,,,,,,,,,,,179.88596813200002,180.68287324999983,181.475416106,181.46654974400008,,,,,,,,,,,,,,,,,,,,,,,,,,,,,,,,,,,181.4671556000003,181.475416106,181.475416106,182.11097190200053,r,1.0,0.6240906200000609,,,,,,sub-129,1,stroop_test,63.60209309418596,
,,,,16.0,4.0,1.0,,,,,,,,,,,,,rot,blue,b,0.0,b,1.0,0.5686887430001661,,,,,,,,,,1.0,4.0,16.0,2.0,182.121429717,,,,,,,,,,,,,,,,,182.11142323200056,182.20915968100053,183.00501131800047,182.9930770709998,,,,,,,,,,,,,,,,,,,,,,,,,,,,,,,,,,,182.99692355299976,183.00501131800047,183.00501131800047,183.58376888300063,b,1.0,0.5686887430001661,,,,,,sub-129,1,stroop_test,63.60209309418596,
,,,,17.0,5.0,1.0,,,,,,,,,,,,,blau,red,r,0.0,r,1.0,0.5864289769997413,,,,,,,,,,1.0,5.0,17.0,4.0,183.59521524699997,,,,,,,,,,,,,,,,,183.58422130500003,183.93170627100065,184.730325863,184.7169658110006,,,,,,,,,,,,,,,,,,,,,,,,,,,,,,,,,,,184.7213255510005,184.730325863,184.730325863,185.3218160209999,r,1.0,0.5864289769997413,,,,,,sub-129,1,stroop_test,63.60209309418596,
,,,,18.0,6.0,1.0,,,,,,,,,,,,,rot,red,r,1.0,g,0.0,0.4789996389999942,,,,,,,,,,1.0,6.0,18.0,0.0,185.33345679400009,,,,,,,,,,,,,,,,,185.3222802549999,186.51640152900015,187.31476330500027,187.30076339400057,,,,,,,,,,,,,,,,,,,,,,,,,,,,,,,,,,,187.30557341799977,187.31476330500027,187.31476330500027,187.7991507570005,g,0.0,0.4789996389999942,,,,,,sub-129,1,stroop_test,63.60209309418596,
,,,,19.0,7.0,1.0,,,,,,,,,,,,,blau,yellow,g,0.0,g,1.0,0.5862487579997833,,,,,,,,,,1.0,7.0,19.0,7.0,187.80953552499977,,,,,,,,,,,,,,,,,187.79959375399997,188.5919024900004,189.38726089900047,189.37601970700047,,,,,,,,,,,,,,,,,,,,,,,,,,,,,,,,,,,189.37927759500053,189.38726089900047,189.38726089900047,189.98391162900043,g,1.0,0.5862487579997833,,,,,,sub-129,1,stroop_test,63.60209309418596,
,,,,20.0,8.0,1.0,,,,,,,,,,,,,gelb,yellow,g,1.0,g,1.0,0.5163519500001712,,,,,,,,,,1.0,8.0,20.0,11.0,189.9964462500002,,,,,,,,,,,,,,,,,189.9845223680004,190.33281580099992,191.1309690830003,191.11728906000008,,,,,,,,,,,,,,,,,,,,,,,,,,,,,,,,,,,191.12183249100053,191.1309690830003,191.1309690830003,191.6545393360002,g,1.0,0.5163519500001712,,,,,,sub-129,1,stroop_test,63.60209309418596,
,,,,21.0,9.0,1.0,,,,,,,,,,,,,gelb,yellow,g,1.0,g,1.0,0.4902448929997263,,,,,,,,,,1.0,9.0,21.0,10.0,191.6656090280003,,,,,,,,,,,,,,,,,191.6550178260004,192.8490449159999,193.64510136599984,193.6336317180003,,,,,,,,,,,,,,,,,,,,,,,,,,,,,,,,,,,193.63444866400005,193.64510136599984,193.64510136599984,194.1492880679998,g,1.0,0.4902448929997263,,,,,,sub-129,1,stroop_test,63.60209309418596,
,,,,22.0,10.0,1.0,,,,,,,,,,,,,blau,blue,b,1.0,b,1.0,0.5263786269997581,,,,,,,,,,1.0,10.0,22.0,5.0,194.15875310000047,,,,,,,,,,,,,,,,,194.1496255740003,194.94203293400005,195.73790668400036,195.72620087199996,,,,,,,,,,,,,,,,,,,,,,,,,,,,,,,,,,,195.72985578499996,195.73790668400036,195.73790668400036,196.2675699800002,b,1.0,0.5263786269997581,,,,,,sub-129,1,stroop_test,63.60209309418596,
,,,,23.0,11.0,1.0,,,,,,,,,,,,,rot,red,r,1.0,r,1.0,0.7236164639998606,,,,,,,,,,1.0,11.0,23.0,1.0,196.28114385900065,,,,,,,,,,,,,,,,,196.26847111500047,197.46607810600017,198.26430607300065,198.2507213150002,,,,,,,,,,,,,,,,,,,,,,,,,,,,,,,,,,,198.25524201700048,198.26430607300065,198.26430607300065,198.99461527099996,r,1.0,0.7236164639998606,,,,,,sub-129,1,stroop_test,63.60209309418596,
,,,,24.0,0.0,2.0,,,,,,,,,,,,,blau,blue,b,1.0,b,1.0,0.80926510900008,,,,,,,,,,2.0,0.0,24.0,5.0,199.00912009200056,,,,,,,,,,,,,,,,,198.99521861599987,199.0975344640001,199.901347688,199.88628864300065,,,,,,,,,,,,,,,,,,,,,,,,,,,,,,,,,,,199.8908082730004,199.901347688,199.901347688,200.71602344199985,b,1.0,0.80926510900008,,,,,,sub-129,1,stroop_test,63.60209309418596,
,,,,25.0,1.0,2.0,,,,,,,,,,,,,gelb,blue,b,0.0,b,1.0,0.446327444000417,,,,,,,,,,2.0,1.0,25.0,9.0,200.7303473660004,,,,,,,,,,,,,,,,,200.71663242900013,201.0586625599999,201.8533807190006,201.84221520499975,,,,,,,,,,,,,,,,,,,,,,,,,,,,,,,,,,,201.84550697099985,201.8533807190006,201.8533807190006,202.30508388,b,1.0,0.446327444000417,,,,,,sub-129,1,stroop_test,63.60209309418596,
,,,,26.0,2.0,2.0,,,,,,,,,,,,,rot,red,r,1.0,r,1.0,0.8484862870000143,,,,,,,,,,2.0,2.0,26.0,0.0,202.3175934030005,,,,,,,,,,,,,,,,,202.30570362300023,202.40888221300065,203.20849921300032,203.1938625720004,,,,,,,,,,,,,,,,,,,,,,,,,,,,,,,,,,,203.1990422810004,203.20849921300032,203.20849921300032,204.0670889490002,r,1.0,0.8484862870000143,,,,,,sub-129,1,stroop_test,63.60209309418596,
,,,,27.0,3.0,2.0,,,,,,,,,,,,,blau,red,r,0.0,r,1.0,0.5534135999996579,,,,,,,,,,2.0,3.0,27.0,4.0,204.07882724200044,,,,,,,,,,,,,,,,,204.06748327100013,205.2659307800004,206.0640108710004,206.05006449099983,,,,,,,,,,,,,,,,,,,,,,,,,,,,,,,,,,,206.05474956499984,206.0640108710004,206.0640108710004,206.62827867099983,r,1.0,0.5534135999996579,,,,,,sub-129,1,stroop_test,63.60209309418596,
,,,,28.0,4.0,2.0,,,,,,,,,,,,,gelb,yellow,g,1.0,g,1.0,0.8614085919998615,,,,,,,,,,2.0,4.0,28.0,11.0,206.63928507899985,,,,,,,,,,,,,,,,,206.62872081600017,206.72875072100032,207.528240869,207.5133878220004,,,,,,,,,,,,,,,,,,,,,,,,,,,,,,,,,,,207.51786837100008,207.528240869,207.528240869,208.3958400370002,g,1.0,0.8614085919998615,,,,,,sub-129,1,stroop_test,63.60209309418596,
,,,,29.0,5.0,2.0,,,,,,,,,,,,,blau,blue,b,1.0,b,1.0,0.4358951819995127,,,,,,,,,,2.0,5.0,29.0,6.0,208.40809429599997,,,,,,,,,,,,,,,,,208.396456728,209.1917141200001,209.9896371220002,209.9771215970004,,,,,,,,,,,,,,,,,,,,,,,,,,,,,,,,,,,209.98163841299996,209.9896371220002,209.9896371220002,210.42884981800037,b,1.0,0.4358951819995127,,,,,,sub-129,1,stroop_test,63.60209309418596,
,,,,30.0,6.0,2.0,,,,,,,,,,,,,rot,yellow,g,0.0,g,1.0,0.6517314949996944,,,,,,,,,,2.0,6.0,30.0,3.0,210.4401486300003,,,,,,,,,,,,,,,,,210.42942289300024,210.77621371799975,211.57932712,211.56382950900024,,,,,,,,,,,,,,,,,,,,,,,,,,,,,,,,,,,211.56826561300025,211.57932712,211.57932712,212.2340748200004,g,1.0,0.6517314949996944,,,,,,sub-129,1,stroop_test,63.60209309418596,
,,,,31.0,7.0,2.0,,,,,,,,,,,,,gelb,red,r,0.0,r,1.0,0.5915424689992506,,,,,,,,,,2.0,7.0,31.0,8.0,212.24648097499997,,,,,,,,,,,,,,,,,212.23451292000027,212.3351253420005,213.14139776899992,213.1272600510001,,,,,,,,,,,,,,,,,,,,,,,,,,,,,,,,,,,213.1314364330001,213.14139776899992,213.14139776899992,213.73875979500008,r,1.0,0.5915424689992506,,,,,,sub-129,1,stroop_test,63.60209309418596,
,,,,32.0,8.0,2.0,,,,,,,,,,,,,blau,yellow,g,0.0,g,1.0,0.794857267000225,,,,,,,,,,2.0,8.0,32.0,7.0,213.7503165580001,,,,,,,,,,,,,,,,,213.7392190870005,214.932095917,215.72996180500013,215.71661784200023,,,,,,,,,,,,,,,,,,,,,,,,,,,,,,,,,,,215.72099255900048,215.72996180500013,215.72996180500013,216.52908180299983,g,1.0,0.794857267000225,,,,,,sub-129,1,stroop_test,63.60209309418596,
,,,,33.0,9.0,2.0,,,,,,,,,,,,,gelb,yellow,g,1.0,g,1.0,0.5398668920006457,,,,,,,,,,2.0,9.0,33.0,10.0,216.54014775399992,,,,,,,,,,,,,,,,,216.52947740499985,216.88063844800035,217.6862749030006,217.66938621400004,,,,,,,,,,,,,,,,,,,,,,,,,,,,,,,,,,,217.6759407039999,217.6862749030006,217.6862749030006,218.2295023200004,g,1.0,0.5398668920006457,,,,,,sub-129,1,stroop_test,63.60209309418596,
,,,,34.0,10.0,2.0,,,,,,,,,,,,,rot,blue,b,0.0,b,1.0,0.7882221399995615,,,,,,,,,,2.0,10.0,34.0,2.0,218.24158423100016,,,,,,,,,,,,,,,,,218.2301337730005,219.02475248200065,219.82015132300057,219.80889880799987,,,,,,,,,,,,,,,,,,,,,,,,,,,,,,,,,,,219.8120486590005,219.82015132300057,219.82015132300057,220.61174491400016,b,1.0,0.7882221399995615,,,,,,sub-129,1,stroop_test,63.60209309418596,
,,,,35.0,11.0,2.0,,,,,,,,,,,,,rot,red,r,1.0,r,1.0,0.7227780550001626,,,,,,,,,,2.0,11.0,35.0,1.0,220.62272242900053,,,,,,,,,,,,,,,,,220.6122008140001,221.4085244340004,222.2030974190002,222.19344170600016,,,,,,,,,,,,,,,,,,,,,,,,,,,,,,,,,,,222.1942435230003,222.2030974190002,222.2030974190002,222.92862339400017,r,1.0,0.7227780550001626,,,,,,sub-129,1,stroop_test,63.60209309418596,
,,,,36.0,0.0,3.0,,,,,,,,,,,,,blau,blue,b,1.0,b,1.0,0.6417253670006176,,,,,,,,,,3.0,0.0,36.0,5.0,222.93963792700012,,,,,,,,,,,,,,,,,222.92908072000048,223.04220326799987,223.85874003900065,223.84248658199976,,,,,,,,,,,,,,,,,,,,,,,,,,,,,,,,,,,223.84677605199977,223.85874003900065,223.85874003900065,224.5043314020004,b,1.0,0.6417253670006176,,,,,,sub-129,1,stroop_test,63.60209309418596,
,,,,37.0,1.0,3.0,,,,,,,,,,,,,blau,red,r,0.0,r,1.0,1.0834341680001671,,,,,,,,,,3.0,1.0,37.0,4.0,224.51626902000044,,,,,,,,,,,,,,,,,224.50476150299983,225.2990621680001,226.0943346539998,226.0828230900006,,,,,,,,,,,,,,,,,,,,,,,,,,,,,,,,,,,226.08362916399983,226.0943346539998,226.0943346539998,227.18960016300025,r,1.0,1.0834341680001671,,,,,,sub-129,1,stroop_test,63.60209309418596,
,,,,38.0,2.0,3.0,,,,,,,,,,,,,rot,red,r,1.0,r,1.0,0.5363650780000171,,,,,,,,,,3.0,2.0,38.0,1.0,227.20202334700025,,,,,,,,,,,,,,,,,227.1902353559999,227.53316268900016,228.33653079000032,228.32541607300027,,,,,,,,,,,,,,,,,,,,,,,,,,,,,,,,,,,228.3285789290003,228.33653079000032,228.33653079000032,228.87827828199988,r,1.0,0.5363650780000171,,,,,,sub-129,1,stroop_test,63.60209309418596,
,,,,39.0,3.0,3.0,,,,,,,,,,,,,gelb,yellow,g,1.0,g,1.0,0.5842143410000062,,,,,,,,,,3.0,3.0,39.0,10.0,228.89020926800004,,,,,,,,,,,,,,,,,228.8788787580006,229.67440944900045,230.46943701100008,230.45840707800016,,,,,,,,,,,,,,,,,,,,,,,,,,,,,,,,,,,230.46163429100037,230.46943701100008,230.46943701100008,231.06200840300065,g,1.0,0.5842143410000062,,,,,,sub-129,1,stroop_test,63.60209309418596,
,,,,40.0,4.0,3.0,,,,,,,,,,,,,gelb,yellow,g,1.0,g,1.0,0.7166809350001131,,,,,,,,,,3.0,4.0,40.0,11.0,231.0745099530004,,,,,,,,,,,,,,,,,231.0626252359998,232.2581938610001,233.05012765399988,233.04164259900065,,,,,,,,,,,,,,,,,,,,,,,,,,,,,,,,,,,233.04223209200063,233.05012765399988,233.05012765399988,233.77172493800023,g,1.0,0.7166809350001131,,,,,,sub-129,1,stroop_test,63.60209309418596,
,,,,41.0,5.0,3.0,,,,,,,,,,,,,gelb,blue,b,0.0,b,1.0,0.6102646290000848,,,,,,,,,,3.0,5.0,41.0,9.0,233.78342760499984,,,,,,,,,,,,,,,,,233.77227942799985,233.8660464740005,234.6662474550003,234.6581469170005,,,,,,,,,,,,,,,,,,,,,,,,,,,,,,,,,,,234.6587110720002,234.6662474550003,234.6662474550003,235.2809865400004,b,1.0,0.6102646290000848,,,,,,sub-129,1,stroop_test,63.60209309418596,
,,,,42.0,6.0,3.0,,,,,,,,,,,,,blau,yellow,g,0.0,g,1.0,0.8189436279999427,,,,,,,,,,3.0,6.0,42.0,7.0,235.29071975500028,,,,,,,,,,,,,,,,,235.2814266080004,236.0742054680004,236.8702037740004,236.8586875990004,,,,,,,,,,,,,,,,,,,,,,,,,,,,,,,,,,,236.862433413,236.8702037740004,236.8702037740004,237.69946330699983,g,1.0,0.8189436279999427,,,,,,sub-129,1,stroop_test,63.60209309418596,
,,,,43.0,7.0,3.0,,,,,,,,,,,,,rot,yellow,g,0.0,g,1.0,0.6677066820002437,,,,,,,,,,3.0,7.0,43.0,3.0,237.71121535900056,,,,,,,,,,,,,,,,,237.69990309400052,238.04176547499992,238.84170229400024,238.82678243200007,,,,,,,,,,,,,,,,,,,,,,,,,,,,,,,,,,,238.83199934799995,238.84170229400024,238.84170229400024,239.51639730199983,g,1.0,0.6677066820002437,,,,,,sub-129,1,stroop_test,63.60209309418596,
,,,,44.0,8.0,3.0,,,,,,,,,,,,,blau,blue,b,1.0,b,1.0,0.5788326350002535,,,,,,,,,,3.0,8.0,44.0,6.0,239.5281392880006,,,,,,,,,,,,,,,,,239.51684137400025,240.31564703100048,241.11259669399988,241.0994103350004,,,,,,,,,,,,,,,,,,,,,,,,,,,,,,,,,,,241.1035935810005,241.11259669399988,241.11259669399988,241.69427401699977,b,1.0,0.5788326350002535,,,,,,sub-129,1,stroop_test,63.60209309418596,
,,,,45.0,9.0,3.0,,,,,,,,,,,,,rot,blue,b,0.0,b,1.0,0.4877732259992626,,,,,,,,,,3.0,9.0,45.0,2.0,241.70510709800052,,,,,,,,,,,,,,,,,241.69473389199996,242.4913760010004,243.28796349799995,243.2753388860001,,,,,,,,,,,,,,,,,,,,,,,,,,,,,,,,,,,243.2797502379999,243.28796349799995,243.28796349799995,243.7833332440005,b,1.0,0.4877732259992626,,,,,,sub-129,1,stroop_test,63.60209309418596,
,,,,46.0,10.0,3.0,,,,,,,,,,,,,gelb,red,r,0.0,r,1.0,0.8276316379997297,,,,,,,,,,3.0,10.0,46.0,8.0,243.79666595199976,,,,,,,,,,,,,,,,,243.78393368100024,244.58226541800013,245.3801087640004,245.3661517970004,,,,,,,,,,,,,,,,,,,,,,,,,,,,,,,,,,,245.37085454000044,245.3801087640004,245.3801087640004,246.2107131230005,r,1.0,0.8276316379997297,,,,,,sub-129,1,stroop_test,63.60209309418596,
,,,,47.0,11.0,3.0,,,,,,,,,,,,,rot,red,r,1.0,r,1.0,0.5568853109998599,,,,,,,,,,3.0,11.0,47.0,0.0,246.22126207300064,,,,,,,,,,,,,,,,,246.2112187900002,246.3085659620001,247.1079624290005,247.09343476899997,,,,,,,,,,,,,,,,,,,,,,,,,,,,,,,,,,,247.09791100100028,247.1079624290005,247.1079624290005,247.67751152900016,r,1.0,0.5568853109998599,,,,,,sub-129,1,stroop_test,63.60209309418596,
,,,,48.0,0.0,4.0,,,,,,,,,,,,,rot,yellow,g,0.0,g,1.0,0.6858986930001265,,,,,,,,,,4.0,0.0,48.0,3.0,247.68859383100065,,,,,,,,,,,,,,,,,247.6779714430004,248.47436422200008,249.268105786,249.25856289000055,,,,,,,,,,,,,,,,,,,,,,,,,,,,,,,,,,,249.25936249300048,249.268105786,249.268105786,249.96125323400065,g,1.0,0.6858986930001265,,,,,,sub-129,1,stroop_test,63.60209309418596,
,,,,49.0,1.0,4.0,,,,,,,,,,,,,gelb,yellow,g,1.0,g,1.0,0.4830188559999442,,,,,,,,,,4.0,1.0,49.0,11.0,249.97406682200017,,,,,,,,,,,,,,,,,249.961846872,250.05934031500053,250.8629242570005,250.84950091000064,,,,,,,,,,,,,,,,,,,,,,,,,,,,,,,,,,,250.853829957,250.8629242570005,250.8629242570005,251.3600654339998,g,1.0,0.4830188559999442,,,,,,sub-129,1,stroop_test,63.60209309418596,
,,,,50.0,2.0,4.0,,,,,,,,,,,,,gelb,red,r,0.0,r,1.0,0.7619964710002023,,,,,,,,,,4.0,2.0,50.0,8.0,251.3748044570002,,,,,,,,,,,,,,,,,251.36072387500008,251.7076702840004,252.5025856230004,252.49226010599975,,,,,,,,,,,,,,,,,,,,,,,,,,,,,,,,,,,252.4932011560004,252.5025856230004,252.5025856230004,253.27677033200047,r,1.0,0.7619964710002023,,,,,,sub-129,1,stroop_test,63.60209309418596,
,,,,51.0,3.0,4.0,,,,,,,,,,,,,rot,red,r,1.0,r,1.0,0.6315828970000439,,,,,,,,,,4.0,3.0,51.0,1.0,253.289236441,,,,,,,,,,,,,,,,,253.2774089310005,254.4742270960005,255.2709050829999,255.258536073,,,,,,,,,,,,,,,,,,,,,,,,,,,,,,,,,,,255.2629242769999,255.2709050829999,255.2709050829999,255.91542151500016,r,1.0,0.6315828970000439,,,,,,sub-129,1,stroop_test,63.60209309418596,
,,,,52.0,4.0,4.0,,,,,,,,,,,,,gelb,yellow,g,1.0,g,1.0,0.4172622129999581,,,,,,,,,,4.0,4.0,52.0,10.0,255.94125868900028,,,,,,,,,,,,,,,,,255.91585770300023,256.7076518670001,257.5060810280001,257.492672114,,,,,,,,,,,,,,,,,,,,,,,,,,,,,,,,,,,257.49791431799986,257.5060810280001,257.5060810280001,257.928070772,g,1.0,0.4172622129999581,,,,,,sub-129,1,stroop_test,63.60209309418596,
,,,,53.0,5.0,4.0,,,,,,,,,,,,,gelb,blue,b,0.0,b,1.0,0.6372609780000857,,,,,,,,,,4.0,5.0,53.0,9.0,257.939117332,,,,,,,,,,,,,,,,,257.92851243600035,258.0256693190004,258.8205476889998,258.8099613710001,,,,,,,,,,,,,,,,,,,,,,,,,,,,,,,,,,,258.8107319669998,258.8205476889998,258.8205476889998,259.46279363400026,b,1.0,0.6372609780000857,,,,,,sub-129,1,stroop_test,63.60209309418596,
,,,,54.0,6.0,4.0,,,,,,,,,,,,,blau,red,r,0.0,r,1.0,0.6402130090000355,,,,,,,,,,4.0,6.0,54.0,4.0,259.4756699540003,,,,,,,,,,,,,,,,,259.4633909559998,260.25785812600043,261.0543435290001,261.04196041900013,,,,,,,,,,,,,,,,,,,,,,,,,,,,,,,,,,,261.0463290530006,261.0543435290001,261.0543435290001,261.70333839900013,r,1.0,0.6402130090000355,,,,,,sub-129,1,stroop_test,63.60209309418596,
,,,,55.0,7.0,4.0,,,,,,,,,,,,,rot,red,r,1.0,r,1.0,0.4904718819998379,,,,,,,,,,4.0,7.0,55.0,0.0,261.7143743630004,,,,,,,,,,,,,,,,,261.70372404000045,261.7996221880003,262.5999975049999,262.5855262900004,,,,,,,,,,,,,,,,,,,,,,,,,,,,,,,,,,,262.5897614160004,262.5999975049999,262.5999975049999,263.11039778400027,r,1.0,0.4904718819998379,,,,,,sub-129,1,stroop_test,63.60209309418596,
,,,,56.0,8.0,4.0,,,,,,,,,,,,,blau,yellow,g,0.0,g,1.0,0.5818086609997408,,,,,,,,,,4.0,8.0,56.0,7.0,263.1258328170006,,,,,,,,,,,,,,,,,263.1108678669998,263.90875099500045,264.7119210110004,264.6963265740005,,,,,,,,,,,,,,,,,,,,,,,,,,,,,,,,,,,264.70088399199994,264.7119210110004,264.7119210110004,265.3000210810005,g,1.0,0.5818086609997408,,,,,,sub-129,1,stroop_test,63.60209309418596,
,,,,57.0,9.0,4.0,,,,,,,,,,,,,blau,blue,b,1.0,b,1.0,0.4555033990000083,,,,,,,,,,4.0,9.0,57.0,6.0,265.3134846620005,,,,,,,,,,,,,,,,,265.30061586600004,265.40040092300023,266.2092028870002,266.19228753400057,,,,,,,,,,,,,,,,,,,,,,,,,,,,,,,,,,,266.1930671629998,266.2092028870002,266.2092028870002,266.6771176170005,b,1.0,0.4555033990000083,,,,,,sub-129,1,stroop_test,63.60209309418596,
,,,,58.0,10.0,4.0,,,,,,,,,,,,,rot,blue,b,0.0,b,1.0,0.4248882720003166,,,,,,,,,,4.0,10.0,58.0,2.0,266.6876140969998,,,,,,,,,,,,,,,,,266.67751158100054,267.8740386119998,268.6711194890004,268.6584670689999,,,,,,,,,,,,,,,,,,,,,,,,,,,,,,,,,,,268.6628218880005,268.6711194890004,268.6711194890004,269.1005897069999,b,1.0,0.4248882720003166,,,,,,sub-129,1,stroop_test,63.60209309418596,
,,,,59.0,11.0,4.0,,,,,,,,,,,,,blau,blue,b,1.0,b,1.0,0.5155931879999116,,,,,,,,,,4.0,11.0,59.0,5.0,269.11191604600026,,,,,,,,,,,,,,,,,269.10096976600016,269.1983655680005,269.9968006050003,269.9827742710004,,,,,,,,,,,,,,,,,,,,,,,,,,,,,,,,,,,269.9873552700001,269.9968006050003,269.9968006050003,270.520176602,b,1.0,0.5155931879999116,,,,,,sub-129,1,stroop_test,63.60209309418596,
,,,,60.0,0.0,5.0,,,,,,,,,,,,,rot,blue,b,0.0,b,1.0,0.5437355989997741,,,,,,,,,,5.0,0.0,60.0,2.0,270.5308329039999,,,,,,,,,,,,,,,,,270.5205648450001,271.3150093889999,272.1134672600001,272.09956065200004,,,,,,,,,,,,,,,,,,,,,,,,,,,,,,,,,,,272.1042713630004,272.1134672600001,272.1134672600001,272.6602254919999,b,1.0,0.5437355989997741,,,,,,sub-129,1,stroop_test,63.60209309418596,
,,,,61.0,1.0,5.0,,,,,,,,,,,,,gelb,red,r,0.0,r,1.0,0.8954039420004847,,,,,,,,,,5.0,1.0,61.0,8.0,272.67450256400025,,,,,,,,,,,,,,,,,272.66084013,272.75788048100003,273.5549313400006,273.54159563900066,,,,,,,,,,,,,,,,,,,,,,,,,,,,,,,,,,,273.546774511,273.5549313400006,273.5549313400006,274.45431105100033,r,1.0,0.8954039420004847,,,,,,sub-129,1,stroop_test,63.60209309418596,
,,,,62.0,2.0,5.0,,,,,,,,,,,,,blau,blue,b,1.0,b,1.0,0.582162215999233,,,,,,,,,,5.0,2.0,62.0,5.0,274.4663340550005,,,,,,,,,,,,,,,,,274.4549586359999,275.2479636429998,276.0455720780001,276.0323412360003,,,,,,,,,,,,,,,,,,,,,,,,,,,,,,,,,,,276.0366851509998,276.0455720780001,276.0455720780001,276.633975105,b,1.0,0.582162215999233,,,,,,sub-129,1,stroop_test,63.60209309418596,
,,,,63.0,3.0,5.0,,,,,,,,,,,,,rot,yellow,g,0.0,g,1.0,0.5555262819998461,,,,,,,,,,5.0,3.0,63.0,3.0,276.6448893050001,,,,,,,,,,,,,,,,,276.63435732200014,277.43125080499976,278.2286711750003,278.2157010560004,,,,,,,,,,,,,,,,,,,,,,,,,,,,,,,,,,,278.21981950900044,278.2286711750003,278.2286711750003,278.7940596520002,g,1.0,0.5555262819998461,,,,,,sub-129,1,stroop_test,63.60209309418596,
,,,,64.0,4.0,5.0,,,,,,,,,,,,,blau,red,r,0.0,r,1.0,0.6351684009996461,,,,,,,,,,5.0,4.0,64.0,4.0,278.8046345900002,,,,,,,,,,,,,,,,,278.7945017330003,279.14069068500066,279.93831182900067,279.9260342540001,,,,,,,,,,,,,,,,,,,,,,,,,,,,,,,,,,,279.9302620369999,279.93831182900067,279.93831182900067,280.577048438,r,1.0,0.6351684009996461,,,,,,sub-129,1,stroop_test,63.60209309418596,
,,,,65.0,5.0,5.0,,,,,,,,,,,,,gelb,yellow,g,1.0,g,1.0,0.9270045029998072,,,,,,,,,,5.0,5.0,65.0,11.0,280.587698755,,,,,,,,,,,,,,,,,280.5775033400005,281.3741506759998,282.1713320250001,282.15898058699986,,,,,,,,,,,,,,,,,,,,,,,,,,,,,,,,,,,282.16335170300044,282.1713320250001,282.1713320250001,283.11150445300063,g,1.0,0.9270045029998072,,,,,,sub-129,1,stroop_test,63.60209309418596,
,,,,66.0,6.0,5.0,,,,,,,,,,,,,blau,blue,b,1.0,b,1.0,0.5216943919995174,,,,,,,,,,5.0,6.0,66.0,6.0,283.1241938410003,,,,,,,,,,,,,,,,,283.11211991600067,284.3073935880002,285.1046322330003,285.09236439400047,,,,,,,,,,,,,,,,,,,,,,,,,,,,,,,,,,,285.09662386699983,285.1046322330003,285.1046322330003,285.6374616379999,b,1.0,0.5216943919995174,,,,,,sub-129,1,stroop_test,63.60209309418596,
,,,,67.0,7.0,5.0,,,,,,,,,,,,,blau,yellow,g,0.0,g,1.0,0.600033503999839,,,,,,,,,,5.0,7.0,67.0,7.0,285.649385234,,,,,,,,,,,,,,,,,285.6381528410002,286.4314731960003,287.2269974660003,287.2156244100006,,,,,,,,,,,,,,,,,,,,,,,,,,,,,,,,,,,287.21644873700006,287.2269974660003,287.2269974660003,287.8373204970003,g,1.0,0.600033503999839,,,,,,sub-129,1,stroop_test,63.60209309418596,
,,,,68.0,8.0,5.0,,,,,,,,,,,,,gelb,yellow,g,1.0,g,1.0,0.549402568000005,,,,,,,,,,5.0,8.0,68.0,10.0,287.8480851780005,,,,,,,,,,,,,,,,,287.8377955800006,287.9315994010003,288.7303077730003,288.716138455,,,,,,,,,,,,,,,,,,,,,,,,,,,,,,,,,,,288.7206338679998,288.7303077730003,288.7303077730003,289.29575305900016,g,1.0,0.549402568000005,,,,,,sub-129,1,stroop_test,63.60209309418596,
,,,,69.0,9.0,5.0,,,,,,,,,,,,,rot,red,r,1.0,r,1.0,0.8445224289998805,,,,,,,,,,5.0,9.0,69.0,0.0,289.3079273980002,,,,,,,,,,,,,,,,,289.29620249800064,289.392223373,290.1961773869998,290.179441452,,,,,,,,,,,,,,,,,,,,,,,,,,,,,,,,,,,290.18455300700043,290.1961773869998,290.1961773869998,291.0492469660003,r,1.0,0.8445224289998805,,,,,,sub-129,1,stroop_test,63.60209309418596,
,,,,70.0,10.0,5.0,,,,,,,,,,,,,rot,red,r,1.0,r,1.0,0.3796160890005922,,,,,,,,,,5.0,10.0,70.0,1.0,291.0613012240001,,,,,,,,,,,,,,,,,291.0496845200005,291.39888185900054,292.2010575840004,292.1913906310001,,,,,,,,,,,,,,,,,,,,,,,,,,,,,,,,,,,292.1921853499998,292.2010575840004,292.2010575840004,292.5867732430006,r,1.0,0.3796160890005922,,,,,,sub-129,1,stroop_test,63.60209309418596,
,,,,71.0,11.0,5.0,,,,,,,,,,,,,gelb,blue,b,0.0,b,1.0,0.8224969869997949,,,,,,,,,,5.0,11.0,71.0,9.0,292.597361006,,,,,,,,,,,,,,,,,292.58719605999977,292.6831427779998,293.4872532460004,293.4745085579998,,,,,,,,,,,,,,,,,,,,,,,,,,,,,,,,,,,293.4790398969999,293.4872532460004,293.4872532460004,294.3246105190001,b,1.0,0.8224969869997949,,,,,,sub-129,1,stroop_test,63.60209309418596,
,,,,72.0,0.0,6.0,,,,,,,,,,,,,rot,blue,b,0.0,b,1.0,0.4853943190000791,,,,,,,,,,6.0,0.0,72.0,2.0,294.3335701010001,,,,,,,,,,,,,,,,,294.3251703719998,294.4244800639999,295.22977422700023,295.2146626069998,,,,,,,,,,,,,,,,,,,,,,,,,,,,,,,,,,,295.21910482900057,295.22977422700023,295.22977422700023,295.7280796410005,b,1.0,0.4853943190000791,,,,,,sub-129,1,stroop_test,63.60209309418596,
,,,,73.0,1.0,6.0,,,,,,,,,,,,,blau,blue,b,1.0,b,1.0,0.4282200760007981,,,,,,,,,,6.0,1.0,73.0,5.0,295.74008139499983,,,,,,,,,,,,,,,,,295.7286889120005,295.83003297899995,296.64033973700043,296.6263261570002,,,,,,,,,,,,,,,,,,,,,,,,,,,,,,,,,,,296.6306174450001,296.64033973700043,296.64033973700043,297.0774155630006,b,1.0,0.4282200760007981,,,,,,sub-129,1,stroop_test,63.60209309418596,
,,,,74.0,2.0,6.0,,,,,,,,,,,,,gelb,yellow,g,1.0,g,1.0,0.6718494970000393,,,,,,,,,,6.0,2.0,74.0,10.0,297.08876251899983,,,,,,,,,,,,,,,,,297.0778558680004,297.8739643580002,298.67044497700044,298.6579785069998,,,,,,,,,,,,,,,,,,,,,,,,,,,,,,,,,,,298.6624953950004,298.67044497700044,298.67044497700044,299.3487107609999,g,1.0,0.6718494970000393,,,,,,sub-129,1,stroop_test,63.60209309418596,
,,,,75.0,3.0,6.0,,,,,,,,,,,,,gelb,blue,b,0.0,b,1.0,0.446235317999708,,,,,,,,,,6.0,3.0,75.0,9.0,299.37387196500003,,,,,,,,,,,,,,,,,299.34916075100045,299.69952616200044,300.496004009,300.4845916989998,,,,,,,,,,,,,,,,,,,,,,,,,,,,,,,,,,,300.4854161789999,300.496004009,300.496004009,300.948895042,b,1.0,0.446235317999708,,,,,,sub-129,1,stroop_test,63.60209309418596,
,,,,76.0,4.0,6.0,,,,,,,,,,,,,rot,red,r,1.0,r,1.0,0.5551566329995694,,,,,,,,,,6.0,4.0,76.0,1.0,300.96102841300035,,,,,,,,,,,,,,,,,300.9493605970001,301.7468832909999,302.54990949500007,302.53488630799984,,,,,,,,,,,,,,,,,,,,,,,,,,,,,,,,,,,302.53969866700027,302.54990949500007,302.54990949500007,303.110888315,r,1.0,0.5551566329995694,,,,,,sub-129,1,stroop_test,63.60209309418596,
,,,,77.0,5.0,6.0,,,,,,,,,,,,,gelb,red,r,0.0,r,1.0,0.537173298000198,,,,,,,,,,6.0,5.0,77.0,8.0,303.1223525780006,,,,,,,,,,,,,,,,,303.11133330400025,304.30730033800046,305.10388338900066,305.0911038490003,,,,,,,,,,,,,,,,,,,,,,,,,,,,,,,,,,,305.0957607629998,305.10388338900066,305.10388338900066,305.64386558500064,r,1.0,0.537173298000198,,,,,,sub-129,1,stroop_test,63.60209309418596,
,,,,78.0,6.0,6.0,,,,,,,,,,,,,rot,yellow,g,0.0,g,1.0,0.4271019400002842,,,,,,,,,,6.0,6.0,78.0,3.0,305.65512677900006,,,,,,,,,,,,,,,,,305.64439939800013,306.8402964380002,307.63828218900017,307.6255779379999,,,,,,,,,,,,,,,,,,,,,,,,,,,,,,,,,,,307.63001840200013,307.63828218900017,307.63828218900017,308.0765879119999,g,1.0,0.4271019400002842,,,,,,sub-129,1,stroop_test,63.60209309418596,
,,,,79.0,7.0,6.0,,,,,,,,,,,,,gelb,yellow,g,1.0,g,1.0,0.4172719710004458,,,,,,,,,,6.0,7.0,79.0,11.0,308.08808323999983,,,,,,,,,,,,,,,,,308.07715535900024,308.8740391749998,309.669072699,309.65769520200047,,,,,,,,,,,,,,,,,,,,,,,,,,,,,,,,,,,309.6609336470001,309.669072699,309.669072699,310.09856064999985,g,1.0,0.4172719710004458,,,,,,sub-129,1,stroop_test,63.60209309418596,
,,,,80.0,8.0,6.0,,,,,,,,,,,,,blau,yellow,g,0.0,g,1.0,0.4563953619999665,,,,,,,,,,6.0,8.0,80.0,7.0,310.1101670240005,,,,,,,,,,,,,,,,,310.09899870000027,310.8978801640005,311.69398098000056,311.6813413810005,,,,,,,,,,,,,,,,,,,,,,,,,,,,,,,,,,,311.6842940329998,311.69398098000056,311.69398098000056,312.1581093949999,g,1.0,0.4563953619999665,,,,,,sub-129,1,stroop_test,63.60209309418596,
,,,,81.0,9.0,6.0,,,,,,,,,,,,,blau,blue,b,1.0,b,1.0,0.5217869299995073,,,,,,,,,,6.0,9.0,81.0,6.0,312.1668457269998,,,,,,,,,,,,,,,,,312.1585086969999,312.2562605550001,313.0477217110001,313.04016064000007,,,,,,,,,,,,,,,,,,,,,,,,,,,,,,,,,,,313.0406940290004,313.0477217110001,313.0477217110001,313.5755687820001,b,1.0,0.5217869299995073,,,,,,sub-129,1,stroop_test,63.60209309418596,
,,,,82.0,10.0,6.0,,,,,,,,,,,,,blau,red,r,0.0,r,1.0,0.5350008320001507,,,,,,,,,,6.0,10.0,82.0,4.0,313.58499998299976,,,,,,,,,,,,,,,,,313.575976053,313.9234168359999,314.71692082000027,314.707612878,,,,,,,,,,,,,,,,,,,,,,,,,,,,,,,,,,,314.708391014,314.71692082000027,314.71692082000027,315.2643383000004,r,1.0,0.5350008320001507,,,,,,sub-129,1,stroop_test,63.60209309418596,
,,,,83.0,11.0,6.0,,,,,,,,,,,,,rot,red,r,1.0,r,1.0,0.4361248639997939,,,,,,,,,,6.0,11.0,83.0,0.0,315.2747338070003,,,,,,,,,,,,,,,,,315.26477882900053,315.37382815599995,316.17710856099984,316.1623925570002,,,,,,,,,,,,,,,,,,,,,,,,,,,,,,,,,,,316.1665462970004,316.17710856099984,316.17710856099984,316.61646297100015,r,1.0,0.4361248639997939,,,,,,sub-129,1,stroop_test,63.60209309418596,
,,,,84.0,0.0,7.0,,,,,,,,,,,,,rot,blue,b,0.0,b,1.0,0.5348487470000691,,,,,,,,,,7.0,0.0,84.0,2.0,316.62935803800065,,,,,,,,,,,,,,,,,316.61724755400064,317.4145165760001,318.2101695020001,318.1987930340001,,,,,,,,,,,,,,,,,,,,,,,,,,,,,,,,,,,318.1995966860004,318.2101695020001,318.2101695020001,318.7598840770006,b,1.0,0.5348487470000691,,,,,,sub-129,1,stroop_test,63.60209309418596,
,,,,85.0,1.0,7.0,,,,,,,,,,,,,blau,yellow,g,0.0,g,1.0,0.7346711089994642,,,,,,,,,,7.0,1.0,85.0,7.0,318.7708365280005,,,,,,,,,,,,,,,,,318.7603190740001,318.8670092580005,319.66441741900053,319.65055009299977,,,,,,,,,,,,,,,,,,,,,,,,,,,,,,,,,,,319.65412732500045,319.66441741900053,319.66441741900053,320.40917115400043,g,1.0,0.7346711089994642,,,,,,sub-129,1,stroop_test,63.60209309418596,
,,,,86.0,2.0,7.0,,,,,,,,,,,,,blau,red,r,0.0,r,1.0,0.638582456000222,,,,,,,,,,7.0,2.0,86.0,4.0,320.4194996410006,,,,,,,,,,,,,,,,,320.4095766700002,321.2063354460006,322.0002646540006,321.9909421800003,,,,,,,,,,,,,,,,,,,,,,,,,,,,,,,,,,,321.9917295229998,322.0002646540006,322.0002646540006,322.644238201,r,1.0,0.638582456000222,,,,,,sub-129,1,stroop_test,63.60209309418596,
,,,,87.0,3.0,7.0,,,,,,,,,,,,,blau,blue,b,1.0,b,1.0,0.5622813410000163,,,,,,,,,,7.0,3.0,87.0,6.0,322.6552907519999,,,,,,,,,,,,,,,,,322.64467536400025,323.4404690700003,324.23263738900005,324.2241209600006,,,,,,,,,,,,,,,,,,,,,,,,,,,,,,,,,,,324.2246940490004,324.23263738900005,324.23263738900005,324.8099485009998,b,1.0,0.5622813410000163,,,,,,sub-129,1,stroop_test,63.60209309418596,
,,,,88.0,4.0,7.0,,,,,,,,,,,,,rot,red,r,1.0,r,1.0,0.4814158869994571,,,,,,,,,,7.0,4.0,88.0,1.0,324.8219722640006,,,,,,,,,,,,,,,,,324.81056676800017,326.00621280700034,326.8036111450001,326.79070804300045,,,,,,,,,,,,,,,,,,,,,,,,,,,,,,,,,,,326.7955870450005,326.8036111450001,326.8036111450001,327.29395944800035,r,1.0,0.4814158869994571,,,,,,sub-129,1,stroop_test,63.60209309418596,
,,,,89.0,5.0,7.0,,,,,,,,,,,,,gelb,yellow,g,1.0,g,1.0,0.8049086070004705,,,,,,,,,,7.0,5.0,89.0,10.0,327.3044986760005,,,,,,,,,,,,,,,,,327.29436889000044,328.0899955599998,328.8874688400001,328.87495830199987,,,,,,,,,,,,,,,,,,,,,,,,,,,,,,,,,,,328.8791212390006,328.8874688400001,328.8874688400001,329.70392034999986,g,1.0,0.8049086070004705,,,,,,sub-129,1,stroop_test,63.60209309418596,
,,,,90.0,6.0,7.0,,,,,,,,,,,,,rot,yellow,g,0.0,g,1.0,0.4824380419995577,,,,,,,,,,7.0,6.0,90.0,3.0,329.71537285500017,,,,,,,,,,,,,,,,,329.70442082200043,329.8074970080006,330.61071858800005,330.59540378900056,,,,,,,,,,,,,,,,,,,,,,,,,,,,,,,,,,,330.5998540460005,330.61071858800005,330.61071858800005,331.1038390849999,g,1.0,0.4824380419995577,,,,,,sub-129,1,stroop_test,63.60209309418596,
,,,,91.0,7.0,7.0,,,,,,,,,,,,,gelb,yellow,g,1.0,g,1.0,0.4519321849993503,,,,,,,,,,7.0,7.0,91.0,11.0,331.1155119639998,,,,,,,,,,,,,,,,,331.10429404800016,331.1958309920001,331.99615764400005,331.9825711580006,,,,,,,,,,,,,,,,,,,,,,,,,,,,,,,,,,,331.9870210580002,331.99615764400005,331.99615764400005,332.45115192200046,g,1.0,0.4519321849993503,,,,,,sub-129,1,stroop_test,63.60209309418596,
,,,,92.0,8.0,7.0,,,,,,,,,,,,,rot,red,r,1.0,r,1.0,0.4682162139997672,,,,,,,,,,7.0,8.0,92.0,0.0,332.4618586080005,,,,,,,,,,,,,,,,,332.4516241580004,332.5464775190003,333.34619224700054,333.3327652710004,,,,,,,,,,,,,,,,,,,,,,,,,,,,,,,,,,,333.33722848100024,333.34619224700054,333.34619224700054,333.82738717900065,r,1.0,0.4682162139997672,,,,,,sub-129,1,stroop_test,63.60209309418596,
,,,,93.0,9.0,7.0,,,,,,,,,,,,,blau,blue,b,1.0,b,1.0,0.4197785359992849,,,,,,,,,,7.0,9.0,93.0,5.0,333.84047358299995,,,,,,,,,,,,,,,,,333.828012684,333.923726301,334.7244132830001,334.7081464029998,,,,,,,,,,,,,,,,,,,,,,,,,,,,,,,,,,,334.7126651560002,334.7244132830001,334.7244132830001,335.14895304400034,b,1.0,0.4197785359992849,,,,,,sub-129,1,stroop_test,63.60209309418596,
,,,,94.0,10.0,7.0,,,,,,,,,,,,,gelb,red,r,0.0,r,1.0,0.6958819060000678,,,,,,,,,,7.0,10.0,94.0,8.0,335.1612064870005,,,,,,,,,,,,,,,,,335.1493963749999,335.4940099000005,336.2958561659998,336.2830000969998,,,,,,,,,,,,,,,,,,,,,,,,,,,,,,,,,,,336.2863323210004,336.2958561659998,336.2958561659998,336.99838724500023,r,1.0,0.6958819060000678,,,,,,sub-129,1,stroop_test,63.60209309418596,
,,,,95.0,11.0,7.0,,,,,,,,,,,,,gelb,blue,b,0.0,b,1.0,0.6018619400001626,,,,,,,,,,7.0,11.0,95.0,9.0,337.01086301800024,,,,,,,,,,,,,,,,,336.998994521,337.34747000900006,338.15030087800005,338.14067855900066,,,,,,,,,,,,,,,,,,,,,,,,,,,,,,,,,,,338.1414507620002,338.15030087800005,338.15030087800005,338.7636903769999,b,1.0,0.6018619400001626,,,,,,sub-129,1,stroop_test,63.60209309418596,
,,,,96.0,0.0,8.0,,,,,,,,,,,,,rot,blue,b,0.0,b,1.0,0.5052430260002438,,,,,,,,,,8.0,0.0,96.0,2.0,338.773484673,,,,,,,,,,,,,,,,,338.7641394990005,339.55641261100027,340.3541209370005,340.3408085660003,,,,,,,,,,,,,,,,,,,,,,,,,,,,,,,,,,,340.3458247130002,340.3541209370005,340.3541209370005,340.863617514,b,1.0,0.5052430260002438,,,,,,sub-129,1,stroop_test,63.60209309418596,
,,,,97.0,1.0,8.0,,,,,,,,,,,,,gelb,blue,b,0.0,b,1.0,0.4422983750000639,,,,,,,,,,8.0,1.0,97.0,9.0,340.87412598599985,,,,,,,,,,,,,,,,,340.8640566490003,341.6566131870004,342.4545899680006,342.4418239309998,,,,,,,,,,,,,,,,,,,,,,,,,,,,,,,,,,,342.4462750210005,342.4545899680006,342.4545899680006,342.9032978290006,b,1.0,0.4422983750000639,,,,,,sub-129,1,stroop_test,63.60209309418596,
,,,,98.0,2.0,8.0,,,,,,,,,,,,,rot,red,r,1.0,r,1.0,0.6857741550002174,,,,,,,,,,8.0,2.0,98.0,0.0,342.9155423000002,,,,,,,,,,,,,,,,,342.9039247970004,343.007417457,343.80742318600005,343.7950008100006,,,,,,,,,,,,,,,,,,,,,,,,,,,,,,,,,,,343.79823213000054,343.80742318600005,343.80742318600005,344.5019553640004,r,1.0,0.6857741550002174,,,,,,sub-129,1,stroop_test,63.60209309418596,
,,,,99.0,3.0,8.0,,,,,,,,,,,,,blau,yellow,g,0.0,g,1.0,0.506818619999649,,,,,,,,,,8.0,3.0,99.0,7.0,344.5141483900006,,,,,,,,,,,,,,,,,344.5024188309999,344.6239590559999,345.4286559100001,345.4125427549998,,,,,,,,,,,,,,,,,,,,,,,,,,,,,,,,,,,345.4170437900002,345.4286559100001,345.4286559100001,345.94386136899993,g,1.0,0.506818619999649,,,,,,sub-129,1,stroop_test,63.60209309418596,
,,,,100.0,4.0,8.0,,,,,,,,,,,,,gelb,yellow,g,1.0,g,1.0,0.6211502389996895,,,,,,,,,,8.0,4.0,100.0,10.0,345.956318736,,,,,,,,,,,,,,,,,345.9444596029998,347.13972368299983,347.9373916250006,347.9250833619999,,,,,,,,,,,,,,,,,,,,,,,,,,,,,,,,,,,347.92940015100066,347.9373916250006,347.9373916250006,348.574321092,g,1.0,0.6211502389996895,,,,,,sub-129,1,stroop_test,63.60209309418596,
,,,,101.0,5.0,8.0,,,,,,,,,,,,,gelb,yellow,g,1.0,g,1.0,0.5208627629999683,,,,,,,,,,8.0,5.0,101.0,11.0,348.5831979610002,,,,,,,,,,,,,,,,,348.5747798709999,348.6667937829998,349.4673101190001,349.4580850580005,,,,,,,,,,,,,,,,,,,,,,,,,,,,,,,,,,,349.4588724770001,349.4673101190001,349.4673101190001,350.0083517660005,g,1.0,0.5208627629999683,,,,,,sub-129,1,stroop_test,63.60209309418596,
,,,,102.0,6.0,8.0,,,,,,,,,,,,,rot,yellow,g,0.0,g,1.0,0.5170311910005694,,,,,,,,,,8.0,6.0,102.0,3.0,350.02393971400033,,,,,,,,,,,,,,,,,350.0087964430004,350.8063070620001,351.6041313860005,351.59091646199977,,,,,,,,,,,,,,,,,,,,,,,,,,,,,,,,,,,351.595177958,351.6041313860005,351.6041313860005,352.1266418040004,g,1.0,0.5170311910005694,,,,,,sub-129,1,stroop_test,63.60209309418596,
,,,,103.0,7.0,8.0,,,,,,,,,,,,,blau,blue,b,1.0,b,1.0,0.4197638309997273,,,,,,,,,,8.0,7.0,103.0,5.0,352.13765431699994,,,,,,,,,,,,,,,,,352.12708210599976,352.22850934300004,353.0327151219999,353.0175770730002,,,,,,,,,,,,,,,,,,,,,,,,,,,,,,,,,,,353.0223426500006,353.0327151219999,353.0327151219999,353.4597277009998,b,1.0,0.4197638309997273,,,,,,sub-129,1,stroop_test,63.60209309418596,
,,,,104.0,8.0,8.0,,,,,,,,,,,,,rot,red,r,1.0,r,1.0,0.5141325989998222,,,,,,,,,,8.0,8.0,104.0,1.0,353.47112988500066,,,,,,,,,,,,,,,,,353.46016082000006,354.65766710299977,355.45665615100006,355.4418553400001,,,,,,,,,,,,,,,,,,,,,,,,,,,,,,,,,,,355.44669578699995,355.45665615100006,355.45665615100006,355.976577554,r,1.0,0.5141325989998222,,,,,,sub-129,1,stroop_test,63.60209309418596,
,,,,105.0,9.0,8.0,,,,,,,,,,,,,gelb,red,r,0.0,r,1.0,0.4552971200000684,,,,,,,,,,8.0,9.0,105.0,8.0,355.9876389560004,,,,,,,,,,,,,,,,,355.97703279800044,356.0901737840004,356.888336039,356.8745026890001,,,,,,,,,,,,,,,,,,,,,,,,,,,,,,,,,,,356.8790061110003,356.888336039,356.888336039,357.353974785,r,1.0,0.4552971200000684,,,,,,sub-129,1,stroop_test,63.60209309418596,
,,,,106.0,10.0,8.0,,,,,,,,,,,,,blau,red,r,0.0,r,1.0,0.5143235810000988,,,,,,,,,,8.0,10.0,106.0,4.0,357.36676413199984,,,,,,,,,,,,,,,,,357.3546874620006,357.7079833610005,358.5063311969998,358.49176124600035,,,,,,,,,,,,,,,,,,,,,,,,,,,,,,,,,,,358.4963028050006,358.5063311969998,358.5063311969998,359.0324090559998,r,1.0,0.5143235810000988,,,,,,sub-129,1,stroop_test,63.60209309418596,
,,,,107.0,11.0,8.0,,,,,,,,,,,,,blau,blue,b,1.0,b,1.0,0.6949107469999944,,,,,,,,,,8.0,11.0,107.0,6.0,359.04497587100013,,,,,,,,,,,,,,,,,359.0330038350003,359.1360524540005,359.95693864199984,359.9305222110006,,,,,,,,,,,,,,,,,,,,,,,,,,,,,,,,,,,359.9313470500001,359.95693864199984,359.95693864199984,360.66027328400014,b,1.0,0.6949107469999944,,,,,,sub-129,1,stroop_test,63.60209309418596,
,,,,108.0,0.0,9.0,,,,,,,,,,,,,blau,blue,b,1.0,b,1.0,0.4341765680001117,,,,,,,,,,9.0,0.0,108.0,6.0,360.6729375499999,,,,,,,,,,,,,,,,,360.6608689710001,361.4562965960004,362.2505524190001,362.2410110999999,,,,,,,,,,,,,,,,,,,,,,,,,,,,,,,,,,,362.2417789870005,362.2505524190001,362.2505524190001,362.69339346500055,b,1.0,0.4341765680001117,,,,,,sub-129,1,stroop_test,63.60209309418596,
,,,,109.0,1.0,9.0,,,,,,,,,,,,,gelb,yellow,g,1.0,g,1.0,0.8685671390003336,,,,,,,,,,9.0,1.0,109.0,10.0,362.7056482580001,,,,,,,,,,,,,,,,,362.6939926240002,363.03955502200006,363.83696285299993,363.8241733860005,,,,,,,,,,,,,,,,,,,,,,,,,,,,,,,,,,,363.8286587720004,363.83696285299993,363.83696285299993,364.7132665250001,g,1.0,0.8685671390003336,,,,,,sub-129,1,stroop_test,63.60209309418596,
,,,,110.0,2.0,9.0,,,,,,,,,,,,,gelb,blue,b,0.0,b,1.0,0.7770942789993569,,,,,,,,,,9.0,2.0,110.0,9.0,364.7234023910005,,,,,,,,,,,,,,,,,364.71370902800027,365.5063340220004,366.2999949109999,366.2904463550003,,,,,,,,,,,,,,,,,,,,,,,,,,,,,,,,,,,366.291232007,366.2999949109999,366.2999949109999,367.0863946039999,b,1.0,0.7770942789993569,,,,,,sub-129,1,stroop_test,63.60209309418596,
,,,,111.0,3.0,9.0,,,,,,,,,,,,,blau,blue,b,1.0,b,1.0,0.3870222850000573,,,,,,,,,,9.0,3.0,111.0,5.0,367.098766262,,,,,,,,,,,,,,,,,367.0870069299999,368.2804045880002,369.07849798000007,369.0648222340005,,,,,,,,,,,,,,,,,,,,,,,,,,,,,,,,,,,369.06920540900046,369.07849798000007,369.07849798000007,369.47638179600017,b,1.0,0.3870222850000573,,,,,,sub-129,1,stroop_test,63.60209309418596,
,,,,112.0,4.0,9.0,,,,,,,,,,,,,rot,red,r,1.0,r,1.0,0.9099459340004614,,,,,,,,,,9.0,4.0,112.0,1.0,369.4890620900005,,,,,,,,,,,,,,,,,369.4769733390003,369.8228516099998,370.6194298110004,370.6074575009998,,,,,,,,,,,,,,,,,,,,,,,,,,,,,,,,,,,370.611767673,370.6194298110004,370.6194298110004,371.53639515899977,r,1.0,0.9099459340004614,,,,,,sub-129,1,stroop_test,63.60209309418596,
,,,,113.0,5.0,9.0,,,,,,,,,,,,,rot,blue,b,0.0,b,1.0,0.8481586280004194,,,,,,,,,,9.0,5.0,113.0,2.0,371.548031755,,,,,,,,,,,,,,,,,371.5368371029999,372.73258386,373.5290131820002,373.5173103269999,,,,,,,,,,,,,,,,,,,,,,,,,,,,,,,,,,,373.5181171640006,373.5290131820002,373.5290131820002,374.3866715160002,b,1.0,0.8481586280004194,,,,,,sub-129,1,stroop_test,63.60209309418596,
,,,,114.0,6.0,9.0,,,,,,,,,,,,,blau,yellow,g,0.0,g,1.0,0.6887139039999965,,,,,,,,,,9.0,6.0,114.0,7.0,374.3986121150001,,,,,,,,,,,,,,,,,374.3871137980004,375.1805469640003,375.9795862010005,375.96534690499993,,,,,,,,,,,,,,,,,,,,,,,,,,,,,,,,,,,375.97043109900005,375.9795862010005,375.9795862010005,376.67148670000006,g,1.0,0.6887139039999965,,,,,,sub-129,1,stroop_test,63.60209309418596,
,,,,115.0,7.0,9.0,,,,,,,,,,,,,rot,yellow,g,0.0,g,1.0,0.6206566089995249,,,,,,,,,,9.0,7.0,115.0,3.0,376.6837693349999,,,,,,,,,,,,,,,,,376.6721100060004,376.7648789169998,377.5676015859999,377.5565568490001,,,,,,,,,,,,,,,,,,,,,,,,,,,,,,,,,,,377.559507727,377.5676015859999,377.5676015859999,378.1932105340002,g,1.0,0.6206566089995249,,,,,,sub-129,1,stroop_test,63.60209309418596,
,,,,116.0,8.0,9.0,,,,,,,,,,,,,gelb,yellow,g,1.0,g,1.0,0.4848331509992931,,,,,,,,,,9.0,8.0,116.0,11.0,378.2041346350006,,,,,,,,,,,,,,,,,378.19364766200033,379.3891414460004,380.186322304,380.1734818060004,,,,,,,,,,,,,,,,,,,,,,,,,,,,,,,,,,,380.17800205,380.186322304,380.186322304,380.674922616,g,1.0,0.4848331509992931,,,,,,sub-129,1,stroop_test,63.60209309418596,
,,,,117.0,9.0,9.0,,,,,,,,,,,,,rot,red,r,1.0,r,1.0,0.5480719580000368,,,,,,,,,,9.0,9.0,117.0,0.0,380.6845471340002,,,,,,,,,,,,,,,,,380.6753291960004,381.8725309500005,382.6690441990004,382.6568918070007,,,,,,,,,,,,,,,,,,,,,,,,,,,,,,,,,,,382.6611246930006,382.6690441990004,382.6690441990004,383.22581875500055,r,1.0,0.5480719580000368,,,,,,sub-129,1,stroop_test,63.60209309418596,
,,,,118.0,10.0,9.0,,,,,,,,,,,,,blau,red,r,0.0,r,1.0,0.6709762319997026,,,,,,,,,,9.0,10.0,118.0,4.0,383.2366699210006,,,,,,,,,,,,,,,,,383.2262556559999,384.0227380080005,384.8193668550002,384.806769971,,,,,,,,,,,,,,,,,,,,,,,,,,,,,,,,,,,384.8112807570005,384.8193668550002,384.8193668550002,385.5079336380004,r,1.0,0.6709762319997026,,,,,,sub-129,1,stroop_test,63.60209309418596,
,,,,119.0,11.0,9.0,,,,,,,,,,,,,gelb,red,r,0.0,r,1.0,0.422649592000198,,,,,,,,,,9.0,11.0,119.0,8.0,385.5238330130005,,,,,,,,,,,,,,,,,385.50834001900057,386.705914444,387.5004057830001,387.48932760800017,,,,,,,,,,,,,,,,,,,,,,,,,,,,,,,,,,,387.4926441710004,387.5004057830001,387.5004057830001,387.9418612480004,r,1.0,0.422649592000198,,,,,,sub-129,1,stroop_test,63.60209309418596,
,,,,,,,,,,,,,,,,,,,,,,,,,,,,,,,,,,,,,,,,,,,,,,,,,,,,,,,,,,,,,,,,,,,,,,,,,,,,,,,,,,,,,,,,,,,,,,,,,,,,,,387.9421642120005,387.9546449310001,392.9489315190003,392.9413663969999,sub-129,1,stroop_test,63.60209309418596,
