wordCTK,colorCTK,corrAnsCTK,congruentCTK,thisN,thisTrialN,thisRepN,keyResp_CTK.keys,keyResp_CTK.corr,keyResp_CTK.rt,keyResp_CTK.duration,wordPractice,colorPractice,corrAnsPractice,congruentPractice,respPractice.keys,respPractice.corr,respPractice.rt,respPractice.duration,word,color,corrAns,congruent,keyResp_test_run.keys,keyResp_test_run.corr,keyResp_test_run.rt,keyResp_test_run.duration,trials_CTK.thisRepN,trials_CTK.thisTrialN,trials_CTK.thisN,trials_CTK.thisIndex,trials_practice.thisRepN,trials_practice.thisTrialN,trials_practice.thisN,trials_practice.thisIndex,trials_test.thisRepN,trials_test.thisTrialN,trials_test.thisN,trials_test.thisIndex,thisRow.t,notes,instruction.started,instr_text.started,instr_image.started,instr_resp.started,instruction.stopped,instr_resp.keys,instr_resp.rt,instr_resp.duration,instr_color_to_key.started,instr_ctk.started,resp_ctk.started,instr_color_to_key.stopped,resp_ctk.keys,resp_ctk.rt,resp_ctk.duration,ITI.started,fixcross.started,fixcross.stopped,ITI.stopped,color_to_key_run.started,stimulus_CTK.started,keyResp_CTK.started,color_to_key_run.stopped,trials_CTK.keyResp_CTK.keys,trials_CTK.keyResp_CTK.corr,trials_CTK.keyResp_CTK.rt,trials_CTK.keyResp_CTK.duration,instr_practice.started,instr_practice_text.started,instr_practice_resp.started,instr_practice.stopped,instr_practice_resp.keys,instr_practice_resp.rt,instr_practice_resp.duration,practice_run.started,stimulus_practice.started,respPractice.started,practice_run.stopped,trials_practice.respPractice.keys,trials_practice.respPractice.corr,trials_practice.respPractice.rt,trials_practice.respPractice.duration,feedback.started,textFeedback.started,feedback.stopped,textFeedback.stopped,instr_test.started,instr_test_text.started,instr_test_resp.started,instr_test.stopped,instr_test_resp.keys,instr_test_resp.rt,instr_test_resp.duration,test_run.started,stimulus_test_run.started,keyResp_test_run.started,test_run.stopped,trials_test.keyResp_test_run.keys,trials_test.keyResp_test_run.corr,trials_test.keyResp_test_run.rt,trials_test.keyResp_test_run.duration,goodbye.started,textGoodbye.started,goodbye.stopped,participant,session,expName,frameRate,Unnamed: 112
,,,,,,,,,,,,,,,,,,,,,,,,,,,,,,,,,,,,,,,,,0.0121663720000242,0.0446394550000377,0.0446394550000377,0.0446394550000377,29.00411933199996,space,28.93486831100006,,,,,,,,,,,,,,,,,,,,,,,,,,,,,,,,,,,,,,,,,,,,,,,,,,,,,,,,,,sub-136,1,stroop_test,64.71286281528661,
,,,,,,,,,,,,,,,,,,,,,,,,,,,,,,,,,,,,,,,,,,,,,,,,,29.004182421,29.022975299999985,29.022975299999985,33.67828929999996,space,4.643787520000046,,,,,,,,,,,,,,,,,,,,,,,,,,,,,,,,,,,,,,,,,,,,,,,,,,,sub-136,1,stroop_test,64.71286281528661,
test,blue,b,1.0,0.0,0.0,0.0,b,1.0,2.3585967250000976,,,,,,,,,,,,,,,,,,0.0,0.0,0.0,2.0,,,,,,,,,33.72815290599999,,,,,,,,,,,,,,,,,33.71798976000002,34.48653372199999,35.29246366099994,35.27604972500001,35.280896299000005,35.29246366099994,35.29246366099994,37.655136974000015,b,1.0,2.3585967250000976,,,,,,,,,,,,,,,,,,,,,,,,,,,,,,,,,,,,,,,sub-136,1,stroop_test,64.71286281528661,
test,red,r,1.0,1.0,1.0,0.0,r,1.0,2.2115030460000757,,,,,,,,,,,,,,,,,,0.0,1.0,1.0,0.0,,,,,,,,,37.665484840999966,,,,,,,,,,,,,,,,,37.65542949999997,38.45507677399996,39.25316965000002,39.23955068600003,39.24010535599996,39.25316965000002,39.25316965000002,41.47776140099995,r,1.0,2.2115030460000757,,,,,,,,,,,,,,,,,,,,,,,,,,,,,,,,,,,,,,,sub-136,1,stroop_test,64.71286281528661,
test,yellow,g,1.0,2.0,2.0,0.0,g,1.0,1.3476324700000075,,,,,,,,,,,,,,,,,,0.0,2.0,2.0,1.0,,,,,,,,,41.48827896599994,,,,,,,,,,,,,,,,,41.47806631000003,41.82821446699995,42.62515325899994,42.61308449800004,42.61355388300001,42.62515325899994,42.62515325899994,43.985957438000014,g,1.0,1.3476324700000075,,,,,,,,,,,,,,,,,,,,,,,,,,,,,,,,,,,,,,,sub-136,1,stroop_test,64.71286281528661,
test,red,r,1.0,3.0,0.0,1.0,r,1.0,1.2477189450000878,,,,,,,,,,,,,,,,,,1.0,0.0,3.0,0.0,,,,,,,,,43.99870895999993,,,,,,,,,,,,,,,,,43.98647789300003,44.78658333999999,45.586404036999966,45.57203137600004,45.57282937100001,45.586404036999966,45.586404036999966,46.839516871,r,1.0,1.2477189450000878,,,,,,,,,,,,,,,,,,,,,,,,,,,,,,,,,,,,,,,sub-136,1,stroop_test,64.71286281528661,
test,yellow,g,1.0,4.0,1.0,1.0,g,1.0,1.1750506089999817,,,,,,,,,,,,,,,,,,1.0,1.0,4.0,1.0,,,,,,,,,46.849986952,,,,,,,,,,,,,,,,,46.83981140100002,48.04594058099997,48.843940216999954,48.83215778099998,48.83379607799998,48.843940216999954,48.843940216999954,50.02311295499999,g,1.0,1.1750506089999817,,,,,,,,,,,,,,,,,,,,,,,,,,,,,,,,,,,,,,,sub-136,1,stroop_test,64.71286281528661,
test,blue,b,1.0,5.0,2.0,1.0,b,1.0,0.8654163070000322,,,,,,,,,,,,,,,,,,1.0,2.0,5.0,2.0,,,,,,,,,50.03342830400004,,,,,,,,,,,,,,,,,50.023405658,50.12177946899999,50.92998327199996,50.920330467999975,50.920875916,50.92998327199996,50.92998327199996,51.80113657100003,b,1.0,0.8654163070000322,,,,,,,,,,,,,,,,,,,,,,,,,,,,,,,,,,,,,,,sub-136,1,stroop_test,64.71286281528661,
test,blue,b,1.0,6.0,0.0,2.0,b,1.0,0.6251125559999764,,,,,,,,,,,,,,,,,,2.0,0.0,6.0,2.0,,,,,,,,,51.81228192699996,,,,,,,,,,,,,,,,,51.80153047600004,52.60001411899998,53.41118392999999,53.39546116099996,53.39589709400002,53.41118392999999,53.41118392999999,54.04113363499994,b,1.0,0.6251125559999764,,,,,,,,,,,,,,,,,,,,,,,,,,,,,,,,,,,,,,,sub-136,1,stroop_test,64.71286281528661,
test,red,r,1.0,7.0,1.0,2.0,r,1.0,2.099217875000022,,,,,,,,,,,,,,,,,,2.0,1.0,7.0,0.0,,,,,,,,,54.05459555599998,,,,,,,,,,,,,,,,,54.04142359000002,54.85138299100004,55.65299630100003,55.63910471600002,55.639649298999984,55.65299630100003,55.65299630100003,57.75854170399998,r,1.0,2.099217875000022,,,,,,,,,,,,,,,,,,,,,,,,,,,,,,,,,,,,,,,sub-136,1,stroop_test,64.71286281528661,
test,yellow,g,1.0,8.0,2.0,2.0,g,1.0,1.066831074999982,,,,,,,,,,,,,,,,,,2.0,2.0,8.0,1.0,,,,,,,,,57.769052633,,,,,,,,,,,,,,,,,57.75884045700002,58.11159172099997,58.907976161999954,58.89693458099998,58.89748093699996,58.907976161999954,58.907976161999954,59.982269481,g,1.0,1.066831074999982,,,,,,,,,,,,,,,,,,,,,,,,,,,,,,,,,,,,,,,sub-136,1,stroop_test,64.71286281528661,
test,blue,b,1.0,9.0,0.0,3.0,b,1.0,0.741272206000076,,,,,,,,,,,,,,,,,,3.0,0.0,9.0,2.0,,,,,,,,,59.99316214800001,,,,,,,,,,,,,,,,,59.98285345399995,61.18233527199993,61.980378223,61.97015924100003,61.97069727199994,61.980378223,61.980378223,62.73323301999994,b,1.0,0.741272206000076,,,,,,,,,,,,,,,,,,,,,,,,,,,,,,,,,,,,,,,sub-136,1,stroop_test,64.71286281528661,
test,yellow,g,1.0,10.0,1.0,3.0,g,1.0,1.0261892170000235,,,,,,,,,,,,,,,,,,3.0,1.0,10.0,1.0,,,,,,,,,62.74359281700004,,,,,,,,,,,,,,,,,62.733647700000006,63.537787701999946,64.342670323,64.33050795999998,64.33113995299993,64.342670323,64.342670323,65.37189699199996,g,1.0,1.0261892170000235,,,,,,,,,,,,,,,,,,,,,,,,,,,,,,,,,,,,,,,sub-136,1,stroop_test,64.71286281528661,
test,red,r,1.0,11.0,2.0,3.0,r,1.0,0.9839904369999886,,,,,,,,,,,,,,,,,,3.0,2.0,11.0,0.0,,,,,,,,,65.38217446199997,,,,,,,,,,,,,,,,,65.372188198,66.18458938499998,66.99138259400002,66.97920902399994,66.97967954199999,66.99138259400002,66.99138259400002,67.98863139299999,r,1.0,0.9839904369999886,,,,,,,,,,,,,,,,,,,,,,,,,,,,,,,,,,,,,,,sub-136,1,stroop_test,64.71286281528661,
,,,,,,,,,,,,,,,,,,,,,,,,,,,,,,,,,,,,,,,,,,,,,,,,,,,,,,,,,,,,,,,,,,,,67.98881179299997,68.00018731099999,68.00018731099999,72.530958865,space,4.525609840000016,,,,,,,,,,,,,,,,,,,,,,,,,,,,,,,,sub-136,1,stroop_test,64.71286281528661,
,,,,0.0,0.0,0.0,,,,,rot,yellow,g,0.0,g,1.0,1.4611882949999426,,,,,,,,,,,,,,0.0,0.0,0.0,3.0,,,,,72.55631577299994,,,,,,,,,,,,,,,,,72.54594243500003,73.75287477999996,74.55829996599994,74.54269588199998,,,,,,,,,,,,,,,,74.54684125300003,74.55829996599994,74.55829996599994,76.02315606799993,g,1.0,1.4611882949999426,,76.030346076,76.04321528499997,77.027871818,,,,,,,,,,,,,,,,,,,,sub-136,1,stroop_test,64.71286281528661,
,,,,1.0,1.0,0.0,,,,,rot,red,r,1.0,r,1.0,1.449273762999951,,,,,,,,,,,,,,0.0,1.0,1.0,0.0,,,,,77.03806627300003,,,,,,,,,,,,,,,,,77.02896301399994,77.82059115200002,78.63583812799993,78.61865879699997,,,,,,,,,,,,,,,,78.61920368699998,78.63583812799993,78.63583812799993,80.088158873,r,1.0,1.449273762999951,,80.08863773899998,80.09970889099998,81.10119536900004,,,,,,,,,,,,,,,,,,,,sub-136,1,stroop_test,64.71286281528661,
,,,,2.0,2.0,0.0,,,,,blau,blue,b,1.0,b,1.0,0.7163262709999572,,,,,,,,,,,,,,0.0,2.0,2.0,5.0,,,,,81.11918794899998,,,,,,,,,,,,,,,,,81.10156706199996,81.19148840399998,82.00130551799998,81.98655943200004,,,,,,,,,,,,,,,,81.99163512799998,82.00130551799998,82.00130551799998,82.727017897,b,1.0,0.7163262709999572,,82.72749888499993,82.74108904900004,83.72817924799995,,,,,,,,,,,,,,,,,,,,sub-136,1,stroop_test,64.71286281528661,
,,,,3.0,3.0,0.0,,,,,blau,red,r,0.0,r,1.0,0.7925066940000534,,,,,,,,,,,,,,0.0,3.0,3.0,4.0,,,,,83.74120257999994,,,,,,,,,,,,,,,,,83.72969760599995,84.521382302,85.321317475,85.30589948099998,,,,,,,,,,,,,,,,85.30668438399994,85.321317475,85.321317475,86.12042769999994,r,1.0,0.7925066940000534,,86.121117873,86.13358819400003,87.11993061399994,87.12846984500004,,,,,,,,,,,,,,,,,,,sub-136,1,stroop_test,64.71286281528661,
,,,,4.0,4.0,0.0,,,,,gelb,yellow,g,1.0,g,1.0,1.0698658599999362,,,,,,,,,,,,,,0.0,4.0,4.0,10.0,,,,,87.12846984500004,,,,,,,,,,,,,,,,,87.120274344,87.22490144400001,88.034668883,88.02026282500003,,,,,,,,,,,,,,,,88.024641019,88.034668883,88.034668883,89.10722730199996,g,1.0,1.0698658599999362,,89.10770794300004,89.12141920800002,90.11060763900002,,,,,,,,,,,,,,,,,,,,sub-136,1,stroop_test,64.71286281528661,
,,,,5.0,5.0,0.0,,,,,gelb,yellow,g,1.0,g,1.0,0.6030926370000316,,,,,,,,,,,,,,0.0,5.0,5.0,11.0,,,,,90.120895968,,,,,,,,,,,,,,,,,90.11171680799998,90.45403371700002,91.26547488999996,91.25351922599998,,,,,,,,,,,,,,,,91.25430865099996,91.26547488999996,91.26547488999996,91.872335969,g,1.0,0.6030926370000316,,91.87311890399997,91.88503019199992,92.87025406500004,92.87962740499997,,,,,,,,,,,,,,,,,,,sub-136,1,stroop_test,64.71286281528661,
,,,,6.0,6.0,0.0,,,,,rot,blue,b,0.0,b,1.0,1.0149248819999457,,,,,,,,,,,,,,0.0,6.0,6.0,2.0,,,,,92.87962740499997,,,,,,,,,,,,,,,,,92.87068615399994,93.228712137,94.03100548299994,94.01677621199995,,,,,,,,,,,,,,,,94.02098639099997,94.03100548299994,94.03100548299994,95.05785167700004,b,1.0,1.0149248819999457,,95.05858393999996,95.07158767199996,96.06236679799996,,,,,,,,,,,,,,,,,,,,sub-136,1,stroop_test,64.71286281528661,
,,,,7.0,7.0,0.0,,,,,gelb,blue,b,0.0,b,1.0,0.9828479459999926,,,,,,,,,,,,,,0.0,7.0,7.0,9.0,,,,,96.074944361,,,,,,,,,,,,,,,,,96.06393108199995,96.152992293,96.95261586200002,96.93781750200004,,,,,,,,,,,,,,,,96.941636474,96.95261586200002,96.95261586200002,97.940477149,b,1.0,0.9828479459999926,,97.94119763899994,97.954081912,98.93804343199996,98.95244050199994,,,,,,,,,,,,,,,,,,,sub-136,1,stroop_test,64.71286281528661,
,,,,8.0,8.0,0.0,,,,,blau,yellow,g,0.0,g,1.0,1.913326082000026,,,,,,,,,,,,,,0.0,8.0,8.0,7.0,,,,,98.95244050199994,,,,,,,,,,,,,,,,,98.938346465,99.73672303699992,100.54174557,100.52641023499996,,,,,,,,,,,,,,,,100.52991376299995,100.54174557,100.54174557,102.46865046200004,g,1.0,1.913326082000026,,102.46924466899998,102.481059879,103.46934499199996,103.477666676,,,,,,,,,,,,,,,,,,,sub-136,1,stroop_test,64.71286281528661,
,,,,9.0,9.0,0.0,,,,,blau,blue,b,1.0,b,1.0,1.0019351020000613,,,,,,,,,,,,,,0.0,9.0,9.0,6.0,,,,,103.477666676,,,,,,,,,,,,,,,,,103.46969091300002,103.81130823499996,104.607887464,104.59650072499994,,,,,,,,,,,,,,,,104.597228201,104.607887464,104.607887464,105.62287835799998,b,1.0,1.0019351020000613,,105.62338651200002,105.63555377,106.622805039,106.63211458599994,,,,,,,,,,,,,,,,,,,sub-136,1,stroop_test,64.71286281528661,
,,,,10.0,10.0,0.0,,,,,rot,red,r,1.0,r,1.0,1.8926778590000597,,,,,,,,,,,,,,0.0,10.0,10.0,1.0,,,,,106.63211458599994,,,,,,,,,,,,,,,,,106.62340098899996,106.720271562,107.53403259599996,107.50894252299996,,,,,,,,,,,,,,,,107.51135290000002,107.53403259599996,107.53403259599996,109.43830960599996,r,1.0,1.8926778590000597,,109.43878739000002,109.45018572000004,110.43988117599996,110.449289958,,,,,,,,,,,,,,,,,,,sub-136,1,stroop_test,64.71286281528661,
,,,,11.0,11.0,0.0,,,,,gelb,red,r,0.0,r,1.0,0.6888112379999711,,,,,,,,,,,,,,0.0,11.0,11.0,8.0,,,,,110.449289958,,,,,,,,,,,,,,,,,110.44048142099996,111.635647963,112.450760759,112.42549848399996,,,,,,,,,,,,,,,,112.42811872100005,112.450760759,112.450760759,113.15368071699992,r,1.0,0.6888112379999711,,113.154147061,113.16503685600004,114.15821041599996,,,,,,,,,,,,,,,,,,,,sub-136,1,stroop_test,64.71286281528661,
,,,,12.0,0.0,1.0,,,,,gelb,yellow,g,1.0,g,1.0,1.0619473040000005,,,,,,,,,,,,,,1.0,0.0,12.0,10.0,,,,,114.17024186000005,,,,,,,,,,,,,,,,,114.15857513599995,114.25204190299996,115.05402282299995,115.04137268299996,,,,,,,,,,,,,,,,115.041819293,115.05402282299995,115.05402282299995,116.12671024400004,g,1.0,1.0619473040000005,,116.12731717099996,116.139946301,117.13235257999996,,,,,,,,,,,,,,,,,,,,sub-136,1,stroop_test,64.71286281528661,
,,,,13.0,1.0,1.0,,,,,gelb,yellow,g,1.0,g,1.0,0.694794107000007,,,,,,,,,,,,,,1.0,1.0,13.0,11.0,,,,,117.143116448,,,,,,,,,,,,,,,,,117.13380552399995,118.33387367800005,119.14086313199994,119.12869502800004,,,,,,,,,,,,,,,,119.12914276599996,119.14086313199994,119.14086313199994,119.83863564299998,g,1.0,0.694794107000007,,119.839106345,119.85343504499996,120.841421157,,,,,,,,,,,,,,,,,,,,sub-136,1,stroop_test,64.71286281528661,
,,,,14.0,2.0,1.0,,,,,gelb,red,r,0.0,r,1.0,0.994615137999972,,,,,,,,,,,,,,1.0,2.0,14.0,8.0,,,,,120.85420329499992,,,,,,,,,,,,,,,,,120.84193950500004,122.03678125399996,122.83825119699998,122.82583158399996,,,,,,,,,,,,,,,,122.826370923,122.83825119699998,122.83825119699998,123.83922323599997,r,1.0,0.994615137999972,,123.83998939499998,123.85227085099996,124.83596390599996,124.84431530400002,,,,,,,,,,,,,,,,,,,sub-136,1,stroop_test,64.71286281528661,
,,,,15.0,3.0,1.0,,,,,rot,blue,b,0.0,b,1.0,0.93003519399997,,,,,,,,,,,,,,1.0,3.0,15.0,2.0,,,,,124.84431530400002,,,,,,,,,,,,,,,,,124.83633171999998,124.944828367,125.751976334,125.73461394499998,,,,,,,,,,,,,,,,125.73760852700002,125.751976334,125.751976334,126.69323728899997,b,1.0,0.93003519399997,,126.693712795,126.70697103500004,127.70225899799992,,,,,,,,,,,,,,,,,,,,sub-136,1,stroop_test,64.71286281528661,
,,,,16.0,4.0,1.0,,,,,blau,yellow,g,0.0,g,1.0,2.608351127999981,,,,,,,,,,,,,,1.0,4.0,16.0,7.0,,,,,127.71172192799996,,,,,,,,,,,,,,,,,127.702772255,128.48905982899998,129.29381247599997,129.28014490399994,,,,,,,,,,,,,,,,129.28407249999998,129.29381247599997,129.29381247599997,131.90440323500002,g,1.0,2.608351127999981,,131.90489001699996,131.91591825900002,132.90302462800005,132.91213696800003,,,,,,,,,,,,,,,,,,,sub-136,1,stroop_test,64.71286281528661,
,,,,17.0,5.0,1.0,,,,,blau,blue,b,1.0,b,1.0,0.6222645789999888,,,,,,,,,,,,,,1.0,5.0,17.0,6.0,,,,,132.91213696800003,,,,,,,,,,,,,,,,,132.90352072500002,133.702465567,134.51212130600004,134.50262591299995,,,,,,,,,,,,,,,,134.50318401999994,134.51212130600004,134.51212130600004,135.13760480500002,b,1.0,0.6222645789999888,,135.13807661499993,135.14879522,136.14072255899998,,,,,,,,,,,,,,,,,,,,sub-136,1,stroop_test,64.71286281528661,
,,,,18.0,6.0,1.0,,,,,rot,red,r,1.0,r,1.0,0.8732649799999308,,,,,,,,,,,,,,1.0,6.0,18.0,1.0,,,,,136.15186914499998,,,,,,,,,,,,,,,,,136.14102486299998,137.350181721,138.151834366,138.13449617799995,,,,,,,,,,,,,,,,138.13715433200002,138.151834366,138.151834366,139.03791993799996,r,1.0,0.8732649799999308,,139.03840810400004,139.05195837199994,140.05037381700004,,,,,,,,,,,,,,,,,,,,sub-136,1,stroop_test,64.71286281528661,
,,,,19.0,7.0,1.0,,,,,rot,yellow,g,0.0,g,1.0,1.5214993420000835,,,,,,,,,,,,,,1.0,7.0,19.0,3.0,,,,,140.068526184,,,,,,,,,,,,,,,,,140.05081590600005,141.24229551999997,142.04379790899998,142.030639114,,,,,,,,,,,,,,,,142.03175367699998,142.04379790899998,142.04379790899998,143.57642281799997,g,1.0,1.5214993420000835,,143.577058631,143.59039287400003,144.577418685,,,,,,,,,,,,,,,,,,,,sub-136,1,stroop_test,64.71286281528661,
,,,,20.0,8.0,1.0,,,,,blau,red,r,0.0,r,1.0,0.7944956939999201,,,,,,,,,,,,,,1.0,8.0,20.0,4.0,,,,,144.600186313,,,,,,,,,,,,,,,,,144.57855938299997,144.66964611100002,145.47433240500004,145.458562638,,,,,,,,,,,,,,,,145.46325727399994,145.47433240500004,145.47433240500004,146.27867754199997,r,1.0,0.7944956939999201,,146.27915145199995,146.29197035699997,147.278915826,147.29058593699995,,,,,,,,,,,,,,,,,,,sub-136,1,stroop_test,64.71286281528661,
,,,,21.0,9.0,1.0,,,,,blau,blue,b,1.0,b,1.0,0.6396691439999813,,,,,,,,,,,,,,1.0,9.0,21.0,5.0,,,,,147.29058593699995,,,,,,,,,,,,,,,,,147.27923921299998,148.08498909399998,148.87848940899994,148.86906231299997,,,,,,,,,,,,,,,,148.86949381399995,148.87848940899994,148.87848940899994,149.53323074399998,b,1.0,0.6396691439999813,,149.53417929199998,149.54345779799996,150.52926166500004,150.540740627,,,,,,,,,,,,,,,,,,,sub-136,1,stroop_test,64.71286281528661,
,,,,22.0,10.0,1.0,,,,,gelb,blue,b,0.0,b,1.0,1.3723843430000215,,,,,,,,,,,,,,1.0,10.0,22.0,9.0,,,,,150.540740627,,,,,,,,,,,,,,,,,150.52967352300004,151.33514684,152.150058951,152.12489852199997,,,,,,,,,,,,,,,,152.12756642599993,152.150058951,152.150058951,153.536925065,b,1.0,1.3723843430000215,,153.537562697,153.54969957000003,154.536740828,154.54533215599997,,,,,,,,,,,,,,,,,,,sub-136,1,stroop_test,64.71286281528661,
,,,,23.0,11.0,1.0,,,,,rot,red,r,1.0,r,1.0,0.926090557000066,,,,,,,,,,,,,,1.0,11.0,23.0,0.0,,,,,154.54533215599997,,,,,,,,,,,,,,,,,154.53712994599994,154.65216140500002,155.46810059400002,155.45083905299998,,,,,,,,,,,,,,,,155.45340819900002,155.46810059400002,155.46810059400002,156.40740438700004,r,1.0,0.926090557000066,,156.40788427899997,156.420246528,157.40331272499998,157.418171831,,,,,,,,,,,,,,,,,,,sub-136,1,stroop_test,64.71286281528661,
,,,,,,,,,,,,,,,,,,,,,,,,,,,,,,,,,,,,,,,,,,,,,,,,,,,,,,,,,,,,,,,,,,,,,,,,,,,,,,,,,,,,,,,157.40345227700004,157.418171831,157.418171831,159.889915944,space,2.4681756850000056,,,,,,,,,,,,,sub-136,1,stroop_test,64.71286281528661,
,,,,0.0,0.0,0.0,,,,,,,,,,,,,rot,red,r,1.0,r,1.0,0.7398538249999547,,,,,,,,,,0.0,0.0,0.0,1.0,159.91442011599997,,,,,,,,,,,,,,,,,159.90488933200004,160.70143880299997,161.50160725399996,161.48687074299994,,,,,,,,,,,,,,,,,,,,,,,,,,,,,,,,,,,161.48964499800002,161.50160725399996,161.50160725399996,162.25365290499997,r,1.0,0.7398538249999547,,,,,sub-136,1,stroop_test,64.71286281528661,
,,,,1.0,1.0,0.0,,,,,,,,,,,,,rot,yellow,g,0.0,b,0.0,0.9440244109999868,,,,,,,,,,0.0,1.0,1.0,3.0,162.264107793,,,,,,,,,,,,,,,,,162.253984058,162.60724140000002,163.411185466,163.40100422599994,,,,,,,,,,,,,,,,,,,,,,,,,,,,,,,,,,,163.401512023,163.411185466,163.411185466,164.35943604399995,b,0.0,0.9440244109999868,,,,,sub-136,1,stroop_test,64.71286281528661,
,,,,2.0,2.0,0.0,,,,,,,,,,,,,blau,yellow,g,0.0,g,1.0,1.1531153880000602,,,,,,,,,,0.0,2.0,2.0,7.0,164.36966754000002,,,,,,,,,,,,,,,,,164.359768638,164.71034656099994,165.51495327600003,165.50204650199998,,,,,,,,,,,,,,,,,,,,,,,,,,,,,,,,,,,165.50503288999994,165.51495327600003,165.51495327600003,166.678729805,g,1.0,1.1531153880000602,,,,,sub-136,1,stroop_test,64.71286281528661,
,,,,3.0,3.0,0.0,,,,,,,,,,,,,gelb,blue,b,0.0,b,1.0,1.1179217929999368,,,,,,,,,,0.0,3.0,3.0,9.0,166.68973091299995,,,,,,,,,,,,,,,,,166.67906839800003,167.035802009,167.84219395499997,167.82904751399997,,,,,,,,,,,,,,,,,,,,,,,,,,,,,,,,,,,167.832895635,167.84219395499997,167.84219395499997,168.97210253499998,b,1.0,1.1179217929999368,,,,,sub-136,1,stroop_test,64.71286281528661,
,,,,4.0,4.0,0.0,,,,,,,,,,,,,rot,red,r,1.0,r,1.0,0.8660576409999976,,,,,,,,,,0.0,4.0,4.0,0.0,168.98274549999996,,,,,,,,,,,,,,,,,168.97243782700002,169.76858199599997,170.56841161499997,170.553798453,,,,,,,,,,,,,,,,,,,,,,,,,,,,,,,,,,,170.556465645,170.56841161499997,170.56841161499997,171.437378213,r,1.0,0.8660576409999976,,,,,sub-136,1,stroop_test,64.71286281528661,
,,,,5.0,5.0,0.0,,,,,,,,,,,,,gelb,yellow,g,1.0,g,1.0,0.7574119890000475,,,,,,,,,,0.0,5.0,5.0,11.0,171.44765992700002,,,,,,,,,,,,,,,,,171.43771049299994,171.54340373599996,172.34522390199993,172.33017326000004,,,,,,,,,,,,,,,,,,,,,,,,,,,,,,,,,,,172.33535567399997,172.34522390199993,172.34522390199993,173.11408800799995,g,1.0,0.7574119890000475,,,,,sub-136,1,stroop_test,64.71286281528661,
,,,,6.0,6.0,0.0,,,,,,,,,,,,,rot,blue,b,0.0,b,1.0,0.4320129819999465,,,,,,,,,,0.0,6.0,6.0,2.0,173.12551252599997,,,,,,,,,,,,,,,,,173.114843328,173.93478124499995,174.73466969599997,174.72191107799995,,,,,,,,,,,,,,,,,,,,,,,,,,,,,,,,,,,174.72478701199998,174.73466969599997,174.73466969599997,175.170304622,b,1.0,0.4320129819999465,,,,,sub-136,1,stroop_test,64.71286281528661,
,,,,7.0,7.0,0.0,,,,,,,,,,,,,gelb,red,r,0.0,r,1.0,0.6828775069999438,,,,,,,,,,0.0,7.0,7.0,8.0,175.18010194,,,,,,,,,,,,,,,,,175.17064939299996,176.374586378,177.18482517400005,177.17002702799994,,,,,,,,,,,,,,,,,,,,,,,,,,,,,,,,,,,177.172840244,177.18482517400005,177.18482517400005,177.87327937500004,r,1.0,0.6828775069999438,,,,,sub-136,1,stroop_test,64.71286281528661,
,,,,8.0,8.0,0.0,,,,,,,,,,,,,blau,blue,b,1.0,b,1.0,0.7777653399999735,,,,,,,,,,0.0,8.0,8.0,6.0,177.88358468900003,,,,,,,,,,,,,,,,,177.87361445800002,177.96878956800003,178.77467358,178.75900480899998,,,,,,,,,,,,,,,,,,,,,,,,,,,,,,,,,,,178.76393315300004,178.77467358,178.77467358,179.55931427899998,b,1.0,0.7777653399999735,,,,,sub-136,1,stroop_test,64.71286281528661,
,,,,9.0,9.0,0.0,,,,,,,,,,,,,blau,red,r,0.0,r,1.0,0.7714089500000227,,,,,,,,,,0.0,9.0,9.0,4.0,179.58316709400003,,,,,,,,,,,,,,,,,179.559789315,179.66075517000002,180.45677913,180.44532554499995,,,,,,,,,,,,,,,,,,,,,,,,,,,,,,,,,,,180.44607156099997,180.45677913,180.45677913,181.23069277699997,r,1.0,0.7714089500000227,,,,,sub-136,1,stroop_test,64.71286281528661,
,,,,10.0,10.0,0.0,,,,,,,,,,,,,blau,blue,b,1.0,b,1.0,0.6787771819999762,,,,,,,,,,0.0,10.0,10.0,5.0,181.24173497999996,,,,,,,,,,,,,,,,,181.231712346,181.32772769099995,182.126185354,182.113305683,,,,,,,,,,,,,,,,,,,,,,,,,,,,,,,,,,,182.11409859000003,182.126185354,182.126185354,182.808909514,b,1.0,0.6787771819999762,,,,,sub-136,1,stroop_test,64.71286281528661,
,,,,11.0,11.0,0.0,,,,,,,,,,,,,gelb,yellow,g,1.0,g,1.0,1.188447723999957,,,,,,,,,,0.0,11.0,11.0,10.0,182.819020553,,,,,,,,,,,,,,,,,182.809263279,184.01777251499996,184.823292297,184.807982185,,,,,,,,,,,,,,,,,,,,,,,,,,,,,,,,,,,184.812435555,184.823292297,184.823292297,186.015719126,g,1.0,1.188447723999957,,,,,sub-136,1,stroop_test,64.71286281528661,
,,,,12.0,0.0,1.0,,,,,,,,,,,,,gelb,blue,b,0.0,b,1.0,0.74274681899999,,,,,,,,,,1.0,0.0,12.0,9.0,186.02704915999996,,,,,,,,,,,,,,,,,186.016222127,186.810746364,187.60981050399997,187.599263407,,,,,,,,,,,,,,,,,,,,,,,,,,,,,,,,,,,187.600398638,187.60981050399997,187.60981050399997,188.36050704599995,b,1.0,0.74274681899999,,,,,sub-136,1,stroop_test,64.71286281528661,
,,,,13.0,1.0,1.0,,,,,,,,,,,,,gelb,yellow,g,1.0,g,1.0,0.8245681189999914,,,,,,,,,,1.0,1.0,13.0,10.0,188.3718296,,,,,,,,,,,,,,,,,188.360841803,188.71772623000004,189.511480422,189.50170756,,,,,,,,,,,,,,,,,,,,,,,,,,,,,,,,,,,189.502237347,189.511480422,189.511480422,190.342149889,g,1.0,0.8245681189999914,,,,,sub-136,1,stroop_test,64.71286281528661,
,,,,14.0,2.0,1.0,,,,,,,,,,,,,blau,yellow,g,0.0,g,1.0,1.0010451409999632,,,,,,,,,,1.0,2.0,14.0,7.0,190.352366867,,,,,,,,,,,,,,,,,190.342499019,190.68365714100003,191.49027531599995,191.47489490600003,,,,,,,,,,,,,,,,,,,,,,,,,,,,,,,,,,,191.47943590800003,191.49027531599995,191.49027531599995,192.502624419,g,1.0,1.0010451409999632,,,,,sub-136,1,stroop_test,64.71286281528661,
,,,,15.0,3.0,1.0,,,,,,,,,,,,,gelb,yellow,g,1.0,g,1.0,0.7010763260000203,,,,,,,,,,1.0,3.0,15.0,11.0,192.51273912,,,,,,,,,,,,,,,,,192.502954142,193.697106008,194.497201874,194.48542402,,,,,,,,,,,,,,,,,,,,,,,,,,,,,,,,,,,194.48780607799995,194.497201874,194.497201874,195.20862302800003,g,1.0,0.7010763260000203,,,,,sub-136,1,stroop_test,64.71286281528661,
,,,,16.0,4.0,1.0,,,,,,,,,,,,,rot,yellow,g,0.0,g,1.0,0.4857937799999945,,,,,,,,,,1.0,4.0,16.0,3.0,195.21875995899995,,,,,,,,,,,,,,,,,195.208953865,196.006705762,196.816074361,196.790548676,,,,,,,,,,,,,,,,,,,,,,,,,,,,,,,,,,,196.793114793,196.816074361,196.816074361,197.30573943,g,1.0,0.4857937799999945,,,,,sub-136,1,stroop_test,64.71286281528661,
,,,,17.0,5.0,1.0,,,,,,,,,,,,,rot,red,r,1.0,r,1.0,0.6869256829999131,,,,,,,,,,1.0,5.0,17.0,0.0,197.316524612,,,,,,,,,,,,,,,,,197.30611028299995,197.66623984800003,198.46133320699997,198.451904638,,,,,,,,,,,,,,,,,,,,,,,,,,,,,,,,,,,198.452337875,198.46133320699997,198.46133320699997,199.15879591500004,r,1.0,0.6869256829999131,,,,,sub-136,1,stroop_test,64.71286281528661,
,,,,18.0,6.0,1.0,,,,,,,,,,,,,blau,red,r,0.0,r,1.0,0.8866390919999958,,,,,,,,,,1.0,6.0,18.0,4.0,199.171253977,,,,,,,,,,,,,,,,,199.159281816,199.95962910799997,200.76244642099996,200.74901922100003,,,,,,,,,,,,,,,,,,,,,,,,,,,,,,,,,,,200.752751871,200.76244642099996,200.76244642099996,201.661083019,r,1.0,0.8866390919999958,,,,,sub-136,1,stroop_test,64.71286281528661,
,,,,19.0,7.0,1.0,,,,,,,,,,,,,blau,blue,b,1.0,b,1.0,0.7066752850000739,,,,,,,,,,1.0,7.0,19.0,6.0,201.672596031,,,,,,,,,,,,,,,,,201.661418188,202.017601817,202.813903787,202.80227837199996,,,,,,,,,,,,,,,,,,,,,,,,,,,,,,,,,,,202.803060269,202.813903787,202.813903787,203.525053675,b,1.0,0.7066752850000739,,,,,sub-136,1,stroop_test,64.71286281528661,
,,,,20.0,8.0,1.0,,,,,,,,,,,,,gelb,red,r,0.0,r,1.0,0.7845130440000503,,,,,,,,,,1.0,8.0,20.0,8.0,203.535438497,,,,,,,,,,,,,,,,,203.52539215799996,204.326977177,205.130297487,205.11816938000004,,,,,,,,,,,,,,,,,,,,,,,,,,,,,,,,,,,205.120771949,205.130297487,205.130297487,205.92106267299997,r,1.0,0.7845130440000503,,,,,sub-136,1,stroop_test,64.71286281528661,
,,,,21.0,9.0,1.0,,,,,,,,,,,,,rot,blue,b,0.0,g,0.0,1.3984466430000566,,,,,,,,,,1.0,9.0,21.0,2.0,205.935438292,,,,,,,,,,,,,,,,,205.921412893,206.721122295,207.525711729,207.512823033,,,,,,,,,,,,,,,,,,,,,,,,,,,,,,,,,,,207.516173033,207.525711729,207.525711729,208.931530961,g,0.0,1.3984466430000566,,,,,sub-136,1,stroop_test,64.71286281528661,
,,,,22.0,10.0,1.0,,,,,,,,,,,,,blau,blue,b,1.0,b,1.0,1.1229595419999896,,,,,,,,,,1.0,10.0,22.0,5.0,208.94187079100004,,,,,,,,,,,,,,,,,208.932003593,210.12598297700004,210.930073957,210.918079507,,,,,,,,,,,,,,,,,,,,,,,,,,,,,,,,,,,210.920758309,210.930073957,210.930073957,212.064756915,b,1.0,1.1229595419999896,,,,,sub-136,1,stroop_test,64.71286281528661,
,,,,23.0,11.0,1.0,,,,,,,,,,,,,rot,red,r,1.0,r,1.0,0.9601880320000192,,,,,,,,,,1.0,11.0,23.0,1.0,212.07519513499997,,,,,,,,,,,,,,,,,212.06528321099995,213.268381077,214.082538129,214.057068629,,,,,,,,,,,,,,,,,,,,,,,,,,,,,,,,,,,214.05958087600004,214.082538129,214.082538129,215.05368317700004,r,1.0,0.9601880320000192,,,,,sub-136,1,stroop_test,64.71286281528661,
,,,,24.0,0.0,2.0,,,,,,,,,,,,,gelb,red,r,0.0,r,1.0,0.8683752609999829,,,,,,,,,,2.0,0.0,24.0,8.0,215.063542257,,,,,,,,,,,,,,,,,215.054010471,215.165881398,215.964346008,215.95127594400003,,,,,,,,,,,,,,,,,,,,,,,,,,,,,,,,,,,215.954541575,215.964346008,215.964346008,216.84712483,r,1.0,0.8683752609999829,,,,,sub-136,1,stroop_test,64.71286281528661,
,,,,25.0,1.0,2.0,,,,,,,,,,,,,blau,yellow,g,0.0,g,1.0,1.2004571219999889,,,,,,,,,,2.0,1.0,25.0,7.0,216.856849475,,,,,,,,,,,,,,,,,216.848073268,218.06741039299996,218.864244072,218.85126039399995,,,,,,,,,,,,,,,,,,,,,,,,,,,,,,,,,,,218.85429843399996,218.864244072,218.864244072,220.0751616,g,1.0,1.2004571219999889,,,,,sub-136,1,stroop_test,64.71286281528661,
,,,,26.0,2.0,2.0,,,,,,,,,,,,,rot,red,r,1.0,r,1.0,0.7786227420000387,,,,,,,,,,2.0,2.0,26.0,1.0,220.08571139699995,,,,,,,,,,,,,,,,,220.075502336,220.427110871,221.23530925,221.22034359299997,,,,,,,,,,,,,,,,,,,,,,,,,,,,,,,,,,,221.225351196,221.23530925,221.23530925,222.02506290299996,r,1.0,0.7786227420000387,,,,,sub-136,1,stroop_test,64.71286281528661,
,,,,27.0,3.0,2.0,,,,,,,,,,,,,gelb,yellow,g,1.0,g,1.0,1.488232939999989,,,,,,,,,,2.0,3.0,27.0,11.0,222.035357643,,,,,,,,,,,,,,,,,222.02539679300003,222.12509476799997,222.92942127899997,222.91385619200005,,,,,,,,,,,,,,,,,,,,,,,,,,,,,,,,,,,222.918463269,222.92942127899997,222.92942127899997,224.419931765,g,1.0,1.488232939999989,,,,,sub-136,1,stroop_test,64.71286281528661,
,,,,28.0,4.0,2.0,,,,,,,,,,,,,blau,blue,b,1.0,b,1.0,0.7173023499999545,,,,,,,,,,2.0,4.0,28.0,5.0,224.430068424,,,,,,,,,,,,,,,,,224.420265469,225.617426205,226.413266065,226.401325427,,,,,,,,,,,,,,,,,,,,,,,,,,,,,,,,,,,226.40379257199996,226.413266065,226.413266065,227.14161524,b,1.0,0.7173023499999545,,,,,sub-136,1,stroop_test,64.71286281528661,
,,,,29.0,5.0,2.0,,,,,,,,,,,,,gelb,blue,b,0.0,b,1.0,0.4064915000000155,,,,,,,,,,2.0,5.0,29.0,9.0,227.15218759000004,,,,,,,,,,,,,,,,,227.141952546,228.341341682,229.14524750600003,229.133177855,,,,,,,,,,,,,,,,,,,,,,,,,,,,,,,,,,,229.135732022,229.14524750600003,229.14524750600003,229.56531718400004,b,1.0,0.4064915000000155,,,,,sub-136,1,stroop_test,64.71286281528661,
,,,,30.0,6.0,2.0,,,,,,,,,,,,,rot,blue,b,0.0,b,1.0,0.46625200699998,,,,,,,,,,2.0,6.0,30.0,2.0,229.575421991,,,,,,,,,,,,,,,,,229.565656121,229.90914007000003,230.71195724999995,230.69921441500003,,,,,,,,,,,,,,,,,,,,,,,,,,,,,,,,,,,230.702064092,230.71195724999995,230.71195724999995,231.18357586699997,b,1.0,0.46625200699998,,,,,sub-136,1,stroop_test,64.71286281528661,
,,,,31.0,7.0,2.0,,,,,,,,,,,,,rot,red,r,1.0,r,1.0,0.5624939709999808,,,,,,,,,,2.0,7.0,31.0,0.0,231.19676892300004,,,,,,,,,,,,,,,,,231.184219839,232.00055251000003,232.79677606099995,232.78492601100004,,,,,,,,,,,,,,,,,,,,,,,,,,,,,,,,,,,232.78593869199997,232.79677606099995,232.79677606099995,233.368784064,r,1.0,0.5624939709999808,,,,,sub-136,1,stroop_test,64.71286281528661,
,,,,32.0,8.0,2.0,,,,,,,,,,,,,gelb,yellow,g,1.0,g,1.0,0.8106699560000834,,,,,,,,,,2.0,8.0,32.0,10.0,233.37876581699996,,,,,,,,,,,,,,,,,233.369183789,234.183877513,234.984677348,234.971733221,,,,,,,,,,,,,,,,,,,,,,,,,,,,,,,,,,,234.97461508999996,234.984677348,234.984677348,235.802678075,g,1.0,0.8106699560000834,,,,,sub-136,1,stroop_test,64.71286281528661,
,,,,33.0,9.0,2.0,,,,,,,,,,,,,blau,blue,b,1.0,b,1.0,0.5580724400000463,,,,,,,,,,2.0,9.0,33.0,6.0,235.813697327,,,,,,,,,,,,,,,,,235.803035164,237.00251675999996,237.807049338,237.79385298599996,,,,,,,,,,,,,,,,,,,,,,,,,,,,,,,,,,,237.79707627999997,237.807049338,237.807049338,238.36934480699995,b,1.0,0.5580724400000463,,,,,sub-136,1,stroop_test,64.71286281528661,
,,,,34.0,10.0,2.0,,,,,,,,,,,,,rot,yellow,g,0.0,g,1.0,1.1542266530000234,,,,,,,,,,2.0,10.0,34.0,3.0,238.379308496,,,,,,,,,,,,,,,,,238.369685647,239.167651733,239.96972503300003,239.954060636,,,,,,,,,,,,,,,,,,,,,,,,,,,,,,,,,,,239.95774081900004,239.96972503300003,239.96972503300003,241.130542691,g,1.0,1.1542266530000234,,,,,sub-136,1,stroop_test,64.71286281528661,
,,,,35.0,11.0,2.0,,,,,,,,,,,,,blau,red,r,0.0,r,1.0,0.8954089449999856,,,,,,,,,,2.0,11.0,35.0,4.0,241.14117355,,,,,,,,,,,,,,,,,241.13113569300003,241.933825998,242.735973622,242.72021930200003,,,,,,,,,,,,,,,,,,,,,,,,,,,,,,,,,,,242.72460776699995,242.735973622,242.735973622,243.636541782,r,1.0,0.8954089449999856,,,,,sub-136,1,stroop_test,64.71286281528661,
,,,,36.0,0.0,3.0,,,,,,,,,,,,,rot,red,r,1.0,r,1.0,0.6864678329999379,,,,,,,,,,3.0,0.0,36.0,0.0,243.646819852,,,,,,,,,,,,,,,,,243.63687534099995,244.449014995,245.253997984,245.24045578200003,,,,,,,,,,,,,,,,,,,,,,,,,,,,,,,,,,,245.24312816,245.253997984,245.253997984,245.95239804100004,r,1.0,0.6864678329999379,,,,,sub-136,1,stroop_test,64.71286281528661,
,,,,37.0,1.0,3.0,,,,,,,,,,,,,rot,red,r,1.0,r,1.0,0.5243215250000048,,,,,,,,,,3.0,1.0,37.0,1.0,245.963179988,,,,,,,,,,,,,,,,,245.95282764699996,247.15753294800004,247.96028483399996,247.950884215,,,,,,,,,,,,,,,,,,,,,,,,,,,,,,,,,,,247.951322144,247.96028483399996,247.96028483399996,248.49645158600003,r,1.0,0.5243215250000048,,,,,sub-136,1,stroop_test,64.71286281528661,
,,,,38.0,2.0,3.0,,,,,,,,,,,,,blau,yellow,g,0.0,g,1.0,0.9752411759999404,,,,,,,,,,3.0,2.0,38.0,7.0,248.507584782,,,,,,,,,,,,,,,,,248.49720214,248.843390526,249.64311061699996,249.629296232,,,,,,,,,,,,,,,,,,,,,,,,,,,,,,,,,,,249.63363465600003,249.64311061699996,249.64311061699996,250.635571248,g,1.0,0.9752411759999404,,,,,sub-136,1,stroop_test,64.71286281528661,
,,,,39.0,3.0,3.0,,,,,,,,,,,,,rot,blue,b,0.0,b,1.0,0.7256402909999906,,,,,,,,,,3.0,3.0,39.0,2.0,250.64415859299996,,,,,,,,,,,,,,,,,250.635918125,250.74226004900004,251.54618824499997,251.53432975299995,,,,,,,,,,,,,,,,,,,,,,,,,,,,,,,,,,,251.536687979,251.54618824499997,251.54618824499997,252.28008947699996,b,1.0,0.7256402909999906,,,,,sub-136,1,stroop_test,64.71286281528661,
,,,,40.0,4.0,3.0,,,,,,,,,,,,,blau,red,r,0.0,r,1.0,0.8245183799999722,,,,,,,,,,3.0,4.0,40.0,4.0,252.290667019,,,,,,,,,,,,,,,,,252.28071673499997,253.48366532800003,254.27981891599995,254.26745383699995,,,,,,,,,,,,,,,,,,,,,,,,,,,,,,,,,,,254.27028657999995,254.27981891599995,254.27981891599995,255.111507715,r,1.0,0.8245183799999722,,,,,sub-136,1,stroop_test,64.71286281528661,
,,,,41.0,5.0,3.0,,,,,,,,,,,,,gelb,red,r,0.0,r,1.0,1.6601996429999415,,,,,,,,,,3.0,5.0,41.0,8.0,255.12339962499996,,,,,,,,,,,,,,,,,255.11226173,255.908831234,256.707851107,256.69441027899995,,,,,,,,,,,,,,,,,,,,,,,,,,,,,,,,,,,256.698464242,256.707851107,256.707851107,258.379205158,r,1.0,1.6601996429999415,,,,,sub-136,1,stroop_test,64.71286281528661,
,,,,42.0,6.0,3.0,,,,,,,,,,,,,blau,blue,b,1.0,b,1.0,0.8718214849999413,,,,,,,,,,3.0,6.0,42.0,6.0,258.39066590999994,,,,,,,,,,,,,,,,,258.37981913,258.475662416,259.281248291,259.26765215800003,,,,,,,,,,,,,,,,,,,,,,,,,,,,,,,,,,,259.27124933899995,259.281248291,259.281248291,260.157890554,b,1.0,0.8718214849999413,,,,,sub-136,1,stroop_test,64.71286281528661,
,,,,43.0,7.0,3.0,,,,,,,,,,,,,gelb,yellow,g,1.0,g,1.0,0.5945269869999947,,,,,,,,,,3.0,7.0,43.0,10.0,260.168213399,,,,,,,,,,,,,,,,,260.158228904,260.955858112,261.762460964,261.750913869,,,,,,,,,,,,,,,,,,,,,,,,,,,,,,,,,,,261.75327991300003,261.762460964,261.762460964,262.364046241,g,1.0,0.5945269869999947,,,,,sub-136,1,stroop_test,64.71286281528661,
,,,,44.0,8.0,3.0,,,,,,,,,,,,,rot,yellow,g,0.0,g,1.0,0.9703674200000024,,,,,,,,,,3.0,8.0,44.0,3.0,262.374338749,,,,,,,,,,,,,,,,,262.36450777100004,263.566677796,264.36329565999995,264.35104677100003,,,,,,,,,,,,,,,,,,,,,,,,,,,,,,,,,,,264.353688163,264.36329565999995,264.36329565999995,265.337039451,g,1.0,0.9703674200000024,,,,,sub-136,1,stroop_test,64.71286281528661,
,,,,45.0,9.0,3.0,,,,,,,,,,,,,blau,blue,b,1.0,b,1.0,0.6072779019999643,,,,,,,,,,3.0,9.0,45.0,5.0,265.35004933899995,,,,,,,,,,,,,,,,,265.337378212,266.15034565,266.951532123,266.93959856899994,,,,,,,,,,,,,,,,,,,,,,,,,,,,,,,,,,,266.94199927399995,266.951532123,266.951532123,267.563736417,b,1.0,0.6072779019999643,,,,,sub-136,1,stroop_test,64.71286281528661,
,,,,46.0,10.0,3.0,,,,,,,,,,,,,gelb,blue,b,0.0,b,1.0,0.4990090480000617,,,,,,,,,,3.0,10.0,46.0,9.0,267.574542824,,,,,,,,,,,,,,,,,267.56442409499994,267.66673241699993,268.468035076,268.456251532,,,,,,,,,,,,,,,,,,,,,,,,,,,,,,,,,,,268.45866528499994,268.468035076,268.468035076,268.974325038,b,1.0,0.4990090480000617,,,,,sub-136,1,stroop_test,64.71286281528661,
,,,,47.0,11.0,3.0,,,,,,,,,,,,,gelb,yellow,g,1.0,g,1.0,1.0071828979999964,,,,,,,,,,3.0,11.0,47.0,11.0,268.984743189,,,,,,,,,,,,,,,,,268.974661033,270.16841064899995,270.96898971,270.956380365,,,,,,,,,,,,,,,,,,,,,,,,,,,,,,,,,,,270.956826643,270.96898971,270.96898971,271.98488448,g,1.0,1.0071828979999964,,,,,sub-136,1,stroop_test,64.71286281528661,
,,,,48.0,0.0,4.0,,,,,,,,,,,,,blau,blue,b,1.0,b,1.0,0.5912589829999888,,,,,,,,,,4.0,0.0,48.0,6.0,271.995070102,,,,,,,,,,,,,,,,,271.98521345999995,272.78356100199994,273.57891463299995,273.567120778,,,,,,,,,,,,,,,,,,,,,,,,,,,,,,,,,,,273.569538386,273.57891463299995,273.57891463299995,274.174471594,b,1.0,0.5912589829999888,,,,,sub-136,1,stroop_test,64.71286281528661,
,,,,49.0,1.0,4.0,,,,,,,,,,,,,gelb,yellow,g,1.0,g,1.0,0.7008824600000025,,,,,,,,,,4.0,1.0,49.0,10.0,274.18466088799994,,,,,,,,,,,,,,,,,274.174804991,274.97046960499995,275.774766858,275.76171485299994,,,,,,,,,,,,,,,,,,,,,,,,,,,,,,,,,,,275.76531400700003,275.774766858,275.774766858,276.48522368700003,g,1.0,0.7008824600000025,,,,,sub-136,1,stroop_test,64.71286281528661,
,,,,50.0,2.0,4.0,,,,,,,,,,,,,gelb,red,r,0.0,r,1.0,1.2462516760000426,,,,,,,,,,4.0,2.0,50.0,8.0,276.495857187,,,,,,,,,,,,,,,,,276.48557706500003,277.68920226700004,278.493801343,278.483817086,,,,,,,,,,,,,,,,,,,,,,,,,,,,,,,,,,,278.484382181,278.493801343,278.493801343,279.744926438,r,1.0,1.2462516760000426,,,,,sub-136,1,stroop_test,64.71286281528661,
,,,,51.0,3.0,4.0,,,,,,,,,,,,,blau,red,r,0.0,r,1.0,0.518508810999947,,,,,,,,,,4.0,3.0,51.0,4.0,279.75606852399994,,,,,,,,,,,,,,,,,279.74538313999994,280.099978772,280.89619158200003,280.88399783499995,,,,,,,,,,,,,,,,,,,,,,,,,,,,,,,,,,,280.88692022500004,280.89619158200003,280.89619158200003,281.418735119,r,1.0,0.518508810999947,,,,,sub-136,1,stroop_test,64.71286281528661,
,,,,52.0,4.0,4.0,,,,,,,,,,,,,blau,blue,b,1.0,b,1.0,0.5743754899999658,,,,,,,,,,4.0,4.0,52.0,5.0,281.429131515,,,,,,,,,,,,,,,,,281.419064873,281.77274215700004,282.572892637,282.56114759799993,,,,,,,,,,,,,,,,,,,,,,,,,,,,,,,,,,,282.56172019199994,282.572892637,282.572892637,283.15772732899995,b,1.0,0.5743754899999658,,,,,sub-136,1,stroop_test,64.71286281528661,
,,,,53.0,5.0,4.0,,,,,,,,,,,,,rot,yellow,g,0.0,g,1.0,0.6536592429999928,,,,,,,,,,4.0,5.0,53.0,3.0,283.16795657700004,,,,,,,,,,,,,,,,,283.15811677700003,283.508130316,284.30968591,284.296566575,,,,,,,,,,,,,,,,,,,,,,,,,,,,,,,,,,,284.30005633199994,284.30968591,284.30968591,284.975160656,g,1.0,0.6536592429999928,,,,,sub-136,1,stroop_test,64.71286281528661,
,,,,54.0,6.0,4.0,,,,,,,,,,,,,rot,red,r,1.0,r,1.0,1.142196776999981,,,,,,,,,,4.0,6.0,54.0,0.0,284.988373154,,,,,,,,,,,,,,,,,284.97550138199995,286.174323801,286.97581014,286.965338893,,,,,,,,,,,,,,,,,,,,,,,,,,,,,,,,,,,286.966316896,286.97581014,286.97581014,288.120281065,r,1.0,1.142196776999981,,,,,sub-136,1,stroop_test,64.71286281528661,
,,,,55.0,7.0,4.0,,,,,,,,,,,,,blau,yellow,g,0.0,g,1.0,0.5100738209999918,,,,,,,,,,4.0,7.0,55.0,7.0,288.13326362299995,,,,,,,,,,,,,,,,,288.12064996899994,288.483087471,289.28495705700004,289.26993316200003,,,,,,,,,,,,,,,,,,,,,,,,,,,,,,,,,,,289.273761228,289.28495705700004,289.28495705700004,289.80779966800003,g,1.0,0.5100738209999918,,,,,sub-136,1,stroop_test,64.71286281528661,
,,,,56.0,8.0,4.0,,,,,,,,,,,,,rot,red,r,1.0,r,1.0,0.7380712499999618,,,,,,,,,,4.0,8.0,56.0,1.0,289.820576494,,,,,,,,,,,,,,,,,289.80818542199995,291.00094712,291.79976759,291.785014083,,,,,,,,,,,,,,,,,,,,,,,,,,,,,,,,,,,291.78750363200004,291.79976759,291.79976759,292.541059635,r,1.0,0.7380712499999618,,,,,sub-136,1,stroop_test,64.71286281528661,
,,,,57.0,9.0,4.0,,,,,,,,,,,,,rot,blue,b,0.0,b,1.0,1.0445872349999945,,,,,,,,,,4.0,9.0,57.0,2.0,292.564899065,,,,,,,,,,,,,,,,,292.541396386,293.341917619,294.142068492,294.131396883,,,,,,,,,,,,,,,,,,,,,,,,,,,,,,,,,,,294.132538115,294.142068492,294.142068492,295.19085292,b,1.0,1.0445872349999945,,,,,sub-136,1,stroop_test,64.71286281528661,
,,,,58.0,10.0,4.0,,,,,,,,,,,,,gelb,blue,b,0.0,b,1.0,0.8043511930000022,,,,,,,,,,4.0,10.0,58.0,9.0,295.201116769,,,,,,,,,,,,,,,,,295.19120295999994,296.390849947,297.19009337700004,297.177076487,,,,,,,,,,,,,,,,,,,,,,,,,,,,,,,,,,,297.180784187,297.19009337700004,297.19009337700004,298.002389396,b,1.0,0.8043511930000022,,,,,sub-136,1,stroop_test,64.71286281528661,
,,,,59.0,11.0,4.0,,,,,,,,,,,,,gelb,yellow,g,1.0,g,1.0,1.1510819769999898,,,,,,,,,,4.0,11.0,59.0,11.0,298.01300819100004,,,,,,,,,,,,,,,,,298.00272922399995,298.366271407,299.162537502,299.150847815,,,,,,,,,,,,,,,,,,,,,,,,,,,,,,,,,,,299.151636949,299.162537502,299.162537502,300.32403889499994,g,1.0,1.1510819769999898,,,,,sub-136,1,stroop_test,64.71286281528661,
,,,,60.0,0.0,5.0,,,,,,,,,,,,,blau,blue,b,1.0,b,1.0,0.4368112460000475,,,,,,,,,,5.0,0.0,60.0,6.0,300.334135083,,,,,,,,,,,,,,,,,300.324374712,300.673701049,301.48304767799993,301.465504305,,,,,,,,,,,,,,,,,,,,,,,,,,,,,,,,,,,301.468154215,301.48304767799993,301.48304767799993,301.934461994,b,1.0,0.4368112460000475,,,,,sub-136,1,stroop_test,64.71286281528661,
,,,,61.0,1.0,5.0,,,,,,,,,,,,,rot,blue,b,0.0,b,1.0,0.9276362670000252,,,,,,,,,,5.0,1.0,61.0,2.0,301.944584277,,,,,,,,,,,,,,,,,301.934795837,302.734569425,303.53348439900003,303.52066014799993,,,,,,,,,,,,,,,,,,,,,,,,,,,,,,,,,,,303.523664632,303.53348439900003,303.53348439900003,304.468150655,b,1.0,0.9276362670000252,,,,,sub-136,1,stroop_test,64.71286281528661,
,,,,62.0,2.0,5.0,,,,,,,,,,,,,rot,yellow,g,0.0,g,1.0,1.070984502999977,,,,,,,,,,5.0,2.0,62.0,3.0,304.47922894,,,,,,,,,,,,,,,,,304.468514119,304.817462694,305.61300203,305.60080374300003,,,,,,,,,,,,,,,,,,,,,,,,,,,,,,,,,,,305.601791941,305.61300203,305.61300203,306.700811015,g,1.0,1.070984502999977,,,,,sub-136,1,stroop_test,64.71286281528661,
,,,,63.0,3.0,5.0,,,,,,,,,,,,,gelb,yellow,g,1.0,g,1.0,0.7310665429999972,,,,,,,,,,5.0,3.0,63.0,11.0,306.709576436,,,,,,,,,,,,,,,,,306.70114912199995,307.055399721,307.85991293300003,307.84478721999994,,,,,,,,,,,,,,,,,,,,,,,,,,,,,,,,,,,307.850042121,307.85991293300003,307.85991293300003,308.597002731,g,1.0,0.7310665429999972,,,,,sub-136,1,stroop_test,64.71286281528661,
,,,,64.0,4.0,5.0,,,,,,,,,,,,,gelb,blue,b,0.0,b,1.0,0.7544425030000639,,,,,,,,,,5.0,4.0,64.0,9.0,308.60729112699994,,,,,,,,,,,,,,,,,308.597336425,309.79148083099994,310.588386532,310.577604253,,,,,,,,,,,,,,,,,,,,,,,,,,,,,,,,,,,310.57820552299995,310.588386532,310.588386532,311.346089724,b,1.0,0.7544425030000639,,,,,sub-136,1,stroop_test,64.71286281528661,
,,,,65.0,5.0,5.0,,,,,,,,,,,,,blau,yellow,g,0.0,g,1.0,0.9376014279999936,,,,,,,,,,5.0,5.0,65.0,7.0,311.35730474,,,,,,,,,,,,,,,,,311.34702781,311.69940134800004,312.505118657,312.48973822999994,,,,,,,,,,,,,,,,,,,,,,,,,,,,,,,,,,,312.49395818899995,312.505118657,312.505118657,313.447886264,g,1.0,0.9376014279999936,,,,,sub-136,1,stroop_test,64.71286281528661,
,,,,66.0,6.0,5.0,,,,,,,,,,,,,blau,blue,b,1.0,b,1.0,0.5431579110000939,,,,,,,,,,5.0,6.0,66.0,5.0,313.45795907,,,,,,,,,,,,,,,,,313.448293195,314.24131510300003,315.03811044500003,315.02623039,,,,,,,,,,,,,,,,,,,,,,,,,,,,,,,,,,,315.026711524,315.03811044500003,315.03811044500003,315.58508467699994,b,1.0,0.5431579110000939,,,,,sub-136,1,stroop_test,64.71286281528661,
,,,,67.0,7.0,5.0,,,,,,,,,,,,,rot,red,r,1.0,r,1.0,1.0794034699999884,,,,,,,,,,5.0,7.0,67.0,0.0,315.59644984499994,,,,,,,,,,,,,,,,,315.585513127,315.929527569,316.72895501899995,316.716852016,,,,,,,,,,,,,,,,,,,,,,,,,,,,,,,,,,,316.71937367600003,316.72895501899995,316.72895501899995,317.818069152,r,1.0,1.0794034699999884,,,,,sub-136,1,stroop_test,64.71286281528661,
,,,,68.0,8.0,5.0,,,,,,,,,,,,,gelb,yellow,g,1.0,g,1.0,0.8394543050000038,,,,,,,,,,5.0,8.0,68.0,10.0,317.82784258899994,,,,,,,,,,,,,,,,,317.818421178,317.919714991,318.72348532599995,318.710112578,,,,,,,,,,,,,,,,,,,,,,,,,,,,,,,,,,,318.714072239,318.72348532599995,318.72348532599995,319.56655402699994,g,1.0,0.8394543050000038,,,,,sub-136,1,stroop_test,64.71286281528661,
,,,,69.0,9.0,5.0,,,,,,,,,,,,,gelb,red,r,0.0,r,1.0,1.4194404569999506,,,,,,,,,,5.0,9.0,69.0,8.0,319.58264380699995,,,,,,,,,,,,,,,,,319.56688702299994,319.65770139999995,320.454378112,320.44333832300003,,,,,,,,,,,,,,,,,,,,,,,,,,,,,,,,,,,320.44380536200003,320.454378112,320.454378112,321.885152877,r,1.0,1.4194404569999506,,,,,sub-136,1,stroop_test,64.71286281528661,
,,,,70.0,10.0,5.0,,,,,,,,,,,,,rot,red,r,1.0,r,1.0,0.4676859790000662,,,,,,,,,,5.0,10.0,70.0,1.0,321.89482214299994,,,,,,,,,,,,,,,,,321.88548235099995,322.001658636,322.809602797,322.795274584,,,,,,,,,,,,,,,,,,,,,,,,,,,,,,,,,,,322.799812952,322.809602797,322.809602797,323.292920344,r,1.0,0.4676859790000662,,,,,sub-136,1,stroop_test,64.71286281528661,
,,,,71.0,11.0,5.0,,,,,,,,,,,,,blau,red,r,0.0,r,1.0,0.7206860010001037,,,,,,,,,,5.0,11.0,71.0,4.0,323.304865214,,,,,,,,,,,,,,,,,323.293375732,323.40108479899993,324.209031179,324.194289465,,,,,,,,,,,,,,,,,,,,,,,,,,,,,,,,,,,324.199595387,324.209031179,324.209031179,324.940343675,r,1.0,0.7206860010001037,,,,,sub-136,1,stroop_test,64.71286281528661,
,,,,72.0,0.0,6.0,,,,,,,,,,,,,rot,blue,b,0.0,b,1.0,0.6275602729999719,,,,,,,,,,6.0,0.0,72.0,2.0,324.950620344,,,,,,,,,,,,,,,,,324.940680338,325.04944045799994,325.850542476,325.838698152,,,,,,,,,,,,,,,,,,,,,,,,,,,,,,,,,,,325.84110891499995,325.850542476,325.850542476,326.484849048,b,1.0,0.6275602729999719,,,,,sub-136,1,stroop_test,64.71286281528661,
,,,,73.0,1.0,6.0,,,,,,,,,,,,,gelb,blue,b,0.0,b,1.0,0.4580988389999447,,,,,,,,,,6.0,1.0,73.0,9.0,326.49574338,,,,,,,,,,,,,,,,,326.485216206,326.579248755,327.382488042,327.365402294,,,,,,,,,,,,,,,,,,,,,,,,,,,,,,,,,,,327.369499292,327.382488042,327.382488042,327.850587206,b,1.0,0.4580988389999447,,,,,sub-136,1,stroop_test,64.71286281528661,
,,,,74.0,2.0,6.0,,,,,,,,,,,,,gelb,red,r,0.0,r,1.0,0.8295435160000579,,,,,,,,,,6.0,2.0,74.0,8.0,327.86200817199995,,,,,,,,,,,,,,,,,327.85091580100004,329.045547528,329.84567546100004,329.83372596999993,,,,,,,,,,,,,,,,,,,,,,,,,,,,,,,,,,,329.83450336299995,329.84567546100004,329.84567546100004,330.68389796,r,1.0,0.8295435160000579,,,,,sub-136,1,stroop_test,64.71286281528661,
,,,,75.0,3.0,6.0,,,,,,,,,,,,,blau,blue,b,1.0,b,1.0,0.6338797450000584,,,,,,,,,,6.0,3.0,75.0,5.0,330.69388597599993,,,,,,,,,,,,,,,,,330.684226051,331.049360237,331.85511107900004,331.842094086,,,,,,,,,,,,,,,,,,,,,,,,,,,,,,,,,,,331.844709298,331.85511107900004,331.85511107900004,332.496561767,b,1.0,0.6338797450000584,,,,,sub-136,1,stroop_test,64.71286281528661,
,,,,76.0,4.0,6.0,,,,,,,,,,,,,gelb,yellow,g,1.0,g,1.0,0.4557559789999459,,,,,,,,,,6.0,4.0,76.0,10.0,332.506851117,,,,,,,,,,,,,,,,,332.49691550700004,332.615987785,333.432350089,333.417285416,,,,,,,,,,,,,,,,,,,,,,,,,,,,,,,,,,,333.4219298,333.432350089,333.432350089,333.890292559,g,1.0,0.4557559789999459,,,,,sub-136,1,stroop_test,64.71286281528661,
,,,,77.0,5.0,6.0,,,,,,,,,,,,,rot,yellow,g,0.0,g,1.0,0.5480254679999916,,,,,,,,,,6.0,5.0,77.0,3.0,333.90052918000004,,,,,,,,,,,,,,,,,333.890694846,335.099154342,335.90586337900004,335.892408326,,,,,,,,,,,,,,,,,,,,,,,,,,,,,,,,,,,335.895775426,335.90586337900004,335.90586337900004,336.45827551,g,1.0,0.5480254679999916,,,,,sub-136,1,stroop_test,64.71286281528661,
,,,,78.0,6.0,6.0,,,,,,,,,,,,,blau,yellow,g,0.0,g,1.0,0.5515303250000443,,,,,,,,,,6.0,6.0,78.0,7.0,336.470673012,,,,,,,,,,,,,,,,,336.45868945099994,336.565734563,337.372204814,337.35876895699994,,,,,,,,,,,,,,,,,,,,,,,,,,,,,,,,,,,337.36241971100003,337.372204814,337.372204814,337.933892349,g,1.0,0.5515303250000443,,,,,sub-136,1,stroop_test,64.71286281528661,
,,,,79.0,7.0,6.0,,,,,,,,,,,,,blau,blue,b,1.0,b,1.0,0.4928964409999707,,,,,,,,,,6.0,7.0,79.0,6.0,337.9439732,,,,,,,,,,,,,,,,,337.93421994100004,338.029130482,338.834798643,338.8219359,,,,,,,,,,,,,,,,,,,,,,,,,,,,,,,,,,,338.82237375399995,338.834798643,338.834798643,339.34059421300003,b,1.0,0.4928964409999707,,,,,sub-136,1,stroop_test,64.71286281528661,
,,,,80.0,8.0,6.0,,,,,,,,,,,,,gelb,yellow,g,1.0,g,1.0,1.581470502000002,,,,,,,,,,6.0,8.0,80.0,11.0,339.364249348,,,,,,,,,,,,,,,,,339.34093832099995,340.549210386,341.364182467,341.33843869500004,,,,,,,,,,,,,,,,,,,,,,,,,,,,,,,,,,,341.34130057,341.364182467,341.364182467,342.95659361699995,g,1.0,1.581470502000002,,,,,sub-136,1,stroop_test,64.71286281528661,
,,,,81.0,9.0,6.0,,,,,,,,,,,,,rot,red,r,1.0,r,1.0,0.6264820320000126,,,,,,,,,,6.0,9.0,81.0,1.0,342.966881706,,,,,,,,,,,,,,,,,342.956924097,343.304848708,344.100279181,344.08842706300004,,,,,,,,,,,,,,,,,,,,,,,,,,,,,,,,,,,344.090869464,344.100279181,344.100279181,344.74178518400004,r,1.0,0.6264820320000126,,,,,sub-136,1,stroop_test,64.71286281528661,
,,,,82.0,10.0,6.0,,,,,,,,,,,,,blau,red,r,0.0,r,1.0,0.4689446609999095,,,,,,,,,,6.0,10.0,82.0,4.0,344.75058578999995,,,,,,,,,,,,,,,,,344.742129753,345.541941177,346.33965969,346.326521953,,,,,,,,,,,,,,,,,,,,,,,,,,,,,,,,,,,346.33023382600004,346.33965969,346.33965969,346.813728124,r,1.0,0.4689446609999095,,,,,sub-136,1,stroop_test,64.71286281528661,
,,,,83.0,11.0,6.0,,,,,,,,,,,,,rot,red,r,1.0,r,1.0,0.707834393999974,,,,,,,,,,6.0,11.0,83.0,0.0,346.824783767,,,,,,,,,,,,,,,,,346.814237003,348.015658281,348.81708075099993,348.80521073700004,,,,,,,,,,,,,,,,,,,,,,,,,,,,,,,,,,,348.80769288399995,348.81708075099993,348.81708075099993,349.534091376,r,1.0,0.707834393999974,,,,,sub-136,1,stroop_test,64.71286281528661,
,,,,84.0,0.0,7.0,,,,,,,,,,,,,rot,blue,b,0.0,b,1.0,0.6599146580000479,,,,,,,,,,7.0,0.0,84.0,2.0,349.54411582700004,,,,,,,,,,,,,,,,,349.534423552,349.633714553,350.432543658,350.419176248,,,,,,,,,,,,,,,,,,,,,,,,,,,,,,,,,,,350.419633053,350.432543658,350.432543658,351.098838187,b,1.0,0.6599146580000479,,,,,sub-136,1,stroop_test,64.71286281528661,
,,,,85.0,1.0,7.0,,,,,,,,,,,,,rot,yellow,g,0.0,g,1.0,0.7498599649999278,,,,,,,,,,7.0,1.0,85.0,3.0,351.10903961199995,,,,,,,,,,,,,,,,,351.099166655,352.290956628,353.087502653,353.076556289,,,,,,,,,,,,,,,,,,,,,,,,,,,,,,,,,,,353.07715421800003,353.087502653,353.087502653,353.840445143,g,1.0,0.7498599649999278,,,,,sub-136,1,stroop_test,64.71286281528661,
,,,,86.0,2.0,7.0,,,,,,,,,,,,,blau,blue,b,1.0,b,1.0,0.6294538070000044,,,,,,,,,,7.0,2.0,86.0,6.0,353.86398307,,,,,,,,,,,,,,,,,353.84077487699994,354.640703155,355.43842474,355.425225846,,,,,,,,,,,,,,,,,,,,,,,,,,,,,,,,,,,355.428021095,355.43842474,355.43842474,356.07337870799995,b,1.0,0.6294538070000044,,,,,sub-136,1,stroop_test,64.71286281528661,
,,,,87.0,3.0,7.0,,,,,,,,,,,,,gelb,yellow,g,1.0,g,1.0,0.7868849690000843,,,,,,,,,,7.0,3.0,87.0,10.0,356.08724665499994,,,,,,,,,,,,,,,,,356.073955606,357.265580701,358.06473675099994,358.05008814099995,,,,,,,,,,,,,,,,,,,,,,,,,,,,,,,,,,,358.054477661,358.06473675099994,358.06473675099994,358.856800834,g,1.0,0.7868849690000843,,,,,sub-136,1,stroop_test,64.71286281528661,
,,,,88.0,4.0,7.0,,,,,,,,,,,,,rot,red,r,1.0,g,0.0,0.5064976109999861,,,,,,,,,,7.0,4.0,88.0,1.0,358.866988341,,,,,,,,,,,,,,,,,358.857159605,360.065638004,360.866844936,360.855004396,,,,,,,,,,,,,,,,,,,,,,,,,,,,,,,,,,,360.857346462,360.866844936,360.866844936,361.378273745,g,0.0,0.5064976109999861,,,,,sub-136,1,stroop_test,64.71286281528661,
,,,,89.0,5.0,7.0,,,,,,,,,,,,,blau,blue,b,1.0,b,1.0,0.7207380160000412,,,,,,,,,,7.0,5.0,89.0,5.0,361.38947361499993,,,,,,,,,,,,,,,,,361.379362028,361.732065467,362.529033211,362.516123361,,,,,,,,,,,,,,,,,,,,,,,,,,,,,,,,,,,362.519537715,362.529033211,362.529033211,363.256379401,b,1.0,0.7207380160000412,,,,,sub-136,1,stroop_test,64.71286281528661,
,,,,90.0,6.0,7.0,,,,,,,,,,,,,gelb,blue,b,0.0,b,1.0,2.237610344000018,,,,,,,,,,7.0,6.0,90.0,9.0,363.26669014,,,,,,,,,,,,,,,,,363.256713312,363.358692267,364.18209261,364.164827013,,,,,,,,,,,,,,,,,,,,,,,,,,,,,,,,,,,364.167530234,364.18209261,364.18209261,366.423686773,b,1.0,2.237610344000018,,,,,sub-136,1,stroop_test,64.71286281528661,
,,,,91.0,7.0,7.0,,,,,,,,,,,,,gelb,red,r,0.0,r,1.0,0.7646845659999144,,,,,,,,,,7.0,7.0,91.0,8.0,366.436083189,,,,,,,,,,,,,,,,,366.42406709,367.632211789,368.437406965,368.425286212,,,,,,,,,,,,,,,,,,,,,,,,,,,,,,,,,,,368.425751599,368.437406965,368.437406965,369.20721500799993,r,1.0,0.7646845659999144,,,,,sub-136,1,stroop_test,64.71286281528661,
,,,,92.0,8.0,7.0,,,,,,,,,,,,,rot,red,r,1.0,r,1.0,0.547547346999977,,,,,,,,,,7.0,8.0,92.0,0.0,369.230605257,,,,,,,,,,,,,,,,,369.207548078,369.307785523,370.115656895,370.102825828,,,,,,,,,,,,,,,,,,,,,,,,,,,,,,,,,,,370.105804788,370.115656895,370.115656895,370.66745222,r,1.0,0.547547346999977,,,,,sub-136,1,stroop_test,64.71286281528661,
,,,,93.0,9.0,7.0,,,,,,,,,,,,,blau,yellow,g,0.0,g,1.0,1.1854730089999066,,,,,,,,,,7.0,9.0,93.0,7.0,370.677646579,,,,,,,,,,,,,,,,,370.66779147,371.871165496,372.672490495,372.659185204,,,,,,,,,,,,,,,,,,,,,,,,,,,,,,,,,,,372.663068515,372.672490495,372.672490495,373.86683785,g,1.0,1.1854730089999066,,,,,sub-136,1,stroop_test,64.71286281528661,
,,,,94.0,10.0,7.0,,,,,,,,,,,,,blau,red,r,0.0,r,1.0,0.851417195999943,,,,,,,,,,7.0,10.0,94.0,4.0,373.87684134,,,,,,,,,,,,,,,,,373.867166961,374.670601387,375.474790598,375.464441171,,,,,,,,,,,,,,,,,,,,,,,,,,,,,,,,,,,375.465285619,375.474790598,375.474790598,376.334249244,r,1.0,0.851417195999943,,,,,sub-136,1,stroop_test,64.71286281528661,
,,,,95.0,11.0,7.0,,,,,,,,,,,,,gelb,yellow,g,1.0,g,1.0,0.796431087999963,,,,,,,,,,7.0,11.0,95.0,11.0,376.345038533,,,,,,,,,,,,,,,,,376.334620634,376.697053812,377.504681541,377.491437672,,,,,,,,,,,,,,,,,,,,,,,,,,,,,,,,,,,377.494219255,377.504681541,377.504681541,378.306300149,g,1.0,0.796431087999963,,,,,sub-136,1,stroop_test,64.71286281528661,
,,,,96.0,0.0,8.0,,,,,,,,,,,,,blau,blue,b,1.0,b,1.0,0.5700176290000627,,,,,,,,,,8.0,0.0,96.0,6.0,378.316490575,,,,,,,,,,,,,,,,,378.306636539,378.405993773,379.216237173,379.20099519,,,,,,,,,,,,,,,,,,,,,,,,,,,,,,,,,,,379.203414999,379.216237173,379.216237173,379.802045519,b,1.0,0.5700176290000627,,,,,sub-136,1,stroop_test,64.71286281528661,
,,,,97.0,1.0,8.0,,,,,,,,,,,,,rot,blue,b,0.0,b,1.0,0.7813966429999937,,,,,,,,,,8.0,1.0,97.0,2.0,379.815048313,,,,,,,,,,,,,,,,,379.802386421,381.004484447,381.7999975,381.787925627,,,,,,,,,,,,,,,,,,,,,,,,,,,,,,,,,,,381.79043846,381.7999975,381.7999975,382.584562053,b,1.0,0.7813966429999937,,,,,sub-136,1,stroop_test,64.71286281528661,
,,,,98.0,2.0,8.0,,,,,,,,,,,,,rot,yellow,g,0.0,g,1.0,1.38091944100006,,,,,,,,,,8.0,2.0,98.0,3.0,382.594648072,,,,,,,,,,,,,,,,,382.58489537899993,383.388541955,384.186962271,384.175846308,,,,,,,,,,,,,,,,,,,,,,,,,,,,,,,,,,,384.176601381,384.186962271,384.186962271,385.57981289399993,g,1.0,1.38091944100006,,,,,sub-136,1,stroop_test,64.71286281528661,
,,,,99.0,3.0,8.0,,,,,,,,,,,,,blau,blue,b,1.0,b,1.0,0.6213162689999763,,,,,,,,,,8.0,3.0,99.0,5.0,385.59073131,,,,,,,,,,,,,,,,,385.580177849,386.774782127,387.57875346,387.566167357,,,,,,,,,,,,,,,,,,,,,,,,,,,,,,,,,,,387.569086438,387.57875346,387.57875346,388.21231936800007,b,1.0,0.6213162689999763,,,,,sub-136,1,stroop_test,64.71286281528661,
,,,,100.0,4.0,8.0,,,,,,,,,,,,,gelb,yellow,g,1.0,g,1.0,0.7813435180000852,,,,,,,,,,8.0,4.0,100.0,10.0,388.222879473,,,,,,,,,,,,,,,,,388.212801823,389.0118201300001,389.8210860160001,389.8057338299999,,,,,,,,,,,,,,,,,,,,,,,,,,,,,,,,,,,389.8101720179999,389.8210860160001,389.8210860160001,390.604702102,g,1.0,0.7813435180000852,,,,,sub-136,1,stroop_test,64.71286281528661,
,,,,101.0,5.0,8.0,,,,,,,,,,,,,gelb,yellow,g,1.0,g,1.0,0.5179056399999808,,,,,,,,,,8.0,5.0,101.0,11.0,390.615037361,,,,,,,,,,,,,,,,,390.6050359249999,390.707462474,391.508979239,391.499095974,,,,,,,,,,,,,,,,,,,,,,,,,,,,,,,,,,,391.49963856400007,391.508979239,391.508979239,392.032856463,g,1.0,0.5179056399999808,,,,,sub-136,1,stroop_test,64.71286281528661,
,,,,102.0,6.0,8.0,,,,,,,,,,,,,gelb,red,r,0.0,r,1.0,0.7533322550000321,,,,,,,,,,8.0,6.0,102.0,8.0,392.043210572,,,,,,,,,,,,,,,,,392.033191142,393.2485256629999,394.0614440579999,394.0495653009999,,,,,,,,,,,,,,,,,,,,,,,,,,,,,,,,,,,394.0504922250001,394.0614440579999,394.0614440579999,394.82487582400006,r,1.0,0.7533322550000321,,,,,sub-136,1,stroop_test,64.71286281528661,
,,,,103.0,7.0,8.0,,,,,,,,,,,,,rot,red,r,1.0,r,1.0,0.685963437999817,,,,,,,,,,8.0,7.0,103.0,1.0,394.8365238109999,,,,,,,,,,,,,,,,,394.8252137789999,395.62905413400006,396.436944897,396.4217619739999,,,,,,,,,,,,,,,,,,,,,,,,,,,,,,,,,,,396.4258779569999,396.436944897,396.436944897,397.127739183,r,1.0,0.685963437999817,,,,,sub-136,1,stroop_test,64.71286281528661,
,,,,104.0,8.0,8.0,,,,,,,,,,,,,blau,yellow,g,0.0,g,1.0,0.7357247770000868,,,,,,,,,,8.0,8.0,104.0,7.0,397.138792744,,,,,,,,,,,,,,,,,397.128567542,397.9316477240001,398.72733274199993,398.71557354999993,,,,,,,,,,,,,,,,,,,,,,,,,,,,,,,,,,,398.718007546,398.72733274199993,398.72733274199993,399.466892911,g,1.0,0.7357247770000868,,,,,sub-136,1,stroop_test,64.71286281528661,
,,,,105.0,9.0,8.0,,,,,,,,,,,,,gelb,blue,b,0.0,b,1.0,0.7267004989998895,,,,,,,,,,8.0,9.0,105.0,9.0,399.4768366059999,,,,,,,,,,,,,,,,,399.4672259299999,400.28007186,401.0872743440001,401.071704801,,,,,,,,,,,,,,,,,,,,,,,,,,,,,,,,,,,401.075931361,401.0872743440001,401.0872743440001,401.81716911,b,1.0,0.7267004989998895,,,,,sub-136,1,stroop_test,64.71286281528661,
,,,,106.0,10.0,8.0,,,,,,,,,,,,,rot,red,r,1.0,r,1.0,0.8494590129998869,,,,,,,,,,8.0,10.0,106.0,0.0,401.82719389400006,,,,,,,,,,,,,,,,,401.81752585800007,403.015105652,403.831705143,403.8140668489999,,,,,,,,,,,,,,,,,,,,,,,,,,,,,,,,,,,403.81670447,403.831705143,403.831705143,404.698319905,r,1.0,0.8494590129998869,,,,,sub-136,1,stroop_test,64.71286281528661,
,,,,107.0,11.0,8.0,,,,,,,,,,,,,blau,red,r,0.0,r,1.0,0.70828905999997,,,,,,,,,,8.0,11.0,107.0,4.0,404.71469864900007,,,,,,,,,,,,,,,,,404.698652019,405.0450213380001,405.8533658729999,405.8386692800001,,,,,,,,,,,,,,,,,,,,,,,,,,,,,,,,,,,405.8424536429999,405.8533658729999,405.8533658729999,406.5728936479999,r,1.0,0.70828905999997,,,,,sub-136,1,stroop_test,64.71286281528661,
,,,,108.0,0.0,9.0,,,,,,,,,,,,,blau,blue,b,1.0,b,1.0,0.7914522909998141,,,,,,,,,,9.0,0.0,108.0,6.0,406.5831031290001,,,,,,,,,,,,,,,,,406.5732279099999,406.922873573,407.7204028350001,407.70908161,,,,,,,,,,,,,,,,,,,,,,,,,,,,,,,,,,,407.7096865279999,407.7204028350001,407.7204028350001,408.5221894939999,b,1.0,0.7914522909998141,,,,,sub-136,1,stroop_test,64.71286281528661,
,,,,109.0,1.0,9.0,,,,,,,,,,,,,blau,yellow,g,0.0,g,1.0,0.8827510549999715,,,,,,,,,,9.0,1.0,109.0,7.0,408.5324802260001,,,,,,,,,,,,,,,,,408.52253733200007,409.316560952,410.117401052,410.10464630700005,,,,,,,,,,,,,,,,,,,,,,,,,,,,,,,,,,,410.10518255,410.117401052,410.117401052,411.0156362649999,g,1.0,0.8827510549999715,,,,,sub-136,1,stroop_test,64.71286281528661,
,,,,110.0,2.0,9.0,,,,,,,,,,,,,rot,yellow,g,0.0,g,1.0,0.7183497030000581,,,,,,,,,,9.0,2.0,110.0,3.0,411.024028795,,,,,,,,,,,,,,,,,411.015973342,411.1233540950001,411.9221617889999,411.9088368009999,,,,,,,,,,,,,,,,,,,,,,,,,,,,,,,,,,,411.9127806,411.9221617889999,411.9221617889999,412.6495066060001,g,1.0,0.7183497030000581,,,,,sub-136,1,stroop_test,64.71286281528661,
,,,,111.0,3.0,9.0,,,,,,,,,,,,,rot,blue,b,0.0,b,1.0,0.7382425839998632,,,,,,,,,,9.0,3.0,111.0,2.0,412.6597516610001,,,,,,,,,,,,,,,,,412.649841392,413.8496575810001,414.6573390739999,414.644078356,,,,,,,,,,,,,,,,,,,,,,,,,,,,,,,,,,,414.645717707,414.6573390739999,414.6573390739999,415.399991355,b,1.0,0.7382425839998632,,,,,sub-136,1,stroop_test,64.71286281528661,
,,,,112.0,4.0,9.0,,,,,,,,,,,,,gelb,yellow,g,1.0,g,1.0,0.8683573680000336,,,,,,,,,,9.0,4.0,112.0,11.0,415.410181674,,,,,,,,,,,,,,,,,415.40033165400007,415.5080668229999,416.315112848,416.301952572,,,,,,,,,,,,,,,,,,,,,,,,,,,,,,,,,,,416.30513640800007,416.315112848,416.315112848,417.1990294369999,g,1.0,0.8683573680000336,,,,,sub-136,1,stroop_test,64.71286281528661,
,,,,113.0,5.0,9.0,,,,,,,,,,,,,rot,red,r,1.0,r,1.0,0.6297851659999196,,,,,,,,,,9.0,5.0,113.0,0.0,417.2073904319999,,,,,,,,,,,,,,,,,417.19936810799993,417.291182588,418.098674213,418.08650683100007,,,,,,,,,,,,,,,,,,,,,,,,,,,,,,,,,,,418.08900365400007,418.098674213,418.098674213,418.738699266,r,1.0,0.6297851659999196,,,,,sub-136,1,stroop_test,64.71286281528661,
,,,,114.0,6.0,9.0,,,,,,,,,,,,,rot,red,r,1.0,r,1.0,0.6343286519997946,,,,,,,,,,9.0,6.0,114.0,1.0,418.748835068,,,,,,,,,,,,,,,,,418.7390586769999,419.9372894520001,420.7440033060001,420.732699451,,,,,,,,,,,,,,,,,,,,,,,,,,,,,,,,,,,420.733493544,420.7440033060001,420.7440033060001,421.3829126229999,r,1.0,0.6343286519997946,,,,,sub-136,1,stroop_test,64.71286281528661,
,,,,115.0,7.0,9.0,,,,,,,,,,,,,gelb,red,r,0.0,r,1.0,0.6171774100000675,,,,,,,,,,9.0,7.0,115.0,8.0,421.3931013949999,,,,,,,,,,,,,,,,,421.3832444860001,422.582569025,423.384717796,423.36775046700006,,,,,,,,,,,,,,,,,,,,,,,,,,,,,,,,,,,423.37220494,423.384717796,423.384717796,424.016084193,r,1.0,0.6171774100000675,,,,,sub-136,1,stroop_test,64.71286281528661,
,,,,116.0,8.0,9.0,,,,,,,,,,,,,blau,blue,b,1.0,b,1.0,0.8123168209999676,,,,,,,,,,9.0,8.0,116.0,5.0,424.026310352,,,,,,,,,,,,,,,,,424.0164639850001,424.8301243310001,425.626976508,425.615251721,,,,,,,,,,,,,,,,,,,,,,,,,,,,,,,,,,,425.6177246809999,425.626976508,425.626976508,426.451070407,b,1.0,0.8123168209999676,,,,,sub-136,1,stroop_test,64.71286281528661,
,,,,117.0,9.0,9.0,,,,,,,,,,,,,blau,red,r,0.0,r,1.0,1.1091791210001247,,,,,,,,,,9.0,9.0,117.0,4.0,426.4627119180001,,,,,,,,,,,,,,,,,426.451582482,427.6497572469999,428.458081678,428.4486106349999,,,,,,,,,,,,,,,,,,,,,,,,,,,,,,,,,,,428.4490472629999,428.458081678,428.458081678,429.5794895979999,r,1.0,1.1091791210001247,,,,,sub-136,1,stroop_test,64.71286281528661,
,,,,118.0,10.0,9.0,,,,,,,,,,,,,gelb,yellow,g,1.0,g,1.0,0.5042690450000009,,,,,,,,,,9.0,10.0,118.0,10.0,429.589852452,,,,,,,,,,,,,,,,,429.5798236459999,430.383308476,431.1823190869999,431.1704821130001,,,,,,,,,,,,,,,,,,,,,,,,,,,,,,,,,,,431.172881955,431.1823190869999,431.1823190869999,431.691161311,g,1.0,0.5042690450000009,,,,,sub-136,1,stroop_test,64.71286281528661,
,,,,119.0,11.0,9.0,,,,,,,,,,,,,gelb,blue,b,0.0,b,1.0,0.9133821210000406,,,,,,,,,,9.0,11.0,119.0,9.0,431.702492646,,,,,,,,,,,,,,,,,431.6915013879999,431.7982383980001,432.5915105989999,432.5818027679999,,,,,,,,,,,,,,,,,,,,,,,,,,,,,,,,,,,432.5823397759999,432.5915105989999,432.5915105989999,433.51656870599993,b,1.0,0.9133821210000406,,,,,sub-136,1,stroop_test,64.71286281528661,
,,,,,,,,,,,,,,,,,,,,,,,,,,,,,,,,,,,,,,,,,,,,,,,,,,,,,,,,,,,,,,,,,,,,,,,,,,,,,,,,,,,,,,,,,,,,,,,,,,,,,,433.516727025,433.52811261599993,438.5198148840001,sub-136,1,stroop_test,64.71286281528661,
