direction,corrAns,thisN,thisTrialN,thisRepN,respDots.keys,respDots.corr,respDots.rt,respDots.duration,randomInstr,respRandomInstr.keys,respRandomInstr.rt,respRandomInstr.duration,practice_trials.thisRepN,practice_trials.thisTrialN,practice_trials.thisN,practice_trials.thisIndex,instr_trials.thisRepN,instr_trials.thisTrialN,instr_trials.thisN,instr_trials.thisIndex,test_trials.thisRepN,test_trials.thisTrialN,test_trials.thisN,test_trials.thisIndex,thisRow.t,notes,general_instruction.started,textGeneralInstr.started,respGeneralInstr.started,general_instruction.stopped,respGeneralInstr.keys,respGeneralInstr.rt,respGeneralInstr.duration,ITI.started,fixcross.started,fixcross.stopped,ITI.stopped,dots.started,backgroundDots.started,stimulusDots.started,respDots.started,dots.stopped,practice_trials.respDots.keys,practice_trials.respDots.corr,practice_trials.respDots.rt,practice_trials.respDots.duration,feedback.started,textFeedback.started,feedback.stopped,textFeedback.stopped,info.started,textInfo.started,keyRespInfo.started,info.stopped,keyRespInfo.keys,keyRespInfo.rt,keyRespInfo.duration,test_instruction.started,textTestInstr.started,respTestInstr.started,test_instruction.stopped,respTestInstr.keys,respTestInstr.rt,respTestInstr.duration,random_instruction.started,textRandomInstr.started,respRandomInstr.started,random_instruction.stopped,instr_trials.respRandomInstr.keys,instr_trials.respRandomInstr.rt,instr_trials.respRandomInstr.duration,test_trials.respDots.keys,test_trials.respDots.corr,test_trials.respDots.rt,test_trials.respDots.duration,goodbye.started,textGoodbye.started,goodbye.stopped,participant,session,expName,frameRate,Unnamed: 86
,,,,,,,,,,,,,,,,,,,,,,,,,,,0.0082210199907422,0.0293326859973603,0.0293326859973603,1.34786127199186,space,0.9896586960094282,,,,,,,,,,,,,,,,,,,,,,,,,,,,,,,,,,,,,,,,,,,,,,,sub-019,1,random_dot,60.00154791900696,
right,right,0.0,0.0,0.0,right,1.0,2.7351844950026134,,,,,,0.0,0.0,0.0,1.0,,,,,,,,,1.4313782440003706,,,,,,,,,1.4194453870004509,1.7049510539945911,2.505239228994469,2.488509554998018,2.489014623992261,2.505239228994469,2.505239228994469,2.505239228994469,5.255168728996068,right,1.0,2.7351844950026134,,5.261320562000037,5.308203642998706,5.771905007990426,,,,,,,,,,,,,,,,,,,,,,,,,,,,,,sub-019,1,random_dot,60.00154791900696,
left,left,1.0,1.0,0.0,left,1.0,2.5722464339924045,,,,,,0.0,1.0,1.0,0.0,,,,,,,,,5.788493323998409,,,,,,,,,5.772345132994815,6.570025580993388,7.369782095993287,7.353808243002277,7.354097571995226,7.369782095993287,7.369782095993287,7.369782095993287,9.955372142998383,left,1.0,2.5722464339924045,,9.955477417999646,9.972471447996211,10.455795287998626,,,,,,,,,,,,,,,,,,,,,,,,,,,,,,sub-019,1,random_dot,60.00154791900696,
left,left,2.0,0.0,1.0,left,1.0,0.9398198499984574,,,,,,1.0,0.0,2.0,0.0,,,,,,,,,10.472209122992354,,,,,,,,,10.456202098997892,11.655719761998624,12.455780233998668,12.439348365995102,12.439829251001356,12.455780233998668,12.455780233998668,12.455780233998668,13.404879052002798,left,1.0,0.9398198499984574,,13.4050195680029,13.422599219993572,13.906040371992276,,,,,,,,,,,,,,,,,,,,,,,,,,,,,,sub-019,1,random_dot,60.00154791900696,
right,right,3.0,1.0,1.0,right,1.0,1.2316816120001022,,,,,,1.0,1.0,3.0,1.0,,,,,,,,,13.922646698003518,,,,,,,,,13.906449150003027,14.005735942002502,14.8058133579907,14.78960928999004,14.790066467001452,14.8058133579907,14.8058133579907,14.8058133579907,16.03974607300188,right,1.0,1.2316816120001022,,16.039883057994302,16.05566040999838,16.53962237399537,16.55583021599159,,,,,,,,,,,,,,,,,,,,,,,,,,,,,sub-019,1,random_dot,60.00154791900696,
left,left,4.0,0.0,2.0,right,0.0,1.591710824999609,,,,,,2.0,0.0,4.0,0.0,,,,,,,,,16.55583021599159,,,,,,,,,16.54001257100026,16.889325936994283,17.689442418995895,17.673093827994308,17.673553244996583,17.689442418995895,17.689442418995895,17.689442418995895,19.28893585599144,right,0.0,1.591710824999609,,19.29399804699642,19.30578528899059,19.78970901700086,,,,,,,,,,,,,,,,,,,,,,,,,,,,,,sub-019,1,random_dot,60.00154791900696,
right,right,5.0,1.0,2.0,left,0.0,0.9142705980048048,,,,,,2.0,1.0,5.0,1.0,,,,,,,,,19.80583460799244,,,,,,,,,19.7901425989985,20.5896407370019,21.389788917993428,21.37325221399078,21.373717616996142,21.389788917993428,21.389788917993428,21.389788917993428,22.306792931995005,left,0.0,0.9142705980048048,,22.30691084600403,22.32107660100155,22.80671136199089,22.823043529991992,,,,,,,,,,,,,,,,,,,,,,,,,,,,,sub-019,1,random_dot,60.00154791900696,
right,right,6.0,0.0,3.0,right,1.0,0.5610632180032553,,,,,,3.0,0.0,6.0,1.0,,,,,,,,,22.823043529991992,,,,,,,,,22.807101338999928,24.00647449599637,24.80660775800061,24.790296335995663,24.790752278990112,24.80660775800061,24.80660775800061,24.80660775800061,25.373018047001096,right,1.0,0.5610632180032553,,25.37620710900228,25.389553889996023,25.87335407899809,,,,,,,,,,,,,,,,,,,,,,,,,,,,,,sub-019,1,random_dot,60.00154791900696,
left,left,7.0,1.0,3.0,left,1.0,1.1241142749931896,,,,,,3.0,1.0,7.0,0.0,,,,,,,,,25.89008446599473,,,,,,,,,25.87376246700296,25.973450311998025,26.773518233996583,26.75706060200173,26.75752678400022,26.773518233996583,26.773518233996583,26.773518233996583,27.90610467699298,left,1.0,1.1241142749931896,,27.906190041001537,27.92342878699128,28.40707850799663,,,,,,,,,,,,,,,,,,,,,,,,,,,,,,sub-019,1,random_dot,60.00154791900696,
left,left,8.0,0.0,4.0,left,1.0,0.8983920949976891,,,,,,4.0,0.0,8.0,0.0,,,,,,,,,28.4234907200007,,,,,,,,,28.407488386001205,29.60693211299076,30.40721965600096,30.390770693993545,30.391233431000728,30.40721965600096,30.40721965600096,30.40721965600096,31.30729828600306,left,1.0,0.8983920949976891,,31.30744216599851,31.32336318900343,31.80732821399579,31.823771957991998,,,,,,,,,,,,,,,,,,,,,,,,,,,,,sub-019,1,random_dot,60.00154791900696,
right,right,9.0,1.0,4.0,right,1.0,1.0746336779993726,,,,,,4.0,1.0,9.0,1.0,,,,,,,,,31.823771957991998,,,,,,,,,31.807713699992743,31.907055641990155,32.70727089600405,32.69055546799791,32.69101175099786,32.70727089600405,32.70727089600405,32.70727089600405,33.79009687399957,right,1.0,1.0746336779993726,,33.79019343799155,33.80707584299671,34.29078175900213,,,,,,,,,,,,,,,,,,,,,,,,,,,,,,sub-019,1,random_dot,60.00154791900696,
left,left,10.0,0.0,5.0,left,1.0,3.467353578991606,,,,,,5.0,0.0,10.0,0.0,,,,,,,,,34.30732463799359,,,,,,,,,34.291195721991244,34.64068837100058,35.440865326992935,35.424327294997056,35.42478388600284,35.440865326992935,35.440865326992935,35.440865326992935,38.92464323599416,left,1.0,3.467353578991606,,38.92477173599764,38.940591844992014,39.42453547599143,39.44100013199204,,,,,,,,,,,,,,,,,,,,,,,,,,,,,sub-019,1,random_dot,60.00154791900696,
right,right,11.0,1.0,5.0,right,1.0,0.6888728079939028,,,,,,5.0,1.0,11.0,1.0,,,,,,,,,39.44100013199204,,,,,,,,,39.424923187994864,40.224247745994944,41.02437922300305,41.00808451499324,41.00854098999116,41.02437922300305,41.02437922300305,41.02437922300305,41.72463154500292,right,1.0,0.6888728079939028,,41.72475958499126,41.74112856599095,42.224803089004126,42.24108033000084,,,,,,,,,,,,,,,,,,,,,,,,,,,,,sub-019,1,random_dot,60.00154791900696,
left,left,12.0,0.0,6.0,left,1.0,0.7075979390065186,,,,,,6.0,0.0,12.0,0.0,,,,,,,,,42.24108033000084,,,,,,,,,42.225193557998864,42.323456219994114,43.124467325003934,43.10809854399122,43.10855667499709,43.124467325003934,43.124467325003934,43.124467325003934,43.84039051699801,left,1.0,0.7075979390065186,,43.84047481199377,43.85787485999754,44.34108873500372,,,,,,,,,,,,,,,,,,,,,,,,,,,,,,sub-019,1,random_dot,60.00154791900696,
right,right,13.0,1.0,6.0,right,1.0,0.8225691910047317,,,,,,6.0,1.0,13.0,1.0,,,,,,,,,44.35808543598978,,,,,,,,,44.34149877500022,45.54133138399629,46.34135848400183,46.32414978399174,46.32460120700125,46.34135848400183,46.34135848400183,46.34135848400183,47.17493186300271,right,1.0,0.8225691910047317,,47.17506033999962,47.19154838900431,47.67497728799936,47.6915022500034,,,,,,,,,,,,,,,,,,,,,,,,,,,,,sub-019,1,random_dot,60.00154791900696,
left,left,14.0,0.0,7.0,right,0.0,0.661730185005581,,,,,,7.0,0.0,14.0,0.0,,,,,,,,,47.6915022500034,,,,,,,,,47.675364442999125,48.47489460499492,49.27493278699694,49.25861120199261,49.25906792200112,49.27493278699694,49.27493278699694,49.27493278699694,49.94135691100382,right,0.0,0.661730185005581,,49.94537135500286,49.9575189419993,50.44185879199358,,,,,,,,,,,,,,,,,,,,,,,,,,,,,,sub-019,1,random_dot,60.00154791900696,
right,right,15.0,1.0,7.0,right,1.0,1.3237718770105855,,,,,,7.0,1.0,15.0,1.0,,,,,,,,,50.45834797699354,,,,,,,,,50.442271017993335,51.64173127699178,52.441935694994754,52.42553212099301,52.42598808699404,52.441935694994754,52.441935694994754,52.441935694994754,53.77455595499487,right,1.0,1.3237718770105855,,53.77670765400399,53.79202073199849,54.27540583300288,,,,,,,,,,,,,,,,,,,,,,,,,,,,,,sub-019,1,random_dot,60.00154791900696,
right,right,16.0,0.0,8.0,left,0.0,0.7310243160027312,,,,,,8.0,0.0,16.0,1.0,,,,,,,,,54.2919827089936,,,,,,,,,54.27582192099362,54.625292648997856,55.42544238400296,55.40890383299848,55.4093656729965,55.42544238400296,55.42544238400296,55.42544238400296,56.15920974400069,left,0.0,0.7310243160027312,,56.16238400299335,56.17501747299684,56.65902700799052,56.675371161996736,,,,,,,,,,,,,,,,,,,,,,,,,,,,,sub-019,1,random_dot,60.00154791900696,
left,left,17.0,1.0,8.0,left,1.0,2.243370540003525,,,,,,8.0,1.0,17.0,0.0,,,,,,,,,56.675371161996736,,,,,,,,,56.65941315499367,57.00881002099777,57.8088207779947,57.7925957779953,57.793059438990895,57.8088207779947,57.8088207779947,57.8088207779947,60.05857266999374,left,1.0,2.243370540003525,,60.06184791999112,60.075382880997495,60.55925864499295,,,,,,,,,,,,,,,,,,,,,,,,,,,,,,sub-019,1,random_dot,60.00154791900696,
left,left,18.0,0.0,9.0,right,0.0,3.765986793994671,,,,,,9.0,0.0,18.0,0.0,,,,,,,,,60.57577854600095,,,,,,,,,60.55966899999476,60.658996928992565,61.45927456399659,61.442630734993145,61.44309561800037,61.45927456399659,61.45927456399659,61.45927456399659,65.2268979819928,right,0.0,3.765986793994671,,65.2304795809905,65.24102604300424,65.72641731100157,65.74264255799062,,,,,,,,,,,,,,,,,,,,,,,,,,,,,sub-019,1,random_dot,60.00154791900696,
right,right,19.0,1.0,9.0,right,1.0,0.8424762439972255,,,,,,9.0,1.0,19.0,1.0,,,,,,,,,65.74264255799062,,,,,,,,,65.72680731100263,66.94016149999516,67.742833804994,67.7264743699925,67.72693582100328,67.742833804994,67.742833804994,67.742833804994,68.59207230999891,right,1.0,0.8424762439972255,,68.59489975200268,68.60742982299416,69.0931237229961,,,,,,,,,,,,,,,,,,,,,,,,,,,,,,sub-019,1,random_dot,60.00154791900696,
,,,,,,,,,,,,,,,,,,,,,,,,,,,,,,,,,,,,,,,,,,,,,,,,,,,69.09329106299265,69.10968781200063,69.10968781200063,70.67724894999992,space,1.5516029319987863,,,,,,,,,,,,,,,,,,,,,,,sub-019,1,random_dot,60.00154791900696,
,,,,,,,,,,,,,,,,,,,,,,,,,,,,,,,,,,,,,,,,,,,,,,,,,,,,,,,,,,70.67735392399481,70.69319277300383,70.69319277300383,72.72682292800164,space,2.0169861799950013,,,,,,,,,,,,,,,,sub-019,1,random_dot,60.00154791900696,
right,right,0.0,0.0,0.0,right,1.0,0.5454898699972546,,accuracy,space,0.8471461940062,,,,,,0.0,0.0,0.0,0.0,0.0,0.0,0.0,1.0,73.64284954799223,,,,,,,,,73.63311555900145,73.97656611900311,74.77665793099732,74.76033439599269,74.76081092399545,74.77665793099732,74.77665793099732,74.77665793099732,75.32688215200324,,,,,,,,,,,,,,,,,,,,,,,72.75928109099914,72.76906011000392,72.76906011000392,73.62694962599198,space,0.8471461940062,,right,1.0,0.5454898699972546,,,,,sub-019,1,random_dot,60.00154791900696,
left,left,1.0,1.0,0.0,right,0.0,0.9951592989964412,,accuracy,space,0.8471461940062,,,,,,0.0,0.0,0.0,0.0,0.0,1.0,1.0,0.0,75.3431814689975,,,,,,,,,75.32727388899366,76.1266567690036,76.92678311700001,76.91046652499062,76.91092523399857,76.92678311700001,76.92678311700001,76.92678311700001,77.92701248900266,,,,,,,,,,,,,,,,,,,,,,,,,,,,,,right,0.0,0.9951592989964412,,,,,sub-019,1,random_dot,60.00154791900696,
right,right,2.0,0.0,1.0,right,1.0,1.6200826989952477,,accuracy,space,0.8471461940062,,,,,,0.0,0.0,0.0,0.0,1.0,0.0,2.0,1.0,77.9435461039975,,,,,,,,,77.92738960200222,79.12697634399228,79.92705586699594,79.91059866899741,79.91105928499019,79.92705586699594,79.92705586699594,79.92705586699594,81.56062619699514,,,,,,,,,,,,,,,,,,,,,,,,,,,,,,right,1.0,1.6200826989952477,,,,,sub-019,1,random_dot,60.00154791900696,
left,left,3.0,1.0,1.0,left,1.0,2.7897766230016714,,accuracy,space,0.8471461940062,,,,,,0.0,0.0,0.0,0.0,1.0,1.0,3.0,0.0,81.57695480200346,,,,,,,,,81.56107398199674,82.36047573799442,83.16059907499584,83.14429033199849,83.14474822899501,83.16059907499584,83.16059907499584,83.16059907499584,85.96034345499356,,,,,,,,,,,,,,,,,,,,,,,,,,,,,,left,1.0,2.7897766230016714,,,,,sub-019,1,random_dot,60.00154791900696,
right,right,4.0,0.0,2.0,right,1.0,0.9778652430104556,,accuracy,space,0.8471461940062,,,,,,0.0,0.0,0.0,0.0,2.0,0.0,4.0,1.0,85.9775017429929,,,,,,,,,85.96078941499582,86.76096384799166,87.56112096899597,87.54463001599652,87.54508771600376,87.56112096899597,87.56112096899597,87.56112096899597,88.54397042100027,,,,,,,,,,,,,,,,,,,,,,,,,,,,,,right,1.0,0.9778652430104556,,,,,sub-019,1,random_dot,60.00154791900696,
left,left,5.0,1.0,2.0,left,1.0,1.8704242880048696,,accuracy,space,0.8471461940062,,,,,,0.0,0.0,0.0,0.0,2.0,1.0,5.0,0.0,88.56077027299034,,,,,,,,,88.54436314999475,89.34432022499095,90.14442067100026,90.12810825499764,90.12856475899753,90.14442067100026,90.14442067100026,90.14442067100026,92.02782936699803,,,,,,,,,,,,,,,,,,,,,,,,,,,,,,left,1.0,1.8704242880048696,,,,,sub-019,1,random_dot,60.00154791900696,
right,right,6.0,0.0,3.0,right,1.0,0.8038420859957114,,accuracy,space,0.8471461940062,,,,,,0.0,0.0,0.0,0.0,3.0,0.0,6.0,1.0,92.04455073999998,,,,,,,,,92.02817995699296,92.1277909539931,92.92796407299464,92.91151475599328,92.91197045199806,92.92796407299464,92.92796407299464,92.92796407299464,93.7449539340014,,,,,,,,,,,,,,,,,,,,,,,,,,,,,,right,1.0,0.8038420859957114,,,,,sub-019,1,random_dot,60.00154791900696,
left,left,7.0,1.0,3.0,left,1.0,1.6055274959944654,,accuracy,space,0.8471461940062,,,,,,0.0,0.0,0.0,0.0,3.0,1.0,7.0,0.0,93.76132905000122,,,,,,,,,93.74539991100028,94.5447179289913,95.34477694900124,95.32839882699771,95.32886916999996,95.34477694900124,95.34477694900124,95.34477694900124,96.9596426240023,,,,,,,,,,,,,,,,,,,,,,,,,,,,,,left,1.0,1.6055274959944654,,,,,sub-019,1,random_dot,60.00154791900696,
left,left,8.0,0.0,4.0,left,1.0,3.4388254079967737,,accuracy,space,0.8471461940062,,,,,,0.0,0.0,0.0,0.0,4.0,0.0,8.0,0.0,96.97559517799527,,,,,,,,,96.9599221709941,97.76164223699016,98.5758754409908,98.5593754779984,98.5596547669993,98.5758754409908,98.5758754409908,98.5758754409908,102.02887907999684,,,,,,,,,,,,,,,,,,,,,,,,,,,,,,left,1.0,3.4388254079967737,,,,,sub-019,1,random_dot,60.00154791900696,
right,right,9.0,1.0,4.0,right,1.0,0.8747299849928822,,accuracy,space,0.8471461940062,,,,,,0.0,0.0,0.0,0.0,4.0,1.0,9.0,1.0,102.04516316499212,,,,,,,,,102.02930683999148,102.12855349200254,102.92871438199654,102.91222236599424,102.912674865991,102.92871438199654,102.92871438199654,102.92871438199654,103.81133599899476,,,,,,,,,,,,,,,,,,,,,,,,,,,,,,right,1.0,0.8747299849928822,,,,,sub-019,1,random_dot,60.00154791900696,
right,right,10.0,0.0,5.0,right,1.0,1.1599733909970382,,accuracy,space,0.8471461940062,,,,,,0.0,0.0,0.0,0.0,5.0,0.0,10.0,1.0,103.82871838699792,,,,,,,,,103.81167719200312,104.1620534800022,104.96215936599764,104.94574518299488,104.94619891399634,104.96215936599764,104.96215936599764,104.96215936599764,106.12811409399728,,,,,,,,,,,,,,,,,,,,,,,,,,,,,,right,1.0,1.1599733909970382,,,,,sub-019,1,random_dot,60.00154791900696,
left,left,11.0,1.0,5.0,left,1.0,1.209936064988142,,accuracy,space,0.8471461940062,,,,,,0.0,0.0,0.0,0.0,5.0,1.0,11.0,0.0,106.14559930199177,,,,,,,,,106.12856291899516,107.32896138700016,108.1290578909975,108.1126061469986,108.113062325996,108.1290578909975,108.1290578909975,108.1290578909975,109.3451541569957,,,,,,,,,,,,,,,,,,,,,,,,,,,,,,left,1.0,1.209936064988142,,,,,sub-019,1,random_dot,60.00154791900696,
left,left,12.0,0.0,6.0,right,0.0,0.9491458980046446,,accuracy,space,0.8471461940062,,,,,,0.0,0.0,0.0,0.0,6.0,0.0,12.0,0.0,109.36275097899488,,,,,,,,,109.34549237099418,109.44567615499544,110.2457361859997,110.22939435299486,110.22984845399333,110.2457361859997,110.2457361859997,110.2457361859997,111.21170036400144,,,,,,,,,,,,,,,,,,,,,,,,,,,,,,right,0.0,0.9491458980046446,,,,,sub-019,1,random_dot,60.00154791900696,
right,right,13.0,1.0,6.0,right,1.0,0.8387956739898073,,accuracy,space,0.8471461940062,,,,,,0.0,0.0,0.0,0.0,6.0,1.0,13.0,1.0,111.22691542099346,,,,,,,,,111.21208106700216,111.56077423199896,112.36092972799088,112.3443510119978,112.34473272199102,112.36092972799088,112.36092972799088,112.36092972799088,113.211476062992,,,,,,,,,,,,,,,,,,,,,,,,,,,,,,right,1.0,0.8387956739898073,,,,,sub-019,1,random_dot,60.00154791900696,
right,right,14.0,0.0,7.0,right,1.0,0.8059026919945609,,accuracy,space,0.8471461940062,,,,,,0.0,0.0,0.0,0.0,7.0,0.0,14.0,1.0,113.2272082589916,,,,,,,,,113.21175110299372,114.41277523199096,115.21282171500206,115.19653676099551,115.19699207499798,115.21282171500206,115.21282171500206,115.21282171500206,116.02899248299946,,,,,,,,,,,,,,,,,,,,,,,,,,,,,,right,1.0,0.8059026919945609,,,,,sub-019,1,random_dot,60.00154791900696,
left,left,15.0,1.0,7.0,right,0.0,0.5638598679943243,,accuracy,space,0.8471461940062,,,,,,0.0,0.0,0.0,0.0,7.0,1.0,15.0,0.0,116.04593825800112,,,,,,,,,116.02934917599488,116.37969306200102,117.17967484600376,117.1633839529968,117.16383896500338,117.17967484600376,117.17967484600376,117.17967484600376,117.74692630799836,,,,,,,,,,,,,,,,,,,,,,,,,,,,,,right,0.0,0.5638598679943243,,,,,sub-019,1,random_dot,60.00154791900696,
left,left,16.0,0.0,8.0,left,1.0,1.0680169760016724,,accuracy,space,0.8471461940062,,,,,,0.0,0.0,0.0,0.0,8.0,0.0,16.0,0.0,117.76297270099168,,,,,,,,,117.74736349200248,117.84635136199358,118.64629169199908,118.63001188899216,118.63047164599992,118.64629169199908,118.64629169199908,118.64629169199908,119.72999805099973,,,,,,,,,,,,,,,,,,,,,,,,,,,,,,left,1.0,1.0680169760016724,,,,,sub-019,1,random_dot,60.00154791900696,
right,right,17.0,1.0,8.0,right,1.0,1.3152010469930246,,accuracy,space,0.8471461940062,,,,,,0.0,0.0,0.0,0.0,8.0,1.0,17.0,1.0,119.74625692599513,,,,,,,,,119.73045212800209,120.52977052499772,121.33024170900173,121.31356621299346,121.31402469899332,121.33024170900173,121.33024170900173,121.33024170900173,122.64751717299804,,,,,,,,,,,,,,,,,,,,,,,,,,,,,,right,1.0,1.3152010469930246,,,,,sub-019,1,random_dot,60.00154791900696,
left,left,18.0,0.0,9.0,left,1.0,1.6111143519956386,,accuracy,space,0.8471461940062,,,,,,0.0,0.0,0.0,0.0,9.0,0.0,18.0,0.0,122.66245562800032,,,,,,,,,122.6479140750016,123.84682215399516,124.64680391699947,124.63025239399576,124.63070571099524,124.64680391699947,124.64680391699947,124.64680391699947,126.26312386299831,,,,,,,,,,,,,,,,,,,,,,,,,,,,,,left,1.0,1.6111143519956386,,,,,sub-019,1,random_dot,60.00154791900696,
right,right,19.0,1.0,9.0,right,1.0,0.845442351012025,,accuracy,space,0.8471461940062,,,,,,0.0,0.0,0.0,0.0,9.0,1.0,19.0,1.0,126.28036312799668,,,,,,,,,126.26347875100328,127.07773472600093,127.8803803369956,127.8636885839951,127.8641407719988,127.8803803369956,127.8803803369956,127.8803803369956,128.73027893799008,,,,,,,,,,,,,,,,,,,,,,,,,,,,,,right,1.0,0.845442351012025,,,,,sub-019,1,random_dot,60.00154791900696,
left,left,20.0,0.0,10.0,left,1.0,0.9630733490048442,,accuracy,space,0.8471461940062,,,,,,0.0,0.0,0.0,0.0,10.0,0.0,20.0,0.0,128.74636023500352,,,,,,,,,128.73058549599955,129.53059689699148,130.33082202899095,130.31427552900277,130.31472976699297,130.33082202899095,130.33082202899095,130.33082202899095,131.2975578559999,,,,,,,,,,,,,,,,,,,,,,,,,,,,,,left,1.0,0.9630733490048442,,,,,sub-019,1,random_dot,60.00154791900696,
right,right,21.0,1.0,10.0,right,1.0,1.1144186940073268,,accuracy,space,0.8471461940062,,,,,,0.0,0.0,0.0,0.0,10.0,1.0,21.0,1.0,131.31350974900124,,,,,,,,,131.29788772900065,131.64729689099477,132.44735671298986,132.43101209099405,132.4314658170042,132.44735671298986,132.44735671298986,132.44735671298986,133.5644714099908,,,,,,,,,,,,,,,,,,,,,,,,,,,,,,right,1.0,1.1144186940073268,,,,,sub-019,1,random_dot,60.00154791900696,
right,right,22.0,0.0,11.0,left,0.0,2.966556765997666,,accuracy,space,0.8471461940062,,,,,,0.0,0.0,0.0,0.0,11.0,0.0,22.0,1.0,133.580832009,,,,,,,,,133.56486913999834,133.91417805699166,134.7141873090004,134.69774981599767,134.69820585800335,134.7141873090004,134.7141873090004,134.7141873090004,137.68226707499707,,,,,,,,,,,,,,,,,,,,,,,,,,,,,,left,0.0,2.966556765997666,,,,,sub-019,1,random_dot,60.00154791900696,
left,left,23.0,1.0,11.0,left,1.0,1.1635316079918994,,accuracy,space,0.8471461940062,,,,,,0.0,0.0,0.0,0.0,11.0,1.0,23.0,0.0,137.6966998220014,,,,,,,,,137.68283410998993,138.49733665499662,139.29774587700376,139.28144809100195,139.28190533099405,139.29774587700376,139.29774587700376,139.29774587700376,140.46460501599358,,,,,,,,,,,,,,,,,,,,,,,,,,,,,,left,1.0,1.1635316079918994,,,,,sub-019,1,random_dot,60.00154791900696,
left,left,24.0,0.0,12.0,left,1.0,2.7375814170081867,,accuracy,space,0.8471461940062,,,,,,0.0,0.0,0.0,0.0,12.0,0.0,24.0,0.0,140.48086428799434,,,,,,,,,140.4650080279971,140.5646135279967,141.36452517799626,141.34798050500103,141.34843753899622,141.36452517799626,141.36452517799626,141.36452517799626,144.11514782399172,,,,,,,,,,,,,,,,,,,,,,,,,,,,,,left,1.0,2.7375814170081867,,,,,sub-019,1,random_dot,60.00154791900696,
right,right,25.0,1.0,12.0,right,1.0,1.8016245839971816,,accuracy,space,0.8471461940062,,,,,,0.0,0.0,0.0,0.0,12.0,1.0,25.0,1.0,144.13150419500016,,,,,,,,,144.11557618899678,144.4648260219983,145.26501925599587,145.24837877199752,145.2488351429929,145.26501925599587,145.26501925599587,145.26501925599587,147.08171585299715,,,,,,,,,,,,,,,,,,,,,,,,,,,,,,right,1.0,1.8016245839971816,,,,,sub-019,1,random_dot,60.00154791900696,
right,right,26.0,0.0,13.0,left,0.0,1.7048329009994632,,accuracy,space,0.8471461940062,,,,,,0.0,0.0,0.0,0.0,13.0,0.0,26.0,1.0,147.09731184699922,,,,,,,,,147.08218574599596,147.88166283199098,148.6818469639984,148.66542397000012,148.66588374499406,148.6818469639984,148.6818469639984,148.6818469639984,150.39762805899954,,,,,,,,,,,,,,,,,,,,,,,,,,,,,,left,0.0,1.7048329009994632,,,,,sub-019,1,random_dot,60.00154791900696,
left,left,27.0,1.0,13.0,right,0.0,1.733152325003175,,accuracy,space,0.8471461940062,,,,,,0.0,0.0,0.0,0.0,13.0,1.0,27.0,0.0,150.4146905099915,,,,,,,,,150.397910544998,151.19860154099297,151.99847032099206,151.9824390720023,151.98291901299672,151.99847032099206,151.99847032099206,151.99847032099206,153.73329553499934,,,,,,,,,,,,,,,,,,,,,,,,,,,,,,right,0.0,1.733152325003175,,,,,sub-019,1,random_dot,60.00154791900696,
right,right,28.0,0.0,14.0,right,1.0,0.6793303870072123,,accuracy,space,0.8471461940062,,,,,,0.0,0.0,0.0,0.0,14.0,0.0,28.0,1.0,153.74809523500153,,,,,,,,,153.73365637999086,154.5486775820027,155.34900273800304,155.3327471849916,155.33319966199633,155.34900273800304,155.34900273800304,155.34900273800304,156.0322289600008,,,,,,,,,,,,,,,,,,,,,,,,,,,,,,right,1.0,0.6793303870072123,,,,,sub-019,1,random_dot,60.00154791900696,
left,left,29.0,1.0,14.0,left,1.0,0.7477063650003402,,accuracy,space,0.8471461940062,,,,,,0.0,0.0,0.0,0.0,14.0,1.0,29.0,0.0,156.04864536499372,,,,,,,,,156.03259001999686,157.23243201199512,158.03242676099762,158.01603372499812,158.01649238199752,158.03242676099762,158.03242676099762,158.03242676099762,158.78291250299662,,,,,,,,,,,,,,,,,,,,,,,,,,,,,,left,1.0,0.7477063650003402,,,,,sub-019,1,random_dot,60.00154791900696,
right,right,30.0,0.0,15.0,right,1.0,1.1672077999974135,,accuracy,space,0.8471461940062,,,,,,0.0,0.0,0.0,0.0,15.0,0.0,30.0,1.0,158.7981850179931,,,,,,,,,158.78333894300158,159.58252208399065,160.38253994799743,160.3661662980012,160.36662169199553,160.38253994799743,160.38253994799743,160.38253994799743,161.5663264439936,,,,,,,,,,,,,,,,,,,,,,,,,,,,,,right,1.0,1.1672077999974135,,,,,sub-019,1,random_dot,60.00154791900696,
left,left,31.0,1.0,15.0,left,1.0,0.7651001269987319,,accuracy,space,0.8471461940062,,,,,,0.0,0.0,0.0,0.0,15.0,1.0,31.0,0.0,161.58275443100138,,,,,,,,,161.5667512939981,161.6826270599995,162.4827740710025,162.46644643599575,162.46690397299244,162.4827740710025,162.4827740710025,162.4827740710025,163.2500120869954,,,,,,,,,,,,,,,,,,,,,,,,,,,,,,left,1.0,0.7651001269987319,,,,,sub-019,1,random_dot,60.00154791900696,
left,left,32.0,0.0,16.0,left,1.0,0.5973693440028001,,accuracy,space,0.8471461940062,,,,,,0.0,0.0,0.0,0.0,16.0,0.0,32.0,0.0,163.26634186899173,,,,,,,,,163.25040959200123,164.0495434409968,164.84945561399218,164.83313441400242,164.83359085700067,164.84945561399218,164.84945561399218,164.84945561399218,165.44988300699333,,,,,,,,,,,,,,,,,,,,,,,,,,,,,,left,1.0,0.5973693440028001,,,,,sub-019,1,random_dot,60.00154791900696,
right,right,33.0,1.0,16.0,right,1.0,1.0727601679973304,,accuracy,space,0.8471461940062,,,,,,0.0,0.0,0.0,0.0,16.0,1.0,33.0,1.0,165.46596630899876,,,,,,,,,165.45031098199252,165.54958560199884,166.34981620499457,166.33326253999255,166.33374484299566,166.34981620499457,166.34981620499457,166.34981620499457,167.4337621040031,,,,,,,,,,,,,,,,,,,,,,,,,,,,,,right,1.0,1.0727601679973304,,,,,sub-019,1,random_dot,60.00154791900696,
right,right,34.0,0.0,17.0,left,0.0,2.274987844997668,,accuracy,space,0.8471461940062,,,,,,0.0,0.0,0.0,0.0,17.0,0.0,34.0,1.0,167.44964634400094,,,,,,,,,167.43418767099502,168.63317506900057,169.43313340299937,169.41691484299372,169.41736826499982,169.43313340299937,169.43313340299937,169.43313340299937,171.71626190000097,,,,,,,,,,,,,,,,,,,,,,,,,,,,,,left,0.0,2.274987844997668,,,,,sub-019,1,random_dot,60.00154791900696,
left,left,35.0,1.0,17.0,left,1.0,1.0876677359919995,,accuracy,space,0.8471461940062,,,,,,0.0,0.0,0.0,0.0,17.0,1.0,35.0,0.0,171.73292051099995,,,,,,,,,171.71664914800203,172.5167493429908,173.3167138580029,173.30060388999118,173.30106036800134,173.3167138580029,173.3167138580029,173.3167138580029,174.417160529003,,,,,,,,,,,,,,,,,,,,,,,,,,,,,,left,1.0,1.0876677359919995,,,,,sub-019,1,random_dot,60.00154791900696,
right,right,36.0,0.0,18.0,right,1.0,2.562101381990942,,accuracy,space,0.8471461940062,,,,,,0.0,0.0,0.0,0.0,18.0,0.0,36.0,1.0,174.43334459199104,,,,,,,,,174.41758981299063,175.21715154100093,176.01715492199585,176.00063915600185,176.00109342799988,176.01715492199585,176.01715492199585,176.01715492199585,178.58381886899588,,,,,,,,,,,,,,,,,,,,,,,,,,,,,,right,1.0,2.562101381990942,,,,,sub-019,1,random_dot,60.00154791900696,
left,left,37.0,1.0,18.0,left,1.0,2.660882796990336,,accuracy,space,0.8471461940062,,,,,,0.0,0.0,0.0,0.0,18.0,1.0,37.0,0.0,178.60059741899022,,,,,,,,,178.5841436819901,179.78391619300237,180.58399913400356,180.56734185499957,180.5678084199899,180.58399913400356,180.58399913400356,180.58399913400356,183.25048291399435,,,,,,,,,,,,,,,,,,,,,,,,,,,,,,left,1.0,2.660882796990336,,,,,sub-019,1,random_dot,60.00154791900696,
right,right,38.0,0.0,19.0,right,1.0,1.8105782329948847,,accuracy,space,0.8471461940062,,,,,,0.0,0.0,0.0,0.0,19.0,0.0,38.0,1.0,183.26737716900243,,,,,,,,,183.2509502769972,184.4510380819993,185.25103288399987,185.2345690899965,185.23502230099984,185.25103288399987,185.25103288399987,185.25103288399987,187.06703201700293,,,,,,,,,,,,,,,,,,,,,,,,,,,,,,right,1.0,1.8105782329948847,,,,,sub-019,1,random_dot,60.00154791900696,
left,left,39.0,1.0,19.0,left,1.0,2.297321557998657,,accuracy,space,0.8471461940062,,,,,,0.0,0.0,0.0,0.0,19.0,1.0,39.0,0.0,187.08198334400367,,,,,,,,,187.0676647590008,187.18193542999504,187.9843867909949,187.9680138480035,187.96847220200289,187.9843867909949,187.9843867909949,187.9843867909949,190.28496021700263,,,,,,,,,,,,,,,,,,,,,,,,,,,,,,left,1.0,2.297321557998657,,,,,sub-019,1,random_dot,60.00154791900696,
right,right,40.0,0.0,20.0,right,1.0,1.4001667889970122,,accuracy,space,0.8471461940062,,,,,,0.0,0.0,0.0,0.0,20.0,0.0,40.0,1.0,190.30131950599025,,,,,,,,,190.2853401750035,190.38480585700017,191.18442001099172,191.16809707599168,191.16855630499776,191.18442001099172,191.18442001099172,191.18442001099172,192.58601493599417,,,,,,,,,,,,,,,,,,,,,,,,,,,,,,right,1.0,1.4001667889970122,,,,,sub-019,1,random_dot,60.00154791900696,
left,left,41.0,1.0,20.0,left,1.0,2.100287731998833,,accuracy,space,0.8471461940062,,,,,,0.0,0.0,0.0,0.0,20.0,1.0,41.0,0.0,192.60097318299813,,,,,,,,,192.58653510599103,192.70164914800264,193.50182961599785,193.485274147999,193.48573082599611,193.50182961599785,193.50182961599785,193.50182961599785,195.61844956700224,,,,,,,,,,,,,,,,,,,,,,,,,,,,,,left,1.0,2.100287731998833,,,,,sub-019,1,random_dot,60.00154791900696,
left,left,42.0,0.0,21.0,left,1.0,1.6628810719994362,,accuracy,space,0.8471461940062,,,,,,0.0,0.0,0.0,0.0,21.0,0.0,42.0,0.0,195.6341341560037,,,,,,,,,195.6188710839924,195.71872186999823,196.51811737800017,196.502137567004,196.50259657000424,196.51811737800017,196.51811737800017,196.51811737800017,198.18530619000376,,,,,,,,,,,,,,,,,,,,,,,,,,,,,,left,1.0,1.6628810719994362,,,,,sub-019,1,random_dot,60.00154791900696,
right,right,43.0,1.0,21.0,right,1.0,2.531748733992572,,accuracy,space,0.8471461940062,,,,,,0.0,0.0,0.0,0.0,21.0,1.0,43.0,1.0,198.20186357900093,,,,,,,,,198.18565090099585,198.53521516598997,199.335237523992,199.31885636800143,199.31931102200176,199.335237523992,199.335237523992,199.335237523992,201.86953618699044,,,,,,,,,,,,,,,,,,,,,,,,,,,,,,right,1.0,2.531748733992572,,,,,sub-019,1,random_dot,60.00154791900696,
left,left,44.0,0.0,22.0,left,1.0,0.7288922900042962,,accuracy,space,0.8471461940062,,,,,,0.0,0.0,0.0,0.0,22.0,0.0,44.0,0.0,201.8855462569918,,,,,,,,,201.8699343949993,202.2189791429992,203.01882111499435,203.0018898059934,203.00230425399783,203.01882111499435,203.01882111499435,203.01882111499435,203.7520004550024,,,,,,,,,,,,,,,,,,,,,,,,,,,,,,left,1.0,0.7288922900042962,,,,,sub-019,1,random_dot,60.00154791900696,
right,right,45.0,1.0,22.0,right,1.0,1.5610224669944728,,accuracy,space,0.8471461940062,,,,,,0.0,0.0,0.0,0.0,22.0,1.0,45.0,1.0,203.769084960004,,,,,,,,,203.75233796999964,204.95233938399176,205.75241856499636,205.73591701900293,205.73637409899675,205.75241856499636,205.75241856499636,205.75241856499636,207.31881994199648,,,,,,,,,,,,,,,,,,,,,,,,,,,,,,right,1.0,1.5610224669944728,,,,,sub-019,1,random_dot,60.00154791900696,
left,left,46.0,0.0,23.0,left,1.0,1.5346599530021194,,accuracy,space,0.8471461940062,,,,,,0.0,0.0,0.0,0.0,23.0,0.0,46.0,0.0,207.3340711179917,,,,,,,,,207.31927484000332,207.41862965599285,208.21961606999685,208.20287796900084,208.2033372919977,208.21961606999685,208.21961606999685,208.21961606999685,209.76962197799003,,,,,,,,,,,,,,,,,,,,,,,,,,,,,,left,1.0,1.5346599530021194,,,,,sub-019,1,random_dot,60.00154791900696,
right,right,47.0,1.0,23.0,right,1.0,0.9796212370129068,,accuracy,space,0.8471461940062,,,,,,0.0,0.0,0.0,0.0,23.0,1.0,47.0,1.0,209.78599883099375,,,,,,,,,209.77004794299137,210.96937108899877,211.76959660399007,211.75282556700404,211.75328177599292,211.76959660399007,211.76959660399007,211.76959660399007,212.75316073700375,,,,,,,,,,,,,,,,,,,,,,,,,,,,,,right,1.0,0.9796212370129068,,,,,sub-019,1,random_dot,60.00154791900696,
left,left,48.0,0.0,24.0,left,1.0,1.7074675659969216,,accuracy,space,0.8471461940062,,,,,,0.0,0.0,0.0,0.0,24.0,0.0,48.0,0.0,212.76957046199823,,,,,,,,,212.7535144279973,213.9529313809908,214.7530703469965,214.73657178400023,214.7370398149942,214.7530703469965,214.7530703469965,214.7530703469965,216.4690698259947,,,,,,,,,,,,,,,,,,,,,,,,,,,,,,left,1.0,1.7074675659969216,,,,,sub-019,1,random_dot,60.00154791900696,
right,right,49.0,1.0,24.0,right,1.0,1.3941159289970528,,accuracy,space,0.8471461940062,,,,,,0.0,0.0,0.0,0.0,24.0,1.0,49.0,1.0,216.48433498899976,,,,,,,,,216.4695293889963,217.2700376669964,218.0687186019932,218.05313851099345,218.053619444996,218.0687186019932,218.0687186019932,218.0687186019932,219.46958843199536,,,,,,,,,,,,,,,,,,,,,,,,,,,,,,right,1.0,1.3941159289970528,,,,,sub-019,1,random_dot,60.00154791900696,
left,left,50.0,0.0,25.0,left,1.0,2.119339568002033,,accuracy,space,0.8471461940062,,,,,,0.0,0.0,0.0,0.0,25.0,0.0,50.0,0.0,219.48686883099435,,,,,,,,,219.4699299079948,220.27010093499848,221.0691195459949,221.05371612499584,221.05417451899848,221.0691195459949,221.0691195459949,221.0691195459949,223.20363768399693,,,,,,,,,,,,,,,,,,,,,,,,,,,,,,left,1.0,2.119339568002033,,,,,sub-019,1,random_dot,60.00154791900696,
right,right,51.0,1.0,25.0,left,0.0,1.2626631669991184,,accuracy,space,0.8471461940062,,,,,,0.0,0.0,0.0,0.0,25.0,1.0,51.0,1.0,223.22032926599783,,,,,,,,,223.20405508799013,224.00368055498984,224.80369006899127,224.78735244199925,224.7878021479992,224.80369006899127,224.80369006899127,224.80369006899127,226.07058345599216,,,,,,,,,,,,,,,,,,,,,,,,,,,,,,left,0.0,1.2626631669991184,,,,,sub-019,1,random_dot,60.00154791900696,
right,right,52.0,0.0,26.0,right,1.0,2.274008640000829,,accuracy,space,0.8471461940062,,,,,,0.0,0.0,0.0,0.0,26.0,0.0,52.0,1.0,226.0872542919969,,,,,,,,,226.0709209530032,226.87056399499124,227.6706508609932,227.65417898099983,227.6546351249999,227.6706508609932,227.6706508609932,227.6706508609932,229.9537946319906,,,,,,,,,,,,,,,,,,,,,,,,,,,,,,right,1.0,2.274008640000829,,,,,sub-019,1,random_dot,60.00154791900696,
left,left,53.0,1.0,26.0,left,1.0,1.5298957780032651,,accuracy,space,0.8471461940062,,,,,,0.0,0.0,0.0,0.0,26.0,1.0,53.0,0.0,229.97012739699855,,,,,,,,,229.9542627899937,231.15422561399464,231.95411799800056,231.9378926569916,231.93834863399388,231.95411799800056,231.95411799800056,231.95411799800056,233.48792496399253,,,,,,,,,,,,,,,,,,,,,,,,,,,,,,left,1.0,1.5298957780032651,,,,,sub-019,1,random_dot,60.00154791900696,
left,left,54.0,0.0,27.0,left,1.0,3.6123925870051607,,accuracy,space,0.8471461940062,,,,,,0.0,0.0,0.0,0.0,27.0,0.0,54.0,0.0,233.50432847200136,,,,,,,,,233.48826106099293,233.8376329640014,234.63762983899505,234.6212342170038,234.6217162279936,234.63762983899505,234.63762983899505,234.63762983899505,238.2544305679912,,,,,,,,,,,,,,,,,,,,,,,,,,,,,,left,1.0,3.6123925870051607,,,,,sub-019,1,random_dot,60.00154791900696,
right,right,55.0,1.0,27.0,right,1.0,3.0675580099923536,,accuracy,space,0.8471461940062,,,,,,0.0,0.0,0.0,0.0,27.0,1.0,55.0,1.0,238.2709857699956,,,,,,,,,238.25476303699543,238.6048538890027,239.40469068099628,239.38831602399296,239.38876922399504,239.40469068099628,239.40469068099628,239.40469068099628,242.48855066699616,,,,,,,,,,,,,,,,,,,,,,,,,,,,,,right,1.0,3.0675580099923536,,,,,sub-019,1,random_dot,60.00154791900696,
right,right,56.0,0.0,28.0,right,1.0,2.658919681009138,,accuracy,space,0.8471461940062,,,,,,0.0,0.0,0.0,0.0,28.0,0.0,56.0,1.0,242.50512921399783,,,,,,,,,242.4889963099995,243.288338569997,244.0884613239905,244.07198697399872,244.07244575700315,244.0884613239905,244.0884613239905,244.0884613239905,246.7542742759979,,,,,,,,,,,,,,,,,,,,,,,,,,,,,,right,1.0,2.658919681009138,,,,,sub-019,1,random_dot,60.00154791900696,
left,left,57.0,1.0,28.0,left,1.0,0.7785927809891291,,accuracy,space,0.8471461940062,,,,,,0.0,0.0,0.0,0.0,28.0,1.0,57.0,0.0,246.76971081599183,,,,,,,,,246.7547106359998,247.55542971099203,248.369445874996,248.3530714429944,248.35334863199387,248.369445874996,248.369445874996,248.369445874996,249.15453200299817,,,,,,,,,,,,,,,,,,,,,,,,,,,,,,left,1.0,0.7785927809891291,,,,,sub-019,1,random_dot,60.00154791900696,
left,left,58.0,0.0,29.0,left,1.0,0.8732211089954944,,accuracy,space,0.8471461940062,,,,,,0.0,0.0,0.0,0.0,29.0,0.0,58.0,0.0,249.1720648179908,,,,,,,,,249.15486978199624,249.9554855259921,250.7555679999932,250.7389122089953,250.7393667150027,250.7555679999932,250.7555679999932,250.7555679999932,251.63899243899505,,,,,,,,,,,,,,,,,,,,,,,,,,,,,,left,1.0,0.8732211089954944,,,,,sub-019,1,random_dot,60.00154791900696,
right,right,59.0,1.0,29.0,right,1.0,0.8605601279996336,,accuracy,space,0.8471461940062,,,,,,0.0,0.0,0.0,0.0,29.0,1.0,59.0,1.0,251.65561103499203,,,,,,,,,251.63941304899345,251.98868274599957,252.789007985004,252.77256100799423,252.7730183819949,252.789007985004,252.789007985004,252.789007985004,253.65520802300307,,,,,,,,,,,,,,,,,,,,,,,,,,,,,,right,1.0,0.8605601279996336,,,,,sub-019,1,random_dot,60.00154791900696,
,,0.0,0.0,0.0,,,,,accuracy,space,0.8471461940062,,,,,,0.0,0.0,0.0,0.0,,,,,,,,,,,,,,,,,,,,,,,,,,,,,,,,,,,,,,,,,,,,,,,,,,,,,,,,,,,sub-019,1,random_dot,60.00154791900696,
right,right,0.0,0.0,0.0,right,1.0,0.3621369680040516,,speed,space,5.845644255998195,,,,,,0.0,1.0,1.0,1.0,0.0,0.0,0.0,1.0,259.55572559799475,,,,,,,,,259.54621189599857,259.63947983499384,260.4394845850038,260.4231132970017,260.4235845709918,260.4394845850038,260.4394845850038,260.4394845850038,260.80606548399373,,,,,,,,,,,,,,,,,,,,,,,253.66943206900032,253.67822682300172,253.67822682300172,259.5399425880023,space,5.845644255998195,,right,1.0,0.3621369680040516,,,,,sub-019,1,random_dot,60.00154791900696,
left,left,1.0,1.0,0.0,left,1.0,0.3382099269947503,,speed,space,5.845644255998195,,,,,,0.0,1.0,1.0,1.0,0.0,1.0,1.0,0.0,260.8230942340015,,,,,,,,,260.806404242001,262.0065206750005,262.80636990499625,262.79003193099925,262.79049066499283,262.80636990499625,262.80636990499625,262.80636990499625,263.15546991500014,,,,,,,,,,,,,,,,,,,,,,,,,,,,,,left,1.0,0.3382099269947503,,,,,sub-019,1,random_dot,60.00154791900696,
left,left,2.0,0.0,1.0,left,1.0,0.3494007060071453,,speed,space,5.845644255998195,,,,,,0.0,1.0,1.0,1.0,1.0,0.0,2.0,0.0,263.1730494910007,,,,,,,,,263.1557462990022,263.9564497419924,264.75697719199525,264.7400565440039,264.7405155519955,264.75697719199525,264.75697719199525,264.75697719199525,265.12136392100365,,,,,,,,,,,,,,,,,,,,,,,,,,,,,,left,1.0,0.3494007060071453,,,,,sub-019,1,random_dot,60.00154791900696,
right,right,3.0,1.0,1.0,right,1.0,0.3437705959950108,,speed,space,5.845644255998195,,,,,,0.0,1.0,1.0,1.0,1.0,1.0,3.0,1.0,265.1399314279988,,,,,,,,,265.1216775329958,265.9232281989971,266.72331148199737,266.70688664499903,266.70734567099134,266.72331148199737,266.72331148199737,266.72331148199737,267.0731717229937,,,,,,,,,,,,,,,,,,,,,,,,,,,,,,right,1.0,0.3437705959950108,,,,,sub-019,1,random_dot,60.00154791900696,
left,left,4.0,0.0,2.0,left,1.0,0.404667688999325,,speed,space,5.845644255998195,,,,,,0.0,1.0,1.0,1.0,2.0,0.0,4.0,0.0,267.088976272993,,,,,,,,,267.07351857099275,267.8733592990029,268.6735677260004,268.65705728100147,268.657540123997,268.6735677260004,268.6735677260004,268.6735677260004,269.0904119379993,,,,,,,,,,,,,,,,,,,,,,,,,,,,,,left,1.0,0.404667688999325,,,,,sub-019,1,random_dot,60.00154791900696,
right,right,5.0,1.0,2.0,left,0.0,0.5067658269981621,,speed,space,5.845644255998195,,,,,,0.0,1.0,1.0,1.0,2.0,1.0,5.0,1.0,269.1062717009918,,,,,,,,,269.09083891799673,269.1901615550014,269.99022683899966,269.9737934909936,269.9742501150031,269.99022683899966,269.99022683899966,269.99022683899966,270.50723822000145,,,,,,,,,,,,,,,,,,,,,,,,,,,,,,left,0.0,0.5067658269981621,,,,,sub-019,1,random_dot,60.00154791900696,
right,right,6.0,0.0,3.0,right,1.0,0.5040206699923147,,speed,space,5.845644255998195,,,,,,0.0,1.0,1.0,1.0,3.0,0.0,6.0,1.0,270.5236089129903,,,,,,,,,270.50766277000366,271.70693959199707,272.50704142299946,272.4906151879986,272.49106837699946,272.50704142299946,272.50704142299946,272.50704142299946,273.0233645519911,,,,,,,,,,,,,,,,,,,,,,,,,,,,,,right,1.0,0.5040206699923147,,,,,sub-019,1,random_dot,60.00154791900696,
left,left,7.0,1.0,3.0,left,1.0,0.4407526119903195,,speed,space,5.845644255998195,,,,,,0.0,1.0,1.0,1.0,3.0,1.0,7.0,0.0,273.04059379299,,,,,,,,,273.02371209699777,274.2239035419916,275.0239653759927,275.00747398799285,275.0079357659997,275.0239653759927,275.0239653759927,275.0239653759927,275.47313143599604,,,,,,,,,,,,,,,,,,,,,,,,,,,,,,left,1.0,0.4407526119903195,,,,,sub-019,1,random_dot,60.00154791900696,
right,right,8.0,0.0,4.0,right,1.0,0.5471970020007575,,speed,space,5.845644255998195,,,,,,0.0,1.0,1.0,1.0,4.0,0.0,8.0,1.0,275.4907203699986,,,,,,,,,275.4734105529933,275.8239190460008,276.63833209899894,276.6231805360003,276.62351674099045,276.63833209899894,276.63833209899894,276.63833209899894,277.1893359349924,,,,,,,,,,,,,,,,,,,,,,,,,,,,,,right,1.0,0.5471970020007575,,,,,sub-019,1,random_dot,60.00154791900696,
left,left,9.0,1.0,4.0,left,1.0,1.08139182299783,,speed,space,5.845644255998195,,,,,,0.0,1.0,1.0,1.0,4.0,1.0,9.0,0.0,277.20466372599185,,,,,,,,,277.18964829700417,277.99095669000235,278.7911860919994,278.7744424150005,278.774914677997,278.7911860919994,278.7911860919994,278.7911860919994,279.87471047000145,,,,,,,,,,,,,,,,,,,,,,,,,,,,,,left,1.0,1.08139182299783,,,,,sub-019,1,random_dot,60.00154791900696,
right,right,10.0,0.0,5.0,left,0.0,0.6091266820003511,,speed,space,5.845644255998195,,,,,,0.0,1.0,1.0,1.0,5.0,0.0,10.0,1.0,279.8905905099964,,,,,,,,,279.87520644799224,280.22428347899404,281.0242540710024,281.0079599699966,281.00841443899844,281.0242540710024,281.0242540710024,281.0242540710024,281.63991215100395,,,,,,,,,,,,,,,,,,,,,,,,,,,,,,left,0.0,0.6091266820003511,,,,,sub-019,1,random_dot,60.00154791900696,
left,left,11.0,1.0,5.0,left,1.0,0.6001877969974885,,speed,space,5.845644255998195,,,,,,0.0,1.0,1.0,1.0,5.0,1.0,11.0,0.0,281.6577065409947,,,,,,,,,281.6403110389947,281.74099785900034,282.5410814149945,282.524557354991,282.5250169369974,282.5410814149945,282.5410814149945,282.5410814149945,283.15789112099446,,,,,,,,,,,,,,,,,,,,,,,,,,,,,,left,1.0,0.6001877969974885,,,,,sub-019,1,random_dot,60.00154791900696,
right,right,12.0,0.0,6.0,right,1.0,1.1463443029933842,,speed,space,5.845644255998195,,,,,,0.0,1.0,1.0,1.0,6.0,0.0,12.0,1.0,283.174440746996,,,,,,,,,283.158310208004,283.2577493629942,284.05784773999767,284.04137395200087,284.0418297860015,284.05784773999767,284.05784773999767,284.05784773999767,285.20798609599296,,,,,,,,,,,,,,,,,,,,,,,,,,,,,,right,1.0,1.1463443029933842,,,,,sub-019,1,random_dot,60.00154791900696,
left,left,13.0,1.0,6.0,left,1.0,0.5322137579933042,,speed,space,5.845644255998195,,,,,,0.0,1.0,1.0,1.0,6.0,1.0,13.0,0.0,285.22431868199783,,,,,,,,,285.2083554429992,285.307887404997,286.1079612879985,286.0916776859958,286.0921664429916,286.1079612879985,286.1079612879985,286.1079612879985,286.64227220599423,,,,,,,,,,,,,,,,,,,,,,,,,,,,,,left,1.0,0.5322137579933042,,,,,sub-019,1,random_dot,60.00154791900696,
right,right,14.0,0.0,7.0,right,1.0,0.7635559639893472,,speed,space,5.845644255998195,,,,,,0.0,1.0,1.0,1.0,7.0,0.0,14.0,1.0,286.65813070999866,,,,,,,,,286.64266474299075,286.9914970099926,287.79143478299375,287.7750381789956,287.77549441899464,287.79143478299375,287.79143478299375,287.79143478299375,288.55843137099873,,,,,,,,,,,,,,,,,,,,,,,,,,,,,,right,1.0,0.7635559639893472,,,,,sub-019,1,random_dot,60.00154791900696,
left,left,15.0,1.0,7.0,left,1.0,0.5035505769919837,,speed,space,5.845644255998195,,,,,,0.0,1.0,1.0,1.0,7.0,1.0,15.0,0.0,288.5744112239918,,,,,,,,,288.5588400870038,289.75826537299145,290.55830899399007,290.54191036599514,290.54239727999084,290.55830899399007,290.55830899399007,290.55830899399007,291.07521420999547,,,,,,,,,,,,,,,,,,,,,,,,,,,,,,left,1.0,0.5035505769919837,,,,,sub-019,1,random_dot,60.00154791900696,
left,left,16.0,0.0,8.0,left,1.0,0.5286732669919729,,speed,space,5.845644255998195,,,,,,0.0,1.0,1.0,1.0,8.0,0.0,16.0,0.0,291.09110471200256,,,,,,,,,291.0756326480041,291.17511584199383,291.9750347119989,291.9584943529917,291.95895175299665,291.9750347119989,291.9750347119989,291.9750347119989,292.5081755919964,,,,,,,,,,,,,,,,,,,,,,,,,,,,,,left,1.0,0.5286732669919729,,,,,sub-019,1,random_dot,60.00154791900696,
right,right,17.0,1.0,8.0,left,0.0,0.5580629720061552,,speed,space,5.845644255998195,,,,,,0.0,1.0,1.0,1.0,8.0,1.0,17.0,1.0,292.5250993380032,,,,,,,,,292.50851335999323,292.85848150799575,293.6585342699982,293.6420313940034,293.6424874939985,293.6585342699982,293.6585342699982,293.6585342699982,294.2241396909958,,,,,,,,,,,,,,,,,,,,,,,,,,,,,,left,0.0,0.5580629720061552,,,,,sub-019,1,random_dot,60.00154791900696,
right,right,18.0,0.0,9.0,right,1.0,1.1731905469932826,,speed,space,5.845644255998195,,,,,,0.0,1.0,1.0,1.0,9.0,0.0,18.0,1.0,294.2418212600023,,,,,,,,,294.22442493899143,294.32516648199817,295.1252644339984,295.1088190659939,295.1092723519978,295.1252644339984,295.1252644339984,295.1252644339984,296.3089248489996,,,,,,,,,,,,,,,,,,,,,,,,,,,,,,right,1.0,1.1731905469932826,,,,,sub-019,1,random_dot,60.00154791900696,
left,left,19.0,1.0,9.0,left,1.0,0.6215522190032061,,speed,space,5.845644255998195,,,,,,0.0,1.0,1.0,1.0,9.0,1.0,19.0,0.0,296.32534651599417,,,,,,,,,296.3093663019972,297.1087202780036,297.90882492899254,297.8921654619917,297.8926230020006,297.90882492899254,297.90882492899254,297.90882492899254,298.5413901110005,,,,,,,,,,,,,,,,,,,,,,,,,,,,,,left,1.0,0.6215522190032061,,,,,sub-019,1,random_dot,60.00154791900696,
right,right,20.0,0.0,10.0,right,1.0,2.7998969180043787,,speed,space,5.845644255998195,,,,,,0.0,1.0,1.0,1.0,10.0,0.0,20.0,1.0,298.5589731149957,,,,,,,,,298.5417210710002,298.6417387209949,299.44231527499505,299.4258778109943,299.42633566899167,299.44231527499505,299.44231527499505,299.44231527499505,302.2435697280016,,,,,,,,,,,,,,,,,,,,,,,,,,,,,,right,1.0,2.7998969180043787,,,,,sub-019,1,random_dot,60.00154791900696,
left,left,21.0,1.0,10.0,left,1.0,0.3254089199908776,,speed,space,5.845644255998195,,,,,,0.0,1.0,1.0,1.0,10.0,1.0,21.0,0.0,302.2589881199965,,,,,,,,,302.24407217800035,303.0424427760008,303.8425553400011,303.8260459180019,303.82650373999786,303.8425553400011,303.8425553400011,303.8425553400011,304.17484212499403,,,,,,,,,,,,,,,,,,,,,,,,,,,,,,left,1.0,0.3254089199908776,,,,,sub-019,1,random_dot,60.00154791900696,
left,left,22.0,0.0,11.0,left,1.0,0.3988353940076194,,speed,space,5.845644255998195,,,,,,0.0,1.0,1.0,1.0,11.0,0.0,22.0,0.0,304.19259435500135,,,,,,,,,304.17522747500334,304.9759077100025,305.7761105660029,305.7596684070013,305.76014270399173,305.7761105660029,305.7761105660029,305.7761105660029,306.1767704139929,,,,,,,,,,,,,,,,,,,,,,,,,,,,,,left,1.0,0.3988353940076194,,,,,sub-019,1,random_dot,60.00154791900696,
right,right,23.0,1.0,11.0,left,0.0,0.576412362002884,,speed,space,5.845644255998195,,,,,,0.0,1.0,1.0,1.0,11.0,1.0,23.0,1.0,306.19214962399565,,,,,,,,,306.1772381609917,306.2759448369907,307.09022513100354,307.0737776619935,307.0740318859898,307.09022513100354,307.09022513100354,307.09022513100354,307.6758376749931,,,,,,,,,,,,,,,,,,,,,,,,,,,,,,left,0.0,0.576412362002884,,,,,sub-019,1,random_dot,60.00154791900696,
left,left,24.0,0.0,12.0,right,0.0,0.583623466998688,,speed,space,5.845644255998195,,,,,,0.0,1.0,1.0,1.0,12.0,0.0,24.0,0.0,307.6928339369915,,,,,,,,,307.67609652299143,308.49029392500233,309.292901134002,309.2763383940037,309.2767977170006,309.292901134002,309.292901134002,309.292901134002,309.8931772259966,,,,,,,,,,,,,,,,,,,,,,,,,,,,,,right,0.0,0.583623466998688,,,,,sub-019,1,random_dot,60.00154791900696,
right,right,25.0,1.0,12.0,left,0.0,0.5534223309950903,,speed,space,5.845644255998195,,,,,,0.0,1.0,1.0,1.0,12.0,1.0,25.0,1.0,309.909256547995,,,,,,,,,309.89360236799985,310.69295800299733,311.4930632579926,311.4766992520017,311.47715865699865,311.4930632579926,311.4930632579926,311.4930632579926,312.060277290002,,,,,,,,,,,,,,,,,,,,,,,,,,,,,,left,0.0,0.5534223309950903,,,,,sub-019,1,random_dot,60.00154791900696,
left,left,26.0,0.0,13.0,left,1.0,0.5216413489979459,,speed,space,5.845644255998195,,,,,,0.0,1.0,1.0,1.0,13.0,0.0,26.0,0.0,312.0763601149956,,,,,,,,,312.0605644199968,312.1598051000037,312.9598138500005,312.9433114699932,312.94376768000075,312.9598138500005,312.9598138500005,312.9598138500005,313.4932375280041,,,,,,,,,,,,,,,,,,,,,,,,,,,,,,left,1.0,0.5216413489979459,,,,,sub-019,1,random_dot,60.00154791900696,
right,right,27.0,1.0,13.0,right,1.0,0.9749345000018366,,speed,space,5.845644255998195,,,,,,0.0,1.0,1.0,1.0,13.0,1.0,27.0,1.0,313.5099155920034,,,,,,,,,313.4936579560017,313.5931705010007,314.39334009599406,314.3770178230043,314.37747405200207,314.39334009599406,314.39334009599406,314.39334009599406,315.376126157993,,,,,,,,,,,,,,,,,,,,,,,,,,,,,,right,1.0,0.9749345000018366,,,,,sub-019,1,random_dot,60.00154791900696,
right,right,28.0,0.0,14.0,left,0.0,0.8465563649951946,,speed,space,5.845644255998195,,,,,,0.0,1.0,1.0,1.0,14.0,0.0,28.0,1.0,315.3933094759996,,,,,,,,,315.3764874969929,315.7267314689961,316.5267425389902,316.5104576540034,316.5109141629946,316.5267425389902,316.5267425389902,316.5267425389902,317.3770008580032,,,,,,,,,,,,,,,,,,,,,,,,,,,,,,left,0.0,0.8465563649951946,,,,,sub-019,1,random_dot,60.00154791900696,
left,left,29.0,1.0,14.0,left,1.0,0.8071027440018952,,speed,space,5.845644255998195,,,,,,0.0,1.0,1.0,1.0,14.0,1.0,29.0,0.0,317.39349755700096,,,,,,,,,317.377413972994,317.4768315669935,318.2768196249963,318.2604449509963,318.2609014999907,318.2768196249963,318.2768196249963,318.2768196249963,319.0936892610044,,,,,,,,,,,,,,,,,,,,,,,,,,,,,,left,1.0,0.8071027440018952,,,,,sub-019,1,random_dot,60.00154791900696,
right,right,30.0,0.0,15.0,right,1.0,0.8262164549960289,,speed,space,5.845644255998195,,,,,,0.0,1.0,1.0,1.0,15.0,0.0,30.0,1.0,319.1093463279976,,,,,,,,,319.0939666649938,319.4435950460029,320.24368150399823,320.2272425370029,320.22769632299605,320.24368150399823,320.24368150399823,320.24368150399823,321.0764019060007,,,,,,,,,,,,,,,,,,,,,,,,,,,,,,right,1.0,0.8262164549960289,,,,,sub-019,1,random_dot,60.00154791900696,
left,left,31.0,1.0,15.0,left,1.0,0.814821096995729,,speed,space,5.845644255998195,,,,,,0.0,1.0,1.0,1.0,15.0,1.0,31.0,0.0,321.09365199699823,,,,,,,,,321.076829668993,321.42697410599794,322.227075214003,322.210981739001,322.21144122700207,322.227075214003,322.227075214003,322.227075214003,323.0441005879984,,,,,,,,,,,,,,,,,,,,,,,,,,,,,,left,1.0,0.814821096995729,,,,,sub-019,1,random_dot,60.00154791900696,
right,right,32.0,0.0,16.0,right,1.0,2.113736964995041,,speed,space,5.845644255998195,,,,,,0.0,1.0,1.0,1.0,16.0,0.0,32.0,1.0,323.0596435490006,,,,,,,,,323.0445652729977,323.84393389600154,324.64403733599465,324.62755612099136,324.6280098580028,324.64403733599465,324.64403733599465,324.64403733599465,326.7609092289931,,,,,,,,,,,,,,,,,,,,,,,,,,,,,,right,1.0,2.113736964995041,,,,,sub-019,1,random_dot,60.00154791900696,
left,left,33.0,1.0,16.0,left,1.0,0.606154149005306,,speed,space,5.845644255998195,,,,,,0.0,1.0,1.0,1.0,16.0,1.0,33.0,0.0,326.7764798940043,,,,,,,,,326.76130630398984,327.96084573799453,328.76090444000147,328.7445130749984,328.74496858599014,328.76090444000147,328.76090444000147,328.76090444000147,329.3764121400018,,,,,,,,,,,,,,,,,,,,,,,,,,,,,,left,1.0,0.606154149005306,,,,,sub-019,1,random_dot,60.00154791900696,
left,left,34.0,0.0,17.0,left,1.0,1.4270705089875264,,speed,space,5.845644255998195,,,,,,0.0,1.0,1.0,1.0,17.0,0.0,34.0,0.0,329.3942710859992,,,,,,,,,329.37668338000367,329.72757326399733,330.5276989999984,330.51131414200063,330.51177406198985,330.5276989999984,330.5276989999984,330.5276989999984,331.9604335210024,,,,,,,,,,,,,,,,,,,,,,,,,,,,,,left,1.0,1.4270705089875264,,,,,sub-019,1,random_dot,60.00154791900696,
right,right,35.0,1.0,17.0,left,0.0,3.350429534999421,,speed,space,5.845644255998195,,,,,,0.0,1.0,1.0,1.0,17.0,1.0,35.0,1.0,331.9779417709942,,,,,,,,,331.9609403409995,332.0611390659906,332.86111815799086,332.8447496419976,332.84520253799565,332.86111815799086,332.86111815799086,332.86111815799086,336.22678862599423,,,,,,,,,,,,,,,,,,,,,,,,,,,,,,left,0.0,3.350429534999421,,,,,sub-019,1,random_dot,60.00154791900696,
left,left,36.0,0.0,18.0,left,1.0,0.7977155039989157,,speed,space,5.845644255998195,,,,,,0.0,1.0,1.0,1.0,18.0,0.0,36.0,0.0,336.2447200769966,,,,,,,,,336.2270870200009,336.5758243869932,337.3782716519927,337.36188098599087,337.36234422599955,337.3782716519927,337.3782716519927,337.3782716519927,338.19324324799527,,,,,,,,,,,,,,,,,,,,,,,,,,,,,,left,1.0,0.7977155039989157,,,,,sub-019,1,random_dot,60.00154791900696,
right,right,37.0,1.0,18.0,left,0.0,0.715878415008774,,speed,space,5.845644255998195,,,,,,0.0,1.0,1.0,1.0,18.0,1.0,37.0,1.0,338.20925333400373,,,,,,,,,338.19352647099004,339.394990175002,340.1951294009923,340.1785998300038,340.179055147004,340.1951294009923,340.1951294009923,340.1951294009923,340.91263886599336,,,,,,,,,,,,,,,,,,,,,,,,,,,,,,left,0.0,0.715878415008774,,,,,sub-019,1,random_dot,60.00154791900696,
right,right,38.0,0.0,19.0,left,0.0,1.8799906720087165,,speed,space,5.845644255998195,,,,,,0.0,1.0,1.0,1.0,19.0,0.0,38.0,1.0,340.9284245579911,,,,,,,,,340.91313756399904,341.26161867899646,342.06189304500003,342.0456309479923,342.0460852849937,342.06189304500003,342.06189304500003,342.06189304500003,343.9455377370032,,,,,,,,,,,,,,,,,,,,,,,,,,,,,,left,0.0,1.8799906720087165,,,,,sub-019,1,random_dot,60.00154791900696,
left,left,39.0,1.0,19.0,right,0.0,2.17564916399715,,speed,space,5.845644255998195,,,,,,0.0,1.0,1.0,1.0,19.0,1.0,39.0,0.0,343.9615160270041,,,,,,,,,343.945938705001,344.7453746389947,345.5454527529946,345.5289386020013,345.52939994999906,345.5454527529946,345.5454527529946,345.5454527529946,347.72799476599903,,,,,,,,,,,,,,,,,,,,,,,,,,,,,,right,0.0,2.17564916399715,,,,,sub-019,1,random_dot,60.00154791900696,
left,left,40.0,0.0,20.0,left,1.0,0.7099723010032903,,speed,space,5.845644255998195,,,,,,0.0,1.0,1.0,1.0,20.0,0.0,40.0,0.0,347.7456544829911,,,,,,,,,347.7283986249968,348.528870715003,349.32912832600414,349.3123619379912,349.3128226639965,349.32912832600414,349.32912832600414,349.32912832600414,350.0454407759971,,,,,,,,,,,,,,,,,,,,,,,,,,,,,,left,1.0,0.7099723010032903,,,,,sub-019,1,random_dot,60.00154791900696,
right,right,41.0,1.0,20.0,right,1.0,1.8176520620036167,,speed,space,5.845644255998195,,,,,,0.0,1.0,1.0,1.0,20.0,1.0,41.0,1.0,350.0624851890025,,,,,,,,,350.0458771679987,350.1451901340042,350.9444774119911,350.92922736999753,350.92961885199475,350.9444774119911,350.9444774119911,350.9444774119911,352.76345566999225,,,,,,,,,,,,,,,,,,,,,,,,,,,,,,right,1.0,1.8176520620036167,,,,,sub-019,1,random_dot,60.00154791900696,
left,left,42.0,0.0,21.0,left,1.0,2.220509698992828,,speed,space,5.845644255998195,,,,,,0.0,1.0,1.0,1.0,21.0,0.0,42.0,0.0,352.77933030499844,,,,,,,,,352.763974720001,353.979261253,354.7792668559996,354.7629156369949,354.7633707139903,354.7792668559996,354.7792668559996,354.7792668559996,357.01327235599456,,,,,,,,,,,,,,,,,,,,,,,,,,,,,,left,1.0,2.220509698992828,,,,,sub-019,1,random_dot,60.00154791900696,
right,right,43.0,1.0,21.0,left,0.0,0.6644240540044848,,speed,space,5.845644255998195,,,,,,0.0,1.0,1.0,1.0,21.0,1.0,43.0,1.0,357.029458880992,,,,,,,,,357.0136776110012,357.11286400699464,357.9129780329968,357.8964945819898,357.8969450759905,357.9129780329968,357.9129780329968,357.9129780329968,358.58003203599947,,,,,,,,,,,,,,,,,,,,,,,,,,,,,,left,0.0,0.6644240540044848,,,,,sub-019,1,random_dot,60.00154791900696,
right,right,44.0,0.0,22.0,right,1.0,3.0140373569884105,,speed,space,5.845644255998195,,,,,,0.0,1.0,1.0,1.0,22.0,0.0,44.0,1.0,358.5962707379949,,,,,,,,,358.58043028900283,358.67976285499753,359.4799090229935,359.4632410149934,359.4636928379914,359.4799090229935,359.4799090229935,359.4799090229935,362.4969091410021,,,,,,,,,,,,,,,,,,,,,,,,,,,,,,right,1.0,3.0140373569884105,,,,,sub-019,1,random_dot,60.00154791900696,
left,left,45.0,1.0,22.0,left,1.0,1.0658653950085863,,speed,space,5.845644255998195,,,,,,0.0,1.0,1.0,1.0,22.0,1.0,45.0,0.0,362.5130034229951,,,,,,,,,362.49732563899306,362.5964655629941,363.39680064200365,363.38018395600375,363.3806412099948,363.39680064200365,363.39680064200365,363.39680064200365,364.464413159003,,,,,,,,,,,,,,,,,,,,,,,,,,,,,,left,1.0,1.0658653950085863,,,,,sub-019,1,random_dot,60.00154791900696,
right,right,46.0,0.0,23.0,left,0.0,4.5175293130014325,,speed,space,5.845644255998195,,,,,,0.0,1.0,1.0,1.0,23.0,0.0,46.0,1.0,364.4784875429905,,,,,,,,,364.4649296699936,365.2801675149967,366.080157755001,366.0638626970031,366.06431823999446,366.080157755001,366.080157755001,366.080157755001,370.6123346949898,,,,,,,,,,,,,,,,,,,,,,,,,,,,,,left,0.0,4.5175293130014325,,,,,sub-019,1,random_dot,60.00154791900696,
left,left,47.0,1.0,23.0,left,1.0,0.8081530749914236,,speed,space,5.845644255998195,,,,,,0.0,1.0,1.0,1.0,23.0,1.0,47.0,0.0,370.63049870799296,,,,,,,,,370.61263709499326,371.41392426499806,372.213967484,372.1975268249953,372.19798435099074,372.213967484,372.213967484,372.213967484,373.02989268999954,,,,,,,,,,,,,,,,,,,,,,,,,,,,,,left,1.0,0.8081530749914236,,,,,sub-019,1,random_dot,60.00154791900696,
left,left,48.0,0.0,24.0,left,1.0,2.7167723720049253,,speed,space,5.845644255998195,,,,,,0.0,1.0,1.0,1.0,24.0,0.0,48.0,0.0,373.04739880599664,,,,,,,,,373.0301662379934,373.3806500490027,374.18069403400295,374.1643257160031,374.16478346499207,374.18069403400295,374.18069403400295,374.18069403400295,376.9151434489904,,,,,,,,,,,,,,,,,,,,,,,,,,,,,,left,1.0,2.7167723720049253,,,,,sub-019,1,random_dot,60.00154791900696,
right,right,49.0,1.0,24.0,left,0.0,2.975000217993511,,speed,space,5.845644255998195,,,,,,0.0,1.0,1.0,1.0,24.0,1.0,49.0,1.0,376.9310661560012,,,,,,,,,376.9156764919898,377.0142651420029,377.8142709669919,377.797929413995,377.7983850610035,377.8142709669919,377.8142709669919,377.8142709669919,380.7971838389931,,,,,,,,,,,,,,,,,,,,,,,,,,,,,,left,0.0,2.975000217993511,,,,,sub-019,1,random_dot,60.00154791900696,
right,right,50.0,0.0,25.0,right,1.0,1.9657093069981784,,speed,space,5.845644255998195,,,,,,0.0,1.0,1.0,1.0,25.0,0.0,50.0,1.0,380.81435699400026,,,,,,,,,380.7976265430043,381.1477309859911,381.9477552739991,381.9312620389974,381.931720869994,381.9477552739991,381.9477552739991,381.9477552739991,383.9153533499921,,,,,,,,,,,,,,,,,,,,,,,,,,,,,,right,1.0,1.9657093069981784,,,,,sub-019,1,random_dot,60.00154791900696,
left,left,51.0,1.0,25.0,left,1.0,0.4624630780017469,,speed,space,5.845644255998195,,,,,,0.0,1.0,1.0,1.0,25.0,1.0,51.0,0.0,383.9314114949957,,,,,,,,,383.9158608189901,384.71459575300105,385.51468414599367,385.4984704639937,385.4989272179955,385.51468414599367,385.51468414599367,385.51468414599367,385.98143545299536,,,,,,,,,,,,,,,,,,,,,,,,,,,,,,left,1.0,0.4624630780017469,,,,,sub-019,1,random_dot,60.00154791900696,
left,left,52.0,0.0,26.0,left,1.0,3.5873453759995755,,speed,space,5.845644255998195,,,,,,0.0,1.0,1.0,1.0,26.0,0.0,52.0,0.0,385.99819233099697,,,,,,,,,385.9817524620012,386.78156955000304,387.5815555369918,387.5652157809964,387.5656752429932,387.5815555369918,387.5815555369918,387.5815555369918,391.1814850009978,,,,,,,,,,,,,,,,,,,,,,,,,,,,,,left,1.0,3.5873453759995755,,,,,sub-019,1,random_dot,60.00154791900696,
right,right,53.0,1.0,26.0,right,1.0,1.8526575319992844,,speed,space,5.845644255998195,,,,,,0.0,1.0,1.0,1.0,26.0,1.0,53.0,1.0,391.1984849099972,,,,,,,,,391.1818307729991,391.2819170829898,392.0820546689938,392.0651938139927,392.06564783499925,392.0820546689938,392.0820546689938,392.0820546689938,393.9490483230038,,,,,,,,,,,,,,,,,,,,,,,,,,,,,,right,1.0,1.8526575319992844,,,,,sub-019,1,random_dot,60.00154791900696,
right,right,54.0,0.0,27.0,right,1.0,1.4709042699978454,,speed,space,5.845644255998195,,,,,,0.0,1.0,1.0,1.0,27.0,0.0,54.0,1.0,393.9655092869944,,,,,,,,,393.94946993800113,394.0487235509936,394.8488889790024,394.83240615999966,394.8328885200026,394.8488889790024,394.8488889790024,394.8488889790024,396.33245600799273,,,,,,,,,,,,,,,,,,,,,,,,,,,,,,right,1.0,1.4709042699978454,,,,,sub-019,1,random_dot,60.00154791900696,
left,left,55.0,1.0,27.0,left,1.0,1.2789673369989032,,speed,space,5.845644255998195,,,,,,0.0,1.0,1.0,1.0,27.0,1.0,55.0,0.0,396.3489416959928,,,,,,,,,396.3328787999926,397.532069754001,398.3465570179978,398.3299873939977,398.3302546929917,398.3465570179978,398.3465570179978,398.3465570179978,399.6318372099922,,,,,,,,,,,,,,,,,,,,,,,,,,,,,,left,1.0,1.2789673369989032,,,,,sub-019,1,random_dot,60.00154791900696,
left,left,56.0,0.0,28.0,left,1.0,1.232910245002131,,speed,space,5.845644255998195,,,,,,0.0,1.0,1.0,1.0,28.0,0.0,56.0,0.0,399.6491321439971,,,,,,,,,399.6322020499938,399.982402751004,400.78252372199495,400.7660446039954,400.766507288994,400.78252372199495,400.78252372199495,400.78252372199495,402.0169505189988,,,,,,,,,,,,,,,,,,,,,,,,,,,,,,left,1.0,1.232910245002131,,,,,sub-019,1,random_dot,60.00154791900696,
right,right,57.0,1.0,28.0,right,1.0,2.3455550270009558,,speed,space,5.845644255998195,,,,,,0.0,1.0,1.0,1.0,28.0,1.0,57.0,1.0,402.031831499,,,,,,,,,402.0174299420032,403.23266557999887,404.0327711919963,404.0164288840024,404.0168856149976,404.0327711919963,404.0327711919963,404.0327711919963,406.382855939999,,,,,,,,,,,,,,,,,,,,,,,,,,,,,,right,1.0,2.3455550270009558,,,,,sub-019,1,random_dot,60.00154791900696,
right,right,58.0,0.0,29.0,right,1.0,2.232021176998387,,speed,space,5.845644255998195,,,,,,0.0,1.0,1.0,1.0,29.0,0.0,58.0,1.0,406.39967606299615,,,,,,,,,406.3831853400043,406.73302117599815,407.53285768599017,407.5165535889973,407.5170123720018,407.53285768599017,407.53285768599017,407.53285768599017,409.767141231001,,,,,,,,,,,,,,,,,,,,,,,,,,,,,,right,1.0,2.232021176998387,,,,,sub-019,1,random_dot,60.00154791900696,
left,left,59.0,1.0,29.0,left,1.0,0.7964998459938215,,speed,space,5.845644255998195,,,,,,0.0,1.0,1.0,1.0,29.0,1.0,59.0,0.0,409.78287178400205,,,,,,,,,409.767534847997,410.98203033900063,411.7832751889946,411.76685018900025,411.7673102999979,411.7832751889946,411.7832751889946,411.7832751889946,412.5834349709912,,,,,,,,,,,,,,,,,,,,,,,,,,,,,,left,1.0,0.7964998459938215,,,,,sub-019,1,random_dot,60.00154791900696,
,,1.0,1.0,0.0,,,,,speed,space,5.845644255998195,,,,,,0.0,1.0,1.0,1.0,,,,,,,,,,,,,,,,,,,,,,,,,,,,,,,,,,,,,,,,,,,,,,,,,,,,,,,,,,,sub-019,1,random_dot,60.00154791900696,
,,,,,,,,,,,,,,,,,,,,,,,,,,,,,,,,,,,,,,,,,,,,,,,,,,,,,,,,,,,,,,,,,,,,,,,,,,,,412.58885427399946,412.599528050996,417.5838316790032,sub-019,1,random_dot,60.00154791900696,
