direction,corrAns,randomInstr,practice_trials.thisRepN,practice_trials.thisTrialN,practice_trials.thisN,practice_trials.thisIndex,instr_trials.thisRepN,instr_trials.thisTrialN,instr_trials.thisN,instr_trials.thisIndex,test_trials.thisRepN,test_trials.thisTrialN,test_trials.thisN,test_trials.thisIndex,thisRow.t,notes,general_instruction.started,textGeneralInstr.started,respGeneralInstr.started,general_instruction.stopped,respGeneralInstr.keys,respGeneralInstr.rt,respGeneralInstr.duration,ITI.started,fixcross.started,fixcross.stopped,ITI.stopped,dots.started,backgroundDots.started,stimulusDots.started,respDots.started,dots.stopped,respDots.keys,respDots.corr,respDots.rt,respDots.duration,feedback.started,textFeedback.started,feedback.stopped,stimulusDots.stopped,textFeedback.stopped,info.started,textInfo.started,keyRespInfo.started,info.stopped,keyRespInfo.keys,keyRespInfo.rt,keyRespInfo.duration,test_instruction.started,textTestInstr.started,respTestInstr.started,test_instruction.stopped,respTestInstr.keys,respTestInstr.rt,respTestInstr.duration,random_instruction.started,textRandomInstr.started,respRandomInstr.started,random_instruction.stopped,respRandomInstr.keys,respRandomInstr.rt,respRandomInstr.duration,goodbye.started,textGoodbye.started,textGoodbye.stopped,goodbye.stopped,participant,session,expName,frameRate,Unnamed: 74
,,,,,,,,,,,,,,,,,0.039407400006894,0.0470884999958798,0.0470884999958798,28.661246000003302,space,66.25255319999997,,,,,,,,,,,,,,,,,,,,,,,,,,,,,,,,,,,,,,,,,,,,,sub-045,1.0,random_dot,59.74472275227346,
left,left,,0.0,0.0,0.0,0.0,,,,,,,,,28.698538800003007,,,,,,,,,28.691081800003303,29.86658050000551,30.73231739999028,30.651201700005917,30.651240900013363,30.73231739999028,30.73231739999028,30.73231739999028,35.10384689999046,left,1.0,41.99503379996168,,35.105390400014585,35.124761699989904,35.61856329999864,,,,,,,,,,,,,,,,,,,,,,,,,,,,sub-045,1.0,random_dot,59.74472275227346,
right,right,,0.0,1.0,1.0,1.0,,,,,,,,,35.63479849998839,,,,,,,,,35.619571699993685,36.81841129998793,37.61900340000284,37.602604899992,37.60264970001299,37.61900340000284,37.61900340000284,37.61900340000284,43.72021269999095,right,1.0,43.730752900009975,,43.72107080000569,43.73497009999119,44.21943420000025,42.60195159999421,44.23486029999913,,,,,,,,,,,,,,,,,,,,,,,,,,sub-045,1.0,random_dot,59.74472275227346,
left,left,,1.0,0.0,2.0,0.0,,,,,,,,,44.23486029999913,,,,,,,,,44.22010130001581,45.43487240001559,46.2351398000028,46.21900690000621,46.21904480000376,46.2351398000028,46.2351398000028,46.2351398000028,47.65452529999311,left,1.0,39.0584027999721,,47.6556958000001,47.667980199999874,48.15239480001037,,48.16784569999436,,,,,,,,,,,,,,,,,,,,,,,,,,sub-045,1.0,random_dot,59.74472275227346,
right,right,,1.0,1.0,3.0,1.0,,,,,,,,,48.16784569999436,,,,,,,,,48.15303200000199,49.36792620000779,50.16846429998986,50.15255210001487,50.15259410001454,50.16846429998986,50.16846429998986,50.16846429998986,53.25344100000802,right,1.0,40.715106899966486,,53.25451369999792,53.26791660001618,53.75240110000596,,53.76827219998813,,,,,,,,,,,,,,,,,,,,,,,,,,sub-045,1.0,random_dot,59.74472275227346,
left,left,,2.0,0.0,4.0,0.0,,,,,,,,,53.76827219998813,,,,,,,,,53.75311680001323,54.96843529999023,55.76873959999648,55.75224080000771,55.75228089999291,55.76873959999648,55.76873959999648,55.76873959999648,57.77024529999471,left,1.0,39.63274749997072,,57.7712121999939,57.7902912000136,58.28545719999238,,,,,,,,,,,,,,,,,,,,,,,,,,,,sub-045,1.0,random_dot,59.74472275227346,
right,right,,2.0,1.0,5.0,1.0,,,,,,,,,58.30117580000661,,,,,,,,,58.28617619999568,59.08452160001616,59.885405600012746,59.869023100007325,59.869063299993286,59.885405600012746,59.885405600012746,59.885405600012746,63.35388760000933,left,0.0,41.09902900000452,,63.35473120000097,63.37203399999999,63.86844150000252,,,,,,,,,,,,,,,,,,,,,,,,,,,,sub-045,1.0,random_dot,59.74472275227346,
left,left,,3.0,0.0,6.0,0.0,,,,,,,,,63.8846610999899,,,,,,,,,63.869150500016985,63.96782029999304,64.76840349999839,64.75225620000856,64.75229900001432,64.76840349999839,64.76840349999839,64.76840349999839,66.5034478000016,left,1.0,39.3612522999756,,66.5043422000017,66.51825789999566,67.00273619999643,,67.01791930000763,,,,,,,,,,,,,,,,,,,,,,,,,,sub-045,1.0,random_dot,59.74472275227346,
right,right,,3.0,1.0,7.0,1.0,,,,,,,,,67.01791930000763,,,,,,,,,67.0034677000076,67.36856500001159,68.16861369999242,68.15236760000698,68.152399899991,68.16861369999242,68.16861369999242,68.16861369999242,69.43697030001204,right,1.0,38.90582199997152,,69.43804330000421,69.45140349998837,69.93557979998877,,69.9516544000071,,,,,,,,,,,,,,,,,,,,,,,,,,sub-045,1.0,random_dot,59.74472275227346,
left,left,,4.0,0.0,8.0,0.0,,,,,,,,,69.9516544000071,,,,,,,,,69.93627559999004,71.1512650999939,71.9517627999885,71.93595610000193,71.93599050000194,71.9517627999885,71.9517627999885,71.9517627999885,73.2870777999924,left,1.0,38.96361639999668,,73.2882620000164,73.30139290000079,73.78582180000376,,73.80197490000864,,,,,,,,,,,,,,,,,,,,,,,,,,sub-045,1.0,random_dot,59.74472275227346,
right,right,,4.0,1.0,9.0,1.0,,,,,,,,,73.80197490000864,,,,,,,,,73.7864804000128,73.90125870000338,74.70189210001263,74.68581480000285,74.68585670000175,74.70189210001263,74.70189210001263,74.70189210001263,77.63274580001598,right,1.0,40.56048559996998,,77.63360739999916,77.64701869999408,78.13124990000506,,78.14637910001329,,,,,,,,,,,,,,,,,,,,,,,,,,sub-045,1.0,random_dot,59.74472275227346,
left,left,,5.0,0.0,10.0,0.0,,,,,,,,,78.14637910001329,,,,,,,,,78.13212630001362,78.94699210001272,79.74766839999938,79.73138559999643,79.73141899998882,79.74766839999938,79.74766839999938,79.74766839999938,81.53243210000801,left,1.0,39.41568839998217,,81.53339110000525,81.54708499999833,82.0307856000145,,82.04716919999919,,,,,,,,,,,,,,,,,,,,,,,,,,sub-045,1.0,random_dot,59.74472275227346,
right,right,,5.0,1.0,11.0,1.0,,,,,,,,,82.04716919999919,,,,,,,,,82.03143959998852,82.84694560000207,83.64714210000238,83.63138549998985,83.63141969998833,83.64714210000238,83.64714210000238,83.64714210000238,85.29938430001494,right,1.0,39.277859599969815,,85.30026789999101,85.31386180000845,85.79812610000954,,85.81321709998883,,,,,,,,,,,,,,,,,,,,,,,,,,sub-045,1.0,random_dot,59.74472275227346,
left,left,,6.0,0.0,12.0,0.0,,,,,,,,,85.81321709998883,,,,,,,,,85.79893009999068,86.16348069999367,86.96296249999432,86.95225299999584,86.95229310001014,86.96296249999432,86.96296249999432,86.96296249999432,87.76580540000577,left,1.0,38.439284499996575,,87.76694589998806,87.77985739998985,88.26405030000024,,88.28022300000885,,,,,,,,,,,,,,,,,,,,,,,,,,sub-045,1.0,random_dot,59.74472275227346,
right,right,,6.0,1.0,13.0,1.0,,,,,,,,,88.28022300000885,,,,,,,,,88.2648482999939,88.37975349999033,89.18013260001317,89.16401899998891,89.16406390001066,89.18013260001317,89.18013260001317,89.18013260001317,90.798569400009,right,1.0,39.243081099994015,,90.7996151999978,90.81293360001293,91.29806380000082,,91.3129237999965,,,,,,,,,,,,,,,,,,,,,,,,,,sub-045,1.0,random_dot,59.74472275227346,
right,right,,7.0,0.0,14.0,1.0,,,,,,,,,91.3129237999965,,,,,,,,,91.29872829999658,92.51354350001202,93.31363049999344,93.29835640001691,93.29839660000287,93.31363049999344,93.31363049999344,93.31363049999344,94.61554800000158,left,0.0,38.932768699974986,,94.61656650001532,94.6301325999957,95.11477260000538,,95.12986029998864,,,,,,,,,,,,,,,,,,,,,,,,,,sub-045,1.0,random_dot,59.74472275227346,
left,left,,7.0,1.0,15.0,0.0,,,,,,,,,95.12986029998864,,,,,,,,,95.1155921999889,96.33022709999932,97.13085690001026,97.1141855000169,97.11422759998824,97.13085690001026,97.13085690001026,97.13085690001026,97.91533240000716,left,1.0,38.41823819998535,,97.91617720000797,97.9295007000037,98.41486809999331,,98.4302735000092,,,,,,,,,,,,,,,,,,,,,,,,,,sub-045,1.0,random_dot,59.74472275227346,
left,left,,8.0,0.0,16.0,0.0,,,,,,,,,98.4302735000092,,,,,,,,,98.4156304000062,98.5299745000084,99.44613769999704,99.4123602999898,99.41242870001588,99.44613769999704,99.44613769999704,99.44613769999704,100.3834857000038,left,1.0,38.56775759998709,,100.38492899999255,100.4050763999985,100.89890900001046,,,,,,,,,,,,,,,,,,,,,,,,,,,,sub-045,1.0,random_dot,59.74472275227346,
right,right,,8.0,1.0,17.0,1.0,,,,,,,,,100.91280849999748,,,,,,,,,100.89988280000398,101.69598140000016,102.49680429999717,102.48128410000936,102.48132479999911,102.49680429999717,102.49680429999717,102.49680429999717,103.88252059998922,right,1.0,39.01747479999904,,103.88336619999608,103.89592350000748,104.3809098000056,,104.39615000001504,,,,,,,,,,,,,,,,,,,,,,,,,,sub-045,1.0,random_dot,59.74472275227346,
left,left,,9.0,0.0,18.0,0.0,,,,,,,,,104.39615000001504,,,,,,,,,104.3815697999962,104.49594439999782,105.2964876999904,105.280682600016,105.28074459999334,105.2964876999904,105.2964876999904,105.2964876999904,106.04818069998872,left,1.0,38.38756079997984,,106.0490206000104,106.0630172000092,106.54709169999114,,106.562751999998,,,,,,,,,,,,,,,,,,,,,,,,,,sub-045,1.0,random_dot,59.74472275227346,
right,right,,9.0,1.0,19.0,1.0,,,,,,,,,106.562751999998,,,,,,,,,106.54779000001145,107.3632815000019,108.16407840000466,108.14705739999772,108.14709929999664,108.16407840000466,108.16407840000466,108.16407840000466,109.64871060001316,right,1.0,39.12312779997592,,109.64955060000648,109.66276609999476,110.14735089999158,,110.16297699999996,,,,,,,,,,,,,,,,,,,,,,,,,,sub-045,1.0,random_dot,59.74472275227346,
,,,,,,,,,,,,,,,,,,,,,,,,,,,,,,,,,,,,,,,,,,110.14759149999009,110.16297699999996,110.16297699999996,118.53107550001003,space,45.99756419999176,,,,,,,,,,,,,,,,,,,,sub-045,1.0,random_dot,59.74472275227346,
,,,,,,,,,,,,,,,,,,,,,,,,,,,,,,,,,,,,,,,,,,,,,,,,,118.53113109999686,118.54639319999842,118.54639319999842,130.8142530999903,space,49.903661399992416,,,,,,,,,,,,,sub-045,1.0,random_dot,59.74472275227346,
right,right,accuracy,,,,,0.0,0.0,0.0,0.0,0.0,0.0,0.0,1.0,134.62579710001592,,,,,,,,,134.61962879999192,134.72119459998794,135.52164469999843,135.50565700000152,135.50569409999298,135.52164469999843,135.52164469999843,135.52164469999843,136.47321990001365,left,0.0,38.58262059997651,,,,,,,,,,,,,,,,,,,,,130.82028799998807,130.86077639998985,130.86077639998985,134.60695429999032,space,41.38510330001009,,,,,,sub-045,1.0,random_dot,59.74472275227346,
left,left,accuracy,,,,,0.0,0.0,0.0,0.0,0.0,1.0,1.0,0.0,136.48738159998902,,,,,,,,,136.4754937000107,137.28765780001413,138.0885857999965,138.0720685000124,138.0721016000025,138.0885857999965,138.0885857999965,138.0885857999965,139.82327459999942,left,1.0,39.36719359998824,,,,,,,,,,,,,,,,,,,,,,,,,,,,,,,,sub-045,1.0,random_dot,59.74472275227346,
right,right,accuracy,,,,,0.0,0.0,0.0,0.0,1.0,0.0,2.0,1.0,139.84011250000913,,,,,,,,,139.82506160001503,141.03791720001027,141.8382393000065,141.8218276000116,141.82186120000551,141.8382393000065,141.8382393000065,141.8382393000065,143.9400591000158,right,1.0,39.7354054999887,,,,,,,,,,,,,,,,,,,,,,,,,,,,,,,,sub-045,1.0,random_dot,59.74472275227346,
left,left,accuracy,,,,,0.0,0.0,0.0,0.0,1.0,1.0,3.0,0.0,143.95392440000433,,,,,,,,,143.9426078000106,144.05422530000214,144.85484509999517,144.83865419999347,144.83869100001175,144.85484509999517,144.85484509999517,144.85484509999517,145.69017700001132,left,1.0,38.47371579997707,,,,,,,,,,,,,,,,,,,,,,,,,,,,,,,,sub-045,1.0,random_dot,59.74472275227346,
right,right,accuracy,,,,,0.0,0.0,0.0,0.0,2.0,0.0,4.0,1.0,145.70431910001207,,,,,,,,,145.6920536000107,146.90439710000646,147.70528500000364,147.68882899999153,147.68887089999043,147.70528500000364,147.70528500000364,147.70528500000364,151.29029420000734,left,0.0,41.21206069996697,,,,,,,,,,,,,,,,,,,,,,,,,,,,,,,,sub-045,1.0,random_dot,59.74472275227346,
left,left,accuracy,,,,,0.0,0.0,0.0,0.0,2.0,1.0,5.0,0.0,151.30423850001534,,,,,,,,,151.29324769999948,151.40424269999494,152.20462550001685,152.1884893999959,152.18852719999268,152.20462550001685,152.20462550001685,152.20462550001685,155.07330170000205,left,1.0,40.499084100010805,,,,,,,,,,,,,,,,,,,,,,,,,,,,,,,,sub-045,1.0,random_dot,59.74472275227346,
right,right,accuracy,,,,,0.0,0.0,0.0,0.0,3.0,0.0,6.0,1.0,155.087743400014,,,,,,,,,155.07651869999245,155.88736470000003,156.68796350000775,156.67187749998993,156.67191110001295,156.68796350000775,156.68796350000775,156.68796350000775,160.18973270000424,right,1.0,41.13744469996891,,,,,,,,,,,,,,,,,,,,,,,,,,,,,,,,sub-045,1.0,random_dot,59.74472275227346,
left,left,accuracy,,,,,0.0,0.0,0.0,0.0,3.0,1.0,7.0,0.0,160.20453889999771,,,,,,,,,160.19159470000886,161.4046171999944,162.20451999999932,162.18883200001437,162.18887209999957,162.20451999999932,162.20451999999932,162.20451999999932,163.12282429999323,left,1.0,38.54283199997735,,,,,,,,,,,,,,,,,,,,,,,,,,,,,,,,sub-045,1.0,random_dot,59.74472275227346,
right,right,accuracy,,,,,0.0,0.0,0.0,0.0,4.0,0.0,8.0,1.0,163.13721439999065,,,,,,,,,163.12455700000282,163.23737720001373,164.03819019999355,164.02194510001573,164.0219814000011,164.03819019999355,164.03819019999355,164.03819019999355,165.20624920001137,right,1.0,38.79605899998569,,,,,,,,,,,,,,,,,,,,,,,,,,,,,,,,sub-045,1.0,random_dot,59.74472275227346,
left,left,accuracy,,,,,0.0,0.0,0.0,0.0,4.0,1.0,9.0,0.0,165.2212555000151,,,,,,,,,165.2081201999972,166.0205355999933,166.82243810000364,166.8053651000082,166.80540740001015,166.82243810000364,166.82243810000364,166.82243810000364,167.62289520000922,left,1.0,38.42946729998221,,,,,,,,,,,,,,,,,,,,,,,,,,,,,,,,sub-045,1.0,random_dot,59.74472275227346,
right,right,accuracy,,,,,0.0,0.0,0.0,0.0,5.0,0.0,10.0,1.0,167.63729220000096,,,,,,,,,167.62462570000207,168.43735930000548,169.23810670000967,169.22160419999273,169.2216371000104,169.23810670000967,169.23810670000967,169.23810670000967,171.80665489999228,right,1.0,40.1977302999876,,,,,,,,,,,,,,,,,,,,,,,,,,,,,,,,sub-045,1.0,random_dot,59.74472275227346,
left,left,accuracy,,,,,0.0,0.0,0.0,0.0,5.0,1.0,11.0,0.0,171.82075600000098,,,,,,,,,171.80886350001674,172.6209494000068,173.421419899998,173.4053305000125,173.4053714000038,173.421419899998,173.421419899998,173.421419899998,174.19041579999612,left,1.0,38.40772759998799,,,,,,,,,,,,,,,,,,,,,,,,,,,,,,,,sub-045,1.0,random_dot,59.74472275227346,
right,right,accuracy,,,,,0.0,0.0,0.0,0.0,6.0,0.0,12.0,1.0,174.20391340000788,,,,,,,,,174.19235379999736,175.40398420000565,176.2045485000126,176.1890671000001,176.1890998000163,176.2045485000126,176.2045485000126,176.2045485000126,180.3559105999884,right,1.0,41.78304759997991,,,,,,,,,,,,,,,,,,,,,,,,,,,,,,,,sub-045,1.0,random_dot,59.74472275227346,
left,left,accuracy,,,,,0.0,0.0,0.0,0.0,6.0,1.0,13.0,0.0,180.370577099995,,,,,,,,,180.35776119999355,181.1705995000084,181.9709681000095,181.95492069999452,181.95496209998964,181.9709681000095,181.9709681000095,181.9709681000095,182.68976629999813,left,1.0,38.35322650001035,,,,,,,,,,,,,,,,,,,,,,,,,,,,,,,,sub-045,1.0,random_dot,59.74472275227346,
right,right,accuracy,,,,,0.0,0.0,0.0,0.0,7.0,0.0,14.0,1.0,182.70383149999543,,,,,,,,,182.6915857999993,182.8036959000165,183.605106300005,183.5885866000026,183.5886329000059,183.605106300005,183.605106300005,183.605106300005,188.43947579999804,left,0.0,42.45795219999855,,,,,,,,,,,,,,,,,,,,,,,,,,,,,,,,sub-045,1.0,random_dot,59.74472275227346,
left,left,accuracy,,,,,0.0,0.0,0.0,0.0,7.0,1.0,15.0,0.0,188.4535705000162,,,,,,,,,188.4418058000156,189.25400600000285,190.0543356999988,190.038483500015,190.03852400000324,190.0543356999988,190.0543356999988,190.0543356999988,190.70620220000276,left,1.0,38.288103299972136,,,,,,,,,,,,,,,,,,,,,,,,,,,,,,,,sub-045,1.0,random_dot,59.74472275227346,
left,left,accuracy,,,,,0.0,0.0,0.0,0.0,8.0,0.0,16.0,0.0,190.7203795000096,,,,,,,,,190.7079888000153,191.9210160000075,192.7212189999991,192.70551580001484,192.70554880000415,192.7212189999991,192.7212189999991,192.7212189999991,193.55608889998985,left,1.0,38.46248379998724,,,,,,,,,,,,,,,,,,,,,,,,,,,,,,,,sub-045,1.0,random_dot,59.74472275227346,
right,right,accuracy,,,,,0.0,0.0,0.0,0.0,8.0,1.0,17.0,1.0,193.5710284000088,,,,,,,,,193.55788450001276,194.37067319999915,195.17111570001,195.15487790000043,195.1549115999951,195.17111570001,195.17111570001,195.17111570001,196.02278309999383,right,1.0,38.48788020000211,,,,,,,,,,,,,,,,,,,,,,,,,,,,,,,,sub-045,1.0,random_dot,59.74472275227346,
right,right,accuracy,,,,,0.0,0.0,0.0,0.0,9.0,0.0,18.0,1.0,196.0370999000152,,,,,,,,,196.0246571000025,197.23712490001344,198.03787659999216,198.02198670001235,198.0220197000017,198.03787659999216,198.03787659999216,198.03787659999216,200.02273080000305,right,1.0,39.61377809999976,,,,,,,,,,,,,,,,,,,,,,,,,,,,,,,,sub-045,1.0,random_dot,59.74472275227346,
left,left,accuracy,,,,,0.0,0.0,0.0,0.0,9.0,1.0,19.0,0.0,200.03898740001023,,,,,,,,,200.0245063999901,200.1371601000137,200.937760300003,200.92160560001503,200.92164770001543,200.937760300003,200.937760300003,200.937760300003,201.6068324999942,left,1.0,38.30787129999953,,,,,,,,,,,,,,,,,,,,,,,,,,,,,,,,sub-045,1.0,random_dot,59.74472275227346,
right,right,accuracy,,,,,0.0,0.0,0.0,0.0,10.0,0.0,20.0,1.0,201.6203436999931,,,,,,,,,201.60863060000705,201.7205159000005,202.52187050000063,202.50475940000612,202.50479269999775,202.52187050000063,202.52187050000063,202.52187050000063,203.50664239999605,right,1.0,38.62353310000617,,,,,,,,,,,,,,,,,,,,,,,,,,,,,,,,sub-045,1.0,random_dot,59.74472275227346,
left,left,accuracy,,,,,0.0,0.0,0.0,0.0,10.0,1.0,21.0,0.0,203.52046719999635,,,,,,,,,203.508399000013,203.62113869999305,204.42361659999003,204.40499790001195,204.40503180000812,204.42361659999003,204.42361659999003,204.42361659999003,205.073410699988,left,1.0,38.286763699987205,,,,,,,,,,,,,,,,,,,,,,,,,,,,,,,,sub-045,1.0,random_dot,59.74472275227346,
right,right,accuracy,,,,,0.0,0.0,0.0,0.0,11.0,0.0,22.0,1.0,205.08695050000097,,,,,,,,,205.0752518000081,206.28693920001388,207.08730069999,207.07173530000728,207.07176900000195,207.08730069999,207.08730069999,207.08730069999,209.02327020000664,right,1.0,39.56548289998318,,,,,,,,,,,,,,,,,,,,,,,,,,,,,,,,sub-045,1.0,random_dot,59.74472275227346,
left,left,accuracy,,,,,0.0,0.0,0.0,0.0,11.0,1.0,23.0,0.0,209.03757340001172,,,,,,,,,209.0250133000081,209.38754940000945,210.18783149999217,210.1717837000033,210.17181790000177,210.18783149999217,210.18783149999217,210.18783149999217,210.82345719999284,left,1.0,38.27414349996252,,,,,,,,,,,,,,,,,,,,,,,,,,,,,,,,sub-045,1.0,random_dot,59.74472275227346,
left,left,accuracy,,,,,0.0,0.0,0.0,0.0,12.0,0.0,24.0,0.0,210.83733420001224,,,,,,,,,210.8251772999938,212.0370857999951,212.83742659998825,212.82172649999848,212.8217616000038,212.83742659998825,212.83742659998825,212.83742659998825,213.53948589999345,left,1.0,38.332457099983,,,,,,,,,,,,,,,,,,,,,,,,,,,,,,,,sub-045,1.0,random_dot,59.74472275227346,
right,right,accuracy,,,,,0.0,0.0,0.0,0.0,12.0,1.0,25.0,1.0,213.55361130001256,,,,,,,,,213.5412933999905,213.9035440000007,214.7042281999893,214.68809129999136,214.6881248000136,214.7042281999893,214.7042281999893,214.7042281999893,215.88997469999595,right,1.0,38.82481989997905,,,,,,,,,,,,,,,,,,,,,,,,,,,,,,,,sub-045,1.0,random_dot,59.74472275227346,
left,left,accuracy,,,,,0.0,0.0,0.0,0.0,13.0,0.0,26.0,0.0,215.9037146999908,,,,,,,,,215.8916709999903,216.7040241000068,217.5042584000039,217.48861339999712,217.4886550999945,217.5042584000039,217.5042584000039,217.5042584000039,218.13935380001203,left,1.0,38.26254939998034,,,,,,,,,,,,,,,,,,,,,,,,,,,,,,,,sub-045,1.0,random_dot,59.74472275227346,
right,right,accuracy,,,,,0.0,0.0,0.0,0.0,13.0,1.0,27.0,1.0,218.15445249999172,,,,,,,,,218.14114180000612,218.2540346000169,219.05412290000825,219.03805440000724,219.03809489999549,219.05412290000825,219.05412290000825,219.05412290000825,220.2390744000149,right,1.0,38.81337349998648,,,,,,,,,,,,,,,,,,,,,,,,,,,,,,,,sub-045,1.0,random_dot,59.74472275227346,
left,left,accuracy,,,,,0.0,0.0,0.0,0.0,14.0,0.0,28.0,0.0,220.2540713000053,,,,,,,,,220.24105129999225,221.05387470001008,221.8544964999892,221.8382821000123,221.8383196000068,221.8544964999892,221.8544964999892,221.8544964999892,222.44044209999265,left,1.0,38.2249852999812,,,,,,,,,,,,,,,,,,,,,,,,,,,,,,,,sub-045,1.0,random_dot,59.74472275227346,
right,right,accuracy,,,,,0.0,0.0,0.0,0.0,14.0,1.0,29.0,1.0,222.45395920000735,,,,,,,,,222.4421721000108,222.55377430000223,223.35435189999407,223.33839340001575,223.3384272000112,223.35435189999407,223.35435189999407,223.35435189999407,224.72288069999195,right,1.0,38.9955366999784,,,,,,,,,,,,,,,,,,,,,,,,,,,,,,,,sub-045,1.0,random_dot,59.74472275227346,
right,right,accuracy,,,,,0.0,0.0,0.0,0.0,15.0,0.0,30.0,1.0,224.7371282000095,,,,,,,,,224.72487530001672,225.5368102999928,226.33765480000875,226.32147280001664,226.32150620000905,226.33765480000875,226.33765480000875,226.33765480000875,227.45622339998957,right,1.0,38.755649399972754,,,,,,,,,,,,,,,,,,,,,,,,,,,,,,,,sub-045,1.0,random_dot,59.74472275227346,
left,left,accuracy,,,,,0.0,0.0,0.0,0.0,15.0,1.0,31.0,0.0,227.47018770000432,,,,,,,,,227.45804679999128,227.8209313999978,228.6209926000156,228.60471449999025,228.60475220001533,228.6209926000156,228.6209926000156,228.6209926000156,229.33933009998876,left,1.0,38.34860550001031,,,,,,,,,,,,,,,,,,,,,,,,,,,,,,,,sub-045,1.0,random_dot,59.74472275227346,
right,right,accuracy,,,,,0.0,0.0,0.0,0.0,16.0,0.0,32.0,1.0,229.35423820000145,,,,,,,,,229.34106539998905,229.704040600016,230.5045009999885,230.48807310001573,230.4881056000013,230.5045009999885,230.5045009999885,230.5045009999885,231.35609190000105,right,1.0,38.47984409998753,,,,,,,,,,,,,,,,,,,,,,,,,,,,,,,,sub-045,1.0,random_dot,59.74472275227346,
left,left,accuracy,,,,,0.0,0.0,0.0,0.0,16.0,1.0,33.0,0.0,231.3703564000025,,,,,,,,,231.35781730001327,232.1701512,232.97070420000816,232.9546979000152,232.95473130000755,232.97070420000816,232.97070420000816,232.97070420000816,233.55586329998917,left,1.0,38.216594499972416,,,,,,,,,,,,,,,,,,,,,,,,,,,,,,,,sub-045,1.0,random_dot,59.74472275227346,
left,left,accuracy,,,,,0.0,0.0,0.0,0.0,17.0,0.0,34.0,0.0,233.5704345999984,,,,,,,,,233.55763759999536,234.3707631000143,235.1708343999926,235.1549975000089,235.15503920000629,235.1708343999926,235.1708343999926,235.1708343999926,235.972299200017,left,1.0,38.42596279998543,,,,,,,,,,,,,,,,,,,,,,,,,,,,,,,,sub-045,1.0,random_dot,59.74472275227346,
right,right,accuracy,,,,,0.0,0.0,0.0,0.0,17.0,1.0,35.0,1.0,235.98705840000184,,,,,,,,,235.9740368000057,237.18739189999175,237.98751959999208,237.97132549999515,237.9713594999921,237.98751959999208,237.98751959999208,237.98751959999208,238.72242579999147,right,1.0,38.37110969997593,,,,,,,,,,,,,,,,,,,,,,,,,,,,,,,,sub-045,1.0,random_dot,59.74472275227346,
right,right,accuracy,,,,,0.0,0.0,0.0,0.0,18.0,0.0,36.0,1.0,238.74031399999512,,,,,,,,,238.72477000000072,239.53690480001387,240.33737100000144,240.3213645000069,240.32139699999243,240.33737100000144,240.33737100000144,240.33737100000144,241.10627059999388,left,0.0,38.39938709998387,,,,,,,,,,,,,,,,,,,,,,,,,,,,,,,,sub-045,1.0,random_dot,59.74472275227346,
left,left,accuracy,,,,,0.0,0.0,0.0,0.0,18.0,1.0,37.0,0.0,241.12021920000552,,,,,,,,,241.1080643000023,241.22035550000143,242.0208328000153,242.00462399999375,242.00465600000464,242.0208328000153,242.0208328000153,242.0208328000153,242.7892293999903,left,1.0,38.39764479998848,,,,,,,,,,,,,,,,,,,,,,,,,,,,,,,,sub-045,1.0,random_dot,59.74472275227346,
right,right,accuracy,,,,,0.0,0.0,0.0,0.0,19.0,0.0,38.0,1.0,242.8032050000038,,,,,,,,,242.79101089999315,242.9037609999941,243.70408809999932,243.68814959999872,243.6881892000092,243.70408809999932,243.70408809999932,243.70408809999932,244.4058112000057,right,1.0,38.335639900004026,,,,,,,,,,,,,,,,,,,,,,,,,,,,,,,,sub-045,1.0,random_dot,59.74472275227346,
left,left,accuracy,,,,,0.0,0.0,0.0,0.0,19.0,1.0,39.0,0.0,244.42011710000224,,,,,,,,,244.40786800000933,245.6206996999972,246.4210279000108,246.4050312000036,246.405071199988,246.4210279000108,246.4210279000108,246.4210279000108,247.07308339999872,left,1.0,38.282233200006885,,,,,,,,,,,,,,,,,,,,,,,,,,,,,,,,sub-045,1.0,random_dot,59.74472275227346,
right,right,accuracy,,,,,0.0,0.0,0.0,0.0,20.0,0.0,40.0,1.0,247.08669500000545,,,,,,,,,247.0748123000085,247.18755140001304,247.987727300002,247.97151850000955,247.97156090001224,247.987727300002,247.987727300002,247.987727300002,248.63922549999552,right,1.0,38.28994210000383,,,,,,,,,,,,,,,,,,,,,,,,,,,,,,,,sub-045,1.0,random_dot,59.74472275227346,
left,left,accuracy,,,,,0.0,0.0,0.0,0.0,20.0,1.0,41.0,0.0,248.65367420000257,,,,,,,,,248.64116329999524,249.8539870000095,250.6539525999979,250.63805470001532,250.6381094999961,250.6539525999979,250.6539525999979,250.6539525999979,251.35614950000308,left,1.0,38.33519169999636,,,,,,,,,,,,,,,,,,,,,,,,,,,,,,,,sub-045,1.0,random_dot,59.74472275227346,
right,right,accuracy,,,,,0.0,0.0,0.0,0.0,21.0,0.0,42.0,1.0,251.37007629999425,,,,,,,,,251.35800460001337,251.4705339999928,252.2706700999988,252.254703899991,252.2547366000072,252.2706700999988,252.2706700999988,252.2706700999988,253.30557060000135,right,1.0,38.65927619996364,,,,,,,,,,,,,,,,,,,,,,,,,,,,,,,,sub-045,1.0,random_dot,59.74472275227346,
left,left,accuracy,,,,,0.0,0.0,0.0,0.0,21.0,1.0,43.0,0.0,253.3204260999919,,,,,,,,,253.3073766000161,253.42017349999517,254.22120910001104,254.2046021000133,254.2046388000017,254.22120910001104,254.22120910001104,254.22120910001104,255.3559807999991,left,1.0,38.76488770000287,,,,,,,,,,,,,,,,,,,,,,,,,,,,,,,,sub-045,1.0,random_dot,59.74472275227346,
right,right,accuracy,,,,,0.0,0.0,0.0,0.0,22.0,0.0,44.0,1.0,255.3706530999916,,,,,,,,,255.35804160000407,255.47056539999903,256.2708885000029,256.2545364999969,256.2545683000062,256.2708885000029,256.2708885000029,256.2708885000029,256.9894276999985,right,1.0,38.356846200011205,,,,,,,,,,,,,,,,,,,,,,,,,,,,,,,,sub-045,1.0,random_dot,59.74472275227346,
left,left,accuracy,,,,,0.0,0.0,0.0,0.0,22.0,1.0,45.0,0.0,257.0033453000069,,,,,,,,,256.9913336999889,258.1868683999928,258.9872441999905,258.971068999992,258.97110140000586,258.9872441999905,258.9872441999905,258.9872441999905,261.4562780999986,left,1.0,40.10616689999006,,,,,,,,,,,,,,,,,,,,,,,,,,,,,,,,sub-045,1.0,random_dot,59.74472275227346,
left,left,accuracy,,,,,0.0,0.0,0.0,0.0,23.0,0.0,46.0,0.0,261.47026289999485,,,,,,,,,261.4580115000135,262.67009430000326,263.4713500000071,263.45976719999453,263.4598011999915,263.4713500000071,263.4713500000071,263.4713500000071,264.25573790000635,left,1.0,38.41088709997712,,,,,,,,,,,,,,,,,,,,,,,,,,,,,,,,sub-045,1.0,random_dot,59.74472275227346,
right,right,accuracy,,,,,0.0,0.0,0.0,0.0,23.0,1.0,47.0,1.0,264.27023280001595,,,,,,,,,264.25766080000903,264.3702756999992,265.1708179000125,265.1544402000145,265.1544746000145,265.1708179000125,265.1708179000125,265.1708179000125,266.505894300004,right,1.0,38.97246210000594,,,,,,,,,,,,,,,,,,,,,,,,,,,,,,,,sub-045,1.0,random_dot,59.74472275227346,
left,left,accuracy,,,,,0.0,0.0,0.0,0.0,24.0,0.0,48.0,0.0,266.5201864000119,,,,,,,,,266.5077726000163,266.870124500012,267.670658499992,267.65466309999465,267.6546972999932,267.670658499992,267.670658499992,267.670658499992,268.38898660001,left,1.0,38.344513799995184,,,,,,,,,,,,,,,,,,,,,,,,,,,,,,,,sub-045,1.0,random_dot,59.74472275227346,
right,right,accuracy,,,,,0.0,0.0,0.0,0.0,24.0,1.0,49.0,1.0,268.403549700015,,,,,,,,,268.3908102000132,268.7535883999953,269.55401419999544,269.5378234999953,269.53801119999844,269.55401419999544,269.55401419999544,269.55401419999544,270.606231999991,right,1.0,38.689476500003366,,,,,,,,,,,,,,,,,,,,,,,,,,,,,,,,sub-045,1.0,random_dot,59.74472275227346,
left,left,accuracy,,,,,0.0,0.0,0.0,0.0,25.0,0.0,50.0,0.0,270.62045350001426,,,,,,,,,270.6080185000028,271.4204657000082,272.22085750001133,272.2045006999979,272.2045333000133,272.22085750001133,272.22085750001133,272.22085750001133,273.08940070000244,left,1.0,38.50216529998579,,,,,,,,,,,,,,,,,,,,,,,,,,,,,,,,sub-045,1.0,random_dot,59.74472275227346,
right,right,accuracy,,,,,0.0,0.0,0.0,0.0,25.0,1.0,51.0,1.0,273.1032874000084,,,,,,,,,273.0912088000041,273.45345060000545,274.254102100007,274.2381161999947,274.23815540000214,274.254102100007,274.254102100007,274.254102100007,275.57253249999485,right,1.0,38.94489559999784,,,,,,,,,,,,,,,,,,,,,,,,,,,,,,,,sub-045,1.0,random_dot,59.74472275227346,
left,left,accuracy,,,,,0.0,0.0,0.0,0.0,26.0,0.0,52.0,0.0,275.5866120000137,,,,,,,,,275.5742680999974,275.93670690001454,276.737174400012,276.7210645000159,276.7211052000057,276.737174400012,276.737174400012,276.737174400012,277.4054322000011,left,1.0,38.29657750000479,,,,,,,,,,,,,,,,,,,,,,,,,,,,,,,,sub-045,1.0,random_dot,59.74472275227346,
right,right,accuracy,,,,,0.0,0.0,0.0,0.0,26.0,1.0,53.0,1.0,277.4198313000088,,,,,,,,,277.4071454000077,277.51988020000863,278.3206845000095,278.3044828000129,278.3045151999977,278.3206845000095,278.3206845000095,278.3206845000095,280.9888632000075,right,1.0,40.2962612999836,,,,,,,,,,,,,,,,,,,,,,,,,,,,,,,,sub-045,1.0,random_dot,59.74472275227346,
right,right,accuracy,,,,,0.0,0.0,0.0,0.0,27.0,0.0,54.0,1.0,281.0033947000047,,,,,,,,,280.9909461000061,281.1033516000025,281.9038624000096,281.88772920001065,281.88776700000744,281.9038624000096,281.9038624000096,281.9038624000096,283.58924130001105,right,1.0,39.31641419997322,,,,,,,,,,,,,,,,,,,,,,,,,,,,,,,,sub-045,1.0,random_dot,59.74472275227346,
left,left,accuracy,,,,,0.0,0.0,0.0,0.0,27.0,1.0,55.0,0.0,283.6032064000028,,,,,,,,,283.59098249999806,283.7033970000048,284.50383130001137,284.4875682000129,284.4876004999969,284.50383130001137,284.50383130001137,284.50383130001137,285.17237549999845,left,1.0,38.30010480000056,,,,,,,,,,,,,,,,,,,,,,,,,,,,,,,,sub-045,1.0,random_dot,59.74472275227346,
left,left,accuracy,,,,,0.0,0.0,0.0,0.0,28.0,0.0,56.0,0.0,285.1867093000037,,,,,,,,,285.17410639999434,286.38667360000545,287.18775449998793,287.1712598000013,287.1712941000005,287.18775449998793,287.18775449998793,287.18775449998793,287.85581219999585,left,1.0,38.29608759997063,,,,,,,,,,,,,,,,,,,,,,,,,,,,,,,,sub-045,1.0,random_dot,59.74472275227346,
right,right,accuracy,,,,,0.0,0.0,0.0,0.0,28.0,1.0,57.0,1.0,287.87004400001024,,,,,,,,,287.8576257000095,289.06998329999624,289.8705775999988,289.85469840001315,289.8547311000002,289.8705775999988,289.8705775999988,289.8705775999988,292.3894624999957,right,1.0,40.15441489999648,,,,,,,,,,,,,,,,,,,,,,,,,,,,,,,,sub-045,1.0,random_dot,59.74472275227346,
left,left,accuracy,,,,,0.0,0.0,0.0,0.0,29.0,0.0,58.0,0.0,292.40338599999086,,,,,,,,,292.3914382999937,292.50365440000314,293.3038147999905,293.28848439999274,293.2885234999994,293.3038147999905,293.3038147999905,293.3038147999905,294.0722061000124,left,1.0,38.40536809997866,,,,,,,,,,,,,,,,,,,,,,,,,,,,,,,,sub-045,1.0,random_dot,59.74472275227346,
right,right,accuracy,,,,,0.0,0.0,0.0,0.0,29.0,1.0,59.0,1.0,294.0872231000103,,,,,,,,,294.07406079999055,294.88684510000166,295.6880874999915,295.67129090000526,295.6713332000072,295.6880874999915,295.6880874999915,295.6880874999915,296.92320710001513,right,1.0,38.87342059999355,,,,,,,,,,,,,,,,,,,,,,,,,,,,,,,,sub-045,1.0,random_dot,59.74472275227346,
,,accuracy,,,,,0.0,0.0,0.0,0.0,,,,,,,,,,,,,,,,,,,,,,,,,,,,,,,,,,,,,,,,,,,,,,,,,,,,,,,,,sub-045,1.0,random_dot,59.74472275227346,
right,right,speed,,,,,0.0,1.0,1.0,1.0,0.0,0.0,0.0,1.0,303.9406924000068,,,,,,,,,303.93360499999835,305.1370816999988,305.9369802000001,305.920932500012,305.9209687999973,305.9369802000001,305.9369802000001,305.9369802000001,307.2554226999928,right,1.0,38.94999809999717,,,,,,,,,,,,,,,,,,,,,296.9251608999912,296.94267160000163,296.94267160000163,303.92162800001097,space,44.61272040000768,,,,,,sub-045,1.0,random_dot,59.74472275227346,
left,left,speed,,,,,0.0,1.0,1.0,1.0,0.0,1.0,1.0,0.0,307.27028610001435,,,,,,,,,307.25772230001166,307.36996460001683,308.17081750000943,308.1541500999883,308.15418240000145,308.17081750000943,308.17081750000943,308.17081750000943,308.7240635000053,left,1.0,38.192226599989226,,,,,,,,,,,,,,,,,,,,,,,,,,,,,,,,sub-045,1.0,random_dot,59.74472275227346,
right,right,speed,,,,,0.0,1.0,1.0,1.0,1.0,0.0,2.0,1.0,308.7364560000133,,,,,,,,,308.7258179000055,309.9370942999958,310.7371392000059,310.72098810001626,310.72103489999427,310.7371392000059,310.7371392000059,310.7371392000059,312.15538440001546,right,1.0,39.04864489997272,,,,,,,,,,,,,,,,,,,,,,,,,,,,,,,,sub-045,1.0,random_dot,59.74472275227346,
left,left,speed,,,,,0.0,1.0,1.0,1.0,1.0,1.0,3.0,0.0,312.1698863999918,,,,,,,,,312.1571969999932,312.519979100005,313.3205304000003,313.3043391999963,313.30437170001096,313.3205304000003,313.3205304000003,313.3205304000003,315.13896179999574,left,1.0,39.44303989998298,,,,,,,,,,,,,,,,,,,,,,,,,,,,,,,,sub-045,1.0,random_dot,59.74472275227346,
left,left,speed,,,,,0.0,1.0,1.0,1.0,2.0,0.0,4.0,0.0,315.15411309999763,,,,,,,,,315.14070509999874,315.9531389999902,316.7537109999976,316.73766280000564,316.737696199998,316.7537109999976,316.7537109999976,316.7537109999976,318.32238759999746,left,1.0,39.19646340000327,,,,,,,,,,,,,,,,,,,,,,,,,,,,,,,,sub-045,1.0,random_dot,59.74472275227346,
right,right,speed,,,,,0.0,1.0,1.0,1.0,2.0,1.0,5.0,1.0,318.3365993000043,,,,,,,,,318.3241646999959,318.6868489999906,319.4870708000089,319.47148410000955,319.4715170999989,319.4870708000089,319.4870708000089,319.4870708000089,320.55587879999075,right,1.0,38.70737079996616,,,,,,,,,,,,,,,,,,,,,,,,,,,,,,,,sub-045,1.0,random_dot,59.74472275227346,
left,left,speed,,,,,0.0,1.0,1.0,1.0,3.0,0.0,6.0,0.0,320.5696250000037,,,,,,,,,320.5577090000152,320.66996389999986,321.4704228999908,321.4544804999896,321.45451579999644,321.4704228999908,321.4704228999908,321.4704228999908,322.15547990001505,left,1.0,38.31769749999512,,,,,,,,,,,,,,,,,,,,,,,,,,,,,,,,sub-045,1.0,random_dot,59.74472275227346,
right,right,speed,,,,,0.0,1.0,1.0,1.0,3.0,1.0,7.0,1.0,322.1699301000044,,,,,,,,,322.157395599992,322.52045139999245,323.32031370000914,323.3050746000081,323.3051178000169,323.32031370000914,323.32031370000914,323.32031370000914,326.6554039999901,right,1.0,40.971827200002735,,,,,,,,,,,,,,,,,,,,,,,,,,,,,,,,sub-045,1.0,random_dot,59.74472275227346,
right,right,speed,,,,,0.0,1.0,1.0,1.0,4.0,0.0,8.0,1.0,326.6696707000083,,,,,,,,,326.6573252000089,327.86985069999355,328.67017530000885,328.6541763000132,328.65421090001473,328.67017530000885,328.67017530000885,328.67017530000885,330.03885720000835,right,1.0,39.00304869998945,,,,,,,,,,,,,,,,,,,,,,,,,,,,,,,,sub-045,1.0,random_dot,59.74472275227346,
left,left,speed,,,,,0.0,1.0,1.0,1.0,4.0,1.0,9.0,0.0,330.05310499999905,,,,,,,,,330.040573300008,330.1532606999972,330.95383350001066,330.93769369999063,330.9377277000167,330.95383350001066,330.95383350001066,330.95383350001066,331.571944299998,left,1.0,38.24774189997697,,,,,,,,,,,,,,,,,,,,,,,,,,,,,,,,sub-045,1.0,random_dot,59.74472275227346,
left,left,speed,,,,,0.0,1.0,1.0,1.0,5.0,0.0,10.0,0.0,331.58616169999004,,,,,,,,,331.57367430001614,331.9365758000058,332.73731970001245,332.72142149999854,332.72146050000447,332.73731970001245,332.73731970001245,332.73731970001245,333.43941729998915,left,1.0,38.33391940000001,,,,,,,,,,,,,,,,,,,,,,,,,,,,,,,,sub-045,1.0,random_dot,59.74472275227346,
right,right,speed,,,,,0.0,1.0,1.0,1.0,5.0,1.0,11.0,1.0,333.45289310000953,,,,,,,,,333.4416362000047,333.8030418000126,334.60404979999294,334.5875043999986,334.5875471000036,334.60404979999294,334.60404979999294,334.60404979999294,335.48920320000616,right,1.0,38.52299500000663,,,,,,,,,,,,,,,,,,,,,,,,,,,,,,,,sub-045,1.0,random_dot,59.74472275227346,
left,left,speed,,,,,0.0,1.0,1.0,1.0,6.0,0.0,12.0,0.0,335.5028464999923,,,,,,,,,335.4909966000123,336.7058027999883,337.52081980000366,337.5041274999967,337.5041587000014,337.52081980000366,337.52081980000366,337.52081980000366,338.5718768000079,left,1.0,38.68104160000803,,,,,,,,,,,,,,,,,,,,,,,,,,,,,,,,sub-045,1.0,random_dot,59.74472275227346,
right,right,speed,,,,,0.0,1.0,1.0,1.0,6.0,1.0,13.0,1.0,338.58624530001543,,,,,,,,,338.5736001000041,338.6864516999922,339.48728880001,339.47076299999026,339.4707966000133,339.48728880001,339.48728880001,339.48728880001,340.3222229999956,right,1.0,38.470387999987,,,,,,,,,,,,,,,,,,,,,,,,,,,,,,,,sub-045,1.0,random_dot,59.74472275227346,
right,right,speed,,,,,0.0,1.0,1.0,1.0,7.0,0.0,14.0,1.0,340.3362513000029,,,,,,,,,340.3241410999908,341.5363920000091,342.3368659999978,342.3208830000076,342.3209174000076,342.3368659999978,342.3368659999978,342.3368659999978,343.172058199998,right,1.0,38.47168459999375,,,,,,,,,,,,,,,,,,,,,,,,,,,,,,,,sub-045,1.0,random_dot,59.74472275227346,
left,left,speed,,,,,0.0,1.0,1.0,1.0,7.0,1.0,15.0,0.0,343.18647270000656,,,,,,,,,343.1739707000088,343.28700840001693,344.0871666999883,344.0706380000047,344.0706707999925,344.0871666999883,344.0871666999883,344.0871666999883,344.80507910001324,left,1.0,38.34464679998928,,,,,,,,,,,,,,,,,,,,,,,,,,,,,,,,sub-045,1.0,random_dot,59.74472275227346,
right,right,speed,,,,,0.0,1.0,1.0,1.0,8.0,0.0,16.0,1.0,344.8204319000069,,,,,,,,,344.8068709000072,344.91987440001685,345.72017029998824,345.70410930001526,345.7041426000069,345.72017029998824,345.72017029998824,345.72017029998824,347.2229973000067,right,1.0,39.14157690000138,,,,,,,,,,,,,,,,,,,,,,,,,,,,,,,,sub-045,1.0,random_dot,59.74472275227346,
left,left,speed,,,,,0.0,1.0,1.0,1.0,8.0,1.0,17.0,0.0,347.2363206000009,,,,,,,,,347.2247141000116,347.33639430001494,348.1368667999923,348.1213103999908,348.12135780000244,348.1368667999923,348.1368667999923,348.1368667999923,349.155233700003,left,1.0,38.65516969998134,,,,,,,,,,,,,,,,,,,,,,,,,,,,,,,,sub-045,1.0,random_dot,59.74472275227346,
right,right,speed,,,,,0.0,1.0,1.0,1.0,9.0,0.0,18.0,1.0,349.1696477000078,,,,,,,,,349.1570308000082,349.5201004999981,350.32038399999146,350.3042598000029,350.30430079999496,350.32038399999146,350.32038399999146,350.32038399999146,351.07288590000826,right,1.0,38.38048560000607,,,,,,,,,,,,,,,,,,,,,,,,,,,,,,,,sub-045,1.0,random_dot,59.74472275227346,
left,left,speed,,,,,0.0,1.0,1.0,1.0,9.0,1.0,19.0,0.0,351.0861867000058,,,,,,,,,351.0746014000033,352.2863051999884,353.08696039998904,353.07099539999035,353.0710284000088,353.08696039998904,353.08696039998904,353.08696039998904,354.35521480001626,left,1.0,38.90348119998816,,,,,,,,,,,,,,,,,,,,,,,,,,,,,,,,sub-045,1.0,random_dot,59.74472275227346,
right,right,speed,,,,,0.0,1.0,1.0,1.0,10.0,0.0,20.0,1.0,354.3694933000079,,,,,,,,,354.3569683000096,354.4700255999924,355.2702191999997,355.25422560001607,355.25425719999475,355.2702191999997,355.2702191999997,355.2702191999997,356.6733588000061,right,1.0,39.04241339999135,,,,,,,,,,,,,,,,,,,,,,,,,,,,,,,,sub-045,1.0,random_dot,59.74472275227346,
left,left,speed,,,,,0.0,1.0,1.0,1.0,10.0,1.0,21.0,0.0,356.6864418000041,,,,,,,,,356.67512830000487,357.0365610000153,357.8366618000145,357.8205028999946,357.8205375999969,357.8366618000145,357.8366618000145,357.8366618000145,360.3886305000051,right,0.0,40.17993660000502,,,,,,,,,,,,,,,,,,,,,,,,,,,,,,,,sub-045,1.0,random_dot,59.74472275227346,
right,right,speed,,,,,0.0,1.0,1.0,1.0,11.0,0.0,22.0,1.0,360.4028679000039,,,,,,,,,360.39056379999965,360.5031203000108,361.3035172999953,361.2874226999993,361.2874562999932,361.3035172999953,361.3035172999953,361.3035172999953,366.83876839998993,right,1.0,43.17065149996779,,,,,366.2867021000129,,,,,,,,,,,,,,,,,,,,,,,,,,,sub-045,1.0,random_dot,59.74472275227346,
left,left,speed,,,,,0.0,1.0,1.0,1.0,11.0,1.0,23.0,0.0,366.85291079999297,,,,,,,,,366.841565300012,368.0529159000144,368.8531712999975,368.83775310000055,368.8377870999975,368.8531712999975,368.8531712999975,368.8531712999975,369.60507300001336,left,1.0,38.38078269996913,,,,,,,,,,,,,,,,,,,,,,,,,,,,,,,,sub-045,1.0,random_dot,59.74472275227346,
left,left,speed,,,,,0.0,1.0,1.0,1.0,12.0,0.0,24.0,0.0,369.6196856999886,,,,,,,,,369.6068060999969,370.4203208000108,371.2199450999906,371.204390400002,371.2044336000108,371.2199450999906,371.2199450999906,371.2199450999906,371.87291040000855,left,1.0,38.29171459999634,,,,,,,,,,,,,,,,,,,,,,,,,,,,,,,,sub-045,1.0,random_dot,59.74472275227346,
right,right,speed,,,,,0.0,1.0,1.0,1.0,12.0,1.0,25.0,1.0,371.8860959000013,,,,,,,,,371.87482140000793,371.9863407000085,372.7872497999924,372.7704060999968,372.7704389000137,372.7872497999924,372.7872497999924,372.7872497999924,373.4385774999973,right,1.0,38.28385499998694,,,,,,,,,,,,,,,,,,,,,,,,,,,,,,,,sub-045,1.0,random_dot,59.74472275227346,
right,right,speed,,,,,0.0,1.0,1.0,1.0,13.0,0.0,26.0,1.0,373.45260670001153,,,,,,,,,373.4403576999903,373.553413000016,374.354415800015,374.3374644000141,374.33750680001685,374.354415800015,374.354415800015,374.354415800015,375.5226933000085,right,1.0,38.8071603999997,,,,,,,,,,,,,,,,,,,,,,,,,,,,,,,,sub-045,1.0,random_dot,59.74472275227346,
left,left,speed,,,,,0.0,1.0,1.0,1.0,13.0,1.0,27.0,0.0,375.5363772000128,,,,,,,,,375.5244296000165,376.3368055000028,377.1366682999942,377.1206875999924,377.1207214000169,377.1366682999942,377.1366682999942,377.1366682999942,377.7553712000081,left,1.0,38.253662000002805,,,,,,,,,,,,,,,,,,,,,,,,,,,,,,,,sub-045,1.0,random_dot,59.74472275227346,
left,left,speed,,,,,0.0,1.0,1.0,1.0,14.0,0.0,28.0,0.0,377.7694125999988,,,,,,,,,377.7570900999999,378.9700028999941,379.7700346999918,379.7538366999943,379.7538702999882,379.7700346999918,379.7700346999918,379.7700346999918,380.88806810000096,left,1.0,38.74409549997654,,,,,,,,,,,,,,,,,,,,,,,,,,,,,,,,sub-045,1.0,random_dot,59.74472275227346,
right,right,speed,,,,,0.0,1.0,1.0,1.0,14.0,1.0,29.0,1.0,380.90276870000525,,,,,,,,,380.88981510000303,381.70304490000126,382.5036203000054,382.4874407000025,382.48747490000096,382.5036203000054,382.5036203000054,382.5036203000054,383.3721052999899,right,1.0,38.50740179998684,,,,,,,,,,,,,,,,,,,,,,,,,,,,,,,,sub-045,1.0,random_dot,59.74472275227346,
left,left,speed,,,,,0.0,1.0,1.0,1.0,15.0,0.0,30.0,0.0,383.386261800013,,,,,,,,,383.37429169999086,383.7366929000127,384.53673870000057,384.5207502999983,384.5207939000102,384.53673870000057,384.53673870000057,384.53673870000057,385.2049521000008,left,1.0,38.29750349998358,,,,,,,,,,,,,,,,,,,,,,,,,,,,,,,,sub-045,1.0,random_dot,59.74472275227346,
right,right,speed,,,,,0.0,1.0,1.0,1.0,15.0,1.0,31.0,1.0,385.2195844000089,,,,,,,,,385.2067950000055,386.41969790001167,387.220004200004,387.203949799994,387.2039829000132,387.220004200004,387.220004200004,387.220004200004,389.2050320999988,right,1.0,39.61547469999641,,,,,,,,,,,,,,,,,,,,,,,,,,,,,,,,sub-045,1.0,random_dot,59.74472275227346,
right,right,speed,,,,,0.0,1.0,1.0,1.0,16.0,0.0,32.0,1.0,389.2194251999899,,,,,,,,,389.2067565000034,389.3195023000008,390.1200469000032,390.1037950000027,390.1038292000012,390.1200469000032,390.1200469000032,390.1200469000032,390.98858150001615,right,1.0,38.49749119998887,,,,,,,,,,,,,,,,,,,,,,,,,,,,,,,,sub-045,1.0,random_dot,59.74472275227346,
left,left,speed,,,,,0.0,1.0,1.0,1.0,16.0,1.0,33.0,0.0,391.0028175000043,,,,,,,,,390.9903325999912,391.8031379999884,392.603136699996,392.5873432999943,392.5873866000038,392.603136699996,392.603136699996,392.603136699996,393.3220583999937,left,1.0,38.35465860000113,,,,,,,,,,,,,,,,,,,,,,,,,,,,,,,,sub-045,1.0,random_dot,59.74472275227346,
right,right,speed,,,,,0.0,1.0,1.0,1.0,17.0,0.0,34.0,1.0,393.3359417000029,,,,,,,,,393.3238618999894,393.6866363000008,394.486713899998,394.4707637999964,394.4707971999888,394.486713899998,394.486713899998,394.486713899998,395.6048350000056,right,1.0,38.74429390000296,,,,,,,,,,,,,,,,,,,,,,,,,,,,,,,,sub-045,1.0,random_dot,59.74472275227346,
left,left,speed,,,,,0.0,1.0,1.0,1.0,17.0,1.0,35.0,0.0,395.6193853000004,,,,,,,,,395.6066108999949,395.96936560000177,396.7703125000117,396.7541360000032,396.754170500004,396.7703125000117,396.7703125000117,396.7703125000117,397.5047360000026,left,1.0,38.36401079999632,,,,,,,,,,,,,,,,,,,,,,,,,,,,,,,,sub-045,1.0,random_dot,59.74472275227346,
left,left,speed,,,,,0.0,1.0,1.0,1.0,18.0,0.0,36.0,0.0,397.5194168000016,,,,,,,,,397.5065347999917,398.3195390999899,399.1198146000097,399.1042361000145,399.104274799989,399.1198146000097,399.1198146000097,399.1198146000097,399.7552583999932,left,1.0,38.26858199998969,,,,,,,,,,,,,,,,,,,,,,,,,,,,,,,,sub-045,1.0,random_dot,59.74472275227346,
right,right,speed,,,,,0.0,1.0,1.0,1.0,18.0,1.0,37.0,1.0,399.7695054000069,,,,,,,,,399.757145999989,399.8691738999914,400.6700266000116,400.6540659000166,400.65409930000897,400.6700266000116,400.6700266000116,400.6700266000116,401.6047277000034,right,1.0,38.56654139998136,,,,,,,,,,,,,,,,,,,,,,,,,,,,,,,,sub-045,1.0,random_dot,59.74472275227346,
right,right,speed,,,,,0.0,1.0,1.0,1.0,19.0,0.0,38.0,1.0,401.61928250000346,,,,,,,,,401.606557799998,401.7192796000163,402.5197515999898,402.503970699996,402.5040028000076,402.5197515999898,402.5197515999898,402.5197515999898,403.1716786999896,right,1.0,38.27678199997172,,,,,,,,,,,,,,,,,,,,,,,,,,,,,,,,sub-045,1.0,random_dot,59.74472275227346,
left,left,speed,,,,,0.0,1.0,1.0,1.0,19.0,1.0,39.0,0.0,403.1860814999964,,,,,,,,,403.1734243000101,403.53637029998936,404.33632110001054,404.32169859998976,404.3217435000115,404.33632110001054,404.33632110001054,404.33632110001054,405.08838130001095,left,1.0,38.38223699998344,,,,,,,,,,,,,,,,,,,,,,,,,,,,,,,,sub-045,1.0,random_dot,59.74472275227346,
right,right,speed,,,,,0.0,1.0,1.0,1.0,20.0,0.0,40.0,1.0,405.1023870999925,,,,,,,,,405.0901166000112,405.4531061000016,406.2531361000147,406.2371057000128,406.2371381999983,406.2531361000147,406.2531361000147,406.2531361000147,407.00475290001486,right,1.0,38.380569399974775,,,,,,,,,,,,,,,,,,,,,,,,,,,,,,,,sub-045,1.0,random_dot,59.74472275227346,
left,left,speed,,,,,0.0,1.0,1.0,1.0,20.0,1.0,41.0,0.0,407.0196010000072,,,,,,,,,407.0066401000077,407.1195753999928,407.9206572000112,407.9039429000113,407.90397410001606,407.9206572000112,407.9206572000112,407.9206572000112,408.80453729999135,left,1.0,38.50937990000239,,,,,,,,,,,,,,,,,,,,,,,,,,,,,,,,sub-045,1.0,random_dot,59.74472275227346,
right,right,speed,,,,,0.0,1.0,1.0,1.0,21.0,0.0,42.0,1.0,408.8195592999982,,,,,,,,,408.8067402000015,409.1697347000008,409.96966209998936,409.9539000999939,409.9539473000041,409.96966209998936,409.96966209998936,409.96966209998936,410.9389852000168,right,1.0,38.60317869999562,,,,,,,,,,,,,,,,,,,,,,,,,,,,,,,,sub-045,1.0,random_dot,59.74472275227346,
left,left,speed,,,,,0.0,1.0,1.0,1.0,21.0,1.0,43.0,0.0,410.9529097999912,,,,,,,,,410.9407339000026,412.15279739999096,412.95322679998935,412.93767630000366,412.937719700014,412.95322679998935,412.95322679998935,412.95322679998935,413.8214645000117,left,1.0,38.49351319999551,,,,,,,,,,,,,,,,,,,,,,,,,,,,,,,,sub-045,1.0,random_dot,59.74472275227346,
left,left,speed,,,,,0.0,1.0,1.0,1.0,22.0,0.0,44.0,0.0,413.83612049999647,,,,,,,,,413.8231874000048,414.1860469999956,414.9868143000058,414.9706240000087,414.9706574000011,414.9868143000058,414.9868143000058,414.9868143000058,415.7050082999922,left,1.0,38.351125599991065,,,,,,,,,,,,,,,,,,,,,,,,,,,,,,,,sub-045,1.0,random_dot,59.74472275227346,
right,right,speed,,,,,0.0,1.0,1.0,1.0,22.0,1.0,45.0,1.0,415.71913360001054,,,,,,,,,415.7067967999901,416.9194549999957,417.7199398000084,417.7038332000084,417.7038655999932,417.7199398000084,417.7199398000084,417.7199398000084,418.3216262999922,right,1.0,38.23431839997647,,,,,,,,,,,,,,,,,,,,,,,,,,,,,,,,sub-045,1.0,random_dot,59.74472275227346,
right,right,speed,,,,,0.0,1.0,1.0,1.0,23.0,0.0,46.0,1.0,418.3358900000167,,,,,,,,,418.3233509999991,418.69039090001024,419.5033221000049,419.4872765000037,419.4873160000134,419.5033221000049,419.5033221000049,419.5033221000049,421.5382812999888,right,1.0,39.67040689999703,,,,,,,,,,,,,,,,,,,,,,,,,,,,,,,,sub-045,1.0,random_dot,59.74472275227346,
left,left,speed,,,,,0.0,1.0,1.0,1.0,23.0,1.0,47.0,0.0,421.5523096999968,,,,,,,,,421.5399998000066,422.3525945000001,423.1529855999979,423.1370920999907,423.1371243000031,423.1529855999979,423.1529855999979,423.1529855999979,423.93856690000393,left,1.0,38.4098806999973,,,,,,,,,,,,,,,,,,,,,,,,,,,,,,,,sub-045,1.0,random_dot,59.74472275227346,
right,right,speed,,,,,0.0,1.0,1.0,1.0,24.0,0.0,48.0,1.0,423.9525022000016,,,,,,,,,423.9402875000087,424.3028996000066,425.1032520000008,425.0870550000109,425.0870893000101,425.1032520000008,425.1032520000008,425.1032520000008,425.8046381000022,right,1.0,38.32906429999275,,,,,,,,,,,,,,,,,,,,,,,,,,,,,,,,sub-045,1.0,random_dot,59.74472275227346,
left,left,speed,,,,,0.0,1.0,1.0,1.0,24.0,1.0,49.0,0.0,425.8191634000104,,,,,,,,,425.8067325000011,425.9193410000007,426.71993170000496,426.7035827999935,426.70361540000886,426.71993170000496,426.71993170000496,426.71993170000496,429.00485719999415,left,1.0,39.91550209998968,,,,,,,,,,,,,,,,,,,,,,,,,,,,,,,,sub-045,1.0,random_dot,59.74472275227346,
right,right,speed,,,,,0.0,1.0,1.0,1.0,25.0,0.0,50.0,1.0,429.01948660000926,,,,,,,,,429.0067481000151,429.8194023999968,430.6203426000138,430.6036519999907,430.603691700002,430.6203426000138,430.6203426000138,430.6203426000138,432.1553929999936,right,1.0,39.17160070000682,,,,,,,,,,,,,,,,,,,,,,,,,,,,,,,,sub-045,1.0,random_dot,59.74472275227346,
left,left,speed,,,,,0.0,1.0,1.0,1.0,25.0,1.0,51.0,0.0,432.1694514999981,,,,,,,,,432.1573869000131,433.3692643000104,434.1698105999967,434.1538260999951,434.1538584000082,434.1698105999967,434.1698105999967,434.1698105999967,435.6219273000024,left,1.0,39.0877891999844,,,,,,,,,,,,,,,,,,,,,,,,,,,,,,,,sub-045,1.0,random_dot,59.74472275227346,
left,left,speed,,,,,0.0,1.0,1.0,1.0,26.0,0.0,52.0,0.0,435.63634299999103,,,,,,,,,435.62365039999713,435.73693189999904,436.5363854999887,436.5206405000063,436.52067210001405,436.5363854999887,436.5363854999887,436.5363854999887,437.787848500011,left,1.0,38.879153599991696,,,,,,,,,,,,,,,,,,,,,,,,,,,,,,,,sub-045,1.0,random_dot,59.74472275227346,
right,right,speed,,,,,0.0,1.0,1.0,1.0,26.0,1.0,53.0,1.0,437.8023938999977,,,,,,,,,437.7895775999932,437.9025970000075,438.7029451999988,438.68683990000864,438.6868722999934,438.7029451999988,438.7029451999988,438.7029451999988,439.53815730000497,right,1.0,38.47047790000215,,,,,,,,,,,,,,,,,,,,,,,,,,,,,,,,sub-045,1.0,random_dot,59.74472275227346,
right,right,speed,,,,,0.0,1.0,1.0,1.0,27.0,0.0,54.0,1.0,439.5522241000144,,,,,,,,,439.5399725000025,439.6525612999976,440.453118400008,440.4371128999919,440.4371514999948,440.453118400008,440.453118400008,440.453118400008,441.221641000011,right,1.0,38.40085899998667,,,,,,,,,,,,,,,,,,,,,,,,,,,,,,,,sub-045,1.0,random_dot,59.74472275227346,
left,left,speed,,,,,0.0,1.0,1.0,1.0,27.0,1.0,55.0,0.0,441.23588950000703,,,,,,,,,441.2233834000072,441.5862150999892,442.3869971999957,442.3703976999968,442.3704364000005,442.3869971999957,442.3869971999957,442.3869971999957,443.47197330000927,left,1.0,38.72162359999493,,,,,,,,,,,,,,,,,,,,,,,,,,,,,,,,sub-045,1.0,random_dot,59.74472275227346,
left,left,speed,,,,,0.0,1.0,1.0,1.0,28.0,0.0,56.0,0.0,443.4857512000017,,,,,,,,,443.4737069999974,444.685897599993,445.4865323000122,445.47012350001023,445.4701553999912,445.4865323000122,445.4865323000122,445.4865323000122,447.9384158999892,left,1.0,40.090692399971886,,,,,,,,,,,,,,,,,,,,,,,,,,,,,,,,sub-045,1.0,random_dot,59.74472275227346,
right,right,speed,,,,,0.0,1.0,1.0,1.0,28.0,1.0,57.0,1.0,447.9524487000017,,,,,,,,,447.9401590999914,449.1525448999892,449.95301960001234,449.9372003999888,449.937238500017,449.95301960001234,449.95301960001234,449.95301960001234,450.6213967000076,right,1.0,38.30033969998476,,,,,,,,,,,,,,,,,,,,,,,,,,,,,,,,sub-045,1.0,random_dot,59.74472275227346,
right,right,speed,,,,,0.0,1.0,1.0,1.0,29.0,0.0,58.0,1.0,450.635703500011,,,,,,,,,450.6232136999897,450.7357202999992,451.5360646999907,451.520317699993,451.52035050001,451.5360646999907,451.5360646999907,451.5360646999907,452.2376870000153,right,1.0,38.32592520001344,,,,,,,,,,,,,,,,,,,,,,,,,,,,,,,,sub-045,1.0,random_dot,59.74472275227346,
left,left,speed,,,,,0.0,1.0,1.0,1.0,29.0,1.0,59.0,0.0,452.2526195000101,,,,,,,,,452.2397645000019,453.4527339999913,454.2530636000156,454.2367952000059,454.2368362999987,454.2530636000156,454.2530636000156,454.2530636000156,454.92134420000366,left,1.0,38.30511149996892,,,,,,,,,,,,,,,,,,,,,,,,,,,,,,,,sub-045,1.0,random_dot,59.74472275227346,
,,speed,,,,,0.0,1.0,1.0,1.0,,,,,,,,,,,,,,,,,,,,,,,,,,,,,,,,,,,,,,,,,,,,,,,,,,,,,,,,,sub-045,1.0,random_dot,59.74472275227346,
,,,,,,,,,,,,,,,,,,,,,,,,,,,,,,,,,,,,,,,,,,,,,,,,,,,,,,,,,,,,,,,454.9226815000002,454.9359266000101,459.93596870001056,459.9206781999965,sub-045,,,,
