wordCTK,colorCTK,corrAnsCTK,congruentCTK,thisN,thisTrialN,thisRepN,keyResp_CTK.keys,keyResp_CTK.corr,keyResp_CTK.rt,keyResp_CTK.duration,wordPractice,colorPractice,corrAnsPractice,congruentPractice,respPractice.keys,respPractice.corr,respPractice.rt,respPractice.duration,word,color,corrAns,congruent,keyResp_test_run.keys,keyResp_test_run.corr,keyResp_test_run.rt,keyResp_test_run.duration,trials_CTK.thisRepN,trials_CTK.thisTrialN,trials_CTK.thisN,trials_CTK.thisIndex,trials_practice.thisRepN,trials_practice.thisTrialN,trials_practice.thisN,trials_practice.thisIndex,trials_test.thisRepN,trials_test.thisTrialN,trials_test.thisN,trials_test.thisIndex,thisRow.t,notes,instruction.started,instr_text.started,instr_image.started,instr_resp.started,instruction.stopped,instr_resp.keys,instr_resp.rt,instr_resp.duration,instr_color_to_key.started,instr_ctk.started,resp_ctk.started,instr_color_to_key.stopped,resp_ctk.keys,resp_ctk.rt,resp_ctk.duration,ITI.started,fixcross.started,fixcross.stopped,ITI.stopped,color_to_key_run.started,stimulus_CTK.started,keyResp_CTK.started,color_to_key_run.stopped,trials_CTK.keyResp_CTK.keys,trials_CTK.keyResp_CTK.corr,trials_CTK.keyResp_CTK.rt,trials_CTK.keyResp_CTK.duration,instr_practice.started,instr_practice_text.started,instr_practice_resp.started,instr_practice.stopped,instr_practice_resp.keys,instr_practice_resp.rt,instr_practice_resp.duration,practice_run.started,stimulus_practice.started,respPractice.started,practice_run.stopped,trials_practice.respPractice.keys,trials_practice.respPractice.corr,trials_practice.respPractice.rt,trials_practice.respPractice.duration,feedback.started,textFeedback.started,feedback.stopped,textFeedback.stopped,instr_test.started,instr_test_text.started,instr_test_resp.started,instr_test.stopped,instr_test_resp.keys,instr_test_resp.rt,instr_test_resp.duration,test_run.started,stimulus_test_run.started,keyResp_test_run.started,test_run.stopped,trials_test.keyResp_test_run.keys,trials_test.keyResp_test_run.corr,trials_test.keyResp_test_run.rt,trials_test.keyResp_test_run.duration,goodbye.started,textGoodbye.started,textGoodbye.stopped,goodbye.stopped,participant,session,expName,frameRate,Unnamed: 113
,,,,,,,,,,,,,,,,,,,,,,,,,,,,,,,,,,,,,,,,,0.0062843000050634,0.0902054000034695,0.0902054000034695,0.0902054000034695,128.2848951000051,space,128.18445190000057,,,,,,,,,,,,,,,,,,,,,,,,,,,,,,,,,,,,,,,,,,,,,,,,,,,,,,,,,,,sub-003,1,stroop_test,51.866116957156,
,,,,,,,,,,,,,,,,,,,,,,,,,,,,,,,,,,,,,,,,,,,,,,,,,128.28499480000755,128.30080060000182,128.30080060000182,139.63433590000204,space,11.318513799997165,,,,,,,,,,,,,,,,,,,,,,,,,,,,,,,,,,,,,,,,,,,,,,,,,,,,sub-003,1,stroop_test,51.866116957156,
test,red,r,1.0,0.0,0.0,0.0,r,1.0,2.3836037000000942,,,,,,,,,,,,,,,,,,0.0,0.0,0.0,0.0,,,,,,,,,139.6670165999967,,,,,,,,,,,,,,,,,139.65687269999762,139.98746380000375,140.80018289999862,140.77239949999785,140.78878339999935,140.80018289999862,140.80018289999862,143.1988573999988,r,1.0,2.3836037000000942,,,,,,,,,,,,,,,,,,,,,,,,,,,,,,,,,,,,,,,,sub-003,1,stroop_test,51.866116957156,
test,yellow,g,1.0,1.0,1.0,0.0,g,1.0,2.842140299995662,,,,,,,,,,,,,,,,,,0.0,1.0,1.0,1.0,,,,,,,,,143.21390400000382,,,,,,,,,,,,,,,,,143.19940530000895,143.31401129999722,144.11300890000712,144.09732090000762,144.09799320000457,144.11300890000712,144.11300890000712,146.963785800006,g,1.0,2.842140299995662,,,,,,,,,,,,,,,,,,,,,,,,,,,,,,,,,,,,,,,,sub-003,1,stroop_test,51.866116957156,
test,blue,b,1.0,2.0,2.0,0.0,b,1.0,0.8582945999951335,,,,,,,,,,,,,,,,,,0.0,2.0,2.0,2.0,,,,,,,,,146.97944370000914,,,,,,,,,,,,,,,,,146.96418000000995,147.06252540000423,147.8629687000066,147.84838789999776,147.8490055000002,147.8629687000066,147.8629687000066,148.7309219000017,b,1.0,0.8582945999951335,,,,,,,,,,,,,,,,,,,,,,,,,,,,,,,,,,,,,,,,sub-003,1,stroop_test,51.866116957156,
test,blue,b,1.0,3.0,0.0,1.0,b,1.0,0.8667626000096789,,,,,,,,,,,,,,,,,,1.0,0.0,3.0,2.0,,,,,,,,,148.74612540000817,,,,,,,,,,,,,,,,,148.73133880000387,149.94530300000042,150.74578690000635,150.72988949999854,150.7304772000061,150.74578690000635,150.74578690000635,151.6294984999986,b,1.0,0.8667626000096789,,,,,,,,,,,,,,,,,,,,,,,,,,,,,,,,,,,,,,,,sub-003,1,stroop_test,51.866116957156,
test,red,r,1.0,4.0,1.0,1.0,r,1.0,1.815904799994314,,,,,,,,,,,,,,,,,,1.0,1.0,4.0,0.0,,,,,,,,,151.6451342000073,,,,,,,,,,,,,,,,,151.62989219999872,152.4286773000058,153.22813220000535,153.21214040000632,153.21280920000572,153.22813220000535,153.22813220000535,155.06184950000898,r,1.0,1.815904799994314,,,,,,,,,,,,,,,,,,,,,,,,,,,,,,,,,,,,,,,,sub-003,1,stroop_test,51.866116957156,
test,yellow,g,1.0,5.0,2.0,1.0,g,1.0,1.0052368000033312,,,,,,,,,,,,,,,,,,1.0,2.0,5.0,1.0,,,,,,,,,155.0781674000027,,,,,,,,,,,,,,,,,155.06226449999667,155.86065889999736,156.66108020000684,156.6448676,156.64546300000802,156.66108020000684,156.66108020000684,157.67920589999994,g,1.0,1.0052368000033312,,,,,,,,,,,,,,,,,,,,,,,,,,,,,,,,,,,,,,,,sub-003,1,stroop_test,51.866116957156,
test,yellow,g,1.0,6.0,0.0,2.0,g,1.0,0.8190452999988338,,,,,,,,,,,,,,,,,,2.0,0.0,6.0,1.0,,,,,,,,,157.69398029999866,,,,,,,,,,,,,,,,,157.6796086999966,158.0443793000013,158.84413350000978,158.82835379999597,158.82897020000382,158.84413350000978,158.84413350000978,159.6785966000025,g,1.0,0.8190452999988338,,,,,,,,,,,,,,,,,,,,,,,,,,,,,,,,,,,,,,,,sub-003,1,stroop_test,51.866116957156,
test,blue,b,1.0,7.0,1.0,2.0,b,1.0,0.9912034000008134,,,,,,,,,,,,,,,,,,2.0,1.0,7.0,2.0,,,,,,,,,159.69407650000358,,,,,,,,,,,,,,,,,159.6789992999984,159.79312909999862,160.59324139999808,160.57760530000087,160.5783009000006,160.59324139999808,160.59324139999808,161.5942689000076,b,1.0,0.9912034000008134,,,,,,,,,,,,,,,,,,,,,,,,,,,,,,,,,,,,,,,,sub-003,1,stroop_test,51.866116957156,
test,red,r,1.0,8.0,2.0,2.0,r,1.0,1.457689799994114,,,,,,,,,,,,,,,,,,2.0,2.0,8.0,0.0,,,,,,,,,161.60984479999752,,,,,,,,,,,,,,,,,161.5946752000018,161.96002650000446,162.75999930000398,162.7451743999991,162.74579000000085,162.75999930000398,162.75999930000398,164.22745900000157,r,1.0,1.457689799994114,,,,,,,,,,,,,,,,,,,,,,,,,,,,,,,,,,,,,,,,sub-003,1,stroop_test,51.866116957156,
test,red,r,1.0,9.0,0.0,3.0,r,1.0,0.6250702000106685,,,,,,,,,,,,,,,,,,3.0,0.0,9.0,0.0,,,,,,,,,164.2427764000022,,,,,,,,,,,,,,,,,164.2278551000054,165.04270489999908,165.84230879999814,165.82655549999618,165.827174799997,165.84230879999814,165.84230879999814,166.4769267000083,r,1.0,0.6250702000106685,,,,,,,,,,,,,,,,,,,,,,,,,,,,,,,,,,,,,,,,sub-003,1,stroop_test,51.866116957156,
test,blue,b,1.0,10.0,1.0,3.0,b,1.0,2.208436400003848,,,,,,,,,,,,,,,,,,3.0,1.0,10.0,2.0,,,,,,,,,166.49276100000134,,,,,,,,,,,,,,,,,166.4773181000055,167.27565290000348,168.07561670000723,168.06013240000175,168.06077140000707,168.07561670000723,168.07561670000723,170.29290610000317,b,1.0,2.208436400003848,,,,,,,,,,,,,,,,,,,,,,,,,,,,,,,,,,,,,,,,sub-003,1,stroop_test,51.866116957156,
test,yellow,g,1.0,11.0,2.0,3.0,g,1.0,1.0092486999928951,,,,,,,,,,,,,,,,,,3.0,2.0,11.0,1.0,,,,,,,,,170.30882639999618,,,,,,,,,,,,,,,,,170.29330309999932,170.65861179999774,171.45837140000367,171.44255390000762,171.44327289999637,171.45837140000367,171.45837140000367,172.47629790000792,g,1.0,1.0092486999928951,,,,,,,,,,,,,,,,,,,,,,,,,,,,,,,,,,,,,,,,sub-003,1,stroop_test,51.866116957156,
,,,,,,,,,,,,,,,,,,,,,,,,,,,,,,,,,,,,,,,,,,,,,,,,,,,,,,,,,,,,,,,,,,,,172.47648710000794,172.49170440000307,172.49170440000307,174.92618870000297,space,2.431475799996406,,,,,,,,,,,,,,,,,,,,,,,,,,,,,,,,,sub-003,1,stroop_test,51.866116957156,
,,,,0.0,0.0,0.0,,,,,rot,red,r,1.0,r,1.0,0.6885921999928541,,,,,,,,,,,,,,0.0,0.0,0.0,1.0,,,,,174.946248799999,,,,,,,,,,,,,,,,,174.93920790000993,175.29092880000826,176.09251689999655,176.07483959999809,,,,,,,,,,,,,,,,176.08346770000935,176.09251689999655,176.09251689999655,176.79171410000708,r,1.0,0.6885921999928541,,176.80400740000186,176.81315319999703,177.80716150000808,,,,,,,,,,,,,,,,,,,,,sub-003,1,stroop_test,51.866116957156,
,,,,1.0,1.0,0.0,,,,,gelb,yellow,g,1.0,g,1.0,1.2855742999963695,,,,,,,,,,,,,,0.0,1.0,1.0,11.0,,,,,177.82401440000103,,,,,,,,,,,,,,,,,177.8076013999962,177.9073783000058,178.70861250000598,178.69111100000737,,,,,,,,,,,,,,,,178.6985122000042,178.70861250000598,178.70861250000598,180.00804129999597,g,1.0,1.2855742999963695,,180.00865250000788,180.02323240000987,181.00738930000807,181.02295179999783,,,,,,,,,,,,,,,,,,,,sub-003,1,stroop_test,51.866116957156,
,,,,2.0,2.0,0.0,,,,,gelb,red,r,0.0,r,1.0,0.8613596000068355,,,,,,,,,,,,,,0.0,2.0,2.0,8.0,,,,,181.02295179999783,,,,,,,,,,,,,,,,,181.0077465000068,182.22249120000924,183.02291310000876,183.0073432000063,,,,,,,,,,,,,,,,183.00793390000763,183.02291310000876,183.02291310000876,183.89059409999757,r,1.0,0.8613596000068355,,183.89125300000887,183.905958000003,184.89017490000697,184.90556549999744,,,,,,,,,,,,,,,,,,,,sub-003,1,stroop_test,51.866116957156,
,,,,3.0,3.0,0.0,,,,,rot,red,r,1.0,r,1.0,0.7677154999983031,,,,,,,,,,,,,,0.0,3.0,3.0,0.0,,,,,184.90556549999744,,,,,,,,,,,,,,,,,184.8905403999961,186.10570339999688,186.9056607000093,186.88957939999815,,,,,,,,,,,,,,,,186.89363030000823,186.9056607000093,186.9056607000093,187.6753921000054,r,1.0,0.7677154999983031,,187.6760801000055,187.68877340000472,188.67332590000296,188.68821670000037,,,,,,,,,,,,,,,,,,,,sub-003,1,stroop_test,51.866116957156,
,,,,4.0,4.0,0.0,,,,,gelb,yellow,g,1.0,g,1.0,0.8594876999995904,,,,,,,,,,,,,,0.0,4.0,4.0,10.0,,,,,188.68821670000037,,,,,,,,,,,,,,,,,188.6737179000047,189.8888130999985,190.70478929999808,190.688939700005,,,,,,,,,,,,,,,,190.6931382000039,190.70478929999808,190.70478929999808,191.5727806000068,g,1.0,0.8594876999995904,,191.5734502999985,191.588270799999,192.5716303000081,192.58753270001037,,,,,,,,,,,,,,,,,,,,sub-003,1,stroop_test,51.866116957156,
,,,,5.0,5.0,0.0,,,,,blau,blue,b,1.0,b,1.0,0.7724960000050487,,,,,,,,,,,,,,0.0,5.0,5.0,6.0,,,,,192.58753270001037,,,,,,,,,,,,,,,,,192.57200990000277,192.68733729999803,193.4890793000086,193.4718462000019,,,,,,,,,,,,,,,,193.47959460000857,193.4890793000086,193.4890793000086,194.2715648000012,b,1.0,0.7724960000050487,,194.27222389999952,194.2872938000073,195.27194639999647,195.28748100000664,,,,,,,,,,,,,,,,,,,,sub-003,1,stroop_test,51.866116957156,
,,,,6.0,6.0,0.0,,,,,gelb,blue,b,0.0,b,1.0,1.4675713000033284,,,,,,,,,,,,,,0.0,6.0,6.0,9.0,,,,,195.28748100000664,,,,,,,,,,,,,,,,,195.272337500006,196.08692539999905,196.88718980000704,196.87075940000068,,,,,,,,,,,,,,,,196.87543220000225,196.88718980000704,196.88718980000704,198.37113710000995,b,1.0,1.4675713000033284,,198.3717888000101,198.38643690000757,199.37081770000805,199.38673720000952,,,,,,,,,,,,,,,,,,,,sub-003,1,stroop_test,51.866116957156,
,,,,7.0,7.0,0.0,,,,,rot,yellow,g,0.0,g,1.0,2.092797699995572,,,,,,,,,,,,,,0.0,7.0,7.0,3.0,,,,,199.38673720000952,,,,,,,,,,,,,,,,,199.37120629999845,200.18670500000007,200.9861998999986,200.97019540000477,,,,,,,,,,,,,,,,200.9743465000065,200.9861998999986,200.9861998999986,203.08712680000465,g,1.0,2.092797699995572,,203.08778080000772,203.10254200000784,204.0863868000015,204.10224960000775,,,,,,,,,,,,,,,,,,,,sub-003,1,stroop_test,51.866116957156,
,,,,8.0,8.0,0.0,,,,,blau,blue,b,1.0,b,1.0,1.2536130999942543,,,,,,,,,,,,,,0.0,8.0,8.0,5.0,,,,,204.10224960000775,,,,,,,,,,,,,,,,,204.08676440001,205.3033069000085,206.11873410000408,206.1032783999981,,,,,,,,,,,,,,,,206.1073197000078,206.11873410000408,206.11873410000408,207.3863571999973,b,1.0,1.2536130999942543,,207.38702609999743,207.40156480000587,208.38610590000465,208.40154430000985,,,,,,,,,,,,,,,,,,,,sub-003,1,stroop_test,51.866116957156,
,,,,9.0,9.0,0.0,,,,,rot,blue,b,0.0,b,1.0,2.502787500008708,,,,,,,,,,,,,,0.0,9.0,9.0,2.0,,,,,208.40154430000985,,,,,,,,,,,,,,,,,208.38648610000385,208.75166690000333,209.5513459000067,209.53570449999825,,,,,,,,,,,,,,,,209.53970950000803,209.5513459000067,209.5513459000067,212.06893910000508,b,1.0,2.502787500008708,,212.0695962000027,212.0842491000076,213.06833100000225,213.08431829999608,,,,,,,,,,,,,,,,,,,,sub-003,1,stroop_test,51.866116957156,
,,,,10.0,10.0,0.0,,,,,blau,red,r,0.0,r,1.0,0.8061565000098199,,,,,,,,,,,,,,0.0,10.0,10.0,4.0,,,,,213.08431829999608,,,,,,,,,,,,,,,,,213.06870830000844,214.2839077999961,215.08407360001,215.06818870001007,,,,,,,,,,,,,,,,215.07232610000935,215.08407360001,215.08407360001,215.9017510999984,r,1.0,0.8061565000098199,,215.90243060000648,215.9168367000093,216.90078809999977,216.91660100000445,,,,,,,,,,,,,,,,,,,,sub-003,1,stroop_test,51.866116957156,
,,,,11.0,11.0,0.0,,,,,blau,yellow,g,0.0,g,1.0,1.0204462000110652,,,,,,,,,,,,,,0.0,11.0,11.0,7.0,,,,,216.91660100000445,,,,,,,,,,,,,,,,,216.90116210001,217.71637100000223,218.5163026000082,218.5005951000057,,,,,,,,,,,,,,,,218.50123840000012,218.5163026000082,218.5163026000082,219.550791200003,g,1.0,1.0204462000110652,,219.55144239999936,219.56633119999609,220.5499004000012,220.56641390000004,,,,,,,,,,,,,,,,,,,,sub-003,1,stroop_test,51.866116957156,
,,,,12.0,0.0,1.0,,,,,rot,blue,b,0.0,b,1.0,1.6527455000032203,,,,,,,,,,,,,,1.0,0.0,12.0,2.0,,,,,220.56641390000004,,,,,,,,,,,,,,,,,220.55027510000215,221.3658610999992,222.16691210000133,222.15052419999847,,,,,,,,,,,,,,,,222.1552381000074,222.16691210000133,222.16691210000133,223.8336918999994,b,1.0,1.6527455000032203,,223.83435830000963,223.84891749999952,224.8325715000101,224.848942800003,,,,,,,,,,,,,,,,,,,,sub-003,1,stroop_test,51.866116957156,
,,,,13.0,1.0,1.0,,,,,rot,red,r,1.0,r,1.0,0.7505057000089437,,,,,,,,,,,,,,1.0,1.0,13.0,0.0,,,,,224.848942800003,,,,,,,,,,,,,,,,,224.8329636999988,225.1983191000036,225.9981642000057,225.98312489999807,,,,,,,,,,,,,,,,225.98374389999665,225.9981642000057,225.9981642000057,226.7659627999965,r,1.0,0.7505057000089437,,226.76663019999975,226.78147090000857,227.76554550000583,227.7816105000093,,,,,,,,,,,,,,,,,,,,sub-003,1,stroop_test,51.866116957156,
,,,,14.0,2.0,1.0,,,,,blau,blue,b,1.0,b,1.0,1.2112802999909036,,,,,,,,,,,,,,1.0,2.0,14.0,5.0,,,,,227.7816105000093,,,,,,,,,,,,,,,,,227.7659185000084,228.98088980000463,229.7810679999966,229.76533239999844,,,,,,,,,,,,,,,,229.7694415000005,229.7810679999966,229.7810679999966,230.9987036000093,b,1.0,1.2112802999909036,,230.99936040000463,231.0138675000053,231.99813469999933,232.0142540000088,,,,,,,,,,,,,,,,,,,,sub-003,1,stroop_test,51.866116957156,
,,,,15.0,3.0,1.0,,,,,blau,red,r,0.0,r,1.0,0.787511300004553,,,,,,,,,,,,,,1.0,3.0,15.0,4.0,,,,,232.0142540000088,,,,,,,,,,,,,,,,,231.99853040000016,232.11416740001005,232.9137474000017,232.89829460000328,,,,,,,,,,,,,,,,232.8989064000052,232.9137474000017,232.9137474000017,233.7148695000069,r,1.0,0.787511300004553,,233.71552990000052,233.7302245000028,234.7143619999988,234.7299653000082,,,,,,,,,,,,,,,,,,,,sub-003,1,stroop_test,51.866116957156,
,,,,16.0,4.0,1.0,,,,,blau,blue,b,1.0,b,1.0,1.1328044000110822,,,,,,,,,,,,,,1.0,4.0,16.0,6.0,,,,,234.7299653000082,,,,,,,,,,,,,,,,,234.71475290000672,234.8304099000088,235.63096439999936,235.61406410000927,,,,,,,,,,,,,,,,235.61464280000652,235.63096439999936,235.63096439999936,236.78059370000847,b,1.0,1.1328044000110822,,236.7812763999973,236.79647470000785,237.78039179999905,237.79663019999865,,,,,,,,,,,,,,,,,,,,sub-003,1,stroop_test,51.866116957156,
,,,,17.0,5.0,1.0,,,,,blau,yellow,g,0.0,g,1.0,0.8779054999904474,,,,,,,,,,,,,,1.0,5.0,17.0,7.0,,,,,237.79663019999865,,,,,,,,,,,,,,,,,237.7808168000047,237.87944330000028,238.6795166000084,238.66371400000932,,,,,,,,,,,,,,,,238.66434570000277,238.6795166000084,238.6795166000084,239.5643425000017,g,1.0,0.8779054999904474,,239.56502049999835,239.57875260000583,240.5634710000013,240.57976380000764,,,,,,,,,,,,,,,,,,,,sub-003,1,stroop_test,51.866116957156,
,,,,18.0,6.0,1.0,,,,,gelb,yellow,g,1.0,g,1.0,1.505380700007663,,,,,,,,,,,,,,1.0,6.0,18.0,11.0,,,,,240.57976380000764,,,,,,,,,,,,,,,,,240.56388770000197,241.37908060000336,242.1787008000101,242.1630920000025,,,,,,,,,,,,,,,,242.16722620000652,242.1787008000101,242.1787008000101,243.69649070000744,g,1.0,1.505380700007663,,243.69717060000403,243.71208280000428,244.6957892000064,244.7112389000104,,,,,,,,,,,,,,,,,,,,sub-003,1,stroop_test,51.866116957156,
,,,,19.0,7.0,1.0,,,,,gelb,blue,b,0.0,b,1.0,1.201572500009206,,,,,,,,,,,,,,1.0,7.0,19.0,9.0,,,,,244.7112389000104,,,,,,,,,,,,,,,,,244.69616490000044,245.0614467999985,245.86110970001027,245.8455688000104,,,,,,,,,,,,,,,,245.84620390000052,245.86110970001027,245.86110970001027,247.07918770000103,b,1.0,1.201572500009206,,247.0798406000104,247.09460710000712,248.0783426999988,248.0942273999972,,,,,,,,,,,,,,,,,,,,sub-003,1,stroop_test,51.866116957156,
,,,,20.0,8.0,1.0,,,,,gelb,red,r,0.0,r,1.0,0.7033188000059454,,,,,,,,,,,,,,1.0,8.0,20.0,8.0,,,,,248.0942273999972,,,,,,,,,,,,,,,,,248.0787157000013,248.8942854000052,249.6942282000091,249.6786201000068,,,,,,,,,,,,,,,,249.6792626999959,249.6942282000091,249.6942282000091,250.4116248000064,r,1.0,0.7033188000059454,,250.41234560000885,250.42716249999648,251.41189920000036,251.42690430000948,,,,,,,,,,,,,,,,,,,,sub-003,1,stroop_test,51.866116957156,
,,,,21.0,9.0,1.0,,,,,gelb,yellow,g,1.0,g,1.0,1.1459673000063049,,,,,,,,,,,,,,1.0,9.0,21.0,10.0,,,,,251.42690430000948,,,,,,,,,,,,,,,,,251.41228469999623,251.5102218999964,252.31005990000267,252.2942888999969,,,,,,,,,,,,,,,,252.294913699996,252.31005990000267,252.31005990000267,253.46130640000047,g,1.0,1.1459673000063049,,253.46196800000325,253.4767942000035,254.4606733999972,254.47667329999967,,,,,,,,,,,,,,,,,,,,sub-003,1,stroop_test,51.866116957156,
,,,,22.0,10.0,1.0,,,,,rot,yellow,g,0.0,g,1.0,0.6891801000019768,,,,,,,,,,,,,,1.0,10.0,22.0,3.0,,,,,254.47667329999967,,,,,,,,,,,,,,,,,254.4610775000037,254.82699030000367,255.62662439999983,255.61036910000257,,,,,,,,,,,,,,,,255.61480710000612,255.62662439999983,255.62662439999983,256.3272492999968,g,1.0,0.6891801000019768,,256.3279679999978,256.34324729999935,257.32698430000164,257.34239940000407,,,,,,,,,,,,,,,,,,,,sub-003,1,stroop_test,51.866116957156,
,,,,23.0,11.0,1.0,,,,,rot,red,r,1.0,r,1.0,1.1319813000009162,,,,,,,,,,,,,,1.0,11.0,23.0,1.0,,,,,257.34239940000407,,,,,,,,,,,,,,,,,257.32735970000795,257.4422717999987,258.2426417000097,258.2264961000037,,,,,,,,,,,,,,,,258.22713790000125,258.2426417000097,258.2426417000097,259.3779113000055,r,1.0,1.1319813000009162,,259.3786153999972,259.39221089999774,260.3762629999983,260.39246170000115,,,,,,,,,,,,,,,,,,,,sub-003,1,stroop_test,51.866116957156,
,,,,,,,,,,,,,,,,,,,,,,,,,,,,,,,,,,,,,,,,,,,,,,,,,,,,,,,,,,,,,,,,,,,,,,,,,,,,,,,,,,,,,,,260.3764162000007,260.39246170000115,260.39246170000115,262.09351610000886,space,1.696620500006247,,,,,,,,,,,,,,sub-003,1,stroop_test,51.866116957156,
,,,,0.0,0.0,0.0,,,,,,,,,,,,,rot,red,r,1.0,r,1.0,0.8942533999943407,,,,,,,,,,0.0,0.0,0.0,0.0,262.11466950000613,,,,,,,,,,,,,,,,,262.1080205000035,262.2089089000074,263.0084599999973,262.99264250000124,,,,,,,,,,,,,,,,,,,,,,,,,,,,,,,,,,,262.99673359999724,263.0084599999973,263.0084599999973,263.91023989999667,r,1.0,0.8942533999943407,,,,,,sub-003,1,stroop_test,51.866116957156,
,,,,1.0,1.0,0.0,,,,,,,,,,,,,gelb,yellow,g,1.0,g,1.0,0.7505402999959188,,,,,,,,,,0.0,1.0,1.0,10.0,263.9250831999961,,,,,,,,,,,,,,,,,263.9106976000039,264.72472850000486,265.5247875000059,265.5090377000015,,,,,,,,,,,,,,,,,,,,,,,,,,,,,,,,,,,265.5132452999969,265.5247875000059,265.5247875000059,266.292008000004,g,1.0,0.7505402999959188,,,,,,sub-003,1,stroop_test,51.866116957156,
,,,,2.0,2.0,0.0,,,,,,,,,,,,,blau,yellow,g,0.0,g,1.0,0.9011732999933884,,,,,,,,,,0.0,2.0,2.0,7.0,266.3076341999986,,,,,,,,,,,,,,,,,266.2924654000089,266.39064040000085,267.1920036000083,267.17579660000047,,,,,,,,,,,,,,,,,,,,,,,,,,,,,,,,,,,267.18031229999906,267.1920036000083,267.1920036000083,268.1084572999971,g,1.0,0.9011732999933884,,,,,,sub-003,1,stroop_test,51.866116957156,
,,,,3.0,3.0,0.0,,,,,,,,,,,,,blau,red,r,0.0,r,1.0,0.6650416000047699,,,,,,,,,,0.0,3.0,3.0,4.0,268.1242924999969,,,,,,,,,,,,,,,,,268.10890020000807,268.22380249999696,269.02371210001,269.0079304000101,,,,,,,,,,,,,,,,,,,,,,,,,,,,,,,,,,,269.008542399999,269.02371210001,269.02371210001,269.6921763999999,r,1.0,0.6650416000047699,,,,,,sub-003,1,stroop_test,51.866116957156,
,,,,4.0,4.0,0.0,,,,,,,,,,,,,gelb,red,r,0.0,r,1.0,0.6565189999964787,,,,,,,,,,0.0,4.0,4.0,8.0,269.7073888000013,,,,,,,,,,,,,,,,,269.6926281000051,270.9067828999978,271.7069656000094,271.69131979999656,,,,,,,,,,,,,,,,,,,,,,,,,,,,,,,,,,,271.6954349000007,271.7069656000094,271.7069656000094,272.3746816000057,r,1.0,0.6565189999964787,,,,,,sub-003,1,stroop_test,51.866116957156,
,,,,5.0,5.0,0.0,,,,,,,,,,,,,blau,blue,b,1.0,b,1.0,1.049502300011227,,,,,,,,,,0.0,5.0,5.0,5.0,272.39031570000225,,,,,,,,,,,,,,,,,272.3751435000013,272.4899510999967,273.28991459999816,273.27413720000186,,,,,,,,,,,,,,,,,,,,,,,,,,,,,,,,,,,273.2782032999967,273.28991459999816,273.28991459999816,274.34150700000464,b,1.0,1.049502300011227,,,,,,sub-003,1,stroop_test,51.866116957156,
,,,,6.0,6.0,0.0,,,,,,,,,,,,,rot,red,r,1.0,r,1.0,0.7122219000011683,,,,,,,,,,0.0,6.0,6.0,1.0,274.3561042000074,,,,,,,,,,,,,,,,,274.3419664999965,275.15580030001,275.9556892999972,275.94012280000607,,,,,,,,,,,,,,,,,,,,,,,,,,,,,,,,,,,275.94410659999994,275.9556892999972,275.9556892999972,276.67420750000747,r,1.0,0.7122219000011683,,,,,,sub-003,1,stroop_test,51.866116957156,
,,,,7.0,7.0,0.0,,,,,,,,,,,,,gelb,blue,b,0.0,b,1.0,0.7066880999918794,,,,,,,,,,0.0,7.0,7.0,9.0,276.68942490000336,,,,,,,,,,,,,,,,,276.6746531999961,276.7898741999961,277.5895092999999,277.57360630000767,,,,,,,,,,,,,,,,,,,,,,,,,,,,,,,,,,,277.57773410000664,277.5895092999999,277.5895092999999,278.30638540000655,b,1.0,0.7066880999918794,,,,,,sub-003,1,stroop_test,51.866116957156,
,,,,8.0,8.0,0.0,,,,,,,,,,,,,gelb,yellow,g,1.0,g,1.0,0.4515959999989718,,,,,,,,,,0.0,8.0,8.0,11.0,278.3221104999975,,,,,,,,,,,,,,,,,278.3068418000039,278.65575560000434,279.4556494999997,279.43983129999833,,,,,,,,,,,,,,,,,,,,,,,,,,,,,,,,,,,279.4404299000016,279.4556494999997,279.4556494999997,279.923434700002,g,1.0,0.4515959999989718,,,,,,sub-003,1,stroop_test,51.866116957156,
,,,,9.0,9.0,0.0,,,,,,,,,,,,,blau,blue,b,1.0,b,1.0,0.8336708999995608,,,,,,,,,,0.0,9.0,9.0,6.0,279.9390642000071,,,,,,,,,,,,,,,,,279.92388040000515,280.0391832000023,280.8565559999988,280.8394705999963,,,,,,,,,,,,,,,,,,,,,,,,,,,,,,,,,,,280.84501780000573,280.8565559999988,280.8565559999988,281.7058276000025,b,1.0,0.8336708999995608,,,,,,sub-003,1,stroop_test,51.866116957156,
,,,,10.0,10.0,0.0,,,,,,,,,,,,,rot,blue,b,0.0,b,1.0,1.0764177999953972,,,,,,,,,,0.0,10.0,10.0,2.0,281.7217440000095,,,,,,,,,,,,,,,,,281.7062830000068,282.92148910000105,283.7212478000001,283.7053508000099,,,,,,,,,,,,,,,,,,,,,,,,,,,,,,,,,,,283.70943290001014,283.7212478000001,283.7212478000001,284.8059501000098,b,1.0,1.0764177999953972,,,,,,sub-003,1,stroop_test,51.866116957156,
,,,,11.0,11.0,0.0,,,,,,,,,,,,,rot,yellow,g,0.0,g,1.0,0.7464482000068529,,,,,,,,,,0.0,11.0,11.0,3.0,284.8220006000047,,,,,,,,,,,,,,,,,284.80639480000536,285.6211145999987,286.4209062000009,286.4052582000004,,,,,,,,,,,,,,,,,,,,,,,,,,,,,,,,,,,286.405875299999,286.4209062000009,286.4209062000009,287.17271290000645,g,1.0,0.7464482000068529,,,,,,sub-003,1,stroop_test,51.866116957156,
,,,,12.0,0.0,1.0,,,,,,,,,,,,,gelb,yellow,g,1.0,g,1.0,0.8809103999956278,,,,,,,,,,1.0,0.0,12.0,10.0,287.187353900008,,,,,,,,,,,,,,,,,287.1731737000082,287.9870377000043,288.7874876999995,288.77164130000165,,,,,,,,,,,,,,,,,,,,,,,,,,,,,,,,,,,288.7757866000029,288.7874876999995,288.7874876999995,289.6720142999984,g,1.0,0.8809103999956278,,,,,,sub-003,1,stroop_test,51.866116957156,
,,,,13.0,1.0,1.0,,,,,,,,,,,,,blau,yellow,g,0.0,g,1.0,0.5814776999905007,,,,,,,,,,1.0,1.0,13.0,7.0,289.68676559999585,,,,,,,,,,,,,,,,,289.6724289999984,290.0367457000102,290.83676180000475,290.82123319999664,,,,,,,,,,,,,,,,,,,,,,,,,,,,,,,,,,,290.82523870001023,290.83676180000475,290.83676180000475,291.4214689000073,g,1.0,0.5814776999905007,,,,,,sub-003,1,stroop_test,51.866116957156,
,,,,14.0,2.0,1.0,,,,,,,,,,,,,blau,red,r,0.0,r,1.0,0.7832446999964304,,,,,,,,,,1.0,2.0,14.0,4.0,291.43644390000554,,,,,,,,,,,,,,,,,291.42188989999704,292.2366605999996,293.03621810000914,293.0207400000072,,,,,,,,,,,,,,,,,,,,,,,,,,,,,,,,,,,293.02138200000627,293.03621810000914,293.03621810000914,293.82111689999874,r,1.0,0.7832446999964304,,,,,,sub-003,1,stroop_test,51.866116957156,
,,,,15.0,3.0,1.0,,,,,,,,,,,,,blau,blue,b,1.0,b,1.0,0.8629140999983065,,,,,,,,,,1.0,3.0,15.0,5.0,293.8361254000047,,,,,,,,,,,,,,,,,293.82158250000793,294.18638090000604,294.9862424000021,294.9701703000028,,,,,,,,,,,,,,,,,,,,,,,,,,,,,,,,,,,294.97078590000456,294.9862424000021,294.9862424000021,295.85438570000406,b,1.0,0.8629140999983065,,,,,,sub-003,1,stroop_test,51.866116957156,
,,,,16.0,4.0,1.0,,,,,,,,,,,,,rot,yellow,g,0.0,g,1.0,0.5960358000011183,,,,,,,,,,1.0,4.0,16.0,3.0,295.8692957000021,,,,,,,,,,,,,,,,,295.85484110000834,295.9690663000074,296.76875380000274,296.7528112,,,,,,,,,,,,,,,,,,,,,,,,,,,,,,,,,,,296.75681690000056,296.76875380000274,296.76875380000274,297.37011099999654,g,1.0,0.5960358000011183,,,,,,sub-003,1,stroop_test,51.866116957156,
,,,,17.0,5.0,1.0,,,,,,,,,,,,,gelb,blue,b,0.0,b,1.0,0.823353900006623,,,,,,,,,,1.0,5.0,17.0,9.0,297.3851782999991,,,,,,,,,,,,,,,,,297.37055400000827,297.7359540000034,298.5359796999983,298.5194276999973,,,,,,,,,,,,,,,,,,,,,,,,,,,,,,,,,,,298.52423000001,298.5359796999983,298.5359796999983,299.3692613000021,b,1.0,0.823353900006623,,,,,,sub-003,1,stroop_test,51.866116957156,
,,,,18.0,6.0,1.0,,,,,,,,,,,,,gelb,red,r,0.0,r,1.0,0.6632823999971151,,,,,,,,,,1.0,6.0,18.0,8.0,299.3847261000046,,,,,,,,,,,,,,,,,299.3697072000068,300.18504270000267,300.9846650999971,300.96868770000583,,,,,,,,,,,,,,,,,,,,,,,,,,,,,,,,,,,300.9693133999972,300.9846650999971,300.9846650999971,301.65337179999915,r,1.0,0.6632823999971151,,,,,,sub-003,1,stroop_test,51.866116957156,
,,,,19.0,7.0,1.0,,,,,,,,,,,,,gelb,yellow,g,1.0,g,1.0,0.6514334999956191,,,,,,,,,,1.0,7.0,19.0,11.0,301.6682187999977,,,,,,,,,,,,,,,,,301.65383130000555,302.86840800000937,303.6856972000096,303.6686919000058,,,,,,,,,,,,,,,,,,,,,,,,,,,,,,,,,,,303.6692970000004,303.6856972000096,303.6856972000096,304.3522869000008,g,1.0,0.6514334999956191,,,,,,sub-003,1,stroop_test,51.866116957156,
,,,,20.0,8.0,1.0,,,,,,,,,,,,,blau,blue,b,1.0,b,1.0,0.4971102999988943,,,,,,,,,,1.0,8.0,20.0,6.0,304.36788330000127,,,,,,,,,,,,,,,,,304.3527441000042,305.1669738000055,305.96704289999616,305.9511274999968,,,,,,,,,,,,,,,,,,,,,,,,,,,,,,,,,,,305.95514879999973,305.96704289999616,305.96704289999616,306.46860550000565,b,1.0,0.4971102999988943,,,,,,sub-003,1,stroop_test,51.866116957156,
,,,,21.0,9.0,1.0,,,,,,,,,,,,,rot,blue,b,0.0,b,1.0,0.5951984999992419,,,,,,,,,,1.0,9.0,21.0,2.0,306.4836429999996,,,,,,,,,,,,,,,,,306.4690516999981,306.5669137000077,307.3669557999965,307.3512885000091,,,,,,,,,,,,,,,,,,,,,,,,,,,,,,,,,,,307.3553394000046,307.3669557999965,307.3669557999965,307.96849840000505,b,1.0,0.5951984999992419,,,,,,sub-003,1,stroop_test,51.866116957156,
,,,,22.0,10.0,1.0,,,,,,,,,,,,,rot,red,r,1.0,r,1.0,0.596182499997667,,,,,,,,,,1.0,10.0,22.0,0.0,307.9837903000007,,,,,,,,,,,,,,,,,307.96895439999935,308.3332475000061,309.133110499999,309.117367400002,,,,,,,,,,,,,,,,,,,,,,,,,,,,,,,,,,,309.1179802999977,309.133110499999,309.133110499999,309.736112700004,r,1.0,0.596182499997667,,,,,,sub-003,1,stroop_test,51.866116957156,
,,,,23.0,11.0,1.0,,,,,,,,,,,,,rot,red,r,1.0,r,1.0,0.6073937000037404,,,,,,,,,,1.0,11.0,23.0,1.0,309.74975400000403,,,,,,,,,,,,,,,,,309.73654949999764,310.09950490000483,310.8994529000047,310.88416889999644,,,,,,,,,,,,,,,,,,,,,,,,,,,,,,,,,,,310.8847601000016,310.8994529000047,310.8994529000047,311.51707149999856,r,1.0,0.6073937000037404,,,,,,sub-003,1,stroop_test,51.866116957156,
,,,,24.0,0.0,2.0,,,,,,,,,,,,,gelb,yellow,g,1.0,g,1.0,0.9690506999904756,,,,,,,,,,2.0,0.0,24.0,10.0,311.5327327999985,,,,,,,,,,,,,,,,,311.5175256000075,311.882540599996,312.68294179999793,312.6673010000086,,,,,,,,,,,,,,,,,,,,,,,,,,,,,,,,,,,312.67151290000766,312.68294179999793,312.68294179999793,313.6670560000057,g,1.0,0.9690506999904756,,,,,,sub-003,1,stroop_test,51.866116957156,
,,,,25.0,1.0,2.0,,,,,,,,,,,,,rot,red,r,1.0,r,1.0,0.5533931999962078,,,,,,,,,,2.0,1.0,25.0,1.0,313.6829173000005,,,,,,,,,,,,,,,,,313.6675132000091,314.48221990000457,315.2823040000076,315.26656660001026,,,,,,,,,,,,,,,,,,,,,,,,,,,,,,,,,,,315.2705386000016,315.2823040000076,315.2823040000076,315.84990450000623,r,1.0,0.5533931999962078,,,,,,sub-003,1,stroop_test,51.866116957156,
,,,,26.0,2.0,2.0,,,,,,,,,,,,,gelb,yellow,g,1.0,g,1.0,0.7545678000024054,,,,,,,,,,2.0,2.0,26.0,11.0,315.8651925000013,,,,,,,,,,,,,,,,,315.850359899996,315.96555010000884,316.76569590000145,316.7492481000081,,,,,,,,,,,,,,,,,,,,,,,,,,,,,,,,,,,316.7539526000037,316.76569590000145,316.76569590000145,317.5328587999975,g,1.0,0.7545678000024054,,,,,,sub-003,1,stroop_test,51.866116957156,
,,,,27.0,3.0,2.0,,,,,,,,,,,,,blau,red,r,0.0,r,1.0,0.7130896000016946,,,,,,,,,,2.0,3.0,27.0,4.0,317.5486678000016,,,,,,,,,,,,,,,,,317.5333099999989,317.64809930000047,318.448699200002,318.4330878000037,,,,,,,,,,,,,,,,,,,,,,,,,,,,,,,,,,,318.43708600000537,318.448699200002,318.448699200002,319.1663339000079,r,1.0,0.7130896000016946,,,,,,sub-003,1,stroop_test,51.866116957156,
,,,,28.0,4.0,2.0,,,,,,,,,,,,,gelb,red,r,0.0,r,1.0,0.6445039999962319,,,,,,,,,,2.0,4.0,28.0,8.0,319.1812734999985,,,,,,,,,,,,,,,,,319.1667831000086,319.98101479999605,320.7819199000078,320.7659694000031,,,,,,,,,,,,,,,,,,,,,,,,,,,,,,,,,,,320.770219500002,320.7819199000078,320.7819199000078,321.43266360000416,r,1.0,0.6445039999962319,,,,,,sub-003,1,stroop_test,51.866116957156,
,,,,29.0,5.0,2.0,,,,,,,,,,,,,rot,red,r,1.0,r,1.0,0.8889243999874452,,,,,,,,,,2.0,5.0,29.0,0.0,321.4481616999983,,,,,,,,,,,,,,,,,321.4331065000006,322.2475581000035,323.0474796000053,323.03163280000445,,,,,,,,,,,,,,,,,,,,,,,,,,,,,,,,,,,323.0355916999979,323.0474796000053,323.0474796000053,323.949308700001,r,1.0,0.8889243999874452,,,,,,sub-003,1,stroop_test,51.866116957156,
,,,,30.0,6.0,2.0,,,,,,,,,,,,,blau,blue,b,1.0,b,1.0,0.8079145000083372,,,,,,,,,,2.0,6.0,30.0,5.0,323.9639670000033,,,,,,,,,,,,,,,,,323.9497657000029,324.06402170000365,324.8639048000041,324.8483773000044,,,,,,,,,,,,,,,,,,,,,,,,,,,,,,,,,,,324.85229280000203,324.8639048000041,324.8639048000041,325.68157460000657,b,1.0,0.8079145000083372,,,,,,sub-003,1,stroop_test,51.866116957156,
,,,,31.0,7.0,2.0,,,,,,,,,,,,,gelb,blue,b,0.0,b,1.0,0.6722814999957336,,,,,,,,,,2.0,7.0,31.0,9.0,325.6974916000036,,,,,,,,,,,,,,,,,325.6820192000014,326.896814599997,327.6966167000064,327.68089150000014,,,,,,,,,,,,,,,,,,,,,,,,,,,,,,,,,,,327.684926300004,327.6966167000064,327.6966167000064,328.38167930000054,b,1.0,0.6722814999957336,,,,,,sub-003,1,stroop_test,51.866116957156,
,,,,32.0,8.0,2.0,,,,,,,,,,,,,blau,blue,b,1.0,b,1.0,0.5982797000033315,,,,,,,,,,2.0,8.0,32.0,6.0,328.39625910000177,,,,,,,,,,,,,,,,,328.3821384000039,328.49634670000523,329.2965991000092,329.2803302000102,,,,,,,,,,,,,,,,,,,,,,,,,,,,,,,,,,,329.28496620000806,329.2965991000092,329.2965991000092,329.898096600009,b,1.0,0.5982797000033315,,,,,,sub-003,1,stroop_test,51.866116957156,
,,,,33.0,9.0,2.0,,,,,,,,,,,,,blau,yellow,g,0.0,g,1.0,0.7295117000030586,,,,,,,,,,2.0,9.0,33.0,7.0,329.9126122000016,,,,,,,,,,,,,,,,,329.89855110000644,330.0126728000032,330.81247900000017,330.7968324000103,,,,,,,,,,,,,,,,,,,,,,,,,,,,,,,,,,,330.7974486000021,330.81247900000017,330.81247900000017,331.5473021000071,g,1.0,0.7295117000030586,,,,,,sub-003,1,stroop_test,51.866116957156,
,,,,34.0,10.0,2.0,,,,,,,,,,,,,rot,yellow,g,0.0,g,1.0,0.8841329999995651,,,,,,,,,,2.0,10.0,34.0,3.0,331.5623530000012,,,,,,,,,,,,,,,,,331.5477428000013,331.66289010000764,332.46269210000173,332.44713080000656,,,,,,,,,,,,,,,,,,,,,,,,,,,,,,,,,,,332.45127770000545,332.46269210000173,332.46269210000173,333.3637185999978,g,1.0,0.8841329999995651,,,,,,sub-003,1,stroop_test,51.866116957156,
,,,,35.0,11.0,2.0,,,,,,,,,,,,,rot,blue,b,0.0,b,1.0,0.6126389999990351,,,,,,,,,,2.0,11.0,35.0,2.0,333.378778600003,,,,,,,,,,,,,,,,,333.3641712999961,334.57884300001024,335.37882009999885,335.36292470000626,,,,,,,,,,,,,,,,,,,,,,,,,,,,,,,,,,,335.36352060000354,335.37882009999885,335.37882009999885,335.996899500009,b,1.0,0.6126389999990351,,,,,,sub-003,1,stroop_test,51.866116957156,
,,,,36.0,0.0,3.0,,,,,,,,,,,,,blau,blue,b,1.0,b,1.0,0.5085721000068588,,,,,,,,,,3.0,0.0,36.0,6.0,336.0118419000064,,,,,,,,,,,,,,,,,335.9973514000012,336.3615259000071,337.1618118000042,337.1458761000104,,,,,,,,,,,,,,,,,,,,,,,,,,,,,,,,,,,337.1499080000067,337.1618118000042,337.1618118000042,337.67992599999707,b,1.0,0.5085721000068588,,,,,,sub-003,1,stroop_test,51.866116957156,
,,,,37.0,1.0,3.0,,,,,,,,,,,,,rot,red,r,1.0,r,1.0,0.5787134999991395,,,,,,,,,,3.0,1.0,37.0,1.0,337.69510260000243,,,,,,,,,,,,,,,,,337.68038479999814,338.0448134000035,338.84467370000493,338.82933429999684,,,,,,,,,,,,,,,,,,,,,,,,,,,,,,,,,,,338.8332864999975,338.84467370000493,338.84467370000493,339.42945140000666,r,1.0,0.5787134999991395,,,,,,sub-003,1,stroop_test,51.866116957156,
,,,,38.0,2.0,3.0,,,,,,,,,,,,,rot,blue,b,0.0,b,1.0,0.8355344000010518,,,,,,,,,,3.0,2.0,38.0,2.0,339.44478220000747,,,,,,,,,,,,,,,,,339.4299047000095,339.5445723000012,340.3439115000074,340.32911500000046,,,,,,,,,,,,,,,,,,,,,,,,,,,,,,,,,,,340.32969440000306,340.3439115000074,340.3439115000074,341.1957521000004,b,1.0,0.8355344000010518,,,,,,sub-003,1,stroop_test,51.866116957156,
,,,,39.0,3.0,3.0,,,,,,,,,,,,,gelb,blue,b,0.0,b,1.0,0.5891173999989405,,,,,,,,,,3.0,3.0,39.0,9.0,341.21139250000124,,,,,,,,,,,,,,,,,341.1962013000011,342.4104168000049,343.2105757999961,343.1946175000048,,,,,,,,,,,,,,,,,,,,,,,,,,,,,,,,,,,343.1988926000049,343.2105757999961,343.2105757999961,343.81171770000947,b,1.0,0.5891173999989405,,,,,,sub-003,1,stroop_test,51.866116957156,
,,,,40.0,4.0,3.0,,,,,,,,,,,,,gelb,yellow,g,1.0,g,1.0,0.7316779999964638,,,,,,,,,,3.0,4.0,40.0,10.0,343.82722420000937,,,,,,,,,,,,,,,,,343.8121575999976,344.1770152000099,344.9768153000041,344.96079880000616,,,,,,,,,,,,,,,,,,,,,,,,,,,,,,,,,,,344.96140919999743,344.9768153000041,344.9768153000041,345.7115310000081,g,1.0,0.7316779999964638,,,,,,sub-003,1,stroop_test,51.866116957156,
,,,,41.0,5.0,3.0,,,,,,,,,,,,,blau,red,r,0.0,r,1.0,0.6427141999884043,,,,,,,,,,3.0,5.0,41.0,4.0,345.72705159999896,,,,,,,,,,,,,,,,,345.7119842000102,346.5263469000056,347.32640180000453,347.3097540000017,,,,,,,,,,,,,,,,,,,,,,,,,,,,,,,,,,,347.314429200007,347.32640180000453,347.32640180000453,347.9776042000012,r,1.0,0.6427141999884043,,,,,,sub-003,1,stroop_test,51.866116957156,
,,,,42.0,6.0,3.0,,,,,,,,,,,,,blau,yellow,g,0.0,g,1.0,0.8948521000129404,,,,,,,,,,3.0,6.0,42.0,7.0,347.9927277999959,,,,,,,,,,,,,,,,,347.978050100006,348.34328559999994,349.14302119999775,349.1273346000089,,,,,,,,,,,,,,,,,,,,,,,,,,,,,,,,,,,349.1279921000096,349.14302119999775,349.14302119999775,350.0442805000057,g,1.0,0.8948521000129404,,,,,,sub-003,1,stroop_test,51.866116957156,
,,,,43.0,7.0,3.0,,,,,,,,,,,,,gelb,yellow,g,1.0,g,1.0,0.7311018999898806,,,,,,,,,,3.0,7.0,43.0,11.0,350.0590391000005,,,,,,,,,,,,,,,,,350.04472050000913,350.1605094999977,350.97643550000794,350.96054990000266,,,,,,,,,,,,,,,,,,,,,,,,,,,,,,,,,,,350.96469629999774,350.97643550000794,350.97643550000794,351.7105809000059,g,1.0,0.7311018999898806,,,,,,sub-003,1,stroop_test,51.866116957156,
,,,,44.0,8.0,3.0,,,,,,,,,,,,,gelb,red,r,0.0,r,1.0,0.765757000001031,,,,,,,,,,3.0,8.0,44.0,8.0,351.7252244999981,,,,,,,,,,,,,,,,,351.7110345999972,352.92577499999607,353.7249557000032,353.7093872999976,,,,,,,,,,,,,,,,,,,,,,,,,,,,,,,,,,,353.71004200000607,353.7249557000032,353.7249557000032,354.4930184999976,r,1.0,0.765757000001031,,,,,,sub-003,1,stroop_test,51.866116957156,
,,,,45.0,9.0,3.0,,,,,,,,,,,,,rot,red,r,1.0,r,1.0,0.5973590999929002,,,,,,,,,,3.0,9.0,45.0,0.0,354.50825189999887,,,,,,,,,,,,,,,,,354.4934620999993,354.8412043999997,355.64121590000286,355.62565110001015,,,,,,,,,,,,,,,,,,,,,,,,,,,,,,,,,,,355.629677200006,355.64121590000286,355.64121590000286,356.2429306999984,r,1.0,0.5973590999929002,,,,,,sub-003,1,stroop_test,51.866116957156,
,,,,46.0,10.0,3.0,,,,,,,,,,,,,blau,blue,b,1.0,b,1.0,0.5540022000059253,,,,,,,,,,3.0,10.0,46.0,5.0,356.2580051999976,,,,,,,,,,,,,,,,,356.24334280000767,357.45823040000687,358.2577767000039,358.2419296000008,,,,,,,,,,,,,,,,,,,,,,,,,,,,,,,,,,,358.2458640999976,358.2577767000039,358.2577767000039,358.82588060000853,b,1.0,0.5540022000059253,,,,,,sub-003,1,stroop_test,51.866116957156,
,,,,47.0,11.0,3.0,,,,,,,,,,,,,rot,yellow,g,0.0,g,1.0,0.8530192000034731,,,,,,,,,,3.0,11.0,47.0,3.0,358.84118810000655,,,,,,,,,,,,,,,,,358.82632300000114,359.6404884000076,360.4403503000067,360.4246348000015,,,,,,,,,,,,,,,,,,,,,,,,,,,,,,,,,,,360.42872540000826,360.4403503000067,360.4403503000067,361.3085817000101,g,1.0,0.8530192000034731,,,,,,sub-003,1,stroop_test,51.866116957156,
,,,,48.0,0.0,4.0,,,,,,,,,,,,,rot,yellow,g,0.0,g,1.0,0.5461671000084607,,,,,,,,,,4.0,0.0,48.0,3.0,361.3235126000072,,,,,,,,,,,,,,,,,361.3090488000016,361.6738774999976,362.473206900002,362.458154100008,,,,,,,,,,,,,,,,,,,,,,,,,,,,,,,,,,,362.4588405999966,362.473206900002,362.473206900002,363.0247649000085,g,1.0,0.5461671000084607,,,,,,sub-003,1,stroop_test,51.866116957156,
,,,,49.0,1.0,4.0,,,,,,,,,,,,,gelb,yellow,g,1.0,g,1.0,0.5512799999996787,,,,,,,,,,4.0,1.0,49.0,11.0,363.039910499996,,,,,,,,,,,,,,,,,363.0252111000009,364.2400371999975,365.04008859999885,365.02391650000936,,,,,,,,,,,,,,,,,,,,,,,,,,,,,,,,,,,365.02864570000384,365.04008859999885,365.04008859999885,365.6076292000071,g,1.0,0.5512799999996787,,,,,,sub-003,1,stroop_test,51.866116957156,
,,,,50.0,2.0,4.0,,,,,,,,,,,,,gelb,yellow,g,1.0,g,1.0,0.6039270000037504,,,,,,,,,,4.0,2.0,50.0,10.0,365.6229796999978,,,,,,,,,,,,,,,,,365.6080790999986,366.82308220000414,367.62224520000746,367.6072595000005,,,,,,,,,,,,,,,,,,,,,,,,,,,,,,,,,,,367.6079394999979,367.62224520000746,367.62224520000746,368.2403201999987,g,1.0,0.6039270000037504,,,,,,sub-003,1,stroop_test,51.866116957156,
,,,,51.0,3.0,4.0,,,,,,,,,,,,,gelb,blue,b,0.0,b,1.0,0.6930806999880588,,,,,,,,,,4.0,3.0,51.0,9.0,368.2557550000056,,,,,,,,,,,,,,,,,368.2407630000089,369.05630969999766,369.8557705999992,369.839804999996,,,,,,,,,,,,,,,,,,,,,,,,,,,,,,,,,,,369.8404300999973,369.8557705999992,369.8557705999992,370.55739490001,b,1.0,0.6930806999880588,,,,,,sub-003,1,stroop_test,51.866116957156,
,,,,52.0,4.0,4.0,,,,,,,,,,,,,blau,yellow,g,0.0,g,1.0,0.7895868000050541,,,,,,,,,,4.0,4.0,52.0,7.0,370.572299499996,,,,,,,,,,,,,,,,,370.557836100008,370.67219280000427,371.47259920000215,371.4568890000082,,,,,,,,,,,,,,,,,,,,,,,,,,,,,,,,,,,371.46100720000686,371.47259920000215,371.47259920000215,372.2734615000081,g,1.0,0.7895868000050541,,,,,,sub-003,1,stroop_test,51.866116957156,
,,,,53.0,5.0,4.0,,,,,,,,,,,,,gelb,red,r,0.0,r,1.0,0.7024105000018608,,,,,,,,,,4.0,5.0,53.0,8.0,372.2885593999963,,,,,,,,,,,,,,,,,372.2739216000045,372.38879240000097,373.18898259999696,373.1730634999985,,,,,,,,,,,,,,,,,,,,,,,,,,,,,,,,,,,373.1772273000097,373.18898259999696,373.18898259999696,373.90646340000967,r,1.0,0.7024105000018608,,,,,,sub-003,1,stroop_test,51.866116957156,
,,,,54.0,6.0,4.0,,,,,,,,,,,,,rot,red,r,1.0,r,1.0,0.7095909000054235,,,,,,,,,,4.0,6.0,54.0,1.0,373.9216730000044,,,,,,,,,,,,,,,,,373.90687629999593,374.271218599999,375.07137630000943,375.055766999998,,,,,,,,,,,,,,,,,,,,,,,,,,,,,,,,,,,375.0597362999979,375.07137630000943,375.07137630000943,375.7894423999969,r,1.0,0.7095909000054235,,,,,,sub-003,1,stroop_test,51.866116957156,
,,,,55.0,7.0,4.0,,,,,,,,,,,,,rot,blue,b,0.0,b,1.0,0.6139939999993658,,,,,,,,,,4.0,7.0,55.0,2.0,375.8046866000077,,,,,,,,,,,,,,,,,375.7898851000064,375.9048060000059,376.7045039000077,376.68890490000194,,,,,,,,,,,,,,,,,,,,,,,,,,,,,,,,,,,376.6895181,376.7045039000077,376.7045039000077,377.3237174000096,b,1.0,0.6139939999993658,,,,,,sub-003,1,stroop_test,51.866116957156,
,,,,56.0,8.0,4.0,,,,,,,,,,,,,blau,red,r,0.0,r,1.0,0.5008700000034878,,,,,,,,,,4.0,8.0,56.0,4.0,377.33808580000186,,,,,,,,,,,,,,,,,377.3241580000031,377.68764270000975,378.4874984000053,378.4715784,,,,,,,,,,,,,,,,,,,,,,,,,,,,,,,,,,,378.4756305000046,378.4874984000053,378.4874984000053,379.0066503999988,r,1.0,0.5008700000034878,,,,,,sub-003,1,stroop_test,51.866116957156,
,,,,57.0,9.0,4.0,,,,,,,,,,,,,blau,blue,b,1.0,b,1.0,0.810356399990269,,,,,,,,,,4.0,9.0,57.0,6.0,379.0209231000045,,,,,,,,,,,,,,,,,379.00709970000025,380.2203860000009,381.0200577000069,381.00428459999966,,,,,,,,,,,,,,,,,,,,,,,,,,,,,,,,,,,381.0048473000061,381.0200577000069,381.0200577000069,381.8383807000064,b,1.0,0.810356399990269,,,,,,sub-003,1,stroop_test,51.866116957156,
,,,,58.0,10.0,4.0,,,,,,,,,,,,,rot,red,r,1.0,r,1.0,0.8121656000002986,,,,,,,,,,4.0,10.0,58.0,0.0,381.85317440000654,,,,,,,,,,,,,,,,,381.8388217000029,383.0535781000072,383.8535478999984,383.8372483999992,,,,,,,,,,,,,,,,,,,,,,,,,,,,,,,,,,,383.84188360000553,383.8535478999984,383.8535478999984,384.67101010000624,r,1.0,0.8121656000002986,,,,,,sub-003,1,stroop_test,51.866116957156,
,,,,59.0,11.0,4.0,,,,,,,,,,,,,blau,blue,b,1.0,b,1.0,0.6992242999986047,,,,,,,,,,4.0,11.0,59.0,5.0,384.6859957999986,,,,,,,,,,,,,,,,,384.6714559999964,385.8859335000016,386.6857802000013,386.6698411999969,,,,,,,,,,,,,,,,,,,,,,,,,,,,,,,,,,,386.6740176000021,386.6857802000013,386.6857802000013,387.3873542000074,b,1.0,0.6992242999986047,,,,,,sub-003,1,stroop_test,51.866116957156,
,,,,60.0,0.0,5.0,,,,,,,,,,,,,blau,blue,b,1.0,b,1.0,1.0621564000030048,,,,,,,,,,5.0,0.0,60.0,6.0,387.4021979000099,,,,,,,,,,,,,,,,,387.3877964999992,388.6022864999977,389.40198770001007,389.3862175000104,,,,,,,,,,,,,,,,,,,,,,,,,,,,,,,,,,,389.3868184000021,389.40198770001007,389.40198770001007,390.4704992000042,b,1.0,1.0621564000030048,,,,,,sub-003,1,stroop_test,51.866116957156,
,,,,61.0,1.0,5.0,,,,,,,,,,,,,blau,blue,b,1.0,b,1.0,0.6884736000065459,,,,,,,,,,5.0,1.0,61.0,5.0,390.4853508000088,,,,,,,,,,,,,,,,,390.47096299999976,390.83509839999897,391.6353073000064,391.61933270000736,,,,,,,,,,,,,,,,,,,,,,,,,,,,,,,,,,,391.6199440000055,391.6353073000064,391.6353073000064,392.3360182000033,b,1.0,0.6884736000065459,,,,,,sub-003,1,stroop_test,51.866116957156,
,,,,62.0,2.0,5.0,,,,,,,,,,,,,gelb,red,r,0.0,r,1.0,0.6960286999965319,,,,,,,,,,5.0,2.0,62.0,8.0,392.35191500000656,,,,,,,,,,,,,,,,,392.3364625999966,392.7013378999982,393.501158900006,393.4852667000087,,,,,,,,,,,,,,,,,,,,,,,,,,,,,,,,,,,393.489352500008,393.501158900006,393.501158900006,394.202420600006,r,1.0,0.6960286999965319,,,,,,sub-003,1,stroop_test,51.866116957156,
,,,,63.0,3.0,5.0,,,,,,,,,,,,,blau,red,r,0.0,r,1.0,0.728785200000857,,,,,,,,,,5.0,3.0,63.0,4.0,394.2176715000096,,,,,,,,,,,,,,,,,394.2029012999992,395.4178409000015,396.21757560000697,396.2015688000101,,,,,,,,,,,,,,,,,,,,,,,,,,,,,,,,,,,396.20563740000944,396.21757560000697,396.21757560000697,396.9526736999978,r,1.0,0.728785200000857,,,,,,sub-003,1,stroop_test,51.866116957156,
,,,,64.0,4.0,5.0,,,,,,,,,,,,,blau,yellow,g,0.0,g,1.0,0.5374236999923596,,,,,,,,,,5.0,4.0,64.0,7.0,396.9671696000005,,,,,,,,,,,,,,,,,396.9531294000044,398.1675689999975,398.9673485000094,398.9515514000086,,,,,,,,,,,,,,,,,,,,,,,,,,,,,,,,,,,398.9521555000101,398.9673485000094,398.9673485000094,399.521172000008,g,1.0,0.5374236999923596,,,,,,sub-003,1,stroop_test,51.866116957156,
,,,,65.0,5.0,5.0,,,,,,,,,,,,,rot,red,r,1.0,r,1.0,0.7278747000091244,,,,,,,,,,5.0,5.0,65.0,1.0,399.53474790000473,,,,,,,,,,,,,,,,,399.5217784999986,400.7356697000069,401.5497956000036,401.5337816999963,,,,,,,,,,,,,,,,,,,,,,,,,,,,,,,,,,,401.5377961000049,401.5497956000036,401.5497956000036,402.28623369999696,r,1.0,0.7278747000091244,,,,,,sub-003,1,stroop_test,51.866116957156,
,,,,66.0,6.0,5.0,,,,,,,,,,,,,rot,yellow,g,0.0,g,1.0,0.7335197000065818,,,,,,,,,,5.0,6.0,66.0,3.0,402.3013866999973,,,,,,,,,,,,,,,,,402.2868088999967,402.6497250000102,403.4501762,403.4350394000066,,,,,,,,,,,,,,,,,,,,,,,,,,,,,,,,,,,403.43587729999854,403.4501762,403.4501762,404.2011834000005,g,1.0,0.7335197000065818,,,,,,sub-003,1,stroop_test,51.866116957156,
,,,,67.0,7.0,5.0,,,,,,,,,,,,,gelb,blue,b,0.0,b,1.0,0.5803940000041621,,,,,,,,,,5.0,7.0,67.0,9.0,404.2164576000068,,,,,,,,,,,,,,,,,404.201647599999,405.4163322000095,406.21631859999616,406.200079000002,,,,,,,,,,,,,,,,,,,,,,,,,,,,,,,,,,,406.2046169000096,406.21631859999616,406.21631859999616,406.8010833000008,b,1.0,0.5803940000041621,,,,,,sub-003,1,stroop_test,51.866116957156,
,,,,68.0,8.0,5.0,,,,,,,,,,,,,rot,red,r,1.0,r,1.0,0.6966213999985484,,,,,,,,,,5.0,8.0,68.0,0.0,406.8155942000012,,,,,,,,,,,,,,,,,406.8015554000012,407.1657766999997,407.9650779000076,407.9497896999965,,,,,,,,,,,,,,,,,,,,,,,,,,,,,,,,,,,407.9536450000014,407.9650779000076,407.9650779000076,408.6674731000094,r,1.0,0.6966213999985484,,,,,,sub-003,1,stroop_test,51.866116957156,
,,,,69.0,9.0,5.0,,,,,,,,,,,,,rot,blue,b,0.0,b,1.0,0.7171540999988792,,,,,,,,,,5.0,9.0,69.0,2.0,408.6819837000076,,,,,,,,,,,,,,,,,408.6679320999974,408.78302760000224,409.5989233,409.5827549000096,,,,,,,,,,,,,,,,,,,,,,,,,,,,,,,,,,,409.58336840000993,409.5989233,409.5989233,410.3324122000049,b,1.0,0.7171540999988792,,,,,,sub-003,1,stroop_test,51.866116957156,
,,,,70.0,10.0,5.0,,,,,,,,,,,,,gelb,yellow,g,1.0,g,1.0,0.7543766999879153,,,,,,,,,,5.0,10.0,70.0,11.0,410.34838950000994,,,,,,,,,,,,,,,,,410.3328544999968,411.1313629000069,411.9313295000029,411.91526750000776,,,,,,,,,,,,,,,,,,,,,,,,,,,,,,,,,,,411.91939190000994,411.9313295000029,411.9313295000029,412.6992583000101,g,1.0,0.7543766999879153,,,,,,sub-003,1,stroop_test,51.866116957156,
,,,,71.0,11.0,5.0,,,,,,,,,,,,,gelb,yellow,g,1.0,g,1.0,0.646837799999048,,,,,,,,,,5.0,11.0,71.0,10.0,412.7143275999988,,,,,,,,,,,,,,,,,412.69969839999976,412.8146165000071,413.6139836000075,413.5985539000103,,,,,,,,,,,,,,,,,,,,,,,,,,,,,,,,,,,413.5991846999968,413.6139836000075,413.6139836000075,414.2662477999984,g,1.0,0.646837799999048,,,,,,sub-003,1,stroop_test,51.866116957156,
,,,,72.0,0.0,6.0,,,,,,,,,,,,,blau,yellow,g,0.0,g,1.0,0.6099918999971123,,,,,,,,,,6.0,0.0,72.0,7.0,414.28104080000776,,,,,,,,,,,,,,,,,414.26669260000926,415.48056070000166,416.2803608000104,416.2646758000046,,,,,,,,,,,,,,,,,,,,,,,,,,,,,,,,,,,416.26878070000384,416.2803608000104,416.2803608000104,416.8985220000032,g,1.0,0.6099918999971123,,,,,,sub-003,1,stroop_test,51.866116957156,
,,,,73.0,1.0,6.0,,,,,,,,,,,,,gelb,blue,b,0.0,b,1.0,0.6277512000087881,,,,,,,,,,6.0,1.0,73.0,9.0,416.9140674000082,,,,,,,,,,,,,,,,,416.8989758000098,417.7134182000009,418.51368479999655,418.4981176000001,,,,,,,,,,,,,,,,,,,,,,,,,,,,,,,,,,,418.5023207000049,418.51368479999655,418.51368479999655,419.14866540000367,b,1.0,0.6277512000087881,,,,,,sub-003,1,stroop_test,51.866116957156,
,,,,74.0,2.0,6.0,,,,,,,,,,,,,gelb,yellow,g,1.0,g,1.0,0.7628792000032263,,,,,,,,,,6.0,2.0,74.0,10.0,419.1632363000099,,,,,,,,,,,,,,,,,419.149118500005,419.9629028000054,420.7627822000068,420.7476203999977,,,,,,,,,,,,,,,,,,,,,,,,,,,,,,,,,,,420.7482042000047,420.7627822000068,420.7627822000068,421.5316603999963,g,1.0,0.7628792000032263,,,,,,sub-003,1,stroop_test,51.866116957156,
,,,,75.0,3.0,6.0,,,,,,,,,,,,,blau,blue,b,1.0,b,1.0,0.7954221999971196,,,,,,,,,,6.0,3.0,75.0,5.0,421.54597680000006,,,,,,,,,,,,,,,,,421.532116900009,421.64656350000587,422.4462312999967,422.4299567999988,,,,,,,,,,,,,,,,,,,,,,,,,,,,,,,,,,,422.4346392000007,422.4462312999967,422.4462312999967,423.2480030000006,b,1.0,0.7954221999971196,,,,,,sub-003,1,stroop_test,51.866116957156,
,,,,76.0,4.0,6.0,,,,,,,,,,,,,rot,blue,b,0.0,b,1.0,0.6071632000093814,,,,,,,,,,6.0,4.0,76.0,2.0,423.262810900007,,,,,,,,,,,,,,,,,423.2484597000002,423.6125681999984,424.4127271000034,424.3970355000056,,,,,,,,,,,,,,,,,,,,,,,,,,,,,,,,,,,424.4010502000019,424.4127271000034,424.4127271000034,425.0301552000019,b,1.0,0.6071632000093814,,,,,,sub-003,1,stroop_test,51.866116957156,
,,,,77.0,5.0,6.0,,,,,,,,,,,,,rot,yellow,g,0.0,g,1.0,1.026524100001552,,,,,,,,,,6.0,5.0,77.0,3.0,425.0454296000098,,,,,,,,,,,,,,,,,425.0305807999976,425.8458307999972,426.6452578000026,426.63014609999664,,,,,,,,,,,,,,,,,,,,,,,,,,,,,,,,,,,426.630753400008,426.6452578000026,426.6452578000026,427.6803026999987,g,1.0,1.026524100001552,,,,,,sub-003,1,stroop_test,51.866116957156,
,,,,78.0,6.0,6.0,,,,,,,,,,,,,rot,red,r,1.0,r,1.0,0.6065048000018578,,,,,,,,,,6.0,6.0,78.0,1.0,427.69495620000816,,,,,,,,,,,,,,,,,427.68075050000334,427.7952928000013,428.5951405000087,428.5794607999997,,,,,,,,,,,,,,,,,,,,,,,,,,,,,,,,,,,428.5800242999976,428.5951405000087,428.5951405000087,429.2130720999994,r,1.0,0.6065048000018578,,,,,,sub-003,1,stroop_test,51.866116957156,
,,,,79.0,7.0,6.0,,,,,,,,,,,,,blau,blue,b,1.0,b,1.0,0.6714031000010436,,,,,,,,,,6.0,7.0,79.0,6.0,429.2278551000054,,,,,,,,,,,,,,,,,429.2135248999985,429.3279335999978,430.1284202999959,430.1124234000017,,,,,,,,,,,,,,,,,,,,,,,,,,,,,,,,,,,430.1165821000032,430.1284202999959,430.1284202999959,430.8118087000039,b,1.0,0.6714031000010436,,,,,,sub-003,1,stroop_test,51.866116957156,
,,,,80.0,8.0,6.0,,,,,,,,,,,,,gelb,red,r,0.0,g,0.0,0.5326443000085419,,,,,,,,,,6.0,8.0,80.0,8.0,430.8276179000095,,,,,,,,,,,,,,,,,430.81226560000505,431.161691900008,431.9614416999975,431.9454339000076,,,,,,,,,,,,,,,,,,,,,,,,,,,,,,,,,,,431.9495736999961,431.9614416999975,431.9614416999975,432.4955254000088,g,0.0,0.5326443000085419,,,,,,sub-003,1,stroop_test,51.866116957156,
,,,,81.0,9.0,6.0,,,,,,,,,,,,,gelb,yellow,g,1.0,g,1.0,0.6595710999972653,,,,,,,,,,6.0,9.0,81.0,11.0,432.51116500000353,,,,,,,,,,,,,,,,,432.49597200000426,432.8608053000062,433.6604615999968,433.64523560000816,,,,,,,,,,,,,,,,,,,,,,,,,,,,,,,,,,,433.6458767000004,433.6604615999968,433.6604615999968,434.3286866999988,g,1.0,0.6595710999972653,,,,,,sub-003,1,stroop_test,51.866116957156,
,,,,82.0,10.0,6.0,,,,,,,,,,,,,blau,red,r,0.0,r,1.0,0.6805635999917286,,,,,,,,,,6.0,10.0,82.0,4.0,434.3440665000089,,,,,,,,,,,,,,,,,434.3291451999976,434.6942868000042,435.4936125000095,435.4779304999975,,,,,,,,,,,,,,,,,,,,,,,,,,,,,,,,,,,435.4818356000033,435.4936125000095,435.4936125000095,436.1784487999976,r,1.0,0.6805635999917286,,,,,,sub-003,1,stroop_test,51.866116957156,
,,,,83.0,11.0,6.0,,,,,,,,,,,,,rot,red,r,1.0,r,1.0,0.6494686000078218,,,,,,,,,,6.0,11.0,83.0,0.0,436.19366030000674,,,,,,,,,,,,,,,,,436.17889060000016,436.5437622000027,437.34395160000713,437.32790420000674,,,,,,,,,,,,,,,,,,,,,,,,,,,,,,,,,,,437.33249110000907,437.34395160000713,437.34395160000713,437.9948809000052,r,1.0,0.6494686000078218,,,,,,sub-003,1,stroop_test,51.866116957156,
,,,,84.0,0.0,7.0,,,,,,,,,,,,,blau,red,r,0.0,r,1.0,1.3664837999967858,,,,,,,,,,7.0,0.0,84.0,4.0,438.0098345000006,,,,,,,,,,,,,,,,,437.9953255,439.2100052000024,440.00958260000334,439.9939846000052,,,,,,,,,,,,,,,,,,,,,,,,,,,,,,,,,,,439.9980972000049,440.00958260000334,440.00958260000334,441.37760950000666,r,1.0,1.3664837999967858,,,,,,sub-003,1,stroop_test,51.866116957156,
,,,,85.0,1.0,7.0,,,,,,,,,,,,,rot,yellow,g,0.0,g,1.0,0.6827200000116136,,,,,,,,,,7.0,1.0,85.0,3.0,441.3925276000082,,,,,,,,,,,,,,,,,441.3780702000077,442.1927274000045,442.9924131000007,442.97657179999806,,,,,,,,,,,,,,,,,,,,,,,,,,,,,,,,,,,442.9805583999987,442.9924131000007,442.9924131000007,443.6771363000007,g,1.0,0.6827200000116136,,,,,,sub-003,1,stroop_test,51.866116957156,
,,,,86.0,2.0,7.0,,,,,,,,,,,,,blau,blue,b,1.0,b,1.0,0.5227120000054128,,,,,,,,,,7.0,2.0,86.0,5.0,443.6923887000012,,,,,,,,,,,,,,,,,443.67757880000863,444.891829500004,445.69220479999785,445.6764172999974,,,,,,,,,,,,,,,,,,,,,,,,,,,,,,,,,,,445.6804978,445.69220479999785,445.69220479999785,446.226453700001,b,1.0,0.5227120000054128,,,,,,sub-003,1,stroop_test,51.866116957156,
,,,,87.0,3.0,7.0,,,,,,,,,,,,,gelb,yellow,g,1.0,g,1.0,0.6073965999967186,,,,,,,,,,7.0,3.0,87.0,11.0,446.2418106999976,,,,,,,,,,,,,,,,,446.2269107000029,447.4414663000061,448.2414983000053,448.225555099998,,,,,,,,,,,,,,,,,,,,,,,,,,,,,,,,,,,448.2297670999978,448.2414983000053,448.2414983000053,448.8590184000059,g,1.0,0.6073965999967186,,,,,,sub-003,1,stroop_test,51.866116957156,
,,,,88.0,4.0,7.0,,,,,,,,,,,,,blau,yellow,g,0.0,g,1.0,0.5945649000059348,,,,,,,,,,7.0,4.0,88.0,7.0,448.8748474000022,,,,,,,,,,,,,,,,,448.8594621000084,449.2245973000099,450.0259863000101,450.0088560000004,,,,,,,,,,,,,,,,,,,,,,,,,,,,,,,,,,,450.0128304999962,450.0259863000101,450.0259863000101,450.6259582000057,g,1.0,0.5945649000059348,,,,,,sub-003,1,stroop_test,51.866116957156,
,,,,89.0,5.0,7.0,,,,,,,,,,,,,gelb,yellow,g,1.0,g,1.0,0.6085615000047255,,,,,,,,,,7.0,5.0,89.0,10.0,450.6408136999962,,,,,,,,,,,,,,,,,450.62641379999695,451.84065369999735,452.6411786999961,452.6246383999969,,,,,,,,,,,,,,,,,,,,,,,,,,,,,,,,,,,452.6294322000031,452.6411786999961,452.6411786999961,453.2582821999968,g,1.0,0.6085615000047255,,,,,,sub-003,1,stroop_test,51.866116957156,
,,,,90.0,6.0,7.0,,,,,,,,,,,,,rot,red,r,1.0,r,1.0,0.6273163000005297,,,,,,,,,,7.0,6.0,90.0,1.0,453.2735246000084,,,,,,,,,,,,,,,,,453.2587273999961,454.07498900000064,454.8736902000092,454.8581414000073,,,,,,,,,,,,,,,,,,,,,,,,,,,,,,,,,,,454.8623164000019,454.8736902000092,454.8736902000092,455.5084272000095,r,1.0,0.6273163000005297,,,,,,sub-003,1,stroop_test,51.866116957156,
,,,,91.0,7.0,7.0,,,,,,,,,,,,,rot,blue,b,0.0,b,1.0,0.6021959999925457,,,,,,,,,,7.0,7.0,91.0,2.0,455.5231350000104,,,,,,,,,,,,,,,,,455.5088699000044,456.723270100003,457.5227583000087,457.50756759999786,,,,,,,,,,,,,,,,,,,,,,,,,,,,,,,,,,,457.5082012000057,457.5227583000087,457.5227583000087,458.1407600000093,b,1.0,0.6021959999925457,,,,,,sub-003,1,stroop_test,51.866116957156,
,,,,92.0,8.0,7.0,,,,,,,,,,,,,gelb,blue,b,0.0,b,1.0,0.7089412000059383,,,,,,,,,,7.0,8.0,92.0,9.0,458.1564423000091,,,,,,,,,,,,,,,,,458.1412130000099,458.2393508000096,459.0394656999997,459.02312929999607,,,,,,,,,,,,,,,,,,,,,,,,,,,,,,,,,,,459.02747909999744,459.0394656999997,459.0394656999997,459.7570054000098,b,1.0,0.7089412000059383,,,,,,sub-003,1,stroop_test,51.866116957156,
,,,,93.0,9.0,7.0,,,,,,,,,,,,,blau,blue,b,1.0,b,1.0,0.6515332999988459,,,,,,,,,,7.0,9.0,93.0,6.0,459.7728486999986,,,,,,,,,,,,,,,,,459.7574566999974,460.1226553000015,460.9221476000093,460.9065282000083,,,,,,,,,,,,,,,,,,,,,,,,,,,,,,,,,,,460.91060319999815,460.9221476000093,460.9221476000093,461.5904053999984,b,1.0,0.6515332999988459,,,,,,sub-003,1,stroop_test,51.866116957156,
,,,,94.0,10.0,7.0,,,,,,,,,,,,,rot,red,r,1.0,r,1.0,0.6225694000022486,,,,,,,,,,7.0,10.0,94.0,0.0,461.60551210001,,,,,,,,,,,,,,,,,461.5908790000103,462.4054610000021,463.2058087000041,463.1897248000023,,,,,,,,,,,,,,,,,,,,,,,,,,,,,,,,,,,463.193589100003,463.2058087000041,463.2058087000041,463.8397536999983,r,1.0,0.6225694000022486,,,,,,sub-003,1,stroop_test,51.866116957156,
,,,,95.0,11.0,7.0,,,,,,,,,,,,,gelb,red,r,0.0,r,1.0,0.7250522999966051,,,,,,,,,,7.0,11.0,95.0,8.0,463.8556045000005,,,,,,,,,,,,,,,,,463.8401952999993,465.0550141999993,465.85452940000687,465.8389537000039,,,,,,,,,,,,,,,,,,,,,,,,,,,,,,,,,,,465.8431285999977,465.85452940000687,465.85452940000687,466.5892322,r,1.0,0.7250522999966051,,,,,,sub-003,1,stroop_test,51.866116957156,
,,,,96.0,0.0,8.0,,,,,,,,,,,,,rot,red,r,1.0,r,1.0,0.7112087999994401,,,,,,,,,,8.0,0.0,96.0,1.0,466.6047698000039,,,,,,,,,,,,,,,,,466.5896778000024,466.9546250999993,467.7555323999986,467.7392427000013,,,,,,,,,,,,,,,,,,,,,,,,,,,,,,,,,,,467.7438888000033,467.7555323999986,467.7555323999986,468.4733205000084,r,1.0,0.7112087999994401,,,,,,sub-003,1,stroop_test,51.866116957156,
,,,,97.0,1.0,8.0,,,,,,,,,,,,,rot,yellow,g,0.0,g,1.0,0.9648224999982632,,,,,,,,,,8.0,1.0,97.0,3.0,468.4876804000087,,,,,,,,,,,,,,,,,468.47379940000246,469.2879847000004,470.08722640000633,470.07185340000433,,,,,,,,,,,,,,,,,,,,,,,,,,,,,,,,,,,470.07251160001033,470.08722640000633,470.08722640000633,471.0557598000014,g,1.0,0.9648224999982632,,,,,,sub-003,1,stroop_test,51.866116957156,
,,,,98.0,2.0,8.0,,,,,,,,,,,,,blau,red,r,0.0,r,1.0,0.6517842000030214,,,,,,,,,,8.0,2.0,98.0,4.0,471.070523500006,,,,,,,,,,,,,,,,,471.0562069000007,471.4201627000002,472.2205348999996,472.2047969999985,,,,,,,,,,,,,,,,,,,,,,,,,,,,,,,,,,,472.20891760000086,472.2205348999996,472.2205348999996,472.8886158000096,r,1.0,0.6517842000030214,,,,,,sub-003,1,stroop_test,51.866116957156,
,,,,99.0,3.0,8.0,,,,,,,,,,,,,gelb,red,r,0.0,r,1.0,0.860579999993206,,,,,,,,,,8.0,3.0,99.0,8.0,472.9033012,,,,,,,,,,,,,,,,,472.8890315000026,473.2535930000013,474.054577700008,474.0386430000072,,,,,,,,,,,,,,,,,,,,,,,,,,,,,,,,,,,474.042861599999,474.054577700008,474.054577700008,474.921462600003,r,1.0,0.860579999993206,,,,,,sub-003,1,stroop_test,51.866116957156,
,,,,100.0,4.0,8.0,,,,,,,,,,,,,rot,blue,b,0.0,b,1.0,0.8751972000027308,,,,,,,,,,8.0,4.0,100.0,2.0,474.93631810000807,,,,,,,,,,,,,,,,,474.92190349999873,475.2863582999999,476.0866227000079,476.07044969999697,,,,,,,,,,,,,,,,,,,,,,,,,,,,,,,,,,,476.0744993999979,476.0866227000079,476.0866227000079,476.97131290000107,b,1.0,0.8751972000027308,,,,,,sub-003,1,stroop_test,51.866116957156,
,,,,101.0,5.0,8.0,,,,,,,,,,,,,rot,red,r,1.0,r,1.0,0.6735787999932654,,,,,,,,,,8.0,5.0,101.0,0.0,476.98611530000926,,,,,,,,,,,,,,,,,476.9717697000015,477.7865162000089,478.58616469999833,478.570404099999,,,,,,,,,,,,,,,,,,,,,,,,,,,,,,,,,,,478.5709727000067,478.58616469999833,478.58616469999833,479.2700088999991,r,1.0,0.6735787999932654,,,,,,sub-003,1,stroop_test,51.866116957156,
,,,,102.0,6.0,8.0,,,,,,,,,,,,,blau,yellow,g,0.0,g,1.0,0.5879430000059074,,,,,,,,,,8.0,6.0,102.0,7.0,479.2860071000032,,,,,,,,,,,,,,,,,479.2704520999978,480.4704139000096,481.2864035000093,481.27033610000217,,,,,,,,,,,,,,,,,,,,,,,,,,,,,,,,,,,481.27451719999954,481.2864035000093,481.2864035000093,481.8866736000055,g,1.0,0.5879430000059074,,,,,,sub-003,1,stroop_test,51.866116957156,
,,,,103.0,7.0,8.0,,,,,,,,,,,,,gelb,yellow,g,1.0,g,1.0,0.8504274000006262,,,,,,,,,,8.0,7.0,103.0,11.0,481.9016561000026,,,,,,,,,,,,,,,,,481.8871236999985,482.2523415000032,483.0536909000075,483.0361915999965,,,,,,,,,,,,,,,,,,,,,,,,,,,,,,,,,,,483.0416971000086,483.0536909000075,483.0536909000075,483.91912839999713,g,1.0,0.8504274000006262,,,,,,sub-003,1,stroop_test,51.866116957156,
,,,,104.0,8.0,8.0,,,,,,,,,,,,,blau,blue,b,1.0,r,0.0,0.7908445000066422,,,,,,,,,,8.0,8.0,104.0,6.0,483.9350165000069,,,,,,,,,,,,,,,,,483.9195720999997,484.03648480000265,484.8511931000103,484.8353304000048,,,,,,,,,,,,,,,,,,,,,,,,,,,,,,,,,,,484.8394419999968,484.8511931000103,484.8511931000103,485.652156199998,r,0.0,0.7908445000066422,,,,,,sub-003,1,stroop_test,51.866116957156,
,,,,105.0,9.0,8.0,,,,,,,,,,,,,gelb,yellow,g,1.0,g,1.0,0.7996532000106527,,,,,,,,,,8.0,9.0,105.0,10.0,485.668124600008,,,,,,,,,,,,,,,,,485.65260050000506,485.75128389999736,486.5511381999968,486.53531010000734,,,,,,,,,,,,,,,,,,,,,,,,,,,,,,,,,,,486.53955770000175,486.5511381999968,486.5511381999968,487.3527124999964,g,1.0,0.7996532000106527,,,,,,sub-003,1,stroop_test,51.866116957156,
,,,,106.0,10.0,8.0,,,,,,,,,,,,,gelb,blue,b,0.0,b,1.0,0.736734099991736,,,,,,,,,,8.0,10.0,106.0,9.0,487.36872520000907,,,,,,,,,,,,,,,,,487.35313580000366,487.717788000009,488.5175562000077,488.5014986000024,,,,,,,,,,,,,,,,,,,,,,,,,,,,,,,,,,,488.5021027000039,488.5175562000077,488.5175562000077,489.26924360000703,b,1.0,0.736734099991736,,,,,,sub-003,1,stroop_test,51.866116957156,
,,,,107.0,11.0,8.0,,,,,,,,,,,,,blau,blue,b,1.0,b,1.0,0.6691947000072105,,,,,,,,,,8.0,11.0,107.0,5.0,489.284020799998,,,,,,,,,,,,,,,,,489.26967290000175,490.08347589999903,490.8833664999984,490.86766210000496,,,,,,,,,,,,,,,,,,,,,,,,,,,,,,,,,,,490.8717251000053,490.8833664999984,490.8833664999984,491.56878460000735,b,1.0,0.6691947000072105,,,,,,sub-003,1,stroop_test,51.866116957156,
,,,,108.0,0.0,9.0,,,,,,,,,,,,,blau,blue,b,1.0,b,1.0,0.5169383000029484,,,,,,,,,,9.0,0.0,108.0,6.0,491.583656200004,,,,,,,,,,,,,,,,,491.56923890000326,491.9336247000029,492.73345870000776,492.7173571000021,,,,,,,,,,,,,,,,,,,,,,,,,,,,,,,,,,,492.7179608000006,492.73345870000776,492.73345870000776,493.2677588000079,b,1.0,0.5169383000029484,,,,,,sub-003,1,stroop_test,51.866116957156,
,,,,109.0,1.0,9.0,,,,,,,,,,,,,blau,yellow,g,0.0,g,1.0,1.247083800000837,,,,,,,,,,9.0,1.0,109.0,7.0,493.2832510000008,,,,,,,,,,,,,,,,,493.2682111000031,494.4828878999979,495.2833093000081,495.2673593000072,,,,,,,,,,,,,,,,,,,,,,,,,,,,,,,,,,,495.2679755999998,495.2833093000081,495.2833093000081,496.53459579999617,g,1.0,1.247083800000837,,,,,,sub-003,1,stroop_test,51.866116957156,
,,,,110.0,2.0,9.0,,,,,,,,,,,,,gelb,red,r,0.0,r,1.0,1.124768599998788,,,,,,,,,,9.0,2.0,110.0,8.0,496.5493429000053,,,,,,,,,,,,,,,,,496.5350577000063,497.3490984000091,498.14933430000383,498.1330190000008,,,,,,,,,,,,,,,,,,,,,,,,,,,,,,,,,,,498.13713370000187,498.14933430000383,498.14933430000383,499.283500000005,r,1.0,1.124768599998788,,,,,,sub-003,1,stroop_test,51.866116957156,
,,,,111.0,3.0,9.0,,,,,,,,,,,,,blau,blue,b,1.0,b,1.0,0.9151942000025884,,,,,,,,,,9.0,3.0,111.0,5.0,499.2984818999976,,,,,,,,,,,,,,,,,499.2839570000069,500.0986182000052,500.898878699998,500.882499600004,,,,,,,,,,,,,,,,,,,,,,,,,,,,,,,,,,,500.8870696000085,500.898878699998,500.898878699998,501.8172026000102,b,1.0,0.9151942000025884,,,,,,sub-003,1,stroop_test,51.866116957156,
,,,,112.0,4.0,9.0,,,,,,,,,,,,,gelb,yellow,g,1.0,g,1.0,0.7476217000075849,,,,,,,,,,9.0,4.0,112.0,10.0,501.8320131000073,,,,,,,,,,,,,,,,,501.8176658000011,502.18132160000096,502.9819458999991,502.96631660001,,,,,,,,,,,,,,,,,,,,,,,,,,,,,,,,,,,502.97038070000417,502.9819458999991,502.9819458999991,503.73313880000205,g,1.0,0.7476217000075849,,,,,,sub-003,1,stroop_test,51.866116957156,
,,,,113.0,5.0,9.0,,,,,,,,,,,,,blau,red,r,0.0,r,1.0,0.9668229999952018,,,,,,,,,,9.0,5.0,113.0,4.0,503.747899199996,,,,,,,,,,,,,,,,,503.7336236999981,504.0983513999963,504.8979914000083,504.8818181000097,,,,,,,,,,,,,,,,,,,,,,,,,,,,,,,,,,,504.8858810000093,504.8979914000083,504.8979914000083,505.8661054999975,r,1.0,0.9668229999952018,,,,,,sub-003,1,stroop_test,51.866116957156,
,,,,114.0,6.0,9.0,,,,,,,,,,,,,gelb,yellow,g,1.0,g,1.0,0.8260898000007728,,,,,,,,,,9.0,6.0,114.0,11.0,505.8808907000057,,,,,,,,,,,,,,,,,505.86655820001033,505.98077910000575,506.7807629000017,506.7650360999978,,,,,,,,,,,,,,,,,,,,,,,,,,,,,,,,,,,506.7691589000024,506.7807629000017,506.7807629000017,507.6156553000037,g,1.0,0.8260898000007728,,,,,,sub-003,1,stroop_test,51.866116957156,
,,,,115.0,7.0,9.0,,,,,,,,,,,,,gelb,blue,b,0.0,b,1.0,0.7139740999991773,,,,,,,,,,9.0,7.0,115.0,9.0,507.63070799999696,,,,,,,,,,,,,,,,,507.616128499998,508.83089320000727,509.6304757000034,509.6144289000076,,,,,,,,,,,,,,,,,,,,,,,,,,,,,,,,,,,509.6150522000098,509.6304757000034,509.6304757000034,510.3488295999996,b,1.0,0.7139740999991773,,,,,,sub-003,1,stroop_test,51.866116957156,
,,,,116.0,8.0,9.0,,,,,,,,,,,,,rot,red,r,1.0,r,1.0,1.0912951000063913,,,,,,,,,,9.0,8.0,116.0,0.0,510.3632753999991,,,,,,,,,,,,,,,,,510.3492727999983,510.71350569999777,511.5133104999986,511.497904600008,,,,,,,,,,,,,,,,,,,,,,,,,,,,,,,,,,,511.50175890000537,511.5133104999986,511.5133104999986,512.6141401000059,r,1.0,1.0912951000063913,,,,,,sub-003,1,stroop_test,51.866116957156,
,,,,117.0,9.0,9.0,,,,,,,,,,,,,rot,red,r,1.0,r,1.0,0.7395920999988448,,,,,,,,,,9.0,9.0,117.0,1.0,512.6297484999959,,,,,,,,,,,,,,,,,512.6145883999998,513.8292619999993,514.6292656000005,514.6135730000096,,,,,,,,,,,,,,,,,,,,,,,,,,,,,,,,,,,514.6141407999967,514.6292656000005,514.6292656000005,515.3805439999996,r,1.0,0.7395920999988448,,,,,,sub-003,1,stroop_test,51.866116957156,
,,,,118.0,10.0,9.0,,,,,,,,,,,,,rot,blue,b,0.0,b,1.0,0.8732236999931047,,,,,,,,,,9.0,10.0,118.0,2.0,515.3963328999962,,,,,,,,,,,,,,,,,515.3809890999983,515.4789770000061,516.2793478000094,516.2636662000004,,,,,,,,,,,,,,,,,,,,,,,,,,,,,,,,,,,516.264267599996,516.2793478000094,516.2793478000094,517.1633307000011,b,1.0,0.8732236999931047,,,,,,sub-003,1,stroop_test,51.866116957156,
,,,,119.0,11.0,9.0,,,,,,,,,,,,,rot,yellow,g,0.0,g,1.0,0.7856578000064474,,,,,,,,,,9.0,11.0,119.0,3.0,517.1793309000059,,,,,,,,,,,,,,,,,517.1637809000094,517.278599600002,518.0788423000049,518.0635098000057,,,,,,,,,,,,,,,,,,,,,,,,,,,,,,,,,,,518.0641438000021,518.0788423000049,518.0788423000049,518.8797092000023,g,1.0,0.7856578000064474,,,,,,sub-003,1,stroop_test,51.866116957156,
,,,,,,,,,,,,,,,,,,,,,,,,,,,,,,,,,,,,,,,,,,,,,,,,,,,,,,,,,,,,,,,,,,,,,,,,,,,,,,,,,,,,,,,,,,,,,,,,,,,,,,518.8799255000049,518.8953553000028,523.8950438000029,523.8786744000099,sub-003,1,stroop_test,51.866116957156,
