direction,corrAns,randomInstr,practice_trials.thisRepN,practice_trials.thisTrialN,practice_trials.thisN,practice_trials.thisIndex,instr_trials.thisRepN,instr_trials.thisTrialN,instr_trials.thisN,instr_trials.thisIndex,test_trials.thisRepN,test_trials.thisTrialN,test_trials.thisN,test_trials.thisIndex,thisRow.t,notes,general_instruction.started,textGeneralInstr.started,respGeneralInstr.started,general_instruction.stopped,respGeneralInstr.keys,respGeneralInstr.rt,respGeneralInstr.duration,ITI.started,fixcross.started,fixcross.stopped,ITI.stopped,dots.started,backgroundDots.started,stimulusDots.started,respDots.started,dots.stopped,respDots.keys,respDots.corr,respDots.rt,respDots.duration,feedback.started,textFeedback.started,feedback.stopped,textFeedback.stopped,info.started,textInfo.started,keyRespInfo.started,info.stopped,keyRespInfo.keys,keyRespInfo.rt,keyRespInfo.duration,test_instruction.started,textTestInstr.started,respTestInstr.started,test_instruction.stopped,respTestInstr.keys,respTestInstr.rt,respTestInstr.duration,random_instruction.started,textRandomInstr.started,respRandomInstr.started,random_instruction.stopped,respRandomInstr.keys,respRandomInstr.rt,respRandomInstr.duration,goodbye.started,textGoodbye.started,goodbye.stopped,participant,session,expName,frameRate,Unnamed: 72
,,,,,,,,,,,,,,,,,0.0058913999819196,0.0155207999632693,0.0155207999632693,9.954283599974588,space,35.40782500006026,,,,,,,,,,,,,,,,,,,,,,,,,,,,,,,,,,,,,,,,,,,sub-105,2.0,random_dot,59.96231967062373,
left,left,,0.0,0.0,0.0,0.0,,,,,,,,,9.994282499945257,,,,,,,,,9.98770069994498,10.067240799951833,10.89415739994729,10.868132599978708,10.86819489998743,10.89415739994729,10.89415739994729,10.89415739994729,12.418166899995413,left,1.0,26.97946120006964,,12.423121100000571,12.44638339994708,12.931201299943496,,,,,,,,,,,,,,,,,,,,,,,,,,sub-105,2.0,random_dot,59.96231967062373,
right,right,,0.0,1.0,1.0,1.0,,,,,,,,,12.94759829994291,,,,,,,,,12.932282499969006,13.730464199965354,14.530619299970567,14.514406999980563,14.514468999987002,14.530619299970567,14.530619299970567,14.530619299970567,15.264373599959072,right,1.0,26.20095300010871,,15.265244799957143,15.278904899954796,15.76363359997049,15.7786321999738,,,,,,,,,,,,,,,,,,,,,,,,,sub-105,2.0,random_dot,59.96231967062373,
right,right,,1.0,0.0,2.0,1.0,,,,,,,,,15.7786321999738,,,,,,,,,15.764833199966231,16.97768339997856,17.794343599991407,17.778309499961324,17.77837359998375,17.794343599991407,17.794343599991407,17.794343599991407,18.59571829997003,right,1.0,26.25885790004395,,18.59728869999526,18.609240599966142,19.093541699985508,19.10882699996,,,,,,,,,,,,,,,,,,,,,,,,,sub-105,2.0,random_dot,59.96231967062373,
left,left,,1.0,1.0,3.0,0.0,,,,,,,,,19.10882699996,,,,,,,,,19.09470129996771,19.20888609997928,20.008929099945817,19.992855299962685,19.99291649996303,20.008929099945817,20.008929099945817,20.008929099945817,21.06029419996776,right,0.0,26.507680700044148,,21.0619928999804,21.080635399965104,21.573272499954328,,,,,,,,,,,,,,,,,,,,,,,,,,sub-105,2.0,random_dot,59.96231967062373,
right,right,,2.0,0.0,4.0,1.0,,,,,,,,,21.58962949999841,,,,,,,,,21.57444829994347,21.67298509995453,22.47322799998801,22.45719429996097,22.4572583999834,22.47322799998801,22.47322799998801,22.47322799998801,24.38992629997665,left,0.0,27.38065660005668,,24.391265099984597,24.403335299983155,24.88705389999086,24.90277019998757,,,,,,,,,,,,,,,,,,,,,,,,,sub-105,2.0,random_dot,59.96231967062373,
left,left,,2.0,1.0,5.0,0.0,,,,,,,,,24.90277019998757,,,,,,,,,24.887690699950326,25.252444999990985,26.052859199990053,26.036084999970623,26.03611569997156,26.052859199990053,26.052859199990053,26.052859199990053,26.971553699986544,left,1.0,26.389413800032344,,26.973085399949923,26.988161999965087,27.48460639995756,,,,,,,,,,,,,,,,,,,,,,,,,,sub-105,2.0,random_dot,59.96231967062373,
right,right,,3.0,0.0,6.0,1.0,,,,,,,,,27.500907899986487,,,,,,,,,27.48565329995472,27.584372899960726,28.40099619998364,28.385019799985457,28.38508009997895,28.40099619998364,28.40099619998364,28.40099619998364,29.46899149997625,right,1.0,26.527355500031263,,29.470450899971183,29.482404899958052,29.966714899986982,29.981860199943185,,,,,,,,,,,,,,,,,,,,,,,,,sub-105,2.0,random_dot,59.96231967062373,
left,left,,3.0,1.0,7.0,0.0,,,,,,,,,29.981860199943185,,,,,,,,,29.967903599957936,30.78108689998044,31.58118869998725,31.56507699994836,31.56513909995556,31.58118869998725,31.58118869998725,31.58118869998725,32.80047639994882,left,1.0,26.68936590006342,,32.802228799962904,32.812430099991616,33.297017199976835,33.31224499997916,,,,,,,,,,,,,,,,,,,,,,,,,sub-105,2.0,random_dot,59.96231967062373,
right,right,,4.0,0.0,8.0,1.0,,,,,,,,,33.31224499997916,,,,,,,,,33.298178099968936,34.51104909996502,35.327977299981285,35.3115584999905,35.311623099958524,35.327977299981285,35.327977299981285,35.327977299981285,37.17858739994699,right,1.0,27.30726930004312,,37.18015839997679,37.19184549996862,37.6762316999957,37.69117239996558,,,,,,,,,,,,,,,,,,,,,,,,,sub-105,2.0,random_dot,59.96231967062373,
left,left,,4.0,1.0,9.0,0.0,,,,,,,,,37.69117239996558,,,,,,,,,37.677384399983566,38.041160099965055,38.84117529995274,38.825258899945766,38.82532189995982,38.84117529995274,38.84117529995274,38.84117529995274,40.44074239995098,left,1.0,27.062263400061056,,40.44163529999787,40.45526569994399,40.93968229996972,40.9547960999771,,,,,,,,,,,,,,,,,,,,,,,,,sub-105,2.0,random_dot,59.96231967062373,
left,left,,5.0,0.0,10.0,0.0,,,,,,,,,40.9547960999771,,,,,,,,,40.94087629998103,41.054914099979214,41.85519509995356,41.83932579995599,41.83939029998146,41.85519509995356,41.85519509995356,41.85519509995356,42.58978959999513,right,0.0,26.195130400068592,,42.59128029999556,42.604620899946894,43.10315199999605,,,,,,,,,,,,,,,,,,,,,,,,,,sub-105,2.0,random_dot,59.96231967062373,
right,right,,5.0,1.0,11.0,1.0,,,,,,,,,43.11951329995645,,,,,,,,,43.104331099952105,44.30186389997834,45.10204039997189,45.08584909996716,45.08591029996751,45.10204039997189,45.10204039997189,45.10204039997189,45.770747799950186,right,1.0,26.135418400052004,,45.77241719997255,45.78894999995828,46.2834413999808,,,,,,,,,,,,,,,,,,,,,,,,,,sub-105,2.0,random_dot,59.96231967062373,
left,left,,6.0,0.0,12.0,0.0,,,,,,,,,46.29992889997084,,,,,,,,,46.28449269995326,47.482354999985546,48.28258009999991,48.26649479998741,48.266557099996135,48.28258009999991,48.28258009999991,48.28258009999991,49.667124399973545,left,1.0,26.851715700060595,,49.66861949994927,49.679967599979136,50.1647594999522,50.17969299998367,,,,,,,,,,,,,,,,,,,,,,,,,sub-105,2.0,random_dot,59.96231967062373,
right,right,,6.0,1.0,13.0,1.0,,,,,,,,,50.17969299998367,,,,,,,,,50.16589519998524,50.5295498999767,51.346321999968495,51.3300123999943,51.33007349999389,51.346321999968495,51.346321999968495,51.346321999968495,52.16467829997418,right,1.0,26.27924350003013,,52.16614749998553,52.17763289995492,52.66185239999322,52.677369299985,,,,,,,,,,,,,,,,,,,,,,,,,sub-105,2.0,random_dot,59.96231967062373,
right,right,,7.0,0.0,14.0,1.0,,,,,,,,,52.677369299985,,,,,,,,,52.66289129998768,53.47671769995941,54.29342469997937,54.27708829997573,54.27714429999469,54.29342469997937,54.29342469997937,54.29342469997937,55.31125549995341,left,0.0,26.480687500094064,,55.31272969994461,55.32834509998793,55.824660299986135,,,,,,,,,,,,,,,,,,,,,,,,,,sub-105,2.0,random_dot,59.96231967062373,
left,left,,7.0,1.0,15.0,0.0,,,,,,,,,55.8408664999879,,,,,,,,,55.82588019996183,56.62362429994391,57.42396829999052,57.407831399992574,57.40789259999292,57.42396829999052,57.42396829999052,57.42396829999052,59.05858539999463,left,1.0,27.10547060007229,,59.060100099944975,59.07505539996782,59.57125179999275,,,,,,,,,,,,,,,,,,,,,,,,,,sub-105,2.0,random_dot,59.96231967062373,
left,left,,8.0,0.0,16.0,0.0,,,,,,,,,59.58731899998384,,,,,,,,,59.57228739996208,60.76976109994576,61.56982869998319,61.55396229994949,61.5540240999544,61.56982869998319,61.56982869998319,61.56982869998319,62.25540719996207,right,0.0,26.14596050005639,,62.257097899972,62.27242559997831,62.768063799943775,,,,,,,,,,,,,,,,,,,,,,,,,,sub-105,2.0,random_dot,59.96231967062373,
right,right,,8.0,1.0,17.0,1.0,,,,,,,,,62.78434559999732,,,,,,,,,62.76907999999821,62.86779839999508,63.66802029998507,63.65195869997842,63.65203409997048,63.66802029998507,63.66802029998507,63.66802029998507,64.40363769995747,right,1.0,26.2042127000168,,64.40508969995426,64.41967119998299,64.91609139996581,,,,,,,,,,,,,,,,,,,,,,,,,,sub-105,2.0,random_dot,59.96231967062373,
left,left,,9.0,0.0,18.0,0.0,,,,,,,,,64.93264209997142,,,,,,,,,64.91726739995647,66.11462529998971,66.91510959999869,66.89885409997078,66.89891649998026,66.91510959999869,66.91510959999869,66.91510959999869,67.75036939996062,left,1.0,26.30227470007958,,67.75201989995549,67.76321249996545,68.24754739995115,68.26273709995439,,,,,,,,,,,,,,,,,,,,,,,,,sub-105,2.0,random_dot,59.96231967062373,
right,right,,9.0,1.0,19.0,1.0,,,,,,,,,68.26273709995439,,,,,,,,,68.24873349996051,68.61239969998132,69.41249509999761,69.39670749998186,69.39676989999134,69.41249509999761,69.41249509999761,69.41249509999761,70.24844439997105,right,1.0,26.30645480006933,,70.25011999998242,70.26077129994519,70.74520799994934,70.76073769998038,,,,,,,,,,,,,,,,,,,,,,,,,sub-105,2.0,random_dot,59.96231967062373,
,,,,,,,,,,,,,,,,,,,,,,,,,,,,,,,,,,,,,,,,,70.74539909994928,70.76073769998038,70.76073769998038,73.87667889997829,space,28.572674000053667,,,,,,,,,,,,,,,,,,,sub-105,2.0,random_dot,59.96231967062373,
,,,,,,,,,,,,,,,,,,,,,,,,,,,,,,,,,,,,,,,,,,,,,,,,73.87676489999285,73.89129859994864,73.89129859994864,76.72435179998865,space,28.29469540005084,,,,,,,,,,,,sub-105,2.0,random_dot,59.96231967062373,
left,left,speed,,,,,0.0,0.0,0.0,1.0,0.0,0.0,0.0,0.0,77.99763829994481,,,,,,,,,77.99324349995004,78.78649259998929,79.60281019995455,79.58587089995854,79.58590269996785,79.60281019995455,79.60281019995455,79.60281019995455,80.4199797999463,left,1.0,26.27882790006697,,,,,,,,,,,,,,,,,,,,76.73613529995782,76.77039559994591,76.77039559994591,77.97341649996815,space,26.672518300067168,,,,,sub-105,2.0,random_dot,59.96231967062373,
right,right,speed,,,,,0.0,0.0,0.0,1.0,0.0,1.0,1.0,1.0,80.43420219997643,,,,,,,,,80.42216569994343,80.53419189999113,81.33460419997573,81.31851239997195,81.3185660999734,81.33460419997573,81.33460419997573,81.33460419997573,82.06981179997092,right,1.0,26.19145630003186,,,,,,,,,,,,,,,,,,,,,,,,,,,,,,sub-105,2.0,random_dot,59.96231967062373,
left,left,speed,,,,,0.0,0.0,0.0,1.0,1.0,0.0,2.0,0.0,82.0831936999457,,,,,,,,,82.0727364999475,82.18287259998033,82.98327659995994,82.96736079995753,82.96742189995712,82.98327659995994,82.98327659995994,82.98327659995994,83.66840899997624,left,1.0,26.14967120008077,,,,,,,,,,,,,,,,,,,,,,,,,,,,,,sub-105,2.0,random_dot,59.96231967062373,
right,right,speed,,,,,0.0,0.0,0.0,1.0,1.0,1.0,3.0,1.0,83.6816656999872,,,,,,,,,83.67139759997372,84.48113679996459,85.29779099998996,85.2819156999467,85.28197779995389,85.29779099998996,85.29779099998996,85.29779099998996,85.8667610999546,right,1.0,26.02900200005388,,,,,,,,,,,,,,,,,,,,,,,,,,,,,,sub-105,2.0,random_dot,59.96231967062373,
left,left,speed,,,,,0.0,0.0,0.0,1.0,2.0,0.0,4.0,0.0,85.87947449996136,,,,,,,,,85.8700062999851,85.9794591999962,86.77991189999739,86.7637807999854,86.76384729996789,86.77991189999739,86.77991189999739,86.77991189999739,87.9646972999908,left,1.0,26.6497635000851,,,,,,,,,,,,,,,,,,,,,,,,,,,,,,sub-105,2.0,random_dot,59.96231967062373,
right,right,speed,,,,,0.0,0.0,0.0,1.0,2.0,1.0,5.0,1.0,87.97743349999655,,,,,,,,,87.96752719994402,89.17667159996927,89.97661369998241,89.96099279995542,89.96107039996423,89.97661369998241,89.97661369998241,89.97661369998241,90.6941049999441,right,1.0,26.17966400005389,,,,,,,,,,,,,,,,,,,,,,,,,,,,,,sub-105,2.0,random_dot,59.96231967062373,
left,left,speed,,,,,0.0,0.0,0.0,1.0,3.0,0.0,6.0,0.0,90.70835879998047,,,,,,,,,90.69625029998132,91.05843449995156,91.85843569994904,91.84234649996506,91.8424247999792,91.85843569994904,91.85843569994904,91.85843569994904,93.16024809994268,left,1.0,26.77207680005813,,,,,,,,,,,,,,,,,,,,,,,,,,,,,,sub-105,2.0,random_dot,59.96231967062373,
right,right,speed,,,,,0.0,0.0,0.0,1.0,3.0,1.0,7.0,1.0,93.17290959996171,,,,,,,,,93.1636510999524,93.52240629994776,94.32250359997852,94.30644699995172,94.30650829995284,94.32250359997852,94.32250359997852,94.32250359997852,95.42418429994724,left,0.0,26.57031730003655,,,,,,,,,,,,,,,,,,,,,,,,,,,,,,sub-105,2.0,random_dot,59.96231967062373,
left,left,speed,,,,,0.0,0.0,0.0,1.0,4.0,0.0,8.0,0.0,95.43712569994386,,,,,,,,,95.42714309995064,96.63644309999654,97.45295409997924,97.43701689998852,97.43708309996872,97.45295409997924,97.45295409997924,97.45295409997924,98.13826829998288,left,1.0,26.14692870003637,,,,,,,,,,,,,,,,,,,,,,,,,,,,,,sub-105,2.0,random_dot,59.96231967062373,
right,right,speed,,,,,0.0,0.0,0.0,1.0,4.0,1.0,9.0,1.0,98.1514725999441,,,,,,,,,98.14165439998033,98.95082319999348,99.75087219994748,99.73480509995716,99.73486819997196,99.75087219994748,99.75087219994748,99.75087219994748,100.3028603999992,right,1.0,26.01140810007928,,,,,,,,,,,,,,,,,,,,,,,,,,,,,,sub-105,2.0,random_dot,59.96231967062373,
right,right,speed,,,,,0.0,0.0,0.0,1.0,5.0,0.0,10.0,1.0,100.31619039998624,,,,,,,,,100.30628219997745,100.66579319996526,101.4658584999852,101.45002399996156,101.45011369994609,101.4658584999852,101.4658584999852,101.4658584999852,102.95015389996117,right,1.0,26.94640930008609,,,,,,,,,,,,,,,,,,,,,,,,,,,,,,sub-105,2.0,random_dot,59.96231967062373,
left,left,speed,,,,,0.0,0.0,0.0,1.0,5.0,1.0,11.0,0.0,102.96359139995184,,,,,,,,,102.95302169997012,104.16245039994828,104.96270689996892,104.94648619997317,104.94654909998644,104.96270689996892,104.96270689996892,104.96270689996892,105.6313281999901,left,1.0,26.13350800005719,,,,,,,,,,,,,,,,,,,,,,,,,,,,,,sub-105,2.0,random_dot,59.96231967062373,
left,left,speed,,,,,0.0,0.0,0.0,1.0,6.0,0.0,12.0,0.0,105.64450939995004,,,,,,,,,105.63469779997833,106.843489699997,107.65971989999524,107.64290449995316,107.6429374999716,107.65971989999524,107.65971989999524,107.65971989999524,108.92862519994378,left,1.0,26.72557810001308,,,,,,,,,,,,,,,,,,,,,,,,,,,,,,sub-105,2.0,random_dot,59.96231967062373,
right,right,speed,,,,,0.0,0.0,0.0,1.0,6.0,1.0,13.0,1.0,108.94155879999744,,,,,,,,,108.93187749997014,110.14032559999032,110.94033269997452,110.92423710000004,110.92429919994902,110.94033269997452,110.94033269997452,110.94033269997452,111.62609929998872,right,1.0,26.14076690003276,,,,,,,,,,,,,,,,,,,,,,,,,,,,,,sub-105,2.0,random_dot,59.96231967062373,
right,right,speed,,,,,0.0,0.0,0.0,1.0,7.0,0.0,14.0,1.0,111.63875249994452,,,,,,,,,111.6293232999742,111.98867719998816,112.78862999996636,112.77280059998157,112.77286099997582,112.78862999996636,112.78862999996636,112.78862999996636,113.79046509996988,left,0.0,26.470142400066837,,,,,,,,,,,,,,,,,,,,,,,,,,,,,,sub-105,2.0,random_dot,59.96231967062373,
left,left,speed,,,,,0.0,0.0,0.0,1.0,7.0,1.0,15.0,0.0,113.80369209998752,,,,,,,,,113.7937130999635,114.60291619994678,115.4031268999679,115.38716899999416,115.38723119994393,115.4031268999679,115.4031268999679,115.4031268999679,116.33792069996709,left,1.0,26.39278060005745,,,,,,,,,,,,,,,,,,,,,,,,,,,,,,sub-105,2.0,random_dot,59.96231967062373,
left,left,speed,,,,,0.0,0.0,0.0,1.0,8.0,0.0,16.0,0.0,116.3509927999694,,,,,,,,,116.34115939994808,117.54991159995552,118.34997359995032,118.33311929996124,118.33315199997742,118.34997359995032,118.34997359995032,118.34997359995032,119.70044629997574,right,0.0,26.818293200049084,,,,,,,,,,,,,,,,,,,,,,,,,,,,,,sub-105,2.0,random_dot,59.96231967062373,
right,right,speed,,,,,0.0,0.0,0.0,1.0,8.0,1.0,17.0,1.0,119.71440949995304,,,,,,,,,119.70258099999046,120.51393669995014,121.31398189999165,121.29810529999668,121.2981654999894,121.31398189999165,121.31398189999165,121.31398189999165,122.41451409994625,right,1.0,26.568938300013546,,,,,,,,,,,,,,,,,,,,,,,,,,,,,,sub-105,2.0,random_dot,59.96231967062373,
left,left,speed,,,,,0.0,0.0,0.0,1.0,9.0,0.0,18.0,0.0,122.42854359996272,,,,,,,,,122.41628809995018,123.62715909996768,124.42779899999732,124.4107781999628,124.41080879996298,124.42779899999732,124.42779899999732,124.42779899999732,125.27793839998776,left,1.0,26.31536580005195,,,,,,,,,,,,,,,,,,,,,,,,,,,,,,sub-105,2.0,random_dot,59.96231967062373,
right,right,speed,,,,,0.0,0.0,0.0,1.0,9.0,1.0,19.0,1.0,125.29220219998388,,,,,,,,,125.27879729995038,125.64204519998748,126.4428131999448,126.42659429996274,126.42666829994414,126.4428131999448,126.4428131999448,126.4428131999448,127.16122539999196,right,1.0,26.17619140003808,,,,,,,,,,,,,,,,,,,,,,,,,,,,,,sub-105,2.0,random_dot,59.96231967062373,
right,right,speed,,,,,0.0,0.0,0.0,1.0,10.0,0.0,20.0,1.0,127.17427489999682,,,,,,,,,127.16449489997468,127.9736380999675,128.77365679998184,128.7575780999614,128.75764039997011,128.77365679998184,128.77365679998184,128.77365679998184,129.8420609999448,left,0.0,26.53766580001684,,,,,,,,,,,,,,,,,,,,,,,,,,,,,,sub-105,2.0,random_dot,59.96231967062373,
left,left,speed,,,,,0.0,0.0,0.0,1.0,10.0,1.0,21.0,0.0,129.855215699994,,,,,,,,,129.84530219994485,131.0541632999666,131.85414219996892,131.8379958999576,131.8380566999549,131.85414219996892,131.85414219996892,131.85414219996892,132.95541149994824,left,1.0,26.558368600031827,,,,,,,,,,,,,,,,,,,,,,,,,,,,,,sub-105,2.0,random_dot,59.96231967062373,
left,left,speed,,,,,0.0,0.0,0.0,1.0,11.0,0.0,22.0,0.0,132.96880109998165,,,,,,,,,132.95839849999174,133.06865569995716,133.8689361999859,133.85261789994547,133.85267209995072,133.8689361999859,133.8689361999859,133.8689361999859,136.16788409999572,left,1.0,27.75557070004288,,,,,,,,,,,,,,,,,,,,,,,,,,,,,,sub-105,2.0,random_dot,59.96231967062373,
right,right,speed,,,,,0.0,0.0,0.0,1.0,11.0,1.0,23.0,1.0,136.18220819998533,,,,,,,,,136.16965159995016,136.2823376999586,137.08255009999266,137.06668399996124,137.06674589996692,137.08255009999266,137.08255009999266,137.08255009999266,138.59990419994574,right,1.0,26.98676250007702,,,,,,,,,,,,,,,,,,,,,,,,,,,,,,sub-105,2.0,random_dot,59.96231967062373,
left,left,speed,,,,,0.0,0.0,0.0,1.0,12.0,0.0,24.0,0.0,138.61351919994922,,,,,,,,,138.60277769999811,138.96345919999294,139.78016609995393,139.7641313999775,139.7641975999577,139.78016609995393,139.78016609995393,139.78016609995393,140.44878549996065,left,1.0,26.13210040004924,,,,,,,,,,,,,,,,,,,,,,,,,,,,,,sub-105,2.0,random_dot,59.96231967062373,
right,right,speed,,,,,0.0,0.0,0.0,1.0,12.0,1.0,25.0,1.0,140.46181699994486,,,,,,,,,140.451733599999,140.56195179995848,141.37850769999204,141.36246669996763,141.3625285999733,141.37850769999204,141.37850769999204,141.37850769999204,142.5131512999651,right,1.0,26.591901700012382,,,,,,,,,,,,,,,,,,,,,,,,,,,,,,sub-105,2.0,random_dot,59.96231967062373,
left,left,speed,,,,,0.0,0.0,0.0,1.0,13.0,0.0,26.0,0.0,142.52668699994683,,,,,,,,,142.51627769996412,143.32584179996047,144.12594309996348,144.1101733999676,144.11023439996643,144.12594309996348,144.12594309996348,144.12594309996348,144.92823569994653,left,1.0,26.27072980004596,,,,,,,,,,,,,,,,,,,,,,,,,,,,,,sub-105,2.0,random_dot,59.96231967062373,
right,right,speed,,,,,0.0,0.0,0.0,1.0,13.0,1.0,27.0,1.0,144.94086699996842,,,,,,,,,144.9314542999491,146.13942339998903,146.94024099997478,146.9238717999542,146.92393199994694,146.94024099997478,146.94024099997478,146.94024099997478,148.0252782999887,right,1.0,26.553270900039934,,,,,,,,,,,,,,,,,,,,,,,,,,,,,,sub-105,2.0,random_dot,59.96231967062373,
right,right,speed,,,,,0.0,0.0,0.0,1.0,14.0,0.0,28.0,1.0,148.0380497999722,,,,,,,,,148.02851739997277,148.83742859994527,149.63765059999423,149.62154349999037,149.6216142999474,149.63765059999423,149.63765059999423,149.63765059999423,151.15586409997195,right,1.0,26.986385900061578,,,,,,,,,,,,,,,,,,,,,,,,,,,,,,sub-105,2.0,random_dot,59.96231967062373,
left,left,speed,,,,,0.0,0.0,0.0,1.0,14.0,1.0,29.0,0.0,151.16858299996238,,,,,,,,,151.15937689994462,151.96780749998288,152.76814639999066,152.75192819995573,152.7519913999713,152.76814639999066,152.76814639999066,152.76814639999066,153.420064899954,left,1.0,26.110091600043237,,,,,,,,,,,,,,,,,,,,,,,,,,,,,,sub-105,2.0,random_dot,59.96231967062373,
left,left,speed,,,,,0.0,0.0,0.0,1.0,15.0,0.0,30.0,0.0,153.43321329995524,,,,,,,,,153.42342179996194,153.78309219999937,154.59919949999312,154.58248469996033,154.58251849998487,154.59919949999312,154.59919949999312,154.59919949999312,155.35127109999303,right,0.0,26.209001900046133,,,,,,,,,,,,,,,,,,,,,,,,,,,,,,sub-105,2.0,random_dot,59.96231967062373,
right,right,speed,,,,,0.0,0.0,0.0,1.0,15.0,1.0,31.0,1.0,155.3645279999473,,,,,,,,,155.35420109995175,155.7144126999774,156.51443009998184,156.49826889997348,156.4983236999833,156.51443009998184,156.51443009998184,156.51443009998184,157.51596149994293,right,1.0,26.46795800002292,,,,,,,,,,,,,,,,,,,,,,,,,,,,,,sub-105,2.0,random_dot,59.96231967062373,
left,left,speed,,,,,0.0,0.0,0.0,1.0,16.0,0.0,32.0,0.0,157.5290424999548,,,,,,,,,157.51889729994582,158.3288201999967,159.12892649997957,159.11285419994965,159.11291679996066,159.12892649997957,159.12892649997957,159.12892649997957,159.88086829998065,left,1.0,26.211905600095637,,,,,,,,,,,,,,,,,,,,,,,,,,,,,,sub-105,2.0,random_dot,59.96231967062373,
right,right,speed,,,,,0.0,0.0,0.0,1.0,16.0,1.0,33.0,1.0,159.89385789999506,,,,,,,,,159.8842072999687,161.0924956999952,161.89265629998408,161.87664789997507,161.87671049998607,161.89265629998408,161.89265629998408,161.89265629998408,162.627678299963,right,1.0,26.191963600052983,,,,,,,,,,,,,,,,,,,,,,,,,,,,,,sub-105,2.0,random_dot,59.96231967062373,
left,left,speed,,,,,0.0,0.0,0.0,1.0,17.0,0.0,34.0,0.0,162.64113319996977,,,,,,,,,162.63063929998316,162.7408366999589,163.54115859995363,163.5253243999905,163.5253864999977,163.54115859995363,163.54115859995363,163.54115859995363,164.35953089996474,left,1.0,26.274359600094613,,,,,,,,,,,,,,,,,,,,,,,,,,,,,,sub-105,2.0,random_dot,59.96231967062373,
right,right,speed,,,,,0.0,0.0,0.0,1.0,17.0,1.0,35.0,1.0,164.37264829996275,,,,,,,,,164.362763299956,165.1724384999834,165.98906319995876,165.97277099994244,165.97283509996487,165.98906319995876,165.98906319995876,165.98906319995876,166.5911243999726,right,1.0,26.05754720006371,,,,,,,,,,,,,,,,,,,,,,,,,,,,,,sub-105,2.0,random_dot,59.96231967062373,
right,right,speed,,,,,0.0,0.0,0.0,1.0,18.0,0.0,36.0,1.0,166.60401629999978,,,,,,,,,166.59435679996386,167.40325799997663,168.20359659998212,168.18747349997284,168.18753689998994,168.20359659998212,168.20359659998212,168.20359659998212,169.6864381999476,right,1.0,26.939188300049864,,,,,,,,,,,,,,,,,,,,,,,,,,,,,,sub-105,2.0,random_dot,59.96231967062373,
left,left,speed,,,,,0.0,0.0,0.0,1.0,18.0,1.0,37.0,0.0,169.70069359999616,,,,,,,,,169.688463999948,169.80068249994656,170.60146179998992,170.58529679995263,170.585368799977,170.60146179998992,170.60146179998992,170.60146179998992,171.3196640999522,left,1.0,26.185049800085835,,,,,,,,,,,,,,,,,,,,,,,,,,,,,,sub-105,2.0,random_dot,59.96231967062373,
right,right,speed,,,,,0.0,0.0,0.0,1.0,19.0,0.0,38.0,1.0,171.33283239998855,,,,,,,,,171.32250399998156,172.1322833999875,172.93235049996292,172.9163609999814,172.91641719994368,172.93235049996292,172.93235049996292,172.93235049996292,173.5350992999738,right,1.0,26.061311300029047,,,,,,,,,,,,,,,,,,,,,,,,,,,,,,sub-105,2.0,random_dot,59.96231967062373,
left,left,speed,,,,,0.0,0.0,0.0,1.0,19.0,1.0,39.0,0.0,173.54764969996177,,,,,,,,,173.53839659999358,174.34727109997766,175.16383179998957,175.14758969994728,175.14765159995295,175.16383179998957,175.16383179998957,175.16383179998957,175.69833279994782,left,1.0,26.00142660009442,,,,,,,,,,,,,,,,,,,,,,,,,,,,,,sub-105,2.0,random_dot,59.96231967062373,
right,right,speed,,,,,0.0,0.0,0.0,1.0,20.0,0.0,40.0,1.0,175.71189329994377,,,,,,,,,175.70049729995662,176.0622924999916,176.87856669997564,176.8627554999548,176.86282779998146,176.87856669997564,176.87856669997564,176.87856669997564,177.796978999977,right,1.0,26.383091900032014,,,,,,,,,,,,,,,,,,,,,,,,,,,,,,sub-105,2.0,random_dot,59.96231967062373,
left,left,speed,,,,,0.0,0.0,0.0,1.0,20.0,1.0,41.0,0.0,177.81015089998257,,,,,,,,,177.79990919999543,178.15999569999985,178.9601030999911,178.9444850999862,178.94454749999568,178.9601030999911,178.9601030999911,178.9601030999911,179.5787595999427,left,1.0,26.07723510003416,,,,,,,,,,,,,,,,,,,,,,,,,,,,,,sub-105,2.0,random_dot,59.96231967062373,
right,right,speed,,,,,0.0,0.0,0.0,1.0,21.0,0.0,42.0,1.0,179.59199069999158,,,,,,,,,179.58171419997234,179.94167929998366,180.7419939999818,180.72591759997889,180.7259836999583,180.7419939999818,180.7419939999818,180.7419939999818,181.31044809997547,right,1.0,26.028187300020363,,,,,,,,,,,,,,,,,,,,,,,,,,,,,,sub-105,2.0,random_dot,59.96231967062373,
left,left,speed,,,,,0.0,0.0,0.0,1.0,21.0,1.0,43.0,0.0,181.32372009998653,,,,,,,,,181.31329469999764,181.42339729995,182.22367599996505,182.207621199952,182.20768309995765,182.22367599996505,182.22367599996505,182.22367599996505,182.80926039995396,left,1.0,26.04830150003545,,,,,,,,,,,,,,,,,,,,,,,,,,,,,,sub-105,2.0,random_dot,59.96231967062373,
left,left,speed,,,,,0.0,0.0,0.0,1.0,22.0,0.0,44.0,0.0,182.8221455999883,,,,,,,,,182.8126106999698,183.6217289999477,184.42185809998773,184.4055495999637,184.40561159997011,184.42185809998773,184.42185809998773,184.42185809998773,185.00758889998545,right,0.0,26.05259040009696,,,,,,,,,,,,,,,,,,,,,,,,,,,,,,sub-105,2.0,random_dot,59.96231967062373,
right,right,speed,,,,,0.0,0.0,0.0,1.0,22.0,1.0,45.0,1.0,185.0203239999828,,,,,,,,,185.0108227999881,185.12005979998503,185.92033409996657,185.90406909998276,185.9041296999785,185.92033409996657,185.92033409996657,185.92033409996657,186.6055516999913,right,1.0,26.14610990002984,,,,,,,,,,,,,,,,,,,,,,,,,,,,,,sub-105,2.0,random_dot,59.96231967062373,
left,left,speed,,,,,0.0,0.0,0.0,1.0,23.0,0.0,46.0,0.0,186.61861259996655,,,,,,,,,186.609023099998,187.8176687999512,188.61786369996844,188.6017384999432,188.601806199993,188.61786369996844,188.61786369996844,188.61786369996844,189.22018559998835,left,1.0,26.060425200033933,,,,,,,,,,,,,,,,,,,,,,,,,,,,,,sub-105,2.0,random_dot,59.96231967062373,
right,right,speed,,,,,0.0,0.0,0.0,1.0,23.0,1.0,47.0,1.0,189.23305639997125,,,,,,,,,189.2234199999948,190.0324646999943,190.83226689998992,190.81649199995445,190.816560999956,190.83226689998992,190.83226689998992,190.83226689998992,191.63304139999676,left,0.0,26.262088100018445,,,,,,,,,,,,,,,,,,,,,,,,,,,,,,sub-105,2.0,random_dot,59.96231967062373,
right,right,speed,,,,,0.0,0.0,0.0,1.0,24.0,0.0,48.0,1.0,191.64699039998231,,,,,,,,,191.6352297999547,192.44645929994292,193.2467136999476,193.23055759997808,193.2306195999845,193.2467136999476,193.2467136999476,193.2467136999476,193.81580619997112,right,1.0,26.03109830006724,,,,,,,,,,,,,,,,,,,,,,,,,,,,,,sub-105,2.0,random_dot,59.96231967062373,
left,left,speed,,,,,0.0,0.0,0.0,1.0,24.0,1.0,49.0,0.0,193.8286693999544,,,,,,,,,193.819083099952,195.0275370999589,195.82760939997388,195.8115136999986,195.81157539994456,195.82760939997388,195.82760939997388,195.82760939997388,196.94561489997432,left,1.0,26.58487010007957,,,,,,,,,,,,,,,,,,,,,,,,,,,,,,sub-105,2.0,random_dot,59.96231967062373,
right,right,speed,,,,,0.0,0.0,0.0,1.0,25.0,0.0,50.0,1.0,196.9588930999744,,,,,,,,,196.94854459998896,197.75809799996205,198.55842049996136,198.5423226999701,198.5423860999872,198.55842049996136,198.55842049996136,198.55842049996136,199.17535189999035,right,1.0,26.086654900049325,,,,,,,,,,,,,,,,,,,,,,,,,,,,,,sub-105,2.0,random_dot,59.96231967062373,
left,left,speed,,,,,0.0,0.0,0.0,1.0,25.0,1.0,51.0,0.0,199.1902130999952,,,,,,,,,199.1762564999517,200.3889175999793,201.18931479996536,201.17344429995865,201.1735067999689,201.18931479996536,201.18931479996536,201.18931479996536,201.7737489999854,left,1.0,26.055322700063694,,,,,,,,,,,,,,,,,,,,,,,,,,,,,,sub-105,2.0,random_dot,59.96231967062373,
right,right,speed,,,,,0.0,0.0,0.0,1.0,26.0,0.0,52.0,1.0,201.78769469994583,,,,,,,,,201.77590819995385,202.98697809997248,203.8034939999925,203.7875287999632,203.7875913999742,203.8034939999925,203.8034939999925,203.8034939999925,204.42259389994436,right,1.0,26.085688600025605,,,,,,,,,,,,,,,,,,,,,,,,,,,,,,sub-105,2.0,random_dot,59.96231967062373,
left,left,speed,,,,,0.0,0.0,0.0,1.0,26.0,1.0,53.0,0.0,204.4353444999433,,,,,,,,,204.425836099952,205.63429799996084,206.4505222999724,206.43372769997225,206.4337601999869,206.4505222999724,206.4505222999724,206.4505222999724,207.07001429999943,left,1.0,26.083057000068948,,,,,,,,,,,,,,,,,,,,,,,,,,,,,,sub-105,2.0,random_dot,59.96231967062373,
left,left,speed,,,,,0.0,0.0,0.0,1.0,27.0,0.0,54.0,0.0,207.08290069998475,,,,,,,,,207.07325539999877,207.18280059995595,207.9828675999888,207.96681639994492,207.9668763999944,207.9828675999888,207.9828675999888,207.9828675999888,209.03430359996852,left,1.0,26.511655300098937,,,,,,,,,,,,,,,,,,,,,,,,,,,,,,sub-105,2.0,random_dot,59.96231967062373,
right,right,speed,,,,,0.0,0.0,0.0,1.0,27.0,1.0,55.0,1.0,209.04757229995448,,,,,,,,,209.03723929997068,209.14785649999976,209.9476373999496,209.93162229994775,209.9316767999553,209.9476373999496,209.9476373999496,209.9476373999496,210.7825726999436,right,1.0,26.303709500061814,,,,,,,,,,,,,,,,,,,,,,,,,,,,,,sub-105,2.0,random_dot,59.96231967062373,
left,left,speed,,,,,0.0,0.0,0.0,1.0,28.0,0.0,56.0,0.0,210.79582859994844,,,,,,,,,210.78546039998764,211.14595829998143,211.9459548999439,211.92991639999676,211.92998109996552,211.9459548999439,211.9459548999439,211.9459548999439,212.7307512999978,left,1.0,26.24240540008759,,,,,,,,,,,,,,,,,,,,,,,,,,,,,,sub-105,2.0,random_dot,59.96231967062373,
right,right,speed,,,,,0.0,0.0,0.0,1.0,28.0,1.0,57.0,1.0,212.744336499949,,,,,,,,,212.7336360999616,213.9431704999879,214.74325669999237,214.7271322999732,214.7271934999735,214.74325669999237,214.74325669999237,214.74325669999237,215.3276235999656,right,1.0,26.05386260006344,,,,,,,,,,,,,,,,,,,,,,,,,,,,,,sub-105,2.0,random_dot,59.96231967062373,
left,left,speed,,,,,0.0,0.0,0.0,1.0,29.0,0.0,58.0,0.0,215.3418685999932,,,,,,,,,215.32935129996625,215.44180039997445,216.24202479998348,216.22578799998155,216.22584849997656,216.24202479998348,216.24202479998348,216.24202479998348,216.8270321999444,left,1.0,26.05358030006755,,,,,,,,,,,,,,,,,,,,,,,,,,,,,,sub-105,2.0,random_dot,59.96231967062373,
right,right,speed,,,,,0.0,0.0,0.0,1.0,29.0,1.0,59.0,1.0,216.84024719998703,,,,,,,,,216.8299062999431,217.19004409998888,217.99022569996305,217.9741133999778,217.97417539998423,217.99022569996305,217.99022569996305,217.99022569996305,218.69215579994489,right,1.0,26.17265520006185,,,,,,,,,,,,,,,,,,,,,,,,,,,,,,sub-105,2.0,random_dot,59.96231967062373,
,,speed,,,,,0.0,0.0,0.0,1.0,,,,,,,,,,,,,,,,,,,,,,,,,,,,,,,,,,,,,,,,,,,,,,,,,,,,,,,sub-105,2.0,random_dot,59.96231967062373,
left,left,accuracy,,,,,0.0,1.0,1.0,0.0,0.0,0.0,0.0,0.0,225.44530749996196,,,,,,,,,225.4410975999781,225.53229149995605,226.33242389996303,226.3163495999761,226.3164147999487,226.33242389996303,226.33242389996303,226.33242389996303,226.95115359994816,left,1.0,26.07658990006894,,,,,,,,,,,,,,,,,,,,218.6948102999595,218.72227549995296,218.72227549995296,225.4183852999704,space,32.152746300038416,,,,,sub-105,2.0,random_dot,59.96231967062373,
right,right,accuracy,,,,,0.0,1.0,1.0,0.0,0.0,1.0,1.0,1.0,226.9644149999949,,,,,,,,,226.9549049999914,227.76389389997348,228.56395469995917,228.54780319996644,228.5478643999668,228.56395469995917,228.56395469995917,228.56395469995917,229.13272689998848,right,1.0,26.03772780002328,,,,,,,,,,,,,,,,,,,,,,,,,,,,,,sub-105,2.0,random_dot,59.96231967062373,
right,right,accuracy,,,,,0.0,1.0,1.0,0.0,1.0,0.0,2.0,1.0,229.1455852999934,,,,,,,,,229.1359373999876,229.24559379997663,230.0456827999442,230.0297045999905,230.0297762999544,230.0456827999442,230.0456827999442,230.0456827999442,230.8307238999987,right,1.0,26.24109560006764,,,,,,,,,,,,,,,,,,,,,,,,,,,,,,sub-105,2.0,random_dot,59.96231967062373,
left,left,accuracy,,,,,0.0,1.0,1.0,0.0,1.0,1.0,3.0,0.0,230.8439499999513,,,,,,,,,230.83397829998285,231.6432515999768,232.46009209996555,232.4439047999913,232.44397039996693,232.46009209996555,232.46009209996555,232.46009209996555,232.9468738999567,left,1.0,25.957466900057625,,,,,,,,,,,,,,,,,,,,,,,,,,,,,,sub-105,2.0,random_dot,59.96231967062373,
left,left,accuracy,,,,,0.0,1.0,1.0,0.0,2.0,0.0,4.0,0.0,232.95858039997984,,,,,,,,,232.9501296999515,233.3085727999569,234.10849569999849,234.09250069997503,234.09256249998,234.10849569999849,234.10849569999849,234.10849569999849,234.7609122999711,right,0.0,26.11403000005521,,,,,,,,,,,,,,,,,,,,,,,,,,,,,,sub-105,2.0,random_dot,59.96231967062373,
right,right,accuracy,,,,,0.0,1.0,1.0,0.0,2.0,1.0,5.0,1.0,234.77368159999605,,,,,,,,,234.7642767999787,235.97289719997207,236.7727955999435,236.75683279999063,236.75689769996097,236.7727955999435,236.7727955999435,236.7727955999435,237.30819469998823,right,1.0,25.99871500005247,,,,,,,,,,,,,,,,,,,,,,,,,,,,,,sub-105,2.0,random_dot,59.96231967062373,
left,left,accuracy,,,,,0.0,1.0,1.0,0.0,3.0,0.0,6.0,0.0,237.32117029995425,,,,,,,,,237.31151339999636,237.4213393999962,238.2215653999592,238.2051961999969,238.20525709999487,238.2215653999592,238.2215653999592,238.2215653999592,238.9737110999995,left,1.0,26.212558900064323,,,,,,,,,,,,,,,,,,,,,,,,,,,,,,sub-105,2.0,random_dot,59.96231967062373,
right,right,accuracy,,,,,0.0,1.0,1.0,0.0,3.0,1.0,7.0,1.0,238.98618999996688,,,,,,,,,238.97707869997248,239.08636549999937,239.8865523999557,239.87032029998957,239.8703821999952,239.8865523999557,239.8865523999557,239.8865523999557,240.40541449998275,right,1.0,25.975990200066008,,,,,,,,,,,,,,,,,,,,,,,,,,,,,,sub-105,2.0,random_dot,59.96231967062373,
left,left,accuracy,,,,,0.0,1.0,1.0,0.0,4.0,0.0,8.0,0.0,240.4185174999875,,,,,,,,,240.408751299954,240.7682988999877,241.58484969998244,241.56884789996548,241.56890999997267,241.58484969998244,241.58484969998244,241.58484969998244,241.93820349994348,left,1.0,25.823554500064347,,,,,,,,,,,,,,,,,,,,,,,,,,,,,,sub-105,2.0,random_dot,59.96231967062373,
right,right,accuracy,,,,,0.0,1.0,1.0,0.0,4.0,1.0,9.0,1.0,241.95045329997083,,,,,,,,,241.94154299999357,242.05009389994663,242.8505464999471,242.8342950999504,242.83437909994973,242.8505464999471,242.8505464999471,242.8505464999471,243.30252989998556,right,1.0,25.909755600092467,,,,,,,,,,,,,,,,,,,,,,,,,,,,,,sub-105,2.0,random_dot,59.96231967062373,
left,left,accuracy,,,,,0.0,1.0,1.0,0.0,5.0,0.0,10.0,0.0,243.31547139998293,,,,,,,,,243.3055392999668,243.41584579995836,244.21596750000023,244.19998779997692,244.2000551999663,244.21596750000023,244.21596750000023,244.21596750000023,244.70157539995853,left,1.0,25.94114090007497,,,,,,,,,,,,,,,,,,,,,,,,,,,,,,sub-105,2.0,random_dot,59.96231967062373,
right,right,accuracy,,,,,0.0,1.0,1.0,0.0,5.0,1.0,11.0,1.0,244.7142576999613,,,,,,,,,244.70481879997533,245.0639741999912,245.864408799971,245.8481627999572,245.8482269999804,245.864408799971,245.864408799971,245.864408799971,246.26660719997017,right,1.0,25.869596900069155,,,,,,,,,,,,,,,,,,,,,,,,,,,,,,sub-105,2.0,random_dot,59.96231967062373,
left,left,accuracy,,,,,0.0,1.0,1.0,0.0,6.0,0.0,12.0,0.0,246.27966019994344,,,,,,,,,246.2701262999908,246.3795597999706,247.17962449998595,247.163568799966,247.163630999974,247.17962449998595,247.17962449998595,247.17962449998595,247.64823719998824,left,1.0,25.925875900080428,,,,,,,,,,,,,,,,,,,,,,,,,,,,,,sub-105,2.0,random_dot,59.96231967062373,
right,right,accuracy,,,,,0.0,1.0,1.0,0.0,6.0,1.0,13.0,1.0,247.66144799999893,,,,,,,,,247.65118709998205,248.01139889995105,248.811387499969,248.7955183999729,248.7955808999832,248.811387499969,248.811387499969,248.811387499969,249.7795583999832,left,0.0,26.426466100034304,,,,,,,,,,,,,,,,,,,,,,,,,,,,,,sub-105,2.0,random_dot,59.96231967062373,
right,right,accuracy,,,,,0.0,1.0,1.0,0.0,7.0,0.0,14.0,1.0,249.7927992999903,,,,,,,,,249.78258169995388,249.89274389995265,250.6929415999912,250.6771037999424,250.67716939997624,250.6929415999912,250.6929415999912,250.6929415999912,251.3446303999517,right,1.0,26.11001180007588,,,,,,,,,,,,,,,,,,,,,,,,,,,,,,sub-105,2.0,random_dot,59.96231967062373,
left,left,accuracy,,,,,0.0,1.0,1.0,0.0,7.0,1.0,15.0,0.0,251.3580173999653,,,,,,,,,251.34758579998743,251.70806179998908,252.5080773999798,252.49188779998804,252.49194909998917,252.5080773999798,252.5080773999798,252.5080773999798,252.94376409996767,right,0.0,25.895044500066437,,,,,,,,,,,,,,,,,,,,,,,,,,,,,,sub-105,2.0,random_dot,59.96231967062373,
left,left,accuracy,,,,,0.0,1.0,1.0,0.0,8.0,0.0,16.0,0.0,252.9565713999909,,,,,,,,,252.94720259995665,253.05657139996765,253.85701299994253,253.84096679999493,253.8410286999424,253.85701299994253,253.85701299994253,253.85701299994253,254.4583590999828,left,1.0,26.062032800051384,,,,,,,,,,,,,,,,,,,,,,,,,,,,,,sub-105,2.0,random_dot,59.96231967062373,
right,right,accuracy,,,,,0.0,1.0,1.0,0.0,8.0,1.0,17.0,1.0,254.47198629996277,,,,,,,,,254.46123689995147,255.67071419995045,256.470901499968,256.4545502999681,256.4546053999802,256.470901499968,256.470901499968,256.470901499968,257.1560046999948,right,1.0,26.153279300022405,,,,,,,,,,,,,,,,,,,,,,,,,,,,,,sub-105,2.0,random_dot,59.96231967062373,
right,right,accuracy,,,,,0.0,1.0,1.0,0.0,9.0,0.0,18.0,1.0,257.1692465999513,,,,,,,,,257.15894469997147,258.36870979995,259.1853082999587,259.1690229999949,259.16908449999755,259.1853082999587,259.1853082999587,259.1853082999587,259.770729699987,left,0.0,26.04389510001056,,,,,,,,,,,,,,,,,,,,,,,,,,,,,,sub-105,2.0,random_dot,59.96231967062373,
left,left,accuracy,,,,,0.0,1.0,1.0,0.0,9.0,1.0,19.0,0.0,259.78382729995064,,,,,,,,,259.7739422999439,260.1334284999757,260.93359879998025,260.9174726999481,260.9175422999542,260.93359879998025,260.93359879998025,260.93359879998025,261.5021654999582,left,1.0,26.028431600076143,,,,,,,,,,,,,,,,,,,,,,,,,,,,,,sub-105,2.0,random_dot,59.96231967062373,
left,left,accuracy,,,,,0.0,1.0,1.0,0.0,10.0,0.0,20.0,0.0,261.5152930999757,,,,,,,,,261.505406399956,261.6150671999785,262.41537869995227,262.3991729999543,262.399226599955,262.41537869995227,262.41537869995227,262.41537869995227,263.5833388999454,left,1.0,26.638185600051656,,,,,,,,,,,,,,,,,,,,,,,,,,,,,,sub-105,2.0,random_dot,59.96231967062373,
right,right,accuracy,,,,,0.0,1.0,1.0,0.0,10.0,1.0,21.0,1.0,263.5968211999861,,,,,,,,,263.5864549999824,264.7957221999532,265.5959900999442,265.57984539994504,265.5799072999507,265.5959900999442,265.5959900999442,265.5959900999442,266.1474918999593,right,1.0,26.018030900042504,,,,,,,,,,,,,,,,,,,,,,,,,,,,,,sub-105,2.0,random_dot,59.96231967062373,
left,left,accuracy,,,,,0.0,1.0,1.0,0.0,11.0,0.0,22.0,0.0,266.1609510999988,,,,,,,,,266.1503417999484,266.51087229995755,267.327737399959,267.3113382999436,267.31140029995004,267.327737399959,267.327737399959,267.327737399959,267.82865649997257,left,1.0,25.959360900102183,,,,,,,,,,,,,,,,,,,,,,,,,,,,,,sub-105,2.0,random_dot,59.96231967062373,
right,right,accuracy,,,,,0.0,1.0,1.0,0.0,11.0,1.0,23.0,1.0,267.84261509997305,,,,,,,,,267.83083869999973,269.04180979996454,269.8419829999912,269.8258584999712,269.8259206999792,269.8419829999912,269.8419829999912,269.8419829999912,270.37764429999515,right,1.0,25.9982500000624,,,,,,,,,,,,,,,,,,,,,,,,,,,,,,sub-105,2.0,random_dot,59.96231967062373,
right,right,accuracy,,,,,0.0,1.0,1.0,0.0,12.0,0.0,24.0,1.0,270.3904345999472,,,,,,,,,270.3810112999636,270.7397070999723,271.5403850999428,271.52445569995325,271.5245184999658,271.5403850999428,271.5403850999428,271.5403850999428,272.2423015999957,right,1.0,26.168483900022693,,,,,,,,,,,,,,,,,,,,,,,,,,,,,,sub-105,2.0,random_dot,59.96231967062373,
left,left,accuracy,,,,,0.0,1.0,1.0,0.0,12.0,1.0,25.0,0.0,272.25518219999503,,,,,,,,,272.2455199999968,273.4541945999954,274.25441479997244,274.2384234999772,274.2384853999829,274.25441479997244,274.25441479997244,274.25441479997244,274.74020009994274,left,1.0,25.95276820007712,,,,,,,,,,,,,,,,,,,,,,,,,,,,,,sub-105,2.0,random_dot,59.96231967062373,
left,left,accuracy,,,,,0.0,1.0,1.0,0.0,13.0,0.0,26.0,0.0,274.7528384999605,,,,,,,,,274.74344189994736,274.8527640999528,275.65320489997976,275.6370185999549,275.63708449999103,275.65320489997976,275.65320489997976,275.65320489997976,277.2542018999811,left,1.0,27.06216580007458,,,,,,,,,,,,,,,,,,,,,,,,,,,,,,sub-105,2.0,random_dot,59.96231967062373,
right,right,accuracy,,,,,0.0,1.0,1.0,0.0,13.0,1.0,27.0,1.0,277.2673400999629,,,,,,,,,277.25744959997246,277.6169049999444,278.4333460999769,278.4166667999816,278.4166934999521,278.4333460999769,278.4333460999769,278.4333460999769,278.96882799995365,right,1.0,25.991944200068247,,,,,,,,,,,,,,,,,,,,,,,,,,,,,,sub-105,2.0,random_dot,59.96231967062373,
left,left,accuracy,,,,,0.0,1.0,1.0,0.0,14.0,0.0,28.0,0.0,278.9823276999523,,,,,,,,,278.9716441999772,280.1812699000002,280.9813075999846,280.9652439999627,280.96529789996566,280.9813075999846,280.9813075999846,280.9813075999846,281.6995025999495,left,1.0,26.18738820002181,,,,,,,,,,,,,,,,,,,,,,,,,,,,,,sub-105,2.0,random_dot,59.96231967062373,
right,right,accuracy,,,,,0.0,1.0,1.0,0.0,14.0,1.0,29.0,1.0,281.7131255999557,,,,,,,,,281.702312599984,282.5125414999784,283.31254119996447,283.2964822999784,283.29655349999666,283.31254119996447,283.31254119996447,283.31254119996447,284.59730499994475,right,1.0,26.741526300029363,,,,,,,,,,,,,,,,,,,,,,,,,,,,,,sub-105,2.0,random_dot,59.96231967062373,
right,right,accuracy,,,,,0.0,1.0,1.0,0.0,15.0,0.0,30.0,1.0,284.61037559999386,,,,,,,,,284.60062709997874,285.40975659998367,286.2097366999951,286.1936570999678,286.1937186999712,286.2097366999951,286.2097366999951,286.2097366999951,287.17724079999607,left,0.0,26.42779900005553,,,,,,,,,,,,,,,,,,,,,,,,,,,,,,sub-105,2.0,random_dot,59.96231967062373,
left,left,accuracy,,,,,0.0,1.0,1.0,0.0,15.0,1.0,31.0,0.0,287.1910067999852,,,,,,,,,287.1793611999601,287.99063109996496,288.79080589994555,288.77468459995,288.7747458999511,288.79080589994555,288.79080589994555,288.79080589994555,289.52465829998255,left,1.0,26.193802200024948,,,,,,,,,,,,,,,,,,,,,,,,,,,,,,sub-105,2.0,random_dot,59.96231967062373,
left,left,accuracy,,,,,0.0,1.0,1.0,0.0,16.0,0.0,32.0,0.0,289.5389010999934,,,,,,,,,289.526782299974,290.7380524999462,291.55491789994994,291.53875729994616,291.5388192999526,291.55491789994994,291.55491789994994,291.55491789994994,292.87282339995727,right,0.0,26.78365680004936,,,,,,,,,,,,,,,,,,,,,,,,,,,,,,sub-105,2.0,random_dot,59.96231967062373,
right,right,accuracy,,,,,0.0,1.0,1.0,0.0,16.0,1.0,33.0,1.0,292.8859621999436,,,,,,,,,292.8760358999716,293.68510789994616,294.48531139997067,294.46923449996393,294.4692955999635,294.48531139997067,294.48531139997067,294.48531139997067,295.13732449995587,right,1.0,26.11258230009116,,,,,,,,,,,,,,,,,,,,,,,,,,,,,,sub-105,2.0,random_dot,59.96231967062373,
right,right,accuracy,,,,,0.0,1.0,1.0,0.0,17.0,0.0,34.0,1.0,295.150440999947,,,,,,,,,295.1405168999918,295.94983069994487,296.74994579999475,296.7338976999745,296.73395989998244,296.74994579999475,296.74994579999475,296.74994579999475,297.3520898999996,left,0.0,26.0578520000563,,,,,,,,,,,,,,,,,,,,,,,,,,,,,,sub-105,2.0,random_dot,59.96231967062373,
left,left,accuracy,,,,,0.0,1.0,1.0,0.0,17.0,1.0,35.0,0.0,297.36515149998013,,,,,,,,,297.35530669998843,298.1644414999755,298.96474059997126,298.94839529995807,298.94845669995993,298.96474059997126,298.96474059997126,298.96474059997126,299.78271629998926,left,1.0,26.28495600010501,,,,,,,,,,,,,,,,,,,,,,,,,,,,,,sub-105,2.0,random_dot,59.96231967062373,
right,right,accuracy,,,,,0.0,1.0,1.0,0.0,18.0,0.0,36.0,1.0,299.7962363999686,,,,,,,,,299.7855371999904,300.1460946999723,300.9627461999771,300.9469851999893,300.9470467999927,300.9627461999771,300.9627461999771,300.9627461999771,301.66488849994494,right,1.0,26.16955880005844,,,,,,,,,,,,,,,,,,,,,,,,,,,,,,sub-105,2.0,random_dot,59.96231967062373,
left,left,accuracy,,,,,0.0,1.0,1.0,0.0,18.0,1.0,37.0,0.0,301.67764650000026,,,,,,,,,301.66817869996885,301.7777990999748,302.5779197999509,302.5617116999929,302.561774999951,302.5779197999509,302.5779197999509,302.5779197999509,303.4296817999566,left,1.0,26.316292100062128,,,,,,,,,,,,,,,,,,,,,,,,,,,,,,sub-105,2.0,random_dot,59.96231967062373,
left,left,accuracy,,,,,0.0,1.0,1.0,0.0,19.0,0.0,38.0,0.0,303.4426864999696,,,,,,,,,303.4332720999955,303.5427567999577,304.3428441999713,304.32668349996675,304.3267449999694,304.3428441999713,304.3428441999713,304.3428441999713,305.52769109996734,left,1.0,26.64357460004976,,,,,,,,,,,,,,,,,,,,,,,,,,,,,,sub-105,2.0,random_dot,59.96231967062373,
right,right,accuracy,,,,,0.0,1.0,1.0,0.0,19.0,1.0,39.0,1.0,305.5409522999544,,,,,,,,,305.53103439998813,305.64064969995525,306.4409660999663,306.4248099999968,306.42487089999486,306.4409660999663,306.4409660999663,306.4409660999663,307.2427426999784,left,0.0,26.262750000110827,,,,,,,,,,,,,,,,,,,,,,,,,,,,,,sub-105,2.0,random_dot,59.96231967062373,
left,left,accuracy,,,,,0.0,1.0,1.0,0.0,20.0,0.0,40.0,0.0,307.2558145999792,,,,,,,,,307.2462054999778,308.4548799999757,309.2549920999445,309.23897399997804,309.2390364999883,309.2549920999445,309.2549920999445,309.2549920999445,310.273445699946,left,1.0,26.48600010003429,,,,,,,,,,,,,,,,,,,,,,,,,,,,,,sub-105,2.0,random_dot,59.96231967062373,
right,right,accuracy,,,,,0.0,1.0,1.0,0.0,20.0,1.0,41.0,1.0,310.28653379995376,,,,,,,,,310.2766849999898,310.38645939994603,311.1863679999951,311.17051219998393,311.17057969997404,311.1863679999951,311.1863679999951,311.1863679999951,311.7050736999954,right,1.0,25.98719500005245,,,,,,,,,,,,,,,,,,,,,,,,,,,,,,sub-105,2.0,random_dot,59.96231967062373,
left,left,accuracy,,,,,0.0,1.0,1.0,0.0,21.0,0.0,42.0,0.0,311.71822779998183,,,,,,,,,311.70797289995244,312.5181089999969,313.3345058999839,313.3186055999832,313.3186658999766,313.3345058999839,313.3345058999839,313.3345058999839,313.98623039998347,left,1.0,26.11522480007261,,,,,,,,,,,,,,,,,,,,,,,,,,,,,,sub-105,2.0,random_dot,59.96231967062373,
right,right,accuracy,,,,,0.0,1.0,1.0,0.0,21.0,1.0,43.0,1.0,313.9993427999434,,,,,,,,,313.98925339995185,314.79890639998484,315.59903879999183,315.5830639999476,315.5831242999993,315.59903879999183,315.59903879999183,315.59903879999183,316.1844772999757,right,1.0,26.050962600042112,,,,,,,,,,,,,,,,,,,,,,,,,,,,,,sub-105,2.0,random_dot,59.96231967062373,
right,right,accuracy,,,,,0.0,1.0,1.0,0.0,22.0,0.0,44.0,1.0,316.19703059998574,,,,,,,,,316.1866283999989,316.99669489997905,317.7970385999652,317.78066569997463,317.78072749997955,317.7970385999652,317.7970385999652,317.7970385999652,318.4821842999663,right,1.0,26.15405620005913,,,,,,,,,,,,,,,,,,,,,,,,,,,,,,sub-105,2.0,random_dot,59.96231967062373,
left,left,accuracy,,,,,0.0,1.0,1.0,0.0,22.0,1.0,45.0,0.0,318.49540069996146,,,,,,,,,318.48509749997174,319.6946708999458,320.51101899996866,320.4950466999435,320.4951081999461,320.51101899996866,320.51101899996866,320.51101899996866,321.0466888999799,left,1.0,26.00322950008558,,,,,,,,,,,,,,,,,,,,,,,,,,,,,,sub-105,2.0,random_dot,59.96231967062373,
right,right,accuracy,,,,,0.0,1.0,1.0,0.0,23.0,0.0,46.0,1.0,321.0597872999497,,,,,,,,,321.0499891999644,322.25866019999376,323.0587400999502,323.0425048999605,323.0425668999669,323.0587400999502,323.0587400999502,323.0587400999502,323.6275401999592,left,0.0,26.0353084000526,,,,,,,,,,,,,,,,,,,,,,,,,,,,,,sub-105,2.0,random_dot,59.96231967062373,
left,left,accuracy,,,,,0.0,1.0,1.0,0.0,23.0,1.0,47.0,0.0,323.64049469999736,,,,,,,,,323.63083829998504,324.839142599958,325.63918129995,325.622391699988,325.6224239000003,325.63918129995,325.63918129995,325.63918129995,326.241595999978,right,0.0,26.0625872000237,,,,,,,,,,,,,,,,,,,,,,,,,,,,,,sub-105,2.0,random_dot,59.96231967062373,
right,right,accuracy,,,,,0.0,1.0,1.0,0.0,24.0,0.0,48.0,1.0,326.2546174999443,,,,,,,,,326.2448773999932,327.05406539997784,327.8541328999563,327.83801829995355,327.8380786999478,327.8541328999563,327.8541328999563,327.8541328999563,328.3401730999467,left,0.0,25.954424400057174,,,,,,,,,,,,,,,,,,,,,,,,,,,,,,sub-105,2.0,random_dot,59.96231967062373,
left,left,accuracy,,,,,0.0,1.0,1.0,0.0,24.0,1.0,49.0,0.0,328.3529978999868,,,,,,,,,328.3434624999645,328.45282709994353,329.2528418999864,329.2370987999602,329.2371606999659,329.2528418999864,329.2528418999864,329.2528418999864,329.85530509997625,left,1.0,26.06953160004923,,,,,,,,,,,,,,,,,,,,,,,,,,,,,,sub-105,2.0,random_dot,59.96231967062373,
left,left,accuracy,,,,,0.0,1.0,1.0,0.0,25.0,0.0,50.0,0.0,329.86797909997404,,,,,,,,,329.8585092999856,331.0672692999942,331.8670353999478,331.8510817999486,331.8511415999965,331.8670353999478,331.8670353999478,331.8670353999478,332.45287179999286,left,1.0,26.05097190005472,,,,,,,,,,,,,,,,,,,,,,,,,,,,,,sub-105,2.0,random_dot,59.96231967062373,
right,right,accuracy,,,,,0.0,1.0,1.0,0.0,25.0,1.0,51.0,1.0,332.4655658999691,,,,,,,,,332.4560596999945,333.2651017999742,334.06524129997706,334.0490621999488,334.04912909999257,334.06524129997706,334.06524129997706,334.06524129997706,334.75003479997395,right,1.0,26.14525840006536,,,,,,,,,,,,,,,,,,,,,,,,,,,,,,sub-105,2.0,random_dot,59.96231967062373,
left,left,accuracy,,,,,0.0,1.0,1.0,0.0,26.0,0.0,52.0,0.0,334.76358349999646,,,,,,,,,334.7529853999731,334.8633176999865,335.66336539998883,335.64716059999773,335.64722239994444,335.66336539998883,335.66336539998883,335.66336539998883,336.2327558999532,left,1.0,26.033101500070188,,,,,,,,,,,,,,,,,,,,,,,,,,,,,,sub-105,2.0,random_dot,59.96231967062373,
right,right,accuracy,,,,,0.0,1.0,1.0,0.0,26.0,1.0,53.0,1.0,336.2453575999825,,,,,,,,,336.2359684999683,336.34538239997346,337.1454383999808,337.1294106999994,337.1294712999952,337.1454383999808,337.1454383999808,337.1454383999808,338.214084599982,right,1.0,26.533197900105733,,,,,,,,,,,,,,,,,,,,,,,,,,,,,,sub-105,2.0,random_dot,59.96231967062373,
right,right,accuracy,,,,,0.0,1.0,1.0,0.0,27.0,0.0,54.0,1.0,338.22682289994555,,,,,,,,,338.21739619999425,338.5768515999662,339.3766715999809,339.3607777999714,339.3608517999528,339.3766715999809,339.3766715999809,339.3766715999809,340.51032789994497,right,1.0,26.59979700006079,,,,,,,,,,,,,,,,,,,,,,,,,,,,,,sub-105,2.0,random_dot,59.96231967062373,
left,left,accuracy,,,,,0.0,1.0,1.0,0.0,27.0,1.0,55.0,0.0,340.52442289999453,,,,,,,,,340.51202109997394,340.62466999999015,341.42506499995943,341.40880169998854,341.40886269998737,341.42506499995943,341.42506499995943,341.42506499995943,342.00840799999423,left,1.0,26.044335000100546,,,,,,,,,,,,,,,,,,,,,,,,,,,,,,sub-105,2.0,random_dot,59.96231967062373,
right,right,accuracy,,,,,0.0,1.0,1.0,0.0,28.0,0.0,56.0,1.0,342.0231446999824,,,,,,,,,342.0093400999904,342.3731595999561,343.17343189998064,343.1570819999906,343.1571441999986,343.17343189998064,343.17343189998064,343.17343189998064,343.77444069995545,left,0.0,26.06720600003609,,,,,,,,,,,,,,,,,,,,,,,,,,,,,,sub-105,2.0,random_dot,59.96231967062373,
left,left,accuracy,,,,,0.0,1.0,1.0,0.0,28.0,1.0,57.0,0.0,343.7882614999544,,,,,,,,,343.7765631999937,344.5879390999908,345.404412999982,345.3881651999545,345.3882260999526,345.404412999982,345.404412999982,345.404412999982,346.1395744999754,right,0.0,26.190996500081383,,,,,,,,,,,,,,,,,,,,,,,,,,,,,,sub-105,2.0,random_dot,59.96231967062373,
right,right,accuracy,,,,,0.0,1.0,1.0,0.0,29.0,0.0,58.0,1.0,346.1530606999877,,,,,,,,,346.1428955999436,346.5027069999487,347.3025927999988,347.28643399995053,347.2864951999509,347.3025927999988,347.3025927999988,347.3025927999988,347.9881261999835,left,0.0,26.15419050003402,,,,,,,,,,,,,,,,,,,,,,,,,,,,,,sub-105,2.0,random_dot,59.96231967062373,
left,left,accuracy,,,,,0.0,1.0,1.0,0.0,29.0,1.0,59.0,0.0,348.00115899997763,,,,,,,,,347.9909354999545,348.3506432999857,349.1507827999885,349.13470109994523,349.1347564999596,349.1507827999885,349.1507827999885,349.1507827999885,349.95259369997075,left,1.0,26.25811540003633,,,,,,,,,,,,,,,,,,,,,,,,,,,,,,sub-105,2.0,random_dot,59.96231967062373,
,,accuracy,,,,,0.0,1.0,1.0,0.0,,,,,,,,,,,,,,,,,,,,,,,,,,,,,,,,,,,,,,,,,,,,,,,,,,,,,,,sub-105,2.0,random_dot,59.96231967062373,
,,,,,,,,,,,,,,,,,,,,,,,,,,,,,,,,,,,,,,,,,,,,,,,,,,,,,,,,,,,,,,349.95474239997566,349.9661262999871,354.9614038,sub-105,,,,
