direction,corrAns,randomInstr,practice_trials.thisRepN,practice_trials.thisTrialN,practice_trials.thisN,practice_trials.thisIndex,instr_trials.thisRepN,instr_trials.thisTrialN,instr_trials.thisN,instr_trials.thisIndex,test_trials.thisRepN,test_trials.thisTrialN,test_trials.thisN,test_trials.thisIndex,thisRow.t,notes,general_instruction.started,textGeneralInstr.started,respGeneralInstr.started,general_instruction.stopped,respGeneralInstr.keys,respGeneralInstr.rt,respGeneralInstr.duration,ITI.started,fixcross.started,fixcross.stopped,ITI.stopped,dots.started,backgroundDots.started,stimulusDots.started,respDots.started,stimulusDots.stopped,dots.stopped,respDots.keys,respDots.corr,respDots.rt,respDots.duration,feedback.started,textFeedback.started,feedback.stopped,textFeedback.stopped,info.started,textInfo.started,keyRespInfo.started,info.stopped,keyRespInfo.keys,keyRespInfo.rt,keyRespInfo.duration,test_instruction.started,textTestInstr.started,respTestInstr.started,test_instruction.stopped,respTestInstr.keys,respTestInstr.rt,respTestInstr.duration,random_instruction.started,textRandomInstr.started,respRandomInstr.started,random_instruction.stopped,respRandomInstr.keys,respRandomInstr.rt,respRandomInstr.duration,goodbye.started,textGoodbye.started,textGoodbye.stopped,goodbye.stopped,participant,session,expName,frameRate,Unnamed: 74
,,,,,,,,,,,,,,,,,0.0241052000783383,0.0351416999474167,0.0351416999474167,12.38520530005917,space,101.66405909997412,,,,,,,,,,,,,,,,,,,,,,,,,,,,,,,,,,,,,,,,,,,,,sub-018,1.0,random_dot,119.86972531619566,
left,left,,0.0,0.0,0.0,0.0,,,,,,,,,12.400700600119308,,,,,,,,,12.395725599955767,12.4836387000978,13.27686920017004,13.267983000027016,13.268018400063738,13.27686920017004,13.27686920017004,13.27686920017004,18.26701240008697,18.62650450016372,left,1.0,94.66043159994295,,18.62748140003532,18.64394069998525,19.13356150011532,,,,,,,,,,,,,,,,,,,,,,,,,,,sub-018,1.0,random_dot,119.86972531619566,
right,right,,0.0,1.0,1.0,1.0,,,,,,,,,19.141391600016505,,,,,,,,,19.134076100075617,19.92603540001437,20.716164200101048,20.70918580004945,20.709207100095227,20.716164200101048,20.716164200101048,20.716164200101048,25.70008850004524,26.617711200146005,left,0.0,95.21965939970688,,26.61877409997396,26.6305655001197,27.116874600062147,27.124934900086373,,,,,,,,,,,,,,,,,,,,,,,,,,sub-018,1.0,random_dot,119.86972531619566,
right,right,,1.0,0.0,2.0,1.0,,,,,,,,,27.124934900086373,,,,,,,,,27.11728230002336,27.466762600000948,28.260959800099958,28.25189960002899,28.251938699977472,28.260959800099958,28.260959800099958,28.260959800099958,33.25045419996604,34.251053400104865,left,0.0,95.30815939977764,,34.251711199991405,34.25765800010413,34.74297230015509,34.75016910000704,,,,,,,,,,,,,,,,,,,,,,,,,,sub-018,1.0,random_dot,119.86972531619566,
left,left,,1.0,1.0,3.0,0.0,,,,,,,,,34.75016910000704,,,,,,,,,34.743367600021884,35.54199240007438,36.33362739998847,36.32604190008715,36.32606680016033,36.33362739998847,36.33362739998847,36.33362739998847,41.316925400169566,41.71773100015707,left,1.0,94.70187499979512,,41.718309900024906,41.7280761001166,42.21777230012231,42.22527269995771,,,,,,,,,,,,,,,,,,,,,,,,,,sub-018,1.0,random_dot,119.86972531619566,
left,left,,2.0,0.0,4.0,0.0,,,,,,,,,42.22527269995771,,,,,,,,,42.218295000027865,42.56720900000073,43.35904090013355,43.35119950002991,43.35123150004074,43.35904090013355,43.35904090013355,43.35904090013355,48.35014250013046,48.71014410001226,right,0.0,94.66530689992942,,48.710661800112575,48.719804600114,49.20918700005859,49.21577710006386,,,,,,,,,,,,,,,,,,,,,,,,,,sub-018,1.0,random_dot,119.86972531619566,
right,right,,2.0,1.0,5.0,1.0,,,,,,,,,49.21577710006386,,,,,,,,,49.209650200093165,50.008330800104886,50.80853180005215,50.80051450012252,50.80054740002379,50.80853180005215,50.80853180005215,50.80853180005215,55.79187189997174,56.185164200142026,right,1.0,94.6931286000181,,56.18579540005885,56.1957922000438,56.683936299989,56.69175410014577,,,,,,,,,,,,,,,,,,,,,,,,,,sub-018,1.0,random_dot,119.86972531619566,
right,right,,3.0,0.0,6.0,1.0,,,,,,,,,56.69175410014577,,,,,,,,,56.68436040007509,56.78341670008376,57.57618880015798,57.56655120011419,57.566575600067154,57.57618880015798,57.57618880015798,57.57618880015798,62.5587586001493,62.8610517999623,left,0.0,94.59627669979818,,62.86172779998742,62.87123639998026,63.35937580000609,63.3671997000929,,,,,,,,,,,,,,,,,,,,,,,,,,sub-018,1.0,random_dot,119.86972531619566,
left,left,,3.0,1.0,7.0,0.0,,,,,,,,,63.3671997000929,,,,,,,,,63.359978600172326,64.15856470004655,64.9501489000395,64.94311740016565,64.94314160011709,64.9501489000395,64.9501489000395,64.9501489000395,69.93250390002504,70.58858670014888,right,0.0,94.95125679997729,,70.58957229997031,70.59705540002324,71.08432939997874,71.09178020013496,,,,,,,,,,,,,,,,,,,,,,,,,,sub-018,1.0,random_dot,119.86972531619566,
left,left,,4.0,0.0,8.0,0.0,,,,,,,,,71.09178020013496,,,,,,,,,71.08483810001053,71.88389990013093,72.67586149997078,72.66861990001053,72.66864860011265,72.67586149997078,72.67586149997078,72.67586149997078,77.66678890003823,78.22581179998815,right,0.0,94.86400789977051,,78.22632440016605,78.23326240014285,78.71761759999208,78.72481920011342,,,,,,,,,,,,,,,,,,,,,,,,,,sub-018,1.0,random_dot,119.86972531619566,
right,right,,4.0,1.0,9.0,1.0,,,,,,,,,78.72481920011342,,,,,,,,,78.7182283999864,79.51680950005539,80.30902000004426,80.30105430004187,80.30110760009848,80.30902000004426,80.30902000004426,80.30902000004426,85.29999900003895,85.70998110016808,right,1.0,94.71409889985809,,85.71056400006637,85.72042300016619,86.20916800014675,86.2164537999779,,,,,,,,,,,,,,,,,,,,,,,,,,sub-018,1.0,random_dot,119.86972531619566,
left,left,,5.0,0.0,10.0,0.0,,,,,,,,,86.2164537999779,,,,,,,,,86.20963830011897,86.30844360007904,87.10065120016225,87.09280700003728,87.0928383001592,87.10065120016225,87.10065120016225,87.10065120016225,92.0918285001535,92.61713300016709,left,1.0,94.82856259983964,,92.61793880001642,92.62515199999324,93.10917340009472,93.11673690006135,,,,,,,,,,,,,,,,,,,,,,,,,,sub-018,1.0,random_dot,119.86972531619566,
right,right,,5.0,1.0,11.0,1.0,,,,,,,,,93.11673690006135,,,,,,,,,93.10970040014944,93.91694770008326,94.71691650012508,94.70814240002072,94.70816519996151,94.71691650012508,94.71691650012508,94.71691650012508,99.69975810009056,100.04477809998208,right,1.0,94.64551509986632,,100.04568870016374,100.05169069999828,100.54267480014823,100.54879110003822,,,,,,,,,,,,,,,,,,,,,,,,,,sub-018,1.0,random_dot,119.86972531619566,
left,left,,6.0,0.0,12.0,0.0,,,,,,,,,100.54879110003822,,,,,,,,,100.54325800016522,101.74252970004454,102.53334560012443,102.52582940016872,102.52586439996958,102.53334560012443,102.53334560012443,102.53334560012443,107.52490650000982,107.88551419996656,left,1.0,94.66728659975342,,107.88666870002636,107.89875590009616,108.38312619994394,108.39113560016268,,,,,,,,,,,,,,,,,,,,,,,,,,sub-018,1.0,random_dot,119.86972531619566,
right,right,,6.0,1.0,13.0,1.0,,,,,,,,,108.39113560016268,,,,,,,,,108.38354069995694,108.4833818001207,109.27393390005454,109.26727039995605,109.26729340013117,109.27393390005454,109.27393390005454,109.27393390005454,114.2582962999586,114.78476980002596,right,1.0,94.82245489978231,,114.78540960000828,114.79183150012976,115.27587020001374,115.28312649996953,,,,,,,,,,,,,,,,,,,,,,,,,,sub-018,1.0,random_dot,119.86972531619566,
right,right,,7.0,0.0,14.0,1.0,,,,,,,,,115.28312649996953,,,,,,,,,115.27636280003937,115.63293060008436,116.4253738000989,116.41785770002753,116.41788520012052,116.4253738000989,116.4253738000989,116.4253738000989,121.41645120014437,121.71906960010529,right,1.0,94.6090251998976,,121.71964050014503,121.73130360012874,122.21794010000303,122.2249031001702,,,,,,,,,,,,,,,,,,,,,,,,,,sub-018,1.0,random_dot,119.86972531619566,
left,left,,7.0,1.0,15.0,0.0,,,,,,,,,122.2249031001702,,,,,,,,,122.21855510002932,123.41660650004631,124.21734130010007,124.2092796000652,124.2093355001416,124.21734130010007,124.21734130010007,124.21734130010007,129.19979119999334,129.6008461001329,right,0.0,94.69782999996096,,129.6014060000889,129.61056590010412,130.10083540016785,130.10822409996763,,,,,,,,,,,,,,,,,,,,,,,,,,sub-018,1.0,random_dot,119.86972531619566,
right,right,,8.0,0.0,16.0,1.0,,,,,,,,,130.10822409996763,,,,,,,,,130.10135699994862,131.29981920006685,132.09229920012876,132.08434549998492,132.08437649998814,132.09229920012876,132.09229920012876,132.09229920012876,137.07490890007466,137.4516035001725,left,0.0,94.6703895998653,,137.45212360005826,137.45896359998733,137.94271350000054,137.94996090000495,,,,,,,,,,,,,,,,,,,,,,,,,,sub-018,1.0,random_dot,119.86972531619566,
left,left,,8.0,1.0,17.0,0.0,,,,,,,,,137.94996090000495,,,,,,,,,137.94328290014528,138.04987989994697,138.84266169997863,138.8344787999522,138.83450810005888,138.84266169997863,138.84266169997863,138.84266169997863,143.82362240017392,144.1500145001337,left,1.0,94.61923959990963,,144.15063829999417,144.15977889997885,144.65070350002495,144.65822500013746,,,,,,,,,,,,,,,,,,,,,,,,,,sub-018,1.0,random_dot,119.86972531619566,
right,right,,9.0,0.0,18.0,1.0,,,,,,,,,144.65822500013746,,,,,,,,,144.65131740015931,145.84151319996454,146.63320849998854,146.62527070008218,146.6252955000382,146.63320849998854,146.63320849998854,146.63320849998854,151.6151873001363,151.9754566999618,left,0.0,94.65419549983926,,151.97598430002108,151.98464910010807,152.47602170007303,152.4831093000248,,,,,,,,,,,,,,,,,,,,,,,,,,sub-018,1.0,random_dot,119.86972531619566,
left,left,,9.0,1.0,19.0,0.0,,,,,,,,,152.4831093000248,,,,,,,,,152.4765576000791,153.27437440003268,154.06644419999793,154.0574378001038,154.05745960003696,154.06644419999793,154.06644419999793,154.06644419999793,159.04985609999858,159.35923340008594,left,1.0,94.60981499985792,,159.35986830014735,159.36931070010178,159.85904530016705,159.86643519997597,,,,,,,,,,,,,,,,,,,,,,,,,,sub-018,1.0,random_dot,119.86972531619566,
,,,,,,,,,,,,,,,,,,,,,,,,,,,,,,,,,,,,,,,,,,159.85910940007307,159.86643519997597,159.86643519997597,192.8020609000232,space,122.25085699977352,,,,,,,,,,,,,,,,,,,,sub-018,1.0,random_dot,119.86972531619566,
,,,,,,,,,,,,,,,,,,,,,,,,,,,,,,,,,,,,,,,,,,,,,,,,,192.80210350011475,192.809137100121,192.809137100121,197.8418128001504,space,94.34694550000133,,,,,,,,,,,,,sub-018,1.0,random_dot,119.86972531619566,
right,right,accuracy,,,,,0.0,0.0,0.0,0.0,0.0,0.0,0.0,1.0,209.77338539995253,,,,,,,,,209.7690076001454,210.55787539994344,211.35814320016647,211.350336200092,211.3503658999689,211.35814320016647,211.35814320016647,211.35814320016647,216.339797800174,216.8089833999984,left,0.0,94.76812329981476,,,,,,,,,,,,,,,,,,,,197.84675210015848,197.87035139999352,197.87035139999352,209.75922810006887,space,101.20516499993391,,,,,,sub-018,1.0,random_dot,119.86972531619566,
left,left,accuracy,,,,,0.0,0.0,0.0,0.0,0.0,1.0,1.0,0.0,216.81574900005944,,,,,,,,,216.8103635001462,217.6082077000756,218.40011369995773,218.39193350006823,218.39196090004407,218.40011369995773,218.40011369995773,218.40011369995773,223.38263620017096,224.3940058001317,right,0.0,95.31176509987564,,,,,,,,,,,,,,,,,,,,,,,,,,,,,,,sub-018,1.0,random_dot,119.86972531619566,
left,left,accuracy,,,,,0.0,0.0,0.0,0.0,1.0,0.0,2.0,0.0,224.39992510015145,,,,,,,,,224.39566459995692,225.1920326000545,225.9820964001119,225.97514490014876,225.9751691999845,225.9820964001119,225.9820964001119,225.9820964001119,230.96655390015803,231.35140829999,right,0.0,94.68527499982156,,,,,,,,,,,,,,,,,,,,,,,,,,,,,,,sub-018,1.0,random_dot,119.86972531619566,
right,right,accuracy,,,,,0.0,0.0,0.0,0.0,1.0,1.0,3.0,1.0,231.3583454999607,,,,,,,,,231.35248890006915,232.14934889995493,232.9420682000928,232.9336892999709,232.9337186999619,232.9420682000928,232.9420682000928,232.9420682000928,237.9244413000997,238.2602240999695,right,1.0,94.63115819985978,,,,,,,,,,,,,,,,,,,,,,,,,,,,,,,sub-018,1.0,random_dot,119.86972531619566,
right,right,accuracy,,,,,0.0,0.0,0.0,0.0,2.0,0.0,4.0,1.0,238.27327440003864,,,,,,,,,238.2619344000705,238.3584321001545,239.1506952000782,239.1421906000469,239.142249800032,239.1506952000782,239.1506952000782,239.1506952000782,244.14128360012543,244.83446829998863,right,1.0,94.99747729999945,,,,,,,,,,,,,,,,,,,,,,,,,,,,,,,sub-018,1.0,random_dot,119.86972531619566,
left,left,accuracy,,,,,0.0,0.0,0.0,0.0,2.0,1.0,5.0,0.0,244.84104870003648,,,,,,,,,244.8356433000881,246.0325164000969,246.82473889994435,246.81719080009495,246.8172176000662,246.82473889994435,246.82473889994435,246.82473889994435,251.8160949000157,252.17549760011025,left,1.0,94.66759569989516,,,,,,,,,,,,,,,,,,,,,,,,,,,,,,,sub-018,1.0,random_dot,119.86972531619566,
right,right,accuracy,,,,,0.0,0.0,0.0,0.0,3.0,0.0,6.0,1.0,252.182734800037,,,,,,,,,252.17652360000648,252.5255061001517,253.3171020001173,253.3089761999436,253.30902509996668,253.3171020001173,253.3171020001173,253.3171020001173,258.30771940015256,258.65053800004534,right,1.0,94.647409199737,,,,,,,,,,,,,,,,,,,,,,,,,,,,,,,sub-018,1.0,random_dot,119.86972531619566,
left,left,accuracy,,,,,0.0,0.0,0.0,0.0,3.0,1.0,7.0,0.0,258.658293500077,,,,,,,,,258.65160270011984,258.7482674000785,259.5411839000881,259.53349620010704,259.5335254000965,259.5411839000881,259.5411839000881,259.5411839000881,264.524363799952,264.95965229999274,left,1.0,94.73476530006155,,,,,,,,,,,,,,,,,,,,,,,,,,,,,,,sub-018,1.0,random_dot,119.86972531619566,
left,left,accuracy,,,,,0.0,0.0,0.0,0.0,4.0,0.0,8.0,0.0,264.9658474000171,,,,,,,,,264.9607143001631,265.30875620013103,266.10805750009604,266.1005220001098,266.1005453001708,266.10805750009604,266.10805750009604,266.10805750009604,271.0988760001492,271.4271668000147,left,1.0,94.63586969976312,,,,,,,,,,,,,,,,,,,,,,,,,,,,,,,sub-018,1.0,random_dot,119.86972531619566,
right,right,accuracy,,,,,0.0,0.0,0.0,0.0,4.0,1.0,9.0,1.0,271.43343790015206,,,,,,,,,271.42878700001165,272.6243296000175,273.4158783000894,273.40809509996325,273.40812589996494,273.4158783000894,273.4158783000894,273.4158783000894,278.3983076000586,278.76828230009414,right,1.0,94.66513119987212,,,,,,,,,,,,,,,,,,,,,,,,,,,,,,,sub-018,1.0,random_dot,119.86972531619566,
left,left,accuracy,,,,,0.0,0.0,0.0,0.0,5.0,0.0,10.0,0.0,278.7758309999481,,,,,,,,,278.76964860013686,279.9653759000357,280.75703099998645,280.75008839997463,280.7501115000341,280.75703099998645,280.75703099998645,280.75703099998645,285.7406971999444,286.32578189997,left,1.0,94.88609659974465,,,,,,,,,,,,,,,,,,,,,,,,,,,,,,,sub-018,1.0,random_dot,119.86972531619566,
right,right,accuracy,,,,,0.0,0.0,0.0,0.0,5.0,1.0,11.0,1.0,286.333163500065,,,,,,,,,286.3269251000602,286.42469649994746,287.21594140003435,287.2082080000546,287.2082325001247,287.21594140003435,287.21594140003435,287.21594140003435,,292.009648400126,right,1.0,94.11127509991638,,,,,,,,,,,,,,,,,,,,,,,,,,,,,,,sub-018,1.0,random_dot,119.86972531619566,
right,right,accuracy,,,,,0.0,0.0,0.0,0.0,6.0,0.0,12.0,1.0,292.01570540014654,,,,,,,,,292.0106742000208,292.8071125000715,293.5996912000701,293.59195640007965,293.59198429994285,293.5996912000701,293.5996912000701,293.5996912000701,298.5816532999743,298.9765670001507,right,1.0,94.6944557998795,,,,,,,,,,,,,,,,,,,,,,,,,,,,,,,sub-018,1.0,random_dot,119.86972531619566,
left,left,accuracy,,,,,0.0,0.0,0.0,0.0,6.0,1.0,13.0,0.0,298.98334000003524,,,,,,,,,298.97843090002425,299.07406530017033,299.8654442001134,299.8583064000122,299.8583309000824,299.8654442001134,299.8654442001134,299.8654442001134,304.8481729000341,305.5014822001104,left,1.0,94.9460736999754,,,,,,,,,,,,,,,,,,,,,,,,,,,,,,,sub-018,1.0,random_dot,119.86972531619566,
right,right,accuracy,,,,,0.0,0.0,0.0,0.0,7.0,0.0,14.0,1.0,305.5072602999862,,,,,,,,,305.5025710000191,305.8493936001323,306.64151079999283,306.63340310007334,306.63343160017394,306.64151079999283,306.64151079999283,306.64151079999283,311.6248945000116,312.00160349998623,left,0.0,94.67145969998091,,,,,,,,,,,,,,,,,,,,,,,,,,,,,,,sub-018,1.0,random_dot,119.86972531619566,
left,left,accuracy,,,,,0.0,0.0,0.0,0.0,7.0,1.0,15.0,0.0,312.00813790014945,,,,,,,,,312.0030044999439,313.1991984001361,313.9914524999913,313.9833963001147,313.98342750011943,313.9914524999913,313.9914524999913,313.9914524999913,318.9826393001713,319.33476430014707,right,0.0,94.66114420001396,,,,,,,,,,,,,,,,,,,,,,,,,,,,,,,sub-018,1.0,random_dot,119.86972531619566,
right,right,accuracy,,,,,0.0,0.0,0.0,0.0,8.0,0.0,16.0,1.0,319.34121590014547,,,,,,,,,319.33599380007945,319.43229999998584,320.22418140014634,320.21575880004093,320.2158103999682,320.22418140014634,320.22418140014634,320.22418140014634,325.2075422999915,325.84251400013454,left,0.0,94.9323615997564,,,,,,,,,,,,,,,,,,,,,,,,,,,,,,,sub-018,1.0,random_dot,119.86972531619566,
left,left,accuracy,,,,,0.0,0.0,0.0,0.0,8.0,1.0,17.0,0.0,325.8494021000806,,,,,,,,,325.8435876001604,325.94083910016343,326.73169860010967,326.7245330000296,326.72457089996897,326.73169860010967,326.73169860010967,326.73169860010967,331.7145297001116,332.0600755000487,left,1.0,94.6414326999802,,,,,,,,,,,,,,,,,,,,,,,,,,,,,,,sub-018,1.0,random_dot,119.86972531619566,
left,left,accuracy,,,,,0.0,0.0,0.0,0.0,9.0,0.0,18.0,0.0,332.0670690999832,,,,,,,,,332.06234670011327,332.8572700000368,333.64961039996706,333.6420333001297,333.642076499993,333.64961039996706,333.64961039996706,333.64961039996706,338.640796800144,339.05034180008806,right,0.0,94.71210039989091,,,,,,,,,,,,,,,,,,,,,,,,,,,,,,,sub-018,1.0,random_dot,119.86972531619566,
right,right,accuracy,,,,,0.0,0.0,0.0,0.0,9.0,1.0,19.0,1.0,339.05733630014583,,,,,,,,,339.05147009994835,339.8490210000891,340.6403431999497,340.6328664000612,340.63289360003546,340.6403431999497,340.6403431999497,340.6403431999497,345.62330470001325,346.44212180003524,right,1.0,95.11891869991086,,,,,,,,,,,,,,,,,,,,,,,,,,,,,,,sub-018,1.0,random_dot,119.86972531619566,
right,right,accuracy,,,,,0.0,0.0,0.0,0.0,10.0,0.0,20.0,1.0,346.4489317000844,,,,,,,,,346.443325500004,346.5398641000502,347.3332551999483,347.32488279999234,347.324912100099,347.3332551999483,347.3332551999483,347.3332551999483,352.3155466001481,352.65721289999783,right,1.0,94.6368808997795,,,,,,,,,,,,,,,,,,,,,,,,,,,,,,,sub-018,1.0,random_dot,119.86972531619566,
left,left,accuracy,,,,,0.0,0.0,0.0,0.0,10.0,1.0,21.0,0.0,352.66553430003114,,,,,,,,,352.6582625999581,353.849015600048,354.6402321001515,354.6330156000331,354.6330422000028,354.6402321001515,354.6402321001515,354.6402321001515,,359.3179949000478,left,1.0,93.9945129000116,,,,,,,,,,,,,,,,,,,,,,,,,,,,,,,sub-018,1.0,random_dot,119.86972531619566,
left,left,accuracy,,,,,0.0,0.0,0.0,0.0,11.0,0.0,22.0,0.0,359.3238910001237,,,,,,,,,359.3190490000416,359.41453150007874,360.20842340006493,360.19976610015146,360.1998008999508,360.20842340006493,360.20842340006493,360.20842340006493,365.1905758001376,365.2669558001217,right,0.0,94.37341879983433,,,,,,,,,,,,,,,,,,,,,,,,,,,,,,,sub-018,1.0,random_dot,119.86972531619566,
right,right,accuracy,,,,,0.0,0.0,0.0,0.0,11.0,1.0,23.0,1.0,365.2734821001068,,,,,,,,,365.2680637000594,365.3656770000234,366.15715100010857,366.14958330011,366.149614199996,366.15715100010857,366.15715100010857,366.15715100010857,371.14056070009246,372.2003699000925,right,1.0,95.35811269981788,,,,,,,,,,,,,,,,,,,,,,,,,,,,,,,sub-018,1.0,random_dot,119.86972531619566,
left,left,accuracy,,,,,0.0,0.0,0.0,0.0,12.0,0.0,24.0,0.0,372.207373399986,,,,,,,,,372.2014580999967,372.5489304000512,373.3407159000635,373.3329179000575,373.3329402999952,373.3407159000635,373.3407159000635,373.3407159000635,378.32359070004895,378.9922406000551,right,0.0,94.9658617998939,,,,,,,,,,,,,,,,,,,,,,,,,,,,,,,sub-018,1.0,random_dot,119.86972531619566,
right,right,accuracy,,,,,0.0,0.0,0.0,0.0,12.0,1.0,25.0,1.0,378.9990597001743,,,,,,,,,378.9933170999866,380.1901712999679,380.9827600000426,380.97483410011046,380.9748611999676,380.9827600000426,380.9827600000426,380.9827600000426,385.9729894001503,386.56683360016905,right,1.0,94.89523429982364,,,,,,,,,,,,,,,,,,,,,,,,,,,,,,,sub-018,1.0,random_dot,119.86972531619566,
left,left,accuracy,,,,,0.0,0.0,0.0,0.0,13.0,0.0,26.0,0.0,386.5727260999847,,,,,,,,,386.5678855001461,387.7671813999768,388.565966400085,388.5581052999478,388.5581358000636,388.565966400085,388.565966400085,388.565966400085,393.55767310014926,394.1918016001582,left,1.0,94.93742719991133,,,,,,,,,,,,,,,,,,,,,,,,,,,,,,,sub-018,1.0,random_dot,119.86972531619566,
right,right,accuracy,,,,,0.0,0.0,0.0,0.0,13.0,1.0,27.0,1.0,394.1986233000644,,,,,,,,,394.1929196000565,394.2905529001728,395.08267080015503,395.0750539000146,395.0750824999996,395.08267080015503,395.08267080015503,395.08267080015503,400.0740998999681,402.52482550009154,left,0.0,96.75706959981471,,,,,,,,,,,,,,,,,,,,,,,,,,,,,,,sub-018,1.0,random_dot,119.86972531619566,
right,right,accuracy,,,,,0.0,0.0,0.0,0.0,14.0,0.0,28.0,1.0,402.5307750999928,,,,,,,,,402.5258893000428,402.8738929000683,403.6657158001326,403.65817760000937,403.6582051001024,403.6657158001326,403.6657158001326,403.6657158001326,408.6570582999848,409.2916566999629,right,1.0,94.9363581999205,,,,,,,,,,,,,,,,,,,,,,,,,,,,,,,sub-018,1.0,random_dot,119.86972531619566,
left,left,accuracy,,,,,0.0,0.0,0.0,0.0,14.0,1.0,29.0,0.0,409.2988961001393,,,,,,,,,409.2929175000172,409.389679600019,410.1821173001081,410.1730939000845,410.1731166001409,410.1821173001081,410.1821173001081,410.1821173001081,,414.8103148001246,left,1.0,93.94066969980486,,,,,,,,,,,,,,,,,,,,,,,,,,,,,,,sub-018,1.0,random_dot,119.86972531619566,
left,left,accuracy,,,,,0.0,0.0,0.0,0.0,15.0,0.0,30.0,0.0,414.8223117000889,,,,,,,,,414.8118378999643,415.15702269994654,415.94905279995874,415.9414129999932,415.9414411999751,415.94905279995874,415.94905279995874,415.94905279995874,,419.10148920002393,right,0.0,92.463494699914,,,,,,,,,,,,,,,,,,,,,,,,,,,,,,,sub-018,1.0,random_dot,119.86972531619566,
right,right,accuracy,,,,,0.0,0.0,0.0,0.0,15.0,1.0,31.0,1.0,419.1082007000223,,,,,,,,,419.1032647001557,419.4487862000242,420.2406792000402,420.2331418001559,420.23316689999774,420.2406792000402,420.2406792000402,420.2406792000402,,422.93328860006295,right,1.0,92.01017130003312,,,,,,,,,,,,,,,,,,,,,,,,,,,,,,,sub-018,1.0,random_dot,119.86972531619566,
right,right,accuracy,,,,,0.0,0.0,0.0,0.0,16.0,0.0,32.0,1.0,422.94077510014176,,,,,,,,,422.9349667001516,423.2823328000959,424.0733755000401,424.0662589001004,424.06628499994986,424.0733755000401,424.0733755000401,424.0733755000401,,428.1152926001232,right,1.0,93.35575079987755,,,,,,,,,,,,,,,,,,,,,,,,,,,,,,,sub-018,1.0,random_dot,119.86972531619566,
left,left,accuracy,,,,,0.0,0.0,0.0,0.0,16.0,1.0,33.0,0.0,428.1234226000961,,,,,,,,,428.1163804000244,428.2067772001028,428.99927440006286,428.9913048001472,428.9913335000165,428.99927440006286,428.99927440006286,428.99927440006286,,433.0493400001433,right,0.0,93.36642959993333,,,,,,,,,,,,,,,,,,,,,,,,,,,,,,,sub-018,1.0,random_dot,119.86972531619566,
right,right,accuracy,,,,,0.0,0.0,0.0,0.0,17.0,0.0,34.0,1.0,433.0557514000684,,,,,,,,,433.0504253001418,433.8426264000591,434.6402662000619,434.63279760000296,434.63282790011726,434.6402662000619,434.6402662000619,434.6402662000619,,438.8088285999838,right,1.0,93.48088509985246,,,,,,,,,,,,,,,,,,,,,,,,,,,,,,,sub-018,1.0,random_dot,119.86972531619566,
left,left,accuracy,,,,,0.0,0.0,0.0,0.0,17.0,1.0,35.0,0.0,438.8151064000558,,,,,,,,,438.8098779001739,440.0069961999543,440.7993839001283,440.7914798001293,440.7915239001159,440.7993839001283,440.7993839001283,440.7993839001283,445.7896178001538,446.58376380009577,right,0.0,95.09773339983076,,,,,,,,,,,,,,,,,,,,,,,,,,,,,,,sub-018,1.0,random_dot,119.86972531619566,
right,right,accuracy,,,,,0.0,0.0,0.0,0.0,18.0,0.0,36.0,1.0,446.5908024001401,,,,,,,,,446.5853037999477,446.6821382001508,447.4740365999751,447.4661463000812,447.4661732001696,447.4740365999751,447.4740365999751,447.4740365999751,,449.3252958001103,right,1.0,91.16660889983176,,,,,,,,,,,,,,,,,,,,,,,,,,,,,,,sub-018,1.0,random_dot,119.86972531619566,
left,left,accuracy,,,,,0.0,0.0,0.0,0.0,18.0,1.0,37.0,0.0,449.3312010001391,,,,,,,,,449.3264220999554,449.67370770010166,450.4660170001444,450.4580622001085,450.458115800051,450.4660170001444,450.4660170001444,450.4660170001444,,451.61627640016377,left,1.0,90.4662024998106,,,,,,,,,,,,,,,,,,,,,,,,,,,,,,,sub-018,1.0,random_dot,119.86972531619566,
right,right,accuracy,,,,,0.0,0.0,0.0,0.0,19.0,0.0,38.0,1.0,451.6221956999507,,,,,,,,,451.61733800009824,452.4154250000138,453.21671970002353,453.2086765000131,453.2087231001351,453.21671970002353,453.21671970002353,453.21671970002353,,455.283080900088,right,1.0,91.38170189992525,,,,,,,,,,,,,,,,,,,,,,,,,,,,,,,sub-018,1.0,random_dot,119.86972531619566,
left,left,accuracy,,,,,0.0,0.0,0.0,0.0,19.0,1.0,39.0,0.0,455.2902147001587,,,,,,,,,455.2842370001599,456.4821646001656,457.281964099966,457.274246300105,457.2742743999697,457.281964099966,457.281964099966,457.281964099966,,461.05735899996944,right,0.0,93.09066220000386,,,,,,,,,,,,,,,,,,,,,,,,,,,,,,,sub-018,1.0,random_dot,119.86972531619566,
left,left,accuracy,,,,,0.0,0.0,0.0,0.0,20.0,0.0,40.0,0.0,461.0649250999559,,,,,,,,,461.0584414999466,461.8492151000537,462.64038530015387,462.63259070017375,462.6326296001207,462.64038530015387,462.64038530015387,462.64038530015387,,465.0824047999922,right,0.0,91.7565684998408,,,,,,,,,,,,,,,,,,,,,,,,,,,,,,,sub-018,1.0,random_dot,119.86972531619566,
right,right,accuracy,,,,,0.0,0.0,0.0,0.0,20.0,1.0,41.0,1.0,465.090031699976,,,,,,,,,465.0836613001302,466.2819632999599,467.0741059000138,467.0660115000792,467.0660405999515,467.0741059000138,467.0741059000138,467.0741059000138,,470.1579927001149,right,1.0,92.4007467997726,,,,,,,,,,,,,,,,,,,,,,,,,,,,,,,sub-018,1.0,random_dot,119.86972531619566,
left,left,accuracy,,,,,0.0,0.0,0.0,0.0,21.0,0.0,42.0,0.0,470.1637782000471,,,,,,,,,470.15909720002674,471.3566487999633,472.14861429994926,472.14078400004655,472.1408110000193,472.14861429994926,472.14861429994926,472.14861429994926,,474.3765621001367,left,1.0,91.5436790997628,,,,,,,,,,,,,,,,,,,,,,,,,,,,,,,sub-018,1.0,random_dot,119.86972531619566,
right,right,accuracy,,,,,0.0,0.0,0.0,0.0,21.0,1.0,43.0,1.0,474.3884422001429,,,,,,,,,474.3781485001091,475.5731502000708,476.3652775001247,476.35758320009336,476.35761009994894,476.3652775001247,476.3652775001247,476.3652775001247,,477.6154603001196,right,1.0,90.5623242999427,,,,,,,,,,,,,,,,,,,,,,,,,,,,,,,sub-018,1.0,random_dot,119.86972531619566,
right,right,accuracy,,,,,0.0,0.0,0.0,0.0,22.0,0.0,44.0,1.0,477.62300200015306,,,,,,,,,477.6165632000193,477.7151685000863,478.5071849999949,478.4996383001562,478.4996658000164,478.5071849999949,478.5071849999949,478.5071849999949,,479.2925664000213,left,0.0,90.10085469973274,,,,,,,,,,,,,,,,,,,,,,,,,,,,,,,sub-018,1.0,random_dot,119.86972531619566,
left,left,accuracy,,,,,0.0,0.0,0.0,0.0,22.0,1.0,45.0,0.0,479.29912660014816,,,,,,,,,479.29385240003467,480.49054990010336,481.2817726000212,481.2740881999489,481.274115400156,481.2817726000212,481.2817726000212,481.2817726000212,,482.1921553001739,right,0.0,90.2217239998281,,,,,,,,,,,,,,,,,,,,,,,,,,,,,,,sub-018,1.0,random_dot,119.86972531619566,
left,left,accuracy,,,,,0.0,0.0,0.0,0.0,23.0,0.0,46.0,0.0,482.1976847001352,,,,,,,,,482.1932622999884,482.9904430001043,483.78202760010026,483.7741938000545,483.7742194000166,483.78202760010026,483.78202760010026,483.78202760010026,,485.4745661001653,right,0.0,91.00666199997067,,,,,,,,,,,,,,,,,,,,,,,,,,,,,,,sub-018,1.0,random_dot,119.86972531619566,
right,right,accuracy,,,,,0.0,0.0,0.0,0.0,23.0,1.0,47.0,1.0,485.481778500136,,,,,,,,,485.4756754001137,485.57357540004887,486.3653717001434,486.3577018999495,486.3577308000531,486.3653717001434,486.3653717001434,486.3653717001434,,488.6666669000406,right,1.0,91.6119018997997,,,,,,,,,,,,,,,,,,,,,,,,,,,,,,,sub-018,1.0,random_dot,119.86972531619566,
right,right,accuracy,,,,,0.0,0.0,0.0,0.0,24.0,0.0,48.0,1.0,488.6734434000682,,,,,,,,,488.667862100061,489.46495230006985,490.2566581000574,490.2491679000668,490.2492015000898,490.2566581000574,490.2566581000574,490.2566581000574,,492.3509448000696,right,1.0,91.40610799985006,,,,,,,,,,,,,,,,,,,,,,,,,,,,,,,sub-018,1.0,random_dot,119.86972531619566,
left,left,accuracy,,,,,0.0,0.0,0.0,0.0,24.0,1.0,49.0,0.0,492.3574032001197,,,,,,,,,492.3524768999778,493.1484648999758,493.94044580007903,493.9322967999615,493.9323242001701,493.94044580007903,493.94044580007903,493.94044580007903,,495.8005207001697,right,0.0,91.17453229986133,,,,,,,,,,,,,,,,,,,,,,,,,,,,,,,sub-018,1.0,random_dot,119.86972531619566,
left,left,accuracy,,,,,0.0,0.0,0.0,0.0,25.0,0.0,50.0,0.0,495.8070129000116,,,,,,,,,495.8016449001152,496.5983480000869,497.3901738000568,497.3826282999944,497.3827037999872,497.3901738000568,497.3901738000568,497.3901738000568,,499.91718650003895,left,1.0,91.84494099998848,,,,,,,,,,,,,,,,,,,,,,,,,,,,,,,sub-018,1.0,random_dot,119.86972531619566,
right,right,accuracy,,,,,0.0,0.0,0.0,0.0,25.0,1.0,51.0,1.0,499.923691400094,,,,,,,,,499.91835410008207,500.2647214999888,501.05671430006623,501.0480186000932,501.0480421001557,501.05671430006623,501.05671430006623,501.05671430006623,,502.0675590001047,right,1.0,90.3273505999241,,,,,,,,,,,,,,,,,,,,,,,,,,,,,,,sub-018,1.0,random_dot,119.86972531619566,
right,right,accuracy,,,,,0.0,0.0,0.0,0.0,26.0,0.0,52.0,1.0,502.074015500024,,,,,,,,,502.0687097001355,503.26530980016105,504.0570680000819,504.0489291001577,504.04895820003,504.0570680000819,504.0570680000819,504.0570680000819,,506.816670600092,right,1.0,92.07581369997934,,,,,,,,,,,,,,,,,,,,,,,,,,,,,,,sub-018,1.0,random_dot,119.86972531619566,
left,left,accuracy,,,,,0.0,0.0,0.0,0.0,26.0,1.0,53.0,0.0,506.8224516001064,,,,,,,,,506.817794600036,506.9147735999432,507.707165800035,507.69950660015456,507.6995357000269,507.707165800035,507.707165800035,507.707165800035,,510.83383400016464,left,1.0,92.43690479989164,,,,,,,,,,,,,,,,,,,,,,,,,,,,,,,sub-018,1.0,random_dot,119.86972531619566,
left,left,accuracy,,,,,0.0,0.0,0.0,0.0,27.0,0.0,54.0,0.0,510.8399847999681,,,,,,,,,510.8349787001498,510.930776800029,511.72429669997655,511.71592250000685,511.7159510999918,511.72429669997655,511.72429669997655,511.72429669997655,,514.9427730001044,left,1.0,92.52994079981,,,,,,,,,,,,,,,,,,,,,,,,,,,,,,,sub-018,1.0,random_dot,119.86972531619566,
right,right,accuracy,,,,,0.0,0.0,0.0,0.0,27.0,1.0,55.0,1.0,514.9495860000607,,,,,,,,,514.9444144000299,516.140223900089,516.9400848001242,516.9328175000846,516.932843600167,516.9400848001242,516.9400848001242,516.9400848001242,,517.8936276000459,right,1.0,90.2640973997768,,,,,,,,,,,,,,,,,,,,,,,,,,,,,,,sub-018,1.0,random_dot,119.86972531619566,
left,left,accuracy,,,,,0.0,0.0,0.0,0.0,28.0,0.0,56.0,0.0,517.9051455000881,,,,,,,,,517.8954400999937,518.69031490013,519.4825500999577,519.4744557000231,519.47448850004,519.4825500999577,519.4825500999577,519.4825500999577,,523.050969999982,left,1.0,92.88438349985518,,,,,,,,,,,,,,,,,,,,,,,,,,,,,,,sub-018,1.0,random_dot,119.86972531619566,
right,right,accuracy,,,,,0.0,0.0,0.0,0.0,28.0,1.0,57.0,1.0,523.0634963000193,,,,,,,,,523.0526302000508,524.2483765999787,525.0482260000426,525.0398244999815,525.0398479001597,525.0482260000426,525.0482260000426,525.0482260000426,,529.0512427000795,right,1.0,93.32049319986254,,,,,,,,,,,,,,,,,,,,,,,,,,,,,,,sub-018,1.0,random_dot,119.86972531619566,
right,right,accuracy,,,,,0.0,0.0,0.0,0.0,29.0,0.0,58.0,1.0,529.0573972000275,,,,,,,,,529.052960800007,529.1483953001443,529.9399993000552,529.9317187999841,529.9317451000679,529.9399993000552,529.9399993000552,529.9399993000552,,533.6013070000336,right,1.0,92.97691619978286,,,,,,,,,,,,,,,,,,,,,,,,,,,,,,,sub-018,1.0,random_dot,119.86972531619566,
left,left,accuracy,,,,,0.0,0.0,0.0,0.0,29.0,1.0,59.0,0.0,533.6134099999908,,,,,,,,,533.6028391001746,533.6981622001622,534.4903484999668,534.4823882000055,534.4824200000148,534.4903484999668,534.4903484999668,534.4903484999668,,538.6898662999738,right,0.0,93.51453329971991,,,,,,,,,,,,,,,,,,,,,,,,,,,,,,,sub-018,1.0,random_dot,119.86972531619566,
,,accuracy,,,,,0.0,0.0,0.0,0.0,,,,,,,,,,,,,,,,,,,,,,,,,,,,,,,,,,,,,,,,,,,,,,,,,,,,,,,,,sub-018,1.0,random_dot,119.86972531619566,
left,left,speed,,,,,0.0,1.0,1.0,1.0,0.0,0.0,0.0,0.0,552.6458521001041,,,,,,,,,552.6418461001012,553.4224106001202,554.215138199972,554.2071198001504,554.2071503000334,554.215138199972,554.215138199972,554.215138199972,,554.7586729000323,right,0.0,89.8544107999187,,,,,,,,,,,,,,,,,,,,538.6908899999689,538.7071762001142,538.7071762001142,552.6313180001453,space,103.2357655998785,,,,,,sub-018,1.0,random_dot,119.86972531619566,
right,right,speed,,,,,0.0,1.0,1.0,1.0,0.0,1.0,1.0,1.0,554.7656187000684,,,,,,,,,554.7604337001685,555.106539899949,555.8981068001594,555.890605899971,555.8906330999453,555.8981068001594,555.8981068001594,555.8981068001594,,556.5240523000248,right,1.0,89.93849450000562,,,,,,,,,,,,,,,,,,,,,,,,,,,,,,,sub-018,1.0,random_dot,119.86972531619566,
right,right,speed,,,,,0.0,1.0,1.0,1.0,1.0,0.0,2.0,1.0,556.531027900055,,,,,,,,,556.5252259999979,557.3230278999545,558.1142283000518,558.1072905999608,558.1073126001284,558.1142283000518,558.1142283000518,558.1142283000518,,559.1995709000621,left,0.0,90.40034129982814,,,,,,,,,,,,,,,,,,,,,,,,,,,,,,,sub-018,1.0,random_dot,119.86972531619566,
left,left,speed,,,,,0.0,1.0,1.0,1.0,1.0,1.0,3.0,0.0,559.2064789000433,,,,,,,,,559.2006535001565,559.9977094000205,560.7905769001227,560.7822485000361,560.782276700018,560.7905769001227,560.7905769001227,560.7905769001227,,561.7249650999438,right,0.0,90.2494798998814,,,,,,,,,,,,,,,,,,,,,,,,,,,,,,,sub-018,1.0,random_dot,119.86972531619566,
right,right,speed,,,,,0.0,1.0,1.0,1.0,2.0,0.0,4.0,1.0,561.7316737000365,,,,,,,,,561.7260924000293,562.073539200006,562.8636744001415,562.8568696000148,562.8568904001731,562.8636744001415,562.8636744001415,562.8636744001415,,564.2087501001079,left,0.0,90.66079419991,,,,,,,,,,,,,,,,,,,,,,,,,,,,,,,sub-018,1.0,random_dot,119.86972531619566,
left,left,speed,,,,,0.0,1.0,1.0,1.0,2.0,1.0,5.0,0.0,564.2148686000146,,,,,,,,,564.2098918999545,564.5563078999985,565.3483746000566,565.3412542000879,565.3413047001231,565.3483746000566,565.3483746000566,565.3483746000566,,566.4671331001446,left,1.0,90.43371469993144,,,,,,,,,,,,,,,,,,,,,,,,,,,,,,,sub-018,1.0,random_dot,119.86972531619566,
right,right,speed,,,,,0.0,1.0,1.0,1.0,3.0,0.0,6.0,1.0,566.4806693000719,,,,,,,,,566.4683595001698,566.5644497999456,567.3572955001146,567.3491416000761,567.3491689001676,567.3572955001146,567.3572955001146,567.3572955001146,,568.19100420014,right,1.0,90.14436749974266,,,,,,,,,,,,,,,,,,,,,,,,,,,,,,,sub-018,1.0,random_dot,119.86972531619566,
left,left,speed,,,,,0.0,1.0,1.0,1.0,3.0,1.0,7.0,0.0,568.1979599001352,,,,,,,,,568.19215300004,568.2888436999638,569.0819590999745,569.0743591000792,569.0743840001523,569.0819590999745,569.0819590999745,569.0819590999745,,569.7748571000993,right,0.0,90.00734449969605,,,,,,,,,,,,,,,,,,,,,,,,,,,,,,,sub-018,1.0,random_dot,119.86972531619566,
right,right,speed,,,,,0.0,1.0,1.0,1.0,4.0,0.0,8.0,1.0,569.781373300124,,,,,,,,,569.7760113000404,570.5731449001469,571.3674417999573,571.358073099982,571.3581099000294,571.3674417999573,571.3674417999573,571.3674417999573,,572.1355276000686,right,1.0,90.08017639978787,,,,,,,,,,,,,,,,,,,,,,,,,,,,,,,sub-018,1.0,random_dot,119.86972531619566,
left,left,speed,,,,,0.0,1.0,1.0,1.0,4.0,1.0,9.0,0.0,572.1469048000872,,,,,,,,,572.1374824000522,572.4811579999514,573.27251540008,573.2655617999844,573.2655875000637,573.27251540008,573.27251540008,573.27251540008,,575.241842500167,left,1.0,91.2797906997148,,,,,,,,,,,,,,,,,,,,,,,,,,,,,,,sub-018,1.0,random_dot,119.86972531619566,
left,left,speed,,,,,0.0,1.0,1.0,1.0,5.0,0.0,10.0,0.0,575.2474650000222,,,,,,,,,575.2429827000014,576.4398404001258,577.2316356000956,577.2239274999592,577.2239560999442,577.2316356000956,577.2316356000956,577.2316356000956,,578.0417820001021,left,1.0,90.12723939982244,,,,,,,,,,,,,,,,,,,,,,,,,,,,,,,sub-018,1.0,random_dot,119.86972531619566,
right,right,speed,,,,,0.0,1.0,1.0,1.0,5.0,1.0,11.0,1.0,578.0475981000345,,,,,,,,,578.0428425001446,579.2389297001064,580.0313622001559,580.0234120001551,580.0234344000928,580.0313622001559,580.0313622001559,580.0313622001559,,581.8932441000361,right,1.0,91.17110249982215,,,,,,,,,,,,,,,,,,,,,,,,,,,,,,,sub-018,1.0,random_dot,119.86972531619566,
right,right,speed,,,,,0.0,1.0,1.0,1.0,6.0,0.0,12.0,1.0,581.899281400023,,,,,,,,,581.8948046001606,582.238817699952,583.0321482999716,583.024031399982,583.0240615999792,583.0321482999716,583.0321482999716,583.0321482999716,,584.3509178000968,left,0.0,90.63648029998876,,,,,,,,,,,,,,,,,,,,,,,,,,,,,,,sub-018,1.0,random_dot,119.86972531619566,
left,left,speed,,,,,0.0,1.0,1.0,1.0,6.0,1.0,13.0,0.0,584.3570294999518,,,,,,,,,584.3524033001158,585.1471667999867,585.9397987001576,585.932368400041,585.9323933001142,585.9397987001576,585.9397987001576,585.9397987001576,,587.4491123000626,left,1.0,90.82288599992172,,,,,,,,,,,,,,,,,,,,,,,,,,,,,,,sub-018,1.0,random_dot,119.86972531619566,
right,right,speed,,,,,0.0,1.0,1.0,1.0,7.0,0.0,14.0,1.0,587.4559228001162,,,,,,,,,587.4501992999576,587.547983400058,588.3400669000112,588.3323562999722,588.3323823001701,588.3400669000112,588.3400669000112,588.3400669000112,,589.2098105000332,left,0.0,90.18535339995287,,,,,,,,,,,,,,,,,,,,,,,,,,,,,,,sub-018,1.0,random_dot,119.86972531619566,
left,left,speed,,,,,0.0,1.0,1.0,1.0,7.0,1.0,15.0,0.0,589.2161123000551,,,,,,,,,589.211444000015,589.556428299984,590.3479465001728,590.3400981000159,590.3401262999978,590.3479465001728,590.3479465001728,590.3479465001728,,591.0588925001211,right,0.0,90.02672469988465,,,,,,,,,,,,,,,,,,,,,,,,,,,,,,,sub-018,1.0,random_dot,119.86972531619566,
right,right,speed,,,,,0.0,1.0,1.0,1.0,8.0,0.0,16.0,1.0,591.0718052000739,,,,,,,,,591.0604340999853,591.8562682999764,592.6487583001144,592.6407175001223,592.6407475001179,592.6487583001144,592.6487583001144,592.6487583001144,,594.0186616000719,right,1.0,90.68576609995216,,,,,,,,,,,,,,,,,,,,,,,,,,,,,,,sub-018,1.0,random_dot,119.86972531619566,
left,left,speed,,,,,0.0,1.0,1.0,1.0,8.0,1.0,17.0,0.0,594.0293827001005,,,,,,,,,594.0204797000624,594.3650786001235,595.1570073999465,595.1490738000721,595.1490989001468,595.1570073999465,595.1570073999465,595.1570073999465,,596.36461160006,left,1.0,90.5142310000956,,,,,,,,,,,,,,,,,,,,,,,,,,,,,,,sub-018,1.0,random_dot,119.86972531619566,
left,left,speed,,,,,0.0,1.0,1.0,1.0,9.0,0.0,18.0,0.0,596.3728128999937,,,,,,,,,596.3658764001448,597.1559184000362,597.9479940000456,597.9392109999899,597.939236999955,597.9479940000456,597.9479940000456,597.9479940000456,,600.7340131001547,left,1.0,92.10346230003051,,,,,,,,,,,,,,,,,,,,,,,,,,,,,,,sub-018,1.0,random_dot,119.86972531619566,
right,right,speed,,,,,0.0,1.0,1.0,1.0,9.0,1.0,19.0,1.0,600.7461185001303,,,,,,,,,600.7351927000564,600.831867299974,601.6234067000914,601.6155638000928,601.6155948999804,601.6234067000914,601.6234067000914,601.6234067000914,,603.775708500063,left,0.0,91.46692029992118,,,,,,,,,,,,,,,,,,,,,,,,,,,,,,,sub-018,1.0,random_dot,119.86972531619566,
left,left,speed,,,,,0.0,1.0,1.0,1.0,10.0,0.0,20.0,0.0,603.7881299001165,,,,,,,,,603.7771829999983,604.9731910000555,605.7645108001307,605.757256400073,605.7573031000793,605.7645108001307,605.7645108001307,605.7645108001307,,607.6746565001085,right,0.0,91.22481119981968,,,,,,,,,,,,,,,,,,,,,,,,,,,,,,,sub-018,1.0,random_dot,119.86972531619566,
right,right,speed,,,,,0.0,1.0,1.0,1.0,10.0,1.0,21.0,1.0,607.6813905001618,,,,,,,,,607.6759443001356,607.7735314001329,608.5651376000606,608.5572632001713,608.5573030000087,608.5651376000606,608.5651376000606,608.5651376000606,,612.8087900001556,right,1.0,93.5602549999021,,,,,,,,,,,,,,,,,,,,,,,,,,,,,,,sub-018,1.0,random_dot,119.86972531619566,
right,right,speed,,,,,0.0,1.0,1.0,1.0,11.0,0.0,22.0,1.0,612.8156040001195,,,,,,,,,612.810169900069,614.0063972000498,614.798542900011,614.7908865001518,614.7909155001398,614.798542900011,614.798542900011,614.798542900011,,618.8180365001317,left,0.0,93.3369244998321,,,,,,,,,,,,,,,,,,,,,,,,,,,,,,,sub-018,1.0,random_dot,119.86972531619566,
left,left,speed,,,,,0.0,1.0,1.0,1.0,11.0,1.0,23.0,0.0,618.8250390000176,,,,,,,,,618.8198526999913,619.6145931000356,620.4074171001557,620.3991939001717,620.3992225001566,620.4074171001557,620.4074171001557,620.4074171001557,,622.6008385999594,left,1.0,91.50715119973756,,,,,,,,,,,,,,,,,,,,,,,,,,,,,,,sub-018,1.0,random_dot,119.86972531619566,
left,left,speed,,,,,0.0,1.0,1.0,1.0,12.0,0.0,24.0,0.0,622.6130715999752,,,,,,,,,622.6024319999851,623.3977276999503,624.190542700002,624.1825006001163,624.1825357000344,624.190542700002,624.190542700002,624.190542700002,,625.6758912000805,right,0.0,90.79587719985284,,,,,,,,,,,,,,,,,,,,,,,,,,,,,,,sub-018,1.0,random_dot,119.86972531619566,
right,right,speed,,,,,0.0,1.0,1.0,1.0,12.0,1.0,25.0,1.0,625.6820753000211,,,,,,,,,625.6781742000021,625.7735946001485,626.5650371001102,626.5575697000604,626.5576015000697,626.5650371001102,626.5650371001102,626.5650371001102,,627.4419317999855,right,1.0,90.18835869990288,,,,,,,,,,,,,,,,,,,,,,,,,,,,,,,sub-018,1.0,random_dot,119.86972531619566,
right,right,speed,,,,,0.0,1.0,1.0,1.0,13.0,0.0,26.0,1.0,627.4484546000604,,,,,,,,,627.4431285001338,628.6395909001585,629.4313193000853,629.4238861000631,629.4239135000389,629.4313193000853,629.4313193000853,629.4313193000853,,631.7663141000085,right,1.0,91.65054239984602,,,,,,,,,,,,,,,,,,,,,,,,,,,,,,,sub-018,1.0,random_dot,119.86972531619566,
left,left,speed,,,,,0.0,1.0,1.0,1.0,13.0,1.0,27.0,0.0,631.7719521000981,,,,,,,,,631.7674257999752,632.1144246000331,632.9086345001124,632.8993365000933,632.8993604001589,632.9086345001124,632.9086345001124,632.9086345001124,,636.1420946000144,right,0.0,92.54373439983463,,,,,,,,,,,,,,,,,,,,,,,,,,,,,,,sub-018,1.0,random_dot,119.86972531619566,
left,left,speed,,,,,0.0,1.0,1.0,1.0,14.0,0.0,28.0,0.0,636.1487939001527,,,,,,,,,636.1436030000914,636.4893286000006,637.2810319999699,637.2734306999482,637.2734517999925,637.2810319999699,637.2810319999699,637.2810319999699,,638.9416096999776,left,1.0,90.97321219998412,,,,,,,,,,,,,,,,,,,,,,,,,,,,,,,sub-018,1.0,random_dot,119.86972531619566,
right,right,speed,,,,,0.0,1.0,1.0,1.0,14.0,1.0,29.0,1.0,638.9470989000984,,,,,,,,,638.9426822999958,640.1392979000229,640.9316531000659,640.9240389999468,640.9240812000353,640.9316531000659,640.9316531000659,640.9316531000659,,642.100766699994,left,0.0,90.48372450005265,,,,,,,,,,,,,,,,,,,,,,,,,,,,,,,sub-018,1.0,random_dot,119.86972531619566,
left,left,speed,,,,,0.0,1.0,1.0,1.0,15.0,0.0,30.0,0.0,642.1129632999655,,,,,,,,,642.1022501001135,642.190454200143,642.9815424999688,642.9741356000304,642.974159900099,642.9815424999688,642.9815424999688,642.9815424999688,,645.4584523001686,left,1.0,91.78762870002538,,,,,,,,,,,,,,,,,,,,,,,,,,,,,,,sub-018,1.0,random_dot,119.86972531619566,
right,right,speed,,,,,0.0,1.0,1.0,1.0,15.0,1.0,31.0,1.0,645.4653845001012,,,,,,,,,645.4600307000801,645.8061381999869,646.5977634000592,646.589399700053,646.5894235000014,646.5977634000592,646.5977634000592,646.5977634000592,,649.2256631001364,left,0.0,91.94544109981508,,,,,,,,,,,,,,,,,,,,,,,,,,,,,,,sub-018,1.0,random_dot,119.86972531619566,
left,left,speed,,,,,0.0,1.0,1.0,1.0,16.0,0.0,32.0,0.0,649.237913500052,,,,,,,,,649.2269834000617,650.4213429000229,651.220953400014,651.20773559995,651.2077667999547,651.220953400014,651.220953400014,651.220953400014,,652.6306116001215,left,1.0,90.71674779988824,,,,,,,,,,,,,,,,,,,,,,,,,,,,,,,sub-018,1.0,random_dot,119.86972531619566,
right,right,speed,,,,,0.0,1.0,1.0,1.0,16.0,1.0,33.0,1.0,652.6391191999428,,,,,,,,,652.6317533000838,653.8227633000351,654.6149136000313,654.6072446999606,654.6072740999516,654.6149136000313,654.6149136000313,654.6149136000313,,656.4000640001614,right,1.0,91.09640329983084,,,,,,,,,,,,,,,,,,,,,,,,,,,,,,,sub-018,1.0,random_dot,119.86972531619566,
right,right,speed,,,,,0.0,1.0,1.0,1.0,17.0,0.0,34.0,1.0,656.4067387999967,,,,,,,,,656.4016444999725,657.5977290000301,658.3894646000117,658.3820748000871,658.382104499964,658.3894646000117,658.3894646000117,658.3894646000117,,659.8621678000782,right,1.0,90.78798919986002,,,,,,,,,,,,,,,,,,,,,,,,,,,,,,,sub-018,1.0,random_dot,119.86972531619566,
left,left,speed,,,,,0.0,1.0,1.0,1.0,17.0,1.0,35.0,0.0,659.8734021000564,,,,,,,,,659.863318500109,660.2060965001583,660.9977188999765,660.9901505000889,660.9901748001575,660.9977188999765,660.9977188999765,660.9977188999765,,662.9669099999592,left,1.0,91.28575329994784,,,,,,,,,,,,,,,,,,,,,,,,,,,,,,,sub-018,1.0,random_dot,119.86972531619566,
left,left,speed,,,,,0.0,1.0,1.0,1.0,18.0,0.0,36.0,0.0,662.9797312000301,,,,,,,,,662.9680920001119,664.1644848000724,664.957079899963,664.9487676001154,664.9487970001064,664.957079899963,664.957079899963,664.957079899963,,665.9839690001681,right,0.0,90.34052199986763,,,,,,,,,,,,,,,,,,,,,,,,,,,,,,,sub-018,1.0,random_dot,119.86972531619566,
right,right,speed,,,,,0.0,1.0,1.0,1.0,18.0,1.0,37.0,1.0,665.9899808000773,,,,,,,,,665.98552080011,666.0806104000658,666.8733419000637,666.8655330999754,666.8655648001004,666.8733419000637,666.8733419000637,666.8733419000637,,668.7088580999989,right,1.0,91.14661659975536,,,,,,,,,,,,,,,,,,,,,,,,,,,,,,,sub-018,1.0,random_dot,119.86972531619566,
left,left,speed,,,,,0.0,1.0,1.0,1.0,19.0,0.0,38.0,0.0,668.7155141001567,,,,,,,,,668.710496700136,669.5060505999718,670.2977494001389,670.2905479001347,670.2905697000679,670.2977494001389,670.2977494001389,670.2977494001389,,672.3653810000978,right,0.0,91.38523790007456,,,,,,,,,,,,,,,,,,,,,,,,,,,,,,,sub-018,1.0,random_dot,119.86972531619566,
right,right,speed,,,,,0.0,1.0,1.0,1.0,19.0,1.0,39.0,1.0,672.3724394999444,,,,,,,,,672.3667594001163,673.564142400166,674.3559745999519,674.3473851999734,674.3474071000237,674.3559745999519,674.3559745999519,674.3559745999519,,675.9746751999483,right,1.0,90.931425599847,,,,,,,,,,,,,,,,,,,,,,,,,,,,,,,sub-018,1.0,random_dot,119.86972531619566,
right,right,speed,,,,,0.0,1.0,1.0,1.0,20.0,0.0,40.0,1.0,675.9802723000757,,,,,,,,,675.9757597001735,677.17272160016,677.965039000148,677.9572948999703,677.9573254000861,677.965039000148,677.965039000148,677.965039000148,,681.4089349000715,right,1.0,92.75459479982965,,,,,,,,,,,,,,,,,,,,,,,,,,,,,,,sub-018,1.0,random_dot,119.86972531619566,
left,left,speed,,,,,0.0,1.0,1.0,1.0,20.0,1.0,41.0,0.0,681.4156631000806,,,,,,,,,681.4106871001422,682.6062152001541,683.3984886000399,683.3905219000299,683.3905497000087,683.3984886000399,683.3984886000399,683.3984886000399,,685.4002277001273,right,0.0,91.31201459979638,,,,,,,,,,,,,,,,,,,,,,,,,,,,,,,sub-018,1.0,random_dot,119.86972531619566,
left,left,speed,,,,,0.0,1.0,1.0,1.0,21.0,0.0,42.0,0.0,685.4068804001436,,,,,,,,,685.4018113000784,686.5975363999605,687.3894847000483,687.3807203001343,687.3807419000659,687.3894847000483,687.3894847000483,687.3894847000483,,690.9335724001285,right,0.0,92.856420799857,,,,,,,,,,,,,,,,,,,,,,,,,,,,,,,sub-018,1.0,random_dot,119.86972531619566,
right,right,speed,,,,,0.0,1.0,1.0,1.0,21.0,1.0,43.0,1.0,690.9403856000863,,,,,,,,,690.9349673001561,691.7309669000097,692.5238096001558,692.5157433000859,692.5157733999658,692.5238096001558,692.5238096001558,692.5238096001558,,693.4090923999902,right,1.0,90.1951235998422,,,,,,,,,,,,,,,,,,,,,,,,,,,,,,,sub-018,1.0,random_dot,119.86972531619566,
right,right,speed,,,,,0.0,1.0,1.0,1.0,22.0,0.0,44.0,1.0,693.4150561001152,,,,,,,,,693.4107387999538,693.7563112999778,694.5493900999427,694.5405201001558,694.540556800086,694.5493900999427,694.5493900999427,694.5493900999427,,696.616835199995,right,1.0,91.37911459989846,,,,,,,,,,,,,,,,,,,,,,,,,,,,,,,sub-018,1.0,random_dot,119.86972531619566,
left,left,speed,,,,,0.0,1.0,1.0,1.0,22.0,1.0,45.0,0.0,696.6233320001047,,,,,,,,,696.6182560001034,697.4144741001073,698.2063100000378,698.1987610000651,698.198787300149,698.2063100000378,698.2063100000378,698.2063100000378,,699.6560941999778,left,1.0,90.7642934997566,,,,,,,,,,,,,,,,,,,,,,,,,,,,,,,sub-018,1.0,random_dot,119.86972531619566,
right,right,speed,,,,,0.0,1.0,1.0,1.0,23.0,0.0,46.0,1.0,699.6642017001286,,,,,,,,,699.6571118000429,700.005004200153,700.797816199949,700.7904427000321,700.7904682999942,700.797816199949,700.797816199949,700.797816199949,,702.481997899944,right,1.0,90.9988188999705,,,,,,,,,,,,,,,,,,,,,,,,,,,,,,,sub-018,1.0,random_dot,119.86972531619566,
left,left,speed,,,,,0.0,1.0,1.0,1.0,23.0,1.0,47.0,0.0,702.4894793001004,,,,,,,,,702.4831161000766,702.8319137999788,703.623450800078,703.6157698000316,703.615804299945,703.623450800078,703.623450800078,703.623450800078,,704.7419769000262,left,1.0,90.4336609998718,,,,,,,,,,,,,,,,,,,,,,,,,,,,,,,sub-018,1.0,random_dot,119.86972531619566,
right,right,speed,,,,,0.0,1.0,1.0,1.0,24.0,0.0,48.0,1.0,704.7544053001329,,,,,,,,,704.7437732000835,705.5389877001289,706.331976500107,706.3234232000541,706.3234433000907,706.331976500107,706.331976500107,706.331976500107,,708.0593195999973,right,1.0,91.04278080002403,,,,,,,,,,,,,,,,,,,,,,,,,,,,,,,sub-018,1.0,random_dot,119.86972531619566,
left,left,speed,,,,,0.0,1.0,1.0,1.0,24.0,1.0,49.0,0.0,708.065649199998,,,,,,,,,708.0611384999938,709.2564793000929,710.0484251000453,710.0405029000249,710.0405322001316,710.0484251000453,710.0484251000453,710.0484251000453,,710.7909530999605,left,1.0,90.05667249974795,,,,,,,,,,,,,,,,,,,,,,,,,,,,,,,sub-018,1.0,random_dot,119.86972531619566,
left,left,speed,,,,,0.0,1.0,1.0,1.0,25.0,0.0,50.0,0.0,710.797848300077,,,,,,,,,710.7920077000745,711.1382961000782,711.930622600019,711.9236620999873,711.9236867001746,711.930622600019,711.930622600019,711.930622600019,,712.899247399997,left,1.0,90.28646509977987,,,,,,,,,,,,,,,,,,,,,,,,,,,,,,,sub-018,1.0,random_dot,119.86972531619566,
right,right,speed,,,,,0.0,1.0,1.0,1.0,25.0,1.0,51.0,1.0,712.9057769000065,,,,,,,,,712.9003266999498,713.697533900151,714.4893025001511,714.4823130001314,714.4823439000174,714.4893025001511,714.4893025001511,714.4893025001511,,716.1764668000396,right,1.0,91.00258319987915,,,,,,,,,,,,,,,,,,,,,,,,,,,,,,,sub-018,1.0,random_dot,119.86972531619566,
left,left,speed,,,,,0.0,1.0,1.0,1.0,26.0,0.0,52.0,0.0,716.1831429000013,,,,,,,,,716.178287900053,716.5227791001089,717.3143262001686,717.306939400034,717.3069709001575,717.3143262001686,717.3143262001686,717.3143262001686,,718.7327543001156,right,0.0,90.72907150001264,,,,,,,,,,,,,,,,,,,,,,,,,,,,,,,sub-018,1.0,random_dot,119.86972531619566,
right,right,speed,,,,,0.0,1.0,1.0,1.0,26.0,1.0,53.0,1.0,718.7386454001535,,,,,,,,,718.733823500108,719.9309323001653,720.722592000151,720.7141694000456,720.7141941001173,720.722592000151,720.722592000151,720.722592000151,,722.1496501001529,left,0.0,90.74497819994576,,,,,,,,,,,,,,,,,,,,,,,,,,,,,,,sub-018,1.0,random_dot,119.86972531619566,
left,left,speed,,,,,0.0,1.0,1.0,1.0,27.0,0.0,54.0,0.0,722.1555776000023,,,,,,,,,722.1506783999503,723.3466521000955,724.1407348001376,724.1321002000477,724.132141500013,724.1407348001376,724.1407348001376,724.1407348001376,,724.9573290999979,left,1.0,90.1276492998004,,,,,,,,,,,,,,,,,,,,,,,,,,,,,,,sub-018,1.0,random_dot,119.86972531619566,
right,right,speed,,,,,0.0,1.0,1.0,1.0,27.0,1.0,55.0,1.0,724.9632497001439,,,,,,,,,724.9583847001195,725.0555863000918,725.847381599946,725.8386005000211,725.8386218999512,725.847381599946,725.847381599946,725.847381599946,,726.6070457999595,left,0.0,90.0743288998492,,,,,,,,,,,,,,,,,,,,,,,,,,,,,,,sub-018,1.0,random_dot,119.86972531619566,
left,left,speed,,,,,0.0,1.0,1.0,1.0,28.0,0.0,56.0,0.0,726.6143668000586,,,,,,,,,726.6081149000674,727.8065504000988,728.5989471999928,728.5905431001447,728.5905737001449,728.5989471999928,728.5989471999928,728.5989471999928,,729.2228092001751,right,0.0,89.94116489985026,,,,,,,,,,,,,,,,,,,,,,,,,,,,,,,sub-018,1.0,random_dot,119.86972531619566,
right,right,speed,,,,,0.0,1.0,1.0,1.0,28.0,1.0,57.0,1.0,729.2309511001222,,,,,,,,,729.2245203000493,730.0227310000919,730.8133487000596,730.805906600086,730.805945500033,730.8133487000596,730.8133487000596,730.8133487000596,,732.1335418999661,left,0.0,90.6298078999389,,,,,,,,,,,,,,,,,,,,,,,,,,,,,,,sub-018,1.0,random_dot,119.86972531619566,
left,left,speed,,,,,0.0,1.0,1.0,1.0,29.0,0.0,58.0,0.0,732.1396179001313,,,,,,,,,732.1349597000517,732.2310616001487,733.0311581999995,733.0231970001478,733.0232228001114,733.0311581999995,733.0311581999995,733.0311581999995,,733.8154659001157,left,1.0,90.0986988998484,,,,,,,,,,,,,,,,,,,,,,,,,,,,,,,sub-018,1.0,random_dot,119.86972531619566,
right,right,speed,,,,,0.0,1.0,1.0,1.0,29.0,1.0,59.0,1.0,733.8226398001425,,,,,,,,,733.8165760000702,734.1641226001084,734.9570375001058,734.9495767999906,734.9496049000882,734.9570375001058,734.9570375001058,734.9570375001058,,735.8649230001029,left,0.0,90.2221598997712,,,,,,,,,,,,,,,,,,,,,,,,,,,,,,,sub-018,1.0,random_dot,119.86972531619566,
,,speed,,,,,0.0,1.0,1.0,1.0,,,,,,,,,,,,,,,,,,,,,,,,,,,,,,,,,,,,,,,,,,,,,,,,,,,,,,,,,sub-018,1.0,random_dot,119.86972531619566,
,,,,,,,,,,,,,,,,,,,,,,,,,,,,,,,,,,,,,,,,,,,,,,,,,,,,,,,,,,,,,,,735.8657878001686,735.8728041001596,740.8639138001017,740.8563604000956,sub-018,,,,
