direction,corrAns,thisN,thisTrialN,thisRepN,respDots.keys,respDots.corr,respDots.rt,respDots.duration,randomInstr,respRandomInstr.keys,respRandomInstr.rt,respRandomInstr.duration,practice_trials.thisRepN,practice_trials.thisTrialN,practice_trials.thisN,practice_trials.thisIndex,instr_trials.thisRepN,instr_trials.thisTrialN,instr_trials.thisN,instr_trials.thisIndex,test_trials.thisRepN,test_trials.thisTrialN,test_trials.thisN,test_trials.thisIndex,thisRow.t,notes,general_instruction.started,textGeneralInstr.started,respGeneralInstr.started,general_instruction.stopped,respGeneralInstr.keys,respGeneralInstr.rt,respGeneralInstr.duration,ITI.started,fixcross.started,fixcross.stopped,ITI.stopped,dots.started,backgroundDots.started,stimulusDots.started,respDots.started,dots.stopped,practice_trials.respDots.keys,practice_trials.respDots.corr,practice_trials.respDots.rt,practice_trials.respDots.duration,feedback.started,textFeedback.started,feedback.stopped,textFeedback.stopped,stimulusDots.stopped,info.started,textInfo.started,keyRespInfo.started,info.stopped,keyRespInfo.keys,keyRespInfo.rt,keyRespInfo.duration,test_instruction.started,textTestInstr.started,respTestInstr.started,test_instruction.stopped,respTestInstr.keys,respTestInstr.rt,respTestInstr.duration,random_instruction.started,textRandomInstr.started,respRandomInstr.started,random_instruction.stopped,instr_trials.respRandomInstr.keys,instr_trials.respRandomInstr.rt,instr_trials.respRandomInstr.duration,test_trials.respDots.keys,test_trials.respDots.corr,test_trials.respDots.rt,test_trials.respDots.duration,goodbye.started,textGoodbye.started,goodbye.stopped,participant,session,expName,frameRate,Unnamed: 87
,,,,,,,,,,,,,,,,,,,,,,,,,,,0.0077120409987401,0.0151513330056332,0.0151513330056332,48.72046183299972,space,48.70242091700493,,,,,,,,,,,,,,,,,,,,,,,,,,,,,,,,,,,,,,,,,,,,,,,,sub-206,1,random_dot,,
right,right,0.0,0.0,0.0,left,0.0,3.824888583010761,,,,,,0.0,0.0,0.0,1.0,,,,,,,,,48.80952358299692,,,,,,,,,48.79858904100547,49.9264019580005,50.72708566600341,50.71198508300586,50.71260450000409,50.72708566600341,50.72708566600341,50.72708566600341,54.56272120799986,left,0.0,3.824888583010761,,54.570353916002205,54.66582504099642,55.06653012499737,,,,,,,,,,,,,,,,,,,,,,,,,,,,,,,sub-206,1,random_dot,,
left,left,1.0,1.0,0.0,left,1.0,3.1985895419929875,,,,,,0.0,1.0,1.0,0.0,,,,,,,,,55.0777694999997,,,,,,,,,55.06698274999508,55.16132825000386,55.953231374995084,55.945451791005326,55.94606220800779,55.953231374995084,55.953231374995084,55.953231374995084,59.16244179100613,left,1.0,3.1985895419929875,,59.167455165996216,59.17700999999943,59.66217525000684,59.6673721660045,,,,,,,,,,,,,,,,,,,,,,,,,,,,,,sub-206,1,random_dot,,
right,right,2.0,0.0,1.0,right,1.0,3.01263445900986,,,,,,1.0,0.0,2.0,1.0,,,,,,,,,59.6673721660045,,,,,,,,,59.66265329100133,60.46123508299934,61.25232879100077,61.24530166600016,61.24587420800526,61.25232879100077,61.25232879100077,61.25232879100077,64.26854474999709,right,1.0,3.01263445900986,,64.26865012499911,64.27648883299844,64.76190549999592,64.76686370800599,,,,,,,,,,,,,,,,,,,,,,,,,,,,,,sub-206,1,random_dot,,
left,left,3.0,1.0,1.0,right,0.0,2.1481587090092944,,,,,,1.0,1.0,3.0,0.0,,,,,,,,,64.76686370800599,,,,,,,,,64.76239187500323,64.86673850000079,65.66078187500534,65.65037887499784,65.65080191599554,65.66078187500534,65.66078187500534,65.66078187500534,67.81282599999395,right,0.0,2.1481587090092944,,67.81544066600327,67.82228016600129,68.31190400000196,68.31692962499801,,,,,,,,,,,,,,,,,,,,,,,,,,,,,,sub-206,1,random_dot,,
left,left,4.0,0.0,2.0,right,0.0,7.309990624999045,,,,,,2.0,0.0,4.0,0.0,,,,,,,,,68.31692962499801,,,,,,,,,68.3123809999961,68.66119283299486,69.452884540995,69.44521620799787,69.44568083299964,69.452884540995,69.452884540995,69.452884540995,76.77575787500245,right,0.0,7.309990624999045,,76.7758748329943,76.78062145800504,77.26764979099971,77.27782333300274,74.4326968749956,,,,,,,,,,,,,,,,,,,,,,,,,,,,,sub-206,1,random_dot,,
right,right,5.0,1.0,2.0,right,1.0,1.0261531669966644,,,,,,2.0,1.0,5.0,1.0,,,,,,,,,77.27782333300274,,,,,,,,,77.26802408299409,77.6168767909985,78.41140641599486,78.40059116600605,78.40103637499851,78.41140641599486,78.41140641599486,78.41140641599486,79.44612312500249,right,1.0,1.0261531669966644,,79.44959950000339,79.45665187500708,79.94499395799357,79.94956545799505,,,,,,,,,,,,,,,,,,,,,,,,,,,,,,sub-206,1,random_dot,,
left,left,6.0,0.0,3.0,left,1.0,1.9475382499949772,,,,,,3.0,0.0,6.0,0.0,,,,,,,,,79.94956545799505,,,,,,,,,79.9453737080039,81.14443737499823,81.93599650000397,81.92862312500074,81.92921704100445,81.93599650000397,81.93599650000397,81.93599650000397,83.88555345800705,left,1.0,1.9475382499949772,,83.88567200000398,83.89305075000448,84.37864529099897,84.38371029100381,,,,,,,,,,,,,,,,,,,,,,,,,,,,,,sub-206,1,random_dot,,
right,right,7.0,1.0,3.0,right,1.0,2.1845833330007736,,,,,,3.0,1.0,7.0,1.0,,,,,,,,,84.38371029100381,,,,,,,,,84.37911629100563,85.18422733299667,85.97767108300468,85.96723266600748,85.96762987499824,85.97767108300468,85.97767108300468,85.97767108300468,88.17178087499633,right,1.0,2.1845833330007736,,88.17188295800588,88.1764934160019,88.66202899999917,88.6670254579949,,,,,,,,,,,,,,,,,,,,,,,,,,,,,,sub-206,1,random_dot,,
left,left,8.0,0.0,4.0,left,1.0,1.1672612080001272,,,,,,4.0,0.0,8.0,0.0,,,,,,,,,88.6670254579949,,,,,,,,,88.66248508299759,88.76643008300744,89.56913975000498,89.56187358300667,89.56243866600562,89.56913975000498,89.56913975000498,89.56913975000498,90.74548912499448,left,1.0,1.1672612080001272,,90.74558000000252,90.75181037500442,91.2452794580022,91.25044108300062,,,,,,,,,,,,,,,,,,,,,,,,,,,,,,sub-206,1,random_dot,,
right,right,9.0,1.0,4.0,right,1.0,1.5144858750136336,,,,,,4.0,1.0,9.0,1.0,,,,,,,,,91.25044108300062,,,,,,,,,91.2457728330046,92.44434724999884,93.23553325000104,93.22854312500569,93.22910075000254,93.23553325000104,93.23553325000104,93.23553325000104,94.75252695800737,right,1.0,1.5144858750136336,,94.7526313749986,94.75980645799427,95.24520883300283,95.25038287500502,,,,,,,,,,,,,,,,,,,,,,,,,,,,,,sub-206,1,random_dot,,
left,left,10.0,0.0,5.0,left,1.0,0.9351889999961712,,,,,,5.0,0.0,10.0,0.0,,,,,,,,,95.25038287500502,,,,,,,,,95.24569229100598,96.4496379159973,97.24423741600184,97.23372987500623,97.2341434580012,97.24423741600184,97.24423741600184,97.24423741600184,98.18428891600342,left,1.0,0.9351889999961712,,98.1844105409982,98.19386666599894,98.67826645799504,98.68307295799605,,,,,,,,,,,,,,,,,,,,,,,,,,,,,,sub-206,1,random_dot,,
right,right,11.0,1.0,5.0,left,0.0,1.269165374993463,,,,,,5.0,1.0,11.0,1.0,,,,,,,,,98.68307295799605,,,,,,,,,98.67876170799718,99.88347004100795,100.67752416600706,100.66710154099565,100.66750258300452,100.67752416600706,100.67752416600706,100.67752416600706,101.95056100000512,left,0.0,1.269165374993463,,101.9531299579976,101.9597294999985,102.44524591599476,102.45049537500016,,,,,,,,,,,,,,,,,,,,,,,,,,,,,,sub-206,1,random_dot,,
right,right,12.0,0.0,6.0,right,1.0,1.567424041000777,,,,,,6.0,0.0,12.0,1.0,,,,,,,,,102.45049537500016,,,,,,,,,102.44574350000768,103.24995633300568,104.0441139159957,104.0336859579984,104.03420925000682,104.0441139159957,104.0441139159957,104.0441139159957,105.62150866599404,right,1.0,1.567424041000777,,105.62427316600224,105.62957474999712,106.11669541599986,106.1275335829996,,,,,,,,,,,,,,,,,,,,,,,,,,,,,,sub-206,1,random_dot,,
left,left,13.0,1.0,6.0,right,0.0,0.99132279198966,,,,,,6.0,1.0,13.0,0.0,,,,,,,,,106.1275335829996,,,,,,,,,106.11706566599604,106.2170400830073,107.01084020800772,107.00019962500664,107.00061662499502,107.01084020800772,107.01084020800772,107.01084020800772,108.0109105409938,right,0.0,0.99132279198966,,108.01341450000471,108.017620041006,108.51147337499424,108.51640241600398,,,,,,,,,,,,,,,,,,,,,,,,,,,,,,sub-206,1,random_dot,,
left,left,14.0,0.0,7.0,left,1.0,2.7015121250005905,,,,,,7.0,0.0,14.0,0.0,,,,,,,,,108.51640241600398,,,,,,,,,108.51197833300104,108.85007145800046,109.64420675000292,109.63361091600382,109.634040541001,109.64420675000292,109.64420675000292,109.64420675000292,112.3514048329962,left,1.0,2.7015121250005905,,112.35423337499378,112.3607924579992,112.84500425000442,112.84975883300648,,,,,,,,,,,,,,,,,,,,,,,,,,,,,,sub-206,1,random_dot,,
right,right,15.0,1.0,7.0,left,0.0,1.7346922080032527,,,,,,7.0,1.0,15.0,1.0,,,,,,,,,112.84975883300648,,,,,,,,,112.84539299999597,114.04969470799551,114.8440857079986,114.83334500000636,114.83375358300692,114.8440857079986,114.8440857079986,114.8440857079986,116.5874197499943,left,0.0,1.7346922080032527,,116.5899992909981,116.61081574999844,117.09428154099442,,,,,,,,,,,,,,,,,,,,,,,,,,,,,,,sub-206,1,random_dot,,
left,left,16.0,0.0,8.0,left,1.0,1.750924500011024,,,,,,8.0,0.0,16.0,0.0,,,,,,,,,117.09960791599588,,,,,,,,,117.09487570800412,117.43350358300086,118.22755970800064,118.21695516600448,118.2174521660054,118.22755970800064,118.22755970800064,118.22755970800064,119.98788258299464,left,1.0,1.750924500011024,,119.99062595800206,119.99634879099904,120.48266762499406,120.4942132080032,,,,,,,,,,,,,,,,,,,,,,,,,,,,,,sub-206,1,random_dot,,
right,right,17.0,1.0,8.0,left,0.0,2.553178540998488,,,,,,8.0,1.0,17.0,1.0,,,,,,,,,120.4942132080032,,,,,,,,,120.48302737499762,120.58327029099746,121.37742162500216,121.36672716599423,121.36713675000648,121.37742162500216,121.37742162500216,121.37742162500216,123.93273662500724,left,0.0,2.553178540998488,,123.93526129100064,123.94291724999492,124.42861537499994,124.4332779999968,,,,,,,,,,,,,,,,,,,,,,,,,,,,,,sub-206,1,random_dot,,
left,left,18.0,0.0,9.0,right,0.0,1.0843262910057092,,,,,,9.0,0.0,18.0,0.0,,,,,,,,,124.4332779999968,,,,,,,,,124.42899000000034,125.62741537499824,126.4194744999986,126.41219929100772,126.41276379099872,126.4194744999986,126.4194744999986,126.4194744999986,127.51202374999411,right,0.0,1.0843262910057092,,127.51211774999685,127.51849783300712,128.01167270800215,128.01661424999477,,,,,,,,,,,,,,,,,,,,,,,,,,,,,,sub-206,1,random_dot,,
right,right,19.0,1.0,9.0,right,1.0,0.0768300410127267,,,,,,9.0,1.0,19.0,1.0,,,,,,,,,128.01661424999477,,,,,,,,,128.01217450000695,128.1107294579997,128.90230633299507,128.89492441600305,128.89547187500284,128.90230633299507,128.90230633299507,128.90230633299507,128.98705641599372,right,1.0,0.0768300410127267,,128.9922441660019,128.996708125007,129.48339295800542,129.49405037499673,,,,,,,,,,,,,,,,,,,,,,,,,,,,,,sub-206,1,random_dot,,
,,,,,,,,,,,,,,,,,,,,,,,,,,,,,,,,,,,,,,,,,,,,,,,,,,,,129.48356216600223,129.49405037499673,129.49405037499673,134.35096716599946,space,4.855012917003478,,,,,,,,,,,,,,,,,,,,,,,sub-206,1,random_dot,,
,,,,,,,,,,,,,,,,,,,,,,,,,,,,,,,,,,,,,,,,,,,,,,,,,,,,,,,,,,,134.35102362500038,134.36074220799492,134.36074220799492,143.8038084160071,space,9.438867167002172,,,,,,,,,,,,,,,,sub-206,1,random_dot,,
left,left,0.0,0.0,0.0,left,1.0,2.142016625002725,,accuracy,space,12.025232792002498,,,,,,0.0,0.0,0.0,0.0,0.0,0.0,0.0,0.0,155.91872383300506,,,,,,,,,155.9146120410005,155.9993660409964,156.8029632079997,156.7953251660074,156.7959807080042,156.8029632079997,156.8029632079997,156.8029632079997,158.95441929099616,,,,,,,,,,,,,,,,,,,,,,,,143.83102700000745,143.8700479580002,143.8700479580002,155.905580000006,space,12.025232792002498,,left,1.0,2.142016625002725,,,,,sub-206,1,random_dot,,
right,right,1.0,1.0,0.0,left,0.0,3.834042208996834,,accuracy,space,12.025232792002498,,,,,,0.0,0.0,0.0,0.0,0.0,1.0,1.0,1.0,158.95937529100047,,,,,,,,,158.95476491599402,159.29954649999854,160.09370100000524,160.08367220799846,160.08408912499726,160.09370100000524,160.09370100000524,160.09370100000524,163.9298713330063,,,,,,,,,,,,,,,,,,,,,,,,,,,,,,,left,0.0,3.834042208996834,,,,,sub-206,1,random_dot,,
left,left,2.0,0.0,1.0,right,0.0,1.0096460829954594,,accuracy,space,12.025232792002498,,,,,,0.0,0.0,0.0,0.0,1.0,0.0,2.0,0.0,163.93646970800182,,,,,,,,,163.93033054099942,165.12726395799837,165.91885316600383,165.91151166599593,165.91207654100435,165.91885316600383,165.91885316600383,165.91885316600383,166.93656124999688,,,,,,,,,,,,,,,,,,,,,,,,,,,,,,,right,0.0,1.0096460829954594,,,,,sub-206,1,random_dot,,
right,right,3.0,1.0,1.0,right,1.0,2.0871298749989364,,accuracy,space,12.025232792002498,,,,,,0.0,0.0,0.0,0.0,1.0,1.0,3.0,1.0,166.9435736250016,,,,,,,,,166.9368875000073,167.28337525000097,168.076786250007,168.0670167079952,168.06745195800613,168.076786250007,168.076786250007,168.076786250007,170.1676169160055,,,,,,,,,,,,,,,,,,,,,,,,,,,,,,,right,1.0,2.0871298749989364,,,,,sub-206,1,random_dot,,
right,right,4.0,0.0,2.0,right,1.0,3.5181654580082977,,accuracy,space,12.025232792002498,,,,,,0.0,0.0,0.0,0.0,2.0,0.0,4.0,1.0,170.1769147909945,,,,,,,,,170.16794924999704,170.96613120799884,171.76047033299983,171.74997445799818,171.7503885000042,171.76047033299983,171.76047033299983,171.76047033299983,175.28649354100344,,,,,,,,,,,,,,,,,,,,,,,,,,,,,,,right,1.0,3.5181654580082977,,,,,sub-206,1,random_dot,,
left,left,5.0,1.0,2.0,right,0.0,2.827999667002586,,accuracy,space,12.025232792002498,,,,,,0.0,0.0,0.0,0.0,2.0,1.0,5.0,0.0,175.2936758750002,,,,,,,,,175.28681283300102,175.38245804100006,176.1771009160002,176.16617650000262,176.1665818330075,176.1771009160002,176.1771009160002,176.1771009160002,179.01219787499576,,,,,,,,,,,,,,,,,,,,,,,,,,,,,,,right,0.0,2.827999667002586,,,,,sub-206,1,random_dot,,
right,right,6.0,0.0,3.0,left,0.0,4.972932040996966,,accuracy,space,12.025232792002498,,,,,,0.0,0.0,0.0,0.0,3.0,0.0,6.0,1.0,179.01910337500158,,,,,,,,,179.01268479099963,179.11075070800143,179.90184999999474,179.89457891600614,179.89513145800447,179.90184999999474,179.90184999999474,179.90184999999474,184.8788503329997,,,,,,,,,184.8856315000012,,,,,,,,,,,,,,,,,,,,,,left,0.0,4.972932040996966,,,,,sub-206,1,random_dot,,
left,left,7.0,1.0,3.0,right,0.0,1.8870781250006985,,accuracy,space,12.025232792002498,,,,,,0.0,0.0,0.0,0.0,3.0,1.0,7.0,0.0,184.8856315000012,,,,,,,,,184.8793090410036,186.07714566600043,186.86824795800203,186.86120745800145,186.86171054099395,186.86824795800203,186.86824795800203,186.86824795800203,188.7623109160049,,,,,,,,,,,,,,,,,,,,,,,,,,,,,,,right,0.0,1.8870781250006985,,,,,sub-206,1,random_dot,,
left,left,8.0,0.0,4.0,left,1.0,2.235111667003366,,accuracy,space,12.025232792002498,,,,,,0.0,0.0,0.0,0.0,4.0,0.0,8.0,0.0,188.76911858300448,,,,,,,,,188.7627843329974,189.56080787499377,190.35260108299556,190.3449151249952,190.34550558299816,190.35260108299556,190.35260108299556,190.35260108299556,192.5961355000036,,,,,,,,,,,,,,,,,,,,,,,,,,,,,,,left,1.0,2.235111667003366,,,,,sub-206,1,random_dot,,
right,right,9.0,1.0,4.0,left,0.0,5.193178540997906,,accuracy,space,12.025232792002498,,,,,,0.0,0.0,0.0,0.0,4.0,1.0,9.0,1.0,192.60321279100023,,,,,,,,,192.5965479160077,192.6936958330043,193.48559237500007,193.4782531660021,193.47895333300403,193.48559237500007,193.48559237500007,193.48559237500007,198.69160091600497,,,,,,,,,198.4658749999944,,,,,,,,,,,,,,,,,,,,,,left,0.0,5.193178540997906,,,,,sub-206,1,random_dot,,
left,left,10.0,0.0,5.0,left,1.0,4.954832916992018,,accuracy,space,12.025232792002498,,,,,,0.0,0.0,0.0,0.0,5.0,0.0,10.0,0.0,198.6959884160024,,,,,,,,,198.69203841600392,199.8832203750062,200.67686312500155,200.66679808299523,200.66727487499884,200.67686312500155,200.67686312500155,200.67686312500155,205.63511104100328,,,,,,,,,,,,,,,,,,,,,,,,,,,,,,,left,1.0,4.954832916992018,,,,,sub-206,1,random_dot,,
right,right,11.0,1.0,5.0,left,0.0,1.2668794580094982,,accuracy,space,12.025232792002498,,,,,,0.0,0.0,0.0,0.0,5.0,1.0,11.0,1.0,205.64249620800547,,,,,,,,,205.6355239580007,205.9828314159968,206.78592616600508,206.77808662499592,206.77879358299836,206.78592616600508,206.78592616600508,206.78592616600508,208.0625104579958,,,,,,,,,,,,,,,,,,,,,,,,,,,,,,,left,0.0,1.2668794580094982,,,,,sub-206,1,random_dot,,
right,right,12.0,0.0,6.0,right,1.0,3.545045458013192,,accuracy,space,12.025232792002498,,,,,,0.0,0.0,0.0,0.0,6.0,0.0,12.0,1.0,208.0697349999973,,,,,,,,,208.0629719580029,208.16069674999744,208.95160304100136,208.94451425000443,208.94508808299724,208.95160304100136,208.95160304100136,208.95160304100136,212.50211562500044,,,,,,,,,,,,,,,,,,,,,,,,,,,,,,,right,1.0,3.545045458013192,,,,,sub-206,1,random_dot,,
left,left,13.0,1.0,6.0,right,0.0,2.2549215420003748,,accuracy,space,12.025232792002498,,,,,,0.0,0.0,0.0,0.0,6.0,1.0,13.0,0.0,212.50944449999952,,,,,,,,,212.50250787500408,213.69924237500527,214.4931122499984,214.48314625000057,214.48359108300065,214.4931122499984,214.4931122499984,214.4931122499984,216.75144941599865,,,,,,,,,,,,,,,,,,,,,,,,,,,,,,,right,0.0,2.2549215420003748,,,,,sub-206,1,random_dot,,
right,right,14.0,0.0,7.0,right,1.0,4.051331333001144,,accuracy,space,12.025232792002498,,,,,,0.0,0.0,0.0,0.0,7.0,0.0,14.0,1.0,216.7589903329936,,,,,,,,,216.7517845830007,217.54942412499804,218.34352858300556,218.33293566599605,218.3333563329943,218.34352858300556,218.34352858300556,218.34352858300556,222.3989645410038,,,,,,,,,,,,,,,,,,,,,,,,,,,,,,,right,1.0,4.051331333001144,,,,,sub-206,1,random_dot,,
left,left,15.0,1.0,7.0,left,1.0,1.8296335409977476,,accuracy,space,12.025232792002498,,,,,,0.0,0.0,0.0,0.0,7.0,1.0,15.0,0.0,222.40988454100443,,,,,,,,,222.39928429099385,223.1994414159999,224.00329608299944,223.994440666007,223.9948232500028,224.00329608299944,224.00329608299944,224.00329608299944,225.8348376659997,,,,,,,,,,,,,,,,,,,,,,,,,,,,,,,left,1.0,1.8296335409977476,,,,,sub-206,1,random_dot,,
left,left,16.0,0.0,8.0,left,1.0,1.2592984169896226,,accuracy,space,12.025232792002498,,,,,,0.0,0.0,0.0,0.0,8.0,0.0,16.0,0.0,225.8422749159945,,,,,,,,,225.83519820800572,227.0258321660076,227.8184289579949,227.8112711249996,227.81171245800212,227.8184289579949,227.8184289579949,227.8184289579949,229.0889849999949,,,,,,,,,,,,,,,,,,,,,,,,,,,,,,,left,1.0,1.2592984169896226,,,,,sub-206,1,random_dot,,
right,right,17.0,1.0,8.0,left,0.0,4.771727375002229,,accuracy,space,12.025232792002498,,,,,,0.0,0.0,0.0,0.0,8.0,1.0,17.0,1.0,229.0928494999971,,,,,,,,,229.08937870799852,229.43243066599825,230.2339341659972,230.22795829099775,230.2283386250056,230.2339341659972,230.2339341659972,230.2339341659972,235.0120276249945,,,,,,,,,,,,,,,,,,,,,,,,,,,,,,,left,0.0,4.771727375002229,,,,,sub-206,1,random_dot,,
left,left,18.0,0.0,9.0,right,0.0,2.455891249992419,,accuracy,space,12.025232792002498,,,,,,0.0,0.0,0.0,0.0,9.0,0.0,18.0,0.0,235.01911875000224,,,,,,,,,235.01247650000727,235.1104378330056,235.90124091600592,235.8941804579954,235.8947407079977,235.90124091600592,235.90124091600592,235.90124091600592,238.36147270799847,,,,,,,,,,,,,,,,,,,,,,,,,,,,,,,right,0.0,2.455891249992419,,,,,sub-206,1,random_dot,,
right,right,19.0,1.0,9.0,right,1.0,5.235362749997876,,accuracy,space,12.025232792002498,,,,,,0.0,0.0,0.0,0.0,9.0,1.0,19.0,1.0,238.3678374580049,,,,,,,,,238.36179825,238.4604942080041,239.25155174999963,239.24434912500143,239.2449092909956,239.25155174999963,239.25155174999963,239.25155174999963,244.4962792909937,,,,,,,,,244.24300845799732,,,,,,,,,,,,,,,,,,,,,,right,1.0,5.235362749997876,,,,,sub-206,1,random_dot,,
right,right,20.0,0.0,10.0,right,1.0,4.134801874999539,,accuracy,space,12.025232792002498,,,,,,0.0,0.0,0.0,0.0,10.0,0.0,20.0,1.0,244.5063093750068,,,,,,,,,244.49717079100083,245.6934858750028,246.48438900000477,246.47736504100607,246.477904415995,246.48438900000477,246.48438900000477,246.48438900000477,250.6286342079984,,,,,,,,,,,,,,,,,,,,,,,,,,,,,,,right,1.0,4.134801874999539,,,,,sub-206,1,random_dot,,
left,left,21.0,1.0,10.0,right,0.0,2.984389249992091,,accuracy,space,12.025232792002498,,,,,,0.0,0.0,0.0,0.0,10.0,1.0,21.0,0.0,250.6353602080053,,,,,,,,,250.6290350000054,250.72706029099936,251.5179259580036,251.5108787909994,251.511450082995,251.5179259580036,251.5179259580036,251.5179259580036,254.51173208300315,,,,,,,,,,,,,,,,,,,,,,,,,,,,,,,right,0.0,2.984389249992091,,,,,sub-206,1,random_dot,,
left,left,22.0,0.0,11.0,left,1.0,1.952729459007969,,accuracy,space,12.025232792002498,,,,,,0.0,0.0,0.0,0.0,11.0,0.0,22.0,0.0,254.5187377080001,,,,,,,,,254.51219033300004,255.3101109160052,256.1011308750021,256.0941581249936,256.0947029579984,256.1011308750021,256.1011308750021,256.1011308750021,258.0614678330021,,,,,,,,,,,,,,,,,,,,,,,,,,,,,,,left,1.0,1.952729459007969,,,,,sub-206,1,random_dot,,
right,right,23.0,1.0,11.0,left,0.0,2.372009500002605,,accuracy,space,12.025232792002498,,,,,,0.0,0.0,0.0,0.0,11.0,1.0,23.0,1.0,258.06782616600685,,,,,,,,,258.06179145800706,258.4101815000031,259.2013192500017,259.19409670800087,259.19466116599506,259.2013192500017,259.2013192500017,259.2013192500017,261.5783093329956,,,,,,,,,,,,,,,,,,,,,,,,,,,,,,,left,0.0,2.372009500002605,,,,,sub-206,1,random_dot,,
right,right,24.0,0.0,12.0,right,1.0,4.326445624988992,,accuracy,space,12.025232792002498,,,,,,0.0,0.0,0.0,0.0,12.0,0.0,24.0,1.0,261.5846633330075,,,,,,,,,261.5786522499984,262.776789208001,263.567919041001,263.560829915994,263.56141170799674,263.567919041001,263.567919041001,263.567919041001,267.89867079100804,,,,,,,,,,,,,,,,,,,,,,,,,,,,,,,right,1.0,4.326445624988992,,,,,sub-206,1,random_dot,,
left,left,25.0,1.0,12.0,left,1.0,3.689521416992648,,accuracy,space,12.025232792002498,,,,,,0.0,0.0,0.0,0.0,12.0,1.0,25.0,0.0,267.9101123330038,,,,,,,,,267.8990287500055,268.24905933300033,269.0513429999992,269.0441685410042,269.0446477910009,269.0513429999992,269.0513429999992,269.0513429999992,272.74527983300504,,,,,,,,,,,,,,,,,,,,,,,,,,,,,,,left,1.0,3.689521416992648,,,,,sub-206,1,random_dot,,
left,left,26.0,0.0,13.0,right,0.0,2.482637375011109,,accuracy,space,12.025232792002498,,,,,,0.0,0.0,0.0,0.0,13.0,0.0,26.0,0.0,272.7516762909945,,,,,,,,,272.7456632079993,273.09252416600066,273.8845604579983,273.87734645800083,273.8779239580035,273.8845604579983,273.8845604579983,273.8845604579983,276.3781040830072,,,,,,,,,,,,,,,,,,,,,,,,,,,,,,,right,0.0,2.482637375011109,,,,,sub-206,1,random_dot,,
right,right,27.0,1.0,13.0,left,0.0,2.872370209006476,,accuracy,space,12.025232792002498,,,,,,0.0,0.0,0.0,0.0,13.0,1.0,27.0,1.0,276.3846946249978,,,,,,,,,276.3784818749991,276.7268627500016,277.5181522079947,277.510741332997,277.51132333300484,277.5181522079947,277.5181522079947,277.5181522079947,280.39442633300496,,,,,,,,,,,,,,,,,,,,,,,,,,,,,,,left,0.0,2.872370209006476,,,,,sub-206,1,random_dot,,
left,left,28.0,0.0,14.0,right,0.0,2.221322582990979,,accuracy,space,12.025232792002498,,,,,,0.0,0.0,0.0,0.0,14.0,0.0,28.0,0.0,280.4008020409965,,,,,,,,,280.3947561660025,281.5933372500004,282.3847475000075,282.37752845800424,282.37806958300644,282.3847475000075,282.3847475000075,282.3847475000075,284.61186637499486,,,,,,,,,,,,,,,,,,,,,,,,,,,,,,,right,0.0,2.221322582990979,,,,,sub-206,1,random_dot,,
right,right,29.0,1.0,14.0,left,0.0,2.6525610420067096,,accuracy,space,12.025232792002498,,,,,,0.0,0.0,0.0,0.0,14.0,1.0,29.0,1.0,284.61849020799855,,,,,,,,,284.61241549999977,284.95999916600704,285.7514014159969,285.74426599999424,285.7447801249946,285.7514014159969,285.7514014159969,285.7514014159969,288.41136183300114,,,,,,,,,,,,,,,,,,,,,,,,,,,,,,,left,0.0,2.6525610420067096,,,,,sub-206,1,random_dot,,
right,right,30.0,0.0,15.0,right,1.0,3.2999657500040485,,accuracy,space,12.025232792002498,,,,,,0.0,0.0,0.0,0.0,15.0,0.0,30.0,1.0,288.4174986660073,,,,,,,,,288.41169704099593,289.2101536249975,290.0012220829958,289.99413004099915,289.9946797080047,290.0012220829958,290.0012220829958,290.0012220829958,293.3111083749973,,,,,,,,,,,,,,,,,,,,,,,,,,,,,,,right,1.0,3.2999657500040485,,,,,sub-206,1,random_dot,,
left,left,31.0,1.0,15.0,left,1.0,3.497512041998561,,accuracy,space,12.025232792002498,,,,,,0.0,0.0,0.0,0.0,15.0,1.0,31.0,0.0,293.317392958008,,,,,,,,,293.3114366249938,294.1098400000046,294.9006937499944,294.89373804100615,294.8942980410065,294.9006937499944,294.9006937499944,294.9006937499944,298.40020074999484,,,,,,,,,,,,,,,,,,,,,,,,,,,,,,,left,1.0,3.497512041998561,,,,,sub-206,1,random_dot,,
right,right,32.0,0.0,16.0,left,0.0,2.9869599169906,,accuracy,space,12.025232792002498,,,,,,0.0,0.0,0.0,0.0,16.0,0.0,32.0,1.0,298.4095180000004,,,,,,,,,298.4005279580015,299.5987453330017,300.39306504100387,300.3828050000011,300.3832299159985,300.39306504100387,300.39306504100387,300.39306504100387,303.3842981659982,,,,,,,,,,,,,,,,,,,,,,,,,,,,,,,left,0.0,2.9869599169906,,,,,sub-206,1,random_dot,,
left,left,33.0,1.0,16.0,right,0.0,3.2689432079932885,,accuracy,space,12.025232792002498,,,,,,0.0,0.0,0.0,0.0,16.0,1.0,33.0,0.0,303.39180145799764,,,,,,,,,303.3847064580041,303.4837449579936,304.28488979100075,304.27762449999864,304.2781519580021,304.28488979100075,304.28488979100075,304.28488979100075,307.5614459579956,,,,,,,,,,,,,,,,,,,,,,,,,,,,,,,right,0.0,3.2689432079932885,,,,,sub-206,1,random_dot,,
left,left,34.0,0.0,17.0,right,0.0,2.2817926249990705,,accuracy,space,12.025232792002498,,,,,,0.0,0.0,0.0,0.0,17.0,0.0,34.0,0.0,307.5681662080024,,,,,,,,,307.5618679580075,307.9096466250048,308.70102458300244,308.6938309160032,308.6944269579981,308.70102458300244,308.70102458300244,308.70102458300244,310.994154333006,,,,,,,,,,,,,,,,,,,,,,,,,,,,,,,right,0.0,2.2817926249990705,,,,,sub-206,1,random_dot,,
right,right,35.0,1.0,17.0,left,0.0,2.442078167005093,,accuracy,space,12.025232792002498,,,,,,0.0,0.0,0.0,0.0,17.0,1.0,35.0,1.0,310.99830950000614,,,,,,,,,310.99451233299624,311.0816254999954,311.8764779579942,311.8656923329981,311.8660858329968,311.8764779579942,311.8764779579942,311.8764779579942,314.328309250006,,,,,,,,,,,,,,,,,,,,,,,,,,,,,,,left,0.0,2.442078167005093,,,,,sub-206,1,random_dot,,
left,left,36.0,0.0,18.0,left,1.0,3.3562782499939203,,accuracy,space,12.025232792002498,,,,,,0.0,0.0,0.0,0.0,18.0,0.0,36.0,0.0,314.33541250000417,,,,,,,,,314.32881766599894,314.67544725000334,315.467697125001,315.46051575000456,315.4610875000071,315.467697125001,315.467697125001,315.467697125001,318.82761866600777,,,,,,,,,,,,,,,,,,,,,,,,,,,,,,,left,1.0,3.3562782499939203,,,,,sub-206,1,random_dot,,
right,right,37.0,1.0,18.0,left,0.0,4.792856582993409,,accuracy,space,12.025232792002498,,,,,,0.0,0.0,0.0,0.0,18.0,1.0,37.0,1.0,318.83419329099706,,,,,,,,,318.8279394580022,319.6263269159972,320.41831616600393,320.41108020799584,320.41164325000136,320.41831616600393,320.41831616600393,320.41831616600393,325.2161127910076,,,,,,,,,,,,,,,,,,,,,,,,,,,,,,,left,0.0,4.792856582993409,,,,,sub-206,1,random_dot,,
right,right,38.0,0.0,19.0,left,0.0,1.8361094580031927,,accuracy,space,12.025232792002498,,,,,,0.0,0.0,0.0,0.0,19.0,0.0,38.0,1.0,325.226415875004,,,,,,,,,325.2164722909947,325.3144960409991,326.1095456250041,326.0986535830016,326.09906199999386,326.1095456250041,326.1095456250041,326.1095456250041,327.94988625000406,,,,,,,,,,,,,,,,,,,,,,,,,,,,,,,left,0.0,1.8361094580031927,,,,,sub-206,1,random_dot,,
left,left,39.0,1.0,19.0,right,0.0,2.3002977080032,,accuracy,space,12.025232792002498,,,,,,0.0,0.0,0.0,0.0,19.0,1.0,39.0,0.0,327.95977987500373,,,,,,,,,327.9502163750003,328.0482022079959,328.8429832910042,328.8324898330029,328.8329137499968,328.8429832910042,328.8429832910042,328.8429832910042,331.15255054099543,,,,,,,,,,,,,,,,,,,,,,,,,,,,,,,right,0.0,2.3002977080032,,,,,sub-206,1,random_dot,,
left,left,40.0,0.0,20.0,right,0.0,2.1565887499891687,,accuracy,space,12.025232792002498,,,,,,0.0,0.0,0.0,0.0,20.0,0.0,40.0,0.0,331.1596553749987,,,,,,,,,331.1528798329964,331.2483177910035,332.0428201659961,332.0323720000015,332.0327701659989,332.0428201659961,332.0428201659961,332.0428201659961,334.21054429099604,,,,,,,,,,,,,,,,,,,,,,,,,,,,,,,right,0.0,2.1565887499891687,,,,,sub-206,1,random_dot,,
right,right,41.0,1.0,20.0,right,1.0,1.9672088750085093,,accuracy,space,12.025232792002498,,,,,,0.0,0.0,0.0,0.0,20.0,1.0,41.0,1.0,334.2147002080019,,,,,,,,,334.21087599999737,334.5489882910042,335.3428838330001,335.33215483299864,335.33254833299725,335.3428838330001,335.3428838330001,335.3428838330001,337.31186733300274,,,,,,,,,,,,,,,,,,,,,,,,,,,,,,,right,1.0,1.9672088750085093,,,,,sub-206,1,random_dot,,
right,right,42.0,0.0,21.0,left,0.0,1.2552806669991696,,accuracy,space,12.025232792002498,,,,,,0.0,0.0,0.0,0.0,21.0,0.0,42.0,1.0,337.3187494580052,,,,,,,,,337.312381833006,338.1094789159979,338.9001711250021,338.8934487499937,338.8939057079988,338.9001711250021,338.9001711250021,338.9001711250021,340.1612915410078,,,,,,,,,,,,,,,,,,,,,,,,,,,,,,,left,0.0,1.2552806669991696,,,,,sub-206,1,random_dot,,
left,left,43.0,1.0,21.0,left,1.0,2.9228096250008093,,accuracy,space,12.025232792002498,,,,,,0.0,0.0,0.0,0.0,21.0,1.0,43.0,0.0,340.16795116600406,,,,,,,,,340.1617303749954,340.2598823330045,341.0505499580031,341.0438387500035,341.04427425000176,341.0505499580031,341.0505499580031,341.0505499580031,343.97758025000803,,,,,,,,,,,,,,,,,,,,,,,,,,,,,,,left,1.0,2.9228096250008093,,,,,sub-206,1,random_dot,,
left,left,44.0,0.0,22.0,right,0.0,2.089895458004321,,accuracy,space,12.025232792002498,,,,,,0.0,0.0,0.0,0.0,22.0,0.0,44.0,0.0,343.983906916008,,,,,,,,,343.97793079100666,345.1764472500072,345.9678076660057,345.9605260410026,345.96104466599354,345.9678076660057,345.9678076660057,345.9678076660057,348.06133625000075,,,,,,,,,,,,,,,,,,,,,,,,,,,,,,,right,0.0,2.089895458004321,,,,,sub-206,1,random_dot,,
right,right,45.0,1.0,22.0,left,0.0,3.1430675409937976,,accuracy,space,12.025232792002498,,,,,,0.0,0.0,0.0,0.0,22.0,1.0,45.0,1.0,348.06825445800496,,,,,,,,,348.0617834160076,348.8597401659936,349.6512436659977,349.64403629100707,349.6445672080008,349.6512436659977,349.6512436659977,349.6512436659977,352.79981583300105,,,,,,,,,,,,,,,,,,,,,,,,,,,,,,,left,0.0,3.1430675409937976,,,,,sub-206,1,random_dot,,
left,left,46.0,0.0,23.0,left,1.0,1.8676489579956976,,accuracy,space,12.025232792002498,,,,,,0.0,0.0,0.0,0.0,23.0,0.0,46.0,0.0,352.8093836659973,,,,,,,,,352.80014158300764,353.148504583005,353.9430465829937,353.93182979100675,353.9322299159976,353.9430465829937,353.9430465829937,353.9430465829937,355.815695790996,,,,,,,,,,,,,,,,,,,,,,,,,,,,,,,left,1.0,1.8676489579956976,,,,,sub-206,1,random_dot,,
right,right,47.0,1.0,23.0,left,0.0,5.838098499996704,,accuracy,space,12.025232792002498,,,,,,0.0,0.0,0.0,0.0,23.0,1.0,47.0,1.0,355.8262963330053,,,,,,,,,355.81610749999527,355.91461987499497,356.7095459999982,356.699340207997,356.6997414159996,356.7095459999982,356.7095459999982,356.7095459999982,362.5508512499946,,,,,,,,,361.6980655829975,,,,,,,,,,,,,,,,,,,,,,left,0.0,5.838098499996704,,,,,sub-206,1,random_dot,,
left,left,48.0,0.0,24.0,left,1.0,6.026084625002113,,accuracy,space,12.025232792002498,,,,,,0.0,0.0,0.0,0.0,24.0,0.0,48.0,0.0,362.5761224159942,,,,,,,,,362.5514004160068,363.3488065410056,364.1515451659943,364.1441406249942,364.1448532500072,364.1515451659943,364.1515451659943,364.1515451659943,370.1883598330023,,,,,,,,,369.1428317910031,,,,,,,,,,,,,,,,,,,,,,left,1.0,6.026084625002113,,,,,sub-206,1,random_dot,,
right,right,49.0,1.0,24.0,left,0.0,2.2916321249940665,,accuracy,space,12.025232792002498,,,,,,0.0,0.0,0.0,0.0,24.0,1.0,49.0,1.0,370.194434791003,,,,,,,,,370.1889013750042,370.98153312499926,371.77587070800655,371.7657515830069,371.76615554100135,371.77587070800655,371.77587070800655,371.77587070800655,374.07720808300655,,,,,,,,,,,,,,,,,,,,,,,,,,,,,,,left,0.0,2.2916321249940665,,,,,sub-206,1,random_dot,,
left,left,50.0,0.0,25.0,left,1.0,1.983608250011457,,accuracy,space,12.025232792002498,,,,,,0.0,0.0,0.0,0.0,25.0,0.0,50.0,0.0,374.0835758750036,,,,,,,,,374.077545416003,374.8657519999979,375.6676535410079,375.6603907499957,375.66092475000187,375.6676535410079,375.6676535410079,375.6676535410079,377.6607947080047,,,,,,,,,,,,,,,,,,,,,,,,,,,,,,,left,1.0,1.983608250011457,,,,,sub-206,1,random_dot,,
right,right,51.0,1.0,25.0,right,1.0,0.9356817499938188,,accuracy,space,12.025232792002498,,,,,,0.0,0.0,0.0,0.0,25.0,1.0,51.0,1.0,377.6672904580046,,,,,,,,,377.6612221660034,378.8597177079937,379.651017665994,379.6437776660023,379.6443022080057,379.651017665994,379.651017665994,379.651017665994,380.5942266659986,,,,,,,,,,,,,,,,,,,,,,,,,,,,,,,right,1.0,0.9356817499938188,,,,,sub-206,1,random_dot,,
right,right,52.0,0.0,26.0,left,0.0,2.148877249986981,,accuracy,space,12.025232792002498,,,,,,0.0,0.0,0.0,0.0,26.0,0.0,52.0,1.0,380.6008580829948,,,,,,,,,380.594650125,381.3930986250052,382.1844036660041,382.1771998750046,382.1777384159941,382.1844036660041,382.1844036660041,382.1844036660041,384.3441615829943,,,,,,,,,,,,,,,,,,,,,,,,,,,,,,,left,0.0,2.148877249986981,,,,,sub-206,1,random_dot,,
left,left,53.0,1.0,26.0,left,1.0,1.8171987080131655,,accuracy,space,12.025232792002498,,,,,,0.0,0.0,0.0,0.0,26.0,1.0,53.0,0.0,384.350395290996,,,,,,,,,384.3444942909992,385.1430322499946,385.9342843329941,385.9270376659988,385.92756712500704,385.9342843329941,385.9342843329941,385.9342843329941,387.7608970830042,,,,,,,,,,,,,,,,,,,,,,,,,,,,,,,left,1.0,1.8171987080131655,,,,,sub-206,1,random_dot,,
left,left,54.0,0.0,27.0,right,0.0,2.6819874170032563,,accuracy,space,12.025232792002498,,,,,,0.0,0.0,0.0,0.0,27.0,0.0,54.0,0.0,387.7673444999964,,,,,,,,,387.761340875004,388.10963941599766,388.900707000008,388.8936753750022,388.89419525000267,388.900707000008,388.900707000008,388.900707000008,391.5939445830009,,,,,,,,,,,,,,,,,,,,,,,,,,,,,,,right,0.0,2.6819874170032563,,,,,sub-206,1,random_dot,,
right,right,55.0,1.0,27.0,left,0.0,5.765540624997811,,accuracy,space,12.025232792002498,,,,,,0.0,0.0,0.0,0.0,27.0,1.0,55.0,1.0,391.600173083003,,,,,,,,,391.5942617499968,391.94254087499576,392.7341086249944,392.726749458001,392.7273190410051,392.7341086249944,392.7341086249944,392.7341086249944,398.5022252500057,,,,,,,,,397.7142371249938,,,,,,,,,,,,,,,,,,,,,,left,0.0,5.765540624997811,,,,,sub-206,1,random_dot,,
left,left,56.0,0.0,28.0,left,1.0,2.4114454169903183,,accuracy,space,12.025232792002498,,,,,,0.0,0.0,0.0,0.0,28.0,0.0,56.0,0.0,398.51106058299774,,,,,,,,,398.5029084580019,399.2983267499949,400.0930584580056,400.0813617079984,400.0818046659988,400.0930584580056,400.0930584580056,400.0930584580056,402.51089208299527,,,,,,,,,,,,,,,,,,,,,,,,,,,,,,,left,1.0,2.4114454169903183,,,,,sub-206,1,random_dot,,
right,right,57.0,1.0,28.0,left,0.0,1.3788981250108918,,accuracy,space,12.025232792002498,,,,,,0.0,0.0,0.0,0.0,28.0,1.0,57.0,1.0,402.5179789160029,,,,,,,,,402.5114412080002,402.6097985410015,403.4003521249979,403.3934111660056,403.3938581249968,403.4003521249979,403.4003521249979,403.4003521249979,404.7829331249959,,,,,,,,,,,,,,,,,,,,,,,,,,,,,,,left,0.0,1.3788981250108918,,,,,sub-206,1,random_dot,,
left,left,58.0,0.0,29.0,left,1.0,1.3340829579974525,,accuracy,space,12.025232792002498,,,,,,0.0,0.0,0.0,0.0,29.0,0.0,58.0,0.0,404.7912660410075,,,,,,,,,404.78348345799895,404.88119362499856,405.6757217080012,405.6652847499936,405.6657142080076,405.6757217080012,405.6757217080012,405.6757217080012,407.019918416001,,,,,,,,,,,,,,,,,,,,,,,,,,,,,,,left,1.0,1.3340829579974525,,,,,sub-206,1,random_dot,,
right,right,59.0,1.0,29.0,left,0.0,1.860966459003976,,accuracy,space,12.025232792002498,,,,,,0.0,0.0,0.0,0.0,29.0,1.0,59.0,1.0,407.0245657500054,,,,,,,,,407.02026124999975,408.21486254100455,409.0090306659986,408.9982873330009,408.9986989159952,409.0090306659986,409.0090306659986,409.0090306659986,410.877205583005,,,,,,,,,,,,,,,,,,,,,,,,,,,,,,,left,0.0,1.860966459003976,,,,,sub-206,1,random_dot,,
,,0.0,0.0,0.0,,,,,accuracy,space,12.025232792002498,,,,,,0.0,0.0,0.0,0.0,,,,,,,,,,,,,,,,,,,,,,,,,,,,,,,,,,,,,,,,,,,,,,,,,,,,,,,,,,,,sub-206,1,random_dot,,
left,left,0.0,0.0,0.0,left,1.0,0.695469124999363,,speed,space,5.3582818750001024,,,,,,0.0,1.0,1.0,1.0,0.0,0.0,0.0,0.0,416.2852931660018,,,,,,,,,416.2774220410065,416.6153420000046,417.4090128749958,417.3985083330044,417.3989584579977,417.4090128749958,417.4090128749958,417.4090128749958,418.1109421250003,,,,,,,,,,,,,,,,,,,,,,,,410.9010446659959,410.9058384999953,410.9058384999953,416.2665594999999,space,5.3582818750001024,,left,1.0,0.695469124999363,,,,,sub-206,1,random_dot,,
right,right,1.0,1.0,0.0,left,0.0,0.9013387919985688,,speed,space,5.3582818750001024,,,,,,0.0,1.0,1.0,1.0,0.0,1.0,1.0,1.0,418.1182649160037,,,,,,,,,418.1114259159949,419.309044374997,420.100603333005,420.0931552499969,420.0937497499981,420.100603333005,420.100603333005,420.100603333005,421.0109531250055,,,,,,,,,,,,,,,,,,,,,,,,,,,,,,,left,0.0,0.9013387919985688,,,,,sub-206,1,random_dot,,
right,right,2.0,0.0,1.0,left,0.0,1.679094624996651,,speed,space,5.3582818750001024,,,,,,0.0,1.0,1.0,1.0,1.0,0.0,2.0,1.0,421.01755641600175,,,,,,,,,421.0113862910075,422.20928062500025,423.0006307500007,422.9934769999964,422.9940218330012,423.0006307500007,423.0006307500007,423.0006307500007,424.6819780829974,,,,,,,,,,,,,,,,,,,,,,,,,,,,,,,left,0.0,1.679094624996651,,,,,sub-206,1,random_dot,,
left,left,3.0,1.0,1.0,right,0.0,3.4729279999883147,,speed,space,5.3582818750001024,,,,,,0.0,1.0,1.0,1.0,1.0,1.0,3.0,0.0,424.6925478750054,,,,,,,,,424.68249104100687,424.7811238750001,425.57573420800327,425.5650091660064,425.5654240830045,425.57573420800327,425.57573420800327,425.57573420800327,429.0586570000014,,,,,,,,,,,,,,,,,,,,,,,,,,,,,,,right,0.0,3.4729279999883147,,,,,sub-206,1,random_dot,,
right,right,4.0,0.0,2.0,left,0.0,1.113995249994332,,speed,space,5.3582818750001024,,,,,,0.0,1.0,1.0,1.0,2.0,0.0,4.0,1.0,429.0620997499937,,,,,,,,,429.059057749997,429.84811099999934,430.6422398750001,430.6317302079988,430.6321411660029,430.6422398750001,430.6422398750001,430.6422398750001,431.7608459580079,,,,,,,,,,,,,,,,,,,,,,,,,,,,,,,left,0.0,1.113995249994332,,,,,sub-206,1,random_dot,,
left,left,5.0,1.0,2.0,left,1.0,0.8597755000082543,,speed,space,5.3582818750001024,,,,,,0.0,1.0,1.0,1.0,2.0,1.0,5.0,0.0,431.767693457994,,,,,,,,,431.7612874159968,432.9589614160068,433.7507835830038,433.7433304580045,433.74386262500775,433.7507835830038,433.7507835830038,433.7507835830038,434.6157930000045,,,,,,,,,,,,,,,,,,,,,,,,,,,,,,,left,1.0,0.8597755000082543,,,,,sub-206,1,random_dot,,
right,right,6.0,0.0,3.0,right,1.0,2.9599652500037337,,speed,space,5.3582818750001024,,,,,,0.0,1.0,1.0,1.0,3.0,0.0,6.0,1.0,434.6257870410045,,,,,,,,,434.6162185830035,434.709353875005,435.5002387910063,435.4932492499938,435.49382170800527,435.5002387910063,435.5002387910063,435.5002387910063,438.465455166006,,,,,,,,,,,,,,,,,,,,,,,,,,,,,,,right,1.0,2.9599652500037337,,,,,sub-206,1,random_dot,,
left,left,7.0,1.0,3.0,left,1.0,1.912706666989834,,speed,space,5.3582818750001024,,,,,,0.0,1.0,1.0,1.0,3.0,1.0,7.0,0.0,438.475775333005,,,,,,,,,438.4657632909948,438.8149572080001,439.6167109160015,439.6099737909972,439.6104148750019,439.6167109160015,439.6167109160015,439.6167109160015,441.5331349159969,,,,,,,,,,,,,,,,,,,,,,,,,,,,,,,left,1.0,1.912706666989834,,,,,sub-206,1,random_dot,,
left,left,8.0,0.0,4.0,left,1.0,2.0347917079925537,,speed,space,5.3582818750001024,,,,,,0.0,1.0,1.0,1.0,4.0,0.0,8.0,0.0,441.541644500001,,,,,,,,,441.5334647910058,442.731905749999,443.52554933300416,443.5151917080075,443.5155975410016,443.52554933300416,443.52554933300416,443.52554933300416,445.5654280830058,,,,,,,,,,,,,,,,,,,,,,,,,,,,,,,left,1.0,2.0347917079925537,,,,,sub-206,1,random_dot,,
right,right,9.0,1.0,4.0,right,1.0,3.2270006670005387,,speed,space,5.3582818750001024,,,,,,0.0,1.0,1.0,1.0,4.0,1.0,9.0,1.0,445.5757580829959,,,,,,,,,445.56574150000233,446.3647620830016,447.16676220799854,447.1597295410029,447.16028470800666,447.16676220799854,447.16676220799854,447.16676220799854,450.402815458001,,,,,,,,,,,,,,,,,,,,,,,,,,,,,,,right,1.0,3.2270006670005387,,,,,sub-206,1,random_dot,,
left,left,10.0,0.0,5.0,left,1.0,1.402200750002521,,speed,space,5.3582818750001024,,,,,,0.0,1.0,1.0,1.0,5.0,0.0,10.0,0.0,450.40762479099794,,,,,,,,,450.4031322910014,450.4976636250067,451.292209332998,451.2819169160066,451.28233912499854,451.292209332998,451.292209332998,451.292209332998,452.70015020799474,,,,,,,,,,,,,,,,,,,,,,,,,,,,,,,left,1.0,1.402200750002521,,,,,sub-206,1,random_dot,,
right,right,11.0,1.0,5.0,left,0.0,1.6011050829984017,,speed,space,5.3582818750001024,,,,,,0.0,1.0,1.0,1.0,5.0,1.0,11.0,1.0,452.7076250829996,,,,,,,,,452.7004701660044,452.7975977080059,453.59228895799606,453.5815483750048,453.5819508749992,453.59228895799606,453.59228895799606,453.59228895799606,455.2023690409988,,,,,,,,,,,,,,,,,,,,,,,,,,,,,,,left,0.0,1.6011050829984017,,,,,sub-206,1,random_dot,,
left,left,12.0,0.0,6.0,left,1.0,1.1285311249957886,,speed,space,5.3582818750001024,,,,,,0.0,1.0,1.0,1.0,6.0,0.0,12.0,0.0,455.2076590829965,,,,,,,,,455.2026846249937,455.2983627909998,456.0998940410064,456.0931703749957,456.09360937500605,456.0998940410064,456.0998940410064,456.0998940410064,457.2331591249968,,,,,,,,,,,,,,,,,,,,,,,,,,,,,,,left,1.0,1.1285311249957886,,,,,sub-206,1,random_dot,,
right,right,13.0,1.0,6.0,left,0.0,1.154153250012314,,speed,space,5.3582818750001024,,,,,,0.0,1.0,1.0,1.0,6.0,1.0,13.0,1.0,457.2412722080044,,,,,,,,,457.2334852909989,457.58230162500695,458.3839049160015,458.37639737500285,458.37698258299497,458.3839049160015,458.3839049160015,458.3839049160015,459.54357904099743,,,,,,,,,,,,,,,,,,,,,,,,,,,,,,,left,0.0,1.154153250012314,,,,,sub-206,1,random_dot,,
left,left,14.0,0.0,7.0,right,0.0,1.6898767079983372,,speed,space,5.3582818750001024,,,,,,0.0,1.0,1.0,1.0,7.0,0.0,14.0,0.0,459.5499598330061,,,,,,,,,459.5439254579978,459.6421266660036,460.4339397500007,460.4265199999936,460.4270556249976,460.4339397500007,460.4339397500007,460.4339397500007,462.1268694580067,,,,,,,,,,,,,,,,,,,,,,,,,,,,,,,right,0.0,1.6898767079983372,,,,,sub-206,1,random_dot,,
right,right,15.0,1.0,7.0,right,1.0,2.8548493339912966,,speed,space,5.3582818750001024,,,,,,0.0,1.0,1.0,1.0,7.0,1.0,15.0,1.0,462.1332858329988,,,,,,,,,462.1271843330032,462.4756243330048,463.26728641599766,463.2599340830057,463.260447749999,463.26728641599766,463.26728641599766,463.26728641599766,466.1272844579944,,,,,,,,,,,,,,,,,,,,,,,,,,,,,,,right,1.0,2.8548493339912966,,,,,sub-206,1,random_dot,,
right,right,16.0,0.0,8.0,right,1.0,2.7854751249979017,,speed,space,5.3582818750001024,,,,,,0.0,1.0,1.0,1.0,8.0,0.0,16.0,1.0,466.1340557910007,,,,,,,,,466.1276864579995,467.32573708299606,468.117484500006,468.1099302079965,468.1105116249964,468.117484500006,468.117484500006,468.117484500006,470.9102030829963,,,,,,,,,,,,,,,,,,,,,,,,,,,,,,,right,1.0,2.7854751249979017,,,,,sub-206,1,random_dot,,
left,left,17.0,1.0,8.0,left,1.0,2.637404584005708,,speed,space,5.3582818750001024,,,,,,0.0,1.0,1.0,1.0,8.0,1.0,17.0,0.0,470.9165913330071,,,,,,,,,470.91054825000174,471.25910350000777,472.050668958007,472.0431579160068,472.04370141599793,472.050668958007,472.050668958007,472.050668958007,474.69369366600586,,,,,,,,,,,,,,,,,,,,,,,,,,,,,,,left,1.0,2.637404584005708,,,,,sub-206,1,random_dot,,
right,right,18.0,0.0,9.0,left,0.0,2.8482758340105647,,speed,space,5.3582818750001024,,,,,,0.0,1.0,1.0,1.0,9.0,0.0,18.0,1.0,474.70041479100473,,,,,,,,,474.6940440000035,475.4922448750003,476.2836454579956,476.2765434159956,476.27706974999455,476.2836454579956,476.2836454579956,476.2836454579956,479.143816374999,,,,,,,,,,,,,,,,,,,,,,,,,,,,,,,left,0.0,2.8482758340105647,,,,,sub-206,1,random_dot,,
left,left,19.0,1.0,9.0,left,1.0,0.9754476249945584,,speed,space,5.3582818750001024,,,,,,0.0,1.0,1.0,1.0,9.0,1.0,19.0,0.0,479.1505546660046,,,,,,,,,479.1442669579992,480.3420005829976,481.1337575409998,481.1263618329977,481.126814208008,481.1337575409998,481.1337575409998,481.1337575409998,482.1183807079942,,,,,,,,,,,,,,,,,,,,,,,,,,,,,,,left,1.0,0.9754476249945584,,,,,sub-206,1,random_dot,,
left,left,20.0,0.0,10.0,right,0.0,1.2401290419948054,,speed,space,5.3582818750001024,,,,,,0.0,1.0,1.0,1.0,10.0,0.0,20.0,0.0,482.12497762500425,,,,,,,,,482.1187004579988,483.3142547909956,484.1081941250013,484.0979610000068,484.0983909579954,484.1081941250013,484.1081941250013,484.1081941250013,485.3498744579993,,,,,,,,,,,,,,,,,,,,,,,,,,,,,,,right,0.0,1.2401290419948054,,,,,sub-206,1,random_dot,,
right,right,21.0,1.0,10.0,right,1.0,1.6480320830014534,,speed,space,5.3582818750001024,,,,,,0.0,1.0,1.0,1.0,10.0,1.0,21.0,1.0,485.3575244579988,,,,,,,,,485.350192583006,485.4469271660055,486.2420246249967,486.2315179160069,486.2319292909961,486.2420246249967,486.2420246249967,486.2420246249967,487.8938439579943,,,,,,,,,,,,,,,,,,,,,,,,,,,,,,,right,1.0,1.6480320830014534,,,,,sub-206,1,random_dot,,
left,left,22.0,0.0,11.0,right,0.0,2.8614293340069707,,speed,space,5.3582818750001024,,,,,,0.0,1.0,1.0,1.0,11.0,0.0,22.0,0.0,487.9004663749947,,,,,,,,,487.8943170410057,488.6918984160002,489.4834342910035,489.4761321660044,489.4766908750025,489.4834342910035,489.4834342910035,489.4834342910035,492.349795208007,,,,,,,,,,,,,,,,,,,,,,,,,,,,,,,right,0.0,2.8614293340069707,,,,,sub-206,1,random_dot,,
right,right,23.0,1.0,11.0,right,1.0,2.5697237080021296,,speed,space,5.3582818750001024,,,,,,0.0,1.0,1.0,1.0,11.0,1.0,23.0,1.0,492.35744091600645,,,,,,,,,492.3501345410041,492.4466116660042,493.24185958299495,493.2303394159972,493.230741708001,493.24185958299495,493.24185958299495,493.24185958299495,495.8153451249964,,,,,,,,,,,,,,,,,,,,,,,,,,,,,,,right,1.0,2.5697237080021296,,,,,sub-206,1,random_dot,,
right,right,24.0,0.0,12.0,right,1.0,2.451110875001177,,speed,space,5.3582818750001024,,,,,,0.0,1.0,1.0,1.0,12.0,0.0,24.0,1.0,495.8250573330006,,,,,,,,,495.8156636659987,496.6135403329972,497.4086252499983,497.3979637080047,497.39838675000647,497.4086252499983,497.4086252499983,497.4086252499983,499.8684332910052,,,,,,,,,,,,,,,,,,,,,,,,,,,,,,,right,1.0,2.451110875001177,,,,,sub-206,1,random_dot,,
left,left,25.0,1.0,12.0,right,0.0,1.8523925409972437,,speed,space,5.3582818750001024,,,,,,0.0,1.0,1.0,1.0,12.0,1.0,25.0,0.0,499.8740336659976,,,,,,,,,499.8687602910068,499.96391633299936,500.7584374160069,500.7481335000048,500.7485487079976,500.7584374160069,500.7584374160069,500.7584374160069,502.6147786250076,,,,,,,,,,,,,,,,,,,,,,,,,,,,,,,right,0.0,1.8523925409972437,,,,,sub-206,1,random_dot,,
right,right,26.0,0.0,13.0,left,0.0,1.9178796670021256,,speed,space,5.3582818750001024,,,,,,0.0,1.0,1.0,1.0,13.0,0.0,26.0,1.0,502.62508720799815,,,,,,,,,502.615079915995,503.4145081250026,504.2085954159993,504.1975040410034,504.1978986250033,504.2085954159993,504.2085954159993,504.2085954159993,506.13537258299766,,,,,,,,,,,,,,,,,,,,,,,,,,,,,,,left,0.0,1.9178796670021256,,,,,sub-206,1,random_dot,,
left,left,27.0,1.0,13.0,right,0.0,4.8745922500093,,speed,space,5.3582818750001024,,,,,,0.0,1.0,1.0,1.0,13.0,1.0,27.0,0.0,506.1406611660059,,,,,,,,,506.1357209580019,506.2305630000046,507.0251663329982,507.0144634580065,507.0148869999976,507.0251663329982,507.0251663329982,507.0251663329982,511.9086089159973,,,,,,,,,,,,,,,,,,,,,,,,,,,,,,,right,0.0,4.8745922500093,,,,,sub-206,1,random_dot,,
right,right,28.0,0.0,14.0,right,1.0,1.963485792002757,,speed,space,5.3582818750001024,,,,,,0.0,1.0,1.0,1.0,14.0,0.0,28.0,1.0,511.9124190830044,,,,,,,,,511.908956290994,513.0974464159954,513.8920925830025,513.8811805000005,513.8815945829992,513.8920925830025,513.8920925830025,513.8920925830025,515.8605237080046,,,,,,,,,,,,,,,,,,,,,,,,,,,,,,,right,1.0,1.963485792002757,,,,,sub-206,1,random_dot,,
left,left,29.0,1.0,14.0,right,0.0,1.8724236249981916,,speed,space,5.3582818750001024,,,,,,0.0,1.0,1.0,1.0,14.0,1.0,29.0,0.0,515.867254458004,,,,,,,,,515.8609742080007,516.2085751660052,516.9999657080043,516.9928220830043,516.9934017909982,516.9999657080043,516.9999657080043,516.9999657080043,518.8765640409983,,,,,,,,,,,,,,,,,,,,,,,,,,,,,,,right,0.0,1.8724236249981916,,,,,sub-206,1,random_dot,,
right,right,30.0,0.0,15.0,right,1.0,3.797918790995027,,speed,space,5.3582818750001024,,,,,,0.0,1.0,1.0,1.0,15.0,0.0,30.0,1.0,518.8830994580057,,,,,,,,,518.876911415995,518.9754537080007,519.766746082998,519.7593421250058,519.7599233750079,519.766746082998,519.766746082998,519.766746082998,523.5670643750054,,,,,,,,,,,,,,,,,,,,,,,,,,,,,,,right,1.0,3.797918790995027,,,,,sub-206,1,random_dot,,
left,left,31.0,1.0,15.0,left,1.0,2.768756042001769,,speed,space,5.3582818750001024,,,,,,0.0,1.0,1.0,1.0,15.0,1.0,31.0,0.0,523.5739930830023,,,,,,,,,523.567462416002,524.3642046659952,525.1582766250067,525.147840250007,525.1482543330058,525.1582766250067,525.1582766250067,525.1582766250067,527.9326192080043,,,,,,,,,,,,,,,,,,,,,,,,,,,,,,,left,1.0,2.768756042001769,,,,,sub-206,1,random_dot,,
right,right,32.0,0.0,16.0,left,0.0,2.9335040000005392,,speed,space,5.3582818750001024,,,,,,0.0,1.0,1.0,1.0,16.0,0.0,32.0,1.0,527.9405411250045,,,,,,,,,527.9331151660008,528.0326482079981,528.8330051249941,528.8258844579977,528.8263365409948,528.8330051249941,528.8330051249941,528.8330051249941,531.7772187499941,,,,,,,,,,,,,,,,,,,,,,,,,,,,,,,left,0.0,2.9335040000005392,,,,,sub-206,1,random_dot,,
left,left,33.0,1.0,16.0,left,1.0,2.4544529170088936,,speed,space,5.3582818750001024,,,,,,0.0,1.0,1.0,1.0,16.0,1.0,33.0,0.0,531.7843100409955,,,,,,,,,531.7777201660065,531.875070915994,532.6671176249947,532.6593794999935,532.6599192499998,532.6671176249947,532.6671176249947,532.6671176249947,535.1262925409974,,,,,,,,,,,,,,,,,,,,,,,,,,,,,,,left,1.0,2.4544529170088936,,,,,sub-206,1,random_dot,,
left,left,34.0,0.0,17.0,right,0.0,3.497028917001444,,speed,space,5.3582818750001024,,,,,,0.0,1.0,1.0,1.0,17.0,0.0,34.0,0.0,535.1325537079974,,,,,,,,,535.1266136659979,536.3147669159953,537.1084104159963,537.0977507079951,537.0981590409938,537.1084104159963,537.1084104159963,537.1084104159963,540.6094996250031,,,,,,,,,,,,,,,,,,,,,,,,,,,,,,,right,0.0,3.497028917001444,,,,,sub-206,1,random_dot,,
right,right,35.0,1.0,17.0,right,1.0,5.145202624989906,,speed,space,5.3582818750001024,,,,,,0.0,1.0,1.0,1.0,17.0,1.0,35.0,1.0,540.6155978330062,,,,,,,,,540.6098178749962,540.6968552909966,541.4916320829943,541.4810873749957,541.4814929160057,541.4916320829943,541.4916320829943,541.4916320829943,546.6434660829982,,,,,,,,,546.4750477909984,,,,,,,,,,,,,,,,,,,,,,right,1.0,5.145202624989906,,,,,sub-206,1,random_dot,,
right,right,36.0,0.0,18.0,left,0.0,3.360457667004084,,speed,space,5.3582818750001024,,,,,,0.0,1.0,1.0,1.0,18.0,0.0,36.0,1.0,546.6523602499947,,,,,,,,,546.644002999994,546.7417422080034,547.5322333329968,547.5255509999988,547.5260083750036,547.5322333329968,547.5322333329968,547.5322333329968,550.901585707994,,,,,,,,,,,,,,,,,,,,,,,,,,,,,,,left,0.0,3.360457667004084,,,,,sub-206,1,random_dot,,
left,left,37.0,1.0,18.0,left,1.0,1.7097296660067514,,speed,space,5.3582818750001024,,,,,,0.0,1.0,1.0,1.0,18.0,1.0,37.0,0.0,550.907036375007,,,,,,,,,550.9019262079964,552.0973254580022,552.891677749998,552.881021166002,552.8814409579936,552.891677749998,552.891677749998,552.891677749998,554.6097585829993,,,,,,,,,,,,,,,,,,,,,,,,,,,,,,,left,1.0,1.7097296660067514,,,,,sub-206,1,random_dot,,
right,right,38.0,0.0,19.0,left,0.0,1.449106624990236,,speed,space,5.3582818750001024,,,,,,0.0,1.0,1.0,1.0,19.0,0.0,38.0,1.0,554.6161076249991,,,,,,,,,554.6100814999954,554.7082542080025,555.499609874998,555.4925740409963,555.4931122080015,555.499609874998,555.499609874998,555.499609874998,556.958392540997,,,,,,,,,,,,,,,,,,,,,,,,,,,,,,,left,0.0,1.449106624990236,,,,,sub-206,1,random_dot,,
left,left,39.0,1.0,19.0,right,0.0,3.063277790992288,,speed,space,5.3582818750001024,,,,,,0.0,1.0,1.0,1.0,19.0,1.0,39.0,0.0,556.9624444579968,,,,,,,,,556.958714583001,558.147321166005,558.9415275829961,558.9306281250028,558.9310451659985,558.9415275829961,558.9415275829961,558.9415275829961,562.0098975000001,,,,,,,,,,,,,,,,,,,,,,,,,,,,,,,right,0.0,3.063277790992288,,,,,sub-206,1,random_dot,,
left,left,40.0,0.0,20.0,left,1.0,1.7272780000057537,,speed,space,5.3582818750001024,,,,,,0.0,1.0,1.0,1.0,20.0,0.0,40.0,0.0,562.0164292080008,,,,,,,,,562.0102992500033,563.2083866250032,563.9995423329965,563.9924520829954,563.9930137079937,563.9995423329965,563.9995423329965,563.9995423329965,565.7325408330071,,,,,,,,,,,,,,,,,,,,,,,,,,,,,,,left,1.0,1.7272780000057537,,,,,sub-206,1,random_dot,,
right,right,41.0,1.0,20.0,right,1.0,3.1048216670023976,,speed,space,5.3582818750001024,,,,,,0.0,1.0,1.0,1.0,20.0,1.0,41.0,1.0,565.7403170409962,,,,,,,,,565.7328802910051,566.5297612910072,567.3248815830011,567.3141209159949,567.3145337080059,567.3248815830011,567.3248815830011,567.3248815830011,570.4318893750024,,,,,,,,,,,,,,,,,,,,,,,,,,,,,,,right,1.0,3.1048216670023976,,,,,sub-206,1,random_dot,,
left,left,42.0,0.0,21.0,left,1.0,1.1212904160056496,,speed,space,5.3582818750001024,,,,,,0.0,1.0,1.0,1.0,21.0,0.0,42.0,0.0,570.4407423749944,,,,,,,,,570.4322046659945,571.2308880829951,572.0248221250076,572.0140176249988,572.0144332079944,572.0248221250076,572.0248221250076,572.0248221250076,573.1490095000045,,,,,,,,,,,,,,,,,,,,,,,,,,,,,,,left,1.0,1.1212904160056496,,,,,sub-206,1,random_dot,,
right,right,43.0,1.0,21.0,left,0.0,0.8371263329900103,,speed,space,5.3582818750001024,,,,,,0.0,1.0,1.0,1.0,21.0,1.0,43.0,1.0,573.157503541006,,,,,,,,,573.1493489160057,573.9472382910026,574.7415043329966,574.7310777499952,574.7314772499958,574.7415043329966,574.7415043329966,574.7415043329966,575.5817647910008,,,,,,,,,,,,,,,,,,,,,,,,,,,,,,,left,0.0,0.8371263329900103,,,,,sub-206,1,random_dot,,
left,left,44.0,0.0,22.0,right,0.0,2.135301292000804,,speed,space,5.3582818750001024,,,,,,0.0,1.0,1.0,1.0,22.0,0.0,44.0,0.0,575.5910472079995,,,,,,,,,575.5821507910005,575.6794165000028,576.4748844580026,576.4641663749935,576.4645777080004,576.4748844580026,576.4748844580026,576.4748844580026,578.6139631249971,,,,,,,,,,,,,,,,,,,,,,,,,,,,,,,right,0.0,2.135301292000804,,,,,sub-206,1,random_dot,,
right,right,45.0,1.0,22.0,left,0.0,1.0218263750139158,,speed,space,5.3582818750001024,,,,,,0.0,1.0,1.0,1.0,22.0,1.0,45.0,1.0,578.6249910000042,,,,,,,,,578.6142845410068,578.7130896659946,579.5084501660021,579.4975807500014,579.4980011250009,579.5084501660021,579.5084501660021,579.5084501660021,580.5328546249948,,,,,,,,,,,,,,,,,,,,,,,,,,,,,,,left,0.0,1.0218263750139158,,,,,sub-206,1,random_dot,,
left,left,46.0,0.0,23.0,left,1.0,2.063073333003558,,speed,space,5.3582818750001024,,,,,,0.0,1.0,1.0,1.0,23.0,0.0,46.0,0.0,580.5402487079991,,,,,,,,,580.5332693329983,580.6294141249964,581.424857541002,581.4141233749979,581.4145351659972,581.424857541002,581.424857541002,581.424857541002,583.4929028750048,,,,,,,,,,,,,,,,,,,,,,,,,,,,,,,left,1.0,2.063073333003558,,,,,sub-206,1,random_dot,,
right,right,47.0,1.0,23.0,right,1.0,2.047705999997561,,speed,space,5.3582818750001024,,,,,,0.0,1.0,1.0,1.0,23.0,1.0,47.0,1.0,583.4990351659944,,,,,,,,,583.4932230830018,583.5913878749998,584.383005249998,584.375697291005,584.3762597500026,584.383005249998,584.383005249998,584.383005249998,586.4324387499946,,,,,,,,,,,,,,,,,,,,,,,,,,,,,,,right,1.0,2.047705999997561,,,,,sub-206,1,random_dot,,
right,right,48.0,0.0,24.0,left,0.0,1.968940000006114,,speed,space,5.3582818750001024,,,,,,0.0,1.0,1.0,1.0,24.0,0.0,48.0,1.0,586.440190082998,,,,,,,,,586.4329051660025,586.781585165998,587.5844663330063,587.5758787079976,587.5764743330074,587.5844663330063,587.5844663330063,587.5844663330063,589.5596513750061,,,,,,,,,,,,,,,,,,,,,,,,,,,,,,,left,0.0,1.968940000006114,,,,,sub-206,1,random_dot,,
left,left,49.0,1.0,24.0,left,1.0,2.9315847499965457,,speed,space,5.3582818750001024,,,,,,0.0,1.0,1.0,1.0,24.0,1.0,49.0,0.0,589.5659810409998,,,,,,,,,589.5600577909936,590.3583265000052,591.1496005829977,591.1423117499944,591.1428959159966,591.1496005829977,591.1496005829977,591.1496005829977,594.0908835000009,,,,,,,,,,,,,,,,,,,,,,,,,,,,,,,left,1.0,2.9315847499965457,,,,,sub-206,1,random_dot,,
right,right,50.0,0.0,25.0,left,0.0,2.2030684999917867,,speed,space,5.3582818750001024,,,,,,0.0,1.0,1.0,1.0,25.0,0.0,50.0,1.0,594.0943571660027,,,,,,,,,594.0912227910012,595.2805416659976,596.0829889580054,596.0757229159935,596.0762811250024,596.0829889580054,596.0829889580054,596.0829889580054,598.2931447080045,,,,,,,,,,,,,,,,,,,,,,,,,,,,,,,left,0.0,2.2030684999917867,,,,,sub-206,1,random_dot,,
left,left,51.0,1.0,25.0,left,1.0,3.044741499994416,,speed,space,5.3582818750001024,,,,,,0.0,1.0,1.0,1.0,25.0,1.0,51.0,0.0,598.3001565830054,,,,,,,,,598.293637499999,599.491417540994,600.2825331659988,600.2755455410079,600.2761084579979,600.2825331659988,600.2825331659988,600.2825331659988,603.3393953329942,,,,,,,,,,,,,,,,,,,,,,,,,,,,,,,left,1.0,3.044741499994416,,,,,sub-206,1,random_dot,,
right,right,52.0,0.0,26.0,right,1.0,1.6839276669925312,,speed,space,5.3582818750001024,,,,,,0.0,1.0,1.0,1.0,26.0,0.0,52.0,1.0,603.3436350830016,,,,,,,,,603.3397072499938,603.427023915996,604.2245443749998,604.2141007500031,604.2145909999963,604.2245443749998,604.2245443749998,604.2245443749998,605.9105057499983,,,,,,,,,,,,,,,,,,,,,,,,,,,,,,,right,1.0,1.6839276669925312,,,,,sub-206,1,random_dot,,
left,left,53.0,1.0,26.0,right,0.0,2.094797333993484,,speed,space,5.3582818750001024,,,,,,0.0,1.0,1.0,1.0,26.0,1.0,53.0,0.0,605.9176347080065,,,,,,,,,605.911157458002,606.2582540830044,607.0495730410039,607.042216707996,607.0428118330019,607.0495730410039,607.0495730410039,607.0495730410039,609.1494687910017,,,,,,,,,,,,,,,,,,,,,,,,,,,,,,,right,0.0,2.094797333993484,,,,,sub-206,1,random_dot,,
left,left,54.0,0.0,27.0,right,0.0,2.0188652079959866,,speed,space,5.3582818750001024,,,,,,0.0,1.0,1.0,1.0,27.0,0.0,54.0,0.0,609.156753999996,,,,,,,,,609.1498224579991,609.4968774580047,610.2911469579994,610.2809956660058,610.2814437079942,610.2911469579994,610.2911469579994,610.2911469579994,612.3131882909947,,,,,,,,,,,,,,,,,,,,,,,,,,,,,,,right,0.0,2.0188652079959866,,,,,sub-206,1,random_dot,,
right,right,55.0,1.0,27.0,left,0.0,2.485511792008765,,speed,space,5.3582818750001024,,,,,,0.0,1.0,1.0,1.0,27.0,1.0,55.0,1.0,612.3248777499975,,,,,,,,,612.313533624998,613.5138737079978,614.3082270409941,614.2970900000073,614.2974772080051,614.3082270409941,614.3082270409941,614.3082270409941,616.7979437909962,,,,,,,,,,,,,,,,,,,,,,,,,,,,,,,left,0.0,2.485511792008765,,,,,sub-206,1,random_dot,,
left,left,56.0,0.0,28.0,right,0.0,2.513195666993852,,speed,space,5.3582818750001024,,,,,,0.0,1.0,1.0,1.0,28.0,0.0,56.0,0.0,616.8077170000033,,,,,,,,,616.7982704580063,616.8967103750037,617.6996103749989,617.692514291004,617.6929107909964,617.6996103749989,617.6996103749989,617.6996103749989,620.2150923330046,,,,,,,,,,,,,,,,,,,,,,,,,,,,,,,right,0.0,2.513195666993852,,,,,sub-206,1,random_dot,,
right,right,57.0,1.0,28.0,right,1.0,2.9347194580041105,,speed,space,5.3582818750001024,,,,,,0.0,1.0,1.0,1.0,28.0,1.0,57.0,1.0,620.2234107499971,,,,,,,,,620.2155932500027,621.0136525410053,621.8079460830049,621.797014374999,621.7974219580065,621.8079460830049,621.8079460830049,621.8079460830049,624.7508906660078,,,,,,,,,,,,,,,,,,,,,,,,,,,,,,,right,1.0,2.9347194580041105,,,,,sub-206,1,random_dot,,
right,right,58.0,0.0,29.0,left,0.0,2.2108566669921856,,speed,space,5.3582818750001024,,,,,,0.0,1.0,1.0,1.0,29.0,0.0,58.0,1.0,624.7568137909984,,,,,,,,,624.7512157080055,625.0969365409983,625.8910482079955,625.880874666007,625.881285291005,625.8910482079955,625.8910482079955,625.8910482079955,628.1093285829993,,,,,,,,,,,,,,,,,,,,,,,,,,,,,,,left,0.0,2.2108566669921856,,,,,sub-206,1,random_dot,,
left,left,59.0,1.0,29.0,right,0.0,2.847611292003421,,speed,space,5.3582818750001024,,,,,,0.0,1.0,1.0,1.0,29.0,1.0,59.0,0.0,628.1159747909987,,,,,,,,,628.1096436660009,628.2078159999946,628.9995639999979,628.9922871659946,628.9928331249976,628.9995639999979,628.9995639999979,628.9995639999979,631.8493029999954,,,,,,,,,,,,,,,,,,,,,,,,,,,,,,,right,0.0,2.847611292003421,,,,,sub-206,1,random_dot,,
,,1.0,1.0,0.0,,,,,speed,space,5.3582818750001024,,,,,,0.0,1.0,1.0,1.0,,,,,,,,,,,,,,,,,,,,,,,,,,,,,,,,,,,,,,,,,,,,,,,,,,,,,,,,,,,,sub-206,1,random_dot,,
,,,,,,,,,,,,,,,,,,,,,,,,,,,,,,,,,,,,,,,,,,,,,,,,,,,,,,,,,,,,,,,,,,,,,,,,,,,,,631.8562227500079,631.8644124999992,636.8580053330079,sub-206,1,random_dot,,
