direction,corrAns,randomInstr,practice_trials.thisRepN,practice_trials.thisTrialN,practice_trials.thisN,practice_trials.thisIndex,instr_trials.thisRepN,instr_trials.thisTrialN,instr_trials.thisN,instr_trials.thisIndex,test_trials.thisRepN,test_trials.thisTrialN,test_trials.thisN,test_trials.thisIndex,thisRow.t,notes,general_instruction.started,textGeneralInstr.started,respGeneralInstr.started,general_instruction.stopped,respGeneralInstr.keys,respGeneralInstr.rt,respGeneralInstr.duration,ITI.started,fixcross.started,fixcross.stopped,ITI.stopped,dots.started,backgroundDots.started,stimulusDots.started,respDots.started,stimulusDots.stopped,dots.stopped,respDots.keys,respDots.corr,respDots.rt,respDots.duration,feedback.started,textFeedback.started,feedback.stopped,textFeedback.stopped,info.started,textInfo.started,keyRespInfo.started,info.stopped,keyRespInfo.keys,keyRespInfo.rt,keyRespInfo.duration,test_instruction.started,textTestInstr.started,respTestInstr.started,test_instruction.stopped,respTestInstr.keys,respTestInstr.rt,respTestInstr.duration,random_instruction.started,textRandomInstr.started,respRandomInstr.started,random_instruction.stopped,respRandomInstr.keys,respRandomInstr.rt,respRandomInstr.duration,goodbye.started,textGoodbye.started,goodbye.stopped,participant,session,expName,frameRate,Unnamed: 73
,,,,,,,,,,,,,,,,,0.0078106999862939,0.0296863999974448,0.0296863999974448,21.895649599988246,space,55.1893953000108,,,,,,,,,,,,,,,,,,,,,,,,,,,,,,,,,,,,,,,,,,,,sub-003,1.0,random_dot,55.938203946310615,
left,left,,0.0,0.0,0.0,0.0,,,,,,,,,21.918860699996003,,,,,,,,,21.911593099997845,22.244309199988493,23.050945499999216,23.02810109998973,23.028138799985754,23.050945499999216,23.050945499999216,23.050945499999216,28.04254019999644,46.84000189999642,right,0.0,57.11157760002243,,46.84120699999039,46.863774599987664,47.35617719999573,,,,,,,,,,,,,,,,,,,,,,,,,,sub-003,1.0,random_dot,55.938203946310615,
right,right,,0.0,1.0,1.0,1.0,,,,,,,,,47.37226989999181,,,,,,,,,47.35680799999682,48.55509169999277,49.354957799994736,49.33986789999472,49.33990089999861,49.354957799994736,49.354957799994736,49.354957799994736,54.337318099991535,55.68844109999191,left,0.0,39.65914470001008,,55.68930889999319,55.70400299999165,56.18800499998906,56.2040488999919,,,,,,,,,,,,,,,,,,,,,,,,,sub-003,1.0,random_dot,55.938203946310615,
left,left,,1.0,0.0,2.0,0.0,,,,,,,,,56.2040488999919,,,,,,,,,56.18860459999996,56.30406209999637,57.10336379999353,57.08768519999285,57.08771589999378,57.10336379999353,57.10336379999353,57.10336379999353,,60.79217519999656,right,0.0,37.02197780001734,,60.79330459999619,60.809416899996,61.30482009999105,,,,,,,,,,,,,,,,,,,,,,,,,,sub-003,1.0,random_dot,55.938203946310615,
right,right,,1.0,1.0,3.0,1.0,,,,,,,,,61.32125959999394,,,,,,,,,61.30561329999182,62.50399909999396,63.316181399990455,63.29121269998723,63.29125309998926,63.316181399990455,63.316181399990455,63.316181399990455,,68.26681679999456,right,1.0,38.28448600001866,,68.26782779999485,68.29116559999238,68.7734894999885,,,,,,,,,,,,,,,,,,,,,,,,,,sub-003,1.0,random_dot,55.938203946310615,
left,left,,2.0,0.0,4.0,0.0,,,,,,,,,68.78874779999023,,,,,,,,,68.77429669999401,69.56988259998616,70.37373799999477,70.35361319998628,70.3536538999906,70.37373799999477,70.37373799999477,70.37373799999477,,71.7241600999987,left,1.0,34.670082300013746,,71.72522829999798,71.74212459998671,72.23659449999104,,,,,,,,,,,,,,,,,,,,,,,,,,sub-003,1.0,random_dot,55.938203946310615,
right,right,,2.0,1.0,5.0,1.0,,,,,,,,,72.25238289999834,,,,,,,,,72.23736269999063,73.03556189998926,73.84026639998774,73.8204490999924,73.82048819999909,73.84026639998774,73.84026639998774,73.84026639998774,,75.5206205999857,left,0.0,35.00550110000768,,75.52166169999691,75.54002959998616,76.0370711999858,,,,,,,,,,,,,,,,,,,,,,,,,,sub-003,1.0,random_dot,55.938203946310615,
right,right,,3.0,0.0,6.0,1.0,,,,,,,,,76.05243489998975,,,,,,,,,76.03787099999317,76.83517709998705,77.64043009998568,77.62083209998673,77.62087159999646,77.64043009998568,77.64043009998568,77.64043009998568,,80.84067309999955,right,1.0,36.52150240000629,,80.84175679998589,80.85668989999976,81.34997169999406,,,,,,,,,,,,,,,,,,,,,,,,,,sub-003,1.0,random_dot,55.938203946310615,
left,left,,3.0,1.0,7.0,0.0,,,,,,,,,81.36647659998562,,,,,,,,,81.35072329999821,82.14990909998596,82.95052019998548,82.93401139999332,82.93404849999934,82.95052019998548,82.95052019998548,82.95052019998548,,84.1399676999863,left,1.0,34.522319300012896,,84.1409835999948,84.15306129999226,84.64986329998646,,,,,,,,,,,,,,,,,,,,,,,,,,sub-003,1.0,random_dot,55.938203946310615,
right,right,,4.0,0.0,8.0,1.0,,,,,,,,,84.66585509998549,,,,,,,,,84.65061119999154,85.84889089998615,86.64965309998661,86.63320779999776,86.63324409999768,86.64965309998661,86.64965309998661,86.64965309998661,,90.00702819999424,right,1.0,36.69079900000361,,90.00909579999279,90.02200339999399,90.51542909999262,,,,,,,,,,,,,,,,,,,,,,,,,,sub-003,1.0,random_dot,55.938203946310615,
left,left,,4.0,1.0,9.0,0.0,,,,,,,,,90.5320619999984,,,,,,,,,90.51677289999498,90.86507299999356,91.66853399999673,91.64995099999942,91.6500226999924,91.66853399999673,91.66853399999673,91.66853399999673,,93.53822579998814,left,1.0,35.20239480001328,,93.54023159999632,93.55260879998968,94.04833719998716,,,,,,,,,,,,,,,,,,,,,,,,,,sub-003,1.0,random_dot,55.938203946310615,
right,right,,5.0,0.0,10.0,1.0,,,,,,,,,94.06500279999456,,,,,,,,,94.04971799999475,94.84767809999175,95.65106569998898,95.632371899992,95.6324428999942,95.65106569998898,95.65106569998898,95.65106569998898,,98.45409449998988,right,1.0,36.13727530001779,,98.456262599997,98.4690671999997,98.964018499988,,,,,,,,,,,,,,,,,,,,,,,,,,sub-003,1.0,random_dot,55.938203946310615,
left,left,,5.0,1.0,11.0,0.0,,,,,,,,,98.98074429998816,,,,,,,,,98.9653430999897,100.16354989999672,100.96690789998684,100.94804809999188,100.9481192999956,100.96690789998684,100.96690789998684,100.96690789998684,,104.23835959999997,left,1.0,36.60586360000889,,104.24063749999914,104.25323539999954,104.74619139998686,,,,,,,,,,,,,,,,,,,,,,,,,,sub-003,1.0,random_dot,55.938203946310615,
left,left,,6.0,0.0,12.0,0.0,,,,,,,,,104.76295889999892,,,,,,,,,104.74753789999522,104.84582899999803,105.64931909998997,105.63042189998669,105.63049319999118,105.64931909998997,105.64931909998997,105.64931909998997,,107.04907929999172,left,1.0,34.71657680001226,,107.0510193999944,107.0751695999934,107.56232389999786,,,,,,,,,,,,,,,,,,,,,,,,,,sub-003,1.0,random_dot,55.938203946310615,
right,right,,6.0,1.0,13.0,1.0,,,,,,,,,107.57904739999503,,,,,,,,,107.56369179999456,108.76174529999844,109.56546149999484,109.5466701999976,109.54674209999212,109.56546149999484,109.56546149999484,109.56546149999484,,111.94628549998744,right,1.0,35.70277720001468,,111.94733179999456,111.96227259999432,112.44580519999728,112.46141999999236,,,,,,,,,,,,,,,,,,,,,,,,,sub-003,1.0,random_dot,55.938203946310615,
right,right,,7.0,0.0,14.0,1.0,,,,,,,,,112.46141999999236,,,,,,,,,112.44654039999295,113.661609399991,114.46292379999068,114.4453313999984,114.44536859999062,114.46292379999068,114.46292379999068,114.46292379999068,,115.54550549999112,left,0.0,34.40169450000394,,115.5465731999866,115.56422759999988,116.06077459998778,,,,,,,,,,,,,,,,,,,,,,,,,,sub-003,1.0,random_dot,55.938203946310615,
left,left,,7.0,1.0,15.0,0.0,,,,,,,,,116.07755129999714,,,,,,,,,116.06150969999726,117.26027369999792,118.0619391999935,118.04466259999026,118.04470189999849,118.0619391999935,118.0619391999935,118.0619391999935,,120.21524679999855,left,1.0,35.48255080000672,,120.21621699999378,120.2312571999937,120.72609559999546,,,,,,,,,,,,,,,,,,,,,,,,,,sub-003,1.0,random_dot,55.938203946310615,
left,left,,8.0,0.0,16.0,0.0,,,,,,,,,120.74240419999114,,,,,,,,,120.72682699999132,120.8260248999868,121.62596189999022,121.60981709999032,121.609853499991,121.62596189999022,121.62596189999022,121.62596189999022,,124.1273746999941,right,0.0,35.83255740000459,,124.12834879998992,124.14486169999871,124.6417267999932,,,,,,,,,,,,,,,,,,,,,,,,,,sub-003,1.0,random_dot,55.938203946310615,
right,right,,8.0,1.0,17.0,1.0,,,,,,,,,124.65849799998978,,,,,,,,,124.64244759999563,125.44160129998636,126.24236149998616,126.22616409999318,126.22620129999996,126.24236149998616,126.24236149998616,126.24236149998616,,129.20961909998732,left,0.0,36.29769580002176,,129.21058259998972,129.22437779999746,129.7083336999931,129.72428369999398,,,,,,,,,,,,,,,,,,,,,,,,,sub-003,1.0,random_dot,55.938203946310615,
right,right,,9.0,0.0,18.0,1.0,,,,,,,,,129.72428369999398,,,,,,,,,129.70900229999097,130.0738132999977,130.87473669998872,130.85837089999404,130.8584053999948,130.87473669998872,130.87473669998872,130.87473669998872,,131.86207719999948,left,0.0,34.311705000014626,,131.86309419998724,131.87682329998643,132.3740672999993,,,,,,,,,,,,,,,,,,,,,,,,,,sub-003,1.0,random_dot,55.938203946310615,
left,left,,9.0,1.0,19.0,0.0,,,,,,,,,132.3902773999871,,,,,,,,,132.3748210999911,132.47383159998572,133.2991192999907,133.277012999999,133.2770571999863,133.2991192999907,133.2991192999907,133.2991192999907,,137.05848759999208,left,1.0,37.09160540001176,,137.05950749998738,137.07650359999388,137.5727874999866,,,,,,,,,,,,,,,,,,,,,,,,,,sub-003,1.0,random_dot,55.938203946310615,
,,,,,,,,,,,,,,,,,,,,,,,,,,,,,,,,,,,,,,,,,,137.57290739999735,137.58917349998956,137.58917349998956,143.59018909999577,space,39.32203970001137,,,,,,,,,,,,,,,,,,,sub-003,1.0,random_dot,55.938203946310615,
,,,,,,,,,,,,,,,,,,,,,,,,,,,,,,,,,,,,,,,,,,,,,,,,,143.59025299998757,143.6052478999918,143.6052478999918,144.83991379999495,space,34.569670200013206,,,,,,,,,,,,sub-003,1.0,random_dot,55.938203946310615,
right,right,speed,,,,,0.0,0.0,0.0,1.0,0.0,0.0,0.0,1.0,147.27825469999516,,,,,,,,,147.27028989999965,148.47097769999527,149.27222029998666,149.2550857999886,149.25512619999063,149.27222029998666,149.27222029998666,149.27222029998666,,150.86767469999904,right,1.0,34.91541810001945,,,,,,,,,,,,,,,,,,,,144.84592489998613,144.8796275999921,144.8796275999921,147.2568930999987,space,35.70892380000441,,,,,sub-003,1.0,random_dot,55.938203946310615,
left,left,speed,,,,,0.0,0.0,0.0,1.0,0.0,1.0,1.0,0.0,150.88681779999752,,,,,,,,,150.86984879999363,151.22081879999314,152.0215923999931,152.00475759999244,152.00479389999236,152.0215923999931,152.0215923999931,152.0215923999931,,153.99228819999553,left,1.0,35.30075890000444,,,,,,,,,,,,,,,,,,,,,,,,,,,,,,sub-003,1.0,random_dot,55.938203946310615,
right,right,speed,,,,,0.0,0.0,0.0,1.0,1.0,0.0,2.0,1.0,154.00692689999414,,,,,,,,,153.9943048999994,154.80364729999565,155.60438529998646,155.58763989999716,155.5876772999909,155.60438529998646,155.60438529998646,155.60438529998646,,156.78300639998633,left,0.0,34.509387700018124,,,,,,,,,,,,,,,,,,,,,,,,,,,,,,sub-003,1.0,random_dot,55.938203946310615,
left,left,speed,,,,,0.0,0.0,0.0,1.0,1.0,1.0,3.0,0.0,156.80284609999217,,,,,,,,,156.7848762999929,157.98591329999908,158.7876566999912,158.77020739999716,158.77025429999048,158.7876566999912,158.7876566999912,158.7876566999912,,159.9539453999896,left,1.0,34.48614780000935,,,,,,,,,,,,,,,,,,,,,,,,,,,,,,sub-003,1.0,random_dot,55.938203946310615,
left,left,speed,,,,,0.0,0.0,0.0,1.0,2.0,0.0,4.0,0.0,159.9692703999899,,,,,,,,,159.95592609999585,160.069980699991,160.86988919999567,160.85302619999857,160.85306259999925,160.86988919999567,160.86988919999567,160.86988919999567,,161.81601369999407,right,0.0,34.2713946000149,,,,,,,,,,,,,,,,,,,,,,,,,,,,,,sub-003,1.0,random_dot,55.938203946310615,
right,right,speed,,,,,0.0,0.0,0.0,1.0,2.0,1.0,5.0,1.0,161.83533579998766,,,,,,,,,161.81786139999167,162.16896939999424,162.9700862999889,162.9528980999894,162.95293489999312,162.9700862999889,162.9700862999889,162.9700862999889,,164.40734109999903,left,0.0,34.75676300001214,,,,,,,,,,,,,,,,,,,,,,,,,,,,,,sub-003,1.0,random_dot,55.938203946310615,
right,right,speed,,,,,0.0,0.0,0.0,1.0,3.0,0.0,6.0,1.0,164.4227843999979,,,,,,,,,164.4093952999974,164.76885859998583,165.5688811999862,165.55216189999192,165.55219869999564,165.5688811999862,165.5688811999862,165.5688811999862,,166.87335199999507,right,1.0,34.63949400000274,,,,,,,,,,,,,,,,,,,,,,,,,,,,,,sub-003,1.0,random_dot,55.938203946310615,
left,left,speed,,,,,0.0,0.0,0.0,1.0,3.0,1.0,7.0,0.0,166.88830429999507,,,,,,,,,166.87548409999,167.68459299999813,168.48798559998977,168.46847909998905,168.46851459999743,168.48798559998977,168.48798559998977,168.48798559998977,,169.7944395999948,left,1.0,34.622371100020246,,,,,,,,,,,,,,,,,,,,,,,,,,,,,,sub-003,1.0,random_dot,55.938203946310615,
right,right,speed,,,,,0.0,0.0,0.0,1.0,4.0,0.0,8.0,1.0,169.80493939999724,,,,,,,,,169.79656769998837,170.15094889998727,170.9525689999864,170.93497039999056,170.93500709999353,170.9525689999864,170.9525689999864,170.9525689999864,,172.1477431999956,left,0.0,34.52783810000983,,,,,,,,,,,,,,,,,,,,,,,,,,,,,,sub-003,1.0,random_dot,55.938203946310615,
left,left,speed,,,,,0.0,0.0,0.0,1.0,4.0,1.0,9.0,0.0,172.16679729998577,,,,,,,,,172.14966519999143,172.25063269998645,173.05274509999435,173.0345743999933,173.03461089999473,173.05274509999435,173.05274509999435,173.05274509999435,,174.2588388999866,right,0.0,34.53355290001491,,,,,,,,,,,,,,,,,,,,,,,,,,,,,,sub-003,1.0,random_dot,55.938203946310615,
left,left,speed,,,,,0.0,0.0,0.0,1.0,5.0,0.0,10.0,0.0,174.27225799999724,,,,,,,,,174.2611540999933,175.46667329999036,176.2687891999958,176.25077209998562,176.25081079998927,176.2687891999958,176.2687891999958,176.2687891999958,,177.46660069999052,left,1.0,34.52971920001437,,,,,,,,,,,,,,,,,,,,,,,,,,,,,,sub-003,1.0,random_dot,55.938203946310615,
right,right,speed,,,,,0.0,0.0,0.0,1.0,5.0,1.0,11.0,1.0,177.48548879999726,,,,,,,,,177.46898779999174,177.582722799998,178.3849840999901,178.3670803999994,178.36711819999618,178.3849840999901,178.3849840999901,178.3849840999901,,179.0838473999902,right,1.0,34.01966660001199,,,,,,,,,,,,,,,,,,,,,,,,,,,,,,sub-003,1.0,random_dot,55.938203946310615,
left,left,speed,,,,,0.0,0.0,0.0,1.0,6.0,0.0,12.0,0.0,179.0989746999985,,,,,,,,,179.0858440999873,179.89974139998958,180.70448249999023,180.6847020999994,180.6847401999985,180.70448249999023,180.70448249999023,180.70448249999023,,181.4841297999956,left,1.0,34.10941490001278,,,,,,,,,,,,,,,,,,,,,,,,,,,,,,sub-003,1.0,random_dot,55.938203946310615,
right,right,speed,,,,,0.0,0.0,0.0,1.0,6.0,1.0,13.0,1.0,181.500194799999,,,,,,,,,181.4862215999892,182.29871159998584,183.10608599999975,183.08759999999893,183.08763919999183,183.10608599999975,183.10608599999975,183.10608599999975,,184.492639899996,left,0.0,34.71835420001298,,,,,,,,,,,,,,,,,,,,,,,,,,,,,,sub-003,1.0,random_dot,55.938203946310615,
right,right,speed,,,,,0.0,0.0,0.0,1.0,7.0,0.0,14.0,1.0,184.5037505999935,,,,,,,,,184.4947635999997,184.84929209999973,185.65266369999156,185.63359299999135,185.6336302999989,185.65266369999156,185.65266369999156,185.65266369999156,,187.2858344999986,right,1.0,34.95716309999989,,,,,,,,,,,,,,,,,,,,,,,,,,,,,,sub-003,1.0,random_dot,55.938203946310615,
left,left,speed,,,,,0.0,0.0,0.0,1.0,7.0,1.0,15.0,0.0,187.3020666999946,,,,,,,,,187.2880024999904,187.64810849999776,188.45236689999,188.43264699999415,188.43268629998784,188.45236689999,188.45236689999,188.45236689999,,189.47831929998935,right,0.0,34.35092210001312,,,,,,,,,,,,,,,,,,,,,,,,,,,,,,sub-003,1.0,random_dot,55.938203946310615,
right,right,speed,,,,,0.0,0.0,0.0,1.0,8.0,0.0,16.0,1.0,189.49757859999957,,,,,,,,,189.48036379998663,189.58197139999535,190.38722629999396,190.367041599995,190.3670798999956,190.38722629999396,190.38722629999396,190.38722629999396,,191.7510321999871,left,0.0,34.69489050001721,,,,,,,,,,,,,,,,,,,,,,,,,,,,,,sub-003,1.0,random_dot,55.938203946310615,
left,left,speed,,,,,0.0,0.0,0.0,1.0,8.0,1.0,17.0,0.0,191.7670899999939,,,,,,,,,191.7531500999903,192.9634279999882,193.79930779999995,193.77405799999545,193.77412889999687,193.79930779999995,193.79930779999995,193.79930779999995,,195.1439212999976,left,1.0,34.66003230001661,,,,,,,,,,,,,,,,,,,,,,,,,,,,,,sub-003,1.0,random_dot,55.938203946310615,
left,left,speed,,,,,0.0,0.0,0.0,1.0,9.0,0.0,18.0,0.0,195.171629199991,,,,,,,,,195.14628749999972,196.36744369998632,197.18405379999604,197.1646638999955,197.1647022999969,197.18405379999604,197.18405379999604,197.18405379999604,,198.57226549999905,right,0.0,34.72096520001651,,,,,,,,,,,,,,,,,,,,,,,,,,,,,,sub-003,1.0,random_dot,55.938203946310615,
right,right,speed,,,,,0.0,0.0,0.0,1.0,9.0,1.0,19.0,1.0,198.58377769999788,,,,,,,,,198.5744301999948,198.68008739998916,199.48378519999096,199.46403879999707,199.46407769998768,199.48378519999096,199.48378519999096,199.48378519999096,,200.65498509998724,left,0.0,34.50641530001303,,,,,,,,,,,,,,,,,,,,,,,,,,,,,,sub-003,1.0,random_dot,55.938203946310615,
left,left,speed,,,,,0.0,0.0,0.0,1.0,10.0,0.0,20.0,0.0,200.66718729998684,,,,,,,,,200.6571460999985,201.01244769999172,201.81848959998752,201.79803989999343,201.79807959999016,201.81848959998752,201.81848959998752,201.81848959998752,,203.0556160999986,right,0.0,34.560050400017644,,,,,,,,,,,,,,,,,,,,,,,,,,,,,,sub-003,1.0,random_dot,55.938203946310615,
right,right,speed,,,,,0.0,0.0,0.0,1.0,10.0,1.0,21.0,1.0,203.06688829998893,,,,,,,,,203.0577513999888,203.4122945999989,204.2160770999908,204.196632399995,204.19667059999483,204.2160770999908,204.2160770999908,204.2160770999908,,205.1709594999993,right,1.0,34.283529599997564,,,,,,,,,,,,,,,,,,,,,,,,,,,,,,sub-003,1.0,random_dot,55.938203946310615,
right,right,speed,,,,,0.0,0.0,0.0,1.0,11.0,0.0,22.0,1.0,205.1826213999884,,,,,,,,,205.17310509999515,205.52868829999352,206.3350101999968,206.31443769999896,206.3144781999872,206.3350101999968,206.3350101999968,206.3350101999968,,207.28233029998955,left,0.0,34.272753600016586,,,,,,,,,,,,,,,,,,,,,,,,,,,,,,sub-003,1.0,random_dot,55.938203946310615,
left,left,speed,,,,,0.0,0.0,0.0,1.0,11.0,1.0,23.0,0.0,207.29927739998675,,,,,,,,,207.2845064999856,208.49478379999343,209.29946879998897,209.27966419998847,209.2797045999905,209.29946879998897,209.29946879998897,209.29946879998897,,210.5615138999856,right,0.0,34.582098800019594,,,,,,,,,,,,,,,,,,,,,,,,,,,,,,sub-003,1.0,random_dot,55.938203946310615,
right,right,speed,,,,,0.0,0.0,0.0,1.0,12.0,0.0,24.0,1.0,210.5770049999992,,,,,,,,,210.56352589999733,211.37713259999876,212.1823439999862,212.16228689999843,212.1623244999937,212.1823439999862,212.1823439999862,212.1823439999862,,213.6038420999976,left,0.0,34.750645900014206,,,,,,,,,,,,,,,,,,,,,,,,,,,,,,sub-003,1.0,random_dot,55.938203946310615,
left,left,speed,,,,,0.0,0.0,0.0,1.0,12.0,1.0,25.0,0.0,213.6174426999933,,,,,,,,,213.606154899986,213.96009849999973,214.7640683999925,214.7445214999898,214.74455869999656,214.7640683999925,214.7640683999925,214.7640683999925,,217.13120009998968,left,1.0,35.70144440000877,,,,,,,,,,,,,,,,,,,,,,,,,,,,,,sub-003,1.0,random_dot,55.938203946310615,
left,left,speed,,,,,0.0,0.0,0.0,1.0,13.0,0.0,26.0,0.0,217.15436499999487,,,,,,,,,217.133385299996,217.9430929999944,218.74750649998896,218.7278476999927,218.7278868999856,218.74750649998896,218.74750649998896,218.74750649998896,,219.8768207999965,right,0.0,34.45078760001343,,,,,,,,,,,,,,,,,,,,,,,,,,,,,,sub-003,1.0,random_dot,55.938203946310615,
right,right,speed,,,,,0.0,0.0,0.0,1.0,13.0,1.0,27.0,1.0,219.89233799999056,,,,,,,,,219.87886459998845,220.69215709999844,221.49649219999264,221.4769106999884,221.47694929999125,221.49649219999264,221.49649219999264,221.49649219999264,,223.15076019999103,left,0.0,34.98522930001491,,,,,,,,,,,,,,,,,,,,,,,,,,,,,,sub-003,1.0,random_dot,55.938203946310615,
right,right,speed,,,,,0.0,0.0,0.0,1.0,14.0,0.0,28.0,1.0,223.164211299998,,,,,,,,,223.1531692999997,224.3585466999939,225.1652984999964,225.1462004999921,225.14624059999187,225.1652984999964,225.1652984999964,225.1652984999964,,227.5669984999986,right,1.0,35.72624360001646,,,,,,,,,,,,,,,,,,,,,,,,,,,,,,sub-003,1.0,random_dot,55.938203946310615,
left,left,speed,,,,,0.0,0.0,0.0,1.0,14.0,1.0,29.0,0.0,227.58016319999297,,,,,,,,,227.569253499998,228.37377939998987,229.1785792999872,229.1590409999917,229.15907959999456,229.1785792999872,229.1785792999872,229.1785792999872,,230.61626799999797,left,1.0,34.758954100019764,,,,,,,,,,,,,,,,,,,,,,,,,,,,,,sub-003,1.0,random_dot,55.938203946310615,
left,left,speed,,,,,0.0,0.0,0.0,1.0,15.0,0.0,30.0,0.0,230.629528999998,,,,,,,,,230.6185281999933,231.8237172999943,232.6277720999933,232.6082988999988,232.60833649999404,232.6277720999933,232.6277720999933,232.6277720999933,,235.29092009998567,left,1.0,35.990513300013845,,,,,,,,,,,,,,,,,,,,,,,,,,,,,,sub-003,1.0,random_dot,55.938203946310615,
right,right,speed,,,,,0.0,0.0,0.0,1.0,15.0,1.0,31.0,1.0,235.30675549998705,,,,,,,,,235.2930390999973,235.4064646999905,236.21439429999737,236.19072779999988,236.19076679999125,236.21439429999737,236.21439429999737,236.21439429999737,,237.56515719999152,right,1.0,34.670672200008994,,,,,,,,,,,,,,,,,,,,,,,,,,,,,,sub-003,1.0,random_dot,55.938203946310615,
right,right,speed,,,,,0.0,0.0,0.0,1.0,16.0,0.0,32.0,1.0,237.57609299999604,,,,,,,,,237.56727209998644,238.7722359999898,239.5798109999887,239.5620227999898,239.56206049998585,239.5798109999887,239.5798109999887,239.5798109999887,,241.86330289999023,left,0.0,35.6107033000153,,,,,,,,,,,,,,,,,,,,,,,,,,,,,,sub-003,1.0,random_dot,55.938203946310615,
left,left,speed,,,,,0.0,0.0,0.0,1.0,16.0,1.0,33.0,0.0,241.87742649999564,,,,,,,,,241.86577819999368,243.0713920999988,243.87557909998577,243.85614969999008,243.85618729999987,243.87557909998577,243.87557909998577,243.87557909998577,,246.3893386999989,right,0.0,35.833940100012114,,,,,,,,,,,,,,,,,,,,,,,,,,,,,,sub-003,1.0,random_dot,55.938203946310615,
right,right,speed,,,,,0.0,0.0,0.0,1.0,17.0,0.0,34.0,1.0,246.40576839999997,,,,,,,,,246.39146809998783,247.2043427999888,248.01126299999305,247.99327099999937,247.99330899999768,248.01126299999305,248.01126299999305,248.01126299999305,,250.09408599999733,right,1.0,35.400714800009155,,,,,,,,,,,,,,,,,,,,,,,,,,,,,,sub-003,1.0,random_dot,55.938203946310615,
left,left,speed,,,,,0.0,0.0,0.0,1.0,17.0,1.0,35.0,0.0,250.1082730999915,,,,,,,,,250.09642839999287,250.45373179999297,251.2575380999915,251.2381938999897,251.2382321999903,251.2575380999915,251.2575380999915,251.2575380999915,,253.98894569999536,left,1.0,36.06474990000424,,,,,,,,,,,,,,,,,,,,,,,,,,,,,,sub-003,1.0,random_dot,55.938203946310615,
right,right,speed,,,,,0.0,0.0,0.0,1.0,18.0,0.0,36.0,1.0,254.00624979998972,,,,,,,,,253.99105829998732,254.80287809998845,255.60678859999464,255.5872392999881,255.58727839999483,255.60678859999464,255.60678859999464,255.60678859999464,,257.9271967999957,right,1.0,35.65152990001661,,,,,,,,,,,,,,,,,,,,,,,,,,,,,,sub-003,1.0,random_dot,55.938203946310615,
left,left,speed,,,,,0.0,0.0,0.0,1.0,18.0,1.0,37.0,0.0,257.9474108999857,,,,,,,,,257.929529999994,258.2856182999967,259.0894072999945,259.07017199999245,259.07020989999,259.0894072999945,259.0894072999945,259.0894072999945,,260.39322769999853,left,1.0,34.62802490001195,,,,,,,,,,,,,,,,,,,,,,,,,,,,,,sub-003,1.0,random_dot,55.938203946310615,
left,left,speed,,,,,0.0,0.0,0.0,1.0,19.0,0.0,38.0,0.0,260.4075684999989,,,,,,,,,260.3955360999971,260.7519883999921,261.5586437999882,261.5376375999913,261.5376777999918,261.5586437999882,261.5586437999882,261.5586437999882,,265.3896445999999,left,1.0,37.15133840001363,,,,,,,,,,,,,,,,,,,,,,,,,,,,,,sub-003,1.0,random_dot,55.938203946310615,
right,right,speed,,,,,0.0,0.0,0.0,1.0,19.0,1.0,39.0,1.0,265.405843799992,,,,,,,,,265.3919787999912,266.2009629999957,267.00512009998783,266.98559539999405,266.9856338999962,267.00512009998783,267.00512009998783,267.00512009998783,,269.1918529999966,right,1.0,35.51642410000204,,,,,,,,,,,,,,,,,,,,,,,,,,,,,,sub-003,1.0,random_dot,55.938203946310615,
left,left,speed,,,,,0.0,0.0,0.0,1.0,20.0,0.0,40.0,0.0,269.20550289998937,,,,,,,,,269.1941116999951,269.30061139998725,270.10363959999813,270.0845147999935,270.08455269999104,270.10363959999813,270.10363959999813,270.10363959999813,,271.75516659999266,left,1.0,34.974217400013,,,,,,,,,,,,,,,,,,,,,,,,,,,,,,sub-003,1.0,random_dot,55.938203946310615,
right,right,speed,,,,,0.0,0.0,0.0,1.0,20.0,1.0,41.0,1.0,271.771305199989,,,,,,,,,271.75736529999995,271.866772399997,272.66967179998755,272.65060999999696,272.6506475999922,272.66967179998755,272.66967179998755,272.66967179998755,,274.1413556999905,right,1.0,34.79855650001264,,,,,,,,,,,,,,,,,,,,,,,,,,,,,,sub-003,1.0,random_dot,55.938203946310615,
right,right,speed,,,,,0.0,0.0,0.0,1.0,21.0,0.0,42.0,1.0,274.1531030999904,,,,,,,,,274.1435170999903,274.24931229998765,275.053121799996,275.0337659999932,275.0338034999877,275.053121799996,275.053121799996,275.053121799996,,276.9648753999936,left,0.0,35.23942840000382,,,,,,,,,,,,,,,,,,,,,,,,,,,,,,sub-003,1.0,random_dot,55.938203946310615,
left,left,speed,,,,,0.0,0.0,0.0,1.0,21.0,1.0,43.0,0.0,276.9818115999951,,,,,,,,,276.9670797999861,277.7654347999924,278.5704577999859,278.55031289999897,278.55035209999187,278.5704577999859,278.5704577999859,278.5704577999859,,281.0949119999859,right,0.0,35.85954370001855,,,,,,,,,,,,,,,,,,,,,,,,,,,,,,sub-003,1.0,random_dot,55.938203946310615,
right,right,speed,,,,,0.0,0.0,0.0,1.0,22.0,0.0,44.0,1.0,281.1138745999924,,,,,,,,,281.09688889999234,282.298023299998,283.102002899992,283.0823694999999,283.08240939999814,283.102002899992,283.102002899992,283.102002899992,,286.30150409998896,left,0.0,36.52042370001436,,,,,,,,,,,,,,,,,,,,,,,,,,,,,,sub-003,1.0,random_dot,55.938203946310615,
left,left,speed,,,,,0.0,0.0,0.0,1.0,22.0,1.0,45.0,0.0,286.3176065999869,,,,,,,,,286.30373999998847,287.5129722999991,288.31733059999533,288.297825799993,288.29786509998667,288.31733059999533,288.31733059999533,288.31733059999533,,292.11325399999623,right,0.0,37.12317800000892,,,,,,,,,,,,,,,,,,,,,,,,,,,,,,sub-003,1.0,random_dot,55.938203946310615,
left,left,speed,,,,,0.0,0.0,0.0,1.0,23.0,0.0,46.0,0.0,292.1303627999878,,,,,,,,,292.11538519999885,293.33047019998776,294.1328172999929,294.113571599999,294.11360919999424,294.1328172999929,294.1328172999929,294.1328172999929,,296.25072239998553,left,1.0,35.434702900005504,,,,,,,,,,,,,,,,,,,,,,,,,,,,,,sub-003,1.0,random_dot,55.938203946310615,
right,right,speed,,,,,0.0,0.0,0.0,1.0,23.0,1.0,47.0,1.0,296.26657259999774,,,,,,,,,296.2529249999934,296.3626172999939,297.164534999989,297.1457470999885,297.14578439999605,297.164534999989,297.164534999989,297.164534999989,,299.91615019999153,left,0.0,36.08359930002189,,,,,,,,,,,,,,,,,,,,,,,,,,,,,,sub-003,1.0,random_dot,55.938203946310615,
right,right,speed,,,,,0.0,0.0,0.0,1.0,24.0,0.0,48.0,1.0,299.9327257999976,,,,,,,,,299.9183264999883,300.0279201999947,300.83275129999674,300.81227009999566,300.8123121999961,300.83275129999674,300.83275129999674,300.83275129999674,,303.3860825999873,right,1.0,35.88377250000485,,,,,,,,,,,,,,,,,,,,,,,,,,,,,,sub-003,1.0,random_dot,55.938203946310615,
left,left,speed,,,,,0.0,0.0,0.0,1.0,24.0,1.0,49.0,0.0,303.3975853999873,,,,,,,,,303.3882353999943,303.74473299999954,304.5480075999949,304.52850839999155,304.5285465999914,304.5480075999949,304.5480075999949,304.5480075999949,,307.49783369999204,left,1.0,36.27809700001672,,,,,,,,,,,,,,,,,,,,,,,,,,,,,,sub-003,1.0,random_dot,55.938203946310615,
left,left,speed,,,,,0.0,0.0,0.0,1.0,25.0,0.0,50.0,0.0,307.5146029999887,,,,,,,,,307.4999846999999,308.30991079998785,309.1140454999986,309.09437019999314,309.094408799996,309.1140454999986,309.1140454999986,309.1140454999986,,311.09697459999006,right,0.0,35.31627070000104,,,,,,,,,,,,,,,,,,,,,,,,,,,,,,sub-003,1.0,random_dot,55.938203946310615,
right,right,speed,,,,,0.0,0.0,0.0,1.0,25.0,1.0,51.0,1.0,311.1138488999859,,,,,,,,,311.0991558999958,311.20962699998927,312.01278739998816,311.99363829998765,311.99367659998825,312.01278739998816,312.01278739998816,312.01278739998816,,315.24663809999765,left,0.0,36.56807850001496,,,,,,,,,,,,,,,,,,,,,,,,,,,,,,sub-003,1.0,random_dot,55.938203946310615,
left,left,speed,,,,,0.0,0.0,0.0,1.0,26.0,0.0,52.0,0.0,315.2631349999865,,,,,,,,,315.24883499999123,315.35917069998686,316.1631902999943,316.14332379998814,316.1433614999987,316.1631902999943,316.1631902999943,316.1631902999943,,318.6741020999907,left,1.0,35.83454500001972,,,,,,,,,,,,,,,,,,,,,,,,,,,,,,sub-003,1.0,random_dot,55.938203946310615,
right,right,speed,,,,,0.0,0.0,0.0,1.0,26.0,1.0,53.0,1.0,318.6908321999945,,,,,,,,,318.67629599999054,319.0243465999956,319.8330386999878,319.8108845999959,319.81092449999414,319.8330386999878,319.8330386999878,319.8330386999878,,322.2654569999868,right,1.0,35.75324350001756,,,,,,,,,,,,,,,,,,,,,,,,,,,,,,sub-003,1.0,random_dot,55.938203946310615,
left,left,speed,,,,,0.0,0.0,0.0,1.0,27.0,0.0,54.0,0.0,322.2851024999982,,,,,,,,,322.26782999999705,322.3738655999914,323.17868819998694,323.15862919999927,323.1586677999876,323.17868819998694,323.17868819998694,323.17868819998694,,326.0462170999963,right,0.0,36.18868640001165,,,,,,,,,,,,,,,,,,,,,,,,,,,,,,sub-003,1.0,random_dot,55.938203946310615,
right,right,speed,,,,,0.0,0.0,0.0,1.0,27.0,1.0,55.0,1.0,326.06205009999394,,,,,,,,,326.04850129999977,327.2560850999871,328.0612647999951,328.0408286999882,328.0408671999903,328.0612647999951,328.0612647999951,328.0612647999951,,329.09818749999977,left,0.0,34.370650100012426,,,,,,,,,,,,,,,,,,,,,,,,,,,,,,sub-003,1.0,random_dot,55.938203946310615,
right,right,speed,,,,,0.0,0.0,0.0,1.0,28.0,0.0,56.0,1.0,329.1095342999906,,,,,,,,,329.1003056999907,329.90620449998823,330.7099654999911,330.6904106999864,330.6904478999932,330.7099654999911,330.7099654999911,330.7099654999911,,333.192672899997,right,1.0,35.81718870000623,,,,,,,,,,,,,,,,,,,,,,,,,,,,,,sub-003,1.0,random_dot,55.938203946310615,
left,left,speed,,,,,0.0,0.0,0.0,1.0,28.0,1.0,57.0,0.0,333.2095415999938,,,,,,,,,333.19487339998886,333.3061158999917,334.1079653999914,334.0891876999958,334.0892249999888,334.1079653999914,334.1079653999914,334.1079653999914,,336.83529779998935,left,1.0,36.04201070001,,,,,,,,,,,,,,,,,,,,,,,,,,,,,,sub-003,1.0,random_dot,55.938203946310615,
right,right,speed,,,,,0.0,0.0,0.0,1.0,29.0,0.0,58.0,1.0,336.8573405999923,,,,,,,,,336.83737549999205,337.6372193999996,338.4426584999892,338.42274549999274,338.4227838999941,338.4426584999892,338.4426584999892,338.4426584999892,,339.394630699986,left,0.0,34.285462600004394,,,,,,,,,,,,,,,,,,,,,,,,,,,,,,sub-003,1.0,random_dot,55.938203946310615,
left,left,speed,,,,,0.0,0.0,0.0,1.0,29.0,1.0,59.0,0.0,339.41597329999786,,,,,,,,,339.3969783999928,340.20652349999,341.02466399999685,341.0051647999935,341.0052027999918,341.02466399999685,341.02466399999685,341.02466399999685,,342.12737769998785,right,0.0,34.430993200003286,,,,,,,,,,,,,,,,,,,,,,,,,,,,,,sub-003,1.0,random_dot,55.938203946310615,
,,speed,,,,,0.0,0.0,0.0,1.0,,,,,,,,,,,,,,,,,,,,,,,,,,,,,,,,,,,,,,,,,,,,,,,,,,,,,,,,sub-003,1.0,random_dot,55.938203946310615,
right,right,accuracy,,,,,0.0,1.0,1.0,0.0,0.0,0.0,0.0,1.0,345.7573232999857,,,,,,,,,345.7452641999989,346.53652589999547,347.3427321999916,347.323770899995,347.3238115999993,347.3427321999916,347.3427321999916,347.3427321999916,352.33050369999546,352.7586089999968,right,1.0,38.74941130001389,,,,,,,,,,,,,,,,,,,,342.1294569999882,342.1547416999965,342.1547416999965,345.73269179998897,space,36.89678420001292,,,,,sub-003,1.0,random_dot,55.938203946310615,
left,left,accuracy,,,,,0.0,1.0,1.0,0.0,0.0,1.0,1.0,0.0,352.774015899995,,,,,,,,,352.76159329999064,352.8698834999959,353.6726670999924,353.6529212999885,353.65296169999056,353.6726670999924,353.6726670999924,353.6726670999924,,357.635801899989,left,1.0,37.29014370001096,,,,,,,,,,,,,,,,,,,,,,,,,,,,,,sub-003,1.0,random_dot,55.938203946310615,
left,left,accuracy,,,,,0.0,1.0,1.0,0.0,1.0,0.0,2.0,0.0,357.6514734999946,,,,,,,,,357.6378835999931,358.0007251999923,358.8034958999924,358.7846869999921,358.7847238999966,358.8034958999924,358.8034958999924,358.8034958999924,,362.7446080999944,right,0.0,37.264568100014,,,,,,,,,,,,,,,,,,,,,,,,,,,,,,sub-003,1.0,random_dot,55.938203946310615,
right,right,accuracy,,,,,0.0,1.0,1.0,0.0,1.0,1.0,3.0,1.0,362.7552552999987,,,,,,,,,362.7466655999888,363.5497347999917,364.3519527999888,364.3335115999944,364.33354889998736,364.3519527999888,364.3519527999888,364.3519527999888,,366.9671772999864,left,0.0,35.948129400014295,,,,,,,,,,,,,,,,,,,,,,,,,,,,,,sub-003,1.0,random_dot,55.938203946310615,
right,right,accuracy,,,,,0.0,1.0,1.0,0.0,2.0,0.0,4.0,1.0,366.9830108999886,,,,,,,,,366.9692464999971,367.33283049998863,368.13683359998686,368.117147099998,368.1171860999893,368.13683359998686,368.13683359998686,368.13683359998686,,369.8168611999863,right,1.0,34.99637120000261,,,,,,,,,,,,,,,,,,,,,,,,,,,,,,sub-003,1.0,random_dot,55.938203946310615,
left,left,accuracy,,,,,0.0,1.0,1.0,0.0,2.0,1.0,5.0,0.0,369.833063699989,,,,,,,,,369.8189472999948,370.6314022999868,371.4361729999946,371.41642009999487,371.41645869999775,371.4361729999946,371.4361729999946,371.4361729999946,,373.56584049999947,left,1.0,35.45536480001465,,,,,,,,,,,,,,,,,,,,,,,,,,,,,,sub-003,1.0,random_dot,55.938203946310615,
left,left,accuracy,,,,,0.0,1.0,1.0,0.0,3.0,0.0,6.0,0.0,373.581806599992,,,,,,,,,373.5678799999878,373.68185249999806,374.4849916999956,374.46569919999456,374.4657373999944,374.4849916999956,374.4849916999956,374.4849916999956,,376.5723200999928,right,0.0,35.417792799999006,,,,,,,,,,,,,,,,,,,,,,,,,,,,,,sub-003,1.0,random_dot,55.938203946310615,
right,right,accuracy,,,,,0.0,1.0,1.0,0.0,3.0,1.0,7.0,1.0,376.5866071999917,,,,,,,,,376.57459009999,377.3803865999944,378.18614869999874,378.1646297999978,378.16467519999424,378.18614869999874,378.18614869999874,378.18614869999874,,380.3342990999954,right,1.0,35.48109180001484,,,,,,,,,,,,,,,,,,,,,,,,,,,,,,sub-003,1.0,random_dot,55.938203946310615,
left,left,accuracy,,,,,0.0,1.0,1.0,0.0,4.0,0.0,8.0,0.0,380.3513957999967,,,,,,,,,380.3364348999894,381.5469635999907,382.3506123999978,382.3309472999972,382.3309860999871,382.3506123999978,382.3506123999978,382.3506123999978,,383.8143817999953,left,1.0,34.780773500024225,,,,,,,,,,,,,,,,,,,,,,,,,,,,,,sub-003,1.0,random_dot,55.938203946310615,
right,right,accuracy,,,,,0.0,1.0,1.0,0.0,4.0,1.0,9.0,1.0,383.8306913999986,,,,,,,,,383.816494499988,384.179885199992,384.9830307999946,384.9637118999962,384.9637524999998,384.9830307999946,384.9830307999946,384.9830307999946,,387.0013474999869,right,1.0,35.34984730002179,,,,,,,,,,,,,,,,,,,,,,,,,,,,,,sub-003,1.0,random_dot,55.938203946310615,
right,right,accuracy,,,,,0.0,1.0,1.0,0.0,5.0,0.0,10.0,1.0,387.0201096999954,,,,,,,,,387.0037145999959,387.11266839999007,387.91611649999686,387.89653749999707,387.89657559999614,387.91611649999686,387.91611649999686,387.91611649999686,,389.1866263999982,left,0.0,34.60384930000873,,,,,,,,,,,,,,,,,,,,,,,,,,,,,,sub-003,1.0,random_dot,55.938203946310615,
left,left,accuracy,,,,,0.0,1.0,1.0,0.0,5.0,1.0,11.0,0.0,389.2009762999951,,,,,,,,,389.1889613999956,389.9951496999856,390.7994185999996,390.7796623999893,390.7797000999999,390.7994185999996,390.7994185999996,390.7994185999996,,391.833255599995,left,1.0,34.366866900003515,,,,,,,,,,,,,,,,,,,,,,,,,,,,,,sub-003,1.0,random_dot,55.938203946310615,
right,right,accuracy,,,,,0.0,1.0,1.0,0.0,6.0,0.0,12.0,1.0,391.84928849998687,,,,,,,,,391.8354449999897,393.04522119999456,393.8507846999855,393.8301951999893,393.8302355999913,393.8507846999855,393.8507846999855,393.8507846999855,,394.8386639999953,right,1.0,34.321658000015304,,,,,,,,,,,,,,,,,,,,,,,,,,,,,,sub-003,1.0,random_dot,55.938203946310615,
left,left,accuracy,,,,,0.0,1.0,1.0,0.0,6.0,1.0,13.0,0.0,394.8606467999925,,,,,,,,,394.8409904,394.94486059999326,395.7484101999871,395.7286987999978,395.7287376999884,395.7484101999871,395.7484101999871,395.7484101999871,,397.1517785999895,left,1.0,34.73189870000351,,,,,,,,,,,,,,,,,,,,,,,,,,,,,,sub-003,1.0,random_dot,55.938203946310615,
left,left,accuracy,,,,,0.0,1.0,1.0,0.0,7.0,0.0,14.0,0.0,397.1657689999993,,,,,,,,,397.1540789999999,397.9596443999908,398.76366319999215,398.7444273999863,398.7444678999891,398.76366319999215,398.76366319999215,398.76366319999215,,400.0034027999936,right,0.0,34.55871660000412,,,,,,,,,,,,,,,,,,,,,,,,,,,,,,sub-003,1.0,random_dot,55.938203946310615,
right,right,accuracy,,,,,0.0,1.0,1.0,0.0,7.0,1.0,15.0,1.0,400.0142463999946,,,,,,,,,400.0054671999969,401.2098943999881,402.0140204999916,401.9947474999936,401.9947853999911,402.0140204999916,402.0140204999916,402.0140204999916,,403.0569491999922,right,1.0,34.36955470000976,,,,,,,,,,,,,,,,,,,,,,,,,,,,,,sub-003,1.0,random_dot,55.938203946310615,
right,right,accuracy,,,,,0.0,1.0,1.0,0.0,8.0,0.0,16.0,1.0,403.0685976999957,,,,,,,,,403.0590722999914,403.15957329999947,403.96285889999126,403.9437861999904,403.9438243999903,403.96285889999126,403.96285889999126,403.96285889999126,,405.6267647999921,left,0.0,34.97953380001127,,,,,,,,,,,,,,,,,,,,,,,,,,,,,,sub-003,1.0,random_dot,55.938203946310615,
left,left,accuracy,,,,,0.0,1.0,1.0,0.0,8.0,1.0,17.0,0.0,405.64255249999405,,,,,,,,,405.6288441999932,406.8425384999864,407.6452226999973,407.62638109999534,407.6264184999891,407.6452226999973,407.6452226999973,407.6452226999973,,410.1289031999913,left,1.0,35.80198200001905,,,,,,,,,,,,,,,,,,,,,,,,,,,,,,sub-003,1.0,random_dot,55.938203946310615,
left,left,accuracy,,,,,0.0,1.0,1.0,0.0,9.0,0.0,18.0,0.0,410.1439823999972,,,,,,,,,410.1309823999909,411.344382299998,412.1627016999992,412.1426716999995,412.14273839999805,412.1627016999992,412.1627016999992,412.1627016999992,,414.2166358999966,right,0.0,35.381179700023495,,,,,,,,,,,,,,,,,,,,,,,,,,,,,,sub-003,1.0,random_dot,55.938203946310615,
right,right,accuracy,,,,,0.0,1.0,1.0,0.0,9.0,1.0,19.0,1.0,414.2280536999897,,,,,,,,,414.2188155999902,414.574507399986,415.3776300999889,415.358127399988,415.35816579998937,415.3776300999889,415.3776300999889,415.3776300999889,,416.6948633999855,right,1.0,34.641253800014965,,,,,,,,,,,,,,,,,,,,,,,,,,,,,,sub-003,1.0,random_dot,55.938203946310615,
right,right,accuracy,,,,,0.0,1.0,1.0,0.0,10.0,0.0,20.0,1.0,416.7185219999956,,,,,,,,,416.6970362999855,417.5070044999884,418.3105335,418.290917499995,418.2909572999925,418.3105335,418.3105335,418.3105335,,420.8086642999988,left,0.0,35.83022110001184,,,,,,,,,,,,,,,,,,,,,,,,,,,,,,sub-003,1.0,random_dot,55.938203946310615,
left,left,accuracy,,,,,0.0,1.0,1.0,0.0,10.0,1.0,21.0,0.0,420.8264872,,,,,,,,,420.81077659998846,421.172685499987,421.9767612999858,421.9571607999969,421.9571989999968,421.9767612999858,421.9767612999858,421.9767612999858,,423.2690897999855,right,0.0,34.62218000000576,,,,,,,,,,,,,,,,,,,,,,,,,,,,,,sub-003,1.0,random_dot,55.938203946310615,
left,left,accuracy,,,,,0.0,1.0,1.0,0.0,11.0,0.0,22.0,0.0,423.2886750999896,,,,,,,,,423.2711668999982,423.6220624999987,424.4264873999928,424.4067925999989,424.406831299988,424.4264873999928,424.4264873999928,424.4264873999928,,425.8986760999978,right,0.0,34.790596300008474,,,,,,,,,,,,,,,,,,,,,,,,,,,,,,sub-003,1.0,random_dot,55.938203946310615,
right,right,accuracy,,,,,0.0,1.0,1.0,0.0,11.0,1.0,23.0,1.0,425.9210613999894,,,,,,,,,425.9007630999986,426.7046160999889,427.50827249999566,427.48909139999887,427.4891290999949,427.50827249999566,427.50827249999566,427.50827249999566,,429.42910069999925,left,0.0,35.25468520002323,,,,,,,,,,,,,,,,,,,,,,,,,,,,,,sub-003,1.0,random_dot,55.938203946310615,
left,left,accuracy,,,,,0.0,1.0,1.0,0.0,12.0,0.0,24.0,0.0,429.4494373999914,,,,,,,,,429.4315371999983,430.6372306999983,431.4417340999935,431.4220013999875,431.4220405999949,431.4417340999935,431.4417340999935,431.4417340999935,,433.8963958999957,left,1.0,35.778414300017175,,,,,,,,,,,,,,,,,,,,,,,,,,,,,,sub-003,1.0,random_dot,55.938203946310615,
right,right,accuracy,,,,,0.0,1.0,1.0,0.0,12.0,1.0,25.0,1.0,433.9192855999863,,,,,,,,,433.8985517999972,434.2537687999866,435.0570473999978,435.0378645999881,435.0379022999987,435.0570473999978,435.0570473999978,435.0570473999978,,437.5117131999869,left,0.0,35.77305140001408,,,,,,,,,,,,,,,,,,,,,,,,,,,,,,sub-003,1.0,random_dot,55.938203946310615,
right,right,accuracy,,,,,0.0,1.0,1.0,0.0,13.0,0.0,26.0,1.0,437.525092099997,,,,,,,,,437.51400499999,437.6196911999869,438.4259118999908,438.4073776999867,438.40741739999794,438.4259118999908,438.4259118999908,438.4259118999908,,440.70490149999387,left,0.0,35.59179560000484,,,,,,,,,,,,,,,,,,,,,,,,,,,,,,sub-003,1.0,random_dot,55.938203946310615,
left,left,accuracy,,,,,0.0,1.0,1.0,0.0,13.0,1.0,27.0,0.0,440.72105769999325,,,,,,,,,440.7069799999881,440.8199007999938,441.6232048999954,441.6036887999944,441.6037262999889,441.6232048999954,441.6232048999954,441.6232048999954,,444.2435661999916,left,1.0,35.94172430000617,,,,,,,,,,,,,,,,,,,,,,,,,,,,,,sub-003,1.0,random_dot,55.938203946310615,
right,right,accuracy,,,,,0.0,1.0,1.0,0.0,14.0,0.0,28.0,1.0,444.2638469999947,,,,,,,,,444.2459075999941,445.4516296999937,446.258892599988,446.2385813999863,446.2386201999907,446.258892599988,446.258892599988,446.258892599988,,447.96869769999466,right,1.0,35.0287670000107,,,,,,,,,,,,,,,,,,,,,,,,,,,,,,sub-003,1.0,random_dot,55.938203946310615,
left,left,accuracy,,,,,0.0,1.0,1.0,0.0,14.0,1.0,29.0,0.0,447.9849432999909,,,,,,,,,447.9707472999871,448.0848676999885,448.88913909999246,448.8694080999994,448.8694474999938,448.88913909999246,448.88913909999246,448.88913909999246,,450.4639134999889,left,1.0,34.90135940001346,,,,,,,,,,,,,,,,,,,,,,,,,,,,,,sub-003,1.0,random_dot,55.938203946310615,
right,right,accuracy,,,,,0.0,1.0,1.0,0.0,15.0,0.0,30.0,1.0,450.48342389999016,,,,,,,,,450.465823999999,451.2671040999994,452.0721193999925,452.0519467999984,452.0519857999898,452.0721193999925,452.0721193999925,452.0721193999925,,453.4926022999862,right,1.0,34.745763300015824,,,,,,,,,,,,,,,,,,,,,,,,,,,,,,sub-003,1.0,random_dot,55.938203946310615,
left,left,accuracy,,,,,0.0,1.0,1.0,0.0,15.0,1.0,31.0,0.0,453.5036709999986,,,,,,,,,453.4947391999885,453.85066129999177,454.6532070999965,454.6338008999883,454.63384069998574,454.6532070999965,454.6532070999965,454.6532070999965,,456.5072826999967,left,1.0,35.173021900016465,,,,,,,,,,,,,,,,,,,,,,,,,,,,,,sub-003,1.0,random_dot,55.938203946310615,
right,right,accuracy,,,,,0.0,1.0,1.0,0.0,16.0,0.0,32.0,1.0,456.52064769998833,,,,,,,,,456.509575899996,457.3158740999934,458.1200259999896,458.1008090999967,458.1008472999965,458.1200259999896,458.1200259999896,458.1200259999896,,459.224484499995,right,1.0,34.43339600000763,,,,,,,,,,,,,,,,,,,,,,,,,,,,,,sub-003,1.0,random_dot,55.938203946310615,
left,left,accuracy,,,,,0.0,1.0,1.0,0.0,16.0,1.0,33.0,0.0,459.23851459998696,,,,,,,,,459.2268170999887,459.5825357999856,460.3857015999965,460.3665262999857,460.3665645999863,460.3857015999965,460.3857015999965,460.3857015999965,,462.1421315999905,left,1.0,35.08345290001307,,,,,,,,,,,,,,,,,,,,,,,,,,,,,,sub-003,1.0,random_dot,55.938203946310615,
left,left,accuracy,,,,,0.0,1.0,1.0,0.0,17.0,0.0,34.0,0.0,462.1553755999921,,,,,,,,,462.1444029999984,462.9487358999904,463.7542394999909,463.7325161999906,463.73255759998574,463.7542394999909,463.7542394999909,463.7542394999909,,465.5563915999956,right,0.0,35.125385700011975,,,,,,,,,,,,,,,,,,,,,,,,,,,,,,sub-003,1.0,random_dot,55.938203946310615,
right,right,accuracy,,,,,0.0,1.0,1.0,0.0,17.0,1.0,35.0,1.0,465.5765080999991,,,,,,,,,465.5587073999923,465.91460189998907,466.719014199989,466.6992527999973,466.6992907999957,466.719014199989,466.719014199989,466.719014199989,,469.3280591999937,right,1.0,35.939951400010614,,,,,,,,,,,,,,,,,,,,,,,,,,,,,,sub-003,1.0,random_dot,55.938203946310615,
right,right,accuracy,,,,,0.0,1.0,1.0,0.0,18.0,0.0,36.0,1.0,469.34693219998735,,,,,,,,,469.3300595999899,469.6803796999884,470.485691599999,470.465494899996,470.46553559998574,470.485691599999,470.485691599999,470.485691599999,,473.0374343999865,right,1.0,35.8781183000101,,,,,,,,,,,,,,,,,,,,,,,,,,,,,,sub-003,1.0,random_dot,55.938203946310615,
left,left,accuracy,,,,,0.0,1.0,1.0,0.0,18.0,1.0,37.0,0.0,473.0582118999882,,,,,,,,,473.03979749999417,473.147155499988,473.9501007999934,473.9309379999904,473.93097809999017,473.9501007999934,473.9501007999934,473.9501007999934,,474.8384498999949,left,1.0,34.21742000001541,,,,,,,,,,,,,,,,,,,,,,,,,,,,,,sub-003,1.0,random_dot,55.938203946310615,
left,left,accuracy,,,,,0.0,1.0,1.0,0.0,19.0,0.0,38.0,0.0,474.849933999998,,,,,,,,,474.8406151999952,475.1961108999967,476.0000382999861,475.98063939998974,475.9806778999919,476.0000382999861,476.0000382999861,476.0000382999861,,477.0879270999867,right,0.0,34.406684600020526,,,,,,,,,,,,,,,,,,,,,,,,,,,,,,sub-003,1.0,random_dot,55.938203946310615,
right,right,accuracy,,,,,0.0,1.0,1.0,0.0,19.0,1.0,39.0,1.0,477.0990762999864,,,,,,,,,477.0901106999954,477.8957339999906,478.7027086999879,478.6840604999889,478.6840999999986,478.7027086999879,478.7027086999879,478.7027086999879,,479.76446889998624,right,1.0,34.38030210000579,,,,,,,,,,,,,,,,,,,,,,,,,,,,,,sub-003,1.0,random_dot,55.938203946310615,
right,right,accuracy,,,,,0.0,1.0,1.0,0.0,20.0,0.0,40.0,1.0,479.7826764999918,,,,,,,,,479.7665849999903,480.981693099995,481.78958599999896,481.7685364999925,481.7685749999946,481.78958599999896,481.78958599999896,481.78958599999896,,483.24096889999055,right,1.0,34.77630090000457,,,,,,,,,,,,,,,,,,,,,,,,,,,,,,sub-003,1.0,random_dot,55.938203946310615,
left,left,accuracy,,,,,0.0,1.0,1.0,0.0,20.0,1.0,41.0,0.0,483.253592899986,,,,,,,,,483.243138299993,483.6014309999882,484.4056643999938,484.3847752999864,484.3848158999899,484.4056643999938,484.4056643999938,484.4056643999938,,485.4741123999993,left,1.0,34.385296000007656,,,,,,,,,,,,,,,,,,,,,,,,,,,,,,sub-003,1.0,random_dot,55.938203946310615,
left,left,accuracy,,,,,0.0,1.0,1.0,0.0,21.0,0.0,42.0,0.0,485.4861119999987,,,,,,,,,485.4763006999856,486.2801225999865,487.08684099999664,487.065382899993,487.0654211999936,487.08684099999664,487.08684099999664,487.08684099999664,,488.5525537999929,left,1.0,34.79346750001423,,,,,,,,,,,,,,,,,,,,,,,,,,,,,,sub-003,1.0,random_dot,55.938203946310615,
right,right,accuracy,,,,,0.0,1.0,1.0,0.0,21.0,1.0,43.0,1.0,488.5744477999978,,,,,,,,,488.5549415999994,488.9129962999869,489.7287111999904,489.7073703999922,489.7074087999936,489.7287111999904,489.7287111999904,489.7287111999904,,490.92850769999495,right,1.0,34.522637400004896,,,,,,,,,,,,,,,,,,,,,,,,,,,,,,sub-003,1.0,random_dot,55.938203946310615,
left,left,accuracy,,,,,0.0,1.0,1.0,0.0,22.0,0.0,44.0,0.0,490.9483606999856,,,,,,,,,490.9307017999963,491.7293775999861,492.5341426999949,492.5120849999949,492.5121237999992,492.5341426999949,492.5341426999949,492.5341426999949,,493.594886299994,left,1.0,34.3915590000106,,,,,,,,,,,,,,,,,,,,,,,,,,,,,,sub-003,1.0,random_dot,55.938203946310615,
right,right,accuracy,,,,,0.0,1.0,1.0,0.0,22.0,1.0,45.0,1.0,493.6142236999876,,,,,,,,,493.5970497999952,494.824088399997,495.6368682999892,495.6166030999884,495.6166693999985,495.6368682999892,495.6368682999892,495.6368682999892,,496.6610212999949,right,1.0,34.34758770001645,,,,,,,,,,,,,,,,,,,,,,,,,,,,,,sub-003,1.0,random_dot,55.938203946310615,
right,right,accuracy,,,,,0.0,1.0,1.0,0.0,23.0,0.0,46.0,1.0,496.680518299996,,,,,,,,,496.6632487999887,496.7655722999916,497.5709271999949,497.5502928999922,497.55033959999855,497.5709271999949,497.5709271999949,497.5709271999949,,498.43786259999615,right,1.0,34.181055400011246,,,,,,,,,,,,,,,,,,,,,,,,,,,,,,sub-003,1.0,random_dot,55.938203946310615,
left,left,accuracy,,,,,0.0,1.0,1.0,0.0,23.0,1.0,47.0,0.0,498.4503239999904,,,,,,,,,498.4400180999946,499.2442630999867,500.062005499989,500.04272259998834,500.0427602999989,500.062005499989,500.062005499989,500.062005499989,,500.88583479999215,left,1.0,34.15730240002449,,,,,,,,,,,,,,,,,,,,,,,,,,,,,,sub-003,1.0,random_dot,55.938203946310615,
left,left,accuracy,,,,,0.0,1.0,1.0,0.0,24.0,0.0,48.0,0.0,500.8970293999882,,,,,,,,,500.8879987999972,502.0911769999948,502.8960427999991,502.8761499999964,502.8761898999946,502.8960427999991,502.8960427999991,502.8960427999991,,504.96199359999446,left,1.0,35.38951690001704,,,,,,,,,,,,,,,,,,,,,,,,,,,,,,sub-003,1.0,random_dot,55.938203946310615,
right,right,accuracy,,,,,0.0,1.0,1.0,0.0,24.0,1.0,49.0,1.0,504.97887159998936,,,,,,,,,504.9641718999919,505.7742264999979,506.5785741999862,506.5588384999865,506.5588758999948,506.5785741999862,506.5785741999862,506.5785741999862,,507.7327455999912,right,1.0,34.48600100001204,,,,,,,,,,,,,,,,,,,,,,,,,,,,,,sub-003,1.0,random_dot,55.938203946310615,
left,left,accuracy,,,,,0.0,1.0,1.0,0.0,25.0,0.0,50.0,0.0,507.7436921999906,,,,,,,,,507.7348589999892,508.5400504999998,509.3442323999916,509.3247622999916,509.32480179998674,509.3442323999916,509.3442323999916,509.3442323999916,,510.444914599997,right,0.0,34.420145900017815,,,,,,,,,,,,,,,,,,,,,,,,,,,,,,sub-003,1.0,random_dot,55.938203946310615,
right,right,accuracy,,,,,0.0,1.0,1.0,0.0,25.0,1.0,51.0,1.0,510.4605693999911,,,,,,,,,510.44702719998895,510.8066073999944,511.6107092999882,511.591081999999,511.5911211999919,511.6107092999882,511.6107092999882,511.6107092999882,,513.0303404999868,right,1.0,34.755238400015514,,,,,,,,,,,,,,,,,,,,,,,,,,,,,,sub-003,1.0,random_dot,55.938203946310615,
left,left,accuracy,,,,,0.0,1.0,1.0,0.0,26.0,0.0,52.0,0.0,513.0513055999909,,,,,,,,,513.0327515999961,513.8390714999987,514.6427849999891,514.6234717999905,514.6235089999973,514.6427849999891,514.6427849999891,514.6427849999891,,515.8475192999904,left,1.0,34.52770090001286,,,,,,,,,,,,,,,,,,,,,,,,,,,,,,sub-003,1.0,random_dot,55.938203946310615,
right,right,accuracy,,,,,0.0,1.0,1.0,0.0,26.0,1.0,53.0,1.0,515.8672346999956,,,,,,,,,515.8501385999989,516.2052618999878,517.0091622999898,516.9899121999915,516.989949699986,517.0091622999898,517.0091622999898,517.0091622999898,,519.0446289999963,right,1.0,35.35220870000194,,,,,,,,,,,,,,,,,,,,,,,,,,,,,,sub-003,1.0,random_dot,55.938203946310615,
left,left,accuracy,,,,,0.0,1.0,1.0,0.0,27.0,0.0,54.0,0.0,519.0596667999926,,,,,,,,,519.0467729999946,519.8541740999935,520.6616927999858,520.6421688999981,520.6422097999894,520.6616927999858,520.6616927999858,520.6616927999858,,522.4456224999885,left,1.0,35.11884900002042,,,,,,,,,,,,,,,,,,,,,,,,,,,,,,sub-003,1.0,random_dot,55.938203946310615,
right,right,accuracy,,,,,0.0,1.0,1.0,0.0,27.0,1.0,55.0,1.0,522.4595834999927,,,,,,,,,522.4479275999911,522.8058648999868,523.6082917999884,523.5887190999929,523.5887573999935,523.6082917999884,523.6082917999884,523.6082917999884,,524.6297584999993,right,1.0,34.34275130002061,,,,,,,,,,,,,,,,,,,,,,,,,,,,,,sub-003,1.0,random_dot,55.938203946310615,
left,left,accuracy,,,,,0.0,1.0,1.0,0.0,28.0,0.0,56.0,0.0,524.6412452999939,,,,,,,,,524.6318648999877,525.4384267999994,526.2558550999966,526.2374020999996,526.2374390999903,526.2558550999966,526.2558550999966,526.2558550999966,,527.2311925999966,left,1.0,34.31032330001472,,,,,,,,,,,,,,,,,,,,,,,,,,,,,,sub-003,1.0,random_dot,55.938203946310615,
right,right,accuracy,,,,,0.0,1.0,1.0,0.0,28.0,1.0,57.0,1.0,527.2449105999985,,,,,,,,,527.2335309999908,527.3369047999877,528.1407208999881,528.1211453999858,528.1211853999994,528.1407208999881,528.1407208999881,528.1407208999881,,529.8960458999936,right,1.0,35.08735840000736,,,,,,,,,,,,,,,,,,,,,,,,,,,,,,sub-003,1.0,random_dot,55.938203946310615,
left,left,accuracy,,,,,0.0,1.0,1.0,0.0,29.0,0.0,58.0,0.0,529.9077998999855,,,,,,,,,529.8983383999876,531.103032199986,531.9075351999927,531.887653999991,531.8876915999863,531.9075351999927,531.9075351999927,531.9075351999927,,533.4100211999903,right,0.0,34.82668240001658,,,,,,,,,,,,,,,,,,,,,,,,,,,,,,sub-003,1.0,random_dot,55.938203946310615,
right,right,accuracy,,,,,0.0,1.0,1.0,0.0,29.0,1.0,59.0,1.0,533.4308292999922,,,,,,,,,533.412360199989,533.7682598999963,534.573645299999,534.553875499987,534.5539136999869,534.573645299999,534.573645299999,534.573645299999,,536.344265199994,left,0.0,35.095976199998404,,,,,,,,,,,,,,,,,,,,,,,,,,,,,,sub-003,1.0,random_dot,55.938203946310615,
,,accuracy,,,,,0.0,1.0,1.0,0.0,,,,,,,,,,,,,,,,,,,,,,,,,,,,,,,,,,,,,,,,,,,,,,,,,,,,,,,,sub-003,1.0,random_dot,55.938203946310615,
,,,,,,,,,,,,,,,,,,,,,,,,,,,,,,,,,,,,,,,,,,,,,,,,,,,,,,,,,,,,,,,536.3457874999876,536.3566922999889,541.3512740999868,sub-003,,,,
