direction,corrAns,thisN,thisTrialN,thisRepN,respDots.keys,respDots.corr,respDots.rt,respDots.duration,randomInstr,respRandomInstr.keys,respRandomInstr.rt,respRandomInstr.duration,practice_trials.thisRepN,practice_trials.thisTrialN,practice_trials.thisN,practice_trials.thisIndex,instr_trials.thisRepN,instr_trials.thisTrialN,instr_trials.thisN,instr_trials.thisIndex,test_trials.thisRepN,test_trials.thisTrialN,test_trials.thisN,test_trials.thisIndex,thisRow.t,notes,general_instruction.started,textGeneralInstr.started,respGeneralInstr.started,general_instruction.stopped,respGeneralInstr.keys,respGeneralInstr.rt,respGeneralInstr.duration,ITI.started,fixcross.started,fixcross.stopped,ITI.stopped,dots.started,backgroundDots.started,stimulusDots.started,respDots.started,dots.stopped,practice_trials.respDots.keys,practice_trials.respDots.corr,practice_trials.respDots.rt,practice_trials.respDots.duration,feedback.started,textFeedback.started,feedback.stopped,textFeedback.stopped,stimulusDots.stopped,info.started,textInfo.started,keyRespInfo.started,info.stopped,keyRespInfo.keys,keyRespInfo.rt,keyRespInfo.duration,test_instruction.started,textTestInstr.started,respTestInstr.started,test_instruction.stopped,respTestInstr.keys,respTestInstr.rt,respTestInstr.duration,random_instruction.started,textRandomInstr.started,respRandomInstr.started,random_instruction.stopped,instr_trials.respRandomInstr.keys,instr_trials.respRandomInstr.rt,instr_trials.respRandomInstr.duration,test_trials.respDots.keys,test_trials.respDots.corr,test_trials.respDots.rt,test_trials.respDots.duration,goodbye.started,textGoodbye.started,goodbye.stopped,participant,session,expName,frameRate,Unnamed: 87
,,,,,,,,,,,,,,,,,,,,,,,,,,,0.0184075139995911,0.0518662289996427,0.0518662289996427,2.947283067999706,space,2.8846871830000964,,,,,,,,,,,,,,,,,,,,,,,,,,,,,,,,,,,,,,,,,,,,,,,,sub-234,1,random_dot,89.66192451292284,
right,right,0.0,0.0,0.0,right,1.0,1.6097661949997928,,,,,,0.0,0.0,0.0,1.0,,,,,,,,,2.971811362999688,,,,,,,,,2.958028674000161,3.7439085659998455,4.555811377999817,4.534988391000297,4.535569992999626,4.555811377999817,4.555811377999817,4.555811377999817,6.173891954999817,right,1.0,1.6097661949997928,,6.180527776999952,6.192047102999823,6.684169266999561,,,,,,,,,,,,,,,,,,,,,,,,,,,,,,,sub-234,1,random_dot,89.66192451292284,
left,left,1.0,1.0,0.0,right,0.0,1.3973963079997702,,,,,,0.0,1.0,1.0,0.0,,,,,,,,,6.69318678000036,,,,,,,,,6.68466630399962,7.466300289999708,8.261467082000308,8.250719661000403,8.25126120799996,8.261467082000308,8.261467082000308,8.261467082000308,9.671558951000408,right,0.0,1.3973963079997702,,9.678663912000047,9.688545998000336,10.17580685899975,,,,,,,,,,,,,,,,,,,,,,,,,,,,,,,sub-234,1,random_dot,89.66192451292284,
left,left,2.0,0.0,1.0,right,0.0,0.9710084359994652,,,,,,1.0,0.0,2.0,0.0,,,,,,,,,10.198717590000342,,,,,,,,,10.176412488000096,10.51607393500035,11.309530970000196,11.299998206000057,11.300550627999655,11.309530970000196,11.309530970000196,11.309530970000196,12.29004885500035,right,0.0,0.9710084359994652,,12.29015950899975,12.298788617000357,12.784637245999876,12.79294881199985,,,,,,,,,,,,,,,,,,,,,,,,,,,,,,sub-234,1,random_dot,89.66192451292284,
right,right,3.0,1.0,1.0,right,1.0,0.9866659479994268,,,,,,1.0,1.0,3.0,1.0,,,,,,,,,12.79294881199985,,,,,,,,,12.785076101000412,13.582686298000226,14.377310292999937,14.36755081499996,14.368094133999875,14.377310292999937,14.377310292999937,14.377310292999937,15.368577451999954,right,1.0,0.9866659479994268,,15.371815122000044,15.38112688199999,15.866478414000085,15.873315638999884,,,,,,,,,,,,,,,,,,,,,,,,,,,,,,sub-234,1,random_dot,89.66192451292284,
left,left,4.0,0.0,2.0,right,0.0,2.361310475999744,,,,,,2.0,0.0,4.0,0.0,,,,,,,,,15.873315638999884,,,,,,,,,15.866943678999633,15.96561163899969,16.757839228000194,16.749535928000114,16.749942806000035,16.757839228000194,16.757839228000194,16.757839228000194,19.1259203339996,right,0.0,2.361310475999744,,19.12910269999975,19.13914438899974,19.63395364400003,,,,,,,,,,,,,,,,,,,,,,,,,,,,,,,sub-234,1,random_dot,89.66192451292284,
right,right,5.0,1.0,2.0,left,0.0,2.3787442180000653,,,,,,2.0,1.0,5.0,1.0,,,,,,,,,19.642821927000117,,,,,,,,,19.634445095000046,19.973365736000236,20.770678339999904,20.758385805000216,20.758944907000117,20.770678339999904,20.770678339999904,20.770678339999904,23.15205999400041,left,0.0,2.3787442180000653,,23.152247226000327,23.160797159999674,23.64998572999957,23.65704508900035,,,,,,,,,,,,,,,,,,,,,,,,,,,,,,sub-234,1,random_dot,89.66192451292284,
left,left,6.0,0.0,3.0,right,0.0,1.2927888559997882,,,,,,3.0,0.0,6.0,0.0,,,,,,,,,23.65704508900035,,,,,,,,,23.650426526000047,23.74890716200025,24.54290836200016,24.533719013000336,24.53426098,24.54290836200016,24.54290836200016,24.54290836200016,25.844662385999985,right,0.0,1.2927888559997882,,25.844796139999744,25.85395669799982,26.34213026700036,26.349775773000147,,,,,,,,,,,,,,,,,,,,,,,,,,,,,,sub-234,1,random_dot,89.66192451292284,
right,right,7.0,1.0,3.0,right,1.0,2.0591674229999626,,,,,,3.0,1.0,7.0,1.0,,,,,,,,,26.349775773000147,,,,,,,,,26.342598143000032,27.539697537999928,28.3332406239997,28.32307897099963,28.323534428999665,28.3332406239997,28.3332406239997,28.3332406239997,30.39689858699967,right,1.0,2.0591674229999626,,30.400544086999616,30.412768101999973,30.89878519099966,,,,,,,,,,,,,,,,,,,,,,,,,,,,,,,sub-234,1,random_dot,89.66192451292284,
left,left,8.0,0.0,4.0,left,1.0,2.9160505179997926,,,,,,4.0,0.0,8.0,0.0,,,,,,,,,30.906091529999685,,,,,,,,,30.89926110800025,30.98916962400017,31.79791992799983,31.774116890000187,31.77467979500034,31.79791992799983,31.79791992799983,31.79791992799983,34.71875679099958,left,1.0,2.9160505179997926,,34.71888468399993,34.72838243899969,35.216074768,35.2226142870004,,,,,,,,,,,,,,,,,,,,,,,,,,,,,,sub-234,1,random_dot,89.66192451292284,
right,right,9.0,1.0,4.0,left,0.0,4.136281328000223,,,,,,4.0,1.0,9.0,1.0,,,,,,,,,35.2226142870004,,,,,,,,,35.21640715899957,36.01531902199986,36.80669740899975,36.79881275099979,36.79910596799982,36.80669740899975,36.80669740899975,36.80669740899975,40.946998540000095,left,0.0,4.136281328000223,,40.951526664000085,40.962580239999625,41.449044674000106,,,,,,,,,,,,,,,,,,,,,,,,,,,,,,,sub-234,1,random_dot,89.66192451292284,
left,left,10.0,0.0,5.0,right,0.0,7.153061742999853,,,,,,5.0,0.0,10.0,0.0,,,,,,,,,41.45587308599988,,,,,,,,,41.44946669700039,42.24042509500032,43.035969685000055,43.02418155000032,43.02473739299967,43.035969685000055,43.035969685000055,43.035969685000055,50.19571570399967,right,0.0,7.153061742999853,,50.19582981300027,50.2061179909997,50.70017703299982,,48.02098727199973,,,,,,,,,,,,,,,,,,,,,,,,,,,,,sub-234,1,random_dot,89.66192451292284,
right,right,11.0,1.0,5.0,right,1.0,3.480614957999933,,,,,,5.0,1.0,11.0,1.0,,,,,,,,,50.70890789399982,,,,,,,,,50.70066308599962,51.88996667900028,52.69797677400038,52.67362099000002,52.67418544500015,52.69797677400038,52.69797677400038,52.69797677400038,56.18454719599959,right,1.0,3.480614957999933,,56.18736295300005,56.19679904900022,56.6840936790004,56.69114883200018,,,,,,,,,,,,,,,,,,,,,,,,,,,,,,sub-234,1,random_dot,89.66192451292284,
left,left,12.0,0.0,6.0,left,1.0,1.06761242399989,,,,,,6.0,0.0,12.0,0.0,,,,,,,,,56.69114883200018,,,,,,,,,56.68454675199973,57.48175706799975,58.27585087500029,58.26621844999954,58.26677228599965,58.27585087500029,58.27585087500029,58.27585087500029,59.3478208509996,left,1.0,1.06761242399989,,59.34794835299999,59.35794303700004,59.84307496800011,59.85376515099961,,,,,,,,,,,,,,,,,,,,,,,,,,,,,,sub-234,1,random_dot,89.66192451292284,
right,right,13.0,1.0,6.0,left,0.0,2.2254022749993965,,,,,,6.0,1.0,13.0,1.0,,,,,,,,,59.85376515099961,,,,,,,,,59.843541090000144,59.94170967100035,60.74729707000006,60.73469714099974,60.73524197000006,60.74729707000006,60.74729707000006,60.74729707000006,62.98445591600012,left,0.0,2.2254022749993965,,62.98768145299982,62.99673302700012,63.48316752099981,63.48923388700041,,,,,,,,,,,,,,,,,,,,,,,,,,,,,,sub-234,1,random_dot,89.66192451292284,
left,left,14.0,0.0,7.0,right,0.0,2.905620022999756,,,,,,7.0,0.0,14.0,0.0,,,,,,,,,63.48923388700041,,,,,,,,,63.483415120000245,64.28196636400025,65.07667698000023,65.06686791599986,65.0674139419998,65.07667698000023,65.07667698000023,65.07667698000023,67.98924674299997,right,0.0,2.905620022999756,,67.98936011899968,67.99951265999971,68.48329636800008,68.49104646700016,,,,,,,,,,,,,,,,,,,,,,,,,,,,,,sub-234,1,random_dot,89.66192451292284,
right,right,15.0,1.0,7.0,right,1.0,1.953337320999708,,,,,,7.0,1.0,15.0,1.0,,,,,,,,,68.49104646700016,,,,,,,,,68.48374393500035,68.83194999300031,69.62671822999982,69.61700684900006,69.617548317,69.62671822999982,69.62671822999982,69.62671822999982,71.58897889299988,right,1.0,1.953337320999708,,71.5921060970004,71.60100297200006,72.09047559299961,72.09933835300035,,,,,,,,,,,,,,,,,,,,,,,,,,,,,,sub-234,1,random_dot,89.66192451292284,
right,right,16.0,0.0,8.0,right,1.0,4.103837003999615,,,,,,8.0,0.0,16.0,1.0,,,,,,,,,72.09933835300035,,,,,,,,,72.09095123400039,73.28173987900027,74.0757268110001,74.06600707500002,74.06655010800023,74.0757268110001,74.0757268110001,74.0757268110001,78.18934089199956,right,1.0,4.103837003999615,,78.18946701999994,78.19853358599994,78.68354633200033,78.69159390599998,,,,,,,,,,,,,,,,,,,,,,,,,,,,,,sub-234,1,random_dot,89.66192451292284,
left,left,17.0,1.0,8.0,right,0.0,3.48016540899971,,,,,,8.0,1.0,17.0,0.0,,,,,,,,,78.69159390599998,,,,,,,,,78.6838851980001,79.03286109599958,79.84730294600013,79.82311634300004,79.82367624699964,79.84730294600013,79.84730294600013,79.84730294600013,83.33073090000016,right,0.0,3.48016540899971,,83.3344894490001,83.34467553600007,83.83303876900027,,,,,,,,,,,,,,,,,,,,,,,,,,,,,,,sub-234,1,random_dot,89.66192451292284,
left,left,18.0,0.0,9.0,left,1.0,1.416352299000209,,,,,,9.0,0.0,18.0,0.0,,,,,,,,,83.842013253,,,,,,,,,83.83350109700041,83.9248239110002,84.72062791699955,84.7102255740001,84.71079883699986,84.72062791699955,84.72062791699955,84.72062791699955,86.14337693499965,left,1.0,1.416352299000209,,86.14643370300018,86.15567579599974,86.64178220800022,86.66402581500006,,,,,,,,,,,,,,,,,,,,,,,,,,,,,,sub-234,1,random_dot,89.66192451292284,
right,right,19.0,1.0,9.0,left,0.0,2.1960178680001263,,,,,,9.0,1.0,19.0,1.0,,,,,,,,,86.66402581500006,,,,,,,,,86.6422518620002,86.98955298100009,87.79164661600043,87.78219953600001,87.78274310899997,87.79164661600043,87.79164661600043,87.79164661600043,89.99999163899975,left,0.0,2.1960178680001263,,90.00309694800035,90.01492536200021,90.49921823899967,90.5101430169998,,,,,,,,,,,,,,,,,,,,,,,,,,,,,,sub-234,1,random_dot,89.66192451292284,
,,,,,,,,,,,,,,,,,,,,,,,,,,,,,,,,,,,,,,,,,,,,,,,,,,,,90.49940153500027,90.5101430169998,90.5101430169998,98.6442506249996,space,8.12645537699973,,,,,,,,,,,,,,,,,,,,,,,sub-234,1,random_dot,89.66192451292284,
,,,,,,,,,,,,,,,,,,,,,,,,,,,,,,,,,,,,,,,,,,,,,,,,,,,,,,,,,,,98.6443240640001,98.656892813,98.656892813,117.40589373199964,space,18.7317320559996,,,,,,,,,,,,,,,,sub-234,1,random_dot,89.66192451292284,
right,right,0.0,0.0,0.0,right,1.0,2.652980949999801,,accuracy,space,3.069314261000727,,,,,,0.0,0.0,0.0,0.0,0.0,0.0,0.0,1.0,120.54078264500004,,,,,,,,,120.53034340500017,120.8732146450002,121.66918884400002,121.65732319299968,121.65788434099976,121.66918884400002,121.66918884400002,121.66918884400002,124.3347829280001,,,,,,,,,,,,,,,,,,,,,,,,117.43044192999967,117.4412000399998,117.4412000399998,120.5236328279998,space,3.069314261000727,,right,1.0,2.652980949999801,,,,,sub-234,1,random_dot,89.66192451292284,
left,left,1.0,1.0,0.0,left,1.0,2.025801312999647,,accuracy,space,3.069314261000727,,,,,,0.0,0.0,0.0,0.0,0.0,1.0,1.0,0.0,124.34316627600036,,,,,,,,,124.33516885900008,124.43255735900038,125.22717317899968,125.21659855100006,125.21700457000044,125.22717317899968,125.22717317899968,125.22717317899968,127.25622965399998,,,,,,,,,,,,,,,,,,,,,,,,,,,,,,,left,1.0,2.025801312999647,,,,,sub-234,1,random_dot,89.66192451292284,
left,left,2.0,0.0,1.0,left,1.0,3.2348545849999937,,accuracy,space,3.069314261000727,,,,,,0.0,0.0,0.0,0.0,1.0,0.0,2.0,0.0,127.2652149530004,,,,,,,,,127.2565382949997,127.6055487550002,128.40194992600027,128.38952231700023,128.39007924500038,128.40194992600027,128.40194992600027,128.40194992600027,131.63914919699982,,,,,,,,,,,,,,,,,,,,,,,,,,,,,,,left,1.0,3.2348545849999937,,,,,sub-234,1,random_dot,89.66192451292284,
right,right,3.0,1.0,1.0,right,1.0,4.547500446000413,,accuracy,space,3.069314261000727,,,,,,0.0,0.0,0.0,0.0,1.0,1.0,3.0,1.0,131.64841596400038,,,,,,,,,131.63999683600014,131.731277889,132.5312924050004,132.51978569099992,132.5203432340004,132.5312924050004,132.5312924050004,132.5312924050004,137.08453182799985,,,,,,,,,,,,,,,,,,,,,,,,,,,,,,,right,1.0,4.547500446000413,,,,,sub-234,1,random_dot,89.66192451292284,
right,right,4.0,0.0,2.0,right,1.0,3.8743798920004338,,accuracy,space,3.069314261000727,,,,,,0.0,0.0,0.0,0.0,2.0,0.0,4.0,1.0,137.09256614100013,,,,,,,,,137.08496293200005,137.43097754500013,138.2232322760001,138.2146925320003,138.2150990580003,138.2232322760001,138.2232322760001,138.2232322760001,142.10470900400014,,,,,,,,,,,,,,,,,,,,,,,,,,,,,,,right,1.0,3.8743798920004338,,,,,sub-234,1,random_dot,89.66192451292284,
left,left,5.0,1.0,2.0,left,1.0,2.694359111999802,,accuracy,space,3.069314261000727,,,,,,0.0,0.0,0.0,0.0,2.0,1.0,5.0,0.0,142.1148068270004,,,,,,,,,142.1050883930002,142.8975504250002,143.69252150099965,143.6828459620001,143.68339094299972,143.69252150099965,143.69252150099965,143.69252150099965,146.4003356789999,,,,,,,,,,,,,,,,,,,,,,,,,,,,,,,left,1.0,2.694359111999802,,,,,sub-234,1,random_dot,89.66192451292284,
left,left,6.0,0.0,3.0,right,0.0,5.722910620999755,,accuracy,space,3.069314261000727,,,,,,0.0,0.0,0.0,0.0,3.0,0.0,6.0,0.0,146.41012739599955,,,,,,,,,146.40091974000006,146.49741228099992,147.29223304900006,147.28250061699964,147.2830442300001,147.29223304900006,147.29223304900006,147.29223304900006,153.0222298640001,,,,,,,,,152.283147784,,,,,,,,,,,,,,,,,,,,,,right,0.0,5.722910620999755,,,,,sub-234,1,random_dot,89.66192451292284,
right,right,7.0,1.0,3.0,right,1.0,1.335950268000488,,accuracy,space,3.069314261000727,,,,,,0.0,0.0,0.0,0.0,3.0,1.0,7.0,1.0,153.03091874100028,,,,,,,,,153.02254460299991,154.220259146,155.0141779200003,155.0048694469997,155.00542911499997,155.0141779200003,155.0141779200003,155.0141779200003,156.36078932799956,,,,,,,,,,,,,,,,,,,,,,,,,,,,,,,right,1.0,1.335950268000488,,,,,sub-234,1,random_dot,89.66192451292284,
left,left,8.0,0.0,4.0,left,1.0,1.149027051000303,,accuracy,space,3.069314261000727,,,,,,0.0,0.0,0.0,0.0,4.0,0.0,8.0,0.0,156.37025973500022,,,,,,,,,156.36117019300036,157.55497623599967,158.35633485800008,158.3479743329999,158.34829333200014,158.35633485800008,158.35633485800008,158.35633485800008,159.50992005700027,,,,,,,,,,,,,,,,,,,,,,,,,,,,,,,left,1.0,1.149027051000303,,,,,sub-234,1,random_dot,89.66192451292284,
right,right,9.0,1.0,4.0,left,0.0,1.532113434999701,,accuracy,space,3.069314261000727,,,,,,0.0,0.0,0.0,0.0,4.0,1.0,9.0,1.0,159.5195004950001,,,,,,,,,159.51032482499977,159.85493073999987,160.65192367300006,160.63956693399996,160.6401270690003,160.65192367300006,160.65192367300006,160.65192367300006,162.1956807610004,,,,,,,,,,,,,,,,,,,,,,,,,,,,,,,left,0.0,1.532113434999701,,,,,sub-234,1,random_dot,89.66192451292284,
right,right,10.0,0.0,5.0,right,1.0,1.1063084639999945,,accuracy,space,3.069314261000727,,,,,,0.0,0.0,0.0,0.0,5.0,0.0,10.0,1.0,162.20565000900024,,,,,,,,,162.19620413200028,162.28809679700043,163.0962006259997,163.07231797199984,163.07287740399988,163.0962006259997,163.0962006259997,163.0962006259997,164.2091908499997,,,,,,,,,,,,,,,,,,,,,,,,,,,,,,,right,1.0,1.1063084639999945,,,,,sub-234,1,random_dot,89.66192451292284,
left,left,11.0,1.0,5.0,left,1.0,1.591012717999547,,accuracy,space,3.069314261000727,,,,,,0.0,0.0,0.0,0.0,5.0,1.0,11.0,0.0,164.21891540999968,,,,,,,,,164.20968502199958,164.5551599270002,165.3583956250004,165.34863316599967,165.34919529499984,165.3583956250004,165.3583956250004,165.3583956250004,166.96122158199978,,,,,,,,,,,,,,,,,,,,,,,,,,,,,,,left,1.0,1.591012717999547,,,,,sub-234,1,random_dot,89.66192451292284,
right,right,12.0,0.0,6.0,left,0.0,2.130877022000277,,accuracy,space,3.069314261000727,,,,,,0.0,0.0,0.0,0.0,6.0,0.0,12.0,1.0,166.97122768099962,,,,,,,,,166.96165713699975,167.3047392790004,168.10209501000008,168.08962375600004,168.09017693700025,168.10209501000008,168.10209501000008,168.10209501000008,170.2445000480002,,,,,,,,,,,,,,,,,,,,,,,,,,,,,,,left,0.0,2.130877022000277,,,,,sub-234,1,random_dot,89.66192451292284,
left,left,13.0,1.0,6.0,right,0.0,1.294701941999847,,accuracy,space,3.069314261000727,,,,,,0.0,0.0,0.0,0.0,6.0,1.0,13.0,0.0,170.2537828200002,,,,,,,,,170.24493504800012,171.43827126799988,172.23555386299995,172.22380721300033,172.2243637419997,172.23555386299995,172.23555386299995,172.23555386299995,173.54078905799997,,,,,,,,,,,,,,,,,,,,,,,,,,,,,,,right,0.0,1.294701941999847,,,,,sub-234,1,random_dot,89.66192451292284,
left,left,14.0,0.0,7.0,left,1.0,2.50484021200009,,accuracy,space,3.069314261000727,,,,,,0.0,0.0,0.0,0.0,7.0,0.0,14.0,0.0,173.55122180499984,,,,,,,,,173.5412449080004,173.6395965749998,174.43948577799983,174.4308801799998,174.43128921700009,174.43948577799983,174.43948577799983,174.43948577799983,176.9545960960004,,,,,,,,,,,,,,,,,,,,,,,,,,,,,,,left,1.0,2.50484021200009,,,,,sub-234,1,random_dot,89.66192451292284,
right,right,15.0,1.0,7.0,right,1.0,2.1076887520002856,,accuracy,space,3.069314261000727,,,,,,0.0,0.0,0.0,0.0,7.0,1.0,15.0,1.0,176.9651278729998,,,,,,,,,176.9550446000003,178.14704406599958,178.94097231900014,178.93126214899985,178.93181115900006,178.94097231900014,178.94097231900014,178.94097231900014,181.06018581100037,,,,,,,,,,,,,,,,,,,,,,,,,,,,,,,right,1.0,2.1076887520002856,,,,,sub-234,1,random_dot,89.66192451292284,
left,left,16.0,0.0,8.0,left,1.0,0.9090703259998918,,accuracy,space,3.069314261000727,,,,,,0.0,0.0,0.0,0.0,8.0,0.0,16.0,0.0,181.06993860300008,,,,,,,,,181.06063667200036,181.4046896279997,182.20181675299955,182.1896987500004,182.19025002800024,182.20181675299955,182.20181675299955,182.20181675299955,183.12218176199983,,,,,,,,,,,,,,,,,,,,,,,,,,,,,,,left,1.0,0.9090703259998918,,,,,sub-234,1,random_dot,89.66192451292284,
right,right,17.0,1.0,8.0,right,1.0,2.8011539449998963,,accuracy,space,3.069314261000727,,,,,,0.0,0.0,0.0,0.0,8.0,1.0,17.0,1.0,183.13119148900023,,,,,,,,,183.12264754199987,183.47141643000032,184.26848812499972,184.2563666409997,184.25692296000037,184.26848812499972,184.26848812499972,184.26848812499972,187.0769562859996,,,,,,,,,,,,,,,,,,,,,,,,,,,,,,,right,1.0,2.8011539449998963,,,,,sub-234,1,random_dot,89.66192451292284,
left,left,18.0,0.0,9.0,left,1.0,0.9346137319998888,,accuracy,space,3.069314261000727,,,,,,0.0,0.0,0.0,0.0,9.0,0.0,18.0,0.0,187.08642111599968,,,,,,,,,187.07733695800016,187.8711932870001,188.69668955,188.680004975,188.68042670900013,188.69668955,188.69668955,188.69668955,189.6378410179996,,,,,,,,,,,,,,,,,,,,,,,,,,,,,,,left,1.0,0.9346137319998888,,,,,sub-234,1,random_dot,89.66192451292284,
right,right,19.0,1.0,9.0,left,0.0,1.603607688000011,,accuracy,space,3.069314261000727,,,,,,0.0,0.0,0.0,0.0,9.0,1.0,19.0,1.0,189.64588718599956,,,,,,,,,189.63822575799983,189.9806034220001,190.77538296199964,190.7656943640004,190.76624358000024,190.77538296199964,190.77538296199964,190.77538296199964,192.38406537399987,,,,,,,,,,,,,,,,,,,,,,,,,,,,,,,left,0.0,1.603607688000011,,,,,sub-234,1,random_dot,89.66192451292284,
right,right,20.0,0.0,10.0,right,1.0,3.126883255999928,,accuracy,space,3.069314261000727,,,,,,0.0,0.0,0.0,0.0,10.0,0.0,20.0,1.0,192.39315383899972,,,,,,,,,192.3845086580004,193.5800785299998,194.372951329,194.36415530700012,194.36456007200013,194.372951329,194.372951329,194.372951329,197.50346146399988,,,,,,,,,,,,,,,,,,,,,,,,,,,,,,,right,1.0,3.126883255999928,,,,,sub-234,1,random_dot,89.66192451292284,
left,left,21.0,1.0,10.0,left,1.0,3.897110770999461,,accuracy,space,3.069314261000727,,,,,,0.0,0.0,0.0,0.0,10.0,1.0,21.0,0.0,197.51354682999957,,,,,,,,,197.5039001329997,197.84720259700043,198.6419759829996,198.63232648200028,198.6328653540004,198.6419759829996,198.6419759829996,198.6419759829996,202.54943625299984,,,,,,,,,,,,,,,,,,,,,,,,,,,,,,,left,1.0,3.897110770999461,,,,,sub-234,1,random_dot,89.66192451292284,
right,right,22.0,0.0,11.0,right,1.0,2.4464191830002164,,accuracy,space,3.069314261000727,,,,,,0.0,0.0,0.0,0.0,11.0,0.0,22.0,1.0,202.5637007060004,,,,,,,,,202.5500341500001,202.64689507299957,203.44075059599984,203.43113695099964,203.43167771299977,203.44075059599984,203.44075059599984,203.44075059599984,205.9058228519998,,,,,,,,,,,,,,,,,,,,,,,,,,,,,,,right,1.0,2.4464191830002164,,,,,sub-234,1,random_dot,89.66192451292284,
left,left,23.0,1.0,11.0,left,1.0,1.495752805999473,,accuracy,space,3.069314261000727,,,,,,0.0,0.0,0.0,0.0,11.0,1.0,23.0,0.0,205.91523692099963,,,,,,,,,205.90647401200025,206.253267133,207.05026770299992,207.03863896799976,207.0392026890004,207.05026770299992,207.05026770299992,207.05026770299992,208.54986972200004,,,,,,,,,,,,,,,,,,,,,,,,,,,,,,,left,1.0,1.495752805999473,,,,,sub-234,1,random_dot,89.66192451292284,
right,right,24.0,0.0,12.0,right,1.0,2.9568368809996173,,accuracy,space,3.069314261000727,,,,,,0.0,0.0,0.0,0.0,12.0,0.0,24.0,1.0,208.5598136790004,,,,,,,,,208.550278146,208.89617175199965,209.68855848600012,209.68020563400023,209.68061023500013,209.68855848600012,209.68855848600012,209.68855848600012,212.65350273700005,,,,,,,,,,,,,,,,,,,,,,,,,,,,,,,right,1.0,2.9568368809996173,,,,,sub-234,1,random_dot,89.66192451292284,
left,left,25.0,1.0,12.0,right,0.0,2.974427823000042,,accuracy,space,3.069314261000727,,,,,,0.0,0.0,0.0,0.0,12.0,1.0,25.0,0.0,212.6635954579997,,,,,,,,,212.65388035500015,213.4465001819999,214.24124521500016,214.231438367,214.231983398,214.24124521500016,214.24124521500016,214.24124521500016,217.2203283660001,,,,,,,,,,,,,,,,,,,,,,,,,,,,,,,right,0.0,2.974427823000042,,,,,sub-234,1,random_dot,89.66192451292284,
right,right,26.0,0.0,13.0,right,1.0,3.100662312000168,,accuracy,space,3.069314261000727,,,,,,0.0,0.0,0.0,0.0,13.0,0.0,26.0,1.0,217.22967308399984,,,,,,,,,217.220708588,218.0129740230004,218.8070606410001,218.7975833669998,218.7981227090004,218.8070606410001,218.8070606410001,218.8070606410001,221.9171269709996,,,,,,,,,,,,,,,,,,,,,,,,,,,,,,,right,1.0,3.100662312000168,,,,,sub-234,1,random_dot,89.66192451292284,
left,left,27.0,1.0,13.0,left,1.0,1.3990438430000722,,accuracy,space,3.069314261000727,,,,,,0.0,0.0,0.0,0.0,13.0,1.0,27.0,0.0,221.92627669400008,,,,,,,,,221.91750134599988,222.01424565399972,222.8106861360002,222.79896892099987,222.79951469800017,222.8106861360002,222.8106861360002,222.8106861360002,224.2162363970001,,,,,,,,,,,,,,,,,,,,,,,,,,,,,,,left,1.0,1.3990438430000722,,,,,sub-234,1,random_dot,89.66192451292284,
left,left,28.0,0.0,14.0,left,1.0,2.382703647999733,,accuracy,space,3.069314261000727,,,,,,0.0,0.0,0.0,0.0,14.0,0.0,28.0,0.0,224.2244807039997,,,,,,,,,224.21668432000024,225.41305884800025,226.2075550720001,226.1977354889996,226.19827710000027,226.2075550720001,226.2075550720001,226.2075550720001,228.59416226699977,,,,,,,,,,,,,,,,,,,,,,,,,,,,,,,left,1.0,2.382703647999733,,,,,sub-234,1,random_dot,89.66192451292284,
right,right,29.0,1.0,14.0,right,1.0,2.6235887050006568,,accuracy,space,3.069314261000727,,,,,,0.0,0.0,0.0,0.0,14.0,1.0,29.0,1.0,228.6040560949996,,,,,,,,,228.594864832,228.93740637100015,229.7454728519997,229.72134629500036,229.72190258199956,229.7454728519997,229.7454728519997,229.7454728519997,232.3766857999999,,,,,,,,,,,,,,,,,,,,,,,,,,,,,,,right,1.0,2.6235887050006568,,,,,sub-234,1,random_dot,89.66192451292284,
left,left,30.0,0.0,15.0,left,1.0,2.653356896999867,,accuracy,space,3.069314261000727,,,,,,0.0,0.0,0.0,0.0,15.0,0.0,30.0,0.0,232.3860545280004,,,,,,,,,232.3770746729997,232.7199877080002,233.51732639300008,233.5052811449996,233.5058349580004,233.51732639300008,233.51732639300008,233.51732639300008,236.18268225300017,,,,,,,,,,,,,,,,,,,,,,,,,,,,,,,left,1.0,2.653356896999867,,,,,sub-234,1,random_dot,89.66192451292284,
right,right,31.0,1.0,15.0,right,1.0,2.006732864999321,,accuracy,space,3.069314261000727,,,,,,0.0,0.0,0.0,0.0,15.0,1.0,31.0,1.0,236.19180145599967,,,,,,,,,236.183118594,237.3796797340001,238.17322992000027,238.1637887999996,238.16433195300036,238.17322992000027,238.17322992000027,238.17322992000027,240.18667820999963,,,,,,,,,,,,,,,,,,,,,,,,,,,,,,,right,1.0,2.006732864999321,,,,,sub-234,1,random_dot,89.66192451292284,
left,left,32.0,0.0,16.0,left,1.0,1.343117648999396,,accuracy,space,3.069314261000727,,,,,,0.0,0.0,0.0,0.0,16.0,0.0,32.0,0.0,240.1971826210001,,,,,,,,,240.18706216899955,240.27986497799972,241.0979138140001,241.08148061300017,241.0820380490004,241.0979138140001,241.0979138140001,241.0979138140001,242.45042521399955,,,,,,,,,,,,,,,,,,,,,,,,,,,,,,,left,1.0,1.343117648999396,,,,,sub-234,1,random_dot,89.66192451292284,
right,right,33.0,1.0,16.0,left,0.0,3.110087066999768,,accuracy,space,3.069314261000727,,,,,,0.0,0.0,0.0,0.0,16.0,1.0,33.0,1.0,242.45968778499991,,,,,,,,,242.45082111600004,243.64615577899983,244.4385169130001,244.43005985800028,244.4304275479999,244.4385169130001,244.4385169130001,244.4385169130001,247.55937065499984,,,,,,,,,,,,,,,,,,,,,,,,,,,,,,,left,0.0,3.110087066999768,,,,,sub-234,1,random_dot,89.66192451292284,
right,right,34.0,0.0,17.0,right,1.0,1.6412148859999434,,accuracy,space,3.069314261000727,,,,,,0.0,0.0,0.0,0.0,17.0,0.0,34.0,1.0,247.56887419099985,,,,,,,,,247.55988257799984,248.7538938710004,249.5546680139996,249.54636089799988,249.546769136,249.5546680139996,249.5546680139996,249.5546680139996,251.20026621099987,,,,,,,,,,,,,,,,,,,,,,,,,,,,,,,right,1.0,1.6412148859999434,,,,,sub-234,1,random_dot,89.66192451292284,
left,left,35.0,1.0,17.0,right,0.0,1.637759258999722,,accuracy,space,3.069314261000727,,,,,,0.0,0.0,0.0,0.0,17.0,1.0,35.0,0.0,251.21013353699985,,,,,,,,,251.20088456600024,252.395140824,253.1893775059998,253.17976395999997,253.18032300100003,253.1893775059998,253.1893775059998,253.1893775059998,254.8370290619996,,,,,,,,,,,,,,,,,,,,,,,,,,,,,,,right,0.0,1.637759258999722,,,,,sub-234,1,random_dot,89.66192451292284,
right,right,36.0,0.0,18.0,right,1.0,1.8200017489998568,,accuracy,space,3.069314261000727,,,,,,0.0,0.0,0.0,0.0,18.0,0.0,36.0,1.0,254.8447864990003,,,,,,,,,254.83740772999957,254.93595693000043,255.7452306770001,255.72106993099987,255.7216288669997,255.7452306770001,255.7452306770001,255.7452306770001,257.5762036810001,,,,,,,,,,,,,,,,,,,,,,,,,,,,,,,right,1.0,1.8200017489998568,,,,,sub-234,1,random_dot,89.66192451292284,
left,left,37.0,1.0,18.0,left,1.0,3.009127212000749,,accuracy,space,3.069314261000727,,,,,,0.0,0.0,0.0,0.0,18.0,1.0,37.0,0.0,257.58620375400005,,,,,,,,,257.5766332960002,258.7704149379997,259.57376800400016,259.56274059000043,259.5630455500004,259.57376800400016,259.57376800400016,259.57376800400016,262.58763179499965,,,,,,,,,,,,,,,,,,,,,,,,,,,,,,,left,1.0,3.009127212000749,,,,,sub-234,1,random_dot,89.66192451292284,
right,right,38.0,0.0,19.0,left,0.0,1.9483924119995208,,accuracy,space,3.069314261000727,,,,,,0.0,0.0,0.0,0.0,19.0,0.0,38.0,1.0,262.5965312090002,,,,,,,,,262.5880076499998,262.93627180800013,263.73373424500005,263.72128025999973,263.72184628499963,263.73373424500005,263.73373424500005,263.73373424500005,265.68619864799984,,,,,,,,,,,,,,,,,,,,,,,,,,,,,,,left,0.0,1.9483924119995208,,,,,sub-234,1,random_dot,89.66192451292284,
left,left,39.0,1.0,19.0,left,1.0,2.323857633999978,,accuracy,space,3.069314261000727,,,,,,0.0,0.0,0.0,0.0,19.0,1.0,39.0,0.0,265.696066431,,,,,,,,,265.6866082229999,265.77919827200003,266.5730788359997,266.56338694199985,266.56393534000017,266.5730788359997,266.5730788359997,266.5730788359997,268.89940397099963,,,,,,,,,,,,,,,,,,,,,,,,,,,,,,,left,1.0,2.323857633999978,,,,,sub-234,1,random_dot,89.66192451292284,
left,left,40.0,0.0,20.0,right,0.0,0.9763062629999696,,accuracy,space,3.069314261000727,,,,,,0.0,0.0,0.0,0.0,20.0,0.0,40.0,0.0,268.9084332960001,,,,,,,,,268.90004151500034,269.6952682909996,270.4891141340004,270.4796639460001,270.48021248199984,270.4891141340004,270.4891141340004,270.4891141340004,271.4691532480001,,,,,,,,,,,,,,,,,,,,,,,,,,,,,,,right,0.0,0.9763062629999696,,,,,sub-234,1,random_dot,89.66192451292284,
right,right,41.0,1.0,20.0,left,0.0,1.7008236430001489,,accuracy,space,3.069314261000727,,,,,,0.0,0.0,0.0,0.0,20.0,1.0,41.0,1.0,271.47924938599954,,,,,,,,,271.4695398900003,272.668998997,273.4662973249997,273.4546036069996,273.4551555750004,273.4662973249997,273.4662973249997,273.4662973249997,275.1702310359997,,,,,,,,,,,,,,,,,,,,,,,,,,,,,,,left,0.0,1.7008236430001489,,,,,sub-234,1,random_dot,89.66192451292284,
right,right,42.0,0.0,21.0,left,0.0,1.6402021730000342,,accuracy,space,3.069314261000727,,,,,,0.0,0.0,0.0,0.0,21.0,0.0,42.0,1.0,275.1783401390003,,,,,,,,,275.17054002999976,275.967765073,276.76287376799974,276.7531841130003,276.75373520500034,276.76287376799974,276.76287376799974,276.76287376799974,278.405880929,,,,,,,,,,,,,,,,,,,,,,,,,,,,,,,left,0.0,1.6402021730000342,,,,,sub-234,1,random_dot,89.66192451292284,
left,left,43.0,1.0,21.0,left,1.0,2.47835630300051,,accuracy,space,3.069314261000727,,,,,,0.0,0.0,0.0,0.0,21.0,1.0,43.0,0.0,278.41784101099984,,,,,,,,,278.4062035670004,279.6036583100004,280.41117938299976,280.3887342580001,280.3890807050002,280.41117938299976,280.41117938299976,280.41117938299976,282.892399714,,,,,,,,,,,,,,,,,,,,,,,,,,,,,,,left,1.0,2.47835630300051,,,,,sub-234,1,random_dot,89.66192451292284,
right,right,44.0,0.0,22.0,right,1.0,1.563164570000481,,accuracy,space,3.069314261000727,,,,,,0.0,0.0,0.0,0.0,22.0,0.0,44.0,1.0,282.90157181799987,,,,,,,,,282.89294619300017,282.9855083100001,283.779352947,283.76928756800044,283.7696979350003,283.779352947,283.779352947,283.779352947,285.34958905999974,,,,,,,,,,,,,,,,,,,,,,,,,,,,,,,right,1.0,1.563164570000481,,,,,sub-234,1,random_dot,89.66192451292284,
left,left,45.0,1.0,22.0,left,1.0,1.6479927240006873,,accuracy,space,3.069314261000727,,,,,,0.0,0.0,0.0,0.0,22.0,1.0,45.0,0.0,285.3608016389999,,,,,,,,,285.34992767099993,285.44542740199995,286.2390504209998,286.2302006159998,286.2305501909996,286.2390504209998,286.2390504209998,286.2390504209998,287.89803109700006,,,,,,,,,,,,,,,,,,,,,,,,,,,,,,,left,1.0,1.6479927240006873,,,,,sub-234,1,random_dot,89.66192451292284,
left,left,46.0,0.0,23.0,right,0.0,4.32321203399988,,accuracy,space,3.069314261000727,,,,,,0.0,0.0,0.0,0.0,23.0,0.0,46.0,0.0,287.90638836699964,,,,,,,,,287.89847634299986,288.6956631160001,289.4904729399996,289.48040616900016,289.4808681559998,289.4904729399996,289.4904729399996,289.4904729399996,293.82567042200026,,,,,,,,,,,,,,,,,,,,,,,,,,,,,,,right,0.0,4.32321203399988,,,,,sub-234,1,random_dot,89.66192451292284,
right,right,47.0,1.0,23.0,right,1.0,2.396376867000072,,accuracy,space,3.069314261000727,,,,,,0.0,0.0,0.0,0.0,23.0,1.0,47.0,1.0,293.83578204900004,,,,,,,,,293.8260727280003,293.9211944340004,294.72006982899984,294.71201248499983,294.7123153140001,294.72006982899984,294.72006982899984,294.72006982899984,297.1204879380002,,,,,,,,,,,,,,,,,,,,,,,,,,,,,,,right,1.0,2.396376867000072,,,,,sub-234,1,random_dot,89.66192451292284,
left,left,48.0,0.0,24.0,left,1.0,1.866881328999625,,accuracy,space,3.069314261000727,,,,,,0.0,0.0,0.0,0.0,24.0,0.0,48.0,0.0,297.13035458099966,,,,,,,,,297.12092418999964,297.9192551799997,298.72777688800034,298.70381512699987,298.7043690549999,298.72777688800034,298.72777688800034,298.72777688800034,300.6025232689999,,,,,,,,,,,,,,,,,,,,,,,,,,,,,,,left,1.0,1.866881328999625,,,,,sub-234,1,random_dot,89.66192451292284,
right,right,49.0,1.0,24.0,left,0.0,1.522995899000307,,accuracy,space,3.069314261000727,,,,,,0.0,0.0,0.0,0.0,24.0,1.0,49.0,1.0,300.61251459399955,,,,,,,,,300.60289670600014,300.6961734529996,301.494537306,301.48475785200026,301.48509016499975,301.494537306,301.494537306,301.494537306,303.026333668,,,,,,,,,,,,,,,,,,,,,,,,,,,,,,,left,0.0,1.522995899000307,,,,,sub-234,1,random_dot,89.66192451292284,
right,right,50.0,0.0,25.0,right,1.0,3.461171443999774,,accuracy,space,3.069314261000727,,,,,,0.0,0.0,0.0,0.0,25.0,0.0,50.0,1.0,303.03607453899986,,,,,,,,,303.0268152890003,303.8195174290004,304.6278488600001,304.6037914409999,304.6043484089996,304.6278488600001,304.6278488600001,304.6278488600001,308.0936466310004,,,,,,,,,,,,,,,,,,,,,,,,,,,,,,,right,1.0,3.461171443999774,,,,,sub-234,1,random_dot,89.66192451292284,
left,left,51.0,1.0,25.0,left,1.0,1.0318035559994314,,accuracy,space,3.069314261000727,,,,,,0.0,0.0,0.0,0.0,25.0,1.0,51.0,0.0,308.1036601859996,,,,,,,,,308.09420109500024,308.1868655119997,308.98277644100017,308.9707636740004,308.971318637,308.98277644100017,308.98277644100017,308.98277644100017,310.019518354,,,,,,,,,,,,,,,,,,,,,,,,,,,,,,,left,1.0,1.0318035559994314,,,,,sub-234,1,random_dot,89.66192451292284,
right,right,52.0,0.0,26.0,left,0.0,1.6886346930004947,,accuracy,space,3.069314261000727,,,,,,0.0,0.0,0.0,0.0,26.0,0.0,52.0,1.0,310.029770395,,,,,,,,,310.01989786800004,311.2187735469997,312.02752155300004,312.00352102299985,312.004099842,312.02752155300004,312.02752155300004,312.02752155300004,313.72135796099974,,,,,,,,,,,,,,,,,,,,,,,,,,,,,,,left,0.0,1.6886346930004947,,,,,sub-234,1,random_dot,89.66192451292284,
left,left,53.0,1.0,26.0,left,1.0,1.4062045629998463,,accuracy,space,3.069314261000727,,,,,,0.0,0.0,0.0,0.0,26.0,1.0,53.0,0.0,313.7356546600004,,,,,,,,,313.72200360199986,314.91964780299986,315.7163173099998,315.70431757999995,315.7048711719999,315.7163173099998,315.7163173099998,315.7163173099998,317.1372065019996,,,,,,,,,,,,,,,,,,,,,,,,,,,,,,,left,1.0,1.4062045629998463,,,,,sub-234,1,random_dot,89.66192451292284,
left,left,54.0,0.0,27.0,left,1.0,3.818677442999615,,accuracy,space,3.069314261000727,,,,,,0.0,0.0,0.0,0.0,27.0,0.0,54.0,0.0,317.1454863179997,,,,,,,,,317.13781536999977,317.23632881899994,318.03740695299985,318.028891336,318.0293011140002,318.03740695299985,318.03740695299985,318.03740695299985,321.85907774800035,,,,,,,,,,,,,,,,,,,,,,,,,,,,,,,left,1.0,3.818677442999615,,,,,sub-234,1,random_dot,89.66192451292284,
right,right,55.0,1.0,27.0,left,0.0,1.3453951250003229,,accuracy,space,3.069314261000727,,,,,,0.0,0.0,0.0,0.0,27.0,1.0,55.0,1.0,321.86879565100026,,,,,,,,,321.8597054820002,322.2024185480004,323.01069478499994,322.98664194199955,322.9872003270002,323.01069478499994,323.01069478499994,323.01069478499994,324.3698196559999,,,,,,,,,,,,,,,,,,,,,,,,,,,,,,,left,0.0,1.3453951250003229,,,,,sub-234,1,random_dot,89.66192451292284,
right,right,56.0,0.0,28.0,right,1.0,2.3882610040000145,,accuracy,space,3.069314261000727,,,,,,0.0,0.0,0.0,0.0,28.0,0.0,56.0,1.0,324.37829933299963,,,,,,,,,324.3702456259998,325.1624742490003,325.9558265710002,325.9459553380002,325.9464979630002,325.9558265710002,325.9558265710002,325.9558265710002,328.35447899300016,,,,,,,,,,,,,,,,,,,,,,,,,,,,,,,right,1.0,2.3882610040000145,,,,,sub-234,1,random_dot,89.66192451292284,
left,left,57.0,1.0,28.0,left,1.0,1.8441343679996864,,accuracy,space,3.069314261000727,,,,,,0.0,0.0,0.0,0.0,28.0,1.0,57.0,0.0,328.3655241180004,,,,,,,,,328.3549091949999,328.4532277170001,329.2490959380002,329.23705872400024,329.2376191249996,329.2490959380002,329.2490959380002,329.2490959380002,331.10286843799986,,,,,,,,,,,,,,,,,,,,,,,,,,,,,,,left,1.0,1.8441343679996864,,,,,sub-234,1,random_dot,89.66192451292284,
right,right,58.0,0.0,29.0,right,1.0,1.751664227999754,,accuracy,space,3.069314261000727,,,,,,0.0,0.0,0.0,0.0,29.0,0.0,58.0,1.0,331.11126983600025,,,,,,,,,331.1032522019996,331.45205898099994,332.24851405000027,332.2370317779996,332.2376091169999,332.24851405000027,332.24851405000027,332.24851405000027,334.00701851600024,,,,,,,,,,,,,,,,,,,,,,,,,,,,,,,right,1.0,1.751664227999754,,,,,sub-234,1,random_dot,89.66192451292284,
left,left,59.0,1.0,29.0,right,0.0,0.8980383210000582,,accuracy,space,3.069314261000727,,,,,,0.0,0.0,0.0,0.0,29.0,1.0,59.0,0.0,334.0165779569997,,,,,,,,,334.00747820499964,334.3523452319996,335.16082837999966,335.13651283499985,335.137116719,335.16082837999966,335.16082837999966,335.16082837999966,336.0642199719996,,,,,,,,,,,,,,,,,,,,,,,,,,,,,,,right,0.0,0.8980383210000582,,,,,sub-234,1,random_dot,89.66192451292284,
,,0.0,0.0,0.0,,,,,accuracy,space,3.069314261000727,,,,,,0.0,0.0,0.0,0.0,,,,,,,,,,,,,,,,,,,,,,,,,,,,,,,,,,,,,,,,,,,,,,,,,,,,,,,,,,,,sub-234,1,random_dot,89.66192451292284,
left,left,0.0,0.0,0.0,left,1.0,1.7413643849995424,,speed,space,46.21148849400015,,,,,,0.0,1.0,1.0,1.0,0.0,0.0,0.0,0.0,382.3179422920002,,,,,,,,,382.3070804010004,382.4046643849997,383.20122509799967,383.1891186189996,383.1896987760001,383.20122509799967,383.20122509799967,383.20122509799967,384.9539535920003,,,,,,,,,,,,,,,,,,,,,,,,336.0753103260004,336.08449657500023,336.08449657500023,382.2992357829999,space,46.21148849400015,,left,1.0,1.7413643849995424,,,,,sub-234,1,random_dot,89.66192451292284,
right,right,1.0,1.0,0.0,left,0.0,0.791516313000102,,speed,space,46.21148849400015,,,,,,0.0,1.0,1.0,1.0,0.0,1.0,1.0,1.0,384.9681649940003,,,,,,,,,384.9546052440001,386.15188191200014,386.948436443,386.9362733939997,386.9368242649998,386.948436443,386.948436443,386.948436443,387.7466924910004,,,,,,,,,,,,,,,,,,,,,,,,,,,,,,,left,0.0,0.791516313000102,,,,,sub-234,1,random_dot,89.66192451292284,
right,right,2.0,0.0,1.0,right,1.0,0.8807352730000275,,speed,space,46.21148849400015,,,,,,0.0,1.0,1.0,1.0,1.0,0.0,2.0,1.0,387.7555696139998,,,,,,,,,387.7470692489997,388.0945516600004,388.886987289,388.8781247529996,388.8785245150002,388.886987289,388.886987289,388.886987289,389.774486497,,,,,,,,,,,,,,,,,,,,,,,,,,,,,,,right,1.0,0.8807352730000275,,,,,sub-234,1,random_dot,89.66192451292284,
left,left,3.0,1.0,1.0,right,0.0,0.8336048700002721,,speed,space,46.21148849400015,,,,,,0.0,1.0,1.0,1.0,1.0,1.0,3.0,0.0,389.7841407850001,,,,,,,,,389.77491557899975,389.870136048,390.6707037730002,390.6617905989997,390.6621977819996,390.6707037730002,390.6707037730002,390.6707037730002,391.512273114,,,,,,,,,,,,,,,,,,,,,,,,,,,,,,,right,0.0,0.8336048700002721,,,,,sub-234,1,random_dot,89.66192451292284,
left,left,4.0,0.0,2.0,right,0.0,3.076205125999877,,speed,space,46.21148849400015,,,,,,0.0,1.0,1.0,1.0,2.0,0.0,4.0,0.0,391.52770729199983,,,,,,,,,391.5127150600001,391.610815563,392.4051775770004,392.3953784309997,392.39593040099953,392.4051775770004,392.4051775770004,392.4051775770004,395.484821221,,,,,,,,,,,,,,,,,,,,,,,,,,,,,,,right,0.0,3.076205125999877,,,,,sub-234,1,random_dot,89.66192451292284,
right,right,5.0,1.0,2.0,right,1.0,2.065560707999793,,speed,space,46.21148849400015,,,,,,0.0,1.0,1.0,1.0,2.0,1.0,5.0,1.0,395.4940565400002,,,,,,,,,395.4855664659999,395.5773305009998,396.3705778760004,396.36188552899966,396.3622919620002,396.3705778760004,396.3705778760004,396.3705778760004,398.44176398699983,,,,,,,,,,,,,,,,,,,,,,,,,,,,,,,right,1.0,2.065560707999793,,,,,sub-234,1,random_dot,89.66192451292284,
right,right,6.0,0.0,3.0,left,0.0,0.7724419599999237,,speed,space,46.21148849400015,,,,,,0.0,1.0,1.0,1.0,3.0,0.0,6.0,1.0,398.45144013000026,,,,,,,,,398.4421753309998,399.6351335919999,400.4283340430002,400.4190354809998,400.4194515749996,400.4283340430002,400.4283340430002,400.4283340430002,401.2070035139996,,,,,,,,,,,,,,,,,,,,,,,,,,,,,,,left,0.0,0.7724419599999237,,,,,sub-234,1,random_dot,89.66192451292284,
left,left,7.0,1.0,3.0,right,0.0,1.812084479999612,,speed,space,46.21148849400015,,,,,,0.0,1.0,1.0,1.0,3.0,1.0,7.0,0.0,401.2179703579996,,,,,,,,,401.2074526019997,401.3009052409998,402.10956140799954,402.0854502250004,402.086010684,402.10956140799954,402.10956140799954,402.10956140799954,403.9252884970001,,,,,,,,,,,,,,,,,,,,,,,,,,,,,,,right,0.0,1.812084479999612,,,,,sub-234,1,random_dot,89.66192451292284,
left,left,8.0,0.0,4.0,right,0.0,1.354050081999958,,speed,space,46.21148849400015,,,,,,0.0,1.0,1.0,1.0,4.0,0.0,8.0,0.0,403.93501322799966,,,,,,,,,403.9257542879996,405.1183044199997,405.9264118970004,405.9023041439996,405.90287741300017,405.9264118970004,405.9264118970004,405.9264118970004,407.2914935970002,,,,,,,,,,,,,,,,,,,,,,,,,,,,,,,right,0.0,1.354050081999958,,,,,sub-234,1,random_dot,89.66192451292284,
right,right,9.0,1.0,4.0,right,1.0,1.0959465550004095,,speed,space,46.21148849400015,,,,,,0.0,1.0,1.0,1.0,4.0,1.0,9.0,1.0,407.3015428830004,,,,,,,,,407.2919962160004,407.3864230810004,408.1876663310004,408.1780048569999,408.1785642369996,408.1876663310004,408.1876663310004,408.1876663310004,409.2963297489996,,,,,,,,,,,,,,,,,,,,,,,,,,,,,,,right,1.0,1.0959465550004095,,,,,sub-234,1,random_dot,89.66192451292284,
left,left,10.0,0.0,5.0,left,1.0,0.8153738920000251,,speed,space,46.21148849400015,,,,,,0.0,1.0,1.0,1.0,5.0,0.0,10.0,0.0,409.3051819550001,,,,,,,,,409.2967555129999,410.4938067080002,411.28796995500034,411.2781064439996,411.2786563780001,411.28796995500034,411.28796995500034,411.28796995500034,412.1069362500002,,,,,,,,,,,,,,,,,,,,,,,,,,,,,,,left,1.0,0.8153738920000251,,,,,sub-234,1,random_dot,89.66192451292284,
right,right,11.0,1.0,5.0,right,1.0,1.80232074200012,,speed,space,46.21148849400015,,,,,,0.0,1.0,1.0,1.0,5.0,1.0,11.0,1.0,412.11612181999953,,,,,,,,,412.10726517500007,412.200883685,412.998794823,412.9866723340001,412.9872285109996,412.998794823,412.998794823,412.998794823,414.8080257660004,,,,,,,,,,,,,,,,,,,,,,,,,,,,,,,right,1.0,1.80232074200012,,,,,sub-234,1,random_dot,89.66192451292284,
left,left,12.0,0.0,6.0,left,1.0,0.7286869990002742,,speed,space,46.21148849400015,,,,,,0.0,1.0,1.0,1.0,6.0,0.0,12.0,0.0,414.8180107580001,,,,,,,,,414.8084940019999,416.00137857499976,416.79848268800015,416.7862972229996,416.7868604639998,416.79848268800015,416.79848268800015,416.79848268800015,417.5302754969998,,,,,,,,,,,,,,,,,,,,,,,,,,,,,,,left,1.0,0.7286869990002742,,,,,sub-234,1,random_dot,89.66192451292284,
right,right,13.0,1.0,6.0,left,0.0,0.8883931600003052,,speed,space,46.21148849400015,,,,,,0.0,1.0,1.0,1.0,6.0,1.0,13.0,1.0,417.5389693380002,,,,,,,,,417.5307152160003,417.8771279049997,418.6721883219998,418.6620994109999,418.6626784210002,418.6721883219998,418.6721883219998,418.6721883219998,419.5686351100003,,,,,,,,,,,,,,,,,,,,,,,,,,,,,,,left,0.0,0.8883931600003052,,,,,sub-234,1,random_dot,89.66192451292284,
left,left,14.0,0.0,7.0,left,1.0,1.24541146699994,,speed,space,46.21148849400015,,,,,,0.0,1.0,1.0,1.0,7.0,0.0,14.0,0.0,419.577802408,,,,,,,,,419.5690722569998,419.9181590830003,420.7144608139997,420.7022611660004,420.7028385829999,420.7144608139997,420.7144608139997,420.7144608139997,421.97858170200016,,,,,,,,,,,,,,,,,,,,,,,,,,,,,,,left,1.0,1.24541146699994,,,,,sub-234,1,random_dot,89.66192451292284,
right,right,15.0,1.0,7.0,right,1.0,1.2485971880005309,,speed,space,46.21148849400015,,,,,,0.0,1.0,1.0,1.0,7.0,1.0,15.0,1.0,421.9939746230002,,,,,,,,,421.9790084509996,422.3266501300004,423.11906117499984,423.1107170900004,423.1111261639999,423.11906117499984,423.11906117499984,423.11906117499984,424.3794287090004,,,,,,,,,,,,,,,,,,,,,,,,,,,,,,,right,1.0,1.2485971880005309,,,,,sub-234,1,random_dot,89.66192451292284,
left,left,16.0,0.0,8.0,left,1.0,1.2584331130001374,,speed,space,46.21148849400015,,,,,,0.0,1.0,1.0,1.0,8.0,0.0,16.0,0.0,424.3883308369996,,,,,,,,,424.3798567060003,425.1772931510004,425.9721366780004,425.9623481569997,425.96288743700006,425.9721366780004,425.9721366780004,425.9721366780004,427.2347680040002,,,,,,,,,,,,,,,,,,,,,,,,,,,,,,,left,1.0,1.2584331130001374,,,,,sub-234,1,random_dot,89.66192451292284,
right,right,17.0,1.0,8.0,right,1.0,0.8756101740000304,,speed,space,46.21148849400015,,,,,,0.0,1.0,1.0,1.0,8.0,1.0,17.0,1.0,427.2439744249996,,,,,,,,,427.2351471029997,428.0269326030002,428.8216688000002,428.812081905,428.8126427400002,428.8216688000002,428.8216688000002,428.8216688000002,429.70082373199966,,,,,,,,,,,,,,,,,,,,,,,,,,,,,,,right,1.0,0.8756101740000304,,,,,sub-234,1,random_dot,89.66192451292284,
right,right,18.0,0.0,9.0,right,1.0,0.755436352000288,,speed,space,46.21148849400015,,,,,,0.0,1.0,1.0,1.0,9.0,0.0,18.0,1.0,429.709175467,,,,,,,,,429.70125698799984,430.043688195,430.8384858589998,430.8286263099999,430.8291671719999,430.8384858589998,430.8384858589998,430.8384858589998,431.6027301260001,,,,,,,,,,,,,,,,,,,,,,,,,,,,,,,right,1.0,0.755436352000288,,,,,sub-234,1,random_dot,89.66192451292284,
left,left,19.0,1.0,9.0,right,0.0,1.034930405000523,,speed,space,46.21148849400015,,,,,,0.0,1.0,1.0,1.0,9.0,1.0,19.0,0.0,431.6139864360002,,,,,,,,,431.6031618529996,431.7018174839996,432.5036665870002,432.49425405500006,432.4948054630004,432.5036665870002,432.5036665870002,432.5036665870002,433.5462979209997,,,,,,,,,,,,,,,,,,,,,,,,,,,,,,,right,0.0,1.034930405000523,,,,,sub-234,1,random_dot,89.66192451292284,
left,left,20.0,0.0,10.0,left,1.0,1.018141556000046,,speed,space,46.21148849400015,,,,,,0.0,1.0,1.0,1.0,10.0,0.0,20.0,0.0,433.55540855900017,,,,,,,,,433.5466911229996,434.3433688510004,435.1372352959997,435.1280769200002,435.1286254280003,435.1372352959997,435.1372352959997,435.1372352959997,436.1675318580001,,,,,,,,,,,,,,,,,,,,,,,,,,,,,,,left,1.0,1.018141556000046,,,,,sub-234,1,random_dot,89.66192451292284,
right,right,21.0,1.0,10.0,right,1.0,1.0412340859993492,,speed,space,46.21148849400015,,,,,,0.0,1.0,1.0,1.0,10.0,1.0,21.0,1.0,436.1779145950004,,,,,,,,,436.1679820789996,436.2613366599999,437.0645228889998,437.0525478219997,437.0531059240002,437.0645228889998,437.0645228889998,437.0645228889998,438.1123699509999,,,,,,,,,,,,,,,,,,,,,,,,,,,,,,,right,1.0,1.0412340859993492,,,,,sub-234,1,random_dot,89.66192451292284,
right,right,22.0,0.0,11.0,right,1.0,0.9341748550004922,,speed,space,46.21148849400015,,,,,,0.0,1.0,1.0,1.0,11.0,0.0,22.0,1.0,438.1207340130004,,,,,,,,,438.1127535899996,438.46028517099967,439.2552733499997,439.24552000099993,439.246063433,439.2552733499997,439.2552733499997,439.2552733499997,440.20128278500033,,,,,,,,,,,,,,,,,,,,,,,,,,,,,,,right,1.0,0.9341748550004922,,,,,sub-234,1,random_dot,89.66192451292284,
left,left,23.0,1.0,11.0,right,0.0,1.931533531999776,,speed,space,46.21148849400015,,,,,,0.0,1.0,1.0,1.0,11.0,1.0,23.0,0.0,440.2106314980001,,,,,,,,,440.2017163889996,440.9936123300004,441.7878068709997,441.77794624800026,441.7785003810004,441.7878068709997,441.7878068709997,441.7878068709997,443.72956448199966,,,,,,,,,,,,,,,,,,,,,,,,,,,,,,,right,0.0,1.931533531999776,,,,,sub-234,1,random_dot,89.66192451292284,
right,right,24.0,0.0,12.0,right,1.0,0.8174132180001834,,speed,space,46.21148849400015,,,,,,0.0,1.0,1.0,1.0,12.0,0.0,24.0,1.0,443.7385363610001,,,,,,,,,443.7299962719999,444.07687720099966,444.8702579020001,444.86097679700015,444.8615357059998,444.8702579020001,444.8702579020001,444.8702579020001,445.6966988510003,,,,,,,,,,,,,,,,,,,,,,,,,,,,,,,right,1.0,0.8174132180001834,,,,,sub-234,1,random_dot,89.66192451292284,
left,left,25.0,1.0,12.0,right,0.0,1.43712553900059,,speed,space,46.21148849400015,,,,,,0.0,1.0,1.0,1.0,12.0,1.0,25.0,0.0,445.7046378960004,,,,,,,,,445.69712528200034,445.7941860230003,446.5880360689998,446.57819877600014,446.5787483329996,446.5880360689998,446.5880360689998,446.5880360689998,448.0294229669999,,,,,,,,,,,,,,,,,,,,,,,,,,,,,,,right,0.0,1.43712553900059,,,,,sub-234,1,random_dot,89.66192451292284,
left,left,26.0,0.0,13.0,left,1.0,0.8481185130003723,,speed,space,46.21148849400015,,,,,,0.0,1.0,1.0,1.0,13.0,0.0,26.0,0.0,448.0380345570002,,,,,,,,,448.0298228989996,448.1276199739996,448.920973577,448.911572297,448.912131739,448.920973577,448.920973577,448.920973577,449.7727458999998,,,,,,,,,,,,,,,,,,,,,,,,,,,,,,,left,1.0,0.8481185130003723,,,,,sub-234,1,random_dot,89.66192451292284,
right,right,27.0,1.0,13.0,right,1.0,1.33002425199993,,speed,space,46.21148849400015,,,,,,0.0,1.0,1.0,1.0,13.0,1.0,27.0,1.0,449.7826935570001,,,,,,,,,449.7731810019996,450.9678320089997,451.7609037780003,451.75177541,451.752193456,451.7609037780003,451.7609037780003,451.7609037780003,453.1020154179996,,,,,,,,,,,,,,,,,,,,,,,,,,,,,,,right,1.0,1.33002425199993,,,,,sub-234,1,random_dot,89.66192451292284,
right,right,28.0,0.0,14.0,right,1.0,0.750058480000007,,speed,space,46.21148849400015,,,,,,0.0,1.0,1.0,1.0,14.0,0.0,28.0,1.0,453.11124000200016,,,,,,,,,453.1024487300001,453.4508281440003,454.2478334990001,454.2353491869999,454.23590250100006,454.2478334990001,454.2478334990001,454.2478334990001,455.0017973419999,,,,,,,,,,,,,,,,,,,,,,,,,,,,,,,right,1.0,0.750058480000007,,,,,sub-234,1,random_dot,89.66192451292284,
left,left,29.0,1.0,14.0,right,0.0,1.112667940999927,,speed,space,46.21148849400015,,,,,,0.0,1.0,1.0,1.0,14.0,1.0,29.0,0.0,455.0105065799999,,,,,,,,,455.0022281849997,456.2011197499996,456.9965602450002,456.9849174560004,456.9854823309997,456.9965602450002,456.9965602450002,456.9965602450002,458.1132368990002,,,,,,,,,,,,,,,,,,,,,,,,,,,,,,,right,0.0,1.112667940999927,,,,,sub-234,1,random_dot,89.66192451292284,
right,right,30.0,0.0,15.0,right,1.0,0.82768259400018,,speed,space,46.21148849400015,,,,,,0.0,1.0,1.0,1.0,15.0,0.0,30.0,1.0,458.1228467250003,,,,,,,,,458.1136690940002,458.9100707159996,459.70454928100025,459.6944781969996,459.6950211699996,459.70454928100025,459.70454928100025,459.70454928100025,460.5346773609999,,,,,,,,,,,,,,,,,,,,,,,,,,,,,,,right,1.0,0.82768259400018,,,,,sub-234,1,random_dot,89.66192451292284,
left,left,31.0,1.0,15.0,left,1.0,1.4608632200006468,,speed,space,46.21148849400015,,,,,,0.0,1.0,1.0,1.0,15.0,1.0,31.0,0.0,460.5436130669996,,,,,,,,,460.53517966599975,460.62679661400034,461.42023815500033,461.410873451,461.4114347790001,461.42023815500033,461.42023815500033,461.42023815500033,462.8848902870004,,,,,,,,,,,,,,,,,,,,,,,,,,,,,,,left,1.0,1.4608632200006468,,,,,sub-234,1,random_dot,89.66192451292284,
right,right,32.0,0.0,16.0,right,1.0,1.5082411780003897,,speed,space,46.21148849400015,,,,,,0.0,1.0,1.0,1.0,16.0,0.0,32.0,1.0,462.8934502849997,,,,,,,,,462.8853266599999,462.9841726479999,463.7861954729997,463.77690929599976,463.7773155650002,463.7861954729997,463.7861954729997,463.7861954729997,465.3005764219997,,,,,,,,,,,,,,,,,,,,,,,,,,,,,,,right,1.0,1.5082411780003897,,,,,sub-234,1,random_dot,89.66192451292284,
left,left,33.0,1.0,16.0,left,1.0,0.8902567579998504,,speed,space,46.21148849400015,,,,,,0.0,1.0,1.0,1.0,16.0,1.0,33.0,0.0,465.3087387759997,,,,,,,,,465.3009499159998,465.3938484979999,466.1935813310001,466.18217208999977,466.182731252,466.1935813310001,466.1935813310001,466.1935813310001,467.0887803899996,,,,,,,,,,,,,,,,,,,,,,,,,,,,,,,left,1.0,0.8902567579998504,,,,,sub-234,1,random_dot,89.66192451292284,
right,right,34.0,0.0,17.0,right,1.0,1.0490201720003824,,speed,space,46.21148849400015,,,,,,0.0,1.0,1.0,1.0,17.0,0.0,34.0,1.0,467.0981727999997,,,,,,,,,467.089152777,467.1853441789999,467.9871092659996,467.9773676470004,467.9779163269996,467.9871092659996,467.9871092659996,467.9871092659996,469.0452976939996,,,,,,,,,,,,,,,,,,,,,,,,,,,,,,,right,1.0,1.0490201720003824,,,,,sub-234,1,random_dot,89.66192451292284,
left,left,35.0,1.0,17.0,left,1.0,1.0195724340001109,,speed,space,46.21148849400015,,,,,,0.0,1.0,1.0,1.0,17.0,1.0,35.0,0.0,469.0536129439997,,,,,,,,,469.04567303600015,469.39349770599983,470.1878576910003,470.1780801559999,470.17862573,470.1878576910003,470.1878576910003,470.1878576910003,471.2166170780001,,,,,,,,,,,,,,,,,,,,,,,,,,,,,,,left,1.0,1.0195724340001109,,,,,sub-234,1,random_dot,89.66192451292284,
left,left,36.0,0.0,18.0,left,1.0,1.093562299000041,,speed,space,46.21148849400015,,,,,,0.0,1.0,1.0,1.0,18.0,0.0,36.0,0.0,471.2265794989999,,,,,,,,,471.2169964300001,471.3100776479996,472.1103889639999,472.0988886679997,472.0994382159997,472.1103889639999,472.1103889639999,472.1103889639999,473.20717689399953,,,,,,,,,,,,,,,,,,,,,,,,,,,,,,,left,1.0,1.093562299000041,,,,,sub-234,1,random_dot,89.66192451292284,
right,right,37.0,1.0,18.0,left,0.0,1.6881539340001837,,speed,space,46.21148849400015,,,,,,0.0,1.0,1.0,1.0,18.0,1.0,37.0,1.0,473.2172344769997,,,,,,,,,473.2077046020004,474.0008371849999,474.7974768699996,474.7851278569997,474.78567953400034,474.7974768699996,474.7974768699996,474.7974768699996,476.4908583229999,,,,,,,,,,,,,,,,,,,,,,,,,,,,,,,left,0.0,1.6881539340001837,,,,,sub-234,1,random_dot,89.66192451292284,
right,right,38.0,0.0,19.0,left,0.0,0.8373313049996796,,speed,space,46.21148849400015,,,,,,0.0,1.0,1.0,1.0,19.0,0.0,38.0,1.0,476.5007808500004,,,,,,,,,476.49140707100014,477.6839970009996,478.47673160700015,478.46752645000015,478.4679477059999,478.47673160700015,478.47673160700015,478.47673160700015,479.3170127069998,,,,,,,,,,,,,,,,,,,,,,,,,,,,,,,left,0.0,0.8373313049996796,,,,,sub-234,1,random_dot,89.66192451292284,
left,left,39.0,1.0,19.0,left,1.0,1.0011248239998167,,speed,space,46.21148849400015,,,,,,0.0,1.0,1.0,1.0,19.0,1.0,39.0,0.0,479.3266602949998,,,,,,,,,479.317458556,480.1094685910002,480.9027549969997,480.8937256769996,480.8942853119997,480.9027549969997,480.9027549969997,480.9027549969997,481.9131188689999,,,,,,,,,,,,,,,,,,,,,,,,,,,,,,,left,1.0,1.0011248239998167,,,,,sub-234,1,random_dot,89.66192451292284,
right,right,40.0,0.0,20.0,right,1.0,0.7618658769997637,,speed,space,46.21148849400015,,,,,,0.0,1.0,1.0,1.0,20.0,0.0,40.0,1.0,481.9220515899997,,,,,,,,,481.9134971120002,482.7089741580003,483.5016555299999,483.4931836530004,483.493604798,483.5016555299999,483.5016555299999,483.5016555299999,484.2719754030004,,,,,,,,,,,,,,,,,,,,,,,,,,,,,,,right,1.0,0.7618658769997637,,,,,sub-234,1,random_dot,89.66192451292284,
left,left,41.0,1.0,20.0,left,1.0,2.004625599999599,,speed,space,46.21148849400015,,,,,,0.0,1.0,1.0,1.0,20.0,1.0,41.0,0.0,484.2807266230002,,,,,,,,,484.2722965679996,484.6168538430002,485.410399159,485.40086635900025,485.40141835899976,485.410399159,485.410399159,485.410399159,487.423622325,,,,,,,,,,,,,,,,,,,,,,,,,,,,,,,left,1.0,2.004625599999599,,,,,sub-234,1,random_dot,89.66192451292284,
left,left,42.0,0.0,21.0,left,1.0,0.6033456450004451,,speed,space,46.21148849400015,,,,,,0.0,1.0,1.0,1.0,21.0,0.0,42.0,0.0,487.43314435199954,,,,,,,,,487.424064883,488.61709120700016,489.41427330999977,489.4020414249999,489.4026048100004,489.41427330999977,489.41427330999977,489.41427330999977,490.0284206209999,,,,,,,,,,,,,,,,,,,,,,,,,,,,,,,left,1.0,0.6033456450004451,,,,,sub-234,1,random_dot,89.66192451292284,
right,right,43.0,1.0,21.0,right,1.0,1.1590325580000354,,speed,space,46.21148849400015,,,,,,0.0,1.0,1.0,1.0,21.0,1.0,43.0,1.0,490.0369456190001,,,,,,,,,490.0288606849999,491.2259371130003,492.0202937800004,492.0103690759997,492.01091175500005,492.0202937800004,492.0202937800004,492.0202937800004,493.1900602420001,,,,,,,,,,,,,,,,,,,,,,,,,,,,,,,right,1.0,1.1590325580000354,,,,,sub-234,1,random_dot,89.66192451292284,
right,right,44.0,0.0,22.0,right,1.0,1.0601468989998466,,speed,space,46.21148849400015,,,,,,0.0,1.0,1.0,1.0,22.0,0.0,44.0,1.0,493.1993771850002,,,,,,,,,493.1904912210002,494.3840114320001,495.1807777610002,495.1698293700001,495.1702089270002,495.1807777610002,495.1807777610002,495.1807777610002,496.2454714169999,,,,,,,,,,,,,,,,,,,,,,,,,,,,,,,right,1.0,1.0601468989998466,,,,,sub-234,1,random_dot,89.66192451292284,
left,left,45.0,1.0,22.0,left,1.0,1.3247857999995176,,speed,space,46.21148849400015,,,,,,0.0,1.0,1.0,1.0,22.0,1.0,45.0,0.0,496.2540210879997,,,,,,,,,496.2458511000005,497.4427064969996,498.2377433869997,498.22797327599983,498.2285351540004,498.2377433869997,498.2377433869997,498.2377433869997,499.5664364439999,,,,,,,,,,,,,,,,,,,,,,,,,,,,,,,left,1.0,1.3247857999995176,,,,,sub-234,1,random_dot,89.66192451292284,
left,left,46.0,0.0,23.0,right,0.0,1.4048445039998114,,speed,space,46.21148849400015,,,,,,0.0,1.0,1.0,1.0,23.0,0.0,46.0,0.0,499.576216343,,,,,,,,,499.56687306999993,500.7593054549998,501.55399947800015,501.5443034620002,501.54484549100016,501.55399947800015,501.55399947800015,501.55399947800015,502.9621924889998,,,,,,,,,,,,,,,,,,,,,,,,,,,,,,,right,0.0,1.4048445039998114,,,,,sub-234,1,random_dot,89.66192451292284,
right,right,47.0,1.0,23.0,right,1.0,1.0519783969994023,,speed,space,46.21148849400015,,,,,,0.0,1.0,1.0,1.0,23.0,1.0,47.0,1.0,502.97078292900005,,,,,,,,,502.9626808379999,503.3091357419999,504.1028957560002,504.093382344,504.0939252099997,504.1028957560002,504.1028957560002,504.1028957560002,505.161409804,,,,,,,,,,,,,,,,,,,,,,,,,,,,,,,right,1.0,1.0519783969994023,,,,,sub-234,1,random_dot,89.66192451292284,
left,left,48.0,0.0,24.0,right,0.0,1.818428374999712,,speed,space,46.21148849400015,,,,,,0.0,1.0,1.0,1.0,24.0,0.0,48.0,0.0,505.1702237789996,,,,,,,,,505.161790571,505.2596328740001,506.0529626910002,506.0435081989999,506.0440519869999,506.0529626910002,506.0529626910002,506.0529626910002,507.87829423899984,,,,,,,,,,,,,,,,,,,,,,,,,,,,,,,right,0.0,1.818428374999712,,,,,sub-234,1,random_dot,89.66192451292284,
right,right,49.0,1.0,24.0,right,1.0,1.328604080000332,,speed,space,46.21148849400015,,,,,,0.0,1.0,1.0,1.0,24.0,1.0,49.0,1.0,507.8870822930003,,,,,,,,,507.87866916500025,509.0758600059999,509.8691251589999,509.86057060500025,509.860990313,509.8691251589999,509.8691251589999,509.8691251589999,511.20772241600025,,,,,,,,,,,,,,,,,,,,,,,,,,,,,,,right,1.0,1.328604080000332,,,,,sub-234,1,random_dot,89.66192451292284,
right,right,50.0,0.0,25.0,right,1.0,1.3618479890001254,,speed,space,46.21148849400015,,,,,,0.0,1.0,1.0,1.0,25.0,0.0,50.0,1.0,511.2174616299999,,,,,,,,,511.2081555049999,512.4004569790004,513.1973966670002,513.1850995779996,513.1856515150002,513.1973966670002,513.1973966670002,513.1973966670002,514.5620397479997,,,,,,,,,,,,,,,,,,,,,,,,,,,,,,,right,1.0,1.3618479890001254,,,,,sub-234,1,random_dot,89.66192451292284,
left,left,51.0,1.0,25.0,right,0.0,1.4976439520005442,,speed,space,46.21148849400015,,,,,,0.0,1.0,1.0,1.0,25.0,1.0,51.0,0.0,514.5703532420002,,,,,,,,,514.5624365539998,515.7591866900002,516.5528672070004,516.5432930730003,516.5438427520003,516.5528672070004,516.5528672070004,516.5528672070004,518.0551229980001,,,,,,,,,,,,,,,,,,,,,,,,,,,,,,,right,0.0,1.4976439520005442,,,,,sub-234,1,random_dot,89.66192451292284,
left,left,52.0,0.0,26.0,right,0.0,1.9535129229998347,,speed,space,46.21148849400015,,,,,,0.0,1.0,1.0,1.0,26.0,0.0,52.0,0.0,518.0653116920003,,,,,,,,,518.0555218890004,518.4003396770004,519.196428319,519.1843447539995,519.184922984,519.196428319,519.196428319,519.196428319,521.1607061670002,,,,,,,,,,,,,,,,,,,,,,,,,,,,,,,right,0.0,1.9535129229998347,,,,,sub-234,1,random_dot,89.66192451292284,
right,right,53.0,1.0,26.0,left,0.0,1.438769997000236,,speed,space,46.21148849400015,,,,,,0.0,1.0,1.0,1.0,26.0,1.0,53.0,1.0,521.1684452520003,,,,,,,,,521.16100663,521.5088549660004,522.3030107619998,522.2932652649997,522.2938158380002,522.3030107619998,522.3030107619998,522.3030107619998,523.7448650870001,,,,,,,,,,,,,,,,,,,,,,,,,,,,,,,left,0.0,1.438769997000236,,,,,sub-234,1,random_dot,89.66192451292284,
left,left,54.0,0.0,27.0,left,1.0,0.9502223310000772,,speed,space,46.21148849400015,,,,,,0.0,1.0,1.0,1.0,27.0,0.0,54.0,0.0,523.7534641840002,,,,,,,,,523.7452481669998,524.5423260130001,525.3353964500002,525.3264162799996,525.3268271520001,525.3353964500002,525.3353964500002,525.3353964500002,526.2893520899997,,,,,,,,,,,,,,,,,,,,,,,,,,,,,,,left,1.0,0.9502223310000772,,,,,sub-234,1,random_dot,89.66192451292284,
right,right,55.0,1.0,27.0,left,0.0,1.5701549320001504,,speed,space,46.21148849400015,,,,,,0.0,1.0,1.0,1.0,27.0,1.0,55.0,1.0,526.299471192,,,,,,,,,526.2899276979997,526.6334279250004,527.4299531489996,527.4177377369997,527.4183012180001,527.4299531489996,527.4299531489996,527.4299531489996,529.005218362,,,,,,,,,,,,,,,,,,,,,,,,,,,,,,,left,0.0,1.5701549320001504,,,,,sub-234,1,random_dot,89.66192451292284,
right,right,56.0,0.0,28.0,right,1.0,1.6766922770002566,,speed,space,46.21148849400015,,,,,,0.0,1.0,1.0,1.0,28.0,0.0,56.0,1.0,529.0147710809997,,,,,,,,,529.0056143989996,529.3501162740004,530.1429547970001,530.1334788960003,530.1338991299999,530.1429547970001,530.1429547970001,530.1429547970001,531.8281190449998,,,,,,,,,,,,,,,,,,,,,,,,,,,,,,,right,1.0,1.6766922770002566,,,,,sub-234,1,random_dot,89.66192451292284,
left,left,57.0,1.0,28.0,left,1.0,0.8075339360002545,,speed,space,46.21148849400015,,,,,,0.0,1.0,1.0,1.0,28.0,1.0,57.0,0.0,531.836592054,,,,,,,,,531.8284992549998,533.0255802849997,533.8195332470004,533.8096750719997,533.8102222110001,533.8195332470004,533.8195332470004,533.8195332470004,534.6379145909996,,,,,,,,,,,,,,,,,,,,,,,,,,,,,,,left,1.0,0.8075339360002545,,,,,sub-234,1,random_dot,89.66192451292284,
right,right,58.0,0.0,29.0,right,1.0,1.7498785429997952,,speed,space,46.21148849400015,,,,,,0.0,1.0,1.0,1.0,29.0,0.0,58.0,1.0,534.647458341,,,,,,,,,534.6383774340002,534.7339691079997,535.5300296409996,535.5189710140003,535.5193955530003,535.5300296409996,535.5300296409996,535.5300296409996,537.2824151260002,,,,,,,,,,,,,,,,,,,,,,,,,,,,,,,right,1.0,1.7498785429997952,,,,,sub-234,1,random_dot,89.66192451292284,
left,left,59.0,1.0,29.0,right,0.0,0.8789183129993035,,speed,space,46.21148849400015,,,,,,0.0,1.0,1.0,1.0,29.0,1.0,59.0,0.0,537.2911038370003,,,,,,,,,537.2830031579997,537.6257035230001,538.4181878930003,538.4092850429997,538.4096971130002,538.4181878930003,538.4181878930003,538.4181878930003,539.3047199809998,,,,,,,,,,,,,,,,,,,,,,,,,,,,,,,right,0.0,0.8789183129993035,,,,,sub-234,1,random_dot,89.66192451292284,
,,1.0,1.0,0.0,,,,,speed,space,46.21148849400015,,,,,,0.0,1.0,1.0,1.0,,,,,,,,,,,,,,,,,,,,,,,,,,,,,,,,,,,,,,,,,,,,,,,,,,,,,,,,,,,,sub-234,1,random_dot,89.66192451292284,
,,,,,,,,,,,,,,,,,,,,,,,,,,,,,,,,,,,,,,,,,,,,,,,,,,,,,,,,,,,,,,,,,,,,,,,,,,,,,539.3097105090001,539.3201196330001,544.3086076210002,sub-234,1,random_dot,89.66192451292284,
