wordCTK,colorCTK,corrAnsCTK,congruentCTK,thisN,thisTrialN,thisRepN,keyResp_CTK.keys,keyResp_CTK.corr,keyResp_CTK.rt,keyResp_CTK.duration,wordPractice,colorPractice,corrAnsPractice,congruentPractice,respPractice.keys,respPractice.corr,respPractice.rt,respPractice.duration,word,color,corrAns,congruent,keyResp_test_run.keys,keyResp_test_run.corr,keyResp_test_run.rt,keyResp_test_run.duration,trials_CTK.thisRepN,trials_CTK.thisTrialN,trials_CTK.thisN,trials_CTK.thisIndex,trials_practice.thisRepN,trials_practice.thisTrialN,trials_practice.thisN,trials_practice.thisIndex,trials_test.thisRepN,trials_test.thisTrialN,trials_test.thisN,trials_test.thisIndex,thisRow.t,notes,instruction.started,instr_text.started,instr_image.started,instr_resp.started,instruction.stopped,instr_resp.keys,instr_resp.rt,instr_resp.duration,instr_color_to_key.started,instr_ctk.started,resp_ctk.started,instr_color_to_key.stopped,resp_ctk.keys,resp_ctk.rt,resp_ctk.duration,ITI.started,fixcross.started,fixcross.stopped,ITI.stopped,color_to_key_run.started,stimulus_CTK.started,keyResp_CTK.started,color_to_key_run.stopped,trials_CTK.keyResp_CTK.keys,trials_CTK.keyResp_CTK.corr,trials_CTK.keyResp_CTK.rt,trials_CTK.keyResp_CTK.duration,instr_practice.started,instr_practice_text.started,instr_practice_resp.started,instr_practice.stopped,instr_practice_resp.keys,instr_practice_resp.rt,instr_practice_resp.duration,practice_run.started,stimulus_practice.started,respPractice.started,practice_run.stopped,trials_practice.respPractice.keys,trials_practice.respPractice.corr,trials_practice.respPractice.rt,trials_practice.respPractice.duration,feedback.started,textFeedback.started,feedback.stopped,textFeedback.stopped,instr_test.started,instr_test_text.started,instr_test_resp.started,instr_test.stopped,instr_test_resp.keys,instr_test_resp.rt,instr_test_resp.duration,test_run.started,stimulus_test_run.started,keyResp_test_run.started,test_run.stopped,trials_test.keyResp_test_run.keys,trials_test.keyResp_test_run.corr,trials_test.keyResp_test_run.rt,trials_test.keyResp_test_run.duration,goodbye.started,textGoodbye.started,textGoodbye.stopped,goodbye.stopped,participant,session,expName,frameRate,Unnamed: 113
,,,,,,,,,,,,,,,,,,,,,,,,,,,,,,,,,,,,,,,,,0.0127978600212372,0.033903328992892,0.033903328992892,0.033903328992892,0.8348609359818511,space,0.7850511950091459,,,,,,,,,,,,,,,,,,,,,,,,,,,,,,,,,,,,,,,,,,,,,,,,,,,,,,,,,,,sub-105,2,stroop_test,61.57032730964624,
,,,,,,,,,,,,,,,,,,,,,,,,,,,,,,,,,,,,,,,,,,,,,,,,,0.8349137930199504,0.8457667080219835,0.8457667080219835,1.638174813007936,space,0.7884897530311719,,,,,,,,,,,,,,,,,,,,,,,,,,,,,,,,,,,,,,,,,,,,,,,,,,,,sub-105,2,stroop_test,61.57032730964624,
test,yellow,g,1.0,0.0,0.0,0.0,g,1.0,1.3004292669938875,,,,,,,,,,,,,,,,,,0.0,0.0,0.0,1.0,,,,,,,,,1.6580202089971865,,,,,,,,,,,,,,,,,1.6479498129920105,2.4538578289793804,3.25389750499744,3.238038032024633,3.242900908982847,3.25389750499744,3.25389750499744,4.556682973983698,g,1.0,1.3004292669938875,,,,,,,,,,,,,,,,,,,,,,,,,,,,,,,,,,,,,,,,sub-105,2,stroop_test,61.57032730964624,
test,red,r,1.0,1.0,1.0,0.0,r,1.0,0.7018900249968283,,,,,,,,,,,,,,,,,,0.0,1.0,1.0,0.0,,,,,,,,,4.571833437017631,,,,,,,,,,,,,,,,,4.556995358027052,5.772240742982831,6.572073417017236,6.555969212029595,6.556425544025842,6.572073417017236,6.572073417017236,7.290497069014236,r,1.0,0.7018900249968283,,,,,,,,,,,,,,,,,,,,,,,,,,,,,,,,,,,,,,,,sub-105,2,stroop_test,61.57032730964624,
test,blue,b,1.0,2.0,2.0,0.0,b,1.0,0.89017759996932,,,,,,,,,,,,,,,,,,0.0,2.0,2.0,2.0,,,,,,,,,7.31041625502985,,,,,,,,,,,,,,,,,7.290811663027853,8.50596676702844,9.305033962009476,9.289041668991558,9.289465442998337,9.305033962009476,9.305033962009476,10.207116056000814,b,1.0,0.89017759996932,,,,,,,,,,,,,,,,,,,,,,,,,,,,,,,,,,,,,,,,sub-105,2,stroop_test,61.57032730964624,
test,yellow,g,1.0,3.0,0.0,1.0,g,1.0,0.7931912110070698,,,,,,,,,,,,,,,,,,1.0,0.0,3.0,1.0,,,,,,,,,10.222037550003732,,,,,,,,,,,,,,,,,10.207411370996851,10.322106313018594,11.12189893098548,11.1060560119804,11.1064907250111,11.12189893098548,11.12189893098548,11.917118127981666,g,1.0,0.7931912110070698,,,,,,,,,,,,,,,,,,,,,,,,,,,,,,,,,,,,,,,,sub-105,2,stroop_test,61.57032730964624,
test,blue,b,1.0,4.0,1.0,1.0,b,1.0,0.6832912560203113,,,,,,,,,,,,,,,,,,1.0,1.0,4.0,2.0,,,,,,,,,11.932142804027537,,,,,,,,,,,,,,,,,11.917434806993697,12.032306074979717,12.838895715016406,12.823384292016272,12.823959171015304,12.838895715016406,12.838895715016406,13.523944144020788,b,1.0,0.6832912560203113,,,,,,,,,,,,,,,,,,,,,,,,,,,,,,,,,,,,,,,,sub-105,2,stroop_test,61.57032730964624,
test,red,r,1.0,5.0,2.0,1.0,r,1.0,0.5196330490289256,,,,,,,,,,,,,,,,,,1.0,2.0,5.0,0.0,,,,,,,,,13.539095963002184,,,,,,,,,,,,,,,,,13.524222297011876,14.739461552991996,15.539507579989731,15.523260688001756,15.52369078900665,15.539507579989731,15.539507579989731,16.061171579989605,r,1.0,0.5196330490289256,,,,,,,,,,,,,,,,,,,,,,,,,,,,,,,,,,,,,,,,sub-105,2,stroop_test,61.57032730964624,
test,red,r,1.0,6.0,0.0,2.0,r,1.0,0.4336795799899846,,,,,,,,,,,,,,,,,,2.0,0.0,6.0,0.0,,,,,,,,,16.072713694011327,,,,,,,,,,,,,,,,,16.06145836500218,16.873011624033097,17.673091321019456,17.65700577403186,17.65744039200945,17.673091321019456,17.673091321019456,18.10839131003013,r,1.0,0.4336795799899846,,,,,,,,,,,,,,,,,,,,,,,,,,,,,,,,,,,,,,,,sub-105,2,stroop_test,61.57032730964624,
test,blue,b,1.0,7.0,1.0,2.0,b,1.0,0.6475897100172006,,,,,,,,,,,,,,,,,,2.0,1.0,7.0,2.0,,,,,,,,,18.12332486500964,,,,,,,,,,,,,,,,,18.10870966798393,18.91355763800675,19.72346486902097,19.707704805012327,19.70828260597773,19.72346486902097,19.72346486902097,20.374870006984565,b,1.0,0.6475897100172006,,,,,,,,,,,,,,,,,,,,,,,,,,,,,,,,,,,,,,,,sub-105,2,stroop_test,61.57032730964624,
test,yellow,g,1.0,8.0,2.0,2.0,g,1.0,0.7274720089626499,,,,,,,,,,,,,,,,,,2.0,2.0,8.0,1.0,,,,,,,,,20.390344718005508,,,,,,,,,,,,,,,,,20.375185057986528,20.723832830030005,21.52376285399077,21.508280295995064,21.508873799000867,21.52376285399077,21.52376285399077,22.258828082005493,g,1.0,0.7274720089626499,,,,,,,,,,,,,,,,,,,,,,,,,,,,,,,,,,,,,,,,sub-105,2,stroop_test,61.57032730964624,
test,blue,b,1.0,9.0,0.0,3.0,b,1.0,0.352752267033793,,,,,,,,,,,,,,,,,,3.0,0.0,9.0,2.0,,,,,,,,,22.27385365701048,,,,,,,,,,,,,,,,,22.25914534600452,23.074212729989085,23.874318157031663,23.85838823002996,23.85896690102527,23.874318157031663,23.874318157031663,24.24281336797867,b,1.0,0.352752267033793,,,,,,,,,,,,,,,,,,,,,,,,,,,,,,,,,,,,,,,,sub-105,2,stroop_test,61.57032730964624,
test,red,r,1.0,10.0,1.0,3.0,r,1.0,0.4267745919642038,,,,,,,,,,,,,,,,,,3.0,1.0,10.0,0.0,,,,,,,,,24.257784507004544,,,,,,,,,,,,,,,,,24.243107917020097,24.608087446016725,25.40791842498584,25.39209928998025,25.39270339300856,25.40791842498584,25.40791842498584,25.84263494698098,r,1.0,0.4267745919642038,,,,,,,,,,,,,,,,,,,,,,,,,,,,,,,,,,,,,,,,sub-105,2,stroop_test,61.57032730964624,
test,yellow,g,1.0,11.0,2.0,3.0,g,1.0,0.5731153410160914,,,,,,,,,,,,,,,,,,3.0,2.0,11.0,1.0,,,,,,,,,25.85788802203024,,,,,,,,,,,,,,,,,25.84295775002101,25.947813014034185,26.758138675009832,26.74234441202134,26.742946480982937,26.758138675009832,26.758138675009832,27.342838097014464,g,1.0,0.5731153410160914,,,,,,,,,,,,,,,,,,,,,,,,,,,,,,,,,,,,,,,,sub-105,2,stroop_test,61.57032730964624,
,,,,,,,,,,,,,,,,,,,,,,,,,,,,,,,,,,,,,,,,,,,,,,,,,,,,,,,,,,,,,,,,,,,,27.34297808102565,27.35820618399885,27.35820618399885,34.92746040300699,space,7.567658365995157,,,,,,,,,,,,,,,,,,,,,,,,,,,,,,,,,sub-105,2,stroop_test,61.57032730964624,
,,,,0.0,0.0,0.0,,,,,rot,yellow,g,0.0,g,1.0,0.4138976330286823,,,,,,,,,,,,,,0.0,0.0,0.0,3.0,,,,,34.94501821597805,,,,,,,,,,,,,,,,,34.936970982991625,36.13641231402289,36.94301719003124,36.9271478279843,,,,,,,,,,,,,,,,36.93133580102585,36.94301719003124,36.94301719003124,37.36162257601973,g,1.0,0.4138976330286823,,37.366281157999765,37.37789680599235,38.37704728200333,,,,,,,,,,,,,,,,,,,,,sub-105,2,stroop_test,61.57032730964624,
,,,,1.0,1.0,0.0,,,,,gelb,yellow,g,1.0,g,1.0,0.4645472400006838,,,,,,,,,,,,,,0.0,1.0,1.0,11.0,,,,,38.39363298000535,,,,,,,,,,,,,,,,,38.3774479010026,38.47703089698916,39.27702566701919,39.26079289399786,,,,,,,,,,,,,,,,39.264319691981655,39.27702566701919,39.27702566701919,39.75507132400526,g,1.0,0.4645472400006838,,39.75556812097784,39.77025310503086,40.76053957798285,,,,,,,,,,,,,,,,,,,,,sub-105,2,stroop_test,61.57032730964624,
,,,,2.0,2.0,0.0,,,,,rot,red,r,1.0,r,1.0,0.5499107870273292,,,,,,,,,,,,,,0.0,2.0,2.0,1.0,,,,,40.77723980799783,,,,,,,,,,,,,,,,,40.76093955303077,41.11959785898216,41.9272597610252,41.911192501022015,,,,,,,,,,,,,,,,41.91366356000072,41.9272597610252,41.9272597610252,42.479376715025865,r,1.0,0.5499107870273292,,42.47985207202146,42.493921536020935,43.47884933400201,43.4944554840331,,,,,,,,,,,,,,,,,,,,sub-105,2,stroop_test,61.57032730964624,
,,,,3.0,3.0,0.0,,,,,blau,blue,b,1.0,b,1.0,0.3506432740250602,,,,,,,,,,,,,,0.0,3.0,3.0,6.0,,,,,43.4944554840331,,,,,,,,,,,,,,,,,43.47922838001978,44.29452916397713,45.094486741989385,45.07874171802541,,,,,,,,,,,,,,,,45.08284142799676,45.094486741989385,45.094486741989385,45.461953174031805,b,1.0,0.3506432740250602,,45.462432832980994,45.47785925399512,46.4623583490029,46.47848807199625,,,,,,,,,,,,,,,,,,,,sub-105,2,stroop_test,61.57032730964624,
,,,,4.0,4.0,0.0,,,,,rot,blue,b,0.0,g,0.0,0.5035883960081264,,,,,,,,,,,,,,0.0,4.0,4.0,2.0,,,,,46.47848807199625,,,,,,,,,,,,,,,,,46.462736651010346,47.26180824200856,48.061540685012005,48.045957582013216,,,,,,,,,,,,,,,,48.04904273501597,48.061540685012005,48.061540685012005,48.58043517800979,g,0.0,0.5035883960081264,,48.5841379740159,48.59609357500449,49.58440998598235,,,,,,,,,,,,,,,,,,,,,sub-105,2,stroop_test,61.57032730964624,
,,,,5.0,5.0,0.0,,,,,gelb,red,r,0.0,r,1.0,0.5139619290130213,,,,,,,,,,,,,,0.0,5.0,5.0,8.0,,,,,49.60202749102609,,,,,,,,,,,,,,,,,49.58481045201188,50.39553655398777,51.19561814703047,51.17982270900393,,,,,,,,,,,,,,,,51.18292389501585,51.19561814703047,51.19561814703047,51.71376738499384,r,1.0,0.5139619290130213,,51.71637592301704,51.72881962603424,52.71355962503003,52.729348529013805,,,,,,,,,,,,,,,,,,,,sub-105,2,stroop_test,61.57032730964624,
,,,,6.0,6.0,0.0,,,,,blau,blue,b,1.0,b,1.0,1.102100440999493,,,,,,,,,,,,,,0.0,6.0,6.0,5.0,,,,,52.729348529013805,,,,,,,,,,,,,,,,,52.71394017001148,53.07944717700593,53.87912843801314,53.863524688989855,,,,,,,,,,,,,,,,53.866177278978284,53.87912843801314,53.87912843801314,54.997758776997216,b,1.0,1.102100440999493,,54.99822976702126,55.01268707902637,55.99652692500968,56.01266458700411,,,,,,,,,,,,,,,,,,,,sub-105,2,stroop_test,61.57032730964624,
,,,,7.0,7.0,0.0,,,,,gelb,blue,b,0.0,b,1.0,0.4911532039986923,,,,,,,,,,,,,,0.0,7.0,7.0,9.0,,,,,56.01266458700411,,,,,,,,,,,,,,,,,55.99674776103348,56.8132956980262,57.61856048903428,57.59747186000459,,,,,,,,,,,,,,,,57.60063606197946,57.61856048903428,57.61856048903428,58.114922148990445,b,1.0,0.4911532039986923,,58.11538921901956,58.12976146198344,59.11465109302662,59.13033529400127,,,,,,,,,,,,,,,,,,,,sub-105,2,stroop_test,61.57032730964624,
,,,,8.0,8.0,0.0,,,,,blau,red,r,0.0,r,1.0,0.9744123929995112,,,,,,,,,,,,,,0.0,8.0,8.0,4.0,,,,,59.13033529400127,,,,,,,,,,,,,,,,,59.11503237002762,59.23042655503377,60.0304759760038,60.01456979900832,,,,,,,,,,,,,,,,60.01766472699819,60.0304759760038,60.0304759760038,61.01524708402576,r,1.0,0.9744123929995112,,61.015716120018624,61.030619636003394,62.01487909501884,62.03085107600782,,,,,,,,,,,,,,,,,,,,sub-105,2,stroop_test,61.57032730964624,
,,,,9.0,9.0,0.0,,,,,blau,yellow,g,0.0,g,1.0,0.6896258350461721,,,,,,,,,,,,,,0.0,9.0,9.0,7.0,,,,,62.03085107600782,,,,,,,,,,,,,,,,,62.01532623602543,62.11434051598189,62.92418512102449,62.908278260030784,,,,,,,,,,,,,,,,62.90886814199621,62.92418512102449,62.92418512102449,63.616098219994456,g,1.0,0.6896258350461721,,63.61657218198525,63.63102549803443,64.6157159860013,64.63096715998836,,,,,,,,,,,,,,,,,,,,sub-105,2,stroop_test,61.57032730964624,
,,,,10.0,10.0,0.0,,,,,gelb,yellow,g,1.0,g,1.0,0.5723973590065725,,,,,,,,,,,,,,0.0,10.0,10.0,10.0,,,,,64.63096715998836,,,,,,,,,,,,,,,,,64.61609580297954,65.4315675420221,66.24156847503036,66.22275767603423,,,,,,,,,,,,,,,,66.22533826698782,66.24156847503036,66.24156847503036,66.81635959103005,g,1.0,0.5723973590065725,,66.81681800499791,66.83129680599086,67.82211051200284,,,,,,,,,,,,,,,,,,,,,sub-105,2,stroop_test,61.57032730964624,
,,,,11.0,11.0,0.0,,,,,rot,red,r,1.0,r,1.0,0.9277517860173248,,,,,,,,,,,,,,0.0,11.0,11.0,0.0,,,,,67.83978289202787,,,,,,,,,,,,,,,,,67.82251051597996,68.18163598800311,68.98208300000988,68.96604300098261,,,,,,,,,,,,,,,,68.96969425299903,68.98208300000988,68.98208300000988,69.91699774598237,r,1.0,0.9277517860173248,,69.91746037802659,69.93207720899954,70.91674922901439,70.93236278003315,,,,,,,,,,,,,,,,,,,,sub-105,2,stroop_test,61.57032730964624,
,,,,12.0,0.0,1.0,,,,,blau,blue,b,1.0,b,1.0,0.3773760250187479,,,,,,,,,,,,,,1.0,0.0,12.0,6.0,,,,,70.93236278003315,,,,,,,,,,,,,,,,,70.91713499801699,71.73259571800008,72.53247073799139,72.5170675740228,,,,,,,,,,,,,,,,72.52015285502421,72.53247073799139,72.53247073799139,72.9270089410129,b,1.0,0.3773760250187479,,72.92751961399335,72.94260777102318,73.93326154199895,,,,,,,,,,,,,,,,,,,,,sub-105,2,stroop_test,61.57032730964624,
,,,,13.0,1.0,1.0,,,,,rot,red,r,1.0,r,1.0,0.8186476519913413,,,,,,,,,,,,,,1.0,1.0,13.0,0.0,,,,,73.9495933940052,,,,,,,,,,,,,,,,,73.9336601140094,74.28307219099952,75.0829832230229,75.06676869798684,,,,,,,,,,,,,,,,75.06919973000186,75.0829832230229,75.0829832230229,75.91762596397894,r,1.0,0.8186476519913413,,75.91808976698667,75.93309332203353,76.92901997402078,,,,,,,,,,,,,,,,,,,,,sub-105,2,stroop_test,61.57032730964624,
,,,,14.0,2.0,1.0,,,,,blau,red,r,0.0,r,1.0,0.7253338589798659,,,,,,,,,,,,,,1.0,2.0,14.0,4.0,,,,,76.93604841898195,,,,,,,,,,,,,,,,,76.9293940429925,77.01678232999984,77.81675071001519,77.80064631102141,,,,,,,,,,,,,,,,77.80313105799723,77.81675071001519,77.81675071001519,78.55153836100362,r,1.0,0.7253338589798659,,78.55200894200243,78.56667193298927,79.5539216180332,,,,,,,,,,,,,,,,,,,,,sub-105,2,stroop_test,61.57032730964624,
,,,,15.0,3.0,1.0,,,,,rot,blue,b,0.0,b,1.0,0.5183798670186661,,,,,,,,,,,,,,1.0,3.0,15.0,2.0,,,,,79.567336143984,,,,,,,,,,,,,,,,,79.5543257049867,80.7507099059876,81.55078724800842,81.53457507898565,,,,,,,,,,,,,,,,81.536988894979,81.55078724800842,81.55078724800842,82.08562531200005,b,1.0,0.5183798670186661,,82.08609312999761,82.1010027609882,83.08535090700025,83.10121521598194,,,,,,,,,,,,,,,,,,,,sub-105,2,stroop_test,61.57032730964624,
,,,,16.0,4.0,1.0,,,,,gelb,yellow,g,1.0,g,1.0,0.5460610339650884,,,,,,,,,,,,,,1.0,4.0,16.0,10.0,,,,,83.10121521598194,,,,,,,,,,,,,,,,,83.08574358199257,83.44425536098424,84.25117831898388,84.23509723000461,,,,,,,,,,,,,,,,84.23815306602046,84.25117831898388,84.25117831898388,84.80254265398253,g,1.0,0.5460610339650884,,84.8030107790255,84.81767643202329,85.80221386102494,85.81836860801559,,,,,,,,,,,,,,,,,,,,sub-105,2,stroop_test,61.57032730964624,
,,,,17.0,5.0,1.0,,,,,rot,yellow,g,0.0,g,1.0,0.6015537009807304,,,,,,,,,,,,,,1.0,5.0,17.0,3.0,,,,,85.81836860801559,,,,,,,,,,,,,,,,,85.80259421898518,87.00170676002745,87.8017462650314,87.78587295400212,,,,,,,,,,,,,,,,87.78960061300313,87.8017462650314,87.8017462650314,88.40561711700866,g,1.0,0.6015537009807304,,88.40624319302151,88.4259903409984,89.41876730701188,,,,,,,,,,,,,,,,,,,,,sub-105,2,stroop_test,61.57032730964624,
,,,,18.0,6.0,1.0,,,,,blau,yellow,g,0.0,g,1.0,0.4744299189769663,,,,,,,,,,,,,,1.0,6.0,18.0,7.0,,,,,89.43546596902888,,,,,,,,,,,,,,,,,89.4190728639951,89.76905522198649,90.56878526398214,90.55329238198463,,,,,,,,,,,,,,,,90.55583705502796,90.56878526398214,90.56878526398214,91.05353911599376,g,1.0,0.4744299189769663,,91.05401128099766,91.06904720899183,92.0532241910114,92.06897984200624,,,,,,,,,,,,,,,,,,,,sub-105,2,stroop_test,61.57032730964624,
,,,,19.0,7.0,1.0,,,,,gelb,blue,b,0.0,b,1.0,0.6439645739737898,,,,,,,,,,,,,,1.0,7.0,19.0,9.0,,,,,92.06897984200624,,,,,,,,,,,,,,,,,92.05350731202634,92.85286683600862,93.65471097303087,93.64167865301717,,,,,,,,,,,,,,,,93.64410714199768,93.65471097303087,93.65471097303087,94.30496626900276,b,1.0,0.6439645739737898,,94.30543538101485,94.31959932501196,95.30372922401877,95.31996246002382,,,,,,,,,,,,,,,,,,,,sub-105,2,stroop_test,61.57032730964624,
,,,,20.0,8.0,1.0,,,,,gelb,red,r,0.0,r,1.0,0.5211955580161884,,,,,,,,,,,,,,1.0,8.0,20.0,8.0,,,,,95.31996246002382,,,,,,,,,,,,,,,,,95.30412983102724,96.12005129700992,96.92946425901027,96.91098031401634,,,,,,,,,,,,,,,,96.91140770702624,96.92946425901027,96.92946425901027,97.45486038801027,r,1.0,0.5211955580161884,,97.4553102820064,97.46995661198162,98.4543980830349,98.4703117950121,,,,,,,,,,,,,,,,,,,,sub-105,2,stroop_test,61.57032730964624,
,,,,21.0,9.0,1.0,,,,,gelb,yellow,g,1.0,g,1.0,0.4792759779957123,,,,,,,,,,,,,,1.0,9.0,21.0,11.0,,,,,98.4703117950121,,,,,,,,,,,,,,,,,98.45468249701662,98.82046524598265,99.62054948799778,99.60445938800694,,,,,,,,,,,,,,,,99.6048872860265,99.62054948799778,99.62054948799778,100.1049236850231,g,1.0,0.4792759779957123,,100.1053919250262,100.1203692019917,101.1045246690046,101.12061519501732,,,,,,,,,,,,,,,,,,,,sub-105,2,stroop_test,61.57032730964624,
,,,,22.0,10.0,1.0,,,,,rot,red,r,1.0,r,1.0,0.3465622290386818,,,,,,,,,,,,,,1.0,10.0,22.0,1.0,,,,,101.12061519501732,,,,,,,,,,,,,,,,,101.10482653498184,101.90434842201648,102.7041924429941,102.6885192990303,,,,,,,,,,,,,,,,102.69160668499536,102.7041924429941,102.7041924429941,103.05619909300005,r,1.0,0.3465622290386818,,103.05666997103252,103.07087500102352,104.05526354798349,104.0712936790078,,,,,,,,,,,,,,,,,,,,sub-105,2,stroop_test,61.57032730964624,
,,,,23.0,11.0,1.0,,,,,blau,blue,b,1.0,b,1.0,0.5349447909975424,,,,,,,,,,,,,,1.0,11.0,23.0,5.0,,,,,104.0712936790078,,,,,,,,,,,,,,,,,104.05554327002028,104.17129130702232,104.97126188297987,104.95521457999712,,,,,,,,,,,,,,,,104.95767752302343,104.97126188297987,104.97126188297987,105.52347508602544,b,1.0,0.5349447909975424,,105.5239819699782,105.53798843402184,106.53083031001734,,,,,,,,,,,,,,,,,,,,,sub-105,2,stroop_test,61.57032730964624,
,,,,,,,,,,,,,,,,,,,,,,,,,,,,,,,,,,,,,,,,,,,,,,,,,,,,,,,,,,,,,,,,,,,,,,,,,,,,,,,,,,,,,,,106.53097087697824,106.5484925910132,106.5484925910132,107.37336122698616,space,0.8142431490123272,,,,,,,,,,,,,,sub-105,2,stroop_test,61.57032730964624,
,,,,0.0,0.0,0.0,,,,,,,,,,,,,blau,blue,b,1.0,b,1.0,0.5254936629789881,,,,,,,,,,0.0,0.0,0.0,5.0,107.39149436698062,,,,,,,,,,,,,,,,,107.38368381001057,108.58189227600816,109.3886042520171,109.3729562269873,,,,,,,,,,,,,,,,,,,,,,,,,,,,,,,,,,,109.37624250899536,109.3886042520171,109.3886042520171,109.92343055002856,b,1.0,0.5254936629789881,,,,,,sub-105,2,stroop_test,61.57032730964624,
,,,,1.0,1.0,0.0,,,,,,,,,,,,,rot,red,r,1.0,r,1.0,0.7299300560262054,,,,,,,,,,0.0,1.0,1.0,1.0,109.93875124602346,,,,,,,,,,,,,,,,,109.92376650701044,110.28902034799104,111.08908947301096,111.07364724198123,,,,,,,,,,,,,,,,,,,,,,,,,,,,,,,,,,,111.07681217300706,111.08908947301096,111.08908947301096,111.82355257298332,r,1.0,0.7299300560262054,,,,,,sub-105,2,stroop_test,61.57032730964624,
,,,,2.0,2.0,0.0,,,,,,,,,,,,,blau,red,r,0.0,r,1.0,0.4929690320277586,,,,,,,,,,0.0,2.0,2.0,4.0,111.83920091600156,,,,,,,,,,,,,,,,,111.8238566580112,112.18926326400832,112.98914641601732,112.97390600503422,,,,,,,,,,,,,,,,,,,,,,,,,,,,,,,,,,,112.97701399901416,112.98914641601732,112.98914641601732,113.49817612301558,r,1.0,0.4929690320277586,,,,,,sub-105,2,stroop_test,61.57032730964624,
,,,,3.0,3.0,0.0,,,,,,,,,,,,,rot,yellow,g,0.0,g,1.0,0.5957320390152745,,,,,,,,,,0.0,3.0,3.0,3.0,113.51616140798431,,,,,,,,,,,,,,,,,113.4986269660294,114.30644044303337,115.11878957302542,115.10079263400984,,,,,,,,,,,,,,,,,,,,,,,,,,,,,,,,,,,115.10399879602484,115.11878957302542,115.11878957302542,115.7246653570328,g,1.0,0.5957320390152745,,,,,,sub-105,2,stroop_test,61.57032730964624,
,,,,4.0,4.0,0.0,,,,,,,,,,,,,rot,blue,b,0.0,b,1.0,0.5582991740084253,,,,,,,,,,0.0,4.0,4.0,2.0,115.73966157098766,,,,,,,,,,,,,,,,,115.72499649698148,116.93995149899274,117.74024466099218,117.72438764001708,,,,,,,,,,,,,,,,,,,,,,,,,,,,,,,,,,,117.72495919797802,117.74024466099218,117.74024466099218,118.3083626650041,b,1.0,0.5582991740084253,,,,,,sub-105,2,stroop_test,61.57032730964624,
,,,,5.0,5.0,0.0,,,,,,,,,,,,,blau,blue,b,1.0,b,1.0,0.4884578050114214,,,,,,,,,,0.0,5.0,5.0,6.0,118.3235953259864,,,,,,,,,,,,,,,,,118.30869578302372,118.66710408899236,119.47368975001154,119.45786848402348,,,,,,,,,,,,,,,,,,,,,,,,,,,,,,,,,,,119.46085015003337,119.47368975001154,119.47368975001154,119.97549174301092,b,1.0,0.4884578050114214,,,,,,sub-105,2,stroop_test,61.57032730964624,
,,,,6.0,6.0,0.0,,,,,,,,,,,,,gelb,blue,b,0.0,b,1.0,0.3952146970550529,,,,,,,,,,0.0,6.0,6.0,9.0,119.99052133900112,,,,,,,,,,,,,,,,,119.97583353199298,121.19096995500148,121.9907222139882,121.97519682598067,,,,,,,,,,,,,,,,,,,,,,,,,,,,,,,,,,,121.97833478299437,121.9907222139882,121.9907222139882,122.3922629079898,b,1.0,0.3952146970550529,,,,,,sub-105,2,stroop_test,61.57032730964624,
,,,,7.0,7.0,0.0,,,,,,,,,,,,,gelb,yellow,g,1.0,g,1.0,0.3620110900374129,,,,,,,,,,0.0,7.0,7.0,11.0,122.40747975598788,,,,,,,,,,,,,,,,,122.3925959939952,123.20806997298496,124.00794742797734,123.99250582803506,,,,,,,,,,,,,,,,,,,,,,,,,,,,,,,,,,,123.99311079998732,124.00794742797734,124.00794742797734,124.37615629000356,g,1.0,0.3620110900374129,,,,,,sub-105,2,stroop_test,61.57032730964624,
,,,,8.0,8.0,0.0,,,,,,,,,,,,,gelb,red,r,0.0,r,1.0,0.3393583270371891,,,,,,,,,,0.0,8.0,8.0,8.0,124.39137700601714,,,,,,,,,,,,,,,,,124.37646521202988,125.59179374400992,126.39168573898496,126.37572676700074,,,,,,,,,,,,,,,,,,,,,,,,,,,,,,,,,,,126.37615135399392,126.39168573898496,126.39168573898496,126.73666268098168,r,1.0,0.3393583270371891,,,,,,sub-105,2,stroop_test,61.57032730964624,
,,,,9.0,9.0,0.0,,,,,,,,,,,,,blau,yellow,g,0.0,g,1.0,0.3173729280242696,,,,,,,,,,0.0,9.0,9.0,7.0,126.75404831103516,,,,,,,,,,,,,,,,,126.73700135102264,127.54203003802104,128.34190724400105,128.3265712329885,,,,,,,,,,,,,,,,,,,,,,,,,,,,,,,,,,,128.33006881398614,128.34190724400105,128.34190724400105,128.6704178780201,g,1.0,0.3173729280242696,,,,,,sub-105,2,stroop_test,61.57032730964624,
,,,,10.0,10.0,0.0,,,,,,,,,,,,,gelb,yellow,g,1.0,g,1.0,0.3777350870077498,,,,,,,,,,0.0,10.0,10.0,10.0,128.68537369801197,,,,,,,,,,,,,,,,,128.67074913199758,129.47576964797918,130.28048037702683,130.2696628739941,,,,,,,,,,,,,,,,,,,,,,,,,,,,,,,,,,,130.27214687300147,130.28048037702683,130.28048037702683,130.66070572502213,g,1.0,0.3777350870077498,,,,,,sub-105,2,stroop_test,61.57032730964624,
,,,,11.0,11.0,0.0,,,,,,,,,,,,,rot,red,r,1.0,r,1.0,0.363966837991029,,,,,,,,,,0.0,11.0,11.0,0.0,130.6756769490312,,,,,,,,,,,,,,,,,130.6610479230294,131.47604019899154,132.28638816298917,132.26984382601222,,,,,,,,,,,,,,,,,,,,,,,,,,,,,,,,,,,132.27235461201053,132.28638816298917,132.28638816298917,132.66065840201918,r,1.0,0.363966837991029,,,,,,sub-105,2,stroop_test,61.57032730964624,
,,,,12.0,0.0,1.0,,,,,,,,,,,,,gelb,red,r,0.0,r,1.0,0.3831178260152228,,,,,,,,,,1.0,0.0,12.0,8.0,132.67606005602283,,,,,,,,,,,,,,,,,132.66099109401694,133.85997500503436,134.6595570690115,134.6441548820003,,,,,,,,,,,,,,,,,,,,,,,,,,,,,,,,,,,134.64742489199853,134.6595570690115,134.6595570690115,135.04465926700504,r,1.0,0.3831178260152228,,,,,,sub-105,2,stroop_test,61.57032730964624,
,,,,13.0,1.0,1.0,,,,,,,,,,,,,blau,blue,b,1.0,b,1.0,0.4940738620352931,,,,,,,,,,1.0,1.0,13.0,5.0,135.05992873001378,,,,,,,,,,,,,,,,,135.04498993902234,136.26015496999025,137.06018043798397,137.04441055702046,,,,,,,,,,,,,,,,,,,,,,,,,,,,,,,,,,,137.04741123202257,137.06018043798397,137.06018043798397,137.5619626250118,b,1.0,0.4940738620352931,,,,,,sub-105,2,stroop_test,61.57032730964624,
,,,,14.0,2.0,1.0,,,,,,,,,,,,,rot,yellow,g,0.0,g,1.0,0.6571621560142376,,,,,,,,,,1.0,2.0,14.0,3.0,137.5769113249844,,,,,,,,,,,,,,,,,137.56229150597937,138.77737038797932,139.5770245650201,139.561456224008,,,,,,,,,,,,,,,,,,,,,,,,,,,,,,,,,,,139.56437633000314,139.5770245650201,139.5770245650201,140.2533246059902,g,1.0,0.6571621560142376,,,,,,sub-105,2,stroop_test,61.57032730964624,
,,,,15.0,3.0,1.0,,,,,,,,,,,,,rot,red,r,1.0,r,1.0,0.445340716978535,,,,,,,,,,1.0,3.0,15.0,1.0,140.27067214198178,,,,,,,,,,,,,,,,,140.253772948985,141.06073727301555,141.86079364799662,141.84511789801763,,,,,,,,,,,,,,,,,,,,,,,,,,,,,,,,,,,141.8457019070047,141.86079364799662,141.86079364799662,142.32101024198346,r,1.0,0.445340716978535,,,,,,sub-105,2,stroop_test,61.57032730964624,
,,,,16.0,4.0,1.0,,,,,,,,,,,,,blau,red,r,0.0,r,1.0,0.3623526719748042,,,,,,,,,,1.0,4.0,16.0,4.0,142.3375746969832,,,,,,,,,,,,,,,,,142.32134343101643,143.12779894203413,143.9278508470161,143.91220623702975,,,,,,,,,,,,,,,,,,,,,,,,,,,,,,,,,,,143.9151624480146,143.9278508470161,143.9278508470161,144.30631087499205,r,1.0,0.3623526719748042,,,,,,sub-105,2,stroop_test,61.57032730964624,
,,,,17.0,5.0,1.0,,,,,,,,,,,,,rot,blue,b,0.0,b,1.0,0.5412945699645206,,,,,,,,,,1.0,5.0,17.0,2.0,144.3212725240155,,,,,,,,,,,,,,,,,144.3066534040263,144.6615008020308,145.4615233609802,145.44629382598214,,,,,,,,,,,,,,,,,,,,,,,,,,,,,,,,,,,145.44972532399697,145.4615233609802,145.4615233609802,146.0131227039965,b,1.0,0.5412945699645206,,,,,,sub-105,2,stroop_test,61.57032730964624,
,,,,18.0,6.0,1.0,,,,,,,,,,,,,gelb,yellow,g,1.0,g,1.0,0.3102874819887802,,,,,,,,,,1.0,6.0,18.0,10.0,146.02834580797935,,,,,,,,,,,,,,,,,146.01345174200833,146.82881869003177,147.6285024980316,147.61295801599044,,,,,,,,,,,,,,,,,,,,,,,,,,,,,,,,,,,147.61562797002262,147.6285024980316,147.6285024980316,147.94664327899227,g,1.0,0.3102874819887802,,,,,,sub-105,2,stroop_test,61.57032730964624,
,,,,19.0,7.0,1.0,,,,,,,,,,,,,rot,red,r,1.0,r,1.0,0.5221961479983293,,,,,,,,,,1.0,7.0,19.0,0.0,147.96201636700425,,,,,,,,,,,,,,,,,147.9469716270105,148.31236352398992,149.11221163900336,149.09654846799094,,,,,,,,,,,,,,,,,,,,,,,,,,,,,,,,,,,149.0994789589895,149.11221163900336,149.11221163900336,149.64724001300056,r,1.0,0.5221961479983293,,,,,,sub-105,2,stroop_test,61.57032730964624,
,,,,20.0,8.0,1.0,,,,,,,,,,,,,gelb,blue,b,0.0,b,1.0,0.7047402249881998,,,,,,,,,,1.0,8.0,20.0,9.0,149.66236844699597,,,,,,,,,,,,,,,,,149.647567232023,149.7625068820198,150.5622429550276,150.5466197420028,,,,,,,,,,,,,,,,,,,,,,,,,,,,,,,,,,,150.54957990301773,150.5622429550276,150.5622429550276,151.28087048401358,b,1.0,0.7047402249881998,,,,,,sub-105,2,stroop_test,61.57032730964624,
,,,,21.0,9.0,1.0,,,,,,,,,,,,,blau,blue,b,1.0,b,1.0,0.5263552159885876,,,,,,,,,,1.0,9.0,21.0,6.0,151.2959979280131,,,,,,,,,,,,,,,,,151.28120109299198,151.39601735200267,152.19589561101748,152.18028510099975,,,,,,,,,,,,,,,,,,,,,,,,,,,,,,,,,,,152.1833870530245,152.19589561101748,152.19589561101748,152.73111454199534,b,1.0,0.5263552159885876,,,,,,sub-105,2,stroop_test,61.57032730964624,
,,,,22.0,10.0,1.0,,,,,,,,,,,,,gelb,yellow,g,1.0,g,1.0,0.3760336439590901,,,,,,,,,,1.0,10.0,22.0,11.0,152.74602160602808,,,,,,,,,,,,,,,,,152.73144480300834,153.53152364998823,154.34632809698817,154.33104766497854,,,,,,,,,,,,,,,,,,,,,,,,,,,,,,,,,,,154.33401231700554,154.34632809698817,154.34632809698817,154.7313768719905,g,1.0,0.3760336439590901,,,,,,sub-105,2,stroop_test,61.57032730964624,
,,,,23.0,11.0,1.0,,,,,,,,,,,,,blau,yellow,g,0.0,g,1.0,0.4517812019912526,,,,,,,,,,1.0,11.0,23.0,7.0,154.74655921699014,,,,,,,,,,,,,,,,,154.731707155006,154.84665762202349,155.64644847501768,155.63126584800193,,,,,,,,,,,,,,,,,,,,,,,,,,,,,,,,,,,155.6343266509939,155.64644847501768,155.64644847501768,156.1150785870268,g,1.0,0.4517812019912526,,,,,,sub-105,2,stroop_test,61.57032730964624,
,,,,24.0,0.0,2.0,,,,,,,,,,,,,rot,red,r,1.0,r,1.0,0.6325985449948348,,,,,,,,,,2.0,0.0,24.0,1.0,156.12991128501017,,,,,,,,,,,,,,,,,156.11541089502862,157.32128171803197,158.1304695130093,158.1147561080288,,,,,,,,,,,,,,,,,,,,,,,,,,,,,,,,,,,158.11825141200097,158.1304695130093,158.1304695130093,158.77145703800488,r,1.0,0.6325985449948348,,,,,,sub-105,2,stroop_test,61.57032730964624,
,,,,25.0,1.0,2.0,,,,,,,,,,,,,blau,red,r,0.0,r,1.0,0.3457615749794058,,,,,,,,,,2.0,1.0,25.0,4.0,158.78999277902767,,,,,,,,,,,,,,,,,158.77178044302855,159.58073117898311,160.39267386402935,160.3751120759989,,,,,,,,,,,,,,,,,,,,,,,,,,,,,,,,,,,160.37828553002328,160.39267386402935,160.39267386402935,160.74865715502528,r,1.0,0.3457615749794058,,,,,,sub-105,2,stroop_test,61.57032730964624,
,,,,26.0,2.0,2.0,,,,,,,,,,,,,blau,blue,b,1.0,b,1.0,0.396835861960426,,,,,,,,,,2.0,2.0,26.0,6.0,160.7639988180017,,,,,,,,,,,,,,,,,160.7489865910029,161.5643533110269,162.37436100502964,162.35640499700094,,,,,,,,,,,,,,,,,,,,,,,,,,,,,,,,,,,162.35682524298318,162.37436100502964,162.37436100502964,162.78257349599153,b,1.0,0.396835861960426,,,,,,sub-105,2,stroop_test,61.57032730964624,
,,,,27.0,3.0,2.0,,,,,,,,,,,,,rot,red,r,1.0,r,1.0,1.0322759759728797,,,,,,,,,,2.0,3.0,27.0,0.0,162.79768105398398,,,,,,,,,,,,,,,,,162.7829043759848,162.89779888797784,163.6977723580203,163.6823216630146,,,,,,,,,,,,,,,,,,,,,,,,,,,,,,,,,,,163.6853926469921,163.6977723580203,163.6977723580203,164.7326872299891,r,1.0,1.0322759759728797,,,,,,sub-105,2,stroop_test,61.57032730964624,
,,,,28.0,4.0,2.0,,,,,,,,,,,,,rot,yellow,g,0.0,g,1.0,0.6508902850328013,,,,,,,,,,2.0,4.0,28.0,3.0,164.74796978698578,,,,,,,,,,,,,,,,,164.7330185599858,164.8480125659844,165.64815341302892,165.63250380702084,,,,,,,,,,,,,,,,,,,,,,,,,,,,,,,,,,,165.63309515401488,165.64815341302892,165.64815341302892,166.3159779990092,g,1.0,0.6508902850328013,,,,,,sub-105,2,stroop_test,61.57032730964624,
,,,,29.0,5.0,2.0,,,,,,,,,,,,,blau,blue,b,1.0,b,1.0,0.4417490430059843,,,,,,,,,,2.0,5.0,29.0,5.0,166.33160113502527,,,,,,,,,,,,,,,,,166.31632595002884,166.66517642699182,167.46516142203473,167.44937233801463,,,,,,,,,,,,,,,,,,,,,,,,,,,,,,,,,,,167.45258217101218,167.46516142203473,167.46516142203473,167.91657955403207,b,1.0,0.4417490430059843,,,,,,sub-105,2,stroop_test,61.57032730964624,
,,,,30.0,6.0,2.0,,,,,,,,,,,,,gelb,red,r,0.0,r,1.0,0.91895567800384,,,,,,,,,,2.0,6.0,30.0,8.0,167.93188349698903,,,,,,,,,,,,,,,,,167.9169105470064,169.11732079501962,169.93230518401833,169.91677832399728,,,,,,,,,,,,,,,,,,,,,,,,,,,,,,,,,,,169.91989721002756,169.93230518401833,169.93230518401833,170.85626890603453,r,1.0,0.91895567800384,,,,,,sub-105,2,stroop_test,61.57032730964624,
,,,,31.0,7.0,2.0,,,,,,,,,,,,,blau,yellow,g,0.0,g,1.0,0.5362067029927857,,,,,,,,,,2.0,7.0,31.0,7.0,170.8747405569884,,,,,,,,,,,,,,,,,170.8566031579976,172.06633087497903,172.8659846209921,172.85079693002626,,,,,,,,,,,,,,,,,,,,,,,,,,,,,,,,,,,172.85396565397969,172.8659846209921,172.8659846209921,173.4178153849789,g,1.0,0.5362067029927857,,,,,,sub-105,2,stroop_test,61.57032730964624,
,,,,32.0,8.0,2.0,,,,,,,,,,,,,gelb,blue,b,0.0,b,1.0,0.4731962460209615,,,,,,,,,,2.0,8.0,32.0,9.0,173.43291893100832,,,,,,,,,,,,,,,,,173.41814616002375,174.23340748198098,175.0331007859786,175.01732798398007,,,,,,,,,,,,,,,,,,,,,,,,,,,,,,,,,,,175.02088860602817,175.0331007859786,175.0331007859786,175.51140656502685,b,1.0,0.4731962460209615,,,,,,sub-105,2,stroop_test,61.57032730964624,
,,,,33.0,9.0,2.0,,,,,,,,,,,,,gelb,yellow,g,1.0,g,1.0,0.6462867989903316,,,,,,,,,,2.0,9.0,33.0,11.0,175.52637813898036,,,,,,,,,,,,,,,,,175.51171625498682,176.71677702100715,177.52498137700604,177.5064556240104,,,,,,,,,,,,,,,,,,,,,,,,,,,,,,,,,,,177.50691422901582,177.52498137700604,177.52498137700604,178.18540393700823,g,1.0,0.6462867989903316,,,,,,sub-105,2,stroop_test,61.57032730964624,
,,,,34.0,10.0,2.0,,,,,,,,,,,,,rot,blue,b,0.0,r,0.0,0.770247376000043,,,,,,,,,,2.0,10.0,34.0,2.0,178.20046970201656,,,,,,,,,,,,,,,,,178.18573062302312,179.00067241297802,179.80061598599423,179.7852333590272,,,,,,,,,,,,,,,,,,,,,,,,,,,,,,,,,,,179.7881714340183,179.80061598599423,179.80061598599423,180.57934612600368,r,0.0,0.770247376000043,,,,,,sub-105,2,stroop_test,61.57032730964624,
,,,,35.0,11.0,2.0,,,,,,,,,,,,,gelb,yellow,g,1.0,g,1.0,0.550857360009104,,,,,,,,,,2.0,11.0,35.0,10.0,180.5958067229949,,,,,,,,,,,,,,,,,180.57967831299172,181.784308361006,182.5964256949956,182.5785796220298,,,,,,,,,,,,,,,,,,,,,,,,,,,,,,,,,,,182.5818905920023,182.5964256949956,182.5964256949956,183.15299460600363,g,1.0,0.550857360009104,,,,,,sub-105,2,stroop_test,61.57032730964624,
,,,,36.0,0.0,3.0,,,,,,,,,,,,,gelb,red,r,0.0,r,1.0,0.6048901680042036,,,,,,,,,,3.0,0.0,36.0,8.0,183.16788752900905,,,,,,,,,,,,,,,,,183.1533244170132,183.26793377200372,184.07814853999295,184.06247092300327,,,,,,,,,,,,,,,,,,,,,,,,,,,,,,,,,,,184.06316033098847,184.07814853999295,184.07814853999295,184.68625252402853,r,1.0,0.6048901680042036,,,,,,sub-105,2,stroop_test,61.57032730964624,
,,,,37.0,1.0,3.0,,,,,,,,,,,,,gelb,blue,b,0.0,b,1.0,0.4551394819864072,,,,,,,,,,3.0,1.0,37.0,9.0,184.7013244350092,,,,,,,,,,,,,,,,,184.6865861819824,185.05169719900005,185.8515712689841,185.83577025600243,,,,,,,,,,,,,,,,,,,,,,,,,,,,,,,,,,,185.83633595099676,185.8515712689841,185.8515712689841,186.3197746719816,b,1.0,0.4551394819864072,,,,,,sub-105,2,stroop_test,61.57032730964624,
,,,,38.0,2.0,3.0,,,,,,,,,,,,,gelb,yellow,g,1.0,g,1.0,0.6993363070068881,,,,,,,,,,3.0,2.0,38.0,10.0,186.3349110140116,,,,,,,,,,,,,,,,,186.32010414800607,187.13537329703104,187.9354903640342,187.91935999999987,,,,,,,,,,,,,,,,,,,,,,,,,,,,,,,,,,,187.919962857035,187.9354903640342,187.9354903640342,188.63726588198915,g,1.0,0.6993363070068881,,,,,,sub-105,2,stroop_test,61.57032730964624,
,,,,39.0,3.0,3.0,,,,,,,,,,,,,blau,blue,b,1.0,b,1.0,0.5625639469944872,,,,,,,,,,3.0,3.0,39.0,6.0,188.65219248097856,,,,,,,,,,,,,,,,,188.63760523998644,188.752257115033,189.5523845339776,189.5361109939986,,,,,,,,,,,,,,,,,,,,,,,,,,,,,,,,,,,189.5385330300196,189.5523845339776,189.5523845339776,190.12064608500805,b,1.0,0.5625639469944872,,,,,,sub-105,2,stroop_test,61.57032730964624,
,,,,40.0,4.0,3.0,,,,,,,,,,,,,rot,red,r,1.0,r,1.0,0.5196123700006865,,,,,,,,,,3.0,4.0,40.0,1.0,190.1358035500161,,,,,,,,,,,,,,,,,190.1209729120019,191.336191046983,192.1472961960244,192.13023718900516,,,,,,,,,,,,,,,,,,,,,,,,,,,,,,,,,,,192.13354362698735,192.1472961960244,192.1472961960244,192.67108636302876,r,1.0,0.5196123700006865,,,,,,sub-105,2,stroop_test,61.57032730964624,
,,,,41.0,5.0,3.0,,,,,,,,,,,,,rot,red,r,1.0,r,1.0,0.9802520950324832,,,,,,,,,,3.0,5.0,41.0,0.0,192.68605699198088,,,,,,,,,,,,,,,,,192.67141488101333,193.48646889498923,194.2864557160065,194.27038703497965,,,,,,,,,,,,,,,,,,,,,,,,,,,,,,,,,,,194.27082449698355,194.2864557160065,194.2864557160065,195.27123634400775,r,1.0,0.9802520950324832,,,,,,sub-105,2,stroop_test,61.57032730964624,
,,,,42.0,6.0,3.0,,,,,,,,,,,,,blau,yellow,g,0.0,g,1.0,0.7031417759717442,,,,,,,,,,3.0,6.0,42.0,7.0,195.2866664439789,,,,,,,,,,,,,,,,,195.27156534802637,195.38660871301545,196.1959359269822,196.18123534601185,,,,,,,,,,,,,,,,,,,,,,,,,,,,,,,,,,,196.184469224012,196.1959359269822,196.1959359269822,196.9052938130335,g,1.0,0.7031417759717442,,,,,,sub-105,2,stroop_test,61.57032730964624,
,,,,43.0,7.0,3.0,,,,,,,,,,,,,rot,yellow,g,0.0,g,1.0,0.5740975299850106,,,,,,,,,,3.0,7.0,43.0,3.0,196.920446721022,,,,,,,,,,,,,,,,,196.90562219999265,197.025841995026,197.83693817199676,197.8228148529888,,,,,,,,,,,,,,,,,,,,,,,,,,,,,,,,,,,197.8256552069797,197.83693817199676,197.83693817199676,198.4220387249952,g,1.0,0.5740975299850106,,,,,,sub-105,2,stroop_test,61.57032730964624,
,,,,44.0,8.0,3.0,,,,,,,,,,,,,gelb,yellow,g,1.0,g,1.0,0.4415906859794631,,,,,,,,,,3.0,8.0,44.0,11.0,198.43713409098564,,,,,,,,,,,,,,,,,198.42236630700063,198.5372659739805,199.3371541210217,199.3215185949812,,,,,,,,,,,,,,,,,,,,,,,,,,,,,,,,,,,199.32398673600983,199.3371541210217,199.3371541210217,199.78898716700496,g,1.0,0.4415906859794631,,,,,,sub-105,2,stroop_test,61.57032730964624,
,,,,45.0,9.0,3.0,,,,,,,,,,,,,rot,blue,b,0.0,b,1.0,0.7708083940087818,,,,,,,,,,3.0,9.0,45.0,2.0,199.80410043598383,,,,,,,,,,,,,,,,,199.7893245799933,199.90419438900423,200.70416048902555,200.68858416198051,,,,,,,,,,,,,,,,,,,,,,,,,,,,,,,,,,,200.69167557702167,200.70416048902555,200.70416048902555,201.4894766000216,b,1.0,0.7708083940087818,,,,,,sub-105,2,stroop_test,61.57032730964624,
,,,,46.0,10.0,3.0,,,,,,,,,,,,,blau,blue,b,1.0,b,1.0,0.5736659489921294,,,,,,,,,,3.0,10.0,46.0,5.0,201.5043003060273,,,,,,,,,,,,,,,,,201.4898052579956,201.60452271503164,202.40440410998417,202.3885617700289,,,,,,,,,,,,,,,,,,,,,,,,,,,,,,,,,,,202.39098903903505,202.40440410998417,202.40440410998417,202.9889285020181,b,1.0,0.5736659489921294,,,,,,sub-105,2,stroop_test,61.57032730964624,
,,,,47.0,11.0,3.0,,,,,,,,,,,,,blau,red,r,0.0,r,1.0,0.6664110110141337,,,,,,,,,,3.0,11.0,47.0,4.0,203.0044446089887,,,,,,,,,,,,,,,,,202.98919440503232,203.1045740970294,203.90465724101523,203.88885694398775,,,,,,,,,,,,,,,,,,,,,,,,,,,,,,,,,,,203.88944860099585,203.90465724101523,203.90465724101523,204.57299404003425,r,1.0,0.6664110110141337,,,,,,sub-105,2,stroop_test,61.57032730964624,
,,,,48.0,0.0,4.0,,,,,,,,,,,,,gelb,yellow,g,1.0,b,0.0,0.3969553670031018,,,,,,,,,,4.0,0.0,48.0,11.0,204.5882652750006,,,,,,,,,,,,,,,,,204.57330583798463,205.3721935839858,206.1820490270038,206.16465653601333,,,,,,,,,,,,,,,,,,,,,,,,,,,,,,,,,,,206.16724633198464,206.1820490270038,206.1820490270038,206.58992800000124,b,0.0,0.3969553670031018,,,,,,sub-105,2,stroop_test,61.57032730964624,
,,,,49.0,1.0,4.0,,,,,,,,,,,,,gelb,blue,b,0.0,b,1.0,0.868705072964076,,,,,,,,,,4.0,1.0,49.0,9.0,206.6051707210136,,,,,,,,,,,,,,,,,206.5902579969843,206.95554504700704,207.7654307670309,207.74966433102963,,,,,,,,,,,,,,,,,,,,,,,,,,,,,,,,,,,207.75024091103117,207.7654307670309,207.7654307670309,208.6402331200079,b,1.0,0.868705072964076,,,,,,sub-105,2,stroop_test,61.57032730964624,
,,,,50.0,2.0,4.0,,,,,,,,,,,,,blau,yellow,g,0.0,g,1.0,0.4612300400040112,,,,,,,,,,4.0,2.0,50.0,7.0,208.6555885359994,,,,,,,,,,,,,,,,,208.64057119301287,209.0057039289968,209.8055852940306,209.78977975901216,,,,,,,,,,,,,,,,,,,,,,,,,,,,,,,,,,,209.79281342303148,209.8055852940306,209.8055852940306,210.2735751760192,g,1.0,0.4612300400040112,,,,,,sub-105,2,stroop_test,61.57032730964624,
,,,,51.0,3.0,4.0,,,,,,,,,,,,,rot,red,r,1.0,r,1.0,0.4751574670081027,,,,,,,,,,4.0,3.0,51.0,0.0,210.2889607480029,,,,,,,,,,,,,,,,,210.27390598901547,210.6393043299904,211.4393954710104,211.4233509870246,,,,,,,,,,,,,,,,,,,,,,,,,,,,,,,,,,,211.4257180999848,211.4393954710104,211.4393954710104,211.92454262002136,r,1.0,0.4751574670081027,,,,,,sub-105,2,stroop_test,61.57032730964624,
,,,,52.0,4.0,4.0,,,,,,,,,,,,,rot,red,r,1.0,r,1.0,0.5232739010243677,,,,,,,,,,4.0,4.0,52.0,1.0,211.93941883399384,,,,,,,,,,,,,,,,,211.9248686589999,212.0396241830313,212.83953450800615,212.8234531350317,,,,,,,,,,,,,,,,,,,,,,,,,,,,,,,,,,,212.82388368801912,212.83953450800615,212.83953450800615,213.3742934750044,r,1.0,0.5232739010243677,,,,,,sub-105,2,stroop_test,61.57032730964624,
,,,,53.0,5.0,4.0,,,,,,,,,,,,,rot,yellow,g,0.0,r,0.0,0.6464137400034815,,,,,,,,,,4.0,5.0,53.0,3.0,213.38955871597864,,,,,,,,,,,,,,,,,213.37463834899245,213.739747671003,214.54005162301476,214.5240160010289,,,,,,,,,,,,,,,,,,,,,,,,,,,,,,,,,,,214.52526749501703,214.54005162301476,214.54005162301476,215.1916492920136,r,0.0,0.6464137400034815,,,,,,sub-105,2,stroop_test,61.57032730964624,
,,,,54.0,6.0,4.0,,,,,,,,,,,,,blau,blue,b,1.0,b,1.0,0.6321408799849451,,,,,,,,,,4.0,6.0,54.0,6.0,215.20673983101733,,,,,,,,,,,,,,,,,215.1919789750245,215.30685911601176,216.10661813698243,216.0908591049956,,,,,,,,,,,,,,,,,,,,,,,,,,,,,,,,,,,216.09334268199743,216.10661813698243,216.10661813698243,216.74181683902864,b,1.0,0.6321408799849451,,,,,,sub-105,2,stroop_test,61.57032730964624,
,,,,55.0,7.0,4.0,,,,,,,,,,,,,gelb,red,r,0.0,r,1.0,0.9601082139997744,,,,,,,,,,4.0,7.0,55.0,8.0,216.75686335901264,,,,,,,,,,,,,,,,,216.74215247202665,217.1074367740075,217.9070064300322,217.89183033298468,,,,,,,,,,,,,,,,,,,,,,,,,,,,,,,,,,,217.8948061800329,217.9070064300322,217.9070064300322,218.8755160489818,r,1.0,0.9601082139997744,,,,,,sub-105,2,stroop_test,61.57032730964624,
,,,,56.0,8.0,4.0,,,,,,,,,,,,,blau,red,r,0.0,r,1.0,0.5379484390141442,,,,,,,,,,4.0,8.0,56.0,4.0,218.89059093402463,,,,,,,,,,,,,,,,,218.87584593199423,219.2334059419809,220.0407332360046,220.0248321969993,,,,,,,,,,,,,,,,,,,,,,,,,,,,,,,,,,,220.02729555103,220.0407332360046,220.0407332360046,220.59229540801607,r,1.0,0.5379484390141442,,,,,,sub-105,2,stroop_test,61.57032730964624,
,,,,57.0,9.0,4.0,,,,,,,,,,,,,rot,blue,b,0.0,b,1.0,0.8586932309553958,,,,,,,,,,4.0,9.0,57.0,2.0,220.60765845602145,,,,,,,,,,,,,,,,,220.5926208809833,221.80785542202648,222.6079551120056,222.59183771302924,,,,,,,,,,,,,,,,,,,,,,,,,,,,,,,,,,,222.59427008102648,222.6079551120056,222.6079551120056,223.47613549698144,b,1.0,0.8586932309553958,,,,,,sub-105,2,stroop_test,61.57032730964624,
,,,,58.0,10.0,4.0,,,,,,,,,,,,,blau,blue,b,1.0,b,1.0,0.5434062599670142,,,,,,,,,,4.0,10.0,58.0,5.0,223.49140875402367,,,,,,,,,,,,,,,,,223.47646329703275,224.68080788198856,225.49159978399985,225.47604943002807,,,,,,,,,,,,,,,,,,,,,,,,,,,,,,,,,,,225.47921142698036,225.49159978399985,225.49159978399985,226.04364250501385,b,1.0,0.5434062599670142,,,,,,sub-105,2,stroop_test,61.57032730964624,
,,,,59.0,11.0,4.0,,,,,,,,,,,,,gelb,yellow,g,1.0,g,1.0,0.5276683279662393,,,,,,,,,,4.0,11.0,59.0,10.0,226.0586194830248,,,,,,,,,,,,,,,,,226.0439681650023,227.25893352902492,228.05884114000943,228.04272409901023,,,,,,,,,,,,,,,,,,,,,,,,,,,,,,,,,,,228.04519184603123,228.05884114000943,228.05884114000943,228.59399880300043,g,1.0,0.5276683279662393,,,,,,sub-105,2,stroop_test,61.57032730964624,
,,,,60.0,0.0,5.0,,,,,,,,,,,,,gelb,red,r,0.0,r,1.0,0.5494425849756226,,,,,,,,,,5.0,0.0,60.0,8.0,228.60893315199064,,,,,,,,,,,,,,,,,228.59432791400468,228.70906741102223,229.50905419199265,229.4931817969773,,,,,,,,,,,,,,,,,,,,,,,,,,,,,,,,,,,229.4936114540324,229.50905419199265,229.50905419199265,230.0609583170153,r,1.0,0.5494425849756226,,,,,,sub-105,2,stroop_test,61.57032730964624,
,,,,61.0,1.0,5.0,,,,,,,,,,,,,rot,blue,b,0.0,b,1.0,0.5739873270504177,,,,,,,,,,5.0,1.0,61.0,2.0,230.07585817202929,,,,,,,,,,,,,,,,,230.0612877450185,230.876149467018,231.67588309198615,231.66049151099287,,,,,,,,,,,,,,,,,,,,,,,,,,,,,,,,,,,231.6639561700285,231.67588309198615,231.67588309198615,232.26797755499135,b,1.0,0.5739873270504177,,,,,,sub-105,2,stroop_test,61.57032730964624,
,,,,62.0,2.0,5.0,,,,,,,,,,,,,rot,yellow,g,0.0,g,1.0,0.45007739396533,,,,,,,,,,5.0,2.0,62.0,3.0,232.2860955760116,,,,,,,,,,,,,,,,,232.2683124690084,232.3694588090293,233.1763005090179,233.1607943859999,,,,,,,,,,,,,,,,,,,,,,,,,,,,,,,,,,,233.1613963500131,233.1763005090179,233.1763005090179,233.62828972103307,g,1.0,0.45007739396533,,,,,,sub-105,2,stroop_test,61.57032730964624,
,,,,63.0,3.0,5.0,,,,,,,,,,,,,rot,red,r,1.0,r,1.0,0.8148376939934678,,,,,,,,,,5.0,3.0,63.0,1.0,233.64303879003276,,,,,,,,,,,,,,,,,233.62863541400293,234.843534738,235.6437273009797,235.62769100500736,,,,,,,,,,,,,,,,,,,,,,,,,,,,,,,,,,,235.62829720898296,235.6437273009797,235.6437273009797,236.4665716959862,r,1.0,0.8148376939934678,,,,,,sub-105,2,stroop_test,61.57032730964624,
,,,,64.0,4.0,5.0,,,,,,,,,,,,,blau,red,r,0.0,r,1.0,0.5010649120085873,,,,,,,,,,5.0,4.0,64.0,4.0,236.47758216102372,,,,,,,,,,,,,,,,,236.46689859899925,237.67717991402608,238.47721154399915,238.46151229698444,,,,,,,,,,,,,,,,,,,,,,,,,,,,,,,,,,,238.4645821820013,238.47721154399915,238.47721154399915,238.9950181589811,r,1.0,0.5010649120085873,,,,,,sub-105,2,stroop_test,61.57032730964624,
,,,,65.0,5.0,5.0,,,,,,,,,,,,,gelb,yellow,g,1.0,g,1.0,0.4635806329897605,,,,,,,,,,5.0,5.0,65.0,10.0,239.0107703200192,,,,,,,,,,,,,,,,,238.99536890600572,240.2111225510016,241.01095163199352,240.99531419598495,,,,,,,,,,,,,,,,,,,,,,,,,,,,,,,,,,,240.99836894701,241.01095163199352,241.01095163199352,241.4903339049779,g,1.0,0.4635806329897605,,,,,,sub-105,2,stroop_test,61.57032730964624,
,,,,66.0,6.0,5.0,,,,,,,,,,,,,gelb,yellow,g,1.0,g,1.0,0.5080674730124883,,,,,,,,,,5.0,6.0,66.0,11.0,241.50042918301187,,,,,,,,,,,,,,,,,241.490775785991,242.29501221800456,243.09488105599303,243.07899378001457,,,,,,,,,,,,,,,,,,,,,,,,,,,,,,,,,,,243.07958140899427,243.09488105599303,243.09488105599303,243.61291020800127,g,1.0,0.5080674730124883,,,,,,sub-105,2,stroop_test,61.57032730964624,
,,,,67.0,7.0,5.0,,,,,,,,,,,,,blau,yellow,g,0.0,g,1.0,0.8554162670043297,,,,,,,,,,5.0,7.0,67.0,7.0,243.62820358999303,,,,,,,,,,,,,,,,,243.6132362909848,243.7283783610328,244.5305643330212,244.5190048469813,,,,,,,,,,,,,,,,,,,,,,,,,,,,,,,,,,,244.52145960001508,244.5305643330212,244.5305643330212,245.3964414660004,g,1.0,0.8554162670043297,,,,,,sub-105,2,stroop_test,61.57032730964624,
,,,,68.0,8.0,5.0,,,,,,,,,,,,,blau,blue,b,1.0,b,1.0,0.4087767250020988,,,,,,,,,,5.0,8.0,68.0,6.0,245.41164305398704,,,,,,,,,,,,,,,,,245.3967719320208,245.76182923302983,246.5620784300263,246.54615699400887,,,,,,,,,,,,,,,,,,,,,,,,,,,,,,,,,,,246.54657824500464,246.5620784300263,246.5620784300263,246.98004678200232,b,1.0,0.4087767250020988,,,,,,sub-105,2,stroop_test,61.57032730964624,
,,,,69.0,9.0,5.0,,,,,,,,,,,,,gelb,blue,b,0.0,b,1.0,0.5931789390160702,,,,,,,,,,5.0,9.0,69.0,9.0,246.9956083690049,,,,,,,,,,,,,,,,,246.9803764820099,247.09566695598187,247.90578029101016,247.88786036497916,,,,,,,,,,,,,,,,,,,,,,,,,,,,,,,,,,,247.8913497320027,247.90578029101016,247.90578029101016,248.51418252801523,b,1.0,0.5931789390160702,,,,,,sub-105,2,stroop_test,61.57032730964624,
,,,,70.0,10.0,5.0,,,,,,,,,,,,,rot,red,r,1.0,r,1.0,0.5233491560211405,,,,,,,,,,5.0,10.0,70.0,0.0,248.52892819000408,,,,,,,,,,,,,,,,,248.51452581997728,248.62940931803317,249.4393929360085,249.42234445200305,,,,,,,,,,,,,,,,,,,,,,,,,,,,,,,,,,,249.4257977689849,249.4393929360085,249.4393929360085,249.96452824701555,r,1.0,0.5233491560211405,,,,,,sub-105,2,stroop_test,61.57032730964624,
,,,,71.0,11.0,5.0,,,,,,,,,,,,,blau,blue,b,1.0,b,1.0,1.3613679590052925,,,,,,,,,,5.0,11.0,71.0,5.0,249.9795164539828,,,,,,,,,,,,,,,,,249.96483747899765,250.32955561502604,251.12936889502453,251.11328482598765,,,,,,,,,,,,,,,,,,,,,,,,,,,,,,,,,,,251.1161644110107,251.12936889502453,251.12936889502453,252.4976619320223,b,1.0,1.3613679590052925,,,,,,sub-105,2,stroop_test,61.57032730964624,
,,,,72.0,0.0,6.0,,,,,,,,,,,,,rot,blue,b,0.0,b,1.0,0.4549269410199485,,,,,,,,,,6.0,0.0,72.0,2.0,252.51326565700583,,,,,,,,,,,,,,,,,252.49799629999325,253.69664455100428,254.5070581239997,254.49037249799585,,,,,,,,,,,,,,,,,,,,,,,,,,,,,,,,,,,254.49383963498985,254.5070581239997,254.5070581239997,254.9646091280156,b,1.0,0.4549269410199485,,,,,,sub-105,2,stroop_test,61.57032730964624,
,,,,73.0,1.0,6.0,,,,,,,,,,,,,blau,yellow,g,0.0,g,1.0,0.5230558050097898,,,,,,,,,,6.0,1.0,73.0,7.0,254.98005170101533,,,,,,,,,,,,,,,,,254.96490869601257,255.08051994402197,255.88002504000903,255.86427532602104,,,,,,,,,,,,,,,,,,,,,,,,,,,,,,,,,,,255.86728622298688,255.88002504000903,255.88002504000903,256.41507045703474,g,1.0,0.5230558050097898,,,,,,sub-105,2,stroop_test,61.57032730964624,
,,,,74.0,2.0,6.0,,,,,,,,,,,,,gelb,yellow,g,1.0,g,1.0,0.6962531280005351,,,,,,,,,,6.0,2.0,74.0,11.0,256.43023414502386,,,,,,,,,,,,,,,,,256.4154123699991,256.53033678099746,257.3303906649817,257.31458775303327,,,,,,,,,,,,,,,,,,,,,,,,,,,,,,,,,,,257.3177076909924,257.3303906649817,257.3303906649817,258.04233706899686,g,1.0,0.6962531280005351,,,,,,sub-105,2,stroop_test,61.57032730964624,
,,,,75.0,3.0,6.0,,,,,,,,,,,,,rot,red,r,1.0,r,1.0,0.468600122956559,,,,,,,,,,6.0,3.0,75.0,1.0,258.0571796069853,,,,,,,,,,,,,,,,,258.0426640289952,258.3976737980265,259.19746063800994,259.1817851869855,,,,,,,,,,,,,,,,,,,,,,,,,,,,,,,,,,,259.18418522703,259.19746063800994,259.19746063800994,259.6825242469786,r,1.0,0.468600122956559,,,,,,sub-105,2,stroop_test,61.57032730964624,
,,,,76.0,4.0,6.0,,,,,,,,,,,,,blau,blue,b,1.0,g,0.0,0.6253400829737075,,,,,,,,,,6.0,4.0,76.0,5.0,259.6974468069966,,,,,,,,,,,,,,,,,259.6828673949931,260.89788211201085,261.69788719300414,261.6817196549964,,,,,,,,,,,,,,,,,,,,,,,,,,,,,,,,,,,261.6841305909911,261.69788719300414,261.69788719300414,262.3328175059869,g,0.0,0.6253400829737075,,,,,,sub-105,2,stroop_test,61.57032730964624,
,,,,77.0,5.0,6.0,,,,,,,,,,,,,blau,red,r,0.0,r,1.0,0.8784256340004504,,,,,,,,,,6.0,5.0,77.0,4.0,262.3479987939936,,,,,,,,,,,,,,,,,262.3331538690254,263.54819169000257,264.3483802620321,264.3328244520235,,,,,,,,,,,,,,,,,,,,,,,,,,,,,,,,,,,264.3334258469986,264.3483802620321,264.3483802620321,265.23328534298344,r,1.0,0.8784256340004504,,,,,,sub-105,2,stroop_test,61.57032730964624,
,,,,78.0,6.0,6.0,,,,,,,,,,,,,rot,red,r,1.0,r,1.0,0.803366970969364,,,,,,,,,,6.0,6.0,78.0,0.0,265.24882977298694,,,,,,,,,,,,,,,,,265.23362555901986,265.5985966270091,266.3986914699781,266.38280125003075,,,,,,,,,,,,,,,,,,,,,,,,,,,,,,,,,,,266.38591465202626,266.3986914699781,266.3986914699781,267.2174035329954,r,1.0,0.803366970969364,,,,,,sub-105,2,stroop_test,61.57032730964624,
,,,,79.0,7.0,6.0,,,,,,,,,,,,,gelb,blue,b,0.0,b,1.0,2.099920791981276,,,,,,,,,,6.0,7.0,79.0,9.0,267.2326008399832,,,,,,,,,,,,,,,,,267.217730681994,267.58225831598975,268.38205781800207,268.3660843690159,,,,,,,,,,,,,,,,,,,,,,,,,,,,,,,,,,,268.36978334898595,268.38205781800207,268.38205781800207,270.48388266999973,b,1.0,2.099920791981276,,,,,,sub-105,2,stroop_test,61.57032730964624,
,,,,80.0,8.0,6.0,,,,,,,,,,,,,rot,yellow,g,0.0,g,1.0,0.9772175719845108,,,,,,,,,,6.0,8.0,80.0,3.0,270.499284481979,,,,,,,,,,,,,,,,,270.48418731900165,270.8494170050253,271.6494033340132,271.6341022379929,,,,,,,,,,,,,,,,,,,,,,,,,,,,,,,,,,,271.6371504989802,271.6494033340132,271.6494033340132,272.6345109349932,g,1.0,0.9772175719845108,,,,,,sub-105,2,stroop_test,61.57032730964624,
,,,,81.0,9.0,6.0,,,,,,,,,,,,,blau,blue,b,1.0,b,1.0,1.4801361740101129,,,,,,,,,,6.0,9.0,81.0,6.0,272.6496256199898,,,,,,,,,,,,,,,,,272.6348405780154,273.44999587599887,274.2499015950016,274.23450936202426,,,,,,,,,,,,,,,,,,,,,,,,,,,,,,,,,,,274.2374835900264,274.2499015950016,274.2499015950016,275.73513433901826,b,1.0,1.4801361740101129,,,,,,sub-105,2,stroop_test,61.57032730964624,
,,,,82.0,10.0,6.0,,,,,,,,,,,,,gelb,yellow,g,1.0,g,1.0,0.4909472029539756,,,,,,,,,,6.0,10.0,82.0,10.0,275.7502178659779,,,,,,,,,,,,,,,,,275.7354626900051,276.5573920779861,277.3671912440332,277.3516926909797,,,,,,,,,,,,,,,,,,,,,,,,,,,,,,,,,,,277.3548145690001,277.3671912440332,277.3671912440332,277.8685466980096,g,1.0,0.4909472029539756,,,,,,sub-105,2,stroop_test,61.57032730964624,
,,,,83.0,11.0,6.0,,,,,,,,,,,,,gelb,red,r,0.0,r,1.0,1.5399074330343865,,,,,,,,,,6.0,11.0,83.0,8.0,277.8840332889813,,,,,,,,,,,,,,,,,277.86887515400304,279.06766554899514,279.8679604519857,279.851980173029,,,,,,,,,,,,,,,,,,,,,,,,,,,,,,,,,,,279.8524073800072,279.8679604519857,279.8679604519857,281.41934991499875,r,1.0,1.5399074330343865,,,,,,sub-105,2,stroop_test,61.57032730964624,
,,,,84.0,0.0,7.0,,,,,,,,,,,,,rot,yellow,g,0.0,g,1.0,1.5400336679886095,,,,,,,,,,7.0,0.0,84.0,3.0,281.4347797239898,,,,,,,,,,,,,,,,,281.4196778890328,282.23490095703164,283.0349643160007,283.0187562319916,,,,,,,,,,,,,,,,,,,,,,,,,,,,,,,,,,,283.02115802798653,283.0349643160007,283.0349643160007,284.592439525004,g,1.0,1.5400336679886095,,,,,,sub-105,2,stroop_test,61.57032730964624,
,,,,85.0,1.0,7.0,,,,,,,,,,,,,rot,red,r,1.0,r,1.0,0.5094209509552456,,,,,,,,,,7.0,1.0,85.0,1.0,284.6107341460301,,,,,,,,,,,,,,,,,284.59276759799104,285.4017613379983,286.2018059610273,286.1863742209971,,,,,,,,,,,,,,,,,,,,,,,,,,,,,,,,,,,286.1869625760009,286.2018059610273,286.2018059610273,286.7133119709906,r,1.0,0.5094209509552456,,,,,,sub-105,2,stroop_test,61.57032730964624,
,,,,86.0,2.0,7.0,,,,,,,,,,,,,gelb,yellow,g,1.0,g,1.0,0.5848553290124983,,,,,,,,,,7.0,2.0,86.0,11.0,286.72882873303024,,,,,,,,,,,,,,,,,286.71368186199106,287.5189608230139,288.3189358250238,288.3032164250035,,,,,,,,,,,,,,,,,,,,,,,,,,,,,,,,,,,288.3061670489842,288.3189358250238,288.3189358250238,288.9210470810067,g,1.0,0.5848553290124983,,,,,,sub-105,2,stroop_test,61.57032730964624,
,,,,87.0,3.0,7.0,,,,,,,,,,,,,gelb,blue,b,0.0,b,1.0,0.7756331139826216,,,,,,,,,,7.0,3.0,87.0,9.0,288.9357163970126,,,,,,,,,,,,,,,,,288.9213760730345,290.13625694502844,290.93632442498347,290.9204780419823,,,,,,,,,,,,,,,,,,,,,,,,,,,,,,,,,,,290.9210539300111,290.93632442498347,290.93632442498347,291.71439617301803,b,1.0,0.7756331139826216,,,,,,sub-105,2,stroop_test,61.57032730964624,
,,,,88.0,4.0,7.0,,,,,,,,,,,,,blau,red,r,0.0,r,1.0,0.5960747129865922,,,,,,,,,,7.0,4.0,88.0,4.0,291.7297065529856,,,,,,,,,,,,,,,,,291.7147648209939,292.0701384160202,292.88328071002616,292.863901307981,,,,,,,,,,,,,,,,,,,,,,,,,,,,,,,,,,,292.86784342100145,292.88328071002616,292.88328071002616,293.4881790319924,r,1.0,0.5960747129865922,,,,,,sub-105,2,stroop_test,61.57032730964624,
,,,,89.0,5.0,7.0,,,,,,,,,,,,,blau,yellow,g,0.0,g,1.0,0.3593876290251501,,,,,,,,,,7.0,5.0,89.0,7.0,293.50338784599444,,,,,,,,,,,,,,,,,293.4885125000146,294.3036183899967,295.10367945203325,295.08774926001206,,,,,,,,,,,,,,,,,,,,,,,,,,,,,,,,,,,295.088337009016,295.10367945203325,295.10367945203325,295.47195132501656,g,1.0,0.3593876290251501,,,,,,sub-105,2,stroop_test,61.57032730964624,
,,,,90.0,6.0,7.0,,,,,,,,,,,,,rot,blue,b,0.0,b,1.0,0.7639890200225636,,,,,,,,,,7.0,6.0,90.0,2.0,295.4869212459889,,,,,,,,,,,,,,,,,295.4722810590174,295.58710382302525,296.3870825860067,296.37146302399924,,,,,,,,,,,,,,,,,,,,,,,,,,,,,,,,,,,296.37435160402674,296.3870825860067,296.3870825860067,297.15546841500327,b,1.0,0.7639890200225636,,,,,,sub-105,2,stroop_test,61.57032730964624,
,,,,91.0,7.0,7.0,,,,,,,,,,,,,gelb,red,r,0.0,r,1.0,0.4867139449925162,,,,,,,,,,7.0,7.0,91.0,8.0,297.1705530650215,,,,,,,,,,,,,,,,,297.1557702230057,297.5209973070305,298.3207711990108,298.30463315098314,,,,,,,,,,,,,,,,,,,,,,,,,,,,,,,,,,,298.3070944920182,298.3207711990108,298.3207711990108,298.82217820797814,r,1.0,0.4867139449925162,,,,,,sub-105,2,stroop_test,61.57032730964624,
,,,,92.0,8.0,7.0,,,,,,,,,,,,,blau,blue,b,1.0,b,1.0,0.6584173389710486,,,,,,,,,,7.0,8.0,92.0,6.0,298.8374279710115,,,,,,,,,,,,,,,,,298.82250452501466,299.63796006602934,300.437635898008,300.422058820026,,,,,,,,,,,,,,,,,,,,,,,,,,,,,,,,,,,300.42492419702467,300.437635898008,300.437635898008,301.10595321300207,b,1.0,0.6584173389710486,,,,,,sub-105,2,stroop_test,61.57032730964624,
,,,,93.0,9.0,7.0,,,,,,,,,,,,,rot,red,r,1.0,r,1.0,0.4137896680040285,,,,,,,,,,7.0,9.0,93.0,0.0,301.12123922398314,,,,,,,,,,,,,,,,,301.10629321302986,301.921554533008,302.72152420901693,302.70581230003154,,,,,,,,,,,,,,,,,,,,,,,,,,,,,,,,,,,302.7089018400293,302.72152420901693,302.72152420901693,303.13951049302705,r,1.0,0.4137896680040285,,,,,,sub-105,2,stroop_test,61.57032730964624,
,,,,94.0,10.0,7.0,,,,,,,,,,,,,gelb,yellow,g,1.0,g,1.0,0.2684697589720599,,,,,,,,,,7.0,10.0,94.0,10.0,303.15520872198977,,,,,,,,,,,,,,,,,303.1398283609888,304.338554041984,305.1384218779858,305.1229676359799,,,,,,,,,,,,,,,,,,,,,,,,,,,,,,,,,,,305.125360311009,305.1384218779858,305.1384218779858,305.42354095203336,g,1.0,0.2684697589720599,,,,,,sub-105,2,stroop_test,61.57032730964624,
,,,,95.0,11.0,7.0,,,,,,,,,,,,,blau,blue,b,1.0,b,1.0,0.6367043809732422,,,,,,,,,,7.0,11.0,95.0,5.0,305.4387841289863,,,,,,,,,,,,,,,,,305.42386829899624,305.5389405330061,306.338896589994,306.3230876339949,,,,,,,,,,,,,,,,,,,,,,,,,,,,,,,,,,,306.3255344600184,306.338896589994,306.338896589994,306.990509130992,b,1.0,0.6367043809732422,,,,,,sub-105,2,stroop_test,61.57032730964624,
,,,,96.0,0.0,8.0,,,,,,,,,,,,,rot,red,r,1.0,r,1.0,0.5216350730042905,,,,,,,,,,8.0,0.0,96.0,0.0,307.00547073897906,,,,,,,,,,,,,,,,,306.9908388030017,307.1056929380284,307.9183189350297,307.89979795197723,,,,,,,,,,,,,,,,,,,,,,,,,,,,,,,,,,,307.90349823603174,307.9183189350297,307.9183189350297,308.45679044001736,r,1.0,0.5216350730042905,,,,,,sub-105,2,stroop_test,61.57032730964624,
,,,,97.0,1.0,8.0,,,,,,,,,,,,,rot,blue,b,0.0,b,1.0,0.9473313899943604,,,,,,,,,,8.0,1.0,97.0,2.0,308.4724620070192,,,,,,,,,,,,,,,,,308.4571201900253,308.5560467549949,309.35602160403505,309.3401417880086,,,,,,,,,,,,,,,,,,,,,,,,,,,,,,,,,,,309.3405629019835,309.35602160403505,309.35602160403505,310.30781253398163,b,1.0,0.9473313899943604,,,,,,sub-105,2,stroop_test,61.57032730964624,
,,,,98.0,2.0,8.0,,,,,,,,,,,,,blau,red,r,0.0,r,1.0,0.6649144580005668,,,,,,,,,,8.0,2.0,98.0,4.0,310.322930246999,,,,,,,,,,,,,,,,,310.30814085999737,310.4229696789989,311.2228985539987,311.2071632270236,,,,,,,,,,,,,,,,,,,,,,,,,,,,,,,,,,,311.2103254630347,311.2228985539987,311.2228985539987,311.90149105299497,r,1.0,0.6649144580005668,,,,,,sub-105,2,stroop_test,61.57032730964624,
,,,,99.0,3.0,8.0,,,,,,,,,,,,,gelb,yellow,g,1.0,g,1.0,0.3483341530081816,,,,,,,,,,8.0,3.0,99.0,10.0,311.9164717079839,,,,,,,,,,,,,,,,,311.901819612016,312.707020751026,313.5066932369955,313.49088408699026,,,,,,,,,,,,,,,,,,,,,,,,,,,,,,,,,,,313.4933348550112,313.5066932369955,313.5066932369955,313.8580728560337,g,1.0,0.3483341530081816,,,,,,sub-105,2,stroop_test,61.57032730964624,
,,,,100.0,4.0,8.0,,,,,,,,,,,,,rot,red,r,1.0,r,1.0,0.3663650159724056,,,,,,,,,,8.0,4.0,100.0,1.0,313.8734066620236,,,,,,,,,,,,,,,,,313.8583741459879,314.6736316710012,315.4736235180171,315.457518507028,,,,,,,,,,,,,,,,,,,,,,,,,,,,,,,,,,,315.4599428800284,315.4736235180171,315.4736235180171,315.84191035298863,r,1.0,0.3663650159724056,,,,,,sub-105,2,stroop_test,61.57032730964624,
,,,,101.0,5.0,8.0,,,,,,,,,,,,,gelb,blue,b,0.0,b,1.0,0.6835328740417026,,,,,,,,,,8.0,5.0,101.0,9.0,315.8571145309834,,,,,,,,,,,,,,,,,315.84222238801885,317.0573555789888,317.8675888730213,317.849676902988,,,,,,,,,,,,,,,,,,,,,,,,,,,,,,,,,,,317.85290686099324,317.8675888730213,317.8675888730213,318.5587043359992,b,1.0,0.6835328740417026,,,,,,sub-105,2,stroop_test,61.57032730964624,
,,,,102.0,6.0,8.0,,,,,,,,,,,,,gelb,yellow,g,1.0,g,1.0,0.6771679449593648,,,,,,,,,,8.0,6.0,102.0,11.0,318.5742120150244,,,,,,,,,,,,,,,,,318.5590391670121,318.67433035199065,319.4747627479956,319.4583139930037,,,,,,,,,,,,,,,,,,,,,,,,,,,,,,,,,,,319.4587431480177,319.4747627479956,319.4747627479956,320.1593300740351,g,1.0,0.6771679449593648,,,,,,sub-105,2,stroop_test,61.57032730964624,
,,,,103.0,7.0,8.0,,,,,,,,,,,,,blau,blue,b,1.0,b,1.0,0.6004914660006762,,,,,,,,,,8.0,7.0,103.0,5.0,320.17486675898544,,,,,,,,,,,,,,,,,320.15968279202934,321.3749106909964,322.1750103000086,322.1587392499787,,,,,,,,,,,,,,,,,,,,,,,,,,,,,,,,,,,322.1611433129874,322.1750103000086,322.1750103000086,322.7923935779836,b,1.0,0.6004914660006762,,,,,,sub-105,2,stroop_test,61.57032730964624,
,,,,104.0,8.0,8.0,,,,,,,,,,,,,blau,blue,b,1.0,b,1.0,0.5583318099961616,,,,,,,,,,8.0,8.0,104.0,6.0,322.8082858329872,,,,,,,,,,,,,,,,,322.79272367001977,324.01426371902926,324.8255779360188,324.80928803700954,,,,,,,,,,,,,,,,,,,,,,,,,,,,,,,,,,,324.80971036298433,324.8255779360188,324.8255779360188,325.3939319539932,b,1.0,0.5583318099961616,,,,,,sub-105,2,stroop_test,61.57032730964624,
,,,,105.0,9.0,8.0,,,,,,,,,,,,,gelb,red,r,0.0,r,1.0,0.5192323849769309,,,,,,,,,,8.0,9.0,105.0,8.0,325.4090038409922,,,,,,,,,,,,,,,,,325.3942732770229,326.6090660310001,327.4089294089936,327.3932699190336,,,,,,,,,,,,,,,,,,,,,,,,,,,,,,,,,,,327.39673170802416,327.4089294089936,327.4089294089936,327.943930043024,r,1.0,0.5192323849769309,,,,,,sub-105,2,stroop_test,61.57032730964624,
,,,,106.0,10.0,8.0,,,,,,,,,,,,,blau,yellow,g,0.0,b,0.0,0.9706171690486372,,,,,,,,,,8.0,10.0,106.0,7.0,327.95911062002415,,,,,,,,,,,,,,,,,327.94425958400825,328.3092257420067,329.1092679210124,329.0935954070301,,,,,,,,,,,,,,,,,,,,,,,,,,,,,,,,,,,329.0968750829925,329.1092679210124,329.1092679210124,330.0944567099796,b,0.0,0.9706171690486372,,,,,,sub-105,2,stroop_test,61.57032730964624,
,,,,107.0,11.0,8.0,,,,,,,,,,,,,rot,yellow,g,0.0,g,1.0,1.5640605880180374,,,,,,,,,,8.0,11.0,107.0,3.0,330.1096398970112,,,,,,,,,,,,,,,,,330.0947849469958,330.4528667490231,331.2597317399923,331.2439137250185,,,,,,,,,,,,,,,,,,,,,,,,,,,,,,,,,,,331.247101527988,331.2597317399923,331.2597317399923,332.8281179710175,g,1.0,1.5640605880180374,,,,,,sub-105,2,stroop_test,61.57032730964624,
,,,,108.0,0.0,9.0,,,,,,,,,,,,,rot,red,r,1.0,r,1.0,0.6194105859613046,,,,,,,,,,9.0,0.0,108.0,1.0,332.843226048979,,,,,,,,,,,,,,,,,332.8284173790016,333.6436470089829,334.44359082798474,334.4280695450143,,,,,,,,,,,,,,,,,,,,,,,,,,,,,,,,,,,334.4286822890281,334.44359082798474,334.44359082798474,335.0721451140125,r,1.0,0.6194105859613046,,,,,,sub-105,2,stroop_test,61.57032730964624,
,,,,109.0,1.0,9.0,,,,,,,,,,,,,gelb,yellow,g,1.0,g,1.0,0.6520680880057625,,,,,,,,,,9.0,1.0,109.0,11.0,335.0870626239921,,,,,,,,,,,,,,,,,335.07247854501475,335.4272491330048,336.2272200830048,336.21146630699513,,,,,,,,,,,,,,,,,,,,,,,,,,,,,,,,,,,336.21467863,336.2272200830048,336.2272200830048,336.89582313701976,g,1.0,0.6520680880057625,,,,,,sub-105,2,stroop_test,61.57032730964624,
,,,,110.0,2.0,9.0,,,,,,,,,,,,,blau,blue,b,1.0,b,1.0,0.5728319300105795,,,,,,,,,,9.0,2.0,110.0,5.0,336.9146093989839,,,,,,,,,,,,,,,,,336.89616589801153,337.00310575199546,337.81097995402524,337.7950441429857,,,,,,,,,,,,,,,,,,,,,,,,,,,,,,,,,,,337.79752080800245,337.81097995402524,337.81097995402524,338.39599534100853,b,1.0,0.5728319300105795,,,,,,sub-105,2,stroop_test,61.57032730964624,
,,,,111.0,3.0,9.0,,,,,,,,,,,,,gelb,yellow,g,1.0,g,1.0,0.7118821320473216,,,,,,,,,,9.0,3.0,111.0,10.0,338.41080256999703,,,,,,,,,,,,,,,,,338.39631966198795,338.50314664602047,339.31100752798375,339.2954524300294,,,,,,,,,,,,,,,,,,,,,,,,,,,,,,,,,,,339.2986069599865,339.31100752798375,339.31100752798375,340.0293581390288,g,1.0,0.7118821320473216,,,,,,sub-105,2,stroop_test,61.57032730964624,
,,,,112.0,4.0,9.0,,,,,,,,,,,,,rot,yellow,g,0.0,g,1.0,0.7037352280458435,,,,,,,,,,9.0,4.0,112.0,3.0,340.04466897499515,,,,,,,,,,,,,,,,,340.0297019529972,340.1447662290302,340.944585432997,340.928744785022,,,,,,,,,,,,,,,,,,,,,,,,,,,,,,,,,,,340.9311912910198,340.944585432997,340.944585432997,341.65652426698944,g,1.0,0.7037352280458435,,,,,,sub-105,2,stroop_test,61.57032730964624,
,,,,113.0,5.0,9.0,,,,,,,,,,,,,rot,blue,b,0.0,b,1.0,2.2815780209493823,,,,,,,,,,9.0,5.0,113.0,2.0,341.6715209169779,,,,,,,,,,,,,,,,,341.65685181401204,342.8618467390188,343.66493829799583,343.65626874298323,,,,,,,,,,,,,,,,,,,,,,,,,,,,,,,,,,,343.6570041170344,343.66493829799583,343.66493829799583,345.9640441579977,b,1.0,2.2815780209493823,,,,,,sub-105,2,stroop_test,61.57032730964624,
,,,,114.0,6.0,9.0,,,,,,,,,,,,,blau,yellow,g,0.0,g,1.0,0.7632381559815258,,,,,,,,,,9.0,6.0,114.0,7.0,345.97900546103483,,,,,,,,,,,,,,,,,345.9643850760185,346.07911254803184,346.87895559798926,346.86320872203214,,,,,,,,,,,,,,,,,,,,,,,,,,,,,,,,,,,346.86694043898024,346.87895559798926,346.87895559798926,347.6473367140279,g,1.0,0.7632381559815258,,,,,,sub-105,2,stroop_test,61.57032730964624,
,,,,115.0,7.0,9.0,,,,,,,,,,,,,gelb,red,r,0.0,r,1.0,0.6219250130234286,,,,,,,,,,9.0,7.0,115.0,8.0,347.662428628013,,,,,,,,,,,,,,,,,347.6476648739772,347.7625657169847,348.5728999429848,348.55544521601405,,,,,,,,,,,,,,,,,,,,,,,,,,,,,,,,,,,348.5588499850128,348.5728999429848,348.5728999429848,349.19772438699147,r,1.0,0.6219250130234286,,,,,,sub-105,2,stroop_test,61.57032730964624,
,,,,116.0,8.0,9.0,,,,,,,,,,,,,gelb,blue,b,0.0,b,1.0,0.9031190310488456,,,,,,,,,,9.0,8.0,116.0,9.0,349.21261178102577,,,,,,,,,,,,,,,,,349.19804722000845,349.5630458110245,350.36292224301724,350.3473051280016,,,,,,,,,,,,,,,,,,,,,,,,,,,,,,,,,,,350.34788178798044,350.36292224301724,350.36292224301724,351.2811040679808,b,1.0,0.9031190310488456,,,,,,sub-105,2,stroop_test,61.57032730964624,
,,,,117.0,9.0,9.0,,,,,,,,,,,,,rot,red,r,1.0,r,1.0,0.5426239759544842,,,,,,,,,,9.0,9.0,117.0,0.0,351.29666819400154,,,,,,,,,,,,,,,,,351.2814317609882,351.396581323992,352.19651215098565,352.1809605269809,,,,,,,,,,,,,,,,,,,,,,,,,,,,,,,,,,,352.184198456991,352.19651215098565,352.19651215098565,352.74813682201784,r,1.0,0.5426239759544842,,,,,,sub-105,2,stroop_test,61.57032730964624,
,,,,118.0,10.0,9.0,,,,,,,,,,,,,blau,blue,b,1.0,b,1.0,1.1907857559854165,,,,,,,,,,9.0,10.0,118.0,6.0,352.7632612250163,,,,,,,,,,,,,,,,,352.74846274300944,353.55408411403187,354.36371126997983,354.3475555990008,,,,,,,,,,,,,,,,,,,,,,,,,,,,,,,,,,,354.350029157009,354.36371126997983,354.36371126997983,355.57236202899367,b,1.0,1.1907857559854165,,,,,,sub-105,2,stroop_test,61.57032730964624,
,,,,119.0,11.0,9.0,,,,,,,,,,,,,blau,red,r,0.0,r,1.0,0.7575949050369672,,,,,,,,,,9.0,11.0,119.0,4.0,355.5903257000027,,,,,,,,,,,,,,,,,355.5727037710021,356.38065801601624,357.1807474520174,357.1648011149955,,,,,,,,,,,,,,,,,,,,,,,,,,,,,,,,,,,357.1652433570125,357.1807474520174,357.1807474520174,357.9490184449824,r,1.0,0.7575949050369672,,,,,,sub-105,2,stroop_test,61.57032730964624,
,,,,,,,,,,,,,,,,,,,,,,,,,,,,,,,,,,,,,,,,,,,,,,,,,,,,,,,,,,,,,,,,,,,,,,,,,,,,,,,,,,,,,,,,,,,,,,,,,,,,,,357.9491791820037,357.9645465289941,362.9654826730257,362.949173667992,sub-105,2,stroop_test,61.57032730964624,
