wordCTK,colorCTK,corrAnsCTK,congruentCTK,thisN,thisTrialN,thisRepN,keyResp_CTK.keys,keyResp_CTK.corr,keyResp_CTK.rt,keyResp_CTK.duration,wordPractice,colorPractice,corrAnsPractice,congruentPractice,respPractice.keys,respPractice.corr,respPractice.rt,respPractice.duration,word,color,corrAns,congruent,keyResp_test_run.keys,keyResp_test_run.corr,keyResp_test_run.rt,keyResp_test_run.duration,trials_CTK.thisRepN,trials_CTK.thisTrialN,trials_CTK.thisN,trials_CTK.thisIndex,trials_practice.thisRepN,trials_practice.thisTrialN,trials_practice.thisN,trials_practice.thisIndex,trials_test.thisRepN,trials_test.thisTrialN,trials_test.thisN,trials_test.thisIndex,thisRow.t,notes,instruction.started,instr_text.started,instr_image.started,instr_resp.started,instruction.stopped,instr_resp.keys,instr_resp.rt,instr_resp.duration,instr_color_to_key.started,instr_ctk.started,resp_ctk.started,instr_color_to_key.stopped,resp_ctk.keys,resp_ctk.rt,resp_ctk.duration,ITI.started,fixcross.started,fixcross.stopped,ITI.stopped,color_to_key_run.started,stimulus_CTK.started,keyResp_CTK.started,color_to_key_run.stopped,trials_CTK.keyResp_CTK.keys,trials_CTK.keyResp_CTK.corr,trials_CTK.keyResp_CTK.rt,trials_CTK.keyResp_CTK.duration,instr_practice.started,instr_practice_text.started,instr_practice_resp.started,instr_practice.stopped,instr_practice_resp.keys,instr_practice_resp.rt,instr_practice_resp.duration,practice_run.started,stimulus_practice.started,respPractice.started,practice_run.stopped,trials_practice.respPractice.keys,trials_practice.respPractice.corr,trials_practice.respPractice.rt,trials_practice.respPractice.duration,feedback.started,textFeedback.started,feedback.stopped,textFeedback.stopped,instr_test.started,instr_test_text.started,instr_test_resp.started,instr_test.stopped,instr_test_resp.keys,instr_test_resp.rt,instr_test_resp.duration,test_run.started,stimulus_test_run.started,keyResp_test_run.started,test_run.stopped,trials_test.keyResp_test_run.keys,trials_test.keyResp_test_run.corr,trials_test.keyResp_test_run.rt,trials_test.keyResp_test_run.duration,goodbye.started,textGoodbye.started,textGoodbye.stopped,goodbye.stopped,participant,session,expName,frameRate,Unnamed: 113
,,,,,,,,,,,,,,,,,,,,,,,,,,,,,,,,,,,,,,,,,0.0057509000180289,0.1057593000004999,0.1057593000004999,0.1057593000004999,41.11424029999762,space,40.9520989000157,,,,,,,,,,,,,,,,,,,,,,,,,,,,,,,,,,,,,,,,,,,,,,,,,,,,,,,,,,,sub-049,1,stroop_test,59.4195070642492,
,,,,,,,,,,,,,,,,,,,,,,,,,,,,,,,,,,,,,,,,,,,,,,,,,41.11432940000668,41.12216930001159,41.12216930001159,50.56564260000596,space,9.432406600011744,,,,,,,,,,,,,,,,,,,,,,,,,,,,,,,,,,,,,,,,,,,,,,,,,,,,sub-049,1,stroop_test,59.4195070642492,
test,red,r,1.0,0.0,0.0,0.0,r,1.0,2.2228614000196103,,,,,,,,,,,,,,,,,,0.0,0.0,0.0,0.0,,,,,,,,,50.59906390000833,,,,,,,,,,,,,,,,,50.59222690001479,51.38085050001973,52.18518220001715,52.1649996000051,52.17508960000123,52.18518220001715,52.18518220001715,54.41517020002357,r,1.0,2.2228614000196103,,,,,,,,,,,,,,,,,,,,,,,,,,,,,,,,,,,,,,,,sub-049,1,stroop_test,59.4195070642492,
test,yellow,g,1.0,1.0,1.0,0.0,g,1.0,1.2539774000179025,,,,,,,,,,,,,,,,,,0.0,1.0,1.0,1.0,,,,,,,,,54.43160630000057,,,,,,,,,,,,,,,,,54.41551050002454,54.53100660000928,55.34730110000237,55.33121350000147,55.33166570001049,55.34730110000237,55.34730110000237,56.61472660000436,g,1.0,1.2539774000179025,,,,,,,,,,,,,,,,,,,,,,,,,,,,,,,,,,,,,,,,sub-049,1,stroop_test,59.4195070642492,
test,blue,b,1.0,2.0,2.0,0.0,b,1.0,1.1827253999945242,,,,,,,,,,,,,,,,,,0.0,2.0,2.0,2.0,,,,,,,,,56.62987590002013,,,,,,,,,,,,,,,,,56.61498520002351,56.73011860001134,57.53022770001553,57.51442020002287,57.51481360002072,57.53022770001553,57.53022770001553,58.71451760001946,b,1.0,1.1827253999945242,,,,,,,,,,,,,,,,,,,,,,,,,,,,,,,,,,,,,,,,sub-049,1,stroop_test,59.4195070642492,
test,blue,b,1.0,3.0,0.0,1.0,b,1.0,0.6731190000136849,,,,,,,,,,,,,,,,,,1.0,0.0,3.0,2.0,,,,,,,,,58.72961590002524,,,,,,,,,,,,,,,,,58.71485700001358,58.830414199997904,59.64648260001559,59.63065820001066,59.63101830001688,59.64648260001559,59.64648260001559,60.33164950000355,b,1.0,0.6731190000136849,,,,,,,,,,,,,,,,,,,,,,,,,,,,,,,,,,,,,,,,sub-049,1,stroop_test,59.4195070642492,
test,yellow,g,1.0,4.0,1.0,1.0,g,1.0,0.7082264000200666,,,,,,,,,,,,,,,,,,1.0,1.0,4.0,1.0,,,,,,,,,60.34683580001001,,,,,,,,,,,,,,,,,60.33194500001264,61.145968800003175,61.94593180000084,61.93012600002112,61.930561500019394,61.94593180000084,61.94593180000084,62.664637900015805,g,1.0,0.7082264000200666,,,,,,,,,,,,,,,,,,,,,,,,,,,,,,,,,,,,,,,,sub-049,1,stroop_test,59.4195070642492,
test,red,r,1.0,5.0,2.0,1.0,r,1.0,0.8227704000019003,,,,,,,,,,,,,,,,,,1.0,2.0,5.0,0.0,,,,,,,,,62.67987280001398,,,,,,,,,,,,,,,,,62.66509280001628,63.87958040001104,64.67892060001031,64.66352640002151,64.66394690002198,64.67892060001031,64.67892060001031,65.5139720000152,r,1.0,0.8227704000019003,,,,,,,,,,,,,,,,,,,,,,,,,,,,,,,,,,,,,,,,sub-049,1,stroop_test,59.4195070642492,
test,blue,b,1.0,6.0,0.0,2.0,b,1.0,0.6706448000040837,,,,,,,,,,,,,,,,,,2.0,0.0,6.0,2.0,,,,,,,,,65.52918480001972,,,,,,,,,,,,,,,,,65.51431020000018,65.87946870000451,66.67915440001525,66.66337180000846,66.66384240001207,66.67915440001525,66.67915440001525,67.36380430002464,b,1.0,0.6706448000040837,,,,,,,,,,,,,,,,,,,,,,,,,,,,,,,,,,,,,,,,sub-049,1,stroop_test,59.4195070642492,
test,yellow,g,1.0,7.0,1.0,2.0,g,1.0,0.9130630999861752,,,,,,,,,,,,,,,,,,2.0,1.0,7.0,1.0,,,,,,,,,67.37924290000228,,,,,,,,,,,,,,,,,67.36406440002611,67.72866230001091,68.52889280000818,68.51239230000647,68.5129221000243,68.52889280000818,68.52889280000818,69.4467826000182,g,1.0,0.9130630999861752,,,,,,,,,,,,,,,,,,,,,,,,,,,,,,,,,,,,,,,,sub-049,1,stroop_test,59.4195070642492,
test,red,r,1.0,8.0,2.0,2.0,r,1.0,0.5503079000045545,,,,,,,,,,,,,,,,,,2.0,2.0,8.0,0.0,,,,,,,,,69.46185710001737,,,,,,,,,,,,,,,,,69.44702340001822,69.56150239999988,70.36157900001854,70.34562649999862,70.34626460002619,70.36157900001854,70.36157900001854,70.91356380001525,r,1.0,0.5503079000045545,,,,,,,,,,,,,,,,,,,,,,,,,,,,,,,,,,,,,,,,sub-049,1,stroop_test,59.4195070642492,
test,yellow,g,1.0,9.0,0.0,3.0,g,1.0,0.6254496000183281,,,,,,,,,,,,,,,,,,3.0,0.0,9.0,1.0,,,,,,,,,70.9290619000094,,,,,,,,,,,,,,,,,70.91392390002147,72.12851390001015,72.92847690000781,72.91232890001265,72.91291020001518,72.92847690000781,72.92847690000781,73.5637155000004,g,1.0,0.6254496000183281,,,,,,,,,,,,,,,,,,,,,,,,,,,,,,,,,,,,,,,,sub-049,1,stroop_test,59.4195070642492,
test,blue,b,1.0,10.0,1.0,3.0,b,1.0,0.4327865999948699,,,,,,,,,,,,,,,,,,3.0,1.0,10.0,2.0,,,,,,,,,73.57915770000545,,,,,,,,,,,,,,,,,73.56395880001946,74.3777756000054,75.17782589999842,75.16226520002238,75.16266500001075,75.17782589999842,75.17782589999842,75.61248580002575,b,1.0,0.4327865999948699,,,,,,,,,,,,,,,,,,,,,,,,,,,,,,,,,,,,,,,,sub-049,1,stroop_test,59.4195070642492,
test,red,r,1.0,11.0,2.0,3.0,r,1.0,0.328835300024366,,,,,,,,,,,,,,,,,,3.0,2.0,11.0,0.0,,,,,,,,,75.62769660001504,,,,,,,,,,,,,,,,,75.6130039000127,76.82761070001288,77.62701740002376,77.61113170001772,77.61161360002006,77.62701740002376,77.62701740002376,77.96309299999848,r,1.0,0.328835300024366,,,,,,,,,,,,,,,,,,,,,,,,,,,,,,,,,,,,,,,,sub-049,1,stroop_test,59.4195070642492,
,,,,,,,,,,,,,,,,,,,,,,,,,,,,,,,,,,,,,,,,,,,,,,,,,,,,,,,,,,,,,,,,,,,,77.96323770002346,77.97780090000015,77.97780090000015,83.04449749999912,space,5.058750500000315,,,,,,,,,,,,,,,,,,,,,,,,,,,,,,,,,sub-049,1,stroop_test,59.4195070642492,
,,,,0.0,0.0,0.0,,,,,rot,red,r,1.0,r,1.0,0.4070822999929078,,,,,,,,,,,,,,0.0,0.0,0.0,0.0,,,,,83.06149230001029,,,,,,,,,,,,,,,,,83.05360400001518,83.8434597000014,84.64354489999823,84.62704630001099,,,,,,,,,,,,,,,,84.63372430001618,84.64354489999823,84.64354489999823,85.06102660001488,r,1.0,0.4070822999929078,,85.07753060001414,85.08610250000493,86.07688060001237,,,,,,,,,,,,,,,,,,,,,sub-049,1,stroop_test,59.4195070642492,
,,,,1.0,1.0,0.0,,,,,rot,blue,b,0.0,b,1.0,0.7105594000022393,,,,,,,,,,,,,,0.0,1.0,1.0,2.0,,,,,86.0926724000019,,,,,,,,,,,,,,,,,86.07719080001698,86.8762512000103,87.67581020001671,87.66016550001223,,,,,,,,,,,,,,,,87.66062390001025,87.67581020001671,87.67581020001671,88.39444630002254,b,1.0,0.7105594000022393,,88.39483750000363,88.40951180001139,89.39335890000802,89.40891940001165,,,,,,,,,,,,,,,,,,,,sub-049,1,stroop_test,59.4195070642492,
,,,,2.0,2.0,0.0,,,,,blau,blue,b,1.0,b,1.0,0.5766875999979675,,,,,,,,,,,,,,0.0,2.0,2.0,5.0,,,,,89.40891940001165,,,,,,,,,,,,,,,,,89.39361580001423,90.60873420001008,91.41079590001029,91.39346880000085,,,,,,,,,,,,,,,,91.40274859999772,91.41079590001029,91.41079590001029,91.99404859999775,b,1.0,0.5766875999979675,,91.99459510002634,92.00993310002376,93.0094316000177,,,,,,,,,,,,,,,,,,,,,sub-049,1,stroop_test,59.4195070642492,
,,,,3.0,3.0,0.0,,,,,rot,red,r,1.0,r,1.0,0.5496169000107329,,,,,,,,,,,,,,0.0,3.0,3.0,1.0,,,,,93.02549400000134,,,,,,,,,,,,,,,,,93.00969920001808,94.20892830000956,95.00824880000437,94.9925381000212,,,,,,,,,,,,,,,,94.99592750001466,95.00824880000437,95.00824880000437,95.56004950002534,r,1.0,0.5496169000107329,,95.560862000013,95.57530160000896,96.55929650002508,96.57484340001248,,,,,,,,,,,,,,,,,,,,sub-049,1,stroop_test,59.4195070642492,
,,,,4.0,4.0,0.0,,,,,blau,yellow,g,0.0,g,1.0,0.3628643999982159,,,,,,,,,,,,,,0.0,4.0,4.0,7.0,,,,,96.57484340001248,,,,,,,,,,,,,,,,,96.55962290000753,97.77508160000434,98.57426540000596,98.55915110002388,,,,,,,,,,,,,,,,98.5616788000043,98.57426540000596,98.57426540000596,98.94267630000832,g,1.0,0.3628643999982159,,98.94318150001344,98.95808620000024,99.94203490001382,99.95823080002448,,,,,,,,,,,,,,,,,,,,sub-049,1,stroop_test,59.4195070642492,
,,,,5.0,5.0,0.0,,,,,gelb,red,r,0.0,r,1.0,0.907147799996892,,,,,,,,,,,,,,0.0,5.0,5.0,8.0,,,,,99.95823080002448,,,,,,,,,,,,,,,,,99.942268600018,100.7583843000175,101.55828090000432,101.54157880001004,,,,,,,,,,,,,,,,101.5472445000196,101.55828090000432,101.55828090000432,102.47587770002428,r,1.0,0.907147799996892,,102.4762916000036,102.491362700006,103.47480610001368,103.49106320002466,,,,,,,,,,,,,,,,,,,,sub-049,1,stroop_test,59.4195070642492,
,,,,6.0,6.0,0.0,,,,,gelb,yellow,g,1.0,g,1.0,1.0801332000119146,,,,,,,,,,,,,,0.0,6.0,6.0,11.0,,,,,103.49106320002466,,,,,,,,,,,,,,,,,103.47517040002276,104.29032580001513,105.09047650001594,105.07475349999731,,,,,,,,,,,,,,,,105.07517430000009,105.09047650001594,105.09047650001594,106.17504110001028,g,1.0,1.0801332000119146,,106.175662499998,106.19008710002528,107.17407380000805,107.19003270001848,,,,,,,,,,,,,,,,,,,,sub-049,1,stroop_test,59.4195070642492,
,,,,7.0,7.0,0.0,,,,,rot,yellow,g,0.0,g,1.0,0.6203896999941207,,,,,,,,,,,,,,0.0,7.0,7.0,3.0,,,,,107.19003270001848,,,,,,,,,,,,,,,,,107.1743614000152,108.39091750001536,109.20713330002036,109.19065120001324,,,,,,,,,,,,,,,,109.19314260000829,109.20713330002036,109.20713330002036,109.84082660000422,g,1.0,0.6203896999941207,,109.84121770001366,109.85617760001332,110.84027630000492,110.8560796000238,,,,,,,,,,,,,,,,,,,,sub-049,1,stroop_test,59.4195070642492,
,,,,8.0,8.0,0.0,,,,,blau,red,r,0.0,r,1.0,0.4171778000018094,,,,,,,,,,,,,,0.0,8.0,8.0,4.0,,,,,110.8560796000238,,,,,,,,,,,,,,,,,110.84053290000884,111.65612960001454,112.45668510001268,112.44020490002003,,,,,,,,,,,,,,,,112.4428440000047,112.45668510001268,112.45668510001268,112.89119360002223,r,1.0,0.4171778000018094,,112.89160860000992,112.90657050002484,113.8899412000028,113.90587260000756,,,,,,,,,,,,,,,,,,,,sub-049,1,stroop_test,59.4195070642492,
,,,,9.0,9.0,0.0,,,,,gelb,yellow,g,1.0,g,1.0,0.4909734000102617,,,,,,,,,,,,,,0.0,9.0,9.0,10.0,,,,,113.90587260000756,,,,,,,,,,,,,,,,,113.89025620001485,114.00602510001043,114.8065348000091,114.79049959999976,,,,,,,,,,,,,,,,114.7933553000039,114.8065348000091,114.8065348000091,115.30784570000831,g,1.0,0.4909734000102617,,115.30826940000406,115.32322170000408,116.30655200002366,116.32218190000276,,,,,,,,,,,,,,,,,,,,sub-049,1,stroop_test,59.4195070642492,
,,,,10.0,10.0,0.0,,,,,gelb,blue,b,0.0,r,0.0,0.3708865999942645,,,,,,,,,,,,,,0.0,10.0,10.0,9.0,,,,,116.32218190000276,,,,,,,,,,,,,,,,,116.3067853000248,117.52185370001826,118.3219937000249,118.30600150002284,,,,,,,,,,,,,,,,118.306439100008,118.3219937000249,118.3219937000249,118.70654120002293,r,0.0,0.3708865999942645,,118.71204310000758,118.72310630002175,119.70632270001806,119.72166420001304,,,,,,,,,,,,,,,,,,,,sub-049,1,stroop_test,59.4195070642492,
,,,,11.0,11.0,0.0,,,,,blau,blue,b,1.0,b,1.0,0.4328888999880291,,,,,,,,,,,,,,0.0,11.0,11.0,6.0,,,,,119.72166420001304,,,,,,,,,,,,,,,,,119.7066393000132,120.07230530001108,120.8724262000178,120.85679830002482,,,,,,,,,,,,,,,,120.85938170002191,120.8724262000178,120.8724262000178,121.30677470000228,b,1.0,0.4328888999880291,,121.31016280001496,121.32149950001622,122.30629269999918,122.3213981000008,,,,,,,,,,,,,,,,,,,,sub-049,1,stroop_test,59.4195070642492,
,,,,12.0,0.0,1.0,,,,,rot,yellow,g,0.0,g,1.0,0.8063642000197433,,,,,,,,,,,,,,1.0,0.0,12.0,3.0,,,,,122.3213981000008,,,,,,,,,,,,,,,,,122.30662620000658,123.12148670002352,123.9210926000087,123.90595680000844,,,,,,,,,,,,,,,,123.9083778000204,123.9210926000087,123.9210926000087,124.73915770000896,g,1.0,0.8063642000197433,,124.73984520000522,124.75415200000862,125.7386150000093,125.75435990002006,,,,,,,,,,,,,,,,,,,,sub-049,1,stroop_test,59.4195070642492,
,,,,13.0,1.0,1.0,,,,,gelb,yellow,g,1.0,g,1.0,0.7004084000072908,,,,,,,,,,,,,,1.0,1.0,13.0,11.0,,,,,125.75435990002006,,,,,,,,,,,,,,,,,125.73902450001331,126.55440670001552,127.35397450000164,127.33829169999808,,,,,,,,,,,,,,,,127.34192640002584,127.35397450000164,127.35397450000164,128.05666760000167,g,1.0,0.7004084000072908,,128.05746010001167,128.07173590001184,129.05567320002592,129.0708761000133,,,,,,,,,,,,,,,,,,,,sub-049,1,stroop_test,59.4195070642492,
,,,,14.0,2.0,1.0,,,,,blau,blue,b,1.0,b,1.0,0.8185874000191689,,,,,,,,,,,,,,1.0,2.0,14.0,5.0,,,,,129.0708761000133,,,,,,,,,,,,,,,,,129.05604049999965,129.1706630999979,129.97100109999883,129.95507799999905,,,,,,,,,,,,,,,,129.95760090000113,129.97100109999883,129.97100109999883,130.80565419999766,b,1.0,0.8185874000191689,,130.80615650000982,130.82076430000598,131.80388640001183,131.82013600002392,,,,,,,,,,,,,,,,,,,,sub-049,1,stroop_test,59.4195070642492,
,,,,15.0,3.0,1.0,,,,,rot,red,r,1.0,r,1.0,0.5814428000012413,,,,,,,,,,,,,,1.0,3.0,15.0,0.0,,,,,131.82013600002392,,,,,,,,,,,,,,,,,131.8041170000215,131.9199964000145,132.7209756000084,132.70518580000498,,,,,,,,,,,,,,,,132.7081451000122,132.7209756000084,132.7209756000084,133.30591610001284,r,1.0,0.5814428000012413,,133.30693210000754,133.32028010001522,134.30419039999833,134.32057940002414,,,,,,,,,,,,,,,,,,,,sub-049,1,stroop_test,59.4195070642492,
,,,,16.0,4.0,1.0,,,,,blau,red,r,0.0,r,1.0,0.4938615999999456,,,,,,,,,,,,,,1.0,4.0,16.0,4.0,,,,,134.32057940002414,,,,,,,,,,,,,,,,,134.3044909000164,135.51994320002268,136.3208540000196,136.30462950002402,,,,,,,,,,,,,,,,136.30929760000436,136.3208540000196,136.3208540000196,136.82180880001397,r,1.0,0.4938615999999456,,136.8226726000139,136.83689750000485,137.82007650000742,137.83604550000746,,,,,,,,,,,,,,,,,,,,sub-049,1,stroop_test,59.4195070642492,
,,,,17.0,5.0,1.0,,,,,gelb,red,r,0.0,r,1.0,0.3491769999964162,,,,,,,,,,,,,,1.0,5.0,17.0,8.0,,,,,137.83604550000746,,,,,,,,,,,,,,,,,137.82035560000804,138.18669420000515,139.00249970000004,138.98671860000468,,,,,,,,,,,,,,,,138.98969350001423,139.00249970000004,139.00249970000004,139.35435300000245,r,1.0,0.3491769999964162,,139.35490720000234,139.3695621000079,140.35292640002444,140.36977099999783,,,,,,,,,,,,,,,,,,,,sub-049,1,stroop_test,59.4195070642492,
,,,,18.0,6.0,1.0,,,,,gelb,blue,b,0.0,g,0.0,0.5140141999872867,,,,,,,,,,,,,,1.0,6.0,18.0,9.0,,,,,140.36977099999783,,,,,,,,,,,,,,,,,140.35327030002372,140.46894420002354,141.26952260002145,141.2538698000135,,,,,,,,,,,,,,,,141.25437989999773,141.26952260002145,141.26952260002145,141.78729190002196,g,0.0,0.5140141999872867,,141.79048049999983,141.80337050001253,142.80237540000235,,,,,,,,,,,,,,,,,,,,,sub-049,1,stroop_test,59.4195070642492,
,,,,19.0,7.0,1.0,,,,,gelb,yellow,g,1.0,b,0.0,0.9470733999914956,,,,,,,,,,,,,,1.0,7.0,19.0,10.0,,,,,142.81927800000994,,,,,,,,,,,,,,,,,142.80267240002286,142.9028920000128,143.71921110001858,143.7028999000031,,,,,,,,,,,,,,,,143.70332440000493,143.71921110001858,143.71921110001858,144.66971300001023,b,0.0,0.9470733999914956,,144.67014709999785,144.68522559999838,145.66929300001357,145.68551160002244,,,,,,,,,,,,,,,,,,,,sub-049,1,stroop_test,59.4195070642492,
,,,,20.0,8.0,1.0,,,,,blau,yellow,g,0.0,g,1.0,0.8146050999930594,,,,,,,,,,,,,,1.0,8.0,20.0,7.0,,,,,145.68551160002244,,,,,,,,,,,,,,,,,145.6696114000224,146.03536500001792,146.8348886000167,146.81910560000688,,,,,,,,,,,,,,,,146.82267370002228,146.8348886000167,146.8348886000167,147.65299820000655,g,1.0,0.8146050999930594,,147.65675130000454,147.66814970000996,148.6528249999974,148.6679514000134,,,,,,,,,,,,,,,,,,,,sub-049,1,stroop_test,59.4195070642492,
,,,,21.0,9.0,1.0,,,,,blau,blue,b,1.0,b,1.0,0.6929553000081796,,,,,,,,,,,,,,1.0,9.0,21.0,6.0,,,,,148.6679514000134,,,,,,,,,,,,,,,,,148.65309490001528,149.0182660999999,149.81770179999876,149.80192310002167,,,,,,,,,,,,,,,,149.8024009000219,149.81770179999876,149.81770179999876,150.52066410001134,b,1.0,0.6929553000081796,,150.52119690002291,150.53507820001687,151.51888190000318,151.53490050000255,,,,,,,,,,,,,,,,,,,,sub-049,1,stroop_test,59.4195070642492,
,,,,22.0,10.0,1.0,,,,,rot,blue,b,0.0,r,0.0,0.9517850000120234,,,,,,,,,,,,,,1.0,10.0,22.0,2.0,,,,,151.53490050000255,,,,,,,,,,,,,,,,,151.51916830000118,152.7342635000241,153.533974400023,153.51814349999768,,,,,,,,,,,,,,,,153.52085349999834,153.533974400023,153.533974400023,154.50246119999792,r,0.0,0.9517850000120234,,154.50593790001585,154.51793270002236,155.50144780002302,155.5171541000018,,,,,,,,,,,,,,,,,,,,sub-049,1,stroop_test,59.4195070642492,
,,,,23.0,11.0,1.0,,,,,rot,red,r,1.0,r,1.0,1.0576904000190552,,,,,,,,,,,,,,1.0,11.0,23.0,1.0,,,,,155.5171541000018,,,,,,,,,,,,,,,,,155.50168310001027,156.71699800001807,157.51689100000658,157.50082549999934,,,,,,,,,,,,,,,,157.50125680002384,157.51689100000658,157.51689100000658,158.58461119999993,r,1.0,1.0576904000190552,,158.58834060002118,158.59990660002222,159.5839846000017,159.60011250001844,,,,,,,,,,,,,,,,,,,,sub-049,1,stroop_test,59.4195070642492,
,,,,,,,,,,,,,,,,,,,,,,,,,,,,,,,,,,,,,,,,,,,,,,,,,,,,,,,,,,,,,,,,,,,,,,,,,,,,,,,,,,,,,,,159.58408380000037,159.60011250001844,159.60011250001844,165.65164270001696,space,6.048189599998295,,,,,,,,,,,,,,sub-049,1,stroop_test,59.4195070642492,
,,,,0.0,0.0,0.0,,,,,,,,,,,,,blau,yellow,g,0.0,b,0.0,0.7509958000155166,,,,,,,,,,0.0,0.0,0.0,7.0,165.67055980002624,,,,,,,,,,,,,,,,,165.66495940001914,166.4656083000009,167.2657262000139,167.25032380002085,,,,,,,,,,,,,,,,,,,,,,,,,,,,,,,,,,,167.2529438000056,167.2657262000139,167.2657262000139,168.03340680000838,b,0.0,0.7509958000155166,,,,,,sub-049,1,stroop_test,59.4195070642492,
,,,,1.0,1.0,0.0,,,,,,,,,,,,,gelb,yellow,g,1.0,g,1.0,0.5592459999897983,,,,,,,,,,0.0,1.0,1.0,10.0,168.04891460001818,,,,,,,,,,,,,,,,,168.03372740000486,168.14997880000735,168.96523370000068,168.95014280002215,,,,,,,,,,,,,,,,,,,,,,,,,,,,,,,,,,,168.95325210000738,168.96523370000068,168.96523370000068,169.53320040000835,g,1.0,0.5592459999897983,,,,,,sub-049,1,stroop_test,59.4195070642492,
,,,,2.0,2.0,0.0,,,,,,,,,,,,,blau,red,r,0.0,r,1.0,0.8490109000122175,,,,,,,,,,0.0,2.0,2.0,4.0,169.54871210001875,,,,,,,,,,,,,,,,,169.53351530001964,170.74819000001298,171.54842080001254,171.53229980001925,,,,,,,,,,,,,,,,,,,,,,,,,,,,,,,,,,,171.53497370000696,171.54842080001254,171.54842080001254,172.39973510001437,r,1.0,0.8490109000122175,,,,,,sub-049,1,stroop_test,59.4195070642492,
,,,,3.0,3.0,0.0,,,,,,,,,,,,,rot,blue,b,0.0,b,1.0,0.5089647000131663,,,,,,,,,,0.0,3.0,3.0,2.0,172.4148118000012,,,,,,,,,,,,,,,,,172.400048600015,173.21518730002572,174.01465540000936,173.9986304000195,,,,,,,,,,,,,,,,,,,,,,,,,,,,,,,,,,,174.00127770000836,174.01465540000936,174.01465540000936,174.53312460001325,b,1.0,0.5089647000131663,,,,,,sub-049,1,stroop_test,59.4195070642492,
,,,,4.0,4.0,0.0,,,,,,,,,,,,,rot,red,r,1.0,r,1.0,0.5444493999821134,,,,,,,,,,0.0,4.0,4.0,0.0,174.5481865000038,,,,,,,,,,,,,,,,,174.53340559999924,175.3488870000001,176.14801870001247,176.13204240001505,,,,,,,,,,,,,,,,,,,,,,,,,,,,,,,,,,,176.1324058000173,176.14801870001247,176.14801870001247,176.698807400011,r,1.0,0.5444493999821134,,,,,,sub-049,1,stroop_test,59.4195070642492,
,,,,5.0,5.0,0.0,,,,,,,,,,,,,gelb,red,r,0.0,r,1.0,0.989981999999145,,,,,,,,,,0.0,5.0,5.0,8.0,176.71470800001407,,,,,,,,,,,,,,,,,176.6991041000001,177.49813540000468,178.2979552000179,178.28223360000993,,,,,,,,,,,,,,,,,,,,,,,,,,,,,,,,,,,178.285191700008,178.2979552000179,178.2979552000179,179.29849250000552,r,1.0,0.989981999999145,,,,,,sub-049,1,stroop_test,59.4195070642492,
,,,,6.0,6.0,0.0,,,,,,,,,,,,,gelb,yellow,g,1.0,g,1.0,0.5268793999857735,,,,,,,,,,0.0,6.0,6.0,11.0,179.3143980000168,,,,,,,,,,,,,,,,,179.29877530000522,180.11392460000934,180.91407320002327,180.8981322000036,,,,,,,,,,,,,,,,,,,,,,,,,,,,,,,,,,,180.89849690001572,180.91407320002327,180.91407320002327,181.44914560002508,g,1.0,0.5268793999857735,,,,,,sub-049,1,stroop_test,59.4195070642492,
,,,,7.0,7.0,0.0,,,,,,,,,,,,,blau,blue,b,1.0,b,1.0,0.3556347000121604,,,,,,,,,,0.0,7.0,7.0,6.0,181.46423189999769,,,,,,,,,,,,,,,,,181.44946450000865,182.26420360000336,183.06341000000248,183.04775100000552,,,,,,,,,,,,,,,,,,,,,,,,,,,,,,,,,,,183.05139070001317,183.06341000000248,183.06341000000248,183.43236330000215,b,1.0,0.3556347000121604,,,,,,sub-049,1,stroop_test,59.4195070642492,
,,,,8.0,8.0,0.0,,,,,,,,,,,,,rot,red,r,1.0,r,1.0,0.4142381999990903,,,,,,,,,,0.0,8.0,8.0,1.0,183.4476690000156,,,,,,,,,,,,,,,,,183.43276570001035,184.6464950000227,185.44685820001175,185.4307007000025,,,,,,,,,,,,,,,,,,,,,,,,,,,,,,,,,,,185.43409970001085,185.44685820001175,185.44685820001175,185.86484819999896,r,1.0,0.4142381999990903,,,,,,sub-049,1,stroop_test,59.4195070642492,
,,,,9.0,9.0,0.0,,,,,,,,,,,,,gelb,blue,b,0.0,g,0.0,0.701314599980833,,,,,,,,,,0.0,9.0,9.0,9.0,185.87979330000235,,,,,,,,,,,,,,,,,185.86516110002407,186.2296580000257,187.0297734000196,187.0138959000178,,,,,,,,,,,,,,,,,,,,,,,,,,,,,,,,,,,187.0181613000168,187.0297734000196,187.0297734000196,187.747674400016,g,0.0,0.701314599980833,,,,,,sub-049,1,stroop_test,59.4195070642492,
,,,,10.0,10.0,0.0,,,,,,,,,,,,,rot,yellow,g,0.0,g,1.0,0.9281860000046436,,,,,,,,,,0.0,10.0,10.0,3.0,187.76350980001732,,,,,,,,,,,,,,,,,187.7479763000156,188.5628462000168,189.3627575999999,189.34741320001197,,,,,,,,,,,,,,,,,,,,,,,,,,,,,,,,,,,189.3498174000124,189.3627575999999,189.3627575999999,190.2971022000129,g,1.0,0.9281860000046436,,,,,,sub-049,1,stroop_test,59.4195070642492,
,,,,11.0,11.0,0.0,,,,,,,,,,,,,blau,blue,b,1.0,b,1.0,0.6355514999886509,,,,,,,,,,0.0,11.0,11.0,5.0,190.31273040000812,,,,,,,,,,,,,,,,,190.29740580002544,191.09654020000016,191.89578700001584,191.87981110002147,,,,,,,,,,,,,,,,,,,,,,,,,,,,,,,,,,,191.8823279000062,191.89578700001584,191.89578700001584,192.5474853000196,b,1.0,0.6355514999886509,,,,,,sub-049,1,stroop_test,59.4195070642492,
,,,,12.0,0.0,1.0,,,,,,,,,,,,,rot,blue,b,0.0,g,0.0,1.10252769998624,,,,,,,,,,1.0,0.0,12.0,2.0,192.56226260002583,,,,,,,,,,,,,,,,,192.54778250001252,192.9120354000188,193.7120690000011,193.69667250002385,,,,,,,,,,,,,,,,,,,,,,,,,,,,,,,,,,,193.69966910002404,193.7120690000011,193.7120690000011,194.8305925000168,g,0.0,1.10252769998624,,,,,,sub-049,1,stroop_test,59.4195070642492,
,,,,13.0,1.0,1.0,,,,,,,,,,,,,blau,yellow,g,0.0,b,0.0,0.7918408999976236,,,,,,,,,,1.0,1.0,13.0,7.0,194.84535240000696,,,,,,,,,,,,,,,,,194.83094680000795,194.94524850000744,195.745353300008,195.72999200000777,,,,,,,,,,,,,,,,,,,,,,,,,,,,,,,,,,,195.73248740000415,195.745353300008,195.745353300008,196.54683940002,b,0.0,0.7918408999976236,,,,,,sub-049,1,stroop_test,59.4195070642492,
,,,,14.0,2.0,1.0,,,,,,,,,,,,,rot,red,r,1.0,r,1.0,0.9161446999933104,,,,,,,,,,1.0,2.0,14.0,1.0,196.5615594999981,,,,,,,,,,,,,,,,,196.54713310001532,196.66187229999923,197.46236710000085,197.4462182999996,,,,,,,,,,,,,,,,,,,,,,,,,,,,,,,,,,,197.4487266000069,197.46236710000085,197.46236710000085,198.3799302999978,r,1.0,0.9161446999933104,,,,,,sub-049,1,stroop_test,59.4195070642492,
,,,,15.0,3.0,1.0,,,,,,,,,,,,,gelb,blue,b,0.0,g,0.0,0.907504400005564,,,,,,,,,,1.0,3.0,15.0,9.0,198.39504940001643,,,,,,,,,,,,,,,,,198.3802620000206,198.7452923000092,199.5447007000039,199.52864870001213,,,,,,,,,,,,,,,,,,,,,,,,,,,,,,,,,,,199.53162840000005,199.5447007000039,199.5447007000039,200.46390140001316,g,0.0,0.907504400005564,,,,,,sub-049,1,stroop_test,59.4195070642492,
,,,,16.0,4.0,1.0,,,,,,,,,,,,,rot,yellow,g,0.0,g,1.0,0.7271013999998104,,,,,,,,,,1.0,4.0,16.0,3.0,200.47908030002145,,,,,,,,,,,,,,,,,200.46445500000848,200.5783999999985,201.3784907000081,201.36251810000977,,,,,,,,,,,,,,,,,,,,,,,,,,,,,,,,,,,201.36596900000583,201.3784907000081,201.3784907000081,202.1126709000091,g,1.0,0.7271013999998104,,,,,,sub-049,1,stroop_test,59.4195070642492,
,,,,17.0,5.0,1.0,,,,,,,,,,,,,gelb,yellow,g,1.0,g,1.0,0.7840835000097286,,,,,,,,,,1.0,5.0,17.0,11.0,202.12817850001736,,,,,,,,,,,,,,,,,202.1130371000036,203.3276383000193,204.1292126000044,204.11248380001047,,,,,,,,,,,,,,,,,,,,,,,,,,,,,,,,,,,204.11782870002207,204.1292126000044,204.1292126000044,204.9288513000065,g,1.0,0.7840835000097286,,,,,,sub-049,1,stroop_test,59.4195070642492,
,,,,18.0,6.0,1.0,,,,,,,,,,,,,blau,blue,b,1.0,b,1.0,0.5835812999866903,,,,,,,,,,1.0,6.0,18.0,6.0,204.9439552000258,,,,,,,,,,,,,,,,,204.92924370002584,205.0439920000208,205.84392910002495,205.8279929000128,,,,,,,,,,,,,,,,,,,,,,,,,,,,,,,,,,,205.83081280000624,205.84392910002495,205.84392910002495,206.4295545000059,b,1.0,0.5835812999866903,,,,,,sub-049,1,stroop_test,59.4195070642492,
,,,,19.0,7.0,1.0,,,,,,,,,,,,,blau,blue,b,1.0,b,1.0,1.0806030000094324,,,,,,,,,,1.0,7.0,19.0,5.0,206.44430100001048,,,,,,,,,,,,,,,,,206.4300616000255,207.24374330000137,208.04428970001757,208.0282009000075,,,,,,,,,,,,,,,,,,,,,,,,,,,,,,,,,,,208.02892579999752,208.04428970001757,208.04428970001757,209.12857700002496,b,1.0,1.0806030000094324,,,,,,sub-049,1,stroop_test,59.4195070642492,
,,,,20.0,8.0,1.0,,,,,,,,,,,,,gelb,yellow,g,1.0,g,1.0,0.8712129000050481,,,,,,,,,,1.0,8.0,20.0,10.0,209.14413369999968,,,,,,,,,,,,,,,,,209.128909400024,209.9438927000156,210.74385670002084,210.72809200000484,,,,,,,,,,,,,,,,,,,,,,,,,,,,,,,,,,,210.73088600000483,210.74385670002084,210.74385670002084,211.6278693000204,g,1.0,0.8712129000050481,,,,,,sub-049,1,stroop_test,59.4195070642492,
,,,,21.0,9.0,1.0,,,,,,,,,,,,,rot,red,r,1.0,r,1.0,0.6090809000015724,,,,,,,,,,1.0,9.0,21.0,0.0,211.64331330001005,,,,,,,,,,,,,,,,,211.6281356000109,211.7433691000042,212.5434222000185,212.5270747000177,,,,,,,,,,,,,,,,,,,,,,,,,,,,,,,,,,,212.52943960000997,212.5434222000185,212.5434222000185,213.1613880000077,r,1.0,0.6090809000015724,,,,,,sub-049,1,stroop_test,59.4195070642492,
,,,,22.0,10.0,1.0,,,,,,,,,,,,,gelb,red,r,0.0,r,1.0,0.9230663999915124,,,,,,,,,,1.0,10.0,22.0,8.0,213.1763608000183,,,,,,,,,,,,,,,,,213.16165700001875,213.5265740000177,214.32621980001568,214.3107796999975,,,,,,,,,,,,,,,,,,,,,,,,,,,,,,,,,,,214.3136811000004,214.32621980001568,214.32621980001568,215.26145940000424,r,1.0,0.9230663999915124,,,,,,sub-049,1,stroop_test,59.4195070642492,
,,,,23.0,11.0,1.0,,,,,,,,,,,,,blau,red,r,0.0,r,1.0,0.3689827999914996,,,,,,,,,,1.0,11.0,23.0,4.0,215.27596960001392,,,,,,,,,,,,,,,,,215.26182320000956,215.6258878000081,216.4264757000201,216.4100416000001,,,,,,,,,,,,,,,,,,,,,,,,,,,,,,,,,,,216.4130491000251,216.4264757000201,216.4264757000201,216.8108218999987,r,1.0,0.3689827999914996,,,,,,sub-049,1,stroop_test,59.4195070642492,
,,,,24.0,0.0,2.0,,,,,,,,,,,,,gelb,yellow,g,1.0,g,1.0,0.6999047999852337,,,,,,,,,,2.0,0.0,24.0,10.0,216.82581110001772,,,,,,,,,,,,,,,,,216.8111064000113,216.9264785000123,217.72632430001977,217.70997210001224,,,,,,,,,,,,,,,,,,,,,,,,,,,,,,,,,,,217.71505690002232,217.72632430001977,217.72632430001977,218.427766000008,g,1.0,0.6999047999852337,,,,,,sub-049,1,stroop_test,59.4195070642492,
,,,,25.0,1.0,2.0,,,,,,,,,,,,,gelb,yellow,g,1.0,g,1.0,0.3615505000052508,,,,,,,,,,2.0,1.0,25.0,11.0,218.44199890000164,,,,,,,,,,,,,,,,,218.4280627000262,219.24315730002127,220.0419486000028,220.02701780002096,,,,,,,,,,,,,,,,,,,,,,,,,,,,,,,,,,,220.0274739000015,220.0419486000028,220.0419486000028,220.41067380001184,g,1.0,0.3615505000052508,,,,,,sub-049,1,stroop_test,59.4195070642492,
,,,,26.0,2.0,2.0,,,,,,,,,,,,,blau,red,r,0.0,b,0.0,0.4379538000212051,,,,,,,,,,2.0,2.0,26.0,4.0,220.42590900001235,,,,,,,,,,,,,,,,,220.411058800004,220.7758448000241,221.57562950000283,221.55940340002417,,,,,,,,,,,,,,,,,,,,,,,,,,,,,,,,,,,221.5623608000169,221.57562950000283,221.57562950000283,222.02709080002387,b,0.0,0.4379538000212051,,,,,,sub-049,1,stroop_test,59.4195070642492,
,,,,27.0,3.0,2.0,,,,,,,,,,,,,blau,blue,b,1.0,b,1.0,0.8250361999962479,,,,,,,,,,2.0,3.0,27.0,5.0,222.0422391000029,,,,,,,,,,,,,,,,,222.0274170000048,223.24161860000456,224.04145109999808,224.0263495000254,,,,,,,,,,,,,,,,,,,,,,,,,,,,,,,,,,,224.02698170000804,224.04145109999808,224.04145109999808,224.8764085000148,b,1.0,0.8250361999962479,,,,,,sub-049,1,stroop_test,59.4195070642492,
,,,,28.0,4.0,2.0,,,,,,,,,,,,,rot,yellow,g,0.0,g,1.0,1.2368023000017274,,,,,,,,,,2.0,4.0,28.0,3.0,224.89197930000955,,,,,,,,,,,,,,,,,224.8767526000156,225.24165440001525,226.04178320002396,226.02572170001804,,,,,,,,,,,,,,,,,,,,,,,,,,,,,,,,,,,226.02838110001176,226.04178320002396,226.04178320002396,227.29246130000683,g,1.0,1.2368023000017274,,,,,,sub-049,1,stroop_test,59.4195070642492,
,,,,29.0,5.0,2.0,,,,,,,,,,,,,blau,yellow,g,0.0,g,1.0,0.6750403000041842,,,,,,,,,,2.0,5.0,29.0,7.0,227.3081420000235,,,,,,,,,,,,,,,,,227.2927343000192,228.5080218000221,229.30839600000763,229.2922190000245,,,,,,,,,,,,,,,,,,,,,,,,,,,,,,,,,,,229.29464540001936,229.30839600000763,229.30839600000763,229.99242850000155,g,1.0,0.6750403000041842,,,,,,sub-049,1,stroop_test,59.4195070642492,
,,,,30.0,6.0,2.0,,,,,,,,,,,,,rot,blue,b,0.0,b,1.0,0.9477933000016492,,,,,,,,,,2.0,6.0,30.0,2.0,230.00800950001576,,,,,,,,,,,,,,,,,229.99272450001445,230.80769490002425,231.60706400001072,231.59107049999875,,,,,,,,,,,,,,,,,,,,,,,,,,,,,,,,,,,231.5948421000212,231.60706400001072,231.60706400001072,232.5584069000033,b,1.0,0.9477933000016492,,,,,,sub-049,1,stroop_test,59.4195070642492,
,,,,31.0,7.0,2.0,,,,,,,,,,,,,blau,blue,b,1.0,g,0.0,0.7427453999989666,,,,,,,,,,2.0,7.0,31.0,6.0,232.57445320000988,,,,,,,,,,,,,,,,,232.558677300025,233.77423010001075,234.57369630000903,234.5590739000181,,,,,,,,,,,,,,,,,,,,,,,,,,,,,,,,,,,234.5616131999996,234.57369630000903,234.57369630000903,235.32536120002624,g,0.0,0.7427453999989666,,,,,,sub-049,1,stroop_test,59.4195070642492,
,,,,32.0,8.0,2.0,,,,,,,,,,,,,rot,red,r,1.0,r,1.0,0.751959999994142,,,,,,,,,,2.0,8.0,32.0,0.0,235.33993720001308,,,,,,,,,,,,,,,,,235.3256451000052,235.68977970001288,236.48998230000143,236.4745017000241,,,,,,,,,,,,,,,,,,,,,,,,,,,,,,,,,,,236.47739650000585,236.48998230000143,236.48998230000143,237.25765640000463,r,1.0,0.751959999994142,,,,,,sub-049,1,stroop_test,59.4195070642492,
,,,,33.0,9.0,2.0,,,,,,,,,,,,,gelb,red,r,0.0,r,1.0,1.4934181999997236,,,,,,,,,,2.0,9.0,33.0,8.0,237.27344900000023,,,,,,,,,,,,,,,,,237.25793880000128,238.07325720001245,238.87337970000223,238.8578167000087,,,,,,,,,,,,,,,,,,,,,,,,,,,,,,,,,,,238.8607003000216,238.87337970000223,238.87337970000223,240.3750044000044,r,1.0,1.4934181999997236,,,,,,sub-049,1,stroop_test,59.4195070642492,
,,,,34.0,10.0,2.0,,,,,,,,,,,,,gelb,blue,b,0.0,b,1.0,0.8766953000158537,,,,,,,,,,2.0,10.0,34.0,9.0,240.39012160000857,,,,,,,,,,,,,,,,,240.3753547000233,240.48997630001395,241.28970470000056,241.273365800007,,,,,,,,,,,,,,,,,,,,,,,,,,,,,,,,,,,241.27372970001304,241.28970470000056,241.28970470000056,242.17457940001623,b,1.0,0.8766953000158537,,,,,,sub-049,1,stroop_test,59.4195070642492,
,,,,35.0,11.0,2.0,,,,,,,,,,,,,rot,red,r,1.0,r,1.0,0.6059979000128806,,,,,,,,,,2.0,11.0,35.0,1.0,242.18979900001432,,,,,,,,,,,,,,,,,242.17490199999884,242.9894023000088,243.7897157000261,243.77306370000588,,,,,,,,,,,,,,,,,,,,,,,,,,,,,,,,,,,243.77760410000337,243.7897157000261,243.7897157000261,244.40700590002237,r,1.0,0.6059979000128806,,,,,,sub-049,1,stroop_test,59.4195070642492,
,,,,36.0,0.0,3.0,,,,,,,,,,,,,gelb,yellow,g,1.0,g,1.0,1.0328075000143144,,,,,,,,,,3.0,0.0,36.0,11.0,244.4228165000095,,,,,,,,,,,,,,,,,244.4073643000156,244.522947200021,245.3224548000144,245.306658800022,,,,,,,,,,,,,,,,,,,,,,,,,,,,,,,,,,,245.30947320000269,245.3224548000144,245.3224548000144,246.35675990002343,g,1.0,1.0328075000143144,,,,,,sub-049,1,stroop_test,59.4195070642492,
,,,,37.0,1.0,3.0,,,,,,,,,,,,,gelb,yellow,g,1.0,g,1.0,0.4639252999913879,,,,,,,,,,3.0,1.0,37.0,10.0,246.37197770000785,,,,,,,,,,,,,,,,,246.357147600007,246.70591920000152,247.5058586000232,247.48967900002023,,,,,,,,,,,,,,,,,,,,,,,,,,,,,,,,,,,247.4901762000227,247.5058586000232,247.5058586000232,247.9732509000169,g,1.0,0.4639252999913879,,,,,,sub-049,1,stroop_test,59.4195070642492,
,,,,38.0,2.0,3.0,,,,,,,,,,,,,rot,red,r,1.0,r,1.0,0.7497430999937933,,,,,,,,,,3.0,2.0,38.0,1.0,247.98866500001168,,,,,,,,,,,,,,,,,247.9735428999993,249.1886128000042,249.9880793000048,249.9724340000248,,,,,,,,,,,,,,,,,,,,,,,,,,,,,,,,,,,249.97542480000996,249.9880793000048,249.9880793000048,250.7400417000172,r,1.0,0.7497430999937933,,,,,,sub-049,1,stroop_test,59.4195070642492,
,,,,39.0,3.0,3.0,,,,,,,,,,,,,rot,yellow,g,0.0,g,1.0,0.6204527000081725,,,,,,,,,,3.0,3.0,39.0,3.0,250.75452370001585,,,,,,,,,,,,,,,,,250.74039469999843,251.9545798000181,252.7551458000089,252.7389308999991,,,,,,,,,,,,,,,,,,,,,,,,,,,,,,,,,,,252.73948680001195,252.7551458000089,252.7551458000089,253.3890539999993,g,1.0,0.6204527000081725,,,,,,sub-049,1,stroop_test,59.4195070642492,
,,,,40.0,4.0,3.0,,,,,,,,,,,,,blau,yellow,g,0.0,g,1.0,1.1502561999950558,,,,,,,,,,3.0,4.0,40.0,7.0,253.4043491000193,,,,,,,,,,,,,,,,,253.3895187000162,254.18819510002504,254.9878029000247,254.9723256000143,,,,,,,,,,,,,,,,,,,,,,,,,,,,,,,,,,,254.97566590001225,254.9878029000247,254.9878029000247,256.13948290000553,g,1.0,1.1502561999950558,,,,,,sub-049,1,stroop_test,59.4195070642492,
,,,,41.0,5.0,3.0,,,,,,,,,,,,,blau,blue,b,1.0,b,1.0,0.8507732999860309,,,,,,,,,,3.0,5.0,41.0,6.0,256.1540889000171,,,,,,,,,,,,,,,,,256.13980000000447,257.3544315000181,258.15410430001793,258.1377459000214,,,,,,,,,,,,,,,,,,,,,,,,,,,,,,,,,,,258.13822670001537,258.15410430001793,258.15410430001793,259.0221420000016,b,1.0,0.8507732999860309,,,,,,sub-049,1,stroop_test,59.4195070642492,
,,,,42.0,6.0,3.0,,,,,,,,,,,,,blau,red,r,0.0,r,1.0,0.6925718999991659,,,,,,,,,,3.0,6.0,42.0,4.0,259.03723139999784,,,,,,,,,,,,,,,,,259.0224249000021,259.8373367000022,260.636840799998,260.6210066000058,,,,,,,,,,,,,,,,,,,,,,,,,,,,,,,,,,,260.6213915999979,260.636840799998,260.636840799998,261.3380251000053,r,1.0,0.6925718999991659,,,,,,sub-049,1,stroop_test,59.4195070642492,
,,,,43.0,7.0,3.0,,,,,,,,,,,,,blau,blue,b,1.0,g,0.0,0.7495179999968968,,,,,,,,,,3.0,7.0,43.0,5.0,261.353170300019,,,,,,,,,,,,,,,,,261.3384057000221,261.4539115000225,262.25365020000027,262.23739990001195,,,,,,,,,,,,,,,,,,,,,,,,,,,,,,,,,,,262.2378073,262.25365020000027,262.25365020000027,263.0052050000231,g,0.0,0.7495179999968968,,,,,,sub-049,1,stroop_test,59.4195070642492,
,,,,44.0,8.0,3.0,,,,,,,,,,,,,gelb,blue,b,0.0,b,1.0,1.5877383999759331,,,,,,,,,,3.0,8.0,44.0,9.0,263.0206436000008,,,,,,,,,,,,,,,,,263.0055035999976,263.36987630001386,264.16971040001954,264.15426310000475,,,,,,,,,,,,,,,,,,,,,,,,,,,,,,,,,,,264.1574622000044,264.16971040001954,264.16971040001954,265.77137300002505,b,1.0,1.5877383999759331,,,,,,sub-049,1,stroop_test,59.4195070642492,
,,,,45.0,9.0,3.0,,,,,,,,,,,,,rot,red,r,1.0,r,1.0,0.5680669999856036,,,,,,,,,,3.0,9.0,45.0,0.0,265.7861017000105,,,,,,,,,,,,,,,,,265.771670200018,265.8868455000047,266.6870345000061,266.67073979999986,,,,,,,,,,,,,,,,,,,,,,,,,,,,,,,,,,,266.674056000018,266.6870345000061,266.6870345000061,267.2703727000044,r,1.0,0.5680669999856036,,,,,,sub-049,1,stroop_test,59.4195070642492,
,,,,46.0,10.0,3.0,,,,,,,,,,,,,rot,blue,b,0.0,b,1.0,2.714640499994857,,,,,,,,,,3.0,10.0,46.0,2.0,267.28647930000443,,,,,,,,,,,,,,,,,267.27066999999806,267.61958060000325,268.4199222000025,268.4040328999981,,,,,,,,,,,,,,,,,,,,,,,,,,,,,,,,,,,268.4045101000229,268.4199222000025,268.4199222000025,271.1369467000186,b,1.0,2.714640499994857,,,,,,sub-049,1,stroop_test,59.4195070642492,
,,,,47.0,11.0,3.0,,,,,,,,,,,,,gelb,red,r,0.0,r,1.0,0.8702197999809869,,,,,,,,,,3.0,11.0,47.0,8.0,271.15207070001634,,,,,,,,,,,,,,,,,271.1374178999977,271.2525974000164,272.052362300019,272.0362529999984,,,,,,,,,,,,,,,,,,,,,,,,,,,,,,,,,,,272.04115160001675,272.052362300019,272.052362300019,272.9361189000192,r,1.0,0.8702197999809869,,,,,,sub-049,1,stroop_test,59.4195070642492,
,,,,48.0,0.0,4.0,,,,,,,,,,,,,gelb,yellow,g,1.0,g,1.0,0.3773337999882642,,,,,,,,,,4.0,0.0,48.0,10.0,272.9520115000196,,,,,,,,,,,,,,,,,272.9364351000113,274.13496500000474,274.9353615000145,274.91979960000026,,,,,,,,,,,,,,,,,,,,,,,,,,,,,,,,,,,274.92017560001113,274.9353615000145,274.9353615000145,275.31917550001526,g,1.0,0.3773337999882642,,,,,,sub-049,1,stroop_test,59.4195070642492,
,,,,49.0,1.0,4.0,,,,,,,,,,,,,gelb,yellow,g,1.0,g,1.0,0.5324110999936238,,,,,,,,,,4.0,1.0,49.0,11.0,275.33502250001766,,,,,,,,,,,,,,,,,275.31951860000845,275.68492430000333,276.48491540001123,276.46930200001225,,,,,,,,,,,,,,,,,,,,,,,,,,,,,,,,,,,276.4696920000133,276.48491540001123,276.48491540001123,277.01971580000827,g,1.0,0.5324110999936238,,,,,,sub-049,1,stroop_test,59.4195070642492,
,,,,50.0,2.0,4.0,,,,,,,,,,,,,rot,red,r,1.0,r,1.0,0.5179984999995213,,,,,,,,,,4.0,2.0,50.0,1.0,277.0352364999999,,,,,,,,,,,,,,,,,277.0200689000194,277.1356779000198,277.93446040002163,277.91919600000256,,,,,,,,,,,,,,,,,,,,,,,,,,,,,,,,,,,277.921759400022,277.93446040002163,277.93446040002163,278.4538565000112,r,1.0,0.5179984999995213,,,,,,sub-049,1,stroop_test,59.4195070642492,
,,,,51.0,3.0,4.0,,,,,,,,,,,,,blau,blue,b,1.0,b,1.0,0.576971800008323,,,,,,,,,,4.0,3.0,51.0,6.0,278.46870640001725,,,,,,,,,,,,,,,,,278.4542078000086,279.2683227000234,280.0676160000148,280.0518032000109,,,,,,,,,,,,,,,,,,,,,,,,,,,,,,,,,,,280.0544414000178,280.0676160000148,280.0676160000148,280.6526834000251,b,1.0,0.576971800008323,,,,,,sub-049,1,stroop_test,59.4195070642492,
,,,,52.0,4.0,4.0,,,,,,,,,,,,,blau,blue,b,1.0,b,1.0,0.3377054999873508,,,,,,,,,,4.0,4.0,52.0,5.0,280.66821110001183,,,,,,,,,,,,,,,,,280.6530553000048,281.46753829999943,282.26731590001145,282.2519515000168,,,,,,,,,,,,,,,,,,,,,,,,,,,,,,,,,,,282.25240389999817,282.26731590001145,282.26731590001145,282.6185259000049,b,1.0,0.3377054999873508,,,,,,sub-049,1,stroop_test,59.4195070642492,
,,,,53.0,5.0,4.0,,,,,,,,,,,,,rot,red,r,1.0,r,1.0,0.6046052999736276,,,,,,,,,,4.0,5.0,53.0,0.0,282.634176600026,,,,,,,,,,,,,,,,,282.61880700002075,283.4178169000079,284.2171822000237,284.2015383000253,,,,,,,,,,,,,,,,,,,,,,,,,,,,,,,,,,,284.20446560002165,284.2171822000237,284.2171822000237,284.8355492000119,r,1.0,0.6046052999736276,,,,,,sub-049,1,stroop_test,59.4195070642492,
,,,,54.0,6.0,4.0,,,,,,,,,,,,,blau,yellow,g,0.0,g,1.0,0.4776325999991968,,,,,,,,,,4.0,6.0,54.0,7.0,284.8508500000171,,,,,,,,,,,,,,,,,284.835923000006,286.0504981999984,286.8503194000223,286.8341045000125,,,,,,,,,,,,,,,,,,,,,,,,,,,,,,,,,,,286.83684630002244,286.8503194000223,286.8503194000223,287.3347865000251,g,1.0,0.4776325999991968,,,,,,sub-049,1,stroop_test,59.4195070642492,
,,,,55.0,7.0,4.0,,,,,,,,,,,,,blau,red,r,0.0,r,1.0,0.4992283000028692,,,,,,,,,,4.0,7.0,55.0,4.0,287.3508023000031,,,,,,,,,,,,,,,,,287.3351154999982,288.54990790001466,289.3497573000204,289.33401790002245,,,,,,,,,,,,,,,,,,,,,,,,,,,,,,,,,,,289.33440230001,289.3497573000204,289.3497573000204,289.85179470002186,r,1.0,0.4992283000028692,,,,,,sub-049,1,stroop_test,59.4195070642492,
,,,,56.0,8.0,4.0,,,,,,,,,,,,,rot,yellow,g,0.0,g,1.0,0.5985441000084393,,,,,,,,,,4.0,8.0,56.0,3.0,289.8666580000136,,,,,,,,,,,,,,,,,289.8520751000033,290.2165545000171,291.01683860001503,291.0009190000128,,,,,,,,,,,,,,,,,,,,,,,,,,,,,,,,,,,291.0053243000002,291.01683860001503,291.01683860001503,291.61831340001663,g,1.0,0.5985441000084393,,,,,,sub-049,1,stroop_test,59.4195070642492,
,,,,57.0,9.0,4.0,,,,,,,,,,,,,gelb,red,r,0.0,r,1.0,0.5481798000109848,,,,,,,,,,4.0,9.0,57.0,8.0,291.6334986000147,,,,,,,,,,,,,,,,,291.61863110002014,291.9831974999979,292.78313880000496,292.76721400002134,,,,,,,,,,,,,,,,,,,,,,,,,,,,,,,,,,,292.7709680000262,292.78313880000496,292.78313880000496,293.33458240001346,r,1.0,0.5481798000109848,,,,,,sub-049,1,stroop_test,59.4195070642492,
,,,,58.0,10.0,4.0,,,,,,,,,,,,,rot,blue,b,0.0,b,1.0,0.5000240000081249,,,,,,,,,,4.0,10.0,58.0,2.0,293.3497012000007,,,,,,,,,,,,,,,,,293.3349572000152,294.1490333000256,294.94963180000195,294.9331253000128,,,,,,,,,,,,,,,,,,,,,,,,,,,,,,,,,,,294.936889900011,294.94963180000195,294.94963180000195,295.4510813000088,b,1.0,0.5000240000081249,,,,,,sub-049,1,stroop_test,59.4195070642492,
,,,,59.0,11.0,4.0,,,,,,,,,,,,,gelb,blue,b,0.0,b,1.0,0.6088224000122864,,,,,,,,,,4.0,11.0,59.0,9.0,295.46569330000784,,,,,,,,,,,,,,,,,295.45137429999886,295.56546930002514,296.3654727000103,296.3497028000129,,,,,,,,,,,,,,,,,,,,,,,,,,,,,,,,,,,296.3529223000223,296.3654727000103,296.3654727000103,296.98393139999826,b,1.0,0.6088224000122864,,,,,,sub-049,1,stroop_test,59.4195070642492,
,,,,60.0,0.0,5.0,,,,,,,,,,,,,rot,red,r,1.0,r,1.0,0.8636967999918852,,,,,,,,,,5.0,0.0,60.0,1.0,296.9993214000133,,,,,,,,,,,,,,,,,296.98421270001563,297.7995345000236,298.59908380001434,298.5831417000154,,,,,,,,,,,,,,,,,,,,,,,,,,,,,,,,,,,298.58564170001773,298.59908380001434,298.59908380001434,299.46687590001966,r,1.0,0.8636967999918852,,,,,,sub-049,1,stroop_test,59.4195070642492,
,,,,61.0,1.0,5.0,,,,,,,,,,,,,gelb,yellow,g,1.0,g,1.0,0.7020213000068907,,,,,,,,,,5.0,1.0,61.0,11.0,299.48222020000685,,,,,,,,,,,,,,,,,299.4672137000016,299.8316114000045,300.6317025000171,300.61565110000083,,,,,,,,,,,,,,,,,,,,,,,,,,,,,,,,,,,300.61894210000173,300.6317025000171,300.6317025000171,301.3501996000123,g,1.0,0.7020213000068907,,,,,,sub-049,1,stroop_test,59.4195070642492,
,,,,62.0,2.0,5.0,,,,,,,,,,,,,rot,blue,b,0.0,b,1.0,0.2882347000122536,,,,,,,,,,5.0,2.0,62.0,2.0,301.36537939999835,,,,,,,,,,,,,,,,,301.350467900018,302.5655917999975,303.3818808000069,303.3652978000173,,,,,,,,,,,,,,,,,,,,,,,,,,,,,,,,,,,303.3677001000033,303.3818808000069,303.3818808000069,303.68309380000574,b,1.0,0.2882347000122536,,,,,,sub-049,1,stroop_test,59.4195070642492,
,,,,63.0,3.0,5.0,,,,,,,,,,,,,blau,yellow,g,0.0,g,1.0,0.6141511000168975,,,,,,,,,,5.0,3.0,63.0,7.0,303.69855840000673,,,,,,,,,,,,,,,,,303.6834031000035,304.04865360000986,304.84832780002034,304.83190950000426,,,,,,,,,,,,,,,,,,,,,,,,,,,,,,,,,,,304.8344201,304.84832780002034,304.84832780002034,305.4664119000081,g,1.0,0.6141511000168975,,,,,,sub-049,1,stroop_test,59.4195070642492,
,,,,64.0,4.0,5.0,,,,,,,,,,,,,gelb,blue,b,0.0,r,0.0,0.6156221000128426,,,,,,,,,,5.0,4.0,64.0,9.0,305.48199120000936,,,,,,,,,,,,,,,,,305.46676440001465,305.58118300000206,306.3807582000154,306.3649254000047,,,,,,,,,,,,,,,,,,,,,,,,,,,,,,,,,,,306.367745800002,306.3807582000154,306.3807582000154,306.99908270000014,r,0.0,0.6156221000128426,,,,,,sub-049,1,stroop_test,59.4195070642492,
,,,,65.0,5.0,5.0,,,,,,,,,,,,,gelb,red,r,0.0,r,1.0,0.4406012000108603,,,,,,,,,,5.0,5.0,65.0,8.0,307.0141282000113,,,,,,,,,,,,,,,,,306.99940530001186,307.36411350002163,308.16473330001463,308.148416800017,,,,,,,,,,,,,,,,,,,,,,,,,,,,,,,,,,,308.1488507000031,308.16473330001463,308.16473330001463,308.6151885,r,1.0,0.4406012000108603,,,,,,sub-049,1,stroop_test,59.4195070642492,
,,,,66.0,6.0,5.0,,,,,,,,,,,,,blau,blue,b,1.0,b,1.0,0.6930239000066649,,,,,,,,,,5.0,6.0,66.0,6.0,308.6312873999996,,,,,,,,,,,,,,,,,308.6154538000119,309.81415130000096,310.6142000000109,310.5982291000255,,,,,,,,,,,,,,,,,,,,,,,,,,,,,,,,,,,310.60097520001,310.6142000000109,310.6142000000109,311.314938800002,b,1.0,0.6930239000066649,,,,,,sub-049,1,stroop_test,59.4195070642492,
,,,,67.0,7.0,5.0,,,,,,,,,,,,,gelb,yellow,g,1.0,g,1.0,0.8478432999982033,,,,,,,,,,5.0,7.0,67.0,10.0,311.3303962000064,,,,,,,,,,,,,,,,,311.31527940000524,312.1133539000002,312.913368700014,312.8973226000089,,,,,,,,,,,,,,,,,,,,,,,,,,,,,,,,,,,312.90109240001766,312.913368700014,312.913368700014,313.7648053000157,g,1.0,0.8478432999982033,,,,,,sub-049,1,stroop_test,59.4195070642492,
,,,,68.0,8.0,5.0,,,,,,,,,,,,,rot,red,r,1.0,r,1.0,0.5179696999839507,,,,,,,,,,5.0,8.0,68.0,0.0,313.7799856000056,,,,,,,,,,,,,,,,,313.76519800000824,314.1300169000169,314.93083870000555,314.91490480001085,,,,,,,,,,,,,,,,,,,,,,,,,,,,,,,,,,,314.91944019999937,314.93083870000555,314.93083870000555,315.4654528000101,r,1.0,0.5179696999839507,,,,,,sub-049,1,stroop_test,59.4195070642492,
,,,,69.0,9.0,5.0,,,,,,,,,,,,,blau,red,r,0.0,r,1.0,0.4579659999872092,,,,,,,,,,5.0,9.0,69.0,4.0,315.4808418000175,,,,,,,,,,,,,,,,,315.4659995000111,315.83120450002025,316.6466572000063,316.63099720000173,,,,,,,,,,,,,,,,,,,,,,,,,,,,,,,,,,,316.6345431000227,316.6466572000063,316.6466572000063,317.1146262999973,r,1.0,0.4579659999872092,,,,,,sub-049,1,stroop_test,59.4195070642492,
,,,,70.0,10.0,5.0,,,,,,,,,,,,,blau,blue,b,1.0,b,1.0,0.5619069999956992,,,,,,,,,,5.0,10.0,70.0,5.0,317.1311868000193,,,,,,,,,,,,,,,,,317.1150248000049,317.23054210000555,318.0294188000262,318.01388520002365,,,,,,,,,,,,,,,,,,,,,,,,,,,,,,,,,,,318.0142640999984,318.0294188000262,318.0294188000262,318.59738810002455,b,1.0,0.5619069999956992,,,,,,sub-049,1,stroop_test,59.4195070642492,
,,,,71.0,11.0,5.0,,,,,,,,,,,,,rot,yellow,g,0.0,g,1.0,0.7710255999991205,,,,,,,,,,5.0,11.0,71.0,3.0,318.6124301000091,,,,,,,,,,,,,,,,,318.5977446000033,318.7127400000172,319.51259420000133,319.4966533000116,,,,,,,,,,,,,,,,,,,,,,,,,,,,,,,,,,,319.4991560000053,319.51259420000133,319.51259420000133,320.29749560001073,g,1.0,0.7710255999991205,,,,,,sub-049,1,stroop_test,59.4195070642492,
,,,,72.0,0.0,6.0,,,,,,,,,,,,,gelb,yellow,g,1.0,g,1.0,0.6804949999786913,,,,,,,,,,6.0,0.0,72.0,11.0,320.3125042000029,,,,,,,,,,,,,,,,,320.2978982000204,320.6624980000197,321.4629558000015,321.4470163000224,,,,,,,,,,,,,,,,,,,,,,,,,,,,,,,,,,,321.45182320001186,321.4629558000015,321.4629558000015,322.14693810002063,g,1.0,0.6804949999786913,,,,,,sub-049,1,stroop_test,59.4195070642492,
,,,,73.0,1.0,6.0,,,,,,,,,,,,,rot,red,r,1.0,r,1.0,0.5010126999986824,,,,,,,,,,6.0,1.0,73.0,0.0,322.1621247000003,,,,,,,,,,,,,,,,,322.1472077000072,322.245418800012,323.0456059999997,323.0294905000192,,,,,,,,,,,,,,,,,,,,,,,,,,,,,,,,,,,323.0319524000224,323.0456059999997,323.0456059999997,323.56322150002234,r,1.0,0.5010126999986824,,,,,,sub-049,1,stroop_test,59.4195070642492,
,,,,74.0,2.0,6.0,,,,,,,,,,,,,rot,yellow,g,0.0,g,1.0,0.809615499980282,,,,,,,,,,6.0,2.0,74.0,3.0,323.57916750002187,,,,,,,,,,,,,,,,,323.56348920002347,324.77895550001995,325.5786253999977,325.56269780002185,,,,,,,,,,,,,,,,,,,,,,,,,,,,,,,,,,,325.5633585000178,325.5786253999977,325.5786253999977,326.39678590002586,g,1.0,0.809615499980282,,,,,,sub-049,1,stroop_test,59.4195070642492,
,,,,75.0,3.0,6.0,,,,,,,,,,,,,rot,red,r,1.0,r,1.0,0.4171791000117082,,,,,,,,,,6.0,3.0,75.0,1.0,326.4124224000261,,,,,,,,,,,,,,,,,326.397080499999,326.512171600014,327.31213690000004,327.2963581000222,,,,,,,,,,,,,,,,,,,,,,,,,,,,,,,,,,,327.29674810002325,327.31213690000004,327.31213690000004,327.7469506000052,r,1.0,0.4171791000117082,,,,,,sub-049,1,stroop_test,59.4195070642492,
,,,,76.0,4.0,6.0,,,,,,,,,,,,,blau,yellow,g,0.0,g,1.0,2.0139853000000585,,,,,,,,,,6.0,4.0,76.0,7.0,327.7622791000176,,,,,,,,,,,,,,,,,327.74753010002314,327.86199060000945,328.6620533000096,328.6456125000259,,,,,,,,,,,,,,,,,,,,,,,,,,,,,,,,,,,328.6481475000037,328.6620533000096,328.6620533000096,330.68008869999903,g,1.0,2.0139853000000585,,,,,,sub-049,1,stroop_test,59.4195070642492,
,,,,77.0,5.0,6.0,,,,,,,,,,,,,blau,red,r,0.0,r,1.0,0.5994890000147279,,,,,,,,,,6.0,5.0,77.0,4.0,330.6942778000084,,,,,,,,,,,,,,,,,330.68039449999924,331.8945069000183,332.694387000025,332.6777603000228,,,,,,,,,,,,,,,,,,,,,,,,,,,,,,,,,,,332.67817640001886,332.694387000025,332.694387000025,333.2968834000057,r,1.0,0.5994890000147279,,,,,,sub-049,1,stroop_test,59.4195070642492,
,,,,78.0,6.0,6.0,,,,,,,,,,,,,rot,blue,b,0.0,b,1.0,0.5838240000011865,,,,,,,,,,6.0,6.0,78.0,2.0,333.3116340000124,,,,,,,,,,,,,,,,,333.29746349999914,334.5109524000145,335.3116878000146,335.29492590000154,,,,,,,,,,,,,,,,,,,,,,,,,,,,,,,,,,,335.30090250002104,335.3116878000146,335.3116878000146,335.9121665999992,b,1.0,0.5838240000011865,,,,,,sub-049,1,stroop_test,59.4195070642492,
,,,,79.0,7.0,6.0,,,,,,,,,,,,,blau,blue,b,1.0,b,1.0,0.6089511000027414,,,,,,,,,,6.0,7.0,79.0,5.0,335.9274765000155,,,,,,,,,,,,,,,,,335.9125635000237,336.27738970000064,337.0776300000143,337.0618353000027,,,,,,,,,,,,,,,,,,,,,,,,,,,,,,,,,,,337.06498550000833,337.0776300000143,337.0776300000143,337.6949885000068,b,1.0,0.6089511000027414,,,,,,sub-049,1,stroop_test,59.4195070642492,
,,,,80.0,8.0,6.0,,,,,,,,,,,,,gelb,yellow,g,1.0,g,1.0,0.6858866999973543,,,,,,,,,,6.0,8.0,80.0,10.0,337.7100385000231,,,,,,,,,,,,,,,,,337.69535220001126,337.810403600015,338.6099443999992,338.5942761000188,,,,,,,,,,,,,,,,,,,,,,,,,,,,,,,,,,,338.5972064000089,338.6099443999992,338.6099443999992,339.3116807000188,g,1.0,0.6858866999973543,,,,,,sub-049,1,stroop_test,59.4195070642492,
,,,,81.0,9.0,6.0,,,,,,,,,,,,,gelb,red,r,0.0,r,1.0,0.6525045000016689,,,,,,,,,,6.0,9.0,81.0,8.0,339.3266174000164,,,,,,,,,,,,,,,,,339.3119694000052,340.1263909000263,340.92665360000683,340.9106763000018,,,,,,,,,,,,,,,,,,,,,,,,,,,,,,,,,,,340.91110850000405,340.92665360000683,340.92665360000683,341.5950346000027,r,1.0,0.6525045000016689,,,,,,sub-049,1,stroop_test,59.4195070642492,
,,,,82.0,10.0,6.0,,,,,,,,,,,,,gelb,blue,b,0.0,b,1.0,0.7309184000187088,,,,,,,,,,6.0,10.0,82.0,9.0,341.61038520000875,,,,,,,,,,,,,,,,,341.5953181000077,342.8099022000097,343.609658500005,343.5941129999992,,,,,,,,,,,,,,,,,,,,,,,,,,,,,,,,,,,343.5944931000122,343.609658500005,343.609658500005,344.344072900014,b,1.0,0.7309184000187088,,,,,,sub-049,1,stroop_test,59.4195070642492,
,,,,83.0,11.0,6.0,,,,,,,,,,,,,blau,blue,b,1.0,b,1.0,0.4988173000165261,,,,,,,,,,6.0,11.0,83.0,6.0,344.35979810002027,,,,,,,,,,,,,,,,,344.3444567999977,344.7092874000082,345.5090903000091,345.4934754999995,,,,,,,,,,,,,,,,,,,,,,,,,,,,,,,,,,,345.49617930001114,345.5090903000091,345.5090903000091,346.01095820000046,b,1.0,0.4988173000165261,,,,,,sub-049,1,stroop_test,59.4195070642492,
,,,,84.0,0.0,7.0,,,,,,,,,,,,,rot,red,r,1.0,b,0.0,0.4313530000217724,,,,,,,,,,7.0,0.0,84.0,0.0,346.0258956000034,,,,,,,,,,,,,,,,,346.01122580000083,346.37603320000926,347.17566160002025,347.1602906000044,,,,,,,,,,,,,,,,,,,,,,,,,,,,,,,,,,,347.16280440002447,347.17566160002025,347.17566160002025,347.6117757000029,b,0.0,0.4313530000217724,,,,,,sub-049,1,stroop_test,59.4195070642492,
,,,,85.0,1.0,7.0,,,,,,,,,,,,,rot,red,r,1.0,r,1.0,0.4590648000012152,,,,,,,,,,7.0,1.0,85.0,1.0,347.62666300000274,,,,,,,,,,,,,,,,,347.6123209000216,348.4259862000181,349.22539840001264,349.20995270001004,,,,,,,,,,,,,,,,,,,,,,,,,,,,,,,,,,,349.2103913000028,349.22539840001264,349.22539840001264,349.69369070001994,r,1.0,0.4590648000012152,,,,,,sub-049,1,stroop_test,59.4195070642492,
,,,,86.0,2.0,7.0,,,,,,,,,,,,,gelb,yellow,g,1.0,g,1.0,0.5665615999896545,,,,,,,,,,7.0,2.0,86.0,10.0,349.70867770002224,,,,,,,,,,,,,,,,,349.6939964000194,350.9084686000133,351.7091830999998,351.69318930001464,,,,,,,,,,,,,,,,,,,,,,,,,,,,,,,,,,,351.6961039000016,351.7091830999998,351.7091830999998,352.2773223000113,g,1.0,0.5665615999896545,,,,,,sub-049,1,stroop_test,59.4195070642492,
,,,,87.0,3.0,7.0,,,,,,,,,,,,,gelb,blue,b,0.0,b,1.0,1.0573433999961708,,,,,,,,,,7.0,3.0,87.0,9.0,352.2917541000061,,,,,,,,,,,,,,,,,352.2778555999976,352.3912554999988,353.19181879999815,353.176309500006,,,,,,,,,,,,,,,,,,,,,,,,,,,,,,,,,,,353.1767028000031,353.19181879999815,353.19181879999815,354.2598363000143,b,1.0,1.0573433999961708,,,,,,sub-049,1,stroop_test,59.4195070642492,
,,,,88.0,4.0,7.0,,,,,,,,,,,,,blau,blue,b,1.0,b,1.0,0.7474870000150986,,,,,,,,,,7.0,4.0,88.0,5.0,354.27471060000244,,,,,,,,,,,,,,,,,354.2601016999979,355.07521400001133,355.874772900017,355.85902200001874,,,,,,,,,,,,,,,,,,,,,,,,,,,,,,,,,,,355.86335410000174,355.874772900017,355.874772900017,356.6257281000144,b,1.0,0.7474870000150986,,,,,,sub-049,1,stroop_test,59.4195070642492,
,,,,89.0,5.0,7.0,,,,,,,,,,,,,rot,blue,b,0.0,b,1.0,0.4216090000118129,,,,,,,,,,7.0,5.0,89.0,2.0,356.64118220002274,,,,,,,,,,,,,,,,,356.6260802000179,357.8406993000244,358.64072470000247,358.6247929000237,,,,,,,,,,,,,,,,,,,,,,,,,,,,,,,,,,,358.62759230000665,358.64072470000247,358.64072470000247,359.0766113999998,b,1.0,0.4216090000118129,,,,,,sub-049,1,stroop_test,59.4195070642492,
,,,,90.0,6.0,7.0,,,,,,,,,,,,,rot,yellow,g,0.0,g,1.0,0.717152500001248,,,,,,,,,,7.0,6.0,90.0,3.0,359.0917385000212,,,,,,,,,,,,,,,,,359.0769271000172,359.4412207000132,360.24154990000534,360.224999500002,,,,,,,,,,,,,,,,,,,,,,,,,,,,,,,,,,,360.22545060000266,360.24154990000534,360.24154990000534,360.9750779000169,g,1.0,0.717152500001248,,,,,,sub-049,1,stroop_test,59.4195070642492,
,,,,91.0,7.0,7.0,,,,,,,,,,,,,blau,yellow,g,0.0,g,1.0,0.517332899995381,,,,,,,,,,7.0,7.0,91.0,7.0,360.9910422000103,,,,,,,,,,,,,,,,,360.975345200015,361.34024720001617,362.1403578000027,362.12488600000506,,,,,,,,,,,,,,,,,,,,,,,,,,,,,,,,,,,362.1273392000003,362.1403578000027,362.1403578000027,362.6592713000136,g,1.0,0.517332899995381,,,,,,sub-049,1,stroop_test,59.4195070642492,
,,,,92.0,8.0,7.0,,,,,,,,,,,,,gelb,yellow,g,1.0,g,1.0,0.3738000000012107,,,,,,,,,,7.0,8.0,92.0,11.0,362.6740928000072,,,,,,,,,,,,,,,,,362.6597873000137,362.7739692000032,363.5734554000082,363.55801610002527,,,,,,,,,,,,,,,,,,,,,,,,,,,,,,,,,,,363.5612835000211,363.5734554000082,363.5734554000082,363.9586775000207,g,1.0,0.3738000000012107,,,,,,sub-049,1,stroop_test,59.4195070642492,
,,,,93.0,9.0,7.0,,,,,,,,,,,,,blau,blue,b,1.0,b,1.0,0.559049999981653,,,,,,,,,,7.0,9.0,93.0,6.0,363.9736108000216,,,,,,,,,,,,,,,,,363.9593473999994,364.7733247000142,365.5731532000064,365.558007500018,,,,,,,,,,,,,,,,,,,,,,,,,,,,,,,,,,,365.56056730001,365.5731532000064,365.5731532000064,366.1409101000172,b,1.0,0.559049999981653,,,,,,sub-049,1,stroop_test,59.4195070642492,
,,,,94.0,10.0,7.0,,,,,,,,,,,,,gelb,red,r,0.0,r,1.0,0.4124139999912586,,,,,,,,,,7.0,10.0,94.0,8.0,366.1574264000228,,,,,,,,,,,,,,,,,366.1412666000251,366.4898653000128,367.289614600013,367.27455580001697,,,,,,,,,,,,,,,,,,,,,,,,,,,,,,,,,,,367.2775100000144,367.289614600013,367.289614600013,367.7081541000225,r,1.0,0.4124139999912586,,,,,,sub-049,1,stroop_test,59.4195070642492,
,,,,95.0,11.0,7.0,,,,,,,,,,,,,blau,red,r,0.0,r,1.0,0.8524225000001024,,,,,,,,,,7.0,11.0,95.0,4.0,367.7232578000112,,,,,,,,,,,,,,,,,367.7084342000017,368.07347790000495,368.8732446000213,368.8574839000066,,,,,,,,,,,,,,,,,,,,,,,,,,,,,,,,,,,368.85995160002494,368.8732446000213,368.8732446000213,369.7411694000184,r,1.0,0.8524225000001024,,,,,,sub-049,1,stroop_test,59.4195070642492,
,,,,96.0,0.0,8.0,,,,,,,,,,,,,rot,red,r,1.0,r,1.0,0.6353143000160344,,,,,,,,,,8.0,0.0,96.0,0.0,369.7567859000119,,,,,,,,,,,,,,,,,369.7414677000197,369.8565770999994,370.6558036000061,370.6399130000209,,,,,,,,,,,,,,,,,,,,,,,,,,,,,,,,,,,370.6424520000001,370.6558036000061,370.6558036000061,371.30796130001545,r,1.0,0.6353143000160344,,,,,,sub-049,1,stroop_test,59.4195070642492,
,,,,97.0,1.0,8.0,,,,,,,,,,,,,blau,yellow,g,0.0,g,1.0,0.799542000022484,,,,,,,,,,8.0,1.0,97.0,7.0,371.32316690002335,,,,,,,,,,,,,,,,,371.308288900007,372.5226385999995,373.32281370001147,373.3071761000028,,,,,,,,,,,,,,,,,,,,,,,,,,,,,,,,,,,373.31115630001295,373.32281370001147,373.32281370001147,374.1237066000176,g,1.0,0.799542000022484,,,,,,sub-049,1,stroop_test,59.4195070642492,
,,,,98.0,2.0,8.0,,,,,,,,,,,,,rot,red,r,1.0,g,0.0,0.3981481000082567,,,,,,,,,,8.0,2.0,98.0,1.0,374.1392281000153,,,,,,,,,,,,,,,,,374.1241977000027,374.2389218000171,375.0383989000111,375.0228091000172,,,,,,,,,,,,,,,,,,,,,,,,,,,,,,,,,,,375.0252581000095,375.0383989000111,375.0383989000111,375.4399892000074,g,0.0,0.3981481000082567,,,,,,sub-049,1,stroop_test,59.4195070642492,
,,,,99.0,3.0,8.0,,,,,,,,,,,,,blau,blue,b,1.0,b,1.0,0.6350544999877457,,,,,,,,,,8.0,3.0,99.0,5.0,375.4551674000104,,,,,,,,,,,,,,,,,375.4403038000164,375.5566840000101,376.3715696000145,376.3557427000196,,,,,,,,,,,,,,,,,,,,,,,,,,,,,,,,,,,376.35835780002526,376.3715696000145,376.3715696000145,377.0228189000045,b,1.0,0.6350544999877457,,,,,,sub-049,1,stroop_test,59.4195070642492,
,,,,100.0,4.0,8.0,,,,,,,,,,,,,blau,blue,b,1.0,b,1.0,0.4906266000180039,,,,,,,,,,8.0,4.0,100.0,6.0,377.0388020000246,,,,,,,,,,,,,,,,,377.0231111000176,377.3717086000252,378.172058199998,378.1563951999997,,,,,,,,,,,,,,,,,,,,,,,,,,,,,,,,,,,378.15708450000966,378.172058199998,378.172058199998,378.6731006000191,b,1.0,0.4906266000180039,,,,,,sub-049,1,stroop_test,59.4195070642492,
,,,,101.0,5.0,8.0,,,,,,,,,,,,,gelb,blue,b,0.0,b,1.0,0.4848943999968469,,,,,,,,,,8.0,5.0,101.0,9.0,378.6883052000194,,,,,,,,,,,,,,,,,378.6734142000205,379.0392903000175,379.83888060000027,379.8226557000016,,,,,,,,,,,,,,,,,,,,,,,,,,,,,,,,,,,379.825522500003,379.83888060000027,379.83888060000027,380.3398074000143,b,1.0,0.4848943999968469,,,,,,sub-049,1,stroop_test,59.4195070642492,
,,,,102.0,6.0,8.0,,,,,,,,,,,,,gelb,red,r,0.0,r,1.0,0.8430659000005107,,,,,,,,,,8.0,6.0,102.0,8.0,380.35460530000273,,,,,,,,,,,,,,,,,380.340102200018,381.5547628000204,382.3547146000201,382.33827830001246,,,,,,,,,,,,,,,,,,,,,,,,,,,,,,,,,,,382.33865220000735,382.3547146000201,382.3547146000201,383.205415000004,r,1.0,0.8430659000005107,,,,,,sub-049,1,stroop_test,59.4195070642492,
,,,,103.0,7.0,8.0,,,,,,,,,,,,,rot,yellow,g,0.0,g,1.0,0.7142901999759488,,,,,,,,,,8.0,7.0,103.0,3.0,383.22128440000233,,,,,,,,,,,,,,,,,383.20576230000006,383.30455339999753,384.1045468000229,384.0891324999975,,,,,,,,,,,,,,,,,,,,,,,,,,,,,,,,,,,384.0917897000036,384.1045468000229,384.1045468000229,384.8225608000066,g,1.0,0.7142901999759488,,,,,,sub-049,1,stroop_test,59.4195070642492,
,,,,104.0,8.0,8.0,,,,,,,,,,,,,gelb,yellow,g,1.0,g,1.0,0.518878799979575,,,,,,,,,,8.0,8.0,104.0,10.0,384.83749160001753,,,,,,,,,,,,,,,,,384.8228775000025,384.9375016000122,385.7373102999991,385.7218513000116,,,,,,,,,,,,,,,,,,,,,,,,,,,,,,,,,,,385.7246433000255,385.7373102999991,385.7373102999991,386.2723562000028,g,1.0,0.518878799979575,,,,,,sub-049,1,stroop_test,59.4195070642492,
,,,,105.0,9.0,8.0,,,,,,,,,,,,,gelb,yellow,g,1.0,g,1.0,0.3311377000063658,,,,,,,,,,8.0,9.0,105.0,11.0,386.28759330001776,,,,,,,,,,,,,,,,,386.2726230000262,386.3875145000056,387.1885791000095,387.1717032000015,,,,,,,,,,,,,,,,,,,,,,,,,,,,,,,,,,,387.17248700000346,387.1885791000095,387.1885791000095,387.5217930000217,g,1.0,0.3311377000063658,,,,,,sub-049,1,stroop_test,59.4195070642492,
,,,,106.0,10.0,8.0,,,,,,,,,,,,,rot,blue,b,0.0,b,1.0,1.2133502000069711,,,,,,,,,,8.0,10.0,106.0,2.0,387.5373843999987,,,,,,,,,,,,,,,,,387.52206170000136,387.6371788000106,388.4376818000164,388.4212731000152,,,,,,,,,,,,,,,,,,,,,,,,,,,,,,,,,,,388.426019800012,388.4376818000164,388.4376818000164,389.6555230000231,b,1.0,1.2133502000069711,,,,,,sub-049,1,stroop_test,59.4195070642492,
,,,,107.0,11.0,8.0,,,,,,,,,,,,,blau,red,r,0.0,r,1.0,0.758639099978609,,,,,,,,,,8.0,11.0,107.0,4.0,389.6705998000107,,,,,,,,,,,,,,,,,389.6559976999997,389.770079400012,390.5699562000227,390.5540585000126,,,,,,,,,,,,,,,,,,,,,,,,,,,,,,,,,,,390.55664390002494,390.5699562000227,390.5699562000227,391.3382678000198,r,1.0,0.758639099978609,,,,,,sub-049,1,stroop_test,59.4195070642492,
,,,,108.0,0.0,9.0,,,,,,,,,,,,,rot,yellow,g,0.0,g,1.0,0.6937042999779806,,,,,,,,,,9.0,0.0,108.0,3.0,391.3532137000002,,,,,,,,,,,,,,,,,391.3385328000004,392.1536240999994,392.9535348000063,392.93715110002086,,,,,,,,,,,,,,,,,,,,,,,,,,,,,,,,,,,392.9398111000192,392.9535348000063,392.9535348000063,393.65438910000375,g,1.0,0.6937042999779806,,,,,,sub-049,1,stroop_test,59.4195070642492,
,,,,109.0,1.0,9.0,,,,,,,,,,,,,blau,blue,b,1.0,b,1.0,0.735475099994801,,,,,,,,,,9.0,1.0,109.0,6.0,393.6702479000087,,,,,,,,,,,,,,,,,393.6547471000231,393.76969340001233,394.5699224999989,394.5539436000108,,,,,,,,,,,,,,,,,,,,,,,,,,,,,,,,,,,394.5567866000056,394.5699224999989,394.5699224999989,395.3214097000018,b,1.0,0.735475099994801,,,,,,sub-049,1,stroop_test,59.4195070642492,
,,,,110.0,2.0,9.0,,,,,,,,,,,,,rot,blue,b,0.0,b,1.0,0.3584722999949008,,,,,,,,,,9.0,2.0,110.0,2.0,395.3357828000153,,,,,,,,,,,,,,,,,395.32175190001726,396.1357843000151,396.9362841999973,396.91994300001534,,,,,,,,,,,,,,,,,,,,,,,,,,,,,,,,,,,396.9225091000262,396.9362841999973,396.9362841999973,397.3041969000187,b,1.0,0.3584722999949008,,,,,,sub-049,1,stroop_test,59.4195070642492,
,,,,111.0,3.0,9.0,,,,,,,,,,,,,gelb,blue,b,0.0,b,1.0,0.3667698999925051,,,,,,,,,,9.0,3.0,111.0,9.0,397.3190445000073,,,,,,,,,,,,,,,,,397.30453080000007,397.4027062000241,398.20293210001546,398.186629200005,,,,,,,,,,,,,,,,,,,,,,,,,,,,,,,,,,,398.1918833000236,398.20293210001546,398.20293210001546,398.58689230002346,b,1.0,0.3667698999925051,,,,,,sub-049,1,stroop_test,59.4195070642492,
,,,,112.0,4.0,9.0,,,,,,,,,,,,,gelb,yellow,g,1.0,g,1.0,0.605205699976068,,,,,,,,,,9.0,4.0,112.0,10.0,398.6023885000032,,,,,,,,,,,,,,,,,398.5871861000196,398.6859148000076,399.48642890001065,399.4702650000109,,,,,,,,,,,,,,,,,,,,,,,,,,,,,,,,,,,399.4709104000067,399.48642890001065,399.48642890001065,400.10405030002585,g,1.0,0.605205699976068,,,,,,sub-049,1,stroop_test,59.4195070642492,
,,,,113.0,5.0,9.0,,,,,,,,,,,,,gelb,red,r,0.0,r,1.0,0.4144591999938711,,,,,,,,,,9.0,5.0,113.0,8.0,400.11893220001366,,,,,,,,,,,,,,,,,400.10434140000143,401.31919310000376,402.1183458000014,402.1025003000104,,,,,,,,,,,,,,,,,,,,,,,,,,,,,,,,,,,402.10294730000896,402.1183458000014,402.1183458000014,402.5369134000212,r,1.0,0.4144591999938711,,,,,,sub-049,1,stroop_test,59.4195070642492,
,,,,114.0,6.0,9.0,,,,,,,,,,,,,blau,blue,b,1.0,b,1.0,1.4664978999935556,,,,,,,,,,9.0,6.0,114.0,5.0,402.55218240001705,,,,,,,,,,,,,,,,,402.53741200000513,403.7516248000029,404.55213190001086,404.53625650002505,,,,,,,,,,,,,,,,,,,,,,,,,,,,,,,,,,,404.5388865999994,404.55213190001086,404.55213190001086,406.0200868000102,b,1.0,1.4664978999935556,,,,,,sub-049,1,stroop_test,59.4195070642492,
,,,,115.0,7.0,9.0,,,,,,,,,,,,,gelb,yellow,g,1.0,g,1.0,1.121245899994392,,,,,,,,,,9.0,7.0,115.0,11.0,406.03519670001697,,,,,,,,,,,,,,,,,406.02054009999847,406.3844623000186,407.1850759000226,407.1691350000037,,,,,,,,,,,,,,,,,,,,,,,,,,,,,,,,,,,407.17436950001866,407.1850759000226,407.1850759000226,408.319571,g,1.0,1.121245899994392,,,,,,sub-049,1,stroop_test,59.4195070642492,
,,,,116.0,8.0,9.0,,,,,,,,,,,,,blau,yellow,g,0.0,g,1.0,0.6762238000228535,,,,,,,,,,9.0,8.0,116.0,7.0,408.3344679000147,,,,,,,,,,,,,,,,,408.3199076000019,409.1344181000022,409.93438350001816,409.9181648000085,,,,,,,,,,,,,,,,,,,,,,,,,,,,,,,,,,,409.9209618000023,409.93438350001816,409.93438350001816,410.6198529000103,g,1.0,0.6762238000228535,,,,,,sub-049,1,stroop_test,59.4195070642492,
,,,,117.0,9.0,9.0,,,,,,,,,,,,,rot,red,r,1.0,r,1.0,1.200896599999396,,,,,,,,,,9.0,9.0,117.0,0.0,410.6349093000172,,,,,,,,,,,,,,,,,410.620367000025,410.7340333000175,411.53428340001847,411.5185343000048,,,,,,,,,,,,,,,,,,,,,,,,,,,,,,,,,,,411.5209337999986,411.53428340001847,411.53428340001847,412.75232530001085,r,1.0,1.200896599999396,,,,,,sub-049,1,stroop_test,59.4195070642492,
,,,,118.0,10.0,9.0,,,,,,,,,,,,,rot,red,r,1.0,r,1.0,0.5787551999965217,,,,,,,,,,9.0,10.0,118.0,1.0,412.76744290001807,,,,,,,,,,,,,,,,,412.7525894000137,413.5674873000244,414.3673087000207,414.3513508000178,,,,,,,,,,,,,,,,,,,,,,,,,,,,,,,,,,,414.3519244000199,414.3673087000207,414.3673087000207,414.952251300012,r,1.0,0.5787551999965217,,,,,,sub-049,1,stroop_test,59.4195070642492,
,,,,119.0,11.0,9.0,,,,,,,,,,,,,blau,red,r,0.0,r,1.0,0.865186300012283,,,,,,,,,,9.0,11.0,119.0,4.0,414.9667125999986,,,,,,,,,,,,,,,,,414.95257069999934,416.1673663000111,416.966562000016,416.951194400026,,,,,,,,,,,,,,,,,,,,,,,,,,,,,,,,,,,416.9537149000098,416.966562000016,416.966562000016,417.8345927000046,r,1.0,0.865186300012283,,,,,,sub-049,1,stroop_test,59.4195070642492,
,,,,,,,,,,,,,,,,,,,,,,,,,,,,,,,,,,,,,,,,,,,,,,,,,,,,,,,,,,,,,,,,,,,,,,,,,,,,,,,,,,,,,,,,,,,,,,,,,,,,,,417.8347507000144,417.84995020000497,422.8494330000249,422.833598600002,sub-049,1,stroop_test,59.4195070642492,
