direction,corrAns,randomInstr,practice_trials.thisRepN,practice_trials.thisTrialN,practice_trials.thisN,practice_trials.thisIndex,instr_trials.thisRepN,instr_trials.thisTrialN,instr_trials.thisN,instr_trials.thisIndex,test_trials.thisRepN,test_trials.thisTrialN,test_trials.thisN,test_trials.thisIndex,thisRow.t,notes,general_instruction.started,textGeneralInstr.started,respGeneralInstr.started,general_instruction.stopped,respGeneralInstr.keys,respGeneralInstr.rt,respGeneralInstr.duration,ITI.started,fixcross.started,fixcross.stopped,ITI.stopped,dots.started,backgroundDots.started,stimulusDots.started,respDots.started,dots.stopped,respDots.keys,respDots.corr,respDots.rt,respDots.duration,feedback.started,textFeedback.started,feedback.stopped,textFeedback.stopped,stimulusDots.stopped,info.started,textInfo.started,keyRespInfo.started,info.stopped,keyRespInfo.keys,keyRespInfo.rt,keyRespInfo.duration,test_instruction.started,textTestInstr.started,respTestInstr.started,test_instruction.stopped,respTestInstr.keys,respTestInstr.rt,respTestInstr.duration,random_instruction.started,textRandomInstr.started,respRandomInstr.started,random_instruction.stopped,respRandomInstr.keys,respRandomInstr.rt,respRandomInstr.duration,goodbye.started,textGoodbye.started,goodbye.stopped,participant,session,expName,frameRate,Unnamed: 73
,,,,,,,,,,,,,,,,,0.007592299953103,0.0135286999866366,0.0135286999866366,16.602571399882436,space,49.51348350010812,,,,,,,,,,,,,,,,,,,,,,,,,,,,,,,,,,,,,,,,,,,,sub-162,1.0,random_dot,119.92492681508163,
right,right,,0.0,0.0,0.0,1.0,,,,,,,,,16.61468629981391,,,,,,,,,16.61084320000373,17.809207199839875,18.609935299959037,18.601043399889026,18.60105779999867,18.609935299959037,18.609935299959037,18.609935299959037,22.384985499782488,left,0.0,36.6975389001891,,22.38555769994855,22.396584199974317,22.89177989983,,,,,,,,,,,,,,,,,,,,,,,,,,,sub-162,1.0,random_dot,119.92492681508163,
left,left,,0.0,1.0,1.0,0.0,,,,,,,,,22.900017199805006,,,,,,,,,22.89208529982716,23.24151029996574,24.042626699898392,24.033634799998254,24.03364909999073,24.042626699898392,24.042626699898392,24.042626699898392,26.417604399845004,right,0.0,35.29706580005586,,26.418007100000978,26.424433199921623,26.91640739981085,26.924271899973974,,,,,,,,,,,,,,,,,,,,,,,,,,sub-162,1.0,random_dot,119.92492681508163,
left,left,,1.0,0.0,2.0,0.0,,,,,,,,,26.924271899973974,,,,,,,,,26.916690999874845,28.12402339978144,28.924988699844107,28.91605619993061,28.91607469995506,28.924988699844107,28.924988699844107,28.924988699844107,33.07486519985832,left,1.0,37.07851520017721,,33.07526489999145,33.08306899992749,33.58175249979831,,,,,,,,,,,,,,,,,,,,,,,,,,,sub-162,1.0,random_dot,119.92492681508163,
right,right,,1.0,1.0,3.0,1.0,,,,,,,,,33.590038899797946,,,,,,,,,33.58206159994006,33.68148799985647,34.48231110000052,34.47348719998263,34.473504199879244,34.48231110000052,34.48231110000052,34.48231110000052,37.86582919978537,left,0.0,36.30772410007194,,37.8662239999976,37.87270999979228,38.36467669997364,38.372613799991086,,,,,,,,,,,,,,,,,,,,,,,,,,sub-162,1.0,random_dot,119.92492681508163,
right,right,,2.0,0.0,4.0,1.0,,,,,,,,,38.372613799991086,,,,,,,,,38.36496469983831,39.17232169979252,39.97332329978235,39.96419639978558,39.96421039989218,39.97332329978235,39.97332329978235,39.97332329978235,42.97353519988246,right,1.0,35.925282899988815,,42.97409369982779,42.9810634998139,43.48013119981624,,,,,,,,,,,,,,,,,,,,,,,,,,,sub-162,1.0,random_dot,119.92492681508163,
left,left,,2.0,1.0,5.0,0.0,,,,,,,,,43.488087699981406,,,,,,,,,43.48053919989616,43.579980299808085,44.38076319987886,44.37194149987772,44.3719616997987,44.38076319987886,44.38076319987886,44.38076319987886,51.87205499992706,right,0.0,40.41313990019262,,51.87247049994767,51.87860199995339,52.37087059998885,52.37864639982581,49.37149059982039,,,,,,,,,,,,,,,,,,,,,,,,,sub-162,1.0,random_dot,119.92492681508163,
left,left,,3.0,0.0,6.0,0.0,,,,,,,,,52.37864639982581,,,,,,,,,52.37115899985656,53.57828799984418,54.37906249985099,54.37025899998844,54.37027399986982,54.37906249985099,54.37906249985099,54.37906249985099,56.52970079984516,left,1.0,35.075060500064865,,56.53010439989157,56.53613219992258,57.02814639988355,57.036014899844304,,,,,,,,,,,,,,,,,,,,,,,,,,sub-162,1.0,random_dot,119.92492681508163,
right,right,,3.0,1.0,7.0,1.0,,,,,,,,,57.036014899844304,,,,,,,,,57.02842849981971,57.8358649997972,58.63677119999193,58.62820039992221,58.62821869994514,58.63677119999193,58.63677119999193,58.63677119999193,60.5870970999822,left,0.0,34.872547399951145,,60.58752329996787,60.594001799821854,61.08592939982191,61.093771799933165,,,,,,,,,,,,,,,,,,,,,,,,,,sub-162,1.0,random_dot,119.92492681508163,
left,left,,4.0,0.0,8.0,0.0,,,,,,,,,61.093771799933165,,,,,,,,,61.08619679999538,61.44371849996969,62.24455889989622,62.235750099876896,62.2357681998983,62.24455889989622,62.24455889989622,62.24455889989622,63.57831169990823,right,0.0,34.25601950008422,,63.5787166999653,63.585179099813104,64.07702520000748,64.08488969993778,,,,,,,,,,,,,,,,,,,,,,,,,,sub-162,1.0,random_dot,119.92492681508163,
right,right,,4.0,1.0,9.0,1.0,,,,,,,,,64.08488969993778,,,,,,,,,64.07729329983704,65.28469070000574,66.08549699978903,66.0767029998824,66.07671949989162,66.08549699978903,66.08549699978903,66.08549699978903,69.22746109985746,left,0.0,36.063974200049415,,69.22787810000591,69.23413449991494,69.72598499991,69.73381409980357,,,,,,,,,,,,,,,,,,,,,,,,,,sub-162,1.0,random_dot,119.92492681508163,
left,left,,5.0,0.0,10.0,0.0,,,,,,,,,69.73381409980357,,,,,,,,,69.72627589991316,70.93385639996268,71.73464239994064,71.72601230000146,71.72602579998784,71.73464239994064,71.73464239994064,71.73464239994064,74.37677289987914,right,0.0,35.56414520018734,,74.37717889994383,74.38353269989602,74.8754700999707,74.88318199990317,,,,,,,,,,,,,,,,,,,,,,,,,,sub-162,1.0,random_dot,119.92492681508163,
right,right,,5.0,1.0,11.0,1.0,,,,,,,,,74.88318199990317,,,,,,,,,74.87575769983232,75.23310109996237,76.03394789993763,76.02507519978099,76.02508890000172,76.03394789993763,76.03394789993763,76.03394789993763,79.32587469997816,left,0.0,36.21391350030899,,79.32628839998506,79.33266349998303,79.8244649998378,79.83254529978149,,,,,,,,,,,,,,,,,,,,,,,,,,sub-162,1.0,random_dot,119.92492681508163,
right,right,,6.0,0.0,12.0,1.0,,,,,,,,,79.83254529978149,,,,,,,,,79.824731499888,80.18233349989168,80.98320719995536,80.97432099981233,80.97433769982308,80.98320719995536,80.98320719995536,80.98320719995536,86.94974919990636,right,1.0,38.89547200012021,,86.95014510001056,86.95624759979546,87.44855430000462,87.45627709990367,85.97407349990681,,,,,,,,,,,,,,,,,,,,,,,,,sub-162,1.0,random_dot,119.92492681508163,
left,left,,6.0,1.0,13.0,0.0,,,,,,,,,87.45627709990367,,,,,,,,,87.44882999989204,88.65578609984368,89.45689589995891,89.44801609986462,89.44802949996665,89.45689589995891,89.45689589995891,89.45689589995891,92.31553179980256,right,0.0,35.786521000089124,,92.31593779986724,92.32202429999596,92.8143275999464,92.82209149980918,,,,,,,,,,,,,,,,,,,,,,,,,,sub-162,1.0,random_dot,119.92492681508163,
left,left,,7.0,0.0,14.0,0.0,,,,,,,,,92.82209149980918,,,,,,,,,92.81462419987656,92.92179359984584,93.72302539995871,93.7143525998108,93.71436579991132,93.72302539995871,93.72302539995871,93.72302539995871,96.6979801999405,left,1.0,35.900593700120226,,96.69838580000214,96.70483900001273,97.19684919994324,97.2045996999368,,,,,,,,,,,,,,,,,,,,,,,,,,sub-162,1.0,random_dot,119.92492681508163,
right,right,,7.0,1.0,15.0,1.0,,,,,,,,,97.2045996999368,,,,,,,,,97.1971426999662,98.40435959980825,99.20541719999164,99.1963809998706,99.19639379996806,99.20541719999164,99.20541719999164,99.20541719999164,103.03057449986228,left,0.0,36.74999080016278,,103.03098069992848,103.0369690998923,103.52916129981168,103.53706060000697,,,,,,,,,,,,,,,,,,,,,,,,,,sub-162,1.0,random_dot,119.92492681508163,
left,left,,8.0,0.0,16.0,0.0,,,,,,,,,103.53706060000697,,,,,,,,,103.52944519999436,104.73665039986372,105.53775149979629,105.5286965998821,105.52871179999784,105.53775149979629,105.53775149979629,105.53775149979629,107.09639869979584,left,1.0,34.48629079991952,,107.09681319980882,107.103178499965,107.59524829988368,107.60294739995152,,,,,,,,,,,,,,,,,,,,,,,,,,sub-162,1.0,random_dot,119.92492681508163,
right,right,,8.0,1.0,17.0,1.0,,,,,,,,,107.60294739995152,,,,,,,,,107.5955565997865,108.80271689989604,109.60347049986012,109.59473279980013,109.594749199925,109.60347049986012,109.60347049986012,109.60347049986012,112.09579399996436,left,0.0,35.41928429994732,,112.09618589980528,112.10214909981003,112.59447529981844,112.6021722999867,,,,,,,,,,,,,,,,,,,,,,,,,,sub-162,1.0,random_dot,119.92492681508163,
left,left,,9.0,0.0,18.0,0.0,,,,,,,,,112.6021722999867,,,,,,,,,112.59476869995706,113.40214329981244,114.20272099995054,114.19394099991769,114.1939572999254,114.20272099995054,114.20272099995054,114.20272099995054,116.90336190001108,right,0.0,35.62218420021236,,116.90376189979725,116.90979279996829,117.40195399988444,117.409742299933,,,,,,,,,,,,,,,,,,,,,,,,,,sub-162,1.0,random_dot,119.92492681508163,
right,right,,9.0,1.0,19.0,1.0,,,,,,,,,117.409742299933,,,,,,,,,117.40224129986018,118.20963549986482,119.0102641999256,119.00166339986026,119.00167799997143,119.0102641999256,119.0102641999256,119.0102641999256,122.2189342000056,right,1.0,36.129979000194,,122.21932569984348,122.22563509992324,122.71772590000182,122.72582549997604,,,,,,,,,,,,,,,,,,,,,,,,,,sub-162,1.0,random_dot,119.92492681508163,
,,,,,,,,,,,,,,,,,,,,,,,,,,,,,,,,,,,,,,,,,,122.71777119999751,122.72582549997604,122.72582549997604,126.800933299819,space,36.998497900087386,,,,,,,,,,,,,,,,,,,sub-162,1.0,random_dot,119.92492681508163,
,,,,,,,,,,,,,,,,,,,,,,,,,,,,,,,,,,,,,,,,,,,,,,,,,126.80095689999872,126.80857849982569,126.80857849982569,133.07502629980445,space,39.19420580007136,,,,,,,,,,,,sub-162,1.0,random_dot,119.92492681508163,
left,left,speed,,,,,0.0,0.0,0.0,1.0,0.0,0.0,0.0,0.0,135.6070624999702,,,,,,,,,135.60403059981763,135.70664779981598,136.50768199982122,136.49894999992102,136.49896699981764,136.50768199982122,136.50768199982122,136.50768199982122,137.54984009987675,left,1.0,33.966477300040424,,,,,,,,,,,,,,,,,,,,,133.0776576998178,133.09433709993027,133.09433709993027,135.59948819992132,space,35.43362960009836,,,,,sub-162,1.0,random_dot,119.92492681508163,
right,right,speed,,,,,0.0,0.0,0.0,1.0,0.0,1.0,1.0,1.0,137.55630879988894,,,,,,,,,137.55081679997966,137.9064988999162,138.7072580999229,138.69837199989706,138.69838789990172,138.7072580999229,138.7072580999229,138.7072580999229,140.19922479987144,left,0.0,34.41638390021399,,,,,,,,,,,,,,,,,,,,,,,,,,,,,,,sub-162,1.0,random_dot,119.92492681508163,
right,right,speed,,,,,0.0,0.0,0.0,1.0,1.0,0.0,2.0,1.0,140.20592229999602,,,,,,,,,140.19998749997467,141.0057454998605,141.80669969995506,141.79781349981204,141.79782789992169,141.80669969995506,141.80669969995506,141.80669969995506,143.07389649981633,right,1.0,34.18827540008351,,,,,,,,,,,,,,,,,,,,,,,,,,,,,,,sub-162,1.0,random_dot,119.92492681508163,
left,left,speed,,,,,0.0,0.0,0.0,1.0,1.0,1.0,3.0,0.0,143.0806177998893,,,,,,,,,143.07462299987674,143.43053469993174,144.23134089983068,144.22271849983372,144.2227356999647,144.23134089983068,144.23134089983068,144.23134089983068,147.22334199980833,left,1.0,35.91629100008868,,,,,,,,,,,,,,,,,,,,,,,,,,,,,,,sub-162,1.0,random_dot,119.92492681508163,
left,left,speed,,,,,0.0,0.0,0.0,1.0,2.0,0.0,4.0,0.0,147.22978609986603,,,,,,,,,147.22413639980368,148.02989979996346,148.83050609985366,148.82189789996482,148.82191599998623,148.83050609985366,148.83050609985366,148.83050609985366,150.9811679997947,right,0.0,35.073767400113866,,,,,,,,,,,,,,,,,,,,,,,,,,,,,,,sub-162,1.0,random_dot,119.92492681508163,
right,right,speed,,,,,0.0,0.0,0.0,1.0,2.0,1.0,5.0,1.0,150.98747539985925,,,,,,,,,150.9820950999856,152.1875578998588,152.98816749989055,152.9794790998567,152.97949339984916,152.98816749989055,152.98816749989055,152.98816749989055,154.80534839979373,left,0.0,34.742404100019485,,,,,,,,,,,,,,,,,,,,,,,,,,,,,,,sub-162,1.0,random_dot,119.92492681508163,
left,left,speed,,,,,0.0,0.0,0.0,1.0,3.0,0.0,6.0,0.0,154.81207699980587,,,,,,,,,154.8061055999715,156.01187979988754,156.81252419995144,156.80387999978848,156.80389709980227,156.81252419995144,156.81252419995144,156.81252419995144,158.13009729981422,right,0.0,34.241970100207254,,,,,,,,,,,,,,,,,,,,,,,,,,,,,,,sub-162,1.0,random_dot,119.92492681508163,
right,right,speed,,,,,0.0,0.0,0.0,1.0,3.0,1.0,7.0,1.0,158.13654430001043,,,,,,,,,158.13076499989256,158.93625399982557,159.7370496999938,159.72846489981748,159.72848369996063,159.7370496999938,159.7370496999938,159.7370496999938,161.09666439983994,right,1.0,34.28111430001445,,,,,,,,,,,,,,,,,,,,,,,,,,,,,,,sub-162,1.0,random_dot,119.92492681508163,
right,right,speed,,,,,0.0,0.0,0.0,1.0,4.0,0.0,8.0,1.0,161.10281169996597,,,,,,,,,161.09736439981498,161.9025665000081,162.70323009998538,162.69464629981667,162.69466619985178,162.70323009998538,162.70323009998538,162.70323009998538,164.712163799908,left,0.0,34.935018700081855,,,,,,,,,,,,,,,,,,,,,,,,,,,,,,,sub-162,1.0,random_dot,119.92492681508163,
left,left,speed,,,,,0.0,0.0,0.0,1.0,4.0,1.0,9.0,0.0,164.7186366999522,,,,,,,,,164.71292429999448,165.51849309983663,166.319474699907,166.31060389988124,166.31062179990113,166.319474699907,166.319474699907,166.319474699907,168.24501209985465,left,1.0,34.85277110012248,,,,,,,,,,,,,,,,,,,,,,,,,,,,,,,sub-162,1.0,random_dot,119.92492681508163,
left,left,speed,,,,,0.0,0.0,0.0,1.0,5.0,0.0,10.0,0.0,168.2515551999677,,,,,,,,,168.24597379984334,169.0511953998357,169.8522273998242,169.84335249988362,169.84337019990198,169.8522273998242,169.8522273998242,169.8522273998242,171.7775842999108,right,0.0,34.847826400073245,,,,,,,,,,,,,,,,,,,,,,,,,,,,,,,sub-162,1.0,random_dot,119.92492681508163,
right,right,speed,,,,,0.0,0.0,0.0,1.0,5.0,1.0,11.0,1.0,171.78413959988393,,,,,,,,,171.77830899995752,172.9840023999568,173.78476749989204,173.77616069978103,173.77617819979787,173.78476749989204,173.78476749989204,173.78476749989204,176.2107384998817,left,0.0,35.34818199998699,,,,,,,,,,,,,,,,,,,,,,,,,,,,,,,sub-162,1.0,random_dot,119.92492681508163,
right,right,speed,,,,,0.0,0.0,0.0,1.0,6.0,0.0,12.0,1.0,176.2170314998366,,,,,,,,,176.2113406998105,177.01676519983448,177.8176159998402,177.80871679983102,177.80873669986613,177.8176159998402,177.8176159998402,177.8176159998402,180.9592450999189,left,0.0,36.070275200065225,,,,,,,,,,,,,,,,,,,,,,,,,,,,,,,sub-162,1.0,random_dot,119.92492681508163,
left,left,speed,,,,,0.0,0.0,0.0,1.0,6.0,1.0,13.0,0.0,180.96604819991623,,,,,,,,,180.9599903000053,181.0662252998445,181.8670399999246,181.85845379997045,181.8584667998366,181.8670399999246,181.8670399999246,181.8670399999246,184.75055449991487,right,0.0,35.80527099990286,,,,,,,,,,,,,,,,,,,,,,,,,,,,,,,sub-162,1.0,random_dot,119.92492681508163,
right,right,speed,,,,,0.0,0.0,0.0,1.0,7.0,0.0,14.0,1.0,184.757089599967,,,,,,,,,184.75133269978687,185.95697840000503,186.75796610000543,186.7492039999925,186.749215999851,186.75796610000543,186.75796610000543,186.75796610000543,189.26649799989536,left,0.0,35.43145400006324,,,,,,,,,,,,,,,,,,,,,,,,,,,,,,,sub-162,1.0,random_dot,119.92492681508163,
left,left,speed,,,,,0.0,0.0,0.0,1.0,7.0,1.0,15.0,0.0,189.27322959993035,,,,,,,,,189.26727309986015,190.07289109984413,190.8737404998392,190.8648728998378,190.86488909996115,190.8737404998392,190.8737404998392,190.8737404998392,194.3324121998157,right,0.0,36.38293360010721,,,,,,,,,,,,,,,,,,,,,,,,,,,,,,,sub-162,1.0,random_dot,119.92492681508163,
left,left,speed,,,,,0.0,0.0,0.0,1.0,8.0,0.0,16.0,0.0,194.33896009996533,,,,,,,,,194.33316189982,195.13875759998336,195.93969639996067,195.93086759978905,195.9308855999261,195.93969639996067,195.93969639996067,195.93969639996067,199.0405187997967,left,1.0,36.027995500015095,,,,,,,,,,,,,,,,,,,,,,,,,,,,,,,sub-162,1.0,random_dot,119.92492681508163,
right,right,speed,,,,,0.0,0.0,0.0,1.0,8.0,1.0,17.0,1.0,199.04695310001264,,,,,,,,,199.04116629995409,199.39659209991805,200.19716119999063,200.18856579996643,200.18858009995893,200.19716119999063,200.19716119999063,200.19716119999063,203.19754619989544,right,1.0,35.92231300007552,,,,,,,,,,,,,,,,,,,,,,,,,,,,,,,sub-162,1.0,random_dot,119.92492681508163,
left,left,speed,,,,,0.0,0.0,0.0,1.0,9.0,0.0,18.0,0.0,203.20407539978623,,,,,,,,,203.19833499984816,204.40409749979156,205.20518269995227,205.1959475998301,205.19596069981344,205.20518269995227,205.20518269995227,205.20518269995227,207.89688109979036,right,0.0,35.61441230005585,,,,,,,,,,,,,,,,,,,,,,,,,,,,,,,sub-162,1.0,random_dot,119.92492681508163,
right,right,speed,,,,,0.0,0.0,0.0,1.0,9.0,1.0,19.0,1.0,207.9035425998736,,,,,,,,,207.89767639990896,208.25337369996123,209.05409509991296,209.04540059994903,209.04541749996133,209.05409509991296,209.05409509991296,209.05409509991296,211.2214546999894,left,0.0,35.094443400157616,,,,,,,,,,,,,,,,,,,,,,,,,,,,,,,sub-162,1.0,random_dot,119.92492681508163,
right,right,speed,,,,,0.0,0.0,0.0,1.0,10.0,0.0,20.0,1.0,211.2278811999131,,,,,,,,,211.22219459991905,211.3277975998353,212.1286404998973,212.1201158999465,212.12013319996183,212.1286404998973,212.1286404998973,212.1286404998973,215.0121918998193,left,0.0,35.812043299898505,,,,,,,,,,,,,,,,,,,,,,,,,,,,,,,sub-162,1.0,random_dot,119.92492681508163,
left,left,speed,,,,,0.0,0.0,0.0,1.0,10.0,1.0,21.0,0.0,215.01893869997,,,,,,,,,215.01294549996965,216.2189062999096,217.01966039999388,217.01066919998263,217.01068810001016,217.01966039999388,217.01966039999388,217.01966039999388,220.61977739981376,left,1.0,36.52456170017831,,,,,,,,,,,,,,,,,,,,,,,,,,,,,,,sub-162,1.0,random_dot,119.92492681508163,
right,right,speed,,,,,0.0,0.0,0.0,1.0,11.0,0.0,22.0,1.0,220.6262749999296,,,,,,,,,220.6205221998971,221.82610929990187,222.62711769994348,222.61828059982508,222.61829469981603,222.62711769994348,222.62711769994348,222.62711769994348,225.33570969989523,right,1.0,35.632153700105846,,,,,,,,,,,,,,,,,,,,,,,,,,,,,,,sub-162,1.0,random_dot,119.92492681508163,
left,left,speed,,,,,0.0,0.0,0.0,1.0,11.0,1.0,23.0,0.0,225.3422172998544,,,,,,,,,225.3364559998736,226.54206099989824,227.34282529982735,227.33411119994707,227.33412959985435,227.34282529982735,227.34282529982735,227.34282529982735,231.12672339985147,right,0.0,36.71273080003448,,,,,,,,,,,,,,,,,,,,,,,,,,,,,,,sub-162,1.0,random_dot,119.92492681508163,
right,right,speed,,,,,0.0,0.0,0.0,1.0,12.0,0.0,24.0,1.0,231.133126599947,,,,,,,,,231.1274601998739,231.2329688000027,232.03376699984076,232.02515079989095,232.0251672999002,232.03376699984076,232.03376699984076,232.03376699984076,235.4589006998576,left,0.0,36.35378660005517,,,,,,,,,,,,,,,,,,,,,,,,,,,,,,,sub-162,1.0,random_dot,119.92492681508163,
left,left,speed,,,,,0.0,0.0,0.0,1.0,12.0,1.0,25.0,0.0,235.46554979984649,,,,,,,,,235.45968949981037,235.81553059979345,236.61647869995795,236.6074696998112,236.60748539981432,236.61647869995795,236.61647869995795,236.61647869995795,238.24205219978467,left,1.0,34.55011130007915,,,,,,,,,,,,,,,,,,,,,,,,,,,,,,,sub-162,1.0,random_dot,119.92492681508163,
right,right,speed,,,,,0.0,0.0,0.0,1.0,13.0,0.0,26.0,1.0,238.24865580000915,,,,,,,,,238.24291039980017,238.59842920000665,239.4020823999308,239.39150129980408,239.3915563998744,239.4020823999308,239.4020823999308,239.4020823999308,241.3500204999,left,0.0,34.8769410001114,,,,,,,,,,,,,,,,,,,,,,,,,,,,,,,sub-162,1.0,random_dot,119.92492681508163,
left,left,speed,,,,,0.0,0.0,0.0,1.0,13.0,1.0,27.0,0.0,241.3565198997967,,,,,,,,,241.35073369997556,242.5562290998641,243.3570278999396,243.3481257997919,243.34813959989697,243.3570278999396,243.3570278999396,243.3570278999396,245.7990021998994,right,0.0,35.36631420021877,,,,,,,,,,,,,,,,,,,,,,,,,,,,,,,sub-162,1.0,random_dot,119.92492681508163,
left,left,speed,,,,,0.0,0.0,0.0,1.0,14.0,0.0,28.0,0.0,245.80575329996643,,,,,,,,,245.79974499996752,246.6056513998192,247.40625869994983,247.3975722999312,247.3975890998263,247.40625869994983,247.40625869994983,247.40625869994983,249.84840869996697,right,0.0,35.36478470009752,,,,,,,,,,,,,,,,,,,,,,,,,,,,,,,sub-162,1.0,random_dot,119.92492681508163,
right,right,speed,,,,,0.0,0.0,0.0,1.0,14.0,1.0,29.0,1.0,249.8552674998064,,,,,,,,,249.84911829978228,249.95501119992696,250.756091499934,250.7468481999822,250.74686569999903,250.756091499934,250.756091499934,250.756091499934,253.7644068999216,left,0.0,35.930911500006914,,,,,,,,,,,,,,,,,,,,,,,,,,,,,,,sub-162,1.0,random_dot,119.92492681508163,
left,left,speed,,,,,0.0,0.0,0.0,1.0,15.0,0.0,30.0,0.0,253.7708036999684,,,,,,,,,253.765202799812,253.87119059986435,254.67197269992903,254.6629480998963,254.66296429978684,254.67197269992903,254.67197269992903,254.67197269992903,257.3807378998026,left,1.0,35.637459700228646,,,,,,,,,,,,,,,,,,,,,,,,,,,,,,,sub-162,1.0,random_dot,119.92492681508163,
right,right,speed,,,,,0.0,0.0,0.0,1.0,15.0,1.0,31.0,1.0,257.3872555999551,,,,,,,,,257.3815236999653,257.736981399823,258.53797159995884,258.5290588999633,258.52907449984923,258.53797159995884,258.53797159995884,258.53797159995884,260.45517649990506,right,1.0,34.841405200073496,,,,,,,,,,,,,,,,,,,,,,,,,,,,,,,sub-162,1.0,random_dot,119.92492681508163,
right,right,speed,,,,,0.0,0.0,0.0,1.0,16.0,0.0,32.0,1.0,260.4616812998429,,,,,,,,,260.455904699862,261.6613323998172,262.46233449992724,262.45336079993285,262.4533787998371,262.46233449992724,262.46233449992724,262.46233449992724,264.0629600000102,right,1.0,34.522368100238964,,,,,,,,,,,,,,,,,,,,,,,,,,,,,,,sub-162,1.0,random_dot,119.92492681508163,
left,left,speed,,,,,0.0,0.0,0.0,1.0,16.0,1.0,33.0,0.0,264.0695354999043,,,,,,,,,264.06381159997545,265.26913079991937,266.0700011998415,266.06117669981904,266.0611946999561,266.0700011998415,266.0700011998415,266.0700011998415,268.27890889998525,right,0.0,35.13604750018567,,,,,,,,,,,,,,,,,,,,,,,,,,,,,,,sub-162,1.0,random_dot,119.92492681508163,
left,left,speed,,,,,0.0,0.0,0.0,1.0,17.0,0.0,34.0,0.0,268.28545749979094,,,,,,,,,268.2798463997897,269.4850999999326,270.2860612999648,270.2773170999717,270.2773351999931,270.2860612999648,270.2860612999648,270.2860612999648,273.0862445998937,left,1.0,35.72439539991319,,,,,,,,,,,,,,,,,,,,,,,,,,,,,,,sub-162,1.0,random_dot,119.92492681508163,
right,right,speed,,,,,0.0,0.0,0.0,1.0,17.0,1.0,35.0,1.0,273.0928694999311,,,,,,,,,273.08709069993347,273.4430221999064,274.24387759994715,274.2349927998148,274.23500609979965,274.24387759994715,274.24387759994715,274.24387759994715,276.75234359991737,left,0.0,35.432948200032115,,,,,,,,,,,,,,,,,,,,,,,,,,,,,,,sub-162,1.0,random_dot,119.92492681508163,
left,left,speed,,,,,0.0,0.0,0.0,1.0,18.0,0.0,36.0,0.0,276.75914380000904,,,,,,,,,276.75314069981687,277.5588487999048,278.3596616999712,278.350740699796,278.3507579998113,278.3596616999712,278.3596616999712,278.3596616999712,281.5934283998795,right,0.0,36.158545300131664,,,,,,,,,,,,,,,,,,,,,,,,,,,,,,,sub-162,1.0,random_dot,119.92492681508163,
right,right,speed,,,,,0.0,0.0,0.0,1.0,18.0,1.0,37.0,1.0,281.60004960000515,,,,,,,,,281.5941905998625,282.79972709994763,283.600660600001,283.59177790000103,283.59179049986415,283.600660600001,283.600660600001,283.600660600001,285.51762679987587,right,1.0,34.838828600011766,,,,,,,,,,,,,,,,,,,,,,,,,,,,,,,sub-162,1.0,random_dot,119.92492681508163,
right,right,speed,,,,,0.0,0.0,0.0,1.0,19.0,0.0,38.0,1.0,285.5242578999605,,,,,,,,,285.5183806999121,286.3241845997982,287.1249124999158,287.1161634000018,287.11618089978583,287.1249124999158,287.1249124999158,287.1249124999158,290.1503192000091,left,0.0,35.94799070013687,,,,,,,,,,,,,,,,,,,,,,,,,,,,,,,sub-162,1.0,random_dot,119.92492681508163,
left,left,speed,,,,,0.0,0.0,0.0,1.0,19.0,1.0,39.0,0.0,290.15681650000624,,,,,,,,,290.1510683000088,290.50667419983074,291.30773000000045,291.2991897999309,291.2992026999127,291.30773000000045,291.30773000000045,291.30773000000045,294.63279469986446,left,1.0,36.25203329999931,,,,,,,,,,,,,,,,,,,,,,,,,,,,,,,sub-162,1.0,random_dot,119.92492681508163,
left,left,speed,,,,,0.0,0.0,0.0,1.0,20.0,0.0,40.0,0.0,294.63959099981,,,,,,,,,294.6336183999665,295.8392519999761,296.6399970999919,296.6314421999268,296.63146179984324,296.6399970999919,296.6399970999919,296.6399970999919,297.89898349996656,right,0.0,34.18578270007856,,,,,,,,,,,,,,,,,,,,,,,,,,,,,,,sub-162,1.0,random_dot,119.92492681508163,
right,right,speed,,,,,0.0,0.0,0.0,1.0,20.0,1.0,41.0,1.0,297.90574169997126,,,,,,,,,297.8997455998324,298.7053869999945,299.5063935997896,299.4975365998689,299.4975538998842,299.5063935997896,299.5063935997896,299.5063935997896,300.6153505998664,left,0.0,34.03648630017415,,,,,,,,,,,,,,,,,,,,,,,,,,,,,,,sub-162,1.0,random_dot,119.92492681508163,
left,left,speed,,,,,0.0,0.0,0.0,1.0,21.0,0.0,42.0,0.0,300.6218580999412,,,,,,,,,300.616103899898,300.7217480998952,301.5225657999981,301.5138484998606,301.5138647998683,301.5225657999981,301.5225657999981,301.5225657999981,303.0980672999285,right,0.0,34.498069800203666,,,,,,,,,,,,,,,,,,,,,,,,,,,,,,,sub-162,1.0,random_dot,119.92492681508163,
right,right,speed,,,,,0.0,0.0,0.0,1.0,21.0,1.0,43.0,1.0,303.1048855998088,,,,,,,,,303.0988224998582,303.90454589994624,304.70554599980824,304.6965012999717,304.6965157999657,304.70554599980824,304.70554599980824,304.70554599980824,306.48102049995214,right,1.0,34.70237150019966,,,,,,,,,,,,,,,,,,,,,,,,,,,,,,,sub-162,1.0,random_dot,119.92492681508163,
right,right,speed,,,,,0.0,0.0,0.0,1.0,22.0,0.0,44.0,1.0,306.4875999998767,,,,,,,,,306.48175549996085,307.68728199996985,308.4882001997903,308.47923339996487,308.4792465998325,308.4882001997903,308.4882001997903,308.4882001997903,310.3138330997899,left,0.0,34.7516789000947,,,,,,,,,,,,,,,,,,,,,,,,,,,,,,,sub-162,1.0,random_dot,119.92492681508163,
left,left,speed,,,,,0.0,0.0,0.0,1.0,22.0,1.0,45.0,0.0,310.32044949987903,,,,,,,,,310.31458899984136,310.4201422999613,311.2209646999836,311.2126098999288,311.2126229999121,311.2209646999836,311.2209646999836,311.2209646999836,313.0215797999408,left,1.0,34.722642900189385,,,,,,,,,,,,,,,,,,,,,,,,,,,,,,,sub-162,1.0,random_dot,119.92492681508163,
right,right,speed,,,,,0.0,0.0,0.0,1.0,23.0,0.0,46.0,1.0,313.0284654998686,,,,,,,,,313.02244409988634,314.22796149994247,315.02865529991686,315.0199693997856,315.0199852997903,315.02865529991686,315.02865529991686,315.02865529991686,317.3791477999184,right,1.0,35.278140200302005,,,,,,,,,,,,,,,,,,,,,,,,,,,,,,,sub-162,1.0,random_dot,119.92492681508163,
left,left,speed,,,,,0.0,0.0,0.0,1.0,23.0,1.0,47.0,0.0,317.3858229999896,,,,,,,,,317.37990249996074,318.5854856998194,319.3864017999731,319.3776816998143,319.3776991998311,319.3864017999731,319.3864017999731,319.3864017999731,321.6619887999259,right,0.0,35.19749200018123,,,,,,,,,,,,,,,,,,,,,,,,,,,,,,,sub-162,1.0,random_dot,119.92492681508163,
left,left,speed,,,,,0.0,0.0,0.0,1.0,24.0,0.0,48.0,0.0,321.66859939997084,,,,,,,,,321.6627266998403,321.76834299997427,322.569165899884,322.5605198999401,322.560535099823,322.569165899884,322.569165899884,322.569165899884,324.9446122997906,left,1.0,35.30411830008961,,,,,,,,,,,,,,,,,,,,,,,,,,,,,,,sub-162,1.0,random_dot,119.92492681508163,
right,right,speed,,,,,0.0,0.0,0.0,1.0,24.0,1.0,49.0,1.0,324.95135619980283,,,,,,,,,324.94539979984984,326.15092659997754,326.9517492998857,326.94292899989523,326.94294809992425,326.9517492998857,326.9517492998857,326.9517492998857,328.9107758998871,left,0.0,34.885360199958086,,,,,,,,,,,,,,,,,,,,,,,,,,,,,,,sub-162,1.0,random_dot,119.92492681508163,
left,left,speed,,,,,0.0,0.0,0.0,1.0,25.0,0.0,50.0,0.0,328.91739989980124,,,,,,,,,328.9115343999583,329.71707399981096,330.5178463999182,330.5092097998131,330.5092273999471,330.5178463999182,330.5178463999182,330.5178463999182,333.077021199977,right,0.0,35.48801720002666,,,,,,,,,,,,,,,,,,,,,,,,,,,,,,,sub-162,1.0,random_dot,119.92492681508163,
right,right,speed,,,,,0.0,0.0,0.0,1.0,25.0,1.0,51.0,1.0,333.08316219993867,,,,,,,,,333.07778029982,333.4331341998186,334.23398829996586,334.22516159992665,334.2251781998202,334.23398829996586,334.23398829996586,334.23398829996586,336.5427507997956,right,1.0,35.236100000096485,,,,,,,,,,,,,,,,,,,,,,,,,,,,,,,sub-162,1.0,random_dot,119.92492681508163,
left,left,speed,,,,,0.0,0.0,0.0,1.0,26.0,0.0,52.0,0.0,336.54932029987685,,,,,,,,,336.5436266998295,337.34902610001154,338.14984999992885,338.1413556998596,338.14136999985203,338.14984999992885,338.14984999992885,338.14984999992885,340.625473999884,left,1.0,35.40149040007964,,,,,,,,,,,,,,,,,,,,,,,,,,,,,,,sub-162,1.0,random_dot,119.92492681508163,
right,right,speed,,,,,0.0,0.0,0.0,1.0,26.0,1.0,53.0,1.0,340.63190889987163,,,,,,,,,340.626250699861,340.98195759998634,341.7828596998006,341.7740666999016,341.7740805000067,341.7828596998006,341.7828596998006,341.7828596998006,344.9663985997904,left,0.0,36.10751500003971,,,,,,,,,,,,,,,,,,,,,,,,,,,,,,,sub-162,1.0,random_dot,119.92492681508163,
left,left,speed,,,,,0.0,0.0,0.0,1.0,27.0,0.0,54.0,0.0,344.9731211999897,,,,,,,,,344.9671558998525,345.0730662997812,345.8739381998312,345.86498989979737,345.86500649992377,345.8739381998312,345.8739381998312,345.8739381998312,349.39059769990854,right,0.0,36.44099740008824,,,,,,,,,,,,,,,,,,,,,,,,,,,,,,,sub-162,1.0,random_dot,119.92492681508163,
right,right,speed,,,,,0.0,0.0,0.0,1.0,27.0,1.0,55.0,1.0,349.3974216999486,,,,,,,,,349.3913543999661,350.19703879999,350.997865999816,350.9891261998564,350.9891432998702,350.997865999816,350.997865999816,350.997865999816,354.0399525999092,left,0.0,35.9689464000985,,,,,,,,,,,,,,,,,,,,,,,,,,,,,,,sub-162,1.0,random_dot,119.92492681508163,
left,left,speed,,,,,0.0,0.0,0.0,1.0,28.0,0.0,56.0,0.0,354.0464919998776,,,,,,,,,354.04079549992457,354.14640109986067,354.9472433999181,354.9385092998855,354.9385236999952,354.9472433999181,354.9472433999181,354.9472433999181,358.55571989994496,left,1.0,36.535032000159845,,,,,,,,,,,,,,,,,,,,,,,,,,,,,,,sub-162,1.0,random_dot,119.92492681508163,
right,right,speed,,,,,0.0,0.0,0.0,1.0,28.0,1.0,57.0,1.0,358.56254949979484,,,,,,,,,358.55651259981096,358.6625755999703,359.4633361999877,359.4543433999643,359.4543582999613,359.4633361999877,359.4633361999877,359.4633361999877,362.2971127999481,right,1.0,35.758484800113365,,,,,,,,,,,,,,,,,,,,,,,,,,,,,,,sub-162,1.0,random_dot,119.92492681508163,
left,left,speed,,,,,0.0,0.0,0.0,1.0,29.0,0.0,58.0,0.0,362.3035148999188,,,,,,,,,362.2978748998139,363.1035760999657,363.9041567998938,363.89542959979735,363.8954472998157,363.9041567998938,363.9041567998938,363.9041567998938,365.5213664998301,right,0.0,34.54457520018332,,,,,,,,,,,,,,,,,,,,,,,,,,,,,,,sub-162,1.0,random_dot,119.92492681508163,
right,right,speed,,,,,0.0,0.0,0.0,1.0,29.0,1.0,59.0,1.0,365.5280128999148,,,,,,,,,365.5222859999631,365.8781098998152,366.6786626998801,366.6699196998961,366.66993619990535,366.6786626998801,366.6786626998801,366.6786626998801,367.69612989993766,left,0.0,33.93965719989501,,,,,,,,,,,,,,,,,,,,,,,,,,,,,,,sub-162,1.0,random_dot,119.92492681508163,
,,speed,,,,,0.0,0.0,0.0,1.0,,,,,,,,,,,,,,,,,,,,,,,,,,,,,,,,,,,,,,,,,,,,,,,,,,,,,,,,sub-162,1.0,random_dot,119.92492681508163,
right,right,accuracy,,,,,0.0,1.0,1.0,0.0,0.0,0.0,0.0,1.0,375.6019007998984,,,,,,,,,375.5987908998504,376.8011337998323,377.6019846999552,377.5930803997908,377.5930981999263,377.6019846999552,377.6019846999552,377.6019846999552,378.494452299783,left,0.0,33.82052030018531,,,,,,,,,,,,,,,,,,,,,367.696947599994,367.7071310998872,367.7071310998872,375.5938921999186,space,40.815276300301775,,,,,sub-162,1.0,random_dot,119.92492681508163,
left,left,accuracy,,,,,0.0,1.0,1.0,0.0,0.0,1.0,1.0,0.0,378.5010906998068,,,,,,,,,378.4953880999237,379.3009569998831,380.101930399891,380.0929760998115,380.0929889997933,380.101930399891,380.101930399891,380.101930399891,381.4273023998831,right,0.0,34.25319970003329,,,,,,,,,,,,,,,,,,,,,,,,,,,,,,,sub-162,1.0,random_dot,119.92492681508163,
right,right,accuracy,,,,,0.0,1.0,1.0,0.0,1.0,0.0,2.0,1.0,381.4339207999874,,,,,,,,,381.4280778998509,382.2335796998814,383.0342733999714,383.0256344999653,383.02564819995314,383.0342733999714,383.0342733999714,383.0342733999714,384.9598687998951,left,0.0,34.85298430011608,,,,,,,,,,,,,,,,,,,,,,,,,,,,,,,sub-162,1.0,random_dot,119.92492681508163,
left,left,accuracy,,,,,0.0,1.0,1.0,0.0,1.0,1.0,3.0,0.0,384.9664562998805,,,,,,,,,384.9606590999756,386.1664037997834,386.96713549993,386.9584047999233,386.958418399794,386.96713549993,386.96713549993,386.96713549993,388.66765299998224,left,1.0,34.62354560010135,,,,,,,,,,,,,,,,,,,,,,,,,,,,,,,sub-162,1.0,random_dot,119.92492681508163,
left,left,accuracy,,,,,0.0,1.0,1.0,0.0,2.0,0.0,4.0,0.0,388.6745645999909,,,,,,,,,388.6683545999695,388.774394699838,389.575159,389.56622499995865,389.5662401998416,389.575159,389.575159,389.575159,390.6839064999949,right,0.0,34.030862000072375,,,,,,,,,,,,,,,,,,,,,,,,,,,,,,,sub-162,1.0,random_dot,119.92492681508163,
right,right,accuracy,,,,,0.0,1.0,1.0,0.0,2.0,1.0,5.0,1.0,390.69059209991246,,,,,,,,,390.6847155999858,391.4905815999955,392.2916309998837,392.2826085998677,392.28262159996666,392.2916309998837,392.2916309998837,392.2916309998837,393.3419180999044,right,1.0,33.974523700075224,,,,,,,,,,,,,,,,,,,,,,,,,,,,,,,sub-162,1.0,random_dot,119.92492681508163,
right,right,accuracy,,,,,0.0,1.0,1.0,0.0,3.0,0.0,6.0,1.0,393.34857219993137,,,,,,,,,393.342660699971,393.6985928998329,394.49955889978446,394.4906628997997,394.490675999783,394.49955889978446,394.49955889978446,394.49955889978446,395.1664969997946,left,0.0,33.589070400223136,,,,,,,,,,,,,,,,,,,,,,,,,,,,,,,sub-162,1.0,random_dot,119.92492681508163,
left,left,accuracy,,,,,0.0,1.0,1.0,0.0,3.0,1.0,7.0,0.0,395.1732086997945,,,,,,,,,395.1672433000058,395.5231055999175,396.3241599998437,396.3153714998625,396.315385399852,396.3241599998437,396.3241599998437,396.3241599998437,397.3161590998061,left,1.0,33.91412560013123,,,,,,,,,,,,,,,,,,,,,,,,,,,,,,,sub-162,1.0,random_dot,119.92492681508163,
left,left,accuracy,,,,,0.0,1.0,1.0,0.0,4.0,0.0,8.0,0.0,397.32269189995714,,,,,,,,,397.3169000998605,397.6727594998665,398.47361049987376,398.4649844998494,398.4650017998647,398.47361049987376,398.47361049987376,398.47361049987376,399.44950899994,right,0.0,33.9048568001017,,,,,,,,,,,,,,,,,,,,,,,,,,,,,,,sub-162,1.0,random_dot,119.92492681508163,
right,right,accuracy,,,,,0.0,1.0,1.0,0.0,4.0,1.0,9.0,1.0,399.4557639998384,,,,,,,,,399.4504700999241,399.5557851998601,400.3568311999552,400.3481570999138,400.34817299991846,400.3568311999552,400.3568311999552,400.3568311999552,401.2908553997986,right,1.0,33.856770700076595,,,,,,,,,,,,,,,,,,,,,,,,,,,,,,,sub-162,1.0,random_dot,119.92492681508163,
left,left,accuracy,,,,,0.0,1.0,1.0,0.0,5.0,0.0,10.0,0.0,401.2974039998371,,,,,,,,,401.2917208999861,401.64713539998047,402.4478825998958,402.4391756998375,402.43919249996543,402.4478825998958,402.4478825998958,402.4478825998958,403.4071521998849,left,1.0,33.8869281001389,,,,,,,,,,,,,,,,,,,,,,,,,,,,,,,sub-162,1.0,random_dot,119.92492681508163,
right,right,accuracy,,,,,0.0,1.0,1.0,0.0,5.0,1.0,11.0,1.0,403.41365139978006,,,,,,,,,403.4079101998359,404.2133640998509,405.0141708999872,405.00536739989184,405.00538320001215,405.0141708999872,405.0141708999872,405.0141708999872,405.956656599883,left,0.0,33.8711722001899,,,,,,,,,,,,,,,,,,,,,,,,,,,,,,,sub-162,1.0,random_dot,119.92492681508163,
right,right,accuracy,,,,,0.0,1.0,1.0,0.0,6.0,0.0,12.0,1.0,405.9632168998942,,,,,,,,,405.95752989989705,406.7630464998074,407.5638512999285,407.5550265999045,407.5550436999183,407.5638512999285,407.5638512999285,407.5638512999285,408.46465109987184,left,0.0,33.8233246000018,,,,,,,,,,,,,,,,,,,,,,,,,,,,,,,sub-162,1.0,random_dot,119.92492681508163,
left,left,accuracy,,,,,0.0,1.0,1.0,0.0,6.0,1.0,13.0,0.0,408.4709338999819,,,,,,,,,408.4656012998894,409.6708295999561,410.4717696998269,410.4628311998677,410.46284940000623,410.4717696998269,410.4717696998269,410.4717696998269,411.2724169997964,left,1.0,33.72917259996757,,,,,,,,,,,,,,,,,,,,,,,,,,,,,,,sub-162,1.0,random_dot,119.92492681508163,
right,right,accuracy,,,,,0.0,1.0,1.0,0.0,7.0,0.0,14.0,1.0,411.27884259982966,,,,,,,,,411.2733781998977,412.4788699999917,413.27971379994415,413.27071859990247,413.2707339997869,413.27971379994415,413.27971379994415,413.27971379994415,415.1134897999,right,1.0,34.760582600021735,,,,,,,,,,,,,,,,,,,,,,,,,,,,,,,sub-162,1.0,random_dot,119.92492681508163,
left,left,accuracy,,,,,0.0,1.0,1.0,0.0,7.0,1.0,15.0,0.0,415.11991769983433,,,,,,,,,415.11429109983146,416.319971999852,417.1207310999744,417.11175089981407,417.1117685998324,417.1207310999744,417.1207310999744,417.1207310999744,418.38789729983546,left,1.0,34.19150250009261,,,,,,,,,,,,,,,,,,,,,,,,,,,,,,,sub-162,1.0,random_dot,119.92492681508163,
left,left,accuracy,,,,,0.0,1.0,1.0,0.0,8.0,0.0,16.0,0.0,418.394372300012,,,,,,,,,418.3886868997943,418.4943997999653,419.29518349980935,419.2865249000024,419.286542599788,419.29518349980935,419.29518349980935,419.29518349980935,420.2207064998802,left,1.0,33.85004910011776,,,,,,,,,,,,,,,,,,,,,,,,,,,,,,,sub-162,1.0,random_dot,119.92492681508163,
right,right,accuracy,,,,,0.0,1.0,1.0,0.0,8.0,1.0,17.0,1.0,420.2275083998684,,,,,,,,,420.2214577998966,421.4271546998061,422.228054799838,422.21953050000593,422.21954799978994,422.228054799838,422.228054799838,422.228054799838,422.9955313999672,left,0.0,33.69643729995005,,,,,,,,,,,,,,,,,,,,,,,,,,,,,,,sub-162,1.0,random_dot,119.92492681508163,
right,right,accuracy,,,,,0.0,1.0,1.0,0.0,9.0,0.0,18.0,1.0,423.0021310998127,,,,,,,,,422.9962464999408,423.3519561998546,424.1527994999197,424.14396959985606,424.1439831999596,424.1527994999197,424.1527994999197,424.1527994999197,425.62855089991353,left,0.0,34.40010190010071,,,,,,,,,,,,,,,,,,,,,,,,,,,,,,,sub-162,1.0,random_dot,119.92492681508163,
left,left,accuracy,,,,,0.0,1.0,1.0,0.0,9.0,1.0,19.0,0.0,425.6349893999286,,,,,,,,,425.62930369982496,426.8347581999842,427.63566219992936,427.6267639999278,427.6267802999355,427.63566219992936,427.63566219992936,427.63566219992936,428.6448013999034,right,0.0,33.937787500210106,,,,,,,,,,,,,,,,,,,,,,,,,,,,,,,sub-162,1.0,random_dot,119.92492681508163,
right,right,accuracy,,,,,0.0,1.0,1.0,0.0,10.0,0.0,20.0,1.0,428.6515338998288,,,,,,,,,428.6454609998036,428.7511043997947,429.5519679998979,429.5433189999312,429.5433344999328,429.5519679998979,429.5519679998979,429.5519679998979,431.37762539996766,left,0.0,34.74849870009348,,,,,,,,,,,,,,,,,,,,,,,,,,,,,,,sub-162,1.0,random_dot,119.92492681508163,
left,left,accuracy,,,,,0.0,1.0,1.0,0.0,10.0,1.0,21.0,0.0,431.3844902999699,,,,,,,,,431.37830219999887,432.58365089981817,433.38473099982366,433.37598089990206,433.3759947000072,433.38473099982366,433.38473099982366,433.38473099982366,434.86040299991146,left,1.0,34.40031230007298,,,,,,,,,,,,,,,,,,,,,,,,,,,,,,,sub-162,1.0,random_dot,119.92492681508163,
left,left,accuracy,,,,,0.0,1.0,1.0,0.0,11.0,0.0,22.0,0.0,434.8669470997993,,,,,,,,,434.8611511997879,434.9667332998943,435.76784519990906,435.7589080999605,435.7589208998252,435.76784519990906,435.76784519990906,435.76784519990906,437.4430844997987,right,0.0,34.59733080002479,,,,,,,,,,,,,,,,,,,,,,,,,,,,,,,sub-162,1.0,random_dot,119.92492681508163,
right,right,accuracy,,,,,0.0,1.0,1.0,0.0,11.0,1.0,23.0,1.0,437.4497407998424,,,,,,,,,437.4438249999657,438.2494304999709,439.0503359998111,439.04167829989456,439.0416959999129,439.0503359998111,439.0503359998111,439.0503359998111,441.2260301997885,right,1.0,35.09998260019347,,,,,,,,,,,,,,,,,,,,,,,,,,,,,,,sub-162,1.0,random_dot,119.92492681508163,
right,right,accuracy,,,,,0.0,1.0,1.0,0.0,12.0,0.0,24.0,1.0,441.2326301999856,,,,,,,,,441.2267924998887,442.0322755000088,442.8331039999612,442.8243882998359,442.82440569996834,442.8331039999612,442.8331039999612,442.8331039999612,444.3836064999923,left,0.0,34.47641990007833,,,,,,,,,,,,,,,,,,,,,,,,,,,,,,,sub-162,1.0,random_dot,119.92492681508163,
left,left,accuracy,,,,,0.0,1.0,1.0,0.0,12.0,1.0,25.0,0.0,444.3902305997908,,,,,,,,,444.3843905997928,444.4902013000101,445.29108839994296,445.2821701997891,445.28218410001136,445.29108839994296,445.29108839994296,445.29108839994296,447.6419694998767,left,1.0,35.27983330003917,,,,,,,,,,,,,,,,,,,,,,,,,,,,,,,sub-162,1.0,random_dot,119.92492681508163,
left,left,accuracy,,,,,0.0,1.0,1.0,0.0,13.0,0.0,26.0,0.0,447.64823139994405,,,,,,,,,447.64273580000736,447.9980779998005,448.7988823999185,448.79015279980376,448.79016939993016,448.7988823999185,448.7988823999185,448.7988823999185,450.8077632999048,left,1.0,34.93368870019913,,,,,,,,,,,,,,,,,,,,,,,,,,,,,,,sub-162,1.0,random_dot,119.92492681508163,
right,right,accuracy,,,,,0.0,1.0,1.0,0.0,13.0,1.0,27.0,1.0,450.81403309991583,,,,,,,,,450.8086552999448,451.6139504997991,452.415221599862,452.4061582998838,452.4061718999874,452.415221599862,452.415221599862,452.415221599862,454.18203009990975,right,1.0,34.688948600087315,,,,,,,,,,,,,,,,,,,,,,,,,,,,,,,sub-162,1.0,random_dot,119.92492681508163,
left,left,accuracy,,,,,0.0,1.0,1.0,0.0,14.0,0.0,28.0,0.0,454.1888454,,,,,,,,,454.1828689998947,454.5386092998088,455.3393909998704,455.3306783000007,455.3306940998882,455.3393909998704,455.3393909998704,455.3393909998704,457.1650289997924,right,0.0,34.751644500065595,,,,,,,,,,,,,,,,,,,,,,,,,,,,,,,sub-162,1.0,random_dot,119.92492681508163,
right,right,accuracy,,,,,0.0,1.0,1.0,0.0,14.0,1.0,29.0,1.0,457.1717323998455,,,,,,,,,457.1657763998956,457.9716107998975,458.7722060999368,458.7636055999901,458.7636216999963,458.7722060999368,458.7722060999368,458.7722060999368,460.94786680000834,left,0.0,35.102059200173244,,,,,,,,,,,,,,,,,,,,,,,,,,,,,,,sub-162,1.0,random_dot,119.92492681508163,
left,left,accuracy,,,,,0.0,1.0,1.0,0.0,15.0,0.0,30.0,0.0,460.9543953000102,,,,,,,,,460.948558999924,461.3041299998295,462.1052562999539,462.09625609987415,462.0962698999792,462.1052562999539,462.1052562999539,462.1052562999539,464.347225099802,left,1.0,35.16485429997556,,,,,,,,,,,,,,,,,,,,,,,,,,,,,,,sub-162,1.0,random_dot,119.92492681508163,
right,right,accuracy,,,,,0.0,1.0,1.0,0.0,15.0,1.0,31.0,1.0,464.3538908998016,,,,,,,,,464.34798129997216,464.7038308999036,465.5043979999609,465.4958328998182,465.49584809993394,465.5043979999609,465.5043979999609,465.5043979999609,467.8883998999372,right,1.0,35.30595870013349,,,,,,,,,,,,,,,,,,,,,,,,,,,,,,,sub-162,1.0,random_dot,119.92492681508163,
left,left,accuracy,,,,,0.0,1.0,1.0,0.0,16.0,0.0,32.0,0.0,467.8949735998176,,,,,,,,,467.88915809988976,469.09465310000814,469.8953015999869,469.886517399922,469.8865395998582,469.8953015999869,469.8953015999869,469.8953015999869,471.9043335998431,left,1.0,34.93196339998394,,,,,,,,,,,,,,,,,,,,,,,,,,,,,,,sub-162,1.0,random_dot,119.92492681508163,
right,right,accuracy,,,,,0.0,1.0,1.0,0.0,16.0,1.0,33.0,1.0,471.9107342998032,,,,,,,,,471.9051526999101,472.7107251000125,473.5114259999245,473.50263539981097,473.5026546998415,473.5114259999245,473.5114259999245,473.5114259999245,474.9369491999969,right,1.0,34.35169730009511,,,,,,,,,,,,,,,,,,,,,,,,,,,,,,,sub-162,1.0,random_dot,119.92492681508163,
right,right,accuracy,,,,,0.0,1.0,1.0,0.0,17.0,0.0,34.0,1.0,474.9437227000017,,,,,,,,,474.9376606999431,476.1435848998372,476.9444027999416,476.9354736998212,476.9354912999552,476.9444027999416,476.9444027999416,476.9444027999416,478.5946827000007,right,1.0,34.572389900218695,,,,,,,,,,,,,,,,,,,,,,,,,,,,,,,sub-162,1.0,random_dot,119.92492681508163,
left,left,accuracy,,,,,0.0,1.0,1.0,0.0,17.0,1.0,35.0,0.0,478.60154239996336,,,,,,,,,478.5954431998544,478.70142499986105,479.502206799807,479.4934850998689,479.493501199875,479.502206799807,479.502206799807,479.502206799807,481.3532317997888,left,1.0,34.779902999987826,,,,,,,,,,,,,,,,,,,,,,,,,,,,,,,sub-162,1.0,random_dot,119.92492681508163,
left,left,accuracy,,,,,0.0,1.0,1.0,0.0,18.0,0.0,36.0,0.0,481.3594998999033,,,,,,,,,481.35389649984427,481.7090964999516,482.5100004000124,482.5012970999815,482.5013112998568,482.5100004000124,482.5100004000124,482.5100004000124,483.7274855999276,right,0.0,34.13952419999987,,,,,,,,,,,,,,,,,,,,,,,,,,,,,,,sub-162,1.0,random_dot,119.92492681508163,
right,right,accuracy,,,,,0.0,1.0,1.0,0.0,18.0,1.0,37.0,1.0,483.73402679990977,,,,,,,,,483.72822960000485,484.0841715999413,484.8848778998945,484.8758285997901,484.8758425998967,484.8848778998945,484.8848778998945,484.8848778998945,486.2267810998019,right,1.0,34.27044719993137,,,,,,,,,,,,,,,,,,,,,,,,,,,,,,,sub-162,1.0,random_dot,119.92492681508163,
left,left,accuracy,,,,,0.0,1.0,1.0,0.0,19.0,0.0,38.0,0.0,486.2336502999533,,,,,,,,,486.2275572998915,487.4333100998774,488.23416629992425,488.2255164999515,488.2255339999683,488.23416629992425,488.23416629992425,488.23416629992425,489.40989889996126,left,1.0,34.10286099999212,,,,,,,,,,,,,,,,,,,,,,,,,,,,,,,sub-162,1.0,random_dot,119.92492681508163,
right,right,accuracy,,,,,0.0,1.0,1.0,0.0,19.0,1.0,39.0,1.0,489.41653549997136,,,,,,,,,489.41083029983565,489.51628039986826,490.31705129984766,490.3083906997927,490.3084084999282,490.31705129984766,490.31705129984766,490.31705129984766,491.809302699985,left,0.0,34.419619400054216,,,,,,,,,,,,,,,,,,,,,,,,,,,,,,,sub-162,1.0,random_dot,119.92492681508163,
right,right,accuracy,,,,,0.0,1.0,1.0,0.0,20.0,0.0,40.0,1.0,491.8160980998073,,,,,,,,,491.8100778998341,493.01590399979614,493.8167214998976,493.8077849999536,493.8078017998487,493.8167214998976,493.8167214998976,493.8167214998976,495.20080589992,left,0.0,34.312877299962565,,,,,,,,,,,,,,,,,,,,,,,,,,,,,,,sub-162,1.0,random_dot,119.92492681508163,
left,left,accuracy,,,,,0.0,1.0,1.0,0.0,20.0,1.0,41.0,0.0,495.207216499839,,,,,,,,,495.20166739984415,495.3072655999568,496.108025399968,496.0990881999023,496.0991042999085,496.108025399968,496.108025399968,496.108025399968,498.4416622999124,left,1.0,35.26249430025928,,,,,,,,,,,,,,,,,,,,,,,,,,,,,,,sub-162,1.0,random_dot,119.92492681508163,
right,right,accuracy,,,,,0.0,1.0,1.0,0.0,21.0,0.0,42.0,1.0,498.4480266999453,,,,,,,,,498.4430678999052,498.5483933999203,499.3489367999136,499.3401704998687,499.340187799884,499.3489367999136,499.3489367999136,499.3489367999136,501.99088439997286,right,1.0,35.57047380018048,,,,,,,,,,,,,,,,,,,,,,,,,,,,,,,sub-162,1.0,random_dot,119.92492681508163,
left,left,accuracy,,,,,0.0,1.0,1.0,0.0,21.0,1.0,43.0,0.0,501.9976511998102,,,,,,,,,501.9916409999132,502.3475414998829,503.1486020998564,503.13961349986494,503.13962979987264,503.1486020998564,503.1486020998564,503.1486020998564,505.3489090998192,left,1.0,35.12284710002132,,,,,,,,,,,,,,,,,,,,,,,,,,,,,,,sub-162,1.0,random_dot,119.92492681508163,
left,left,accuracy,,,,,0.0,1.0,1.0,0.0,22.0,0.0,44.0,0.0,505.35555909993127,,,,,,,,,505.3496977998875,505.4555372998584,506.2562314998359,506.2474840998184,506.2474975998048,506.2562314998359,506.2562314998359,506.2562314998359,509.2568752998486,right,0.0,35.9282050000038,,,,,,,,,,,,,,,,,,,,,,,,,,,,,,,sub-162,1.0,random_dot,119.92492681508163,
right,right,accuracy,,,,,0.0,1.0,1.0,0.0,22.0,1.0,45.0,1.0,509.2631610999815,,,,,,,,,509.2579312999733,510.4631033998448,511.2637779999058,511.2550268999767,511.2550435999874,511.2637779999058,511.2637779999058,511.2637779999058,513.5640455998946,left,0.0,35.228766300017014,,,,,,,,,,,,,,,,,,,,,,,,,,,,,,,sub-162,1.0,random_dot,119.92492681508163,
left,left,accuracy,,,,,0.0,1.0,1.0,0.0,23.0,0.0,46.0,0.0,513.5708346997853,,,,,,,,,513.5647924998775,514.7705088998191,515.5718815999571,515.5629708999768,515.5629837999586,515.5718815999571,515.5718815999571,515.5718815999571,518.1801283999812,left,1.0,35.53015230013989,,,,,,,,,,,,,,,,,,,,,,,,,,,,,,,sub-162,1.0,random_dot,119.92492681508163,
right,right,accuracy,,,,,0.0,1.0,1.0,0.0,23.0,1.0,47.0,1.0,518.1868679998443,,,,,,,,,518.1808618998621,518.5366700999439,519.3374682997819,519.3288745998871,519.3288911997806,519.3374682997819,519.3374682997819,519.3374682997819,522.154549599858,right,1.0,35.74300830019638,,,,,,,,,,,,,,,,,,,,,,,,,,,,,,,sub-162,1.0,random_dot,119.92492681508163,
right,right,accuracy,,,,,0.0,1.0,1.0,0.0,24.0,0.0,48.0,1.0,522.1610591998324,,,,,,,,,522.1552691999823,522.511040299898,523.3117627999745,523.3031086998526,523.3031262999866,523.3117627999745,523.3117627999745,523.3117627999745,526.0787706999108,right,1.0,35.690243400167674,,,,,,,,,,,,,,,,,,,,,,,,,,,,,,,sub-162,1.0,random_dot,119.92492681508163,
left,left,accuracy,,,,,0.0,1.0,1.0,0.0,24.0,1.0,49.0,0.0,526.0855403998867,,,,,,,,,526.079544399865,526.1853723998647,526.9862759998068,526.977636099793,526.9776488998905,526.9862759998068,526.9862759998068,526.9862759998068,529.5864997999743,left,1.0,35.522512200055644,,,,,,,,,,,,,,,,,,,,,,,,,,,,,,,sub-162,1.0,random_dot,119.92492681508163,
left,left,accuracy,,,,,0.0,1.0,1.0,0.0,25.0,0.0,50.0,0.0,529.5931525998749,,,,,,,,,529.5872341999784,530.7931273998693,531.5939374999143,531.585066099884,531.5850801998749,531.5939374999143,531.5939374999143,531.5939374999143,534.2526043998078,left,1.0,35.58071910007857,,,,,,,,,,,,,,,,,,,,,,,,,,,,,,,sub-162,1.0,random_dot,119.92492681508163,
right,right,accuracy,,,,,0.0,1.0,1.0,0.0,25.0,1.0,51.0,1.0,534.2592525999062,,,,,,,,,534.2533885999583,535.0589387998916,535.8597795998212,535.8511045998894,535.8511214999016,535.8597795998212,535.8597795998212,535.8597795998212,538.2018530999776,right,1.0,35.2642759999726,,,,,,,,,,,,,,,,,,,,,,,,,,,,,,,sub-162,1.0,random_dot,119.92492681508163,
right,right,accuracy,,,,,0.0,1.0,1.0,0.0,26.0,0.0,52.0,1.0,538.2086021997966,,,,,,,,,538.202599799959,538.3084014998749,539.1092152998317,539.1005140999332,539.100528099807,539.1092152998317,539.1092152998317,539.1092152998317,541.5680664998945,left,0.0,35.382440000073984,,,,,,,,,,,,,,,,,,,,,,,,,,,,,,,sub-162,1.0,random_dot,119.92492681508163,
left,left,accuracy,,,,,0.0,1.0,1.0,0.0,26.0,1.0,53.0,0.0,541.5745665999129,,,,,,,,,541.5687947999686,541.6746323998086,542.4752787998877,542.4665260999463,542.4665402998216,542.4752787998877,542.4752787998877,542.4752787998877,545.3340167999268,right,0.0,35.78038610005751,,,,,,,,,,,,,,,,,,,,,,,,,,,,,,,sub-162,1.0,random_dot,119.92492681508163,
right,right,accuracy,,,,,0.0,1.0,1.0,0.0,27.0,0.0,54.0,1.0,545.3405716000125,,,,,,,,,545.334738999838,545.6904997997917,546.4913452998735,546.4825551998802,546.4825740999077,546.4913452998735,546.4913452998735,546.4913452998735,548.0754708999302,right,1.0,34.51298740017228,,,,,,,,,,,,,,,,,,,,,,,,,,,,,,,sub-162,1.0,random_dot,119.92492681508163,
left,left,accuracy,,,,,0.0,1.0,1.0,0.0,27.0,1.0,55.0,0.0,548.081889799796,,,,,,,,,548.076332599856,548.4319897999521,549.232648300007,549.2240089999977,549.2240237998776,549.232648300007,549.232648300007,549.232648300007,550.5916179998312,left,1.0,34.280977400019765,,,,,,,,,,,,,,,,,,,,,,,,,,,,,,,sub-162,1.0,random_dot,119.92492681508163,
left,left,accuracy,,,,,0.0,1.0,1.0,0.0,28.0,0.0,56.0,0.0,550.5982997999527,,,,,,,,,550.5923577998765,551.7978772998322,552.5988992999773,552.5899389998522,552.5899548998568,552.5988992999773,552.5988992999773,552.5988992999773,553.9828549998347,left,1.0,34.31168830022216,,,,,,,,,,,,,,,,,,,,,,,,,,,,,,,sub-162,1.0,random_dot,119.92492681508163,
right,right,accuracy,,,,,0.0,1.0,1.0,0.0,28.0,1.0,57.0,1.0,553.9894583998248,,,,,,,,,553.9835861998145,554.0893829998095,554.8902640999295,554.8812172999606,554.881232699845,554.8902640999295,554.8902640999295,554.8902640999295,556.6986643997952,right,1.0,34.73069959995337,,,,,,,,,,,,,,,,,,,,,,,,,,,,,,,sub-162,1.0,random_dot,119.92492681508163,
left,left,accuracy,,,,,0.0,1.0,1.0,0.0,29.0,0.0,58.0,0.0,556.705709700007,,,,,,,,,556.6994038999546,557.9064805000089,558.7060585999861,558.6984698998276,558.6984838999342,558.7060585999861,558.7060585999861,558.7060585999861,561.0648692999966,left,1.0,35.28621120005846,,,,,,,,,,,,,,,,,,,,,,,,,,,,,,,sub-162,1.0,random_dot,119.92492681508163,
right,right,accuracy,,,,,0.0,1.0,1.0,0.0,29.0,1.0,59.0,1.0,561.0722403998952,,,,,,,,,561.0655800998211,561.1723669997882,561.9722916998435,561.9642375998665,561.9642529999837,561.9722916998435,561.9722916998435,561.9722916998435,563.4314421999734,right,1.0,34.38814250030555,,,,,,,,,,,,,,,,,,,,,,,,,,,,,,,sub-162,1.0,random_dot,119.92492681508163,
,,accuracy,,,,,0.0,1.0,1.0,0.0,,,,,,,,,,,,,,,,,,,,,,,,,,,,,,,,,,,,,,,,,,,,,,,,,,,,,,,,sub-162,1.0,random_dot,119.92492681508163,
,,,,,,,,,,,,,,,,,,,,,,,,,,,,,,,,,,,,,,,,,,,,,,,,,,,,,,,,,,,,,,,563.4319714999292,563.4387160998303,568.437136599794,sub-162,,,,
