wordCTK,colorCTK,corrAnsCTK,congruentCTK,thisN,thisTrialN,thisRepN,keyResp_CTK.keys,keyResp_CTK.corr,keyResp_CTK.rt,keyResp_CTK.duration,wordPractice,colorPractice,corrAnsPractice,congruentPractice,respPractice.keys,respPractice.corr,respPractice.rt,respPractice.duration,word,color,corrAns,congruent,keyResp_test_run.keys,keyResp_test_run.corr,keyResp_test_run.rt,keyResp_test_run.duration,trials_CTK.thisRepN,trials_CTK.thisTrialN,trials_CTK.thisN,trials_CTK.thisIndex,trials_practice.thisRepN,trials_practice.thisTrialN,trials_practice.thisN,trials_practice.thisIndex,trials_test.thisRepN,trials_test.thisTrialN,trials_test.thisN,trials_test.thisIndex,thisRow.t,notes,instruction.started,instr_text.started,instr_image.started,instr_resp.started,instruction.stopped,instr_resp.keys,instr_resp.rt,instr_resp.duration,instr_color_to_key.started,instr_ctk.started,resp_ctk.started,instr_color_to_key.stopped,resp_ctk.keys,resp_ctk.rt,resp_ctk.duration,ITI.started,fixcross.started,fixcross.stopped,ITI.stopped,color_to_key_run.started,stimulus_CTK.started,keyResp_CTK.started,color_to_key_run.stopped,trials_CTK.keyResp_CTK.keys,trials_CTK.keyResp_CTK.corr,trials_CTK.keyResp_CTK.rt,trials_CTK.keyResp_CTK.duration,instr_practice.started,instr_practice_text.started,instr_practice_resp.started,instr_practice.stopped,instr_practice_resp.keys,instr_practice_resp.rt,instr_practice_resp.duration,practice_run.started,stimulus_practice.started,respPractice.started,practice_run.stopped,trials_practice.respPractice.keys,trials_practice.respPractice.corr,trials_practice.respPractice.rt,trials_practice.respPractice.duration,feedback.started,textFeedback.started,feedback.stopped,textFeedback.stopped,instr_test.started,instr_test_text.started,instr_test_resp.started,instr_test.stopped,instr_test_resp.keys,instr_test_resp.rt,instr_test_resp.duration,test_run.started,stimulus_test_run.started,keyResp_test_run.started,test_run.stopped,trials_test.keyResp_test_run.keys,trials_test.keyResp_test_run.corr,trials_test.keyResp_test_run.rt,trials_test.keyResp_test_run.duration,goodbye.started,textGoodbye.started,textGoodbye.stopped,goodbye.stopped,participant,session,expName,frameRate,Unnamed: 113
,,,,,,,,,,,,,,,,,,,,,,,,,,,,,,,,,,,,,,,,,0.0036902000001646,0.0372522000006938,0.0372522000006938,0.0372522000006938,155.20424960000037,space,155.1475088999996,,,,,,,,,,,,,,,,,,,,,,,,,,,,,,,,,,,,,,,,,,,,,,,,,,,,,,,,,,,sub-090,1,stroop_test,59.924914082632846,
,,,,,,,,,,,,,,,,,,,,,,,,,,,,,,,,,,,,,,,,,,,,,,,,,155.20439669999996,155.21621270000014,155.21621270000014,157.68691200000012,space,2.4562353999999686,,,,,,,,,,,,,,,,,,,,,,,,,,,,,,,,,,,,,,,,,,,,,,,,,,,,sub-090,1,stroop_test,59.924914082632846,
test,red,r,1.0,0.0,0.0,0.0,r,1.0,0.7070463999998537,,,,,,,,,,,,,,,,,,0.0,0.0,0.0,0.0,,,,,,,,,157.7136891,,,,,,,,,,,,,,,,,157.70983070000057,158.90164350000032,159.7054745000005,159.68534850000017,159.70135180000034,159.7054745000005,159.7054745000005,160.42086110000037,r,1.0,0.7070463999998537,,,,,,,,,,,,,,,,,,,,,,,,,,,,,,,,,,,,,,,,sub-090,1,stroop_test,59.924914082632846,
test,blue,b,1.0,1.0,1.0,0.0,g,0.0,0.5517212999993717,,,,,,,,,,,,,,,,,,0.0,1.0,1.0,2.0,,,,,,,,,160.43483880000076,,,,,,,,,,,,,,,,,160.4213348000003,161.23481210000045,162.03483060000053,162.0196919,162.0204758,162.03483060000053,162.03483060000053,162.58975460000056,g,0.0,0.5517212999993717,,,,,,,,,,,,,,,,,,,,,,,,,,,,,,,,,,,,,,,,sub-090,1,stroop_test,59.924914082632846,
test,yellow,g,1.0,2.0,2.0,0.0,g,1.0,0.5559900999996898,,,,,,,,,,,,,,,,,,0.0,2.0,2.0,1.0,,,,,,,,,162.60154070000044,,,,,,,,,,,,,,,,,162.59024470000077,163.4016483000005,164.2014908000001,164.1862654000006,164.1870017000001,164.2014908000001,164.2014908000001,164.77042920000076,g,1.0,0.5559900999996898,,,,,,,,,,,,,,,,,,,,,,,,,,,,,,,,,,,,,,,,sub-090,1,stroop_test,59.924914082632846,
test,blue,b,1.0,3.0,0.0,1.0,b,1.0,0.6214485999998942,,,,,,,,,,,,,,,,,,1.0,0.0,3.0,2.0,,,,,,,,,164.78467570000066,,,,,,,,,,,,,,,,,164.7708917,164.88509430000067,165.68483670000023,165.66996130000007,165.67091710000022,165.68483670000023,165.68483670000023,166.32082940000055,b,1.0,0.6214485999998942,,,,,,,,,,,,,,,,,,,,,,,,,,,,,,,,,,,,,,,,sub-090,1,stroop_test,59.924914082632846,
test,red,r,1.0,4.0,1.0,1.0,r,1.0,0.9205430000001796,,,,,,,,,,,,,,,,,,1.0,1.0,4.0,0.0,,,,,,,,,166.33490600000005,,,,,,,,,,,,,,,,,166.32133410000006,167.53447630000028,168.33485180000025,168.31978190000063,168.32060280000042,168.33485180000025,168.33485180000025,169.27003910000076,r,1.0,0.9205430000001796,,,,,,,,,,,,,,,,,,,,,,,,,,,,,,,,,,,,,,,,sub-090,1,stroop_test,59.924914082632846,
test,yellow,g,1.0,5.0,2.0,1.0,g,1.0,0.6957941999999093,,,,,,,,,,,,,,,,,,1.0,2.0,5.0,1.0,,,,,,,,,169.28484690000005,,,,,,,,,,,,,,,,,169.2705085000007,170.48471530000006,171.28477199999998,171.2693315000006,171.27014190000045,171.28477199999998,171.28477199999998,171.98760370000036,g,1.0,0.6957941999999093,,,,,,,,,,,,,,,,,,,,,,,,,,,,,,,,,,,,,,,,sub-090,1,stroop_test,59.924914082632846,
test,yellow,g,1.0,6.0,0.0,2.0,g,1.0,0.5498747000001458,,,,,,,,,,,,,,,,,,2.0,0.0,6.0,1.0,,,,,,,,,172.0014110000002,,,,,,,,,,,,,,,,,171.98812840000028,172.1014180000002,172.90168650000032,172.88615830000072,172.88698000000022,172.90168650000032,172.90168650000032,173.45458490000055,g,1.0,0.5498747000001458,,,,,,,,,,,,,,,,,,,,,,,,,,,,,,,,,,,,,,,,sub-090,1,stroop_test,59.924914082632846,
test,red,r,1.0,7.0,1.0,2.0,r,1.0,0.7423718999998528,,,,,,,,,,,,,,,,,,2.0,1.0,7.0,0.0,,,,,,,,,173.46831389999988,,,,,,,,,,,,,,,,,173.4550835,174.2681849999999,175.06805470000018,175.0526743999999,175.05335240000022,175.06805470000018,175.06805470000018,175.8208979000001,r,1.0,0.7423718999998528,,,,,,,,,,,,,,,,,,,,,,,,,,,,,,,,,,,,,,,,sub-090,1,stroop_test,59.924914082632846,
test,blue,b,1.0,8.0,2.0,2.0,b,1.0,0.662950500000079,,,,,,,,,,,,,,,,,,2.0,2.0,8.0,2.0,,,,,,,,,175.8350605000005,,,,,,,,,,,,,,,,,175.82142620000013,175.93484489999992,176.7348589000003,176.71943660000034,176.72018879999996,176.7348589000003,176.7348589000003,177.40388299999995,b,1.0,0.662950500000079,,,,,,,,,,,,,,,,,,,,,,,,,,,,,,,,,,,,,,,,sub-090,1,stroop_test,59.924914082632846,
test,yellow,g,1.0,9.0,0.0,3.0,g,1.0,0.6778835000004619,,,,,,,,,,,,,,,,,,3.0,0.0,9.0,1.0,,,,,,,,,177.4180913,,,,,,,,,,,,,,,,,177.4044718000005,178.61822030000076,179.4182369,179.40260450000005,179.40340820000074,179.4182369,179.4182369,180.10398800000075,g,1.0,0.6778835000004619,,,,,,,,,,,,,,,,,,,,,,,,,,,,,,,,,,,,,,,,sub-090,1,stroop_test,59.924914082632846,
test,red,r,1.0,10.0,1.0,3.0,r,1.0,0.6741145999994842,,,,,,,,,,,,,,,,,,3.0,1.0,10.0,0.0,,,,,,,,,180.1182212000003,,,,,,,,,,,,,,,,,180.10454970000046,180.21798190000027,181.01821030000065,181.0027671000007,181.00344190000035,181.01821030000065,181.01821030000065,181.7031732000005,r,1.0,0.6741145999994842,,,,,,,,,,,,,,,,,,,,,,,,,,,,,,,,,,,,,,,,sub-090,1,stroop_test,59.924914082632846,
test,blue,b,1.0,11.0,2.0,3.0,b,1.0,0.5656880000005913,,,,,,,,,,,,,,,,,,3.0,2.0,11.0,2.0,,,,,,,,,181.71815080000036,,,,,,,,,,,,,,,,,181.70353130000055,181.81809130000056,182.61801680000008,182.602637,182.6034083000004,182.61801680000008,182.61801680000008,183.1869198000004,b,1.0,0.5656880000005913,,,,,,,,,,,,,,,,,,,,,,,,,,,,,,,,,,,,,,,,sub-090,1,stroop_test,59.924914082632846,
,,,,,,,,,,,,,,,,,,,,,,,,,,,,,,,,,,,,,,,,,,,,,,,,,,,,,,,,,,,,,,,,,,,,183.18714470000032,183.20166160000008,183.20166160000008,190.2205233000004,space,7.002333599999474,,,,,,,,,,,,,,,,,,,,,,,,,,,,,,,,,sub-090,1,stroop_test,59.924914082632846,
,,,,0.0,0.0,0.0,,,,,rot,blue,b,0.0,r,0.0,1.759051800000634,,,,,,,,,,,,,,0.0,0.0,0.0,2.0,,,,,190.2450945999999,,,,,,,,,,,,,,,,,190.24166160000004,190.33483810000047,191.1398508000002,191.1196050000008,,,,,,,,,,,,,,,,191.1325901,191.1398508000002,191.1398508000002,192.90400279999997,r,0.0,1.759051800000634,,192.92327960000057,192.92973070000065,193.9182393000001,,,,,,,,,,,,,,,,,,,,,sub-090,1,stroop_test,59.924914082632846,
,,,,1.0,1.0,0.0,,,,,rot,red,r,1.0,r,1.0,2.3254367999998067,,,,,,,,,,,,,,0.0,1.0,1.0,1.0,,,,,193.93491260000064,,,,,,,,,,,,,,,,,193.91877329999988,194.01852920000056,194.81828250000035,194.8030558999999,,,,,,,,,,,,,,,,194.8037839000008,194.81828250000035,194.81828250000035,197.1535518999999,r,1.0,2.3254367999998067,,197.16803030000028,197.1749644000001,198.1684055000005,,,,,,,,,,,,,,,,,,,,,sub-090,1,stroop_test,59.924914082632846,
,,,,2.0,2.0,0.0,,,,,gelb,yellow,g,1.0,g,1.0,1.4202085000006264,,,,,,,,,,,,,,0.0,2.0,2.0,10.0,,,,,198.18473500000076,,,,,,,,,,,,,,,,,198.1692191000002,198.96817100000044,199.76867709999988,199.75295760000063,,,,,,,,,,,,,,,,199.76177480000024,199.76867709999988,199.76867709999988,201.20371310000064,g,1.0,1.4202085000006264,,201.204444,201.2179587999999,202.20272900000052,202.2180584000007,,,,,,,,,,,,,,,,,,,,sub-090,1,stroop_test,59.924914082632846,
,,,,3.0,3.0,0.0,,,,,blau,blue,b,1.0,b,1.0,0.6180899999999383,,,,,,,,,,,,,,0.0,3.0,3.0,5.0,,,,,202.2180584000007,,,,,,,,,,,,,,,,,202.20329300000049,203.0179846000001,203.81989930000051,203.80275669999992,,,,,,,,,,,,,,,,203.8128429000008,203.81989930000051,203.81989930000051,204.45426580000003,b,1.0,0.6180899999999383,,204.4551716000005,204.46829500000055,205.45294710000053,205.46818090000036,,,,,,,,,,,,,,,,,,,,sub-090,1,stroop_test,59.924914082632846,
,,,,4.0,4.0,0.0,,,,,rot,yellow,g,0.0,g,1.0,0.6712124999994558,,,,,,,,,,,,,,0.0,4.0,4.0,3.0,,,,,205.46818090000036,,,,,,,,,,,,,,,,,205.4534118000001,205.81808069999988,206.6176101000001,206.60246710000047,,,,,,,,,,,,,,,,206.60817230000063,206.6176101000001,206.6176101000001,207.3027886,g,1.0,0.6712124999994558,,207.3036327,207.3177308000004,208.3021549000005,208.31786160000047,,,,,,,,,,,,,,,,,,,,sub-090,1,stroop_test,59.924914082632846,
,,,,5.0,5.0,0.0,,,,,rot,red,r,1.0,r,1.0,0.5358725999994931,,,,,,,,,,,,,,0.0,5.0,5.0,0.0,,,,,208.31786160000047,,,,,,,,,,,,,,,,,208.3026466000001,208.66798830000064,209.4680883000001,209.45245520000023,,,,,,,,,,,,,,,,209.4532408000005,209.4680883000001,209.4680883000001,210.0206509,r,1.0,0.5358725999994931,,210.02163670000027,210.0349542000004,211.01936250000017,211.03485290000023,,,,,,,,,,,,,,,,,,,,sub-090,1,stroop_test,59.924914082632846,
,,,,6.0,6.0,0.0,,,,,gelb,red,r,0.0,r,1.0,0.9157322000000933,,,,,,,,,,,,,,0.0,6.0,6.0,8.0,,,,,211.03485290000023,,,,,,,,,,,,,,,,,211.01989589999997,211.83489590000045,212.6347093000004,212.61906660000025,,,,,,,,,,,,,,,,212.62611939999988,212.6347093000004,212.6347093000004,213.55418700000064,r,1.0,0.9157322000000933,,213.5550890000004,213.5679622000007,214.55312390000017,214.56786330000068,,,,,,,,,,,,,,,,,,,,sub-090,1,stroop_test,59.924914082632846,
,,,,7.0,7.0,0.0,,,,,blau,yellow,g,0.0,g,1.0,0.6118685999999798,,,,,,,,,,,,,,0.0,7.0,7.0,7.0,,,,,214.56786330000068,,,,,,,,,,,,,,,,,214.55357230000027,215.76811730000009,216.56807740000025,216.55262380000025,,,,,,,,,,,,,,,,216.55874010000025,216.56807740000025,216.56807740000025,217.18720550000037,g,1.0,0.6118685999999798,,217.18798310000057,217.2014377000005,218.1863272999999,218.2013448000007,,,,,,,,,,,,,,,,,,,,sub-090,1,stroop_test,59.924914082632846,
,,,,8.0,8.0,0.0,,,,,gelb,blue,b,0.0,b,1.0,0.7326219000005949,,,,,,,,,,,,,,0.0,8.0,8.0,9.0,,,,,218.2013448000007,,,,,,,,,,,,,,,,,218.18677240000036,218.5512815000002,219.3515469000004,219.33583739999997,,,,,,,,,,,,,,,,219.34192990000065,219.3515469000004,219.3515469000004,220.08778299999997,b,1.0,0.7326219000005949,,220.0886117,220.10125010000047,221.08602100000007,221.1013126000007,,,,,,,,,,,,,,,,,,,,sub-090,1,stroop_test,59.924914082632846,
,,,,9.0,9.0,0.0,,,,,blau,red,r,0.0,r,1.0,0.6645375999996759,,,,,,,,,,,,,,0.0,9.0,9.0,4.0,,,,,221.1013126000007,,,,,,,,,,,,,,,,,221.08655550000003,221.2014349000001,222.00127640000028,221.98583700000017,,,,,,,,,,,,,,,,221.99176740000075,222.00127640000028,222.00127640000028,222.6703318,r,1.0,0.6645375999996759,,222.67103540000065,222.68464120000044,223.6698049000006,223.6846646000004,,,,,,,,,,,,,,,,,,,,sub-090,1,stroop_test,59.924914082632846,
,,,,10.0,10.0,0.0,,,,,gelb,yellow,g,1.0,g,1.0,0.632442600000104,,,,,,,,,,,,,,0.0,10.0,10.0,11.0,,,,,223.6846646000004,,,,,,,,,,,,,,,,,223.67026220000025,224.4847851000004,225.2848922000003,225.26910130000036,,,,,,,,,,,,,,,,225.2757732,225.2848922000003,225.2848922000003,225.9213055,g,1.0,0.632442600000104,,225.9220206,225.9347416999999,226.9197286000008,226.93468900000065,,,,,,,,,,,,,,,,,,,,sub-090,1,stroop_test,59.924914082632846,
,,,,11.0,11.0,0.0,,,,,blau,blue,b,1.0,b,1.0,0.5926510999997845,,,,,,,,,,,,,,0.0,11.0,11.0,6.0,,,,,226.93468900000065,,,,,,,,,,,,,,,,,226.92016860000055,227.28476260000025,228.08463329999995,228.0696050000006,,,,,,,,,,,,,,,,228.0759085,228.08463329999995,228.08463329999995,228.6873250000008,b,1.0,0.5926510999997845,,228.68848669999988,228.70125240000016,229.68637020000008,229.70129580000048,,,,,,,,,,,,,,,,,,,,sub-090,1,stroop_test,59.924914082632846,
,,,,12.0,0.0,1.0,,,,,gelb,yellow,g,1.0,g,1.0,0.7159004999994067,,,,,,,,,,,,,,1.0,0.0,12.0,11.0,,,,,229.70129580000048,,,,,,,,,,,,,,,,,229.6871103000003,229.8011890000007,230.6013819,230.58650730000045,,,,,,,,,,,,,,,,230.59242750000067,230.6013819,230.6013819,231.32071309999992,g,1.0,0.7159004999994067,,231.32145300000047,231.3348963000008,232.31934120000005,232.33493380000075,,,,,,,,,,,,,,,,,,,,sub-090,1,stroop_test,59.924914082632846,
,,,,13.0,1.0,1.0,,,,,gelb,red,r,0.0,r,1.0,0.8615483999992648,,,,,,,,,,,,,,1.0,1.0,13.0,8.0,,,,,232.33493380000075,,,,,,,,,,,,,,,,,232.31991199999996,232.6846808,233.48485770000025,233.46918809999988,,,,,,,,,,,,,,,,233.47002109999997,233.48485770000025,233.48485770000025,234.35352740000053,r,1.0,0.8615483999992648,,234.35433730000025,234.3679278,235.3528841000007,235.3678652000008,,,,,,,,,,,,,,,,,,,,sub-090,1,stroop_test,59.924914082632846,
,,,,14.0,2.0,1.0,,,,,gelb,yellow,g,1.0,g,1.0,0.7428485000000364,,,,,,,,,,,,,,1.0,2.0,14.0,10.0,,,,,235.3678652000008,,,,,,,,,,,,,,,,,235.35333530000025,235.46823600000064,236.26810300000037,236.25265840000063,,,,,,,,,,,,,,,,236.2534169999999,236.26810300000037,236.26810300000037,237.0204717000006,g,1.0,0.7428485000000364,,237.0212873999999,237.03482440000064,238.0194965999999,238.0349074000005,,,,,,,,,,,,,,,,,,,,sub-090,1,stroop_test,59.924914082632846,
,,,,15.0,3.0,1.0,,,,,rot,blue,b,0.0,b,1.0,0.514558500000021,,,,,,,,,,,,,,1.0,3.0,15.0,2.0,,,,,238.0349074000005,,,,,,,,,,,,,,,,,238.02036320000025,239.23468820000016,240.0347443999999,240.01925050000045,,,,,,,,,,,,,,,,240.0263162000001,240.0347443999999,240.0347443999999,240.5536359000007,b,1.0,0.514558500000021,,240.55439130000013,240.56832740000027,241.55239900000012,241.5679028000004,,,,,,,,,,,,,,,,,,,,sub-090,1,stroop_test,59.924914082632846,
,,,,16.0,4.0,1.0,,,,,blau,yellow,g,0.0,g,1.0,0.7011925000006158,,,,,,,,,,,,,,1.0,4.0,16.0,7.0,,,,,241.5679028000004,,,,,,,,,,,,,,,,,241.55291690000013,241.91795300000013,242.7179627000005,242.70263500000056,,,,,,,,,,,,,,,,242.7096513000006,242.7179627000005,242.7179627000005,243.4214335000006,g,1.0,0.7011925000006158,,243.42205850000028,243.43450630000007,244.41928540000023,244.4346703000001,,,,,,,,,,,,,,,,,,,,sub-090,1,stroop_test,59.924914082632846,
,,,,17.0,5.0,1.0,,,,,blau,red,r,0.0,r,1.0,0.7988235000002533,,,,,,,,,,,,,,1.0,5.0,17.0,4.0,,,,,244.4346703000001,,,,,,,,,,,,,,,,,244.4198648000001,245.23447710000076,246.03469420000056,246.01964810000027,,,,,,,,,,,,,,,,246.0203422000004,246.03469420000056,246.03469420000056,246.83752600000025,r,1.0,0.7988235000002533,,246.8387349000004,246.8508208000003,247.8357157999999,247.8510213,,,,,,,,,,,,,,,,,,,,sub-090,1,stroop_test,59.924914082632846,
,,,,18.0,6.0,1.0,,,,,rot,yellow,g,0.0,g,1.0,0.5909350000001723,,,,,,,,,,,,,,1.0,6.0,18.0,3.0,,,,,247.8510213,,,,,,,,,,,,,,,,,247.83618520000076,248.65120920000027,249.45147970000016,249.43581630000065,,,,,,,,,,,,,,,,249.4409667,249.45147970000016,249.45147970000016,250.05358090000027,g,1.0,0.5909350000001723,,250.0546316,250.0680222000001,251.05270569999996,251.0682123000006,,,,,,,,,,,,,,,,,,,,sub-090,1,stroop_test,59.924914082632846,
,,,,19.0,7.0,1.0,,,,,rot,red,r,1.0,r,1.0,0.5696637999999439,,,,,,,,,,,,,,1.0,7.0,19.0,0.0,,,,,251.0682123000006,,,,,,,,,,,,,,,,,251.0532092000003,251.86768770000072,252.66805010000007,252.6530089000007,,,,,,,,,,,,,,,,252.65366470000023,252.66805010000007,252.66805010000007,253.25418799999989,r,1.0,0.5696637999999439,,253.2549241000006,253.26816289999988,254.2532323000005,254.26784470000075,,,,,,,,,,,,,,,,,,,,sub-090,1,stroop_test,59.924914082632846,
,,,,20.0,8.0,1.0,,,,,blau,blue,b,1.0,b,1.0,0.7552912000001015,,,,,,,,,,,,,,1.0,8.0,20.0,5.0,,,,,254.26784470000075,,,,,,,,,,,,,,,,,254.2538774000004,255.46816280000075,256.2680739000007,256.2526876000002,,,,,,,,,,,,,,,,256.25854789999994,256.2680739000007,256.2680739000007,257.0368160000007,b,1.0,0.7552912000001015,,257.03760240000065,257.0513669000002,258.0361276000003,258.05109940000057,,,,,,,,,,,,,,,,,,,,sub-090,1,stroop_test,59.924914082632846,
,,,,21.0,9.0,1.0,,,,,rot,red,r,1.0,r,1.0,0.775931799999853,,,,,,,,,,,,,,1.0,9.0,21.0,1.0,,,,,258.05109940000057,,,,,,,,,,,,,,,,,258.0366731000004,258.8515070000003,259.6513525999999,259.6359134000004,,,,,,,,,,,,,,,,259.64096599999993,259.6513525999999,259.6513525999999,260.4373153000006,r,1.0,0.775931799999853,,260.43815300000006,260.4513165000008,261.4361783000004,261.451231,,,,,,,,,,,,,,,,,,,,sub-090,1,stroop_test,59.924914082632846,
,,,,22.0,10.0,1.0,,,,,gelb,blue,b,0.0,b,1.0,0.6188591000000088,,,,,,,,,,,,,,1.0,10.0,22.0,9.0,,,,,261.451231,,,,,,,,,,,,,,,,,261.4366364000007,261.5513036000002,262.3512827000004,262.3358861000006,,,,,,,,,,,,,,,,262.3429366999999,262.3512827000004,262.3512827000004,262.98679020000054,b,1.0,0.6188591000000088,,262.9878212000003,263.0013327000006,263.98636540000007,264.0012383000003,,,,,,,,,,,,,,,,,,,,sub-090,1,stroop_test,59.924914082632846,
,,,,23.0,11.0,1.0,,,,,blau,blue,b,1.0,b,1.0,0.6925522999999885,,,,,,,,,,,,,,1.0,11.0,23.0,6.0,,,,,264.0012383000003,,,,,,,,,,,,,,,,,263.98681470000065,265.2015553000001,266.0012288000007,265.9859081000004,,,,,,,,,,,,,,,,265.9916729000006,266.0012288000007,266.0012288000007,266.70359650000046,b,1.0,0.6925522999999885,,266.7043956000007,266.71785249999994,267.7027971000007,267.71792880000066,,,,,,,,,,,,,,,,,,,,sub-090,1,stroop_test,59.924914082632846,
,,,,,,,,,,,,,,,,,,,,,,,,,,,,,,,,,,,,,,,,,,,,,,,,,,,,,,,,,,,,,,,,,,,,,,,,,,,,,,,,,,,,,,,267.7030183000006,267.71792880000066,267.71792880000066,293.8534223000006,space,26.120081999999456,,,,,,,,,,,,,,sub-090,1,stroop_test,59.924914082632846,
,,,,0.0,0.0,0.0,,,,,,,,,,,,,gelb,yellow,g,1.0,g,1.0,0.6201840000003358,,,,,,,,,,0.0,0.0,0.0,10.0,293.8809987000004,,,,,,,,,,,,,,,,,293.8778186,295.06779200000074,295.8679296999999,295.8522154000002,,,,,,,,,,,,,,,,,,,,,,,,,,,,,,,,,,,295.8588453000002,295.8679296999999,295.8679296999999,296.5036243000004,g,1.0,0.6201840000003358,,,,,,sub-090,1,stroop_test,59.924914082632846,
,,,,1.0,1.0,0.0,,,,,,,,,,,,,rot,yellow,g,0.0,g,1.0,0.559644500000104,,,,,,,,,,0.0,1.0,1.0,3.0,296.51771869999993,,,,,,,,,,,,,,,,,296.5042395999999,296.8678987000003,297.6677905000006,297.65254540000024,,,,,,,,,,,,,,,,,,,,,,,,,,,,,,,,,,,297.6580816000005,297.6677905000006,297.6677905000006,298.2368225,g,1.0,0.559644500000104,,,,,,sub-090,1,stroop_test,59.924914082632846,
,,,,2.0,2.0,0.0,,,,,,,,,,,,,gelb,red,r,0.0,r,1.0,0.4989764000001742,,,,,,,,,,0.0,2.0,2.0,8.0,298.25137930000074,,,,,,,,,,,,,,,,,298.2373987000001,299.4512620000005,300.2512772,300.2360554000006,,,,,,,,,,,,,,,,,,,,,,,,,,,,,,,,,,,300.24211840000044,300.2512772,300.2512772,300.7538848000004,r,1.0,0.4989764000001742,,,,,,sub-090,1,stroop_test,59.924914082632846,
,,,,3.0,3.0,0.0,,,,,,,,,,,,,rot,blue,b,0.0,b,1.0,0.4013052999998763,,,,,,,,,,0.0,3.0,3.0,2.0,300.7678513000001,,,,,,,,,,,,,,,,,300.7548379,301.967866,302.7680848,302.7526192000005,,,,,,,,,,,,,,,,,,,,,,,,,,,,,,,,,,,302.75777730000027,302.7680848,302.7680848,303.1867861999999,b,1.0,0.4013052999998763,,,,,,sub-090,1,stroop_test,59.924914082632846,
,,,,4.0,4.0,0.0,,,,,,,,,,,,,blau,blue,b,1.0,b,1.0,0.4318587999996452,,,,,,,,,,0.0,4.0,4.0,5.0,303.20102270000007,,,,,,,,,,,,,,,,,303.18746960000044,304.0011783,304.8011757000004,304.7858117000005,,,,,,,,,,,,,,,,,,,,,,,,,,,,,,,,,,,304.7915286000007,304.8011757000004,304.8011757000004,305.23718310000004,b,1.0,0.4318587999996452,,,,,,sub-090,1,stroop_test,59.924914082632846,
,,,,5.0,5.0,0.0,,,,,,,,,,,,,blau,red,r,0.0,r,1.0,1.191280000000006,,,,,,,,,,0.0,5.0,5.0,4.0,305.25124890000006,,,,,,,,,,,,,,,,,305.2377820000001,306.4511709000008,307.25112080000054,307.2358727999999,,,,,,,,,,,,,,,,,,,,,,,,,,,,,,,,,,,307.2367907000007,307.25112080000054,307.25112080000054,308.4533011000003,r,1.0,1.191280000000006,,,,,,sub-090,1,stroop_test,59.924914082632846,
,,,,6.0,6.0,0.0,,,,,,,,,,,,,rot,red,r,1.0,r,1.0,0.5378043999999136,,,,,,,,,,0.0,6.0,6.0,0.0,308.4678812000002,,,,,,,,,,,,,,,,,308.4540956999999,309.2677680000006,310.0678585000005,310.05250140000044,,,,,,,,,,,,,,,,,,,,,,,,,,,,,,,,,,,310.05781490000027,310.0678585000005,310.0678585000005,310.6202800000001,r,1.0,0.5378043999999136,,,,,,sub-090,1,stroop_test,59.924914082632846,
,,,,7.0,7.0,0.0,,,,,,,,,,,,,rot,red,r,1.0,r,1.0,0.5505240999991656,,,,,,,,,,0.0,7.0,7.0,1.0,310.6343848000006,,,,,,,,,,,,,,,,,310.6209019000007,310.7345845,311.53462450000006,311.5191364000002,,,,,,,,,,,,,,,,,,,,,,,,,,,,,,,,,,,311.51995010000064,311.53462450000006,311.53462450000006,312.0880348999999,r,1.0,0.5505240999991656,,,,,,sub-090,1,stroop_test,59.924914082632846,
,,,,8.0,8.0,0.0,,,,,,,,,,,,,gelb,yellow,g,1.0,g,1.0,0.3294275999996898,,,,,,,,,,0.0,8.0,8.0,11.0,312.10127920000014,,,,,,,,,,,,,,,,,312.0885828999999,313.3009716000006,314.1012115000003,314.0858579000005,,,,,,,,,,,,,,,,,,,,,,,,,,,,,,,,,,,314.0921309000005,314.1012115000003,314.1012115000003,314.4370319,g,1.0,0.3294275999996898,,,,,,sub-090,1,stroop_test,59.924914082632846,
,,,,9.0,9.0,0.0,,,,,,,,,,,,,blau,blue,b,1.0,b,1.0,0.434447700000419,,,,,,,,,,0.0,9.0,9.0,6.0,314.4514054000001,,,,,,,,,,,,,,,,,314.43761280000035,315.65111350000006,316.45139220000056,316.4358792000003,,,,,,,,,,,,,,,,,,,,,,,,,,,,,,,,,,,316.4424947000007,316.45139220000056,316.45139220000056,316.9036543000002,b,1.0,0.434447700000419,,,,,,sub-090,1,stroop_test,59.924914082632846,
,,,,10.0,10.0,0.0,,,,,,,,,,,,,blau,yellow,g,0.0,g,1.0,0.7390611000000717,,,,,,,,,,0.0,10.0,10.0,7.0,316.9178781999999,,,,,,,,,,,,,,,,,316.9042808000004,317.0176519000006,317.81773930000054,317.80260890000045,,,,,,,,,,,,,,,,,,,,,,,,,,,,,,,,,,,317.8039673000003,317.81773930000054,317.81773930000054,318.5702782000008,g,1.0,0.7390611000000717,,,,,,sub-090,1,stroop_test,59.924914082632846,
,,,,11.0,11.0,0.0,,,,,,,,,,,,,gelb,blue,b,0.0,b,1.0,0.5966700999997556,,,,,,,,,,0.0,11.0,11.0,9.0,318.58445570000003,,,,,,,,,,,,,,,,,318.5708874000002,318.68466250000074,319.48437100000046,319.4694391000003,,,,,,,,,,,,,,,,,,,,,,,,,,,,,,,,,,,319.4758036000003,319.48437100000046,319.48437100000046,320.0869741000006,b,1.0,0.5966700999997556,,,,,,sub-090,1,stroop_test,59.924914082632846,
,,,,12.0,0.0,1.0,,,,,,,,,,,,,gelb,yellow,g,1.0,g,1.0,0.5808022999999594,,,,,,,,,,1.0,0.0,12.0,11.0,320.10101530000065,,,,,,,,,,,,,,,,,320.08748970000033,320.9010804,321.7013568000002,321.6859813000001,,,,,,,,,,,,,,,,,,,,,,,,,,,,,,,,,,,321.68675930000063,321.7013568000002,321.7013568000002,322.286693,g,1.0,0.5808022999999594,,,,,,sub-090,1,stroop_test,59.924914082632846,
,,,,13.0,1.0,1.0,,,,,,,,,,,,,gelb,yellow,g,1.0,g,1.0,0.4490428999997675,,,,,,,,,,1.0,1.0,13.0,10.0,322.3013449,,,,,,,,,,,,,,,,,322.2872090999999,322.6509993,323.4511390000007,323.43588030000046,,,,,,,,,,,,,,,,,,,,,,,,,,,,,,,,,,,323.43659670000034,323.4511390000007,323.4511390000007,323.90363720000005,g,1.0,0.4490428999997675,,,,,,sub-090,1,stroop_test,59.924914082632846,
,,,,14.0,2.0,1.0,,,,,,,,,,,,,gelb,blue,b,0.0,b,1.0,0.5204219999995985,,,,,,,,,,1.0,2.0,14.0,9.0,323.9180226000008,,,,,,,,,,,,,,,,,323.9041739000004,325.1178365000005,325.91764390000026,325.9022224,,,,,,,,,,,,,,,,,,,,,,,,,,,,,,,,,,,325.9030589000004,325.91764390000026,325.91764390000026,326.45305820000067,b,1.0,0.5204219999995985,,,,,,sub-090,1,stroop_test,59.924914082632846,
,,,,15.0,3.0,1.0,,,,,,,,,,,,,blau,blue,b,1.0,b,1.0,0.4635352999994211,,,,,,,,,,1.0,3.0,15.0,5.0,326.46776600000067,,,,,,,,,,,,,,,,,326.45361850000063,326.56779910000023,327.36770650000017,327.35242180000023,,,,,,,,,,,,,,,,,,,,,,,,,,,,,,,,,,,327.3580767000003,327.36770650000017,327.36770650000017,327.83694880000075,b,1.0,0.4635352999994211,,,,,,sub-090,1,stroop_test,59.924914082632846,
,,,,16.0,4.0,1.0,,,,,,,,,,,,,rot,yellow,g,0.0,b,0.0,0.3933975999998438,,,,,,,,,,1.0,4.0,16.0,3.0,327.8511301000008,,,,,,,,,,,,,,,,,327.83750080000027,329.05126629999995,329.8510971000005,329.8356855000002,,,,,,,,,,,,,,,,,,,,,,,,,,,,,,,,,,,329.8407845000001,329.8510971000005,329.8510971000005,330.25362570000016,b,0.0,0.3933975999998438,,,,,,sub-090,1,stroop_test,59.924914082632846,
,,,,17.0,5.0,1.0,,,,,,,,,,,,,blau,red,r,0.0,r,1.0,0.8355435999992551,,,,,,,,,,1.0,5.0,17.0,4.0,330.26801049999995,,,,,,,,,,,,,,,,,330.25422060000074,331.0676946000003,331.86765900000046,331.85289210000064,,,,,,,,,,,,,,,,,,,,,,,,,,,,,,,,,,,331.8601683000006,331.86765900000046,331.86765900000046,332.72032780000063,r,1.0,0.8355435999992551,,,,,,sub-090,1,stroop_test,59.924914082632846,
,,,,18.0,6.0,1.0,,,,,,,,,,,,,rot,blue,b,0.0,b,1.0,0.6524021999994147,,,,,,,,,,1.0,6.0,18.0,2.0,332.7342951999999,,,,,,,,,,,,,,,,,332.7208889000003,333.5345391000001,334.33473460000005,334.31902230000014,,,,,,,,,,,,,,,,,,,,,,,,,,,,,,,,,,,334.32420830000046,334.33473460000005,334.33473460000005,335.0032813000007,b,1.0,0.6524021999994147,,,,,,sub-090,1,stroop_test,59.924914082632846,
,,,,19.0,7.0,1.0,,,,,,,,,,,,,blau,yellow,g,0.0,g,1.0,0.7212242000005062,,,,,,,,,,1.0,7.0,19.0,7.0,335.01772660000006,,,,,,,,,,,,,,,,,335.00388120000025,335.1175295000003,335.9177174000006,335.9026518999999,,,,,,,,,,,,,,,,,,,,,,,,,,,,,,,,,,,335.90857680000045,335.9177174000006,335.9177174000006,336.65329250000013,g,1.0,0.7212242000005062,,,,,,sub-090,1,stroop_test,59.924914082632846,
,,,,20.0,8.0,1.0,,,,,,,,,,,,,gelb,red,r,0.0,r,1.0,0.7078432000007524,,,,,,,,,,1.0,8.0,20.0,8.0,336.66779170000063,,,,,,,,,,,,,,,,,336.6538814000005,337.0178125000002,337.81790850000016,337.80244390000007,,,,,,,,,,,,,,,,,,,,,,,,,,,,,,,,,,,337.8091621000003,337.81790850000016,337.81790850000016,338.537566,r,1.0,0.7078432000007524,,,,,,sub-090,1,stroop_test,59.924914082632846,
,,,,21.0,9.0,1.0,,,,,,,,,,,,,rot,red,r,1.0,r,1.0,0.502166400000533,,,,,,,,,,1.0,9.0,21.0,1.0,338.5513390000005,,,,,,,,,,,,,,,,,338.5381935000005,339.3510845999999,340.1512418000002,340.13592080000035,,,,,,,,,,,,,,,,,,,,,,,,,,,,,,,,,,,340.14126510000006,340.1512418000002,340.1512418000002,340.66970560000027,r,1.0,0.502166400000533,,,,,,sub-090,1,stroop_test,59.924914082632846,
,,,,22.0,10.0,1.0,,,,,,,,,,,,,blau,blue,b,1.0,b,1.0,0.507565899999463,,,,,,,,,,1.0,10.0,22.0,6.0,340.6843707000007,,,,,,,,,,,,,,,,,340.6702230000001,341.4844143,342.28428820000045,342.26921930000026,,,,,,,,,,,,,,,,,,,,,,,,,,,,,,,,,,,342.2773562000002,342.28428820000045,342.28428820000045,342.8025361,b,1.0,0.507565899999463,,,,,,sub-090,1,stroop_test,59.924914082632846,
,,,,23.0,11.0,1.0,,,,,,,,,,,,,rot,red,r,1.0,r,1.0,0.5677140999996482,,,,,,,,,,1.0,11.0,23.0,0.0,342.8174407000006,,,,,,,,,,,,,,,,,342.8030548000006,344.01789140000074,344.8178174000004,344.8024832000001,,,,,,,,,,,,,,,,,,,,,,,,,,,,,,,,,,,344.8079008000004,344.8178174000004,344.8178174000004,345.38770750000003,r,1.0,0.5677140999996482,,,,,,sub-090,1,stroop_test,59.924914082632846,
,,,,24.0,0.0,2.0,,,,,,,,,,,,,blau,blue,b,1.0,b,1.0,0.5440419999995356,,,,,,,,,,2.0,0.0,24.0,5.0,345.4011894000005,,,,,,,,,,,,,,,,,345.3882990000002,346.2012392000006,347.00131500000043,346.9859057000004,,,,,,,,,,,,,,,,,,,,,,,,,,,,,,,,,,,346.99054500000057,347.00131500000043,347.00131500000043,347.55315690000043,b,1.0,0.5440419999995356,,,,,,sub-090,1,stroop_test,59.924914082632846,
,,,,25.0,1.0,2.0,,,,,,,,,,,,,blau,yellow,g,0.0,g,1.0,0.3878347999998368,,,,,,,,,,2.0,1.0,25.0,7.0,347.5679654000005,,,,,,,,,,,,,,,,,347.5537079000005,348.3677133000001,349.1678073000003,349.1525501000005,,,,,,,,,,,,,,,,,,,,,,,,,,,,,,,,,,,349.15319830000044,349.1678073000003,349.1678073000003,349.5698981000005,g,1.0,0.3878347999998368,,,,,,sub-090,1,stroop_test,59.924914082632846,
,,,,26.0,2.0,2.0,,,,,,,,,,,,,gelb,blue,b,0.0,b,1.0,0.5630943999994997,,,,,,,,,,2.0,2.0,26.0,9.0,349.58432859999994,,,,,,,,,,,,,,,,,349.5704624,349.68446680000034,350.48423750000075,350.4698877000001,,,,,,,,,,,,,,,,,,,,,,,,,,,,,,,,,,,350.47618910000074,350.48423750000075,350.48423750000075,351.0537052,b,1.0,0.5630943999994997,,,,,,sub-090,1,stroop_test,59.924914082632846,
,,,,27.0,3.0,2.0,,,,,,,,,,,,,gelb,yellow,g,1.0,g,1.0,0.4722287999993568,,,,,,,,,,2.0,3.0,27.0,11.0,351.0676437000002,,,,,,,,,,,,,,,,,351.0542728999999,351.1677098,351.96771380000064,351.9522568000002,,,,,,,,,,,,,,,,,,,,,,,,,,,,,,,,,,,351.9529480000001,351.96771380000064,351.96771380000064,352.4532213000002,g,1.0,0.4722287999993568,,,,,,sub-090,1,stroop_test,59.924914082632846,
,,,,28.0,4.0,2.0,,,,,,,,,,,,,blau,red,r,0.0,r,1.0,0.5124470999999176,,,,,,,,,,2.0,4.0,28.0,4.0,352.4675782000004,,,,,,,,,,,,,,,,,352.45381610000004,352.5676768000003,353.3676802,353.35249040000053,,,,,,,,,,,,,,,,,,,,,,,,,,,,,,,,,,,353.3581542000002,353.3676802,353.3676802,353.8868646000001,r,1.0,0.5124470999999176,,,,,,sub-090,1,stroop_test,59.924914082632846,
,,,,29.0,5.0,2.0,,,,,,,,,,,,,rot,red,r,1.0,r,1.0,0.4923123999997187,,,,,,,,,,2.0,5.0,29.0,1.0,353.9009726000004,,,,,,,,,,,,,,,,,353.8874566000004,354.0009742000002,354.8010053000007,354.7858294000007,,,,,,,,,,,,,,,,,,,,,,,,,,,,,,,,,,,354.7923429000002,354.8010053000007,354.8010053000007,355.3038810000008,r,1.0,0.4923123999997187,,,,,,sub-090,1,stroop_test,59.924914082632846,
,,,,30.0,6.0,2.0,,,,,,,,,,,,,blau,blue,b,1.0,b,1.0,0.6817492999998649,,,,,,,,,,2.0,6.0,30.0,6.0,355.31782470000053,,,,,,,,,,,,,,,,,355.3045692000005,355.6677462000007,356.4677271999999,356.45310190000055,,,,,,,,,,,,,,,,,,,,,,,,,,,,,,,,,,,356.4586798,356.4677271999999,356.4677271999999,357.1541100000004,b,1.0,0.6817492999998649,,,,,,sub-090,1,stroop_test,59.924914082632846,
,,,,31.0,7.0,2.0,,,,,,,,,,,,,rot,blue,b,0.0,b,1.0,0.8666212000007363,,,,,,,,,,2.0,7.0,31.0,2.0,357.1676658000006,,,,,,,,,,,,,,,,,357.1547268000004,357.967662,358.76761720000013,358.75241989999995,,,,,,,,,,,,,,,,,,,,,,,,,,,,,,,,,,,358.7575919000001,358.76761720000013,358.76761720000013,359.6368013000001,b,1.0,0.8666212000007363,,,,,,sub-090,1,stroop_test,59.924914082632846,
,,,,32.0,8.0,2.0,,,,,,,,,,,,,rot,yellow,g,0.0,g,1.0,0.6139623999997639,,,,,,,,,,2.0,8.0,32.0,3.0,359.6510732000006,,,,,,,,,,,,,,,,,359.63735840000027,360.4509302000006,361.2511479000004,361.2359503000007,,,,,,,,,,,,,,,,,,,,,,,,,,,,,,,,,,,361.2366793000001,361.2511479000004,361.2511479000004,361.8700722000003,g,1.0,0.6139623999997639,,,,,,sub-090,1,stroop_test,59.924914082632846,
,,,,33.0,9.0,2.0,,,,,,,,,,,,,gelb,red,r,0.0,r,1.0,0.5651898999994955,,,,,,,,,,2.0,9.0,33.0,8.0,361.8843036000008,,,,,,,,,,,,,,,,,361.8705857000005,361.9845095999999,362.7845763000005,362.7689659000007,,,,,,,,,,,,,,,,,,,,,,,,,,,,,,,,,,,362.7757046000006,362.7845763000005,362.7845763000005,363.3536439,r,1.0,0.5651898999994955,,,,,,sub-090,1,stroop_test,59.924914082632846,
,,,,34.0,10.0,2.0,,,,,,,,,,,,,rot,red,r,1.0,r,1.0,0.4775587000003725,,,,,,,,,,2.0,10.0,34.0,0.0,363.3676562999999,,,,,,,,,,,,,,,,,363.35418800000025,363.7177955000007,364.5178391,364.5022182000002,,,,,,,,,,,,,,,,,,,,,,,,,,,,,,,,,,,364.5071347000003,364.5178391,364.5178391,365.0041518000007,r,1.0,0.4775587000003725,,,,,,sub-090,1,stroop_test,59.924914082632846,
,,,,35.0,11.0,2.0,,,,,,,,,,,,,gelb,yellow,g,1.0,g,1.0,0.6298298000001523,,,,,,,,,,2.0,11.0,35.0,10.0,365.01780210000015,,,,,,,,,,,,,,,,,365.0047336000007,366.2176959000008,367.0175769000007,367.0027650000002,,,,,,,,,,,,,,,,,,,,,,,,,,,,,,,,,,,367.0099780999999,367.0175769000007,367.0175769000007,367.65330880000056,g,1.0,0.6298298000001523,,,,,,sub-090,1,stroop_test,59.924914082632846,
,,,,36.0,0.0,3.0,,,,,,,,,,,,,blau,blue,b,1.0,b,1.0,0.4237003999996886,,,,,,,,,,3.0,0.0,36.0,5.0,367.6677773000001,,,,,,,,,,,,,,,,,367.6538907000004,368.0177521000005,368.8177003999999,368.8025587000002,,,,,,,,,,,,,,,,,,,,,,,,,,,,,,,,,,,368.80871750000006,368.8177003999999,368.8177003999999,369.2532719000001,b,1.0,0.4237003999996886,,,,,,sub-090,1,stroop_test,59.924914082632846,
,,,,37.0,1.0,3.0,,,,,,,,,,,,,gelb,red,r,0.0,r,1.0,0.4762996999997995,,,,,,,,,,3.0,1.0,37.0,8.0,369.26789910000025,,,,,,,,,,,,,,,,,369.25382140000056,370.4678693000005,371.2678415,371.2522876000003,,,,,,,,,,,,,,,,,,,,,,,,,,,,,,,,,,,371.2583168000001,371.2678415,371.2678415,371.7535775000006,r,1.0,0.4762996999997995,,,,,,sub-090,1,stroop_test,59.924914082632846,
,,,,38.0,2.0,3.0,,,,,,,,,,,,,rot,blue,b,0.0,b,1.0,0.6672377000004417,,,,,,,,,,3.0,2.0,38.0,2.0,371.76772470000014,,,,,,,,,,,,,,,,,371.7541731000001,371.8677061000008,372.6677781000008,372.6525950000005,,,,,,,,,,,,,,,,,,,,,,,,,,,,,,,,,,,372.65751050000017,372.6677781000008,372.6677781000008,373.3379017000007,b,1.0,0.6672377000004417,,,,,,sub-090,1,stroop_test,59.924914082632846,
,,,,39.0,3.0,3.0,,,,,,,,,,,,,blau,red,r,0.0,r,1.0,0.7295581999997012,,,,,,,,,,3.0,3.0,39.0,4.0,373.35170130000006,,,,,,,,,,,,,,,,,373.338479,373.4510498,374.2511705000006,374.2360355999999,,,,,,,,,,,,,,,,,,,,,,,,,,,,,,,,,,,374.2419226000002,374.2511705000006,374.2511705000006,374.9867525,r,1.0,0.7295581999997012,,,,,,sub-090,1,stroop_test,59.924914082632846,
,,,,40.0,4.0,3.0,,,,,,,,,,,,,blau,yellow,g,0.0,g,1.0,0.3700877000001128,,,,,,,,,,3.0,4.0,40.0,7.0,375.00106790000063,,,,,,,,,,,,,,,,,374.9872609000004,375.8011422,376.60087530000055,376.58559520000017,,,,,,,,,,,,,,,,,,,,,,,,,,,,,,,,,,,376.5863549000005,376.60087530000055,376.60087530000055,376.98667810000006,g,1.0,0.3700877000001128,,,,,,sub-090,1,stroop_test,59.924914082632846,
,,,,41.0,5.0,3.0,,,,,,,,,,,,,rot,red,r,1.0,r,1.0,0.4326150000006237,,,,,,,,,,3.0,5.0,41.0,0.0,377.0011570000006,,,,,,,,,,,,,,,,,376.9873243000002,378.2012143000002,379.0009833000004,378.9856032000007,,,,,,,,,,,,,,,,,,,,,,,,,,,,,,,,,,,378.9915796000005,379.0009833000004,379.0009833000004,379.43742610000027,r,1.0,0.4326150000006237,,,,,,sub-090,1,stroop_test,59.924914082632846,
,,,,42.0,6.0,3.0,,,,,,,,,,,,,gelb,yellow,g,1.0,g,1.0,0.7634725000007165,,,,,,,,,,3.0,6.0,42.0,11.0,379.4510993000004,,,,,,,,,,,,,,,,,379.43799320000016,379.55082930000026,380.3508700000002,380.3357957000008,,,,,,,,,,,,,,,,,,,,,,,,,,,,,,,,,,,380.3425188000001,380.3508700000002,380.3508700000002,381.1200951999999,g,1.0,0.7634725000007165,,,,,,sub-090,1,stroop_test,59.924914082632846,
,,,,43.0,7.0,3.0,,,,,,,,,,,,,rot,yellow,g,0.0,g,1.0,0.8846703999997771,,,,,,,,,,3.0,7.0,43.0,3.0,381.13418550000006,,,,,,,,,,,,,,,,,381.1206613000004,382.3344276000007,383.13461760000064,383.1189823000004,,,,,,,,,,,,,,,,,,,,,,,,,,,,,,,,,,,383.1240155000005,383.13461760000064,383.13461760000064,384.0366610000001,g,1.0,0.8846703999997771,,,,,,sub-090,1,stroop_test,59.924914082632846,
,,,,44.0,8.0,3.0,,,,,,,,,,,,,gelb,yellow,g,1.0,g,1.0,0.452463099999477,,,,,,,,,,3.0,8.0,44.0,10.0,384.0509039000008,,,,,,,,,,,,,,,,,384.0372118000005,384.8511296000006,385.6509470000001,385.63542250000046,,,,,,,,,,,,,,,,,,,,,,,,,,,,,,,,,,,385.6417193000007,385.6509470000001,385.6509470000001,386.11982330000046,g,1.0,0.452463099999477,,,,,,sub-090,1,stroop_test,59.924914082632846,
,,,,45.0,9.0,3.0,,,,,,,,,,,,,blau,blue,b,1.0,b,1.0,0.4193142000003718,,,,,,,,,,3.0,9.0,45.0,6.0,386.1344341000004,,,,,,,,,,,,,,,,,386.1204346000004,387.3344609000005,388.1345538000005,388.118665,,,,,,,,,,,,,,,,,,,,,,,,,,,,,,,,,,,388.1250098999999,388.1345538000005,388.1345538000005,388.5697206000005,b,1.0,0.4193142000003718,,,,,,sub-090,1,stroop_test,59.924914082632846,
,,,,46.0,10.0,3.0,,,,,,,,,,,,,gelb,blue,b,0.0,b,1.0,0.5982274999996662,,,,,,,,,,3.0,10.0,46.0,9.0,388.5841919000004,,,,,,,,,,,,,,,,,388.5703110000004,388.9345167000001,389.7347579000007,389.7188248000002,,,,,,,,,,,,,,,,,,,,,,,,,,,,,,,,,,,389.7278280999999,389.7347579000007,389.7347579000007,390.3377377000006,b,1.0,0.5982274999996662,,,,,,sub-090,1,stroop_test,59.924914082632846,
,,,,47.0,11.0,3.0,,,,,,,,,,,,,rot,red,r,1.0,r,1.0,0.6537227999997413,,,,,,,,,,3.0,11.0,47.0,1.0,390.351025,,,,,,,,,,,,,,,,,390.338683,390.45095690000016,391.2512248000003,391.2356341000004,,,,,,,,,,,,,,,,,,,,,,,,,,,,,,,,,,,391.2412981000007,391.2512248000003,391.2512248000003,391.9201444,r,1.0,0.6537227999997413,,,,,,sub-090,1,stroop_test,59.924914082632846,
,,,,48.0,0.0,4.0,,,,,,,,,,,,,rot,red,r,1.0,r,1.0,0.5356160000001182,,,,,,,,,,4.0,0.0,48.0,1.0,391.9342041,,,,,,,,,,,,,,,,,391.9206899999999,392.7343845000005,393.5343413999999,393.5190052000007,,,,,,,,,,,,,,,,,,,,,,,,,,,,,,,,,,,393.51971240000057,393.5343413999999,393.5343413999999,394.0862219999999,r,1.0,0.5356160000001182,,,,,,sub-090,1,stroop_test,59.924914082632846,
,,,,49.0,1.0,4.0,,,,,,,,,,,,,rot,blue,b,0.0,b,1.0,0.6513733000001594,,,,,,,,,,4.0,1.0,49.0,2.0,394.1007594000002,,,,,,,,,,,,,,,,,394.0867723000001,394.4511490000005,395.2508373999999,395.2360891000008,,,,,,,,,,,,,,,,,,,,,,,,,,,,,,,,,,,395.2368491000007,395.2508373999999,395.2508373999999,395.9051483000003,b,1.0,0.6513733000001594,,,,,,sub-090,1,stroop_test,59.924914082632846,
,,,,50.0,2.0,4.0,,,,,,,,,,,,,gelb,red,r,0.0,r,1.0,0.7017056000004231,,,,,,,,,,4.0,2.0,50.0,8.0,395.9178810000003,,,,,,,,,,,,,,,,,395.90566600000056,397.1177348000001,397.91778280000017,397.9022352000002,,,,,,,,,,,,,,,,,,,,,,,,,,,,,,,,,,,397.9081412000005,397.91778280000017,397.91778280000017,398.6363670999999,r,1.0,0.7017056000004231,,,,,,sub-090,1,stroop_test,59.924914082632846,
,,,,51.0,3.0,4.0,,,,,,,,,,,,,rot,red,r,1.0,r,1.0,0.4863218000000415,,,,,,,,,,4.0,3.0,51.0,0.0,398.6510613999999,,,,,,,,,,,,,,,,,398.6369023000007,398.7509709000005,399.5512302000007,399.5358719000005,,,,,,,,,,,,,,,,,,,,,,,,,,,,,,,,,,,399.54132690000006,399.5512302000007,399.5512302000007,400.0540432000007,r,1.0,0.4863218000000415,,,,,,sub-090,1,stroop_test,59.924914082632846,
,,,,52.0,4.0,4.0,,,,,,,,,,,,,blau,blue,b,1.0,b,1.0,0.5998802000003707,,,,,,,,,,4.0,4.0,52.0,6.0,400.0673778999999,,,,,,,,,,,,,,,,,400.0546895000007,400.8675763000001,401.6676392,401.6519674000001,,,,,,,,,,,,,,,,,,,,,,,,,,,,,,,,,,,401.6577754,401.6676392,401.6676392,402.2703188000005,b,1.0,0.5998802000003707,,,,,,sub-090,1,stroop_test,59.924914082632846,
,,,,53.0,5.0,4.0,,,,,,,,,,,,,blau,blue,b,1.0,b,1.0,0.5471536999993987,,,,,,,,,,4.0,5.0,53.0,5.0,402.2844746999999,,,,,,,,,,,,,,,,,402.2709816000006,402.6341261000007,403.4344083000005,403.4190690000005,,,,,,,,,,,,,,,,,,,,,,,,,,,,,,,,,,,403.4197617,403.4344083000005,403.4344083000005,403.98631019999993,b,1.0,0.5471536999993987,,,,,,sub-090,1,stroop_test,59.924914082632846,
,,,,54.0,6.0,4.0,,,,,,,,,,,,,gelb,yellow,g,1.0,g,1.0,0.4622518999995009,,,,,,,,,,4.0,6.0,54.0,11.0,404.0010696,,,,,,,,,,,,,,,,,403.9868231,404.1008230000007,404.9008203000003,404.8860902000006,,,,,,,,,,,,,,,,,,,,,,,,,,,,,,,,,,,404.8931977000002,404.9008203000003,404.9008203000003,405.3699821,g,1.0,0.4622518999995009,,,,,,sub-090,1,stroop_test,59.924914082632846,
,,,,55.0,7.0,4.0,,,,,,,,,,,,,gelb,blue,b,0.0,b,1.0,0.9211255999998684,,,,,,,,,,4.0,7.0,55.0,9.0,405.3844663,,,,,,,,,,,,,,,,,405.3704980000002,406.5843025000004,407.3840555000006,407.36911260000034,,,,,,,,,,,,,,,,,,,,,,,,,,,,,,,,,,,407.3697748000004,407.3840555000006,407.3840555000006,408.3201257999999,b,1.0,0.9211255999998684,,,,,,sub-090,1,stroop_test,59.924914082632846,
,,,,56.0,8.0,4.0,,,,,,,,,,,,,gelb,yellow,g,1.0,g,1.0,0.7787994999998773,,,,,,,,,,4.0,8.0,56.0,10.0,408.3340939,,,,,,,,,,,,,,,,,408.3206657999999,408.4341586000001,409.2342154000007,409.2188920000008,,,,,,,,,,,,,,,,,,,,,,,,,,,,,,,,,,,409.21958110000014,409.2342154000007,409.2342154000007,410.0198071000004,g,1.0,0.7787994999998773,,,,,,sub-090,1,stroop_test,59.924914082632846,
,,,,57.0,9.0,4.0,,,,,,,,,,,,,rot,yellow,g,0.0,g,1.0,0.8638159000001906,,,,,,,,,,4.0,9.0,57.0,3.0,410.0342975000003,,,,,,,,,,,,,,,,,410.0203551000004,410.8342413999999,411.6342520000008,411.6189350000004,,,,,,,,,,,,,,,,,,,,,,,,,,,,,,,,,,,411.62393390000034,411.6342520000008,411.6342520000008,412.5037730000004,g,1.0,0.8638159000001906,,,,,,sub-090,1,stroop_test,59.924914082632846,
,,,,58.0,10.0,4.0,,,,,,,,,,,,,blau,red,r,0.0,r,1.0,0.659867999999733,,,,,,,,,,4.0,10.0,58.0,4.0,412.5175443000008,,,,,,,,,,,,,,,,,412.5043845,413.3175593000005,414.1174631000004,414.1024296000005,,,,,,,,,,,,,,,,,,,,,,,,,,,,,,,,,,,414.1086445000001,414.1174631000004,414.1174631000004,414.78641830000015,r,1.0,0.659867999999733,,,,,,sub-090,1,stroop_test,59.924914082632846,
,,,,59.0,11.0,4.0,,,,,,,,,,,,,blau,yellow,g,0.0,g,1.0,0.7141528000001927,,,,,,,,,,4.0,11.0,59.0,7.0,414.8007864000001,,,,,,,,,,,,,,,,,414.7869365000006,414.9011319000001,415.70100830000047,415.6858079000003,,,,,,,,,,,,,,,,,,,,,,,,,,,,,,,,,,,415.6865020000005,415.70100830000047,415.70100830000047,416.4198746000002,g,1.0,0.7141528000001927,,,,,,sub-090,1,stroop_test,59.924914082632846,
,,,,60.0,0.0,5.0,,,,,,,,,,,,,blau,yellow,g,0.0,g,1.0,0.6681484000000637,,,,,,,,,,5.0,0.0,60.0,7.0,416.4341504000004,,,,,,,,,,,,,,,,,416.42041430000063,417.6343706000007,418.4341975000007,418.4187189000004,,,,,,,,,,,,,,,,,,,,,,,,,,,,,,,,,,,418.4194656,418.4341975000007,418.4341975000007,419.1196074,g,1.0,0.6681484000000637,,,,,,sub-090,1,stroop_test,59.924914082632846,
,,,,61.0,1.0,5.0,,,,,,,,,,,,,gelb,red,r,0.0,r,1.0,0.5252282999999807,,,,,,,,,,5.0,1.0,61.0,8.0,419.1343786000007,,,,,,,,,,,,,,,,,419.1202133000006,419.2343160999999,420.0340965000005,420.0191956000008,,,,,,,,,,,,,,,,,,,,,,,,,,,,,,,,,,,420.0258551000006,420.0340965000005,420.0340965000005,420.57012680000025,r,1.0,0.5252282999999807,,,,,,sub-090,1,stroop_test,59.924914082632846,
,,,,62.0,2.0,5.0,,,,,,,,,,,,,rot,blue,b,0.0,b,1.0,0.4103701000003639,,,,,,,,,,5.0,2.0,62.0,2.0,420.5843009,,,,,,,,,,,,,,,,,420.5707865000004,421.7841345000006,422.5841605000005,422.56906400000025,,,,,,,,,,,,,,,,,,,,,,,,,,,,,,,,,,,422.57674170000064,422.5841605000005,422.5841605000005,423.0033091000005,b,1.0,0.4103701000003639,,,,,,sub-090,1,stroop_test,59.924914082632846,
,,,,63.0,3.0,5.0,,,,,,,,,,,,,gelb,yellow,g,1.0,g,1.0,0.5810358999997334,,,,,,,,,,5.0,3.0,63.0,10.0,423.0176046000006,,,,,,,,,,,,,,,,,423.0038503000005,423.1175045,423.9175229000002,423.9023095000002,,,,,,,,,,,,,,,,,,,,,,,,,,,,,,,,,,,423.9085487000002,423.9175229000002,423.9175229000002,424.50328160000026,g,1.0,0.5810358999997334,,,,,,sub-090,1,stroop_test,59.924914082632846,
,,,,64.0,4.0,5.0,,,,,,,,,,,,,rot,yellow,g,0.0,g,1.0,0.5846582000003764,,,,,,,,,,5.0,4.0,64.0,3.0,424.5174611000002,,,,,,,,,,,,,,,,,424.5037941000001,425.3176913000007,426.11745620000056,426.1021733000007,,,,,,,,,,,,,,,,,,,,,,,,,,,,,,,,,,,426.10761900000034,426.11745620000056,426.11745620000056,426.71958540000014,g,1.0,0.5846582000003764,,,,,,sub-090,1,stroop_test,59.924914082632846,
,,,,65.0,5.0,5.0,,,,,,,,,,,,,blau,blue,b,1.0,b,1.0,0.4113195999998424,,,,,,,,,,5.0,5.0,65.0,5.0,426.73413430000073,,,,,,,,,,,,,,,,,426.7201715000001,427.5342811999999,428.3340374,428.319168,,,,,,,,,,,,,,,,,,,,,,,,,,,,,,,,,,,428.3251671000007,428.3340374,428.3340374,428.7528272,b,1.0,0.4113195999998424,,,,,,sub-090,1,stroop_test,59.924914082632846,
,,,,66.0,6.0,5.0,,,,,,,,,,,,,rot,red,r,1.0,r,1.0,0.5938085999996474,,,,,,,,,,5.0,6.0,66.0,0.0,428.7674854000006,,,,,,,,,,,,,,,,,428.7534362000006,428.86776700000064,429.6676696000004,429.6524821000002,,,,,,,,,,,,,,,,,,,,,,,,,,,,,,,,,,,429.65777460000027,429.6676696000004,429.6676696000004,430.2694949000006,r,1.0,0.5938085999996474,,,,,,sub-090,1,stroop_test,59.924914082632846,
,,,,67.0,7.0,5.0,,,,,,,,,,,,,blau,blue,b,1.0,b,1.0,0.6148285999997825,,,,,,,,,,5.0,7.0,67.0,6.0,430.28421590000016,,,,,,,,,,,,,,,,,430.2700176000008,431.4842499000006,432.2842874000007,432.26885930000026,,,,,,,,,,,,,,,,,,,,,,,,,,,,,,,,,,,432.2762622,432.2842874000007,432.2842874000007,432.9032344000007,b,1.0,0.6148285999997825,,,,,,sub-090,1,stroop_test,59.924914082632846,
,,,,68.0,8.0,5.0,,,,,,,,,,,,,rot,red,r,1.0,r,1.0,0.5812247000003481,,,,,,,,,,5.0,8.0,68.0,1.0,432.9174053000006,,,,,,,,,,,,,,,,,432.9038162000006,434.1175723000006,434.9174067000004,434.9020989999999,,,,,,,,,,,,,,,,,,,,,,,,,,,,,,,,,,,434.9073853,434.9174067000004,434.9174067000004,435.5027356999999,r,1.0,0.5812247000003481,,,,,,sub-090,1,stroop_test,59.924914082632846,
,,,,69.0,9.0,5.0,,,,,,,,,,,,,blau,red,r,0.0,r,1.0,0.7683852999998635,,,,,,,,,,5.0,9.0,69.0,4.0,435.5175771000004,,,,,,,,,,,,,,,,,435.5033657000004,435.8676610000002,436.6678861,436.6521868,,,,,,,,,,,,,,,,,,,,,,,,,,,,,,,,,,,436.6585257000006,436.6678861,436.6678861,437.4531089000002,r,1.0,0.7683852999998635,,,,,,sub-090,1,stroop_test,59.924914082632846,
,,,,70.0,10.0,5.0,,,,,,,,,,,,,gelb,blue,b,0.0,b,1.0,0.5668418999994174,,,,,,,,,,5.0,10.0,70.0,9.0,437.4673910000001,,,,,,,,,,,,,,,,,437.4537119000006,438.6674798000004,439.4674365999999,439.4522531000002,,,,,,,,,,,,,,,,,,,,,,,,,,,,,,,,,,,439.45880620000025,439.4674365999999,439.4674365999999,440.0371836000004,b,1.0,0.5668418999994174,,,,,,sub-090,1,stroop_test,59.924914082632846,
,,,,71.0,11.0,5.0,,,,,,,,,,,,,gelb,yellow,g,1.0,g,1.0,0.482473399999435,,,,,,,,,,5.0,11.0,71.0,11.0,440.0507315000005,,,,,,,,,,,,,,,,,440.0377898000006,440.4008144,441.2010651000001,441.1857804000001,,,,,,,,,,,,,,,,,,,,,,,,,,,,,,,,,,,441.1864814000001,441.2010651000001,441.2010651000001,441.6868542000002,g,1.0,0.482473399999435,,,,,,sub-090,1,stroop_test,59.924914082632846,
,,,,72.0,0.0,6.0,,,,,,,,,,,,,blau,blue,b,1.0,b,1.0,0.5769331999999849,,,,,,,,,,6.0,0.0,72.0,6.0,441.7007801,,,,,,,,,,,,,,,,,441.6874180000004,442.9009547000005,443.70069820000026,443.6853592000007,,,,,,,,,,,,,,,,,,,,,,,,,,,,,,,,,,,443.6913036000005,443.70069820000026,443.70069820000026,444.2865245000002,b,1.0,0.5769331999999849,,,,,,sub-090,1,stroop_test,59.924914082632846,
,,,,73.0,1.0,6.0,,,,,,,,,,,,,gelb,yellow,g,1.0,g,1.0,1.146514699999898,,,,,,,,,,6.0,1.0,73.0,10.0,444.3008544000004,,,,,,,,,,,,,,,,,444.2870356000003,444.6508755000005,445.4508914000007,445.4356998000003,,,,,,,,,,,,,,,,,,,,,,,,,,,,,,,,,,,445.4432024000007,445.4508914000007,445.4508914000007,446.6028931999999,g,1.0,1.146514699999898,,,,,,sub-090,1,stroop_test,59.924914082632846,
,,,,74.0,2.0,6.0,,,,,,,,,,,,,gelb,blue,b,0.0,b,1.0,0.5219982999997228,,,,,,,,,,6.0,2.0,74.0,9.0,446.6176006000005,,,,,,,,,,,,,,,,,446.60346930000014,447.8174748000001,448.6174871000003,448.6021926000003,,,,,,,,,,,,,,,,,,,,,,,,,,,,,,,,,,,448.6028677000004,448.6174871000003,448.6174871000003,449.1529509000002,b,1.0,0.5219982999997228,,,,,,sub-090,1,stroop_test,59.924914082632846,
,,,,75.0,3.0,6.0,,,,,,,,,,,,,blau,blue,b,1.0,b,1.0,0.5034955000000991,,,,,,,,,,6.0,3.0,75.0,5.0,449.1673695,,,,,,,,,,,,,,,,,449.1535815000007,449.5173719000004,450.3171445000007,450.30168390000017,,,,,,,,,,,,,,,,,,,,,,,,,,,,,,,,,,,450.30867190000026,450.3171445000007,450.3171445000007,450.8365999000007,b,1.0,0.5034955000000991,,,,,,sub-090,1,stroop_test,59.924914082632846,
,,,,76.0,4.0,6.0,,,,,,,,,,,,,rot,red,r,1.0,r,1.0,0.5872233999998571,,,,,,,,,,6.0,4.0,76.0,0.0,450.8505090000008,,,,,,,,,,,,,,,,,450.8372251999999,450.9506907000005,451.7507236000001,451.7354019000004,,,,,,,,,,,,,,,,,,,,,,,,,,,,,,,,,,,451.74112950000017,451.7507236000001,451.7507236000001,452.35306540000056,r,1.0,0.5872233999998571,,,,,,sub-090,1,stroop_test,59.924914082632846,
,,,,77.0,5.0,6.0,,,,,,,,,,,,,rot,yellow,g,0.0,g,1.0,0.7195306000003256,,,,,,,,,,6.0,5.0,77.0,3.0,452.36743280000064,,,,,,,,,,,,,,,,,452.3536423000005,452.7175139000001,453.5177458000008,453.5023178000001,,,,,,,,,,,,,,,,,,,,,,,,,,,,,,,,,,,453.5030313000007,453.5177458000008,453.5177458000008,454.25300740000057,g,1.0,0.7195306000003256,,,,,,sub-090,1,stroop_test,59.924914082632846,
,,,,78.0,6.0,6.0,,,,,,,,,,,,,gelb,yellow,g,1.0,g,1.0,0.9750281999995424,,,,,,,,,,6.0,6.0,78.0,11.0,454.2673774000005,,,,,,,,,,,,,,,,,454.2536209,455.06764360000034,455.8695888000002,455.8523175,,,,,,,,,,,,,,,,,,,,,,,,,,,,,,,,,,,455.8615023000002,455.8695888000002,455.8695888000002,456.85334150000017,g,1.0,0.9750281999995424,,,,,,sub-090,1,stroop_test,59.924914082632846,
,,,,79.0,7.0,6.0,,,,,,,,,,,,,rot,red,r,1.0,r,1.0,0.4880121000005601,,,,,,,,,,6.0,7.0,79.0,1.0,456.8674673000005,,,,,,,,,,,,,,,,,456.85421700000006,457.21759310000016,458.0174862000004,458.00229170000057,,,,,,,,,,,,,,,,,,,,,,,,,,,,,,,,,,,458.0075708000004,458.0174862000004,458.0174862000004,458.5195597000002,r,1.0,0.4880121000005601,,,,,,sub-090,1,stroop_test,59.924914082632846,
,,,,80.0,8.0,6.0,,,,,,,,,,,,,rot,blue,b,0.0,b,1.0,0.3745312999999441,,,,,,,,,,6.0,8.0,80.0,2.0,458.5344495,,,,,,,,,,,,,,,,,458.5200703999999,458.8843377000003,459.6841477000007,459.66873660000056,,,,,,,,,,,,,,,,,,,,,,,,,,,,,,,,,,,459.6694994,459.6841477000007,459.6841477000007,460.0697707,b,1.0,0.3745312999999441,,,,,,sub-090,1,stroop_test,59.924914082632846,
,,,,81.0,9.0,6.0,,,,,,,,,,,,,gelb,red,r,0.0,r,1.0,0.9825907000004008,,,,,,,,,,6.0,9.0,81.0,8.0,460.0843697,,,,,,,,,,,,,,,,,460.0704217000002,461.2843753000007,462.0839829000006,462.0685877000005,,,,,,,,,,,,,,,,,,,,,,,,,,,,,,,,,,,462.0757925000007,462.0839829000006,462.0839829000006,463.0697146000002,r,1.0,0.9825907000004008,,,,,,sub-090,1,stroop_test,59.924914082632846,
,,,,82.0,10.0,6.0,,,,,,,,,,,,,blau,yellow,g,0.0,g,1.0,0.5598955999994359,,,,,,,,,,6.0,10.0,82.0,7.0,463.0845356,,,,,,,,,,,,,,,,,463.0702289999999,464.28421830000025,465.08416000000034,465.0689780000002,,,,,,,,,,,,,,,,,,,,,,,,,,,,,,,,,,,465.0750089000003,465.08416000000034,465.08416000000034,465.6529811999999,g,1.0,0.5598955999994359,,,,,,sub-090,1,stroop_test,59.924914082632846,
,,,,83.0,11.0,6.0,,,,,,,,,,,,,blau,red,r,0.0,r,1.0,0.6669759999995222,,,,,,,,,,6.0,11.0,83.0,4.0,465.6677100000006,,,,,,,,,,,,,,,,,465.6534975000004,466.46715480000057,467.2671264999999,467.2513039000005,,,,,,,,,,,,,,,,,,,,,,,,,,,,,,,,,,,467.2518382000008,467.2671264999999,467.2671264999999,467.9513678000003,r,1.0,0.6669759999995222,,,,,,sub-090,1,stroop_test,59.924914082632846,
,,,,84.0,0.0,7.0,,,,,,,,,,,,,gelb,yellow,g,1.0,g,1.0,0.6100219999998444,,,,,,,,,,7.0,0.0,84.0,10.0,467.9667018,,,,,,,,,,,,,,,,,467.9518788000005,469.1671688000006,469.9672223000007,469.9518758000004,,,,,,,,,,,,,,,,,,,,,,,,,,,,,,,,,,,469.9576568000002,469.9672223000007,469.9672223000007,470.58572640000057,g,1.0,0.6100219999998444,,,,,,sub-090,1,stroop_test,59.924914082632846,
,,,,85.0,1.0,7.0,,,,,,,,,,,,,blau,blue,b,1.0,b,1.0,0.6477587999997922,,,,,,,,,,7.0,1.0,85.0,6.0,470.6004005000004,,,,,,,,,,,,,,,,,470.58620340000016,470.70056530000056,471.5004779000001,471.4849438000001,,,,,,,,,,,,,,,,,,,,,,,,,,,,,,,,,,,471.4902794,471.5004779000001,471.5004779000001,472.1523095000002,b,1.0,0.6477587999997922,,,,,,sub-090,1,stroop_test,59.924914082632846,
,,,,86.0,2.0,7.0,,,,,,,,,,,,,gelb,yellow,g,1.0,g,1.0,0.735492200000408,,,,,,,,,,7.0,2.0,86.0,11.0,472.1671339000004,,,,,,,,,,,,,,,,,472.1528474000006,472.5170681,473.3170749000001,473.3014487,,,,,,,,,,,,,,,,,,,,,,,,,,,,,,,,,,,473.30706050000026,473.3170749000001,473.3170749000001,474.06868440000017,g,1.0,0.735492200000408,,,,,,sub-090,1,stroop_test,59.924914082632846,
,,,,87.0,3.0,7.0,,,,,,,,,,,,,gelb,red,r,0.0,r,1.0,0.7365871999991214,,,,,,,,,,7.0,3.0,87.0,8.0,474.0838542000001,,,,,,,,,,,,,,,,,474.0691872000007,474.4337474000004,475.2340075000002,475.2179211000002,,,,,,,,,,,,,,,,,,,,,,,,,,,,,,,,,,,475.2183708000002,475.2340075000002,475.2340075000002,475.9853063000001,r,1.0,0.7365871999991214,,,,,,sub-090,1,stroop_test,59.924914082632846,
,,,,88.0,4.0,7.0,,,,,,,,,,,,,gelb,blue,b,0.0,b,1.0,0.6492133000001559,,,,,,,,,,7.0,4.0,88.0,9.0,476.0006534000004,,,,,,,,,,,,,,,,,475.9856726000007,476.8007397000001,477.6007057000006,477.58557500000006,,,,,,,,,,,,,,,,,,,,,,,,,,,,,,,,,,,477.5860938000005,477.6007057000006,477.6007057000006,478.2532633999999,b,1.0,0.6492133000001559,,,,,,sub-090,1,stroop_test,59.924914082632846,
,,,,89.0,5.0,7.0,,,,,,,,,,,,,rot,red,r,1.0,r,1.0,0.6085182000006171,,,,,,,,,,7.0,5.0,89.0,0.0,478.26752280000073,,,,,,,,,,,,,,,,,478.2538441000006,478.6174594000004,479.4192082,479.4021966,,,,,,,,,,,,,,,,,,,,,,,,,,,,,,,,,,,479.41203190000033,479.4192082,479.4192082,480.03660780000064,r,1.0,0.6085182000006171,,,,,,sub-090,1,stroop_test,59.924914082632846,
,,,,90.0,6.0,7.0,,,,,,,,,,,,,rot,blue,b,0.0,b,1.0,0.687068399999589,,,,,,,,,,7.0,6.0,90.0,2.0,480.0509216,,,,,,,,,,,,,,,,,480.0372708000005,480.1507642000006,480.9507315999999,480.9352638999999,,,,,,,,,,,,,,,,,,,,,,,,,,,,,,,,,,,480.9359191000003,480.9507315999999,480.9507315999999,481.6530429000004,b,1.0,0.687068399999589,,,,,,sub-090,1,stroop_test,59.924914082632846,
,,,,91.0,7.0,7.0,,,,,,,,,,,,,blau,red,r,0.0,g,0.0,0.7307130999997753,,,,,,,,,,7.0,7.0,91.0,4.0,481.6674859000004,,,,,,,,,,,,,,,,,481.6535731000004,482.8672266000003,483.6674920000005,483.6520724000002,,,,,,,,,,,,,,,,,,,,,,,,,,,,,,,,,,,483.6576579000002,483.6674920000005,483.6674920000005,484.4030829000003,g,0.0,0.7307130999997753,,,,,,sub-090,1,stroop_test,59.924914082632846,
,,,,92.0,8.0,7.0,,,,,,,,,,,,,rot,red,r,1.0,r,1.0,0.7524500000008629,,,,,,,,,,7.0,8.0,92.0,1.0,484.4173996,,,,,,,,,,,,,,,,,484.40369310000005,485.6172311999999,486.4173220000002,486.4024343000001,,,,,,,,,,,,,,,,,,,,,,,,,,,,,,,,,,,486.407827,486.4173220000002,486.4173220000002,487.1858422000005,r,1.0,0.7524500000008629,,,,,,sub-090,1,stroop_test,59.924914082632846,
,,,,93.0,9.0,7.0,,,,,,,,,,,,,blau,blue,b,1.0,b,1.0,0.6692331000003833,,,,,,,,,,7.0,9.0,93.0,5.0,487.2005255000004,,,,,,,,,,,,,,,,,487.18641900000057,488.4005944000001,489.2006735000005,489.1849273000007,,,,,,,,,,,,,,,,,,,,,,,,,,,,,,,,,,,489.1903837,489.2006735000005,489.2006735000005,489.8855193,b,1.0,0.6692331000003833,,,,,,sub-090,1,stroop_test,59.924914082632846,
,,,,94.0,10.0,7.0,,,,,,,,,,,,,blau,yellow,g,0.0,g,1.0,0.6668831999995746,,,,,,,,,,7.0,10.0,94.0,7.0,489.9005895,,,,,,,,,,,,,,,,,489.88600140000017,490.7008362000006,491.5008725000007,491.4855279000003,,,,,,,,,,,,,,,,,,,,,,,,,,,,,,,,,,,491.4861687000002,491.5008725000007,491.5008725000007,492.1700066000003,g,1.0,0.6668831999995746,,,,,,sub-090,1,stroop_test,59.924914082632846,
,,,,95.0,11.0,7.0,,,,,,,,,,,,,rot,yellow,g,0.0,g,1.0,0.6260717999994085,,,,,,,,,,7.0,11.0,95.0,3.0,492.1843967000004,,,,,,,,,,,,,,,,,492.1705188000005,492.98412610000014,493.7840167000004,493.7691533000007,,,,,,,,,,,,,,,,,,,,,,,,,,,,,,,,,,,493.77572490000057,493.7840167000004,493.7840167000004,494.419825,g,1.0,0.6260717999994085,,,,,,sub-090,1,stroop_test,59.924914082632846,
,,,,96.0,0.0,8.0,,,,,,,,,,,,,blau,blue,b,1.0,b,1.0,0.5015900999997029,,,,,,,,,,8.0,0.0,96.0,5.0,494.4341457999999,,,,,,,,,,,,,,,,,494.4203470000002,495.2341071999999,496.0341911000005,496.0192375000006,,,,,,,,,,,,,,,,,,,,,,,,,,,,,,,,,,,496.02520600000025,496.0341911000005,496.0341911000005,496.5529042000008,b,1.0,0.5015900999997029,,,,,,sub-090,1,stroop_test,59.924914082632846,
,,,,97.0,1.0,8.0,,,,,,,,,,,,,rot,red,r,1.0,r,1.0,0.5323459000001094,,,,,,,,,,8.0,1.0,97.0,1.0,496.56729150000047,,,,,,,,,,,,,,,,,496.5534233000008,497.7674176999999,498.5674945999999,498.5519750000003,,,,,,,,,,,,,,,,,,,,,,,,,,,,,,,,,,,498.5574851000001,498.5674945999999,498.5674945999999,499.1037194000001,r,1.0,0.5323459000001094,,,,,,sub-090,1,stroop_test,59.924914082632846,
,,,,98.0,2.0,8.0,,,,,,,,,,,,,rot,yellow,g,0.0,g,1.0,0.7800756999995428,,,,,,,,,,8.0,2.0,98.0,3.0,499.1174834000003,,,,,,,,,,,,,,,,,499.1042340000004,499.9176442000007,500.7173437000001,500.7021778000008,,,,,,,,,,,,,,,,,,,,,,,,,,,,,,,,,,,500.7028710000004,500.7173437000001,500.7173437000001,501.5032667000005,g,1.0,0.7800756999995428,,,,,,sub-090,1,stroop_test,59.924914082632846,
,,,,99.0,3.0,8.0,,,,,,,,,,,,,blau,yellow,g,0.0,g,1.0,0.5533188999997947,,,,,,,,,,8.0,3.0,99.0,7.0,501.5173076000001,,,,,,,,,,,,,,,,,501.50385499999993,502.317384,503.11729110000033,503.1020195000001,,,,,,,,,,,,,,,,,,,,,,,,,,,,,,,,,,,503.1078647000004,503.11729110000033,503.11729110000033,503.6861775000007,g,1.0,0.5533188999997947,,,,,,sub-090,1,stroop_test,59.924914082632846,
,,,,100.0,4.0,8.0,,,,,,,,,,,,,blau,red,r,0.0,r,1.0,0.5938372999999046,,,,,,,,,,8.0,4.0,100.0,4.0,503.7005734000004,,,,,,,,,,,,,,,,,503.6867468999999,503.8006282000006,504.6006417000008,504.58588409999993,,,,,,,,,,,,,,,,,,,,,,,,,,,,,,,,,,,504.58686080000007,504.6006417000008,504.6006417000008,505.2028935000008,r,1.0,0.5938372999999046,,,,,,sub-090,1,stroop_test,59.924914082632846,
,,,,101.0,5.0,8.0,,,,,,,,,,,,,gelb,yellow,g,1.0,g,1.0,0.88255079999999,,,,,,,,,,8.0,5.0,101.0,10.0,505.2173341000007,,,,,,,,,,,,,,,,,505.2036551000001,506.4173190000001,507.2172928,507.2023200000003,,,,,,,,,,,,,,,,,,,,,,,,,,,,,,,,,,,507.2086087000007,507.2172928,507.2172928,508.102911,g,1.0,0.88255079999999,,,,,,sub-090,1,stroop_test,59.924914082632846,
,,,,102.0,6.0,8.0,,,,,,,,,,,,,blau,blue,b,1.0,b,1.0,0.5313963999997213,,,,,,,,,,8.0,6.0,102.0,6.0,508.1173461000008,,,,,,,,,,,,,,,,,508.1034933000001,508.2174127000008,509.0172881000008,509.0019839000006,,,,,,,,,,,,,,,,,,,,,,,,,,,,,,,,,,,509.0083770000001,509.0172881000008,509.0172881000008,509.5529424000006,b,1.0,0.5313963999997213,,,,,,sub-090,1,stroop_test,59.924914082632846,
,,,,103.0,7.0,8.0,,,,,,,,,,,,,gelb,blue,b,0.0,b,1.0,0.528474699999606,,,,,,,,,,8.0,7.0,103.0,9.0,509.56728740000017,,,,,,,,,,,,,,,,,509.5534908,510.36748979999993,511.1674633000002,511.1521337000004,,,,,,,,,,,,,,,,,,,,,,,,,,,,,,,,,,,511.1579894000006,511.1674633000002,511.1674633000002,511.7033805000001,b,1.0,0.528474699999606,,,,,,sub-090,1,stroop_test,59.924914082632846,
,,,,104.0,8.0,8.0,,,,,,,,,,,,,rot,blue,b,0.0,b,1.0,0.4319447999996555,,,,,,,,,,8.0,8.0,104.0,2.0,511.7174309000002,,,,,,,,,,,,,,,,,511.7040359000002,512.5173205000001,513.3172760000007,513.3024948000002,,,,,,,,,,,,,,,,,,,,,,,,,,,,,,,,,,,513.3077588000006,513.3172760000007,513.3172760000007,513.7530708000004,b,1.0,0.4319447999996555,,,,,,sub-090,1,stroop_test,59.924914082632846,
,,,,105.0,9.0,8.0,,,,,,,,,,,,,rot,red,r,1.0,r,1.0,0.8133874000004653,,,,,,,,,,8.0,9.0,105.0,0.0,513.7673417000005,,,,,,,,,,,,,,,,,513.7536036000001,513.8672486000005,514.6671397,514.6518679000001,,,,,,,,,,,,,,,,,,,,,,,,,,,,,,,,,,,514.6528321000005,514.6671397,514.6671397,515.4862842000002,r,1.0,0.8133874000004653,,,,,,sub-090,1,stroop_test,59.924914082632846,
,,,,106.0,10.0,8.0,,,,,,,,,,,,,gelb,red,r,0.0,r,1.0,0.5447202999994261,,,,,,,,,,8.0,10.0,106.0,8.0,515.5007202000006,,,,,,,,,,,,,,,,,515.4868357000005,515.8508529999999,516.650705,516.6357189999999,,,,,,,,,,,,,,,,,,,,,,,,,,,,,,,,,,,516.6417098000002,516.650705,516.650705,517.2036903000007,r,1.0,0.5447202999994261,,,,,,sub-090,1,stroop_test,59.924914082632846,
,,,,107.0,11.0,8.0,,,,,,,,,,,,,gelb,yellow,g,1.0,g,1.0,0.3927770000000237,,,,,,,,,,8.0,11.0,107.0,11.0,517.2173808000007,,,,,,,,,,,,,,,,,517.2043149000001,517.5672420999999,518.3674746000006,518.352414,,,,,,,,,,,,,,,,,,,,,,,,,,,,,,,,,,,518.3530653000007,518.3674746000006,518.3674746000006,518.7693200000003,g,1.0,0.3927770000000237,,,,,,sub-090,1,stroop_test,59.924914082632846,
,,,,108.0,0.0,9.0,,,,,,,,,,,,,gelb,blue,b,0.0,b,1.0,0.3327532000002975,,,,,,,,,,9.0,0.0,108.0,9.0,518.7840643,,,,,,,,,,,,,,,,,518.7698921000001,519.9842627000007,520.7841194000002,520.7692709000003,,,,,,,,,,,,,,,,,,,,,,,,,,,,,,,,,,,520.7702163000004,520.7841194000002,520.7841194000002,521.1200663,b,1.0,0.3327532000002975,,,,,,sub-090,1,stroop_test,59.924914082632846,
,,,,109.0,1.0,9.0,,,,,,,,,,,,,gelb,yellow,g,1.0,g,1.0,0.5629733000005217,,,,,,,,,,9.0,1.0,109.0,10.0,521.1340930000006,,,,,,,,,,,,,,,,,521.1206603,521.9341075000002,522.7339910999999,522.7189933,,,,,,,,,,,,,,,,,,,,,,,,,,,,,,,,,,,522.7195987000005,522.7339910999999,522.7339910999999,523.3029019000005,g,1.0,0.5629733000005217,,,,,,sub-090,1,stroop_test,59.924914082632846,
,,,,110.0,2.0,9.0,,,,,,,,,,,,,rot,yellow,g,0.0,g,1.0,0.529305199999726,,,,,,,,,,9.0,2.0,110.0,3.0,523.3172724000005,,,,,,,,,,,,,,,,,523.3034711,523.6674853000004,524.4672509000002,524.4520417000003,,,,,,,,,,,,,,,,,,,,,,,,,,,,,,,,,,,524.4580249,524.4672509000002,524.4672509000002,525.0026846999999,g,1.0,0.529305199999726,,,,,,sub-090,1,stroop_test,59.924914082632846,
,,,,111.0,3.0,9.0,,,,,,,,,,,,,rot,red,r,1.0,r,1.0,0.422248199999558,,,,,,,,,,9.0,3.0,111.0,0.0,525.0173505000002,,,,,,,,,,,,,,,,,525.0031930000005,525.8170984000008,526.6170837,526.6016376000007,,,,,,,,,,,,,,,,,,,,,,,,,,,,,,,,,,,526.6022052000008,526.6170837,526.6170837,527.0536554,r,1.0,0.422248199999558,,,,,,sub-090,1,stroop_test,59.924914082632846,
,,,,112.0,4.0,9.0,,,,,,,,,,,,,gelb,red,r,0.0,r,1.0,0.4398852000003899,,,,,,,,,,9.0,4.0,112.0,8.0,527.0673326000006,,,,,,,,,,,,,,,,,527.0544143000006,527.1671981,527.9673190000003,527.9520981000005,,,,,,,,,,,,,,,,,,,,,,,,,,,,,,,,,,,527.9583290999999,527.9673190000003,527.9673190000003,528.4198860000006,r,1.0,0.4398852000003899,,,,,,sub-090,1,stroop_test,59.924914082632846,
,,,,113.0,5.0,9.0,,,,,,,,,,,,,rot,blue,b,0.0,b,1.0,0.5548976000000039,,,,,,,,,,9.0,5.0,113.0,2.0,528.4340166000002,,,,,,,,,,,,,,,,,528.4204201000002,528.7838239000002,529.5840171,529.5688623000005,,,,,,,,,,,,,,,,,,,,,,,,,,,,,,,,,,,529.5743202000003,529.5840171,529.5840171,530.1526453000006,b,1.0,0.5548976000000039,,,,,,sub-090,1,stroop_test,59.924914082632846,
,,,,114.0,6.0,9.0,,,,,,,,,,,,,rot,red,r,1.0,r,1.0,0.5541051999998672,,,,,,,,,,9.0,6.0,114.0,1.0,530.1673843000008,,,,,,,,,,,,,,,,,530.1531688000005,531.3672798000007,532.1672537000004,532.1519050000006,,,,,,,,,,,,,,,,,,,,,,,,,,,,,,,,,,,532.1526447000006,532.1672537000004,532.1672537000004,532.7363400000004,r,1.0,0.5541051999998672,,,,,,sub-090,1,stroop_test,59.924914082632846,
,,,,115.0,7.0,9.0,,,,,,,,,,,,,blau,red,r,0.0,r,1.0,0.5272684000001391,,,,,,,,,,9.0,7.0,115.0,4.0,532.7506328,,,,,,,,,,,,,,,,,532.7368868000003,533.1005299000008,533.9006681000001,533.8855593000008,,,,,,,,,,,,,,,,,,,,,,,,,,,,,,,,,,,533.8918535000003,533.9006681000001,533.9006681000001,534.4359683000002,r,1.0,0.5272684000001391,,,,,,sub-090,1,stroop_test,59.924914082632846,
,,,,116.0,8.0,9.0,,,,,,,,,,,,,blau,blue,b,1.0,b,1.0,0.5387568999994983,,,,,,,,,,9.0,8.0,116.0,5.0,534.4505901000002,,,,,,,,,,,,,,,,,534.4366152000002,534.8006680000008,535.6008294000003,535.5854865000001,,,,,,,,,,,,,,,,,,,,,,,,,,,,,,,,,,,535.5862450000004,535.6008294000003,535.6008294000003,536.1533020000006,b,1.0,0.5387568999994983,,,,,,sub-090,1,stroop_test,59.924914082632846,
,,,,117.0,9.0,9.0,,,,,,,,,,,,,blau,blue,b,1.0,b,1.0,0.5581742000003942,,,,,,,,,,9.0,9.0,117.0,6.0,536.1671372000001,,,,,,,,,,,,,,,,,536.1540850000001,536.9672541,537.7674019000006,537.7516493000003,,,,,,,,,,,,,,,,,,,,,,,,,,,,,,,,,,,537.7523474,537.7674019000006,537.7674019000006,538.3362379,b,1.0,0.5581742000003942,,,,,,sub-090,1,stroop_test,59.924914082632846,
,,,,118.0,10.0,9.0,,,,,,,,,,,,,gelb,yellow,g,1.0,g,1.0,0.6335849000006419,,,,,,,,,,9.0,10.0,118.0,11.0,538.3507974000004,,,,,,,,,,,,,,,,,538.3367586000004,539.5506635000002,540.3505150000001,540.3354363000008,,,,,,,,,,,,,,,,,,,,,,,,,,,,,,,,,,,540.3431804000002,540.3505150000001,540.3505150000001,540.9859750000005,g,1.0,0.6335849000006419,,,,,,sub-090,1,stroop_test,59.924914082632846,
,,,,119.0,11.0,9.0,,,,,,,,,,,,,blau,yellow,g,0.0,g,1.0,0.4346582999996826,,,,,,,,,,9.0,11.0,119.0,7.0,541.0004794000006,,,,,,,,,,,,,,,,,540.9864362000008,541.3504992000007,542.1506722000004,542.1353687000001,,,,,,,,,,,,,,,,,,,,,,,,,,,,,,,,,,,542.1412174000006,542.1506722000004,542.1506722000004,542.5878482000007,g,1.0,0.4346582999996826,,,,,,sub-090,1,stroop_test,59.924914082632846,
,,,,,,,,,,,,,,,,,,,,,,,,,,,,,,,,,,,,,,,,,,,,,,,,,,,,,,,,,,,,,,,,,,,,,,,,,,,,,,,,,,,,,,,,,,,,,,,,,,,,,,542.5881182000003,542.6007319999999,547.6005479000005,547.5854010000003,sub-090,1,stroop_test,59.924914082632846,
