direction,corrAns,randomInstr,practice_trials.thisRepN,practice_trials.thisTrialN,practice_trials.thisN,practice_trials.thisIndex,instr_trials.thisRepN,instr_trials.thisTrialN,instr_trials.thisN,instr_trials.thisIndex,test_trials.thisRepN,test_trials.thisTrialN,test_trials.thisN,test_trials.thisIndex,thisRow.t,notes,general_instruction.started,textGeneralInstr.started,respGeneralInstr.started,general_instruction.stopped,respGeneralInstr.keys,respGeneralInstr.rt,respGeneralInstr.duration,ITI.started,fixcross.started,fixcross.stopped,ITI.stopped,dots.started,backgroundDots.started,stimulusDots.started,respDots.started,stimulusDots.stopped,dots.stopped,respDots.keys,respDots.corr,respDots.rt,respDots.duration,feedback.started,textFeedback.started,feedback.stopped,textFeedback.stopped,info.started,textInfo.started,keyRespInfo.started,info.stopped,keyRespInfo.keys,keyRespInfo.rt,keyRespInfo.duration,test_instruction.started,textTestInstr.started,respTestInstr.started,test_instruction.stopped,respTestInstr.keys,respTestInstr.rt,respTestInstr.duration,random_instruction.started,textRandomInstr.started,respRandomInstr.started,random_instruction.stopped,respRandomInstr.keys,respRandomInstr.rt,respRandomInstr.duration,goodbye.started,textGoodbye.started,goodbye.stopped,participant,session,expName,frameRate,Unnamed: 73
,,,,,,,,,,,,,,,,,0.0086751000490039,0.0209748999914154,0.0209748999914154,130.39195120008662,space,130.35577260004357,,,,,,,,,,,,,,,,,,,,,,,,,,,,,,,,,,,,,,,,,,,,sub-149,2.0,random_dot,59.93173776115752,
right,right,,0.0,0.0,0.0,1.0,,,,,,,,,130.44069910002872,,,,,,,,,130.4297607999761,130.50377539999317,131.3248925000662,131.28775420004968,131.28781140001956,131.3248925000662,131.3248925000662,131.3248925000662,136.29812739999034,141.15059990005102,left,0.0,9.814469099976122,,141.15362850006204,141.2021028000163,141.6630157000618,,,,,,,,,,,,,,,,,,,,,,,,,,sub-149,2.0,random_dot,59.93173776115752,
left,left,,0.0,1.0,1.0,0.0,,,,,,,,,141.6792869999772,,,,,,,,,141.6644162000157,141.7626132000005,142.56469150003977,142.54689290001988,142.54697650007438,142.56469150003977,142.56469150003977,142.56469150003977,147.55753460002595,150.2269832000602,left,1.0,7.652933500008658,,150.22896049998235,150.26266300003044,150.74048829998355,,,,,,,,,,,,,,,,,,,,,,,,,,sub-149,2.0,random_dot,59.93173776115752,
right,right,,1.0,0.0,2.0,1.0,,,,,,,,,150.7567855999805,,,,,,,,,150.7422030000016,150.84024110005703,151.6410726000322,151.62443940003868,151.62449130008463,151.6410726000322,151.6410726000322,151.6410726000322,156.63547500001732,157.52254240005277,right,1.0,5.874218499986455,,157.5242762999842,157.53474749997258,158.01907520007808,158.03418770001736,,,,,,,,,,,,,,,,,,,,,,,,,sub-149,2.0,random_dot,59.93173776115752,
left,left,,1.0,1.0,3.0,0.0,,,,,,,,,158.03418770001736,,,,,,,,,158.019986600033,159.23450370004866,160.0490812000353,160.03378769999836,160.03383790003136,160.0490812000353,160.0490812000353,160.0490812000353,165.0302728000097,165.58082550007384,left,1.0,5.519650899921544,,165.5820842999965,165.59495759999845,166.07875510002486,166.09508680005092,,,,,,,,,,,,,,,,,,,,,,,,,sub-149,2.0,random_dot,59.93173776115752,
left,left,,2.0,0.0,4.0,0.0,,,,,,,,,166.09508680005092,,,,,,,,,166.07975180004723,167.2952435000334,168.0947236000793,168.0797969000414,168.07985930005088,168.0947236000793,168.0947236000793,168.0947236000793,173.0905632000649,173.6593052999815,right,0.0,5.558178700041026,,173.66122190002352,173.67581809998956,174.1733179000439,,,,,,,,,,,,,,,,,,,,,,,,,,sub-149,2.0,random_dot,59.93173776115752,
right,right,,2.0,1.0,5.0,1.0,,,,,,,,,174.18980719998945,,,,,,,,,174.174251700053,174.97273809998296,175.78889059997164,175.75870840006974,175.75876630004495,175.78889059997164,175.78889059997164,175.78889059997164,180.7691104999976,181.35539100004823,left,0.0,5.551726300036535,,181.35772289999292,181.3690014000749,181.8531332000857,181.86845359997824,,,,,,,,,,,,,,,,,,,,,,,,,sub-149,2.0,random_dot,59.93173776115752,
left,left,,3.0,0.0,6.0,0.0,,,,,,,,,181.86845359997824,,,,,,,,,181.8541971000377,182.21936350001488,183.0185978000518,183.003066400066,183.0031137000769,183.0185978000518,183.0185978000518,183.0185978000518,188.01527720002923,188.6506371999858,right,0.0,5.627393400063738,,188.6520127999829,188.66394800005943,189.14870750007685,189.16356410004664,,,,,,,,,,,,,,,,,,,,,,,,,sub-149,2.0,random_dot,59.93173776115752,
right,right,,3.0,1.0,7.0,1.0,,,,,,,,,189.16356410004664,,,,,,,,,189.14958720002323,189.96411120006812,190.7785753000062,190.76338190003295,190.7634331000736,190.7785753000062,190.7785753000062,190.7785753000062,195.7760661999928,196.3289031999884,right,1.0,5.543025100021623,,196.33035399997607,196.3472925000824,196.8430106000742,,,,,,,,,,,,,,,,,,,,,,,,,,sub-149,2.0,random_dot,59.93173776115752,
left,left,,4.0,0.0,8.0,0.0,,,,,,,,,196.8594399000285,,,,,,,,,196.8443210000405,197.1923003999982,197.9920174999861,197.9766937000677,197.97676390002016,197.9920174999861,197.9920174999861,197.9920174999861,202.98656430002305,203.42156280006748,left,1.0,5.426157400012016,,203.42246430006344,203.43672650004737,203.9205472000176,203.9361463000532,,,,,,,,,,,,,,,,,,,,,,,,,sub-149,2.0,random_dot,59.93173776115752,
right,right,,4.0,1.0,9.0,1.0,,,,,,,,,203.9361463000532,,,,,,,,,203.9215292000445,204.28594570001587,205.08549680002037,205.07033900008537,205.0703864999814,205.08549680002037,205.08549680002037,205.08549680002037,210.08379100007005,210.5194454999873,right,1.0,5.422131099971011,,210.5219504000852,210.5338302999735,211.0179036000045,211.0335745000048,,,,,,,,,,,,,,,,,,,,,,,,,sub-149,2.0,random_dot,59.93173776115752,
left,left,,5.0,0.0,10.0,0.0,,,,,,,,,211.0335745000048,,,,,,,,,211.019026700058,211.8328772999812,212.64747830003037,212.6320487000048,212.6320855000522,212.64747830003037,212.64747830003037,212.64747830003037,217.6462499999907,218.21026439999696,right,0.0,5.54575940000359,,218.21112210000865,218.22669200005475,218.71140240004752,,,,,,,,,,,,,,,,,,,,,,,,,,sub-149,2.0,random_dot,59.93173776115752,
right,right,,5.0,1.0,11.0,1.0,,,,,,,,,218.7277909000404,,,,,,,,,218.712974300026,219.52563970000483,220.3252165999729,220.31022490002212,220.31025670003143,220.3252165999729,220.3252165999729,220.3252165999729,225.3234892999753,226.04245240008456,right,1.0,5.699753500055522,,226.0438755999785,226.06579430005516,226.55607460008468,,,,,,,,,,,,,,,,,,,,,,,,,,sub-149,2.0,random_dot,59.93173776115752,
left,left,,6.0,0.0,12.0,0.0,,,,,,,,,226.57238660007715,,,,,,,,,226.5571573000634,226.65577660000417,227.4556649000151,227.4403320000274,227.4404001000803,227.4556649000151,227.4556649000151,227.4556649000151,232.4515866000438,232.97047529998235,left,1.0,5.499090100056492,,232.972263499978,232.98501619999297,233.4690310000442,233.48434570000973,,,,,,,,,,,,,,,,,,,,,,,,,sub-149,2.0,random_dot,59.93173776115752,
right,right,,6.0,1.0,13.0,1.0,,,,,,,,,233.48434570000973,,,,,,,,,233.469952100073,233.5844092000043,234.38468220003412,234.36895400006324,234.36900010006505,234.38468220003412,234.38468220003412,234.38468220003412,239.380912899971,239.90181910002136,right,1.0,5.506035499973223,,239.9041490000673,239.9293742000591,240.41429470002183,,,,,,,,,,,,,,,,,,,,,,,,,,sub-149,2.0,random_dot,59.93173776115752,
right,right,,7.0,0.0,14.0,1.0,,,,,,,,,240.43068460002544,,,,,,,,,240.41614360001404,241.61313840001824,242.4277346000308,242.41245990002065,242.4125184000004,242.4277346000308,242.4277346000308,242.4277346000308,247.42550840007607,247.8110951000126,right,1.0,5.373456100001931,,247.81339380005372,247.8258182000136,248.3096615000395,248.32488149998244,,,,,,,,,,,,,,,,,,,,,,,,,sub-149,2.0,random_dot,59.93173776115752,
left,left,,7.0,1.0,15.0,0.0,,,,,,,,,248.32488149998244,,,,,,,,,248.31073020002805,248.42474460008088,249.22564620000776,249.2093687000452,249.2094165000599,249.22564620000776,249.22564620000776,249.22564620000776,254.22115170001047,254.2904833999928,left,1.0,5.050728300004266,,254.29307400004475,254.30464260000736,254.78904070006683,254.8042051000521,,,,,,,,,,,,,,,,,,,,,,,,,sub-149,2.0,random_dot,59.93173776115752,
left,left,,8.0,0.0,16.0,0.0,,,,,,,,,254.8042051000521,,,,,,,,,254.790064400062,255.60382550000213,256.40613290003967,256.38846060005017,256.38853490003385,256.40613290003967,256.40613290003967,256.40613290003967,261.39960630005226,261.8032506000018,left,1.0,5.393646899960004,,261.8057372000767,261.8166948000435,262.30033850006294,262.3156044000061,,,,,,,,,,,,,,,,,,,,,,,,,sub-149,2.0,random_dot,59.93173776115752,
right,right,,8.0,1.0,17.0,1.0,,,,,,,,,262.3156044000061,,,,,,,,,262.3016033000313,263.5154040000634,264.3179760000203,264.3006371000083,264.3006965999957,264.3179760000203,264.3179760000203,264.3179760000203,269.310590100009,269.7463406000752,right,1.0,5.420679900096729,,269.7477317000739,269.7604187000543,270.2448137999745,270.2601029999787,,,,,,,,,,,,,,,,,,,,,,,,,sub-149,2.0,random_dot,59.93173776115752,
left,left,,9.0,0.0,18.0,0.0,,,,,,,,,270.2601029999787,,,,,,,,,270.2459207000211,270.61092960007954,271.4120978000574,271.3952192000579,271.3952706999844,271.4120978000574,271.4120978000574,271.4120978000574,276.4058364999946,276.8759143999778,left,1.0,5.455883100046776,,276.8776608000044,276.8888806999894,277.373712599976,277.3886895000469,,,,,,,,,,,,,,,,,,,,,,,,,sub-149,2.0,random_dot,59.93173776115752,
right,right,,9.0,1.0,19.0,1.0,,,,,,,,,277.3886895000469,,,,,,,,,277.3751682000002,278.58838279999327,279.40376300003845,279.3871446000412,279.3871891000308,279.40376300003845,279.40376300003845,279.40376300003845,,282.02049520006403,right,1.0,2.605476800003089,,282.0216999000404,282.0349040000001,282.51942200004123,282.5345755000599,,,,,,,,,,,,,,,,,,,,,,,,,sub-149,2.0,random_dot,59.93173776115752,
,,,,,,,,,,,,,,,,,,,,,,,,,,,,,,,,,,,,,,,,,,282.51958650001325,282.5345755000599,282.5345755000599,285.7365270999726,space,3.193574200035073,,,,,,,,,,,,,,,,,,,sub-149,2.0,random_dot,59.93173776115752,
,,,,,,,,,,,,,,,,,,,,,,,,,,,,,,,,,,,,,,,,,,,,,,,,,285.736607400002,285.7505174999824,285.7505174999824,292.53348970005754,space,6.771824699942954,,,,,,,,,,,,sub-149,2.0,random_dot,59.93173776115752,
left,left,speed,,,,,0.0,0.0,0.0,1.0,0.0,0.0,0.0,0.0,295.8660918000387,,,,,,,,,295.8607298000716,295.958415400004,296.7618712000549,296.74522280006204,296.7453240000177,296.7618712000549,296.7618712000549,296.7618712000549,,299.7624854000751,left,1.0,2.986556199961342,,,,,,,,,,,,,,,,,,,,292.55099870008416,292.5904789000051,292.5904789000051,295.8435671000043,space,3.241396200028248,,,,,sub-149,2.0,random_dot,59.93173776115752,
right,right,speed,,,,,0.0,0.0,0.0,1.0,0.0,1.0,1.0,1.0,299.7756829999853,,,,,,,,,299.7672731999773,300.57413480000105,301.37454240000807,301.3587247000541,301.35878390003927,301.37454240000807,301.37454240000807,301.37454240000807,,302.50867760006804,right,1.0,1.1234273000154644,,,,,,,,,,,,,,,,,,,,,,,,,,,,,,sub-149,2.0,random_dot,59.93173776115752,
right,right,speed,,,,,0.0,0.0,0.0,1.0,1.0,0.0,2.0,1.0,302.522354500019,,,,,,,,,302.5124605000019,303.7230081000598,304.5398719999939,304.5232924000593,304.52335150004365,304.5398719999939,304.5398719999939,304.5398719999939,,306.3382918999996,right,1.0,1.7911856001010165,,,,,,,,,,,,,,,,,,,,,,,,,,,,,,sub-149,2.0,random_dot,59.93173776115752,
left,left,speed,,,,,0.0,0.0,0.0,1.0,1.0,1.0,3.0,0.0,306.35233630007133,,,,,,,,,306.3407650999725,306.7021299999906,307.5021946000634,307.4873266000068,307.48740330000874,307.5021946000634,307.5021946000634,307.5021946000634,,309.2850928000408,left,1.0,1.7669559000059962,,,,,,,,,,,,,,,,,,,,,,,,,,,,,,sub-149,2.0,random_dot,59.93173776115752,
left,left,speed,,,,,0.0,0.0,0.0,1.0,2.0,0.0,4.0,0.0,309.30009889998473,,,,,,,,,309.28747430001386,310.50081019999925,311.3024922000477,311.2859730999917,311.2860664000036,311.3024922000477,311.3024922000477,311.3024922000477,,312.98311620007735,right,0.0,1.6675045000156388,,,,,,,,,,,,,,,,,,,,,,,,,,,,,,sub-149,2.0,random_dot,59.93173776115752,
right,right,speed,,,,,0.0,0.0,0.0,1.0,2.0,1.0,5.0,1.0,312.99769390001893,,,,,,,,,312.9855030999752,313.34837750007864,314.1474670000607,314.13210350007284,314.1321479000617,314.1474670000607,314.1474670000607,314.1474670000607,,315.5487355000805,right,1.0,1.3851103000342846,,,,,,,,,,,,,,,,,,,,,,,,,,,,,,sub-149,2.0,random_dot,59.93173776115752,
right,right,speed,,,,,0.0,0.0,0.0,1.0,3.0,0.0,6.0,1.0,315.56278580008075,,,,,,,,,315.5520248999819,316.36453700007405,317.1784152999753,317.1629157999996,317.1629510000348,317.1784152999753,317.1784152999753,317.1784152999753,,319.2979169000173,right,1.0,2.102404199889861,,,,,,,,,,,,,,,,,,,,,,,,,,,,,,sub-149,2.0,random_dot,59.93173776115752,
left,left,speed,,,,,0.0,0.0,0.0,1.0,3.0,1.0,7.0,0.0,319.3111251000082,,,,,,,,,319.3019091000315,320.5107033000095,321.31279720005114,321.2958032999886,321.2958799999906,321.31279720005114,321.31279720005114,321.31279720005114,,323.0428975999821,left,1.0,1.7277560000075027,,,,,,,,,,,,,,,,,,,,,,,,,,,,,,sub-149,2.0,random_dot,59.93173776115752,
right,right,speed,,,,,0.0,0.0,0.0,1.0,4.0,0.0,8.0,1.0,323.05715230002534,,,,,,,,,323.04538460006006,323.8585805000039,324.6736401000526,324.6582235000096,324.65826250007376,324.6736401000526,324.6736401000526,324.6736401000526,,326.14491510007065,right,1.0,1.452251399983652,,,,,,,,,,,,,,,,,,,,,,,,,,,,,,sub-149,2.0,random_dot,59.93173776115752,
left,left,speed,,,,,0.0,0.0,0.0,1.0,4.0,1.0,9.0,0.0,326.1574423999991,,,,,,,,,326.1481911999872,326.9567313999869,327.75854790001176,327.7412713000085,327.7413224000484,327.75854790001176,327.75854790001176,327.75854790001176,,330.05547959997784,left,1.0,2.2807129999855533,,,,,,,,,,,,,,,,,,,,,,,,,,,,,,sub-149,2.0,random_dot,59.93173776115752,
right,right,speed,,,,,0.0,0.0,0.0,1.0,5.0,0.0,10.0,1.0,330.0696939000627,,,,,,,,,330.0580106000416,330.87081110000145,331.6708660000004,331.6547201999929,331.6547638999764,331.6708660000004,331.6708660000004,331.6708660000004,,333.0523785999976,right,1.0,1.3670252000447365,,,,,,,,,,,,,,,,,,,,,,,,,,,,,,sub-149,2.0,random_dot,59.93173776115752,
left,left,speed,,,,,0.0,0.0,0.0,1.0,5.0,1.0,11.0,0.0,333.06697430007625,,,,,,,,,333.05430289998185,334.2690997000318,335.0832127999747,335.0677765000146,335.0678120000521,335.0832127999747,335.0832127999747,335.0832127999747,,336.9339428000385,left,1.0,1.8423956000478936,,,,,,,,,,,,,,,,,,,,,,,,,,,,,,sub-149,2.0,random_dot,59.93173776115752,
right,right,speed,,,,,0.0,0.0,0.0,1.0,6.0,0.0,12.0,1.0,336.9488127999939,,,,,,,,,336.9360974000301,337.7497353000799,338.5515947000822,338.53435380000155,338.5344108999707,338.5515947000822,338.5515947000822,338.5515947000822,,340.9312559000682,right,1.0,2.3689222999382764,,,,,,,,,,,,,,,,,,,,,,,,,,,,,,sub-149,2.0,random_dot,59.93173776115752,
left,left,speed,,,,,0.0,0.0,0.0,1.0,6.0,1.0,13.0,0.0,340.9467218000209,,,,,,,,,340.93358299997635,341.7462690999964,342.547024199972,342.53124160005245,342.5312957999995,342.547024199972,342.547024199972,342.547024199972,,344.4313823999837,left,1.0,1.8811742999823764,,,,,,,,,,,,,,,,,,,,,,,,,,,,,,sub-149,2.0,random_dot,59.93173776115752,
left,left,speed,,,,,0.0,0.0,0.0,1.0,7.0,0.0,14.0,0.0,344.44434759998694,,,,,,,,,344.43447980005294,345.24450430006254,346.045714900014,346.0292066000402,346.029288400081,346.045714900014,346.045714900014,346.045714900014,351.0393580000382,352.0433607000159,right,0.0,5.987372500007041,,,,,,,,,,,,,,,,,,,,,,,,,,,,,,sub-149,2.0,random_dot,59.93173776115752,
right,right,speed,,,,,0.0,0.0,0.0,1.0,7.0,1.0,15.0,1.0,352.0566439999966,,,,,,,,,352.0488454999868,352.4059709000867,353.2080178000033,353.1904504999984,353.19049459998496,353.2080178000033,353.2080178000033,353.2080178000033,358.2018259000033,358.6709867999889,right,1.0,5.453106999979354,,,,,,,,,,,,,,,,,,,,,,,,,,,,,,sub-149,2.0,random_dot,59.93173776115752,
left,left,speed,,,,,0.0,0.0,0.0,1.0,8.0,0.0,16.0,0.0,358.6847850000486,,,,,,,,,358.67367719998583,359.0346781000262,359.83427039999515,359.81897140003275,359.8190328000346,359.83427039999515,359.83427039999515,359.83427039999515,,363.03362530004233,left,1.0,3.1843136000679806,,,,,,,,,,,,,,,,,,,,,,,,,,,,,,sub-149,2.0,random_dot,59.93173776115752,
right,right,speed,,,,,0.0,0.0,0.0,1.0,8.0,1.0,17.0,1.0,363.04775430005975,,,,,,,,,363.0359730999917,363.8485815000022,364.6630798000842,364.6479030000046,364.6479366000276,364.6630798000842,364.6630798000842,364.6630798000842,,366.2656605000375,right,1.0,1.5986106999916956,,,,,,,,,,,,,,,,,,,,,,,,,,,,,,sub-149,2.0,random_dot,59.93173776115752,
right,right,speed,,,,,0.0,0.0,0.0,1.0,9.0,0.0,18.0,1.0,366.27976369997486,,,,,,,,,366.26893760007806,366.3797290000366,367.1790308000054,367.1639071999816,367.1639589000261,367.1790308000054,367.1790308000054,367.1790308000054,,370.0643174999859,right,1.0,2.8779589000623678,,,,,,,,,,,,,,,,,,,,,,,,,,,,,,sub-149,2.0,random_dot,59.93173776115752,
left,left,speed,,,,,0.0,0.0,0.0,1.0,9.0,1.0,19.0,0.0,370.0773285999894,,,,,,,,,370.06781490007415,371.27800000004936,372.079334900016,372.0619488999946,372.0620202000719,372.079334900016,372.079334900016,372.079334900016,,374.7917195999762,left,1.0,2.6995196000207216,,,,,,,,,,,,,,,,,,,,,,,,,,,,,,sub-149,2.0,random_dot,59.93173776115752,
left,left,speed,,,,,0.0,0.0,0.0,1.0,10.0,0.0,20.0,0.0,374.80657720007,,,,,,,,,374.7940718000754,376.0075948999729,376.8062223000452,376.7915924000554,376.7916461999994,376.8062223000452,376.8062223000452,376.8062223000452,,379.4911176000023,left,1.0,2.674816199927591,,,,,,,,,,,,,,,,,,,,,,,,,,,,,,sub-149,2.0,random_dot,59.93173776115752,
right,right,speed,,,,,0.0,0.0,0.0,1.0,10.0,1.0,21.0,1.0,379.5051440000534,,,,,,,,,379.49453300004825,379.8546897000633,380.653842800064,380.63894780003466,380.6389932000311,380.653842800064,380.653842800064,380.653842800064,,382.0427588999737,right,1.0,1.3769445000216365,,,,,,,,,,,,,,,,,,,,,,,,,,,,,,sub-149,2.0,random_dot,59.93173776115752,
left,left,speed,,,,,0.0,0.0,0.0,1.0,11.0,0.0,22.0,0.0,382.069870700012,,,,,,,,,382.0471980000148,382.15335829998367,382.95531970006414,382.9380660000024,382.9381606000243,382.95531970006414,382.95531970006414,382.95531970006414,,385.15193300007377,left,1.0,2.179518499993719,,,,,,,,,,,,,,,,,,,,,,,,,,,,,,sub-149,2.0,random_dot,59.93173776115752,
right,right,speed,,,,,0.0,0.0,0.0,1.0,11.0,1.0,23.0,1.0,385.16675830003805,,,,,,,,,385.15430010005366,385.2671919000568,386.0856646000175,386.069375900086,386.0694555999944,386.0856646000175,386.0856646000175,386.0856646000175,,388.5002039000392,right,1.0,2.401600999990478,,,,,,,,,,,,,,,,,,,,,,,,,,,,,,sub-149,2.0,random_dot,59.93173776115752,
left,left,speed,,,,,0.0,0.0,0.0,1.0,12.0,0.0,24.0,0.0,388.5145350000821,,,,,,,,,388.5036826999858,388.8650869000703,389.6673693000339,389.6505982000381,389.65067640005145,389.6673693000339,389.6673693000339,389.6673693000339,,391.4476729000453,left,1.0,1.774809299968183,,,,,,,,,,,,,,,,,,,,,,,,,,,,,,sub-149,2.0,random_dot,59.93173776115752,
right,right,speed,,,,,0.0,0.0,0.0,1.0,12.0,1.0,25.0,1.0,391.46237870003097,,,,,,,,,391.4510990000563,392.66325720003806,393.4665290000849,393.448030599975,393.44811050000135,393.4665290000849,393.4665290000849,393.4665290000849,,396.7124001000775,right,1.0,3.241483099991456,,,,,,,,,,,,,,,,,,,,,,,,,,,,,,sub-149,2.0,random_dot,59.93173776115752,
left,left,speed,,,,,0.0,0.0,0.0,1.0,13.0,0.0,26.0,0.0,396.7261529000243,,,,,,,,,396.7155311000533,397.076026200084,397.8757166999858,397.8607204,397.86076680000406,397.8757166999858,397.8757166999858,397.8757166999858,,401.6243865999859,left,1.0,3.73762359993998,,,,,,,,,,,,,,,,,,,,,,,,,,,,,,sub-149,2.0,random_dot,59.93173776115752,
right,right,speed,,,,,0.0,0.0,0.0,1.0,13.0,1.0,27.0,1.0,401.6391385999741,,,,,,,,,401.6270836000331,402.4394650000613,403.23902340000495,403.2240744000301,403.22412180004176,403.23902340000495,403.23902340000495,403.23902340000495,,404.5226157000288,right,1.0,1.2659954999107867,,,,,,,,,,,,,,,,,,,,,,,,,,,,,,sub-149,2.0,random_dot,59.93173776115752,
right,right,speed,,,,,0.0,0.0,0.0,1.0,14.0,0.0,28.0,1.0,404.5371586000547,,,,,,,,,404.5249224000145,404.6384101000149,405.4394383999752,405.42315869999584,405.4232181999832,405.4394383999752,405.4394383999752,405.4394383999752,,408.12107110000215,right,1.0,2.666219800012186,,,,,,,,,,,,,,,,,,,,,,,,,,,,,,sub-149,2.0,random_dot,59.93173776115752,
left,left,speed,,,,,0.0,0.0,0.0,1.0,14.0,1.0,29.0,0.0,408.1354473000392,,,,,,,,,408.1238085000077,408.93551570002455,409.7378338000272,409.72042180004064,409.7204982000403,409.7378338000272,409.7378338000272,409.7378338000272,,410.7360968000721,left,1.0,0.9911426999606192,,,,,,,,,,,,,,,,,,,,,,,,,,,,,,sub-149,2.0,random_dot,59.93173776115752,
left,left,speed,,,,,0.0,0.0,0.0,1.0,15.0,0.0,30.0,0.0,410.7496874000644,,,,,,,,,410.7396822000155,410.8498635999858,411.6522094000829,411.6349281000439,411.63499629998114,411.6522094000829,411.6522094000829,411.6522094000829,,413.8171664000256,left,1.0,2.148116399999708,,,,,,,,,,,,,,,,,,,,,,,,,,,,,,sub-149,2.0,random_dot,59.93173776115752,
right,right,speed,,,,,0.0,0.0,0.0,1.0,15.0,1.0,31.0,1.0,413.83160949999,,,,,,,,,413.82077390002087,414.1813867000165,414.9809670000104,414.9658418999752,414.96588909998536,414.9809670000104,414.9809670000104,414.9809670000104,,416.03393440006766,right,1.0,1.045988900004886,,,,,,,,,,,,,,,,,,,,,,,,,,,,,,sub-149,2.0,random_dot,59.93173776115752,
right,right,speed,,,,,0.0,0.0,0.0,1.0,16.0,0.0,32.0,1.0,416.0466845000629,,,,,,,,,416.036940400023,416.3975673000096,417.198688399978,417.1818160000257,417.18189170002006,417.198688399978,417.198688399978,417.198688399978,,418.81827980000526,left,0.0,1.6073421000037342,,,,,,,,,,,,,,,,,,,,,,,,,,,,,,sub-149,2.0,random_dot,59.93173776115752,
left,left,speed,,,,,0.0,0.0,0.0,1.0,16.0,1.0,33.0,0.0,418.8309730000328,,,,,,,,,418.8240876999917,419.6287604999961,420.42949540005066,420.413266699994,420.4133185000392,420.42949540005066,420.42949540005066,420.42949540005066,,422.727329300018,left,1.0,2.288798500085249,,,,,,,,,,,,,,,,,,,,,,,,,,,,,,sub-149,2.0,random_dot,59.93173776115752,
right,right,speed,,,,,0.0,0.0,0.0,1.0,17.0,0.0,34.0,1.0,422.741736200056,,,,,,,,,422.7299414000008,423.9423452999909,424.7441169000231,424.7268522999948,424.7269064000575,424.7441169000231,424.7441169000231,424.7441169000231,,426.0084921000525,right,1.0,1.253491900046356,,,,,,,,,,,,,,,,,,,,,,,,,,,,,,sub-149,2.0,random_dot,59.93173776115752,
left,left,speed,,,,,0.0,0.0,0.0,1.0,17.0,1.0,35.0,0.0,426.0229222000344,,,,,,,,,426.011016100063,426.37409050005954,427.1754820999922,427.1588622999843,427.1589217999717,427.1754820999922,427.1754820999922,427.1754820999922,,431.07154260005336,right,0.0,3.884842900093645,,,,,,,,,,,,,,,,,,,,,,,,,,,,,,sub-149,2.0,random_dot,59.93173776115752,
right,right,speed,,,,,0.0,0.0,0.0,1.0,18.0,0.0,36.0,1.0,431.0860616000136,,,,,,,,,431.0738665000536,432.28689710004255,433.08795600000303,433.07199900003616,433.0720514000859,433.08795600000303,433.08795600000303,433.08795600000303,,435.8851836000104,right,1.0,2.7876170000527054,,,,,,,,,,,,,,,,,,,,,,,,,,,,,,sub-149,2.0,random_dot,59.93173776115752,
left,left,speed,,,,,0.0,0.0,0.0,1.0,18.0,1.0,37.0,0.0,435.8996587999864,,,,,,,,,435.8877508000005,437.1004125999752,437.90250399999786,437.8857322999975,437.8858111000154,437.90250399999786,437.90250399999786,437.90250399999786,,440.10037380002905,left,1.0,2.1922342000762,,,,,,,,,,,,,,,,,,,,,,,,,,,,,,sub-149,2.0,random_dot,59.93173776115752,
right,right,speed,,,,,0.0,0.0,0.0,1.0,19.0,0.0,38.0,1.0,440.1139374000486,,,,,,,,,440.10286189999897,440.4648016000865,441.2668936999981,441.2497384999879,441.2498304999899,441.2668936999981,441.2668936999981,441.2668936999981,,443.6457959000254,right,1.0,2.369546000030823,,,,,,,,,,,,,,,,,,,,,,,,,,,,,,sub-149,2.0,random_dot,59.93173776115752,
left,left,speed,,,,,0.0,0.0,0.0,1.0,19.0,1.0,39.0,0.0,443.6602880000137,,,,,,,,,443.647837699973,444.0125970999943,444.8142833000748,444.7973352000117,444.79738540004473,444.8142833000748,444.8142833000748,444.8142833000748,,446.04558570007794,left,1.0,1.213722699903883,,,,,,,,,,,,,,,,,,,,,,,,,,,,,,sub-149,2.0,random_dot,59.93173776115752,
right,right,speed,,,,,0.0,0.0,0.0,1.0,20.0,0.0,40.0,1.0,446.0598513999721,,,,,,,,,446.0492820000509,446.8604649000336,447.6622213000665,447.64510760002304,447.645201700041,447.6622213000665,447.6622213000665,447.6622213000665,,451.4919863999821,right,1.0,3.821684900089167,,,,,,,,,,,,,,,,,,,,,,,,,,,,,,sub-149,2.0,random_dot,59.93173776115752,
left,left,speed,,,,,0.0,0.0,0.0,1.0,20.0,1.0,41.0,0.0,451.50613970006816,,,,,,,,,451.4945225000847,452.3075447999872,453.1080807000399,453.092582100071,453.0926421000622,453.1080807000399,453.1080807000399,453.1080807000399,,455.37427490006667,left,1.0,2.253486100002192,,,,,,,,,,,,,,,,,,,,,,,,,,,,,,sub-149,2.0,random_dot,59.93173776115752,
left,left,speed,,,,,0.0,0.0,0.0,1.0,21.0,0.0,42.0,0.0,455.38815330003854,,,,,,,,,455.3779096000362,456.5870051999809,457.3885720000835,457.3722521000309,457.3723370999796,457.3885720000835,457.3885720000835,457.3885720000835,,459.45427390001714,left,1.0,2.061340800020844,,,,,,,,,,,,,,,,,,,,,,,,,,,,,,sub-149,2.0,random_dot,59.93173776115752,
right,right,speed,,,,,0.0,0.0,0.0,1.0,21.0,1.0,43.0,1.0,459.4688543999801,,,,,,,,,459.4576433000621,459.8187807999784,460.619758100016,460.6031553000212,460.6032067000633,460.619758100016,460.619758100016,460.619758100016,,462.0020352000138,right,1.0,1.3733513000188395,,,,,,,,,,,,,,,,,,,,,,,,,,,,,,sub-149,2.0,random_dot,59.93173776115752,
left,left,speed,,,,,0.0,0.0,0.0,1.0,22.0,0.0,44.0,0.0,462.0159607999958,,,,,,,,,462.0046090000542,462.3663375000469,463.1663255000021,463.1513337000506,463.1514061000198,463.1663255000021,463.1663255000021,463.1663255000021,,465.6161249000579,left,1.0,2.432192300097085,,,,,,,,,,,,,,,,,,,,,,,,,,,,,,sub-149,2.0,random_dot,59.93173776115752,
right,right,speed,,,,,0.0,0.0,0.0,1.0,22.0,1.0,45.0,1.0,465.6305813000072,,,,,,,,,465.6194047000026,466.4303271999816,467.24571609997656,467.2302440999774,467.230294500012,467.24571609997656,467.24571609997656,467.24571609997656,,471.5501591999782,left,0.0,4.297183300019242,,,,,,,,,,,,,,,,,,,,,,,,,,,,,,sub-149,2.0,random_dot,59.93173776115752,
left,left,speed,,,,,0.0,0.0,0.0,1.0,23.0,0.0,46.0,0.0,471.5616681000684,,,,,,,,,471.5540063000517,472.759738599998,473.5606613000855,473.5443016000791,473.54437010001857,473.5606613000855,473.5606613000855,473.5606613000855,,476.1739834999898,right,0.0,2.603843000018969,,,,,,,,,,,,,,,,,,,,,,,,,,,,,,sub-149,2.0,random_dot,59.93173776115752,
right,right,speed,,,,,0.0,0.0,0.0,1.0,23.0,1.0,47.0,1.0,476.1888995000627,,,,,,,,,476.1760272000684,476.974121300038,477.77529370004777,477.7585119999712,477.7585715000751,477.77529370004777,477.77529370004777,477.77529370004777,,480.0933870000299,left,0.0,2.308414999977685,,,,,,,,,,,,,,,,,,,,,,,,,,,,,,sub-149,2.0,random_dot,59.93173776115752,
left,left,speed,,,,,0.0,0.0,0.0,1.0,24.0,0.0,48.0,0.0,480.1042399000144,,,,,,,,,480.09647530002985,480.4555754000321,481.2561872000806,481.2394806999946,481.23954059998505,481.2561872000806,481.2561872000806,481.2561872000806,,483.0555241000839,left,1.0,1.7859394999686629,,,,,,,,,,,,,,,,,,,,,,,,,,,,,,sub-149,2.0,random_dot,59.93173776115752,
right,right,speed,,,,,0.0,0.0,0.0,1.0,24.0,1.0,49.0,1.0,483.06943270005286,,,,,,,,,483.0584661000176,483.169406900066,483.9687675000168,483.9542455000337,483.9542954000645,483.9687675000168,483.9687675000168,483.9687675000168,,485.586354500032,left,0.0,1.5996184999821708,,,,,,,,,,,,,,,,,,,,,,,,,,,,,,sub-149,2.0,random_dot,59.93173776115752,
left,left,speed,,,,,0.0,0.0,0.0,1.0,25.0,0.0,50.0,0.0,485.60094010003377,,,,,,,,,485.5897498000413,485.9504147000844,486.7664805999957,486.74917249998543,486.7492118000519,486.7664805999957,486.7664805999957,486.7664805999957,,488.2512573000277,right,0.0,1.4824716000584883,,,,,,,,,,,,,,,,,,,,,,,,,,,,,,sub-149,2.0,random_dot,59.93173776115752,
right,right,speed,,,,,0.0,0.0,0.0,1.0,25.0,1.0,51.0,1.0,488.26501319999807,,,,,,,,,488.25366170005873,488.6164527999936,489.41956030006986,489.4011858999729,489.4013132000109,489.41956030006986,489.41956030006986,489.41956030006986,,491.8158215000294,right,1.0,2.385447300039232,,,,,,,,,,,,,,,,,,,,,,,,,,,,,,sub-149,2.0,random_dot,59.93173776115752,
left,left,speed,,,,,0.0,0.0,0.0,1.0,26.0,0.0,52.0,0.0,491.8298568000319,,,,,,,,,491.81879000004847,492.6304950000485,493.4448854000075,493.4294585000025,493.4294939000392,493.4448854000075,493.4448854000075,493.4448854000075,,496.7789791000541,left,1.0,3.3316203999565914,,,,,,,,,,,,,,,,,,,,,,,,,,,,,,sub-149,2.0,random_dot,59.93173776115752,
right,right,speed,,,,,0.0,0.0,0.0,1.0,26.0,1.0,53.0,1.0,496.7930093000177,,,,,,,,,496.7814938999945,497.9927240000106,498.7954196999781,498.7779225000413,498.7780295000412,498.7954196999781,498.7954196999781,498.7954196999781,,500.2424401000608,right,1.0,1.4338295999914408,,,,,,,,,,,,,,,,,,,,,,,,,,,,,,sub-149,2.0,random_dot,59.93173776115752,
right,right,speed,,,,,0.0,0.0,0.0,1.0,27.0,0.0,54.0,1.0,500.257187900017,,,,,,,,,500.2460640000645,501.05753600003663,501.8569732999895,501.8419038000284,501.84195120004006,501.8569732999895,501.8569732999895,501.8569732999895,,504.42255969997495,left,0.0,2.550067999982275,,,,,,,,,,,,,,,,,,,,,,,,,,,,,,sub-149,2.0,random_dot,59.93173776115752,
left,left,speed,,,,,0.0,0.0,0.0,1.0,27.0,1.0,55.0,0.0,504.4376505999826,,,,,,,,,504.42496870004106,505.63837840000633,506.4375621000072,506.4233251999831,506.4234102000482,506.4375621000072,506.4375621000072,506.4375621000072,,508.5704493999947,left,1.0,2.1246769999852404,,,,,,,,,,,,,,,,,,,,,,,,,,,,,,sub-149,2.0,random_dot,59.93173776115752,
right,right,speed,,,,,0.0,0.0,0.0,1.0,28.0,0.0,56.0,1.0,508.5849145000102,,,,,,,,,508.573135200073,509.3859543000581,510.1839637000812,510.1696826000698,510.1697457000846,510.1839637000812,510.1839637000812,510.1839637000812,,512.2209238000214,right,1.0,2.0208047000924125,,,,,,,,,,,,,,,,,,,,,,,,,,,,,,sub-149,2.0,random_dot,59.93173776115752,
left,left,speed,,,,,0.0,0.0,0.0,1.0,28.0,1.0,57.0,0.0,512.2331864000298,,,,,,,,,512.2243350000354,513.0331377000548,513.8344975999789,513.8182377000339,513.8182886000723,513.8344975999789,513.8344975999789,513.8344975999789,,515.1991674000164,left,1.0,1.3538782000541687,,,,,,,,,,,,,,,,,,,,,,,,,,,,,,sub-149,2.0,random_dot,59.93173776115752,
right,right,speed,,,,,0.0,0.0,0.0,1.0,29.0,0.0,58.0,1.0,515.2139541000361,,,,,,,,,515.2016960000619,516.4144430999877,517.2292639000807,517.2138411999913,517.2138749000151,517.2292639000807,517.2292639000807,517.2292639000807,,518.5638169000158,right,1.0,1.317390999989584,,,,,,,,,,,,,,,,,,,,,,,,,,,,,,sub-149,2.0,random_dot,59.93173776115752,
left,left,speed,,,,,0.0,0.0,0.0,1.0,29.0,1.0,59.0,0.0,518.5783097000094,,,,,,,,,518.5660977000371,518.9297297999728,519.730680000037,519.7141585000791,519.714238799992,519.730680000037,519.730680000037,519.730680000037,,522.3119030999951,left,1.0,2.57817370002158,,,,,,,,,,,,,,,,,,,,,,,,,,,,,,sub-149,2.0,random_dot,59.93173776115752,
,,speed,,,,,0.0,0.0,0.0,1.0,,,,,,,,,,,,,,,,,,,,,,,,,,,,,,,,,,,,,,,,,,,,,,,,,,,,,,,,sub-149,2.0,random_dot,59.93173776115752,
left,left,accuracy,,,,,0.0,1.0,1.0,0.0,0.0,0.0,0.0,0.0,543.620779799996,,,,,,,,,543.6150602999842,544.796048499993,545.5965698000509,545.5801504000556,545.5802416000515,545.5965698000509,545.5965698000509,545.5965698000509,,547.6785901000258,left,1.0,2.075612899963744,,,,,,,,,,,,,,,,,,,,522.3142235000851,522.3450108000543,522.3450108000543,543.5822424000362,space,21.22685830004048,,,,,sub-149,2.0,random_dot,59.93173776115752,
right,right,accuracy,,,,,0.0,1.0,1.0,0.0,0.0,1.0,1.0,1.0,547.6923131999793,,,,,,,,,547.6817156000761,548.4933252000483,549.3077816000441,549.2927282999735,549.2927899999777,549.3077816000441,549.3077816000441,549.3077816000441,,552.6096089000348,right,1.0,3.2884126999415457,,,,,,,,,,,,,,,,,,,,,,,,,,,,,,sub-149,2.0,random_dot,59.93173776115752,
left,left,accuracy,,,,,0.0,1.0,1.0,0.0,1.0,0.0,2.0,0.0,552.6236619000556,,,,,,,,,552.6128646000288,553.8230698000407,554.624519700068,554.608150199987,554.608229400008,554.624519700068,554.624519700068,554.624519700068,,558.4908652000595,left,1.0,3.859770099981688,,,,,,,,,,,,,,,,,,,,,,,,,,,,,,sub-149,2.0,random_dot,59.93173776115752,
right,right,accuracy,,,,,0.0,1.0,1.0,0.0,1.0,1.0,3.0,1.0,558.5026274999836,,,,,,,,,558.4944958999986,558.8526433000807,559.6548758000135,559.6376098999754,559.6377435000613,559.6548758000135,559.6548758000135,559.6548758000135,,560.5709885000251,right,1.0,0.905165800009854,,,,,,,,,,,,,,,,,,,,,,,,,,,,,,sub-149,2.0,random_dot,59.93173776115752,
left,left,accuracy,,,,,0.0,1.0,1.0,0.0,2.0,0.0,4.0,0.0,560.5845385000575,,,,,,,,,560.5754979000194,561.3847268000245,562.186257100082,562.1692480000202,562.1693014000775,562.186257100082,562.186257100082,562.186257100082,,562.9025279000634,left,1.0,0.7091268000658602,,,,,,,,,,,,,,,,,,,,,,,,,,,,,,sub-149,2.0,random_dot,59.93173776115752,
right,right,accuracy,,,,,0.0,1.0,1.0,0.0,2.0,1.0,5.0,1.0,562.9155917000026,,,,,,,,,562.9052751000272,563.015509000048,563.8150605000556,563.7995365000097,563.7995730000548,563.8150605000556,563.8150605000556,563.8150605000556,,564.8486651000567,right,1.0,1.0251996999140829,,,,,,,,,,,,,,,,,,,,,,,,,,,,,,sub-149,2.0,random_dot,59.93173776115752,
right,right,accuracy,,,,,0.0,1.0,1.0,0.0,3.0,0.0,6.0,1.0,564.8636520999717,,,,,,,,,564.8505675999913,564.9490403999807,565.7630995999789,565.7476205000421,565.7476702000713,565.7630995999789,565.7630995999789,565.7630995999789,,568.4495808000211,right,1.0,2.6792790999170397,,,,,,,,,,,,,,,,,,,,,,,,,,,,,,sub-149,2.0,random_dot,59.93173776115752,
left,left,accuracy,,,,,0.0,1.0,1.0,0.0,3.0,1.0,7.0,0.0,568.4611586000537,,,,,,,,,568.4513023999752,569.263244700036,570.0783193000825,570.061840099981,570.0618751000147,570.0783193000825,570.0783193000825,570.0783193000825,,571.2280369000509,left,1.0,1.146194200031459,,,,,,,,,,,,,,,,,,,,,,,,,,,,,,sub-149,2.0,random_dot,59.93173776115752,
right,right,accuracy,,,,,0.0,1.0,1.0,0.0,4.0,0.0,8.0,1.0,571.2429882000433,,,,,,,,,571.2297944000456,571.3434527000645,572.1473758000648,572.1297180000693,572.1297945000697,572.1473758000648,572.1473758000648,572.1473758000648,,573.8102985000005,right,1.0,1.6502353999530897,,,,,,,,,,,,,,,,,,,,,,,,,,,,,,sub-149,2.0,random_dot,59.93173776115752,
left,left,accuracy,,,,,0.0,1.0,1.0,0.0,4.0,1.0,9.0,0.0,573.8251591000007,,,,,,,,,573.8127983000595,574.176157400012,574.9908645000542,574.9749675000785,574.9749975000741,574.9908645000542,574.9908645000542,574.9908645000542,,576.2973569000605,left,1.0,1.3015570999123156,,,,,,,,,,,,,,,,,,,,,,,,,,,,,,sub-149,2.0,random_dot,59.93173776115752,
right,right,accuracy,,,,,0.0,1.0,1.0,0.0,5.0,0.0,10.0,1.0,576.3090284999926,,,,,,,,,576.3018354000524,577.10743860004,577.9091134000337,577.8924642000347,577.8925237000221,577.9091134000337,577.9091134000337,577.9091134000337,,578.6467485000612,right,1.0,0.7192883000243455,,,,,,,,,,,,,,,,,,,,,,,,,,,,,,sub-149,2.0,random_dot,59.93173776115752,
left,left,accuracy,,,,,0.0,1.0,1.0,0.0,5.0,1.0,11.0,0.0,578.6715305000544,,,,,,,,,578.6518249000655,579.8560208000708,580.6704751000507,580.6408985999878,580.6409497000277,580.6704751000507,580.6704751000507,580.6704751000507,,581.2735738999909,left,1.0,0.587935599964112,,,,,,,,,,,,,,,,,,,,,,,,,,,,,,sub-149,2.0,random_dot,59.93173776115752,
right,right,accuracy,,,,,0.0,1.0,1.0,0.0,6.0,0.0,12.0,1.0,581.287698399974,,,,,,,,,581.2768722000765,582.4871839000843,583.2884511000011,583.2719443000387,583.2720034000231,583.2884511000011,583.2884511000011,583.2884511000011,,583.624913000036,right,1.0,0.3278116000583395,,,,,,,,,,,,,,,,,,,,,,,,,,,,,,sub-149,2.0,random_dot,59.93173776115752,
left,left,accuracy,,,,,0.0,1.0,1.0,0.0,6.0,1.0,13.0,0.0,583.6373989999993,,,,,,,,,583.6301583000459,583.737888499978,584.5675320000155,584.5392677000491,584.5393306000624,584.5675320000155,584.5675320000155,584.5675320000155,,585.0187398000853,left,1.0,0.4350929000647738,,,,,,,,,,,,,,,,,,,,,,,,,,,,,,sub-149,2.0,random_dot,59.93173776115752,
right,right,accuracy,,,,,0.0,1.0,1.0,0.0,7.0,0.0,14.0,1.0,585.0335256999824,,,,,,,,,585.0208469000645,585.3685261000646,586.1706140000606,586.1531812000321,586.1532340000849,586.1706140000606,586.1706140000606,586.1706140000606,,587.4559342000866,right,1.0,1.2753119999542832,,,,,,,,,,,,,,,,,,,,,,,,,,,,,,sub-149,2.0,random_dot,59.93173776115752,
left,left,accuracy,,,,,0.0,1.0,1.0,0.0,7.0,1.0,15.0,0.0,587.4685028999811,,,,,,,,,587.4605036000721,587.5678401000332,588.3695032000542,588.3520097000292,588.3520870000357,588.3695032000542,588.3695032000542,588.3695032000542,,589.3719761000248,left,1.0,0.9939636000199245,,,,,,,,,,,,,,,,,,,,,,,,,,,,,,sub-149,2.0,random_dot,59.93173776115752,
left,left,accuracy,,,,,0.0,1.0,1.0,0.0,8.0,0.0,16.0,0.0,589.3836334000807,,,,,,,,,589.3761213000398,590.1825258000754,590.9967496000463,590.9812681999756,590.9813069000375,590.9967496000463,590.9967496000463,590.9967496000463,,591.8204619999742,left,1.0,0.8156114999437705,,,,,,,,,,,,,,,,,,,,,,,,,,,,,,sub-149,2.0,random_dot,59.93173776115752,
right,right,accuracy,,,,,0.0,1.0,1.0,0.0,8.0,1.0,17.0,1.0,591.8461230000248,,,,,,,,,591.8253555999836,592.6306849999819,593.4316251000855,593.4150866999989,593.4151439000852,593.4316251000855,593.4316251000855,593.4316251000855,,594.0851379000815,right,1.0,0.6397132999263704,,,,,,,,,,,,,,,,,,,,,,,,,,,,,,sub-149,2.0,random_dot,59.93173776115752,
left,left,accuracy,,,,,0.0,1.0,1.0,0.0,9.0,0.0,18.0,0.0,594.097170000081,,,,,,,,,594.0889037000015,595.2961328000529,596.1104500000365,596.0950637999922,596.0951153000351,596.1104500000365,596.1104500000365,596.1104500000365,,600.4930535000749,right,0.0,4.370634800055996,,,,,,,,,,,,,,,,,,,,,,,,,,,,,,sub-149,2.0,random_dot,59.93173776115752,
right,right,accuracy,,,,,0.0,1.0,1.0,0.0,9.0,1.0,19.0,1.0,600.5073667999823,,,,,,,,,600.4951294000493,601.7079503000714,602.5099685000023,602.4928561000852,602.4929822999984,602.5099685000023,602.5099685000023,602.5099685000023,,603.5425580000738,right,1.0,1.0156106000067666,,,,,,,,,,,,,,,,,,,,,,,,,,,,,,sub-149,2.0,random_dot,59.93173776115752,
left,left,accuracy,,,,,0.0,1.0,1.0,0.0,10.0,0.0,20.0,0.0,603.5568618000252,,,,,,,,,603.5478823999874,603.6566692000488,604.4720489999745,604.4564276000019,604.4564644000493,604.4720489999745,604.4720489999745,604.4720489999745,,605.3231358000776,left,1.0,0.8442334999563172,,,,,,,,,,,,,,,,,,,,,,,,,,,,,,sub-149,2.0,random_dot,59.93173776115752,
right,right,accuracy,,,,,0.0,1.0,1.0,0.0,10.0,1.0,21.0,1.0,605.3370400000131,,,,,,,,,605.3250823999988,605.6886578000849,606.4876334000146,606.4726291000843,606.4726796000032,606.4876334000146,606.4876334000146,606.4876334000146,,607.1721316999756,right,1.0,0.6793124999385327,,,,,,,,,,,,,,,,,,,,,,,,,,,,,,sub-149,2.0,random_dot,59.93173776115752,
left,left,accuracy,,,,,0.0,1.0,1.0,0.0,11.0,0.0,22.0,0.0,607.1861093000043,,,,,,,,,607.1745823000092,608.3870519000338,609.1887574000284,609.1715217999881,609.1715747000417,609.1887574000284,609.1887574000284,609.1887574000284,,609.7574603999965,left,1.0,0.5545328999869525,,,,,,,,,,,,,,,,,,,,,,,,,,,,,,sub-149,2.0,random_dot,59.93173776115752,
right,right,accuracy,,,,,0.0,1.0,1.0,0.0,11.0,1.0,23.0,1.0,609.7699505999917,,,,,,,,,609.7618876000633,610.9684013000224,611.7701137000695,611.7535454999888,611.7535963000264,611.7701137000695,611.7701137000695,611.7701137000695,,612.4773588000098,left,0.0,0.7014296000124887,,,,,,,,,,,,,,,,,,,,,,,,,,,,,,sub-149,2.0,random_dot,59.93173776115752,
right,right,accuracy,,,,,0.0,1.0,1.0,0.0,12.0,0.0,24.0,1.0,612.4911204000236,,,,,,,,,612.4839980000397,612.5841039000079,613.3856243999908,613.3685775999911,613.3686525999801,613.3856243999908,613.3856243999908,613.3856243999908,,614.1502302000299,right,1.0,0.7490617000730708,,,,,,,,,,,,,,,,,,,,,,,,,,,,,,sub-149,2.0,random_dot,59.93173776115752,
left,left,accuracy,,,,,0.0,1.0,1.0,0.0,12.0,1.0,25.0,0.0,614.1647374000167,,,,,,,,,614.1526674000779,614.9656088000629,615.7676259999862,615.7509402000578,615.7509948000079,615.7676259999862,615.7676259999862,615.7676259999862,,616.7325063999742,left,1.0,0.95467209990602,,,,,,,,,,,,,,,,,,,,,,,,,,,,,,sub-149,2.0,random_dot,59.93173776115752,
left,left,accuracy,,,,,0.0,1.0,1.0,0.0,13.0,0.0,26.0,0.0,616.7464933000738,,,,,,,,,616.7359363000141,617.9474277000409,618.7651211000048,618.7481844000285,618.7482546999818,618.7651211000048,618.7651211000048,618.7651211000048,,622.1294369000243,left,1.0,3.3542028999654576,,,,,,,,,,,,,,,,,,,,,,,,,,,,,,sub-149,2.0,random_dot,59.93173776115752,
right,right,accuracy,,,,,0.0,1.0,1.0,0.0,13.0,1.0,27.0,1.0,622.1435767000075,,,,,,,,,622.1323501999723,623.343466600054,624.1449066000059,624.1283749999711,624.1284652000759,624.1449066000059,624.1449066000059,624.1449066000059,,624.8821429000236,right,1.0,0.7250394000438973,,,,,,,,,,,,,,,,,,,,,,,,,,,,,,sub-149,2.0,random_dot,59.93173776115752,
left,left,accuracy,,,,,0.0,1.0,1.0,0.0,14.0,0.0,28.0,0.0,624.8963325000368,,,,,,,,,624.8885163000086,625.6904026999837,626.4916192999808,626.4769554000814,626.4770046999911,626.4916192999808,626.4916192999808,626.4916192999808,,629.0066741000628,right,0.0,2.5005372000159696,,,,,,,,,,,,,,,,,,,,,,,,,,,,,,sub-149,2.0,random_dot,59.93173776115752,
right,right,accuracy,,,,,0.0,1.0,1.0,0.0,14.0,1.0,29.0,1.0,629.0209675000515,,,,,,,,,629.0090797999874,630.2223599000135,631.0371554000303,631.021592300036,631.0216262000613,631.0371554000303,631.0371554000303,631.0371554000303,,632.688235300011,left,0.0,1.647387299919501,,,,,,,,,,,,,,,,,,,,,,,,,,,,,,sub-149,2.0,random_dot,59.93173776115752,
left,left,accuracy,,,,,0.0,1.0,1.0,0.0,15.0,0.0,30.0,0.0,632.7027223000769,,,,,,,,,632.690841200063,633.5035374000436,634.3183215999743,634.3029493000358,634.3029889999889,634.3183215999743,634.3183215999743,634.3183215999743,,635.4213630000595,left,1.0,1.0984859999734908,,,,,,,,,,,,,,,,,,,,,,,,,,,,,,sub-149,2.0,random_dot,59.93173776115752,
right,right,accuracy,,,,,0.0,1.0,1.0,0.0,15.0,1.0,31.0,1.0,635.4347954000114,,,,,,,,,635.424033200019,635.7847142000683,636.5832550000632,636.5681412999984,636.5682063000277,636.5832550000632,636.5832550000632,636.5832550000632,,637.9014459999744,right,1.0,1.3147285000886768,,,,,,,,,,,,,,,,,,,,,,,,,,,,,,sub-149,2.0,random_dot,59.93173776115752,
left,left,accuracy,,,,,0.0,1.0,1.0,0.0,16.0,0.0,32.0,0.0,637.9157672000583,,,,,,,,,637.9040358000202,639.116579100024,639.9314783000154,639.9156553000212,639.9156945999712,639.9314783000154,639.9314783000154,639.9314783000154,,644.6309473000001,left,1.0,4.683649100014009,,,,,,,,,,,,,,,,,,,,,,,,,,,,,,sub-149,2.0,random_dot,59.93173776115752,
right,right,accuracy,,,,,0.0,1.0,1.0,0.0,16.0,1.0,33.0,1.0,644.6454207000788,,,,,,,,,644.6341768000275,644.745357900043,645.547234000056,645.5318277999759,645.5319095000159,645.547234000056,645.547234000056,645.547234000056,,646.7687915000133,right,1.0,1.2072994000045585,,,,,,,,,,,,,,,,,,,,,,,,,,,,,,sub-149,2.0,random_dot,59.93173776115752,
right,right,accuracy,,,,,0.0,1.0,1.0,0.0,17.0,0.0,34.0,1.0,646.7934409000445,,,,,,,,,646.7729690000415,646.8780220000772,647.6939001000719,647.6774729000172,647.6775105000706,647.6939001000719,647.6939001000719,647.6939001000719,,648.695683100028,left,0.0,0.9837808000156656,,,,,,,,,,,,,,,,,,,,,,,,,,,,,,sub-149,2.0,random_dot,59.93173776115752,
left,left,accuracy,,,,,0.0,1.0,1.0,0.0,17.0,1.0,35.0,0.0,648.709904300049,,,,,,,,,648.6986739999847,649.5096296999836,650.3088933000108,650.2935591000132,650.2936075000325,650.3088933000108,650.3088933000108,650.3088933000108,,651.776178900036,right,0.0,1.4603900000220165,,,,,,,,,,,,,,,,,,,,,,,,,,,,,,sub-149,2.0,random_dot,59.93173776115752,
right,right,accuracy,,,,,0.0,1.0,1.0,0.0,18.0,0.0,36.0,1.0,651.7899300999707,,,,,,,,,651.7787365000695,652.5910377000691,653.3919903000351,653.3757704000454,653.3758279000176,653.3919903000351,653.3919903000351,653.3919903000351,658.3854654000606,659.0440296999877,left,0.0,5.638957599992864,,,,,,,,,,,,,,,,,,,,,,,,,,,,,,sub-149,2.0,random_dot,59.93173776115752,
left,left,accuracy,,,,,0.0,1.0,1.0,0.0,18.0,1.0,37.0,0.0,659.057706200052,,,,,,,,,659.0500423000194,659.4016643000068,660.204402100062,660.1875719000818,660.1876952999737,660.204402100062,660.204402100062,660.204402100062,,664.0174031000352,right,0.0,3.795986899989657,,,,,,,,,,,,,,,,,,,,,,,,,,,,,,sub-149,2.0,random_dot,59.93173776115752,
left,left,accuracy,,,,,0.0,1.0,1.0,0.0,19.0,0.0,38.0,0.0,664.0321679000044,,,,,,,,,664.019827799988,664.3834023000672,665.1844600000186,665.1679784000153,665.1680508999852,665.1844600000186,665.1844600000186,665.1844600000186,,667.3499281000113,right,0.0,2.1535625000251457,,,,,,,,,,,,,,,,,,,,,,,,,,,,,,sub-149,2.0,random_dot,59.93173776115752,
right,right,accuracy,,,,,0.0,1.0,1.0,0.0,19.0,1.0,39.0,1.0,667.363777999999,,,,,,,,,667.3529458000557,668.1641189000802,668.964653300005,668.9485817999812,668.9487132000504,668.964653300005,668.964653300005,668.964653300005,,670.5657256999984,left,0.0,1.591490300022997,,,,,,,,,,,,,,,,,,,,,,,,,,,,,,sub-149,2.0,random_dot,59.93173776115752,
right,right,accuracy,,,,,0.0,1.0,1.0,0.0,20.0,0.0,40.0,1.0,670.5786733999848,,,,,,,,,670.5696509000845,671.3781093000434,672.1775389000541,672.1625759999733,672.1626758000348,672.1775389000541,672.1775389000541,672.1775389000541,,675.9278966999846,left,0.0,3.74565239995718,,,,,,,,,,,,,,,,,,,,,,,,,,,,,,sub-149,2.0,random_dot,59.93173776115752,
left,left,accuracy,,,,,0.0,1.0,1.0,0.0,20.0,1.0,41.0,0.0,675.9413100000238,,,,,,,,,675.9309033000609,676.2918941000244,677.0930724000791,677.0773454000009,677.0774413000327,677.0930724000791,677.0930724000791,677.0930724000791,,678.7418812999967,right,0.0,1.6463763000210747,,,,,,,,,,,,,,,,,,,,,,,,,,,,,,sub-149,2.0,random_dot,59.93173776115752,
right,right,accuracy,,,,,0.0,1.0,1.0,0.0,21.0,0.0,42.0,1.0,678.7559804000193,,,,,,,,,678.7446903000819,679.5564844000619,680.3582160000224,680.3410997000756,680.3411804999923,680.3582160000224,680.3582160000224,680.3582160000224,,681.40712670004,right,1.0,1.0193786000600085,,,,,,,,,,,,,,,,,,,,,,,,,,,,,,sub-149,2.0,random_dot,59.93173776115752,
left,left,accuracy,,,,,0.0,1.0,1.0,0.0,21.0,1.0,43.0,0.0,681.4228573000291,,,,,,,,,681.4134820000036,681.5218412000686,682.3199721000856,682.306645500008,682.3067050999962,682.3199721000856,682.3199721000856,682.3199721000856,,683.9579967000755,left,1.0,1.630559700075537,,,,,,,,,,,,,,,,,,,,,,,,,,,,,,sub-149,2.0,random_dot,59.93173776115752,
right,right,accuracy,,,,,0.0,1.0,1.0,0.0,22.0,0.0,44.0,1.0,683.9696936000837,,,,,,,,,683.9616545999888,684.069646500051,684.8693594000069,684.8542205999838,684.8542644000845,684.8693594000069,684.8693594000069,684.8693594000069,,685.72016050003,right,1.0,0.8445223999442533,,,,,,,,,,,,,,,,,,,,,,,,,,,,,,sub-149,2.0,random_dot,59.93173776115752,
left,left,accuracy,,,,,0.0,1.0,1.0,0.0,22.0,1.0,45.0,0.0,685.7337385000428,,,,,,,,,685.7223794000456,686.5341096000047,687.3378882000688,687.3200103000272,687.3200617000693,687.3378882000688,687.3378882000688,687.3378882000688,,688.35111649998,left,1.0,1.000411799992435,,,,,,,,,,,,,,,,,,,,,,,,,,,,,,sub-149,2.0,random_dot,59.93173776115752,
right,right,accuracy,,,,,0.0,1.0,1.0,0.0,23.0,0.0,46.0,1.0,688.3681624999736,,,,,,,,,688.3545077000745,688.7199259999907,689.5318029000191,689.5154376999708,689.5154669000767,689.5318029000191,689.5318029000191,689.5318029000191,,690.3207785000559,right,1.0,0.7699832000071183,,,,,,,,,,,,,,,,,,,,,,,,,,,,,,sub-149,2.0,random_dot,59.93173776115752,
left,left,accuracy,,,,,0.0,1.0,1.0,0.0,23.0,1.0,47.0,0.0,690.3330128000816,,,,,,,,,690.324198700022,690.4326739000389,691.2379382000072,691.2197161000222,691.2197942000348,691.2379382000072,691.2379382000072,691.2379382000072,,692.6042224999983,left,1.0,1.3465024000033736,,,,,,,,,,,,,,,,,,,,,,,,,,,,,,sub-149,2.0,random_dot,59.93173776115752,
right,right,accuracy,,,,,0.0,1.0,1.0,0.0,24.0,0.0,48.0,1.0,692.6173051000806,,,,,,,,,692.6089660000289,693.4148529000813,694.2286293000216,694.2131636000704,694.2132007000037,694.2286293000216,694.2286293000216,694.2286293000216,,695.1059145000763,right,1.0,0.8695324999280274,,,,,,,,,,,,,,,,,,,,,,,,,,,,,,sub-149,2.0,random_dot,59.93173776115752,
left,left,accuracy,,,,,0.0,1.0,1.0,0.0,24.0,1.0,49.0,0.0,695.120531200082,,,,,,,,,695.1137961000204,695.2134143000003,696.0162233000156,695.9985807000194,695.9986330000684,696.0162233000156,696.0162233000156,696.0162233000156,,697.3165487999795,right,0.0,1.2918070000596344,,,,,,,,,,,,,,,,,,,,,,,,,,,,,,sub-149,2.0,random_dot,59.93173776115752,
left,left,accuracy,,,,,0.0,1.0,1.0,0.0,25.0,0.0,50.0,0.0,697.3293448999757,,,,,,,,,697.3201613000128,697.4287884000223,698.2308522000676,698.2127541999798,698.2128335000016,698.2308522000676,698.2308522000676,698.2308522000676,,700.2062199000502,left,1.0,1.9522808999754488,,,,,,,,,,,,,,,,,,,,,,,,,,,,,,sub-149,2.0,random_dot,59.93173776115752,
right,right,accuracy,,,,,0.0,1.0,1.0,0.0,25.0,1.0,51.0,1.0,700.2200174999889,,,,,,,,,700.2135632000864,701.0267513999715,701.8434727999847,701.8274063999997,701.8274542000145,701.8434727999847,701.8434727999847,701.8434727999847,,702.7441727999831,right,1.0,0.8971205999841914,,,,,,,,,,,,,,,,,,,,,,,,,,,,,,sub-149,2.0,random_dot,59.93173776115752,
right,right,accuracy,,,,,0.0,1.0,1.0,0.0,26.0,0.0,52.0,1.0,702.7571180000668,,,,,,,,,702.7478686000686,703.9572355999844,704.7720412000781,704.7564940999728,704.7565856999718,704.7720412000781,704.7720412000781,704.7720412000781,,705.822930400027,right,1.0,1.0416620000032708,,,,,,,,,,,,,,,,,,,,,,,,,,,,,,sub-149,2.0,random_dot,59.93173776115752,
left,left,accuracy,,,,,0.0,1.0,1.0,0.0,26.0,1.0,53.0,0.0,705.8376779999817,,,,,,,,,705.8254222000251,706.6381345000118,707.4400173000759,707.4232728000497,707.4233291000128,707.4400173000759,707.4400173000759,707.4400173000759,,708.2234500000486,left,1.0,0.7763876999961212,,,,,,,,,,,,,,,,,,,,,,,,,,,,,,sub-149,2.0,random_dot,59.93173776115752,
right,right,accuracy,,,,,0.0,1.0,1.0,0.0,27.0,0.0,54.0,1.0,708.2370483999839,,,,,,,,,708.226864599972,708.5867459999863,709.386380800046,709.3712963999715,709.371344299987,709.386380800046,709.386380800046,709.386380800046,,709.9394572000019,right,1.0,0.5444266000995412,,,,,,,,,,,,,,,,,,,,,,,,,,,,,,sub-149,2.0,random_dot,59.93173776115752,
left,left,accuracy,,,,,0.0,1.0,1.0,0.0,27.0,1.0,55.0,0.0,709.95244620007,,,,,,,,,709.943017499987,711.1522338000359,711.9553523000795,711.9374641000759,711.9376114000333,711.9553523000795,711.9553523000795,711.9553523000795,,712.5213473000331,left,1.0,0.5471418000524864,,,,,,,,,,,,,,,,,,,,,,,,,,,,,,sub-149,2.0,random_dot,59.93173776115752,
left,left,accuracy,,,,,0.0,1.0,1.0,0.0,28.0,0.0,56.0,0.0,712.5344687000616,,,,,,,,,712.5253260000609,712.8843946000561,713.6854556000326,713.668955400004,713.6690141999861,713.6854556000326,713.6854556000326,713.6854556000326,,714.3899180999724,right,0.0,0.6886989999329671,,,,,,,,,,,,,,,,,,,,,,,,,,,,,,sub-149,2.0,random_dot,59.93173776115752,
right,right,accuracy,,,,,0.0,1.0,1.0,0.0,28.0,1.0,57.0,1.0,714.4015731000109,,,,,,,,,714.3946911999956,714.5000615000026,715.3031406999798,715.2855330000166,715.2856109000277,715.3031406999798,715.3031406999798,715.3031406999798,,715.8388003000291,right,1.0,0.5239006999181584,,,,,,,,,,,,,,,,,,,,,,,,,,,,,,sub-149,2.0,random_dot,59.93173776115752,
right,right,accuracy,,,,,0.0,1.0,1.0,0.0,29.0,0.0,58.0,1.0,715.8515116000781,,,,,,,,,715.843991199974,716.6484840000048,717.4511505999835,717.4331954000518,717.4332694000332,717.4511505999835,717.4511505999835,717.4511505999835,,717.847405700013,left,0.0,0.3874017000198364,,,,,,,,,,,,,,,,,,,,,,,,,,,,,,sub-149,2.0,random_dot,59.93173776115752,
left,left,accuracy,,,,,0.0,1.0,1.0,0.0,29.0,1.0,59.0,0.0,717.8624838000396,,,,,,,,,717.8493836000562,717.9622580000432,718.761889400077,718.7461405000649,718.746172000072,718.761889400077,718.761889400077,718.761889400077,,719.2526949000312,right,0.0,0.4742620000615716,,,,,,,,,,,,,,,,,,,,,,,,,,,,,,sub-149,2.0,random_dot,59.93173776115752,
,,accuracy,,,,,0.0,1.0,1.0,0.0,,,,,,,,,,,,,,,,,,,,,,,,,,,,,,,,,,,,,,,,,,,,,,,,,,,,,,,,sub-149,2.0,random_dot,59.93173776115752,
,,,,,,,,,,,,,,,,,,,,,,,,,,,,,,,,,,,,,,,,,,,,,,,,,,,,,,,,,,,,,,,719.2567809000611,719.2692026000004,724.2600991000654,sub-149,,,,
