direction,corrAns,randomInstr,practice_trials.thisRepN,practice_trials.thisTrialN,practice_trials.thisN,practice_trials.thisIndex,instr_trials.thisRepN,instr_trials.thisTrialN,instr_trials.thisN,instr_trials.thisIndex,test_trials.thisRepN,test_trials.thisTrialN,test_trials.thisN,test_trials.thisIndex,thisRow.t,notes,general_instruction.started,textGeneralInstr.started,respGeneralInstr.started,general_instruction.stopped,respGeneralInstr.keys,respGeneralInstr.rt,respGeneralInstr.duration,ITI.started,fixcross.started,fixcross.stopped,ITI.stopped,dots.started,backgroundDots.started,stimulusDots.started,respDots.started,stimulusDots.stopped,dots.stopped,respDots.keys,respDots.corr,respDots.rt,respDots.duration,feedback.started,textFeedback.started,feedback.stopped,textFeedback.stopped,info.started,textInfo.started,keyRespInfo.started,info.stopped,keyRespInfo.keys,keyRespInfo.rt,keyRespInfo.duration,test_instruction.started,textTestInstr.started,respTestInstr.started,test_instruction.stopped,respTestInstr.keys,respTestInstr.rt,respTestInstr.duration,random_instruction.started,textRandomInstr.started,respRandomInstr.started,random_instruction.stopped,respRandomInstr.keys,respRandomInstr.rt,respRandomInstr.duration,goodbye.started,textGoodbye.started,textGoodbye.stopped,goodbye.stopped,participant,session,expName,frameRate,Unnamed: 74
,,,,,,,,,,,,,,,,,0.0344426000956445,0.0399811000097543,0.0399811000097543,30.68707019998692,space,65.88507879991084,,,,,,,,,,,,,,,,,,,,,,,,,,,,,,,,,,,,,,,,,,,,,sub-016,1.0,random_dot,119.74513457803702,
left,left,,0.0,0.0,0.0,0.0,,,,,,,,,30.72293770010583,,,,,,,,,30.719116900116205,31.8936537001282,32.69808590016328,32.68710400001146,32.68714649998583,32.69808590016328,32.69808590016328,32.69808590016328,37.69371960009448,38.779514900175855,right,0.0,41.31839539995417,,38.79374220012687,38.82412000000477,39.30245289998129,,,,,,,,,,,,,,,,,,,,,,,,,,,sub-016,1.0,random_dot,119.74513457803702,
right,right,,0.0,1.0,1.0,1.0,,,,,,,,,39.31022850004956,,,,,,,,,39.30314590013586,39.39333900017664,40.19397190003656,40.18623350001872,40.186267900047824,40.19397190003656,40.19397190003656,40.19397190003656,,43.20429390016943,left,0.0,38.252514199819416,,43.20500220009126,43.209947700146586,43.7033492999617,43.710289699956775,,,,,,,,,,,,,,,,,,,,,,,,,,sub-016,1.0,random_dot,119.74513457803702,
left,left,,1.0,0.0,2.0,0.0,,,,,,,,,43.710289699956775,,,,,,,,,43.703948300099,44.91001950018108,45.71074020001106,45.70284630008973,45.70287530007772,45.71074020001106,45.71074020001106,45.71074020001106,,50.44774270011112,right,0.0,39.977874299976975,,50.44837600016035,50.45412760018371,50.94680700008757,50.954378800001,,,,,,,,,,,,,,,,,,,,,,,,,,sub-016,1.0,random_dot,119.74513457803702,
right,right,,1.0,1.0,3.0,1.0,,,,,,,,,50.954378800001,,,,,,,,,50.94788790005259,51.75420570001006,52.55566000007093,52.54705830011517,52.547105700010434,52.55566000007093,52.55566000007093,52.55566000007093,57.55471060005948,58.27312520006672,left,0.0,40.95467429980636,,58.27384100016207,58.2795761001762,58.779805900063366,,,,,,,,,,,,,,,,,,,,,,,,,,,sub-016,1.0,random_dot,119.74513457803702,
right,right,,2.0,0.0,4.0,1.0,,,,,,,,,58.787339500151575,,,,,,,,,58.78057199995965,59.97922240011394,60.77996219997294,60.77218240010552,60.77221840014681,60.77996219997294,60.77996219997294,60.77996219997294,65.77944170008413,66.23088619997725,right,1.0,40.68754919990897,,66.23149380018003,66.24704760010354,66.73775830003433,,,,,,,,,,,,,,,,,,,,,,,,,,,sub-016,1.0,random_dot,119.74513457803702,
left,left,,2.0,1.0,5.0,0.0,,,,,,,,,66.7457401000429,,,,,,,,,66.73867760016583,67.93733340012841,68.73779599997215,68.73035400011577,68.73038169997744,68.73779599997215,68.73779599997215,68.73779599997215,73.73787140008062,74.80717190005817,left,1.0,41.311468299943954,,74.80793280014768,74.8132599000819,75.31251520011574,,,,,,,,,,,,,,,,,,,,,,,,,,,sub-016,1.0,random_dot,119.74513457803702,
right,right,,3.0,0.0,6.0,1.0,,,,,,,,,75.32062150002457,,,,,,,,,75.31340169999748,75.66242159996182,76.46265110000968,76.45516450004652,76.45519879995845,76.46265110000968,76.46265110000968,76.46265110000968,81.46278630010784,81.87249650014564,right,1.0,40.65068430011161,,81.87320130015723,81.87903279997408,82.37197750015184,82.37892150017433,,,,,,,,,,,,,,,,,,,,,,,,,,sub-016,1.0,random_dot,119.74513457803702,
left,left,,3.0,1.0,7.0,0.0,,,,,,,,,82.37892150017433,,,,,,,,,82.37257440015674,83.57900130003691,84.37922430015169,84.3710759000387,84.37109849997796,84.37922430015169,84.37922430015169,84.37922430015169,,86.12258470011875,left,1.0,36.9805209999904,,86.12316570011899,86.12898640008643,86.62169719999656,86.62902730004862,,,,,,,,,,,,,,,,,,,,,,,,,,sub-016,1.0,random_dot,119.74513457803702,
right,right,,4.0,0.0,8.0,1.0,,,,,,,,,86.62902730004862,,,,,,,,,86.62229540012777,86.72885400010273,87.52933280006982,87.52196340006776,87.52199270017445,87.52933280006982,87.52933280006982,87.52933280006982,,89.96377549995668,right,1.0,37.6735837997403,,89.96481609996408,89.97037420002744,90.46320540015586,90.47088999999688,,,,,,,,,,,,,,,,,,,,,,,,,,sub-016,1.0,random_dot,119.74513457803702,
left,left,,4.0,1.0,9.0,0.0,,,,,,,,,90.47088999999688,,,,,,,,,90.4638116999995,91.2706989001017,92.07113080006091,92.06356180016884,92.06360200000928,92.07113080006091,92.07113080006091,92.07113080006091,,95.2385814001318,left,1.0,38.404739799909294,,95.23919240012764,95.24579089996404,95.73844800004736,95.74548600008713,,,,,,,,,,,,,,,,,,,,,,,,,,sub-016,1.0,random_dot,119.74513457803702,
right,right,,5.0,0.0,10.0,1.0,,,,,,,,,95.74548600008713,,,,,,,,,95.73938200017436,96.54540570010433,97.34617140004411,97.33819969999604,97.33823090000078,97.34617140004411,97.34617140004411,97.34617140004411,,99.58122369996272,left,0.0,37.47301240009256,,99.58235640008934,99.58984960010277,100.08769910014234,,,,,,,,,,,,,,,,,,,,,,,,,,,sub-016,1.0,random_dot,119.74513457803702,
left,left,,5.0,1.0,11.0,0.0,,,,,,,,,100.09537440002896,,,,,,,,,100.08868909999728,100.18748389999382,100.99044830002822,100.9807694000192,100.98081790003926,100.99044830002822,100.99044830002822,100.99044830002822,,104.63021089998074,right,0.0,38.87700959970243,,104.63098050002009,104.63718950003386,105.1301585000474,105.1376326000318,,,,,,,,,,,,,,,,,,,,,,,,,,sub-016,1.0,random_dot,119.74513457803702,
right,right,,6.0,0.0,12.0,1.0,,,,,,,,,105.1376326000318,,,,,,,,,105.13073870004156,105.2379602000583,106.04744570003822,106.03908780007625,106.03913510008717,106.04744570003822,106.04744570003822,106.04744570003822,111.04583820002154,111.55578870000318,right,1.0,40.74520909995772,,111.55669220001435,111.56436730013228,112.0623469001148,,,,,,,,,,,,,,,,,,,,,,,,,,,sub-016,1.0,random_dot,119.74513457803702,
left,left,,6.0,1.0,13.0,0.0,,,,,,,,,112.07098890002815,,,,,,,,,112.06303900014608,112.8621394999791,113.66287260013632,113.65539050009102,113.65542399999686,113.66287260013632,113.66287260013632,113.66287260013632,118.66269060014749,119.29704970004968,right,0.0,40.87343129981309,,119.29767230013384,119.30554850003682,119.80412680003792,,,,,,,,,,,,,,,,,,,,,,,,,,,sub-016,1.0,random_dot,119.74513457803702,
right,right,,7.0,0.0,14.0,1.0,,,,,,,,,119.81208260008134,,,,,,,,,119.8048394001089,120.1538840001449,120.9559772000648,120.94729600008576,120.94733170000836,120.9559772000648,120.9559772000648,120.9559772000648,,125.18965670000762,right,1.0,39.47673869994469,,125.19039220013656,125.20111760008147,125.69594810018316,,,,,,,,,,,,,,,,,,,,,,,,,,,sub-016,1.0,random_dot,119.74513457803702,
left,left,,7.0,1.0,15.0,0.0,,,,,,,,,125.70377090014516,,,,,,,,,125.69703979999758,126.49621100001968,127.304526100168,127.29722209996544,127.2972745001316,127.304526100168,127.304526100168,127.304526100168,132.30446280003525,132.83902400010265,left,1.0,40.77398629975505,,132.83971940004267,132.8458931001369,133.3383357001003,133.34562080004252,,,,,,,,,,,,,,,,,,,,,,,,,,sub-016,1.0,random_dot,119.74513457803702,
right,right,,8.0,0.0,16.0,1.0,,,,,,,,,133.34562080004252,,,,,,,,,133.33896040008403,134.5456145000644,135.34680699999444,135.33870940003544,135.33875070000067,135.34680699999444,135.34680699999444,135.34680699999444,,139.2981454001274,right,1.0,39.19454779988155,,139.29875790001824,139.30347699997947,139.79685549996793,139.80389510001987,,,,,,,,,,,,,,,,,,,,,,,,,,sub-016,1.0,random_dot,119.74513457803702,
left,left,,8.0,1.0,17.0,0.0,,,,,,,,,139.80389510001987,,,,,,,,,139.79747980018146,140.153694299981,140.9544450000394,140.9465046999976,140.94653360010125,140.9544450000394,140.9544450000394,140.9544450000394,,143.20700579998083,right,0.0,37.48813849990256,,143.20793600007892,143.2150135000702,143.71255890000612,,,,,,,,,,,,,,,,,,,,,,,,,,,sub-016,1.0,random_dot,119.74513457803702,
right,right,,9.0,0.0,18.0,1.0,,,,,,,,,143.72048020013608,,,,,,,,,143.71317390003242,144.91211859998293,145.71292489999905,145.70552890002728,145.70562240015715,145.71292489999905,145.71292489999905,145.71292489999905,,150.24787760013714,left,0.0,39.77278119977564,,150.24856059998274,150.2536693001166,150.74638230004348,150.75387300015427,,,,,,,,,,,,,,,,,,,,,,,,,,sub-016,1.0,random_dot,119.74513457803702,
left,left,,9.0,1.0,19.0,0.0,,,,,,,,,150.75387300015427,,,,,,,,,150.74718940001912,150.85363040002994,151.65562330000105,151.64730049995703,151.64734140015207,151.65562330000105,151.65562330000105,151.65562330000105,,153.65533320000395,left,1.0,37.23738839989528,,153.65630450006574,153.6636198000051,154.16235560015775,,,,,,,,,,,,,,,,,,,,,,,,,,,sub-016,1.0,random_dot,119.74513457803702,
,,,,,,,,,,,,,,,,,,,,,,,,,,,,,,,,,,,,,,,,,,154.1624602000229,154.17069580010138,154.17069580010138,159.37235750001855,space,40.44344719988294,,,,,,,,,,,,,,,,,,,,sub-016,1.0,random_dot,119.74513457803702,
,,,,,,,,,,,,,,,,,,,,,,,,,,,,,,,,,,,,,,,,,,,,,,,,,159.37248190003447,159.37895789998583,159.37895789998583,160.50522819999605,space,36.36383859976195,,,,,,,,,,,,,sub-016,1.0,random_dot,119.74513457803702,
left,left,speed,,,,,0.0,0.0,0.0,1.0,0.0,0.0,0.0,0.0,164.1167293000035,,,,,,,,,164.1138995999936,164.4621034001466,165.2624331000261,165.25532160000876,165.25536429998465,165.2624331000261,165.2624331000261,165.2624331000261,,167.99668149999343,left,1.0,37.972040499793366,,,,,,,,,,,,,,,,,,,,160.51141649996862,160.53872630000114,160.53872630000114,164.10546290013008,space,38.80355589976534,,,,,,sub-016,1.0,random_dot,119.74513457803702,
right,right,speed,,,,,0.0,0.0,0.0,1.0,0.0,1.0,1.0,1.0,168.0036597000435,,,,,,,,,167.99803950008936,168.3535832001362,169.1554819000885,169.1470955000259,169.1471408000216,169.1554819000885,169.1554819000885,169.1554819000885,174.15419819997624,174.68940420006402,right,1.0,40.771822799695656,,,,,,,,,,,,,,,,,,,,,,,,,,,,,,,sub-016,1.0,random_dot,119.74513457803702,
right,right,speed,,,,,0.0,0.0,0.0,1.0,1.0,0.0,2.0,1.0,174.69516130001284,,,,,,,,,174.6911238001194,175.8953256001696,176.69560440001078,176.688256500056,176.6882884001825,176.69560440001078,176.69560440001078,176.69560440001078,,180.28167239995676,left,0.0,38.82505359989591,,,,,,,,,,,,,,,,,,,,,,,,,,,,,,,sub-016,1.0,random_dot,119.74513457803702,
left,left,speed,,,,,0.0,0.0,0.0,1.0,1.0,1.0,3.0,0.0,180.28662030003036,,,,,,,,,180.28351890016347,180.38709510001357,181.18750760005787,181.1796019000467,181.179633700056,181.18750760005787,181.18750760005787,181.18750760005787,,183.680251599988,left,1.0,37.732326599769294,,,,,,,,,,,,,,,,,,,,,,,,,,,,,,,sub-016,1.0,random_dot,119.74513457803702,
right,right,speed,,,,,0.0,0.0,0.0,1.0,2.0,0.0,4.0,1.0,183.68677860009484,,,,,,,,,183.68139840010556,183.78686630004088,184.5875258001033,184.58019939996305,184.5802362000104,184.5875258001033,184.5875258001033,184.5875258001033,,188.8142574999947,left,0.0,39.46955219982192,,,,,,,,,,,,,,,,,,,,,,,,,,,,,,,sub-016,1.0,random_dot,119.74513457803702,
left,left,speed,,,,,0.0,0.0,0.0,1.0,2.0,1.0,5.0,0.0,188.8200638000853,,,,,,,,,188.81557260011323,190.02030650014055,190.8223711999599,190.81386760016903,190.81390430009924,190.8223711999599,190.8223711999599,190.8223711999599,,194.63990740012375,left,1.0,39.0603276998736,,,,,,,,,,,,,,,,,,,,,,,,,,,,,,,sub-016,1.0,random_dot,119.74513457803702,
left,left,speed,,,,,0.0,0.0,0.0,1.0,3.0,0.0,6.0,0.0,194.64520550007,,,,,,,,,194.64147170004435,195.44535639998503,196.2460033001844,196.23827760014683,196.23831100016832,196.2460033001844,196.2460033001844,196.2460033001844,,197.8637785001192,left,1.0,36.85511769982986,,,,,,,,,,,,,,,,,,,,,,,,,,,,,,,sub-016,1.0,random_dot,119.74513457803702,
right,right,speed,,,,,0.0,0.0,0.0,1.0,3.0,1.0,7.0,1.0,197.87018790002912,,,,,,,,,197.8651191000827,198.6704122000374,199.4706480000168,199.4629428000189,199.4629923000466,199.4706480000168,199.4706480000168,199.4706480000168,,204.0554925999604,right,1.0,39.82287159981206,,,,,,,,,,,,,,,,,,,,,,,,,,,,,,,sub-016,1.0,random_dot,119.74513457803702,
left,left,speed,,,,,0.0,0.0,0.0,1.0,4.0,0.0,8.0,0.0,204.06178510002792,,,,,,,,,204.056596999988,204.1618804000318,204.9624418001622,204.9547405000776,204.95479260012507,204.9624418001622,204.9624418001622,204.9624418001622,209.96233200002465,210.40545870014464,left,1.0,40.67983589996584,,,,,,,,,,,,,,,,,,,,,,,,,,,,,,,sub-016,1.0,random_dot,119.74513457803702,
right,right,speed,,,,,0.0,0.0,0.0,1.0,4.0,1.0,9.0,1.0,210.4116979001556,,,,,,,,,210.40657490002923,211.21161300013773,212.0122534001712,212.0041575001087,212.00423149997368,212.0122534001712,212.0122534001712,212.0122534001712,,214.4467283000704,right,1.0,37.67363669979386,,,,,,,,,,,,,,,,,,,,,,,,,,,,,,,sub-016,1.0,random_dot,119.74513457803702,
left,left,speed,,,,,0.0,0.0,0.0,1.0,5.0,0.0,10.0,0.0,214.45337400003336,,,,,,,,,214.4478482999839,214.80403360002677,215.6135340000037,215.60498629999347,215.60505420016125,215.6135340000037,215.6135340000037,215.6135340000037,,216.87193130003288,left,1.0,36.50148719991557,,,,,,,,,,,,,,,,,,,,,,,,,,,,,,,sub-016,1.0,random_dot,119.74513457803702,
right,right,speed,,,,,0.0,0.0,0.0,1.0,5.0,1.0,11.0,1.0,216.87838770006783,,,,,,,,,216.87354800011963,217.6783432001248,218.47882700013,218.4711885000579,218.4712221000809,218.47882700013,218.47882700013,218.47882700013,,221.93854800006372,right,1.0,38.698244699742645,,,,,,,,,,,,,,,,,,,,,,,,,,,,,,,sub-016,1.0,random_dot,119.74513457803702,
right,right,speed,,,,,0.0,0.0,0.0,1.0,6.0,0.0,12.0,1.0,221.9449949001428,,,,,,,,,221.9400126000401,222.29529460007325,223.0967190000229,223.08816789998676,223.0882082001772,223.0967190000229,223.0967190000229,223.0967190000229,,227.01316029997545,right,1.0,39.15420059976168,,,,,,,,,,,,,,,,,,,,,,,,,,,,,,,sub-016,1.0,random_dot,119.74513457803702,
left,left,speed,,,,,0.0,0.0,0.0,1.0,6.0,1.0,13.0,0.0,227.01969730015844,,,,,,,,,227.01423710002564,227.36995950015265,228.17206600005736,228.16422559996136,228.1643085000105,228.17206600005736,228.17206600005736,228.17206600005736,,230.52997100003995,left,1.0,37.59966409998015,,,,,,,,,,,,,,,,,,,,,,,,,,,,,,,sub-016,1.0,random_dot,119.74513457803702,
left,left,speed,,,,,0.0,0.0,0.0,1.0,7.0,0.0,14.0,0.0,230.5366817000322,,,,,,,,,230.53112860000687,230.88699889997952,231.68984790006647,231.68110570008864,231.6811558001209,231.68984790006647,231.68984790006647,231.68984790006647,236.68695590016432,237.10541880014355,right,0.0,40.65324209979735,,,,,,,,,,,,,,,,,,,,,,,,,,,,,,,sub-016,1.0,random_dot,119.74513457803702,
right,right,speed,,,,,0.0,0.0,0.0,1.0,7.0,1.0,15.0,1.0,237.11145039997064,,,,,,,,,237.1071507001761,238.31172979995608,239.1120860001538,239.10441340017127,239.10447460017167,239.1120860001538,239.1120860001538,239.1120860001538,,240.74688750016503,left,0.0,36.871619399869815,,,,,,,,,,,,,,,,,,,,,,,,,,,,,,,sub-016,1.0,random_dot,119.74513457803702,
right,right,speed,,,,,0.0,0.0,0.0,1.0,8.0,0.0,16.0,1.0,240.7531940001063,,,,,,,,,240.74805400008336,241.5533865999896,242.3537137999665,242.34622279996984,242.3462559999898,242.3537137999665,242.3537137999665,242.3537137999665,,244.80576570006087,left,0.0,37.68972799973562,,,,,,,,,,,,,,,,,,,,,,,,,,,,,,,sub-016,1.0,random_dot,119.74513457803702,
left,left,speed,,,,,0.0,0.0,0.0,1.0,8.0,1.0,17.0,0.0,244.8116217001807,,,,,,,,,244.80729659995995,246.01163820014332,246.811938200146,246.8043587000575,246.80438830005005,246.811938200146,246.811938200146,246.811938200146,,248.20532559999265,left,1.0,36.632183799752966,,,,,,,,,,,,,,,,,,,,,,,,,,,,,,,sub-016,1.0,random_dot,119.74513457803702,
right,right,speed,,,,,0.0,0.0,0.0,1.0,9.0,0.0,18.0,1.0,248.21154960012063,,,,,,,,,248.20684520015493,248.5617837000173,249.3621104999911,249.35412760009055,249.3541568000801,249.3621104999911,249.3621104999911,249.3621104999911,,251.8052668001037,left,0.0,37.686393399955705,,,,,,,,,,,,,,,,,,,,,,,,,,,,,,,sub-016,1.0,random_dot,119.74513457803702,
left,left,speed,,,,,0.0,0.0,0.0,1.0,9.0,1.0,19.0,0.0,251.81146270013411,,,,,,,,,251.8064189001452,251.91152760013935,252.71195130003616,252.70465450012125,252.70469560008496,252.71195130003616,252.71195130003616,252.71195130003616,,254.7631558000576,left,1.0,37.2889728997834,,,,,,,,,,,,,,,,,,,,,,,,,,,,,,,sub-016,1.0,random_dot,119.74513457803702,
right,right,speed,,,,,0.0,0.0,0.0,1.0,10.0,0.0,20.0,1.0,254.76977120013908,,,,,,,,,254.76426740013997,255.97024840000088,256.7708044000901,256.7627995000221,256.7628307000268,256.7708044000901,256.7708044000901,256.7708044000901,,259.9133350001648,left,0.0,38.380306999897584,,,,,,,,,,,,,,,,,,,,,,,,,,,,,,,sub-016,1.0,random_dot,119.74513457803702,
left,left,speed,,,,,0.0,0.0,0.0,1.0,10.0,1.0,21.0,0.0,259.9200884001329,,,,,,,,,259.91448030015454,260.2701595001854,261.0702206999995,261.063127100002,261.06315649999306,261.0702206999995,261.0702206999995,261.0702206999995,,263.40528529998846,right,0.0,37.57484819972888,,,,,,,,,,,,,,,,,,,,,,,,,,,,,,,sub-016,1.0,random_dot,119.74513457803702,
left,left,speed,,,,,0.0,0.0,0.0,1.0,11.0,0.0,22.0,0.0,263.4114131999668,,,,,,,,,263.40708660008386,263.51147949998267,264.3120273000095,264.30488920002244,264.3049251001794,264.3120273000095,264.3120273000095,264.3120273000095,,268.3803654999938,right,0.0,39.3078412998002,,,,,,,,,,,,,,,,,,,,,,,,,,,,,,,sub-016,1.0,random_dot,119.74513457803702,
right,right,speed,,,,,0.0,0.0,0.0,1.0,11.0,1.0,23.0,1.0,268.3863978001755,,,,,,,,,268.3818666001316,269.58713630004786,270.3974842999596,270.3880955001805,270.388142199954,270.3974842999596,270.3974842999596,270.3974842999596,,273.77222350006923,left,0.0,38.61181699996814,,,,,,,,,,,,,,,,,,,,,,,,,,,,,,,sub-016,1.0,random_dot,119.74513457803702,
right,right,speed,,,,,0.0,0.0,0.0,1.0,12.0,0.0,24.0,1.0,273.77874490013346,,,,,,,,,273.7734984999988,273.87872040015645,274.67891410016455,274.6713923001662,274.6714292000979,274.67891410016455,274.67891410016455,274.67891410016455,,277.95068949996494,right,1.0,38.50450879987329,,,,,,,,,,,,,,,,,,,,,,,,,,,,,,,sub-016,1.0,random_dot,119.74513457803702,
left,left,speed,,,,,0.0,0.0,0.0,1.0,12.0,1.0,25.0,0.0,277.958338299999,,,,,,,,,277.95325420005247,279.15354680013843,279.9620623001829,279.9541132999584,279.9541727001779,279.9620623001829,279.9620623001829,279.9620623001829,,283.1638992000371,left,1.0,38.44568199990317,,,,,,,,,,,,,,,,,,,,,,,,,,,,,,,sub-016,1.0,random_dot,119.74513457803702,
left,left,speed,,,,,0.0,0.0,0.0,1.0,13.0,0.0,26.0,0.0,283.1697993001435,,,,,,,,,283.1654918000568,283.97016470017843,284.7722559000831,284.7630436001345,284.763080800185,284.7722559000831,284.7722559000831,284.7722559000831,,287.07166370004416,left,1.0,37.5410266998224,,,,,,,,,,,,,,,,,,,,,,,,,,,,,,,sub-016,1.0,random_dot,119.74513457803702,
right,right,speed,,,,,0.0,0.0,0.0,1.0,13.0,1.0,27.0,1.0,287.07810600008816,,,,,,,,,287.07282080012374,288.2782193999737,289.07905529998243,289.07089790003374,289.0709230999928,289.07905529998243,289.07905529998243,289.07905529998243,,293.27225710009225,right,1.0,39.4337887999136,,,,,,,,,,,,,,,,,,,,,,,,,,,,,,,sub-016,1.0,random_dot,119.74513457803702,
left,left,speed,,,,,0.0,0.0,0.0,1.0,14.0,0.0,28.0,0.0,293.2788504001219,,,,,,,,,293.2733738999814,293.37805699999444,294.17916400008835,294.1714006999973,294.17144900001585,294.17916400008835,294.17916400008835,294.17916400008835,,295.34817770007066,left,1.0,36.41269279993139,,,,,,,,,,,,,,,,,,,,,,,,,,,,,,,sub-016,1.0,random_dot,119.74513457803702,
right,right,speed,,,,,0.0,0.0,0.0,1.0,14.0,1.0,29.0,1.0,295.35285270004533,,,,,,,,,295.3493858000729,296.5533939001616,297.3538091001101,297.346814900171,297.3468437001575,297.3538091001101,297.3538091001101,297.3538091001101,,298.7218754000496,left,0.0,36.61154309986159,,,,,,,,,,,,,,,,,,,,,,,,,,,,,,,sub-016,1.0,random_dot,119.74513457803702,
left,left,speed,,,,,0.0,0.0,0.0,1.0,15.0,0.0,30.0,0.0,298.7279366001021,,,,,,,,,298.72298990003765,299.52839800016955,300.32876890012994,300.3209577000234,300.32098560011946,300.32876890012994,300.32876890012994,300.32876890012994,,301.93003559997305,right,0.0,36.83926419983618,,,,,,,,,,,,,,,,,,,,,,,,,,,,,,,sub-016,1.0,random_dot,119.74513457803702,
right,right,speed,,,,,0.0,0.0,0.0,1.0,15.0,1.0,31.0,1.0,301.93631780007854,,,,,,,,,301.9313449000474,303.1363044001628,303.93677909998223,303.92876120004803,303.92878700001165,303.93677909998223,303.93677909998223,303.93677909998223,,305.4047243001405,left,0.0,36.70506169996224,,,,,,,,,,,,,,,,,,,,,,,,,,,,,,,sub-016,1.0,random_dot,119.74513457803702,
left,left,speed,,,,,0.0,0.0,0.0,1.0,16.0,0.0,32.0,0.0,305.4114532000385,,,,,,,,,305.405861500185,306.61147190001793,307.4117853001226,307.4035292000044,307.40355010004714,307.4117853001226,307.4117853001226,307.4117853001226,312.4032267001457,312.8717279001139,right,0.0,40.69817669992335,,,,,,,,,,,,,,,,,,,,,,,,,,,,,,,sub-016,1.0,random_dot,119.74513457803702,
right,right,speed,,,,,0.0,0.0,0.0,1.0,16.0,1.0,33.0,1.0,312.8788150001783,,,,,,,,,312.8740841001272,313.2281065999996,314.0284556001425,314.0204188001808,314.02047500014305,314.0284556001425,314.0284556001425,314.0284556001425,,317.1382883000188,right,1.0,38.34834799985401,,,,,,,,,,,,,,,,,,,,,,,,,,,,,,,sub-016,1.0,random_dot,119.74513457803702,
right,right,speed,,,,,0.0,0.0,0.0,1.0,17.0,0.0,34.0,1.0,317.14460180001333,,,,,,,,,317.13946700003,317.24486290011555,318.04519940004684,318.0375606000889,318.0375863001682,318.04519940004684,318.04519940004684,318.04519940004684,,319.3462859999854,left,0.0,36.54267610004172,,,,,,,,,,,,,,,,,,,,,,,,,,,,,,,sub-016,1.0,random_dot,119.74513457803702,
left,left,speed,,,,,0.0,0.0,0.0,1.0,17.0,1.0,35.0,0.0,319.3530278999824,,,,,,,,,319.34747710009106,320.15302670001984,320.95365060004406,320.94618950015865,320.9462198000401,320.95365060004406,320.95365060004406,320.95365060004406,,324.696067500161,right,0.0,38.983599399914965,,,,,,,,,,,,,,,,,,,,,,,,,,,,,,,sub-016,1.0,random_dot,119.74513457803702,
right,right,speed,,,,,0.0,0.0,0.0,1.0,18.0,0.0,36.0,1.0,324.7031885001343,,,,,,,,,324.6972784001846,325.053687900072,325.8621092000976,325.85402780002914,325.85405970015563,325.8621092000976,325.8621092000976,325.8621092000976,,327.03856300003827,left,0.0,36.41351519990712,,,,,,,,,,,,,,,,,,,,,,,,,,,,,,,sub-016,1.0,random_dot,119.74513457803702,
left,left,speed,,,,,0.0,0.0,0.0,1.0,18.0,1.0,37.0,0.0,327.0447339999955,,,,,,,,,327.0402926001698,327.84475370007567,328.6458427000325,328.637365499977,328.63740170001984,328.6458427000325,328.6458427000325,328.6458427000325,,329.6795382001437,left,1.0,36.27112779999152,,,,,,,,,,,,,,,,,,,,,,,,,,,,,,,sub-016,1.0,random_dot,119.74513457803702,
right,right,speed,,,,,0.0,0.0,0.0,1.0,19.0,0.0,38.0,1.0,329.68630120018497,,,,,,,,,329.680526799988,330.8864378000144,331.686905000126,331.6791827001143,331.67921290011145,331.686905000126,331.686905000126,331.686905000126,,335.6638080000412,left,0.0,39.22008849983104,,,,,,,,,,,,,,,,,,,,,,,,,,,,,,,sub-016,1.0,random_dot,119.74513457803702,
left,left,speed,,,,,0.0,0.0,0.0,1.0,19.0,1.0,39.0,0.0,335.66980100004,,,,,,,,,335.665398000041,336.8697741001379,337.6703054001555,337.66299850004725,337.66303270007484,337.6703054001555,337.6703054001555,337.6703054001555,,340.0128637000453,left,1.0,37.5801124998834,,,,,,,,,,,,,,,,,,,,,,,,,,,,,,,sub-016,1.0,random_dot,119.74513457803702,
right,right,speed,,,,,0.0,0.0,0.0,1.0,20.0,0.0,40.0,1.0,340.0196589000989,,,,,,,,,340.0139536000788,340.81964020011947,341.6199456001632,341.61308660008945,341.61312690004706,341.6199456001632,341.6199456001632,341.6199456001632,,345.4740196999628,left,0.0,39.091996599920094,,,,,,,,,,,,,,,,,,,,,,,,,,,,,,,sub-016,1.0,random_dot,119.74513457803702,
left,left,speed,,,,,0.0,0.0,0.0,1.0,20.0,1.0,41.0,0.0,345.4815205000341,,,,,,,,,345.47752039995976,346.27792660007253,347.0782782000024,347.0704300000798,347.0704596999567,347.0782782000024,347.0782782000024,347.0782782000024,,348.1214744001627,left,1.0,36.28137809992768,,,,,,,,,,,,,,,,,,,,,,,,,,,,,,,sub-016,1.0,random_dot,119.74513457803702,
right,right,speed,,,,,0.0,0.0,0.0,1.0,21.0,0.0,42.0,1.0,348.1281974001322,,,,,,,,,348.12298190011643,349.32809740002267,350.12848550011404,350.1213376000524,350.1213838001713,350.12848550011404,350.12848550011404,350.12848550011404,,353.10491240001284,right,1.0,38.21960700000636,,,,,,,,,,,,,,,,,,,,,,,,,,,,,,,sub-016,1.0,random_dot,119.74513457803702,
left,left,speed,,,,,0.0,0.0,0.0,1.0,21.0,1.0,43.0,0.0,353.1111219001468,,,,,,,,,353.1064876001328,354.31113349995576,355.1129133000504,355.1044459999539,355.1044828000013,355.1129133000504,355.1129133000504,355.1129133000504,,356.6147533999756,left,1.0,36.7381277999375,,,,,,,,,,,,,,,,,,,,,,,,,,,,,,,sub-016,1.0,random_dot,119.74513457803702,
right,right,speed,,,,,0.0,0.0,0.0,1.0,22.0,0.0,44.0,1.0,356.619500100147,,,,,,,,,356.6165334000252,356.71972890011966,357.520199800143,357.5128216999583,357.5128540999722,357.520199800143,357.520199800143,357.520199800143,,361.42947309999727,right,1.0,39.14919119980186,,,,,,,,,,,,,,,,,,,,,,,,,,,,,,,sub-016,1.0,random_dot,119.74513457803702,
left,left,speed,,,,,0.0,0.0,0.0,1.0,22.0,1.0,45.0,0.0,361.4360505000223,,,,,,,,,361.4305770001374,362.23608090006746,363.03661620011553,363.02870540018193,363.0287407001015,363.03661620011553,363.03661620011553,363.03661620011553,,366.32986950012855,left,1.0,38.53318340005353,,,,,,,,,,,,,,,,,,,,,,,,,,,,,,,sub-016,1.0,random_dot,119.74513457803702,
left,left,speed,,,,,0.0,0.0,0.0,1.0,23.0,0.0,46.0,0.0,366.336017300142,,,,,,,,,366.3309617000632,367.1362179000862,367.93677450018,367.9291270000394,367.9291618000716,367.93677450018,367.93677450018,367.93677450018,,369.78823340008967,right,0.0,37.09248979995027,,,,,,,,,,,,,,,,,,,,,,,,,,,,,,,sub-016,1.0,random_dot,119.74513457803702,
right,right,speed,,,,,0.0,0.0,0.0,1.0,23.0,1.0,47.0,1.0,369.7945410001557,,,,,,,,,369.7892930000089,370.9946944001131,371.7950667000841,371.7877354000229,371.78777700010687,371.7950667000841,371.7950667000841,371.7950667000841,,375.0802714000456,right,1.0,38.52833539992571,,,,,,,,,,,,,,,,,,,,,,,,,,,,,,,sub-016,1.0,random_dot,119.74513457803702,
right,right,speed,,,,,0.0,0.0,0.0,1.0,24.0,0.0,48.0,1.0,375.086004700046,,,,,,,,,375.0815791999921,375.1861317001749,375.9871897001285,375.9793503000401,375.9793949001469,375.9871897001285,375.9871897001285,375.9871897001285,,378.1963415001519,right,1.0,37.44817320001312,,,,,,,,,,,,,,,,,,,,,,,,,,,,,,,sub-016,1.0,random_dot,119.74513457803702,
left,left,speed,,,,,0.0,0.0,0.0,1.0,24.0,1.0,49.0,0.0,378.2027589001227,,,,,,,,,378.1974559000228,378.5527689000592,379.353154100012,379.3456844000612,379.3457220001146,379.353154100012,379.353154100012,379.353154100012,,382.73100619995967,right,0.0,38.62077709985897,,,,,,,,,,,,,,,,,,,,,,,,,,,,,,,sub-016,1.0,random_dot,119.74513457803702,
right,right,speed,,,,,0.0,0.0,0.0,1.0,25.0,0.0,50.0,1.0,382.7363100000657,,,,,,,,,382.732473900076,383.9361735000275,384.73646310018376,384.7286225000862,384.728648400167,384.73646310018376,384.73646310018376,384.73646310018376,,387.8713708999567,right,1.0,38.37188629992306,,,,,,,,,,,,,,,,,,,,,,,,,,,,,,,sub-016,1.0,random_dot,119.74513457803702,
left,left,speed,,,,,0.0,0.0,0.0,1.0,25.0,1.0,51.0,0.0,387.8777738001663,,,,,,,,,387.87253240006976,389.078601000132,389.8865753000137,389.87945620017126,389.8795394999906,389.8865753000137,389.8865753000137,389.8865753000137,,392.5060012000613,left,1.0,37.85953199979849,,,,,,,,,,,,,,,,,,,,,,,,,,,,,,,sub-016,1.0,random_dot,119.74513457803702,
left,left,speed,,,,,0.0,0.0,0.0,1.0,26.0,0.0,52.0,0.0,392.5117987000849,,,,,,,,,392.5079356001224,393.71164730004966,394.5199462000746,394.5119637001772,394.5119988000952,394.5199462000746,394.5199462000746,394.5199462000746,,396.92122500017285,right,0.0,37.641731599811465,,,,,,,,,,,,,,,,,,,,,,,,,,,,,,,sub-016,1.0,random_dot,119.74513457803702,
right,right,speed,,,,,0.0,0.0,0.0,1.0,26.0,1.0,53.0,1.0,396.9274902001489,,,,,,,,,396.9222717001103,397.0277521000244,397.8290051000658,397.821035400033,397.82106680003926,397.8290051000658,397.8290051000658,397.8290051000658,,400.0209332001396,right,1.0,37.42914569983259,,,,,,,,,,,,,,,,,,,,,,,,,,,,,,,sub-016,1.0,random_dot,119.74513457803702,
left,left,speed,,,,,0.0,0.0,0.0,1.0,27.0,0.0,54.0,0.0,400.0278618000448,,,,,,,,,400.0220068001654,401.2279128001537,402.028427900048,402.0204694001004,402.0205023000017,402.028427900048,402.028427900048,402.028427900048,,405.37929860013537,right,0.0,38.5901062998455,,,,,,,,,,,,,,,,,,,,,,,,,,,,,,,sub-016,1.0,random_dot,119.74513457803702,
right,right,speed,,,,,0.0,0.0,0.0,1.0,27.0,1.0,55.0,1.0,405.385979300132,,,,,,,,,405.3809252001811,405.4861675000284,406.28650410007685,406.278413800057,406.2784369001165,406.28650410007685,406.28650410007685,406.28650410007685,,408.2795705001336,right,1.0,37.23342899978161,,,,,,,,,,,,,,,,,,,,,,,,,,,,,,,sub-016,1.0,random_dot,119.74513457803702,
left,left,speed,,,,,0.0,0.0,0.0,1.0,28.0,0.0,56.0,0.0,408.28583020018414,,,,,,,,,408.2808303001802,408.38641689997166,409.1864674000535,409.1785313000437,409.1785711001139,409.1864674000535,409.1864674000535,409.1864674000535,,412.4381129001267,right,0.0,38.4926998000592,,,,,,,,,,,,,,,,,,,,,,,,,,,,,,,sub-016,1.0,random_dot,119.74513457803702,
right,right,speed,,,,,0.0,0.0,0.0,1.0,28.0,1.0,57.0,1.0,412.4444039000664,,,,,,,,,412.4392614001408,413.6443857999984,414.4449077001773,414.4372118001338,414.437253799988,414.4449077001773,414.4449077001773,414.4449077001773,,417.7211613000836,right,1.0,38.51480979984626,,,,,,,,,,,,,,,,,,,,,,,,,,,,,,,sub-016,1.0,random_dot,119.74513457803702,
right,right,speed,,,,,0.0,0.0,0.0,1.0,29.0,0.0,58.0,1.0,417.7274663001299,,,,,,,,,417.7223225999624,418.0778763999697,418.8781288000755,418.8707872000523,418.87081550015137,418.8781288000755,418.8781288000755,418.8781288000755,,421.1624869001098,left,0.0,37.52310970006511,,,,,,,,,,,,,,,,,,,,,,,,,,,,,,,sub-016,1.0,random_dot,119.74513457803702,
left,left,speed,,,,,0.0,0.0,0.0,1.0,29.0,1.0,59.0,0.0,421.1692648001481,,,,,,,,,421.1635523999576,422.3690590001642,423.16988840000704,423.1624766001478,423.1625151000917,423.16988840000704,423.16988840000704,423.16988840000704,,426.2292006001808,left,1.0,38.301023399923,,,,,,,,,,,,,,,,,,,,,,,,,,,,,,,sub-016,1.0,random_dot,119.74513457803702,
,,speed,,,,,0.0,0.0,0.0,1.0,,,,,,,,,,,,,,,,,,,,,,,,,,,,,,,,,,,,,,,,,,,,,,,,,,,,,,,,,sub-016,1.0,random_dot,119.74513457803702,
right,right,accuracy,,,,,0.0,1.0,1.0,0.0,0.0,0.0,0.0,1.0,437.2784979999997,,,,,,,,,437.2746177001391,438.4693026000168,439.2698837001808,439.2623754001688,439.2624121999834,439.2698837001808,439.2698837001808,439.2698837001808,,443.6300465001259,right,1.0,39.60327319987118,,,,,,,,,,,,,,,,,,,,426.23022880009376,426.2456914000213,426.2456914000213,437.2635872999672,space,46.26082820002921,,,,,,sub-016,1.0,random_dot,119.74513457803702,
left,left,accuracy,,,,,0.0,1.0,1.0,0.0,0.0,1.0,1.0,0.0,443.6359304001089,,,,,,,,,443.6316653001122,443.98603640007786,444.786473599961,444.7791975000873,444.77926910016686,444.786473599961,444.786473599961,444.786473599961,,447.671985700028,left,1.0,38.12713609985076,,,,,,,,,,,,,,,,,,,,,,,,,,,,,,,sub-016,1.0,random_dot,119.74513457803702,
left,left,accuracy,,,,,0.0,1.0,1.0,0.0,1.0,0.0,2.0,0.0,447.6774075999856,,,,,,,,,447.6732018000912,448.8775808000937,449.67792980000377,449.67027420015074,449.6703076001722,449.67792980000377,449.67792980000377,449.67792980000377,,451.8540611001663,left,1.0,37.41325469990261,,,,,,,,,,,,,,,,,,,,,,,,,,,,,,,sub-016,1.0,random_dot,119.74513457803702,
right,right,accuracy,,,,,0.0,1.0,1.0,0.0,1.0,1.0,3.0,1.0,451.8607902000658,,,,,,,,,451.85530770011246,451.96103520016186,452.76176699996,452.75432660011575,452.7543616001494,452.76176699996,452.76176699996,452.76176699996,,454.69565130001865,left,0.0,37.1744608997833,,,,,,,,,,,,,,,,,,,,,,,,,,,,,,,sub-016,1.0,random_dot,119.74513457803702,
left,left,accuracy,,,,,0.0,1.0,1.0,0.0,2.0,0.0,4.0,0.0,454.7024191999808,,,,,,,,,454.6966810000594,454.802468100097,455.6033855001442,455.5958625001367,455.59589870017953,455.6033855001442,455.6033855001442,455.6033855001442,,458.5961106000468,right,0.0,38.233319099992514,,,,,,,,,,,,,,,,,,,,,,,,,,,,,,,sub-016,1.0,random_dot,119.74513457803702,
right,right,accuracy,,,,,0.0,1.0,1.0,0.0,2.0,1.0,5.0,1.0,458.6024452000856,,,,,,,,,458.5971531001851,459.80252890009433,460.6030906001106,460.5955177999567,460.5955497999676,460.6030906001106,460.6030906001106,460.6030906001106,,463.1791596000549,left,0.0,37.81770869996399,,,,,,,,,,,,,,,,,,,,,,,,,,,,,,,sub-016,1.0,random_dot,119.74513457803702,
left,left,accuracy,,,,,0.0,1.0,1.0,0.0,3.0,0.0,6.0,0.0,463.1856675001327,,,,,,,,,463.18125679995865,463.9859193000011,464.7861919000279,464.7784037000965,464.7784271000419,464.7861919000279,464.7861919000279,464.7861919000279,,467.1464756000787,left,1.0,37.59715119982138,0.005741799948737,,,,,,,,,,,,,,,,,,,,,,,,,,,,,,sub-016,1.0,random_dot,119.74513457803702,
right,right,accuracy,,,,,0.0,1.0,1.0,0.0,3.0,1.0,7.0,1.0,467.1522866000887,,,,,,,,,467.1476249999832,467.95235490007326,468.7536394000053,468.7455494001042,468.7455846001394,468.7536394000053,468.7536394000053,468.7536394000053,,473.0045551001094,left,0.0,39.49358099978417,,,,,,,,,,,,,,,,,,,,,,,,,,,,,,,sub-016,1.0,random_dot,119.74513457803702,
right,right,accuracy,,,,,0.0,1.0,1.0,0.0,4.0,0.0,8.0,1.0,473.0105439999607,,,,,,,,,473.00579820014536,473.81072760000825,474.6125092001166,474.6041266999673,474.6042006001808,474.6125092001166,474.6125092001166,474.6125092001166,,476.6290198999923,right,1.0,37.25625229999423,,,,,,,,,,,,,,,,,,,,,,,,,,,,,,,sub-016,1.0,random_dot,119.74513457803702,
left,left,accuracy,,,,,0.0,1.0,1.0,0.0,4.0,1.0,9.0,0.0,476.6357472001109,,,,,,,,,476.6300910001155,477.8358983001672,478.63685160013847,478.6291104000993,478.6291472001467,478.63685160013847,478.63685160013847,478.63685160013847,,482.2214499001857,right,0.0,38.82824949990027,,,,,,,,,,,,,,,,,,,,,,,,,,,,,,,sub-016,1.0,random_dot,119.74513457803702,
right,right,accuracy,,,,,0.0,1.0,1.0,0.0,5.0,0.0,10.0,1.0,482.22746170009486,,,,,,,,,482.2233853000216,482.5773391001858,483.3777395000216,483.3702914000023,483.3703546000179,483.3777395000216,483.3777395000216,483.3777395000216,,485.7794919000007,left,0.0,37.64231399982236,,,,,,,,,,,,,,,,,,,,,,,,,,,,,,,sub-016,1.0,random_dot,119.74513457803702,
left,left,accuracy,,,,,0.0,1.0,1.0,0.0,5.0,1.0,11.0,0.0,485.78551710001193,,,,,,,,,485.7805719999597,486.9859536001459,487.7862315000966,487.7783902999945,487.77846159995534,487.7862315000966,487.7862315000966,487.7862315000966,,491.7381886001676,right,0.0,39.18932919972576,,,,,,,,,,,,,,,,,,,,,,,,,,,,,,,sub-016,1.0,random_dot,119.74513457803702,
left,left,accuracy,,,,,0.0,1.0,1.0,0.0,6.0,0.0,12.0,0.0,491.74399430002086,,,,,,,,,491.7393758001272,492.94408680009656,493.7454493001569,493.7372653000057,493.73731690016575,493.7454493001569,493.7454493001569,493.7454493001569,,496.16380880004726,left,1.0,37.66113409982063,,,,,,,,,,,,,,,,,,,,,,,,,,,,,,,sub-016,1.0,random_dot,119.74513457803702,
right,right,accuracy,,,,,0.0,1.0,1.0,0.0,6.0,1.0,13.0,1.0,496.1694206001703,,,,,,,,,496.16522870003246,496.5190087000374,497.319675100036,497.31195880007,497.3119888000656,497.319675100036,497.319675100036,497.319675100036,,501.2544621999841,right,1.0,39.17526169982739,,,,,,,,,,,,,,,,,,,,,,,,,,,,,,,sub-016,1.0,random_dot,119.74513457803702,
left,left,accuracy,,,,,0.0,1.0,1.0,0.0,7.0,0.0,14.0,0.0,501.2605129000731,,,,,,,,,501.2556845000945,502.4608010000084,503.2612030999735,503.25389369996265,503.2539312001318,503.2612030999735,503.2612030999735,503.2612030999735,,506.7219585001003,left,1.0,38.703772299923,,,,,,,,,,,,,,,,,,,,,,,,,,,,,,,sub-016,1.0,random_dot,119.74513457803702,
right,right,accuracy,,,,,0.0,1.0,1.0,0.0,7.0,1.0,15.0,1.0,506.7270965999924,,,,,,,,,506.72323260013945,507.5278606000357,508.3374099000357,508.32878700015135,508.32883250014856,508.3374099000357,508.3374099000357,508.3374099000357,,511.9124455000274,right,1.0,38.81179339974187,,,,,,,,,,,,,,,,,,,,,,,,,,,,,,,sub-016,1.0,random_dot,119.74513457803702,
left,left,accuracy,,,,,0.0,1.0,1.0,0.0,8.0,0.0,16.0,0.0,511.9190505000297,,,,,,,,,511.9135277001187,513.1187942000106,513.9201999001671,513.9121910000686,513.9122274001129,513.9201999001671,513.9201999001671,513.9201999001671,,515.920479600085,right,0.0,37.24000460002571,,,,,,,,,,,,,,,,,,,,,,,,,,,,,,,sub-016,1.0,random_dot,119.74513457803702,
right,right,accuracy,,,,,0.0,1.0,1.0,0.0,8.0,1.0,17.0,1.0,515.9272390000988,,,,,,,,,515.9216227000579,516.2773389001377,517.0777661001775,517.0700264000334,517.0700630000792,517.0777661001775,517.0777661001775,517.0777661001775,,521.6130527001806,left,0.0,39.77663780003786,,,,,,,,,,,,,,,,,,,,,,,,,,,,,,,sub-016,1.0,random_dot,119.74513457803702,
left,left,accuracy,,,,,0.0,1.0,1.0,0.0,9.0,0.0,18.0,0.0,521.6188380001113,,,,,,,,,521.6141062001698,521.7190547999926,522.5196618000045,522.5128697999753,522.512992199976,522.5196618000045,522.5196618000045,522.5196618000045,,524.0714159000199,right,0.0,36.79236499988474,,,,,,,,,,,,,,,,,,,,,,,,,,,,,,,sub-016,1.0,random_dot,119.74513457803702,
right,right,accuracy,,,,,0.0,1.0,1.0,0.0,9.0,1.0,19.0,1.0,524.0771012001205,,,,,,,,,524.0726946000941,524.1773571001831,524.978493800154,524.97078780015,524.9708245000802,524.978493800154,524.978493800154,524.978493800154,,528.4619984000456,left,0.0,38.7203493998386,,,,,,,,,,,,,,,,,,,,,,,,,,,,,,,sub-016,1.0,random_dot,119.74513457803702,
left,left,accuracy,,,,,0.0,1.0,1.0,0.0,10.0,0.0,20.0,0.0,528.4687844000291,,,,,,,,,528.4631126001477,528.8189257001504,529.6202190001495,529.6120198001154,529.6120538001414,529.6202190001495,529.6202190001495,529.6202190001495,,532.5509367000777,right,0.0,38.16526839998551,,,,,,,,,,,,,,,,,,,,,,,,,,,,,,,sub-016,1.0,random_dot,119.74513457803702,
right,right,accuracy,,,,,0.0,1.0,1.0,0.0,10.0,1.0,21.0,1.0,532.5581285001244,,,,,,,,,532.5546431001276,533.7607193000149,534.5608944001142,534.5533443000168,534.5533708001021,534.5608944001142,534.5608944001142,534.5608944001142,,538.0211512001697,right,1.0,38.70053499983624,,,,,,,,,,,,,,,,,,,,,,,,,,,,,,,sub-016,1.0,random_dot,119.74513457803702,
left,left,accuracy,,,,,0.0,1.0,1.0,0.0,11.0,0.0,22.0,0.0,538.0272637000307,,,,,,,,,538.022352400003,538.1272362000309,538.9276144001633,538.919780000113,538.9198192001786,538.9276144001633,538.9276144001633,538.9276144001633,,541.1787241001148,left,1.0,37.4888829998672,,,,,,,,,,,,,,,,,,,,,,,,,,,,,,,sub-016,1.0,random_dot,119.74513457803702,
right,right,accuracy,,,,,0.0,1.0,1.0,0.0,11.0,1.0,23.0,1.0,541.1851626001298,,,,,,,,,541.1799459001049,541.9851983999833,542.7861858999822,542.7783596999943,542.7783896999899,542.7861858999822,542.7861858999822,542.7861858999822,,544.6798775000498,right,1.0,37.1366423999425,,,,,,,,,,,,,,,,,,,,,,,,,,,,,,,sub-016,1.0,random_dot,119.74513457803702,
right,right,accuracy,,,,,0.0,1.0,1.0,0.0,12.0,0.0,24.0,1.0,544.6853726999834,,,,,,,,,544.6818048001733,545.485545600066,546.2859300000127,546.2786767000798,546.2787159001455,546.2859300000127,546.2859300000127,546.2859300000127,,550.6721004999708,left,0.0,39.623528899857774,,,,,,,,,,,,,,,,,,,,,,,,,,,,,,,sub-016,1.0,random_dot,119.74513457803702,
left,left,accuracy,,,,,0.0,1.0,1.0,0.0,12.0,1.0,25.0,0.0,550.6770657000598,,,,,,,,,550.6732163999695,550.7772276001051,551.5776127001736,551.5700042000972,551.5700376001187,551.5776127001736,551.5776127001736,551.5776127001736,,552.8542099001352,left,1.0,36.51501469989307,,,,,,,,,,,,,,,,,,,,,,,,,,,,,,,sub-016,1.0,random_dot,119.74513457803702,
left,left,accuracy,,,,,0.0,1.0,1.0,0.0,13.0,0.0,26.0,0.0,552.8605188000947,,,,,,,,,552.8562968999613,553.2105785000604,554.0109682001639,554.0035274000838,554.003568300046,554.0109682001639,554.0109682001639,554.0109682001639,,558.6128392000683,left,1.0,39.84430280001834,,,,,,,,,,,,,,,,,,,,,,,,,,,,,,,sub-016,1.0,random_dot,119.74513457803702,
right,right,accuracy,,,,,0.0,1.0,1.0,0.0,13.0,1.0,27.0,1.0,558.618595900014,,,,,,,,,558.6139999001753,558.9688597000204,559.7693483000621,559.762051000027,559.7620888999663,559.7693483000621,559.7693483000621,559.7693483000621,,563.5955330000725,right,1.0,39.06307619973086,,,,,,,,,,,,,,,,,,,,,,,,,,,,,,,sub-016,1.0,random_dot,119.74513457803702,
right,right,accuracy,,,,,0.0,1.0,1.0,0.0,14.0,0.0,28.0,1.0,563.6020446000621,,,,,,,,,563.5967402001843,563.952194100013,564.7526342000347,564.7447943000589,564.7448257000651,564.7526342000347,564.7526342000347,564.7526342000347,,567.5452250000089,right,1.0,38.03044459992088,,,,,,,,,,,,,,,,,,,,,,,,,,,,,,,sub-016,1.0,random_dot,119.74513457803702,
left,left,accuracy,,,,,0.0,1.0,1.0,0.0,14.0,1.0,29.0,0.0,567.5519858000334,,,,,,,,,567.5463223000988,567.9021278000437,568.703196400078,568.6950348999817,568.695069800131,568.703196400078,568.703196400078,568.703196400078,,569.9872789001092,left,1.0,36.52195800002664,,,,,,,,,,,,,,,,,,,,,,,,,,,,,,,sub-016,1.0,random_dot,119.74513457803702,
right,right,accuracy,,,,,0.0,1.0,1.0,0.0,15.0,0.0,30.0,1.0,569.9936155001633,,,,,,,,,569.9883918999694,571.19374040002,571.994564200053,571.987037200015,571.9870836001355,571.994564200053,571.994564200053,571.994564200053,,576.3458799000364,right,1.0,39.58834500005469,,,,,,,,,,,,,,,,,,,,,,,,,,,,,,,sub-016,1.0,random_dot,119.74513457803702,
left,left,accuracy,,,,,0.0,1.0,1.0,0.0,15.0,1.0,31.0,0.0,576.351734300144,,,,,,,,,576.3470550000202,576.7020424001385,577.5027344999835,577.4950254000723,577.4950721000787,577.5027344999835,577.5027344999835,577.5027344999835,,579.1876693000086,left,1.0,36.9264085998293,,,,,,,,,,,,,,,,,,,,,,,,,,,,,,,sub-016,1.0,random_dot,119.74513457803702,
left,left,accuracy,,,,,0.0,1.0,1.0,0.0,16.0,0.0,32.0,0.0,579.1935891001485,,,,,,,,,579.1889675999992,579.9939103000797,580.7950019000564,580.7869037000928,580.7869559000246,580.7950019000564,580.7950019000564,580.7950019000564,,583.3704626001418,left,1.0,37.81372609990649,,,,,,,,,,,,,,,,,,,,,,,,,,,,,,,sub-016,1.0,random_dot,119.74513457803702,
right,right,accuracy,,,,,0.0,1.0,1.0,0.0,16.0,1.0,33.0,1.0,583.376953799976,,,,,,,,,583.3715725000948,584.576903300127,585.3786023000721,585.3700009000022,585.3700574000832,585.3786023000721,585.3786023000721,585.3786023000721,,588.0116296999622,left,0.0,37.869796999963,,,,,,,,,,,,,,,,,,,,,,,,,,,,,,,sub-016,1.0,random_dot,119.74513457803702,
left,left,accuracy,,,,,0.0,1.0,1.0,0.0,17.0,0.0,34.0,0.0,588.0184394000098,,,,,,,,,588.0127357000019,588.3683587000705,589.1690261999611,589.161862900015,589.1619087001309,589.1690261999611,589.1690261999611,589.1690261999611,594.1690203000326,594.9792027000804,right,0.0,41.0471838999074,,,,,,,,,,,,,,,,,,,,,,,,,,,,,,,sub-016,1.0,random_dot,119.74513457803702,
right,right,accuracy,,,,,0.0,1.0,1.0,0.0,17.0,1.0,35.0,1.0,594.985226900084,,,,,,,,,594.9806562000886,595.7854271000251,596.5856698001735,596.5781449000351,596.5781728001311,596.5856698001735,596.5856698001735,596.5856698001735,,601.2534316000529,right,1.0,39.909160299925134,,,,,,,,,,,,,,,,,,,,,,,,,,,,,,,sub-016,1.0,random_dot,119.74513457803702,
right,right,accuracy,,,,,0.0,1.0,1.0,0.0,18.0,0.0,36.0,1.0,601.2601384001318,,,,,,,,,601.2544945001137,601.6103009001818,602.4105192001443,602.4028233001009,602.4028460001573,602.4105192001443,602.4105192001443,602.4105192001443,,605.0703986999579,left,0.0,37.90140199987218,,,,,,,,,,,,,,,,,,,,,,,,,,,,,,,sub-016,1.0,random_dot,119.74513457803702,
left,left,accuracy,,,,,0.0,1.0,1.0,0.0,18.0,1.0,37.0,0.0,605.076844500145,,,,,,,,,605.0715552000329,605.8765614000149,606.6773157001007,606.6699002999812,606.6699401000515,606.6773157001007,606.6773157001007,606.6773157001007,,608.8298037000932,left,1.0,37.38917849981226,,,,,,,,,,,,,,,,,,,,,,,,,,,,,,,sub-016,1.0,random_dot,119.74513457803702,
right,right,accuracy,,,,,0.0,1.0,1.0,0.0,19.0,0.0,38.0,1.0,608.8353669999633,,,,,,,,,608.8313009999692,609.6352027000394,610.435718000168,610.4280400001444,610.4280636000913,610.435718000168,610.435718000168,610.435718000168,,613.828600200126,left,0.0,38.63050189986825,,,,,,,,,,,,,,,,,,,,,,,,,,,,,,,sub-016,1.0,random_dot,119.74513457803702,
left,left,accuracy,,,,,0.0,1.0,1.0,0.0,19.0,1.0,39.0,0.0,613.8351016000379,,,,,,,,,613.8299619001336,614.1853027001489,614.9857996001374,614.9782981001772,614.9783604000695,614.9857996001374,614.9857996001374,614.9857996001374,619.985624199966,620.6707808000501,right,0.0,40.92760209972039,,,,,,,,,,,,,,,,,,,,,,,,,,,,,,,sub-016,1.0,random_dot,119.74513457803702,
left,left,accuracy,,,,,0.0,1.0,1.0,0.0,20.0,0.0,40.0,0.0,620.6769589001779,,,,,,,,,620.6721552000381,620.7767372999806,621.5771684001666,621.5702714000363,621.5703102000989,621.5771684001666,621.5771684001666,621.5771684001666,,623.1619711001404,left,1.0,36.82702809991315,,,,,,,,,,,,,,,,,,,,,,,,,,,,,,,sub-016,1.0,random_dot,119.74513457803702,
right,right,accuracy,,,,,0.0,1.0,1.0,0.0,20.0,1.0,41.0,1.0,623.1681538000703,,,,,,,,,623.1631416000891,623.5183767001145,624.3188470001332,624.3111372001003,624.3111721000168,624.3188470001332,624.3188470001332,624.3188470001332,,628.6785961000714,right,1.0,39.6030728998594,,,,,,,,,,,,,,,,,,,,,,,,,,,,,,,sub-016,1.0,random_dot,119.74513457803702,
right,right,accuracy,,,,,0.0,1.0,1.0,0.0,21.0,0.0,42.0,1.0,628.6849983001594,,,,,,,,,628.6800041000824,629.8848127000965,630.6853983001783,630.6771450999659,630.6771786001045,630.6853983001783,630.6853983001783,630.6853983001783,,633.9700909999665,left,0.0,38.52310969983228,,,,,,,,,,,,,,,,,,,,,,,,,,,,,,,sub-016,1.0,random_dot,119.74513457803702,
left,left,accuracy,,,,,0.0,1.0,1.0,0.0,21.0,1.0,43.0,0.0,633.9766634001862,,,,,,,,,633.9714628001675,634.3266376000829,635.127246899996,635.119512300007,635.1195489000529,635.127246899996,635.127246899996,635.127246899996,,638.7538130001631,right,0.0,38.868634799961,,,,,,,,,,,,,,,,,,,,,,,,,,,,,,,sub-016,1.0,random_dot,119.74513457803702,
right,right,accuracy,,,,,0.0,1.0,1.0,0.0,22.0,0.0,44.0,1.0,638.7600867000874,,,,,,,,,638.7548738000914,639.5600914000534,640.3605101001449,640.3528208001517,640.3528464001138,640.3605101001449,640.3605101001449,640.3605101001449,,645.2871205001138,right,1.0,40.16428719973192,,,,,,,,,,,,,,,,,,,,,,,,,,,,,,,sub-016,1.0,random_dot,119.74513457803702,
left,left,accuracy,,,,,0.0,1.0,1.0,0.0,22.0,1.0,45.0,0.0,645.2934548000339,,,,,,,,,645.2883093999699,646.0935486000963,646.8938090000302,646.8859788000118,646.8860106000211,646.8938090000302,646.8938090000302,646.8938090000302,,648.8533817001153,left,1.0,37.20102809998207,,,,,,,,,,,,,,,,,,,,,,,,,,,,,,,sub-016,1.0,random_dot,119.74513457803702,
right,right,accuracy,,,,,0.0,1.0,1.0,0.0,23.0,0.0,46.0,1.0,648.8599775000475,,,,,,,,,648.8548008999787,649.2101982999593,650.0109009000007,650.0033734000754,650.0034106001258,650.0109009000007,650.0109009000007,650.0109009000007,,653.6872815999668,right,1.0,38.92032460006885,,,,,,,,,,,,,,,,,,,,,,,,,,,,,,,sub-016,1.0,random_dot,119.74513457803702,
left,left,accuracy,,,,,0.0,1.0,1.0,0.0,23.0,1.0,47.0,0.0,653.6934508001432,,,,,,,,,653.6885420000181,654.0434908999596,654.8439548001625,654.8361788000911,654.8362205000594,654.8439548001625,654.8439548001625,654.8439548001625,,657.0364940001164,left,1.0,37.4299073999282,,,,,,,,,,,,,,,,,,,,,,,,,,,,,,,sub-016,1.0,random_dot,119.74513457803702,
right,right,accuracy,,,,,0.0,1.0,1.0,0.0,24.0,0.0,48.0,1.0,657.043412100058,,,,,,,,,657.0376423001289,658.2434376000892,659.0441124001518,659.0365862001199,659.036624800181,659.0441124001518,659.0441124001518,659.0441124001518,,663.3621235000901,left,0.0,39.5600495999679,,,,,,,,,,,,,,,,,,,,,,,,,,,,,,,sub-016,1.0,random_dot,119.74513457803702,
left,left,accuracy,,,,,0.0,1.0,1.0,0.0,24.0,1.0,49.0,0.0,663.3680906000081,,,,,,,,,663.3639319001231,664.1684012999758,664.9687316000927,664.9612700000871,664.9613020999823,664.9687316000927,664.9687316000927,664.9687316000927,669.9689537000377,670.6287489000242,right,0.0,40.90161810000427,,,,,,,,,,,,,,,,,,,,,,,,,,,,,,,sub-016,1.0,random_dot,119.74513457803702,
left,left,accuracy,,,,,0.0,1.0,1.0,0.0,25.0,0.0,50.0,0.0,670.634876199998,,,,,,,,,670.6303459999617,671.8349258000962,672.6354610000271,672.6282379999757,672.6282717001159,672.6354610000271,672.6354610000271,672.6354610000271,,676.8289985000156,right,0.0,39.43217429984361,,,,,,,,,,,,,,,,,,,,,,,,,,,,,,,sub-016,1.0,random_dot,119.74513457803702,
right,right,accuracy,,,,,0.0,1.0,1.0,0.0,25.0,1.0,51.0,1.0,676.8346880001482,,,,,,,,,676.8301707999781,677.6350817000493,678.4352537000086,678.4271891000681,678.4272148001473,678.4352537000086,678.4352537000086,678.4352537000086,,683.0702886001673,right,1.0,39.87506269989535,,,,,,,,,,,,,,,,,,,,,,,,,,,,,,,sub-016,1.0,random_dot,119.74513457803702,
left,left,accuracy,,,,,0.0,1.0,1.0,0.0,26.0,0.0,52.0,0.0,683.0764834999572,,,,,,,,,683.0713861000258,683.4265674001072,684.2280721000861,684.220335500082,684.2203785001766,684.2280721000861,684.2280721000861,684.2280721000861,,688.4120233999565,left,1.0,39.42328689992428,,,,,,,,,,,,,,,,,,,,,,,,,,,,,,,sub-016,1.0,random_dot,119.74513457803702,
right,right,accuracy,,,,,0.0,1.0,1.0,0.0,26.0,1.0,53.0,1.0,688.4182364000008,,,,,,,,,688.4131024000235,688.7683576999698,689.5691607000772,689.5612507001497,689.5612876999658,689.5691607000772,689.5691607000772,689.5691607000772,,693.9619142001029,right,1.0,39.63533639977686,,,,,,,,,,,,,,,,,,,,,,,,,,,,,,,sub-016,1.0,random_dot,119.74513457803702,
left,left,accuracy,,,,,0.0,1.0,1.0,0.0,27.0,0.0,54.0,0.0,693.9682327001356,,,,,,,,,693.9631350999698,694.3183532000985,695.1192664001137,695.1115916001145,695.1116321000736,695.1192664001137,695.1192664001137,695.1192664001137,,698.8371864999644,right,0.0,38.96127519989386,,,,,,,,,,,,,,,,,,,,,,,,,,,,,,,sub-016,1.0,random_dot,119.74513457803702,
right,right,accuracy,,,,,0.0,1.0,1.0,0.0,27.0,1.0,55.0,1.0,698.8432547999546,,,,,,,,,698.8384046000428,698.9433892001398,699.7437321001198,699.7361141999718,699.7361461000983,699.7437321001198,699.7437321001198,699.7437321001198,,702.094940100098,left,0.0,37.592683899914846,,,,,,,,,,,,,,,,,,,,,,,,,,,,,,,sub-016,1.0,random_dot,119.74513457803702,
right,right,accuracy,,,,,0.0,1.0,1.0,0.0,28.0,0.0,56.0,1.0,702.1014783000574,,,,,,,,,702.0960125999991,703.3016741001047,704.1023514000699,704.0950242001563,704.0951169000473,704.1023514000699,704.1023514000699,704.1023514000699,,708.9294626000337,right,1.0,40.06494880001992,0.0046039000153541,,,,,,,,,,,,,,,,,,,,,,,,,,,,,,sub-016,1.0,random_dot,119.74513457803702,
left,left,accuracy,,,,,0.0,1.0,1.0,0.0,28.0,1.0,57.0,0.0,708.9347463001031,,,,,,,,,708.9307109999936,710.1348355000373,710.9352154000662,710.927936000051,710.9279785000253,710.9352154000662,710.9352154000662,710.9352154000662,,713.8454680000432,left,1.0,38.15199050004594,,,,,,,,,,,,,,,,,,,,,,,,,,,,,,,sub-016,1.0,random_dot,119.74513457803702,
right,right,accuracy,,,,,0.0,1.0,1.0,0.0,29.0,0.0,58.0,1.0,713.85133890016,,,,,,,,,713.8465625999961,714.201700600097,715.0021200000774,714.9943443001248,714.9943756000139,715.0021200000774,715.0021200000774,715.0021200000774,,719.4368968000636,left,0.0,39.67604749999009,,,,,,,,,,,,,,,,,,,,,,,,,,,,,,,sub-016,1.0,random_dot,119.74513457803702,
left,left,accuracy,,,,,0.0,1.0,1.0,0.0,29.0,1.0,59.0,0.0,719.4429733001161,,,,,,,,,719.4380852000322,720.2432806000579,721.0440856001806,721.0367155000567,721.0367509999778,721.0440856001806,721.0440856001806,721.0440856001806,,722.2450906001031,left,1.0,36.443229999858886,,,,,,,,,,,,,,,,,,,,,,,,,,,,,,,sub-016,1.0,random_dot,119.74513457803702,
,,accuracy,,,,,0.0,1.0,1.0,0.0,,,,,,,,,,,,,,,,,,,,,,,,,,,,,,,,,,,,,,,,,,,,,,,,,,,,,,,,,sub-016,1.0,random_dot,119.74513457803702,
,,,,,,,,,,,,,,,,,,,,,,,,,,,,,,,,,,,,,,,,,,,,,,,,,,,,,,,,,,,,,,,722.2459183000028,722.251218700083,727.2515396000817,727.2447705999948,sub-016,,,,
