wordCTK,colorCTK,corrAnsCTK,congruentCTK,thisN,thisTrialN,thisRepN,keyResp_CTK.keys,keyResp_CTK.corr,keyResp_CTK.rt,keyResp_CTK.duration,wordPractice,colorPractice,corrAnsPractice,congruentPractice,respPractice.keys,respPractice.corr,respPractice.rt,respPractice.duration,word,color,corrAns,congruent,keyResp_test_run.keys,keyResp_test_run.corr,keyResp_test_run.rt,keyResp_test_run.duration,trials_CTK.thisRepN,trials_CTK.thisTrialN,trials_CTK.thisN,trials_CTK.thisIndex,trials_practice.thisRepN,trials_practice.thisTrialN,trials_practice.thisN,trials_practice.thisIndex,trials_test.thisRepN,trials_test.thisTrialN,trials_test.thisN,trials_test.thisIndex,thisRow.t,notes,instruction.started,instr_text.started,instr_image.started,instr_resp.started,instruction.stopped,instr_resp.keys,instr_resp.rt,instr_resp.duration,instr_color_to_key.started,instr_ctk.started,resp_ctk.started,instr_color_to_key.stopped,resp_ctk.keys,resp_ctk.rt,resp_ctk.duration,ITI.started,fixcross.started,fixcross.stopped,ITI.stopped,color_to_key_run.started,stimulus_CTK.started,keyResp_CTK.started,color_to_key_run.stopped,trials_CTK.keyResp_CTK.keys,trials_CTK.keyResp_CTK.corr,trials_CTK.keyResp_CTK.rt,trials_CTK.keyResp_CTK.duration,instr_practice.started,instr_practice_text.started,instr_practice_resp.started,instr_practice.stopped,instr_practice_resp.keys,instr_practice_resp.rt,instr_practice_resp.duration,practice_run.started,stimulus_practice.started,respPractice.started,practice_run.stopped,trials_practice.respPractice.keys,trials_practice.respPractice.corr,trials_practice.respPractice.rt,trials_practice.respPractice.duration,feedback.started,textFeedback.started,textFeedback.stopped,feedback.stopped,instr_test.started,instr_test_text.started,instr_test_resp.started,instr_test.stopped,instr_test_resp.keys,instr_test_resp.rt,instr_test_resp.duration,test_run.started,stimulus_test_run.started,keyResp_test_run.started,test_run.stopped,trials_test.keyResp_test_run.keys,trials_test.keyResp_test_run.corr,trials_test.keyResp_test_run.rt,trials_test.keyResp_test_run.duration,goodbye.started,textGoodbye.started,goodbye.stopped,participant,session,expName,frameRate,Unnamed: 112
,,,,,,,,,,,,,,,,,,,,,,,,,,,,,,,,,,,,,,,,,0.0022743000000104,0.0176500000000032,0.0176500000000032,0.0176500000000032,46.115732200000025,space,46.08750569999995,,,,,,,,,,,,,,,,,,,,,,,,,,,,,,,,,,,,,,,,,,,,,,,,,,,,,,,,,,sub-207,1,stroop_test,59.80499981760296,
,,,,,,,,,,,,,,,,,,,,,,,,,,,,,,,,,,,,,,,,,,,,,,,,,46.11577680000005,46.129524100000026,46.129524100000026,53.74073640000006,space,7.600612999999953,,,,,,,,,,,,,,,,,,,,,,,,,,,,,,,,,,,,,,,,,,,,,,,,,,,sub-207,1,stroop_test,59.80499981760296,
test,blue,b,1.0,0.0,0.0,0.0,b,1.0,2.087430199999972,,,,,,,,,,,,,,,,,,0.0,0.0,0.0,2.0,,,,,,,,,53.75539930000002,,,,,,,,,,,,,,,,,53.75154789999999,54.10535119999997,54.96392909999997,54.88915110000005,54.96046609999996,54.96392909999997,54.96392909999997,57.05300820000002,b,1.0,2.087430199999972,,,,,,,,,,,,,,,,,,,,,,,,,,,,,,,,,,,,,,,sub-207,1,stroop_test,59.80499981760296,
test,yellow,g,1.0,1.0,1.0,0.0,g,1.0,1.5407127999999377,,,,,,,,,,,,,,,,,,0.0,1.0,1.0,1.0,,,,,,,,,57.0689271,,,,,,,,,,,,,,,,,57.05315780000001,58.26770629999999,59.06748219999997,59.051998000000026,59.053026000000045,59.06748219999997,59.06748219999997,60.61666850000006,g,1.0,1.5407127999999377,,,,,,,,,,,,,,,,,,,,,,,,,,,,,,,,,,,,,,,sub-207,1,stroop_test,59.80499981760296,
test,red,r,1.0,2.0,2.0,0.0,r,1.0,1.5617779000000382,,,,,,,,,,,,,,,,,,0.0,2.0,2.0,0.0,,,,,,,,,60.632311500000014,,,,,,,,,,,,,,,,,60.61697370000002,61.83113300000002,62.63018840000007,62.61420220000002,62.614464,62.63018840000007,62.63018840000007,64.19942839999999,r,1.0,1.5617779000000382,,,,,,,,,,,,,,,,,,,,,,,,,,,,,,,,,,,,,,,sub-207,1,stroop_test,59.80499981760296,
test,blue,b,1.0,3.0,0.0,1.0,g,0.0,1.122688700000026,,,,,,,,,,,,,,,,,,1.0,0.0,3.0,2.0,,,,,,,,,64.21226260000003,,,,,,,,,,,,,,,,,64.19964140000002,64.561961,65.36106170000005,65.34509120000007,65.34547010000006,65.36106170000005,65.36106170000005,66.49414739999997,g,0.0,1.122688700000026,,,,,,,,,,,,,,,,,,,,,,,,,,,,,,,,,,,,,,,sub-207,1,stroop_test,59.80499981760296,
test,red,r,1.0,4.0,1.0,1.0,r,1.0,1.677379299999984,,,,,,,,,,,,,,,,,,1.0,1.0,4.0,0.0,,,,,,,,,66.51020549999998,,,,,,,,,,,,,,,,,66.4944051,67.30953210000007,68.10855600000002,68.09272429999999,68.09332970000003,68.10855600000002,68.10855600000002,69.79228009999997,r,1.0,1.677379299999984,,,,,,,,,,,,,,,,,,,,,,,,,,,,,,,,,,,,,,,sub-207,1,stroop_test,59.80499981760296,
test,yellow,g,1.0,5.0,2.0,1.0,g,1.0,1.056357800000001,,,,,,,,,,,,,,,,,,1.0,2.0,5.0,1.0,,,,,,,,,69.80722200000002,,,,,,,,,,,,,,,,,69.7926807,71.00584779999997,71.80533550000007,71.79014100000006,71.79100870000002,71.80533550000007,71.80533550000007,72.87160189999997,g,1.0,1.056357800000001,,,,,,,,,,,,,,,,,,,,,,,,,,,,,,,,,,,,,,,sub-207,1,stroop_test,59.80499981760296,
test,red,r,1.0,6.0,0.0,2.0,r,1.0,1.470252500000015,,,,,,,,,,,,,,,,,,2.0,0.0,6.0,0.0,,,,,,,,,72.88730870000006,,,,,,,,,,,,,,,,,72.8718149,72.97090349999996,73.76999420000004,73.75420859999997,73.75481679999996,73.76999420000004,73.76999420000004,75.25281640000003,r,1.0,1.470252500000015,,,,,,,,,,,,,,,,,,,,,,,,,,,,,,,,,,,,,,,sub-207,1,stroop_test,59.80499981760296,
test,yellow,g,1.0,7.0,1.0,2.0,g,1.0,1.1898953999999549,,,,,,,,,,,,,,,,,,2.0,1.0,7.0,1.0,,,,,,,,,75.2684749,,,,,,,,,,,,,,,,,75.2530749,76.46729500000004,77.2671497,77.25100410000005,77.25156479999998,77.2671497,77.2671497,78.46722180000006,g,1.0,1.1898953999999549,,,,,,,,,,,,,,,,,,,,,,,,,,,,,,,,,,,,,,,sub-207,1,stroop_test,59.80499981760296,
test,blue,b,1.0,8.0,2.0,2.0,b,1.0,1.1713860999999497,,,,,,,,,,,,,,,,,,2.0,2.0,8.0,2.0,,,,,,,,,78.48227540000005,,,,,,,,,,,,,,,,,78.46764270000006,79.68138710000005,80.48087220000002,80.4649081,80.46553189999997,80.48087220000002,80.48087220000002,81.66418290000001,b,1.0,1.1713860999999497,,,,,,,,,,,,,,,,,,,,,,,,,,,,,,,,,,,,,,,sub-207,1,stroop_test,59.80499981760296,
test,red,r,1.0,9.0,0.0,3.0,r,1.0,1.7266783999999689,,,,,,,,,,,,,,,,,,3.0,0.0,9.0,0.0,,,,,,,,,81.6792911,,,,,,,,,,,,,,,,,81.66458750000004,82.87813219999998,83.67733120000003,83.66121010000006,83.66162529999997,83.67733120000003,83.67733120000003,85.41085640000006,r,1.0,1.7266783999999689,,,,,,,,,,,,,,,,,,,,,,,,,,,,,,,,,,,,,,,sub-207,1,stroop_test,59.80499981760296,
test,yellow,g,1.0,10.0,1.0,3.0,g,1.0,1.0201553000000558,,,,,,,,,,,,,,,,,,3.0,1.0,10.0,1.0,,,,,,,,,85.42568440000002,,,,,,,,,,,,,,,,,85.41124220000006,86.22496430000001,87.0241747,87.00866810000002,87.0093865,87.0241747,87.0241747,88.0578736,g,1.0,1.0201553000000558,,,,,,,,,,,,,,,,,,,,,,,,,,,,,,,,,,,,,,,sub-207,1,stroop_test,59.80499981760296,
test,blue,b,1.0,11.0,2.0,3.0,b,1.0,0.8483106999999563,,,,,,,,,,,,,,,,,,3.0,2.0,11.0,2.0,,,,,,,,,88.0733765,,,,,,,,,,,,,,,,,88.05824159999997,89.2725395,90.08811920000004,90.07229440000005,90.0729553,90.08811920000004,90.08811920000004,90.93975769999996,b,1.0,0.8483106999999563,,,,,,,,,,,,,,,,,,,,,,,,,,,,,,,,,,,,,,,sub-207,1,stroop_test,59.80499981760296,
,,,,,,,,,,,,,,,,,,,,,,,,,,,,,,,,,,,,,,,,,,,,,,,,,,,,,,,,,,,,,,,,,,,,90.93999010000005,90.9539903,90.9539903,100.3969667,space,9.43786149999994,,,,,,,,,,,,,,,,,,,,,,,,,,,,,,,,sub-207,1,stroop_test,59.80499981760296,
,,,,0.0,0.0,0.0,,,,,gelb,red,r,0.0,r,1.0,1.6684146000000055,,,,,,,,,,,,,,0.0,0.0,0.0,8.0,,,,,100.4141045,,,,,,,,,,,,,,,,,100.41184110000006,101.21094949999996,102.01002470000005,101.9938823,,,,,,,,,,,,,,,,101.99711909999996,102.01002470000005,102.01002470000005,103.69259899999996,r,1.0,1.6684146000000055,,103.69948250000004,103.70862069999998,104.70735179999996,104.69157800000004,,,,,,,,,,,,,,,,,,,sub-207,1,stroop_test,59.80499981760296,
,,,,1.0,1.0,0.0,,,,,gelb,blue,b,0.0,b,1.0,1.3183548000000656,,,,,,,,,,,,,,0.0,1.0,1.0,9.0,,,,,104.70735179999996,,,,,,,,,,,,,,,,,104.69186850000006,105.90668870000002,106.70620050000002,106.68994020000002,,,,,,,,,,,,,,,,106.69017900000006,106.70620050000002,106.70620050000002,108.0390248,b,1.0,1.3183548000000656,,108.03930760000004,108.05428819999996,109.05368640000006,109.03737539999996,,,,,,,,,,,,,,,,,,,sub-207,1,stroop_test,59.80499981760296,
,,,,2.0,2.0,0.0,,,,,blau,blue,b,1.0,b,1.0,1.2501473999999462,,,,,,,,,,,,,,0.0,2.0,2.0,5.0,,,,,109.05368640000006,,,,,,,,,,,,,,,,,109.03752550000002,109.40355290000002,110.20270360000006,110.18721089999995,,,,,,,,,,,,,,,,110.1930737,110.20270360000006,110.20270360000006,111.46850089999998,b,1.0,1.2501473999999462,,111.46880610000004,111.48464050000008,112.483794,112.46798320000003,,,,,,,,,,,,,,,,,,,sub-207,1,stroop_test,59.80499981760296,
,,,,3.0,3.0,0.0,,,,,rot,yellow,g,0.0,g,1.0,1.2167481999999836,,,,,,,,,,,,,,0.0,3.0,3.0,3.0,,,,,112.483794,,,,,,,,,,,,,,,,,112.46843130000002,113.6826631,114.48185710000008,114.46658630000002,,,,,,,,,,,,,,,,114.4727994,114.48185710000008,114.48185710000008,115.70234749999996,g,1.0,1.2167481999999836,,115.70301059999996,115.71426870000003,,116.71377500000006,,,,,,,,,,,,,,,,,,,sub-207,1,stroop_test,59.80499981760296,
,,,,4.0,4.0,0.0,,,,,blau,red,r,0.0,r,1.0,1.6459158999999772,,,,,,,,,,,,,,0.0,4.0,4.0,4.0,,,,,116.72980229999996,,,,,,,,,,,,,,,,,116.71434820000002,116.81778510000004,117.62905150000006,117.61262520000002,,,,,,,,,,,,,,,,117.61480860000006,117.62905150000006,117.62905150000006,119.2780914,r,1.0,1.6459158999999772,,119.2784249,119.29447990000006,,120.2932128,,,,,,,,,,,,,,,,,,,sub-207,1,stroop_test,59.80499981760296,
,,,,5.0,5.0,0.0,,,,,gelb,yellow,g,1.0,g,1.0,4.004250599999978,,,,,,,,,,,,,,0.0,5.0,5.0,10.0,,,,,120.3099231,,,,,,,,,,,,,,,,,120.293583,120.39343210000004,121.2086402,121.1926135,,,,,,,,,,,,,,,,121.19477589999995,121.2086402,121.2086402,125.2231977,g,1.0,4.004250599999978,,125.22374650000006,125.2386206,126.23783479999996,126.2221429,,,,,,,,,,,,,,,,,,,sub-207,1,stroop_test,59.80499981760296,
,,,,6.0,6.0,0.0,,,,,blau,yellow,g,0.0,g,1.0,1.8683806999999888,,,,,,,,,,,,,,0.0,6.0,6.0,7.0,,,,,126.23783479999996,,,,,,,,,,,,,,,,,126.22263799999996,127.4365322,128.23564080000006,128.21947150000003,,,,,,,,,,,,,,,,128.22100250000005,128.23564080000006,128.23564080000006,130.11854790000007,g,1.0,1.8683806999999888,,130.11905590000003,130.1340262,131.1331669,131.11863270000003,,,,,,,,,,,,,,,,,,,sub-207,1,stroop_test,59.80499981760296,
,,,,7.0,7.0,0.0,,,,,blau,blue,b,1.0,b,1.0,2.175636999999938,,,,,,,,,,,,,,0.0,7.0,7.0,6.0,,,,,131.1331669,,,,,,,,,,,,,,,,,131.11934870000005,131.9323759,132.73198860000002,132.71621000000005,,,,,,,,,,,,,,,,132.71697040000004,132.73198860000002,132.73198860000002,134.91453160000003,b,1.0,2.175636999999938,,134.91515700000002,134.92970160000004,,135.92874830000005,,,,,,,,,,,,,,,,,,,sub-207,1,stroop_test,59.80499981760296,
,,,,8.0,8.0,0.0,,,,,gelb,yellow,g,1.0,g,1.0,1.363847299999975,,,,,,,,,,,,,,0.0,8.0,8.0,11.0,,,,,135.9451917,,,,,,,,,,,,,,,,,135.92919689999997,136.72839829999998,137.52705930000002,137.51255070000002,,,,,,,,,,,,,,,,137.5168628,137.52705930000002,137.52705930000002,138.89317819999997,g,1.0,1.363847299999975,,138.89353289999997,138.90922050000006,,139.90825789999997,,,,,,,,,,,,,,,,,,,sub-207,1,stroop_test,59.80499981760296,
,,,,9.0,9.0,0.0,,,,,rot,red,r,1.0,r,1.0,1.4675512000000026,,,,,,,,,,,,,,0.0,9.0,9.0,1.0,,,,,139.92513680000002,,,,,,,,,,,,,,,,,139.90851020000002,140.25766120000003,141.05719610000006,141.04101279999998,,,,,,,,,,,,,,,,141.04253460000007,141.05719610000006,141.05719610000006,142.53951559999996,r,1.0,1.4675512000000026,,142.5399248,142.5559518,,143.55456000000004,,,,,,,,,,,,,,,,,,,sub-207,1,stroop_test,59.80499981760296,
,,,,10.0,10.0,0.0,,,,,rot,red,r,1.0,r,1.0,1.2684011000000055,,,,,,,,,,,,,,0.0,10.0,10.0,0.0,,,,,143.57127909999997,,,,,,,,,,,,,,,,,143.55478000000005,144.3537917,145.15335370000005,145.13759630000004,,,,,,,,,,,,,,,,145.13784120000005,145.15335370000005,145.15335370000005,146.43608619999998,r,1.0,1.2684011000000055,,146.43650820000005,146.45206359999997,,147.45089410000003,,,,,,,,,,,,,,,,,,,sub-207,1,stroop_test,59.80499981760296,
,,,,11.0,11.0,0.0,,,,,rot,blue,b,0.0,b,1.0,1.4772771000000375,,,,,,,,,,,,,,0.0,11.0,11.0,2.0,,,,,147.46739149999996,,,,,,,,,,,,,,,,,147.45116700000003,147.55121280000003,148.3667213,148.35029610000004,,,,,,,,,,,,,,,,148.35066530000006,148.3667213,148.3667213,149.8504825,b,1.0,1.4772771000000375,,149.85105880000003,149.86568290000002,150.8646427,150.84935900000005,,,,,,,,,,,,,,,,,,,sub-207,1,stroop_test,59.80499981760296,
,,,,12.0,0.0,1.0,,,,,gelb,yellow,g,1.0,g,1.0,1.179487199999926,,,,,,,,,,,,,,1.0,0.0,12.0,11.0,,,,,150.8646427,,,,,,,,,,,,,,,,,150.84993559999998,152.06342740000002,152.8627384,152.84712290000004,,,,,,,,,,,,,,,,152.8508339,152.8627384,152.8627384,154.0459303,g,1.0,1.179487199999926,,154.0463089,154.061509,155.0605779,155.04553320000002,,,,,,,,,,,,,,,,,,,sub-207,1,stroop_test,59.80499981760296,
,,,,13.0,1.0,1.0,,,,,rot,blue,b,0.0,b,1.0,2.124730399999976,,,,,,,,,,,,,,1.0,1.0,13.0,2.0,,,,,155.0605779,,,,,,,,,,,,,,,,,155.0461411,155.16050740000003,155.96018579999998,155.94355530000007,,,,,,,,,,,,,,,,155.94512429999995,155.96018579999998,155.96018579999998,158.09226490000003,b,1.0,2.124730399999976,,158.09284030000003,158.10764949999998,159.1066518,159.09059839999998,,,,,,,,,,,,,,,,,,,sub-207,1,stroop_test,59.80499981760296,
,,,,14.0,2.0,1.0,,,,,blau,blue,b,1.0,b,1.0,1.803603800000019,,,,,,,,,,,,,,1.0,2.0,14.0,5.0,,,,,159.1066518,,,,,,,,,,,,,,,,,159.09084100000007,160.30567640000004,161.10494670000003,161.08992520000004,,,,,,,,,,,,,,,,161.09542799999997,161.10494670000003,161.10494670000003,162.9216904,b,1.0,1.803603800000019,,162.92231149999998,162.9366089,,163.9358267,,,,,,,,,,,,,,,,,,,sub-207,1,stroop_test,59.80499981760296,
,,,,15.0,3.0,1.0,,,,,blau,red,r,0.0,r,1.0,2.1164731000000074,,,,,,,,,,,,,,1.0,3.0,15.0,4.0,,,,,163.9522425,,,,,,,,,,,,,,,,,163.93607050000003,165.1345172,165.9335688,165.91750690000003,,,,,,,,,,,,,,,,165.91800350000003,165.9335688,165.9335688,168.06575980000002,r,1.0,2.1164731000000074,,168.06605100000002,168.08161430000007,169.0809838,169.0658495,,,,,,,,,,,,,,,,,,,sub-207,1,stroop_test,59.80499981760296,
,,,,16.0,4.0,1.0,,,,,rot,red,r,1.0,r,1.0,1.3904181000000335,,,,,,,,,,,,,,1.0,4.0,16.0,1.0,,,,,169.0809838,,,,,,,,,,,,,,,,,169.0664309,169.4307682,170.24647760000005,170.23089300000004,,,,,,,,,,,,,,,,170.23473990000002,170.24647760000005,170.24647760000005,171.64716740000006,r,1.0,1.3904181000000335,,171.6474217,171.66177130000003,172.66074609999998,172.64567239999997,,,,,,,,,,,,,,,,,,,sub-207,1,stroop_test,59.80499981760296,
,,,,17.0,5.0,1.0,,,,,blau,blue,b,1.0,b,1.0,1.953624600000012,,,,,,,,,,,,,,1.0,5.0,17.0,6.0,,,,,172.66074609999998,,,,,,,,,,,,,,,,,172.64612910000005,173.8598869,174.65894690000005,174.64393530000007,,,,,,,,,,,,,,,,174.64937640000005,174.65894690000005,174.65894690000005,176.62433669999996,b,1.0,1.953624600000012,,176.62457630000006,176.64033080000002,,177.63958450000007,,,,,,,,,,,,,,,,,,,sub-207,1,stroop_test,59.80499981760296,
,,,,18.0,6.0,1.0,,,,,gelb,red,r,0.0,r,1.0,1.7567810000000463,,,,,,,,,,,,,,1.0,6.0,18.0,8.0,,,,,177.6559251,,,,,,,,,,,,,,,,,177.6398342,177.73982550000005,178.5385907,178.5241234,,,,,,,,,,,,,,,,178.5281086,178.5385907,178.5385907,180.3053353,r,1.0,1.7567810000000463,,180.305925,180.3205075,,181.3193873,,,,,,,,,,,,,,,,,,,sub-207,1,stroop_test,59.80499981760296,
,,,,19.0,7.0,1.0,,,,,rot,yellow,g,0.0,g,1.0,1.5824022000000468,,,,,,,,,,,,,,1.0,7.0,19.0,3.0,,,,,181.33596,,,,,,,,,,,,,,,,,181.3196353,182.11885570000004,182.9345946,182.9181718,,,,,,,,,,,,,,,,182.92021220000004,182.9345946,182.9345946,184.53406670000004,g,1.0,1.5824022000000468,,184.5343672,184.5502593,,185.5491366,,,,,,,,,,,,,,,,,,,sub-207,1,stroop_test,59.80499981760296,
,,,,20.0,8.0,1.0,,,,,blau,yellow,g,0.0,b,0.0,1.1905889000000798,,,,,,,,,,,,,,1.0,8.0,20.0,7.0,,,,,185.5657861,,,,,,,,,,,,,,,,,185.5495429,185.64875300000008,186.4479326000001,186.43240100000003,,,,,,,,,,,,,,,,186.43769840000004,186.4479326000001,186.4479326000001,187.6475366,b,0.0,1.1905889000000798,,187.65258460000007,187.6631327,188.6625531,188.6466131,,,,,,,,,,,,,,,,,,,sub-207,1,stroop_test,59.80499981760296,
,,,,21.0,9.0,1.0,,,,,rot,red,r,1.0,r,1.0,1.2968409000000063,,,,,,,,,,,,,,1.0,9.0,21.0,0.0,,,,,188.6625531,,,,,,,,,,,,,,,,,188.6469155,188.7623112,189.5618574,189.54600730000004,,,,,,,,,,,,,,,,189.5495721,189.5618574,189.5618574,190.861625,r,1.0,1.2968409000000063,,190.8639987,190.87710330000004,191.876318,191.8604898,,,,,,,,,,,,,,,,,,,sub-207,1,stroop_test,59.80499981760296,
,,,,22.0,10.0,1.0,,,,,gelb,yellow,g,1.0,g,1.0,1.07602559999998,,,,,,,,,,,,,,1.0,10.0,22.0,10.0,,,,,191.876318,,,,,,,,,,,,,,,,,191.8608987,191.9758773,192.7753566,192.7593108,,,,,,,,,,,,,,,,192.7615734,192.7753566,192.7753566,193.858755,g,1.0,1.07602559999998,,193.85902280000005,193.87460510000005,,194.8733119,,,,,,,,,,,,,,,,,,,sub-207,1,stroop_test,59.80499981760296,
,,,,23.0,11.0,1.0,,,,,gelb,blue,b,0.0,b,1.0,1.022850500000004,,,,,,,,,,,,,,1.0,11.0,23.0,9.0,,,,,194.8899672,,,,,,,,,,,,,,,,,194.87361980000003,195.2231201,196.0223055,196.007071,,,,,,,,,,,,,,,,196.0078596,196.0223055,196.0223055,197.05550200000005,b,1.0,1.022850500000004,,197.0559346,197.07101820000003,198.07035180000003,198.0548298,,,,,,,,,,,,,,,,,,,sub-207,1,stroop_test,59.80499981760296,
,,,,,,,,,,,,,,,,,,,,,,,,,,,,,,,,,,,,,,,,,,,,,,,,,,,,,,,,,,,,,,,,,,,,,,,,,,,,,,,,,,,,,,,198.0548956,198.07035180000003,198.07035180000003,208.5619945,space,10.488885699999967,,,,,,,,,,,,,sub-207,1,stroop_test,59.80499981760296,
,,,,0.0,0.0,0.0,,,,,,,,,,,,,gelb,blue,b,0.0,g,0.0,2.4432323000000906,,,,,,,,,,0.0,0.0,0.0,9.0,208.6232739,,,,,,,,,,,,,,,,,208.619881,209.3761466,210.1757122,210.1601988,,,,,,,,,,,,,,,,,,,,,,,,,,,,,,,,,,,210.1637399,210.1757122,210.1757122,212.62528110000005,g,0.0,2.4432323000000906,,,,,sub-207,1,stroop_test,59.80499981760296,
,,,,1.0,1.0,0.0,,,,,,,,,,,,,blau,blue,b,1.0,b,1.0,1.5489516000000094,,,,,,,,,,0.0,1.0,1.0,5.0,212.64019080000003,,,,,,,,,,,,,,,,,212.6257633,212.7401155,213.55572500000005,213.53912650000007,,,,,,,,,,,,,,,,,,,,,,,,,,,,,,,,,,,213.54073600000004,213.55572500000005,213.55572500000005,215.1080127,b,1.0,1.5489516000000094,,,,,sub-207,1,stroop_test,59.80499981760296,
,,,,2.0,2.0,0.0,,,,,,,,,,,,,blau,blue,b,1.0,b,1.0,1.1278714000000036,,,,,,,,,,0.0,2.0,2.0,6.0,215.12116660000004,,,,,,,,,,,,,,,,,215.1084886,215.4711715,216.2866396000001,216.27098650000005,,,,,,,,,,,,,,,,,,,,,,,,,,,,,,,,,,,216.2717986,216.2866396000001,216.2866396000001,217.419367,b,1.0,1.1278714000000036,,,,,sub-207,1,stroop_test,59.80499981760296,
,,,,3.0,3.0,0.0,,,,,,,,,,,,,rot,red,r,1.0,r,1.0,1.7604405999999244,,,,,,,,,,0.0,3.0,3.0,1.0,217.43518890000007,,,,,,,,,,,,,,,,,217.4196379,217.7686681,218.567765,218.5515312,,,,,,,,,,,,,,,,,,,,,,,,,,,,,,,,,,,218.55300310000007,218.567765,218.567765,220.3347546,r,1.0,1.7604405999999244,,,,,sub-207,1,stroop_test,59.80499981760296,
,,,,4.0,4.0,0.0,,,,,,,,,,,,,rot,yellow,g,0.0,g,1.0,4.5526459999999815,,,,,,,,,,0.0,4.0,4.0,3.0,220.34937780000007,,,,,,,,,,,,,,,,,220.33518460000005,221.5487247,222.34772050000004,222.3316166,,,,,,,,,,,,,,,,,,,,,,,,,,,,,,,,,,,222.3318412,222.34772050000004,222.34772050000004,226.9109988,g,1.0,4.5526459999999815,,,,,sub-207,1,stroop_test,59.80499981760296,
,,,,5.0,5.0,0.0,,,,,,,,,,,,,gelb,yellow,g,1.0,g,1.0,1.2204918999999563,,,,,,,,,,0.0,5.0,5.0,11.0,226.92650690000005,,,,,,,,,,,,,,,,,226.91119160000005,227.7262207,228.52503590000003,228.5093866,,,,,,,,,,,,,,,,,,,,,,,,,,,,,,,,,,,228.51078930000008,228.52503590000003,228.52503590000003,229.7601659000001,g,1.0,1.2204918999999563,,,,,sub-207,1,stroop_test,59.80499981760296,
,,,,6.0,6.0,0.0,,,,,,,,,,,,,rot,red,r,1.0,r,1.0,1.3694074,,,,,,,,,,0.0,6.0,6.0,0.0,229.7741969,,,,,,,,,,,,,,,,,229.7607624,230.1344285,230.939656,230.92433670000003,,,,,,,,,,,,,,,,,,,,,,,,,,,,,,,,,,,230.9282187,230.939656,230.939656,232.32349450000004,r,1.0,1.3694074,,,,,sub-207,1,stroop_test,59.80499981760296,
,,,,7.0,7.0,0.0,,,,,,,,,,,,,rot,blue,b,0.0,b,1.0,3.500179600000024,,,,,,,,,,0.0,7.0,7.0,2.0,232.3382074,,,,,,,,,,,,,,,,,232.32402460000003,233.13784550000003,233.9369593,233.92157110000005,,,,,,,,,,,,,,,,,,,,,,,,,,,,,,,,,,,233.9223786,233.9369593,233.9369593,237.45260300000007,b,1.0,3.500179600000024,,,,,sub-207,1,stroop_test,59.80499981760296,
,,,,8.0,8.0,0.0,,,,,,,,,,,,,blau,red,r,0.0,r,1.0,1.46485169999994,,,,,,,,,,0.0,8.0,8.0,4.0,237.4668381,,,,,,,,,,,,,,,,,237.45313980000003,238.2663635,239.08182780000004,239.06551520000005,,,,,,,,,,,,,,,,,,,,,,,,,,,,,,,,,,,239.067357,239.08182780000004,239.08182780000004,240.55074490000004,r,1.0,1.46485169999994,,,,,sub-207,1,stroop_test,59.80499981760296,
,,,,9.0,9.0,0.0,,,,,,,,,,,,,blau,yellow,g,0.0,g,1.0,1.1860787000000528,,,,,,,,,,0.0,9.0,9.0,7.0,240.5638613,,,,,,,,,,,,,,,,,240.55130410000004,241.7629415,242.5621196,242.5462415000001,,,,,,,,,,,,,,,,,,,,,,,,,,,,,,,,,,,242.546509,242.5621196,242.5621196,243.7620962,g,1.0,1.1860787000000528,,,,,sub-207,1,stroop_test,59.80499981760296,
,,,,10.0,10.0,0.0,,,,,,,,,,,,,gelb,yellow,g,1.0,g,1.0,1.2614774999999554,,,,,,,,,,0.0,10.0,10.0,10.0,243.7774803,,,,,,,,,,,,,,,,,243.7622868,244.12725820000003,244.9264251,244.91039950000004,,,,,,,,,,,,,,,,,,,,,,,,,,,,,,,,,,,244.9127614,244.9264251,244.9264251,246.1925943,g,1.0,1.2614774999999554,,,,,sub-207,1,stroop_test,59.80499981760296,
,,,,11.0,11.0,0.0,,,,,,,,,,,,,gelb,red,r,0.0,r,1.0,1.2520980000000463,,,,,,,,,,0.0,11.0,11.0,8.0,246.2084728,,,,,,,,,,,,,,,,,246.1928156,247.4072797,248.2067866,248.1921807,,,,,,,,,,,,,,,,,,,,,,,,,,,,,,,,,,,248.1929693,248.2067866,248.2067866,249.47401890000003,r,1.0,1.2520980000000463,,,,,sub-207,1,stroop_test,59.80499981760296,
,,,,12.0,0.0,1.0,,,,,,,,,,,,,blau,blue,b,1.0,b,1.0,1.308534399999985,,,,,,,,,,1.0,0.0,12.0,5.0,249.4891104,,,,,,,,,,,,,,,,,249.47448270000007,249.8389953,250.654489,250.6381186,,,,,,,,,,,,,,,,,,,,,,,,,,,,,,,,,,,250.63989130000004,250.654489,250.654489,251.97011740000005,b,1.0,1.308534399999985,,,,,sub-207,1,stroop_test,59.80499981760296,
,,,,13.0,1.0,1.0,,,,,,,,,,,,,rot,red,r,1.0,r,1.0,1.3936406999999915,,,,,,,,,,1.0,1.0,13.0,0.0,251.9865708,,,,,,,,,,,,,,,,,251.97029480000003,252.0700797000001,252.8857114,252.86947510000005,,,,,,,,,,,,,,,,,,,,,,,,,,,,,,,,,,,252.8724076,252.8857114,252.8857114,254.2879971,r,1.0,1.3936406999999915,,,,,sub-207,1,stroop_test,59.80499981760296,
,,,,14.0,2.0,1.0,,,,,,,,,,,,,rot,yellow,g,0.0,g,1.0,1.423833699999932,,,,,,,,,,1.0,2.0,14.0,3.0,254.3009662000001,,,,,,,,,,,,,,,,,254.2883398,254.40104870000005,255.19997120000005,255.1842087,,,,,,,,,,,,,,,,,,,,,,,,,,,,,,,,,,,255.1844347,255.19997120000005,255.19997120000005,256.63429600000006,g,1.0,1.423833699999932,,,,,sub-207,1,stroop_test,59.80499981760296,
,,,,15.0,3.0,1.0,,,,,,,,,,,,,gelb,yellow,g,1.0,g,1.0,1.0223355000000538,,,,,,,,,,1.0,3.0,15.0,10.0,256.64889260000007,,,,,,,,,,,,,,,,,256.6348302,257.84806330000004,258.6469726,258.6312799,,,,,,,,,,,,,,,,,,,,,,,,,,,,,,,,,,,258.63282790000005,258.6469726,258.6469726,259.680895,g,1.0,1.0223355000000538,,,,,sub-207,1,stroop_test,59.80499981760296,
,,,,16.0,4.0,1.0,,,,,,,,,,,,,gelb,red,r,0.0,r,1.0,1.0931708000000526,,,,,,,,,,1.0,4.0,16.0,8.0,259.6961216,,,,,,,,,,,,,,,,,259.6814508,260.89477550000004,261.69424090000007,261.6791663,,,,,,,,,,,,,,,,,,,,,,,,,,,,,,,,,,,261.680248,261.69424090000007,261.69424090000007,262.79384820000007,r,1.0,1.0931708000000526,,,,,sub-207,1,stroop_test,59.80499981760296,
,,,,17.0,5.0,1.0,,,,,,,,,,,,,blau,yellow,g,0.0,g,1.0,2.3697021000000404,,,,,,,,,,1.0,5.0,17.0,7.0,262.8098013,,,,,,,,,,,,,,,,,262.7941323,262.893195,263.6918823,263.6769733,,,,,,,,,,,,,,,,,,,,,,,,,,,,,,,,,,,263.6810677,263.6918823,263.6918823,266.07520250000005,g,1.0,2.3697021000000404,,,,,sub-207,1,stroop_test,59.80499981760296,
,,,,18.0,6.0,1.0,,,,,,,,,,,,,blau,red,r,0.0,r,1.0,1.2289564999999811,,,,,,,,,,1.0,6.0,18.0,4.0,266.09019150000006,,,,,,,,,,,,,,,,,266.07564090000005,266.8889696,267.6886999,267.6734493,,,,,,,,,,,,,,,,,,,,,,,,,,,,,,,,,,,267.67426320000004,267.6886999,267.6886999,268.9227334,r,1.0,1.2289564999999811,,,,,sub-207,1,stroop_test,59.80499981760296,
,,,,19.0,7.0,1.0,,,,,,,,,,,,,blau,blue,b,1.0,b,1.0,1.4662793999999622,,,,,,,,,,1.0,7.0,19.0,6.0,268.9375418,,,,,,,,,,,,,,,,,268.92323910000005,269.03703340000004,269.83654480000007,269.82027530000005,,,,,,,,,,,,,,,,,,,,,,,,,,,,,,,,,,,269.8207067,269.83654480000007,269.83654480000007,271.3067381,b,1.0,1.4662793999999622,,,,,sub-207,1,stroop_test,59.80499981760296,
,,,,20.0,8.0,1.0,,,,,,,,,,,,,rot,red,r,1.0,r,1.0,1.2718505999999934,,,,,,,,,,1.0,8.0,20.0,1.0,271.31848490000004,,,,,,,,,,,,,,,,,271.30720830000007,272.11765360000004,272.91680800000006,272.9010559,,,,,,,,,,,,,,,,,,,,,,,,,,,,,,,,,,,272.9048798,272.91680800000006,272.91680800000006,274.19953350000003,r,1.0,1.2718505999999934,,,,,sub-207,1,stroop_test,59.80499981760296,
,,,,21.0,9.0,1.0,,,,,,,,,,,,,gelb,blue,b,0.0,b,1.0,1.6126038999999537,,,,,,,,,,1.0,9.0,21.0,9.0,274.2155587,,,,,,,,,,,,,,,,,274.1997259,274.54886080000006,275.36452670000006,275.3482359,,,,,,,,,,,,,,,,,,,,,,,,,,,,,,,,,,,275.34982260000004,275.36452670000006,275.36452670000006,276.9805941,b,1.0,1.6126038999999537,,,,,sub-207,1,stroop_test,59.80499981760296,
,,,,22.0,10.0,1.0,,,,,,,,,,,,,rot,blue,b,0.0,b,1.0,1.3656884999999193,,,,,,,,,,1.0,10.0,22.0,2.0,276.99657390000004,,,,,,,,,,,,,,,,,276.98087970000006,278.1958756,278.9945964,278.97885240000005,,,,,,,,,,,,,,,,,,,,,,,,,,,,,,,,,,,278.98093130000007,278.9945964,278.9945964,280.3614196,b,1.0,1.3656884999999193,,,,,sub-207,1,stroop_test,59.80499981760296,
,,,,23.0,11.0,1.0,,,,,,,,,,,,,gelb,yellow,g,1.0,g,1.0,1.1214089000000058,,,,,,,,,,1.0,11.0,23.0,11.0,280.37663940000004,,,,,,,,,,,,,,,,,280.36161760000005,281.1758937,281.9750111,281.95883060000006,,,,,,,,,,,,,,,,,,,,,,,,,,,,,,,,,,,281.9609812,281.9750111,281.9750111,283.1081081,g,1.0,1.1214089000000058,,,,,sub-207,1,stroop_test,59.80499981760296,
,,,,24.0,0.0,2.0,,,,,,,,,,,,,gelb,yellow,g,1.0,g,1.0,1.106816600000002,,,,,,,,,,2.0,0.0,24.0,10.0,283.1238324,,,,,,,,,,,,,,,,,283.1082923,284.322668,285.12241730000005,285.1060249,,,,,,,,,,,,,,,,,,,,,,,,,,,,,,,,,,,285.1063117,285.12241730000005,285.12241730000005,286.23872800000004,g,1.0,1.106816600000002,,,,,sub-207,1,stroop_test,59.80499981760296,
,,,,25.0,1.0,2.0,,,,,,,,,,,,,rot,yellow,g,0.0,r,0.0,2.086402900000053,,,,,,,,,,2.0,1.0,25.0,3.0,286.2543223,,,,,,,,,,,,,,,,,286.23892720000003,287.4531615,288.2525561,288.23604620000003,,,,,,,,,,,,,,,,,,,,,,,,,,,,,,,,,,,288.2388083,288.2525561,288.2525561,290.3508048,r,0.0,2.086402900000053,,,,,sub-207,1,stroop_test,59.80499981760296,
,,,,26.0,2.0,2.0,,,,,,,,,,,,,gelb,red,r,0.0,r,1.0,1.6214535000000296,,,,,,,,,,2.0,2.0,26.0,8.0,290.3669552,,,,,,,,,,,,,,,,,290.35098100000005,291.1663755,291.9658121,291.949433,,,,,,,,,,,,,,,,,,,,,,,,,,,,,,,,,,,291.9509575,291.9658121,291.9658121,293.60098500000004,r,1.0,1.6214535000000296,,,,,sub-207,1,stroop_test,59.80499981760296,
,,,,27.0,3.0,2.0,,,,,,,,,,,,,blau,yellow,g,0.0,b,0.0,1.5898184000000128,,,,,,,,,,2.0,3.0,27.0,7.0,293.6141003,,,,,,,,,,,,,,,,,293.6011704,294.81279730000006,295.612338,295.5959422,,,,,,,,,,,,,,,,,,,,,,,,,,,,,,,,,,,295.59785850000003,295.612338,295.612338,297.2109147,b,0.0,1.5898184000000128,,,,,sub-207,1,stroop_test,59.80499981760296,
,,,,28.0,4.0,2.0,,,,,,,,,,,,,blau,blue,b,1.0,b,1.0,1.527341999999976,,,,,,,,,,2.0,4.0,28.0,5.0,297.227389,,,,,,,,,,,,,,,,,297.2111115,297.56022830000006,298.3595414,298.34350830000005,,,,,,,,,,,,,,,,,,,,,,,,,,,,,,,,,,,298.34373330000005,298.3595414,298.3595414,299.8918679,b,1.0,1.527341999999976,,,,,sub-207,1,stroop_test,59.80499981760296,
,,,,29.0,5.0,2.0,,,,,,,,,,,,,rot,red,r,1.0,r,1.0,1.416035299999976,,,,,,,,,,2.0,5.0,29.0,1.0,299.9080501,,,,,,,,,,,,,,,,,299.89207970000007,299.9918798,300.8074686,300.7913849,,,,,,,,,,,,,,,,,,,,,,,,,,,,,,,,,,,300.7929249,300.8074686,300.8074686,302.2402005,r,1.0,1.416035299999976,,,,,sub-207,1,stroop_test,59.80499981760296,
,,,,30.0,6.0,2.0,,,,,,,,,,,,,rot,red,r,1.0,r,1.0,1.6181792999999516,,,,,,,,,,2.0,6.0,30.0,0.0,302.2559047,,,,,,,,,,,,,,,,,302.2404811,302.6059785,303.421969,303.4056075,,,,,,,,,,,,,,,,,,,,,,,,,,,,,,,,,,,303.40585680000004,303.421969,303.421969,305.0540314,r,1.0,1.6181792999999516,,,,,sub-207,1,stroop_test,59.80499981760296,
,,,,31.0,7.0,2.0,,,,,,,,,,,,,gelb,blue,b,0.0,b,1.0,1.1003924000000325,,,,,,,,,,2.0,7.0,31.0,9.0,305.0699806,,,,,,,,,,,,,,,,,305.05429960000004,305.86931060000006,306.66840780000007,306.6522823,,,,,,,,,,,,,,,,,,,,,,,,,,,,,,,,,,,306.65369210000006,306.66840780000007,306.66840780000007,307.784661,b,1.0,1.1003924000000325,,,,,sub-207,1,stroop_test,59.80499981760296,
,,,,32.0,8.0,2.0,,,,,,,,,,,,,blau,blue,b,1.0,b,1.0,1.0197567000000165,,,,,,,,,,2.0,8.0,32.0,6.0,307.80069620000006,,,,,,,,,,,,,,,,,307.7848712,308.5836133,309.3828424,309.36655470000005,,,,,,,,,,,,,,,,,,,,,,,,,,,,,,,,,,,309.36800660000006,309.3828424,309.3828424,310.4154605,b,1.0,1.0197567000000165,,,,,sub-207,1,stroop_test,59.80499981760296,
,,,,33.0,9.0,2.0,,,,,,,,,,,,,rot,blue,b,0.0,r,0.0,1.362848099999951,,,,,,,,,,2.0,9.0,33.0,2.0,310.4318198,,,,,,,,,,,,,,,,,310.4156492,311.63089920000004,312.4297763,312.4137342,,,,,,,,,,,,,,,,,,,,,,,,,,,,,,,,,,,312.4154161,312.4297763,312.4297763,313.7961725,r,0.0,1.362848099999951,,,,,sub-207,1,stroop_test,59.80499981760296,
,,,,34.0,10.0,2.0,,,,,,,,,,,,,blau,red,r,0.0,r,1.0,3.891390900000033,,,,,,,,,,2.0,10.0,34.0,4.0,313.81194300000004,,,,,,,,,,,,,,,,,313.79635940000003,314.6116197,315.4269435,315.4109513,,,,,,,,,,,,,,,,,,,,,,,,,,,,,,,,,,,315.4125828,315.4269435,315.4269435,319.32493940000006,r,1.0,3.891390900000033,,,,,sub-207,1,stroop_test,59.80499981760296,
,,,,35.0,11.0,2.0,,,,,,,,,,,,,gelb,yellow,g,1.0,g,1.0,1.262071399999968,,,,,,,,,,2.0,11.0,35.0,11.0,319.340016,,,,,,,,,,,,,,,,,319.3254251,319.6896531,320.48901710000007,320.4729221,,,,,,,,,,,,,,,,,,,,,,,,,,,,,,,,,,,320.47571630000004,320.48901710000007,320.48901710000007,321.7666856,g,1.0,1.262071399999968,,,,,sub-207,1,stroop_test,59.80499981760296,
,,,,36.0,0.0,3.0,,,,,,,,,,,,,rot,blue,b,0.0,b,1.0,3.2834249999999656,,,,,,,,,,3.0,0.0,36.0,2.0,321.7714248,,,,,,,,,,,,,,,,,321.7668744,322.1206207,322.92082690000007,322.9039292,,,,,,,,,,,,,,,,,,,,,,,,,,,,,,,,,,,322.90548950000004,322.92082690000007,322.92082690000007,326.2186233,b,1.0,3.2834249999999656,,,,,sub-207,1,stroop_test,59.80499981760296,
,,,,37.0,1.0,3.0,,,,,,,,,,,,,gelb,yellow,g,1.0,g,1.0,1.045553400000017,,,,,,,,,,3.0,1.0,37.0,10.0,326.23361050000005,,,,,,,,,,,,,,,,,326.2188023,327.0335731,327.8488424,327.8332938,,,,,,,,,,,,,,,,,,,,,,,,,,,,,,,,,,,327.83495200000004,327.8488424,327.8488424,328.8994835,g,1.0,1.045553400000017,,,,,sub-207,1,stroop_test,59.80499981760296,
,,,,38.0,2.0,3.0,,,,,,,,,,,,,gelb,red,r,0.0,r,1.0,1.1296497000000727,,,,,,,,,,3.0,2.0,38.0,8.0,328.9150247,,,,,,,,,,,,,,,,,328.89971990000004,329.01468380000006,329.8137978,329.7981963,,,,,,,,,,,,,,,,,,,,,,,,,,,,,,,,,,,329.7988018,329.8137978,329.8137978,330.9550835,r,1.0,1.1296497000000727,,,,,sub-207,1,stroop_test,59.80499981760296,
,,,,39.0,3.0,3.0,,,,,,,,,,,,,blau,blue,b,1.0,b,1.0,1.0680900999999494,,,,,,,,,,3.0,3.0,39.0,6.0,330.9626514,,,,,,,,,,,,,,,,,330.95527890000005,331.76238810000007,332.5775143,332.5614147,,,,,,,,,,,,,,,,,,,,,,,,,,,,,,,,,,,332.5636036,332.5775143,332.5775143,333.66052990000003,b,1.0,1.0680900999999494,,,,,sub-207,1,stroop_test,59.80499981760296,
,,,,40.0,4.0,3.0,,,,,,,,,,,,,blau,blue,b,1.0,b,1.0,0.7591302999999243,,,,,,,,,,3.0,4.0,40.0,5.0,333.67677590000005,,,,,,,,,,,,,,,,,333.66072410000004,334.47584900000004,335.2755058,335.25965110000004,,,,,,,,,,,,,,,,,,,,,,,,,,,,,,,,,,,335.25999450000006,335.2755058,335.2755058,336.0417413,b,1.0,0.7591302999999243,,,,,sub-207,1,stroop_test,59.80499981760296,
,,,,41.0,5.0,3.0,,,,,,,,,,,,,gelb,yellow,g,1.0,g,1.0,0.9497932000000446,,,,,,,,,,3.0,5.0,41.0,11.0,336.05769640000005,,,,,,,,,,,,,,,,,336.0419117,337.25658510000005,338.0558863,338.0398041,,,,,,,,,,,,,,,,,,,,,,,,,,,,,,,,,,,338.0418872,338.0558863,338.0558863,339.02258330000006,g,1.0,0.9497932000000446,,,,,sub-207,1,stroop_test,59.80499981760296,
,,,,42.0,6.0,3.0,,,,,,,,,,,,,blau,yellow,g,0.0,g,1.0,1.3699268999999958,,,,,,,,,,3.0,6.0,42.0,7.0,339.03844960000004,,,,,,,,,,,,,,,,,339.02279540000006,339.1380818,339.9373611,339.92118370000003,,,,,,,,,,,,,,,,,,,,,,,,,,,,,,,,,,,339.92357720000007,339.9373611,339.9373611,341.3205525,g,1.0,1.3699268999999958,,,,,sub-207,1,stroop_test,59.80499981760296,
,,,,43.0,7.0,3.0,,,,,,,,,,,,,rot,red,r,1.0,r,1.0,1.509056199999918,,,,,,,,,,3.0,7.0,43.0,1.0,341.33621300000004,,,,,,,,,,,,,,,,,341.3207234,342.5349886,343.33482760000004,343.3182353,,,,,,,,,,,,,,,,,,,,,,,,,,,,,,,,,,,343.3200504,343.33482760000004,343.33482760000004,344.8506638,r,1.0,1.509056199999918,,,,,sub-207,1,stroop_test,59.80499981760296,
,,,,44.0,8.0,3.0,,,,,,,,,,,,,rot,red,r,1.0,r,1.0,1.4752236000000494,,,,,,,,,,3.0,8.0,44.0,0.0,344.8661354,,,,,,,,,,,,,,,,,344.85087350000003,345.6655746,346.4644939,346.4484128,,,,,,,,,,,,,,,,,,,,,,,,,,,,,,,,,,,346.448819,346.4644939,346.4644939,347.94716800000003,r,1.0,1.4752236000000494,,,,,sub-207,1,stroop_test,59.80499981760296,
,,,,45.0,9.0,3.0,,,,,,,,,,,,,gelb,blue,b,0.0,b,1.0,1.6326937000000044,,,,,,,,,,3.0,9.0,45.0,9.0,347.9630748,,,,,,,,,,,,,,,,,347.9474018,348.76256120000005,349.5616626,349.5457352,,,,,,,,,,,,,,,,,,,,,,,,,,,,,,,,,,,349.54838570000004,349.5616626,349.5616626,351.2108786,b,1.0,1.6326937000000044,,,,,sub-207,1,stroop_test,59.80499981760296,
,,,,46.0,10.0,3.0,,,,,,,,,,,,,rot,yellow,g,0.0,g,1.0,2.4747092000000066,,,,,,,,,,3.0,10.0,46.0,3.0,351.22693260000005,,,,,,,,,,,,,,,,,351.2110828,352.0263344,352.8255756,352.8100987,,,,,,,,,,,,,,,,,,,,,,,,,,,,,,,,,,,352.8145627,352.8255756,352.8255756,355.30843000000004,g,1.0,2.4747092000000066,,,,,sub-207,1,stroop_test,59.80499981760296,
,,,,47.0,11.0,3.0,,,,,,,,,,,,,blau,red,r,0.0,r,1.0,2.287991500000089,,,,,,,,,,3.0,11.0,47.0,4.0,355.3231377,,,,,,,,,,,,,,,,,355.30889160000004,355.4233707,356.2394445,356.222849,,,,,,,,,,,,,,,,,,,,,,,,,,,,,,,,,,,356.2246688,356.2394445,356.2394445,358.53944390000004,r,1.0,2.287991500000089,,,,,sub-207,1,stroop_test,59.80499981760296,
,,,,48.0,0.0,4.0,,,,,,,,,,,,,rot,blue,b,0.0,b,1.0,2.61462460000007,,,,,,,,,,4.0,0.0,48.0,2.0,358.5534672,,,,,,,,,,,,,,,,,358.54008010000007,358.9034606,359.7189409,359.7026635,,,,,,,,,,,,,,,,,,,,,,,,,,,,,,,,,,,359.7055236,359.7189409,359.7189409,362.3366836,b,1.0,2.61462460000007,,,,,sub-207,1,stroop_test,59.80499981760296,
,,,,49.0,1.0,4.0,,,,,,,,,,,,,blau,blue,b,1.0,b,1.0,1.8861970000000383,,,,,,,,,,4.0,1.0,49.0,6.0,362.3499381,,,,,,,,,,,,,,,,,362.3372045,363.1492431,363.9482598,363.9328392,,,,,,,,,,,,,,,,,,,,,,,,,,,,,,,,,,,363.9369669,363.9482598,363.9482598,365.8480739,b,1.0,1.8861970000000383,,,,,sub-207,1,stroop_test,59.80499981760296,
,,,,50.0,2.0,4.0,,,,,,,,,,,,,gelb,yellow,g,1.0,g,1.0,1.1423482999999806,,,,,,,,,,4.0,2.0,50.0,10.0,365.8635842,,,,,,,,,,,,,,,,,365.84848310000007,367.0620319,367.86183230000006,367.8452147,,,,,,,,,,,,,,,,,,,,,,,,,,,,,,,,,,,367.84708050000006,367.86183230000006,367.86183230000006,369.0120164,g,1.0,1.1423482999999806,,,,,sub-207,1,stroop_test,59.80499981760296,
,,,,51.0,3.0,4.0,,,,,,,,,,,,,rot,red,r,1.0,r,1.0,2.103478500000051,,,,,,,,,,4.0,3.0,51.0,1.0,369.0270524,,,,,,,,,,,,,,,,,369.0124804,370.2263361,371.0252825,371.0099456,,,,,,,,,,,,,,,,,,,,,,,,,,,,,,,,,,,371.01467320000006,371.0252825,371.0252825,373.1403385,r,1.0,2.103478500000051,,,,,sub-207,1,stroop_test,59.80499981760296,
,,,,52.0,4.0,4.0,,,,,,,,,,,,,gelb,red,r,0.0,r,1.0,1.2603745999999774,,,,,,,,,,4.0,4.0,52.0,8.0,373.156514,,,,,,,,,,,,,,,,,373.1405255,373.9558793,374.7550702,374.7389075,,,,,,,,,,,,,,,,,,,,,,,,,,,,,,,,,,,374.7414996,374.7550702,374.7550702,376.02213130000007,r,1.0,1.2603745999999774,,,,,sub-207,1,stroop_test,59.80499981760296,
,,,,53.0,5.0,4.0,,,,,,,,,,,,,blau,red,r,0.0,r,1.0,1.0411189999999806,,,,,,,,,,4.0,5.0,53.0,4.0,376.0371368,,,,,,,,,,,,,,,,,376.022638,377.2359981,378.0351199,378.0192783,,,,,,,,,,,,,,,,,,,,,,,,,,,,,,,,,,,378.02193610000006,378.0351199,378.0351199,379.08623480000006,r,1.0,1.0411189999999806,,,,,sub-207,1,stroop_test,59.80499981760296,
,,,,54.0,6.0,4.0,,,,,,,,,,,,,blau,blue,b,1.0,b,1.0,1.2911148999999114,,,,,,,,,,4.0,6.0,54.0,5.0,379.10087,,,,,,,,,,,,,,,,,379.0867004,379.9001989,380.6993753,380.6841500000001,,,,,,,,,,,,,,,,,,,,,,,,,,,,,,,,,,,380.68496390000007,380.6993753,380.6993753,382.0001652,b,1.0,1.2911148999999114,,,,,sub-207,1,stroop_test,59.80499981760296,
,,,,55.0,7.0,4.0,,,,,,,,,,,,,rot,yellow,g,0.0,g,1.0,1.436567699999955,,,,,,,,,,4.0,7.0,55.0,3.0,382.01515430000006,,,,,,,,,,,,,,,,,382.00059970000007,382.36444560000007,383.1637057,383.14771500000006,,,,,,,,,,,,,,,,,,,,,,,,,,,,,,,,,,,383.15116510000007,383.1637057,383.1637057,384.61433940000006,g,1.0,1.436567699999955,,,,,sub-207,1,stroop_test,59.80499981760296,
,,,,56.0,8.0,4.0,,,,,,,,,,,,,rot,red,r,1.0,r,1.0,1.6590846000000283,,,,,,,,,,4.0,8.0,56.0,0.0,384.6292614,,,,,,,,,,,,,,,,,384.6149253,384.7290351,385.5282069,385.5133706,,,,,,,,,,,,,,,,,,,,,,,,,,,,,,,,,,,385.51420800000005,385.5282069,385.5282069,387.1951167,r,1.0,1.6590846000000283,,,,,sub-207,1,stroop_test,59.80499981760296,
,,,,57.0,9.0,4.0,,,,,,,,,,,,,gelb,blue,b,0.0,b,1.0,2.630867099999932,,,,,,,,,,4.0,9.0,57.0,9.0,387.2096238,,,,,,,,,,,,,,,,,387.1955607,387.31024020000007,388.1092447,388.0935739,,,,,,,,,,,,,,,,,,,,,,,,,,,,,,,,,,,388.09704280000005,388.1092447,388.1092447,390.7576144,b,1.0,2.630867099999932,,,,,sub-207,1,stroop_test,59.80499981760296,
,,,,58.0,10.0,4.0,,,,,,,,,,,,,gelb,yellow,g,1.0,g,1.0,1.1048501000000217,,,,,,,,,,4.0,10.0,58.0,11.0,390.7732319,,,,,,,,,,,,,,,,,390.75788610000006,391.9724,392.78780100000006,392.7720009,,,,,,,,,,,,,,,,,,,,,,,,,,,,,,,,,,,392.7723802,392.78780100000006,392.78780100000006,393.9041965,g,1.0,1.1048501000000217,,,,,sub-207,1,stroop_test,59.80499981760296,
,,,,59.0,11.0,4.0,,,,,,,,,,,,,blau,yellow,g,0.0,g,1.0,2.7245566999999937,,,,,,,,,,4.0,11.0,59.0,7.0,393.9200632,,,,,,,,,,,,,,,,,393.9043779,395.1026209,395.9019638,395.8867702,,,,,,,,,,,,,,,,,,,,,,,,,,,,,,,,,,,395.8912551,395.9019638,395.9019638,398.6345747,g,1.0,2.7245566999999937,,,,,sub-207,1,stroop_test,59.80499981760296,
,,,,60.0,0.0,5.0,,,,,,,,,,,,,gelb,yellow,g,1.0,g,1.0,1.034592500000031,,,,,,,,,,5.0,0.0,60.0,10.0,398.6495327,,,,,,,,,,,,,,,,,398.6350368,398.7492829,399.5482554,399.53237450000006,,,,,,,,,,,,,,,,,,,,,,,,,,,,,,,,,,,399.53582890000007,399.5482554,399.5482554,400.59862340000006,g,1.0,1.034592500000031,,,,,sub-207,1,stroop_test,59.80499981760296,
,,,,61.0,1.0,5.0,,,,,,,,,,,,,gelb,red,r,0.0,r,1.0,1.356500100000062,,,,,,,,,,5.0,1.0,61.0,8.0,400.61382190000006,,,,,,,,,,,,,,,,,400.5987908,400.7137225,401.5132866,401.497939,,,,,,,,,,,,,,,,,,,,,,,,,,,,,,,,,,,401.498778,401.5132866,401.5132866,402.8793371,r,1.0,1.356500100000062,,,,,sub-207,1,stroop_test,59.80499981760296,
,,,,62.0,2.0,5.0,,,,,,,,,,,,,rot,yellow,g,0.0,g,1.0,1.4108237000000372,,,,,,,,,,5.0,2.0,62.0,3.0,402.8955822,,,,,,,,,,,,,,,,,402.8796516,403.2283381,404.0276076,404.01190600000007,,,,,,,,,,,,,,,,,,,,,,,,,,,,,,,,,,,404.0160194,404.0276076,404.0276076,405.4432667,g,1.0,1.4108237000000372,,,,,sub-207,1,stroop_test,59.80499981760296,
,,,,63.0,3.0,5.0,,,,,,,,,,,,,blau,blue,b,1.0,b,1.0,1.8499957000000224,,,,,,,,,,5.0,3.0,63.0,5.0,405.4596119,,,,,,,,,,,,,,,,,405.4435459,406.6587636,407.4576762,407.44251,,,,,,,,,,,,,,,,,,,,,,,,,,,,,,,,,,,407.4469167,407.4576762,407.4576762,409.3244494000001,b,1.0,1.8499957000000224,,,,,sub-207,1,stroop_test,59.80499981760296,
,,,,64.0,4.0,5.0,,,,,,,,,,,,,rot,red,r,1.0,r,1.0,1.343073000000004,,,,,,,,,,5.0,4.0,64.0,1.0,409.3391908,,,,,,,,,,,,,,,,,409.3248907,410.5380354,411.3374752,411.3211506,,,,,,,,,,,,,,,,,,,,,,,,,,,,,,,,,,,411.32384980000006,411.3374752,411.3374752,412.687604,r,1.0,1.343073000000004,,,,,sub-207,1,stroop_test,59.80499981760296,
,,,,65.0,5.0,5.0,,,,,,,,,,,,,blau,yellow,g,0.0,g,1.0,1.6935695999999325,,,,,,,,,,5.0,5.0,65.0,7.0,412.70307120000007,,,,,,,,,,,,,,,,,412.68799350000006,413.0527929,413.8685785,413.8526707,,,,,,,,,,,,,,,,,,,,,,,,,,,,,,,,,,,413.8565304,413.8685785,413.8685785,415.5685664,g,1.0,1.6935695999999325,,,,,sub-207,1,stroop_test,59.80499981760296,
,,,,66.0,6.0,5.0,,,,,,,,,,,,,gelb,blue,b,0.0,b,1.0,1.3199031999999988,,,,,,,,,,5.0,6.0,66.0,9.0,415.58349310000006,,,,,,,,,,,,,,,,,415.5689926,416.7823704,417.5815848,417.5661394,,,,,,,,,,,,,,,,,,,,,,,,,,,,,,,,,,,417.57137150000005,417.5815848,417.5815848,418.9154406,b,1.0,1.3199031999999988,,,,,sub-207,1,stroop_test,59.80499981760296,
,,,,67.0,7.0,5.0,,,,,,,,,,,,,rot,blue,b,0.0,b,1.0,1.0895282999999836,,,,,,,,,,5.0,7.0,67.0,2.0,418.9302774,,,,,,,,,,,,,,,,,418.9158776,419.2800956,420.0956603,420.079742,,,,,,,,,,,,,,,,,,,,,,,,,,,,,,,,,,,420.0812437,420.0956603,420.0956603,421.19551250000006,b,1.0,1.0895282999999836,,,,,sub-207,1,stroop_test,59.80499981760296,
,,,,68.0,8.0,5.0,,,,,,,,,,,,,blau,blue,b,1.0,b,1.0,0.6861516000000165,,,,,,,,,,5.0,8.0,68.0,6.0,421.2114978,,,,,,,,,,,,,,,,,421.1956775,422.41018600000007,423.2096996,423.1936793,,,,,,,,,,,,,,,,,,,,,,,,,,,,,,,,,,,423.1967925,423.2096996,423.2096996,423.9097491,b,1.0,0.6861516000000165,,,,,sub-207,1,stroop_test,59.80499981760296,
,,,,69.0,9.0,5.0,,,,,,,,,,,,,blau,red,r,0.0,r,1.0,1.5694257999999763,,,,,,,,,,5.0,9.0,69.0,4.0,423.925356,,,,,,,,,,,,,,,,,423.9099689,424.2751034,425.07447020000006,425.058626,,,,,,,,,,,,,,,,,,,,,,,,,,,,,,,,,,,425.0588737000001,425.07447020000006,425.07447020000006,426.65847270000006,r,1.0,1.5694257999999763,,,,,sub-207,1,stroop_test,59.80499981760296,
,,,,70.0,10.0,5.0,,,,,,,,,,,,,rot,red,r,1.0,r,1.0,1.4328208000000586,,,,,,,,,,5.0,10.0,70.0,0.0,426.6731535,,,,,,,,,,,,,,,,,426.6590142,426.7730454,427.5720403,427.5569458,,,,,,,,,,,,,,,,,,,,,,,,,,,,,,,,,,,427.5617621,427.5720403,427.5720403,429.0060782000001,r,1.0,1.4328208000000586,,,,,sub-207,1,stroop_test,59.80499981760296,
,,,,71.0,11.0,5.0,,,,,,,,,,,,,gelb,yellow,g,1.0,g,1.0,1.0493715000000066,,,,,,,,,,5.0,11.0,71.0,11.0,429.0207676,,,,,,,,,,,,,,,,,429.0062526,429.1214045,429.9367354,429.92157240000006,,,,,,,,,,,,,,,,,,,,,,,,,,,,,,,,,,,429.92598570000007,429.9367354,429.9367354,431.00484200000005,g,1.0,1.0493715000000066,,,,,sub-207,1,stroop_test,59.80499981760296,
,,,,72.0,0.0,6.0,,,,,,,,,,,,,rot,yellow,g,0.0,g,1.0,1.1596081999999797,,,,,,,,,,6.0,0.0,72.0,3.0,431.0191483,,,,,,,,,,,,,,,,,431.0053427,431.8183340000001,432.6176353,432.60125360000006,,,,,,,,,,,,,,,,,,,,,,,,,,,,,,,,,,,432.60429970000007,432.6176353,432.6176353,433.784728,g,1.0,1.1596081999999797,,,,,sub-207,1,stroop_test,59.80499981760296,
,,,,73.0,1.0,6.0,,,,,,,,,,,,,gelb,yellow,g,1.0,g,1.0,0.9712118000001057,,,,,,,,,,6.0,1.0,73.0,11.0,433.7999316,,,,,,,,,,,,,,,,,433.785206,434.1494491,434.9488941,434.9330804,,,,,,,,,,,,,,,,,,,,,,,,,,,,,,,,,,,434.9367691,434.9488941,434.9488941,435.93342960000007,g,1.0,0.9712118000001057,,,,,sub-207,1,stroop_test,59.80499981760296,
,,,,74.0,2.0,6.0,,,,,,,,,,,,,rot,blue,b,0.0,b,1.0,1.3871990999999753,,,,,,,,,,6.0,2.0,74.0,2.0,435.9477522,,,,,,,,,,,,,,,,,435.9339477,437.1485277000001,437.96234720000007,437.9487175,,,,,,,,,,,,,,,,,,,,,,,,,,,,,,,,,,,437.9506204000001,437.96234720000007,437.96234720000007,439.36252350000007,b,1.0,1.3871990999999753,,,,,sub-207,1,stroop_test,59.80499981760296,
,,,,75.0,3.0,6.0,,,,,,,,,,,,,rot,red,r,1.0,r,1.0,1.2617519000000357,,,,,,,,,,6.0,3.0,75.0,0.0,439.3776596,,,,,,,,,,,,,,,,,439.3628542,439.7278108,440.5433331,440.5273611,,,,,,,,,,,,,,,,,,,,,,,,,,,,,,,,,,,440.527679,440.5433331,440.5433331,441.8092468,r,1.0,1.2617519000000357,,,,,sub-207,1,stroop_test,59.80499981760296,
,,,,76.0,4.0,6.0,,,,,,,,,,,,,rot,red,r,1.0,r,1.0,1.1240639999999755,,,,,,,,,,6.0,4.0,76.0,1.0,441.8255885,,,,,,,,,,,,,,,,,441.8094478,441.90864180000005,442.7081739,442.69279000000006,,,,,,,,,,,,,,,,,,,,,,,,,,,,,,,,,,,442.6934944,442.7081739,442.7081739,443.8427196,r,1.0,1.1240639999999755,,,,,sub-207,1,stroop_test,59.80499981760296,
,,,,77.0,5.0,6.0,,,,,,,,,,,,,gelb,red,r,0.0,r,1.0,1.2354589999999916,,,,,,,,,,6.0,5.0,77.0,8.0,443.8569495,,,,,,,,,,,,,,,,,443.8432394,444.655831,445.4555235,445.4397901,,,,,,,,,,,,,,,,,,,,,,,,,,,,,,,,,,,445.44293060000007,445.4555235,445.4555235,446.70600350000007,r,1.0,1.2354589999999916,,,,,sub-207,1,stroop_test,59.80499981760296,
,,,,78.0,6.0,6.0,,,,,,,,,,,,,blau,blue,b,1.0,b,1.0,1.4544149999999263,,,,,,,,,,6.0,6.0,78.0,6.0,446.7211327,,,,,,,,,,,,,,,,,446.7064882,447.52012880000007,448.3200009,448.3036268,,,,,,,,,,,,,,,,,,,,,,,,,,,,,,,,,,,448.30726890000005,448.3200009,448.3200009,449.7905004,b,1.0,1.4544149999999263,,,,,sub-207,1,stroop_test,59.80499981760296,
,,,,79.0,7.0,6.0,,,,,,,,,,,,,blau,blue,b,1.0,b,1.0,1.0200731999999562,,,,,,,,,,6.0,7.0,79.0,5.0,449.8016448,,,,,,,,,,,,,,,,,449.7907929,449.9014327,450.7006524,450.68466450000005,,,,,,,,,,,,,,,,,,,,,,,,,,,,,,,,,,,450.6851794,450.7006524,450.7006524,452.0201548,b,1.0,1.0200731999999562,,,,,sub-207,1,stroop_test,59.80499981760296,
,,,,80.0,8.0,6.0,,,,,,,,,,,,,gelb,blue,b,0.0,b,1.0,1.2875702999999703,,,,,,,,,,6.0,8.0,80.0,9.0,452.0229407000001,,,,,,,,,,,,,,,,,452.0203748,452.1322857,452.9319143,452.91599400000007,,,,,,,,,,,,,,,,,,,,,,,,,,,,,,,,,,,452.91780360000007,452.9319143,452.9319143,454.4651952,b,1.0,1.2875702999999703,,,,,sub-207,1,stroop_test,59.80499981760296,
,,,,81.0,9.0,6.0,,,,,,,,,,,,,blau,yellow,g,0.0,g,1.0,1.4335320999999794,,,,,,,,,,6.0,9.0,81.0,7.0,454.4686269,,,,,,,,,,,,,,,,,454.46560180000006,455.680053,456.4951644,456.4787999,,,,,,,,,,,,,,,,,,,,,,,,,,,,,,,,,,,456.4804594,456.4951644,456.4951644,457.9448883,g,1.0,1.4335320999999794,,,,,sub-207,1,stroop_test,59.80499981760296,
,,,,82.0,10.0,6.0,,,,,,,,,,,,,gelb,yellow,g,1.0,g,1.0,0.8317273000000114,,,,,,,,,,6.0,10.0,82.0,10.0,457.9602798,,,,,,,,,,,,,,,,,457.94508830000007,459.1591683,459.9586461,459.9436571,,,,,,,,,,,,,,,,,,,,,,,,,,,,,,,,,,,459.945252,459.9586461,459.9586461,460.8341457,g,1.0,0.8317273000000114,,,,,sub-207,1,stroop_test,59.80499981760296,
,,,,83.0,11.0,6.0,,,,,,,,,,,,,blau,red,r,0.0,r,1.0,1.2209192000000255,,,,,,,,,,6.0,11.0,83.0,4.0,460.8367481,,,,,,,,,,,,,,,,,460.83442950000006,461.6402634,462.4397564,462.42466250000007,,,,,,,,,,,,,,,,,,,,,,,,,,,,,,,,,,,462.4293211,462.4397564,462.4397564,463.6736011,r,1.0,1.2209192000000255,,,,,sub-207,1,stroop_test,59.80499981760296,
,,,,84.0,0.0,7.0,,,,,,,,,,,,,blau,blue,b,1.0,b,1.0,2.308554500000014,,,,,,,,,,7.0,0.0,84.0,6.0,463.6906501,,,,,,,,,,,,,,,,,463.6741216,464.48766350000005,465.2869399,465.2715054,,,,,,,,,,,,,,,,,,,,,,,,,,,,,,,,,,,465.2722045,465.2869399,465.2869399,467.602425,b,1.0,2.308554500000014,,,,,sub-207,1,stroop_test,59.80499981760296,
,,,,85.0,1.0,7.0,,,,,,,,,,,,,gelb,red,r,0.0,r,1.0,1.1934298999999555,,,,,,,,,,7.0,1.0,85.0,8.0,467.61821440000006,,,,,,,,,,,,,,,,,467.6027468,467.71969750000005,468.5339299,468.5175266,,,,,,,,,,,,,,,,,,,,,,,,,,,,,,,,,,,468.51920000000007,468.5339299,468.5339299,469.7334177,r,1.0,1.1934298999999555,,,,,sub-207,1,stroop_test,59.80499981760296,
,,,,86.0,2.0,7.0,,,,,,,,,,,,,rot,red,r,1.0,r,1.0,1.0351856999999427,,,,,,,,,,7.0,2.0,86.0,1.0,469.7498372,,,,,,,,,,,,,,,,,469.7335788,470.948364,471.7473702,471.7324247,,,,,,,,,,,,,,,,,,,,,,,,,,,,,,,,,,,471.7374884,471.7473702,471.7473702,472.7976531000001,r,1.0,1.0351856999999427,,,,,sub-207,1,stroop_test,59.80499981760296,
,,,,87.0,3.0,7.0,,,,,,,,,,,,,rot,red,r,1.0,r,1.0,0.7095304000000624,,,,,,,,,,7.0,3.0,87.0,0.0,472.8132222,,,,,,,,,,,,,,,,,472.7980494,472.91283310000006,473.7120669,473.6961357,,,,,,,,,,,,,,,,,,,,,,,,,,,,,,,,,,,473.69634930000007,473.7120669,473.7120669,474.4292103,r,1.0,0.7095304000000624,,,,,sub-207,1,stroop_test,59.80499981760296,
,,,,88.0,4.0,7.0,,,,,,,,,,,,,blau,blue,b,1.0,b,1.0,1.3037305999999944,,,,,,,,,,7.0,4.0,88.0,5.0,474.4450967,,,,,,,,,,,,,,,,,474.4295283,474.7778239,475.5772764,475.562041,,,,,,,,,,,,,,,,,,,,,,,,,,,,,,,,,,,475.5663028,475.5772764,475.5772764,476.8936853,b,1.0,1.3037305999999944,,,,,sub-207,1,stroop_test,59.80499981760296,
,,,,89.0,5.0,7.0,,,,,,,,,,,,,gelb,blue,b,0.0,b,1.0,1.209375199999954,,,,,,,,,,7.0,5.0,89.0,9.0,476.9092555,,,,,,,,,,,,,,,,,476.89410540000006,477.2592985,478.0583755,478.0425031,,,,,,,,,,,,,,,,,,,,,,,,,,,,,,,,,,,478.0455932,478.0583755,478.0583755,479.2751919,b,1.0,1.209375199999954,,,,,sub-207,1,stroop_test,59.80499981760296,
,,,,90.0,6.0,7.0,,,,,,,,,,,,,rot,yellow,g,0.0,g,1.0,1.0788679000000911,,,,,,,,,,7.0,6.0,90.0,3.0,479.2903956,,,,,,,,,,,,,,,,,479.2756522,480.4891908,481.2884675,481.2735395,,,,,,,,,,,,,,,,,,,,,,,,,,,,,,,,,,,481.2795989,481.2884675,481.2884675,482.373074,g,1.0,1.0788679000000911,,,,,sub-207,1,stroop_test,59.80499981760296,
,,,,91.0,7.0,7.0,,,,,,,,,,,,,blau,yellow,g,0.0,g,1.0,1.2789347000000362,,,,,,,,,,7.0,7.0,91.0,7.0,482.3875875,,,,,,,,,,,,,,,,,482.3735356,483.5865771,484.38571880000006,484.37057360000006,,,,,,,,,,,,,,,,,,,,,,,,,,,,,,,,,,,484.3747147,484.38571880000006,484.38571880000006,485.66959170000007,g,1.0,1.2789347000000362,,,,,sub-207,1,stroop_test,59.80499981760296,
,,,,92.0,8.0,7.0,,,,,,,,,,,,,gelb,yellow,g,1.0,g,1.0,0.6314045000000306,,,,,,,,,,7.0,8.0,92.0,11.0,485.6845968,,,,,,,,,,,,,,,,,485.670022,486.48377790000006,487.2830564,487.2680162,,,,,,,,,,,,,,,,,,,,,,,,,,,,,,,,,,,487.27216840000006,487.2830564,487.2830564,487.9161751,g,1.0,0.6314045000000306,,,,,sub-207,1,stroop_test,59.80499981760296,
,,,,93.0,9.0,7.0,,,,,,,,,,,,,blau,red,r,0.0,r,1.0,1.2553755000000135,,,,,,,,,,7.0,9.0,93.0,4.0,487.9322235,,,,,,,,,,,,,,,,,487.9163685,488.0163661,488.8313413,488.816423,,,,,,,,,,,,,,,,,,,,,,,,,,,,,,,,,,,488.82120770000006,488.8313413,488.8313413,490.0992758,r,1.0,1.2553755000000135,,,,,sub-207,1,stroop_test,59.80499981760296,
,,,,94.0,10.0,7.0,,,,,,,,,,,,,gelb,yellow,g,1.0,g,1.0,1.1417533000000049,,,,,,,,,,7.0,10.0,94.0,10.0,490.11391290000006,,,,,,,,,,,,,,,,,490.0998201,490.21365950000006,491.0128865,490.9976592,,,,,,,,,,,,,,,,,,,,,,,,,,,,,,,,,,,491.00125720000005,491.0128865,491.0128865,492.1638749,g,1.0,1.1417533000000049,,,,,sub-207,1,stroop_test,59.80499981760296,
,,,,95.0,11.0,7.0,,,,,,,,,,,,,rot,blue,b,0.0,b,1.0,1.3086881000000403,,,,,,,,,,7.0,11.0,95.0,2.0,492.1784845,,,,,,,,,,,,,,,,,492.1643752,492.52825530000007,493.3274788,493.3112972,,,,,,,,,,,,,,,,,,,,,,,,,,,,,,,,,,,493.3129017,493.3274788,493.3274788,494.64340390000007,b,1.0,1.3086881000000403,,,,,sub-207,1,stroop_test,59.80499981760296,
,,,,96.0,0.0,8.0,,,,,,,,,,,,,gelb,yellow,g,1.0,g,1.0,0.9994292999999744,,,,,,,,,,8.0,0.0,96.0,10.0,494.6590664,,,,,,,,,,,,,,,,,494.6435841,495.0092551,495.8081228,495.7922152,,,,,,,,,,,,,,,,,,,,,,,,,,,,,,,,,,,495.7935966,495.8081228,495.8081228,496.8113118,g,1.0,0.9994292999999744,,,,,sub-207,1,stroop_test,59.80499981760296,
,,,,97.0,1.0,8.0,,,,,,,,,,,,,rot,blue,b,0.0,b,1.0,1.214525799999933,,,,,,,,,,8.0,1.0,97.0,2.0,496.8242512000001,,,,,,,,,,,,,,,,,496.81174340000007,497.17337770000006,497.9728919,497.95793490000005,,,,,,,,,,,,,,,,,,,,,,,,,,,,,,,,,,,497.9632643,497.9728919,497.9728919,499.19042580000007,b,1.0,1.214525799999933,,,,,sub-207,1,stroop_test,59.80499981760296,
,,,,98.0,2.0,8.0,,,,,,,,,,,,,gelb,yellow,g,1.0,g,1.0,0.9693256000000474,,,,,,,,,,8.0,2.0,98.0,11.0,499.2053547,,,,,,,,,,,,,,,,,499.1908304,499.3048674,500.10428980000006,500.0885655,,,,,,,,,,,,,,,,,,,,,,,,,,,,,,,,,,,500.09143890000007,500.10428980000006,500.10428980000006,501.0874099,g,1.0,0.9693256000000474,,,,,sub-207,1,stroop_test,59.80499981760296,
,,,,99.0,3.0,8.0,,,,,,,,,,,,,rot,yellow,g,0.0,g,1.0,0.8546619999999621,,,,,,,,,,8.0,3.0,99.0,3.0,501.1035897,,,,,,,,,,,,,,,,,501.08759240000006,501.9028669000001,502.7019208,502.6862381,,,,,,,,,,,,,,,,,,,,,,,,,,,,,,,,,,,502.6900831,502.7019208,502.7019208,503.5682405,g,1.0,0.8546619999999621,,,,,sub-207,1,stroop_test,59.80499981760296,
,,,,100.0,4.0,8.0,,,,,,,,,,,,,rot,red,r,1.0,r,1.0,1.1038416999999754,,,,,,,,,,8.0,4.0,100.0,0.0,503.5843644,,,,,,,,,,,,,,,,,503.5684284,503.91756110000006,504.71637410000005,504.70153560000006,,,,,,,,,,,,,,,,,,,,,,,,,,,,,,,,,,,504.7024587,504.71637410000005,504.71637410000005,505.8345875,r,1.0,1.1038416999999754,,,,,sub-207,1,stroop_test,59.80499981760296,
,,,,101.0,5.0,8.0,,,,,,,,,,,,,gelb,blue,b,0.0,b,1.0,1.223122500000045,,,,,,,,,,8.0,5.0,101.0,9.0,505.8490381,,,,,,,,,,,,,,,,,505.8351586,507.0480719,507.8471843,507.8322358,,,,,,,,,,,,,,,,,,,,,,,,,,,,,,,,,,,507.8364958,507.8471843,507.8471843,509.079919,b,1.0,1.223122500000045,,,,,sub-207,1,stroop_test,59.80499981760296,
,,,,102.0,6.0,8.0,,,,,,,,,,,,,blau,blue,b,1.0,b,1.0,0.9218490000000656,,,,,,,,,,8.0,6.0,102.0,5.0,509.0959357,,,,,,,,,,,,,,,,,509.080153,509.1794445000001,509.9948939,509.9788542,,,,,,,,,,,,,,,,,,,,,,,,,,,,,,,,,,,509.9812413,509.9948939,509.9948939,510.9283376,b,1.0,0.9218490000000656,,,,,sub-207,1,stroop_test,59.80499981760296,
,,,,103.0,7.0,8.0,,,,,,,,,,,,,blau,yellow,g,0.0,g,1.0,1.3657662999999047,,,,,,,,,,8.0,7.0,103.0,7.0,510.9441901,,,,,,,,,,,,,,,,,510.9285906,511.027571,511.8269145,511.8109477,,,,,,,,,,,,,,,,,,,,,,,,,,,,,,,,,,,511.8115455,511.8269145,511.8269145,513.1969716,g,1.0,1.3657662999999047,,,,,sub-207,1,stroop_test,59.80499981760296,
,,,,104.0,8.0,8.0,,,,,,,,,,,,,blau,red,r,0.0,r,1.0,1.403579900000068,,,,,,,,,,8.0,8.0,104.0,4.0,513.208767,,,,,,,,,,,,,,,,,513.1974353,513.3085148,514.1077048,514.0916016,,,,,,,,,,,,,,,,,,,,,,,,,,,,,,,,,,,514.0919507,514.1077048,514.1077048,515.525123,r,1.0,1.403579900000068,,,,,sub-207,1,stroop_test,59.80499981760296,
,,,,105.0,9.0,8.0,,,,,,,,,,,,,blau,blue,b,1.0,b,1.0,1.0158483999999817,,,,,,,,,,8.0,9.0,105.0,6.0,515.539793,,,,,,,,,,,,,,,,,515.5255663,515.6398743,516.4556004,516.439355,,,,,,,,,,,,,,,,,,,,,,,,,,,,,,,,,,,516.4395999,516.4556004,516.4556004,517.4755852000001,b,1.0,1.0158483999999817,,,,,sub-207,1,stroop_test,59.80499981760296,
,,,,106.0,10.0,8.0,,,,,,,,,,,,,gelb,red,r,0.0,r,1.0,1.0801310000000512,,,,,,,,,,8.0,10.0,106.0,8.0,517.4879845,,,,,,,,,,,,,,,,,517.4760652,518.6868701,519.4861649000001,519.4710286000001,,,,,,,,,,,,,,,,,,,,,,,,,,,,,,,,,,,519.4752293,519.4861649000001,519.4861649000001,520.568995,r,1.0,1.0801310000000512,,,,,sub-207,1,stroop_test,59.80499981760296,
,,,,107.0,11.0,8.0,,,,,,,,,,,,,rot,red,r,1.0,r,1.0,0.7226113000000396,,,,,,,,,,8.0,11.0,107.0,1.0,520.58479,,,,,,,,,,,,,,,,,520.5691973,521.7839965000001,522.583011,522.5670711,,,,,,,,,,,,,,,,,,,,,,,,,,,,,,,,,,,522.5707255,522.583011,522.583011,523.3178416000001,r,1.0,0.7226113000000396,,,,,sub-207,1,stroop_test,59.80499981760296,
,,,,108.0,0.0,9.0,,,,,,,,,,,,,blau,red,r,0.0,r,1.0,1.67118169999992,,,,,,,,,,9.0,0.0,108.0,4.0,523.3325137,,,,,,,,,,,,,,,,,523.3184119,523.6823231,524.4818233,524.4656634,,,,,,,,,,,,,,,,,,,,,,,,,,,,,,,,,,,524.4672764000001,524.4818233,524.4818233,526.1652907,r,1.0,1.67118169999992,,,,,sub-207,1,stroop_test,59.80499981760296,
,,,,109.0,1.0,9.0,,,,,,,,,,,,,gelb,red,r,0.0,r,1.0,0.764186699999982,,,,,,,,,,9.0,1.0,109.0,8.0,526.1803738,,,,,,,,,,,,,,,,,526.1657577,526.5295847,527.3289607,527.3133918,,,,,,,,,,,,,,,,,,,,,,,,,,,,,,,,,,,527.3171130000001,527.3289607,527.3289607,528.0959712,r,1.0,0.764186699999982,,,,,sub-207,1,stroop_test,59.80499981760296,
,,,,110.0,2.0,9.0,,,,,,,,,,,,,gelb,yellow,g,1.0,g,1.0,0.8914063999999371,,,,,,,,,,9.0,2.0,110.0,11.0,528.1115745,,,,,,,,,,,,,,,,,528.0961956,528.461378,529.2606074,529.2449919000001,,,,,,,,,,,,,,,,,,,,,,,,,,,,,,,,,,,529.2459161,529.2606074,529.2606074,530.1613955,g,1.0,0.8914063999999371,,,,,sub-207,1,stroop_test,59.80499981760296,
,,,,111.0,3.0,9.0,,,,,,,,,,,,,rot,red,r,1.0,r,1.0,0.7861543999999867,,,,,,,,,,9.0,3.0,111.0,0.0,530.1763569,,,,,,,,,,,,,,,,,530.1618677,530.2762678,531.0753500000001,531.0602696,,,,,,,,,,,,,,,,,,,,,,,,,,,,,,,,,,,531.0645976000001,531.0753500000001,531.0753500000001,531.8774232000001,r,1.0,0.7861543999999867,,,,,sub-207,1,stroop_test,59.80499981760296,
,,,,112.0,4.0,9.0,,,,,,,,,,,,,blau,blue,b,1.0,b,1.0,1.0495208000000955,,,,,,,,,,9.0,4.0,112.0,6.0,531.8913265,,,,,,,,,,,,,,,,,531.8780417,531.9908554,532.7903771,532.7742813,,,,,,,,,,,,,,,,,,,,,,,,,,,,,,,,,,,532.7773184,532.7903771,532.7903771,533.8420913,b,1.0,1.0495208000000955,,,,,sub-207,1,stroop_test,59.80499981760296,
,,,,113.0,5.0,9.0,,,,,,,,,,,,,rot,blue,b,0.0,b,1.0,0.7169278000000077,,,,,,,,,,9.0,5.0,113.0,2.0,533.8563188,,,,,,,,,,,,,,,,,533.8424956,533.9563864,534.771697,534.7557956,,,,,,,,,,,,,,,,,,,,,,,,,,,,,,,,,,,534.7574416,534.771697,534.771697,535.5101058,b,1.0,0.7169278000000077,,,,,sub-207,1,stroop_test,59.80499981760296,
,,,,114.0,6.0,9.0,,,,,,,,,,,,,rot,red,r,1.0,r,1.0,1.1244387000000415,,,,,,,,,,9.0,6.0,114.0,1.0,535.5210251,,,,,,,,,,,,,,,,,535.5105326,535.6212692,536.4202168,536.4052246,,,,,,,,,,,,,,,,,,,,,,,,,,,,,,,,,,,536.4061322,536.4202168,536.4202168,537.5529531,r,1.0,1.1244387000000415,,,,,sub-207,1,stroop_test,59.80499981760296,
,,,,115.0,7.0,9.0,,,,,,,,,,,,,gelb,blue,b,0.0,b,1.0,1.1400052000000187,,,,,,,,,,9.0,7.0,115.0,9.0,537.5694313,,,,,,,,,,,,,,,,,537.5531245,537.6527262,538.4681959000001,538.4521869,,,,,,,,,,,,,,,,,,,,,,,,,,,,,,,,,,,538.4538182,538.4681959000001,538.4681959000001,539.6186727,b,1.0,1.1400052000000187,,,,,sub-207,1,stroop_test,59.80499981760296,
,,,,116.0,8.0,9.0,,,,,,,,,,,,,blau,blue,b,1.0,b,1.0,0.767220199999997,,,,,,,,,,9.0,8.0,116.0,5.0,539.6341426,,,,,,,,,,,,,,,,,539.6191054,540.4331108,541.2327758,541.2162897000001,,,,,,,,,,,,,,,,,,,,,,,,,,,,,,,,,,,541.2178555,541.2327758,541.2327758,542.0170471,b,1.0,0.767220199999997,,,,,sub-207,1,stroop_test,59.80499981760296,
,,,,117.0,9.0,9.0,,,,,,,,,,,,,blau,yellow,g,0.0,g,1.0,1.2864690999999766,,,,,,,,,,9.0,9.0,117.0,7.0,542.031893,,,,,,,,,,,,,,,,,542.0175336,543.23071,544.0296853,544.0147085,,,,,,,,,,,,,,,,,,,,,,,,,,,,,,,,,,,544.0155336,544.0296853,544.0296853,545.330091,g,1.0,1.2864690999999766,,,,,sub-207,1,stroop_test,59.80499981760296,
,,,,118.0,10.0,9.0,,,,,,,,,,,,,rot,yellow,g,0.0,g,1.0,0.8002306999999291,,,,,,,,,,9.0,10.0,118.0,3.0,545.3453523000001,,,,,,,,,,,,,,,,,545.330507,545.6949484,546.4938846,546.4780557,,,,,,,,,,,,,,,,,,,,,,,,,,,,,,,,,,,546.4798222000001,546.4938846,546.4938846,547.2981457,g,1.0,0.8002306999999291,,,,,sub-207,1,stroop_test,59.80499981760296,
,,,,119.0,11.0,9.0,,,,,,,,,,,,,gelb,yellow,g,1.0,g,1.0,0.7452829999999722,,,,,,,,,,9.0,11.0,119.0,10.0,547.3100953000001,,,,,,,,,,,,,,,,,547.2986164,548.1095997,548.9251237,548.90905,,,,,,,,,,,,,,,,,,,,,,,,,,,,,,,,,,,548.9112068000001,548.9251237,548.9251237,549.6763074,g,1.0,0.7452829999999722,,,,,sub-207,1,stroop_test,59.80499981760296,
,,,,,,,,,,,,,,,,,,,,,,,,,,,,,,,,,,,,,,,,,,,,,,,,,,,,,,,,,,,,,,,,,,,,,,,,,,,,,,,,,,,,,,,,,,,,,,,,,,,,,,549.6765562,549.6912702,554.6871968,sub-207,1,stroop_test,59.80499981760296,
