direction,corrAns,randomInstr,practice_trials.thisRepN,practice_trials.thisTrialN,practice_trials.thisN,practice_trials.thisIndex,instr_trials.thisRepN,instr_trials.thisTrialN,instr_trials.thisN,instr_trials.thisIndex,test_trials.thisRepN,test_trials.thisTrialN,test_trials.thisN,test_trials.thisIndex,thisRow.t,notes,general_instruction.started,textGeneralInstr.started,respGeneralInstr.started,general_instruction.stopped,respGeneralInstr.keys,respGeneralInstr.rt,respGeneralInstr.duration,ITI.started,fixcross.started,fixcross.stopped,ITI.stopped,dots.started,backgroundDots.started,stimulusDots.started,respDots.started,dots.stopped,respDots.keys,respDots.corr,respDots.rt,respDots.duration,feedback.started,textFeedback.started,feedback.stopped,textFeedback.stopped,info.started,textInfo.started,keyRespInfo.started,info.stopped,keyRespInfo.keys,keyRespInfo.rt,keyRespInfo.duration,test_instruction.started,textTestInstr.started,respTestInstr.started,test_instruction.stopped,respTestInstr.keys,respTestInstr.rt,respTestInstr.duration,random_instruction.started,textRandomInstr.started,respRandomInstr.started,random_instruction.stopped,respRandomInstr.keys,respRandomInstr.rt,respRandomInstr.duration,stimulusDots.stopped,goodbye.started,textGoodbye.started,textGoodbye.stopped,goodbye.stopped,participant,session,expName,frameRate,Unnamed: 74
,,,,,,,,,,,,,,,,,0.005239599966444,0.0106810999568551,0.0106810999568551,162.94267559994478,space,176.65007279999554,,,,,,,,,,,,,,,,,,,,,,,,,,,,,,,,,,,,,,,,,,,,,sub-006,1.0,random_dot,59.960090539058,
right,right,,0.0,0.0,0.0,1.0,,,,,,,,,162.96524129994214,,,,,,,,,162.95974870002829,163.05679850000888,163.85854779998772,163.8405065999832,163.84052530000918,163.85854779998772,163.85854779998772,163.85854779998772,167.0615804999834,right,1.0,16.92685720010195,,167.0626995000057,167.08044229994994,167.57313509995583,,,,,,,,,,,,,,,,,,,,,,,,,,,,sub-006,1.0,random_dot,59.960090539058,
left,left,,0.0,1.0,1.0,0.0,,,,,,,,,167.5899973999476,,,,,,,,,167.5736206000438,167.67350230005104,168.47446719999425,168.45663439994678,168.45665099995676,168.47446719999425,168.47446719999425,168.47446719999425,169.92686769994907,left,1.0,15.181217400124297,,169.92735679994803,169.93996660003904,170.42452520004008,170.44028009998146,,,,,,,,,,,,,,,,,,,,,,,,,,,sub-006,1.0,random_dot,59.960090539058,
left,left,,1.0,0.0,2.0,0.0,,,,,,,,,170.44028009998146,,,,,,,,,170.42507909995038,171.24015199998394,172.04183250002097,172.02462809998542,172.02466989995446,172.04183250002097,172.04183250002097,172.04183250002097,172.84414579998702,left,1.0,14.520644600037484,,172.84500520001166,172.85667989996728,173.34158350003418,173.35697860002983,,,,,,,,,,,,,,,,,,,,,,,,,,,sub-006,1.0,random_dot,59.960090539058,
right,right,,1.0,1.0,3.0,1.0,,,,,,,,,173.35697860002983,,,,,,,,,173.34236050001346,173.70673089998309,174.5086196999764,174.4916087000165,174.4916611999506,174.5086196999764,174.5086196999764,174.5086196999764,175.32718599995133,left,0.0,14.533737000077965,,175.32791320001706,175.3437547000358,175.84038439998403,,,,,,,,,,,,,,,,,,,,,,,,,,,,sub-006,1.0,random_dot,59.960090539058,
right,right,,2.0,0.0,4.0,1.0,,,,,,,,,175.8565797000192,,,,,,,,,175.84121969994158,176.6396844999399,177.44157020002604,177.42502089997288,177.42507230001502,177.44157020002604,177.44157020002604,177.44157020002604,178.16104299994186,right,1.0,14.443269000155851,,178.161858699983,178.1736217000289,178.6575880999444,178.673053800012,,,,,,,,,,,,,,,,,,,,,,,,,,,sub-006,1.0,random_dot,59.960090539058,
left,left,,2.0,1.0,5.0,0.0,,,,,,,,,178.673053800012,,,,,,,,,178.65818559995387,179.02368600002956,179.8248133000452,179.80808979994617,179.80814480001573,179.8248133000452,179.8248133000452,179.8248133000452,180.47745270002636,left,1.0,14.369224600028248,,180.4782841999549,180.49001459998544,180.9747468000278,180.9899821999716,,,,,,,,,,,,,,,,,,,,,,,,,,,sub-006,1.0,random_dot,59.960090539058,
right,right,,3.0,0.0,6.0,1.0,,,,,,,,,180.9899821999716,,,,,,,,,180.9755156999454,181.3403581000166,182.1416303999722,182.12485090002883,182.12490860000253,182.1416303999722,182.1416303999722,182.1416303999722,183.72774170001503,right,1.0,15.310470700031146,,183.72866150003392,183.73985490005,184.22782459994775,184.2398616999853,,,,,,,,,,,,,,,,,,,,,,,,,,,sub-006,1.0,random_dot,59.960090539058,
left,left,,3.0,1.0,7.0,0.0,,,,,,,,,184.2398616999853,,,,,,,,,184.22858610004187,185.04037910001352,185.8415590999648,185.8249855999602,185.82503780000843,185.8415590999648,185.8415590999648,185.8415590999648,186.4765414999565,left,1.0,14.36055280000437,,186.4772193999961,186.48989189998247,186.97406070004217,186.9898618999869,,,,,,,,,,,,,,,,,,,,,,,,,,,sub-006,1.0,random_dot,59.960090539058,
left,left,,4.0,0.0,8.0,0.0,,,,,,,,,186.9898618999869,,,,,,,,,186.974625700037,187.09008080000055,187.89180129999292,187.87437159998808,187.87440820003397,187.89180129999292,187.89180129999292,187.89180129999292,188.5435025000479,left,1.0,14.367409900063649,,188.5442042000359,188.55678149999585,189.04137490002904,189.05665879999287,,,,,,,,,,,,,,,,,,,,,,,,,,,sub-006,1.0,random_dot,59.960090539058,
right,right,,4.0,1.0,9.0,1.0,,,,,,,,,189.05665879999287,,,,,,,,,189.0422448000172,189.85676510003395,190.6583401999669,190.6417585000163,190.64181549998463,190.6583401999669,190.6583401999669,190.6583401999669,191.91127050004437,right,1.0,14.97766000009142,,191.91210299998056,191.92309960001148,192.40773650002663,192.4230919999536,,,,,,,,,,,,,,,,,,,,,,,,,,,sub-006,1.0,random_dot,59.960090539058,
left,left,,5.0,0.0,10.0,0.0,,,,,,,,,192.4230919999536,,,,,,,,,192.40827879996505,192.773100099992,193.5748734000372,193.55819410004187,193.5582475999836,193.5748734000372,193.5748734000372,193.5748734000372,194.2440276000416,left,1.0,14.38934940006584,,194.2448458999861,194.2562609999441,194.74177930003495,194.75646309996955,,,,,,,,,,,,,,,,,,,,,,,,,,,sub-006,1.0,random_dot,59.960090539058,
right,right,,5.0,1.0,11.0,1.0,,,,,,,,,194.75646309996955,,,,,,,,,194.7426451999927,195.95635330001824,196.7583054000279,196.741729100002,196.74177419999612,196.7583054000279,196.7583054000279,196.7583054000279,197.8423411999829,right,1.0,14.811873500118963,,197.84285360004287,197.8565600999864,198.3399139000103,198.35631119995375,,,,,,,,,,,,,,,,,,,,,,,,,,,sub-006,1.0,random_dot,59.960090539058,
left,left,,6.0,0.0,12.0,0.0,,,,,,,,,198.35631119995375,,,,,,,,,198.3402307999786,199.5563131000381,200.35818880004808,200.3419072999386,200.34196470002644,200.35818880004808,200.35818880004808,200.35818880004808,201.01006769994277,left,1.0,14.374327500117944,,201.0108356999699,201.0228486999404,201.5071543999948,201.5232191999676,,,,,,,,,,,,,,,,,,,,,,,,,,,sub-006,1.0,random_dot,59.960090539058,
right,right,,6.0,1.0,13.0,1.0,,,,,,,,,201.5232191999676,,,,,,,,,201.50770109996665,202.7230442999862,203.5247908999445,203.50830240000505,203.50835599994755,203.5247908999445,203.5247908999445,203.5247908999445,205.1427349000005,right,1.0,15.332066800096072,,205.1434402000159,205.15623169997707,205.64151069999207,205.65657039999496,,,,,,,,,,,,,,,,,,,,,,,,,,,sub-006,1.0,random_dot,59.960090539058,
left,left,,7.0,0.0,14.0,0.0,,,,,,,,,205.65657039999496,,,,,,,,,205.64230149996,206.85643909999635,207.65804879995997,207.6413340000436,207.64139020000584,207.65804879995997,207.65804879995997,207.65804879995997,208.8602038000245,left,1.0,14.921285500051454,,208.86103719996757,208.8727434000466,209.35785969998688,209.3732098999899,,,,,,,,,,,,,,,,,,,,,,,,,,,sub-006,1.0,random_dot,59.960090539058,
right,right,,7.0,1.0,15.0,1.0,,,,,,,,,209.3732098999899,,,,,,,,,209.35851309995635,210.17277810000812,210.97447110002395,210.9566229999764,210.95665149996057,210.97447110002395,210.97447110002395,210.97447110002395,212.31033000000755,right,1.0,15.0627787001431,,212.3110814000247,212.3229035999393,212.80790390004404,212.82296949997544,,,,,,,,,,,,,,,,,,,,,,,,,,,sub-006,1.0,random_dot,59.960090539058,
right,right,,8.0,0.0,16.0,1.0,,,,,,,,,212.82296949997544,,,,,,,,,212.808642399963,213.1729086999549,213.97462919994723,213.95779180002864,213.957848399994,213.97462919994723,213.97462919994723,213.97462919994723,214.72677089995705,left,0.0,14.471080900053494,,214.72742240002844,214.73936470004264,215.22435309994037,215.23944020003543,,,,,,,,,,,,,,,,,,,,,,,,,,,sub-006,1.0,random_dot,59.960090539058,
left,left,,8.0,1.0,17.0,0.0,,,,,,,,,215.23944020003543,,,,,,,,,215.2249121000059,215.58950050000567,216.3912253000308,216.37446750001985,216.3745175000513,216.3912253000308,216.3912253000308,216.3912253000308,217.20971900003497,left,1.0,14.535539900069123,,217.2103371999692,217.22284369997212,217.7081035999581,217.72305509995203,,,,,,,,,,,,,,,,,,,,,,,,,,,sub-006,1.0,random_dot,59.960090539058,
left,left,,9.0,0.0,18.0,0.0,,,,,,,,,217.72305509995203,,,,,,,,,217.70884900004603,218.0731013000477,218.87442300003025,218.85766320000403,218.8577124000294,218.87442300003025,218.87442300003025,218.87442300003025,220.82622709998395,left,1.0,15.666495500016026,,220.8269646000117,220.8395945000229,221.3242854999844,221.33950929995623,,,,,,,,,,,,,,,,,,,,,,,,,,,sub-006,1.0,random_dot,59.960090539058,
right,right,,9.0,1.0,19.0,1.0,,,,,,,,,221.33950929995623,,,,,,,,,221.325048299972,222.1397025999613,222.94128919998184,222.9248561999993,222.924898999976,222.94128919998184,222.94128919998184,222.94128919998184,225.34308100002815,right,1.0,16.122137400088832,,225.34374439995736,225.35616399999708,225.8410239999648,225.85622509999664,,,,,,,,,,,,,,,,,,,,,,,,,,,sub-006,1.0,random_dot,59.960090539058,
,,,,,,,,,,,,,,,,,,,,,,,,,,,,,,,,,,,,,,,,,225.84115540003404,225.85622509999664,225.85622509999664,304.8084265999496,space,92.66736600000876,,,,,,,,,,,,,,,,,,,,,sub-006,1.0,random_dot,59.960090539058,
,,,,,,,,,,,,,,,,,,,,,,,,,,,,,,,,,,,,,,,,,,,,,,,,304.80851110001095,304.8226642999798,304.8226642999798,315.79000100004487,space,24.690014200052246,,,,,,,,,,,,,,sub-006,1.0,random_dot,59.960090539058,
left,left,accuracy,,,,,0.0,0.0,0.0,0.0,0.0,0.0,0.0,0.0,325.7886379000265,,,,,,,,,325.7827169999946,325.8888118000468,326.6904402000364,326.6726355999708,326.67267690005247,326.6904402000364,326.6904402000364,326.6904402000364,331.89171540003736,left,1.0,18.92635590001009,,,,,,,,,,,,,,,,,,,,315.79576370003633,315.8283037999645,315.8283037999645,325.77385729993694,space,23.65976720000617,,331.67362080002204,,,,,sub-006,1.0,random_dot,59.960090539058,
right,right,accuracy,,,,,0.0,0.0,0.0,0.0,0.0,1.0,1.0,1.0,331.90509440004826,,,,,,,,,331.8933810000308,332.25492320000194,333.05684700002894,333.0399093000451,333.03995959996246,333.05684700002894,333.05684700002894,333.05684700002894,334.4265610999428,right,1.0,15.095976500073448,,,,,,,,,,,,,,,,,,,,,,,,,,,,,,,,sub-006,1.0,random_dot,59.960090539058,
left,left,accuracy,,,,,0.0,0.0,0.0,0.0,1.0,0.0,2.0,0.0,334.438401899999,,,,,,,,,334.4281333000399,334.5384472999722,335.34024879999924,335.32354689994827,335.3236063000513,335.34024879999924,335.34024879999924,335.34024879999924,339.9087319000392,left,1.0,18.289507400011644,,,,,,,,,,,,,,,,,,,,,,,,,,,,,,,,sub-006,1.0,random_dot,59.960090539058,
right,right,accuracy,,,,,0.0,0.0,0.0,0.0,1.0,1.0,3.0,1.0,339.9216139999917,,,,,,,,,339.9101705000503,340.27170030004345,341.07338109996635,341.0559367999668,341.05596909997985,341.07338109996635,341.07338109996635,341.07338109996635,342.3427486999426,right,1.0,14.99016060004942,,,,,,,,,,,,,,,,,,,,,,,,,,,,,,,,sub-006,1.0,random_dot,59.960090539058,
left,left,accuracy,,,,,0.0,0.0,0.0,0.0,2.0,0.0,4.0,0.0,342.3548922999762,,,,,,,,,342.3443763999967,342.70509319996927,343.50671750004403,343.48932639998384,343.4893641000381,343.50671750004403,343.50671750004403,343.50671750004403,346.57499430002645,left,1.0,16.791811200091615,,,,,,,,,,,,,,,,,,,,,,,,,,,,,,,,sub-006,1.0,random_dot,59.960090539058,
right,right,accuracy,,,,,0.0,0.0,0.0,0.0,2.0,1.0,5.0,1.0,346.5882058000425,,,,,,,,,346.5761773999548,346.9384738999652,347.74046140001155,347.7234572999878,347.7235143999569,347.74046140001155,347.74046140001155,347.74046140001155,349.67568390001543,right,1.0,15.655593800125644,,,,,,,,,,,,,,,,,,,,,,,,,,,,,,,,sub-006,1.0,random_dot,59.960090539058,
left,left,accuracy,,,,,0.0,0.0,0.0,0.0,3.0,0.0,6.0,0.0,349.6882964000106,,,,,,,,,349.677063500043,349.78834209998604,350.59025649994146,350.573161700042,350.57320290000644,350.59025649994146,350.59025649994146,350.59025649994146,352.30801609996706,left,1.0,15.434377900091931,,,,,,,,,,,,,,,,,,,,,,,,,,,,,,,,sub-006,1.0,random_dot,59.960090539058,
right,right,accuracy,,,,,0.0,0.0,0.0,0.0,3.0,1.0,7.0,1.0,352.32139569998253,,,,,,,,,352.3092966999393,352.6718509000493,353.47364700003527,353.4570521999849,353.4571022000164,353.47364700003527,353.47364700003527,353.47364700003527,354.77498610003386,right,1.0,15.016428500064649,,,,,,,,,,,,,,,,,,,,,,,,,,,,,,,,sub-006,1.0,random_dot,59.960090539058,
right,right,accuracy,,,,,0.0,0.0,0.0,0.0,4.0,0.0,8.0,1.0,354.78816200001165,,,,,,,,,354.77610380004626,354.8885958000319,355.6900143999373,355.6729571999749,355.6730079000117,355.6900143999373,355.6900143999373,355.6900143999373,361.158507199958,right,1.0,19.191231200122274,,,,,,,,,,,,,,,,,,,,,,,,,,,360.67294880002737,,,,,sub-006,1.0,random_dot,59.960090539058,
left,left,accuracy,,,,,0.0,0.0,0.0,0.0,4.0,1.0,9.0,0.0,361.1713220999809,,,,,,,,,361.1597266000463,361.5216965000145,362.3234606999904,362.30676810001023,362.3068192000501,362.3234606999904,362.3234606999904,362.3234606999904,363.8758104000008,left,1.0,15.279313400038518,,,,,,,,,,,,,,,,,,,,,,,,,,,,,,,,sub-006,1.0,random_dot,59.960090539058,
left,left,accuracy,,,,,0.0,0.0,0.0,0.0,5.0,0.0,10.0,0.0,363.8882998999906,,,,,,,,,363.8773237999994,365.0886334000388,365.8899436000502,365.8726097999606,365.8726457000012,365.8899436000502,365.8899436000502,365.8899436000502,372.34251079999376,left,1.0,20.172705000150017,,,,,,,,,,,,,,,,,,,,,,,,,,,370.8730070999591,,,,,sub-006,1.0,random_dot,59.960090539058,
right,right,accuracy,,,,,0.0,0.0,0.0,0.0,5.0,1.0,11.0,1.0,372.3546697000274,,,,,,,,,372.3440471000504,373.5549272999633,374.3563279999653,374.33871499996167,374.3387431999436,374.3563279999653,374.3563279999653,374.3563279999653,379.9253975000465,right,1.0,19.284741100040264,,,,,,,,,,,,,,,,,,,,,,,,,,,379.3395926000085,,,,,sub-006,1.0,random_dot,59.960090539058,
left,left,accuracy,,,,,0.0,0.0,0.0,0.0,6.0,0.0,12.0,0.0,379.9380346999969,,,,,,,,,379.9267132999376,381.13844120001886,381.9397118999623,381.9225058000302,381.9225545000518,381.9397118999623,381.9397118999623,381.9397118999623,382.975067500025,left,1.0,14.759112400119191,,,,,,,,,,,,,,,,,,,,,,,,,,,,,,,,sub-006,1.0,random_dot,59.960090539058,
right,right,accuracy,,,,,0.0,0.0,0.0,0.0,6.0,1.0,13.0,1.0,382.9880052000517,,,,,,,,,382.9763297999744,383.08814170002006,383.8897464999464,383.87268869997934,383.87273029994685,383.8897464999464,383.8897464999464,383.8897464999464,384.8585726999445,right,1.0,14.686128200031815,,,,,,,,,,,,,,,,,,,,,,,,,,,,,,,,sub-006,1.0,random_dot,59.960090539058,
right,right,accuracy,,,,,0.0,0.0,0.0,0.0,7.0,0.0,14.0,1.0,384.8712235999992,,,,,,,,,384.8604653000366,384.9716554000042,385.7732235000003,385.7562913999427,385.75634249998257,385.7732235000003,385.7732235000003,385.7732235000003,390.4243745999411,right,1.0,18.365906800027005,,,,,,,,,,,,,,,,,,,,,,,,,,,,,,,,sub-006,1.0,random_dot,59.960090539058,
left,left,accuracy,,,,,0.0,0.0,0.0,0.0,7.0,1.0,15.0,0.0,390.4379004000221,,,,,,,,,390.425538499956,391.2380415999796,392.03967430000193,392.0226178000448,392.022668599966,392.03967430000193,392.03967430000193,392.03967430000193,392.8258932000026,left,1.0,14.509785400121473,,,,,,,,,,,,,,,,,,,,,,,,,,,,,,,,sub-006,1.0,random_dot,59.960090539058,
right,right,accuracy,,,,,0.0,0.0,0.0,0.0,8.0,0.0,16.0,1.0,392.83774170000106,,,,,,,,,392.82746349996887,393.6381839000387,394.4396026999457,394.422706100042,394.422764100018,394.4396026999457,394.4396026999457,394.4396026999457,395.2915147000458,right,1.0,14.56598810001742,,,,,,,,,,,,,,,,,,,,,,,,,,,,,,,,sub-006,1.0,random_dot,59.960090539058,
left,left,accuracy,,,,,0.0,0.0,0.0,0.0,8.0,1.0,17.0,0.0,395.3048892000224,,,,,,,,,395.29272050003055,395.6546366999392,396.4563281999435,396.4395285999635,396.43958160001785,396.4563281999435,396.4563281999435,396.4563281999435,402.1243517999537,left,1.0,19.38233529997524,,,,,,,,,,,,,,,,,,,,,,,,,,,401.43951249995735,,,,,sub-006,1.0,random_dot,59.960090539058,
left,left,accuracy,,,,,0.0,0.0,0.0,0.0,9.0,0.0,18.0,0.0,402.1379424999468,,,,,,,,,402.1254312000237,402.4879944999702,403.28963030001614,403.27214040001854,403.27217839995865,403.28963030001614,403.28963030001614,403.28963030001614,407.1077574000228,left,1.0,17.542143500060774,,,,,,,,,,,,,,,,,,,,,,,,,,,,,,,,sub-006,1.0,random_dot,59.960090539058,
right,right,accuracy,,,,,0.0,0.0,0.0,0.0,9.0,1.0,19.0,1.0,407.1211400999455,,,,,,,,,407.1089548999444,407.9210071000271,408.7226929999888,408.705230499967,408.7052497999976,408.7226929999888,408.7226929999888,408.7226929999888,409.4740898000309,right,1.0,14.473909500055017,,,,,,,,,,,,,,,,,,,,,,,,,,,,,,,,sub-006,1.0,random_dot,59.960090539058,
left,left,accuracy,,,,,0.0,0.0,0.0,0.0,10.0,0.0,20.0,0.0,409.4879018999636,,,,,,,,,409.4748644999927,409.5881261000177,410.38969109999016,410.3730268999934,410.373085499974,410.38969109999016,410.38969109999016,410.38969109999016,415.7584888000274,right,0.0,19.08553920011036,,,,,,,,,,,,,,,,,,,,,,,,,,,415.3727075000061,,,,,sub-006,1.0,random_dot,59.960090539058,
right,right,accuracy,,,,,0.0,0.0,0.0,0.0,10.0,1.0,21.0,1.0,415.7716244000476,,,,,,,,,415.75964279996697,415.8715000000084,416.6729221999413,416.6555732999696,416.65561210003216,416.6729221999413,416.6729221999413,416.6729221999413,417.7082685000496,right,1.0,14.761634400114415,,,,,,,,,,,,,,,,,,,,,,,,,,,,,,,,sub-006,1.0,random_dot,59.960090539058,
left,left,accuracy,,,,,0.0,0.0,0.0,0.0,11.0,0.0,22.0,0.0,417.7210174000356,,,,,,,,,417.709489800036,417.821201600018,418.6230431000004,418.6056879999815,418.60572630004026,418.6230431000004,418.6230431000004,418.6230431000004,420.3922614000039,left,1.0,15.49627560004592,,,,,,,,,,,,,,,,,,,,,,,,,,,,,,,,sub-006,1.0,random_dot,59.960090539058,
right,right,accuracy,,,,,0.0,0.0,0.0,0.0,11.0,1.0,23.0,1.0,420.4044750999892,,,,,,,,,420.3938706000336,420.75494210002944,421.5564193000319,421.539021100034,421.5390598999802,421.5564193000319,421.5564193000319,421.5564193000319,422.27521969995,right,1.0,14.434891000040809,,,,,,,,,,,,,,,,,,,,,,,,,,,,,,,,sub-006,1.0,random_dot,59.960090539058,
left,left,accuracy,,,,,0.0,0.0,0.0,0.0,12.0,0.0,24.0,0.0,422.2877752999775,,,,,,,,,422.27718239999376,423.0878315999871,423.88954310002737,423.8727371999994,423.87279399996623,423.88954310002737,423.88954310002737,423.88954310002737,424.52556820004247,left,1.0,14.36059210007079,,,,,,,,,,,,,,,,,,,,,,,,,,,,,,,,sub-006,1.0,random_dot,59.960090539058,
right,right,accuracy,,,,,0.0,0.0,0.0,0.0,12.0,1.0,25.0,1.0,424.5377447999781,,,,,,,,,424.5271350999829,424.887815700029,425.6896264000097,425.6726684999885,425.6727127999766,425.6896264000097,425.6896264000097,425.6896264000097,426.70826520002447,right,1.0,14.747231499990448,,,,,,,,,,,,,,,,,,,,,,,,,,,,,,,,sub-006,1.0,random_dot,59.960090539058,
right,right,accuracy,,,,,0.0,0.0,0.0,0.0,13.0,0.0,26.0,1.0,426.7211402000394,,,,,,,,,426.70947889995296,427.9212141999742,428.72271640005056,428.70625229994766,428.7063023999799,428.72271640005056,428.72271640005056,428.72271640005056,429.9919545999728,right,1.0,14.988694000057876,,,,,,,,,,,,,,,,,,,,,,,,,,,,,,,,sub-006,1.0,random_dot,59.960090539058,
left,left,accuracy,,,,,0.0,0.0,0.0,0.0,13.0,1.0,27.0,0.0,430.00442050001584,,,,,,,,,429.99371049995534,430.1043666000478,430.9059971999377,430.8889222999569,430.8889678999549,430.9059971999377,430.9059971999377,430.9059971999377,431.6912689999445,left,1.0,14.500512000056917,,,,,,,,,,,,,,,,,,,,,,,,,,,,,,,,sub-006,1.0,random_dot,59.960090539058,
right,right,accuracy,,,,,0.0,0.0,0.0,0.0,14.0,0.0,28.0,1.0,431.70444490003865,,,,,,,,,431.6924829999916,432.0547525000293,432.8559123999439,432.839234199957,432.8392838999862,432.8559123999439,432.8559123999439,432.8559123999439,438.7062007000204,right,1.0,19.56550780008547,,,,,,,,,,,,,,,,,,,,,,,,,,,437.8393819000339,,,,,sub-006,1.0,random_dot,59.960090539058,
left,left,accuracy,,,,,0.0,0.0,0.0,0.0,14.0,1.0,29.0,0.0,438.7204769999953,,,,,,,,,438.7068082999904,438.8206858000485,439.62242579995655,439.604813199956,439.60484139993787,439.62242579995655,439.62242579995655,439.62242579995655,440.25781209999695,left,1.0,14.351094500045292,,,,,,,,,,,,,,,,,,,,,,,,,,,,,,,,sub-006,1.0,random_dot,59.960090539058,
left,left,accuracy,,,,,0.0,0.0,0.0,0.0,15.0,0.0,30.0,0.0,440.2709207000444,,,,,,,,,440.2590859000338,440.6208796999417,441.4226552000037,441.4059470000211,441.40600560000166,441.4226552000037,441.4226552000037,441.4226552000037,442.52349339996,left,1.0,14.82715420005843,,,,,,,,,,,,,,,,,,,,,,,,,,,,,,,,sub-006,1.0,random_dot,59.960090539058,
right,right,accuracy,,,,,0.0,0.0,0.0,0.0,15.0,1.0,31.0,1.0,442.53749400004745,,,,,,,,,442.5242400999414,442.8877457999624,443.6891809999943,443.6722064999631,443.672263000044,443.6891809999943,443.6891809999943,443.6891809999943,445.6753082999494,right,1.0,15.701798400026746,,,,,,,,,,,,,,,,,,,,,,,,,,,,,,,,sub-006,1.0,random_dot,59.960090539058,
right,right,accuracy,,,,,0.0,0.0,0.0,0.0,16.0,0.0,32.0,1.0,445.6876123000402,,,,,,,,,445.6769390000263,446.487644799985,447.2893516999902,447.2722542999545,447.2722987999441,447.2893516999902,447.2893516999902,447.2893516999902,451.72408479999285,right,1.0,18.151680100010708,,,,,,,,,,,,,,,,,,,,,,,,,,,,,,,,sub-006,1.0,random_dot,59.960090539058,
left,left,accuracy,,,,,0.0,0.0,0.0,0.0,16.0,1.0,33.0,0.0,451.7376343000215,,,,,,,,,451.7252353000222,452.537469199975,453.3391709999414,453.32211880001705,453.3221695999382,453.3391709999414,453.3391709999414,453.3391709999414,454.5093720000005,left,1.0,14.898387600085698,,,,,,,,,,,,,,,,,,,,,,,,,,,,,,,,sub-006,1.0,random_dot,59.960090539058,
left,left,accuracy,,,,,0.0,0.0,0.0,0.0,17.0,0.0,34.0,0.0,454.5205974000273,,,,,,,,,454.5107733999612,454.62110320001375,455.4223269999493,455.4056789999595,455.4057347000344,455.4223269999493,455.4223269999493,455.4223269999493,457.4577473000391,left,1.0,15.758267699973658,,,,,,,,,,,,,,,,,,,,,,,,,,,,,,,,sub-006,1.0,random_dot,59.960090539058,
right,right,accuracy,,,,,0.0,0.0,0.0,0.0,17.0,1.0,35.0,1.0,457.4705336999614,,,,,,,,,457.4593088999391,458.2709093999583,459.0724323999602,459.0556757999584,459.05573340004776,459.0724323999602,459.0724323999602,459.0724323999602,460.2573177999584,right,1.0,14.89905100001488,,,,,,,,,,,,,,,,,,,,,,,,,,,,,,,,sub-006,1.0,random_dot,59.960090539058,
left,left,accuracy,,,,,0.0,0.0,0.0,0.0,18.0,0.0,36.0,0.0,460.2708438000409,,,,,,,,,460.2585364000406,460.62076740001794,461.422451899969,461.4056977999862,461.4057483000215,461.422451899969,461.422451899969,461.422451899969,463.1248295999831,left,1.0,15.420269600115716,,,,,,,,,,,,,,,,,,,,,,,,,,,,,,,,sub-006,1.0,random_dot,59.960090539058,
right,right,accuracy,,,,,0.0,0.0,0.0,0.0,18.0,1.0,37.0,1.0,463.1374047000427,,,,,,,,,463.1265001000138,463.4875301000429,464.2891467999434,464.272018800024,464.2720683000516,464.2891467999434,464.2891467999434,464.2891467999434,465.1245578000089,right,1.0,14.553922300110573,,,,,,,,,,,,,,,,,,,,,,,,,,,,,,,,sub-006,1.0,random_dot,59.960090539058,
right,right,accuracy,,,,,0.0,0.0,0.0,0.0,19.0,0.0,38.0,1.0,465.1372774000047,,,,,,,,,465.1259200000204,465.4874190000119,466.2890225000447,466.2715752000222,466.2716132999631,466.2890225000447,466.2890225000447,466.2890225000447,469.32504699996207,right,1.0,16.753433000063524,,,,,,,,,,,,,,,,,,,,,,,,,,,,,,,,sub-006,1.0,random_dot,59.960090539058,
left,left,accuracy,,,,,0.0,0.0,0.0,0.0,19.0,1.0,39.0,0.0,469.3371897999896,,,,,,,,,469.32660639996175,470.5375482999953,471.3392323999433,471.3210362000391,471.3210693999426,471.3392323999433,471.3392323999433,471.3392323999433,472.1243277000031,left,1.0,14.50521400012076,,,,,,,,,,,,,,,,,,,,,,,,,,,,,,,,sub-006,1.0,random_dot,59.960090539058,
left,left,accuracy,,,,,0.0,0.0,0.0,0.0,20.0,0.0,40.0,0.0,472.1372646000236,,,,,,,,,472.1256069999654,472.48731839994434,473.2887190999463,473.271944600041,473.2719947999576,473.2887190999463,473.2887190999463,473.2887190999463,474.6074638999999,left,1.0,15.033910700120032,,,,,,,,,,,,,,,,,,,,,,,,,,,,,,,,sub-006,1.0,random_dot,59.960090539058,
right,right,accuracy,,,,,0.0,0.0,0.0,0.0,20.0,1.0,41.0,1.0,474.6206674999557,,,,,,,,,474.608706500032,475.4206368000014,476.2219362000469,476.2039283999475,476.2039442999521,476.2219362000469,476.2219362000469,476.2219362000469,479.9589104000479,right,1.0,17.46179180010222,,,,,,,,,,,,,,,,,,,,,,,,,,,,,,,,sub-006,1.0,random_dot,59.960090539058,
left,left,accuracy,,,,,0.0,0.0,0.0,0.0,21.0,0.0,42.0,0.0,479.97043340001255,,,,,,,,,479.9607149000512,480.3206451999722,481.1222466999898,481.1055841000052,481.1056414999766,481.1222466999898,481.1222466999898,481.1222466999898,482.5413104000036,left,1.0,15.142510900041088,,,,,,,,,,,,,,,,,,,,,,,,,,,,,,,,sub-006,1.0,random_dot,59.960090539058,
right,right,accuracy,,,,,0.0,0.0,0.0,0.0,21.0,1.0,43.0,1.0,482.5538224000484,,,,,,,,,482.5428137000417,483.3537503000116,484.1555178000126,484.13799800002016,484.1380513999611,484.1555178000126,484.1555178000126,484.1555178000126,487.27539930003695,right,1.0,16.84615620004479,,,,,,,,,,,,,,,,,,,,,,,,,,,,,,,,sub-006,1.0,random_dot,59.960090539058,
right,right,accuracy,,,,,0.0,0.0,0.0,0.0,22.0,0.0,44.0,1.0,487.28705980000086,,,,,,,,,487.277042199974,488.4871046999469,489.2890261999564,489.2720794000197,489.272129500052,489.2890261999564,489.2890261999564,489.2890261999564,491.5918795999605,left,0.0,16.0299828001298,,,,,,,,,,,,,,,,,,,,,,,,,,,,,,,,sub-006,1.0,random_dot,59.960090539058,
left,left,accuracy,,,,,0.0,0.0,0.0,0.0,22.0,1.0,45.0,0.0,491.6037470999872,,,,,,,,,491.59321199997794,492.4043060999829,493.2052996000275,493.1884392000502,493.1884964000201,493.2052996000275,493.2052996000275,493.2052996000275,494.540154300048,left,1.0,15.049927200074308,,,,,,,,,,,,,,,,,,,,,,,,,,,,,,,,sub-006,1.0,random_dot,59.960090539058,
right,right,accuracy,,,,,0.0,0.0,0.0,0.0,23.0,0.0,46.0,1.0,494.5537019999465,,,,,,,,,494.5412173999939,495.7540500999894,496.5557978999568,496.5382961999858,496.5383284999989,496.5557978999568,496.5557978999568,496.5557978999568,500.7909003000241,right,1.0,17.9555873000063,,,,,,,,,,,,,,,,,,,,,,,,,,,,,,,,sub-006,1.0,random_dot,59.960090539058,
left,left,accuracy,,,,,0.0,0.0,0.0,0.0,23.0,1.0,47.0,0.0,500.8037538999925,,,,,,,,,500.7923198000062,501.1535828999477,501.95549890003167,501.9382949999999,501.9383501999546,501.95549890003167,501.95549890003167,501.95549890003167,502.690121899941,left,1.0,14.448550200089812,,,,,,,,,,,,,,,,,,,,,,,,,,,,,,,,sub-006,1.0,random_dot,59.960090539058,
right,right,accuracy,,,,,0.0,0.0,0.0,0.0,24.0,0.0,48.0,1.0,502.7038492000429,,,,,,,,,502.6913301999448,503.5039308000123,504.3053456000053,504.2883421999868,504.2883993999567,504.3053456000053,504.3053456000053,504.3053456000053,508.37403900001664,right,1.0,17.791267200140283,,,,,,,,,,,,,,,,,,,,,,,,,,,,,,,,sub-006,1.0,random_dot,59.960090539058,
left,left,accuracy,,,,,0.0,0.0,0.0,0.0,24.0,1.0,49.0,0.0,508.38688859995455,,,,,,,,,508.3754478000337,508.48697840003297,509.28864919999614,509.2715253999922,509.271581399953,509.28864919999614,509.28864919999614,509.28864919999614,509.9914964999771,left,1.0,14.426401700126007,,,,,,,,,,,,,,,,,,,,,,,,,,,,,,,,sub-006,1.0,random_dot,59.960090539058,
right,right,accuracy,,,,,0.0,0.0,0.0,0.0,25.0,0.0,50.0,1.0,510.0035320000025,,,,,,,,,509.9930842999602,510.1037297999719,510.9052665999625,510.8882395999972,510.8882859000005,510.9052665999625,510.9052665999625,510.9052665999625,512.5235907000024,right,1.0,15.333690400002524,,,,,,,,,,,,,,,,,,,,,,,,,,,,,,,,sub-006,1.0,random_dot,59.960090539058,
left,left,accuracy,,,,,0.0,0.0,0.0,0.0,25.0,1.0,51.0,0.0,512.5369196999818,,,,,,,,,512.524758100044,512.6370320999995,513.4386133999797,513.4214022000087,513.4214560999535,513.4386133999797,513.4386133999797,513.4386133999797,514.223933900008,left,1.0,14.507228799979202,,,,,,,,,,,,,,,,,,,,,,,,,,,,,,,,sub-006,1.0,random_dot,59.960090539058,
right,right,accuracy,,,,,0.0,0.0,0.0,0.0,26.0,0.0,52.0,1.0,514.2370671000099,,,,,,,,,514.2255667999852,515.0369473999599,515.8386186000425,515.8211327999597,515.8211721000262,515.8386186000425,515.8386186000425,515.8386186000425,520.3737226000521,right,1.0,18.2619828999741,,,,,,,,,,,,,,,,,,,,,,,,,,,,,,,,sub-006,1.0,random_dot,59.960090539058,
left,left,accuracy,,,,,0.0,0.0,0.0,0.0,26.0,1.0,53.0,0.0,520.3867444000207,,,,,,,,,520.3748544999398,520.4870073000202,521.2885237999726,521.2716017999919,521.2716562999412,521.2885237999726,521.2885237999726,521.2885237999726,522.0239529999672,left,1.0,14.45769170008134,,,,,,,,,,,,,,,,,,,,,,,,,,,,,,,,sub-006,1.0,random_dot,59.960090539058,
left,left,accuracy,,,,,0.0,0.0,0.0,0.0,27.0,0.0,54.0,0.0,522.0368427999783,,,,,,,,,522.0252658999525,522.3869963999605,523.1886054000352,523.1711212999653,523.1711595000234,523.1886054000352,523.1886054000352,523.1886054000352,523.7579368000152,left,1.0,14.287741400068626,,,,,,,,,,,,,,,,,,,,,,,,,,,,,,,,sub-006,1.0,random_dot,59.960090539058,
right,right,accuracy,,,,,0.0,0.0,0.0,0.0,27.0,1.0,55.0,1.0,523.7700191000476,,,,,,,,,523.7594605999766,523.8700393999461,524.6718257999746,524.6549876000499,524.6550329000456,524.6718257999746,524.6718257999746,524.6718257999746,525.9243342999835,right,1.0,14.977015900076369,,,,,,,,,,,,,,,,,,,,,,,,,,,,,,,,sub-006,1.0,random_dot,59.960090539058,
right,right,accuracy,,,,,0.0,0.0,0.0,0.0,28.0,0.0,56.0,1.0,525.9367386000231,,,,,,,,,525.925704699941,526.0369440000504,526.8385016999673,526.8217504000058,526.8218008000404,526.8385016999673,526.8385016999673,526.8385016999673,531.8079546999652,right,1.0,18.687397800036702,,,,,,,,,,,,,,,,,,,,,,,,,,,531.8201224999502,,,,,sub-006,1.0,random_dot,59.960090539058,
left,left,accuracy,,,,,0.0,0.0,0.0,0.0,28.0,1.0,57.0,0.0,531.8201224999502,,,,,,,,,531.8095491999993,533.0204020999372,533.8219063000288,533.8046162000392,533.8046574000036,533.8219063000288,533.8219063000288,533.8219063000288,534.8066285999957,left,1.0,14.712355800089426,,,,,,,,,,,,,,,,,,,,,,,,,,,,,,,,sub-006,1.0,random_dot,59.960090539058,
right,right,accuracy,,,,,0.0,0.0,0.0,0.0,29.0,0.0,58.0,1.0,534.8205733000068,,,,,,,,,534.8073048000224,535.6204280999955,536.4221085000318,536.4051909999689,536.4052510999609,536.4221085000318,536.4221085000318,536.4221085000318,537.5745621999959,right,1.0,14.868102800101042,,,,,,,,,,,,,,,,,,,,,,,,,,,,,,,,sub-006,1.0,random_dot,59.960090539058,
left,left,accuracy,,,,,0.0,0.0,0.0,0.0,29.0,1.0,59.0,0.0,537.5866315000458,,,,,,,,,537.5760394999525,538.7871795999818,539.5885085000191,539.5721149999881,539.5721751999808,539.5885085000191,539.5885085000191,539.5885085000191,540.3896927000023,left,1.0,14.527797700022347,,,,,,,,,,,,,,,,,,,,,,,,,,,,,,,,sub-006,1.0,random_dot,59.960090539058,
,,accuracy,,,,,0.0,0.0,0.0,0.0,,,,,,,,,,,,,,,,,,,,,,,,,,,,,,,,,,,,,,,,,,,,,,,,,,,,,,,,,sub-006,1.0,random_dot,59.960090539058,
right,right,speed,,,,,0.0,1.0,1.0,1.0,0.0,0.0,0.0,1.0,549.4737071000272,,,,,,,,,549.468374799937,549.5701209999388,550.3719822999556,550.3547755000181,550.35482769995,550.3719822999556,550.3719822999556,550.3719822999556,551.2742645000108,right,1.0,14.618408900103532,,,,,,,,,,,,,,,,,,,,540.3903112999396,540.4034696000163,540.4034696000163,549.4559603000525,space,22.775001000030898,,,,,,,sub-006,1.0,random_dot,59.960090539058,
left,left,speed,,,,,0.0,1.0,1.0,1.0,0.0,1.0,1.0,0.0,551.2872800000478,,,,,,,,,551.2759894999908,551.6374016000191,552.4423263999633,552.4250658999663,552.4251139999833,552.4423263999633,552.4423263999633,552.4423263999633,552.8578973000403,left,1.0,14.136721500079148,,,,,,,,,,,,,,,,,,,,,,,,,,,,,,,,sub-006,1.0,random_dot,59.960090539058,
left,left,speed,,,,,0.0,1.0,1.0,1.0,1.0,0.0,2.0,0.0,552.8701979999896,,,,,,,,,552.8593557999702,554.0704310999718,554.8717452000128,554.8547431000043,554.8547856999794,554.8717452000128,554.8717452000128,554.8717452000128,555.5238082000287,left,1.0,14.370342600042932,,,,,,,,,,,,,,,,,,,,,,,,,,,,,,,,sub-006,1.0,random_dot,59.960090539058,
right,right,speed,,,,,0.0,1.0,1.0,1.0,1.0,1.0,3.0,1.0,555.5365658999654,,,,,,,,,555.5250645000488,555.8869297000347,556.6885367999785,556.6716614000034,556.6717064999975,556.6885367999785,556.6885367999785,556.6885367999785,557.891223100014,left,0.0,14.920373399974778,,,,,,,,,,,,,,,,,,,,,,,,,,,,,,,,sub-006,1.0,random_dot,59.960090539058,
left,left,speed,,,,,0.0,1.0,1.0,1.0,2.0,0.0,4.0,0.0,557.9033651000354,,,,,,,,,557.8927343999967,558.0033664000221,558.8049143999815,558.7871281999396,558.7871800999856,558.8049143999815,558.8049143999815,558.8049143999815,559.4229031000286,left,1.0,14.33917440008372,,,,,,,,,,,,,,,,,,,,,,,,,,,,,,,,sub-006,1.0,random_dot,59.960090539058,
right,right,speed,,,,,0.0,1.0,1.0,1.0,2.0,1.0,5.0,1.0,559.4366887999931,,,,,,,,,559.4237005000468,559.7865555000026,560.5886277999962,560.5706611999776,560.5706949000014,560.5886277999962,560.5886277999962,560.5886277999962,561.373275800026,right,1.0,14.50736670009792,,,,,,,,,,,,,,,,,,,,,,,,,,,,,,,,sub-006,1.0,random_dot,59.960090539058,
left,left,speed,,,,,0.0,1.0,1.0,1.0,3.0,0.0,6.0,0.0,561.386371999979,,,,,,,,,561.3745817999588,561.7365692999447,562.5382685000077,562.5213479000377,562.521406600019,562.5382685000077,562.5382685000077,562.5382685000077,563.1570320000174,left,1.0,14.340404800139368,,,,,,,,,,,,,,,,,,,,,,,,,,,,,,,,sub-006,1.0,random_dot,59.960090539058,
right,right,speed,,,,,0.0,1.0,1.0,1.0,3.0,1.0,7.0,1.0,563.1701180000091,,,,,,,,,563.1584530000109,563.9702980000293,564.7714974000119,564.7548357000342,564.7548862999538,564.7714974000119,564.7714974000119,564.7714974000119,565.6399959999835,right,1.0,14.588001600117424,,,,,,,,,,,,,,,,,,,,,,,,,,,,,,,,sub-006,1.0,random_dot,59.960090539058,
right,right,speed,,,,,0.0,1.0,1.0,1.0,4.0,0.0,8.0,1.0,565.6532101000194,,,,,,,,,565.6412452999502,566.8528689999366,567.6551320999861,567.6384063999867,567.638462999952,567.6551320999861,567.6551320999861,567.6551320999861,568.7730936999433,left,0.0,14.842876799986698,,,,,,,,,,,,,,,,,,,,,,,,,,,,,,,,sub-006,1.0,random_dot,59.960090539058,
left,left,speed,,,,,0.0,1.0,1.0,1.0,4.0,1.0,9.0,0.0,568.7865830999799,,,,,,,,,568.7745124000357,568.8864918999607,569.687878799974,569.6707056999439,569.6707245999714,569.687878799974,569.687878799974,569.687878799974,570.4731539000059,left,1.0,14.499905899981968,,,,,,,,,,,,,,,,,,,,,,,,,,,,,,,,sub-006,1.0,random_dot,59.960090539058,
right,right,speed,,,,,0.0,1.0,1.0,1.0,5.0,0.0,10.0,1.0,570.4865086999489,,,,,,,,,570.474290400045,570.8369541999418,571.6381765999831,571.6203902999405,571.6204175000312,571.6381765999831,571.6381765999831,571.6381765999831,572.2235768999672,right,1.0,14.304443600121886,,,,,,,,,,,,,,,,,,,,,,,,,,,,,,,,sub-006,1.0,random_dot,59.960090539058,
left,left,speed,,,,,0.0,1.0,1.0,1.0,5.0,1.0,11.0,0.0,572.2365658000344,,,,,,,,,572.2248132999521,573.4364465000108,574.2381264000433,574.2209009999642,574.2209437999409,574.2381264000433,574.2381264000433,574.2381264000433,574.7578215999529,left,1.0,14.235836200066842,,,,,,,,,,,,,,,,,,,,,,,,,,,,,,,,sub-006,1.0,random_dot,59.960090539058,
right,right,speed,,,,,0.0,1.0,1.0,1.0,6.0,0.0,12.0,1.0,574.7698512000497,,,,,,,,,574.7593550999882,575.970107399975,576.7712683000136,576.7543720999965,576.7544140999671,576.7712683000136,576.7712683000136,576.7712683000136,578.0574768000515,right,1.0,14.999599100090563,,,,,,,,,,,,,,,,,,,,,,,,,,,,,,,,sub-006,1.0,random_dot,59.960090539058,
left,left,speed,,,,,0.0,1.0,1.0,1.0,6.0,1.0,13.0,0.0,578.069912499981,,,,,,,,,578.059047000017,578.4197914999677,579.2213489999995,579.2042927000439,579.2043290999718,579.2213489999995,579.2213489999995,579.2213489999995,579.7401956999674,left,1.0,14.244841300067492,,,,,,,,,,,,,,,,,,,,,,,,,,,,,,,,sub-006,1.0,random_dot,59.960090539058,
right,right,speed,,,,,0.0,1.0,1.0,1.0,7.0,0.0,14.0,1.0,579.7531440999592,,,,,,,,,579.7417448000051,580.5534268999472,581.3547906000167,581.338197199977,581.3382563999621,581.3547906000167,581.3547906000167,581.3547906000167,582.9405632000417,right,1.0,15.310280000092462,,,,,,,,,,,,,,,,,,,,,,,,,,,,,,,,sub-006,1.0,random_dot,59.960090539058,
left,left,speed,,,,,0.0,1.0,1.0,1.0,7.0,1.0,15.0,0.0,582.9531857999973,,,,,,,,,582.9418189999415,584.1534235000145,584.9547949000262,584.9378452999517,584.9378954999847,584.9547949000262,584.9547949000262,584.9547949000262,585.6571773999603,left,1.0,14.421056400053205,,,,,,,,,,,,,,,,,,,,,,,,,,,,,,,,sub-006,1.0,random_dot,59.960090539058,
right,right,speed,,,,,0.0,1.0,1.0,1.0,8.0,0.0,16.0,1.0,585.6695454999572,,,,,,,,,585.65876999998,586.0196124999784,586.8214664999396,586.8038710999535,586.8039166999515,586.8214664999396,586.8214664999396,586.8214664999396,587.444081399939,right,1.0,14.350464600021953,,,,,,,,,,,,,,,,,,,,,,,,,,,,,,,,sub-006,1.0,random_dot,59.960090539058,
left,left,speed,,,,,0.0,1.0,1.0,1.0,8.0,1.0,17.0,0.0,587.45301009994,,,,,,,,,587.4461816999828,587.803071100032,588.6042495999718,588.5863413000479,588.5863554000389,588.6042495999718,588.6042495999718,588.6042495999718,589.1577655000146,left,1.0,14.266916700056754,,,,,,,,,,,,,,,,,,,,,,,,,,,,,,,,sub-006,1.0,random_dot,59.960090539058,
right,right,speed,,,,,0.0,1.0,1.0,1.0,9.0,0.0,18.0,1.0,589.1695136999479,,,,,,,,,589.1592874999624,589.9693986000493,590.7714012999786,590.7533233000431,590.7533448999748,590.7714012999786,590.7714012999786,590.7714012999786,591.2908687000163,right,1.0,14.237536099972203,,,,,,,,,,,,,,,,,,,,,,,,,,,,,,,,sub-006,1.0,random_dot,59.960090539058,
left,left,speed,,,,,0.0,1.0,1.0,1.0,9.0,1.0,19.0,0.0,591.3032410000451,,,,,,,,,591.2929788000183,592.5030794000486,593.3046442000195,593.2878646999598,593.2879166000057,593.3046442000195,593.3046442000195,593.3046442000195,593.6563049999531,left,1.0,14.06874910008628,,,,,,,,,,,,,,,,,,,,,,,,,,,,,,,,sub-006,1.0,random_dot,59.960090539058,
left,left,speed,,,,,0.0,1.0,1.0,1.0,10.0,0.0,20.0,0.0,593.6694036000408,,,,,,,,,593.6574697999749,594.8699083999963,595.671348099946,595.6542602999834,595.6543114000233,595.671348099946,595.671348099946,595.671348099946,596.0238708000397,right,0.0,14.077177400002256,,,,,,,,,,,,,,,,,,,,,,,,,,,,,,,,sub-006,1.0,random_dot,59.960090539058,
right,right,speed,,,,,0.0,1.0,1.0,1.0,10.0,1.0,21.0,1.0,596.0366883999668,,,,,,,,,596.0252374999691,596.3863002000144,597.1880920999683,597.1711394999875,597.1711961999536,597.1880920999683,597.1880920999683,597.1880920999683,597.7239085000474,right,1.0,14.262628700002097,,,,,,,,,,,,,,,,,,,,,,,,,,,,,,,,sub-006,1.0,random_dot,59.960090539058,
right,right,speed,,,,,0.0,1.0,1.0,1.0,11.0,0.0,22.0,1.0,597.7364858000074,,,,,,,,,597.725217500003,598.9361699000001,599.7382626000326,599.7213731999509,599.7214346999535,599.7382626000326,599.7382626000326,599.7382626000326,600.3400679000188,right,1.0,14.323820000048729,,,,,,,,,,,,,,,,,,,,,,,,,,,,,,,,sub-006,1.0,random_dot,59.960090539058,
left,left,speed,,,,,0.0,1.0,1.0,1.0,11.0,1.0,23.0,0.0,600.3527173999464,,,,,,,,,600.3415549000492,600.4528508000076,601.2545934000518,601.2372625999851,601.2373025999404,601.2545934000518,601.2545934000518,601.2545934000518,601.7733985999366,left,1.0,14.240832300041802,,,,,,,,,,,,,,,,,,,,,,,,,,,,,,,,sub-006,1.0,random_dot,59.960090539058,
right,right,speed,,,,,0.0,1.0,1.0,1.0,12.0,0.0,24.0,1.0,601.7864138999721,,,,,,,,,601.7747990000062,601.8861847999506,602.6878999000182,602.6708958999952,602.6709486000473,602.6878999000182,602.6878999000182,602.6878999000182,603.5576524999924,right,1.0,14.593490200000817,,,,,,,,,,,,,,,,,,,,,,,,,,,,,,,,sub-006,1.0,random_dot,59.960090539058,
left,left,speed,,,,,0.0,1.0,1.0,1.0,12.0,1.0,25.0,0.0,603.5693720999407,,,,,,,,,603.5593217000132,603.6696359999478,604.4711728999391,604.4542325000511,604.4542791999411,604.4711728999391,604.4711728999391,604.4711728999391,604.9902342000278,left,1.0,14.239097300102005,,,,,,,,,,,,,,,,,,,,,,,,,,,,,,,,sub-006,1.0,random_dot,59.960090539058,
left,left,speed,,,,,0.0,1.0,1.0,1.0,13.0,0.0,26.0,0.0,605.003178199986,,,,,,,,,604.9915740999859,606.2029888000106,607.004207800026,606.9876998999389,606.9877500999719,607.004207800026,607.004207800026,607.004207800026,608.106423899997,right,0.0,14.824797100038268,,,,,,,,,,,,,,,,,,,,,,,,,,,,,,,,sub-006,1.0,random_dot,59.960090539058,
right,right,speed,,,,,0.0,1.0,1.0,1.0,13.0,1.0,27.0,1.0,608.1194120999426,,,,,,,,,608.1077269000234,609.319417300052,610.1211357000284,610.1040113000199,610.1040571000194,610.1211357000284,610.1211357000284,610.1211357000284,610.6724050999619,left,0.0,14.265608299989252,,,,,,,,,,,,,,,,,,,,,,,,,,,,,,,,sub-006,1.0,random_dot,59.960090539058,
left,left,speed,,,,,0.0,1.0,1.0,1.0,14.0,0.0,28.0,0.0,610.6864337000297,,,,,,,,,610.6740947000217,610.7860831000144,611.5879872000078,611.5710820000386,611.5711325999582,611.5879872000078,611.5879872000078,611.5879872000078,612.1399725000374,left,1.0,14.27332669997122,,,,,,,,,,,,,,,,,,,,,,,,,,,,,,,,sub-006,1.0,random_dot,59.960090539058,
right,right,speed,,,,,0.0,1.0,1.0,1.0,14.0,1.0,29.0,1.0,612.1526872999966,,,,,,,,,612.1413529999554,613.3527284000302,614.1542279999703,614.1377209000057,614.137771400041,614.1542279999703,614.1542279999703,614.1542279999703,614.706891000038,right,1.0,14.27262730000075,,,,,,,,,,,,,,,,,,,,,,,,,,,,,,,,sub-006,1.0,random_dot,59.960090539058,
left,left,speed,,,,,0.0,1.0,1.0,1.0,15.0,0.0,30.0,0.0,614.7193812000332,,,,,,,,,614.7085058999946,615.9194575999863,616.7211526000174,616.7044932999415,616.7045525000431,616.7211526000174,616.7211526000174,616.7211526000174,617.207629499957,left,1.0,14.214357000077143,,,,,,,,,,,,,,,,,,,,,,,,,,,,,,,,sub-006,1.0,random_dot,59.960090539058,
right,right,speed,,,,,0.0,1.0,1.0,1.0,15.0,1.0,31.0,1.0,617.2193403999554,,,,,,,,,617.2090567999985,617.3190949000418,618.1208957999479,618.1043262999738,618.1043815000448,618.1208957999479,618.1208957999479,618.1208957999479,618.7050328999758,right,1.0,14.312828800058924,,,,,,,,,,,,,,,,,,,,,,,,,,,,,,,,sub-006,1.0,random_dot,59.960090539058,
left,left,speed,,,,,0.0,1.0,1.0,1.0,16.0,0.0,32.0,0.0,618.7189742999617,,,,,,,,,618.7059936999576,619.5193751000334,620.3210836000508,620.3042390999617,620.3042968000518,620.3210836000508,620.3210836000508,620.3210836000508,620.9063380999723,left,1.0,14.303502800059505,,,,,,,,,,,,,,,,,,,,,,,,,,,,,,,,sub-006,1.0,random_dot,59.960090539058,
right,right,speed,,,,,0.0,1.0,1.0,1.0,16.0,1.0,33.0,1.0,620.9193869000301,,,,,,,,,620.9078172999434,621.7194674999919,622.5217158000451,622.5044904999668,622.504535999964,622.5217158000451,622.5217158000451,622.5217158000451,623.6401355999988,right,1.0,14.842645300086588,,,,,,,,,,,,,,,,,,,,,,,,,,,,,,,,sub-006,1.0,random_dot,59.960090539058,
right,right,speed,,,,,0.0,1.0,1.0,1.0,17.0,0.0,34.0,1.0,623.6528578000143,,,,,,,,,623.6414819000056,624.0028087999672,624.8043387000216,624.7872143000131,624.78726500005,624.8043387000216,624.8043387000216,624.8043387000216,625.5058207999682,left,0.0,14.416056400048546,,,,,,,,,,,,,,,,,,,,,,,,,,,,,,,,sub-006,1.0,random_dot,59.960090539058,
left,left,speed,,,,,0.0,1.0,1.0,1.0,17.0,1.0,35.0,0.0,625.5192869999446,,,,,,,,,625.5072152999928,626.7191740999697,627.5209732999792,627.5047045999672,627.5047619999386,627.5209732999792,627.5209732999792,627.5209732999792,628.6078173000133,left,1.0,14.813817500020376,,,,,,,,,,,,,,,,,,,,,,,,,,,,,,,,sub-006,1.0,random_dot,59.960090539058,
right,right,speed,,,,,0.0,1.0,1.0,1.0,18.0,0.0,36.0,1.0,628.6195795999374,,,,,,,,,628.6093121999875,628.719343499979,629.5209158000071,629.5041062999517,629.5041622000281,629.5209158000071,629.5209158000071,629.5209158000071,630.1065351000289,right,1.0,14.3112866000738,,,,,,,,,,,,,,,,,,,,,,,,,,,,,,,,sub-006,1.0,random_dot,59.960090539058,
left,left,speed,,,,,0.0,1.0,1.0,1.0,18.0,1.0,37.0,0.0,630.1192106000381,,,,,,,,,630.1081183999777,630.46932439995,631.2710664999904,631.2540607999545,631.2540994000155,631.2710664999904,631.2710664999904,631.2710664999904,631.8402903999668,left,1.0,14.2927138999803,,,,,,,,,,,,,,,,,,,,,,,,,,,,,,,,sub-006,1.0,random_dot,59.960090539058,
left,left,speed,,,,,0.0,1.0,1.0,1.0,19.0,0.0,38.0,0.0,631.8523927000351,,,,,,,,,631.8418296000455,631.9529063999653,632.7546124999644,632.7379142999416,632.7379640999716,632.7546124999644,632.7546124999644,632.7546124999644,634.9569937000051,left,1.0,15.926765700103717,,,,,,,,,,,,,,,,,,,,,,,,,,,,,,,,sub-006,1.0,random_dot,59.960090539058,
right,right,speed,,,,,0.0,1.0,1.0,1.0,19.0,1.0,39.0,1.0,634.9692291000392,,,,,,,,,634.9584147999994,635.0691983000142,635.8708788000513,635.8535884999437,635.853632900049,635.8708788000513,635.8708788000513,635.8708788000513,636.4243594999425,right,1.0,14.281569600105286,,,,,,,,,,,,,,,,,,,,,,,,,,,,,,,,sub-006,1.0,random_dot,59.960090539058,
right,right,speed,,,,,0.0,1.0,1.0,1.0,20.0,0.0,40.0,1.0,636.4358206000179,,,,,,,,,636.4257936000358,636.5358034999808,637.3373885999899,637.3201912000077,637.3202254000353,637.3373885999899,637.3373885999899,637.3373885999899,637.9907134999521,right,1.0,14.379197800066322,,,,,,,,,,,,,,,,,,,,,,,,,,,,,,,,sub-006,1.0,random_dot,59.960090539058,
left,left,speed,,,,,0.0,1.0,1.0,1.0,20.0,1.0,41.0,0.0,638.0029331999831,,,,,,,,,637.9922094000503,638.8028803999769,639.6040414000163,639.5871494000312,639.587203699979,639.6040414000163,639.6040414000163,639.6040414000163,640.0237513999455,left,1.0,14.145824000006542,,,,,,,,,,,,,,,,,,,,,,,,,,,,,,,,sub-006,1.0,random_dot,59.960090539058,
left,left,speed,,,,,0.0,1.0,1.0,1.0,21.0,0.0,42.0,0.0,640.0358724000398,,,,,,,,,640.0251204000087,640.3858669999754,641.1874635999557,641.1703621000051,641.1704168999568,641.1874635999557,641.1874635999557,641.1874635999557,641.738546299981,left,1.0,14.26587990007829,,,,,,,,,,,,,,,,,,,,,,,,,,,,,,,,sub-006,1.0,random_dot,59.960090539058,
right,right,speed,,,,,0.0,1.0,1.0,1.0,21.0,1.0,43.0,1.0,641.752589300042,,,,,,,,,641.7391718999716,641.8525787999388,642.6542279999703,642.6377782999771,642.637840499985,642.6542279999703,642.6542279999703,642.6542279999703,644.6401946999831,right,1.0,15.711558400071226,,,,,,,,,,,,,,,,,,,,,,,,,,,,,,,,sub-006,1.0,random_dot,59.960090539058,
left,left,speed,,,,,0.0,1.0,1.0,1.0,22.0,0.0,44.0,0.0,644.6526200999506,,,,,,,,,644.6418690000428,645.8525129000191,646.6544142999919,646.6362165999599,646.6362469999585,646.6544142999919,646.6544142999919,646.6544142999919,647.9232564000413,right,0.0,14.984105000039564,,,,,,,,,,,,,,,,,,,,,,,,,,,,,,,,sub-006,1.0,random_dot,59.960090539058,
right,right,speed,,,,,0.0,1.0,1.0,1.0,22.0,1.0,45.0,1.0,647.9359378999798,,,,,,,,,647.9248274000129,648.7373805999523,649.5542447000043,649.5370386999566,649.537071299972,649.5542447000043,649.5542447000043,649.5542447000043,650.2912583999569,right,1.0,14.464952400070615,,,,,,,,,,,,,,,,,,,,,,,,,,,,,,,,sub-006,1.0,random_dot,59.960090539058,
left,left,speed,,,,,0.0,1.0,1.0,1.0,23.0,0.0,46.0,0.0,650.3026531999931,,,,,,,,,650.2926941999467,651.5027187999804,652.3042131999973,652.2874223999679,652.2874715999933,652.3042131999973,652.3042131999973,652.3042131999973,652.8063089000061,left,1.0,14.218412200105377,,,,,,,,,,,,,,,,,,,,,,,,,,,,,,,,sub-006,1.0,random_dot,59.960090539058,
right,right,speed,,,,,0.0,1.0,1.0,1.0,23.0,1.0,47.0,1.0,652.8193277999526,,,,,,,,,652.8077655000379,653.6200328000123,654.4211369999684,654.4032815999817,654.4033136999933,654.4211369999684,654.4211369999684,654.4211369999684,655.7234481000341,right,1.0,15.0257785001304,,,,,,,,,,,,,,,,,,,,,,,,,,,,,,,,sub-006,1.0,random_dot,59.960090539058,
right,right,speed,,,,,0.0,1.0,1.0,1.0,24.0,0.0,48.0,1.0,655.7360189999454,,,,,,,,,655.7251535999821,655.8364402999869,656.6376917000161,656.6207595999585,656.6208082999801,656.6376917000161,656.6376917000161,656.6376917000161,657.9228862000164,left,0.0,15.007947500096634,,,,,,,,,,,,,,,,,,,,,,,,,,,,,,,,sub-006,1.0,random_dot,59.960090539058,
left,left,speed,,,,,0.0,1.0,1.0,1.0,24.0,1.0,49.0,0.0,657.9357431000099,,,,,,,,,657.9241793999681,659.1360107000219,659.937214900041,659.9202510999748,659.9202832999872,659.937214900041,659.937214900041,659.937214900041,660.5232614999404,left,1.0,14.310666700010188,,,,,,,,,,,,,,,,,,,,,,,,,,,,,,,,sub-006,1.0,random_dot,59.960090539058,
left,left,speed,,,,,0.0,1.0,1.0,1.0,25.0,0.0,50.0,0.0,660.5358045999892,,,,,,,,,660.5245693000033,660.8858928999398,661.6878627999686,661.6708371000132,661.6708914999617,661.6878627999686,661.6878627999686,661.6878627999686,662.273435399984,left,1.0,14.310456900158895,,,,,,,,,,,,,,,,,,,,,,,,,,,,,,,,sub-006,1.0,random_dot,59.960090539058,
right,right,speed,,,,,0.0,1.0,1.0,1.0,25.0,1.0,51.0,1.0,662.2857459000079,,,,,,,,,662.2750021000393,663.4859176999889,664.2875443999656,664.2703303999733,664.2703767999774,664.2875443999656,664.2875443999656,664.2875443999656,664.8402499000076,left,0.0,14.279061799985357,,,,,,,,,,,,,,,,,,,,,,,,,,,,,,,,sub-006,1.0,random_dot,59.960090539058,
right,right,speed,,,,,0.0,1.0,1.0,1.0,26.0,0.0,52.0,1.0,664.8523827999597,,,,,,,,,664.841662599938,664.9526126999408,665.7548636000138,665.7369028000394,665.7369418999879,665.7548636000138,665.7548636000138,665.7548636000138,666.3228825000115,right,1.0,14.283381800050847,,,,,,,,,,,,,,,,,,,,,,,,,,,,,,,,sub-006,1.0,random_dot,59.960090539058,
left,left,speed,,,,,0.0,1.0,1.0,1.0,26.0,1.0,53.0,0.0,666.3357207999798,,,,,,,,,666.3242609000299,666.6857854999835,667.4874541000463,667.469360099989,667.4693836000515,667.4874541000463,667.4874541000463,667.4874541000463,668.1901990999468,left,1.0,14.430392200010829,,,,,,,,,,,,,,,,,,,,,,,,,,,,,,,,sub-006,1.0,random_dot,59.960090539058,
right,right,speed,,,,,0.0,1.0,1.0,1.0,27.0,0.0,54.0,1.0,668.2023701999569,,,,,,,,,668.1915129999397,669.0024421999697,669.804385800031,669.787066699937,669.7871037999867,669.804385800031,669.804385800031,669.804385800031,670.4402720000362,right,1.0,14.364249400096014,,,,,,,,,,,,,,,,,,,,,,,,,,,,,,,,sub-006,1.0,random_dot,59.960090539058,
left,left,speed,,,,,0.0,1.0,1.0,1.0,27.0,1.0,55.0,0.0,670.4523689999478,,,,,,,,,670.4418669999577,670.5524896000279,671.3542569000274,671.3366376999766,671.3366758000338,671.3542569000274,671.3542569000274,671.3542569000274,672.0751969999401,left,1.0,14.448475500103086,,,,,,,,,,,,,,,,,,,,,,,,,,,,,,,,sub-006,1.0,random_dot,59.960090539058,
right,right,speed,,,,,0.0,1.0,1.0,1.0,28.0,0.0,56.0,1.0,672.0857513999799,,,,,,,,,672.0765491999919,672.1856862000423,672.9873708999949,672.9709676000057,672.9710300000152,672.9873708999949,672.9873708999949,672.9873708999949,674.3070431000087,right,1.0,15.043660100083798,,,,,,,,,,,,,,,,,,,,,,,,,,,,,,,,sub-006,1.0,random_dot,59.960090539058,
left,left,speed,,,,,0.0,1.0,1.0,1.0,28.0,1.0,57.0,0.0,674.3191168999765,,,,,,,,,674.3085005000466,675.5190272999462,676.3205972999567,676.3037823999766,676.3038380000507,676.3205972999567,676.3205972999567,676.3205972999567,676.8890123999445,left,1.0,14.290222100098616,,,,,,,,,,,,,,,,,,,,,,,,,,,,,,,,sub-006,1.0,random_dot,59.960090539058,
left,left,speed,,,,,0.0,1.0,1.0,1.0,29.0,0.0,58.0,0.0,676.9022073999513,,,,,,,,,676.8904178000521,678.1024649000028,678.9035986999515,678.886197200045,678.8862138999393,678.9035986999515,678.9035986999515,678.9035986999515,679.4388754999964,left,1.0,14.263662400073372,,,,,,,,,,,,,,,,,,,,,,,,,,,,,,,,sub-006,1.0,random_dot,59.960090539058,
right,right,speed,,,,,0.0,1.0,1.0,1.0,29.0,1.0,59.0,1.0,679.4523399999598,,,,,,,,,679.4402489999775,679.5519445999525,680.3538652999559,680.3364433000097,680.3364791000495,680.3538652999559,680.3538652999559,680.3538652999559,680.8228740999475,right,1.0,14.195534100057555,,,,,,,,,,,,,,,,,,,,,,,,,,,,,,,,sub-006,1.0,random_dot,59.960090539058,
,,speed,,,,,0.0,1.0,1.0,1.0,,,,,,,,,,,,,,,,,,,,,,,,,,,,,,,,,,,,,,,,,,,,,,,,,,,,,,,,,sub-006,1.0,random_dot,59.960090539058,
,,,,,,,,,,,,,,,,,,,,,,,,,,,,,,,,,,,,,,,,,,,,,,,,,,,,,,,,,,,,,,,680.8242625000421,680.8356850999407,685.8352150999708,685.8200281000463,sub-006,,,,
