wordCTK,colorCTK,corrAnsCTK,congruentCTK,thisN,thisTrialN,thisRepN,keyResp_CTK.keys,keyResp_CTK.corr,keyResp_CTK.rt,keyResp_CTK.duration,wordPractice,colorPractice,corrAnsPractice,congruentPractice,respPractice.keys,respPractice.corr,respPractice.rt,respPractice.duration,word,color,corrAns,congruent,keyResp_test_run.keys,keyResp_test_run.corr,keyResp_test_run.rt,keyResp_test_run.duration,trials_CTK.thisRepN,trials_CTK.thisTrialN,trials_CTK.thisN,trials_CTK.thisIndex,trials_practice.thisRepN,trials_practice.thisTrialN,trials_practice.thisN,trials_practice.thisIndex,trials_test.thisRepN,trials_test.thisTrialN,trials_test.thisN,trials_test.thisIndex,thisRow.t,notes,instruction.started,instr_text.started,instr_image.started,instr_resp.started,instruction.stopped,instr_resp.keys,instr_resp.rt,instr_resp.duration,instr_color_to_key.started,instr_ctk.started,resp_ctk.started,instr_color_to_key.stopped,resp_ctk.keys,resp_ctk.rt,resp_ctk.duration,ITI.started,fixcross.started,fixcross.stopped,ITI.stopped,color_to_key_run.started,stimulus_CTK.started,keyResp_CTK.started,color_to_key_run.stopped,trials_CTK.keyResp_CTK.keys,trials_CTK.keyResp_CTK.corr,trials_CTK.keyResp_CTK.rt,trials_CTK.keyResp_CTK.duration,instr_practice.started,instr_practice_text.started,instr_practice_resp.started,instr_practice.stopped,instr_practice_resp.keys,instr_practice_resp.rt,instr_practice_resp.duration,practice_run.started,stimulus_practice.started,respPractice.started,practice_run.stopped,trials_practice.respPractice.keys,trials_practice.respPractice.corr,trials_practice.respPractice.rt,trials_practice.respPractice.duration,feedback.started,textFeedback.started,feedback.stopped,textFeedback.stopped,instr_test.started,instr_test_text.started,instr_test_resp.started,instr_test.stopped,instr_test_resp.keys,instr_test_resp.rt,instr_test_resp.duration,test_run.started,stimulus_test_run.started,keyResp_test_run.started,test_run.stopped,trials_test.keyResp_test_run.keys,trials_test.keyResp_test_run.corr,trials_test.keyResp_test_run.rt,trials_test.keyResp_test_run.duration,goodbye.started,textGoodbye.started,goodbye.stopped,participant,session,expName,frameRate,Unnamed: 112
,,,,,,,,,,,,,,,,,,,,,,,,,,,,,,,,,,,,,,,,,0.0146894120116485,0.036561614004313,0.036561614004313,0.036561614004313,82.21472169000481,space,82.16914899399853,,,,,,,,,,,,,,,,,,,,,,,,,,,,,,,,,,,,,,,,,,,,,,,,,,,,,,,,,,sub-011,1,stroop_test,82.79760660336308,
,,,,,,,,,,,,,,,,,,,,,,,,,,,,,,,,,,,,,,,,,,,,,,,,,82.21485392800241,82.22730730799958,82.22730730799958,98.2789194490033,space,16.038957301992923,,,,,,,,,,,,,,,,,,,,,,,,,,,,,,,,,,,,,,,,,,,,,,,,,,,sub-011,1,stroop_test,82.79760660336308,
test,yellow,g,1.0,0.0,0.0,0.0,g,1.0,2.4316135209955974,,,,,,,,,,,,,,,,,,0.0,0.0,0.0,1.0,,,,,,,,,98.31327563800733,,,,,,,,,,,,,,,,,98.2925076340034,98.62409205900622,99.43132160299864,99.41428517601162,99.4212605520006,99.43132160299864,99.43132160299864,101.8664413330116,g,1.0,2.4316135209955974,,,,,,,,,,,,,,,,,,,,,,,,,,,,,,,,,,,,,,,sub-011,1,stroop_test,82.79760660336308,
test,red,r,1.0,1.0,1.0,0.0,r,1.0,1.040995004994329,,,,,,,,,,,,,,,,,,0.0,1.0,1.0,0.0,,,,,,,,,101.87756470699968,,,,,,,,,,,,,,,,,101.86705461500968,102.67119473700586,103.47081110600266,103.46161189601116,103.4623401530116,103.47081110600266,103.47081110600266,104.514667438998,r,1.0,1.040995004994329,,,,,,,,,,,,,,,,,,,,,,,,,,,,,,,,,,,,,,,sub-011,1,stroop_test,82.79760660336308,
test,blue,b,1.0,2.0,2.0,0.0,b,1.0,0.8767739309987519,,,,,,,,,,,,,,,,,,0.0,2.0,2.0,2.0,,,,,,,,,104.52550798100128,,,,,,,,,,,,,,,,,104.51505706600436,105.7117454840045,106.51241263700648,106.49909263000882,106.49978344200645,106.51241263700648,106.51241263700648,107.39760164701148,b,1.0,0.8767739309987519,,,,,,,,,,,,,,,,,,,,,,,,,,,,,,,,,,,,,,,sub-011,1,stroop_test,82.79760660336308,
test,yellow,g,1.0,3.0,0.0,1.0,g,1.0,1.1961416350095533,,,,,,,,,,,,,,,,,,1.0,0.0,3.0,1.0,,,,,,,,,107.4068828580057,,,,,,,,,,,,,,,,,107.39803701500932,107.74518344900572,108.54114359500818,108.53036058800352,108.53101871200488,108.54114359500818,108.54114359500818,109.74731384200275,g,1.0,1.1961416350095533,,,,,,,,,,,,,,,,,,,,,,,,,,,,,,,,,,,,,,,sub-011,1,stroop_test,82.79760660336308,
test,red,r,1.0,4.0,1.0,1.0,r,1.0,0.9680498860107036,,,,,,,,,,,,,,,,,,1.0,1.0,4.0,0.0,,,,,,,,,109.75736140699884,,,,,,,,,,,,,,,,,109.747651941012,110.09382229100449,110.891286211001,110.88095294201048,110.88161044500885,110.891286211001,110.891286211001,111.86954410400358,r,1.0,0.9680498860107036,,,,,,,,,,,,,,,,,,,,,,,,,,,,,,,,,,,,,,,sub-011,1,stroop_test,82.79760660336308,
test,blue,b,1.0,5.0,2.0,1.0,b,1.0,0.9965390189900064,,,,,,,,,,,,,,,,,,1.0,2.0,5.0,2.0,,,,,,,,,111.88209745800124,,,,,,,,,,,,,,,,,111.8699652869982,112.66989560300136,113.46415949201037,113.45515451100071,113.45580303799944,113.46415949201037,113.46415949201037,114.46504474400716,b,1.0,0.9965390189900064,,,,,,,,,,,,,,,,,,,,,,,,,,,,,,,,,,,,,,,sub-011,1,stroop_test,82.79760660336308,
test,blue,b,1.0,6.0,0.0,2.0,b,1.0,0.7742949329986004,,,,,,,,,,,,,,,,,,2.0,0.0,6.0,2.0,,,,,,,,,114.47543723801208,,,,,,,,,,,,,,,,,114.4654833520035,115.26222902300653,116.0606172710104,116.04927702000714,116.05022322801231,116.0606172710104,116.0606172710104,116.84807961300248,b,1.0,0.7742949329986004,,,,,,,,,,,,,,,,,,,,,,,,,,,,,,,,,,,,,,,sub-011,1,stroop_test,82.79760660336308,
test,yellow,g,1.0,7.0,1.0,2.0,g,1.0,0.7358821059897309,,,,,,,,,,,,,,,,,,2.0,1.0,7.0,1.0,,,,,,,,,116.85849246301224,,,,,,,,,,,,,,,,,116.84848940100346,118.0447805970034,118.84501224700944,118.82920781100984,118.83016132601188,118.84501224700944,118.84501224700944,119.590731246004,g,1.0,0.7358821059897309,,,,,,,,,,,,,,,,,,,,,,,,,,,,,,,,,,,,,,,sub-011,1,stroop_test,82.79760660336308,
test,red,r,1.0,8.0,2.0,2.0,r,1.0,2.083237153012305,,,,,,,,,,,,,,,,,,2.0,2.0,8.0,0.0,,,,,,,,,119.60042267400422,,,,,,,,,,,,,,,,,119.59125334200507,119.68655475800917,120.49188149900874,120.48029103400768,120.48126429101104,120.49188149900874,120.49188149900874,122.58559357099875,r,1.0,2.083237153012305,,,,,,,,,,,,,,,,,,,,,,,,,,,,,,,,,,,,,,,sub-011,1,stroop_test,82.79760660336308,
test,blue,b,1.0,9.0,0.0,3.0,b,1.0,0.7899447800009511,,,,,,,,,,,,,,,,,,3.0,0.0,9.0,2.0,,,,,,,,,122.5989757940115,,,,,,,,,,,,,,,,,122.58600600001228,123.7878961700044,124.59075767399918,124.5800173410098,124.5806729879987,124.59075767399918,124.59075767399918,125.391945055002,b,1.0,0.7899447800009511,,,,,,,,,,,,,,,,,,,,,,,,,,,,,,,,,,,,,,,sub-011,1,stroop_test,82.79760660336308,
test,red,r,1.0,10.0,1.0,3.0,r,1.0,0.9922997599933296,,,,,,,,,,,,,,,,,,3.0,1.0,10.0,0.0,,,,,,,,,125.40162066800984,,,,,,,,,,,,,,,,,125.39246958801232,125.48613424001088,126.29238761401211,126.28091334000057,126.28189757600194,126.29238761401211,126.29238761401211,127.29756884700328,r,1.0,0.9922997599933296,,,,,,,,,,,,,,,,,,,,,,,,,,,,,,,,,,,,,,,sub-011,1,stroop_test,82.79760660336308,
test,yellow,g,1.0,11.0,2.0,3.0,g,1.0,0.3960470909951255,,,,,,,,,,,,,,,,,,3.0,2.0,11.0,1.0,,,,,,,,,127.3081146540062,,,,,,,,,,,,,,,,,127.29798548101098,128.093701359001,128.8939794820035,128.88271627901122,128.88337574301113,128.8939794820035,128.8939794820035,129.29825402400456,g,1.0,0.3960470909951255,,,,,,,,,,,,,,,,,,,,,,,,,,,,,,,,,,,,,,,sub-011,1,stroop_test,82.79760660336308,
,,,,,,,,,,,,,,,,,,,,,,,,,,,,,,,,,,,,,,,,,,,,,,,,,,,,,,,,,,,,,,,,,,,,129.29845344000205,129.312132845007,129.312132845007,131.2160986400122,space,1.9010149699897736,,,,,,,,,,,,,,,,,,,,,,,,,,,,,,,,sub-011,1,stroop_test,82.79760660336308,
,,,,0.0,0.0,0.0,,,,,gelb,blue,b,0.0,b,1.0,2.002178290000302,,,,,,,,,,,,,,0.0,0.0,0.0,9.0,,,,,131.2402562440111,,,,,,,,,,,,,,,,,131.23170620200108,132.421006012999,133.22649196800194,133.21236116100044,,,,,,,,,,,,,,,,133.21760641000583,133.22649196800194,133.22649196800194,135.2323106010008,b,1.0,2.002178290000302,,135.24001278501237,135.25082435300283,136.23763839500316,,,,,,,,,,,,,,,,,,,,sub-011,1,stroop_test,82.79760660336308,
,,,,1.0,1.0,0.0,,,,,rot,red,r,1.0,r,1.0,0.8875246739917202,,,,,,,,,,,,,,0.0,1.0,1.0,0.0,,,,,136.24754222499905,,,,,,,,,,,,,,,,,136.2384509399999,136.5884909669985,137.3969983499992,137.38136513000063,,,,,,,,,,,,,,,,137.38725043500017,137.3969983499992,137.3969983499992,138.30562475400802,r,1.0,0.8875246739917202,,138.30625490300008,138.32770973999868,139.31520999599888,,,,,,,,,,,,,,,,,,,,sub-011,1,stroop_test,82.79760660336308,
,,,,2.0,2.0,0.0,,,,,blau,red,r,0.0,b,0.0,1.2544640920095844,,,,,,,,,,,,,,0.0,2.0,2.0,4.0,,,,,139.3285375800042,,,,,,,,,,,,,,,,,139.31593734900525,139.40166259600664,140.2129826200107,140.19664663200092,,,,,,,,,,,,,,,,140.20322378100536,140.2129826200107,140.2129826200107,141.4746003610053,b,0.0,1.2544640920095844,,141.47946000700176,141.48994015200878,142.4785654980078,,,,,,,,,,,,,,,,,,,,sub-011,1,stroop_test,82.79760660336308,
,,,,3.0,3.0,0.0,,,,,rot,red,r,1.0,r,1.0,0.9516344519943232,,,,,,,,,,,,,,0.0,3.0,3.0,1.0,,,,,142.48663995300012,,,,,,,,,,,,,,,,,142.4792743260041,143.27839627600042,144.07629606500268,144.06372107801144,,,,,,,,,,,,,,,,144.06709846301237,144.07629606500268,144.07629606500268,145.038794787004,r,1.0,0.9516344519943232,,145.0439847610105,145.05490419600392,146.04548181900464,,,,,,,,,,,,,,,,,,,,sub-011,1,stroop_test,82.79760660336308,
,,,,4.0,4.0,0.0,,,,,gelb,red,r,0.0,r,1.0,1.2359606370009717,,,,,,,,,,,,,,0.0,4.0,4.0,8.0,,,,,146.0541658900038,,,,,,,,,,,,,,,,,146.04615191501216,146.86278461600887,147.67761697000242,147.66254407601082,,,,,,,,,,,,,,,,147.66755071800435,147.67761697000242,147.67761697000242,148.91743867300102,r,1.0,1.2359606370009717,,148.91869704800774,148.9319626880024,149.927760933002,,,,,,,,,,,,,,,,,,,,sub-011,1,stroop_test,82.79760660336308,
,,,,5.0,5.0,0.0,,,,,blau,blue,b,1.0,b,1.0,0.8443791979952948,,,,,,,,,,,,,,0.0,5.0,5.0,5.0,,,,,149.94546933300444,,,,,,,,,,,,,,,,,149.92842852500326,151.12745854900277,151.92636684099853,151.91134111001156,,,,,,,,,,,,,,,,151.9161779749993,151.92636684099853,151.92636684099853,152.7991327940108,b,1.0,0.8443791979952948,,152.8002176900045,152.81421157700242,153.7998027720023,153.81153981600073,,,,,,,,,,,,,,,,,,,sub-011,1,stroop_test,82.79760660336308,
,,,,6.0,6.0,0.0,,,,,rot,blue,b,0.0,b,1.0,0.763617990000057,,,,,,,,,,,,,,0.0,6.0,6.0,2.0,,,,,153.81153981600073,,,,,,,,,,,,,,,,,153.80046725799912,153.89317449599912,154.69487213400134,154.680984799008,,,,,,,,,,,,,,,,154.68449891000637,154.69487213400134,154.69487213400134,155.46856468000624,b,1.0,0.763617990000057,,155.46921127600945,155.4820590140007,156.47744580201106,,,,,,,,,,,,,,,,,,,,sub-011,1,stroop_test,82.79760660336308,
,,,,7.0,7.0,0.0,,,,,gelb,yellow,g,1.0,g,1.0,0.7773742809949908,,,,,,,,,,,,,,0.0,7.0,7.0,11.0,,,,,156.49521901800472,,,,,,,,,,,,,,,,,156.4781560400006,157.6697517690045,158.4661167130107,158.45440311300626,,,,,,,,,,,,,,,,158.4577766410075,158.4661167130107,158.4661167130107,159.249383967006,g,1.0,0.7773742809949908,,159.25005316700845,159.26142268200056,160.25005498999963,,,,,,,,,,,,,,,,,,,,sub-011,1,stroop_test,82.79760660336308,
,,,,8.0,8.0,0.0,,,,,blau,blue,b,1.0,b,1.0,0.8512000269984128,,,,,,,,,,,,,,0.0,8.0,8.0,6.0,,,,,160.25979429700237,,,,,,,,,,,,,,,,,160.2507127190038,161.4558395470085,162.2547777389991,162.2402453120012,,,,,,,,,,,,,,,,162.24503352100146,162.2547777389991,162.2547777389991,163.11759487300878,b,1.0,0.8512000269984128,,163.11822157300776,163.12998288001108,164.1276225120091,,,,,,,,,,,,,,,,,,,,sub-011,1,stroop_test,82.79760660336308,
,,,,9.0,9.0,0.0,,,,,gelb,yellow,g,1.0,g,1.0,0.8837068050052039,,,,,,,,,,,,,,0.0,9.0,9.0,10.0,,,,,164.1452585980005,,,,,,,,,,,,,,,,,164.12829392999993,165.30939166901226,166.11046416200406,166.09708646500076,,,,,,,,,,,,,,,,166.100954309004,166.11046416200406,166.11046416200406,167.0012151520059,g,1.0,0.8837068050052039,,167.00185561200487,167.01497976500832,168.003526874003,,,,,,,,,,,,,,,,,,,,sub-011,1,stroop_test,82.79760660336308,
,,,,10.0,10.0,0.0,,,,,rot,yellow,g,0.0,g,1.0,0.8683441299945116,,,,,,,,,,,,,,0.0,10.0,10.0,3.0,,,,,168.01286270200217,,,,,,,,,,,,,,,,,168.00422801999957,169.19750841001223,169.99808827800734,169.98368925800605,,,,,,,,,,,,,,,,169.98772350100626,169.99808827800734,169.99808827800734,170.87956731799932,g,1.0,0.8683441299945116,,170.88022926000122,170.89149760300643,171.87890024601074,171.8864940610074,,,,,,,,,,,,,,,,,,,sub-011,1,stroop_test,82.79760660336308,
,,,,11.0,11.0,0.0,,,,,blau,yellow,g,0.0,g,1.0,1.8011915700044483,,,,,,,,,,,,,,0.0,11.0,11.0,7.0,,,,,171.8864940610074,,,,,,,,,,,,,,,,,171.8793825800094,173.0783231940004,173.87950437200195,173.8649402700103,,,,,,,,,,,,,,,,173.86945131501125,173.87950437200195,173.87950437200195,175.69544992600277,g,1.0,1.8011915700044483,,175.69607465399895,175.70766137300234,176.69577794600627,176.70298580000235,,,,,,,,,,,,,,,,,,,sub-011,1,stroop_test,82.79760660336308,
,,,,12.0,0.0,1.0,,,,,blau,blue,b,1.0,b,1.0,1.0153882110025734,,,,,,,,,,,,,,1.0,0.0,12.0,6.0,,,,,176.70298580000235,,,,,,,,,,,,,,,,,176.69627630700415,177.0372043420066,177.8336304149998,177.82223673500994,,,,,,,,,,,,,,,,177.82324151600187,177.8336304149998,177.8336304149998,178.86441772400576,b,1.0,1.0153882110025734,,178.8651300240017,178.87750535301166,179.86239510199812,179.87010019300214,,,,,,,,,,,,,,,,,,,sub-011,1,stroop_test,82.79760660336308,
,,,,13.0,1.0,1.0,,,,,gelb,blue,b,0.0,b,1.0,0.791405610012589,,,,,,,,,,,,,,1.0,1.0,13.0,9.0,,,,,179.87010019300214,,,,,,,,,,,,,,,,,179.86284877599974,180.22744518700347,181.02699097400185,181.013195757012,,,,,,,,,,,,,,,,181.01700313000765,181.02699097400185,181.02699097400185,181.82337545799965,b,1.0,0.791405610012589,,181.82435793901092,181.8348047530017,182.8235175070004,182.83116836400583,,,,,,,,,,,,,,,,,,,sub-011,1,stroop_test,82.79760660336308,
,,,,14.0,2.0,1.0,,,,,blau,yellow,g,0.0,g,1.0,1.0290422520047289,,,,,,,,,,,,,,1.0,2.0,14.0,7.0,,,,,182.83116836400583,,,,,,,,,,,,,,,,,182.8240139580012,183.168838513011,183.9699064180022,183.9544059070031,,,,,,,,,,,,,,,,183.9594646510086,183.9699064180022,183.9699064180022,185.01143339200644,g,1.0,1.0290422520047289,,185.01205204099824,185.03937225299887,186.0133372440032,,,,,,,,,,,,,,,,,,,,sub-011,1,stroop_test,82.79760660336308,
,,,,15.0,3.0,1.0,,,,,rot,red,r,1.0,r,1.0,0.8421449269953882,,,,,,,,,,,,,,1.0,3.0,15.0,0.0,,,,,186.02798091100703,,,,,,,,,,,,,,,,,186.01417062900143,186.8109854610084,187.61009046601248,187.59636395399863,,,,,,,,,,,,,,,,187.6000839920016,187.61009046601248,187.61009046601248,188.4564349889988,r,1.0,0.8421449269953882,,188.45727977200292,188.4685794990073,189.4525657490012,189.46203719500045,,,,,,,,,,,,,,,,,,,sub-011,1,stroop_test,82.79760660336308,
,,,,16.0,4.0,1.0,,,,,blau,blue,b,1.0,b,1.0,1.2678512319980657,,,,,,,,,,,,,,1.0,4.0,16.0,5.0,,,,,189.46203719500045,,,,,,,,,,,,,,,,,189.4532186370052,189.5534499350033,190.36162206700828,190.34622250399843,,,,,,,,,,,,,,,,190.3510162540042,190.36162206700828,190.36162206700828,191.6408685420029,b,1.0,1.2678512319980657,,191.6417628250056,191.65392452300875,192.66050301201176,,,,,,,,,,,,,,,,,,,,sub-011,1,stroop_test,82.79760660336308,
,,,,17.0,5.0,1.0,,,,,rot,blue,b,0.0,b,1.0,0.6816966729966225,,,,,,,,,,,,,,1.0,5.0,17.0,2.0,,,,,192.67830074600352,,,,,,,,,,,,,,,,,192.66122344799803,192.73565524900917,193.53452125900367,193.5206222859997,,,,,,,,,,,,,,,,193.52528066800733,193.53452125900367,193.53452125900367,194.2303700820048,b,1.0,0.6816966729966225,,194.23099484000704,194.24318552399927,195.2316237949999,195.2445151190041,,,,,,,,,,,,,,,,,,,sub-011,1,stroop_test,82.79760660336308,
,,,,18.0,6.0,1.0,,,,,rot,yellow,g,0.0,g,1.0,1.5120898090099215,,,,,,,,,,,,,,1.0,6.0,18.0,3.0,,,,,195.2445151190041,,,,,,,,,,,,,,,,,195.23229078300935,195.3280780690111,196.13099987299935,196.1195388839988,,,,,,,,,,,,,,,,196.12050623600956,196.13099987299935,196.13099987299935,197.64628728201205,g,1.0,1.5120898090099215,,197.6471113190055,197.65850283599863,198.6457301390037,198.65367927400803,,,,,,,,,,,,,,,,,,,sub-011,1,stroop_test,82.79760660336308,
,,,,19.0,7.0,1.0,,,,,gelb,yellow,g,1.0,g,1.0,0.6825246480002534,,,,,,,,,,,,,,1.0,7.0,19.0,11.0,,,,,198.65367927400803,,,,,,,,,,,,,,,,,198.6461761190003,199.0106364600069,199.81007955499808,199.7975263850094,,,,,,,,,,,,,,,,199.80092677900396,199.81007955499808,199.81007955499808,200.49751057600952,g,1.0,0.6825246480002534,,200.4981617270096,200.51020118800807,201.4984140620072,201.51088462601183,,,,,,,,,,,,,,,,,,,sub-011,1,stroop_test,82.79760660336308,
,,,,20.0,8.0,1.0,,,,,blau,red,r,0.0,r,1.0,1.385518980998313,,,,,,,,,,,,,,1.0,8.0,20.0,4.0,,,,,201.51088462601183,,,,,,,,,,,,,,,,,201.49908267300637,202.6936075140111,203.4923781210091,203.4787844410021,,,,,,,,,,,,,,,,203.48269493800765,203.4923781210091,203.4923781210091,204.88889376800216,r,1.0,1.385518980998313,,204.88964690901048,204.9020483230124,205.88718486900325,205.8958243829984,,,,,,,,,,,,,,,,,,,sub-011,1,stroop_test,82.79760660336308,
,,,,21.0,9.0,1.0,,,,,gelb,red,r,0.0,r,1.0,1.5892061589984223,,,,,,,,,,,,,,1.0,9.0,21.0,8.0,,,,,205.8958243829984,,,,,,,,,,,,,,,,,205.88758954701188,206.69435415200127,207.50976194300165,207.4952785050118,,,,,,,,,,,,,,,,207.4997187520057,207.50976194300165,207.50976194300165,209.1069280720112,r,1.0,1.5892061589984223,,209.1077298940072,209.1198209069989,210.1122076879983,,,,,,,,,,,,,,,,,,,,sub-011,1,stroop_test,82.79760660336308,
,,,,22.0,10.0,1.0,,,,,rot,red,r,1.0,r,1.0,0.8893671120022191,,,,,,,,,,,,,,1.0,10.0,22.0,1.0,,,,,210.1204202500085,,,,,,,,,,,,,,,,,210.11281310800405,210.20367562500175,211.01046404900265,210.99669367801107,,,,,,,,,,,,,,,,211.0004251860082,211.01046404900265,211.01046404900265,211.91405109400512,r,1.0,0.8893671120022191,,211.9146854100109,211.9255883690057,212.91466046500136,212.9275171090121,,,,,,,,,,,,,,,,,,,sub-011,1,stroop_test,82.79760660336308,
,,,,23.0,11.0,1.0,,,,,gelb,yellow,g,1.0,g,1.0,1.0337241259985603,,,,,,,,,,,,,,1.0,11.0,23.0,10.0,,,,,212.9275171090121,,,,,,,,,,,,,,,,,212.91536845300288,214.1186661610118,214.92122790600115,214.90542734001065,,,,,,,,,,,,,,,,214.91129236300185,214.92122790600115,214.92122790600115,215.96576785499929,g,1.0,1.0337241259985603,,215.96629723800288,215.9763766219985,216.962459745002,216.9739932049997,,,,,,,,,,,,,,,,,,,sub-011,1,stroop_test,82.79760660336308,
,,,,,,,,,,,,,,,,,,,,,,,,,,,,,,,,,,,,,,,,,,,,,,,,,,,,,,,,,,,,,,,,,,,,,,,,,,,,,,,,,,,,,,,216.9626635570021,216.9739932049997,216.9739932049997,225.74714017000224,space,8.768529474997194,,,,,,,,,,,,,sub-011,1,stroop_test,82.79760660336308,
,,,,0.0,0.0,0.0,,,,,,,,,,,,,rot,yellow,g,0.0,g,1.0,1.566052829002729,,,,,,,,,,0.0,0.0,0.0,3.0,225.77481971800444,,,,,,,,,,,,,,,,,225.7650373860088,225.8597868950019,226.65988620401183,226.64614954301211,,,,,,,,,,,,,,,,,,,,,,,,,,,,,,,,,,,226.65000470700036,226.65988620401183,226.65988620401183,228.2471879220102,g,1.0,1.566052829002729,,,,,sub-011,1,stroop_test,82.79760660336308,
,,,,1.0,1.0,0.0,,,,,,,,,,,,,blau,blue,b,1.0,b,1.0,1.0208565139910206,,,,,,,,,,0.0,1.0,1.0,6.0,228.25940897900728,,,,,,,,,,,,,,,,,228.24807626400437,229.4601393040066,230.2595994700096,230.24532242400164,,,,,,,,,,,,,,,,,,,,,,,,,,,,,,,,,,,230.24906150200692,230.2595994700096,230.2595994700096,231.29142514101116,b,1.0,1.0208565139910206,,,,,sub-011,1,stroop_test,82.79760660336308,
,,,,2.0,2.0,0.0,,,,,,,,,,,,,rot,red,r,1.0,r,1.0,1.9627233919891296,,,,,,,,,,0.0,2.0,2.0,0.0,231.3030366460007,,,,,,,,,,,,,,,,,231.29199793700536,231.41101458200137,232.2085916760116,232.1950294100097,,,,,,,,,,,,,,,,,,,,,,,,,,,,,,,,,,,232.19881392500247,232.2085916760116,232.2085916760116,234.1796595890046,r,1.0,1.9627233919891296,,,,,sub-011,1,stroop_test,82.79760660336308,
,,,,3.0,3.0,0.0,,,,,,,,,,,,,gelb,red,r,0.0,r,1.0,1.0089763239957392,,,,,,,,,,0.0,3.0,3.0,8.0,234.18996854200668,,,,,,,,,,,,,,,,,234.18013585700828,234.5296907160082,235.33167855700597,235.31950913100445,,,,,,,,,,,,,,,,,,,,,,,,,,,,,,,,,,,235.32288358300863,235.33167855700597,235.33167855700597,236.35110509500373,r,1.0,1.0089763239957392,,,,,sub-011,1,stroop_test,82.79760660336308,
,,,,4.0,4.0,0.0,,,,,,,,,,,,,rot,red,r,1.0,r,1.0,0.5171559169975808,,,,,,,,,,0.0,4.0,4.0,1.0,236.3649648020073,,,,,,,,,,,,,,,,,236.35158901401155,236.44741360199987,237.2591929460032,237.24514412799908,,,,,,,,,,,,,,,,,,,,,,,,,,,,,,,,,,,237.248933424009,237.2591929460032,237.2591929460032,237.7826928380091,r,1.0,0.5171559169975808,,,,,sub-011,1,stroop_test,82.79760660336308,
,,,,5.0,5.0,0.0,,,,,,,,,,,,,gelb,yellow,g,1.0,g,1.0,0.3970218329923227,,,,,,,,,,0.0,5.0,5.0,10.0,237.79381181301144,,,,,,,,,,,,,,,,,237.78316111200547,238.5881760810007,239.39142061700116,239.3772121380025,,,,,,,,,,,,,,,,,,,,,,,,,,,,,,,,,,,239.38128670600415,239.39142061700116,239.39142061700116,239.7994111880107,g,1.0,0.3970218329923227,,,,,sub-011,1,stroop_test,82.79760660336308,
,,,,6.0,6.0,0.0,,,,,,,,,,,,,blau,blue,b,1.0,b,1.0,0.7852712299936684,,,,,,,,,,0.0,6.0,6.0,5.0,239.81048347199976,,,,,,,,,,,,,,,,,239.799875954006,239.9048294140084,240.7097519710078,240.69560077501228,,,,,,,,,,,,,,,,,,,,,,,,,,,,,,,,,,,240.69946054401225,240.7097519710078,240.7097519710078,241.5055100650061,b,1.0,0.7852712299936684,,,,,sub-011,1,stroop_test,82.79760660336308,
,,,,7.0,7.0,0.0,,,,,,,,,,,,,rot,blue,b,0.0,b,1.0,0.8034495290048653,,,,,,,,,,0.0,7.0,7.0,2.0,241.5165218330076,,,,,,,,,,,,,,,,,241.50599738200253,242.30558605999977,243.1091932679992,243.0945259500004,,,,,,,,,,,,,,,,,,,,,,,,,,,,,,,,,,,243.09924486200907,243.1091932679992,243.1091932679992,243.92368848501064,b,1.0,0.8034495290048653,,,,,sub-011,1,stroop_test,82.79760660336308,
,,,,8.0,8.0,0.0,,,,,,,,,,,,,blau,yellow,g,0.0,g,1.0,1.4210394760011695,,,,,,,,,,0.0,8.0,8.0,7.0,243.9335237230116,,,,,,,,,,,,,,,,,243.9242485930008,244.72816153500756,245.5315249970008,245.5178095470037,,,,,,,,,,,,,,,,,,,,,,,,,,,,,,,,,,,245.52199640900653,245.5315249970008,245.5315249970008,246.9629247450066,g,1.0,1.4210394760011695,,,,,sub-011,1,stroop_test,82.79760660336308,
,,,,9.0,9.0,0.0,,,,,,,,,,,,,gelb,blue,b,0.0,b,1.0,0.8167649370006984,,,,,,,,,,0.0,9.0,9.0,9.0,246.9731827120122,,,,,,,,,,,,,,,,,246.96340712900565,247.3148934769997,248.1260759950092,248.11195911100367,,,,,,,,,,,,,,,,,,,,,,,,,,,,,,,,,,,248.11580611301176,248.1260759950092,248.1260759950092,248.94610578700667,b,1.0,0.8167649370006984,,,,,sub-011,1,stroop_test,82.79760660336308,
,,,,10.0,10.0,0.0,,,,,,,,,,,,,blau,red,r,0.0,r,1.0,2.4274452690006,,,,,,,,,,0.0,10.0,10.0,4.0,248.95545665800452,,,,,,,,,,,,,,,,,248.94648828700883,250.1461926060001,250.94628504700088,250.93088152199925,,,,,,,,,,,,,,,,,,,,,,,,,,,,,,,,,,,250.93541670800187,250.94628504700088,250.94628504700088,253.38339225800885,r,1.0,2.4274452690006,,,,,sub-011,1,stroop_test,82.79760660336308,
,,,,11.0,11.0,0.0,,,,,,,,,,,,,gelb,yellow,g,1.0,g,1.0,0.7596365219942527,,,,,,,,,,0.0,11.0,11.0,11.0,253.4094347120117,,,,,,,,,,,,,,,,,253.38386796000125,254.58710587600945,255.38998109000383,255.37626229300804,,,,,,,,,,,,,,,,,,,,,,,,,,,,,,,,,,,255.3802690450102,255.38998109000383,255.38998109000383,256.15641814000264,g,1.0,0.7596365219942527,,,,,sub-011,1,stroop_test,82.79760660336308,
,,,,12.0,0.0,1.0,,,,,,,,,,,,,blau,blue,b,1.0,b,1.0,0.9482230190042172,,,,,,,,,,1.0,0.0,12.0,5.0,256.1668761570036,,,,,,,,,,,,,,,,,256.15712225300376,256.96124720601074,257.7618916520005,257.7482237479999,,,,,,,,,,,,,,,,,,,,,,,,,,,,,,,,,,,257.75171634300204,257.7618916520005,257.7618916520005,258.71693659700395,b,1.0,0.9482230190042172,,,,,sub-011,1,stroop_test,82.79760660336308,
,,,,13.0,1.0,1.0,,,,,,,,,,,,,gelb,yellow,g,1.0,g,1.0,0.7011705639888532,,,,,,,,,,1.0,1.0,13.0,10.0,258.7291452729987,,,,,,,,,,,,,,,,,258.7174049400055,259.0582442820014,259.87631317401247,259.86112514100387,,,,,,,,,,,,,,,,,,,,,,,,,,,,,,,,,,,259.86610626100446,259.87631317401247,259.87631317401247,260.5809577070031,g,1.0,0.7011705639888532,,,,,sub-011,1,stroop_test,82.79760660336308,
,,,,14.0,2.0,1.0,,,,,,,,,,,,,blau,red,r,0.0,r,1.0,1.3644049110007472,,,,,,,,,,1.0,2.0,14.0,4.0,260.59271551801066,,,,,,,,,,,,,,,,,260.58171770600893,260.67568644700805,261.47888502301066,261.46141614500084,,,,,,,,,,,,,,,,,,,,,,,,,,,,,,,,,,,261.468511789004,261.47888502301066,261.47888502301066,262.8470484639984,r,1.0,1.3644049110007472,,,,,sub-011,1,stroop_test,82.79760660336308,
,,,,15.0,3.0,1.0,,,,,,,,,,,,,gelb,red,r,0.0,r,1.0,0.7076474569912534,,,,,,,,,,1.0,3.0,15.0,8.0,262.85837696101225,,,,,,,,,,,,,,,,,262.8476168500056,264.04752279201057,264.8550722350046,264.84111100000155,,,,,,,,,,,,,,,,,,,,,,,,,,,,,,,,,,,264.84512767000706,264.8550722350046,264.8550722350046,265.56582417699974,r,1.0,0.7076474569912534,,,,,sub-011,1,stroop_test,82.79760660336308,
,,,,16.0,4.0,1.0,,,,,,,,,,,,,rot,yellow,g,0.0,g,1.0,1.3899217159923865,,,,,,,,,,1.0,4.0,16.0,3.0,265.593116338001,,,,,,,,,,,,,,,,,265.5665462600009,265.66246644299827,266.4647704579984,266.4513808210031,,,,,,,,,,,,,,,,,,,,,,,,,,,,,,,,,,,266.4549426320009,266.4647704579984,266.4647704579984,267.8651097680122,g,1.0,1.3899217159923865,,,,,sub-011,1,stroop_test,82.79760660336308,
,,,,17.0,5.0,1.0,,,,,,,,,,,,,gelb,blue,b,0.0,b,1.0,1.0863847580039874,,,,,,,,,,1.0,5.0,17.0,9.0,267.8750761560077,,,,,,,,,,,,,,,,,267.8654793809983,267.9621334530093,268.7753527400055,268.76190241100267,,,,,,,,,,,,,,,,,,,,,,,,,,,,,,,,,,,268.76575410200167,268.7753527400055,268.7753527400055,269.8739043969981,b,1.0,1.0863847580039874,,,,,sub-011,1,stroop_test,82.79760660336308,
,,,,18.0,6.0,1.0,,,,,,,,,,,,,gelb,yellow,g,1.0,g,1.0,1.1357644500094466,,,,,,,,,,1.0,6.0,18.0,11.0,269.88554901200405,,,,,,,,,,,,,,,,,269.8747260960081,269.96941807999974,270.7722013520106,270.7618702080072,,,,,,,,,,,,,,,,,,,,,,,,,,,,,,,,,,,270.76253444900794,270.7722013520106,270.7722013520106,271.9164027930092,g,1.0,1.1357644500094466,,,,,sub-011,1,stroop_test,82.79760660336308,
,,,,19.0,7.0,1.0,,,,,,,,,,,,,rot,red,r,1.0,r,1.0,0.7443855829915265,,,,,,,,,,1.0,7.0,19.0,1.0,271.9425183780113,,,,,,,,,,,,,,,,,271.91685618201154,272.0096885660023,272.81006166500447,272.79515193200496,,,,,,,,,,,,,,,,,,,,,,,,,,,,,,,,,,,272.7996259729989,272.81006166500447,272.81006166500447,273.5624411010067,r,1.0,0.7443855829915265,,,,,sub-011,1,stroop_test,82.79760660336308,
,,,,20.0,8.0,1.0,,,,,,,,,,,,,rot,blue,b,0.0,b,1.0,0.664776350997272,,,,,,,,,,1.0,8.0,20.0,2.0,273.572958484001,,,,,,,,,,,,,,,,,273.56291924600373,274.7691068970016,275.5652379520034,275.55468792800093,,,,,,,,,,,,,,,,,,,,,,,,,,,,,,,,,,,275.55536198199843,275.5652379520034,275.5652379520034,276.2446749750088,b,1.0,0.664776350997272,,,,,sub-011,1,stroop_test,82.79760660336308,
,,,,21.0,9.0,1.0,,,,,,,,,,,,,rot,red,r,1.0,r,1.0,0.8652653750032187,,,,,,,,,,1.0,9.0,21.0,0.0,276.25536401000863,,,,,,,,,,,,,,,,,276.2451950250106,276.59410493100586,277.39609721100715,277.38600390900683,,,,,,,,,,,,,,,,,,,,,,,,,,,,,,,,,,,277.38657116801187,277.39609721100715,277.39609721100715,278.26477055600844,r,1.0,0.8652653750032187,,,,,sub-011,1,stroop_test,82.79760660336308,
,,,,22.0,10.0,1.0,,,,,,,,,,,,,blau,yellow,g,0.0,g,1.0,0.5676814710022882,,,,,,,,,,1.0,10.0,22.0,7.0,278.2758619640081,,,,,,,,,,,,,,,,,278.2653799070104,278.3757989670121,279.1747460629995,279.1599375049991,,,,,,,,,,,,,,,,,,,,,,,,,,,,,,,,,,,279.16374668800563,279.1747460629995,279.1747460629995,279.7465038010123,g,1.0,0.5676814710022882,,,,,sub-011,1,stroop_test,82.79760660336308,
,,,,23.0,11.0,1.0,,,,,,,,,,,,,blau,blue,b,1.0,b,1.0,0.7549627389962552,,,,,,,,,,1.0,11.0,23.0,6.0,279.7577583640086,,,,,,,,,,,,,,,,,279.7469859679986,280.54177330300445,281.3440419260005,281.32973858701007,,,,,,,,,,,,,,,,,,,,,,,,,,,,,,,,,,,281.33040110601,281.3440419260005,281.3440419260005,282.10567140200874,b,1.0,0.7549627389962552,,,,,sub-011,1,stroop_test,82.79760660336308,
,,,,24.0,0.0,2.0,,,,,,,,,,,,,blau,red,r,0.0,r,1.0,0.9848843399959152,,,,,,,,,,2.0,0.0,24.0,4.0,282.1154134009994,,,,,,,,,,,,,,,,,282.1062589150097,283.3005983940093,284.105662151007,284.09505884900864,,,,,,,,,,,,,,,,,,,,,,,,,,,,,,,,,,,284.09571760600375,284.105662151007,284.105662151007,285.09776555500866,r,1.0,0.9848843399959152,,,,,sub-011,1,stroop_test,82.79760660336308,
,,,,25.0,1.0,2.0,,,,,,,,,,,,,gelb,yellow,g,1.0,g,1.0,0.4850228089926531,,,,,,,,,,2.0,1.0,25.0,10.0,285.10769551400153,,,,,,,,,,,,,,,,,285.0982503000123,286.2924143310084,287.10913711000467,287.0796257390029,,,,,,,,,,,,,,,,,,,,,,,,,,,,,,,,,,,287.0835776790045,287.10913711000467,287.10913711000467,287.61175470500893,g,1.0,0.4850228089926531,,,,,sub-011,1,stroop_test,82.79760660336308,
,,,,26.0,2.0,2.0,,,,,,,,,,,,,blau,blue,b,1.0,b,1.0,0.7706907980027609,,,,,,,,,,2.0,2.0,26.0,5.0,287.6235874880076,,,,,,,,,,,,,,,,,287.61230684000475,287.7267309130111,288.524506243004,288.51069993501005,,,,,,,,,,,,,,,,,,,,,,,,,,,,,,,,,,,288.5141132110002,288.524506243004,288.524506243004,289.305729462998,b,1.0,0.7706907980027609,,,,,sub-011,1,stroop_test,82.79760660336308,
,,,,27.0,3.0,2.0,,,,,,,,,,,,,rot,red,r,1.0,r,1.0,0.7164836579904659,,,,,,,,,,2.0,3.0,27.0,1.0,289.3165727480082,,,,,,,,,,,,,,,,,289.3062661540025,289.65989210001135,290.47601884100004,290.4609656190005,,,,,,,,,,,,,,,,,,,,,,,,,,,,,,,,,,,290.46537394600455,290.47601884100004,290.47601884100004,291.196221102,r,1.0,0.7164836579904659,,,,,sub-011,1,stroop_test,82.79760660336308,
,,,,28.0,4.0,2.0,,,,,,,,,,,,,blau,yellow,g,0.0,g,1.0,1.0483042410050984,,,,,,,,,,2.0,4.0,28.0,7.0,291.2089774500055,,,,,,,,,,,,,,,,,291.19676065399835,291.560649128005,292.3593499090057,292.34616229101084,,,,,,,,,,,,,,,,,,,,,,,,,,,,,,,,,,,292.34993127601047,292.3593499090057,292.3593499090057,293.4167868670047,g,1.0,1.0483042410050984,,,,,sub-011,1,stroop_test,82.79760660336308,
,,,,29.0,5.0,2.0,,,,,,,,,,,,,gelb,blue,b,0.0,b,1.0,0.544523629010655,,,,,,,,,,2.0,5.0,29.0,9.0,293.428039956998,,,,,,,,,,,,,,,,,293.41725215900806,293.7588447890012,294.5585779110115,294.5448926149984,,,,,,,,,,,,,,,,,,,,,,,,,,,,,,,,,,,294.54873176100955,294.5585779110115,294.5585779110115,295.12788278200605,b,1.0,0.544523629010655,,,,,sub-011,1,stroop_test,82.79760660336308,
,,,,30.0,6.0,2.0,,,,,,,,,,,,,gelb,red,r,0.0,r,1.0,0.8969939730013721,,,,,,,,,,2.0,6.0,30.0,8.0,295.1425415999984,,,,,,,,,,,,,,,,,295.12834181200014,296.33059407700785,297.12964582700806,297.11986697300745,,,,,,,,,,,,,,,,,,,,,,,,,,,,,,,,,,,297.1204926450009,297.12964582700806,297.12964582700806,298.02969629201107,r,1.0,0.8969939730013721,,,,,sub-011,1,stroop_test,82.79760660336308,
,,,,31.0,7.0,2.0,,,,,,,,,,,,,rot,yellow,g,0.0,g,1.0,1.3164546250045532,,,,,,,,,,2.0,7.0,31.0,3.0,298.04003203401226,,,,,,,,,,,,,,,,,298.030299266,298.14274948601087,298.9429704760114,298.9265968789987,,,,,,,,,,,,,,,,,,,,,,,,,,,,,,,,,,,298.9301419520052,298.9429704760114,298.9429704760114,300.27156246401137,g,1.0,1.3164546250045532,,,,,sub-011,1,stroop_test,82.79760660336308,
,,,,32.0,8.0,2.0,,,,,,,,,,,,,blau,blue,b,1.0,b,1.0,1.489494650013512,,,,,,,,,,2.0,8.0,32.0,6.0,300.28235308900184,,,,,,,,,,,,,,,,,300.27212892200623,300.6264896680077,301.4254530820035,301.41204677800124,,,,,,,,,,,,,,,,,,,,,,,,,,,,,,,,,,,301.4158498960023,301.4254530820035,301.4254530820035,302.92645294900285,b,1.0,1.489494650013512,,,,,sub-011,1,stroop_test,82.79760660336308,
,,,,33.0,9.0,2.0,,,,,,,,,,,,,rot,blue,b,0.0,b,1.0,1.965241330006393,,,,,,,,,,2.0,9.0,33.0,2.0,302.9366113030119,,,,,,,,,,,,,,,,,302.92714587300725,304.1211340070004,304.94293455900333,304.927092324011,,,,,,,,,,,,,,,,,,,,,,,,,,,,,,,,,,,304.9327053349989,304.94293455900333,304.94293455900333,306.91519799000525,b,1.0,1.965241330006393,,,,,sub-011,1,stroop_test,82.79760660336308,
,,,,34.0,10.0,2.0,,,,,,,,,,,,,gelb,yellow,g,1.0,g,1.0,0.9849812000029488,,,,,,,,,,2.0,10.0,34.0,11.0,306.9255075950059,,,,,,,,,,,,,,,,,306.91566461299954,307.7118469109992,308.51745550600754,308.5025853190018,,,,,,,,,,,,,,,,,,,,,,,,,,,,,,,,,,,308.50738327200816,308.51745550600754,308.51745550600754,309.51254165200226,g,1.0,0.9849812000029488,,,,,sub-011,1,stroop_test,82.79760660336308,
,,,,35.0,11.0,2.0,,,,,,,,,,,,,rot,red,r,1.0,r,1.0,0.5186306700052228,,,,,,,,,,2.0,11.0,35.0,0.0,309.52309368300484,,,,,,,,,,,,,,,,,309.5130017390038,310.7076559510024,311.50861292000627,311.49364163700375,,,,,,,,,,,,,,,,,,,,,,,,,,,,,,,,,,,311.4983372560091,311.50861292000627,311.50861292000627,312.0379305730021,r,1.0,0.5186306700052228,,,,,sub-011,1,stroop_test,82.79760660336308,
,,,,36.0,0.0,3.0,,,,,,,,,,,,,rot,yellow,g,0.0,g,1.0,0.477552405995084,,,,,,,,,,3.0,0.0,36.0,3.0,312.0484508369991,,,,,,,,,,,,,,,,,312.03849330500816,312.83284332900075,313.63093341900094,313.6200372650055,,,,,,,,,,,,,,,,,,,,,,,,,,,,,,,,,,,313.62098757800413,313.63093341900094,313.63093341900094,314.1128185730049,g,1.0,0.477552405995084,,,,,sub-011,1,stroop_test,82.79760660336308,
,,,,37.0,1.0,3.0,,,,,,,,,,,,,gelb,yellow,g,1.0,g,1.0,0.6771952440030873,,,,,,,,,,3.0,1.0,37.0,11.0,314.1245848079998,,,,,,,,,,,,,,,,,314.11332212800335,315.3079311830079,316.10939882000093,316.0951223510056,,,,,,,,,,,,,,,,,,,,,,,,,,,,,,,,,,,316.09898173100373,316.10939882000093,316.10939882000093,316.795059615004,g,1.0,0.6771952440030873,,,,,sub-011,1,stroop_test,82.79760660336308,
,,,,38.0,2.0,3.0,,,,,,,,,,,,,blau,red,r,0.0,r,1.0,2.1994892399961827,,,,,,,,,,3.0,2.0,38.0,4.0,316.80459480101126,,,,,,,,,,,,,,,,,316.7955382020009,316.8928150139982,317.70918260001054,317.67951885100047,,,,,,,,,,,,,,,,,,,,,,,,,,,,,,,,,,,317.6832595640008,317.70918260001054,317.70918260001054,319.913195688001,r,1.0,2.1994892399961827,,,,,sub-011,1,stroop_test,82.79760660336308,
,,,,39.0,3.0,3.0,,,,,,,,,,,,,rot,red,r,1.0,r,1.0,0.7619259570055874,,,,,,,,,,3.0,3.0,39.0,0.0,319.9237748700107,,,,,,,,,,,,,,,,,319.9136802540015,321.1115136800072,321.91240022900456,321.897524584012,,,,,,,,,,,,,,,,,,,,,,,,,,,,,,,,,,,321.9019988200016,321.91240022900456,321.91240022900456,322.6810057380062,r,1.0,0.7619259570055874,,,,,sub-011,1,stroop_test,82.79760660336308,
,,,,40.0,4.0,3.0,,,,,,,,,,,,,blau,yellow,g,0.0,g,1.0,1.3635220790019955,,,,,,,,,,3.0,4.0,40.0,7.0,322.6917771300068,,,,,,,,,,,,,,,,,322.6814581500076,323.88028663001023,324.6816821770044,324.6671123440028,,,,,,,,,,,,,,,,,,,,,,,,,,,,,,,,,,,324.67158434200974,324.6816821770044,324.6816821770044,326.0483344910026,g,1.0,1.3635220790019955,,,,,sub-011,1,stroop_test,82.79760660336308,
,,,,41.0,5.0,3.0,,,,,,,,,,,,,rot,blue,b,0.0,b,1.0,0.8030416059918934,,,,,,,,,,3.0,5.0,41.0,2.0,326.0752308640076,,,,,,,,,,,,,,,,,326.0488504470122,326.4034767730045,327.20859954300977,327.1944186440087,,,,,,,,,,,,,,,,,,,,,,,,,,,,,,,,,,,327.1989222359989,327.20859954300977,327.20859954300977,328.022092322004,b,1.0,0.8030416059918934,,,,,sub-011,1,stroop_test,82.79760660336308,
,,,,42.0,6.0,3.0,,,,,,,,,,,,,blau,blue,b,1.0,b,1.0,0.8164166299975477,,,,,,,,,,3.0,6.0,42.0,5.0,328.03268461900007,,,,,,,,,,,,,,,,,328.0227164210082,328.37604295799974,329.1913043680106,329.17619918200944,,,,,,,,,,,,,,,,,,,,,,,,,,,,,,,,,,,329.1809824780066,329.1913043680106,329.1913043680106,330.0113190950069,b,1.0,0.8164166299975477,,,,,sub-011,1,stroop_test,82.79760660336308,
,,,,43.0,7.0,3.0,,,,,,,,,,,,,rot,red,r,1.0,r,1.0,1.005297352996422,,,,,,,,,,3.0,7.0,43.0,1.0,330.022081025003,,,,,,,,,,,,,,,,,330.0118662980094,331.2070438780065,332.0290532460058,332.00710808600707,,,,,,,,,,,,,,,,,,,,,,,,,,,,,,,,,,,332.0150255620101,332.0290532460058,332.0290532460058,333.0444738340011,r,1.0,1.005297352996422,,,,,sub-011,1,stroop_test,82.79760660336308,
,,,,44.0,8.0,3.0,,,,,,,,,,,,,gelb,red,r,0.0,r,1.0,1.33662120300869,,,,,,,,,,3.0,8.0,44.0,8.0,333.05479369200475,,,,,,,,,,,,,,,,,333.0448451830016,334.2444135620026,335.0484159519983,335.03452004400606,,,,,,,,,,,,,,,,,,,,,,,,,,,,,,,,,,,335.0391070629994,335.0484159519983,335.0484159519983,336.3945840140077,r,1.0,1.33662120300869,,,,,sub-011,1,stroop_test,82.79760660336308,
,,,,45.0,9.0,3.0,,,,,,,,,,,,,gelb,blue,b,0.0,b,1.0,0.6696865479898406,,,,,,,,,,3.0,9.0,45.0,9.0,336.40349584200885,,,,,,,,,,,,,,,,,336.3950546700071,336.75823307000974,337.55450290700537,337.544148150002,,,,,,,,,,,,,,,,,,,,,,,,,,,,,,,,,,,337.54480175201024,337.55450290700537,337.55450290700537,338.22861535300035,b,1.0,0.6696865479898406,,,,,sub-011,1,stroop_test,82.79760660336308,
,,,,46.0,10.0,3.0,,,,,,,,,,,,,blau,blue,b,1.0,b,1.0,0.7235584129957715,,,,,,,,,,3.0,10.0,46.0,6.0,338.2403947999992,,,,,,,,,,,,,,,,,338.2290782850032,338.32857413199963,339.14287595500355,339.12819595000474,,,,,,,,,,,,,,,,,,,,,,,,,,,,,,,,,,,339.1330461510079,339.14287595500355,339.14287595500355,339.87841683199804,b,1.0,0.7235584129957715,,,,,sub-011,1,stroop_test,82.79760660336308,
,,,,47.0,11.0,3.0,,,,,,,,,,,,,gelb,yellow,g,1.0,g,1.0,0.683984531002352,,,,,,,,,,3.0,11.0,47.0,10.0,339.8900366510061,,,,,,,,,,,,,,,,,339.8788114290073,340.0279294409993,340.8308025380102,340.8131766990118,,,,,,,,,,,,,,,,,,,,,,,,,,,,,,,,,,,340.81958467500226,340.8308025380102,340.8308025380102,341.5289689960045,g,1.0,0.683984531002352,,,,,sub-011,1,stroop_test,82.79760660336308,
,,,,48.0,0.0,4.0,,,,,,,,,,,,,rot,red,r,1.0,r,1.0,0.6577474090008764,,,,,,,,,,4.0,0.0,48.0,1.0,341.5391597690032,,,,,,,,,,,,,,,,,341.5294249060098,341.92366144301195,342.7260942790017,342.71113394400163,,,,,,,,,,,,,,,,,,,,,,,,,,,,,,,,,,,342.71532315399963,342.7260942790017,342.7260942790017,343.3943726180005,r,1.0,0.6577474090008764,,,,,sub-011,1,stroop_test,82.79760660336308,
,,,,49.0,1.0,4.0,,,,,,,,,,,,,gelb,yellow,g,1.0,g,1.0,0.6525498439877992,,,,,,,,,,4.0,1.0,49.0,10.0,343.4047488159995,,,,,,,,,,,,,,,,,343.394849852004,344.20371444099874,345.0100100670097,344.9942334140069,,,,,,,,,,,,,,,,,,,,,,,,,,,,,,,,,,,344.9994789350021,345.0100100670097,345.0100100670097,345.67701129701163,g,1.0,0.6525498439877992,,,,,sub-011,1,stroop_test,82.79760660336308,
,,,,50.0,2.0,4.0,,,,,,,,,,,,,rot,blue,b,0.0,b,1.0,0.5146121689904248,,,,,,,,,,4.0,2.0,50.0,2.0,345.6920722290088,,,,,,,,,,,,,,,,,345.67746085399995,346.0274462689995,346.8303520150075,346.8148556610104,,,,,,,,,,,,,,,,,,,,,,,,,,,,,,,,,,,346.8200195390091,346.8303520150075,346.8303520150075,347.35461442200176,b,1.0,0.5146121689904248,,,,,sub-011,1,stroop_test,82.79760660336308,
,,,,51.0,3.0,4.0,,,,,,,,,,,,,rot,yellow,g,0.0,g,1.0,1.065982960004476,,,,,,,,,,4.0,3.0,51.0,3.0,347.36492634000024,,,,,,,,,,,,,,,,,347.35529441600374,348.159168031998,348.9585666800121,348.9447382930084,,,,,,,,,,,,,,,,,,,,,,,,,,,,,,,,,,,348.9454600760073,348.9585666800121,348.9585666800121,350.02880144400115,g,1.0,1.065982960004476,,,,,sub-011,1,stroop_test,82.79760660336308,
,,,,52.0,4.0,4.0,,,,,,,,,,,,,blau,blue,b,1.0,b,1.0,0.7017838280007709,,,,,,,,,,4.0,4.0,52.0,6.0,350.0398014710081,,,,,,,,,,,,,,,,,350.02928129299835,350.141666704003,350.9411323460081,350.9269458500057,,,,,,,,,,,,,,,,,,,,,,,,,,,,,,,,,,,350.9307168130035,350.9411323460081,350.9411323460081,351.64573430400924,b,1.0,0.7017838280007709,,,,,sub-011,1,stroop_test,82.79760660336308,
,,,,53.0,5.0,4.0,,,,,,,,,,,,,gelb,red,r,0.0,r,1.0,1.0105376090068603,,,,,,,,,,4.0,5.0,53.0,8.0,351.65712959101074,,,,,,,,,,,,,,,,,351.64628338800685,352.4446810320078,353.24602328900073,353.2339175130037,,,,,,,,,,,,,,,,,,,,,,,,,,,,,,,,,,,353.2372157790087,353.24602328900073,353.24602328900073,354.2658883420081,r,1.0,1.0105376090068603,,,,,sub-011,1,stroop_test,82.79760660336308,
,,,,54.0,6.0,4.0,,,,,,,,,,,,,gelb,blue,b,0.0,b,1.0,0.7886449979996542,,,,,,,,,,4.0,6.0,54.0,9.0,354.2768381479982,,,,,,,,,,,,,,,,,354.2664047670114,355.0685667920043,355.86856113201065,355.8591535890009,,,,,,,,,,,,,,,,,,,,,,,,,,,,,,,,,,,355.8601727500063,355.86856113201065,355.86856113201065,356.66452855200623,b,1.0,0.7886449979996542,,,,,sub-011,1,stroop_test,82.79760660336308,
,,,,55.0,7.0,4.0,,,,,,,,,,,,,blau,yellow,g,0.0,g,1.0,0.7733981700002914,,,,,,,,,,4.0,7.0,55.0,7.0,356.6752451460052,,,,,,,,,,,,,,,,,356.6649823690095,357.4618002019997,358.2631268940022,358.24936763499863,,,,,,,,,,,,,,,,,,,,,,,,,,,,,,,,,,,358.253025856,358.2631268940022,358.2631268940022,359.0470103490079,g,1.0,0.7733981700002914,,,,,sub-011,1,stroop_test,82.79760660336308,
,,,,56.0,8.0,4.0,,,,,,,,,,,,,gelb,yellow,g,1.0,b,0.0,0.5026218779967166,,,,,,,,,,4.0,8.0,56.0,11.0,359.05779960101063,,,,,,,,,,,,,,,,,359.04749991001154,359.1450657259993,359.9496908610017,359.93532940599835,,,,,,,,,,,,,,,,,,,,,,,,,,,,,,,,,,,359.9400660710089,359.9496908610017,359.9496908610017,360.4639385199989,b,0.0,0.5026218779967166,,,,,sub-011,1,stroop_test,82.79760660336308,
,,,,57.0,9.0,4.0,,,,,,,,,,,,,rot,red,r,1.0,r,1.0,1.067377839004621,,,,,,,,,,4.0,9.0,57.0,0.0,360.4747272930108,,,,,,,,,,,,,,,,,360.4644000270055,361.2614892880083,362.0691052780021,362.0526235170109,,,,,,,,,,,,,,,,,,,,,,,,,,,,,,,,,,,362.0583429700055,362.0691052780021,362.0691052780021,363.14512586200726,r,1.0,1.067377839004621,,,,,sub-011,1,stroop_test,82.79760660336308,
,,,,58.0,10.0,4.0,,,,,,,,,,,,,blau,red,r,0.0,r,1.0,1.2048030820005806,,,,,,,,,,4.0,10.0,58.0,4.0,363.1561340800108,,,,,,,,,,,,,,,,,363.1455865570024,363.2413855160121,364.0431368550053,364.0278071000066,,,,,,,,,,,,,,,,,,,,,,,,,,,,,,,,,,,364.0326745880011,364.0431368550053,364.0431368550053,365.2538028630079,r,1.0,1.2048030820005806,,,,,sub-011,1,stroop_test,82.79760660336308,
,,,,59.0,11.0,4.0,,,,,,,,,,,,,blau,blue,b,1.0,b,1.0,0.5157312230003299,,,,,,,,,,4.0,11.0,59.0,5.0,365.2642700030119,,,,,,,,,,,,,,,,,365.2541982370021,366.45319052701234,367.25341642800777,367.2435102090094,,,,,,,,,,,,,,,,,,,,,,,,,,,,,,,,,,,367.2441805770068,367.25341642800777,367.25341642800777,367.7817287299986,b,1.0,0.5157312230003299,,,,,sub-011,1,stroop_test,82.79760660336308,
,,,,60.0,0.0,5.0,,,,,,,,,,,,,rot,yellow,g,0.0,g,1.0,1.1599543589982204,,,,,,,,,,5.0,0.0,60.0,3.0,367.7937872400071,,,,,,,,,,,,,,,,,367.7825337960094,368.586720834006,369.3907591800089,369.3775124420063,,,,,,,,,,,,,,,,,,,,,,,,,,,,,,,,,,,369.38121636401047,369.3907591800089,369.3907591800089,370.5543007140077,g,1.0,1.1599543589982204,,,,,sub-011,1,stroop_test,82.79760660336308,
,,,,61.0,1.0,5.0,,,,,,,,,,,,,blau,yellow,g,0.0,g,1.0,0.6472715730051277,,,,,,,,,,5.0,1.0,61.0,7.0,370.564988801998,,,,,,,,,,,,,,,,,370.55494844300847,370.9109283340076,371.7132588170061,371.7001981320064,,,,,,,,,,,,,,,,,,,,,,,,,,,,,,,,,,,371.70397943600256,371.7132588170061,371.7132588170061,372.37019682800747,g,1.0,0.6472715730051277,,,,,sub-011,1,stroop_test,82.79760660336308,
,,,,62.0,2.0,5.0,,,,,,,,,,,,,gelb,red,r,0.0,r,1.0,0.9053269469877704,,,,,,,,,,5.0,2.0,62.0,8.0,372.37970705900807,,,,,,,,,,,,,,,,,372.3705713740055,373.1758309209981,373.9843964660104,373.9694854289992,,,,,,,,,,,,,,,,,,,,,,,,,,,,,,,,,,,373.9741251560045,373.9843964660104,373.9843964660104,374.89916772401193,r,1.0,0.9053269469877704,,,,,sub-011,1,stroop_test,82.79760660336308,
,,,,63.0,3.0,5.0,,,,,,,,,,,,,gelb,yellow,g,1.0,g,1.0,0.8495416259975173,,,,,,,,,,5.0,3.0,63.0,11.0,374.9109674900101,,,,,,,,,,,,,,,,,374.8996315960103,375.6912145990064,376.4913806080003,376.4796699639992,,,,,,,,,,,,,,,,,,,,,,,,,,,,,,,,,,,376.4806380890077,376.4913806080003,376.4913806080003,377.3447875640122,g,1.0,0.8495416259975173,,,,,sub-011,1,stroop_test,82.79760660336308,
,,,,64.0,4.0,5.0,,,,,,,,,,,,,rot,red,r,1.0,r,1.0,0.6872883199976059,,,,,,,,,,5.0,4.0,64.0,1.0,377.3551447780046,,,,,,,,,,,,,,,,,377.34527713499847,377.694503767998,378.5060710370017,378.492948485,,,,,,,,,,,,,,,,,,,,,,,,,,,,,,,,,,,378.4966435570095,378.5060710370017,378.5060710370017,379.1981815170002,r,1.0,0.6872883199976059,,,,,sub-011,1,stroop_test,82.79760660336308,
,,,,65.0,5.0,5.0,,,,,,,,,,,,,rot,blue,b,0.0,b,1.0,0.5023104029969545,,,,,,,,,,5.0,5.0,65.0,2.0,379.2246325550077,,,,,,,,,,,,,,,,,379.1986682290008,380.008396639998,380.80886144400574,380.7943548570038,,,,,,,,,,,,,,,,,,,,,,,,,,,,,,,,,,,380.7950517900026,380.80886144400574,380.80886144400574,381.3154020830116,b,1.0,0.5023104029969545,,,,,sub-011,1,stroop_test,82.79760660336308,
,,,,66.0,6.0,5.0,,,,,,,,,,,,,blau,blue,b,1.0,b,1.0,0.7269733659923077,,,,,,,,,,5.0,6.0,66.0,6.0,381.3282990830048,,,,,,,,,,,,,,,,,381.3162159570056,381.4246853500081,382.22378206200665,382.20893024399993,,,,,,,,,,,,,,,,,,,,,,,,,,,,,,,,,,,382.2140008280112,382.22378206200665,382.22378206200665,382.9607987269992,b,1.0,0.7269733659923077,,,,,sub-011,1,stroop_test,82.79760660336308,
,,,,67.0,7.0,5.0,,,,,,,,,,,,,gelb,blue,b,0.0,b,1.0,0.756236251007067,,,,,,,,,,5.0,7.0,67.0,9.0,382.9705331680016,,,,,,,,,,,,,,,,,382.9612877870095,384.157037655008,384.9578619960084,384.94455187900166,,,,,,,,,,,,,,,,,,,,,,,,,,,,,,,,,,,384.9480964719987,384.9578619960084,384.9578619960084,385.7276464489987,b,1.0,0.756236251007067,,,,,sub-011,1,stroop_test,82.79760660336308,
,,,,68.0,8.0,5.0,,,,,,,,,,,,,rot,red,r,1.0,r,1.0,0.6610259110020706,,,,,,,,,,5.0,8.0,68.0,0.0,385.7378356440022,,,,,,,,,,,,,,,,,385.7280961590004,386.5356241469999,387.3407731449988,387.32721659399976,,,,,,,,,,,,,,,,,,,,,,,,,,,,,,,,,,,387.33087639900623,387.3407731449988,387.3407731449988,388.028644792008,r,1.0,0.6610259110020706,,,,,sub-011,1,stroop_test,82.79760660336308,
,,,,69.0,9.0,5.0,,,,,,,,,,,,,gelb,yellow,g,1.0,g,1.0,0.4338428999908501,,,,,,,,,,5.0,9.0,69.0,10.0,388.0409113240021,,,,,,,,,,,,,,,,,388.02943703001074,388.8360762840021,389.6414628960047,389.6273982400016,,,,,,,,,,,,,,,,,,,,,,,,,,,,,,,,,,,389.6310882750113,389.6414628960047,389.6414628960047,390.0791256930097,g,1.0,0.4338428999908501,,,,,sub-011,1,stroop_test,82.79760660336308,
,,,,70.0,10.0,5.0,,,,,,,,,,,,,blau,red,r,0.0,r,1.0,1.488512110998272,,,,,,,,,,5.0,10.0,70.0,4.0,390.0904656690109,,,,,,,,,,,,,,,,,390.0796211620036,391.2778403400007,392.0845146350039,392.06903624199913,,,,,,,,,,,,,,,,,,,,,,,,,,,,,,,,,,,392.0737512519991,392.0845146350039,392.0845146350039,393.5774244659988,r,1.0,1.488512110998272,,,,,sub-011,1,stroop_test,82.79760660336308,
,,,,71.0,11.0,5.0,,,,,,,,,,,,,blau,blue,b,1.0,b,1.0,0.742374079010915,,,,,,,,,,5.0,11.0,71.0,5.0,393.5915773770103,,,,,,,,,,,,,,,,,393.57798610300233,394.79088557499927,395.58634346100735,395.57601349501056,,,,,,,,,,,,,,,,,,,,,,,,,,,,,,,,,,,395.5766116130108,395.58634346100735,395.58634346100735,396.3435416550056,b,1.0,0.742374079010915,,,,,sub-011,1,stroop_test,82.79760660336308,
,,,,72.0,0.0,6.0,,,,,,,,,,,,,blau,red,r,0.0,r,1.0,0.8792746300023282,,,,,,,,,,6.0,0.0,72.0,4.0,396.3537731960096,,,,,,,,,,,,,,,,,396.3440160950122,396.4563873840089,397.2535352240084,397.2426021810097,,,,,,,,,,,,,,,,,,,,,,,,,,,,,,,,,,,397.24326386601024,397.2535352240084,397.2535352240084,398.1379585500108,r,1.0,0.8792746300023282,,,,,sub-011,1,stroop_test,82.79760660336308,
,,,,73.0,1.0,6.0,,,,,,,,,,,,,rot,yellow,g,0.0,g,1.0,1.109075127998949,,,,,,,,,,6.0,1.0,73.0,3.0,398.1486376140092,,,,,,,,,,,,,,,,,398.1385702719999,398.4855878750095,399.28995399600535,399.27674657800526,,,,,,,,,,,,,,,,,,,,,,,,,,,,,,,,,,,399.2804222590057,399.28995399600535,399.28995399600535,400.4109059570037,g,1.0,1.109075127998949,,,,,sub-011,1,stroop_test,82.79760660336308,
,,,,74.0,2.0,6.0,,,,,,,,,,,,,blau,yellow,g,0.0,g,1.0,0.7015256879967637,,,,,,,,,,6.0,2.0,74.0,7.0,400.4218286170071,,,,,,,,,,,,,,,,,400.4113908569998,401.21715142299945,402.0412543440034,402.0254309400043,,,,,,,,,,,,,,,,,,,,,,,,,,,,,,,,,,,402.0312401830015,402.0412543440034,402.0412543440034,402.75437927000166,g,1.0,0.7015256879967637,,,,,sub-011,1,stroop_test,82.79760660336308,
,,,,75.0,3.0,6.0,,,,,,,,,,,,,gelb,blue,b,0.0,b,1.0,1.052562853001291,,,,,,,,,,6.0,3.0,75.0,9.0,402.7652371709992,,,,,,,,,,,,,,,,,402.7549948150117,403.9594978780078,404.7740892770089,404.75973001100647,,,,,,,,,,,,,,,,,,,,,,,,,,,,,,,,,,,404.7635636660125,404.7740892770089,404.7740892770089,405.8368737990095,b,1.0,1.052562853001291,,,,,sub-011,1,stroop_test,82.79760660336308,
,,,,76.0,4.0,6.0,,,,,,,,,,,,,rot,red,r,1.0,r,1.0,0.455892975005554,,,,,,,,,,6.0,4.0,76.0,1.0,405.8475535699981,,,,,,,,,,,,,,,,,405.8374800230085,406.64195702801226,407.440715884004,407.4272257870034,,,,,,,,,,,,,,,,,,,,,,,,,,,,,,,,,,,407.430967666005,407.440715884004,407.440715884004,407.9103876760055,r,1.0,0.455892975005554,,,,,sub-011,1,stroop_test,82.79760660336308,
,,,,77.0,5.0,6.0,,,,,,,,,,,,,rot,blue,b,0.0,r,0.0,0.8454072080057813,,,,,,,,,,6.0,5.0,77.0,2.0,407.9209953149984,,,,,,,,,,,,,,,,,407.9112241240073,409.1089449550054,409.9026197589992,409.892780056005,,,,,,,,,,,,,,,,,,,,,,,,,,,,,,,,,,,409.8934529280086,409.9026197589992,409.9026197589992,410.7536392520124,r,0.0,0.8454072080057813,,,,,sub-011,1,stroop_test,82.79760660336308,
,,,,78.0,6.0,6.0,,,,,,,,,,,,,gelb,red,r,0.0,r,1.0,1.6597836180008017,,,,,,,,,,6.0,6.0,78.0,8.0,410.7634747210104,,,,,,,,,,,,,,,,,410.7541893630114,411.9490566760069,412.75762256501184,412.7431587480096,,,,,,,,,,,,,,,,,,,,,,,,,,,,,,,,,,,412.7472921240114,412.75762256501184,412.75762256501184,414.4284880920022,r,1.0,1.6597836180008017,,,,,sub-011,1,stroop_test,82.79760660336308,
,,,,79.0,7.0,6.0,,,,,,,,,,,,,rot,red,r,1.0,r,1.0,0.7388989449973451,,,,,,,,,,6.0,7.0,79.0,0.0,414.43893310200656,,,,,,,,,,,,,,,,,414.4289360590046,415.24239976200624,416.0444566820079,416.0285651020095,,,,,,,,,,,,,,,,,,,,,,,,,,,,,,,,,,,416.0331357510004,416.0444566820079,416.0444566820079,416.79400848501245,r,1.0,0.7388989449973451,,,,,sub-011,1,stroop_test,82.79760660336308,
,,,,80.0,8.0,6.0,,,,,,,,,,,,,gelb,yellow,g,1.0,g,1.0,1.1683779949962627,,,,,,,,,,6.0,8.0,80.0,11.0,416.8053126490122,,,,,,,,,,,,,,,,,416.7944743650005,416.8930943710002,417.6936352390039,417.6782363240054,,,,,,,,,,,,,,,,,,,,,,,,,,,,,,,,,,,417.6825208350056,417.6936352390039,417.6936352390039,418.8766566960112,g,1.0,1.1683779949962627,,,,,sub-011,1,stroop_test,82.79760660336308,
,,,,81.0,9.0,6.0,,,,,,,,,,,,,blau,blue,b,1.0,b,1.0,0.6911770949955098,,,,,,,,,,6.0,9.0,81.0,5.0,418.88669178100827,,,,,,,,,,,,,,,,,418.8771424490114,418.9917392670032,419.7908090520068,419.7778510500066,,,,,,,,,,,,,,,,,,,,,,,,,,,,,,,,,,,419.7815536749986,419.7908090520068,419.7908090520068,420.4873433489993,b,1.0,0.6911770949955098,,,,,sub-011,1,stroop_test,82.79760660336308,
,,,,82.0,10.0,6.0,,,,,,,,,,,,,gelb,yellow,g,1.0,g,1.0,1.2993729619920489,,,,,,,,,,6.0,10.0,82.0,10.0,420.4975103260076,,,,,,,,,,,,,,,,,420.4880744039983,421.30810391101113,422.10717844200553,422.091867657,,,,,,,,,,,,,,,,,,,,,,,,,,,,,,,,,,,422.097074617006,422.10717844200553,422.10717844200553,423.4157931740047,g,1.0,1.2993729619920489,,,,,sub-011,1,stroop_test,82.79760660336308,
,,,,83.0,11.0,6.0,,,,,,,,,,,,,blau,blue,b,1.0,b,1.0,0.7018316220055567,,,,,,,,,,6.0,11.0,83.0,6.0,423.4278582910047,,,,,,,,,,,,,,,,,423.4162550690089,423.77436779800337,424.5777479350072,424.5637146920053,,,,,,,,,,,,,,,,,,,,,,,,,,,,,,,,,,,424.5674606399989,424.5777479350072,424.5777479350072,425.29420446100994,b,1.0,0.7018316220055567,,,,,sub-011,1,stroop_test,82.79760660336308,
,,,,84.0,0.0,7.0,,,,,,,,,,,,,rot,yellow,g,0.0,g,1.0,1.2900173520029057,,,,,,,,,,7.0,0.0,84.0,3.0,425.3044243920013,,,,,,,,,,,,,,,,,425.2947236170003,426.4915565789997,427.28827378001006,427.2757086269994,,,,,,,,,,,,,,,,,,,,,,,,,,,,,,,,,,,427.279368019008,427.28827378001006,427.28827378001006,428.5864224980032,g,1.0,1.2900173520029057,,,,,sub-011,1,stroop_test,82.79760660336308,
,,,,85.0,1.0,7.0,,,,,,,,,,,,,rot,red,r,1.0,r,1.0,0.7206443390023196,,,,,,,,,,7.0,1.0,85.0,1.0,428.5971964140044,,,,,,,,,,,,,,,,,428.58694157900754,428.68272497400176,429.4910752900032,429.4751847020089,,,,,,,,,,,,,,,,,,,,,,,,,,,,,,,,,,,429.47615309400135,429.4910752900032,429.4910752900032,430.22641400501016,r,1.0,0.7206443390023196,,,,,sub-011,1,stroop_test,82.79760660336308,
,,,,86.0,2.0,7.0,,,,,,,,,,,,,blau,yellow,g,0.0,b,0.0,1.1535212870076066,,,,,,,,,,7.0,2.0,86.0,7.0,430.236371114006,,,,,,,,,,,,,,,,,430.2268850390101,431.4276825370034,432.2337006099988,432.21837671300455,,,,,,,,,,,,,,,,,,,,,,,,,,,,,,,,,,,432.2237983140076,432.2337006099988,432.2337006099988,433.392949289002,b,0.0,1.1535212870076066,,,,,sub-011,1,stroop_test,82.79760660336308,
,,,,87.0,3.0,7.0,,,,,,,,,,,,,gelb,yellow,g,1.0,g,1.0,0.8659411999979056,,,,,,,,,,7.0,3.0,87.0,11.0,433.407908854002,,,,,,,,,,,,,,,,,433.3934239010123,433.50859755900456,434.31103486900975,434.2960709960025,,,,,,,,,,,,,,,,,,,,,,,,,,,,,,,,,,,434.3004630350042,434.31103486900975,434.31103486900975,435.1801816630032,g,1.0,0.8659411999979056,,,,,sub-011,1,stroop_test,82.79760660336308,
,,,,88.0,4.0,7.0,,,,,,,,,,,,,rot,red,r,1.0,r,1.0,1.0033387709991075,,,,,,,,,,7.0,4.0,88.0,0.0,435.1908154390112,,,,,,,,,,,,,,,,,435.1808588940039,436.3855587230064,437.189373975998,437.1761126310012,,,,,,,,,,,,,,,,,,,,,,,,,,,,,,,,,,,437.1798550270032,437.189373975998,437.189373975998,438.19637727701047,r,1.0,1.0033387709991075,,,,,sub-011,1,stroop_test,82.79760660336308,
,,,,89.0,5.0,7.0,,,,,,,,,,,,,blau,blue,b,1.0,b,1.0,0.7782482959883055,,,,,,,,,,7.0,5.0,89.0,5.0,438.207213888003,,,,,,,,,,,,,,,,,438.1969712790015,438.298451871,439.1067878080066,439.0921755080053,,,,,,,,,,,,,,,,,,,,,,,,,,,,,,,,,,,439.09653728900594,439.1067878080066,439.1067878080066,439.8950849350076,b,1.0,0.7782482959883055,,,,,sub-011,1,stroop_test,82.79760660336308,
,,,,90.0,6.0,7.0,,,,,,,,,,,,,gelb,blue,b,0.0,b,1.0,0.7404518530092901,,,,,,,,,,7.0,6.0,90.0,9.0,439.9064431050065,,,,,,,,,,,,,,,,,439.8955352650082,441.1026987369987,441.9073308430088,441.89177400400513,,,,,,,,,,,,,,,,,,,,,,,,,,,,,,,,,,,441.8974281660048,441.9073308430088,441.9073308430088,442.6599501880119,b,1.0,0.7404518530092901,,,,,sub-011,1,stroop_test,82.79760660336308,
,,,,91.0,7.0,7.0,,,,,,,,,,,,,gelb,yellow,g,1.0,g,1.0,0.9741821920033544,,,,,,,,,,7.0,7.0,91.0,10.0,442.67056543999934,,,,,,,,,,,,,,,,,442.6605241130019,443.8611415350024,444.66152529401006,444.6502735009999,,,,,,,,,,,,,,,,,,,,,,,,,,,,,,,,,,,444.6512751270057,444.66152529401006,444.66152529401006,445.6459885939985,g,1.0,0.9741821920033544,,,,,sub-011,1,stroop_test,82.79760660336308,
,,,,92.0,8.0,7.0,,,,,,,,,,,,,rot,blue,b,0.0,b,1.0,1.142317333011306,,,,,,,,,,7.0,8.0,92.0,2.0,445.6569303060096,,,,,,,,,,,,,,,,,445.6464374479983,446.4491881660069,447.2489396840101,447.23315669099975,,,,,,,,,,,,,,,,,,,,,,,,,,,,,,,,,,,447.23870377799904,447.2489396840101,447.2489396840101,448.3943690029992,b,1.0,1.142317333011306,,,,,sub-011,1,stroop_test,82.79760660336308,
,,,,93.0,9.0,7.0,,,,,,,,,,,,,blau,red,r,0.0,r,1.0,1.7008972100011306,,,,,,,,,,7.0,9.0,93.0,4.0,448.40643843,,,,,,,,,,,,,,,,,448.3949962430052,449.5901510680124,450.3953969980066,450.3788967370056,,,,,,,,,,,,,,,,,,,,,,,,,,,,,,,,,,,450.3835713370063,450.3953969980066,450.3953969980066,452.10200400500617,r,1.0,1.7008972100011306,,,,,sub-011,1,stroop_test,82.79760660336308,
,,,,94.0,10.0,7.0,,,,,,,,,,,,,blau,blue,b,1.0,b,1.0,0.8479313610005192,,,,,,,,,,7.0,10.0,94.0,6.0,452.1122219860117,,,,,,,,,,,,,,,,,452.10242042900063,452.4513014460099,453.2506046490016,453.24100969100255,,,,,,,,,,,,,,,,,,,,,,,,,,,,,,,,,,,453.2418697950052,453.2506046490016,453.2506046490016,454.10896566500014,b,1.0,0.8479313610005192,,,,,sub-011,1,stroop_test,82.79760660336308,
,,,,95.0,11.0,7.0,,,,,,,,,,,,,gelb,red,r,0.0,r,1.0,1.237758135990589,,,,,,,,,,7.0,11.0,95.0,8.0,454.1180720010016,,,,,,,,,,,,,,,,,454.1093271389982,454.9018284580088,455.702970437007,455.69115256200894,,,,,,,,,,,,,,,,,,,,,,,,,,,,,,,,,,,455.6944372530125,455.702970437007,455.702970437007,456.9437141590024,r,1.0,1.237758135990589,,,,,sub-011,1,stroop_test,82.79760660336308,
,,,,96.0,0.0,8.0,,,,,,,,,,,,,blau,yellow,g,0.0,g,1.0,0.976370857009897,,,,,,,,,,8.0,0.0,96.0,7.0,456.9570902260021,,,,,,,,,,,,,,,,,456.9442461170111,457.0417526610108,457.839053624004,457.8258626500028,,,,,,,,,,,,,,,,,,,,,,,,,,,,,,,,,,,457.829233055003,457.839053624004,457.839053624004,458.8201881630084,g,1.0,0.976370857009897,,,,,sub-011,1,stroop_test,82.79760660336308,
,,,,97.0,1.0,8.0,,,,,,,,,,,,,gelb,yellow,g,1.0,g,1.0,0.7644472300016787,,,,,,,,,,8.0,1.0,97.0,11.0,458.83063955800026,,,,,,,,,,,,,,,,,458.82103483899846,458.91513707500417,459.7250665280008,459.7094929880113,,,,,,,,,,,,,,,,,,,,,,,,,,,,,,,,,,,459.7144095170079,459.7250665280008,459.7250665280008,460.494151610008,g,1.0,0.7644472300016787,,,,,sub-011,1,stroop_test,82.79760660336308,
,,,,98.0,2.0,8.0,,,,,,,,,,,,,gelb,red,r,0.0,r,1.0,0.8700461099942913,,,,,,,,,,8.0,2.0,98.0,8.0,460.5052363060095,,,,,,,,,,,,,,,,,460.4946211120114,461.292733883005,462.094623514,462.08424060000107,,,,,,,,,,,,,,,,,,,,,,,,,,,,,,,,,,,462.08525393600576,462.094623514,462.094623514,462.970086145011,r,1.0,0.8700461099942913,,,,,sub-011,1,stroop_test,82.79760660336308,
,,,,99.0,3.0,8.0,,,,,,,,,,,,,rot,yellow,g,0.0,g,1.0,1.3617849909933284,,,,,,,,,,8.0,3.0,99.0,3.0,462.9799913290044,,,,,,,,,,,,,,,,,462.970770223008,463.32473307701,464.1233126029984,464.10886022800696,,,,,,,,,,,,,,,,,,,,,,,,,,,,,,,,,,,464.11350681200565,464.1233126029984,464.1233126029984,465.4957972310076,g,1.0,1.3617849909933284,,,,,sub-011,1,stroop_test,82.79760660336308,
,,,,100.0,4.0,8.0,,,,,,,,,,,,,gelb,yellow,g,1.0,g,1.0,0.7752328120113816,,,,,,,,,,8.0,4.0,100.0,10.0,465.5064394479996,,,,,,,,,,,,,,,,,465.4962495540094,465.8495198610035,466.6497933510109,466.6340847710089,,,,,,,,,,,,,,,,,,,,,,,,,,,,,,,,,,,466.6394778040121,466.6497933510109,466.6497933510109,467.4289876859984,g,1.0,0.7752328120113816,,,,,sub-011,1,stroop_test,82.79760660336308,
,,,,101.0,5.0,8.0,,,,,,,,,,,,,blau,red,r,0.0,r,1.0,1.2897149099881062,,,,,,,,,,8.0,5.0,101.0,4.0,467.43991227800143,,,,,,,,,,,,,,,,,467.4294664839981,467.7901672920125,468.5928524080082,468.57832690099895,,,,,,,,,,,,,,,,,,,,,,,,,,,,,,,,,,,468.582103852008,468.5928524080082,468.5928524080082,469.8931319580006,r,1.0,1.2897149099881062,,,,,sub-011,1,stroop_test,82.79760660336308,
,,,,102.0,6.0,8.0,,,,,,,,,,,,,rot,red,r,1.0,r,1.0,0.8521119900105987,,,,,,,,,,8.0,6.0,102.0,1.0,469.9027451790025,,,,,,,,,,,,,,,,,469.8936014820065,470.6930539200112,471.505499307008,471.4912885520025,,,,,,,,,,,,,,,,,,,,,,,,,,,,,,,,,,,471.4950827950088,471.505499307008,471.505499307008,472.3610553000035,r,1.0,0.8521119900105987,,,,,sub-011,1,stroop_test,82.79760660336308,
,,,,103.0,7.0,8.0,,,,,,,,,,,,,blau,blue,b,1.0,b,1.0,0.6359806139953434,,,,,,,,,,8.0,7.0,103.0,6.0,472.3722593590064,,,,,,,,,,,,,,,,,472.3617921960104,472.7065414320096,473.5065046030068,473.4923609240068,,,,,,,,,,,,,,,,,,,,,,,,,,,,,,,,,,,473.49671902900445,473.5065046030068,473.5065046030068,474.14713352800754,b,1.0,0.6359806139953434,,,,,sub-011,1,stroop_test,82.79760660336308,
,,,,104.0,8.0,8.0,,,,,,,,,,,,,blau,blue,b,1.0,b,1.0,0.4776648989936802,,,,,,,,,,8.0,8.0,104.0,5.0,474.1583760130016,,,,,,,,,,,,,,,,,474.1476234959992,474.9506596160063,475.7493639750028,475.74015941900143,,,,,,,,,,,,,,,,,,,,,,,,,,,,,,,,,,,475.7408364020084,475.7493639750028,475.7493639750028,476.2360100180085,b,1.0,0.4776648989936802,,,,,sub-011,1,stroop_test,82.79760660336308,
,,,,105.0,9.0,8.0,,,,,,,,,,,,,rot,blue,b,0.0,b,1.0,1.1099930539930938,,,,,,,,,,8.0,9.0,105.0,2.0,476.2455822250049,,,,,,,,,,,,,,,,,476.2365945290076,476.3399730009987,477.14506523200544,477.12973160500405,,,,,,,,,,,,,,,,,,,,,,,,,,,,,,,,,,,477.1347755440074,477.14506523200544,477.14506523200544,478.259643434998,b,1.0,1.1099930539930938,,,,,sub-011,1,stroop_test,82.79760660336308,
,,,,106.0,10.0,8.0,,,,,,,,,,,,,gelb,blue,b,0.0,b,1.0,1.1820778330002213,,,,,,,,,,8.0,10.0,106.0,9.0,478.2710829620046,,,,,,,,,,,,,,,,,478.2602592059993,479.47485394800606,480.2803343770065,480.2658584660094,,,,,,,,,,,,,,,,,,,,,,,,,,,,,,,,,,,480.2703768810025,480.2803343770065,480.2803343770065,481.4693992750108,b,1.0,1.1820778330002213,,,,,sub-011,1,stroop_test,82.79760660336308,
,,,,107.0,11.0,8.0,,,,,,,,,,,,,rot,red,r,1.0,r,1.0,1.824104241008172,,,,,,,,,,8.0,11.0,107.0,0.0,481.4795924500068,,,,,,,,,,,,,,,,,481.4699250090053,482.6647467990115,483.4746209760051,483.4588408039999,,,,,,,,,,,,,,,,,,,,,,,,,,,,,,,,,,,483.4645199590013,483.4746209760051,483.4746209760051,485.3091440720018,r,1.0,1.824104241008172,,,,,sub-011,1,stroop_test,82.79760660336308,
,,,,108.0,0.0,9.0,,,,,,,,,,,,,blau,red,r,0.0,r,1.0,1.3360642509942409,,,,,,,,,,9.0,0.0,108.0,4.0,485.3183966110082,,,,,,,,,,,,,,,,,485.3095116519981,486.1087914600066,486.907027653011,486.89347505400656,,,,,,,,,,,,,,,,,,,,,,,,,,,,,,,,,,,486.897209585004,486.907027653011,486.907027653011,488.2530911650101,r,1.0,1.3360642509942409,,,,,sub-011,1,stroop_test,82.79760660336308,
,,,,109.0,1.0,9.0,,,,,,,,,,,,,rot,blue,b,0.0,b,1.0,1.116052852012217,,,,,,,,,,9.0,1.0,109.0,2.0,488.2642338750011,,,,,,,,,,,,,,,,,488.2536652140116,489.4484703120106,490.2569331800041,490.2402698520018,,,,,,,,,,,,,,,,,,,,,,,,,,,,,,,,,,,490.24301157500304,490.2569331800041,490.2569331800041,491.3797702810116,b,1.0,1.116052852012217,,,,,sub-011,1,stroop_test,82.79760660336308,
,,,,110.0,2.0,9.0,,,,,,,,,,,,,gelb,blue,b,0.0,b,1.0,0.6403740200039465,,,,,,,,,,9.0,2.0,110.0,9.0,491.3907022280037,,,,,,,,,,,,,,,,,491.38025505200494,492.1834833160101,492.98802396100655,492.9742398280068,,,,,,,,,,,,,,,,,,,,,,,,,,,,,,,,,,,492.97841407700616,492.98802396100655,492.98802396100655,493.634417334004,b,1.0,0.6403740200039465,,,,,sub-011,1,stroop_test,82.79760660336308,
,,,,111.0,3.0,9.0,,,,,,,,,,,,,rot,red,r,1.0,r,1.0,0.7364618129940936,,,,,,,,,,9.0,3.0,111.0,1.0,493.6444231589994,,,,,,,,,,,,,,,,,493.6350116090034,494.83120036699984,495.63964833800856,495.62459140901046,,,,,,,,,,,,,,,,,,,,,,,,,,,,,,,,,,,495.62954685000295,495.63964833800856,495.63964833800856,496.385041697009,r,1.0,0.7364618129940936,,,,,sub-011,1,stroop_test,82.79760660336308,
,,,,112.0,4.0,9.0,,,,,,,,,,,,,rot,yellow,g,0.0,g,1.0,1.0594579610042274,,,,,,,,,,9.0,4.0,112.0,3.0,496.395141727,,,,,,,,,,,,,,,,,496.38550809799926,496.7407237990119,497.53947097800847,497.5290212560067,,,,,,,,,,,,,,,,,,,,,,,,,,,,,,,,,,,497.529712077012,497.53947097800847,497.53947097800847,498.6022488900053,g,1.0,1.0594579610042274,,,,,sub-011,1,stroop_test,82.79760660336308,
,,,,113.0,5.0,9.0,,,,,,,,,,,,,blau,blue,b,1.0,b,1.0,0.5161275199934607,,,,,,,,,,9.0,5.0,113.0,6.0,498.6128802700114,,,,,,,,,,,,,,,,,498.6027620470122,499.3995984030044,500.20495518100506,500.1910734789999,,,,,,,,,,,,,,,,,,,,,,,,,,,,,,,,,,,500.1948554750125,500.20495518100506,500.20495518100506,500.7294073910016,b,1.0,0.5161275199934607,,,,,sub-011,1,stroop_test,82.79760660336308,
,,,,114.0,6.0,9.0,,,,,,,,,,,,,gelb,red,r,0.0,g,0.0,0.8061708659952274,,,,,,,,,,9.0,6.0,114.0,8.0,500.7400393770076,,,,,,,,,,,,,,,,,500.7298675320053,501.0758216430113,501.87713711000106,501.8652525060024,,,,,,,,,,,,,,,,,,,,,,,,,,,,,,,,,,,501.8685297610064,501.87713711000106,501.87713711000106,502.69224538900016,g,0.0,0.8061708659952274,,,,,sub-011,1,stroop_test,82.79760660336308,
,,,,115.0,7.0,9.0,,,,,,,,,,,,,blau,blue,b,1.0,b,1.0,1.275698272002046,,,,,,,,,,9.0,7.0,115.0,5.0,502.7008574150095,,,,,,,,,,,,,,,,,502.6926157660055,503.8905100470001,504.69862638199993,504.6825020800025,,,,,,,,,,,,,,,,,,,,,,,,,,,,,,,,,,,504.6893992469995,504.69862638199993,504.69862638199993,505.9769651710085,b,1.0,1.275698272002046,,,,,sub-011,1,stroop_test,82.79760660336308,
,,,,116.0,8.0,9.0,,,,,,,,,,,,,blau,yellow,g,0.0,g,1.0,1.6764542720047757,,,,,,,,,,9.0,8.0,116.0,7.0,505.9865011530055,,,,,,,,,,,,,,,,,505.9773903120076,507.17432077800913,507.96988694000174,507.9583498700085,,,,,,,,,,,,,,,,,,,,,,,,,,,,,,,,,,,507.9593128730048,507.96988694000174,507.96988694000174,509.65445487300167,g,1.0,1.6764542720047757,,,,,sub-011,1,stroop_test,82.79760660336308,
,,,,117.0,9.0,9.0,,,,,,,,,,,,,rot,red,r,1.0,r,1.0,0.7829447259864537,,,,,,,,,,9.0,9.0,117.0,0.0,509.6646803710028,,,,,,,,,,,,,,,,,509.6549089510081,510.0076278620109,510.8088346500008,510.7942814990092,,,,,,,,,,,,,,,,,,,,,,,,,,,,,,,,,,,510.7983191050007,510.8088346500008,510.8088346500008,511.61001085500175,r,1.0,0.7829447259864537,,,,,sub-011,1,stroop_test,82.79760660336308,
,,,,118.0,10.0,9.0,,,,,,,,,,,,,gelb,yellow,g,1.0,g,1.0,0.7955837619956583,,,,,,,,,,9.0,10.0,118.0,10.0,511.62204311200185,,,,,,,,,,,,,,,,,511.6107162160042,511.708394737012,512.5099352800025,512.4943147650047,,,,,,,,,,,,,,,,,,,,,,,,,,,,,,,,,,,512.4988020140008,512.5099352800025,512.5099352800025,513.3096628450003,g,1.0,0.7955837619956583,,,,,sub-011,1,stroop_test,82.79760660336308,
,,,,119.0,11.0,9.0,,,,,,,,,,,,,gelb,yellow,g,1.0,g,1.0,0.7040302230016096,,,,,,,,,,9.0,11.0,119.0,11.0,513.3197845040122,,,,,,,,,,,,,,,,,513.3103442720021,513.4241166700085,514.2194126200047,514.2084908760007,,,,,,,,,,,,,,,,,,,,,,,,,,,,,,,,,,,514.2091596969985,514.2194126200047,514.2194126200047,514.9311014749983,g,1.0,0.7040302230016096,,,,,sub-011,1,stroop_test,82.79760660336308,
,,,,,,,,,,,,,,,,,,,,,,,,,,,,,,,,,,,,,,,,,,,,,,,,,,,,,,,,,,,,,,,,,,,,,,,,,,,,,,,,,,,,,,,,,,,,,,,,,,,,,,514.9313214569993,514.9439743760013,519.9409915090073,sub-011,1,stroop_test,82.79760660336308,
