direction,corrAns,thisN,thisTrialN,thisRepN,respDots.keys,respDots.corr,respDots.rt,respDots.duration,randomInstr,respRandomInstr.keys,respRandomInstr.rt,respRandomInstr.duration,practice_trials.thisRepN,practice_trials.thisTrialN,practice_trials.thisN,practice_trials.thisIndex,instr_trials.thisRepN,instr_trials.thisTrialN,instr_trials.thisN,instr_trials.thisIndex,test_trials.thisRepN,test_trials.thisTrialN,test_trials.thisN,test_trials.thisIndex,thisRow.t,notes,general_instruction.started,textGeneralInstr.started,respGeneralInstr.started,general_instruction.stopped,respGeneralInstr.keys,respGeneralInstr.rt,respGeneralInstr.duration,ITI.started,fixcross.started,fixcross.stopped,ITI.stopped,dots.started,backgroundDots.started,stimulusDots.started,respDots.started,stimulusDots.stopped,dots.stopped,practice_trials.respDots.keys,practice_trials.respDots.corr,practice_trials.respDots.rt,practice_trials.respDots.duration,feedback.started,textFeedback.started,feedback.stopped,textFeedback.stopped,info.started,textInfo.started,keyRespInfo.started,info.stopped,keyRespInfo.keys,keyRespInfo.rt,keyRespInfo.duration,test_instruction.started,textTestInstr.started,respTestInstr.started,test_instruction.stopped,respTestInstr.keys,respTestInstr.rt,respTestInstr.duration,random_instruction.started,textRandomInstr.started,respRandomInstr.started,random_instruction.stopped,instr_trials.respRandomInstr.keys,instr_trials.respRandomInstr.rt,instr_trials.respRandomInstr.duration,test_trials.respDots.keys,test_trials.respDots.corr,test_trials.respDots.rt,test_trials.respDots.duration,goodbye.started,textGoodbye.started,textGoodbye.stopped,goodbye.stopped,participant,session,expName,frameRate,Unnamed: 88
,,,,,,,,,,,,,,,,,,,,,,,,,,,0.0195599599974229,0.0315118950020405,0.0315118950020405,38.7182716219977,space,38.65708324099978,,,,,,,,,,,,,,,,,,,,,,,,,,,,,,,,,,,,,,,,,,,,,,,,,sub-240,1,random_dot,,
right,right,0.0,0.0,0.0,left,0.0,8.410148941999068,,,,,,0.0,0.0,0.0,1.0,,,,,,,,,38.75304917900212,,,,,,,,,38.72596736899868,39.90980141900218,40.72689000399987,40.704385678996914,40.7046529329964,40.72689000399987,40.72689000399987,40.72689000399987,45.692997311998624,49.138914417002525,left,0.0,8.410148941999068,,49.144546424999135,49.20247643299808,49.64282467200246,,,,,,,,,,,,,,,,,,,,,,,,,,,,,,,sub-240,1,random_dot,,
left,left,1.0,1.0,0.0,right,0.0,5.667770195999765,,,,,,0.0,1.0,1.0,0.0,,,,,,,,,49.65410749500006,,,,,,,,,49.64306669199868,49.73740478599939,50.526992865001375,50.521064581000246,50.52135400800034,50.526992865001375,50.526992865001375,50.526992865001375,55.50961989999632,56.20544902399706,right,0.0,5.667770195999765,,56.2055365549968,56.21140059299796,56.70482928099955,56.70932970199647,,,,,,,,,,,,,,,,,,,,,,,,,,,,,,sub-240,1,random_dot,,
left,left,2.0,0.0,1.0,left,1.0,5.311097824996978,,,,,,1.0,0.0,2.0,0.0,,,,,,,,,56.70932970199647,,,,,,,,,56.70506101399951,57.904153759998735,58.6948229519985,58.68837278599676,58.688714326999616,58.6948229519985,58.6948229519985,58.6948229519985,63.67588397600048,64.01113476000319,left,1.0,5.311097824996978,,64.0153660529977,64.02171545800229,64.50479079999786,64.50959991200216,,,,,,,,,,,,,,,,,,,,,,,,,,,,,,sub-240,1,random_dot,,
right,right,3.0,1.0,1.0,left,0.0,5.53023045900045,,,,,,1.0,1.0,3.0,1.0,,,,,,,,,64.50959991200216,,,,,,,,,64.50507266999921,64.60921583500021,65.40435004900064,65.39338149099785,65.39371330999711,65.40435004900064,65.40435004900064,65.40435004900064,70.38785055700282,70.93889008699625,left,0.0,5.53023045900045,,70.9411743669989,70.94743691999611,71.43851346599695,71.44332915599807,,,,,,,,,,,,,,,,,,,,,,,,,,,,,,sub-240,1,random_dot,,
right,right,4.0,0.0,2.0,right,1.0,1.3704003099992406,,,,,,2.0,0.0,4.0,1.0,,,,,,,,,71.44332915599807,,,,,,,,,71.43875704899983,71.78761440500239,72.57737630300107,72.57142935699812,72.57171811399894,72.57737630300107,72.57737630300107,72.57737630300107,,73.95541123399744,right,1.0,1.3704003099992406,,73.95764307399804,73.96404118600185,74.45518847899802,74.46014148899849,,,,,,,,,,,,,,,,,,,,,,,,,,,,,,sub-240,1,random_dot,,
left,left,5.0,1.0,2.0,right,0.0,0.9040535140011344,,,,,,2.0,1.0,5.0,0.0,,,,,,,,,74.46014148899849,,,,,,,,,74.45563036199746,74.55444709499716,75.34520919399802,75.3387106079972,75.33903873500094,75.34520919399802,75.34520919399802,75.34520919399802,,76.25576645199908,right,0.0,0.9040535140011344,,76.25807516199711,76.2645322870012,76.75506742399739,76.76004958699923,,,,,,,,,,,,,,,,,,,,,,,,,,,,,,sub-240,1,random_dot,,
right,right,6.0,0.0,3.0,right,1.0,2.003688148004585,,,,,,3.0,0.0,6.0,1.0,,,,,,,,,76.76004958699923,,,,,,,,,76.75536335999641,76.85445258799882,77.6446894940018,77.63840078099747,77.63873071299895,77.6446894940018,77.6446894940018,77.6446894940018,,79.65612579500157,right,1.0,2.003688148004585,,79.65844002499944,79.66516257799958,80.1552690460012,80.16022572999645,,,,,,,,,,,,,,,,,,,,,,,,,,,,,,sub-240,1,random_dot,,
left,left,7.0,1.0,3.0,right,0.0,1.348843305997434,,,,,,3.0,1.0,7.0,0.0,,,,,,,,,80.16022572999645,,,,,,,,,80.15557019400148,81.35459653699945,82.14514807399974,82.13847984899621,82.13881878800021,82.14514807399974,82.14514807399974,82.14514807399974,,83.49590298099793,right,0.0,1.348843305997434,,83.49829052900168,83.50448461499764,83.98850697000307,83.99361820700142,,,,,,,,,,,,,,,,,,,,,,,,,,,,,,sub-240,1,random_dot,,
left,left,8.0,0.0,4.0,left,1.0,1.959860734001268,,,,,,4.0,0.0,8.0,0.0,,,,,,,,,83.99361820700142,,,,,,,,,83.98880470699805,85.19212924099702,85.98769728300249,85.97548617299617,85.97573845199804,85.98769728300249,85.98769728300249,85.98769728300249,,87.95597216299939,left,1.0,1.959860734001268,,87.95849703800195,87.96542961499654,88.4551647499975,88.46014429799834,,,,,,,,,,,,,,,,,,,,,,,,,,,,,,sub-240,1,random_dot,,
right,right,9.0,1.0,4.0,left,0.0,1.8132134240004236,,,,,,4.0,1.0,9.0,1.0,,,,,,,,,88.46014429799834,,,,,,,,,88.45545819499966,88.55452732599952,89.34488632199646,89.33845212499727,89.33879148300184,89.34488632199646,89.34488632199646,89.34488632199646,,91.1622872480002,left,0.0,1.8132134240004236,,91.16468146700208,91.17101975800324,91.65513734799606,91.66012215000228,,,,,,,,,,,,,,,,,,,,,,,,,,,,,,sub-240,1,random_dot,,
right,right,10.0,0.0,5.0,right,1.0,4.212080452001828,,,,,,5.0,0.0,10.0,1.0,,,,,,,,,91.66012215000228,,,,,,,,,91.655427220001,91.75975002400082,92.55452210899966,92.54335818000254,92.5436382140033,92.55452210899966,92.55452210899966,92.55452210899966,,96.77219127600256,right,1.0,4.212080452001828,,96.77441841400288,96.78082531799735,97.2714989629967,97.27585117299896,,,,,,,,,,,,,,,,,,,,,,,,,,,,,,sub-240,1,random_dot,,
left,left,11.0,1.0,5.0,right,0.0,2.0876351690021693,,,,,,5.0,1.0,11.0,0.0,,,,,,,,,97.27585117299896,,,,,,,,,97.27171751100104,97.60965889399812,98.40451019399916,98.39305544099624,98.3933130689984,98.40451019399916,98.40451019399916,98.40451019399916,,100.4960171240018,right,0.0,2.0876351690021693,,100.49824989699846,100.50460934599688,100.98878225299995,100.9934004070019,,,,,,,,,,,,,,,,,,,,,,,,,,,,,,sub-240,1,random_dot,,
right,right,12.0,0.0,6.0,left,0.0,1.138354848997551,,,,,,6.0,0.0,12.0,1.0,,,,,,,,,100.9934004070019,,,,,,,,,100.98902341000212,101.34347097299906,102.14495914099824,102.13838424500136,102.13872171600087,102.14495914099824,102.14495914099824,102.14495914099824,,103.28916881800252,left,0.0,1.138354848997551,,103.2892531739999,103.2949209090002,103.7885851300016,103.7937474759965,,,,,,,,,,,,,,,,,,,,,,,,,,,,,,sub-240,1,random_dot,,
left,left,13.0,1.0,6.0,left,1.0,4.1348314530041534,,,,,,6.0,1.0,13.0,0.0,,,,,,,,,103.7937474759965,,,,,,,,,103.78887740900244,104.98784503099888,105.77747187399656,105.77161227099714,105.77187513300304,105.77747187399656,105.77747187399656,105.77747187399656,,109.9221614650014,left,1.0,4.1348314530041534,,109.92439047899823,109.93056775900186,110.42149712800165,110.42582504299936,,,,,,,,,,,,,,,,,,,,,,,,,,,,,,sub-240,1,random_dot,,
right,right,14.0,0.0,7.0,right,1.0,1.9606034370008276,,,,,,7.0,0.0,14.0,1.0,,,,,,,,,110.42582504299936,,,,,,,,,110.42175424799645,111.61006009300036,112.40480556099646,112.39390287300192,112.39423946500028,112.40480556099646,112.40480556099646,112.40480556099646,,114.37254473099892,right,1.0,1.9606034370008276,,114.37263225600329,114.37844262600264,114.87180526399608,114.87640811500025,,,,,,,,,,,,,,,,,,,,,,,,,,,,,,sub-240,1,random_dot,,
left,left,15.0,1.0,7.0,right,0.0,2.2548247639933834,,,,,,7.0,1.0,15.0,0.0,,,,,,,,,114.87640811500025,,,,,,,,,114.87207063599637,116.07107756099867,116.86164160200131,116.85530549100076,116.8556298179974,116.86164160200131,116.86164160200131,116.86164160200131,,119.12234729000193,right,0.0,2.2548247639933834,,119.12453977199766,119.1308856350006,119.6215645159973,119.62587147900194,,,,,,,,,,,,,,,,,,,,,,,,,,,,,,sub-240,1,random_dot,,
left,left,16.0,0.0,8.0,left,1.0,1.2800053929968271,,,,,,8.0,0.0,16.0,0.0,,,,,,,,,119.62587147900194,,,,,,,,,119.62181317799696,119.721173017002,120.51143392400265,120.50526504799927,120.50557698599732,120.51143392400265,120.51143392400265,120.51143392400265,,121.79598157999862,left,1.0,1.2800053929968271,,121.79843391600298,121.80470834999868,122.28865756199956,122.29370757099969,,,,,,,,,,,,,,,,,,,,,,,,,,,,,,sub-240,1,random_dot,,
right,right,17.0,1.0,8.0,left,0.0,1.0226867020028294,,,,,,8.0,1.0,17.0,1.0,,,,,,,,,122.29370757099969,,,,,,,,,122.2889494159972,122.64314222300165,123.43806395900174,123.42634833000191,123.42663265499868,123.43806395900174,123.43806395900174,123.43806395900174,,124.46257265500026,left,0.0,1.0226867020028294,,124.46479562699824,124.471197648003,124.95538631799718,124.96022639500006,,,,,,,,,,,,,,,,,,,,,,,,,,,,,,sub-240,1,random_dot,,
left,left,18.0,0.0,9.0,right,0.0,5.293519415994524,,,,,,9.0,0.0,18.0,0.0,,,,,,,,,124.96022639500006,,,,,,,,,124.9556780119965,126.15993756199896,126.954732942002,126.94404697499704,126.94438136299868,126.954732942002,126.954732942002,126.954732942002,131.93806502199732,132.25595428099768,right,0.0,5.293519415994524,,132.25604212599865,132.26193987100123,132.75546243900317,132.76034566199814,,,,,,,,,,,,,,,,,,,,,,,,,,,,,,sub-240,1,random_dot,,
right,right,19.0,1.0,9.0,left,0.0,2.0984324529999867,,,,,,9.0,1.0,19.0,1.0,,,,,,,,,132.76034566199814,,,,,,,,,132.75575387699791,133.55470450199937,134.34502649000206,134.33854512999824,134.33883853800216,134.34502649000206,134.34502649000206,134.34502649000206,,136.44501418899745,left,0.0,2.0984324529999867,,136.4450986419979,136.45453628399991,136.9386510690019,136.94516225300322,,,,,,,,,,,,,,,,,,,,,,,,,,,,,,sub-240,1,random_dot,,
,,,,,,,,,,,,,,,,,,,,,,,,,,,,,,,,,,,,,,,,,,,,,,,,,,,,136.93876895799622,136.94516225300322,136.94516225300322,145.40616451000096,space,8.457982446001552,,,,,,,,,,,,,,,,,,,,,,,,sub-240,1,random_dot,,
,,,,,,,,,,,,,,,,,,,,,,,,,,,,,,,,,,,,,,,,,,,,,,,,,,,,,,,,,,,145.40622891800012,145.41428093700233,145.41428093700233,165.79054434200225,space,20.37418136000633,,,,,,,,,,,,,,,,,sub-240,1,random_dot,,
left,left,0.0,0.0,0.0,right,0.0,1.1199498299974948,,speed,space,5.311757233001117,,,,,,0.0,0.0,0.0,1.0,0.0,0.0,0.0,0.0,171.15161464599805,,,,,,,,,171.1452411029968,171.9381668240021,172.72779592699953,172.7217564590028,172.72201316699648,172.72779592699953,172.72779592699953,172.72779592699953,,173.85649117200228,,,,,,,,,,,,,,,,,,,,,,,165.806412867998,165.81620535600086,165.81620535600086,171.1398406619992,space,5.311757233001117,,right,0.0,1.1199498299974948,,,,,,sub-240,1,random_dot,,
right,right,1.0,1.0,0.0,right,1.0,0.9792657419966416,,speed,space,5.311757233001117,,,,,,0.0,0.0,0.0,1.0,0.0,1.0,1.0,1.0,173.86236822199862,,,,,,,,,173.85678342400206,173.95516029900318,174.74562595199677,174.73913798700232,174.73947800799942,174.74562595199677,174.74562595199677,174.74562595199677,,175.72844744099712,,,,,,,,,,,,,,,,,,,,,,,,,,,,,,right,1.0,0.9792657419966416,,,,,,sub-240,1,random_dot,,
right,right,2.0,0.0,1.0,left,0.0,1.320669865999662,,speed,space,5.311757233001117,,,,,,0.0,0.0,0.0,1.0,1.0,0.0,2.0,1.0,175.73808709799778,,,,,,,,,175.72873252700083,176.52591440700053,177.32143782600178,177.3105458259961,177.310873112001,177.32143782600178,177.32143782600178,177.32143782600178,,178.64647361300013,,,,,,,,,,,,,,,,,,,,,,,,,,,,,,left,0.0,1.320669865999662,,,,,,sub-240,1,random_dot,,
left,left,3.0,1.0,1.0,left,1.0,2.074396242001967,,speed,space,5.311757233001117,,,,,,0.0,0.0,0.0,1.0,1.0,1.0,3.0,0.0,178.65479328200308,,,,,,,,,178.64676686799794,178.743220078999,179.53851790799672,179.526353139001,179.52665890700155,179.53851790799672,179.53851790799672,179.53851790799672,,181.62284499200177,,,,,,,,,,,,,,,,,,,,,,,,,,,,,,left,1.0,2.074396242001967,,,,,,sub-240,1,random_dot,,
right,right,4.0,0.0,2.0,right,1.0,4.054378414002713,,speed,space,5.311757233001117,,,,,,0.0,0.0,0.0,1.0,2.0,0.0,4.0,1.0,181.6286937019977,,,,,,,,,181.62312598100107,181.72150690299893,182.5117837889993,182.50553585000307,182.50586369899972,182.5117837889993,182.5117837889993,182.5117837889993,,186.57264358700195,,,,,,,,,,,,,,,,,,,,,,,,,,,,,,right,1.0,4.054378414002713,,,,,,sub-240,1,random_dot,,
left,left,5.0,1.0,2.0,right,0.0,2.0269085109976004,,speed,space,5.311757233001117,,,,,,0.0,0.0,0.0,1.0,2.0,1.0,5.0,0.0,186.5785868189996,,,,,,,,,186.5729387550018,186.92142940300252,187.7125254029961,187.706084397003,187.70642078400124,187.7125254029961,187.7125254029961,187.7125254029961,,189.745990206,,,,,,,,,,,,,,,,,,,,,,,,,,,,,,right,0.0,2.0269085109976004,,,,,,sub-240,1,random_dot,,
left,left,6.0,0.0,3.0,left,1.0,1.5268083260016283,,speed,space,5.311757233001117,,,,,,0.0,0.0,0.0,1.0,3.0,0.0,6.0,0.0,189.754772954002,,,,,,,,,189.746279099003,189.84380659300223,190.6447675579984,190.63882726200245,190.63910462999772,190.6447675579984,190.6447675579984,190.6447675579984,,192.17325015299863,,,,,,,,,,,,,,,,,,,,,,,,,,,,,,left,1.0,1.5268083260016283,,,,,,sub-240,1,random_dot,,
right,right,7.0,1.0,3.0,left,0.0,1.3969628769991689,,speed,space,5.311757233001117,,,,,,0.0,0.0,0.0,1.0,3.0,1.0,7.0,1.0,192.1790065269961,,,,,,,,,192.1735623040004,193.371660083998,194.1625464259996,194.15605084999697,194.1563910629993,194.1625464259996,194.1625464259996,194.1625464259996,,195.56316134399825,,,,,,,,,,,,,,,,,,,,,,,,,,,,,,left,0.0,1.3969628769991689,,,,,,sub-240,1,random_dot,,
right,right,8.0,0.0,4.0,right,1.0,2.837725829005649,,speed,space,5.311757233001117,,,,,,0.0,0.0,0.0,1.0,4.0,0.0,8.0,1.0,195.5715251099973,,,,,,,,,195.5634737380024,195.9102364490027,196.7050368440032,196.69421835800316,196.6945478830021,196.7050368440032,196.7050368440032,196.7050368440032,,199.54631252800027,,,,,,,,,,,,,,,,,,,,,,,,,,,,,,right,1.0,2.837725829005649,,,,,,sub-240,1,random_dot,,
left,left,9.0,1.0,4.0,right,0.0,3.5049986189987976,,speed,space,5.311757233001117,,,,,,0.0,0.0,0.0,1.0,4.0,1.0,9.0,0.0,199.55480823499963,,,,,,,,,199.54658487300185,199.89360821599985,200.68837858900224,200.67654801699973,200.6768000640004,200.68837858900224,200.68837858900224,200.68837858900224,,204.19635208399995,,,,,,,,,,,,,,,,,,,,,,,,,,,,,,right,0.0,3.5049986189987976,,,,,,sub-240,1,random_dot,,
left,left,10.0,0.0,5.0,left,1.0,2.313451039000938,,speed,space,5.311757233001117,,,,,,0.0,0.0,0.0,1.0,5.0,0.0,10.0,0.0,204.20488082800148,,,,,,,,,204.196669044999,204.99363989000267,205.7884325769992,205.7767935390002,205.7770487050002,205.7884325769992,205.7884325769992,205.7884325769992,,208.106241927002,,,,,,,,,,,,,,,,,,,,,,,,,,,,,,left,1.0,2.313451039000938,,,,,,sub-240,1,random_dot,,
right,right,11.0,1.0,5.0,left,0.0,1.7747792820009636,,speed,space,5.311757233001117,,,,,,0.0,0.0,0.0,1.0,5.0,1.0,11.0,1.0,208.11210484200276,,,,,,,,,208.1065381220033,208.90518180099752,209.69606025100077,209.68915112599643,209.68949081699972,209.69606025100077,209.69606025100077,209.69606025100077,,211.47298082999623,,,,,,,,,,,,,,,,,,,,,,,,,,,,,,left,0.0,1.7747792820009636,,,,,,sub-240,1,random_dot,,
right,right,12.0,0.0,6.0,left,0.0,3.968326572001388,,speed,space,5.311757233001117,,,,,,0.0,0.0,0.0,1.0,6.0,0.0,12.0,1.0,211.47876157599967,,,,,,,,,211.4732822149963,212.6717162720015,213.46233407300315,213.45580881599744,213.45614880599896,213.46233407300315,213.46233407300315,213.46233407300315,,217.43976875599765,,,,,,,,,,,,,,,,,,,,,,,,,,,,,,left,0.0,3.968326572001388,,,,,,sub-240,1,random_dot,,
left,left,13.0,1.0,6.0,left,1.0,2.8829860929981805,,speed,space,5.311757233001117,,,,,,0.0,0.0,0.0,1.0,6.0,1.0,13.0,0.0,217.4456557989979,,,,,,,,,217.4400670190007,217.78851727599977,218.57788812900253,218.57200577399635,218.5722789509964,218.57788812900253,218.57788812900253,218.57788812900253,,221.4631000809968,,,,,,,,,,,,,,,,,,,,,,,,,,,,,,left,1.0,2.8829860929981805,,,,,,sub-240,1,random_dot,,
right,right,14.0,0.0,7.0,right,1.0,2.4059125509957084,,speed,space,5.311757233001117,,,,,,0.0,0.0,0.0,1.0,7.0,0.0,14.0,1.0,221.4716210309998,,,,,,,,,221.46338799899968,222.2604987070008,223.055224017,223.0440479890021,223.04438034800117,223.055224017,223.055224017,223.055224017,,225.46270378999907,,,,,,,,,,,,,,,,,,,,,,,,,,,,,,right,1.0,2.4059125509957084,,,,,,sub-240,1,random_dot,,
left,left,15.0,1.0,7.0,right,0.0,2.783259244999499,,speed,space,5.311757233001117,,,,,,0.0,0.0,0.0,1.0,7.0,1.0,15.0,0.0,225.4716673820003,,,,,,,,,225.4629956470017,225.56022720700275,226.35522130600293,226.34407461000228,226.34432487499728,226.35522130600293,226.35522130600293,226.35522130600293,,229.14013087000055,,,,,,,,,,,,,,,,,,,,,,,,,,,,,,right,0.0,2.783259244999499,,,,,,sub-240,1,random_dot,,
left,left,16.0,0.0,8.0,left,1.0,2.660143758999766,,speed,space,5.311757233001117,,,,,,0.0,0.0,0.0,1.0,8.0,0.0,16.0,0.0,229.14618294899992,,,,,,,,,229.140434162,229.4887504819999,230.2779964029978,230.27215534699644,230.2724090499978,230.2779964029978,230.2779964029978,230.2779964029978,,232.94035209999856,,,,,,,,,,,,,,,,,,,,,,,,,,,,,,left,1.0,2.660143758999766,,,,,,sub-240,1,random_dot,,
right,right,17.0,1.0,8.0,left,0.0,2.107034743996337,,speed,space,5.311757233001117,,,,,,0.0,0.0,0.0,1.0,8.0,1.0,17.0,1.0,232.9463604549965,,,,,,,,,232.94067583599823,234.13861046900277,234.92810192499743,234.9221985530021,234.92244359000324,234.92810192499743,234.92810192499743,234.92810192499743,,237.03992843400192,,,,,,,,,,,,,,,,,,,,,,,,,,,,,,left,0.0,2.107034743996337,,,,,,sub-240,1,random_dot,,
left,left,18.0,0.0,9.0,left,1.0,1.4067693749966566,,speed,space,5.311757233001117,,,,,,0.0,0.0,0.0,1.0,9.0,0.0,18.0,0.0,237.04577097499717,,,,,,,,,237.04022292500304,238.23848573499708,239.02822720100085,239.02214658899905,239.0223993979962,239.02822720100085,239.02822720100085,239.02822720100085,,240.4397642140029,,,,,,,,,,,,,,,,,,,,,,,,,,,,,,left,1.0,1.4067693749966566,,,,,,sub-240,1,random_dot,,
right,right,19.0,1.0,9.0,right,1.0,1.1164515919954283,,speed,space,5.311757233001117,,,,,,0.0,0.0,0.0,1.0,9.0,1.0,19.0,1.0,240.4456048889988,,,,,,,,,240.4400568889978,240.7884825090005,241.57818487199984,241.57217618700088,241.57247578399983,241.57818487199984,241.57818487199984,241.57818487199984,,242.6961791520007,,,,,,,,,,,,,,,,,,,,,,,,,,,,,,right,1.0,1.1164515919954283,,,,,,sub-240,1,random_dot,,
right,right,20.0,0.0,10.0,right,1.0,1.5075267370048095,,speed,space,5.311757233001117,,,,,,0.0,0.0,0.0,1.0,10.0,0.0,20.0,1.0,242.7050866479985,,,,,,,,,242.69646927100257,243.49321931899613,244.2886210939978,244.27655088699976,244.2767974590024,244.2886210939978,244.2886210939978,244.2886210939978,,245.80599954100035,,,,,,,,,,,,,,,,,,,,,,,,,,,,,,right,1.0,1.5075267370048095,,,,,,sub-240,1,random_dot,,
left,left,21.0,1.0,10.0,right,0.0,1.6149996480016853,,speed,space,5.311757233001117,,,,,,0.0,0.0,0.0,1.0,10.0,1.0,21.0,0.0,245.81047600100283,,,,,,,,,245.80627015900245,246.5939025359985,247.3960110650005,247.38945382399837,247.38978918999783,247.3960110650005,247.3960110650005,247.3960110650005,,249.01336671399625,,,,,,,,,,,,,,,,,,,,,,,,,,,,,,right,0.0,1.6149996480016853,,,,,,sub-240,1,random_dot,,
right,right,22.0,0.0,11.0,left,0.0,1.5073460239946144,,speed,space,5.311757233001117,,,,,,0.0,0.0,0.0,1.0,11.0,0.0,22.0,1.0,249.02173881899944,,,,,,,,,249.01365809999697,249.82357717899868,250.62189920200035,250.6105196099961,250.6107873200017,250.62189920200035,250.62189920200035,250.62189920200035,,252.1397855019968,,,,,,,,,,,,,,,,,,,,,,,,,,,,,,left,0.0,1.5073460239946144,,,,,,sub-240,1,random_dot,,
left,left,23.0,1.0,11.0,left,1.0,2.5344281480065547,,speed,space,5.311757233001117,,,,,,0.0,0.0,0.0,1.0,11.0,1.0,23.0,0.0,252.14565765800216,,,,,,,,,252.1400776169976,252.9385909929988,253.72831453399704,253.72226132299693,253.7225093779998,253.72831453399704,253.72831453399704,253.72831453399704,,256.27314805999777,,,,,,,,,,,,,,,,,,,,,,,,,,,,,,left,1.0,2.5344281480065547,,,,,,sub-240,1,random_dot,,
right,right,24.0,0.0,12.0,right,1.0,2.131065804001992,,speed,space,5.311757233001117,,,,,,0.0,0.0,0.0,1.0,12.0,0.0,24.0,1.0,256.27908197399665,,,,,,,,,256.2734447069961,257.0718434849987,257.8626205699984,257.85624248800013,257.8565820779986,257.8626205699984,257.8626205699984,257.8626205699984,,259.9963723260007,,,,,,,,,,,,,,,,,,,,,,,,,,,,,,right,1.0,2.131065804001992,,,,,,sub-240,1,random_dot,,
left,left,25.0,1.0,12.0,right,0.0,1.40610848399956,,speed,space,5.311757233001117,,,,,,0.0,0.0,0.0,1.0,12.0,1.0,25.0,0.0,260.00520338099886,,,,,,,,,259.9966453129964,261.19379205600126,261.9887801060031,261.9766138949999,261.97686246599915,261.9887801060031,261.9887801060031,261.9887801060031,,263.4061840729992,,,,,,,,,,,,,,,,,,,,,,,,,,,,,,right,0.0,1.40610848399956,,,,,,sub-240,1,random_dot,,
right,right,26.0,0.0,13.0,right,1.0,3.824007711002196,,speed,space,5.311757233001117,,,,,,0.0,0.0,0.0,1.0,13.0,0.0,26.0,1.0,263.4107142740031,,,,,,,,,263.4064618929988,264.1944527800006,264.99598759900255,264.9896008520009,264.9899418019995,264.99598759900255,264.99598759900255,264.99598759900255,,268.823131115998,,,,,,,,,,,,,,,,,,,,,,,,,,,,,,right,1.0,3.824007711002196,,,,,,sub-240,1,random_dot,,
left,left,27.0,1.0,13.0,left,1.0,2.495761202000722,,speed,space,5.311757233001117,,,,,,0.0,0.0,0.0,1.0,13.0,1.0,27.0,0.0,268.82893290300126,,,,,,,,,268.8234165929971,269.1604947369997,269.9556249369998,269.9442385520015,269.94449582700327,269.9556249369998,269.9556249369998,269.9556249369998,,272.45665372200165,,,,,,,,,,,,,,,,,,,,,,,,,,,,,,left,1.0,2.495761202000722,,,,,,sub-240,1,random_dot,,
left,left,28.0,0.0,14.0,left,1.0,3.671355967002455,,speed,space,5.311757233001117,,,,,,0.0,0.0,0.0,1.0,14.0,0.0,28.0,0.0,272.46254821099865,,,,,,,,,272.4569539630029,273.655273452001,274.445940728001,274.4393104109986,274.4396307889984,274.445940728001,274.445940728001,274.445940728001,,278.1235324180016,,,,,,,,,,,,,,,,,,,,,,,,,,,,,,left,1.0,3.671355967002455,,,,,,sub-240,1,random_dot,,
right,right,29.0,1.0,14.0,right,1.0,5.790993470996909,,speed,space,5.311757233001117,,,,,,0.0,0.0,0.0,1.0,14.0,1.0,29.0,1.0,278.129405245003,,,,,,,,,278.12382306999643,278.47200440800225,279.2627087360015,279.2561819429975,279.25651965999714,279.2627087360015,279.2627087360015,279.2627087360015,284.2450457349987,285.0568689560023,,,,,,,,,,,,,,,,,,,,,,,,,,,,,,right,1.0,5.790993470996909,,,,,,sub-240,1,random_dot,,
left,left,30.0,0.0,15.0,right,0.0,0.1200255250005284,,speed,space,5.311757233001117,,,,,,0.0,0.0,0.0,1.0,15.0,0.0,30.0,0.0,285.0628041980017,,,,,,,,,285.05720142099744,286.25568717499846,287.04572760799783,287.039511363997,287.03984249199857,287.04572760799783,287.04572760799783,287.04572760799783,,287.17331299500074,,,,,,,,,,,,,,,,,,,,,,,,,,,,,,right,0.0,0.1200255250005284,,,,,,sub-240,1,random_dot,,
right,right,31.0,1.0,15.0,right,1.0,1.962992216998828,,speed,space,5.311757233001117,,,,,,0.0,0.0,0.0,1.0,15.0,1.0,31.0,1.0,287.17909391500143,,,,,,,,,287.1735939229984,288.3720777060007,289.1629187819999,289.15626313699613,289.15660391099664,289.1629187819999,289.1629187819999,289.1629187819999,,291.129028233001,,,,,,,,,,,,,,,,,,,,,,,,,,,,,,right,1.0,1.962992216998828,,,,,,sub-240,1,random_dot,,
right,right,32.0,0.0,16.0,left,0.0,3.233489336002094,,speed,space,5.311757233001117,,,,,,0.0,0.0,0.0,1.0,16.0,0.0,32.0,1.0,291.1387320979993,,,,,,,,,291.12931682400085,291.9264810809982,292.7220940949992,292.7112206210004,292.7114761929988,292.7220940949992,292.7220940949992,292.7220940949992,,295.95746845100075,,,,,,,,,,,,,,,,,,,,,,,,,,,,,,left,0.0,3.233489336002094,,,,,,sub-240,1,random_dot,,
left,left,33.0,1.0,16.0,left,1.0,0.8560019829965313,,speed,space,5.311757233001117,,,,,,0.0,0.0,0.0,1.0,16.0,1.0,33.0,0.0,295.9633417770019,,,,,,,,,295.95780166499753,297.15574231999926,297.94647393200285,297.9396865500021,297.9400269140024,297.94647393200285,297.94647393200285,297.94647393200285,,298.8069564559992,,,,,,,,,,,,,,,,,,,,,,,,,,,,,,left,1.0,0.8560019829965313,,,,,,sub-240,1,random_dot,,
right,right,34.0,0.0,17.0,left,0.0,2.609978083994065,,speed,space,5.311757233001117,,,,,,0.0,0.0,0.0,1.0,17.0,0.0,34.0,1.0,298.81302715100173,,,,,,,,,298.8072554009996,299.6057970740003,300.3950684559968,300.38918851799826,300.3894523659983,300.3950684559968,300.3950684559968,300.3950684559968,,303.00712938099605,,,,,,,,,,,,,,,,,,,,,,,,,,,,,,left,0.0,2.609978083994065,,,,,,sub-240,1,random_dot,,
left,left,35.0,1.0,17.0,right,0.0,1.5435808210022517,,speed,space,5.311757233001117,,,,,,0.0,0.0,0.0,1.0,17.0,1.0,35.0,0.0,303.0130460090004,,,,,,,,,303.0074398249999,303.35566101899894,304.14638169299724,304.1397113790008,304.14004643299995,304.14638169299724,304.14638169299724,304.14638169299724,,305.69598766299896,,,,,,,,,,,,,,,,,,,,,,,,,,,,,,right,0.0,1.5435808210022517,,,,,,sub-240,1,random_dot,,
right,right,36.0,0.0,18.0,right,1.0,2.908529747997818,,speed,space,5.311757233001117,,,,,,0.0,0.0,0.0,1.0,18.0,0.0,36.0,1.0,305.7055146299972,,,,,,,,,305.69627020799817,306.494182921997,307.29638488600176,307.28970844500145,307.2900444749976,307.29638488600176,307.29638488600176,307.29638488600176,,310.20721767399664,,,,,,,,,,,,,,,,,,,,,,,,,,,,,,right,1.0,2.908529747997818,,,,,,sub-240,1,random_dot,,
left,left,37.0,1.0,18.0,right,0.0,3.442309500002011,,speed,space,5.311757233001117,,,,,,0.0,0.0,0.0,1.0,18.0,1.0,37.0,0.0,310.2131598959968,,,,,,,,,310.2075141449968,310.305758773,311.0965376769964,311.08986357600224,311.090202722,311.0965376769964,311.0965376769964,311.0965376769964,,314.54056099300215,,,,,,,,,,,,,,,,,,,,,,,,,,,,,,right,0.0,3.442309500002011,,,,,,sub-240,1,random_dot,,
left,left,38.0,0.0,19.0,right,0.0,2.4524914249996077,,speed,space,5.311757233001117,,,,,,0.0,0.0,0.0,1.0,19.0,0.0,38.0,0.0,314.5466012800025,,,,,,,,,314.540859064,315.339024314002,316.12887374599813,316.12273404799635,316.1230429189964,316.12887374599813,316.12887374599813,316.12887374599813,,318.59051437799644,,,,,,,,,,,,,,,,,,,,,,,,,,,,,,right,0.0,2.4524914249996077,,,,,,sub-240,1,random_dot,,
right,right,39.0,1.0,19.0,left,0.0,2.5581545460008783,,speed,space,5.311757233001117,,,,,,0.0,0.0,0.0,1.0,19.0,1.0,39.0,1.0,318.59662613800174,,,,,,,,,318.59080270100094,318.6892195460023,319.47845832299936,319.4725925349994,319.47283902100025,319.47845832299936,319.47845832299936,319.47845832299936,,322.0406376859973,,,,,,,,,,,,,,,,,,,,,,,,,,,,,,left,0.0,2.5581545460008783,,,,,,sub-240,1,random_dot,,
right,right,40.0,0.0,20.0,left,0.0,3.419258540001465,,speed,space,5.311757233001117,,,,,,0.0,0.0,0.0,1.0,20.0,0.0,40.0,1.0,322.04663138600154,,,,,,,,,322.0409314290009,322.3892218580004,323.17939714599925,323.1730408630028,323.1733718789983,323.17939714599925,323.17939714599925,323.17939714599925,,326.60714227100107,,,,,,,,,,,,,,,,,,,,,,,,,,,,,,left,0.0,3.419258540001465,,,,,,sub-240,1,random_dot,,
left,left,41.0,1.0,20.0,left,1.0,2.380890136002563,,speed,space,5.311757233001117,,,,,,0.0,0.0,0.0,1.0,20.0,1.0,41.0,0.0,326.6131656630023,,,,,,,,,326.60742943199875,327.4059981719984,328.196471670999,328.1899364369965,328.19027267999627,328.196471670999,328.196471670999,328.196471670999,,330.57932042200264,,,,,,,,,,,,,,,,,,,,,,,,,,,,,,left,1.0,2.380890136002563,,,,,,sub-240,1,random_dot,,
right,right,42.0,0.0,21.0,right,1.0,2.9334520140037057,,speed,space,5.311757233001117,,,,,,0.0,0.0,0.0,1.0,21.0,0.0,42.0,1.0,330.5889505960004,,,,,,,,,330.57961496400094,331.7767314090015,332.57229294999706,332.56102159400325,332.56127888800256,332.57229294999706,332.57229294999706,332.57229294999706,,335.50789367700054,,,,,,,,,,,,,,,,,,,,,,,,,,,,,,right,1.0,2.9334520140037057,,,,,,sub-240,1,random_dot,,
left,left,43.0,1.0,21.0,right,0.0,0.9473447909986136,,speed,space,5.311757233001117,,,,,,0.0,0.0,0.0,1.0,21.0,1.0,43.0,0.0,335.5138528989992,,,,,,,,,335.5082029069963,336.30596619100106,337.09658708200004,337.0899337969968,337.0902724530024,337.09658708200004,337.09658708200004,337.09658708200004,,338.0468736449984,,,,,,,,,,,,,,,,,,,,,,,,,,,,,,right,0.0,0.9473447909986136,,,,,,sub-240,1,random_dot,,
left,left,44.0,0.0,22.0,right,0.0,1.6549399920040742,,speed,space,5.311757233001117,,,,,,0.0,0.0,0.0,1.0,22.0,0.0,44.0,0.0,338.05560833300115,,,,,,,,,338.04719157199725,338.1443806149982,338.93921496700204,338.9274174009988,338.92773018799926,338.93921496700204,338.93921496700204,338.93921496700204,,340.59680699500313,,,,,,,,,,,,,,,,,,,,,,,,,,,,,,right,0.0,1.6549399920040742,,,,,,sub-240,1,random_dot,,
right,right,45.0,1.0,22.0,right,1.0,1.897826864005765,,speed,space,5.311757233001117,,,,,,0.0,0.0,0.0,1.0,22.0,1.0,45.0,1.0,340.6056357589987,,,,,,,,,340.5970964360022,340.69443318100093,341.48925338799745,341.47729364300176,341.4775457060023,341.48925338799745,341.48925338799745,341.48925338799745,,343.3908420680018,,,,,,,,,,,,,,,,,,,,,,,,,,,,,,right,1.0,1.897826864005765,,,,,,sub-240,1,random_dot,,
right,right,46.0,0.0,23.0,right,1.0,2.922067457999219,,speed,space,5.311757233001117,,,,,,0.0,0.0,0.0,1.0,23.0,0.0,46.0,1.0,343.3967731619996,,,,,,,,,343.39115122999647,343.48935874000017,344.27871872400283,344.27287778999744,344.2731276589984,344.27871872400283,344.27871872400283,344.27871872400283,,347.20722314900195,,,,,,,,,,,,,,,,,,,,,,,,,,,,,,right,1.0,2.922067457999219,,,,,,sub-240,1,random_dot,,
left,left,47.0,1.0,23.0,left,1.0,1.1835687000057078,,speed,space,5.311757233001117,,,,,,0.0,0.0,0.0,1.0,23.0,1.0,47.0,0.0,347.2130854900024,,,,,,,,,347.20751753199875,347.30598465300136,348.0961577220005,348.08982706700044,348.09016506699845,348.0961577220005,348.0961577220005,348.0961577220005,,349.29076209900086,,,,,,,,,,,,,,,,,,,,,,,,,,,,,,left,1.0,1.1835687000057078,,,,,,sub-240,1,random_dot,,
left,left,48.0,0.0,24.0,left,1.0,1.8979331349983115,,speed,space,5.311757233001117,,,,,,0.0,0.0,0.0,1.0,24.0,0.0,48.0,0.0,349.29718083899934,,,,,,,,,349.29110617900005,350.4893114470033,351.2790307800024,351.27297232099954,351.2732951279977,351.2790307800024,351.2790307800024,351.2790307800024,,353.1795732469982,,,,,,,,,,,,,,,,,,,,,,,,,,,,,,left,1.0,1.8979331349983115,,,,,,sub-240,1,random_dot,,
right,right,49.0,1.0,24.0,left,0.0,1.232651739002904,,speed,space,5.311757233001117,,,,,,0.0,0.0,0.0,1.0,24.0,1.0,49.0,1.0,353.18910646600125,,,,,,,,,353.1798693739984,354.37685970099847,355.1724800480006,355.16131816399866,355.1615690699982,355.1724800480006,355.1724800480006,355.1724800480006,,356.40728632300306,,,,,,,,,,,,,,,,,,,,,,,,,,,,,,left,0.0,1.232651739002904,,,,,,sub-240,1,random_dot,,
right,right,50.0,0.0,25.0,right,1.0,2.499060999994981,,speed,space,5.311757233001117,,,,,,0.0,0.0,0.0,1.0,25.0,0.0,50.0,1.0,356.4131838800022,,,,,,,,,356.40757336599927,357.6060064049961,358.3964725229962,358.39005656600057,358.3903385730009,358.3964725229962,358.3964725229962,358.3964725229962,,360.8972932280012,,,,,,,,,,,,,,,,,,,,,,,,,,,,,,right,1.0,2.499060999994981,,,,,,sub-240,1,random_dot,,
left,left,51.0,1.0,25.0,right,0.0,1.4703605130052892,,speed,space,5.311757233001117,,,,,,0.0,0.0,0.0,1.0,25.0,1.0,51.0,0.0,360.9058962929994,,,,,,,,,360.8975978859962,362.09395570200286,362.8890733270018,362.8770371099963,362.8772860800018,362.8890733270018,362.8890733270018,362.8890733270018,,364.3634906959997,,,,,,,,,,,,,,,,,,,,,,,,,,,,,,right,0.0,1.4703605130052892,,,,,,sub-240,1,random_dot,,
left,left,52.0,0.0,26.0,right,0.0,2.0271199630005867,,speed,space,5.311757233001117,,,,,,0.0,0.0,0.0,1.0,26.0,0.0,52.0,0.0,364.3724701829997,,,,,,,,,364.3638016629993,364.4610093829979,365.2561737299984,365.2448999219996,365.24518434199854,365.2561737299984,365.2561737299984,365.2561737299984,,367.2905965090031,,,,,,,,,,,,,,,,,,,,,,,,,,,,,,right,0.0,2.0271199630005867,,,,,,sub-240,1,random_dot,,
right,right,53.0,1.0,26.0,right,1.0,1.6122751189977862,,speed,space,5.311757233001117,,,,,,0.0,0.0,0.0,1.0,26.0,1.0,53.0,1.0,367.2964480809969,,,,,,,,,367.2908959449997,367.6394420669967,368.4294677040016,368.4230419550004,368.4233505899974,368.4294677040016,368.4294677040016,368.4294677040016,,370.0469773149962,,,,,,,,,,,,,,,,,,,,,,,,,,,,,,right,1.0,1.6122751189977862,,,,,,sub-240,1,random_dot,,
left,left,54.0,0.0,27.0,left,1.0,1.7526845039974432,,speed,space,5.311757233001117,,,,,,0.0,0.0,0.0,1.0,27.0,0.0,54.0,0.0,370.0559092420008,,,,,,,,,370.04726185999607,370.8448224620006,371.646894644,371.6400755229988,371.6404162129984,371.646894644,371.646894644,371.646894644,,373.4076177390016,,,,,,,,,,,,,,,,,,,,,,,,,,,,,,left,1.0,1.7526845039974432,,,,,,sub-240,1,random_dot,,
right,right,55.0,1.0,27.0,left,0.0,1.1241163730010155,,speed,space,5.311757233001117,,,,,,0.0,0.0,0.0,1.0,27.0,1.0,55.0,1.0,373.41376205599954,,,,,,,,,373.4079114369961,374.20623345799686,374.9966385980006,374.9902616399995,374.9905995759982,374.9966385980006,374.9966385980006,374.9966385980006,,376.1240191600009,,,,,,,,,,,,,,,,,,,,,,,,,,,,,,left,0.0,1.1241163730010155,,,,,,sub-240,1,random_dot,,
right,right,56.0,0.0,28.0,left,0.0,2.408031102000677,,speed,space,5.311757233001117,,,,,,0.0,0.0,0.0,1.0,28.0,0.0,56.0,1.0,376.1299181680006,,,,,,,,,376.1243227279992,376.2225987369966,377.0128590099994,377.006701145001,377.00700828299887,377.0128590099994,377.0128590099994,377.0128590099994,,379.42388684999605,,,,,,,,,,,,,,,,,,,,,,,,,,,,,,left,0.0,2.408031102000677,,,,,,sub-240,1,random_dot,,
left,left,57.0,1.0,28.0,right,0.0,2.324999440999818,,speed,space,5.311757233001117,,,,,,0.0,0.0,0.0,1.0,28.0,1.0,57.0,0.0,379.4297091769986,,,,,,,,,379.4241688289985,379.7613567820008,380.55615425499855,380.5452590049972,380.54559724000137,380.55615425499855,380.55615425499855,380.55615425499855,,382.8906958360021,,,,,,,,,,,,,,,,,,,,,,,,,,,,,,right,0.0,2.324999440999818,,,,,,sub-240,1,random_dot,,
right,right,58.0,0.0,29.0,right,1.0,0.4306604830053402,,speed,space,5.311757233001117,,,,,,0.0,0.0,0.0,1.0,29.0,0.0,58.0,1.0,382.8966080960017,,,,,,,,,382.8909990589964,384.0898296059968,384.8790242350005,384.8730813869988,384.873333386,384.8790242350005,384.8790242350005,384.8790242350005,,385.3142021270032,,,,,,,,,,,,,,,,,,,,,,,,,,,,,,right,1.0,0.4306604830053402,,,,,,sub-240,1,random_dot,,
left,left,59.0,1.0,29.0,right,0.0,3.867004491003172,,speed,space,5.311757233001117,,,,,,0.0,0.0,0.0,1.0,29.0,1.0,59.0,0.0,385.3225951659988,,,,,,,,,385.314497722,385.66123131300265,386.4563116299978,386.4453616030005,386.4456416679968,386.4563116299978,386.4563116299978,386.4563116299978,,390.3296635459992,,,,,,,,,,,,,,,,,,,,,,,,,,,,,,right,0.0,3.867004491003172,,,,,,sub-240,1,random_dot,,
,,0.0,0.0,0.0,,,,,speed,space,5.311757233001117,,,,,,0.0,0.0,0.0,1.0,,,,,,,,,,,,,,,,,,,,,,,,,,,,,,,,,,,,,,,,,,,,,,,,,,,,,,,,,,,,,sub-240,1,random_dot,,
left,left,0.0,0.0,0.0,right,0.0,5.424870381997607,,accuracy,space,7.076777513000707,,,,,,0.0,1.0,1.0,0.0,0.0,0.0,0.0,0.0,397.4403573960008,,,,,,,,,397.4339631819967,397.5271532650004,398.32277029500256,398.3113880289966,398.3116421820014,398.32277029500256,398.32277029500256,398.32277029500256,403.30647189199954,403.7581125759971,,,,,,,,,,,,,,,,,,,,,,,390.3405278909995,390.3470847540011,390.3470847540011,397.42861793799966,space,7.076777513000707,,right,0.0,5.424870381997607,,,,,,sub-240,1,random_dot,,
right,right,1.0,1.0,0.0,left,0.0,1.6306762489984976,,accuracy,space,7.076777513000707,,,,,,0.0,1.0,1.0,0.0,0.0,1.0,1.0,1.0,403.76433791399904,,,,,,,,,403.7584829769985,403.856456886002,404.6467243139996,404.6402511920023,404.6405889079979,404.6467243139996,404.6467243139996,404.6467243139996,,406.2799915169962,,,,,,,,,,,,,,,,,,,,,,,,,,,,,,left,0.0,1.6306762489984976,,,,,,sub-240,1,random_dot,,
left,left,2.0,0.0,1.0,right,0.0,3.589651522997883,,accuracy,space,7.076777513000707,,,,,,0.0,1.0,1.0,0.0,1.0,0.0,2.0,0.0,406.2893641510018,,,,,,,,,406.2802626109988,407.0774601090016,407.8727654890026,407.8617787399999,407.86203044000285,407.8727654890026,407.8727654890026,407.8727654890026,,411.46408655599953,,,,,,,,,,,,,,,,,,,,,,,,,,,,,,right,0.0,3.589651522997883,,,,,,sub-240,1,random_dot,,
right,right,3.0,1.0,1.0,right,1.0,4.979816330000176,,accuracy,space,7.076777513000707,,,,,,0.0,1.0,1.0,0.0,1.0,1.0,3.0,1.0,411.4727294990007,,,,,,,,,411.4643875379989,412.2615881840029,413.05657694800175,413.0453820659968,413.0457215319984,413.05657694800175,413.05657694800175,413.05657694800175,418.039542642,418.0410546319981,,,,,,,,,,,,,,,,,,,,,,,,,,,,,,right,1.0,4.979816330000176,,,,,,sub-240,1,random_dot,,
right,right,4.0,0.0,2.0,right,1.0,2.502348381000047,,accuracy,space,7.076777513000707,,,,,,0.0,1.0,1.0,0.0,2.0,0.0,4.0,1.0,418.04696675099694,,,,,,,,,418.041343334,418.1397456889972,418.92955664500187,418.92345053199824,418.9237589179975,418.92955664500187,418.92955664500187,418.92955664500187,,421.4408888969992,,,,,,,,,,,,,,,,,,,,,,,,,,,,,,right,1.0,2.502348381000047,,,,,,sub-240,1,random_dot,,
left,left,5.0,1.0,2.0,right,0.0,1.0335365590071888,,accuracy,space,7.076777513000707,,,,,,0.0,1.0,1.0,0.0,2.0,1.0,5.0,0.0,421.44683135899686,,,,,,,,,421.44117666700186,422.23976057000255,423.02935745099967,423.023307069001,423.02355876399815,423.02935745099967,423.02935745099967,423.02935745099967,,424.0643686990006,,,,,,,,,,,,,,,,,,,,,,,,,,,,,,right,0.0,1.0335365590071888,,,,,,sub-240,1,random_dot,,
right,right,6.0,0.0,3.0,right,1.0,1.6552580399948056,,accuracy,space,7.076777513000707,,,,,,0.0,1.0,1.0,0.0,3.0,0.0,6.0,1.0,424.0727718650014,,,,,,,,,424.0646510529986,424.16159128699655,424.95655604799686,424.9456846890025,424.9460151769963,424.95655604799686,424.95655604799686,424.95655604799686,,426.61433076200046,,,,,,,,,,,,,,,,,,,,,,,,,,,,,,right,1.0,1.6552580399948056,,,,,,sub-240,1,random_dot,,
left,left,7.0,1.0,3.0,right,0.0,1.289244385996426,,accuracy,space,7.076777513000707,,,,,,0.0,1.0,1.0,0.0,3.0,1.0,7.0,0.0,426.6228045679964,,,,,,,,,426.6146154779999,426.9617213680031,427.7565864299977,427.74595902799774,427.7463057330024,427.7565864299977,427.7565864299977,427.7565864299977,,429.047493621998,,,,,,,,,,,,,,,,,,,,,,,,,,,,,,right,0.0,1.289244385996426,,,,,,sub-240,1,random_dot,,
right,right,8.0,0.0,4.0,right,1.0,1.3942549510029494,,accuracy,space,7.076777513000707,,,,,,0.0,1.0,1.0,0.0,4.0,0.0,8.0,1.0,429.05625701999816,,,,,,,,,429.0477861489999,430.2440487060012,431.0397043670018,431.0281030339975,431.0284180020026,431.0397043670018,431.0397043670018,431.0397043670018,,432.4407793639984,,,,,,,,,,,,,,,,,,,,,,,,,,,,,,right,1.0,1.3942549510029494,,,,,,sub-240,1,random_dot,,
left,left,9.0,1.0,4.0,right,0.0,1.8288280819979263,,accuracy,space,7.076777513000707,,,,,,0.0,1.0,1.0,0.0,4.0,1.0,9.0,0.0,432.4465555819989,,,,,,,,,432.44106944800296,432.5399706949975,433.32947300699743,433.3232938220026,433.3235439700002,433.32947300699743,433.32947300699743,433.32947300699743,,435.1647643249962,,,,,,,,,,,,,,,,,,,,,,,,,,,,,,right,0.0,1.8288280819979263,,,,,,sub-240,1,random_dot,,
left,left,10.0,0.0,5.0,left,1.0,2.0684211920015514,,accuracy,space,7.076777513000707,,,,,,0.0,1.0,1.0,0.0,5.0,0.0,10.0,0.0,435.1729883059961,,,,,,,,,435.1651181190027,435.51113644799625,436.3066948129999,436.2955891829988,436.2958596169992,436.3066948129999,436.3066948129999,436.3066948129999,,438.3800346959979,,,,,,,,,,,,,,,,,,,,,,,,,,,,,,left,1.0,2.0684211920015514,,,,,,sub-240,1,random_dot,,
right,right,11.0,1.0,5.0,right,1.0,1.1698142919995007,,accuracy,space,7.076777513000707,,,,,,0.0,1.0,1.0,0.0,5.0,1.0,11.0,1.0,438.3895774449993,,,,,,,,,438.38030294499913,439.5773895300008,440.3729456560032,440.3615588019966,440.3618054289982,440.3729456560032,440.3729456560032,440.3729456560032,,441.5475139109985,,,,,,,,,,,,,,,,,,,,,,,,,,,,,,right,1.0,1.1698142919995007,,,,,,sub-240,1,random_dot,,
right,right,12.0,0.0,6.0,right,1.0,2.34476561199699,,accuracy,space,7.076777513000707,,,,,,0.0,1.0,1.0,0.0,6.0,0.0,12.0,1.0,441.5562752609985,,,,,,,,,441.547793341997,441.8949705940031,442.6969406549979,442.6905054559975,442.690853842003,442.6969406549979,442.6969406549979,442.6969406549979,,445.04775710299873,,,,,,,,,,,,,,,,,,,,,,,,,,,,,,right,1.0,2.34476561199699,,,,,,sub-240,1,random_dot,,
left,left,13.0,1.0,6.0,right,0.0,3.648382797000522,,accuracy,space,7.076777513000707,,,,,,0.0,1.0,1.0,0.0,6.0,1.0,13.0,0.0,445.0564154059976,,,,,,,,,445.04803030400217,445.1452398809997,445.9465637969988,445.9403473229977,445.94069117899926,445.9465637969988,445.9465637969988,445.9465637969988,,449.5978952820005,,,,,,,,,,,,,,,,,,,,,,,,,,,,,,right,0.0,3.648382797000522,,,,,,sub-240,1,random_dot,,
left,left,14.0,0.0,7.0,left,1.0,2.198796682001557,,accuracy,space,7.076777513000707,,,,,,0.0,1.0,1.0,0.0,7.0,0.0,14.0,0.0,449.6065083509966,,,,,,,,,449.5981914389995,450.79458858200087,451.5897352999964,451.57794720499805,451.5781924990006,451.5897352999964,451.5897352999964,451.5897352999964,,453.7910089040015,,,,,,,,,,,,,,,,,,,,,,,,,,,,,,left,1.0,2.198796682001557,,,,,,sub-240,1,random_dot,,
right,right,15.0,1.0,7.0,right,1.0,1.2446560460011824,,accuracy,space,7.076777513000707,,,,,,0.0,1.0,1.0,0.0,7.0,1.0,15.0,1.0,453.7968677509998,,,,,,,,,453.7912997489984,454.9899690980019,455.77962399199896,455.7736032370012,455.7739181409997,455.77962399199896,455.77962399199896,455.77962399199896,,457.0301416069997,,,,,,,,,,,,,,,,,,,,,,,,,,,,,,right,1.0,1.2446560460011824,,,,,,sub-240,1,random_dot,,
right,right,16.0,0.0,8.0,right,1.0,2.0212485280062538,,accuracy,space,7.076777513000707,,,,,,0.0,1.0,1.0,0.0,8.0,0.0,16.0,1.0,457.0398127719964,,,,,,,,,457.0304220839971,457.827479501997,458.6230690239972,458.6120180669968,458.6122711060016,458.6230690239972,458.6230690239972,458.6230690239972,,460.6479882029962,,,,,,,,,,,,,,,,,,,,,,,,,,,,,,right,1.0,2.0212485280062538,,,,,,sub-240,1,random_dot,,
left,left,17.0,1.0,8.0,right,0.0,1.1780289000016635,,accuracy,space,7.076777513000707,,,,,,0.0,1.0,1.0,0.0,8.0,1.0,17.0,0.0,460.65666084900295,,,,,,,,,460.6482753309974,460.74504260499816,461.5472237520007,461.5407792289989,461.5411289510012,461.5472237520007,461.5472237520007,461.5472237520007,,462.73007996199885,,,,,,,,,,,,,,,,,,,,,,,,,,,,,,right,0.0,1.1780289000016635,,,,,,sub-240,1,random_dot,,
right,right,18.0,0.0,9.0,right,1.0,2.299213038000744,,accuracy,space,7.076777513000707,,,,,,0.0,1.0,1.0,0.0,9.0,0.0,18.0,1.0,462.7397533969997,,,,,,,,,462.7303429960011,463.0777566629986,463.8730651939986,463.8621618039979,463.862466585997,463.8730651939986,463.8730651939986,463.8730651939986,,466.1744873639982,,,,,,,,,,,,,,,,,,,,,,,,,,,,,,right,1.0,2.299213038000744,,,,,,sub-240,1,random_dot,,
left,left,19.0,1.0,9.0,left,1.0,1.1738958389978509,,accuracy,space,7.076777513000707,,,,,,0.0,1.0,1.0,0.0,9.0,1.0,19.0,0.0,466.1802347409976,,,,,,,,,466.174773257997,466.523071632997,467.3140010770003,467.30733637900266,467.3076787350001,467.3140010770003,467.3140010770003,467.3140010770003,,468.49141725099616,,,,,,,,,,,,,,,,,,,,,,,,,,,,,,left,1.0,1.1738958389978509,,,,,,sub-240,1,random_dot,,
right,right,20.0,0.0,10.0,left,0.0,1.450866961000429,,accuracy,space,7.076777513000707,,,,,,0.0,1.0,1.0,0.0,10.0,0.0,20.0,1.0,468.4972321000023,,,,,,,,,468.4917192470021,468.84017453799606,469.6294266080004,469.6235421300007,469.6237871709964,469.6294266080004,469.6294266080004,469.6294266080004,,471.0915533879961,,,,,,,,,,,,,,,,,,,,,,,,,,,,,,left,0.0,1.450866961000429,,,,,,sub-240,1,random_dot,,
left,left,21.0,1.0,10.0,right,0.0,2.4303458069989574,,accuracy,space,7.076777513000707,,,,,,0.0,1.0,1.0,0.0,10.0,1.0,21.0,0.0,471.0976265630016,,,,,,,,,471.0918943279976,471.4401027670028,472.2300484649968,472.2236320849988,472.2239478679985,472.2300484649968,472.2300484649968,472.2300484649968,,474.66474655800266,,,,,,,,,,,,,,,,,,,,,,,,,,,,,,right,0.0,2.4303458069989574,,,,,,sub-240,1,random_dot,,
right,right,22.0,0.0,11.0,right,1.0,3.0938865459975204,,accuracy,space,7.076777513000707,,,,,,0.0,1.0,1.0,0.0,11.0,0.0,22.0,1.0,474.67309091900097,,,,,,,,,474.6650423749961,475.861900265998,476.65686592600105,476.6457453109979,476.64607748600247,476.65686592600105,476.65686592600105,476.65686592600105,,479.75802462900174,,,,,,,,,,,,,,,,,,,,,,,,,,,,,,right,1.0,3.0938865459975204,,,,,,sub-240,1,random_dot,,
left,left,23.0,1.0,11.0,left,1.0,2.8063594050036045,,accuracy,space,7.076777513000707,,,,,,0.0,1.0,1.0,0.0,11.0,1.0,23.0,0.0,479.7644435249968,,,,,,,,,479.7583185960029,480.1067678280015,480.896977133998,480.8906889080026,480.89102924399776,480.896977133998,480.896977133998,480.896977133998,,483.7082847679994,,,,,,,,,,,,,,,,,,,,,,,,,,,,,,left,1.0,2.8063594050036045,,,,,,sub-240,1,random_dot,,
right,right,24.0,0.0,12.0,left,0.0,2.3110436239949195,,accuracy,space,7.076777513000707,,,,,,0.0,1.0,1.0,0.0,12.0,0.0,24.0,1.0,483.71440505499777,,,,,,,,,483.70868537299975,484.0567834070025,484.8474414950033,484.8407969710024,484.8411310390002,484.8474414950033,484.8474414950033,484.8474414950033,,487.1649289179986,,,,,,,,,,,,,,,,,,,,,,,,,,,,,,left,0.0,2.3110436239949195,,,,,,sub-240,1,random_dot,,
left,left,25.0,1.0,12.0,left,1.0,1.9565726290020395,,accuracy,space,7.076777513000707,,,,,,0.0,1.0,1.0,0.0,12.0,1.0,25.0,0.0,487.17321882699616,,,,,,,,,487.16520661499817,488.36192382199806,489.1570174070002,489.14611505599896,489.1464518080029,489.1570174070002,489.1570174070002,489.1570174070002,,491.1151930220003,,,,,,,,,,,,,,,,,,,,,,,,,,,,,,left,1.0,1.9565726290020395,,,,,,sub-240,1,random_dot,,
left,left,26.0,0.0,13.0,left,1.0,2.138501314999303,,accuracy,space,7.076777513000707,,,,,,0.0,1.0,1.0,0.0,13.0,0.0,26.0,0.0,491.12320710100175,,,,,,,,,491.1154747960027,491.9120158860024,492.7130715199965,492.70710944299935,492.707367174,492.7130715199965,492.7130715199965,492.7130715199965,,494.85790269899735,,,,,,,,,,,,,,,,,,,,,,,,,,,,,,left,1.0,2.138501314999303,,,,,,sub-240,1,random_dot,,
right,right,27.0,1.0,13.0,left,0.0,1.9628504749998683,,accuracy,space,7.076777513000707,,,,,,0.0,1.0,1.0,0.0,13.0,1.0,27.0,1.0,494.8638762569972,,,,,,,,,494.8581957240021,495.6456917469986,496.447104056002,496.4406018879963,496.440905315998,496.447104056002,496.447104056002,496.447104056002,,498.4147659309965,,,,,,,,,,,,,,,,,,,,,,,,,,,,,,left,0.0,1.9628504749998683,,,,,,sub-240,1,random_dot,,
left,left,28.0,0.0,14.0,left,1.0,1.3306173010059863,,accuracy,space,7.076777513000707,,,,,,0.0,1.0,1.0,0.0,14.0,0.0,28.0,0.0,498.4233038180028,,,,,,,,,498.4150489620006,498.5119063579986,499.30691000099614,499.2951831640021,499.2954727410033,499.30691000099614,499.30691000099614,499.30691000099614,,500.6415906319962,,,,,,,,,,,,,,,,,,,,,,,,,,,,,,left,1.0,1.3306173010059863,,,,,,sub-240,1,random_dot,,
right,right,29.0,1.0,14.0,left,0.0,2.2247645879979245,,accuracy,space,7.076777513000707,,,,,,0.0,1.0,1.0,0.0,14.0,1.0,29.0,1.0,500.6474995440003,,,,,,,,,500.6418908839987,500.9903897269978,501.7797222349982,501.7737525519988,501.774059702002,501.7797222349982,501.7797222349982,501.7797222349982,,504.0081451160004,,,,,,,,,,,,,,,,,,,,,,,,,,,,,,left,0.0,2.2247645879979245,,,,,,sub-240,1,random_dot,,
left,left,30.0,0.0,15.0,left,1.0,2.0457833929976914,,accuracy,space,7.076777513000707,,,,,,0.0,1.0,1.0,0.0,15.0,0.0,30.0,0.0,504.0140651480033,,,,,,,,,504.00842556099815,504.80694230300287,505.59785007799655,505.5912120549983,505.5915466869992,505.59785007799655,505.59785007799655,505.59785007799655,,507.6482434209975,,,,,,,,,,,,,,,,,,,,,,,,,,,,,,left,1.0,2.0457833929976914,,,,,,sub-240,1,random_dot,,
right,right,31.0,1.0,15.0,left,0.0,2.7750421859964263,,accuracy,space,7.076777513000707,,,,,,0.0,1.0,1.0,0.0,15.0,1.0,31.0,1.0,507.6566724959994,,,,,,,,,507.6485309389973,508.4454785479975,509.2404125339963,509.228464287,509.228709736999,509.2404125339963,509.2404125339963,509.2404125339963,,512.0246709839994,,,,,,,,,,,,,,,,,,,,,,,,,,,,,,left,0.0,2.7750421859964263,,,,,,sub-240,1,random_dot,,
right,right,32.0,0.0,16.0,left,0.0,4.384017932999996,,accuracy,space,7.076777513000707,,,,,,0.0,1.0,1.0,0.0,16.0,0.0,32.0,1.0,512.0306186989983,,,,,,,,,512.0249528049972,513.2121872349962,514.0071604039986,513.996140246003,513.9964704890008,514.0071604039986,514.0071604039986,514.0071604039986,,518.3981872889999,,,,,,,,,,,,,,,,,,,,,,,,,,,,,,left,0.0,4.384017932999996,,,,,,sub-240,1,random_dot,,
left,left,33.0,1.0,16.0,left,1.0,1.8456675609995727,,accuracy,space,7.076777513000707,,,,,,0.0,1.0,1.0,0.0,16.0,1.0,33.0,0.0,518.4067929930025,,,,,,,,,518.3984688440032,519.1959263030003,519.9973232120028,519.9910391259982,519.9913212440006,519.9973232120028,519.9973232120028,519.9973232120028,,521.8486927850026,,,,,,,,,,,,,,,,,,,,,,,,,,,,,,left,1.0,1.8456675609995727,,,,,,sub-240,1,random_dot,,
right,right,34.0,0.0,17.0,left,0.0,2.1702690629972494,,accuracy,space,7.076777513000707,,,,,,0.0,1.0,1.0,0.0,17.0,0.0,34.0,1.0,521.8569456120022,,,,,,,,,521.8489690959977,522.6459611480022,523.4473894319963,523.440923135,523.4412093819992,523.4473894319963,523.4473894319963,523.4473894319963,,525.6249739580016,,,,,,,,,,,,,,,,,,,,,,,,,,,,,,left,0.0,2.1702690629972494,,,,,,sub-240,1,random_dot,,
left,left,35.0,1.0,17.0,left,1.0,1.8573956889958936,,accuracy,space,7.076777513000707,,,,,,0.0,1.0,1.0,0.0,17.0,1.0,35.0,0.0,525.6308374450018,,,,,,,,,525.6252590189979,525.7235429099965,526.5139104560003,526.5076225640005,526.5079117109999,526.5139104560003,526.5139104560003,526.5139104560003,,528.374827751999,,,,,,,,,,,,,,,,,,,,,,,,,,,,,,left,1.0,1.8573956889958936,,,,,,sub-240,1,random_dot,,
left,left,36.0,0.0,18.0,right,0.0,0.6959533970002667,,accuracy,space,7.076777513000707,,,,,,0.0,1.0,1.0,0.0,18.0,0.0,36.0,0.0,528.3805221809962,,,,,,,,,528.3751074280008,529.1735285030009,529.9641817950032,529.9578510240026,529.9582266639991,529.9641817950032,529.9641817950032,529.9641817950032,,530.6646096039985,,,,,,,,,,,,,,,,,,,,,,,,,,,,,,right,0.0,0.6959533970002667,,,,,,sub-240,1,random_dot,,
right,right,37.0,1.0,18.0,right,1.0,0.7325915640030871,,accuracy,space,7.076777513000707,,,,,,0.0,1.0,1.0,0.0,18.0,1.0,37.0,1.0,530.6734185980022,,,,,,,,,530.6648929069997,531.462100564997,532.257148714998,532.2466022119988,532.246934994997,532.257148714998,532.257148714998,532.257148714998,,532.9918204139976,,,,,,,,,,,,,,,,,,,,,,,,,,,,,,right,1.0,0.7325915640030871,,,,,,sub-240,1,random_dot,,
right,right,38.0,0.0,19.0,left,0.0,2.722651506999682,,accuracy,space,7.076777513000707,,,,,,0.0,1.0,1.0,0.0,19.0,0.0,38.0,1.0,532.9976714840013,,,,,,,,,532.9921218800009,533.0905181540002,533.8799324339998,533.8739076900019,533.8742007559995,533.8799324339998,533.8799324339998,533.8799324339998,,536.6087791789978,,,,,,,,,,,,,,,,,,,,,,,,,,,,,,left,0.0,2.722651506999682,,,,,,sub-240,1,random_dot,,
left,left,39.0,1.0,19.0,left,1.0,1.1769955010022386,,accuracy,space,7.076777513000707,,,,,,0.0,1.0,1.0,0.0,19.0,1.0,39.0,0.0,536.6149453129983,,,,,,,,,536.609157466999,536.9570854600024,537.7476935009981,537.7410185940025,537.7413547620017,537.7476935009981,537.7476935009981,537.7476935009981,,538.9311539600021,,,,,,,,,,,,,,,,,,,,,,,,,,,,,,left,1.0,1.1769955010022386,,,,,,sub-240,1,random_dot,,
right,right,40.0,0.0,20.0,left,0.0,2.5253464759953204,,accuracy,space,7.076777513000707,,,,,,0.0,1.0,1.0,0.0,20.0,0.0,40.0,1.0,538.9402731290029,,,,,,,,,538.9314761330024,540.1283023919968,540.923522060999,540.9125965639978,540.9129002499976,540.923522060999,540.923522060999,540.923522060999,,543.4591473409964,,,,,,,,,,,,,,,,,,,,,,,,,,,,,,left,0.0,2.5253464759953204,,,,,,sub-240,1,random_dot,,
left,left,41.0,1.0,20.0,right,0.0,1.3840643969961093,,accuracy,space,7.076777513000707,,,,,,0.0,1.0,1.0,0.0,20.0,1.0,41.0,0.0,543.4651781209977,,,,,,,,,543.4594453269965,543.557382236002,544.3474416870013,544.3408870689964,544.3411913050004,544.3474416870013,544.3474416870013,544.3474416870013,,545.7414792679992,,,,,,,,,,,,,,,,,,,,,,,,,,,,,,right,0.0,1.3840643969961093,,,,,,sub-240,1,random_dot,,
left,left,42.0,0.0,21.0,left,1.0,2.065498502997798,,accuracy,space,7.076777513000707,,,,,,0.0,1.0,1.0,0.0,21.0,0.0,42.0,0.0,545.7472821429983,,,,,,,,,545.7417706639972,546.5405566560003,547.3305354460026,547.3241520559968,547.3244700900032,547.3305354460026,547.3305354460026,547.3305354460026,,549.3990212319986,,,,,,,,,,,,,,,,,,,,,,,,,,,,,,left,1.0,2.065498502997798,,,,,,sub-240,1,random_dot,,
right,right,43.0,1.0,21.0,right,1.0,1.1598837849960546,,accuracy,space,7.076777513000707,,,,,,0.0,1.0,1.0,0.0,21.0,1.0,43.0,1.0,549.4071459789993,,,,,,,,,549.3993178320015,550.1956709000006,550.9904379899963,550.9785621080009,550.9788042799992,550.9904379899963,550.9904379899963,550.9904379899963,,552.1584913359984,,,,,,,,,,,,,,,,,,,,,,,,,,,,,,right,1.0,1.1598837849960546,,,,,,sub-240,1,random_dot,,
right,right,44.0,0.0,22.0,right,1.0,1.3661950919995434,,accuracy,space,7.076777513000707,,,,,,0.0,1.0,1.0,0.0,22.0,0.0,44.0,1.0,552.1645114190032,,,,,,,,,552.1587858769999,552.5072576899984,553.2975715159992,553.2913042739965,553.2916372289983,553.2975715159992,553.2975715159992,553.2975715159992,,554.6653256010031,,,,,,,,,,,,,,,,,,,,,,,,,,,,,,right,1.0,1.3661950919995434,,,,,,sub-240,1,random_dot,,
left,left,45.0,1.0,22.0,right,0.0,1.22287931900064,,accuracy,space,7.076777513000707,,,,,,0.0,1.0,1.0,0.0,22.0,1.0,45.0,0.0,554.6736314430018,,,,,,,,,554.6656211890004,555.4623606079986,556.2573846759988,556.2455679760023,556.2459029899983,556.2573846759988,556.2573846759988,556.2573846759988,,557.4921634450002,,,,,,,,,,,,,,,,,,,,,,,,,,,,,,right,0.0,1.22287931900064,,,,,,sub-240,1,random_dot,,
right,right,46.0,0.0,23.0,left,0.0,2.393610298000567,,accuracy,space,7.076777513000707,,,,,,0.0,1.0,1.0,0.0,23.0,0.0,46.0,1.0,557.4987862339985,,,,,,,,,557.492508755,557.8404994890006,558.6299374189985,558.6240141820017,558.6242984049968,558.6299374189985,558.6299374189985,558.6299374189985,,561.0251589830004,,,,,,,,,,,,,,,,,,,,,,,,,,,,,,left,0.0,2.393610298000567,,,,,,sub-240,1,random_dot,,
left,left,47.0,1.0,23.0,left,1.0,0.8404942390043288,,accuracy,space,7.076777513000707,,,,,,0.0,1.0,1.0,0.0,23.0,1.0,47.0,0.0,561.0309155130017,,,,,,,,,561.0254409080007,561.1236643890006,561.9143197829981,561.907851598,561.9082198079996,561.9143197829981,561.9143197829981,561.9143197829981,,562.7586976020029,,,,,,,,,,,,,,,,,,,,,,,,,,,,,,left,1.0,0.8404942390043288,,,,,,sub-240,1,random_dot,,
right,right,48.0,0.0,24.0,right,1.0,1.442831202002708,,accuracy,space,7.076777513000707,,,,,,0.0,1.0,1.0,0.0,24.0,0.0,48.0,1.0,562.7646899399988,,,,,,,,,562.7589934349962,563.5572844069975,564.3473265069988,564.3411190249972,564.3414060349969,564.3473265069988,564.3473265069988,564.3473265069988,,565.7917774939997,,,,,,,,,,,,,,,,,,,,,,,,,,,,,,right,1.0,1.442831202002708,,,,,,sub-240,1,random_dot,,
left,left,49.0,1.0,24.0,right,0.0,1.339283402005094,,accuracy,space,7.076777513000707,,,,,,0.0,1.0,1.0,0.0,24.0,1.0,49.0,0.0,565.7975939640019,,,,,,,,,565.7920832279997,566.1407141550008,566.9298906510012,566.9240404219963,566.9243149000031,566.9298906510012,566.9298906510012,566.9298906510012,,568.2750094450021,,,,,,,,,,,,,,,,,,,,,,,,,,,,,,right,0.0,1.339283402005094,,,,,,sub-240,1,random_dot,,
left,left,50.0,0.0,25.0,left,1.0,2.666731985998922,,accuracy,space,7.076777513000707,,,,,,0.0,1.0,1.0,0.0,25.0,0.0,50.0,0.0,568.280713977998,,,,,,,,,568.2752881240012,569.073768850998,569.8647438219996,569.8581273770033,569.8584945580005,569.8647438219996,569.8647438219996,569.8647438219996,,572.5419402010011,,,,,,,,,,,,,,,,,,,,,,,,,,,,,,left,1.0,2.666731985998922,,,,,,sub-240,1,random_dot,,
right,right,51.0,1.0,25.0,right,1.0,0.7029821989999618,,accuracy,space,7.076777513000707,,,,,,0.0,1.0,1.0,0.0,25.0,1.0,51.0,1.0,572.5477488480028,,,,,,,,,572.5422212260019,573.7404326670003,574.5304496160024,574.5243204020007,574.524629845997,574.5304496160024,574.5304496160024,574.5304496160024,,575.2417923039975,,,,,,,,,,,,,,,,,,,,,,,,,,,,,,right,1.0,0.7029821989999618,,,,,,sub-240,1,random_dot,,
right,right,52.0,0.0,26.0,right,1.0,0.7390434029948665,,accuracy,space,7.076777513000707,,,,,,0.0,1.0,1.0,0.0,26.0,0.0,52.0,1.0,575.2476308900004,,,,,,,,,575.242079677002,575.590744193003,576.3800699600033,576.3741910440003,576.3744417779963,576.3800699600033,576.3800699600033,576.3800699600033,,577.1250538020031,,,,,,,,,,,,,,,,,,,,,,,,,,,,,,right,1.0,0.7390434029948665,,,,,,sub-240,1,random_dot,,
left,left,53.0,1.0,26.0,left,1.0,0.6398512729938375,,accuracy,space,7.076777513000707,,,,,,0.0,1.0,1.0,0.0,26.0,1.0,53.0,0.0,577.1308745209972,,,,,,,,,577.1253362720017,577.4737781130025,578.264578727998,578.2582318319983,578.2585723290031,578.264578727998,578.264578727998,578.264578727998,,578.9087216370026,,,,,,,,,,,,,,,,,,,,,,,,,,,,,,left,1.0,0.6398512729938375,,,,,,sub-240,1,random_dot,,
right,right,54.0,0.0,27.0,left,0.0,1.716100400997675,,accuracy,space,7.076777513000707,,,,,,0.0,1.0,1.0,0.0,27.0,0.0,54.0,1.0,578.9146269519988,,,,,,,,,578.90901915,580.1074244159972,580.8983583459994,580.8917684300031,580.892098080003,580.8983583459994,580.8983583459994,580.8983583459994,,582.6245404849979,,,,,,,,,,,,,,,,,,,,,,,,,,,,,,left,0.0,1.716100400997675,,,,,,sub-240,1,random_dot,,
left,left,55.0,1.0,27.0,left,1.0,0.5138217299972894,,accuracy,space,7.076777513000707,,,,,,0.0,1.0,1.0,0.0,27.0,1.0,55.0,0.0,582.629110146001,,,,,,,,,582.6248237420004,583.8127765219979,584.6075866589963,584.5968608710027,584.5972134870026,584.6075866589963,584.6075866589963,584.6075866589963,,585.1250649299982,,,,,,,,,,,,,,,,,,,,,,,,,,,,,,left,1.0,0.5138217299972894,,,,,,sub-240,1,random_dot,,
right,right,56.0,0.0,28.0,right,1.0,1.7761826269997982,,accuracy,space,7.076777513000707,,,,,,0.0,1.0,1.0,0.0,28.0,0.0,56.0,1.0,585.1309152829999,,,,,,,,,585.1253551429982,586.3238819350008,587.1147656469984,587.1082438989979,587.1085906209992,587.1147656469984,587.1147656469984,587.1147656469984,,588.8929002290024,,,,,,,,,,,,,,,,,,,,,,,,,,,,,,right,1.0,1.7761826269997982,,,,,,sub-240,1,random_dot,,
left,left,57.0,1.0,28.0,left,1.0,1.094473827004549,,accuracy,space,7.076777513000707,,,,,,0.0,1.0,1.0,0.0,28.0,1.0,57.0,0.0,588.8988320360004,,,,,,,,,588.8931975489977,588.9907216919964,589.7802223309991,589.7743380989996,589.774630341999,589.7802223309991,589.7802223309991,589.7802223309991,,590.8809038159961,,,,,,,,,,,,,,,,,,,,,,,,,,,,,,left,1.0,1.094473827004549,,,,,,sub-240,1,random_dot,,
right,right,58.0,0.0,29.0,left,0.0,1.01758106899797,,accuracy,space,7.076777513000707,,,,,,0.0,1.0,1.0,0.0,29.0,0.0,58.0,1.0,590.8905031899994,,,,,,,,,590.881173627,591.2283398869986,592.023988793997,592.0127977590018,592.0131159730008,592.023988793997,592.023988793997,592.023988793997,,593.0483244679999,,,,,,,,,,,,,,,,,,,,,,,,,,,,,,left,0.0,1.01758106899797,,,,,,sub-240,1,random_dot,,
left,left,59.0,1.0,29.0,right,0.0,0.9112230960017768,,accuracy,space,7.076777513000707,,,,,,0.0,1.0,1.0,0.0,29.0,1.0,59.0,0.0,593.0574016550017,,,,,,,,,593.0486018820011,594.2459245240025,595.040850190002,595.0288133930007,595.0291098559974,595.040850190002,595.040850190002,595.040850190002,,595.958777646003,,,,,,,,,,,,,,,,,,,,,,,,,,,,,,right,0.0,0.9112230960017768,,,,,,sub-240,1,random_dot,,
,,1.0,1.0,0.0,,,,,accuracy,space,7.076777513000707,,,,,,0.0,1.0,1.0,0.0,,,,,,,,,,,,,,,,,,,,,,,,,,,,,,,,,,,,,,,,,,,,,,,,,,,,,,,,,,,,,sub-240,1,random_dot,,
,,,,,,,,,,,,,,,,,,,,,,,,,,,,,,,,,,,,,,,,,,,,,,,,,,,,,,,,,,,,,,,,,,,,,,,,,,,,,595.9630552140006,595.9712482690011,600.9622738629987,600.9581792550016,sub-240,1,random_dot,,
