direction,corrAns,randomInstr,practice_trials.thisRepN,practice_trials.thisTrialN,practice_trials.thisN,practice_trials.thisIndex,instr_trials.thisRepN,instr_trials.thisTrialN,instr_trials.thisN,instr_trials.thisIndex,test_trials.thisRepN,test_trials.thisTrialN,test_trials.thisN,test_trials.thisIndex,thisRow.t,notes,general_instruction.started,textGeneralInstr.started,respGeneralInstr.started,general_instruction.stopped,respGeneralInstr.keys,respGeneralInstr.rt,respGeneralInstr.duration,ITI.started,fixcross.started,fixcross.stopped,ITI.stopped,dots.started,backgroundDots.started,stimulusDots.started,respDots.started,stimulusDots.stopped,dots.stopped,respDots.keys,respDots.corr,respDots.rt,respDots.duration,feedback.started,textFeedback.started,feedback.stopped,textFeedback.stopped,info.started,textInfo.started,keyRespInfo.started,info.stopped,keyRespInfo.keys,keyRespInfo.rt,keyRespInfo.duration,test_instruction.started,textTestInstr.started,respTestInstr.started,test_instruction.stopped,respTestInstr.keys,respTestInstr.rt,respTestInstr.duration,random_instruction.started,textRandomInstr.started,respRandomInstr.started,random_instruction.stopped,respRandomInstr.keys,respRandomInstr.rt,respRandomInstr.duration,goodbye.started,textGoodbye.started,textGoodbye.stopped,goodbye.stopped,participant,session,expName,frameRate,Unnamed: 74
,,,,,,,,,,,,,,,,,0.0384054999994987,0.04588639999929,0.04588639999929,31.07914669999991,space,46.025933100001566,,,,,,,,,,,,,,,,,,,,,,,,,,,,,,,,,,,,,,,,,,,,,sub-192,1.0,random_dot,60.27033656768309,
left,left,,0.0,0.0,0.0,0.0,,,,,,,,,31.13444969999909,,,,,,,,,31.130474099998537,31.893108700000084,32.69338339999922,32.67923459999838,32.67928260000008,32.69338339999922,32.69338339999922,32.69338339999922,37.69494559999839,38.58186589999968,right,0.0,20.87858310000047,,38.583175499999925,38.60031509999863,39.09491479999997,,,,,,,,,,,,,,,,,,,,,,,,,,,sub-192,1.0,random_dot,60.27033656768309,
right,right,,0.0,1.0,1.0,1.0,,,,,,,,,39.11119079999844,,,,,,,,,39.096036099999765,39.44446529999914,40.24474999999984,40.23015759999908,40.23020769999857,40.24474999999984,40.24474999999984,40.24474999999984,45.22950270000001,45.84957849999955,left,0.0,20.599123100000725,,45.85075979999965,45.86204309999994,46.34715169999981,46.36249249999855,,,,,,,,,,,,,,,,,,,,,,,,,,sub-192,1.0,random_dot,60.27033656768309,
left,left,,1.0,0.0,2.0,0.0,,,,,,,,,46.36249249999855,,,,,,,,,46.34805759999836,47.16253989999859,47.96277399999963,47.94798979999905,47.94803329999922,47.96277399999963,47.96277399999963,47.96277399999963,52.94686509999883,53.78452239999933,right,0.0,20.82525860000169,,53.78538979999939,53.79703319999862,54.28296599999885,54.29721889999928,,,,,,,,,,,,,,,,,,,,,,,,,,sub-192,1.0,random_dot,60.27033656768309,
right,right,,1.0,1.0,3.0,1.0,,,,,,,,,54.29721889999928,,,,,,,,,54.2841202999989,55.49762199999896,56.29784739999923,56.28373089999877,56.28378909999992,56.29784739999923,56.29784739999923,56.29784739999923,61.2988521999996,61.818503299999065,right,1.0,20.512866100001705,,61.8194182999996,61.8343350999985,62.33213769999929,,,,,,,,,,,,,,,,,,,,,,,,,,,sub-192,1.0,random_dot,60.27033656768309,
left,left,,2.0,0.0,4.0,0.0,,,,,,,,,62.34861099999944,,,,,,,,,62.33295989999897,62.68211749999864,63.48332279999886,63.466907599999104,63.46693799999957,63.48332279999886,63.48332279999886,63.48332279999886,,67.5187922999994,left,1.0,19.036968300002627,,67.51962659999845,67.53275629999916,68.01851139999962,68.03319769999871,,,,,,,,,,,,,,,,,,,,,,,,,,sub-192,1.0,random_dot,60.27033656768309,
right,right,,2.0,1.0,5.0,1.0,,,,,,,,,68.03319769999871,,,,,,,,,68.01951909999843,68.13336869999875,68.9333631999998,68.91830699999991,68.91835339999852,68.9333631999998,68.9333631999998,68.9333631999998,,72.2372607999987,right,1.0,18.297274700002163,,72.23806220000006,72.25043449999976,72.73586069999874,72.75059349999901,,,,,,,,,,,,,,,,,,,,,,,,,,sub-192,1.0,random_dot,60.27033656768309,
left,left,,3.0,0.0,6.0,0.0,,,,,,,,,72.75059349999901,,,,,,,,,72.73680599999898,73.55060349999985,74.35072979999859,74.33533429999989,74.3353987999999,74.35072979999859,74.35072979999859,74.35072979999859,79.3352720999992,79.68935319999946,right,0.0,20.34188450000147,,79.69042069999887,79.70155619999969,80.18675769999936,80.20135169999958,,,,,,,,,,,,,,,,,,,,,,,,,,sub-192,1.0,random_dot,60.27033656768309,
right,right,,3.0,1.0,7.0,1.0,,,,,,,,,80.20135169999958,,,,,,,,,80.18754970000009,81.00223259999984,81.80216489999839,81.7876397,81.78770469999836,81.80216489999839,81.80216489999839,81.80216489999839,86.78731029999835,87.14107829999921,left,0.0,20.342363400000977,,87.14203109999835,87.15303289999974,87.63896959999875,87.65328109999973,,,,,,,,,,,,,,,,,,,,,,,,,,sub-192,1.0,random_dot,60.27033656768309,
right,right,,4.0,0.0,8.0,1.0,,,,,,,,,87.65328109999973,,,,,,,,,87.63986999999906,88.45306749999872,89.25326899999891,89.23888519999855,89.23893299999872,89.25326899999891,89.25326899999891,89.25326899999891,94.23808879999888,95.24173259999952,right,1.0,20.99148050000076,,95.24255389999962,95.25410889999876,95.7398123999992,95.75492679999844,,,,,,,,,,,,,,,,,,,,,,,,,,sub-192,1.0,random_dot,60.27033656768309,
left,left,,4.0,1.0,9.0,0.0,,,,,,,,,95.75492679999844,,,,,,,,,95.74049739999828,95.85422539999854,96.6550731999996,96.64020329999948,96.6402599999983,96.6550731999996,96.6550731999996,96.6550731999996,101.63972789999934,102.15868509999927,left,1.0,20.50479020000239,,102.15947479999886,102.172369599999,102.65712079999868,102.67237339999885,,,,,,,,,,,,,,,,,,,,,,,,,,sub-192,1.0,random_dot,60.27033656768309,
right,right,,5.0,0.0,10.0,1.0,,,,,,,,,102.67237339999885,,,,,,,,,102.6577258999987,103.02269449999947,103.82312949999869,103.80798479999976,103.80802210000002,103.82312949999869,103.82312949999869,103.82312949999869,108.80750369999988,109.11034010000004,right,1.0,20.291091900000534,,109.1112082999989,109.12363379999988,109.6084450999988,109.62334859999828,,,,,,,,,,,,,,,,,,,,,,,,,,sub-192,1.0,random_dot,60.27033656768309,
left,left,,5.0,1.0,11.0,0.0,,,,,,,,,109.62334859999828,,,,,,,,,109.60922929999832,110.42378999999892,111.22453209999912,111.20915949999836,111.20921429999908,111.22453209999912,111.22453209999912,111.22453209999912,116.20845860000009,116.89547569999922,right,0.0,20.669388700001942,,116.89644129999942,116.90799619999962,117.39331899999888,117.40862559999914,,,,,,,,,,,,,,,,,,,,,,,,,,sub-192,1.0,random_dot,60.27033656768309,
left,left,,6.0,0.0,12.0,0.0,,,,,,,,,117.40862559999914,,,,,,,,,117.39542309999888,117.75847809999868,118.55911519999972,118.54379589999915,118.5438381999993,118.55911519999972,118.55911519999972,118.55911519999972,123.54341749999912,124.07964319999884,left,1.0,20.515426100000692,,124.08066829999916,124.09315019999848,124.57854899999984,124.59329389999948,,,,,,,,,,,,,,,,,,,,,,,,,,sub-192,1.0,random_dot,60.27033656768309,
right,right,,6.0,1.0,13.0,1.0,,,,,,,,,124.59329389999948,,,,,,,,,124.57951429999956,124.94268399999964,125.74377579999964,125.7276493999998,125.72767889999886,125.74377579999964,125.74377579999964,125.74377579999964,,129.1135749999994,right,1.0,18.358889700000876,,129.11439329999848,129.12733339999977,129.61243869999998,129.6273244999993,,,,,,,,,,,,,,,,,,,,,,,,,,sub-192,1.0,random_dot,60.27033656768309,
left,left,,7.0,0.0,14.0,0.0,,,,,,,,,129.6273244999993,,,,,,,,,129.6134065999995,129.97743969999829,130.77790169999935,130.7629281999998,130.7629782999993,130.77790169999935,130.77790169999935,130.77790169999935,135.7624995999995,136.09825889999956,right,0.0,20.325183600001765,,136.09910409999975,136.1113609999993,136.59732899999835,136.61194629999954,,,,,,,,,,,,,,,,,,,,,,,,,,sub-192,1.0,random_dot,60.27033656768309,
right,right,,7.0,1.0,15.0,1.0,,,,,,,,,136.61194629999954,,,,,,,,,136.59825049999927,137.4115656999984,138.2123971000001,138.19709059999877,138.19713769999908,138.2123971000001,138.2123971000001,138.2123971000001,143.19693479999842,143.6154418999995,left,0.0,20.39796920000117,,143.61677139999847,143.62973479999891,144.11546409999937,144.12999669999954,,,,,,,,,,,,,,,,,,,,,,,,,,sub-192,1.0,random_dot,60.27033656768309,
left,left,,8.0,0.0,16.0,0.0,,,,,,,,,144.12999669999954,,,,,,,,,144.11635249999927,144.92979969999942,145.73036499999944,145.7155559999992,145.7156073999995,145.73036499999944,145.73036499999944,145.73036499999944,150.7147901999997,151.36825279999903,right,0.0,20.633990800000905,,151.36911749999854,151.38096359999872,151.86595429999943,151.88099239999974,,,,,,,,,,,,,,,,,,,,,,,,,,sub-192,1.0,random_dot,60.27033656768309,
right,right,,8.0,1.0,17.0,1.0,,,,,,,,,151.88099239999974,,,,,,,,,151.8672904999985,153.08113159999994,153.88161529999888,153.8667293999988,153.86677209999834,153.88161529999888,153.88161529999888,153.88161529999888,158.8664336999991,159.2362648999988,right,1.0,20.35688400000072,,159.23716699999932,159.2490304999992,159.73450199999934,159.74956119999842,,,,,,,,,,,,,,,,,,,,,,,,,,sub-192,1.0,random_dot,60.27033656768309,
right,right,,9.0,0.0,18.0,1.0,,,,,,,,,159.74956119999842,,,,,,,,,159.7353848999992,159.8490499999989,160.64992189999975,160.6344918999985,160.63455369999974,160.64992189999975,160.64992189999975,160.64992189999975,165.63420399999995,166.1860979999983,left,0.0,20.537888800001383,,166.18727269999908,166.2002149999989,166.68624759999875,166.7004124999985,,,,,,,,,,,,,,,,,,,,,,,,,,sub-192,1.0,random_dot,60.27033656768309,
left,left,,9.0,1.0,19.0,0.0,,,,,,,,,166.7004124999985,,,,,,,,,166.68710800000008,167.05039049999868,167.85111499999948,167.83557669999936,167.83562729999903,167.85111499999948,167.85111499999948,167.85111499999948,172.83505549999973,173.20569949999845,right,0.0,20.35573850000037,,173.20659720000003,173.21843829999852,173.70353969999996,173.71851119999883,,,,,,,,,,,,,,,,,,,,,,,,,,sub-192,1.0,random_dot,60.27033656768309,
,,,,,,,,,,,,,,,,,,,,,,,,,,,,,,,,,,,,,,,,,,173.70366059999833,173.71851119999883,173.71851119999883,197.00993620000008,space,38.279230400001325,,,,,,,,,,,,,,,,,,,,sub-192,1.0,random_dot,60.27033656768309,
,,,,,,,,,,,,,,,,,,,,,,,,,,,,,,,,,,,,,,,,,,,,,,,,,197.01001839999844,197.022740299999,197.022740299999,200.40928249999888,space,18.38103030000275,,,,,,,,,,,,,sub-192,1.0,random_dot,60.27033656768309,
right,right,speed,,,,,0.0,0.0,0.0,1.0,0.0,0.0,0.0,1.0,222.7626911999996,,,,,,,,,222.75901919999887,222.86046819999865,223.66147619999904,223.64549429999897,223.6455361999997,223.66147619999904,223.66147619999904,223.66147619999904,228.645790999999,228.9650933999983,right,1.0,20.29982420000124,,,,,,,,,,,,,,,,,,,,200.44312719999837,200.4674394999984,200.4674394999984,222.7480969999997,space,37.28409730000021,,,,,,sub-192,1.0,random_dot,60.27033656768309,
left,left,speed,,,,,0.0,0.0,0.0,1.0,0.0,1.0,1.0,0.0,228.9785428999985,,,,,,,,,228.9671070999993,229.07865179999865,229.87912979999965,229.8641269,229.8641693999998,229.87912979999965,229.87912979999965,229.87912979999965,,234.1658700999997,right,0.0,19.282519700000197,,,,,,,,,,,,,,,,,,,,,,,,,,,,,,,sub-192,1.0,random_dot,60.27033656768309,
left,left,speed,,,,,0.0,0.0,0.0,1.0,1.0,0.0,2.0,0.0,234.1791177999985,,,,,,,,,234.1678798999983,235.3793330999997,236.18016629999877,236.1644190999996,236.16445529999876,236.18016629999877,236.18016629999877,236.18016629999877,,238.94951389999915,left,1.0,17.77013430000079,,,,,,,,,,,,,,,,,,,,,,,,,,,,,,,sub-192,1.0,random_dot,60.27033656768309,
right,right,speed,,,,,0.0,0.0,0.0,1.0,1.0,1.0,3.0,1.0,238.96326579999916,,,,,,,,,238.95070799999849,239.76334309999947,240.56421549999868,240.54893889999948,240.54898199999843,240.56421549999868,240.56421549999868,240.56421549999868,245.54870329999903,246.00198829999863,right,1.0,20.44201310000244,,,,,,,,,,,,,,,,,,,,,,,,,,,,,,,sub-192,1.0,random_dot,60.27033656768309,
left,left,speed,,,,,0.0,0.0,0.0,1.0,2.0,0.0,4.0,0.0,246.0145455999991,,,,,,,,,246.0031763999996,246.36501159999895,247.16518709999943,247.15013649999852,247.15019239999856,247.16518709999943,247.16518709999943,247.16518709999943,252.14961649999896,252.48713279999905,left,1.0,20.313421600001675,,,,,,,,,,,,,,,,,,,,,,,,,,,,,,,sub-192,1.0,random_dot,60.27033656768309,
right,right,speed,,,,,0.0,0.0,0.0,1.0,2.0,1.0,5.0,1.0,252.4990972999985,,,,,,,,,252.4891355,253.69915589999985,254.5002317999988,254.4847584999989,254.4847981999992,254.5002317999988,254.5002317999988,254.5002317999988,,257.4533367999993,left,0.0,17.945409400001154,,,,,,,,,,,,,,,,,,,,,,,,,,,,,,,sub-192,1.0,random_dot,60.27033656768309,
left,left,speed,,,,,0.0,0.0,0.0,1.0,3.0,0.0,6.0,0.0,257.4668327999989,,,,,,,,,257.4549085999988,258.66703939999934,259.4677290999989,259.4520950999995,259.4521430999994,259.4677290999989,259.4677290999989,259.4677290999989,,263.55464329999995,right,0.0,19.08889630000158,,,,,,,,,,,,,,,,,,,,,,,,,,,,,,,sub-192,1.0,random_dot,60.27033656768309,
right,right,speed,,,,,0.0,0.0,0.0,1.0,3.0,1.0,7.0,1.0,263.56751449999865,,,,,,,,,263.5560491999986,264.36792309999873,265.1686725,265.1526767999985,265.15271399999983,265.1686725,265.1686725,265.1686725,270.15285289999883,270.5896954,right,1.0,20.42296300000089,,,,,,,,,,,,,,,,,,,,,,,,,,,,,,,sub-192,1.0,random_dot,60.27033656768309,
left,left,speed,,,,,0.0,0.0,0.0,1.0,4.0,0.0,8.0,0.0,270.6023325999995,,,,,,,,,270.59109889999854,271.80226869999933,272.60287919999973,272.58862169999884,272.58866510000007,272.60287919999973,272.60287919999973,272.60287919999973,,276.17279139999846,left,1.0,18.57197170000109,,,,,,,,,,,,,,,,,,,,,,,,,,,,,,,sub-192,1.0,random_dot,60.27033656768309,
right,right,speed,,,,,0.0,0.0,0.0,1.0,4.0,1.0,9.0,1.0,276.1866259999988,,,,,,,,,276.17381449999993,277.3870189999998,278.18741879999834,278.1719885999992,278.1720319999986,278.18741879999834,278.18741879999834,278.18741879999834,283.17174909999994,283.4081753999999,left,0.0,20.216522600001557,,,,,,,,,,,,,,,,,,,,,,,,,,,,,,,sub-192,1.0,random_dot,60.27033656768309,
right,right,speed,,,,,0.0,0.0,0.0,1.0,5.0,0.0,10.0,1.0,283.4216139999989,,,,,,,,,283.40987399999904,283.52148209999905,284.3221426999989,284.3071332999989,284.3071805999989,284.3221426999989,284.3221426999989,284.3221426999989,,286.6916077999995,right,1.0,17.37327610000102,,,,,,,,,,,,,,,,,,,,,,,,,,,,,,,sub-192,1.0,random_dot,60.27033656768309,
left,left,speed,,,,,0.0,0.0,0.0,1.0,5.0,1.0,11.0,0.0,286.70525859999907,,,,,,,,,286.6928511999995,287.50529039999856,288.3062267999994,288.2910355999993,288.2910979999997,288.3062267999994,288.3062267999994,288.3062267999994,,290.9761456999986,left,1.0,17.65937590000067,,,,,,,,,,,,,,,,,,,,,,,,,,,,,,,sub-192,1.0,random_dot,60.27033656768309,
right,right,speed,,,,,0.0,0.0,0.0,1.0,6.0,0.0,12.0,1.0,290.9895258999986,,,,,,,,,290.9779486999996,291.7897114999996,292.59054809999907,292.57532589999937,292.57537779999984,292.59054809999907,292.59054809999907,292.59054809999907,,295.42737579999994,right,1.0,17.828543100002207,,,,,,,,,,,,,,,,,,,,,,,,,,,,,,,sub-192,1.0,random_dot,60.27033656768309,
left,left,speed,,,,,0.0,0.0,0.0,1.0,6.0,1.0,13.0,0.0,295.4402193999995,,,,,,,,,295.4290433999995,295.79030429999875,296.5909974999995,296.57548359999964,296.5755726999996,296.5909974999995,296.5909974999995,296.5909974999995,,300.5439170999998,left,1.0,18.949734100002388,,,,,,,,,,,,,,,,,,,,,,,,,,,,,,,sub-192,1.0,random_dot,60.27033656768309,
right,right,speed,,,,,0.0,0.0,0.0,1.0,7.0,0.0,14.0,1.0,300.5573701999984,,,,,,,,,300.5461351999984,300.9079269999984,301.70830039999964,301.69318249999924,301.69322959999954,301.70830039999964,301.70830039999964,301.70830039999964,,305.27735649999886,right,1.0,18.572232300000906,,,,,,,,,,,,,,,,,,,,,,,,,,,,,,,sub-192,1.0,random_dot,60.27033656768309,
left,left,speed,,,,,0.0,0.0,0.0,1.0,7.0,1.0,15.0,0.0,305.2918336999992,,,,,,,,,305.27878710000005,306.0923948999989,306.8924661000001,306.87889149999864,306.87891129999844,306.8924661000001,306.8924661000001,306.8924661000001,,309.4622505999996,left,1.0,17.570209700001215,,,,,,,,,,,,,,,,,,,,,,,,,,,,,,,sub-192,1.0,random_dot,60.27033656768309,
left,left,speed,,,,,0.0,0.0,0.0,1.0,8.0,0.0,16.0,0.0,309.47587719999865,,,,,,,,,309.4637828999985,310.6766040999992,311.47675029999846,311.46165349999865,311.4616943000001,311.47675029999846,311.47675029999846,311.47675029999846,316.46088379999856,316.8978026999994,right,0.0,20.423857800002224,,,,,,,,,,,,,,,,,,,,,,,,,,,,,,,sub-192,1.0,random_dot,60.27033656768309,
right,right,speed,,,,,0.0,0.0,0.0,1.0,8.0,1.0,17.0,1.0,316.91068639999867,,,,,,,,,316.8993699999992,318.11065339999914,318.91136499999993,318.8968548999983,318.8969100999984,318.91136499999993,318.91136499999993,318.91136499999993,323.8959051999991,324.0985191,right,1.0,20.181416000001263,,,,,,,,,,,,,,,,,,,,,,,,,,,,,,,sub-192,1.0,random_dot,60.27033656768309,
left,left,speed,,,,,0.0,0.0,0.0,1.0,9.0,0.0,18.0,0.0,324.1117964999994,,,,,,,,,324.1000656999986,324.4619599999987,325.2624286999999,325.24742549999974,325.24746349999987,325.2624286999999,325.2624286999999,325.2624286999999,,329.31649639999887,left,1.0,19.047043100001247,,,,,,,,,,,,,,,,,,,,,,,,,,,,,,,sub-192,1.0,random_dot,60.27033656768309,
right,right,speed,,,,,0.0,0.0,0.0,1.0,9.0,1.0,19.0,1.0,329.32944939999834,,,,,,,,,329.31795280000006,329.6796031999984,330.48029789999964,330.4638838999999,330.4639113999983,330.48029789999964,330.48029789999964,330.48029789999964,,333.4827330999997,right,1.0,17.998701100003018,,,,,,,,,,,,,,,,,,,,,,,,,,,,,,,sub-192,1.0,random_dot,60.27033656768309,
left,left,speed,,,,,0.0,0.0,0.0,1.0,10.0,0.0,20.0,0.0,333.4968979999994,,,,,,,,,333.4843618999985,333.84732689999873,334.6478157999991,334.63295519999883,334.6329920999997,334.6478157999991,334.6478157999991,334.6478157999991,,339.41801119999946,left,1.0,19.76386530000127,,,,,,,,,,,,,,,,,,,,,,,,,,,,,,,sub-192,1.0,random_dot,60.27033656768309,
right,right,speed,,,,,0.0,0.0,0.0,1.0,10.0,1.0,21.0,1.0,339.4315014999993,,,,,,,,,339.4193611999999,339.78204949999963,340.5824365999997,340.5668104999986,340.56686269999955,340.5824365999997,340.5824365999997,340.5824365999997,345.5659910999984,345.9194338999987,right,1.0,20.334932100000515,,,,,,,,,,,,,,,,,,,,,,,,,,,,,,,sub-192,1.0,random_dot,60.27033656768309,
left,left,speed,,,,,0.0,0.0,0.0,1.0,11.0,0.0,22.0,0.0,345.93268929999977,,,,,,,,,345.92125919999853,347.1330358999985,347.93388889999915,347.9184682999985,347.9185155999985,347.93388889999915,347.93388889999915,347.93388889999915,,351.5873780999991,left,1.0,18.654851200002668,,,,,,,,,,,,,,,,,,,,,,,,,,,,,,,sub-192,1.0,random_dot,60.27033656768309,
right,right,speed,,,,,0.0,0.0,0.0,1.0,11.0,1.0,23.0,1.0,351.600312999999,,,,,,,,,351.5886539999992,351.9503595999995,352.75101969999923,352.7358045000001,352.7358586999999,352.75101969999923,352.75101969999923,352.75101969999923,,355.3530710999985,left,0.0,17.60563380000167,,,,,,,,,,,,,,,,,,,,,,,,,,,,,,,sub-192,1.0,random_dot,60.27033656768309,
left,left,speed,,,,,0.0,0.0,0.0,1.0,12.0,0.0,24.0,0.0,355.3675255999988,,,,,,,,,355.354609,356.56766289999905,357.3682503,357.35360619999847,357.35365490000004,357.3682503,357.3682503,357.3682503,,361.2551297999999,left,1.0,18.884831700002906,,,,,,,,,,,,,,,,,,,,,,,,,,,,,,,sub-192,1.0,random_dot,60.27033656768309,
right,right,speed,,,,,0.0,0.0,0.0,1.0,12.0,1.0,25.0,1.0,361.2686976999994,,,,,,,,,361.2565132,361.3687926999992,362.1692002,362.1544440999987,362.1544927999985,362.1692002,362.1692002,362.1692002,367.1698638999988,367.6723251999993,right,1.0,20.494681900001524,,,,,,,,,,,,,,,,,,,,,,,,,,,,,,,sub-192,1.0,random_dot,60.27033656768309,
right,right,speed,,,,,0.0,0.0,0.0,1.0,13.0,0.0,26.0,1.0,367.6864117999994,,,,,,,,,367.674268499999,368.4867075999992,369.28699419999975,369.2720769999996,369.27218379999977,369.28699419999975,369.28699419999975,369.28699419999975,,373.5235064999997,right,1.0,19.227924100001477,,,,,,,,,,,,,,,,,,,,,,,,,,,,,,,sub-192,1.0,random_dot,60.27033656768309,
left,left,speed,,,,,0.0,0.0,0.0,1.0,13.0,1.0,27.0,0.0,373.5377394999996,,,,,,,,,373.5247875999994,374.3381280999984,375.13835239999935,375.1223127999983,375.1223541,375.13835239999935,375.13835239999935,375.13835239999935,,377.1577530999984,left,1.0,17.01916120000169,,,,,,,,,,,,,,,,,,,,,,,,,,,,,,,sub-192,1.0,random_dot,60.27033656768309,
right,right,speed,,,,,0.0,0.0,0.0,1.0,14.0,0.0,28.0,1.0,377.1716751999993,,,,,,,,,377.1593675999993,378.37154759999976,379.1719755999984,379.1573340999985,379.1573779999999,379.1719755999984,379.1719755999984,379.1719755999984,,381.4416437999989,right,1.0,17.259672600001068,,,,,,,,,,,,,,,,,,,,,,,,,,,,,,,sub-192,1.0,random_dot,60.27033656768309,
left,left,speed,,,,,0.0,0.0,0.0,1.0,14.0,1.0,29.0,0.0,381.4551586999987,,,,,,,,,381.4434963999993,382.6558587999989,383.4565870999995,383.4415062999997,383.44154609999896,383.4565870999995,383.4565870999995,383.4565870999995,,385.40888239999913,left,1.0,16.942210900002465,,,,,,,,,,,,,,,,,,,,,,,,,,,,,,,sub-192,1.0,random_dot,60.27033656768309,
right,right,speed,,,,,0.0,0.0,0.0,1.0,15.0,0.0,30.0,1.0,385.4226832999993,,,,,,,,,385.4105333999996,385.7734256999993,386.5732251999998,386.5583870999999,386.5584278999995,386.5732251999998,386.5732251999998,386.5732251999998,391.55823429999873,391.8608874999991,right,1.0,20.277910100001463,,,,,,,,,,,,,,,,,,,,,,,,,,,,,,,sub-192,1.0,random_dot,60.27033656768309,
left,left,speed,,,,,0.0,0.0,0.0,1.0,15.0,1.0,31.0,0.0,391.8740518999985,,,,,,,,,391.8625120999986,392.6741198,393.474768099999,393.4600498,393.4601023999985,393.474768099999,393.474768099999,393.474768099999,398.4754618999996,398.9627340999996,right,0.0,20.478658400001223,,,,,,,,,,,,,,,,,,,,,,,,,,,,,,,sub-192,1.0,random_dot,60.27033656768309,
right,right,speed,,,,,0.0,0.0,0.0,1.0,16.0,0.0,32.0,1.0,398.9752357999987,,,,,,,,,398.9644252999988,399.325079799999,400.1260542999989,400.11053919999904,400.11058199999934,400.1260542999989,400.1260542999989,400.1260542999989,,403.9285810999991,right,1.0,18.796552600002546,,,,,,,,,,,,,,,,,,,,,,,,,,,,,,,sub-192,1.0,random_dot,60.27033656768309,
left,left,speed,,,,,0.0,0.0,0.0,1.0,16.0,1.0,33.0,0.0,403.9427282999986,,,,,,,,,403.9299522999991,404.2926441999989,405.0938695999994,405.07749259999946,405.0775246999983,405.0938695999994,405.0938695999994,405.0938695999994,,407.24753539999983,left,1.0,17.145942700002706,,,,,,,,,,,,,,,,,,,,,,,,,,,,,,,sub-192,1.0,random_dot,60.27033656768309,
right,right,speed,,,,,0.0,0.0,0.0,1.0,17.0,0.0,34.0,1.0,407.2601705999987,,,,,,,,,407.2487131999988,408.0601480999994,408.8603384999988,408.8459793999991,408.84602339999947,408.8603384999988,408.8603384999988,408.8603384999988,,413.7808182999997,right,1.0,19.924400600002627,,,,,,,,,,,,,,,,,,,,,,,,,,,,,,,sub-192,1.0,random_dot,60.27033656768309,
left,left,speed,,,,,0.0,0.0,0.0,1.0,17.0,1.0,35.0,0.0,413.7945254999995,,,,,,,,,413.78271179999865,414.5949022999994,415.395849999999,415.3805734999987,415.380620599999,415.395849999999,415.395849999999,415.395849999999,,418.9313634999999,left,1.0,18.53340650000064,,,,,,,,,,,,,,,,,,,,,,,,,,,,,,,sub-192,1.0,random_dot,60.27033656768309,
left,left,speed,,,,,0.0,0.0,0.0,1.0,18.0,0.0,36.0,0.0,418.94584439999926,,,,,,,,,418.93268159999934,419.74583209999946,420.54662800000006,420.5305069999995,420.5305449999996,420.54662800000006,420.54662800000006,420.54662800000006,,422.8155311999999,left,1.0,17.262835700001233,,,,,,,,,,,,,,,,,,,,,,,,,,,,,,,sub-192,1.0,random_dot,60.27033656768309,
right,right,speed,,,,,0.0,0.0,0.0,1.0,18.0,1.0,37.0,1.0,422.8295283999996,,,,,,,,,422.8171199999997,423.1797448999987,423.9806759999992,423.965463999999,423.9655120999996,423.9806759999992,423.9806759999992,423.9806759999992,,426.850814899999,right,1.0,17.866139800002202,,,,,,,,,,,,,,,,,,,,,,,,,,,,,,,sub-192,1.0,random_dot,60.27033656768309,
left,left,speed,,,,,0.0,0.0,0.0,1.0,19.0,0.0,38.0,0.0,426.8635130999992,,,,,,,,,426.8526106999998,427.2138590999984,428.01453859999856,427.9991713,427.999243799999,428.01453859999856,428.01453859999856,428.01453859999856,,429.4183392999985,left,1.0,16.400939000001017,,,,,,,,,,,,,,,,,,,,,,,,,,,,,,,sub-192,1.0,random_dot,60.27033656768309,
right,right,speed,,,,,0.0,0.0,0.0,1.0,19.0,1.0,39.0,1.0,429.4307033999994,,,,,,,,,429.4203142999995,430.2309639999985,431.0312594999996,431.0158449999999,431.01587969999855,431.0312594999996,431.0312594999996,431.0312594999996,,432.5173752999999,right,1.0,16.478629200000796,,,,,,,,,,,,,,,,,,,,,,,,,,,,,,,sub-192,1.0,random_dot,60.27033656768309,
right,right,speed,,,,,0.0,0.0,0.0,1.0,20.0,0.0,40.0,1.0,432.5315465999993,,,,,,,,,432.5187234999994,432.8813645999999,433.6820943999992,433.6666513,433.6666892999983,433.6820943999992,433.6820943999992,433.6820943999992,,438.1864247999984,right,1.0,19.50561590000143,,,,,,,,,,,,,,,,,,,,,,,,,,,,,,,sub-192,1.0,random_dot,60.27033656768309,
left,left,speed,,,,,0.0,0.0,0.0,1.0,20.0,1.0,41.0,0.0,438.19891899999857,,,,,,,,,438.1884713,438.2993343999988,439.0998965999988,439.0843960999992,439.0844425999985,439.0998965999988,439.0998965999988,439.0998965999988,,440.2530401999993,left,1.0,16.144082400001935,,,,,,,,,,,,,,,,,,,,,,,,,,,,,,,sub-192,1.0,random_dot,60.27033656768309,
right,right,speed,,,,,0.0,0.0,0.0,1.0,21.0,0.0,42.0,1.0,440.2659274999987,,,,,,,,,440.2544487999985,441.4664992999988,442.2672747999986,442.25186829999984,442.2519660999988,442.2672747999986,442.2672747999986,442.2672747999986,,443.7377422999998,right,1.0,16.462301900000966,,,,,,,,,,,,,,,,,,,,,,,,,,,,,,,sub-192,1.0,random_dot,60.27033656768309,
left,left,speed,,,,,0.0,0.0,0.0,1.0,21.0,1.0,43.0,0.0,443.7503355999997,,,,,,,,,443.7394074999993,444.1000887999999,444.9005271999995,444.8858168999996,444.8858633999989,444.9005271999995,444.9005271999995,444.9005271999995,,446.2200485999984,left,1.0,16.309692100001485,,,,,,,,,,,,,,,,,,,,,,,,,,,,,,,sub-192,1.0,random_dot,60.27033656768309,
left,left,speed,,,,,0.0,0.0,0.0,1.0,22.0,0.0,44.0,0.0,446.23426560000007,,,,,,,,,446.2261441999999,447.4348457999986,448.23440859999937,448.2197996999985,448.21983759999966,448.23440859999937,448.23440859999937,448.23440859999937,,449.0713575999998,left,1.0,15.830667100002756,,,,,,,,,,,,,,,,,,,,,,,,,,,,,,,sub-192,1.0,random_dot,60.27033656768309,
right,right,speed,,,,,0.0,0.0,0.0,1.0,22.0,1.0,45.0,1.0,449.0838309999999,,,,,,,,,449.0740065999999,449.8844124999996,450.6850029999987,450.6700843999988,450.6701309,450.6850029999987,450.6850029999987,450.6850029999987,,451.73832479999874,right,1.0,16.055110100000093,,,,,,,,,,,,,,,,,,,,,,,,,,,,,,,sub-192,1.0,random_dot,60.27033656768309,
left,left,speed,,,,,0.0,0.0,0.0,1.0,23.0,0.0,46.0,0.0,451.7512381999986,,,,,,,,,451.7399281999988,452.5520755999987,453.3520347999984,453.33663759999945,453.33668529999886,453.3520347999984,453.3520347999984,453.3520347999984,,454.6566116999984,left,1.0,16.29518140000073,,,,,,,,,,,,,,,,,,,,,,,,,,,,,,,sub-192,1.0,random_dot,60.27033656768309,
right,right,speed,,,,,0.0,0.0,0.0,1.0,23.0,1.0,47.0,1.0,454.6685669999988,,,,,,,,,454.6580101999989,455.4689223999994,456.269877499999,456.2548205999992,456.2548683999994,456.269877499999,456.269877499999,456.269877499999,,457.25671319999856,right,1.0,15.99072900000283,,,,,,,,,,,,,,,,,,,,,,,,,,,,,,,sub-192,1.0,random_dot,60.27033656768309,
right,right,speed,,,,,0.0,0.0,0.0,1.0,24.0,0.0,48.0,1.0,457.2689771999994,,,,,,,,,457.2588802999999,458.0692366999992,458.8698767999995,458.8551140999989,458.855157,458.8698767999995,458.8698767999995,458.8698767999995,463.8711121999986,464.4079273999996,left,0.0,20.5406092000012,,,,,,,,,,,,,,,,,,,,,,,,,,,,,,,sub-192,1.0,random_dot,60.27033656768309,
left,left,speed,,,,,0.0,0.0,0.0,1.0,24.0,1.0,49.0,0.0,464.4201779999985,,,,,,,,,464.4100312999999,465.2208328999986,466.0211984999987,466.00615149999976,466.0062109999999,466.0211984999987,466.0211984999987,466.0211984999987,,470.524561799999,right,0.0,19.49532530000033,,,,,,,,,,,,,,,,,,,,,,,,,,,,,,,sub-192,1.0,random_dot,60.27033656768309,
left,left,speed,,,,,0.0,0.0,0.0,1.0,25.0,0.0,50.0,0.0,470.53843679999954,,,,,,,,,470.5263256999988,471.3384993999989,472.1392189999988,472.12469129999954,472.1247375999992,472.1392189999988,472.1392189999988,472.1392189999988,,473.65874879999865,right,0.0,16.51848390000123,,,,,,,,,,,,,,,,,,,,,,,,,,,,,,,sub-192,1.0,random_dot,60.27033656768309,
right,right,speed,,,,,0.0,0.0,0.0,1.0,25.0,1.0,51.0,1.0,473.6720258999994,,,,,,,,,473.6605943999984,474.8724749999983,475.67304779999904,475.6572380999987,475.6572708999993,475.67304779999904,475.67304779999904,475.67304779999904,,480.3779209999993,right,1.0,19.70782930000132,,,,,,,,,,,,,,,,,,,,,,,,,,,,,,,sub-192,1.0,random_dot,60.27033656768309,
right,right,speed,,,,,0.0,0.0,0.0,1.0,26.0,0.0,52.0,1.0,480.3897466999988,,,,,,,,,480.37967819999903,481.5907153999997,482.39062899999954,482.3763872,482.3764307999991,482.39062899999954,482.39062899999954,482.39062899999954,487.391257199999,487.8448641999985,right,1.0,20.44984110000223,,,,,,,,,,,,,,,,,,,,,,,,,,,,,,,sub-192,1.0,random_dot,60.27033656768309,
left,left,speed,,,,,0.0,0.0,0.0,1.0,26.0,1.0,53.0,0.0,487.8577692999989,,,,,,,,,487.8465247999993,487.9577961999985,488.75858199999857,488.7440534999987,488.74410459999854,488.75858199999857,488.75858199999857,488.75858199999857,,489.74567979999847,left,1.0,15.990378300002703,,,,,,,,,,,,,,,,,,,,,,,,,,,,,,,sub-192,1.0,random_dot,60.27033656768309,
left,left,speed,,,,,0.0,0.0,0.0,1.0,27.0,0.0,54.0,0.0,489.7579076999991,,,,,,,,,489.74770889999854,489.8584527999992,490.65892619999977,490.644029699999,490.6440813999998,490.65892619999977,490.65892619999977,490.65892619999977,,491.8120009999984,left,1.0,16.149117700002535,,,,,,,,,,,,,,,,,,,,,,,,,,,,,,,sub-192,1.0,random_dot,60.27033656768309,
right,right,speed,,,,,0.0,0.0,0.0,1.0,27.0,1.0,55.0,1.0,491.8256521999992,,,,,,,,,491.813556699999,492.1757751999994,492.9763307999983,492.9605783999996,492.9606372999988,492.9763307999983,492.9763307999983,492.9763307999983,,494.1464489999999,right,1.0,16.17430520000198,,,,,,,,,,,,,,,,,,,,,,,,,,,,,,,sub-192,1.0,random_dot,60.27033656768309,
right,right,speed,,,,,0.0,0.0,0.0,1.0,28.0,0.0,56.0,1.0,494.1587634999996,,,,,,,,,494.14779389999967,494.25927239999874,495.0599893999988,495.0442192999999,495.0442675999984,495.0599893999988,495.0599893999988,495.0599893999988,,495.8122164999986,left,0.0,15.748368200002004,,,,,,,,,,,,,,,,,,,,,,,,,,,,,,,sub-192,1.0,random_dot,60.27033656768309,
left,left,speed,,,,,0.0,0.0,0.0,1.0,28.0,1.0,57.0,0.0,495.8259557999991,,,,,,,,,495.8135636999996,495.9259790999986,496.7269632999996,496.7122149999996,496.71230419999847,496.7269632999996,496.7269632999996,496.7269632999996,,497.94600589999936,left,1.0,16.217854500000612,,,,,,,,,,,,,,,,,,,,,,,,,,,,,,,sub-192,1.0,random_dot,60.27033656768309,
right,right,speed,,,,,0.0,0.0,0.0,1.0,29.0,0.0,58.0,1.0,497.9598923999984,,,,,,,,,497.94789039999887,498.3102460999999,499.1108866999985,499.0953095999994,499.0953609999997,499.1108866999985,499.1108866999985,499.1108866999985,,499.8134530999996,right,1.0,15.700720900002125,,,,,,,,,,,,,,,,,,,,,,,,,,,,,,,sub-192,1.0,random_dot,60.27033656768309,
left,left,speed,,,,,0.0,0.0,0.0,1.0,29.0,1.0,59.0,0.0,499.82666549999885,,,,,,,,,499.8148357999999,500.62720889999946,501.4273069999999,501.4123956999993,501.41244369999913,501.4273069999999,501.4273069999999,501.4273069999999,,502.7139287999999,right,0.0,16.287594200000967,,,,,,,,,,,,,,,,,,,,,,,,,,,,,,,sub-192,1.0,random_dot,60.27033656768309,
,,speed,,,,,0.0,0.0,0.0,1.0,,,,,,,,,,,,,,,,,,,,,,,,,,,,,,,,,,,,,,,,,,,,,,,,,,,,,,,,,sub-192,1.0,random_dot,60.27033656768309,
right,right,accuracy,,,,,0.0,1.0,1.0,0.0,0.0,0.0,0.0,1.0,524.5481191999988,,,,,,,,,524.5445677999996,525.3480740999985,526.1486006999985,526.1318480999998,526.1318772999985,526.1486006999985,526.1486006999985,526.1486006999985,,527.6182519999984,right,1.0,16.474570800000947,,,,,,,,,,,,,,,,,,,,502.7156344999985,502.73105739999846,502.73105739999846,524.5339102999988,space,36.79387310000129,,,,,,sub-192,1.0,random_dot,60.27033656768309,
left,left,accuracy,,,,,0.0,1.0,1.0,0.0,0.0,1.0,1.0,0.0,527.6314605999996,,,,,,,,,527.6197974999995,528.8323152999983,529.6327316999996,529.6171675999994,529.6172067999996,529.6327316999996,529.6327316999996,529.6327316999996,534.6160432999986,534.6033511999995,left,1.0,19.970495000001392,,,,,,,,,,,,,,,,,,,,,,,,,,,,,,,sub-192,1.0,random_dot,60.27033656768309,
left,left,accuracy,,,,,0.0,1.0,1.0,0.0,1.0,0.0,2.0,0.0,534.6160432999986,,,,,,,,,534.6046983999986,535.8164748999989,536.6167157,536.6024879999986,536.6025283999988,536.6167157,536.6167157,536.6167157,,538.9035151999997,left,1.0,17.282178200001,,,,,,,,,,,,,,,,,,,,,,,,,,,,,,,sub-192,1.0,random_dot,60.27033656768309,
right,right,accuracy,,,,,0.0,1.0,1.0,0.0,1.0,1.0,3.0,1.0,538.9168332999998,,,,,,,,,538.9059132999992,539.0168869999998,539.8178029999999,539.8026957999991,539.8027409999995,539.8178029999999,539.8178029999999,539.8178029999999,,540.8707183999995,right,1.0,16.053980100001354,,,,,,,,,,,,,,,,,,,,,,,,,,,,,,,sub-192,1.0,random_dot,60.27033656768309,
left,left,accuracy,,,,,0.0,1.0,1.0,0.0,2.0,0.0,4.0,0.0,540.8840378999994,,,,,,,,,540.8720776999999,540.9840941999992,541.7846339999996,541.7693174999986,541.7693611999985,541.7846339999996,541.7846339999996,541.7846339999996,,545.5385160999995,left,1.0,18.755826000000525,,,,,,,,,,,,,,,,,,,,,,,,,,,,,,,sub-192,1.0,random_dot,60.27033656768309,
right,right,accuracy,,,,,0.0,1.0,1.0,0.0,2.0,1.0,5.0,1.0,545.5516804999988,,,,,,,,,545.5399819999984,546.7519818000001,547.5527065999995,547.5376159999996,547.5377091999999,547.5527065999995,547.5527065999995,547.5527065999995,,548.9383706999997,right,1.0,16.388606000000436,,,,,,,,,,,,,,,,,,,,,,,,,,,,,,,sub-192,1.0,random_dot,60.27033656768309,
left,left,accuracy,,,,,0.0,1.0,1.0,0.0,3.0,0.0,6.0,0.0,548.9520089999987,,,,,,,,,548.939847399999,550.152618099999,550.9530793999984,550.9377046999998,550.9377378999998,550.9530793999984,550.9530793999984,550.9530793999984,555.9376018999992,556.5064957999984,left,1.0,20.55116590000216,,,,,,,,,,,,,,,,,,,,,,,,,,,,,,,sub-192,1.0,random_dot,60.27033656768309,
right,right,accuracy,,,,,0.0,1.0,1.0,0.0,3.0,1.0,7.0,1.0,556.5201397000001,,,,,,,,,556.5087581999996,556.6202469999989,557.4208531999993,557.4053575999988,557.4054155999984,557.4208531999993,557.4208531999993,557.4208531999993,,559.0073188999995,right,1.0,16.575745400001324,,,,,,,,,,,,,,,,,,,,,,,,,,,,,,,sub-192,1.0,random_dot,60.27033656768309,
left,left,accuracy,,,,,0.0,1.0,1.0,0.0,4.0,0.0,8.0,0.0,559.0207202999991,,,,,,,,,559.0088299999989,559.370593399999,560.1716867999985,560.156583,560.1566426999998,560.1716867999985,560.1716867999985,560.1716867999985,,561.8417609999997,left,1.0,16.67257900000186,,,,,,,,,,,,,,,,,,,,,,,,,,,,,,,sub-192,1.0,random_dot,60.27033656768309,
right,right,accuracy,,,,,0.0,1.0,1.0,0.0,4.0,1.0,9.0,1.0,561.8545854999993,,,,,,,,,561.843139999999,562.2047048999993,563.0051446999987,562.9905607000001,562.9906091999983,563.0051446999987,563.0051446999987,563.0051446999987,,564.9583712999993,right,1.0,16.95523900000262,,,,,,,,,,,,,,,,,,,,,,,,,,,,,,,sub-192,1.0,random_dot,60.27033656768309,
right,right,accuracy,,,,,0.0,1.0,1.0,0.0,5.0,0.0,10.0,1.0,564.9713791999984,,,,,,,,,564.9603761999988,566.1720135999985,566.9725715999994,566.956879899999,566.9569220999983,566.9725715999994,566.9725715999994,566.9725715999994,,569.3586246999985,right,1.0,17.37607830000161,,,,,,,,,,,,,,,,,,,,,,,,,,,,,,,sub-192,1.0,random_dot,60.27033656768309,
left,left,accuracy,,,,,0.0,1.0,1.0,0.0,5.0,1.0,11.0,0.0,569.3727471999991,,,,,,,,,569.3602118999988,569.7225180999994,570.5229756999997,570.5077842999999,570.5078314999992,570.5229756999997,570.5229756999997,570.5229756999997,,571.6600995999997,left,1.0,16.135952600003293,,,,,,,,,,,,,,,,,,,,,,,,,,,,,,,sub-192,1.0,random_dot,60.27033656768309,
right,right,accuracy,,,,,0.0,1.0,1.0,0.0,6.0,0.0,12.0,1.0,571.6727900999995,,,,,,,,,571.6619991999996,572.0233946999997,572.8236663999996,572.8079607,572.8080094999987,572.8236663999996,572.8236663999996,572.8236663999996,,577.1102991999996,right,1.0,19.288115900002595,,,,,,,,,,,,,,,,,,,,,,,,,,,,,,,sub-192,1.0,random_dot,60.27033656768309,
left,left,accuracy,,,,,0.0,1.0,1.0,0.0,6.0,1.0,13.0,0.0,577.1240381999996,,,,,,,,,577.1118925999999,577.9241518999988,578.7245523999991,578.7094682999996,578.7095113999985,578.7245523999991,578.7245523999991,578.7245523999991,,581.7782599999991,left,1.0,18.05216500000097,,,,,,,,,,,,,,,,,,,,,,,,,,,,,,,sub-192,1.0,random_dot,60.27033656768309,
right,right,accuracy,,,,,0.0,1.0,1.0,0.0,7.0,0.0,14.0,1.0,581.7915231999996,,,,,,,,,581.7795604999992,582.1418927999985,582.9417908999985,582.9265553999994,582.9266152,582.9417908999985,582.9417908999985,582.9417908999985,587.9263396999995,588.6461502999991,right,1.0,20.700582100002062,,,,,,,,,,,,,,,,,,,,,,,,,,,,,,,sub-192,1.0,random_dot,60.27033656768309,
left,left,accuracy,,,,,0.0,1.0,1.0,0.0,7.0,1.0,15.0,0.0,588.6592261999995,,,,,,,,,588.6480608999991,588.7592680999987,589.5599115999994,589.5449793999996,589.5450146999992,589.5599115999994,589.5599115999994,589.5599115999994,,591.4789641999996,left,1.0,16.908042300001398,,,,,,,,,,,,,,,,,,,,,,,,,,,,,,,sub-192,1.0,random_dot,60.27033656768309,
left,left,accuracy,,,,,0.0,1.0,1.0,0.0,8.0,0.0,16.0,0.0,591.4928090999983,,,,,,,,,591.4807507999994,592.2933194999987,593.0945090999994,593.0783018999991,593.0783348999994,593.0945090999994,593.0945090999994,593.0945090999994,,597.4642989999993,right,0.0,19.36909590000141,,,,,,,,,,,,,,,,,,,,,,,,,,,,,,,sub-192,1.0,random_dot,60.27033656768309,
right,right,accuracy,,,,,0.0,1.0,1.0,0.0,8.0,1.0,17.0,1.0,597.4774883999999,,,,,,,,,597.4656365999999,597.8277867999986,598.6286752999986,598.6125634999989,598.6126119,598.6286752999986,598.6286752999986,598.6286752999986,603.6127653999993,604.0821299999989,left,0.0,20.446417400002247,,,,,,,,,,,,,,,,,,,,,,,,,,,,,,,sub-192,1.0,random_dot,60.27033656768309,
right,right,accuracy,,,,,0.0,1.0,1.0,0.0,9.0,0.0,18.0,1.0,604.0953132999985,,,,,,,,,604.0844993999999,604.4453915999984,605.246296199999,605.231475999999,605.2315232000001,605.246296199999,605.246296199999,605.246296199999,,609.5005059999985,left,0.0,19.2567850000014,,,,,,,,,,,,,,,,,,,,,,,,,,,,,,,sub-192,1.0,random_dot,60.27033656768309,
left,left,accuracy,,,,,0.0,1.0,1.0,0.0,9.0,1.0,19.0,0.0,609.512666999999,,,,,,,,,609.5021927999987,610.3131231999996,611.1135310999998,611.0994317999994,611.0994778999993,611.1135310999998,611.1135310999998,611.1135310999998,,613.8845586999996,left,1.0,17.768521600000895,,,,,,,,,,,,,,,,,,,,,,,,,,,,,,,sub-192,1.0,random_dot,60.27033656768309,
right,right,accuracy,,,,,0.0,1.0,1.0,0.0,10.0,0.0,20.0,1.0,613.897481,,,,,,,,,613.8862667999983,614.697014899999,615.4977616999986,615.4823839000001,615.4824260999994,615.4977616999986,615.4977616999986,615.4977616999986,,620.4349246999991,right,1.0,19.932263100001364,,,,,,,,,,,,,,,,,,,,,,,,,,,,,,,sub-192,1.0,random_dot,60.27033656768309,
left,left,accuracy,,,,,0.0,1.0,1.0,0.0,10.0,1.0,21.0,0.0,620.4480659000001,,,,,,,,,620.4366158999983,621.6485393999992,622.4488133999985,622.4346270999995,622.4346814,622.4488133999985,622.4488133999985,622.4488133999985,627.4502141999983,627.9533716999995,left,1.0,20.49778680000236,,,,,,,,,,,,,,,,,,,,,,,,,,,,,,,sub-192,1.0,random_dot,60.27033656768309,
left,left,accuracy,,,,,0.0,1.0,1.0,0.0,11.0,0.0,22.0,0.0,627.9657985999984,,,,,,,,,627.9554950999991,628.3160472,629.1169470999994,629.1020423999998,629.1020942999985,629.1169470999994,629.1169470999994,629.1169470999994,,632.5877673999985,left,1.0,18.463261600001715,,,,,,,,,,,,,,,,,,,,,,,,,,,,,,,sub-192,1.0,random_dot,60.27033656768309,
right,right,accuracy,,,,,0.0,1.0,1.0,0.0,11.0,1.0,23.0,1.0,632.6005597999992,,,,,,,,,632.589307799999,633.4005985999993,634.2008311999998,634.1860007999985,634.1860371999992,634.2008311999998,634.2008311999998,634.2008311999998,,636.7715490999999,right,1.0,17.57373760000155,,,,,,,,,,,,,,,,,,,,,,,,,,,,,,,sub-192,1.0,random_dot,60.27033656768309,
left,left,accuracy,,,,,0.0,1.0,1.0,0.0,12.0,0.0,24.0,0.0,636.7841854999988,,,,,,,,,636.7735109999994,637.5848719999995,638.3854149999988,638.3697877999984,638.3698281999987,638.3854149999988,638.3854149999988,638.3854149999988,,639.9709404999994,left,1.0,16.58798950000164,,,,,,,,,,,,,,,,,,,,,,,,,,,,,,,sub-192,1.0,random_dot,60.27033656768309,
right,right,accuracy,,,,,0.0,1.0,1.0,0.0,12.0,1.0,25.0,1.0,639.9853772999995,,,,,,,,,639.9723144999989,641.1858072999985,641.9860036999999,641.9704666999987,641.9705005999986,641.9860036999999,641.9860036999999,641.9860036999999,,645.4902794999998,right,1.0,18.49921060000088,,,,,,,,,,,,,,,,,,,,,,,,,,,,,,,sub-192,1.0,random_dot,60.27033656768309,
right,right,accuracy,,,,,0.0,1.0,1.0,0.0,13.0,0.0,26.0,1.0,645.5026908999989,,,,,,,,,645.4917238999988,646.3029212999991,647.1041194999998,647.0882570999984,647.0882945999983,647.1041194999998,647.1041194999998,647.1041194999998,,648.5060961999989,right,1.0,16.399449400001686,,,,,,,,,,,,,,,,,,,,,,,,,,,,,,,sub-192,1.0,random_dot,60.27033656768309,
left,left,accuracy,,,,,0.0,1.0,1.0,0.0,13.0,1.0,27.0,0.0,648.5196206,,,,,,,,,648.507714899999,649.3208159999995,650.1207351999983,650.1061324999991,650.1061758999986,650.1207351999983,650.1207351999983,650.1207351999983,,652.4921949,left,1.0,17.374854100000448,,,,,,,,,,,,,,,,,,,,,,,,,,,,,,,sub-192,1.0,random_dot,60.27033656768309,
left,left,accuracy,,,,,0.0,1.0,1.0,0.0,14.0,0.0,28.0,0.0,652.5039745999984,,,,,,,,,652.4937056999988,653.3045997999998,654.1047945999999,654.089343399999,654.0893891999985,654.1047945999999,654.1047945999999,654.1047945999999,,655.6421647999996,left,1.0,16.53424620000078,,,,,,,,,,,,,,,,,,,,,,,,,,,,,,,sub-192,1.0,random_dot,60.27033656768309,
right,right,accuracy,,,,,0.0,1.0,1.0,0.0,14.0,1.0,29.0,1.0,655.6544146999986,,,,,,,,,655.6438099999996,656.4549296999994,657.2556270999994,657.2404032999984,657.2404553999986,657.2556270999994,657.2556270999994,657.2556270999994,,658.9748823999998,right,1.0,16.708643400001165,,,,,,,,,,,,,,,,,,,,,,,,,,,,,,,sub-192,1.0,random_dot,60.27033656768309,
left,left,accuracy,,,,,0.0,1.0,1.0,0.0,15.0,0.0,30.0,0.0,658.9882528999988,,,,,,,,,658.9768810999994,659.0883021999998,659.8888266999984,659.8734748999996,659.8735100999984,659.8888266999984,659.8888266999984,659.8888266999984,,663.3595360999989,left,1.0,18.4678507000026,,,,,,,,,,,,,,,,,,,,,,,,,,,,,,,sub-192,1.0,random_dot,60.27033656768309,
right,right,accuracy,,,,,0.0,1.0,1.0,0.0,15.0,1.0,31.0,1.0,663.3723325999999,,,,,,,,,663.3616313999992,663.7225694999997,664.5235868999989,664.5084035999989,664.5084591999985,664.5235868999989,664.5235868999989,664.5235868999989,,665.9931176999999,right,1.0,16.4632651000029,,,,,,,,,,,,,,,,,,,,,,,,,,,,,,,sub-192,1.0,random_dot,60.27033656768309,
right,right,accuracy,,,,,0.0,1.0,1.0,0.0,16.0,0.0,32.0,1.0,666.0067026999986,,,,,,,,,665.9948102999988,666.1066070999987,666.9067412999993,666.8919565999986,666.8920074999987,666.9067412999993,666.9067412999993,666.9067412999993,,669.3764019999999,right,1.0,17.462009700002454,,,,,,,,,,,,,,,,,,,,,,,,,,,,,,,sub-192,1.0,random_dot,60.27033656768309,
left,left,accuracy,,,,,0.0,1.0,1.0,0.0,16.0,1.0,33.0,0.0,669.3901454999996,,,,,,,,,669.3785883,669.4905443999996,670.291015499999,670.2761347999985,670.2761900999994,670.291015499999,670.291015499999,670.291015499999,,672.1612967000001,left,1.0,16.867351900002177,,,,,,,,,,,,,,,,,,,,,,,,,,,,,,,sub-192,1.0,random_dot,60.27033656768309,
right,right,accuracy,,,,,0.0,1.0,1.0,0.0,17.0,0.0,34.0,1.0,672.1741253,,,,,,,,,672.1629537999997,672.2742479999997,673.0747780999991,673.0601026999993,673.0601534999987,673.0747780999991,673.0747780999991,673.0747780999991,,675.6952670999999,right,1.0,17.610813400000552,,,,,,,,,,,,,,,,,,,,,,,,,,,,,,,sub-192,1.0,random_dot,60.27033656768309,
left,left,accuracy,,,,,0.0,1.0,1.0,0.0,17.0,1.0,35.0,0.0,675.7084742999996,,,,,,,,,675.6969534,676.0585633999999,676.8591645999986,676.8433179999993,676.8433568,676.8591645999986,676.8591645999986,676.8591645999986,,680.2790413999992,left,1.0,18.415764800001853,,,,,,,,,,,,,,,,,,,,,,,,,,,,,,,sub-192,1.0,random_dot,60.27033656768309,
left,left,accuracy,,,,,0.0,1.0,1.0,0.0,18.0,0.0,36.0,0.0,680.2921053999999,,,,,,,,,680.2805766999991,680.3928861999993,681.1929338999998,681.1778814999998,681.1779241999993,681.1929338999998,681.1929338999998,681.1929338999998,,683.0129898999985,left,1.0,16.82321690000208,,,,,,,,,,,,,,,,,,,,,,,,,,,,,,,sub-192,1.0,random_dot,60.27033656768309,
right,right,accuracy,,,,,0.0,1.0,1.0,0.0,18.0,1.0,37.0,1.0,683.0262300999984,,,,,,,,,683.0147615999995,683.8264249999993,684.6267116999989,684.6113919,684.6114331999997,684.6267116999989,684.6267116999989,684.6267116999989,,686.1644249000001,right,1.0,16.540623400002005,,,,,,,,,,,,,,,,,,,,,,,,,,,,,,,sub-192,1.0,random_dot,60.27033656768309,
right,right,accuracy,,,,,0.0,1.0,1.0,0.0,19.0,0.0,38.0,1.0,686.1765613999996,,,,,,,,,686.165902499999,686.2765896000001,687.0772952999996,687.0620139999992,687.0620618999983,687.0772952999996,687.0772952999996,687.0772952999996,,688.4143716999988,right,1.0,16.332556200002728,,,,,,,,,,,,,,,,,,,,,,,,,,,,,,,sub-192,1.0,random_dot,60.27033656768309,
left,left,accuracy,,,,,0.0,1.0,1.0,0.0,19.0,1.0,39.0,0.0,688.4269607999995,,,,,,,,,688.4159970000001,689.6271929999984,690.4285241999987,690.4121887999991,690.412225099999,690.4285241999987,690.4285241999987,690.4285241999987,,693.1813298999987,right,0.0,17.747067600001174,,,,,,,,,,,,,,,,,,,,,,,,,,,,,,,sub-192,1.0,random_dot,60.27033656768309,
right,right,accuracy,,,,,0.0,1.0,1.0,0.0,20.0,0.0,40.0,1.0,693.1947273999995,,,,,,,,,693.1827705999985,693.9953909999986,694.7961999999989,694.7803392999995,694.7803903999993,694.7961999999989,694.7961999999989,694.7961999999989,,697.2988551999988,right,1.0,17.49236860000201,,,,,,,,,,,,,,,,,,,,,,,,,,,,,,,sub-192,1.0,random_dot,60.27033656768309,
left,left,accuracy,,,,,0.0,1.0,1.0,0.0,20.0,1.0,41.0,0.0,697.3123887999991,,,,,,,,,697.3003167999996,697.4121192999992,698.2130591999994,698.1979525999996,698.1980036999994,698.2130591999994,698.2130591999994,698.2130591999994,,699.1989227999984,left,1.0,15.982617800000298,,,,,,,,,,,,,,,,,,,,,,,,,,,,,,,sub-192,1.0,random_dot,60.27033656768309,
left,left,accuracy,,,,,0.0,1.0,1.0,0.0,21.0,0.0,42.0,0.0,699.2122450999996,,,,,,,,,699.2005812999996,700.4123960999987,701.2130593999991,701.1984483999986,701.1984826999997,701.2130593999991,701.2130593999991,701.2130593999991,,702.4158374999988,left,1.0,16.20201160000215,,,,,,,,,,,,,,,,,,,,,,,,,,,,,,,sub-192,1.0,random_dot,60.27033656768309,
right,right,accuracy,,,,,0.0,1.0,1.0,0.0,21.0,1.0,43.0,1.0,702.4296450999991,,,,,,,,,702.417613399999,702.529970399999,703.3300596999998,703.3147808999984,703.3148284999988,703.3300596999998,703.3300596999998,703.3300596999998,,704.1333336999996,right,1.0,15.793385000000852,,,,,,,,,,,,,,,,,,,,,,,,,,,,,,,sub-192,1.0,random_dot,60.27033656768309,
right,right,accuracy,,,,,0.0,1.0,1.0,0.0,22.0,0.0,44.0,1.0,704.1468354999997,,,,,,,,,704.1348715999993,704.2467479999996,705.0469628999999,705.0323222999996,705.0323718999989,705.0469628999999,705.0469628999999,705.0469628999999,,706.3161763999997,right,1.0,16.258675300003233,,,,,,,,,,,,,,,,,,,,,,,,,,,,,,,sub-192,1.0,random_dot,60.27033656768309,
left,left,accuracy,,,,,0.0,1.0,1.0,0.0,22.0,1.0,45.0,0.0,706.3302076999989,,,,,,,,,706.3172841999985,707.1301638999994,707.9310429999987,707.9160145999995,707.9160640999999,707.9310429999987,707.9310429999987,707.9310429999987,,712.0685391999996,left,1.0,19.12720960000115,,,,,,,,,,,,,,,,,,,,,,,,,,,,,,,sub-192,1.0,random_dot,60.27033656768309,
right,right,accuracy,,,,,0.0,1.0,1.0,0.0,23.0,0.0,46.0,1.0,712.0814686999984,,,,,,,,,712.0701340999985,712.1817564999983,712.9820635999986,712.9673914999985,712.9674381999994,712.9820635999986,712.9820635999986,712.9820635999986,,713.7514522999991,right,1.0,15.761206200002562,,,,,,,,,,,,,,,,,,,,,,,,,,,,,,,sub-192,1.0,random_dot,60.27033656768309,
left,left,accuracy,,,,,0.0,1.0,1.0,0.0,23.0,1.0,47.0,0.0,713.7647530999984,,,,,,,,,713.7537262999995,714.9653610999994,715.7665199999992,715.7500929999987,715.7501273999987,715.7665199999992,715.7665199999992,715.7665199999992,,719.7191120999996,left,1.0,18.9427437000013,,,,,,,,,,,,,,,,,,,,,,,,,,,,,,,sub-192,1.0,random_dot,60.27033656768309,
left,left,accuracy,,,,,0.0,1.0,1.0,0.0,24.0,0.0,48.0,0.0,719.732517299999,,,,,,,,,719.7210331999995,720.0826172999987,720.8833102999997,720.8679766999994,720.8680238999987,720.8833102999997,720.8833102999997,720.8833102999997,,725.137445299999,left,1.0,19.249431400001413,,,,,,,,,,,,,,,,,,,,,,,,,,,,,,,sub-192,1.0,random_dot,60.27033656768309,
right,right,accuracy,,,,,0.0,1.0,1.0,0.0,24.0,1.0,49.0,1.0,725.1504773999986,,,,,,,,,725.1389225999992,725.5006127999986,726.3009045999988,726.2858692999998,726.2859094999985,726.3009045999988,726.3009045999988,726.3009045999988,,727.1862652,right,1.0,15.887095000001864,,,,,,,,,,,,,,,,,,,,,,,,,,,,,,,sub-192,1.0,random_dot,60.27033656768309,
right,right,accuracy,,,,,0.0,1.0,1.0,0.0,25.0,0.0,50.0,1.0,727.2006773999983,,,,,,,,,727.1879480999996,727.5508069999996,728.3513264999983,728.3362909999996,728.3363313999998,728.3513264999983,728.3513264999983,728.3513264999983,,729.2052651999984,right,1.0,15.85104070000125,,,,,,,,,,,,,,,,,,,,,,,,,,,,,,,sub-192,1.0,random_dot,60.27033656768309,
left,left,accuracy,,,,,0.0,1.0,1.0,0.0,25.0,1.0,51.0,0.0,729.2178669999994,,,,,,,,,729.2069931999995,730.0185410999984,730.8191432999993,730.8041248999998,730.8041756999992,730.8191432999993,730.8191432999993,730.8191432999993,,733.3380842999995,left,1.0,17.51495630000136,,,,,,,,,,,,,,,,,,,,,,,,,,,,,,,sub-192,1.0,random_dot,60.27033656768309,
left,left,accuracy,,,,,0.0,1.0,1.0,0.0,26.0,0.0,52.0,0.0,733.3519102999999,,,,,,,,,733.339597799999,734.1523987,734.9525104999993,734.9372374999984,734.937307799999,734.9525104999993,734.9525104999993,734.9525104999993,,737.8071462999997,left,1.0,17.85629120000158,,,,,,,,,,,,,,,,,,,,,,,,,,,,,,,sub-192,1.0,random_dot,60.27033656768309,
right,right,accuracy,,,,,0.0,1.0,1.0,0.0,26.0,1.0,53.0,1.0,737.8191344999996,,,,,,,,,737.8087226999996,737.9193889999988,738.7197380999987,738.7047063999998,738.7047411999993,738.7197380999987,738.7197380999987,738.7197380999987,,741.2559434999985,right,1.0,17.527581100001044,,,,,,,,,,,,,,,,,,,,,,,,,,,,,,,sub-192,1.0,random_dot,60.27033656768309,
right,right,accuracy,,,,,0.0,1.0,1.0,0.0,27.0,0.0,54.0,1.0,741.271198299999,,,,,,,,,741.2573278999989,741.3702450000001,742.1704643999983,742.155343299999,742.1553980999997,742.1704643999983,742.1704643999983,742.1704643999983,,744.1394334999986,right,1.0,16.966097100003026,,,,,,,,,,,,,,,,,,,,,,,,,,,,,,,sub-192,1.0,random_dot,60.27033656768309,
left,left,accuracy,,,,,0.0,1.0,1.0,0.0,27.0,1.0,55.0,0.0,744.1537198999995,,,,,,,,,744.1413133999995,744.5039110999987,745.3044756999989,745.289247499999,745.2892890999992,745.3044756999989,745.3044756999989,745.3044756999989,,746.3228301999989,left,1.0,16.020005400001537,,,,,,,,,,,,,,,,,,,,,,,,,,,,,,,sub-192,1.0,random_dot,60.27033656768309,
left,left,accuracy,,,,,0.0,1.0,1.0,0.0,28.0,0.0,56.0,0.0,746.3371875999983,,,,,,,,,746.3239692999996,746.6876066999994,747.4882451999983,747.4729541999986,747.4730043999989,747.4882451999983,747.4882451999983,747.4882451999983,,749.8408188999983,left,1.0,17.342715100001442,,,,,,,,,,,,,,,,,,,,,,,,,,,,,,,sub-192,1.0,random_dot,60.27033656768309,
right,right,accuracy,,,,,0.0,1.0,1.0,0.0,28.0,1.0,57.0,1.0,749.8549948,,,,,,,,,749.8422234999998,749.9549816999988,750.7553725999987,750.740439199999,750.7405509,750.7553725999987,750.7553725999987,750.7553725999987,,751.3575398999983,right,1.0,15.595215800000004,,,,,,,,,,,,,,,,,,,,,,,,,,,,,,,sub-192,1.0,random_dot,60.27033656768309,
left,left,accuracy,,,,,0.0,1.0,1.0,0.0,29.0,0.0,58.0,0.0,751.3716842999984,,,,,,,,,751.3594064999997,751.4720433999992,752.2721227999991,752.2580658999996,752.2581624999984,752.2721227999991,752.2721227999991,752.2721227999991,,753.0085687999999,left,1.0,15.731011100000616,,,,,,,,,,,,,,,,,,,,,,,,,,,,,,,sub-192,1.0,random_dot,60.27033656768309,
right,right,accuracy,,,,,0.0,1.0,1.0,0.0,29.0,1.0,59.0,1.0,753.0216115999992,,,,,,,,,753.0104393999991,753.3722515999998,754.1725401999993,754.1576716,754.1577142999995,754.1725401999993,754.1725401999993,754.1725401999993,,754.9260785999995,right,1.0,15.743957100001351,,,,,,,,,,,,,,,,,,,,,,,,,,,,,,,sub-192,1.0,random_dot,60.27033656768309,
,,accuracy,,,,,0.0,1.0,1.0,0.0,,,,,,,,,,,,,,,,,,,,,,,,,,,,,,,,,,,,,,,,,,,,,,,,,,,,,,,,,sub-192,1.0,random_dot,60.27033656768309,
,,,,,,,,,,,,,,,,,,,,,,,,,,,,,,,,,,,,,,,,,,,,,,,,,,,,,,,,,,,,,,,754.9275226999998,754.9388765999993,759.9397077999984,759.9251081999992,sub-192,,,,
