direction,corrAns,thisN,thisTrialN,thisRepN,respDots.keys,respDots.corr,respDots.rt,respDots.duration,randomInstr,respRandomInstr.keys,respRandomInstr.rt,respRandomInstr.duration,practice_trials.thisRepN,practice_trials.thisTrialN,practice_trials.thisN,practice_trials.thisIndex,instr_trials.thisRepN,instr_trials.thisTrialN,instr_trials.thisN,instr_trials.thisIndex,test_trials.thisRepN,test_trials.thisTrialN,test_trials.thisN,test_trials.thisIndex,thisRow.t,notes,general_instruction.started,textGeneralInstr.started,respGeneralInstr.started,general_instruction.stopped,respGeneralInstr.keys,respGeneralInstr.rt,respGeneralInstr.duration,ITI.started,fixcross.started,fixcross.stopped,ITI.stopped,dots.started,backgroundDots.started,stimulusDots.started,respDots.started,stimulusDots.stopped,dots.stopped,practice_trials.respDots.keys,practice_trials.respDots.corr,practice_trials.respDots.rt,practice_trials.respDots.duration,feedback.started,textFeedback.started,feedback.stopped,textFeedback.stopped,info.started,textInfo.started,keyRespInfo.started,info.stopped,keyRespInfo.keys,keyRespInfo.rt,keyRespInfo.duration,test_instruction.started,textTestInstr.started,respTestInstr.started,test_instruction.stopped,respTestInstr.keys,respTestInstr.rt,respTestInstr.duration,random_instruction.started,textRandomInstr.started,respRandomInstr.started,random_instruction.stopped,instr_trials.respRandomInstr.keys,instr_trials.respRandomInstr.rt,instr_trials.respRandomInstr.duration,test_trials.respDots.keys,test_trials.respDots.corr,test_trials.respDots.rt,test_trials.respDots.duration,goodbye.started,textGoodbye.started,textGoodbye.stopped,goodbye.stopped,participant,session,expName,frameRate,Unnamed: 88
,,,,,,,,,,,,,,,,,,,,,,,,,,,0.0214763690000836,0.0364321569995809,0.0364321569995809,280.23492234399964,space,280.17340824500025,,,,,,,,,,,,,,,,,,,,,,,,,,,,,,,,,,,,,,,,,,,,,,,,,sub-130,1,random_dot,,
right,right,0.0,0.0,0.0,left,0.0,8.728281368999887,,,,,,0.0,0.0,0.0,1.0,,,,,,,,,280.2720555099986,,,,,,,,,280.241848190999,281.0300812179994,281.8462825859988,281.8241751489986,281.82452732899947,281.8462825859988,281.8462825859988,281.8462825859988,286.813039536999,290.5809690369988,left,0.0,8.728281368999887,,290.585864061999,290.6389181739996,291.09030871199866,,,,,,,,,,,,,,,,,,,,,,,,,,,,,,,sub-130,1,random_dot,,
left,left,1.0,1.0,0.0,right,0.0,8.029604213999846,,,,,,0.0,1.0,1.0,0.0,,,,,,,,,291.0955396230001,,,,,,,,,291.09060254999895,291.42866917599895,292.22338369799945,292.2124124459988,292.2127461179989,292.22338369799945,292.22338369799945,292.22338369799945,297.2068302589996,300.25810594499853,right,0.0,8.029604213999846,,300.25819007599966,300.2641531099998,300.7574124439998,300.76262586399935,,,,,,,,,,,,,,,,,,,,,,,,,,,,,,sub-130,1,random_dot,,
right,right,2.0,0.0,1.0,left,0.0,7.850321963998795,,,,,,1.0,0.0,2.0,1.0,,,,,,,,,300.76262586399935,,,,,,,,,300.7576977849985,300.8568948060001,301.6476498819993,301.6408643899995,301.6411997759988,301.6476498819993,301.6476498819993,301.6476498819993,306.62972343,309.5084534389989,left,0.0,7.850321963998795,,309.50854352999886,309.5147115029995,310.007498433999,310.0126826349988,,,,,,,,,,,,,,,,,,,,,,,,,,,,,,sub-130,1,random_dot,,
left,left,3.0,1.0,1.0,right,0.0,5.414526037999167,,,,,,1.0,1.0,3.0,0.0,,,,,,,,,310.0126826349988,,,,,,,,,310.00778376699964,310.1068634129988,310.89769925699875,310.890906269,310.8912393869996,310.89769925699875,310.89769925699875,310.89769925699875,315.8797672789988,316.3142440699994,right,0.0,5.414526037999167,,316.31431491999865,316.32321190699986,316.8074734189995,316.81249406799907,,,,,,,,,,,,,,,,,,,,,,,,,,,,,,sub-130,1,random_dot,,
left,left,4.0,0.0,2.0,left,1.0,2.0231223039991164,,,,,,2.0,0.0,4.0,0.0,,,,,,,,,316.81249406799907,,,,,,,,,316.8077606779989,316.91203877599946,317.7068394649996,317.6960496949996,317.69638561099964,317.7068394649996,317.7068394649996,317.7068394649996,,319.7318421,left,1.0,2.0231223039991164,,319.73560800199994,319.74239706299886,320.22936798499904,320.240219239,,,,,,,,,,,,,,,,,,,,,,,,,,,,,,sub-130,1,random_dot,,
right,right,5.0,1.0,2.0,left,0.0,1.226899297998898,,,,,,2.0,1.0,5.0,1.0,,,,,,,,,320.240219239,,,,,,,,,320.22962773499967,320.3286229179994,321.1234468619987,321.1126275359984,321.1129558649991,321.1234468619987,321.1234468619987,321.1234468619987,,322.3587352359991,left,0.0,1.226899297998898,,322.36103842099874,322.3708645589996,322.85755827699904,322.86266941599933,,,,,,,,,,,,,,,,,,,,,,,,,,,,,,sub-130,1,random_dot,,
right,right,6.0,0.0,3.0,right,1.0,0.9947368760003884,,,,,,3.0,0.0,6.0,1.0,,,,,,,,,322.86266941599933,,,,,,,,,322.8578394519991,322.9567984759997,323.74767930899907,323.740819142,323.74115774099846,323.74767930899907,323.74767930899907,323.74767930899907,,324.74841660199854,right,1.0,0.9947368760003884,,324.7506478639989,324.7567817769996,325.2409374250001,325.2459350640001,,,,,,,,,,,,,,,,,,,,,,,,,,,,,,sub-130,1,random_dot,,
left,left,7.0,1.0,3.0,right,0.0,1.4286913340001774,,,,,,3.0,1.0,7.0,0.0,,,,,,,,,325.2459350640001,,,,,,,,,325.2412252260001,325.5953775789985,326.390221271,326.37963124399903,326.379964062,326.390221271,326.390221271,326.390221271,,327.82502089699847,right,0.0,1.4286913340001774,,327.827316384999,327.83390027599853,328.3244249799991,328.32949961899976,,,,,,,,,,,,,,,,,,,,,,,,,,,,,,sub-130,1,random_dot,,
left,left,8.0,0.0,4.0,left,1.0,1.5291039570001883,,,,,,4.0,0.0,8.0,0.0,,,,,,,,,328.32949961899976,,,,,,,,,328.32470833299885,328.4235194469984,329.2143813269995,329.20758216099966,329.2079194130001,329.2143813269995,329.2143813269995,329.2143813269995,,330.7486433579997,left,1.0,1.5291039570001883,,330.7509434409985,330.75760484199964,331.24095728999964,331.2461075219999,,,,,,,,,,,,,,,,,,,,,,,,,,,,,,sub-130,1,random_dot,,
right,right,9.0,1.0,4.0,left,0.0,1.2778701679999358,,,,,,4.0,1.0,9.0,1.0,,,,,,,,,331.2461075219999,,,,,,,,,331.24124560699966,331.3452928099996,332.140342151999,332.1294388289989,332.1297741519993,332.140342151999,332.140342151999,332.140342151999,,333.4251356549994,left,0.0,1.2778701679999358,,333.4273877349988,333.43397273499977,333.9242340849996,333.92945138199866,,,,,,,,,,,,,,,,,,,,,,,,,,,,,,sub-130,1,random_dot,,
right,right,10.0,0.0,5.0,right,1.0,2.6606981749991974,,,,,,5.0,0.0,10.0,1.0,,,,,,,,,333.92945138199866,,,,,,,,,333.92452008299915,335.1234405039995,335.9141535379986,335.9075159189997,335.90784987199913,335.9141535379986,335.9141535379986,335.9141535379986,,338.5810565369993,right,1.0,2.6606981749991974,,338.583327757,338.59007544299857,339.07422980699994,339.0794704259988,,,,,,,,,,,,,,,,,,,,,,,,,,,,,,sub-130,1,random_dot,,
left,left,11.0,1.0,5.0,left,1.0,1.4038003610003216,,,,,,5.0,1.0,11.0,0.0,,,,,,,,,339.0794704259988,,,,,,,,,339.07451387199944,339.4286307889997,340.22364035899955,340.2128194849993,340.2131600879984,340.22364035899955,340.22364035899955,340.22364035899955,,341.63241495999864,left,1.0,1.4038003610003216,,341.63250133600013,341.6401103999997,342.12446974699924,342.12942449,,,,,,,,,,,,,,,,,,,,,,,,,,,,,,sub-130,1,random_dot,,
right,right,12.0,0.0,6.0,right,1.0,1.196691327000735,,,,,,6.0,0.0,12.0,1.0,,,,,,,,,342.12942449,,,,,,,,,342.1247512279988,342.22877227699973,343.0234224750002,343.0126323209988,343.0129588809996,343.0234224750002,343.0234224750002,343.0234224750002,,344.22519049199946,right,1.0,1.196691327000735,,344.22530293099953,344.2315902199989,344.72421239199866,344.72943128099905,,,,,,,,,,,,,,,,,,,,,,,,,,,,,,sub-130,1,random_dot,,
left,left,13.0,1.0,6.0,left,1.0,1.576099734000309,,,,,,6.0,1.0,13.0,0.0,,,,,,,,,344.72943128099905,,,,,,,,,344.72449291500016,345.92355588699866,346.71422283899847,346.70753866999985,346.70787947200006,346.71422283899847,346.71422283899847,346.71422283899847,,348.2922230999993,left,1.0,1.576099734000309,,348.29230805099905,348.2983488439986,348.7909387639993,348.796162916,,,,,,,,,,,,,,,,,,,,,,,,,,,,,,sub-130,1,random_dot,,
left,left,14.0,0.0,7.0,right,0.0,2.334596935999798,,,,,,7.0,0.0,14.0,0.0,,,,,,,,,348.796162916,,,,,,,,,348.7912218729998,349.99022245000015,350.7812040869994,350.77450818799844,350.77485177199924,350.7812040869994,350.7812040869994,350.7812040869994,,353.1253815009986,right,0.0,2.334596935999798,,353.12787287099854,353.1345402099996,353.62437956399845,353.6296586849985,,,,,,,,,,,,,,,,,,,,,,,,,,,,,,sub-130,1,random_dot,,
right,right,15.0,1.0,7.0,right,1.0,1.985264789000212,,,,,,7.0,1.0,15.0,1.0,,,,,,,,,353.6296586849985,,,,,,,,,353.6246641379985,354.4235754370002,355.2144957979999,355.20764087299904,355.2079751450001,355.2144957979999,355.2144957979999,355.2144957979999,,357.2086404799993,right,1.0,1.985264789000212,,357.2110281719997,357.2175467039997,357.70759897099924,357.71263343099963,,,,,,,,,,,,,,,,,,,,,,,,,,,,,,sub-130,1,random_dot,,
right,right,16.0,0.0,8.0,left,0.0,2.233907829999225,,,,,,8.0,0.0,16.0,1.0,,,,,,,,,357.71263343099963,,,,,,,,,357.7078881749985,357.8068490279984,358.5978021559986,358.5910157999988,358.59134992500003,358.5978021559986,358.5978021559986,358.5978021559986,,360.842110358999,left,0.0,2.233907829999225,,360.84459230099856,360.8514735109984,361.34118135300014,361.3463652319988,,,,,,,,,,,,,,,,,,,,,,,,,,,,,,sub-130,1,random_dot,,
left,left,17.0,1.0,8.0,left,1.0,0.6408061860001908,,,,,,8.0,1.0,17.0,0.0,,,,,,,,,361.3463652319988,,,,,,,,,361.341482848,361.440355572,362.231126839999,362.224501450999,362.2248519389996,362.231126839999,362.231126839999,362.231126839999,,362.874833418,left,1.0,0.6408061860001908,,362.8771165959988,362.883344378999,363.3745267309987,363.3793607259995,,,,,,,,,,,,,,,,,,,,,,,,,,,,,,sub-130,1,random_dot,,
left,left,18.0,0.0,9.0,left,1.0,0.819667476000177,,,,,,9.0,0.0,18.0,0.0,,,,,,,,,363.3793607259995,,,,,,,,,363.37481836699953,364.17363229699913,364.9644965549997,364.9578602649999,364.958197852,364.9644965549997,364.9644965549997,364.9644965549997,,365.7919291219987,left,1.0,0.819667476000177,,365.7920284169995,365.7983118209995,366.29128358699927,366.2963948029992,,,,,,,,,,,,,,,,,,,,,,,,,,,,,,sub-130,1,random_dot,,
right,right,19.0,1.0,9.0,right,1.0,0.5235407750005834,,,,,,9.0,1.0,19.0,1.0,,,,,,,,,366.2963948029992,,,,,,,,,366.2915637829992,367.090243228,367.881178788999,367.8744418039987,367.874773865,367.881178788999,367.881178788999,367.881178788999,,368.40858042499895,right,1.0,0.5235407750005834,,368.4086675109993,368.414814533,368.9076446639992,368.9145831199985,,,,,,,,,,,,,,,,,,,,,,,,,,,,,,sub-130,1,random_dot,,
,,,,,,,,,,,,,,,,,,,,,,,,,,,,,,,,,,,,,,,,,,,,,,,,,,,,368.90775991400005,368.9145831199985,368.9145831199985,400.2752527889989,space,31.358211381999357,,,,,,,,,,,,,,,,,,,,,,,,sub-130,1,random_dot,,
,,,,,,,,,,,,,,,,,,,,,,,,,,,,,,,,,,,,,,,,,,,,,,,,,,,,,,,,,,,400.2753063689997,400.2834664809998,400.2834664809998,402.3971199449989,space,2.1087610330014286,,,,,,,,,,,,,,,,,sub-130,1,random_dot,,
right,right,0.0,0.0,0.0,left,0.0,2.7168088750004245,,accuracy,space,10.173590238999168,,,,,,0.0,0.0,0.0,0.0,0.0,0.0,0.0,1.0,412.6090436689992,,,,,,,,,412.602256062999,413.3955542980002,414.1903751259997,414.1794406749996,414.1797753539995,414.1903751259997,414.1903751259997,414.1903751259997,,416.9089389019992,,,,,,,,,,,,,,,,,,,,,,,402.4122004879992,402.41997135699967,402.41997135699967,412.59777421999934,space,10.173590238999168,,left,0.0,2.7168088750004245,,,,,,sub-130,1,random_dot,,
left,left,1.0,1.0,0.0,left,1.0,1.8416761190001123,,accuracy,space,10.173590238999168,,,,,,0.0,0.0,0.0,0.0,0.0,1.0,1.0,0.0,416.915219565999,,,,,,,,,416.9092371169991,417.2570148670002,418.04811498399977,418.0414444159997,418.04178070499984,418.04811498399977,418.04811498399977,418.04811498399977,,419.8917489669984,,,,,,,,,,,,,,,,,,,,,,,,,,,,,,left,1.0,1.8416761190001123,,,,,,sub-130,1,random_dot,,
left,left,2.0,0.0,1.0,right,0.0,2.1430073420015106,,accuracy,space,10.173590238999168,,,,,,0.0,0.0,0.0,0.0,1.0,0.0,2.0,0.0,419.8976047749984,,,,,,,,,419.89205232199856,420.240356544,421.03144066499954,421.0247966449988,421.0251388439992,421.03144066499954,421.03144066499954,421.03144066499954,,423.18340794199867,,,,,,,,,,,,,,,,,,,,,,,,,,,,,,right,0.0,2.1430073420015106,,,,,,sub-130,1,random_dot,,
right,right,3.0,1.0,1.0,left,0.0,2.642830913999205,,accuracy,space,10.173590238999168,,,,,,0.0,0.0,0.0,0.0,1.0,1.0,3.0,1.0,423.1904814589998,,,,,,,,,423.18376348999846,423.2789396219996,424.0738700779984,424.0631971439998,424.06353360899993,424.0738700779984,424.0738700779984,424.0738700779984,,426.7258572929986,,,,,,,,,,,,,,,,,,,,,,,,,,,,,,left,0.0,2.642830913999205,,,,,,sub-130,1,random_dot,,
right,right,4.0,0.0,2.0,left,0.0,2.5118074109996087,,accuracy,space,10.173590238999168,,,,,,0.0,0.0,0.0,0.0,2.0,0.0,4.0,1.0,426.7318955939991,,,,,,,,,426.72614988699934,427.073983074999,427.8645518729991,427.8578292919992,427.8581647529991,427.8645518729991,427.8645518729991,427.8645518729991,,430.3823043619996,,,,,,,,,,,,,,,,,,,,,,,,,,,,,,left,0.0,2.5118074109996087,,,,,,sub-130,1,random_dot,,
left,left,5.0,1.0,2.0,left,1.0,3.4419318250002107,,accuracy,space,10.173590238999168,,,,,,0.0,0.0,0.0,0.0,2.0,1.0,5.0,0.0,430.3904229660002,,,,,,,,,430.3825775360001,431.1788128909993,431.9737641819993,431.9631305209987,431.9634703929987,431.9737641819993,431.9737641819993,431.9737641819993,,435.4254984309992,,,,,,,,,,,,,,,,,,,,,,,,,,,,,,left,1.0,3.4419318250002107,,,,,,sub-130,1,random_dot,,
left,left,6.0,0.0,3.0,left,1.0,3.352192686001217,,accuracy,space,10.173590238999168,,,,,,0.0,0.0,0.0,0.0,3.0,0.0,6.0,0.0,435.431685345,,,,,,,,,435.42586108999967,435.5237485149992,436.3149294819996,436.3080454310002,436.308379828999,436.3149294819996,436.3149294819996,436.3149294819996,,439.67566042499857,,,,,,,,,,,,,,,,,,,,,,,,,,,,,,left,1.0,3.352192686001217,,,,,,sub-130,1,random_dot,,
right,right,7.0,1.0,3.0,right,1.0,2.55278852399897,,accuracy,space,10.173590238999168,,,,,,0.0,0.0,0.0,0.0,3.0,1.0,7.0,1.0,439.6819173749991,,,,,,,,,439.6760213939997,440.8737639709998,441.66445908700007,441.6578221079999,441.6581582049985,441.66445908700007,441.66445908700007,441.66445908700007,,444.2251021599986,,,,,,,,,,,,,,,,,,,,,,,,,,,,,,right,1.0,2.55278852399897,,,,,,sub-130,1,random_dot,,
left,left,8.0,0.0,4.0,left,1.0,2.3737326880000182,,accuracy,space,10.173590238999168,,,,,,0.0,0.0,0.0,0.0,4.0,0.0,8.0,0.0,444.2310892689984,,,,,,,,,444.2253856059997,444.323611672,445.114785759999,445.10786943899984,445.1082052749989,445.114785759999,445.114785759999,445.114785759999,,447.49257588599903,,,,,,,,,,,,,,,,,,,,,,,,,,,,,,left,1.0,2.3737326880000182,,,,,,sub-130,1,random_dot,,
right,right,9.0,1.0,4.0,right,1.0,2.434525781000048,,accuracy,space,10.173590238999168,,,,,,0.0,0.0,0.0,0.0,4.0,1.0,9.0,1.0,447.4986990899997,,,,,,,,,447.4928699289994,447.84047248299976,448.63148011299927,448.6245542609995,448.6248894410001,448.63148011299927,448.63148011299927,448.63148011299927,,451.0759049799999,,,,,,,,,,,,,,,,,,,,,,,,,,,,,,right,1.0,2.434525781000048,,,,,,sub-130,1,random_dot,,
left,left,10.0,0.0,5.0,left,1.0,1.2562527499994758,,accuracy,space,10.173590238999168,,,,,,0.0,0.0,0.0,0.0,5.0,0.0,10.0,0.0,451.0823464579989,,,,,,,,,451.0762648189993,451.4238133049985,452.21457082399866,452.2077913729991,452.2081255079993,452.21457082399866,452.21457082399866,452.21457082399866,,453.4754604859991,,,,,,,,,,,,,,,,,,,,,,,,,,,,,,left,1.0,1.2562527499994758,,,,,,sub-130,1,random_dot,,
right,right,11.0,1.0,5.0,right,1.0,1.4391266650000034,,accuracy,space,10.173590238999168,,,,,,0.0,0.0,0.0,0.0,5.0,1.0,11.0,1.0,453.4814528769985,,,,,,,,,453.4757518689985,453.5740409579994,454.36480575399946,454.3580752239996,454.3584091779994,454.36480575399946,454.36480575399946,454.36480575399946,,455.8089511299986,,,,,,,,,,,,,,,,,,,,,,,,,,,,,,right,1.0,1.4391266650000034,,,,,,sub-130,1,random_dot,,
left,left,12.0,0.0,6.0,left,1.0,0.6618746209987876,,accuracy,space,10.173590238999168,,,,,,0.0,0.0,0.0,0.0,6.0,0.0,12.0,0.0,455.815025336,,,,,,,,,455.809246290999,456.1571970379992,456.9482706939998,456.9414973779985,456.94183464900016,456.9482706939998,456.9482706939998,456.9482706939998,,457.6161825509989,,,,,,,,,,,,,,,,,,,,,,,,,,,,,,left,1.0,0.6618746209987876,,,,,,sub-130,1,random_dot,,
right,right,13.0,1.0,6.0,left,0.0,1.2840005549987836,,accuracy,space,10.173590238999168,,,,,,0.0,0.0,0.0,0.0,6.0,1.0,13.0,1.0,457.6236900069998,,,,,,,,,457.61648110399983,458.4123982729998,459.2070185069988,459.19564125099896,459.1959521049994,459.2070185069988,459.2070185069988,459.2070185069988,,460.4997085879986,,,,,,,,,,,,,,,,,,,,,,,,,,,,,,left,0.0,1.2840005549987836,,,,,,sub-130,1,random_dot,,
right,right,14.0,0.0,7.0,right,1.0,2.0155645360009657,,accuracy,space,10.173590238999168,,,,,,0.0,0.0,0.0,0.0,7.0,0.0,14.0,1.0,460.5070917109988,,,,,,,,,460.4999665219984,461.69580417,462.4904402889988,462.4799853569984,462.480316702,462.4904402889988,462.4904402889988,462.4904402889988,,464.5086060929989,,,,,,,,,,,,,,,,,,,,,,,,,,,,,,right,1.0,2.0155645360009657,,,,,,sub-130,1,random_dot,,
left,left,15.0,1.0,7.0,left,1.0,0.859957573000429,,accuracy,space,10.173590238999168,,,,,,0.0,0.0,0.0,0.0,7.0,1.0,15.0,0.0,464.5145569609994,,,,,,,,,464.5088976569986,464.607383610999,465.3981859409996,465.39149700399867,465.3918313239992,465.3981859409996,465.3981859409996,465.3981859409996,,466.2661648639987,,,,,,,,,,,,,,,,,,,,,,,,,,,,,,left,1.0,0.859957573000429,,,,,,sub-130,1,random_dot,,
left,left,16.0,0.0,8.0,right,0.0,0.7572218629993586,,accuracy,space,10.173590238999168,,,,,,0.0,0.0,0.0,0.0,8.0,0.0,16.0,0.0,466.2739031759993,,,,,,,,,466.266505869,466.61230024499855,467.40721523999855,467.3961698530002,467.3965017939991,467.40721523999855,467.40721523999855,467.40721523999855,,468.1743553739998,,,,,,,,,,,,,,,,,,,,,,,,,,,,,,right,0.0,0.7572218629993586,,,,,,sub-130,1,random_dot,,
right,right,17.0,1.0,8.0,left,0.0,0.607182878000458,,accuracy,space,10.173590238999168,,,,,,0.0,0.0,0.0,0.0,8.0,1.0,17.0,1.0,468.179083641,,,,,,,,,468.17459322099967,468.26330518299983,469.05724896899846,469.0465089289992,469.0468380889997,469.05724896899846,469.05724896899846,469.05724896899846,,469.6747413009998,,,,,,,,,,,,,,,,,,,,,,,,,,,,,,left,0.0,0.607182878000458,,,,,,sub-130,1,random_dot,,
right,right,18.0,0.0,9.0,left,0.0,1.1203817409987096,,accuracy,space,10.173590238999168,,,,,,0.0,0.0,0.0,0.0,9.0,0.0,18.0,1.0,469.6797208169992,,,,,,,,,469.6750768040001,469.7625609049992,470.5573522249997,470.5464450009986,470.54678075099946,470.5573522249997,470.5573522249997,470.5573522249997,,471.6829906819985,,,,,,,,,,,,,,,,,,,,,,,,,,,,,,left,0.0,1.1203817409987096,,,,,,sub-130,1,random_dot,,
left,left,19.0,1.0,9.0,right,0.0,2.650600860999475,,accuracy,space,10.173590238999168,,,,,,0.0,0.0,0.0,0.0,9.0,1.0,19.0,0.0,471.6905040469992,,,,,,,,,471.6832817429986,472.8790620279997,473.6739869109988,473.663210626999,473.6635448729994,473.6739869109988,473.6739869109988,473.6739869109988,,476.333231392,,,,,,,,,,,,,,,,,,,,,,,,,,,,,,right,0.0,2.650600860999475,,,,,,sub-130,1,random_dot,,
left,left,20.0,0.0,10.0,left,1.0,0.7187964340009785,,accuracy,space,10.173590238999168,,,,,,0.0,0.0,0.0,0.0,10.0,0.0,20.0,0.0,476.3406008829989,,,,,,,,,476.3335355889994,477.529201076999,478.323923345999,478.3130910359996,478.3134267679998,478.323923345999,478.323923345999,478.323923345999,,479.0486613519988,,,,,,,,,,,,,,,,,,,,,,,,,,,,,,left,1.0,0.7187964340009785,,,,,,sub-130,1,random_dot,,
right,right,21.0,1.0,10.0,left,0.0,0.8906583469997713,,accuracy,space,10.173590238999168,,,,,,0.0,0.0,0.0,0.0,10.0,1.0,21.0,1.0,479.0571965049985,,,,,,,,,479.0489574479998,479.3960258829993,481.3812953199995,481.37492230599855,481.37529716300014,481.3812953199995,481.3812953199995,481.3812953199995,,482.27531130499847,,,,,,,,,,,,,,,,,,,,,,,,,,,,,,left,0.0,0.8906583469997713,,,,,,sub-130,1,random_dot,,
right,right,22.0,0.0,11.0,right,1.0,0.796460842999295,,accuracy,space,10.173590238999168,,,,,,0.0,0.0,0.0,0.0,11.0,0.0,22.0,1.0,482.2813591919985,,,,,,,,,482.2755945989993,482.37377473800007,483.164604263,483.1578370809984,483.1581689879986,483.164604263,483.164604263,483.164604263,,483.9656374249989,,,,,,,,,,,,,,,,,,,,,,,,,,,,,,right,1.0,0.796460842999295,,,,,,sub-130,1,random_dot,,
left,left,23.0,1.0,11.0,left,1.0,0.6403022849990521,,accuracy,space,10.173590238999168,,,,,,0.0,0.0,0.0,0.0,11.0,1.0,23.0,0.0,483.97397418799846,,,,,,,,,483.9659845369988,484.0624440359989,484.8574174159985,484.84626747999937,484.8466019459993,484.8574174159985,484.8574174159985,484.8574174159985,,485.50805537799897,,,,,,,,,,,,,,,,,,,,,,,,,,,,,,left,1.0,0.6403022849990521,,,,,,sub-130,1,random_dot,,
right,right,24.0,0.0,12.0,right,1.0,0.6869999070004269,,accuracy,space,10.173590238999168,,,,,,0.0,0.0,0.0,0.0,12.0,0.0,24.0,1.0,485.5129226549998,,,,,,,,,485.5083656769984,485.59579497899904,486.3906964359994,486.3800336439999,486.38036166099846,486.3906964359994,486.3906964359994,486.3906964359994,,487.08268345399847,,,,,,,,,,,,,,,,,,,,,,,,,,,,,,right,1.0,0.6869999070004269,,,,,,sub-130,1,random_dot,,
left,left,25.0,1.0,12.0,left,1.0,2.4595697059994563,,accuracy,space,10.173590238999168,,,,,,0.0,0.0,0.0,0.0,12.0,1.0,25.0,0.0,487.0905917799992,,,,,,,,,487.0829767889991,487.1805869389991,487.9813128949991,487.9746358359989,487.974974888999,487.9813128949991,487.9813128949991,487.9813128949991,,490.4426778899997,,,,,,,,,,,,,,,,,,,,,,,,,,,,,,left,1.0,2.4595697059994563,,,,,,sub-130,1,random_dot,,
left,left,26.0,0.0,13.0,left,1.0,1.204076707999775,,accuracy,space,10.173590238999168,,,,,,0.0,0.0,0.0,0.0,13.0,0.0,26.0,0.0,490.4487497139999,,,,,,,,,490.4429814719988,490.5406790919988,491.3317567359991,491.3250254859995,491.325363299,491.3317567359991,491.3317567359991,491.3317567359991,,492.5426165039989,,,,,,,,,,,,,,,,,,,,,,,,,,,,,,left,1.0,1.204076707999775,,,,,,sub-130,1,random_dot,,
right,right,27.0,1.0,13.0,right,1.0,0.610230035999848,,accuracy,space,10.173590238999168,,,,,,0.0,0.0,0.0,0.0,13.0,1.0,27.0,1.0,492.5488023199996,,,,,,,,,492.5429122099995,492.64066829999865,493.4314260669999,493.4247955489991,493.4251297419996,493.4314260669999,493.4314260669999,493.4314260669999,,494.0499273259993,,,,,,,,,,,,,,,,,,,,,,,,,,,,,,right,1.0,0.610230035999848,,,,,,sub-130,1,random_dot,,
left,left,28.0,0.0,14.0,right,0.0,1.4698893790009606,,accuracy,space,10.173590238999168,,,,,,0.0,0.0,0.0,0.0,14.0,0.0,28.0,0.0,494.0573871709985,,,,,,,,,494.0502847919997,494.3958082209992,495.1907920619997,495.18006772599983,495.1804009659991,495.1907920619997,495.1907920619997,495.1907920619997,,496.6654057489996,,,,,,,,,,,,,,,,,,,,,,,,,,,,,,right,0.0,1.4698893790009606,,,,,,sub-130,1,random_dot,,
right,right,29.0,1.0,14.0,left,0.0,0.818634896999356,,accuracy,space,10.173590238999168,,,,,,0.0,0.0,0.0,0.0,14.0,1.0,29.0,1.0,496.6739022639995,,,,,,,,,496.6656814369999,497.0124944069994,497.8073735130001,497.79671785499886,497.79704942699937,497.8073735130001,497.8073735130001,497.8073735130001,,498.6316450909999,,,,,,,,,,,,,,,,,,,,,,,,,,,,,,left,0.0,0.818634896999356,,,,,,sub-130,1,random_dot,,
left,left,30.0,0.0,15.0,left,1.0,4.786663722999947,,accuracy,space,10.173590238999168,,,,,,0.0,0.0,0.0,0.0,15.0,0.0,30.0,0.0,498.64076530799866,,,,,,,,,498.6319255959989,499.42922718499904,500.22421099299936,500.2133492039993,500.2136827679988,500.22421099299936,500.22421099299936,500.22421099299936,,505.01574112399976,,,,,,,,,,,,,,,,,,,,,,,,,,,,,,left,1.0,4.786663722999947,,,,,,sub-130,1,random_dot,,
right,right,31.0,1.0,15.0,right,1.0,0.8544994710009632,,accuracy,space,10.173590238999168,,,,,,0.0,0.0,0.0,0.0,15.0,1.0,31.0,1.0,505.0240144309992,,,,,,,,,505.0160245579991,505.1127035109985,505.9075944659999,505.89668528999937,505.8970148859989,505.9075944659999,505.9075944659999,505.9075944659999,,506.7652547219986,,,,,,,,,,,,,,,,,,,,,,,,,,,,,,right,1.0,0.8544994710009632,,,,,,sub-130,1,random_dot,,
right,right,32.0,0.0,16.0,left,0.0,0.71359699399909,,accuracy,space,10.173590238999168,,,,,,0.0,0.0,0.0,0.0,16.0,0.0,32.0,1.0,506.7737771359989,,,,,,,,,506.7655384829996,507.9624925379994,508.757405069,508.74671872,508.7470577089989,508.757405069,508.757405069,508.757405069,,509.4752926709989,,,,,,,,,,,,,,,,,,,,,,,,,,,,,,left,0.0,0.71359699399909,,,,,,sub-130,1,random_dot,,
left,left,33.0,1.0,16.0,right,0.0,0.6360187650006992,,accuracy,space,10.173590238999168,,,,,,0.0,0.0,0.0,0.0,16.0,1.0,33.0,0.0,509.4813273229993,,,,,,,,,509.4756024969993,510.2738029459997,511.0649598379987,511.0582292929994,511.0585809690001,511.0649598379987,511.0649598379987,511.0649598379987,,511.70896454299873,,,,,,,,,,,,,,,,,,,,,,,,,,,,,,right,0.0,0.6360187650006992,,,,,,sub-130,1,random_dot,,
right,right,34.0,0.0,17.0,left,0.0,0.9498170179995212,,accuracy,space,10.173590238999168,,,,,,0.0,0.0,0.0,0.0,17.0,0.0,34.0,1.0,511.7151608189997,,,,,,,,,511.7092598349991,512.9072617239999,513.6983790630002,513.6916703939987,513.6920083739988,513.6983790630002,513.6983790630002,513.6983790630002,,514.6583200039986,,,,,,,,,,,,,,,,,,,,,,,,,,,,,,left,0.0,0.9498170179995212,,,,,,sub-130,1,random_dot,,
left,left,35.0,1.0,17.0,right,0.0,0.6702300979995925,,accuracy,space,10.173590238999168,,,,,,0.0,0.0,0.0,0.0,17.0,1.0,35.0,0.0,514.6630064370001,,,,,,,,,514.6585867499998,514.9958682329998,515.7907130679996,515.7799729660001,515.7803085199994,515.7907130679996,515.7907130679996,515.7907130679996,,516.4656307189998,,,,,,,,,,,,,,,,,,,,,,,,,,,,,,right,0.0,0.6702300979995925,,,,,,sub-130,1,random_dot,,
left,left,36.0,0.0,18.0,left,1.0,0.7596314439997514,,accuracy,space,10.173590238999168,,,,,,0.0,0.0,0.0,0.0,18.0,0.0,36.0,0.0,516.473965829,,,,,,,,,516.4659047149999,517.2626464859986,518.0575519819995,518.0469478279992,518.0472831119987,518.0575519819995,518.0575519819995,518.0575519819995,,518.8262394419999,,,,,,,,,,,,,,,,,,,,,,,,,,,,,,left,1.0,0.7596314439997514,,,,,,sub-130,1,random_dot,,
right,right,37.0,1.0,18.0,right,1.0,1.3300599180001882,,accuracy,space,10.173590238999168,,,,,,0.0,0.0,0.0,0.0,18.0,1.0,37.0,1.0,518.8326918769999,,,,,,,,,518.8265968639989,519.6242435439999,520.4148930470001,520.4082633359994,520.4085917899993,520.4148930470001,520.4148930470001,520.4148930470001,,521.7492511149994,,,,,,,,,,,,,,,,,,,,,,,,,,,,,,right,1.0,1.3300599180001882,,,,,,sub-130,1,random_dot,,
left,left,38.0,0.0,19.0,left,1.0,0.9134011099995404,,accuracy,space,10.173590238999168,,,,,,0.0,0.0,0.0,0.0,19.0,0.0,38.0,0.0,521.7572671559992,,,,,,,,,521.7495376309998,521.8463417149997,522.6408995969996,522.6300222629998,522.6303494599997,522.6408995969996,522.6408995969996,522.6408995969996,,523.5588657970002,,,,,,,,,,,,,,,,,,,,,,,,,,,,,,left,1.0,0.9134011099995404,,,,,,sub-130,1,random_dot,,
right,right,39.0,1.0,19.0,left,0.0,1.735538536000604,,accuracy,space,10.173590238999168,,,,,,0.0,0.0,0.0,0.0,19.0,1.0,39.0,1.0,523.5647993829989,,,,,,,,,523.5591589340002,524.3574172279987,525.1484612240001,525.141694345999,525.142027377,525.1484612240001,525.1484612240001,525.1484612240001,,526.8918507399994,,,,,,,,,,,,,,,,,,,,,,,,,,,,,,left,0.0,1.735538536000604,,,,,,sub-130,1,random_dot,,
right,right,40.0,0.0,20.0,left,0.0,1.6960982079999667,,accuracy,space,10.173590238999168,,,,,,0.0,0.0,0.0,0.0,20.0,0.0,40.0,1.0,526.8978134289991,,,,,,,,,526.8921465539988,528.079393987,528.8743097009992,528.8628004989987,528.8630781779993,528.8743097009992,528.8743097009992,528.8743097009992,,530.5758004789986,,,,,,,,,,,,,,,,,,,,,,,,,,,,,,left,0.0,1.6960982079999667,,,,,,sub-130,1,random_dot,,
left,left,41.0,1.0,20.0,right,0.0,0.9836286760000804,,accuracy,space,10.173590238999168,,,,,,0.0,0.0,0.0,0.0,20.0,1.0,41.0,0.0,530.5821230900001,,,,,,,,,530.576092887999,530.6741964409994,531.4652498589985,531.4583015749995,531.4586340139995,531.4652498589985,531.4652498589985,531.4652498589985,,532.4593697349992,,,,,,,,,,,,,,,,,,,,,,,,,,,,,,right,0.0,0.9836286760000804,,,,,,sub-130,1,random_dot,,
left,left,42.0,0.0,21.0,left,1.0,0.6506372439998813,,accuracy,space,10.173590238999168,,,,,,0.0,0.0,0.0,0.0,21.0,0.0,42.0,0.0,532.465621538,,,,,,,,,532.4597038319989,532.8073880529992,533.5984820269987,533.5918704329997,533.592198979999,533.5984820269987,533.5984820269987,533.5984820269987,,534.2592600169992,,,,,,,,,,,,,,,,,,,,,,,,,,,,,,left,1.0,0.6506372439998813,,,,,,sub-130,1,random_dot,,
right,right,43.0,1.0,21.0,left,0.0,6.066162610000902,,accuracy,space,10.173590238999168,,,,,,0.0,0.0,0.0,0.0,21.0,1.0,43.0,1.0,534.2642394269988,,,,,,,,,534.2595503389985,534.6075749769989,535.3984191250001,535.3915204770001,535.3918719309986,535.3984191250001,535.3984191250001,535.3984191250001,540.3802060229991,541.4761996239995,,,,,,,,,,,,,,,,,,,,,,,,,,,,,,left,0.0,6.066162610000902,,,,,,sub-130,1,random_dot,,
left,left,44.0,0.0,22.0,right,0.0,5.981437842001469,,accuracy,space,10.173590238999168,,,,,,0.0,0.0,0.0,0.0,22.0,0.0,44.0,0.0,541.4828655139991,,,,,,,,,541.4765742839991,541.8241384180001,542.6151871860002,542.6081911739984,542.6085298669987,542.6151871860002,542.6151871860002,542.6151871860002,547.5971931579988,548.598524355999,,,,,,,,,,,,,,,,,,,,,,,,,,,,,,right,0.0,5.981437842001469,,,,,,sub-130,1,random_dot,,
right,right,45.0,1.0,22.0,right,1.0,5.00998253599937,,accuracy,space,10.173590238999168,,,,,,0.0,0.0,0.0,0.0,22.0,1.0,45.0,1.0,548.6074278979995,,,,,,,,,548.5988005959989,548.6963193729989,549.4908360569989,549.4798032049985,549.4801285939993,549.4908360569989,549.4908360569989,549.4908360569989,554.4742286429992,554.5086398389994,,,,,,,,,,,,,,,,,,,,,,,,,,,,,,right,1.0,5.00998253599937,,,,,,sub-130,1,random_dot,,
right,right,46.0,0.0,23.0,right,1.0,5.700890934000199,,accuracy,space,10.173590238999168,,,,,,0.0,0.0,0.0,0.0,23.0,0.0,46.0,1.0,554.5148348459988,,,,,,,,,554.5089277489988,554.857428108,555.6482177130001,555.6417880239987,555.6420645919989,555.6482177130001,555.6482177130001,555.6482177130001,560.6304716949999,561.3593469209991,,,,,,,,,,,,,,,,,,,,,,,,,,,,,,right,1.0,5.700890934000199,,,,,,sub-130,1,random_dot,,
left,left,47.0,1.0,23.0,left,1.0,3.777290534000713,,accuracy,space,10.173590238999168,,,,,,0.0,0.0,0.0,0.0,23.0,1.0,47.0,0.0,561.3656888280002,,,,,,,,,561.3596503099998,562.5575043139997,563.3485943809992,563.3415926859998,563.3419270489994,563.3485943809992,563.3485943809992,563.3485943809992,,567.1322750740001,,,,,,,,,,,,,,,,,,,,,,,,,,,,,,left,1.0,3.777290534000713,,,,,,sub-130,1,random_dot,,
left,left,48.0,0.0,24.0,left,1.0,5.400624036999943,,accuracy,space,10.173590238999168,,,,,,0.0,0.0,0.0,0.0,24.0,0.0,48.0,0.0,567.1409332200001,,,,,,,,,567.1325475069989,567.4794778549985,568.274187130999,568.2632729870002,568.2636162319995,568.274187130999,568.274187130999,568.274187130999,573.2575542609993,573.6830889639987,,,,,,,,,,,,,,,,,,,,,,,,,,,,,,left,1.0,5.400624036999943,,,,,,sub-130,1,random_dot,,
right,right,49.0,1.0,24.0,left,0.0,5.786519953999232,,accuracy,space,10.173590238999168,,,,,,0.0,0.0,0.0,0.0,24.0,1.0,49.0,1.0,573.6906890809987,,,,,,,,,573.6834452329986,573.7795886189997,574.5743141429994,574.5637385449991,574.5640739929986,574.5743141429994,574.5743141429994,574.5743141429994,579.5575805429999,580.3652719129987,,,,,,,,,,,,,,,,,,,,,,,,,,,,,,left,0.0,5.786519953999232,,,,,,sub-130,1,random_dot,,
right,right,50.0,0.0,25.0,right,1.0,5.5376920830003655,,accuracy,space,10.173590238999168,,,,,,0.0,0.0,0.0,0.0,25.0,0.0,50.0,1.0,580.374279398,,,,,,,,,580.3655716529993,581.5626934679985,582.3576067579997,582.3466014139995,582.3469313369988,582.3576067579997,582.3576067579997,582.3576067579997,587.3409714709996,587.8980370889985,,,,,,,,,,,,,,,,,,,,,,,,,,,,,,right,1.0,5.5376920830003655,,,,,,sub-130,1,random_dot,,
left,left,51.0,1.0,25.0,right,0.0,5.490117527000621,,accuracy,space,10.173590238999168,,,,,,0.0,0.0,0.0,0.0,25.0,1.0,51.0,0.0,587.9075232309988,,,,,,,,,587.8983229059995,589.096080416999,589.8909963669994,589.8803256419997,589.8806594229991,589.8909963669994,589.8909963669994,589.8909963669994,594.874249208,595.3931397799988,,,,,,,,,,,,,,,,,,,,,,,,,,,,,,right,0.0,5.490117527000621,,,,,,sub-130,1,random_dot,,
right,right,52.0,0.0,26.0,right,1.0,5.702469362000556,,accuracy,space,10.173590238999168,,,,,,0.0,0.0,0.0,0.0,26.0,0.0,52.0,1.0,595.399786688,,,,,,,,,595.3935122519997,595.4909246219995,596.2817240200002,596.2749416389997,596.2752730129996,596.2817240200002,596.2817240200002,596.2817240200002,601.263794737999,601.9928026489997,,,,,,,,,,,,,,,,,,,,,,,,,,,,,,right,1.0,5.702469362000556,,,,,,sub-130,1,random_dot,,
left,left,53.0,1.0,26.0,right,0.0,5.563200671000232,,accuracy,space,10.173590238999168,,,,,,0.0,0.0,0.0,0.0,26.0,1.0,53.0,0.0,601.9989872119986,,,,,,,,,601.9930995509985,602.7909813269998,603.5818938880002,603.5751279389988,603.5754631459986,603.5818938880002,603.5818938880002,603.5818938880002,608.5639132559991,609.148685307,,,,,,,,,,,,,,,,,,,,,,,,,,,,,,right,0.0,5.563200671000232,,,,,,sub-130,1,random_dot,,
right,right,54.0,0.0,27.0,left,0.0,5.766758641000706,,accuracy,space,10.173590238999168,,,,,,0.0,0.0,0.0,0.0,27.0,0.0,54.0,1.0,609.1576939679999,,,,,,,,,609.1489704899996,609.2465712459998,610.041149318,610.0306806119988,610.0310126829991,610.041149318,610.041149318,610.041149318,615.0242792289991,615.8096832359988,,,,,,,,,,,,,,,,,,,,,,,,,,,,,,left,0.0,5.766758641000706,,,,,,sub-130,1,random_dot,,
left,left,55.0,1.0,27.0,right,0.0,5.607275325999581,,accuracy,space,10.173590238999168,,,,,,0.0,0.0,0.0,0.0,27.0,1.0,55.0,0.0,615.8160146419996,,,,,,,,,615.8099757079999,616.6076494619992,617.398798106,617.3918489139996,617.3921852049989,617.398798106,617.398798106,617.398798106,622.3807239739999,623.0092205539986,,,,,,,,,,,,,,,,,,,,,,,,,,,,,,right,0.0,5.607275325999581,,,,,,sub-130,1,random_dot,,
left,left,56.0,0.0,28.0,left,1.0,3.640732161000415,,accuracy,space,10.173590238999168,,,,,,0.0,0.0,0.0,0.0,28.0,0.0,56.0,0.0,623.0152115659985,,,,,,,,,623.0095813569988,623.1078707699999,623.8990512749988,623.8918452899998,623.8923381179993,623.8990512749988,623.8990512749988,623.8990512749988,,627.5427135949994,,,,,,,,,,,,,,,,,,,,,,,,,,,,,,left,1.0,3.640732161000415,,,,,,sub-130,1,random_dot,,
right,right,57.0,1.0,28.0,left,0.0,5.646613749999233,,accuracy,space,10.173590238999168,,,,,,0.0,0.0,0.0,0.0,28.0,1.0,57.0,1.0,627.548565604,,,,,,,,,627.5430108820001,628.7410878939991,629.5320598950002,629.5253266290001,629.5256629069991,629.5320598950002,629.5320598950002,629.5320598950002,634.514338985,635.181535542999,,,,,,,,,,,,,,,,,,,,,,,,,,,,,,left,0.0,5.646613749999233,,,,,,sub-130,1,random_dot,,
right,right,58.0,0.0,29.0,left,0.0,3.321242178999455,,accuracy,space,10.173590238999168,,,,,,0.0,0.0,0.0,0.0,29.0,0.0,58.0,1.0,635.1911171430002,,,,,,,,,635.1818059689995,635.9795758689997,636.774552601999,636.7639038919988,636.7642303439989,636.774552601999,636.774552601999,636.774552601999,,640.0997768739999,,,,,,,,,,,,,,,,,,,,,,,,,,,,,,left,0.0,3.321242178999455,,,,,,sub-130,1,random_dot,,
left,left,59.0,1.0,29.0,right,0.0,5.663568304000364,,accuracy,space,10.173590238999168,,,,,,0.0,0.0,0.0,0.0,29.0,1.0,59.0,0.0,640.1077132629998,,,,,,,,,640.1000733709989,640.8964658519999,641.6911960549987,641.6805105289986,641.6808168970001,641.6911960549987,641.6911960549987,641.6911960549987,646.6744551880001,647.358986797999,,,,,,,,,,,,,,,,,,,,,,,,,,,,,,right,0.0,5.663568304000364,,,,,,sub-130,1,random_dot,,
,,0.0,0.0,0.0,,,,,accuracy,space,10.173590238999168,,,,,,0.0,0.0,0.0,0.0,,,,,,,,,,,,,,,,,,,,,,,,,,,,,,,,,,,,,,,,,,,,,,,,,,,,,,,,,,,,,sub-130,1,random_dot,,
left,left,0.0,0.0,0.0,right,0.0,2.912633026000549,,speed,space,32.309331833001124,,,,,,0.0,1.0,1.0,1.0,0.0,0.0,0.0,0.0,679.7030856879992,,,,,,,,,679.6969627479994,679.791247101999,680.582329539,680.5753593399986,680.5756985190001,680.582329539,680.582329539,680.582329539,,683.4996375489991,,,,,,,,,,,,,,,,,,,,,,,647.3677998889998,647.376277026,647.376277026,679.6928024499994,space,32.309331833001124,,right,0.0,2.912633026000549,,,,,,sub-130,1,random_dot,,
right,right,1.0,1.0,0.0,left,0.0,3.1788874249996297,,speed,space,32.309331833001124,,,,,,0.0,1.0,1.0,1.0,0.0,1.0,1.0,1.0,683.5079450539997,,,,,,,,,683.4999108369993,684.2965546729993,685.0914062960001,685.0805547339987,685.0808853660001,685.0914062960001,685.0914062960001,685.0914062960001,,688.2759391889995,,,,,,,,,,,,,,,,,,,,,,,,,,,,,,left,0.0,3.1788874249996297,,,,,,sub-130,1,random_dot,,
right,right,2.0,0.0,1.0,right,1.0,3.586370306999015,,speed,space,32.309331833001124,,,,,,0.0,1.0,1.0,1.0,1.0,0.0,2.0,1.0,688.2818478909994,,,,,,,,,688.276234728999,688.6246511819991,689.4155662789999,689.4089994429996,689.409331548999,689.4155662789999,689.4155662789999,689.4155662789999,,693.0094460529999,,,,,,,,,,,,,,,,,,,,,,,,,,,,,,right,1.0,3.586370306999015,,,,,,sub-130,1,random_dot,,
left,left,3.0,1.0,1.0,left,1.0,0.959874611999112,,speed,space,32.309331833001124,,,,,,0.0,1.0,1.0,1.0,1.0,1.0,3.0,0.0,693.0157543709993,,,,,,,,,693.0097358709991,693.8080801729993,694.5984834219998,694.5919099549992,694.5922595149987,694.5984834219998,694.5984834219998,694.5984834219998,,695.567581157,,,,,,,,,,,,,,,,,,,,,,,,,,,,,,left,1.0,0.959874611999112,,,,,,sub-130,1,random_dot,,
left,left,4.0,0.0,2.0,left,1.0,1.6385983820000547,,speed,space,32.309331833001124,,,,,,0.0,1.0,1.0,1.0,2.0,0.0,4.0,0.0,695.5746052839986,,,,,,,,,695.5679479399987,696.7632536659985,697.5581104369994,697.5473431659993,697.5476956149996,697.5581104369994,697.5581104369994,697.5581104369994,,699.1998246570001,,,,,,,,,,,,,,,,,,,,,,,,,,,,,,left,1.0,1.6385983820000547,,,,,,sub-130,1,random_dot,,
right,right,5.0,1.0,2.0,right,1.0,0.9868810759999178,,speed,space,32.309331833001124,,,,,,0.0,1.0,1.0,1.0,2.0,1.0,5.0,1.0,699.2079310429999,,,,,,,,,699.2001241959988,699.2968276109987,700.0914539719997,700.0807536499997,700.0810874349991,700.0914539719997,700.0914539719997,700.0914539719997,,701.0834706909991,,,,,,,,,,,,,,,,,,,,,,,,,,,,,,right,1.0,0.9868810759999178,,,,,,sub-130,1,random_dot,,
left,left,6.0,0.0,3.0,left,1.0,0.8618254650009476,,speed,space,32.309331833001124,,,,,,0.0,1.0,1.0,1.0,3.0,0.0,6.0,0.0,701.0914554020001,,,,,,,,,701.0838007490001,701.1797968249994,701.9747732799988,701.964078862,701.9644137099986,701.9747732799988,701.9747732799988,701.9747732799988,,702.8433050389995,,,,,,,,,,,,,,,,,,,,,,,,,,,,,,left,1.0,0.8618254650009476,,,,,,sub-130,1,random_dot,,
right,right,7.0,1.0,3.0,right,1.0,1.0993126099983783,,speed,space,32.309331833001124,,,,,,0.0,1.0,1.0,1.0,3.0,1.0,7.0,1.0,702.8493234799989,,,,,,,,,702.8436046369989,703.6413081419996,704.4322338619986,704.4253403859984,704.425674099999,704.4322338619986,704.4322338619986,704.4322338619986,,705.5334533369987,,,,,,,,,,,,,,,,,,,,,,,,,,,,,,right,1.0,1.0993126099983783,,,,,,sub-130,1,random_dot,,
right,right,8.0,0.0,4.0,left,0.0,0.6685513699994772,,speed,space,32.309331833001124,,,,,,0.0,1.0,1.0,1.0,4.0,0.0,8.0,1.0,705.541371579,,,,,,,,,705.5337432449996,705.8798208529988,706.6747885609984,706.6642238429995,706.6645972869992,706.6747885609984,706.6747885609984,706.6747885609984,,707.3500652309995,,,,,,,,,,,,,,,,,,,,,,,,,,,,,,left,0.0,0.6685513699994772,,,,,,sub-130,1,random_dot,,
left,left,9.0,1.0,4.0,right,0.0,0.4724126330002036,,speed,space,32.309331833001124,,,,,,0.0,1.0,1.0,1.0,4.0,1.0,9.0,0.0,707.3580893519993,,,,,,,,,707.3504280199995,708.546618815999,709.3413476509995,709.3309615099988,709.3312984569984,709.3413476509995,709.3413476509995,709.3413476509995,,709.8164283079986,,,,,,,,,,,,,,,,,,,,,,,,,,,,,,right,0.0,0.4724126330002036,,,,,,sub-130,1,random_dot,,
right,right,10.0,0.0,5.0,right,1.0,1.7201184069999726,,speed,space,32.309331833001124,,,,,,0.0,1.0,1.0,1.0,5.0,0.0,10.0,1.0,709.8245972289988,,,,,,,,,709.8167195289989,709.9133341279994,710.7080365439997,710.6970235439985,710.6973549109989,710.7080365439997,710.7080365439997,710.7080365439997,,712.4328032979993,,,,,,,,,,,,,,,,,,,,,,,,,,,,,,right,1.0,1.7201184069999726,,,,,,sub-130,1,random_dot,,
left,left,11.0,1.0,5.0,left,1.0,0.5777898550004466,,speed,space,32.309331833001124,,,,,,0.0,1.0,1.0,1.0,5.0,1.0,11.0,0.0,712.4413380899987,,,,,,,,,712.4330963839984,712.7793903349993,713.5748437009988,713.5641822289999,713.5645155629991,713.5748437009988,713.5748437009988,713.5748437009988,,714.1601764509996,,,,,,,,,,,,,,,,,,,,,,,,,,,,,,left,1.0,0.5777898550004466,,,,,,sub-130,1,random_dot,,
left,left,12.0,0.0,6.0,right,0.0,0.6694536570012133,,speed,space,32.309331833001124,,,,,,0.0,1.0,1.0,1.0,6.0,0.0,12.0,0.0,714.1663756649996,,,,,,,,,714.1604657729986,714.2581698499998,715.0489790659994,715.0423128289985,715.0426481349987,715.0489790659994,715.0489790659994,715.0489790659994,,715.7263866449994,,,,,,,,,,,,,,,,,,,,,,,,,,,,,,right,0.0,0.6694536570012133,,,,,,sub-130,1,random_dot,,
right,right,13.0,1.0,6.0,right,1.0,2.127538699998695,,speed,space,32.309331833001124,,,,,,0.0,1.0,1.0,1.0,6.0,1.0,13.0,1.0,715.7327436649994,,,,,,,,,715.7266822019992,716.5247463799988,717.3157478859994,717.3090429349995,717.3093900109998,717.3157478859994,717.3157478859994,717.3157478859994,,719.4499733409993,,,,,,,,,,,,,,,,,,,,,,,,,,,,,,right,1.0,2.127538699998695,,,,,,sub-130,1,random_dot,,
left,left,14.0,0.0,7.0,left,1.0,0.5561281430000236,,speed,space,32.309331833001124,,,,,,0.0,1.0,1.0,1.0,7.0,0.0,14.0,0.0,719.4580793609985,,,,,,,,,719.4503130979992,720.6468520489998,721.4415266479991,721.430934308999,721.4312638479987,721.4415266479991,721.4415266479991,721.4415266479991,,721.9997429779996,,,,,,,,,,,,,,,,,,,,,,,,,,,,,,left,1.0,0.5561281430000236,,,,,,sub-130,1,random_dot,,
right,right,15.0,1.0,7.0,right,1.0,0.6715327339989017,,speed,space,32.309331833001124,,,,,,0.0,1.0,1.0,1.0,7.0,1.0,15.0,1.0,722.0080786649996,,,,,,,,,722.0000362760002,722.0968510409984,722.891545257,722.880794839999,722.8811217040002,722.891545257,722.891545257,722.891545257,,723.5666692169998,,,,,,,,,,,,,,,,,,,,,,,,,,,,,,right,1.0,0.6715327339989017,,,,,,sub-130,1,random_dot,,
left,left,16.0,0.0,8.0,left,1.0,0.6032941710000159,,speed,space,32.309331833001124,,,,,,0.0,1.0,1.0,1.0,8.0,0.0,16.0,0.0,723.5746211209989,,,,,,,,,723.5669695099987,724.36344001,725.1581271260002,725.1471282699986,725.1474679129988,725.1581271260002,725.1581271260002,725.1581271260002,,725.7662073819993,,,,,,,,,,,,,,,,,,,,,,,,,,,,,,left,1.0,0.6032941710000159,,,,,,sub-130,1,random_dot,,
right,right,17.0,1.0,8.0,right,1.0,2.2581944020002997,,speed,space,32.309331833001124,,,,,,0.0,1.0,1.0,1.0,8.0,1.0,17.0,1.0,725.7747104909995,,,,,,,,,725.7665031239994,726.1133551139992,726.9080486359999,726.8972763929996,726.8976092289995,726.9080486359999,726.9080486359999,726.9080486359999,,729.1764566029997,,,,,,,,,,,,,,,,,,,,,,,,,,,,,,right,1.0,2.2581944020002997,,,,,,sub-130,1,random_dot,,
right,right,18.0,0.0,9.0,right,1.0,1.3820599160007987,,speed,space,32.309331833001124,,,,,,0.0,1.0,1.0,1.0,9.0,0.0,18.0,1.0,729.1825015699997,,,,,,,,,729.1767592739998,729.9747614199987,730.7656683939986,730.7589755489989,730.7593083739994,730.7656683939986,730.7656683939986,730.7656683939986,,732.1496117649986,,,,,,,,,,,,,,,,,,,,,,,,,,,,,,right,1.0,1.3820599160007987,,,,,,sub-130,1,random_dot,,
left,left,19.0,1.0,9.0,left,1.0,0.5334607799995865,,speed,space,32.309331833001124,,,,,,0.0,1.0,1.0,1.0,9.0,1.0,19.0,0.0,732.1579951349995,,,,,,,,,732.1499059849994,732.946674466999,733.7415242979987,733.7308282649992,733.7311549009992,733.7415242979987,733.7415242979987,733.7415242979987,,734.2766822239992,,,,,,,,,,,,,,,,,,,,,,,,,,,,,,left,1.0,0.5334607799995865,,,,,,sub-130,1,random_dot,,
right,right,20.0,0.0,10.0,right,1.0,0.4797740610010805,,speed,space,32.309331833001124,,,,,,0.0,1.0,1.0,1.0,10.0,0.0,20.0,1.0,734.2827341009997,,,,,,,,,734.2769688169992,734.3747361320002,735.1657210509984,735.158898963,735.1592332820001,735.1657210509984,735.1657210509984,735.1657210509984,,735.6501070569993,,,,,,,,,,,,,,,,,,,,,,,,,,,,,,right,1.0,0.4797740610010805,,,,,,sub-130,1,random_dot,,
left,left,21.0,1.0,10.0,right,0.0,0.6165848069995263,,speed,space,32.309331833001124,,,,,,0.0,1.0,1.0,1.0,10.0,1.0,21.0,0.0,735.6582077699986,,,,,,,,,735.6504005539991,735.7467599430001,736.5416029110002,736.5307277659995,736.5310617260002,736.5416029110002,736.5416029110002,736.5416029110002,,737.1598440029993,,,,,,,,,,,,,,,,,,,,,,,,,,,,,,right,0.0,0.6165848069995263,,,,,,sub-130,1,random_dot,,
left,left,22.0,0.0,11.0,left,1.0,0.4362095260003116,,speed,space,32.309331833001124,,,,,,0.0,1.0,1.0,1.0,11.0,0.0,22.0,0.0,737.1658450949999,,,,,,,,,737.1601306229986,737.5082773119993,738.299023264999,738.2922866429999,738.2926226489999,738.299023264999,738.299023264999,738.299023264999,,738.7436900510002,,,,,,,,,,,,,,,,,,,,,,,,,,,,,,left,1.0,0.4362095260003116,,,,,,sub-130,1,random_dot,,
right,right,23.0,1.0,11.0,left,0.0,1.194594077000147,,speed,space,32.309331833001124,,,,,,0.0,1.0,1.0,1.0,11.0,1.0,23.0,1.0,738.7499338569996,,,,,,,,,738.7439810959986,739.9413850279998,740.732287978999,740.7254857129992,740.7258200269989,740.732287978999,740.732287978999,740.732287978999,,741.9329668359987,,,,,,,,,,,,,,,,,,,,,,,,,,,,,,left,0.0,1.194594077000147,,,,,,sub-130,1,random_dot,,
right,right,24.0,0.0,12.0,right,1.0,0.6547551619987644,,speed,space,32.309331833001124,,,,,,0.0,1.0,1.0,1.0,12.0,0.0,24.0,1.0,741.9416417829998,,,,,,,,,741.9332599429999,742.0302559920001,742.8248540429995,742.8142459390001,742.8145790439994,742.8248540429995,742.8248540429995,742.8248540429995,,743.4836209839996,,,,,,,,,,,,,,,,,,,,,,,,,,,,,,right,1.0,0.6547551619987644,,,,,,sub-130,1,random_dot,,
left,left,25.0,1.0,12.0,right,0.0,0.6354990400013776,,speed,space,32.309331833001124,,,,,,0.0,1.0,1.0,1.0,12.0,1.0,25.0,0.0,743.4916352949986,,,,,,,,,743.4839139449996,743.8301967569987,744.6248592960001,744.614024909999,744.6143555130002,744.6248592960001,744.6248592960001,744.6248592960001,,745.2658619969989,,,,,,,,,,,,,,,,,,,,,,,,,,,,,,right,0.0,0.6354990400013776,,,,,,sub-130,1,random_dot,,
right,right,26.0,0.0,13.0,left,0.0,0.4605251459997816,,speed,space,32.309331833001124,,,,,,0.0,1.0,1.0,1.0,13.0,0.0,26.0,1.0,745.274852171,,,,,,,,,745.2661279479998,746.0633273939984,746.8582549739986,746.8473846849993,746.8477150999988,746.8582549739986,746.8582549739986,746.8582549739986,,747.3268232899991,,,,,,,,,,,,,,,,,,,,,,,,,,,,,,left,0.0,0.4605251459997816,,,,,,sub-130,1,random_dot,,
left,left,27.0,1.0,13.0,left,1.0,1.6394618310005171,,speed,space,32.309331833001124,,,,,,0.0,1.0,1.0,1.0,13.0,1.0,27.0,0.0,747.3330692259988,,,,,,,,,747.3271216409994,748.5248859619987,749.3154706209989,749.3088522099988,749.3091889619991,749.3154706209989,749.3154706209989,749.3154706209989,,750.9599494909999,,,,,,,,,,,,,,,,,,,,,,,,,,,,,,left,1.0,1.6394618310005171,,,,,,sub-130,1,random_dot,,
left,left,28.0,0.0,14.0,right,0.0,0.5092557370007853,,speed,space,32.309331833001124,,,,,,0.0,1.0,1.0,1.0,14.0,0.0,28.0,0.0,750.9661194149994,,,,,,,,,750.9602959589993,751.7581344409991,752.5489491019998,752.5421553239994,752.5424920599999,752.5489491019998,752.5489491019998,752.5489491019998,,753.0599919689994,,,,,,,,,,,,,,,,,,,,,,,,,,,,,,right,0.0,0.5092557370007853,,,,,,sub-130,1,random_dot,,
right,right,29.0,1.0,14.0,right,1.0,0.6524539420006477,,speed,space,32.309331833001124,,,,,,0.0,1.0,1.0,1.0,14.0,1.0,29.0,1.0,753.0661082779989,,,,,,,,,753.0602830139997,753.4083095599999,754.1987295049985,754.1923130079995,754.1926301120002,754.1987295049985,754.1987295049985,754.1987295049985,,754.8598525159996,,,,,,,,,,,,,,,,,,,,,,,,,,,,,,right,1.0,0.6524539420006477,,,,,,sub-130,1,random_dot,,
right,right,30.0,0.0,15.0,left,0.0,0.4680645959997491,,speed,space,32.309331833001124,,,,,,0.0,1.0,1.0,1.0,15.0,0.0,30.0,1.0,754.8660548049993,,,,,,,,,754.8601467029985,755.2082255939986,755.9990331489989,755.9924188259993,755.9927535379993,755.9990331489989,755.9990331489989,755.9990331489989,,756.4767983269994,,,,,,,,,,,,,,,,,,,,,,,,,,,,,,left,0.0,0.4680645959997491,,,,,,sub-130,1,random_dot,,
left,left,31.0,1.0,15.0,left,1.0,0.7423874199994316,,speed,space,32.309331833001124,,,,,,0.0,1.0,1.0,1.0,15.0,1.0,31.0,0.0,756.4831353499994,,,,,,,,,756.4771507099995,756.5748544099988,757.3659796949996,757.358935545999,757.3594090799998,757.3659796949996,757.3659796949996,757.3659796949996,,758.1101226639985,,,,,,,,,,,,,,,,,,,,,,,,,,,,,,left,1.0,0.7423874199994316,,,,,,sub-130,1,random_dot,,
right,right,32.0,0.0,16.0,right,1.0,2.027011848000257,,speed,space,32.309331833001124,,,,,,0.0,1.0,1.0,1.0,16.0,0.0,32.0,1.0,758.1161782349991,,,,,,,,,758.1104184439992,759.3082097629995,760.099192452999,760.0925897529996,760.0929223719995,760.099192452999,760.099192452999,760.099192452999,,762.1324523619987,,,,,,,,,,,,,,,,,,,,,,,,,,,,,,right,1.0,2.027011848000257,,,,,,sub-130,1,random_dot,,
left,left,33.0,1.0,16.0,left,1.0,0.6769790519992966,,speed,space,32.309331833001124,,,,,,0.0,1.0,1.0,1.0,16.0,1.0,33.0,0.0,762.1416849469988,,,,,,,,,762.132718367,762.9303506169999,763.7249958699995,763.7140738599992,763.7144217269997,763.7249958699995,763.7249958699995,763.7249958699995,,764.4099121719992,,,,,,,,,,,,,,,,,,,,,,,,,,,,,,left,1.0,0.6769790519992966,,,,,,sub-130,1,random_dot,,
right,right,34.0,0.0,17.0,left,0.0,5.6558727720002935,,speed,space,32.309331833001124,,,,,,0.0,1.0,1.0,1.0,17.0,0.0,34.0,1.0,764.4161675729993,,,,,,,,,764.4102106350001,765.6082655449991,766.3991506639995,766.3925427249997,766.3928708579988,766.3991506639995,766.3991506639995,766.3991506639995,771.3811391629988,772.0598508819985,,,,,,,,,,,,,,,,,,,,,,,,,,,,,,left,0.0,5.6558727720002935,,,,,,sub-130,1,random_dot,,
left,left,35.0,1.0,17.0,right,0.0,5.452243785999599,,speed,space,32.309331833001124,,,,,,0.0,1.0,1.0,1.0,17.0,1.0,35.0,0.0,772.0660433719986,,,,,,,,,772.060157083999,773.2582499659984,774.048988778999,774.042301428999,774.0426374149993,774.048988778999,774.048988778999,774.048988778999,779.031140826999,779.510010508,,,,,,,,,,,,,,,,,,,,,,,,,,,,,,right,0.0,5.452243785999599,,,,,,sub-130,1,random_dot,,
right,right,36.0,0.0,18.0,left,0.0,5.476304542000435,,speed,space,32.309331833001124,,,,,,0.0,1.0,1.0,1.0,18.0,0.0,36.0,1.0,779.5161490999999,,,,,,,,,779.5103049640002,780.7083518169984,781.4993069939992,781.4926014129996,781.4929306909999,781.4993069939992,781.4993069939992,781.4993069939992,786.4812623459984,786.981879519999,,,,,,,,,,,,,,,,,,,,,,,,,,,,,,left,0.0,5.476304542000435,,,,,,sub-130,1,random_dot,,
left,left,37.0,1.0,18.0,left,1.0,3.616131636999853,,speed,space,32.309331833001124,,,,,,0.0,1.0,1.0,1.0,18.0,1.0,37.0,0.0,786.9915955279994,,,,,,,,,786.9821654979987,787.0802799469984,787.8749366069987,787.8642524039988,787.8645856469993,787.8749366069987,787.8749366069987,787.8749366069987,,791.4930784259996,,,,,,,,,,,,,,,,,,,,,,,,,,,,,,left,1.0,3.616131636999853,,,,,,sub-130,1,random_dot,,
left,left,38.0,0.0,19.0,right,0.0,5.656930928000293,,speed,space,32.309331833001124,,,,,,0.0,1.0,1.0,1.0,19.0,0.0,38.0,0.0,791.4990275909986,,,,,,,,,791.4933696699991,792.691727124,793.4824106799988,793.4756105050001,793.4759381269996,793.4824106799988,793.4824106799988,793.4824106799988,798.4646150079989,799.143213075,,,,,,,,,,,,,,,,,,,,,,,,,,,,,,right,0.0,5.656930928000293,,,,,,sub-130,1,random_dot,,
right,right,39.0,1.0,19.0,right,1.0,4.280863081999996,,speed,space,32.309331833001124,,,,,,0.0,1.0,1.0,1.0,19.0,1.0,39.0,1.0,799.1494061869998,,,,,,,,,799.1435049739994,799.491789746,800.2823148659991,800.2756136309999,800.2759438129997,800.2823148659991,800.2823148659991,800.2823148659991,,804.5659767819998,,,,,,,,,,,,,,,,,,,,,,,,,,,,,,right,1.0,4.280863081999996,,,,,,sub-130,1,random_dot,,
left,left,40.0,0.0,20.0,left,1.0,2.715287095999884,,speed,space,32.309331833001124,,,,,,0.0,1.0,1.0,1.0,20.0,0.0,40.0,0.0,804.5750733690002,,,,,,,,,804.5662142789988,804.6638505020001,805.4584123419991,805.4477597969999,805.448090758,805.4584123419991,805.4584123419991,805.4584123419991,,808.1764925309999,,,,,,,,,,,,,,,,,,,,,,,,,,,,,,left,1.0,2.715287095999884,,,,,,sub-130,1,random_dot,,
right,right,41.0,1.0,20.0,left,0.0,5.75327228200149,,speed,space,32.309331833001124,,,,,,0.0,1.0,1.0,1.0,20.0,1.0,41.0,1.0,808.1825251459995,,,,,,,,,808.1767827439999,809.3751117939992,810.1657868209986,810.1590507089986,810.1593802419993,810.1657868209986,810.1657868209986,810.1657868209986,815.1479219349985,815.9267959289991,,,,,,,,,,,,,,,,,,,,,,,,,,,,,,left,0.0,5.75327228200149,,,,,,sub-130,1,random_dot,,
right,right,42.0,0.0,21.0,right,1.0,3.779160583999328,,speed,space,32.309331833001124,,,,,,0.0,1.0,1.0,1.0,21.0,0.0,42.0,1.0,815.9328788169987,,,,,,,,,815.9270934779997,816.2749796520002,817.0658660619993,817.0590397839987,817.0593707059998,817.0658660619993,817.0658660619993,817.0658660619993,,820.8502125079995,,,,,,,,,,,,,,,,,,,,,,,,,,,,,,right,1.0,3.779160583999328,,,,,,sub-130,1,random_dot,,
left,left,43.0,1.0,21.0,left,1.0,0.5953210419993411,,speed,space,32.309331833001124,,,,,,0.0,1.0,1.0,1.0,21.0,1.0,43.0,0.0,820.858311558999,,,,,,,,,820.8505066429989,821.646969337,822.4417486629991,822.4311792319986,822.4315230569991,822.4417486629991,822.4417486629991,822.4417486629991,,823.04361599,,,,,,,,,,,,,,,,,,,,,,,,,,,,,,left,1.0,0.5953210419993411,,,,,,sub-130,1,random_dot,,
right,right,44.0,0.0,22.0,right,1.0,0.5396604489997117,,speed,space,32.309331833001124,,,,,,0.0,1.0,1.0,1.0,22.0,0.0,44.0,1.0,823.0499685549985,,,,,,,,,823.043942368,824.2417144689989,825.0326222129988,825.0257491009997,825.0260875519998,825.0326222129988,825.0326222129988,825.0326222129988,,825.5764314539992,,,,,,,,,,,,,,,,,,,,,,,,,,,,,,right,1.0,0.5396604489997117,,,,,,sub-130,1,random_dot,,
left,left,45.0,1.0,22.0,left,1.0,0.7091214640004182,,speed,space,32.309331833001124,,,,,,0.0,1.0,1.0,1.0,22.0,1.0,45.0,0.0,825.5822025239995,,,,,,,,,825.5766952269987,825.6749819759989,826.4657989509997,826.4590957209984,826.4594322479988,826.4657989509997,826.4657989509997,826.4657989509997,,827.1766805989992,,,,,,,,,,,,,,,,,,,,,,,,,,,,,,left,1.0,0.7091214640004182,,,,,,sub-130,1,random_dot,,
right,right,46.0,0.0,23.0,left,0.0,1.2671516829996108,,speed,space,32.309331833001124,,,,,,0.0,1.0,1.0,1.0,23.0,0.0,46.0,1.0,827.1827686759989,,,,,,,,,827.1769689569992,827.9749505579985,828.7657685089998,828.7590938519988,828.7594282639984,828.7657685089998,828.7657685089998,828.7657685089998,,830.0437366909991,,,,,,,,,,,,,,,,,,,,,,,,,,,,,,left,0.0,1.2671516829996108,,,,,,sub-130,1,random_dot,,
left,left,47.0,1.0,23.0,left,1.0,4.430698027999824,,speed,space,32.309331833001124,,,,,,0.0,1.0,1.0,1.0,23.0,1.0,47.0,0.0,830.0502300029984,,,,,,,,,830.0440898950001,831.241792458999,832.0325915839985,832.0258074489993,832.0261403679997,832.0325915839985,832.0325915839985,832.0325915839985,,836.4666398179997,,,,,,,,,,,,,,,,,,,,,,,,,,,,,,left,1.0,4.430698027999824,,,,,,sub-130,1,random_dot,,
left,left,48.0,0.0,24.0,right,0.0,1.5007810780007276,,speed,space,32.309331833001124,,,,,,0.0,1.0,1.0,1.0,24.0,0.0,48.0,0.0,836.4749372400001,,,,,,,,,836.4669231169992,837.263784503999,838.0584992289987,838.0476464469994,838.047978519,838.0584992289987,838.0584992289987,838.0584992289987,,839.5683377810001,,,,,,,,,,,,,,,,,,,,,,,,,,,,,,right,0.0,1.5007810780007276,,,,,,sub-130,1,random_dot,,
right,right,49.0,1.0,24.0,left,0.0,1.0937432610007818,,speed,space,32.309331833001124,,,,,,0.0,1.0,1.0,1.0,24.0,1.0,49.0,1.0,839.5750406279985,,,,,,,,,839.5687094879995,839.9139888319987,840.7085110849985,840.6976693050001,840.698003509,840.7085110849985,840.7085110849985,840.7085110849985,,841.8100434959997,,,,,,,,,,,,,,,,,,,,,,,,,,,,,,left,0.0,1.0937432610007818,,,,,,sub-130,1,random_dot,,
left,left,50.0,0.0,25.0,left,1.0,1.3732086500003788,,speed,space,32.309331833001124,,,,,,0.0,1.0,1.0,1.0,25.0,0.0,50.0,0.0,841.8163463189994,,,,,,,,,841.8103325619995,843.0085298389986,843.799226920999,843.7924573339988,843.7927952579994,843.799226920999,843.799226920999,843.799226920999,,845.1765714079993,,,,,,,,,,,,,,,,,,,,,,,,,,,,,,left,1.0,1.3732086500003788,,,,,,sub-130,1,random_dot,,
right,right,51.0,1.0,25.0,right,1.0,4.093198840000696,,speed,space,32.309331833001124,,,,,,0.0,1.0,1.0,1.0,25.0,1.0,51.0,1.0,845.1825470719996,,,,,,,,,845.1768558610001,845.9751068999994,846.7661410269993,846.7592885839986,846.7596181079989,846.7661410269993,846.7661410269993,846.7661410269993,,850.8676766959998,,,,,,,,,,,,,,,,,,,,,,,,,,,,,,right,1.0,4.093198840000696,,,,,,sub-130,1,random_dot,,
left,left,52.0,0.0,26.0,left,1.0,5.609892096999829,,speed,space,32.309331833001124,,,,,,0.0,1.0,1.0,1.0,26.0,0.0,52.0,0.0,850.8751771649986,,,,,,,,,850.8680141819987,852.0639626249995,852.8585609929996,852.8478971320001,852.848233839999,852.8585609929996,852.8585609929996,852.8585609929996,857.8417967879996,858.4765312250001,,,,,,,,,,,,,,,,,,,,,,,,,,,,,,left,1.0,5.609892096999829,,,,,,sub-130,1,random_dot,,
right,right,53.0,1.0,26.0,left,0.0,4.522616017000473,,speed,space,32.309331833001124,,,,,,0.0,1.0,1.0,1.0,26.0,1.0,53.0,1.0,858.4827041689987,,,,,,,,,858.4768268309999,859.2751235739997,860.0659406599989,860.059188064999,860.0595185099992,860.0659406599989,860.0659406599989,860.0659406599989,,864.5935230079995,,,,,,,,,,,,,,,,,,,,,,,,,,,,,,left,0.0,4.522616017000473,,,,,,sub-130,1,random_dot,,
right,right,54.0,0.0,27.0,right,1.0,1.2206117500008986,,speed,space,32.309331833001124,,,,,,0.0,1.0,1.0,1.0,27.0,0.0,54.0,1.0,864.5996370469984,,,,,,,,,864.5938216539998,865.7918262909989,866.582815111,866.5759218610001,866.5762552549986,866.582815111,866.582815111,866.582815111,,867.8098556899986,,,,,,,,,,,,,,,,,,,,,,,,,,,,,,right,1.0,1.2206117500008986,,,,,,sub-130,1,random_dot,,
left,left,55.0,1.0,27.0,left,1.0,3.9815505179994943,,speed,space,32.309331833001124,,,,,,0.0,1.0,1.0,1.0,27.0,1.0,55.0,0.0,867.815875147,,,,,,,,,867.8101302499999,868.6086300400002,869.3996258489988,869.392745449999,869.3930794079988,869.3996258489988,869.3996258489988,869.3996258489988,,873.3830008730001,,,,,,,,,,,,,,,,,,,,,,,,,,,,,,left,1.0,3.9815505179994943,,,,,,sub-130,1,random_dot,,
right,right,56.0,0.0,28.0,left,0.0,5.551663493999513,,speed,space,32.309331833001124,,,,,,0.0,1.0,1.0,1.0,28.0,0.0,56.0,1.0,873.3918527189999,,,,,,,,,873.3832483469996,874.1805342009993,874.9754226770001,874.9646234309985,874.9648965870001,874.9754226770001,874.9754226770001,874.9754226770001,879.9585420289986,880.5322756979986,,,,,,,,,,,,,,,,,,,,,,,,,,,,,,left,0.0,5.551663493999513,,,,,,sub-130,1,random_dot,,
left,left,57.0,1.0,28.0,left,1.0,2.047198670999933,,speed,space,32.309331833001124,,,,,,0.0,1.0,1.0,1.0,28.0,1.0,57.0,0.0,880.5419066839986,,,,,,,,,880.532556483,880.8804579549997,881.6753701849993,881.6645039219984,881.664836811,881.6753701849993,881.6753701849993,881.6753701849993,,883.7266320469989,,,,,,,,,,,,,,,,,,,,,,,,,,,,,,left,1.0,2.047198670999933,,,,,,sub-130,1,random_dot,,
right,right,58.0,0.0,29.0,right,1.0,4.905933025000195,,speed,space,32.309331833001124,,,,,,0.0,1.0,1.0,1.0,29.0,0.0,58.0,1.0,883.7327050079984,,,,,,,,,883.7269246709984,884.9251798109999,885.7161010989985,885.709335345,885.7096667379992,885.7161010989985,885.7161010989985,885.7161010989985,,890.6268990319986,,,,,,,,,,,,,,,,,,,,,,,,,,,,,,right,1.0,4.905933025000195,,,,,,sub-130,1,random_dot,,
left,left,59.0,1.0,29.0,left,1.0,1.1816424139997252,,speed,space,32.309331833001124,,,,,,0.0,1.0,1.0,1.0,29.0,1.0,59.0,0.0,890.6327514039986,,,,,,,,,890.6271895829996,890.9752364870001,891.7663215079992,891.7596362899985,891.7599677459984,891.7663215079992,891.7663215079992,891.7663215079992,,892.9499034029996,,,,,,,,,,,,,,,,,,,,,,,,,,,,,,left,1.0,1.1816424139997252,,,,,,sub-130,1,random_dot,,
,,1.0,1.0,0.0,,,,,speed,space,32.309331833001124,,,,,,0.0,1.0,1.0,1.0,,,,,,,,,,,,,,,,,,,,,,,,,,,,,,,,,,,,,,,,,,,,,,,,,,,,,,,,,,,,,sub-130,1,random_dot,,
,,,,,,,,,,,,,,,,,,,,,,,,,,,,,,,,,,,,,,,,,,,,,,,,,,,,,,,,,,,,,,,,,,,,,,,,,,,,,892.9536849579999,892.9610232849991,897.958851415,897.9478607330002,sub-130,1,random_dot,,
