wordCTK,colorCTK,corrAnsCTK,congruentCTK,thisN,thisTrialN,thisRepN,keyResp_CTK.keys,keyResp_CTK.corr,keyResp_CTK.rt,keyResp_CTK.duration,wordPractice,colorPractice,corrAnsPractice,congruentPractice,respPractice.keys,respPractice.corr,respPractice.rt,respPractice.duration,word,color,corrAns,congruent,keyResp_test_run.keys,keyResp_test_run.corr,keyResp_test_run.rt,keyResp_test_run.duration,trials_CTK.thisRepN,trials_CTK.thisTrialN,trials_CTK.thisN,trials_CTK.thisIndex,trials_practice.thisRepN,trials_practice.thisTrialN,trials_practice.thisN,trials_practice.thisIndex,trials_test.thisRepN,trials_test.thisTrialN,trials_test.thisN,trials_test.thisIndex,thisRow.t,notes,instruction.started,instr_text.started,instr_image.started,instr_resp.started,instruction.stopped,instr_resp.keys,instr_resp.rt,instr_resp.duration,instr_color_to_key.started,instr_ctk.started,resp_ctk.started,instr_color_to_key.stopped,resp_ctk.keys,resp_ctk.rt,resp_ctk.duration,ITI.started,fixcross.started,fixcross.stopped,ITI.stopped,color_to_key_run.started,stimulus_CTK.started,keyResp_CTK.started,color_to_key_run.stopped,trials_CTK.keyResp_CTK.keys,trials_CTK.keyResp_CTK.corr,trials_CTK.keyResp_CTK.rt,trials_CTK.keyResp_CTK.duration,instr_practice.started,instr_practice_text.started,instr_practice_resp.started,instr_practice.stopped,instr_practice_resp.keys,instr_practice_resp.rt,instr_practice_resp.duration,practice_run.started,stimulus_practice.started,respPractice.started,practice_run.stopped,trials_practice.respPractice.keys,trials_practice.respPractice.corr,trials_practice.respPractice.rt,trials_practice.respPractice.duration,feedback.started,textFeedback.started,feedback.stopped,textFeedback.stopped,instr_test.started,instr_test_text.started,instr_test_resp.started,instr_test.stopped,instr_test_resp.keys,instr_test_resp.rt,instr_test_resp.duration,test_run.started,stimulus_test_run.started,keyResp_test_run.started,test_run.stopped,trials_test.keyResp_test_run.keys,trials_test.keyResp_test_run.corr,trials_test.keyResp_test_run.rt,trials_test.keyResp_test_run.duration,goodbye.started,textGoodbye.started,textGoodbye.stopped,goodbye.stopped,participant,session,expName,frameRate,Unnamed: 113
,,,,,,,,,,,,,,,,,,,,,,,,,,,,,,,,,,,,,,,,,0.0094685419971938,0.0352703749958891,0.0352703749958891,0.0352703749958891,26.36220733299706,space,26.29485025000031,,,,,,,,,,,,,,,,,,,,,,,,,,,,,,,,,,,,,,,,,,,,,,,,,,,,,,,,,,,sub-037,1,stroop_test,,
,,,,,,,,,,,,,,,,,,,,,,,,,,,,,,,,,,,,,,,,,,,,,,,,,26.36226724999869,26.36707704199944,26.36707704199944,32.29025516699767,space,5.912730666997959,,,,,,,,,,,,,,,,,,,,,,,,,,,,,,,,,,,,,,,,,,,,,,,,,,,,sub-037,1,stroop_test,,
test,red,r,1.0,0.0,0.0,0.0,r,1.0,1.373535124999762,,,,,,,,,,,,,,,,,,0.0,0.0,0.0,0.0,,,,,,,,,32.32773895799619,,,,,,,,,,,,,,,,,32.30979066699365,32.38837245799368,33.186166791994765,33.172680916999525,33.180104041995946,33.186166791994765,33.186166791994765,34.56361570799345,r,1.0,1.373535124999762,,,,,,,,,,,,,,,,,,,,,,,,,,,,,,,,,,,,,,,,sub-037,1,stroop_test,,
test,blue,b,1.0,1.0,1.0,0.0,b,1.0,1.1203432499969497,,,,,,,,,,,,,,,,,,0.0,1.0,1.0,2.0,,,,,,,,,34.57433645799756,,,,,,,,,,,,,,,,,34.564207957999315,35.363667207995604,36.16332020799746,36.15618820799864,36.15669570799946,36.16332020799746,36.16332020799746,37.29052704199421,b,1.0,1.1203432499969497,,,,,,,,,,,,,,,,,,,,,,,,,,,,,,,,,,,,,,,,sub-037,1,stroop_test,,
test,yellow,g,1.0,2.0,2.0,0.0,g,1.0,1.2640644580023943,,,,,,,,,,,,,,,,,,0.0,2.0,2.0,1.0,,,,,,,,,37.299251457996434,,,,,,,,,,,,,,,,,37.2911011249962,38.48873866699432,39.28103233299771,39.27304879199801,39.27385604199662,39.28103233299771,39.28103233299771,40.57274583300023,g,1.0,1.2640644580023943,,,,,,,,,,,,,,,,,,,,,,,,,,,,,,,,,,,,,,,,sub-037,1,stroop_test,,
test,red,r,1.0,3.0,0.0,1.0,r,1.0,0.6399845420019119,,,,,,,,,,,,,,,,,,1.0,0.0,3.0,0.0,,,,,,,,,40.58867320799618,,,,,,,,,,,,,,,,,40.573172332995455,41.76137000000017,42.55370083299931,42.54539533299976,42.54598941699805,42.55370083299931,42.55370083299931,43.19658250000066,r,1.0,0.6399845420019119,,,,,,,,,,,,,,,,,,,,,,,,,,,,,,,,,,,,,,,,sub-037,1,stroop_test,,
test,blue,b,1.0,4.0,1.0,1.0,b,1.0,0.7500289579984383,,,,,,,,,,,,,,,,,,1.0,1.0,4.0,2.0,,,,,,,,,43.22187187499367,,,,,,,,,,,,,,,,,43.1970709169982,43.99505883299571,44.797828624999966,44.78972941699613,44.79052462499385,44.797828624999966,44.797828624999966,45.55767183299759,b,1.0,0.7500289579984383,,,,,,,,,,,,,,,,,,,,,,,,,,,,,,,,,,,,,,,,sub-037,1,stroop_test,,
test,yellow,g,1.0,5.0,2.0,1.0,g,1.0,0.5031707499947515,,,,,,,,,,,,,,,,,,1.0,2.0,5.0,1.0,,,,,,,,,45.56722845799959,,,,,,,,,,,,,,,,,45.55833904199972,46.75544141699356,47.54744037499768,47.53957958299725,47.540352707997954,47.54744037499768,47.54744037499768,48.05764816699957,g,1.0,0.5031707499947515,,,,,,,,,,,,,,,,,,,,,,,,,,,,,,,,,,,,,,,,sub-037,1,stroop_test,,
test,blue,b,1.0,6.0,0.0,2.0,b,1.0,0.610769375001837,,,,,,,,,,,,,,,,,,2.0,0.0,6.0,2.0,,,,,,,,,48.06782691699482,,,,,,,,,,,,,,,,,48.05835775000014,48.85525204199803,49.64714124999591,49.6393762499938,49.64011787499476,49.64714124999591,49.64714124999591,50.26338887499878,b,1.0,0.610769375001837,,,,,,,,,,,,,,,,,,,,,,,,,,,,,,,,,,,,,,,,sub-037,1,stroop_test,,
test,yellow,g,1.0,7.0,1.0,2.0,g,1.0,0.5788805000047432,,,,,,,,,,,,,,,,,,2.0,1.0,7.0,1.0,,,,,,,,,50.27338591699663,,,,,,,,,,,,,,,,,50.26390241699846,51.06201016699925,51.85369062499376,51.84547320799902,51.84604833299818,51.85369062499376,51.85369062499376,52.44097737499396,g,1.0,0.5788805000047432,,,,,,,,,,,,,,,,,,,,,,,,,,,,,,,,,,,,,,,,sub-037,1,stroop_test,,
test,red,r,1.0,8.0,2.0,2.0,r,1.0,0.4024279580044094,,,,,,,,,,,,,,,,,,2.0,2.0,8.0,0.0,,,,,,,,,52.45002454199857,,,,,,,,,,,,,,,,,52.44157958299911,53.63881512499938,54.43059812499996,54.422968374994525,54.4235704169987,54.43059812499996,54.43059812499996,54.84086441699765,r,1.0,0.4024279580044094,,,,,,,,,,,,,,,,,,,,,,,,,,,,,,,,,,,,,,,,sub-037,1,stroop_test,,
test,yellow,g,1.0,9.0,0.0,3.0,g,1.0,0.6870495000039227,,,,,,,,,,,,,,,,,,3.0,0.0,9.0,1.0,,,,,,,,,54.85074808299396,,,,,,,,,,,,,,,,,54.84151129199745,55.18860129200039,55.98049320800055,55.97283624999545,55.973424707997765,55.98049320800055,55.98049320800055,56.67454299999372,g,1.0,0.6870495000039227,,,,,,,,,,,,,,,,,,,,,,,,,,,,,,,,,,,,,,,,sub-037,1,stroop_test,,
test,red,r,1.0,10.0,1.0,3.0,r,1.0,0.8059496670030057,,,,,,,,,,,,,,,,,,3.0,1.0,10.0,0.0,,,,,,,,,56.68469708299381,,,,,,,,,,,,,,,,,56.67523708299996,57.47192187499604,58.263629374996526,58.256063832996006,58.2566765829979,58.263629374996526,58.263629374996526,59.07405941699835,r,1.0,0.8059496670030057,,,,,,,,,,,,,,,,,,,,,,,,,,,,,,,,,,,,,,,,sub-037,1,stroop_test,,
test,blue,b,1.0,11.0,2.0,3.0,b,1.0,0.716189458995359,,,,,,,,,,,,,,,,,,3.0,2.0,11.0,2.0,,,,,,,,,59.084696374993655,,,,,,,,,,,,,,,,,59.074705499995616,59.87190274999739,60.66301687499799,60.655877082994266,60.65648320799664,60.66301687499799,60.66301687499799,61.39080174999981,b,1.0,0.716189458995359,,,,,,,,,,,,,,,,,,,,,,,,,,,,,,,,,,,,,,,,sub-037,1,stroop_test,,
,,,,,,,,,,,,,,,,,,,,,,,,,,,,,,,,,,,,,,,,,,,,,,,,,,,,,,,,,,,,,,,,,,,,61.391064457995526,61.40363570799673,61.40363570799673,65.730305416997,space,4.324028333001479,,,,,,,,,,,,,,,,,,,,,,,,,,,,,,,,,sub-037,1,stroop_test,,
,,,,0.0,0.0,0.0,,,,,gelb,yellow,g,1.0,g,1.0,0.7080810409970582,,,,,,,,,,,,,,0.0,0.0,0.0,11.0,,,,,65.75274012499722,,,,,,,,,,,,,,,,,65.74578795799607,66.92897199999425,67.7369076670002,67.72274716699758,,,,,,,,,,,,,,,,67.72984929199447,67.7369076670002,67.7369076670002,68.44755449999502,g,1.0,0.7080810409970582,,68.45689449999918,68.46584145799716,69.45555879199674,,,,,,,,,,,,,,,,,,,,,sub-037,1,stroop_test,,
,,,,1.0,1.0,0.0,,,,,gelb,blue,b,0.0,b,1.0,0.7015916670061415,,,,,,,,,,,,,,0.0,1.0,1.0,9.0,,,,,69.46144816699962,,,,,,,,,,,,,,,,,69.45615220799664,69.54472791699664,70.33707649999997,70.32841262500006,,,,,,,,,,,,,,,,70.3289813329975,70.33707649999997,70.33707649999997,71.04122445800022,b,1.0,0.7015916670061415,,71.04214887499984,71.0530361669953,72.03928783299489,72.04487920799875,,,,,,,,,,,,,,,,,,,,sub-037,1,stroop_test,,
,,,,2.0,2.0,0.0,,,,,blau,blue,b,1.0,b,1.0,0.6027307499971357,,,,,,,,,,,,,,0.0,2.0,2.0,6.0,,,,,72.04487920799875,,,,,,,,,,,,,,,,,72.03971104199445,73.23873054199794,74.0316352919981,74.02172962499753,,,,,,,,,,,,,,,,74.02596929199353,74.0316352919981,74.0316352919981,74.64081629199791,b,1.0,0.6027307499971357,,74.64162958299858,74.65305483299744,75.63945774999593,75.64508045799448,,,,,,,,,,,,,,,,,,,,sub-037,1,stroop_test,,
,,,,3.0,3.0,0.0,,,,,blau,yellow,g,0.0,g,1.0,0.5530039579971344,,,,,,,,,,,,,,0.0,3.0,3.0,7.0,,,,,75.64508045799448,,,,,,,,,,,,,,,,,75.63999449999392,76.4387175419979,77.22997229199973,77.22274704199663,,,,,,,,,,,,,,,,77.22332841699972,77.22997229199973,77.22997229199973,77.7919120000006,g,1.0,0.5530039579971344,,77.79274774999794,77.8020112499944,78.78946470799565,78.7952889579974,,,,,,,,,,,,,,,,,,,,sub-037,1,stroop_test,,
,,,,4.0,4.0,0.0,,,,,blau,red,r,0.0,r,1.0,0.598918916999537,,,,,,,,,,,,,,0.0,4.0,4.0,4.0,,,,,78.7952889579974,,,,,,,,,,,,,,,,,78.78999183300039,79.13881116699486,79.93035562499426,79.9228177499972,,,,,,,,,,,,,,,,79.92341887499788,79.93035562499426,79.93035562499426,80.54053799999383,r,1.0,0.598918916999537,,80.54129850000027,80.55043545799708,81.53949954199925,81.54529158299556,,,,,,,,,,,,,,,,,,,,sub-037,1,stroop_test,,
,,,,5.0,5.0,0.0,,,,,blau,blue,b,1.0,b,1.0,0.5808551250011078,,,,,,,,,,,,,,0.0,5.0,5.0,5.0,,,,,81.54529158299556,,,,,,,,,,,,,,,,,81.54001816699747,82.7390204580006,83.52986995799438,83.52288895799575,,,,,,,,,,,,,,,,83.52342933299951,83.52986995799438,83.52986995799438,84.124145416994,b,1.0,0.5808551250011078,,84.12497308299498,84.13346508299583,85.12259937499766,85.1279282079995,,,,,,,,,,,,,,,,,,,,sub-037,1,stroop_test,,
,,,,6.0,6.0,0.0,,,,,rot,blue,b,0.0,b,1.0,0.6362460000018473,,,,,,,,,,,,,,0.0,6.0,6.0,2.0,,,,,85.1279282079995,,,,,,,,,,,,,,,,,85.12301279199892,85.2220425419946,86.0196372499995,86.00610687500011,,,,,,,,,,,,,,,,86.01235404199542,86.0196372499995,86.0196372499995,86.65856179199909,b,1.0,0.6362460000018473,,86.65946712499863,86.6692329169964,87.65618883299612,87.66181129199686,,,,,,,,,,,,,,,,,,,,sub-037,1,stroop_test,,
,,,,7.0,7.0,0.0,,,,,rot,red,r,1.0,r,1.0,0.6260417089943076,,,,,,,,,,,,,,0.0,7.0,7.0,0.0,,,,,87.66181129199686,,,,,,,,,,,,,,,,,87.65661387499858,87.7552272499961,88.54648349999479,88.53933566699561,,,,,,,,,,,,,,,,88.53991945799498,88.54648349999479,88.54648349999479,89.17562095799804,r,1.0,0.6260417089943076,,89.17659645799722,89.18821170799492,90.1726039579953,90.17828733299392,,,,,,,,,,,,,,,,,,,,sub-037,1,stroop_test,,
,,,,8.0,8.0,0.0,,,,,gelb,red,r,0.0,r,1.0,1.7208947089966389,,,,,,,,,,,,,,0.0,8.0,8.0,8.0,,,,,90.17828733299392,,,,,,,,,,,,,,,,,90.17302874999586,90.5220834579959,91.31836779199512,91.30617995799548,,,,,,,,,,,,,,,,91.31110883299698,91.31836779199512,91.31836779199512,93.05223249999835,r,1.0,1.7208947089966389,,93.05283491699812,93.05941258299572,94.04498149999564,94.05529254199791,,,,,,,,,,,,,,,,,,,,sub-037,1,stroop_test,,
,,,,9.0,9.0,0.0,,,,,rot,yellow,g,0.0,g,1.0,0.6126011250016745,,,,,,,,,,,,,,0.0,9.0,9.0,3.0,,,,,94.05529254199791,,,,,,,,,,,,,,,,,94.0453910829965,94.8450828749992,95.6510961669992,95.6396867079966,,,,,,,,,,,,,,,,95.64386133299558,95.6510961669992,95.6510961669992,96.27416458299558,g,1.0,0.6126011250016745,,96.27509966700018,96.28760512499866,97.27276445799362,97.27853620799578,,,,,,,,,,,,,,,,,,,,sub-037,1,stroop_test,,
,,,,10.0,10.0,0.0,,,,,rot,red,r,1.0,r,1.0,0.8925782919977792,,,,,,,,,,,,,,0.0,10.0,10.0,1.0,,,,,97.27853620799578,,,,,,,,,,,,,,,,,97.27319324999551,97.3719568749948,98.16387904199657,98.15625866699702,,,,,,,,,,,,,,,,98.15690704199368,98.16387904199657,98.16387904199657,99.06367433299602,r,1.0,0.8925782919977792,,99.0644867499941,99.07632541699422,100.06135170799826,100.07184354199852,,,,,,,,,,,,,,,,,,,,sub-037,1,stroop_test,,
,,,,11.0,11.0,0.0,,,,,gelb,yellow,g,1.0,g,1.0,0.6564729169986094,,,,,,,,,,,,,,0.0,11.0,11.0,10.0,,,,,100.07184354199852,,,,,,,,,,,,,,,,,100.06177558299532,100.16207945799395,100.96769387499808,100.9561357499988,,,,,,,,,,,,,,,,100.9606859169944,100.96769387499808,100.96769387499808,101.62991729199712,g,1.0,0.6564729169986094,,101.63068666699836,101.64345091699944,102.6285543749982,102.6386868329937,,,,,,,,,,,,,,,,,,,,sub-037,1,stroop_test,,
,,,,12.0,0.0,1.0,,,,,rot,red,r,1.0,r,1.0,0.4926019159975112,,,,,,,,,,,,,,1.0,0.0,12.0,0.0,,,,,102.6386868329937,,,,,,,,,,,,,,,,,102.62900145799358,102.72819412499666,103.52352695799344,103.51166791699508,,,,,,,,,,,,,,,,103.51525220799522,103.52352695799344,103.52352695799344,104.02442862499448,r,1.0,0.4926019159975112,,104.0254492919994,104.0372660419962,105.02273570800024,105.02837033299876,,,,,,,,,,,,,,,,,,,,sub-037,1,stroop_test,,
,,,,13.0,1.0,1.0,,,,,rot,blue,b,0.0,b,1.0,0.8449210830003722,,,,,,,,,,,,,,1.0,1.0,13.0,2.0,,,,,105.02837033299876,,,,,,,,,,,,,,,,,105.0232666669981,105.82178524999472,106.61424554199766,106.60616058299638,,,,,,,,,,,,,,,,106.60695366699656,106.61424554199766,106.61424554199766,107.46316741699412,b,1.0,0.8449210830003722,,107.46382095799343,107.4733897499973,108.46207779199904,108.47184554200066,,,,,,,,,,,,,,,,,,,,sub-037,1,stroop_test,,
,,,,14.0,2.0,1.0,,,,,blau,yellow,g,0.0,g,1.0,0.5239706670035957,,,,,,,,,,,,,,1.0,2.0,14.0,7.0,,,,,108.47184554200066,,,,,,,,,,,,,,,,,108.4624760000006,109.26170095799898,110.07171816699702,110.04488791699988,,,,,,,,,,,,,,,,110.04861870799505,110.07171816699702,110.07171816699702,110.60752516699722,g,1.0,0.5239706670035957,,110.6084472500006,110.61968616699596,111.60613299999386,111.61196554199704,,,,,,,,,,,,,,,,,,,,sub-037,1,stroop_test,,
,,,,15.0,3.0,1.0,,,,,blau,red,r,0.0,r,1.0,0.8925019160014926,,,,,,,,,,,,,,1.0,3.0,15.0,4.0,,,,,111.61196554199704,,,,,,,,,,,,,,,,,111.6066705829944,111.70539049999934,112.49698312499822,112.48948549999476,,,,,,,,,,,,,,,,112.49006995799571,112.49698312499822,112.49698312499822,113.40250891699544,r,1.0,0.8925019160014926,,113.4030649999986,113.40879616699384,114.39442037499975,114.40540566699929,,,,,,,,,,,,,,,,,,,,sub-037,1,stroop_test,,
,,,,16.0,4.0,1.0,,,,,gelb,blue,b,0.0,b,1.0,0.8070506250005565,,,,,,,,,,,,,,1.0,4.0,16.0,9.0,,,,,114.40540566699929,,,,,,,,,,,,,,,,,114.3948151250006,115.59521870799654,116.39108062499872,116.37883224999678,,,,,,,,,,,,,,,,116.3838567499988,116.39108062499872,116.39108062499872,117.20728462499392,b,1.0,0.8070506250005565,,117.20803166699623,117.2164857079988,118.20599404200038,118.2111430829973,,,,,,,,,,,,,,,,,,,,sub-037,1,stroop_test,,
,,,,17.0,5.0,1.0,,,,,gelb,red,r,0.0,r,1.0,0.7756285829964327,,,,,,,,,,,,,,1.0,5.0,17.0,8.0,,,,,118.2111430829973,,,,,,,,,,,,,,,,,118.2064109579951,118.5553234580002,119.34666383299918,119.33924316699996,,,,,,,,,,,,,,,,119.33998508299555,119.34666383299918,119.34666383299918,120.12498783299816,r,1.0,0.7756285829964327,,120.12594583299506,120.13748295799452,121.12272095799564,121.1281827499988,,,,,,,,,,,,,,,,,,,,sub-037,1,stroop_test,,
,,,,18.0,6.0,1.0,,,,,gelb,yellow,g,1.0,g,1.0,0.597739291995822,,,,,,,,,,,,,,1.0,6.0,18.0,11.0,,,,,121.1281827499988,,,,,,,,,,,,,,,,,121.12320949999412,121.47188787499908,122.26433295799508,122.2563258329974,,,,,,,,,,,,,,,,122.25725170799706,122.26433295799508,122.26433295799508,122.87404429199523,g,1.0,0.597739291995822,,122.87485362499864,122.88705758300055,123.8726713329961,123.878422416994,,,,,,,,,,,,,,,,,,,,sub-037,1,stroop_test,,
,,,,19.0,7.0,1.0,,,,,gelb,yellow,g,1.0,g,1.0,0.5480832500034012,,,,,,,,,,,,,,1.0,7.0,19.0,10.0,,,,,123.878422416994,,,,,,,,,,,,,,,,,123.87318316699384,124.22191158299393,125.01422483299392,125.0063486250001,,,,,,,,,,,,,,,,125.00711245799904,125.01422483299392,125.01422483299392,125.5743220000004,g,1.0,0.5480832500034012,,125.57538033299352,125.58817987499788,126.57254133300012,126.57809837499371,,,,,,,,,,,,,,,,,,,,sub-037,1,stroop_test,,
,,,,20.0,8.0,1.0,,,,,rot,yellow,g,0.0,g,1.0,0.8017807500000345,,,,,,,,,,,,,,1.0,8.0,20.0,3.0,,,,,126.57809837499371,,,,,,,,,,,,,,,,,126.57298362499569,126.6719602919984,127.46806862499945,127.45608608299516,,,,,,,,,,,,,,,,127.46076249999896,127.46806862499945,127.46806862499945,128.2740243329972,g,1.0,0.8017807500000345,,128.2749807500004,128.2852663329977,129.27269879199594,129.27803666699765,,,,,,,,,,,,,,,,,,,,sub-037,1,stroop_test,,
,,,,21.0,9.0,1.0,,,,,blau,blue,b,1.0,b,1.0,0.7333765000003041,,,,,,,,,,,,,,1.0,9.0,21.0,5.0,,,,,129.27803666699765,,,,,,,,,,,,,,,,,129.27313012499508,129.62203508299717,130.41742754199367,130.4060955419991,,,,,,,,,,,,,,,,130.4104844579997,130.41742754199367,130.41742754199367,131.15769608299888,b,1.0,0.7333765000003041,,131.1587776669985,131.17017108299478,132.1562381249969,132.16189204200057,,,,,,,,,,,,,,,,,,,,sub-037,1,stroop_test,,
,,,,22.0,10.0,1.0,,,,,rot,red,r,1.0,r,1.0,0.5294417499972042,,,,,,,,,,,,,,1.0,10.0,22.0,1.0,,,,,132.16189204200057,,,,,,,,,,,,,,,,,132.15676374999748,132.25532783299423,133.04845012499572,133.03882916699513,,,,,,,,,,,,,,,,133.04252104199986,133.04845012499572,133.04845012499572,133.5801206249962,r,1.0,0.5294417499972042,,133.58095887499803,133.59077458299726,134.57871308299946,134.58865399999922,,,,,,,,,,,,,,,,,,,,sub-037,1,stroop_test,,
,,,,23.0,11.0,1.0,,,,,blau,blue,b,1.0,b,1.0,0.6222617090024869,,,,,,,,,,,,,,1.0,11.0,23.0,6.0,,,,,134.58865399999922,,,,,,,,,,,,,,,,,134.57913429199834,135.7784629999951,136.5844312919944,136.57283979199565,,,,,,,,,,,,,,,,136.57744395799818,136.5844312919944,136.5844312919944,137.22052645799704,b,1.0,0.6222617090024869,,137.22117308299494,137.2272215829944,138.21160058299574,138.22049374999915,,,,,,,,,,,,,,,,,,,,sub-037,1,stroop_test,,
,,,,,,,,,,,,,,,,,,,,,,,,,,,,,,,,,,,,,,,,,,,,,,,,,,,,,,,,,,,,,,,,,,,,,,,,,,,,,,,,,,,,,,,138.2117818330007,138.22049374999915,138.22049374999915,140.89692099999957,space,2.672759125001903,,,,,,,,,,,,,,sub-037,1,stroop_test,,
,,,,0.0,0.0,0.0,,,,,,,,,,,,,rot,yellow,g,0.0,g,1.0,1.334898042005079,,,,,,,,,,0.0,0.0,0.0,3.0,140.92069549999724,,,,,,,,,,,,,,,,,140.91375095799594,140.9937783329951,141.79031495799427,141.77833299999477,,,,,,,,,,,,,,,,,,,,,,,,,,,,,,,,,,,141.78229891699448,141.79031495799427,141.79031495799427,143.13021283299895,g,1.0,1.334898042005079,,,,,,sub-037,1,stroop_test,,
,,,,1.0,1.0,0.0,,,,,,,,,,,,,gelb,yellow,g,1.0,g,1.0,0.6490830830007326,,,,,,,,,,0.0,1.0,1.0,11.0,143.14061866699922,,,,,,,,,,,,,,,,,143.13081829199655,143.47819358299603,144.27378066699748,144.26215820799553,,,,,,,,,,,,,,,,,,,,,,,,,,,,,,,,,,,144.26592845800042,144.27378066699748,144.27378066699748,144.92988804199558,g,1.0,0.6490830830007326,,,,,,sub-037,1,stroop_test,,
,,,,2.0,2.0,0.0,,,,,,,,,,,,,rot,red,r,1.0,r,1.0,0.660173374999431,,,,,,,,,,0.0,2.0,2.0,0.0,144.94012345800002,,,,,,,,,,,,,,,,,144.93045266699482,145.0276192079982,145.823582332996,145.81152858299902,,,,,,,,,,,,,,,,,,,,,,,,,,,,,,,,,,,145.81512279199524,145.823582332996,145.823582332996,146.49070987499726,r,1.0,0.660173374999431,,,,,,sub-037,1,stroop_test,,
,,,,3.0,3.0,0.0,,,,,,,,,,,,,gelb,blue,b,0.0,b,1.0,0.4215760420047445,,,,,,,,,,0.0,3.0,3.0,9.0,146.5010435419972,,,,,,,,,,,,,,,,,146.4913743750003,146.83862874999613,147.63447549999546,147.622901499999,,,,,,,,,,,,,,,,,,,,,,,,,,,,,,,,,,,147.62730529200053,147.63447549999546,147.63447549999546,148.0692971669996,b,1.0,0.4215760420047445,,,,,,sub-037,1,stroop_test,,
,,,,4.0,4.0,0.0,,,,,,,,,,,,,rot,red,r,1.0,r,1.0,0.5555884999994305,,,,,,,,,,0.0,4.0,4.0,1.0,148.07366570799786,,,,,,,,,,,,,,,,,148.06975441699615,148.16152445799526,148.95685716699518,148.94497874999797,,,,,,,,,,,,,,,,,,,,,,,,,,,,,,,,,,,148.94856420799624,148.95685716699518,148.95685716699518,149.5150822919968,r,1.0,0.5555884999994305,,,,,,sub-037,1,stroop_test,,
,,,,5.0,5.0,0.0,,,,,,,,,,,,,blau,red,r,0.0,r,1.0,1.1068452920007985,,,,,,,,,,0.0,5.0,5.0,4.0,149.52418679199764,,,,,,,,,,,,,,,,,149.515777624998,149.8618334999992,150.66713750000054,150.65610862500034,,,,,,,,,,,,,,,,,,,,,,,,,,,,,,,,,,,150.66005208299612,150.66713750000054,150.66713750000054,151.78022512499592,r,1.0,1.1068452920007985,,,,,,sub-037,1,stroop_test,,
,,,,6.0,6.0,0.0,,,,,,,,,,,,,rot,blue,b,0.0,b,1.0,0.5717447499991977,,,,,,,,,,0.0,6.0,6.0,2.0,151.79043974999513,,,,,,,,,,,,,,,,,151.78086383299524,152.12897383299423,152.92454587499378,152.91219866699976,,,,,,,,,,,,,,,,,,,,,,,,,,,,,,,,,,,152.91709958299907,152.92454587499378,152.92454587499378,153.50752129199827,b,1.0,0.5717447499991977,,,,,,sub-037,1,stroop_test,,
,,,,7.0,7.0,0.0,,,,,,,,,,,,,gelb,yellow,g,1.0,g,1.0,0.5713892499989015,,,,,,,,,,0.0,7.0,7.0,10.0,153.5172772079968,,,,,,,,,,,,,,,,,153.50816037500044,153.60539779199462,154.40114295799867,154.3895263749946,,,,,,,,,,,,,,,,,,,,,,,,,,,,,,,,,,,154.39392162500008,154.40114295799867,154.40114295799867,154.9852283750006,g,1.0,0.5713892499989015,,,,,,sub-037,1,stroop_test,,
,,,,8.0,8.0,0.0,,,,,,,,,,,,,gelb,red,r,0.0,r,1.0,0.4566622089987504,,,,,,,,,,0.0,8.0,8.0,8.0,154.98979291699652,,,,,,,,,,,,,,,,,154.98567179199745,155.77802179199352,156.5704045829989,156.56193324999913,,,,,,,,,,,,,,,,,,,,,,,,,,,,,,,,,,,156.5625079579986,156.5704045829989,156.5704045829989,157.02986237499863,r,1.0,0.4566622089987504,,,,,,sub-037,1,stroop_test,,
,,,,9.0,9.0,0.0,,,,,,,,,,,,,blau,yellow,g,0.0,g,1.0,0.4662475419972907,,,,,,,,,,0.0,9.0,9.0,7.0,157.04046045799623,,,,,,,,,,,,,,,,,157.03052124999522,158.2277420829996,159.02363904199592,159.01206387499406,,,,,,,,,,,,,,,,,,,,,,,,,,,,,,,,,,,159.0157132079985,159.02363904199592,159.02363904199592,159.49692041699743,g,1.0,0.4662475419972907,,,,,,sub-037,1,stroop_test,,
,,,,10.0,10.0,0.0,,,,,,,,,,,,,blau,blue,b,1.0,b,1.0,0.410015540997847,,,,,,,,,,0.0,10.0,10.0,5.0,159.5068664999999,,,,,,,,,,,,,,,,,159.49749333299405,160.29620687499846,161.09787099999812,161.08954945799633,,,,,,,,,,,,,,,,,,,,,,,,,,,,,,,,,,,161.09038729199528,161.09787099999812,161.09787099999812,161.5115958749957,b,1.0,0.410015540997847,,,,,,sub-037,1,stroop_test,,
,,,,11.0,11.0,0.0,,,,,,,,,,,,,blau,blue,b,1.0,b,1.0,0.6350867909932276,,,,,,,,,,0.0,11.0,11.0,6.0,161.52046295799664,,,,,,,,,,,,,,,,,161.5119671249995,162.3109239999976,163.10373299999628,163.0953942079941,,,,,,,,,,,,,,,,,,,,,,,,,,,,,,,,,,,163.09597054199548,163.10373299999628,163.10373299999628,163.74147029199958,b,1.0,0.6350867909932276,,,,,,sub-037,1,stroop_test,,
,,,,12.0,0.0,1.0,,,,,,,,,,,,,gelb,blue,b,0.0,b,1.0,0.4214289579977048,,,,,,,,,,1.0,0.0,12.0,9.0,163.75296395799523,,,,,,,,,,,,,,,,,163.74228145799862,164.53879529199912,165.3347679169965,165.3228655829953,,,,,,,,,,,,,,,,,,,,,,,,,,,,,,,,,,,165.32740912499867,165.3347679169965,165.3347679169965,165.7629764999947,b,1.0,0.4214289579977048,,,,,,sub-037,1,stroop_test,,
,,,,13.0,1.0,1.0,,,,,,,,,,,,,gelb,yellow,g,1.0,g,1.0,0.6084469170018565,,,,,,,,,,1.0,1.0,13.0,10.0,165.77160274999915,,,,,,,,,,,,,,,,,165.7634659999967,166.11131499999465,166.90388962499856,166.89485024999885,,,,,,,,,,,,,,,,,,,,,,,,,,,,,,,,,,,166.8954301249978,166.90388962499856,166.90388962499856,167.52678254199418,g,1.0,0.6084469170018565,,,,,,sub-037,1,stroop_test,,
,,,,14.0,2.0,1.0,,,,,,,,,,,,,blau,blue,b,1.0,b,1.0,0.4888825410016579,,,,,,,,,,1.0,2.0,14.0,6.0,167.53855225000007,,,,,,,,,,,,,,,,,167.52713670799858,168.721770791999,169.51695291699434,169.50593854199542,,,,,,,,,,,,,,,,,,,,,,,,,,,,,,,,,,,169.5098991249979,169.51695291699434,169.51695291699434,170.00863066699822,b,1.0,0.4888825410016579,,,,,,sub-037,1,stroop_test,,
,,,,15.0,3.0,1.0,,,,,,,,,,,,,rot,blue,b,0.0,b,1.0,0.7996448330013664,,,,,,,,,,1.0,3.0,15.0,2.0,170.01872641699447,,,,,,,,,,,,,,,,,170.00928758299415,170.10531308299687,170.90134379200026,170.88938191699708,,,,,,,,,,,,,,,,,,,,,,,,,,,,,,,,,,,170.89395495799545,170.90134379200026,170.90134379200026,171.70822020799824,b,1.0,0.7996448330013664,,,,,,sub-037,1,stroop_test,,
,,,,16.0,4.0,1.0,,,,,,,,,,,,,gelb,yellow,g,1.0,g,1.0,0.4996693749999394,,,,,,,,,,1.0,4.0,16.0,11.0,171.7155585829969,,,,,,,,,,,,,,,,,171.70871679199627,172.50530358299875,173.30199862500012,173.28950866699597,,,,,,,,,,,,,,,,,,,,,,,,,,,,,,,,,,,173.29450987499877,173.30199862500012,173.30199862500012,173.8080460419951,g,1.0,0.4996693749999394,,,,,,sub-037,1,stroop_test,,
,,,,17.0,5.0,1.0,,,,,,,,,,,,,blau,yellow,g,0.0,g,1.0,0.5552783329985687,,,,,,,,,,1.0,5.0,17.0,7.0,173.8158571669992,,,,,,,,,,,,,,,,,173.80865912499576,174.6052087499993,175.40059083300002,175.38933233299758,,,,,,,,,,,,,,,,,,,,,,,,,,,,,,,,,,,175.3935930000007,175.40059083300002,175.40059083300002,175.95898129199486,g,1.0,0.5552783329985687,,,,,,sub-037,1,stroop_test,,
,,,,18.0,6.0,1.0,,,,,,,,,,,,,blau,red,r,0.0,r,1.0,0.7090855840069707,,,,,,,,,,1.0,6.0,18.0,4.0,175.96879241699935,,,,,,,,,,,,,,,,,175.95968449999782,177.15539029199863,177.94655674999376,177.93931420800072,,,,,,,,,,,,,,,,,,,,,,,,,,,,,,,,,,,177.93991883299896,177.94655674999376,177.94655674999376,178.6582947499992,r,1.0,0.7090855840069707,,,,,,sub-037,1,stroop_test,,
,,,,19.0,7.0,1.0,,,,,,,,,,,,,gelb,red,r,0.0,r,1.0,0.4316651249973802,,,,,,,,,,1.0,7.0,19.0,8.0,178.66859299999487,,,,,,,,,,,,,,,,,178.65900949999923,179.4555557499989,180.251181707994,180.2394664999956,,,,,,,,,,,,,,,,,,,,,,,,,,,,,,,,,,,180.24402420799743,180.251181707994,180.251181707994,180.690892791994,r,1.0,0.4316651249973802,,,,,,sub-037,1,stroop_test,,
,,,,20.0,8.0,1.0,,,,,,,,,,,,,rot,red,r,1.0,r,1.0,0.4537127910007257,,,,,,,,,,1.0,8.0,20.0,1.0,180.70080145799875,,,,,,,,,,,,,,,,,180.69156116699745,181.88856441700045,182.68507591699745,182.6732557919968,,,,,,,,,,,,,,,,,,,,,,,,,,,,,,,,,,,182.67740483299715,182.68507591699745,182.68507591699745,183.14146820799945,r,1.0,0.4537127910007257,,,,,,sub-037,1,stroop_test,,
,,,,21.0,9.0,1.0,,,,,,,,,,,,,rot,yellow,g,0.0,g,1.0,0.5357706249997136,,,,,,,,,,1.0,9.0,21.0,3.0,183.1508977919948,,,,,,,,,,,,,,,,,183.1421679169944,183.9388323749954,184.7301748329992,184.7228346669945,,,,,,,,,,,,,,,,,,,,,,,,,,,,,,,,,,,184.7234542499937,184.7301748329992,184.7301748329992,185.27398783299577,g,1.0,0.5357706249997136,,,,,,sub-037,1,stroop_test,,
,,,,22.0,10.0,1.0,,,,,,,,,,,,,rot,red,r,1.0,r,1.0,0.6596852919974481,,,,,,,,,,1.0,10.0,22.0,0.0,185.281957291998,,,,,,,,,,,,,,,,,185.27452983299736,185.62207937499625,186.41340483299427,186.40599095799556,,,,,,,,,,,,,,,,,,,,,,,,,,,,,,,,,,,186.4066507499956,186.41340483299427,186.41340483299427,187.08566308299487,r,1.0,0.6596852919974481,,,,,,sub-037,1,stroop_test,,
,,,,23.0,11.0,1.0,,,,,,,,,,,,,blau,blue,b,1.0,b,1.0,0.554569874999288,,,,,,,,,,1.0,11.0,23.0,5.0,187.0902189999979,,,,,,,,,,,,,,,,,187.0860982079976,187.87818029199843,188.6738607079969,188.66211145799755,,,,,,,,,,,,,,,,,,,,,,,,,,,,,,,,,,,188.6658889579994,188.6738607079969,188.6738607079969,189.23100399999385,b,1.0,0.554569874999288,,,,,,sub-037,1,stroop_test,,
,,,,24.0,0.0,2.0,,,,,,,,,,,,,rot,blue,b,0.0,b,1.0,0.5722067909955513,,,,,,,,,,2.0,0.0,24.0,2.0,189.24310716699983,,,,,,,,,,,,,,,,,189.23164970799556,189.3276909579945,190.1383102079999,190.1113506249967,,,,,,,,,,,,,,,,,,,,,,,,,,,,,,,,,,,190.1148866669973,190.1383102079999,190.1383102079999,190.71324795799592,b,1.0,0.5722067909955513,,,,,,sub-037,1,stroop_test,,
,,,,25.0,1.0,2.0,,,,,,,,,,,,,blau,blue,b,1.0,b,1.0,0.508481707998726,,,,,,,,,,2.0,1.0,25.0,6.0,190.723620124998,,,,,,,,,,,,,,,,,190.7138439999981,190.81027979200007,191.6072686669941,191.59503349999432,,,,,,,,,,,,,,,,,,,,,,,,,,,,,,,,,,,191.6001647499943,191.6072686669941,191.6072686669941,192.12441737499464,b,1.0,0.508481707998726,,,,,,sub-037,1,stroop_test,,
,,,,26.0,2.0,2.0,,,,,,,,,,,,,blau,blue,b,1.0,b,1.0,0.4306317079972359,,,,,,,,,,2.0,2.0,26.0,5.0,192.133841582996,,,,,,,,,,,,,,,,,192.1250375419986,192.4719209169998,193.2637105419999,193.25622795799427,,,,,,,,,,,,,,,,,,,,,,,,,,,,,,,,,,,193.2569909579979,193.2637105419999,193.2637105419999,193.69728745799512,b,1.0,0.4306317079972359,,,,,,sub-037,1,stroop_test,,
,,,,27.0,3.0,2.0,,,,,,,,,,,,,blau,red,r,0.0,r,1.0,0.721165041999484,,,,,,,,,,2.0,3.0,27.0,4.0,193.7075539169964,,,,,,,,,,,,,,,,,193.69799895799952,194.04446970799472,194.83816266699432,194.82784670799447,,,,,,,,,,,,,,,,,,,,,,,,,,,,,,,,,,,194.82842616699784,194.83816266699432,194.83816266699432,195.56382474999555,r,1.0,0.721165041999484,,,,,,sub-037,1,stroop_test,,
,,,,28.0,4.0,2.0,,,,,,,,,,,,,gelb,red,r,0.0,r,1.0,0.390084749997186,,,,,,,,,,2.0,4.0,28.0,8.0,195.57395529199857,,,,,,,,,,,,,,,,,195.5643895829999,196.36138891699372,197.17182233299536,197.14514375,,,,,,,,,,,,,,,,,,,,,,,,,,,,,,,,,,,197.14894208299663,197.17182233299536,197.17182233299536,197.57231374999537,r,1.0,0.390084749997186,,,,,,sub-037,1,stroop_test,,
,,,,29.0,5.0,2.0,,,,,,,,,,,,,gelb,yellow,g,1.0,g,1.0,0.5294524999990244,,,,,,,,,,2.0,5.0,29.0,10.0,197.5794974999953,,,,,,,,,,,,,,,,,197.5726614999949,197.661466957994,198.4538614579942,198.44493362499637,,,,,,,,,,,,,,,,,,,,,,,,,,,,,,,,,,,198.4455079170002,198.4538614579942,198.4538614579942,198.9908896669949,g,1.0,0.5294524999990244,,,,,,sub-037,1,stroop_test,,
,,,,30.0,6.0,2.0,,,,,,,,,,,,,blau,yellow,g,0.0,g,1.0,0.3778467920055846,,,,,,,,,,2.0,6.0,30.0,7.0,199.00058887499472,,,,,,,,,,,,,,,,,198.99151224999517,200.18859054199856,200.98446587499348,200.97286424999768,,,,,,,,,,,,,,,,,,,,,,,,,,,,,,,,,,,200.97706495799503,200.98446587499348,200.98446587499348,201.37431574999937,g,1.0,0.3778467920055846,,,,,,sub-037,1,stroop_test,,
,,,,31.0,7.0,2.0,,,,,,,,,,,,,rot,red,r,1.0,r,1.0,0.6113077090049046,,,,,,,,,,2.0,7.0,31.0,0.0,201.3830965829984,,,,,,,,,,,,,,,,,201.37498354199488,201.4720537499961,202.26872541699413,202.2562028329994,,,,,,,,,,,,,,,,,,,,,,,,,,,,,,,,,,,202.2609431249948,202.26872541699413,202.26872541699413,202.8902796669936,r,1.0,0.6113077090049046,,,,,,sub-037,1,stroop_test,,
,,,,32.0,8.0,2.0,,,,,,,,,,,,,rot,red,r,1.0,r,1.0,0.6095755410060519,,,,,,,,,,2.0,8.0,32.0,1.0,202.8981168329992,,,,,,,,,,,,,,,,,202.89073270799415,202.98903595799493,203.7802945829972,203.77290241699663,,,,,,,,,,,,,,,,,,,,,,,,,,,,,,,,,,,203.7734792919946,203.7802945829972,203.7802945829972,204.39589695799805,r,1.0,0.6095755410060519,,,,,,sub-037,1,stroop_test,,
,,,,33.0,9.0,2.0,,,,,,,,,,,,,gelb,yellow,g,1.0,g,1.0,0.6181727919974946,,,,,,,,,,2.0,9.0,33.0,11.0,204.40442416699807,,,,,,,,,,,,,,,,,204.3963806669999,204.74479258299837,205.54032266699505,205.52844395799912,,,,,,,,,,,,,,,,,,,,,,,,,,,,,,,,,,,205.5321909999984,205.54032266699505,205.54032266699505,206.16392312499372,g,1.0,0.6181727919974946,,,,,,sub-037,1,stroop_test,,
,,,,34.0,10.0,2.0,,,,,,,,,,,,,rot,yellow,g,0.0,g,1.0,0.399743791000219,,,,,,,,,,2.0,10.0,34.0,3.0,206.17437112499465,,,,,,,,,,,,,,,,,206.16457074999929,206.9614648329953,207.7569283749981,207.74496570799965,,,,,,,,,,,,,,,,,,,,,,,,,,,,,,,,,,,207.74861929199687,207.7569283749981,207.7569283749981,208.16360570799588,g,1.0,0.399743791000219,,,,,,sub-037,1,stroop_test,,
,,,,35.0,11.0,2.0,,,,,,,,,,,,,gelb,blue,b,0.0,b,1.0,0.6165905829984695,,,,,,,,,,2.0,11.0,35.0,9.0,208.17369295800015,,,,,,,,,,,,,,,,,208.16414683299809,208.2608757499984,209.0583564999979,209.04509391699685,,,,,,,,,,,,,,,,,,,,,,,,,,,,,,,,,,,209.0524973749998,209.0583564999979,209.0583564999979,209.6795398749964,b,1.0,0.6165905829984695,,,,,,sub-037,1,stroop_test,,
,,,,36.0,0.0,3.0,,,,,,,,,,,,,rot,red,r,1.0,r,1.0,0.5242158750043018,,,,,,,,,,3.0,0.0,36.0,0.0,209.68736729199736,,,,,,,,,,,,,,,,,209.6799742919975,210.02822529200057,210.8236046249949,210.81178795799497,,,,,,,,,,,,,,,,,,,,,,,,,,,,,,,,,,,210.81548383299375,210.8236046249949,210.8236046249949,211.3571629169965,r,1.0,0.5242158750043018,,,,,,sub-037,1,stroop_test,,
,,,,37.0,1.0,3.0,,,,,,,,,,,,,blau,yellow,g,0.0,g,1.0,0.7754332089971285,,,,,,,,,,3.0,1.0,37.0,7.0,211.36463516699587,,,,,,,,,,,,,,,,,211.3576940829953,211.45535254199785,212.25161112500064,212.23962345799373,,,,,,,,,,,,,,,,,,,,,,,,,,,,,,,,,,,212.24433920799493,212.25161112500064,212.25161112500064,213.029805457998,g,1.0,0.7754332089971285,,,,,,sub-037,1,stroop_test,,
,,,,38.0,2.0,3.0,,,,,,,,,,,,,blau,blue,b,1.0,b,1.0,0.6793177080035093,,,,,,,,,,3.0,2.0,38.0,6.0,213.0379077499965,,,,,,,,,,,,,,,,,213.03029770799915,213.1275212499968,213.92041658299425,213.9123440829935,,,,,,,,,,,,,,,,,,,,,,,,,,,,,,,,,,,213.9129035000005,213.92041658299425,213.92041658299425,214.60739174999617,b,1.0,0.6793177080035093,,,,,,sub-037,1,stroop_test,,
,,,,39.0,3.0,3.0,,,,,,,,,,,,,gelb,blue,b,0.0,b,1.0,0.9877696249968722,,,,,,,,,,3.0,3.0,39.0,9.0,214.61435604199505,,,,,,,,,,,,,,,,,214.6077694999985,215.8053425830003,216.60123929199472,216.58946766699955,,,,,,,,,,,,,,,,,,,,,,,,,,,,,,,,,,,216.59347237499605,216.60123929199472,216.60123929199472,217.5911825000003,b,1.0,0.9877696249968722,,,,,,sub-037,1,stroop_test,,
,,,,40.0,4.0,3.0,,,,,,,,,,,,,gelb,red,r,0.0,r,1.0,0.7037650420024875,,,,,,,,,,3.0,4.0,40.0,8.0,217.5989173329945,,,,,,,,,,,,,,,,,217.5917885419985,217.6885126249981,218.48009216699572,218.47271712499787,,,,,,,,,,,,,,,,,,,,,,,,,,,,,,,,,,,218.4733169999963,218.48009216699572,218.48009216699572,219.19073199999548,r,1.0,0.7037650420024875,,,,,,sub-037,1,stroop_test,,
,,,,41.0,5.0,3.0,,,,,,,,,,,,,blau,blue,b,1.0,b,1.0,0.5883699170008185,,,,,,,,,,3.0,5.0,41.0,5.0,219.20066445799603,,,,,,,,,,,,,,,,,219.19136487499784,219.53878324999823,220.3346273749994,220.322873541998,,,,,,,,,,,,,,,,,,,,,,,,,,,,,,,,,,,220.3275316250001,220.3346273749994,220.3346273749994,220.9302155829937,b,1.0,0.5883699170008185,,,,,,sub-037,1,stroop_test,,
,,,,42.0,6.0,3.0,,,,,,,,,,,,,gelb,yellow,g,1.0,g,1.0,0.3551635830008308,,,,,,,,,,3.0,6.0,42.0,10.0,220.94074508299676,,,,,,,,,,,,,,,,,220.93078454199716,222.12918154199724,222.93380629199964,222.9227568329952,,,,,,,,,,,,,,,,,,,,,,,,,,,,,,,,,,,222.9266610419945,222.93380629199964,222.93380629199964,223.29116645799516,g,1.0,0.3551635830008308,,,,,,sub-037,1,stroop_test,,
,,,,43.0,7.0,3.0,,,,,,,,,,,,,rot,red,r,1.0,r,1.0,0.4262032080005156,,,,,,,,,,3.0,7.0,43.0,1.0,223.29878254199863,,,,,,,,,,,,,,,,,223.29160233299623,224.48883674999524,225.2867985829944,225.27289379199647,,,,,,,,,,,,,,,,,,,,,,,,,,,,,,,,,,,225.27857816699543,225.2867985829944,225.2867985829944,225.7242181249967,r,1.0,0.4262032080005156,,,,,,sub-037,1,stroop_test,,
,,,,44.0,8.0,3.0,,,,,,,,,,,,,rot,blue,b,0.0,b,1.0,0.5589527920019464,,,,,,,,,,3.0,8.0,44.0,2.0,225.73589170799823,,,,,,,,,,,,,,,,,225.7249774169977,226.07214179199943,226.863193833,226.85598762500013,,,,,,,,,,,,,,,,,,,,,,,,,,,,,,,,,,,226.85660229199857,226.863193833,226.863193833,227.4248147920007,b,1.0,0.5589527920019464,,,,,,sub-037,1,stroop_test,,
,,,,45.0,9.0,3.0,,,,,,,,,,,,,rot,yellow,g,0.0,g,1.0,1.6260581250026007,,,,,,,,,,3.0,9.0,45.0,3.0,227.4364716669952,,,,,,,,,,,,,,,,,227.4256156669944,228.22205566699995,229.01338691699493,229.00595949999845,,,,,,,,,,,,,,,,,,,,,,,,,,,,,,,,,,,229.0065849169987,229.01338691699493,229.01338691699493,230.6536135419956,g,1.0,1.6260581250026007,,,,,,sub-037,1,stroop_test,,
,,,,46.0,10.0,3.0,,,,,,,,,,,,,gelb,yellow,g,1.0,g,1.0,0.6211814580019563,,,,,,,,,,3.0,10.0,46.0,11.0,230.6587970830005,,,,,,,,,,,,,,,,,230.65411733299695,231.8450663749973,232.640546249997,232.62881666699832,,,,,,,,,,,,,,,,,,,,,,,,,,,,,,,,,,,232.63260308299505,232.640546249997,232.640546249997,233.264199833,g,1.0,0.6211814580019563,,,,,,sub-037,1,stroop_test,,
,,,,47.0,11.0,3.0,,,,,,,,,,,,,blau,red,r,0.0,r,1.0,0.7062800420026178,,,,,,,,,,3.0,11.0,47.0,4.0,233.27427208299923,,,,,,,,,,,,,,,,,233.26489083299384,233.3611798329948,234.157099707998,234.1454362499935,,,,,,,,,,,,,,,,,,,,,,,,,,,,,,,,,,,234.14916929199532,234.157099707998,234.157099707998,234.87428924999404,r,1.0,0.7062800420026178,,,,,,sub-037,1,stroop_test,,
,,,,48.0,0.0,4.0,,,,,,,,,,,,,gelb,blue,b,0.0,b,1.0,0.5253330830018967,,,,,,,,,,4.0,0.0,48.0,9.0,234.884755041996,,,,,,,,,,,,,,,,,234.8750188329941,236.0720302499976,236.8674405829952,236.85609141699388,,,,,,,,,,,,,,,,,,,,,,,,,,,,,,,,,,,236.86017483299656,236.8674405829952,236.8674405829952,237.3968234999993,b,1.0,0.5253330830018967,,,,,,sub-037,1,stroop_test,,
,,,,49.0,1.0,4.0,,,,,,,,,,,,,blau,yellow,g,0.0,g,1.0,0.5929545420003706,,,,,,,,,,4.0,1.0,49.0,7.0,237.40670070799388,,,,,,,,,,,,,,,,,237.39747358299792,238.5950779579944,239.3903367499952,239.3787702499976,,,,,,,,,,,,,,,,,,,,,,,,,,,,,,,,,,,239.3824939579936,239.3903367499952,239.3903367499952,239.99082737499705,g,1.0,0.5929545420003706,,,,,,sub-037,1,stroop_test,,
,,,,50.0,2.0,4.0,,,,,,,,,,,,,rot,blue,b,0.0,b,1.0,0.5918237499936367,,,,,,,,,,4.0,2.0,50.0,2.0,240.0016374169936,,,,,,,,,,,,,,,,,239.99156874999608,241.18885662499812,241.98477049999929,241.9727161669944,,,,,,,,,,,,,,,,,,,,,,,,,,,,,,,,,,,241.9771549579964,241.98477049999929,241.98477049999929,242.57914837499996,b,1.0,0.5918237499936367,,,,,,sub-037,1,stroop_test,,
,,,,51.0,3.0,4.0,,,,,,,,,,,,,rot,red,r,1.0,r,1.0,0.6074360830025398,,,,,,,,,,4.0,3.0,51.0,0.0,242.5875359999991,,,,,,,,,,,,,,,,,242.57978166699468,242.92814120799449,243.72078462499485,243.7132167499949,,,,,,,,,,,,,,,,,,,,,,,,,,,,,,,,,,,243.71384470799967,243.72078462499485,243.72078462499485,244.3313936669947,r,1.0,0.6074360830025398,,,,,,sub-037,1,stroop_test,,
,,,,52.0,4.0,4.0,,,,,,,,,,,,,gelb,red,r,0.0,r,1.0,0.4567295840024599,,,,,,,,,,4.0,4.0,52.0,8.0,244.3427258749944,,,,,,,,,,,,,,,,,244.3320952919967,244.6776590829977,245.4735296669969,245.4612867499964,,,,,,,,,,,,,,,,,,,,,,,,,,,,,,,,,,,245.4663919999948,245.4735296669969,245.4735296669969,245.94070604199808,r,1.0,0.4567295840024599,,,,,,sub-037,1,stroop_test,,
,,,,53.0,5.0,4.0,,,,,,,,,,,,,blau,blue,b,1.0,b,1.0,0.5546851249964675,,,,,,,,,,4.0,5.0,53.0,6.0,245.94988866699717,,,,,,,,,,,,,,,,,245.94132829199955,246.73890404199483,247.5345882080001,247.5227726249941,,,,,,,,,,,,,,,,,,,,,,,,,,,,,,,,,,,247.5274026249972,247.5345882080001,247.5345882080001,248.0917608749951,b,1.0,0.5546851249964675,,,,,,sub-037,1,stroop_test,,
,,,,54.0,6.0,4.0,,,,,,,,,,,,,rot,red,r,1.0,r,1.0,0.5798429999995278,,,,,,,,,,4.0,6.0,54.0,1.0,248.09942562499785,,,,,,,,,,,,,,,,,248.09236241699543,248.1889993329969,248.9845949579976,248.97269708299427,,,,,,,,,,,,,,,,,,,,,,,,,,,,,,,,,,,248.97727925000072,248.9845949579976,248.9845949579976,249.574301749999,r,1.0,0.5798429999995278,,,,,,sub-037,1,stroop_test,,
,,,,55.0,7.0,4.0,,,,,,,,,,,,,blau,blue,b,1.0,b,1.0,0.5827948750011274,,,,,,,,,,4.0,7.0,55.0,5.0,249.58411666699976,,,,,,,,,,,,,,,,,249.57499237499724,249.6719063749988,250.4673372079997,250.45607308299805,,,,,,,,,,,,,,,,,,,,,,,,,,,,,,,,,,,250.46037845799583,250.4673372079997,250.4673372079997,251.05743170799545,b,1.0,0.5827948750011274,,,,,,sub-037,1,stroop_test,,
,,,,56.0,8.0,4.0,,,,,,,,,,,,,blau,red,r,0.0,r,1.0,0.6321313329972327,,,,,,,,,,4.0,8.0,56.0,4.0,251.06757720799945,,,,,,,,,,,,,,,,,251.05812641699595,251.155322791994,251.94688874999704,251.9393148329982,,,,,,,,,,,,,,,,,,,,,,,,,,,,,,,,,,,251.9399972079991,251.94688874999704,251.94688874999704,252.5908432919969,r,1.0,0.6321313329972327,,,,,,sub-037,1,stroop_test,,
,,,,57.0,9.0,4.0,,,,,,,,,,,,,gelb,yellow,g,1.0,g,1.0,0.37113154099643,,,,,,,,,,4.0,9.0,57.0,11.0,252.6008446669948,,,,,,,,,,,,,,,,,252.59155612500035,253.38860462499724,254.18474137500016,254.1729460419956,,,,,,,,,,,,,,,,,,,,,,,,,,,,,,,,,,,254.1775550419989,254.18474137500016,254.18474137500016,254.5669527919963,g,1.0,0.37113154099643,,,,,,sub-037,1,stroop_test,,
,,,,58.0,10.0,4.0,,,,,,,,,,,,,gelb,yellow,g,1.0,g,1.0,0.3859151659999043,,,,,,,,,,4.0,10.0,58.0,10.0,254.5708823749956,,,,,,,,,,,,,,,,,254.56730129199423,255.3616147499997,256.1537336249967,256.1452502920001,,,,,,,,,,,,,,,,,,,,,,,,,,,,,,,,,,,256.14583079199656,256.1537336249967,256.1537336249967,256.54640558299434,g,1.0,0.3859151659999043,,,,,,sub-037,1,stroop_test,,
,,,,59.0,11.0,4.0,,,,,,,,,,,,,rot,yellow,g,0.0,g,1.0,0.6233611249990645,,,,,,,,,,4.0,11.0,59.0,3.0,256.5566740829963,,,,,,,,,,,,,,,,,256.5469365829995,256.8946130419936,257.705051207995,257.67829654199886,,,,,,,,,,,,,,,,,,,,,,,,,,,,,,,,,,,257.6818628330002,257.705051207995,257.705051207995,258.330834458,g,1.0,0.6233611249990645,,,,,,sub-037,1,stroop_test,,
,,,,60.0,0.0,5.0,,,,,,,,,,,,,gelb,yellow,g,1.0,g,1.0,0.3980247500003315,,,,,,,,,,5.0,0.0,60.0,10.0,258.3408374579958,,,,,,,,,,,,,,,,,258.3314296669996,259.1285572919951,259.92451012499805,259.9120077080006,,,,,,,,,,,,,,,,,,,,,,,,,,,,,,,,,,,259.91713520799385,259.92451012499805,259.92451012499805,260.3328372499964,g,1.0,0.3980247500003315,,,,,,sub-037,1,stroop_test,,
,,,,61.0,1.0,5.0,,,,,,,,,,,,,rot,blue,b,0.0,b,1.0,0.498058334000234,,,,,,,,,,5.0,1.0,61.0,2.0,260.3369043329949,,,,,,,,,,,,,,,,,260.33317087499745,261.1285112080004,261.9213896669972,261.9120639169996,,,,,,,,,,,,,,,,,,,,,,,,,,,,,,,,,,,261.91510862499854,261.9213896669972,261.9213896669972,262.42393620799703,b,1.0,0.498058334000234,,,,,,sub-037,1,stroop_test,,
,,,,62.0,2.0,5.0,,,,,,,,,,,,,rot,red,r,1.0,r,1.0,0.5748888329981128,,,,,,,,,,5.0,2.0,62.0,1.0,262.43425437499536,,,,,,,,,,,,,,,,,262.4246135419962,262.5221681249968,263.3139420419975,263.30621179199807,,,,,,,,,,,,,,,,,,,,,,,,,,,,,,,,,,,263.3069721669963,263.3139420419975,263.3139420419975,263.8913662919949,r,1.0,0.5748888329981128,,,,,,sub-037,1,stroop_test,,
,,,,63.0,3.0,5.0,,,,,,,,,,,,,gelb,red,r,0.0,r,1.0,0.5650064170040423,,,,,,,,,,5.0,3.0,63.0,8.0,263.9019584579946,,,,,,,,,,,,,,,,,263.89205920799577,264.68874841700017,265.4843827499936,265.472769,,,,,,,,,,,,,,,,,,,,,,,,,,,,,,,,,,,265.477237041996,265.4843827499936,265.4843827499936,266.0573752079945,r,1.0,0.5650064170040423,,,,,,sub-037,1,stroop_test,,
,,,,64.0,4.0,5.0,,,,,,,,,,,,,blau,yellow,g,0.0,g,1.0,0.5610437079958501,,,,,,,,,,5.0,4.0,64.0,7.0,266.0671513329944,,,,,,,,,,,,,,,,,266.0579789580006,266.4054589169973,267.2008047079944,267.1893473749951,,,,,,,,,,,,,,,,,,,,,,,,,,,,,,,,,,,267.1936371249976,267.2008047079944,267.2008047079944,267.7748503749972,g,1.0,0.5610437079958501,,,,,,sub-037,1,stroop_test,,
,,,,65.0,5.0,5.0,,,,,,,,,,,,,rot,yellow,g,0.0,g,1.0,0.5592250839981716,,,,,,,,,,5.0,5.0,65.0,3.0,267.7886748329984,,,,,,,,,,,,,,,,,267.77524145799543,268.12186083299457,268.91708270799427,268.90593845799594,,,,,,,,,,,,,,,,,,,,,,,,,,,,,,,,,,,268.90980516699346,268.91708270799427,268.91708270799427,269.4794892919963,g,1.0,0.5592250839981716,,,,,,sub-037,1,stroop_test,,
,,,,66.0,6.0,5.0,,,,,,,,,,,,,blau,blue,b,1.0,b,1.0,0.6587965830040048,,,,,,,,,,5.0,6.0,66.0,6.0,269.4879900419983,,,,,,,,,,,,,,,,,269.47999737499777,270.6781709999996,271.4882807920003,271.4615440419948,,,,,,,,,,,,,,,,,,,,,,,,,,,,,,,,,,,271.46515024999826,271.4882807920003,271.4882807920003,272.15743649999786,b,1.0,0.6587965830040048,,,,,,sub-037,1,stroop_test,,
,,,,67.0,7.0,5.0,,,,,,,,,,,,,gelb,blue,b,0.0,b,1.0,0.5089943339989986,,,,,,,,,,5.0,7.0,67.0,9.0,272.1672486669995,,,,,,,,,,,,,,,,,272.15808204199857,273.3554282080004,274.15128170800017,274.139448957998,,,,,,,,,,,,,,,,,,,,,,,,,,,,,,,,,,,274.14394949999405,274.15128170800017,274.15128170800017,274.6630693329935,b,1.0,0.5089943339989986,,,,,,sub-037,1,stroop_test,,
,,,,68.0,8.0,5.0,,,,,,,,,,,,,rot,red,r,1.0,r,1.0,0.5818299999955343,,,,,,,,,,5.0,8.0,68.0,0.0,274.68842358300026,,,,,,,,,,,,,,,,,274.66358174999914,274.7615861669983,275.557675666998,275.54549037499964,,,,,,,,,,,,,,,,,,,,,,,,,,,,,,,,,,,275.5501782499996,275.557675666998,275.557675666998,276.1465484999935,r,1.0,0.5818299999955343,,,,,,sub-037,1,stroop_test,,
,,,,69.0,9.0,5.0,,,,,,,,,,,,,blau,blue,b,1.0,b,1.0,1.0690804999976535,,,,,,,,,,5.0,9.0,69.0,5.0,276.15682708299573,,,,,,,,,,,,,,,,,276.1471112500003,276.4946399999972,277.30504220799776,277.2783388749958,,,,,,,,,,,,,,,,,,,,,,,,,,,,,,,,,,,277.2819327499965,277.30504220799776,277.30504220799776,278.3794565829958,b,1.0,1.0690804999976535,,,,,,sub-037,1,stroop_test,,
,,,,70.0,10.0,5.0,,,,,,,,,,,,,gelb,yellow,g,1.0,g,1.0,0.3820610830007354,,,,,,,,,,5.0,10.0,70.0,11.0,278.38684099999955,,,,,,,,,,,,,,,,,278.37989804199606,279.1782959579941,279.97363254199445,279.96209987499606,,,,,,,,,,,,,,,,,,,,,,,,,,,,,,,,,,,279.9657812919977,279.97363254199445,279.97363254199445,280.3628760829961,g,1.0,0.3820610830007354,,,,,,sub-037,1,stroop_test,,
,,,,71.0,11.0,5.0,,,,,,,,,,,,,blau,red,r,0.0,r,1.0,1.0074093329967582,,,,,,,,,,5.0,11.0,71.0,4.0,280.3733229169957,,,,,,,,,,,,,,,,,280.3634313749935,280.7121570829986,281.5067803329948,281.49537120799505,,,,,,,,,,,,,,,,,,,,,,,,,,,,,,,,,,,281.4990524579989,281.5067803329948,281.5067803329948,282.5240621669945,r,1.0,1.0074093329967582,,,,,,sub-037,1,stroop_test,,
,,,,72.0,0.0,6.0,,,,,,,,,,,,,gelb,red,r,0.0,r,1.0,0.5598419589950936,,,,,,,,,,6.0,0.0,72.0,8.0,282.5339575420003,,,,,,,,,,,,,,,,,282.5246782920003,282.62216879199696,283.4178217499939,283.4062490829965,,,,,,,,,,,,,,,,,,,,,,,,,,,,,,,,,,,283.4107252079993,283.4178217499939,283.4178217499939,283.9802456249963,r,1.0,0.5598419589950936,,,,,,sub-037,1,stroop_test,,
,,,,73.0,1.0,6.0,,,,,,,,,,,,,rot,red,r,1.0,r,1.0,0.601487542000541,,,,,,,,,,6.0,1.0,73.0,0.0,283.99057129199355,,,,,,,,,,,,,,,,,283.9808382919946,284.32802137499675,285.1237672079951,285.11200129200006,,,,,,,,,,,,,,,,,,,,,,,,,,,,,,,,,,,285.11568891699426,285.1237672079951,285.1237672079951,285.7301998330004,r,1.0,0.601487542000541,,,,,,sub-037,1,stroop_test,,
,,,,74.0,2.0,6.0,,,,,,,,,,,,,gelb,yellow,g,1.0,g,1.0,0.5774633339970023,,,,,,,,,,6.0,2.0,74.0,10.0,285.7408692079989,,,,,,,,,,,,,,,,,285.7307994169969,286.5289432079953,287.33403470799385,287.3228592919986,,,,,,,,,,,,,,,,,,,,,,,,,,,,,,,,,,,287.32682729199587,287.33403470799385,287.33403470799385,287.91400708299625,g,1.0,0.5774633339970023,,,,,,sub-037,1,stroop_test,,
,,,,75.0,3.0,6.0,,,,,,,,,,,,,rot,yellow,g,0.0,g,1.0,0.5508296249972773,,,,,,,,,,6.0,3.0,75.0,3.0,287.9244066249957,,,,,,,,,,,,,,,,,287.9147484999994,289.1117041249963,289.9071807500004,289.8949171669956,,,,,,,,,,,,,,,,,,,,,,,,,,,,,,,,,,,289.89994074999413,289.9071807500004,289.9071807500004,290.4639548749983,g,1.0,0.5508296249972773,,,,,,sub-037,1,stroop_test,,
,,,,76.0,4.0,6.0,,,,,,,,,,,,,gelb,yellow,g,1.0,g,1.0,0.5357620830036467,,,,,,,,,,6.0,4.0,76.0,11.0,290.4741599169938,,,,,,,,,,,,,,,,,290.46453225000005,290.5617602919956,291.35697245799383,291.3454902499943,,,,,,,,,,,,,,,,,,,,,,,,,,,,,,,,,,,291.3491980830004,291.35697245799383,291.35697245799383,291.89742041699355,g,1.0,0.5357620830036467,,,,,,sub-037,1,stroop_test,,
,,,,77.0,5.0,6.0,,,,,,,,,,,,,rot,blue,b,0.0,b,1.0,1.79546074999962,,,,,,,,,,6.0,5.0,77.0,2.0,291.9075687079967,,,,,,,,,,,,,,,,,291.8980200829974,291.9948689169978,292.7903213329992,292.77856820799934,,,,,,,,,,,,,,,,,,,,,,,,,,,,,,,,,,,292.7821118749998,292.7903213329992,292.7903213329992,294.59090074999403,b,1.0,1.79546074999962,,,,,,sub-037,1,stroop_test,,
,,,,78.0,6.0,6.0,,,,,,,,,,,,,blau,yellow,g,0.0,g,1.0,0.6297359579984914,,,,,,,,,,6.0,6.0,78.0,7.0,294.60164516700024,,,,,,,,,,,,,,,,,294.5917015829982,294.9386632079986,295.7335988749983,295.7227029579953,,,,,,,,,,,,,,,,,,,,,,,,,,,,,,,,,,,295.7266232080001,295.7335988749983,295.7335988749983,296.37405524999485,g,1.0,0.6297359579984914,,,,,,sub-037,1,stroop_test,,
,,,,79.0,7.0,6.0,,,,,,,,,,,,,blau,red,r,0.0,r,1.0,0.6008395829994697,,,,,,,,,,6.0,7.0,79.0,4.0,296.3830344999951,,,,,,,,,,,,,,,,,296.3747590419953,296.4720669579983,297.2642166250007,297.2563319999972,,,,,,,,,,,,,,,,,,,,,,,,,,,,,,,,,,,297.257088499995,297.2642166250007,297.2642166250007,297.8743661249973,r,1.0,0.6008395829994697,,,,,,sub-037,1,stroop_test,,
,,,,80.0,8.0,6.0,,,,,,,,,,,,,blau,blue,b,1.0,b,1.0,0.5635519579955144,,,,,,,,,,6.0,8.0,80.0,6.0,297.8844196249993,,,,,,,,,,,,,,,,,297.87509308299923,298.67210616699595,299.464110916997,299.4563272919986,,,,,,,,,,,,,,,,,,,,,,,,,,,,,,,,,,,299.4570905419969,299.464110916997,299.464110916997,300.0302125829985,b,1.0,0.5635519579955144,,,,,,sub-037,1,stroop_test,,
,,,,81.0,9.0,6.0,,,,,,,,,,,,,rot,red,r,1.0,r,1.0,0.6043407079996541,,,,,,,,,,6.0,9.0,81.0,1.0,300.0405654169954,,,,,,,,,,,,,,,,,300.0309039169952,300.82897104199947,301.6347565420001,301.6229513329963,,,,,,,,,,,,,,,,,,,,,,,,,,,,,,,,,,,301.6274092079984,301.6347565420001,301.6347565420001,302.24184412499744,r,1.0,0.6043407079996541,,,,,,sub-037,1,stroop_test,,
,,,,82.0,10.0,6.0,,,,,,,,,,,,,gelb,blue,b,0.0,b,1.0,1.2621417499976817,,,,,,,,,,6.0,10.0,82.0,9.0,302.2521398749959,,,,,,,,,,,,,,,,,302.2426976669958,302.3387427919952,303.1346352499968,303.12304495799617,,,,,,,,,,,,,,,,,,,,,,,,,,,,,,,,,,,303.1275041669942,303.1346352499968,303.1346352499968,304.4062984579941,b,1.0,1.2621417499976817,,,,,,sub-037,1,stroop_test,,
,,,,83.0,11.0,6.0,,,,,,,,,,,,,blau,blue,b,1.0,b,1.0,0.5063881250025588,,,,,,,,,,6.0,11.0,83.0,5.0,304.4165101249964,,,,,,,,,,,,,,,,,304.4070137919989,304.5052714169942,305.302814249997,305.28956299999845,,,,,,,,,,,,,,,,,,,,,,,,,,,,,,,,,,,305.2957169579968,305.302814249997,305.302814249997,305.81346924999525,b,1.0,0.5063881250025588,,,,,,sub-037,1,stroop_test,,
,,,,84.0,0.0,7.0,,,,,,,,,,,,,gelb,yellow,g,1.0,g,1.0,0.5572140000003856,,,,,,,,,,7.0,0.0,84.0,11.0,305.82348445800017,,,,,,,,,,,,,,,,,305.8140455829998,306.1613025419938,306.9567944579976,306.94520929199643,,,,,,,,,,,,,,,,,,,,,,,,,,,,,,,,,,,306.9489940419953,306.9567944579976,306.9567944579976,307.5241451249967,g,1.0,0.5572140000003856,,,,,,sub-037,1,stroop_test,,
,,,,85.0,1.0,7.0,,,,,,,,,,,,,blau,blue,b,1.0,b,1.0,0.4805710000000545,,,,,,,,,,7.0,1.0,85.0,5.0,307.5340968749952,,,,,,,,,,,,,,,,,307.52483299999585,308.72209245799604,309.5177942079972,309.5060630000007,,,,,,,,,,,,,,,,,,,,,,,,,,,,,,,,,,,309.5102184999996,309.5177942079972,309.5177942079972,310.0075179169944,b,1.0,0.4805710000000545,,,,,,sub-037,1,stroop_test,,
,,,,86.0,2.0,7.0,,,,,,,,,,,,,rot,red,r,1.0,r,1.0,0.5220202909986256,,,,,,,,,,7.0,2.0,86.0,0.0,310.0176716249989,,,,,,,,,,,,,,,,,310.0081916669951,310.805399082994,311.60145729199576,311.5894896249956,,,,,,,,,,,,,,,,,,,,,,,,,,,,,,,,,,,311.59405687499384,311.60145729199576,311.60145729199576,312.1294389579998,r,1.0,0.5220202909986256,,,,,,sub-037,1,stroop_test,,
,,,,87.0,3.0,7.0,,,,,,,,,,,,,rot,red,r,1.0,r,1.0,0.5255875420043594,,,,,,,,,,7.0,3.0,87.0,1.0,312.13719995800056,,,,,,,,,,,,,,,,,312.129939749997,312.9281197079981,313.72044162499515,313.7118099579966,,,,,,,,,,,,,,,,,,,,,,,,,,,,,,,,,,,313.7123845829992,313.72044162499515,313.72044162499515,314.2572279579981,r,1.0,0.5255875420043594,,,,,,sub-037,1,stroop_test,,
,,,,88.0,4.0,7.0,,,,,,,,,,,,,blau,blue,b,1.0,b,1.0,0.6401411660044687,,,,,,,,,,7.0,4.0,88.0,6.0,314.26591641699633,,,,,,,,,,,,,,,,,314.25783241699537,314.604013917,315.4012497500007,315.389439999999,,,,,,,,,,,,,,,,,,,,,,,,,,,,,,,,,,,315.39404595799715,315.4012497500007,315.4012497500007,316.0469066669976,b,1.0,0.6401411660044687,,,,,,sub-037,1,stroop_test,,
,,,,89.0,5.0,7.0,,,,,,,,,,,,,rot,yellow,g,0.0,g,1.0,1.0318355419949512,,,,,,,,,,7.0,5.0,89.0,3.0,316.05778999999893,,,,,,,,,,,,,,,,,316.0475687079961,316.39516704199923,317.19031933299993,317.1788709579996,,,,,,,,,,,,,,,,,,,,,,,,,,,,,,,,,,,317.1824469169951,317.19031933299993,317.19031933299993,318.22456416699424,g,1.0,1.0318355419949512,,,,,,sub-037,1,stroop_test,,
,,,,90.0,6.0,7.0,,,,,,,,,,,,,gelb,red,r,0.0,r,1.0,0.8060442499991041,,,,,,,,,,7.0,6.0,90.0,8.0,318.2354536249986,,,,,,,,,,,,,,,,,318.2252709999957,319.02201874999446,319.8178931250004,319.80631954199634,,,,,,,,,,,,,,,,,,,,,,,,,,,,,,,,,,,319.8107637499997,319.8178931250004,319.8178931250004,320.6303759579969,r,1.0,0.8060442499991041,,,,,,sub-037,1,stroop_test,,
,,,,91.0,7.0,7.0,,,,,,,,,,,,,rot,blue,b,0.0,b,1.0,1.2181858750045649,,,,,,,,,,7.0,7.0,91.0,2.0,320.63992633299495,,,,,,,,,,,,,,,,,320.63101116699545,320.72759541699634,321.524295999996,321.5119747919962,,,,,,,,,,,,,,,,,,,,,,,,,,,,,,,,,,,321.5166952919972,321.524295999996,321.524295999996,322.7462607499983,b,1.0,1.2181858750045649,,,,,,sub-037,1,stroop_test,,
,,,,92.0,8.0,7.0,,,,,,,,,,,,,blau,yellow,g,0.0,g,1.0,0.6337680829965393,,,,,,,,,,7.0,8.0,92.0,7.0,322.7540203749959,,,,,,,,,,,,,,,,,322.7466992499976,322.84432941699924,323.64012395799364,323.62844804199995,,,,,,,,,,,,,,,,,,,,,,,,,,,,,,,,,,,323.63227195799846,323.64012395799364,323.64012395799364,324.27784074999363,g,1.0,0.6337680829965393,,,,,,sub-037,1,stroop_test,,
,,,,93.0,9.0,7.0,,,,,,,,,,,,,gelb,blue,b,0.0,b,1.0,0.760849792000954,,,,,,,,,,7.0,9.0,93.0,9.0,324.2874764999942,,,,,,,,,,,,,,,,,324.2781973749952,324.3776181669964,325.188416166995,325.16148970799986,,,,,,,,,,,,,,,,,,,,,,,,,,,,,,,,,,,325.1651392499989,325.188416166995,325.188416166995,325.9577288329965,b,1.0,0.760849792000954,,,,,,sub-037,1,stroop_test,,
,,,,94.0,10.0,7.0,,,,,,,,,,,,,blau,red,r,0.0,r,1.0,1.4341844580048928,,,,,,,,,,7.0,10.0,94.0,4.0,325.96697549999953,,,,,,,,,,,,,,,,,325.95842812499905,326.7554367919947,327.55037741699925,327.5393658749963,,,,,,,,,,,,,,,,,,,,,,,,,,,,,,,,,,,327.543309582994,327.55037741699925,327.55037741699925,328.9908013749955,r,1.0,1.4341844580048928,,,,,,sub-037,1,stroop_test,,
,,,,95.0,11.0,7.0,,,,,,,,,,,,,gelb,yellow,g,1.0,g,1.0,0.5824370410045958,,,,,,,,,,7.0,11.0,95.0,10.0,329.00070366699947,,,,,,,,,,,,,,,,,328.9915119579964,329.78878854199866,330.5837429579988,330.57266058299865,,,,,,,,,,,,,,,,,,,,,,,,,,,,,,,,,,,330.57651975000044,330.5837429579988,330.5837429579988,331.1740236669939,g,1.0,0.5824370410045958,,,,,,sub-037,1,stroop_test,,
,,,,96.0,0.0,8.0,,,,,,,,,,,,,gelb,yellow,g,1.0,g,1.0,0.458612208996783,,,,,,,,,,8.0,0.0,96.0,10.0,331.1839801249953,,,,,,,,,,,,,,,,,331.1746912499948,331.5220420419937,332.31358908299444,332.3060476249957,,,,,,,,,,,,,,,,,,,,,,,,,,,,,,,,,,,332.30679245799547,332.31358908299444,332.31358908299444,332.7746530419972,g,1.0,0.458612208996783,,,,,,sub-037,1,stroop_test,,
,,,,97.0,1.0,8.0,,,,,,,,,,,,,rot,blue,b,0.0,b,1.0,1.178020542000013,,,,,,,,,,8.0,1.0,97.0,2.0,332.7848761669957,,,,,,,,,,,,,,,,,332.7753494999997,332.8721797079997,333.6673104579968,333.65604241699475,,,,,,,,,,,,,,,,,,,,,,,,,,,,,,,,,,,333.6599610829944,333.6673104579968,333.6673104579968,334.8574773750006,b,1.0,1.178020542000013,,,,,,sub-037,1,stroop_test,,
,,,,98.0,2.0,8.0,,,,,,,,,,,,,gelb,yellow,g,1.0,g,1.0,0.9171107500005746,,,,,,,,,,8.0,2.0,98.0,11.0,334.8674072079957,,,,,,,,,,,,,,,,,334.8581271669973,335.20546149999427,336.000478957998,335.989392042,,,,,,,,,,,,,,,,,,,,,,,,,,,,,,,,,,,335.9934341669941,336.000478957998,336.000478957998,336.92404616699787,g,1.0,0.9171107500005746,,,,,,sub-037,1,stroop_test,,
,,,,99.0,3.0,8.0,,,,,,,,,,,,,rot,red,r,1.0,r,1.0,0.4702755000034813,,,,,,,,,,8.0,3.0,99.0,0.0,336.9331906249936,,,,,,,,,,,,,,,,,336.9247531250003,337.0220261669965,337.8184185419959,337.80595566699776,,,,,,,,,,,,,,,,,,,,,,,,,,,,,,,,,,,337.8110053749988,337.8184185419959,337.8184185419959,338.29085358299926,r,1.0,0.4702755000034813,,,,,,sub-037,1,stroop_test,,
,,,,100.0,4.0,8.0,,,,,,,,,,,,,rot,yellow,g,0.0,r,0.0,0.7877240419984446,,,,,,,,,,8.0,4.0,100.0,3.0,338.2987833329971,,,,,,,,,,,,,,,,,338.29148108299705,338.63865654199617,339.4299311249997,339.42272829199646,,,,,,,,,,,,,,,,,,,,,,,,,,,,,,,,,,,339.42335049999383,339.4299311249997,339.4299311249997,340.22431429199787,r,0.0,0.7877240419984446,,,,,,sub-037,1,stroop_test,,
,,,,101.0,5.0,8.0,,,,,,,,,,,,,blau,blue,b,1.0,b,1.0,1.0087497079948662,,,,,,,,,,8.0,5.0,101.0,6.0,340.234165541995,,,,,,,,,,,,,,,,,340.2249702919944,341.0221492499986,341.81749649999983,341.80617991699546,,,,,,,,,,,,,,,,,,,,,,,,,,,,,,,,,,,341.8102641250007,341.81749649999983,341.81749649999983,342.8302875829977,b,1.0,1.0087497079948662,,,,,,sub-037,1,stroop_test,,
,,,,102.0,6.0,8.0,,,,,,,,,,,,,rot,red,r,1.0,r,1.0,0.6554477499958011,,,,,,,,,,8.0,6.0,102.0,1.0,342.84014570799627,,,,,,,,,,,,,,,,,342.8308528749985,343.6283462499996,344.43539362499723,344.42301691699686,,,,,,,,,,,,,,,,,,,,,,,,,,,,,,,,,,,344.4276065419981,344.43539362499723,344.43539362499723,345.0962858329949,r,1.0,0.6554477499958011,,,,,,sub-037,1,stroop_test,,
,,,,103.0,7.0,8.0,,,,,,,,,,,,,blau,red,r,0.0,r,1.0,0.7721472499979427,,,,,,,,,,8.0,7.0,103.0,4.0,345.1051976249946,,,,,,,,,,,,,,,,,345.096787167,345.1944634579995,345.99072845799674,345.97891537499527,,,,,,,,,,,,,,,,,,,,,,,,,,,,,,,,,,,345.9827223329994,345.99072845799674,345.99072845799674,346.7741355830003,r,1.0,0.7721472499979427,,,,,,sub-037,1,stroop_test,,
,,,,104.0,8.0,8.0,,,,,,,,,,,,,blau,yellow,g,0.0,g,1.0,0.646965290994558,,,,,,,,,,8.0,8.0,104.0,7.0,346.78436099999817,,,,,,,,,,,,,,,,,346.77480362499773,347.12209437499405,347.91344391699386,347.9061648749994,,,,,,,,,,,,,,,,,,,,,,,,,,,,,,,,,,,347.9067628749981,347.91344391699386,347.91344391699386,348.56398716699914,g,1.0,0.646965290994558,,,,,,sub-037,1,stroop_test,,
,,,,105.0,9.0,8.0,,,,,,,,,,,,,gelb,red,r,0.0,r,1.0,1.1093814580017352,,,,,,,,,,8.0,9.0,105.0,8.0,348.5743751669943,,,,,,,,,,,,,,,,,348.56458062499587,348.9114606669973,349.7048247079947,349.6948530829977,,,,,,,,,,,,,,,,,,,,,,,,,,,,,,,,,,,349.69811366700014,349.7048247079947,349.7048247079947,350.82442170799914,r,1.0,1.1093814580017352,,,,,,sub-037,1,stroop_test,,
,,,,106.0,10.0,8.0,,,,,,,,,,,,,gelb,blue,b,0.0,b,1.0,0.5595246250013588,,,,,,,,,,8.0,10.0,106.0,9.0,350.8345365829955,,,,,,,,,,,,,,,,,350.8251436249993,351.1722192919988,351.9638022919971,351.95609858299576,,,,,,,,,,,,,,,,,,,,,,,,,,,,,,,,,,,351.95675704199675,351.9638022919971,351.9638022919971,352.5297970419997,b,1.0,0.5595246250013588,,,,,,sub-037,1,stroop_test,,
,,,,107.0,11.0,8.0,,,,,,,,,,,,,blau,blue,b,1.0,b,1.0,0.5876229170025908,,,,,,,,,,8.0,11.0,107.0,5.0,352.5380600419958,,,,,,,,,,,,,,,,,352.53027474999544,352.87850783299655,353.67378995799663,353.6617392499975,,,,,,,,,,,,,,,,,,,,,,,,,,,,,,,,,,,353.6655014579956,353.67378995799663,353.67378995799663,354.2739426249973,b,1.0,0.5876229170025908,,,,,,sub-037,1,stroop_test,,
,,,,108.0,0.0,9.0,,,,,,,,,,,,,gelb,red,r,0.0,r,1.0,0.6697669999994105,,,,,,,,,,9.0,0.0,108.0,8.0,354.2817794999937,,,,,,,,,,,,,,,,,354.27450233299896,354.6219389170001,355.4194358329987,355.4063705419976,,,,,,,,,,,,,,,,,,,,,,,,,,,,,,,,,,,355.4121823329988,355.4194358329987,355.4194358329987,356.1001072079962,r,1.0,0.6697669999994105,,,,,,sub-037,1,stroop_test,,
,,,,109.0,1.0,9.0,,,,,,,,,,,,,rot,yellow,g,0.0,g,1.0,0.6890364170030807,,,,,,,,,,9.0,1.0,109.0,3.0,356.1044029170007,,,,,,,,,,,,,,,,,356.10047579199454,357.29600345799554,358.1005962079944,358.08934462499747,,,,,,,,,,,,,,,,,,,,,,,,,,,,,,,,,,,358.0931613329958,358.1005962079944,358.1005962079944,358.79668995799875,g,1.0,0.6890364170030807,,,,,,sub-037,1,stroop_test,,
,,,,110.0,2.0,9.0,,,,,,,,,,,,,rot,blue,b,0.0,b,1.0,0.6647416670020903,,,,,,,,,,9.0,2.0,110.0,2.0,358.8070226669952,,,,,,,,,,,,,,,,,358.7972477919975,359.5959994999939,360.3971629999942,360.3894005830007,,,,,,,,,,,,,,,,,,,,,,,,,,,,,,,,,,,360.39014658299857,360.3971629999942,360.3971629999942,361.0645500419996,b,1.0,0.6647416670020903,,,,,,sub-037,1,stroop_test,,
,,,,111.0,3.0,9.0,,,,,,,,,,,,,blau,red,r,0.0,r,1.0,3.0010725840038504,,,,,,,,,,9.0,3.0,111.0,4.0,361.0742362079982,,,,,,,,,,,,,,,,,361.06515450000006,361.160808749999,361.9568165829987,361.94498112499423,,,,,,,,,,,,,,,,,,,,,,,,,,,,,,,,,,,361.94885475000046,361.9568165829987,361.9568165829987,364.9633414169948,r,1.0,3.0010725840038504,,,,,,sub-037,1,stroop_test,,
,,,,112.0,4.0,9.0,,,,,,,,,,,,,blau,blue,b,1.0,b,1.0,0.6126539580000099,,,,,,,,,,9.0,4.0,112.0,6.0,364.9738282499966,,,,,,,,,,,,,,,,,364.9639084579976,365.7615814169985,366.5539791249976,366.54493945799913,,,,,,,,,,,,,,,,,,,,,,,,,,,,,,,,,,,366.5455143750005,366.5539791249976,366.5539791249976,367.173982458,b,1.0,0.6126539580000099,,,,,,sub-037,1,stroop_test,,
,,,,113.0,5.0,9.0,,,,,,,,,,,,,gelb,yellow,g,1.0,g,1.0,0.3985723750010947,,,,,,,,,,9.0,5.0,113.0,11.0,367.18415429199376,,,,,,,,,,,,,,,,,367.1746132080007,368.3721443749964,369.1675945829993,369.1561417079938,,,,,,,,,,,,,,,,,,,,,,,,,,,,,,,,,,,369.1602729999941,369.1675945829993,369.1675945829993,369.5740164579984,g,1.0,0.3985723750010947,,,,,,sub-037,1,stroop_test,,
,,,,114.0,6.0,9.0,,,,,,,,,,,,,rot,red,r,1.0,r,1.0,0.4383728340035304,,,,,,,,,,9.0,6.0,114.0,1.0,369.5841774169967,,,,,,,,,,,,,,,,,369.57468654200056,369.92229312499694,370.71767262499634,370.7060942079988,,,,,,,,,,,,,,,,,,,,,,,,,,,,,,,,,,,370.7100275419944,370.71767262499634,370.71767262499634,371.16917708300025,r,1.0,0.4383728340035304,,,,,,sub-037,1,stroop_test,,
,,,,115.0,7.0,9.0,,,,,,,,,,,,,blau,blue,b,1.0,b,1.0,0.6128953330044169,,,,,,,,,,9.0,7.0,115.0,5.0,371.1734682499955,,,,,,,,,,,,,,,,,371.1695860420005,371.26156737499696,372.0567936249936,372.045212291996,,,,,,,,,,,,,,,,,,,,,,,,,,,,,,,,,,,372.0488585829953,372.0567936249936,372.0567936249936,372.6737823749936,b,1.0,0.6128953330044169,,,,,,sub-037,1,stroop_test,,
,,,,116.0,8.0,9.0,,,,,,,,,,,,,gelb,blue,b,0.0,b,1.0,0.4543032920046244,,,,,,,,,,9.0,8.0,116.0,9.0,372.6823366669996,,,,,,,,,,,,,,,,,372.6743314169944,373.0220429999972,373.8183299999946,373.8059423749946,,,,,,,,,,,,,,,,,,,,,,,,,,,,,,,,,,,373.8114010829959,373.8183299999946,373.8183299999946,374.2855287499988,b,1.0,0.4543032920046244,,,,,,sub-037,1,stroop_test,,
,,,,117.0,9.0,9.0,,,,,,,,,,,,,blau,yellow,g,0.0,g,1.0,0.5483132919980562,,,,,,,,,,9.0,9.0,117.0,7.0,374.2898167499952,,,,,,,,,,,,,,,,,374.2859409579978,375.07866324999486,375.8838772919989,375.8726337919943,,,,,,,,,,,,,,,,,,,,,,,,,,,,,,,,,,,375.8767604579989,375.8838772919989,375.8838772919989,376.44081474999984,g,1.0,0.5483132919980562,,,,,,sub-037,1,stroop_test,,
,,,,118.0,10.0,9.0,,,,,,,,,,,,,gelb,yellow,g,1.0,g,1.0,0.606313834003231,,,,,,,,,,9.0,10.0,118.0,10.0,376.4518944579977,,,,,,,,,,,,,,,,,376.4415815829998,377.23864137499913,378.0347761669982,378.0230394169994,,,,,,,,,,,,,,,,,,,,,,,,,,,,,,,,,,,378.0276258329977,378.0347761669982,378.0347761669982,378.6464207079989,g,1.0,0.606313834003231,,,,,,sub-037,1,stroop_test,,
,,,,119.0,11.0,9.0,,,,,,,,,,,,,rot,red,r,1.0,r,1.0,0.571264833000896,,,,,,,,,,9.0,11.0,119.0,0.0,378.671778291995,,,,,,,,,,,,,,,,,378.6469345000005,379.4447599999985,380.24041716699867,380.2289797919948,,,,,,,,,,,,,,,,,,,,,,,,,,,,,,,,,,,380.2326081669962,380.24041716699867,380.24041716699867,380.81416529199487,r,1.0,0.571264833000896,,,,,,sub-037,1,stroop_test,,
,,,,,,,,,,,,,,,,,,,,,,,,,,,,,,,,,,,,,,,,,,,,,,,,,,,,,,,,,,,,,,,,,,,,,,,,,,,,,,,,,,,,,,,,,,,,,,,,,,,,,,380.8144889579999,380.82658233300026,385.8220431249938,385.8119494999992,sub-037,1,stroop_test,,
