direction,corrAns,thisN,thisTrialN,thisRepN,respDots.keys,respDots.corr,respDots.rt,respDots.duration,randomInstr,respRandomInstr.keys,respRandomInstr.rt,respRandomInstr.duration,practice_trials.thisRepN,practice_trials.thisTrialN,practice_trials.thisN,practice_trials.thisIndex,instr_trials.thisRepN,instr_trials.thisTrialN,instr_trials.thisN,instr_trials.thisIndex,test_trials.thisRepN,test_trials.thisTrialN,test_trials.thisN,test_trials.thisIndex,thisRow.t,notes,general_instruction.started,textGeneralInstr.started,respGeneralInstr.started,general_instruction.stopped,respGeneralInstr.keys,respGeneralInstr.rt,respGeneralInstr.duration,ITI.started,fixcross.started,fixcross.stopped,ITI.stopped,dots.started,backgroundDots.started,stimulusDots.started,respDots.started,stimulusDots.stopped,dots.stopped,practice_trials.respDots.keys,practice_trials.respDots.corr,practice_trials.respDots.rt,practice_trials.respDots.duration,feedback.started,textFeedback.started,feedback.stopped,textFeedback.stopped,info.started,textInfo.started,keyRespInfo.started,info.stopped,keyRespInfo.keys,keyRespInfo.rt,keyRespInfo.duration,test_instruction.started,textTestInstr.started,respTestInstr.started,test_instruction.stopped,respTestInstr.keys,respTestInstr.rt,respTestInstr.duration,random_instruction.started,textRandomInstr.started,respRandomInstr.started,random_instruction.stopped,instr_trials.respRandomInstr.keys,instr_trials.respRandomInstr.rt,instr_trials.respRandomInstr.duration,test_trials.respDots.keys,test_trials.respDots.corr,test_trials.respDots.rt,test_trials.respDots.duration,goodbye.started,textGoodbye.started,goodbye.stopped,participant,session,expName,frameRate,Unnamed: 87
,,,,,,,,,,,,,,,,,,,,,,,,,,,0.0108658929966622,0.0326368740061298,0.0326368740061298,235.2733578680054,space,235.06047597699217,,,,,,,,,,,,,,,,,,,,,,,,,,,,,,,,,,,,,,,,,,,,,,,,sub-224,1,random_dot,70.30044462991317,
right,right,0.0,0.0,0.0,left,0.0,9.443077529998844,,,,,,0.0,0.0,0.0,1.0,,,,,,,,,235.3869237960025,,,,,,,,,235.3711870760017,236.08980578799677,236.9172474280058,236.8906103229965,236.89110881600936,236.9172474280058,236.9172474280058,236.9172474280058,241.894242512004,246.3751822810009,left,0.0,9.443077529998844,,246.38154779300385,246.4061107220041,246.88409517800028,,,,,,,,,,,,,,,,,,,,,,,,,,,,,,sub-224,1,random_dot,70.30044462991317,
left,left,1.0,1.0,0.0,left,1.0,9.546700120001333,,,,,,0.0,1.0,1.0,0.0,,,,,,,,,246.89678218400516,,,,,,,,,246.88543735099665,247.2175942610047,248.01933217000624,248.00883084700035,248.00930114700168,248.01933217000624,248.01933217000624,248.01933217000624,253.0099750500085,257.5777105790039,left,1.0,9.546700120001333,,257.5818823180016,257.59348291800416,258.08400959300343,,,,,,,,,,,,,,,,,,,,,,,,,,,,,,sub-224,1,random_dot,70.30044462991317,
left,left,2.0,0.0,1.0,left,1.0,5.874392127996543,,,,,,1.0,0.0,2.0,0.0,,,,,,,,,258.0968546390068,,,,,,,,,258.0852874410048,258.1749204910011,258.9859059720038,258.97530855100194,258.9757775379985,258.9859059720038,258.9859059720038,258.9859059720038,263.97026131799794,264.86996609400376,left,1.0,5.874392127996543,,264.8700615459966,264.8805039050057,265.3639050850033,265.37458798699663,,,,,,,,,,,,,,,,,,,,,,,,,,,,,sub-224,1,random_dot,70.30044462991317,
right,right,3.0,1.0,1.0,left,0.0,5.955082244996447,,,,,,1.0,1.0,3.0,1.0,,,,,,,,,265.37458798699663,,,,,,,,,265.364121082006,265.71646450200933,266.51038932800293,266.4998101090023,266.50095848800265,266.51038932800293,266.51038932800293,266.51038932800293,271.50811833600164,272.46966227699886,left,0.0,5.955082244996447,,272.4730244800012,272.48231721400225,272.9676115659968,272.97986525199667,,,,,,,,,,,,,,,,,,,,,,,,,,,,,sub-224,1,random_dot,70.30044462991317,
left,left,4.0,0.0,2.0,right,0.0,5.71460634500545,,,,,,2.0,0.0,4.0,0.0,,,,,,,,,272.97986525199667,,,,,,,,,272.96851795700786,273.76649916899623,274.5662787940091,274.55514405100257,274.55605138900864,274.5662787940091,274.5662787940091,274.5662787940091,279.54935984199983,280.292028595999,right,0.0,5.71460634500545,,280.2921067779971,280.3012112430006,280.79107046300487,280.800971884004,,,,,,,,,,,,,,,,,,,,,,,,,,,,,sub-224,1,random_dot,70.30044462991317,
right,right,5.0,1.0,2.0,left,0.0,5.863817128993105,,,,,,2.0,1.0,5.0,1.0,,,,,,,,,280.800971884004,,,,,,,,,280.79231135500595,281.98397818200465,282.7847107340058,282.7745778630051,282.77481531100057,282.7847107340058,282.7847107340058,282.7847107340058,287.7775766170089,288.6586023669952,left,0.0,5.863817128993105,,288.6587118269963,288.6692332870007,289.1566514260048,289.17421722800646,,,,,,,,,,,,,,,,,,,,,,,,,,,,,sub-224,1,random_dot,70.30044462991317,
right,right,6.0,0.0,3.0,right,1.0,5.796853318999638,,,,,,3.0,0.0,6.0,1.0,,,,,,,,,289.17421722800646,,,,,,,,,289.15701976799755,289.9599729210022,290.7745045400079,290.7566057969961,290.75707100200816,290.7745045400079,290.7745045400079,290.7745045400079,295.75018223900406,296.57435609000095,right,1.0,5.796853318999638,,296.5773903859954,296.5876782609994,297.07793328700063,,,,,,,,,,,,,,,,,,,,,,,,,,,,,,sub-224,1,random_dot,70.30044462991317,
left,left,7.0,1.0,3.0,left,1.0,5.84870601799048,,,,,,3.0,1.0,7.0,0.0,,,,,,,,,297.0910096590087,,,,,,,,,297.0783753489959,297.16723033000017,297.9681765029964,297.957945629998,297.9583528670046,297.9681765029964,297.9681765029964,297.9681765029964,302.9495167849964,303.8196716960083,left,1.0,5.84870601799048,,303.8197691270034,303.82927432100405,304.31458264100365,304.3266328220052,,,,,,,,,,,,,,,,,,,,,,,,,,,,,sub-224,1,random_dot,70.30044462991317,
left,left,8.0,0.0,4.0,left,1.0,11.226538921997417,,,,,,4.0,0.0,8.0,0.0,,,,,,,,,304.3266328220052,,,,,,,,,304.3155125240009,304.4169619680033,305.224318736,305.206447168006,305.206914882001,305.224318736,305.224318736,305.224318736,310.20751478199963,316.45835360600904,left,1.0,11.226538921997417,,316.45843021699693,316.4692422119988,316.95782954800234,316.9662005230057,,,,,,,,,,,,,,,,,,,,,,,,,,,,,sub-224,1,random_dot,70.30044462991317,
right,right,9.0,1.0,4.0,left,0.0,6.8288834810082335,,,,,,4.0,1.0,9.0,1.0,,,,,,,,,316.9662005230057,,,,,,,,,316.95823309599655,318.150073982004,318.95028612999886,318.9408961720037,318.9411663110077,318.95028612999886,318.95028612999886,318.95028612999886,323.9333133089968,325.79000661699683,left,0.0,6.8288834810082335,,325.79224758599594,325.80726182799845,326.2907689130079,,,,,,,,,,,,,,,,,,,,,,,,,,,,,,sub-224,1,random_dot,70.30044462991317,
left,left,10.0,0.0,5.0,left,1.0,9.994631404988468,,,,,,5.0,0.0,10.0,0.0,,,,,,,,,326.2998951150076,,,,,,,,,326.2909911530005,327.48713449999923,328.28486483999586,328.2743577630026,328.2748203460069,328.28486483999586,328.28486483999586,328.28486483999586,333.2662746690039,338.2855258280033,left,1.0,9.994631404988468,,338.2885014210042,338.2979107090068,338.78331445300137,338.79539523900894,,,,,,,,,,,,,,,,,,,,,,,,,,,,,sub-224,1,random_dot,70.30044462991317,
right,right,11.0,1.0,5.0,right,1.0,5.292010545992525,,,,,,5.0,1.0,11.0,1.0,,,,,,,,,338.79539523900894,,,,,,,,,338.78419030000805,338.89042736700503,339.7014311390085,339.6908542940073,339.6913161340053,339.7014311390085,339.7014311390085,339.7014311390085,344.68275506100326,344.99708205000206,right,1.0,5.292010545992525,,344.99716839900066,345.0092189130082,345.49989151000045,,,,,,,,,,,,,,,,,,,,,,,,,,,,,,sub-224,1,random_dot,70.30044462991317,
right,right,12.0,0.0,6.0,left,0.0,5.4164223419938935,,,,,,6.0,0.0,12.0,1.0,,,,,,,,,345.5123393039976,,,,,,,,,345.5010605480056,346.6924568639952,347.5071471859992,347.48922808900534,347.48966773699794,347.5071471859992,347.5071471859992,347.5071471859992,352.49145468299685,352.9249088320066,left,0.0,5.4164223419938935,,352.927067719007,352.9364370240073,353.4240498840081,353.4325130979996,,,,,,,,,,,,,,,,,,,,,,,,,,,,,sub-224,1,random_dot,70.30044462991317,
left,left,13.0,1.0,6.0,right,0.0,5.394076722994214,,,,,,6.0,1.0,13.0,0.0,,,,,,,,,353.4325130979996,,,,,,,,,353.4244762320013,354.6387512729998,355.44033419300104,355.42511670300155,355.4255878219992,355.44033419300104,355.44033419300104,355.44033419300104,360.4235149180022,360.84748421399854,right,0.0,5.394076722994214,,360.8475660730037,360.8568408739957,361.3439603370061,361.3567414389981,,,,,,,,,,,,,,,,,,,,,,,,,,,,,sub-224,1,random_dot,70.30044462991317,
right,right,14.0,0.0,7.0,right,1.0,5.95338065699616,,,,,,7.0,0.0,14.0,1.0,,,,,,,,,361.3567414389981,,,,,,,,,361.3442024520045,362.55542327300645,363.3735070859984,363.35554508400674,363.3559799689974,363.3735070859984,363.3735070859984,363.3735070859984,368.35666378699534,369.3338028160069,right,1.0,5.95338065699616,,369.33622581500094,369.3460173909989,369.8402317650034,,,,,,,,,,,,,,,,,,,,,,,,,,,,,,sub-224,1,random_dot,70.30044462991317,
left,left,15.0,1.0,7.0,left,1.0,5.431176785001298,,,,,,7.0,1.0,15.0,0.0,,,,,,,,,369.8486494789977,,,,,,,,,369.8406415720092,370.6319159370032,371.44033506599953,371.4220729689987,371.4225422090094,371.44033506599953,371.44033506599953,371.44033506599953,376.4399015259987,376.8780674419977,left,1.0,5.431176785001298,,376.8782645489992,376.8887578010035,377.3754170750035,377.3854748419981,,,,,,,,,,,,,,,,,,,,,,,,,,,,,sub-224,1,random_dot,70.30044462991317,
right,right,16.0,0.0,8.0,left,0.0,5.5371169580030255,,,,,,8.0,0.0,16.0,1.0,,,,,,,,,377.3854748419981,,,,,,,,,377.3766567480052,378.5772386720055,379.3832625950017,379.37315901499824,379.3733853690064,379.3832625950017,379.3832625950017,379.3832625950017,384.3740232380078,384.9243010150094,left,0.0,5.5371169580030255,,384.92639896100445,384.9362669990078,385.42008861700015,385.43047490000026,,,,,,,,,,,,,,,,,,,,,,,,,,,,,sub-224,1,random_dot,70.30044462991317,
left,left,17.0,1.0,8.0,right,0.0,6.71700187100214,,,,,,8.0,1.0,17.0,0.0,,,,,,,,,385.43047490000026,,,,,,,,,385.42166840299615,385.7763697460032,386.58203075699566,386.57072112000606,386.5721049910062,386.58203075699566,386.58203075699566,386.58203075699566,391.5755709219957,393.3069217040029,right,0.0,6.71700187100214,,393.3070007579954,393.3169214439986,393.811581536007,,,,,,,,,,,,,,,,,,,,,,,,,,,,,,sub-224,1,random_dot,70.30044462991317,
right,right,18.0,0.0,9.0,left,0.0,6.751443729008315,,,,,,9.0,0.0,18.0,1.0,,,,,,,,,393.8230162600085,,,,,,,,,393.8120223529986,394.1484665169992,394.9497251069988,394.9373000199994,394.93873325800814,394.9497251069988,394.9497251069988,394.9497251069988,399.9415640410007,401.7064853040065,left,0.0,6.751443729008315,,401.7066005910019,401.715769714996,402.2066689500061,402.2150748029962,,,,,,,,,,,,,,,,,,,,,,,,,,,,,sub-224,1,random_dot,70.30044462991317,
left,left,19.0,1.0,9.0,left,1.0,5.909222175003379,,,,,,9.0,1.0,19.0,0.0,,,,,,,,,402.2150748029962,,,,,,,,,402.2070771760045,403.0063636690029,403.8169605650037,403.8065057240019,403.8069691660057,403.8169605650037,403.8169605650037,403.8169605650037,408.8090458160004,409.740258965001,left,1.0,5.909222175003379,,409.7421769049979,409.7513507600088,410.2399840750004,410.25092693000624,,,,,,,,,,,,,,,,,,,,,,,,,,,,,sub-224,1,random_dot,70.30044462991317,
,,,,,,,,,,,,,,,,,,,,,,,,,,,,,,,,,,,,,,,,,,,,,,,,,,,,410.2401015119976,410.25092693000624,410.25092693000624,520.8160841430072,space,110.5623027469992,,,,,,,,,,,,,,,,,,,,,,,sub-224,1,random_dot,70.30044462991317,
,,,,,,,,,,,,,,,,,,,,,,,,,,,,,,,,,,,,,,,,,,,,,,,,,,,,,,,,,,,520.816184854004,520.828727301996,520.828727301996,537.9651033779955,space,17.130072971005575,,,,,,,,,,,,,,,,sub-224,1,random_dot,70.30044462991317,
left,left,0.0,0.0,0.0,left,1.0,7.567908873999841,,accuracy,space,7.302901014991221,,,,,,0.0,0.0,0.0,0.0,0.0,0.0,0.0,0.0,545.3136866419954,,,,,,,,,545.3041957700043,546.0942469180009,546.9042970279988,546.886582570005,546.8870617590001,546.9042970279988,546.9042970279988,546.9042970279988,551.9027282180032,554.4826839590096,,,,,,,,,,,,,,,,,,,,,,,537.9799723040051,537.9901484180009,537.9901484180009,545.2992072299967,space,7.302901014991221,,left,1.0,7.567908873999841,,,,,sub-224,1,random_dot,70.30044462991317,
right,right,1.0,1.0,0.0,right,1.0,5.41518537500815,,accuracy,space,7.302901014991221,,,,,,0.0,0.0,0.0,0.0,0.0,1.0,1.0,1.0,554.493581503004,,,,,,,,,554.4830800500058,554.8333312040049,555.6300529260043,555.620939091008,555.6211728930066,555.6300529260043,555.6300529260043,555.6300529260043,560.620566017009,561.0524814620003,,,,,,,,,,,,,,,,,,,,,,,,,,,,,,right,1.0,5.41518537500815,,,,,sub-224,1,random_dot,70.30044462991317,
left,left,2.0,0.0,1.0,right,0.0,5.426459751004586,,accuracy,space,7.302901014991221,,,,,,0.0,0.0,0.0,0.0,1.0,0.0,2.0,0.0,561.0611239040009,,,,,,,,,561.0527930660028,561.4039768780058,562.2137730840041,562.2019002140005,562.2030547830072,562.2137730840041,562.2137730840041,562.2137730840041,567.2063606320007,567.6494934880029,,,,,,,,,,,,,,,,,,,,,,,,,,,,,,right,0.0,5.426459751004586,,,,,sub-224,1,random_dot,70.30044462991317,
right,right,3.0,1.0,1.0,right,1.0,6.087330551003106,,accuracy,space,7.302901014991221,,,,,,0.0,0.0,0.0,0.0,1.0,1.0,3.0,1.0,567.6600295960088,,,,,,,,,567.6499447189999,567.7448660490045,568.5456290770089,568.536087985005,568.536416079005,568.5456290770089,568.5456290770089,568.5456290770089,573.5395974610001,574.6392388359964,,,,,,,,,,,,,,,,,,,,,,,,,,,,,,right,1.0,6.087330551003106,,,,,sub-224,1,random_dot,70.30044462991317,
right,right,4.0,0.0,2.0,right,1.0,5.639537172988639,,accuracy,space,7.302901014991221,,,,,,0.0,0.0,0.0,0.0,2.0,0.0,4.0,1.0,574.6478139160026,,,,,,,,,574.6395055180037,574.7399993639992,575.5369771260011,575.5242299999954,575.5245073270053,575.5369771260011,575.5369771260011,575.5369771260011,580.5295082359953,581.1883586460026,,,,,,,,,,,,,,,,,,,,,,,,,,,,,,right,1.0,5.639537172988639,,,,,sub-224,1,random_dot,70.30044462991317,
left,left,5.0,1.0,2.0,right,0.0,5.84138717300084,,accuracy,space,7.302901014991221,,,,,,0.0,0.0,0.0,0.0,2.0,1.0,5.0,0.0,581.1966848459997,,,,,,,,,581.1886193569953,581.5335666790052,582.3320561209985,582.3208397650014,582.3213067680044,582.3320561209985,582.3320561209985,582.3320561209985,587.3232923610049,588.1828192969988,,,,,,,,,,,,,,,,,,,,,,,,,,,,,,right,0.0,5.84138717300084,,,,,sub-224,1,random_dot,70.30044462991317,
right,right,6.0,0.0,3.0,right,1.0,6.071345322998241,,accuracy,space,7.302901014991221,,,,,,0.0,0.0,0.0,0.0,3.0,0.0,6.0,1.0,588.1934977019991,,,,,,,,,588.1833780340094,588.2871332799987,589.0811567939963,589.0709069489967,589.0713420999964,589.0811567939963,589.0811567939963,589.0811567939963,594.0658962440066,595.1642108100059,,,,,,,,,,,,,,,,,,,,,,,,,,,,,,right,1.0,6.071345322998241,,,,,sub-224,1,random_dot,70.30044462991317,
left,left,7.0,1.0,3.0,left,1.0,6.047800507993088,,accuracy,space,7.302901014991221,,,,,,0.0,0.0,0.0,0.0,3.0,1.0,7.0,0.0,595.1752533780091,,,,,,,,,595.1644944709988,596.3672802299989,597.1645791510091,597.1540182659955,597.1544534010027,597.1645791510091,597.1645791510091,597.1645791510091,602.1453285199968,603.2209419550054,,,,,,,,,,,,,,,,,,,,,,,,,,,,,,left,1.0,6.047800507993088,,,,,sub-224,1,random_dot,70.30044462991317,
right,right,8.0,0.0,4.0,right,1.0,5.3526947909995215,,accuracy,space,7.302901014991221,,,,,,0.0,0.0,0.0,0.0,4.0,0.0,8.0,1.0,603.2305158270028,,,,,,,,,603.2212427280028,604.4127478599985,605.2096601660014,605.1965456040052,605.1977273770026,605.2096601660014,605.2096601660014,605.2096601660014,610.1927510690002,610.569333973006,,,,,,,,,,,,,,,,,,,,,,,,,,,,,,right,1.0,5.3526947909995215,,,,,sub-224,1,random_dot,70.30044462991317,
left,left,9.0,1.0,4.0,right,0.0,5.826409747998696,,accuracy,space,7.302901014991221,,,,,,0.0,0.0,0.0,0.0,4.0,1.0,9.0,0.0,610.5871518000058,,,,,,,,,610.5697252770042,611.7628324020043,612.5600314640033,612.5463565350074,612.5473692929954,612.5600314640033,612.5600314640033,612.5600314640033,617.545696650006,618.3882205450063,,,,,,,,,,,,,,,,,,,,,,,,,,,,,,right,0.0,5.826409747998696,,,,,sub-224,1,random_dot,70.30044462991317,
left,left,10.0,0.0,5.0,right,0.0,8.197331413000938,,accuracy,space,7.302901014991221,,,,,,0.0,0.0,0.0,0.0,5.0,0.0,10.0,0.0,618.3963329069957,,,,,,,,,618.3885553610016,619.1826287080039,619.9809548729972,619.970278837005,619.9707150269969,619.9809548729972,619.9809548729972,619.9809548729972,624.9718668290006,628.1903105840029,,,,,,,,,,,,,,,,,,,,,,,,,,,,,,right,0.0,8.197331413000938,,,,,sub-224,1,random_dot,70.30044462991317,
right,right,11.0,1.0,5.0,right,1.0,5.420953512002598,,accuracy,space,7.302901014991221,,,,,,0.0,0.0,0.0,0.0,5.0,1.0,11.0,1.0,628.1995545289974,,,,,,,,,628.1907606970053,628.2917491770058,629.0926705570018,629.0794860769965,629.0804457850027,629.0926705570018,629.0926705570018,629.0926705570018,634.0864815660025,634.5250594940007,,,,,,,,,,,,,,,,,,,,,,,,,,,,,,right,1.0,5.420953512002598,,,,,sub-224,1,random_dot,70.30044462991317,
left,left,12.0,0.0,6.0,left,1.0,6.866697746998398,,accuracy,space,7.302901014991221,,,,,,0.0,0.0,0.0,0.0,6.0,0.0,12.0,0.0,634.5366088129958,,,,,,,,,634.5255226029985,635.7235550100013,636.5347938920022,636.511748496996,636.5129407150089,636.5347938920022,636.5347938920022,636.5347938920022,641.5133062170062,643.4041562400089,,,,,,,,,,,,,,,,,,,,,,,,,,,,,,left,1.0,6.866697746998398,,,,,sub-224,1,random_dot,70.30044462991317,
right,right,13.0,1.0,6.0,right,1.0,6.837637625998468,,accuracy,space,7.302901014991221,,,,,,0.0,0.0,0.0,0.0,6.0,1.0,13.0,1.0,643.4121893420088,,,,,,,,,643.4045099210052,644.2071891420055,645.0090336430003,644.9959458109952,644.9970304320013,645.0090336430003,645.0090336430003,645.0090336430003,649.9924555890029,651.8538541190064,,,,,,,,,,,,,,,,,,,,,,,,,,,,,,right,1.0,6.837637625998468,,,,,sub-224,1,random_dot,70.30044462991317,
right,right,14.0,0.0,7.0,right,1.0,5.565552173997276,,accuracy,space,7.302901014991221,,,,,,0.0,0.0,0.0,0.0,7.0,0.0,14.0,1.0,651.8624178409955,,,,,,,,,651.8541151550016,653.0452413919993,653.8424170159997,653.8291699399997,653.8301375160081,653.8424170159997,653.8424170159997,653.8424170159997,658.8283841509983,659.4099382480053,,,,,,,,,,,,,,,,,,,,,,,,,,,,,,right,1.0,5.565552173997276,,,,,sub-224,1,random_dot,70.30044462991317,
left,left,15.0,1.0,7.0,right,0.0,6.421800832991721,,accuracy,space,7.302901014991221,,,,,,0.0,0.0,0.0,0.0,7.0,1.0,15.0,0.0,659.4184676279983,,,,,,,,,659.4103290240018,659.7595792619977,660.5590265840001,660.5456414049986,660.5466653640033,660.5590265840001,660.5590265840001,660.5590265840001,665.5527763400023,666.9859932020045,,,,,,,,,,,,,,,,,,,,,,,,,,,,,,right,0.0,6.421800832991721,,,,,sub-224,1,random_dot,70.30044462991317,
left,left,16.0,0.0,8.0,right,0.0,5.742397943002288,,accuracy,space,7.302901014991221,,,,,,0.0,0.0,0.0,0.0,8.0,0.0,16.0,0.0,666.9951360599953,,,,,,,,,666.9863719340065,667.3361366050085,668.1303454910085,668.1197867050068,668.1202215119993,668.1303454910085,668.1303454910085,668.1303454910085,673.1117776870087,673.8784972849971,,,,,,,,,,,,,,,,,,,,,,,,,,,,,,right,0.0,5.742397943002288,,,,,sub-224,1,random_dot,70.30044462991317,
right,right,17.0,1.0,8.0,right,1.0,5.7549417999980506,,accuracy,space,7.302901014991221,,,,,,0.0,0.0,0.0,0.0,8.0,1.0,17.0,1.0,673.8874670100049,,,,,,,,,673.8787702840054,673.9756646919996,674.7801460460032,674.7696871619992,674.7701437659998,674.7801460460032,674.7801460460032,674.7801460460032,679.761183042996,680.546122572996,,,,,,,,,,,,,,,,,,,,,,,,,,,,,,right,1.0,5.7549417999980506,,,,,sub-224,1,random_dot,70.30044462991317,
right,right,18.0,0.0,9.0,right,1.0,5.652684998000041,,accuracy,space,7.302901014991221,,,,,,0.0,0.0,0.0,0.0,9.0,0.0,18.0,1.0,680.5562849580019,,,,,,,,,680.5464093000046,680.6448545550084,681.4449773410015,681.4359496539983,681.4361880930082,681.4449773410015,681.4449773410015,681.4449773410015,686.4374875630019,687.1024647559971,,,,,,,,,,,,,,,,,,,,,,,,,,,,,,right,1.0,5.652684998000041,,,,,sub-224,1,random_dot,70.30044462991317,
left,left,19.0,1.0,9.0,left,1.0,5.768910587008577,,accuracy,space,7.302901014991221,,,,,,0.0,0.0,0.0,0.0,9.0,1.0,19.0,0.0,687.1187673370005,,,,,,,,,687.1027654000063,687.9024548830057,688.7036504940043,688.6922942880046,688.6928232450009,688.7036504940043,688.7036504940043,688.7036504940043,693.6883786380058,694.4759953320026,,,,,,,,,,,,,,,,,,,,,,,,,,,,,,left,1.0,5.768910587008577,,,,,sub-224,1,random_dot,70.30044462991317,
left,left,20.0,0.0,10.0,left,1.0,5.568602223997004,,accuracy,space,7.302901014991221,,,,,,0.0,0.0,0.0,0.0,10.0,0.0,20.0,0.0,694.4876585279999,,,,,,,,,694.4763385660044,694.8342165670038,695.6328597190004,695.6214255149971,695.6227539399988,695.6328597190004,695.6328597190004,695.6328597190004,700.6190755370044,701.2032271630014,,,,,,,,,,,,,,,,,,,,,,,,,,,,,,left,1.0,5.568602223997004,,,,,sub-224,1,random_dot,70.30044462991317,
right,right,21.0,1.0,10.0,right,1.0,5.5464050869923085,,accuracy,space,7.302901014991221,,,,,,0.0,0.0,0.0,0.0,10.0,1.0,21.0,1.0,701.2114001400041,,,,,,,,,701.2035372340033,701.3190687919996,702.1356217080029,702.1178047209978,702.1182724569953,702.1356217080029,702.1356217080029,702.1356217080029,707.1190415940073,707.6925742710009,,,,,,,,,,,,,,,,,,,,,,,,,,,,,,right,1.0,5.5464050869923085,,,,,sub-224,1,random_dot,70.30044462991317,
left,left,22.0,0.0,11.0,left,1.0,6.429962825000985,,accuracy,space,7.302901014991221,,,,,,0.0,0.0,0.0,0.0,11.0,0.0,22.0,0.0,707.7041264870059,,,,,,,,,707.6928797040018,708.0421689820068,708.8522607920022,708.8342128219956,708.8346820309962,708.8522607920022,708.8522607920022,708.8522607920022,713.8354171640094,715.287972459002,,,,,,,,,,,,,,,,,,,,,,,,,,,,,,left,1.0,6.429962825000985,,,,,sub-224,1,random_dot,70.30044462991317,
right,right,23.0,1.0,11.0,right,1.0,5.5342251880065305,,accuracy,space,7.302901014991221,,,,,,0.0,0.0,0.0,0.0,11.0,1.0,23.0,1.0,715.3021031550015,,,,,,,,,715.2884188780008,715.3952935209963,716.2018018109957,716.1842431230034,716.1846837159974,716.2018018109957,716.2018018109957,716.2018018109957,721.2005692870007,721.7479717140086,,,,,,,,,,,,,,,,,,,,,,,,,,,,,,right,1.0,5.5342251880065305,,,,,sub-224,1,random_dot,70.30044462991317,
left,left,24.0,0.0,12.0,right,0.0,6.22416484200221,,accuracy,space,7.302901014991221,,,,,,0.0,0.0,0.0,0.0,12.0,0.0,24.0,0.0,721.759397656002,,,,,,,,,721.7485661850078,721.8450417669956,722.6545024219959,722.6407613140036,722.641421339009,722.6545024219959,722.6545024219959,722.6545024219959,727.644193871005,728.889523994003,,,,,,,,,,,,,,,,,,,,,,,,,,,,,,right,0.0,6.22416484200221,,,,,sub-224,1,random_dot,70.30044462991317,
right,right,25.0,1.0,12.0,right,1.0,7.544517084999825,,accuracy,space,7.302901014991221,,,,,,0.0,0.0,0.0,0.0,12.0,1.0,25.0,1.0,728.8989743660059,,,,,,,,,728.8900980519975,729.2414678710047,730.0413901370048,730.0280776430009,730.0291833869996,730.0413901370048,730.0413901370048,730.0413901370048,735.0256515590008,737.5899806530069,,,,,,,,,,,,,,,,,,,,,,,,,,,,,,right,1.0,7.544517084999825,,,,,sub-224,1,random_dot,70.30044462991317,
right,right,26.0,0.0,13.0,right,1.0,5.427210330992239,,accuracy,space,7.302901014991221,,,,,,0.0,0.0,0.0,0.0,13.0,0.0,26.0,1.0,737.598818849001,,,,,,,,,737.5903866000008,737.9416516890051,738.741386766007,738.7280423030024,738.7290142279962,738.741386766007,738.741386766007,738.741386766007,743.7308878170006,744.1732807700027,,,,,,,,,,,,,,,,,,,,,,,,,,,,,,right,1.0,5.427210330992239,,,,,sub-224,1,random_dot,70.30044462991317,
left,left,27.0,1.0,13.0,right,0.0,3.854426236997824,,accuracy,space,7.302901014991221,,,,,,0.0,0.0,0.0,0.0,13.0,1.0,27.0,0.0,744.1820974620059,,,,,,,,,744.1738316350093,744.272229663009,745.0849772189977,745.0670747510012,745.0675448900001,745.0849772189977,745.0849772189977,745.0849772189977,,748.9472864349955,,,,,,,,,,,,,,,,,,,,,,,,,,,,,,right,0.0,3.854426236997824,,,,,sub-224,1,random_dot,70.30044462991317,
right,right,28.0,0.0,14.0,left,0.0,5.937019069999224,,accuracy,space,7.302901014991221,,,,,,0.0,0.0,0.0,0.0,14.0,0.0,28.0,1.0,748.9581376830029,,,,,,,,,748.947758276001,749.2939627610031,750.0910673570033,750.0777647040086,750.0787061690062,750.0910673570033,750.0910673570033,750.0910673570033,755.0851284300006,756.040335526006,,,,,,,,,,,,,,,,,,,,,,,,,,,,,,left,0.0,5.937019069999224,,,,,sub-224,1,random_dot,70.30044462991317,
left,left,29.0,1.0,14.0,left,1.0,5.465247197993449,,accuracy,space,7.302901014991221,,,,,,0.0,0.0,0.0,0.0,14.0,1.0,29.0,0.0,756.0524253850017,,,,,,,,,756.0407468269987,756.1515565059963,756.9457733500021,756.9351206940046,756.9355855690083,756.9457733500021,756.9457733500021,756.9457733500021,761.9374726800015,762.424818280997,,,,,,,,,,,,,,,,,,,,,,,,,,,,,,left,1.0,5.465247197993449,,,,,sub-224,1,random_dot,70.30044462991317,
right,right,30.0,0.0,15.0,right,1.0,5.669114884003648,,accuracy,space,7.302901014991221,,,,,,0.0,0.0,0.0,0.0,15.0,0.0,30.0,1.0,762.4370974530029,,,,,,,,,762.4251982010028,762.5245963479974,763.329081910997,763.3186227520055,763.319083209004,763.329081910997,763.329081910997,763.329081910997,768.3197672259994,769.0178741810087,,,,,,,,,,,,,,,,,,,,,,,,,,,,,,right,1.0,5.669114884003648,,,,,sub-224,1,random_dot,70.30044462991317,
left,left,31.0,1.0,15.0,left,1.0,5.524197345002904,,accuracy,space,7.302901014991221,,,,,,0.0,0.0,0.0,0.0,15.0,1.0,31.0,0.0,769.034651384005,,,,,,,,,769.018382203998,770.2107865639991,771.0179832940048,771.0001551250025,771.000626057008,771.0179832940048,771.0179832940048,771.0179832940048,776.0012907400087,776.5462890310009,,,,,,,,,,,,,,,,,,,,,,,,,,,,,,left,1.0,5.524197345002904,,,,,sub-224,1,random_dot,70.30044462991317,
right,right,32.0,0.0,16.0,left,0.0,5.520424037997145,,accuracy,space,7.302901014991221,,,,,,0.0,0.0,0.0,0.0,16.0,0.0,32.0,1.0,776.5569402100082,,,,,,,,,776.5467449690041,776.9012308240053,777.7103822159988,777.7012095319951,777.7014874800079,777.7103822159988,777.7103822159988,777.7103822159988,782.6934257910034,783.2965374729974,,,,,,,,,,,,,,,,,,,,,,,,,,,,,,left,0.0,5.520424037997145,,,,,sub-224,1,random_dot,70.30044462991317,
left,left,33.0,1.0,16.0,left,1.0,5.562297992000822,,accuracy,space,7.302901014991221,,,,,,0.0,0.0,0.0,0.0,16.0,1.0,33.0,0.0,783.3061771390057,,,,,,,,,783.297111161999,784.5010019470064,785.3011864480068,785.2879826249991,785.2883247260033,785.3011864480068,785.3011864480068,785.3011864480068,790.2928276680032,790.8693047819979,,,,,,,,,,,,,,,,,,,,,,,,,,,,,,left,1.0,5.562297992000822,,,,,sub-224,1,random_dot,70.30044462991317,
left,left,34.0,0.0,17.0,left,1.0,5.528011589995003,,accuracy,space,7.302901014991221,,,,,,0.0,0.0,0.0,0.0,17.0,0.0,34.0,0.0,790.8780107909988,,,,,,,,,790.8696246140025,790.9645312159992,791.7619024980086,791.7514285710058,791.7518922449963,791.7619024980086,791.7619024980086,791.7619024980086,796.7511248539959,797.2916588119988,,,,,,,,,,,,,,,,,,,,,,,,,,,,,,left,1.0,5.528011589995003,,,,,sub-224,1,random_dot,70.30044462991317,
right,right,35.0,1.0,17.0,right,1.0,5.877966682004626,,accuracy,space,7.302901014991221,,,,,,0.0,0.0,0.0,0.0,17.0,1.0,35.0,1.0,797.3015767750039,,,,,,,,,797.292039234002,797.6439767120028,798.4675658540073,798.449799199996,798.4502712289977,798.4675658540073,798.4675658540073,798.4675658540073,803.4540335769998,804.3580958850071,,,,,,,,,,,,,,,,,,,,,,,,,,,,,,right,1.0,5.877966682004626,,,,,sub-224,1,random_dot,70.30044462991317,
right,right,36.0,0.0,18.0,right,1.0,5.839506331001758,,accuracy,space,7.302901014991221,,,,,,0.0,0.0,0.0,0.0,18.0,0.0,36.0,1.0,804.3697709319968,,,,,,,,,804.3584762300015,805.160441975997,805.9674893699994,805.9497356899956,805.9502062819956,805.9674893699994,805.9674893699994,805.9674893699994,810.9534053350071,811.8163241590082,,,,,,,,,,,,,,,,,,,,,,,,,,,,,,right,1.0,5.839506331001758,,,,,sub-224,1,random_dot,70.30044462991317,
left,left,37.0,1.0,18.0,left,1.0,5.906914260995109,,accuracy,space,7.302901014991221,,,,,,0.0,0.0,0.0,0.0,18.0,1.0,37.0,0.0,811.8254153440066,,,,,,,,,811.8167641620093,813.0143459690007,813.8116600380017,813.8011496490071,813.801612056006,813.8116600380017,813.8116600380017,813.8116600380017,818.7966805940086,819.7283564480022,,,,,,,,,,,,,,,,,,,,,,,,,,,,,,left,1.0,5.906914260995109,,,,,sub-224,1,random_dot,70.30044462991317,
left,left,38.0,0.0,19.0,left,1.0,5.974803880992113,,accuracy,space,7.302901014991221,,,,,,0.0,0.0,0.0,0.0,19.0,0.0,38.0,0.0,819.7384827400092,,,,,,,,,819.7288308319985,820.0836637839966,820.886406250007,820.8746704460063,820.8757030220004,820.886406250007,820.886406250007,820.886406250007,825.8824265040021,826.8684640090069,,,,,,,,,,,,,,,,,,,,,,,,,,,,,,left,1.0,5.974803880992113,,,,,sub-224,1,random_dot,70.30044462991317,
right,right,39.0,1.0,19.0,right,1.0,5.464364808998653,,accuracy,space,7.302901014991221,,,,,,0.0,0.0,0.0,0.0,19.0,1.0,39.0,1.0,826.8769597890059,,,,,,,,,826.8687216069957,826.9672343060083,827.7614054720034,827.7509029720095,827.7513357910066,827.7614054720034,827.7614054720034,827.7614054720034,832.7504951199953,833.2290346719965,,,,,,,,,,,,,,,,,,,,,,,,,,,,,,right,1.0,5.464364808998653,,,,,sub-224,1,random_dot,70.30044462991317,
right,right,40.0,0.0,20.0,right,1.0,5.572029728995403,,accuracy,space,7.302901014991221,,,,,,0.0,0.0,0.0,0.0,20.0,0.0,40.0,1.0,833.2399323400023,,,,,,,,,833.2294045190065,834.4337500249967,835.2439691030013,835.234109994999,835.2344353399967,835.2439691030013,835.2439691030013,835.2439691030013,840.2368309459998,840.8181732439989,,,,,,,,,,,,,,,,,,,,,,,,,,,,,,right,1.0,5.572029728995403,,,,,sub-224,1,random_dot,70.30044462991317,
left,left,41.0,1.0,20.0,right,0.0,5.910099428001558,,accuracy,space,7.302901014991221,,,,,,0.0,0.0,0.0,0.0,20.0,1.0,41.0,0.0,840.8263559940096,,,,,,,,,840.818506673997,842.017164475008,842.8139158859994,842.8026051680063,842.8037658520043,842.8139158859994,842.8139158859994,842.8139158859994,847.8060370650055,848.7271615890058,,,,,,,,,,,,,,,,,,,,,,,,,,,,,,right,0.0,5.910099428001558,,,,,sub-224,1,random_dot,70.30044462991317,
right,right,42.0,0.0,21.0,right,1.0,8.923542415999691,,accuracy,space,7.302901014991221,,,,,,0.0,0.0,0.0,0.0,21.0,0.0,42.0,1.0,848.7486389230035,,,,,,,,,848.7275509280007,849.9265253409976,850.7336440820072,850.7184324520058,850.7189008849964,850.7336440820072,850.7336440820072,850.7336440820072,855.7320462869975,859.6629952000076,,,,,,,,,,,,,,,,,,,,,,,,,,,,,,right,1.0,8.923542415999691,,,,,sub-224,1,random_dot,70.30044462991317,
left,left,43.0,1.0,21.0,right,0.0,8.203051267002593,,accuracy,space,7.302901014991221,,,,,,0.0,0.0,0.0,0.0,21.0,1.0,43.0,0.0,859.6736864039995,,,,,,,,,859.6641982150031,860.4667923700035,861.269152369001,861.2556832300033,861.2561521339958,861.269152369001,861.269152369001,861.269152369001,866.2565213979979,869.4784457280039,,,,,,,,,,,,,,,,,,,,,,,,,,,,,,right,0.0,8.203051267002593,,,,,sub-224,1,random_dot,70.30044462991317,
left,left,44.0,0.0,22.0,right,0.0,5.748430758991162,,accuracy,space,7.302901014991221,,,,,,0.0,0.0,0.0,0.0,22.0,0.0,44.0,0.0,869.4882097700029,,,,,,,,,869.4787366969977,870.2730391770019,871.072271527999,871.0598558100028,871.0610123859951,871.072271527999,871.072271527999,871.072271527999,876.0570657640055,876.8344308530068,,,,,,,,,,,,,,,,,,,,,,,,,,,,,,right,0.0,5.748430758991162,,,,,sub-224,1,random_dot,70.30044462991317,
right,right,45.0,1.0,22.0,right,1.0,7.197061159007717,,accuracy,space,7.302901014991221,,,,,,0.0,0.0,0.0,0.0,22.0,1.0,45.0,1.0,876.8442074170016,,,,,,,,,876.8348523610039,877.6361507609981,878.442903290008,878.4334389290016,878.4337516250089,878.442903290008,878.442903290008,878.442903290008,883.4256596040068,885.6501127899974,,,,,,,,,,,,,,,,,,,,,,,,,,,,,,right,1.0,7.197061159007717,,,,,sub-224,1,random_dot,70.30044462991317,
right,right,46.0,0.0,23.0,left,0.0,5.99445564999769,,accuracy,space,7.302901014991221,,,,,,0.0,0.0,0.0,0.0,23.0,0.0,46.0,1.0,885.6595927470044,,,,,,,,,885.6503761150088,885.7514073339989,886.5603801030084,886.5500846149953,886.5505200970074,886.5603801030084,886.5603801030084,886.5603801030084,891.5481120170007,892.5616235750058,,,,,,,,,,,,,,,,,,,,,,,,,,,,,,left,0.0,5.99445564999769,,,,,sub-224,1,random_dot,70.30044462991317,
left,left,47.0,1.0,23.0,left,1.0,5.630389687998104,,accuracy,space,7.302901014991221,,,,,,0.0,0.0,0.0,0.0,23.0,1.0,47.0,0.0,892.5725335900061,,,,,,,,,892.5619106679951,893.7564980300085,894.5560066320031,894.5423084540089,894.543368366998,894.5560066320031,894.5560066320031,894.5560066320031,899.5395796200028,900.2004636479978,,,,,,,,,,,,,,,,,,,,,,,,,,,,,,left,1.0,5.630389687998104,,,,,sub-224,1,random_dot,70.30044462991317,
left,left,48.0,0.0,24.0,left,1.0,5.760275481996359,,accuracy,space,7.302901014991221,,,,,,0.0,0.0,0.0,0.0,24.0,0.0,48.0,0.0,900.2090284699952,,,,,,,,,900.2007192410092,900.5519297669962,901.3551305400032,901.3407759780092,901.3418791050062,901.3551305400032,901.3551305400032,901.3551305400032,906.3410402480076,907.1202070910076,,,,,,,,,,,,,,,,,,,,,,,,,,,,,,left,1.0,5.760275481996359,,,,,sub-224,1,random_dot,70.30044462991317,
right,right,49.0,1.0,24.0,right,1.0,6.205736799995066,,accuracy,space,7.302901014991221,,,,,,0.0,0.0,0.0,0.0,24.0,1.0,49.0,1.0,907.1300724169996,,,,,,,,,907.1207396819956,907.4702836170036,908.2814212609956,908.2584166930028,908.259372932007,908.2814212609956,908.2814212609956,908.2814212609956,913.2617993970052,914.489988440997,,,,,,,,,,,,,,,,,,,,,,,,,,,,,,right,1.0,6.205736799995066,,,,,sub-224,1,random_dot,70.30044462991317,
right,right,50.0,0.0,25.0,right,1.0,5.692442943996866,,accuracy,space,7.302901014991221,,,,,,0.0,0.0,0.0,0.0,25.0,0.0,50.0,1.0,914.5011329609988,,,,,,,,,914.4903493110032,914.8505643670068,915.6603286129975,915.6498082949984,915.6502667809982,915.6603286129975,915.6603286129975,915.6603286129975,920.6416610900052,921.3665300249996,,,,,,,,,,,,,,,,,,,,,,,,,,,,,,right,1.0,5.692442943996866,,,,,sub-224,1,random_dot,70.30044462991317,
left,left,51.0,1.0,25.0,left,1.0,5.719474729005015,,accuracy,space,7.302901014991221,,,,,,0.0,0.0,0.0,0.0,25.0,1.0,51.0,0.0,921.376254051007,,,,,,,,,921.3670763270056,922.165857444008,922.9659027269954,922.9530095110094,922.9533482910048,922.9659027269954,922.9659027269954,922.9659027269954,927.9512639290042,928.694582616008,,,,,,,,,,,,,,,,,,,,,,,,,,,,,,left,1.0,5.719474729005015,,,,,sub-224,1,random_dot,70.30044462991317,
right,right,52.0,0.0,26.0,right,1.0,5.797540970001137,,accuracy,space,7.302901014991221,,,,,,0.0,0.0,0.0,0.0,26.0,0.0,52.0,1.0,928.7046174270072,,,,,,,,,928.6950665019976,928.7918288130022,929.588687718002,929.5753059700072,929.5763701560064,929.588687718002,929.588687718002,929.588687718002,934.5726490359956,935.4008732630028,,,,,,,,,,,,,,,,,,,,,,,,,,,,,,right,1.0,5.797540970001137,,,,,sub-224,1,random_dot,70.30044462991317,
left,left,53.0,1.0,26.0,right,0.0,6.57277573698957,,accuracy,space,7.302901014991221,,,,,,0.0,0.0,0.0,0.0,26.0,1.0,53.0,0.0,935.4096418520056,,,,,,,,,935.4012132240024,936.2142223830016,937.0098343999998,936.9993985949986,936.999859591,937.0098343999998,937.0098343999998,937.0098343999998,941.9912936809995,943.5988332330016,,,,,,,,,,,,,,,,,,,,,,,,,,,,,,right,0.0,6.57277573698957,,,,,sub-224,1,random_dot,70.30044462991317,
left,left,54.0,0.0,27.0,left,1.0,5.806498656005715,,accuracy,space,7.302901014991221,,,,,,0.0,0.0,0.0,0.0,27.0,0.0,54.0,0.0,943.615737193002,,,,,,,,,943.5993418580038,944.7906851029984,945.5906666359951,945.578484685,945.5794466930092,945.5906666359951,945.5906666359951,945.5906666359951,950.5778199689958,951.400045577,,,,,,,,,,,,,,,,,,,,,,,,,,,,,,left,1.0,5.806498656005715,,,,,sub-224,1,random_dot,70.30044462991317,
right,right,55.0,1.0,27.0,left,0.0,5.544948755996302,,accuracy,space,7.302901014991221,,,,,,0.0,0.0,0.0,0.0,27.0,1.0,55.0,1.0,951.4084046430072,,,,,,,,,951.400347376999,952.2028425580064,953.0097419920056,952.9992487980052,952.9997100890032,953.0097419920056,953.0097419920056,953.0097419920056,957.9988870939997,958.566056687996,,,,,,,,,,,,,,,,,,,,,,,,,,,,,,left,0.0,5.544948755996302,,,,,sub-224,1,random_dot,70.30044462991317,
left,left,56.0,0.0,28.0,right,0.0,6.35382947299513,,accuracy,space,7.302901014991221,,,,,,0.0,0.0,0.0,0.0,28.0,0.0,56.0,0.0,958.574696858006,,,,,,,,,958.566314213007,959.358075887998,960.1552521440026,960.1446565590012,960.145001266006,960.1552521440026,960.1552521440026,960.1552521440026,965.150523357006,966.5149380490038,,,,,,,,,,,,,,,,,,,,,,,,,,,,,,right,0.0,6.35382947299513,,,,,sub-224,1,random_dot,70.30044462991317,
right,right,57.0,1.0,28.0,right,1.0,5.659766388009302,,accuracy,space,7.302901014991221,,,,,,0.0,0.0,0.0,0.0,28.0,1.0,57.0,1.0,966.5234906480036,,,,,,,,,966.5153506869974,967.7072402260092,968.5048385410046,968.4916668890072,968.4927414859994,968.5048385410046,968.5048385410046,968.5048385410046,973.4911083070036,974.1724292739964,,,,,,,,,,,,,,,,,,,,,,,,,,,,,,right,1.0,5.659766388009302,,,,,sub-224,1,random_dot,70.30044462991317,
left,left,58.0,0.0,29.0,left,1.0,5.43573804400512,,accuracy,space,7.302901014991221,,,,,,0.0,0.0,0.0,0.0,29.0,0.0,58.0,0.0,974.1811955650046,,,,,,,,,974.1726921140072,974.5195714790024,975.3209751859976,975.3081136219988,975.3092219649988,975.3209751859976,975.3209751859976,975.3209751859976,980.3060132100072,980.7658438619984,,,,,,,,,,,,,,,,,,,,,,,,,,,,,,left,1.0,5.43573804400512,,,,,sub-224,1,random_dot,70.30044462991317,
right,right,59.0,1.0,29.0,right,1.0,5.391276349007967,,accuracy,space,7.302901014991221,,,,,,0.0,0.0,0.0,0.0,29.0,1.0,59.0,1.0,980.774758162006,,,,,,,,,980.7662275799958,980.8649480349997,981.6759770430072,981.6654755199996,981.665948283,981.6759770430072,981.6759770430072,981.6759770430072,986.6574302020016,987.0723170310084,,,,,,,,,,,,,,,,,,,,,,,,,,,,,,right,1.0,5.391276349007967,,,,,sub-224,1,random_dot,70.30044462991317,
,,0.0,0.0,0.0,,,,,accuracy,space,7.302901014991221,,,,,,0.0,0.0,0.0,0.0,,,,,,,,,,,,,,,,,,,,,,,,,,,,,,,,,,,,,,,,,,,,,,,,,,,,,,,,,,,,sub-224,1,random_dot,70.30044462991317,
left,left,0.0,0.0,0.0,left,1.0,1.168002455990063,,speed,space,4.02566982099961,,,,,,0.0,1.0,1.0,1.0,0.0,0.0,0.0,0.0,991.1388364879969,,,,,,,,,991.1296213659951,991.2196839560056,992.0208866900066,992.007917898998,992.008946187998,992.0208866900066,992.0208866900066,992.0208866900066,,993.199019335996,,,,,,,,,,,,,,,,,,,,,,,987.083800074004,987.0930658360012,987.0930658360012,991.1242265070032,space,4.02566982099961,,left,1.0,1.168002455990063,,,,,sub-224,1,random_dot,70.30044462991317,
right,right,1.0,1.0,0.0,right,1.0,1.1584282129915664,,speed,space,4.02566982099961,,,,,,0.0,1.0,1.0,1.0,0.0,1.0,1.0,1.0,993.2079370150022,,,,,,,,,993.1994092620008,993.550643597002,994.3503631060012,994.3383590360028,994.3385997480073,994.3503631060012,994.3503631060012,994.3503631060012,,995.522373493004,,,,,,,,,,,,,,,,,,,,,,,,,,,,,,right,1.0,1.1584282129915664,,,,,sub-224,1,random_dot,70.30044462991317,
left,left,2.0,0.0,1.0,left,1.0,0.9843930560018634,,speed,space,4.02566982099961,,,,,,0.0,1.0,1.0,1.0,1.0,0.0,2.0,0.0,995.5328966500092,,,,,,,,,995.5228717179998,996.320103955004,997.1214569129952,997.1073863339988,997.1084681759968,997.1214569129952,997.1214569129952,997.1214569129952,,998.110308372008,,,,,,,,,,,,,,,,,,,,,,,,,,,,,,left,1.0,0.9843930560018634,,,,,sub-224,1,random_dot,70.30044462991317,
right,right,3.0,1.0,1.0,right,1.0,1.4411076919932384,,speed,space,4.02566982099961,,,,,,0.0,1.0,1.0,1.0,1.0,1.0,3.0,1.0,998.1204848519992,,,,,,,,,998.1108005569986,999.3040636700024,1000.100588330999,1000.0869581830048,1000.087426528,1000.100588330999,1000.100588330999,1000.100588330999,,1001.5530487420036,,,,,,,,,,,,,,,,,,,,,,,,,,,,,,right,1.0,1.4411076919932384,,,,,sub-224,1,random_dot,70.30044462991317,
left,left,4.0,0.0,2.0,left,1.0,3.99536447499122,,speed,space,4.02566982099961,,,,,,0.0,1.0,1.0,1.0,2.0,0.0,4.0,0.0,1001.5623650979978,,,,,,,,,1001.5535006760038,1002.3539296060044,1003.1530266729968,1003.1410152409952,1003.1420767700038,1003.1530266729968,1003.1530266729968,1003.1530266729968,,1007.1531255139998,,,,,,,,,,,,,,,,,,,,,,,,,,,,,,left,1.0,3.99536447499122,,,,,sub-224,1,random_dot,70.30044462991317,
right,right,5.0,1.0,2.0,right,1.0,8.688599953005905,,speed,space,4.02566982099961,,,,,,0.0,1.0,1.0,1.0,2.0,1.0,5.0,1.0,1007.1642074340052,,,,,,,,,1007.1537325390092,1007.9499483880064,1008.7442304750002,1008.7330676310085,1008.7342553449998,1008.7442304750002,1008.7442304750002,1008.7442304750002,1013.7332569620048,1017.4386311270064,,,,,,,,,,,,,,,,,,,,,,,,,,,,,,right,1.0,8.688599953005905,,,,,sub-224,1,random_dot,70.30044462991317,
right,right,6.0,0.0,3.0,right,1.0,2.0990627849969314,,speed,space,4.02566982099961,,,,,,0.0,1.0,1.0,1.0,3.0,0.0,6.0,1.0,1017.4501620950032,,,,,,,,,1017.4389017820068,1017.788110872003,1018.5877355429984,1018.5742820440064,1018.5753100489964,1018.5877355429984,1018.5877355429984,1018.5877355429984,,1020.6947206089972,,,,,,,,,,,,,,,,,,,,,,,,,,,,,,right,1.0,2.0990627849969314,,,,,sub-224,1,random_dot,70.30044462991317,
left,left,7.0,1.0,3.0,left,1.0,1.5351284079952163,,speed,space,4.02566982099961,,,,,,0.0,1.0,1.0,1.0,3.0,1.0,7.0,0.0,1020.7050021970064,,,,,,,,,1020.695265910006,1020.7901887180052,1021.5873690150038,1021.573749757008,1021.5747237449978,1021.5873690150038,1021.5873690150038,1021.5873690150038,,1023.135629522003,,,,,,,,,,,,,,,,,,,,,,,,,,,,,,left,1.0,1.5351284079952163,,,,,sub-224,1,random_dot,70.30044462991317,
left,left,8.0,0.0,4.0,right,0.0,5.531588664991432,,speed,space,4.02566982099961,,,,,,0.0,1.0,1.0,1.0,4.0,0.0,8.0,0.0,1023.147925451005,,,,,,,,,1023.135889186,1023.9398347679962,1024.7370691710094,1024.7235107820015,1024.7244860579958,1024.7370691710094,1024.7370691710094,1024.7370691710094,1029.7208621230093,1030.2818679330085,,,,,,,,,,,,,,,,,,,,,,,,,,,,,,right,0.0,5.531588664991432,,,,,sub-224,1,random_dot,70.30044462991317,
right,right,9.0,1.0,4.0,left,0.0,1.7292575210012728,,speed,space,4.02566982099961,,,,,,0.0,1.0,1.0,1.0,4.0,1.0,9.0,1.0,1030.2917551169958,,,,,,,,,1030.2824028100003,1031.481114224007,1032.2978567940008,1032.2798662889982,1032.280333775998,1032.2978567940008,1032.2978567940008,1032.2978567940008,,1034.0297360609984,,,,,,,,,,,,,,,,,,,,,,,,,,,,,,left,0.0,1.7292575210012728,,,,,sub-224,1,random_dot,70.30044462991317,
left,left,10.0,0.0,5.0,left,1.0,1.5507129589968829,,speed,space,4.02566982099961,,,,,,0.0,1.0,1.0,1.0,5.0,0.0,10.0,0.0,1034.0386268300065,,,,,,,,,1034.030700785006,1034.1234563010075,1034.923270526997,1034.9141251870024,1034.9143576560018,1034.923270526997,1034.923270526997,1034.923270526997,,1036.4814951379958,,,,,,,,,,,,,,,,,,,,,,,,,,,,,,left,1.0,1.5507129589968829,,,,,sub-224,1,random_dot,70.30044462991317,
right,right,11.0,1.0,5.0,right,1.0,1.0911823579954216,,speed,space,4.02566982099961,,,,,,0.0,1.0,1.0,1.0,5.0,1.0,11.0,1.0,1036.4916764680092,,,,,,,,,1036.4820258810068,1036.5812601850048,1037.375146457009,1037.3646676759963,1037.3651287630055,1037.375146457009,1037.375146457009,1037.375146457009,,1038.4809426870052,,,,,,,,,,,,,,,,,,,,,,,,,,,,,,right,1.0,1.0911823579954216,,,,,sub-224,1,random_dot,70.30044462991317,
right,right,12.0,0.0,6.0,right,1.0,1.2043785669957288,,speed,space,4.02566982099961,,,,,,0.0,1.0,1.0,1.0,6.0,0.0,12.0,1.0,1038.4906919869973,,,,,,,,,1038.4821398589993,1038.5811200919998,1039.391965931005,1039.3813018670044,1039.3817669359996,1039.391965931005,1039.391965931005,1039.391965931005,,1040.6053491750065,,,,,,,,,,,,,,,,,,,,,,,,,,,,,,right,1.0,1.2043785669957288,,,,,sub-224,1,random_dot,70.30044462991317,
left,left,13.0,1.0,6.0,left,1.0,3.9712678549985863,,speed,space,4.02566982099961,,,,,,0.0,1.0,1.0,1.0,6.0,1.0,13.0,0.0,1040.6167535779969,,,,,,,,,1040.6056109369963,1041.8063659799957,1042.603765029009,1042.591183780998,1042.5923271150095,1042.603765029009,1042.603765029009,1042.603765029009,,1046.5821395490057,,,,,,,,,,,,,,,,,,,,,,,,,,,,,,left,1.0,3.9712678549985863,,,,,sub-224,1,random_dot,70.30044462991317,
left,left,14.0,0.0,7.0,left,1.0,3.567123379005352,,speed,space,4.02566982099961,,,,,,0.0,1.0,1.0,1.0,7.0,0.0,14.0,0.0,1046.5911592799966,,,,,,,,,1046.5824946270004,1047.3958512460083,1048.197564835005,1048.179781298997,1048.1802501659986,1048.197564835005,1048.197564835005,1048.197564835005,,1051.7690412450029,,,,,,,,,,,,,,,,,,,,,,,,,,,,,,left,1.0,3.567123379005352,,,,,sub-224,1,random_dot,70.30044462991317,
right,right,15.0,1.0,7.0,left,0.0,1.873928959001205,,speed,space,4.02566982099961,,,,,,0.0,1.0,1.0,1.0,7.0,1.0,15.0,1.0,1051.7805216870038,,,,,,,,,1051.7693394420055,1052.9722021979978,1053.7695762189978,1053.7557138310076,1053.756765622005,1053.7695762189978,1053.7695762189978,1053.7695762189978,,1055.656789974004,,,,,,,,,,,,,,,,,,,,,,,,,,,,,,left,0.0,1.873928959001205,,,,,sub-224,1,random_dot,70.30044462991317,
left,left,16.0,0.0,8.0,left,1.0,1.4929379030072596,,speed,space,4.02566982099961,,,,,,0.0,1.0,1.0,1.0,8.0,0.0,16.0,0.0,1055.679251958005,,,,,,,,,1055.6571080880094,1055.7571051770065,1056.5641603190015,1056.5462051880022,1056.5466717250092,1056.5641603190015,1056.5641603190015,1056.5641603190015,,1058.070721148004,,,,,,,,,,,,,,,,,,,,,,,,,,,,,,left,1.0,1.4929379030072596,,,,,sub-224,1,random_dot,70.30044462991317,
right,right,17.0,1.0,8.0,left,0.0,2.097510371997487,,speed,space,4.02566982099961,,,,,,0.0,1.0,1.0,1.0,8.0,1.0,17.0,1.0,1058.083275145007,,,,,,,,,1058.071568526997,1058.4154608350073,1059.2248617489968,1059.214389107001,1059.2148465579958,1059.2248617489968,1059.2248617489968,1059.2248617489968,,1061.3256372780015,,,,,,,,,,,,,,,,,,,,,,,,,,,,,,left,0.0,2.097510371997487,,,,,sub-224,1,random_dot,70.30044462991317,
left,left,18.0,0.0,9.0,left,1.0,1.5179120969987707,,speed,space,4.02566982099961,,,,,,0.0,1.0,1.0,1.0,9.0,0.0,18.0,0.0,1061.3367432090015,,,,,,,,,1061.326012539008,1062.5262940350076,1063.3242080430064,1063.3140669300046,1063.314314520001,1063.3242080430064,1063.3242080430064,1063.3242080430064,,1064.851620350004,,,,,,,,,,,,,,,,,,,,,,,,,,,,,,left,1.0,1.5179120969987707,,,,,sub-224,1,random_dot,70.30044462991317,
right,right,19.0,1.0,9.0,right,1.0,1.8668193460034672,,speed,space,4.02566982099961,,,,,,0.0,1.0,1.0,1.0,9.0,1.0,19.0,1.0,1064.8638527510047,,,,,,,,,1064.8518813130067,1065.206154878004,1066.0140112240042,1065.99993618,1066.0003898470022,1066.0140112240042,1066.0140112240042,1066.0140112240042,,1067.892537576001,,,,,,,,,,,,,,,,,,,,,,,,,,,,,,right,1.0,1.8668193460034672,,,,,sub-224,1,random_dot,70.30044462991317,
left,left,20.0,0.0,10.0,left,1.0,1.2080216329923132,,speed,space,4.02566982099961,,,,,,0.0,1.0,1.0,1.0,10.0,0.0,20.0,0.0,1067.9036257660046,,,,,,,,,1067.8931841120066,1069.089221140006,1069.886875009004,1069.8735199840012,1069.8744297270025,1069.886875009004,1069.886875009004,1069.886875009004,,1071.1018674969964,,,,,,,,,,,,,,,,,,,,,,,,,,,,,,left,1.0,1.2080216329923132,,,,,sub-224,1,random_dot,70.30044462991317,
right,right,21.0,1.0,10.0,right,1.0,1.485240526002599,,speed,space,4.02566982099961,,,,,,0.0,1.0,1.0,1.0,10.0,1.0,21.0,1.0,1071.1111401719972,,,,,,,,,1071.102273844008,1071.453314864004,1072.2535787410015,1072.240220888998,1072.2411740840034,1072.2535787410015,1072.2535787410015,1072.2535787410015,,1073.7476639410015,,,,,,,,,,,,,,,,,,,,,,,,,,,,,,right,1.0,1.485240526002599,,,,,sub-224,1,random_dot,70.30044462991317,
left,left,22.0,0.0,11.0,left,1.0,1.454547797999112,,speed,space,4.02566982099961,,,,,,0.0,1.0,1.0,1.0,11.0,0.0,22.0,0.0,1073.757775459002,,,,,,,,,1073.7480870090076,1074.5400285869982,1075.3470763799996,1075.3345005410083,1075.334829088999,1075.3470763799996,1075.3470763799996,1075.3470763799996,,1076.8107073249994,,,,,,,,,,,,,,,,,,,,,,,,,,,,,,left,1.0,1.454547797999112,,,,,sub-224,1,random_dot,70.30044462991317,
right,right,23.0,1.0,11.0,right,1.0,1.2289244139974471,,speed,space,4.02566982099961,,,,,,0.0,1.0,1.0,1.0,11.0,1.0,23.0,1.0,1076.8210390519962,,,,,,,,,1076.8113868290093,1077.1638013659976,1077.974657540006,1077.9641471140058,1077.964606827998,1077.974657540006,1077.974657540006,1077.974657540006,,1079.2098780170054,,,,,,,,,,,,,,,,,,,,,,,,,,,,,,right,1.0,1.2289244139974471,,,,,sub-224,1,random_dot,70.30044462991317,
right,right,24.0,0.0,12.0,right,1.0,0.9789601270022104,,speed,space,4.02566982099961,,,,,,0.0,1.0,1.0,1.0,12.0,0.0,24.0,1.0,1079.2199183420016,,,,,,,,,1079.210285677007,1080.4091703239974,1081.2082073920028,1081.197623346001,1081.198086288001,1081.2082073920028,1081.2082073920028,1081.2082073920028,,1082.1978058280074,,,,,,,,,,,,,,,,,,,,,,,,,,,,,,right,1.0,0.9789601270022104,,,,,sub-224,1,random_dot,70.30044462991317,
left,left,25.0,1.0,12.0,left,1.0,1.4430325959983747,,speed,space,4.02566982099961,,,,,,0.0,1.0,1.0,1.0,12.0,1.0,25.0,0.0,1082.206414964996,,,,,,,,,1082.1980663310096,1083.3973067150073,1084.1911788290015,1084.1807033530058,1084.181181095002,1084.1911788290015,1084.1911788290015,1084.1911788290015,,1085.647154213002,,,,,,,,,,,,,,,,,,,,,,,,,,,,,,left,1.0,1.4430325959983747,,,,,sub-224,1,random_dot,70.30044462991317,
left,left,26.0,0.0,13.0,right,0.0,0.8917076359939529,,speed,space,4.02566982099961,,,,,,0.0,1.0,1.0,1.0,13.0,0.0,26.0,0.0,1085.6574702390062,,,,,,,,,1085.6476069010096,1086.8492916240066,1087.6637297620036,1087.6458957319992,1087.6463605550089,1087.6637297620036,1087.6637297620036,1087.6637297620036,,1088.5646415390074,,,,,,,,,,,,,,,,,,,,,,,,,,,,,,right,0.0,0.8917076359939529,,,,,sub-224,1,random_dot,70.30044462991317,
right,right,27.0,1.0,13.0,right,1.0,1.2506245799886528,,speed,space,4.02566982099961,,,,,,0.0,1.0,1.0,1.0,13.0,1.0,27.0,1.0,1088.5731934450014,,,,,,,,,1088.5649037039984,1088.6637091230075,1089.480334478998,1089.4624368899968,1089.4629006199975,1089.480334478998,1089.480334478998,1089.480334478998,,1090.7430388509963,,,,,,,,,,,,,,,,,,,,,,,,,,,,,,right,1.0,1.2506245799886528,,,,,sub-224,1,random_dot,70.30044462991317,
right,right,28.0,0.0,14.0,right,1.0,0.9737482339987764,,speed,space,4.02566982099961,,,,,,0.0,1.0,1.0,1.0,14.0,0.0,28.0,1.0,1090.753317669005,,,,,,,,,1090.743813656998,1091.0863078830007,1091.891266220002,1091.8807416769996,1091.881209254003,1091.891266220002,1091.891266220002,1091.891266220002,,1092.8679276640032,,,,,,,,,,,,,,,,,,,,,,,,,,,,,,right,1.0,0.9737482339987764,,,,,sub-224,1,random_dot,70.30044462991317,
left,left,29.0,1.0,14.0,left,1.0,3.1024834280106006,,speed,space,4.02566982099961,,,,,,0.0,1.0,1.0,1.0,14.0,1.0,29.0,0.0,1092.8802083229966,,,,,,,,,1092.8682202880009,1093.6636234960024,1094.4610420509998,1094.449671941009,1094.4508829030092,1094.4610420509998,1094.4610420509998,1094.4610420509998,,1097.5703037420026,,,,,,,,,,,,,,,,,,,,,,,,,,,,,,left,1.0,3.1024834280106006,,,,,sub-224,1,random_dot,70.30044462991317,
left,left,30.0,0.0,15.0,right,0.0,1.1098104919947218,,speed,space,4.02566982099961,,,,,,0.0,1.0,1.0,1.0,15.0,0.0,30.0,0.0,1097.5820777049958,,,,,,,,,1097.5705698370002,1098.368987859998,1099.1732044109958,1099.1637135339988,1099.1640376580035,1099.1732044109958,1099.1732044109958,1099.1732044109958,,1100.2889481370075,,,,,,,,,,,,,,,,,,,,,,,,,,,,,,right,0.0,1.1098104919947218,,,,,sub-224,1,random_dot,70.30044462991317,
right,right,31.0,1.0,15.0,left,0.0,5.597203911995166,,speed,space,4.02566982099961,,,,,,0.0,1.0,1.0,1.0,15.0,1.0,31.0,1.0,1100.298147694004,,,,,,,,,1100.289240512997,1101.4953866529977,1102.290918629005,1102.2804749299976,1102.280904750005,1102.290918629005,1102.290918629005,1102.290918629005,1107.281761036007,1107.8998291519963,,,,,,,,,,,,,,,,,,,,,,,,,,,,,,left,0.0,5.597203911995166,,,,,sub-224,1,random_dot,70.30044462991317,
left,left,32.0,0.0,16.0,left,1.0,3.5227821759908693,,speed,space,4.02566982099961,,,,,,0.0,1.0,1.0,1.0,16.0,0.0,32.0,0.0,1107.913332639,,,,,,,,,1107.900212612003,1108.0026872449962,1108.799839764004,1108.7864591649995,1108.787385678006,1108.799839764004,1108.799839764004,1108.799839764004,,1112.3348383709963,,,,,,,,,,,,,,,,,,,,,,,,,,,,,,left,1.0,3.5227821759908693,,,,,sub-224,1,random_dot,70.30044462991317,
right,right,33.0,1.0,16.0,left,0.0,5.9218712199945,,speed,space,4.02566982099961,,,,,,0.0,1.0,1.0,1.0,16.0,1.0,33.0,1.0,1112.346539115999,,,,,,,,,1112.3352850359952,1113.1325399680063,1113.9467834259997,1113.9288849330042,1113.9293507840048,1113.9467834259997,1113.9467834259997,1113.9467834259997,1118.935775171005,1119.8807675480057,,,,,,,,,,,,,,,,,,,,,,,,,,,,,,left,0.0,5.9218712199945,,,,,sub-224,1,random_dot,70.30044462991317,
right,right,34.0,0.0,17.0,right,1.0,5.914858782998635,,speed,space,4.02566982099961,,,,,,0.0,1.0,1.0,1.0,17.0,0.0,34.0,1.0,1119.8897939129963,,,,,,,,,1119.881029245007,1119.9901536510006,1120.7963515910087,1120.7836230760004,1120.7838680830027,1120.7963515910087,1120.7963515910087,1120.7963515910087,1125.780012258998,1126.7167194149952,,,,,,,,,,,,,,,,,,,,,,,,,,,,,,right,1.0,5.914858782998635,,,,,sub-224,1,random_dot,70.30044462991317,
left,left,35.0,1.0,17.0,left,1.0,2.1548584999982268,,speed,space,4.02566982099961,,,,,,0.0,1.0,1.0,1.0,17.0,1.0,35.0,0.0,1126.7296236609982,,,,,,,,,1126.716989314009,1127.0631920769956,1127.8574121020065,1127.846861352009,1127.8473208939977,1127.8574121020065,1127.8574121020065,1127.8574121020065,,1130.0146317850013,,,,,,,,,,,,,,,,,,,,,,,,,,,,,,left,1.0,2.1548584999982268,,,,,sub-224,1,random_dot,70.30044462991317,
left,left,36.0,0.0,18.0,right,0.0,4.508426940010395,,speed,space,4.02566982099961,,,,,,0.0,1.0,1.0,1.0,18.0,0.0,36.0,0.0,1130.022700556001,,,,,,,,,1130.0149516620004,1130.364878665001,1131.1796112739976,1131.161719871001,1131.161967528009,1131.1796112739976,1131.1796112739976,1131.1796112739976,,1135.6923925540032,,,,,,,,,,,,,,,,,,,,,,,,,,,,,,right,0.0,4.508426940010395,,,,,sub-224,1,random_dot,70.30044462991317,
right,right,37.0,1.0,18.0,right,1.0,1.651606418992742,,speed,space,4.02566982099961,,,,,,0.0,1.0,1.0,1.0,18.0,1.0,37.0,1.0,1135.7030480810065,,,,,,,,,1135.6927752740012,1136.038408324006,1136.8411360290047,1136.8302067619952,1136.8306719770044,1136.8411360290047,1136.8411360290047,1136.8411360290047,,1138.4961933599989,,,,,,,,,,,,,,,,,,,,,,,,,,,,,,right,1.0,1.651606418992742,,,,,sub-224,1,random_dot,70.30044462991317,
left,left,38.0,0.0,19.0,left,1.0,0.97033008300059,,speed,space,4.02566982099961,,,,,,0.0,1.0,1.0,1.0,19.0,0.0,38.0,0.0,1138.5045206579962,,,,,,,,,1138.4965797080076,1139.2963216250064,1140.107274230002,1140.096721303009,1140.0971854999952,1140.107274230002,1140.107274230002,1140.107274230002,,1141.0888646850071,,,,,,,,,,,,,,,,,,,,,,,,,,,,,,left,1.0,0.97033008300059,,,,,sub-224,1,random_dot,70.30044462991317,
right,right,39.0,1.0,19.0,left,0.0,1.7747088909964075,,speed,space,4.02566982099961,,,,,,0.0,1.0,1.0,1.0,19.0,1.0,39.0,1.0,1141.0981600160012,,,,,,,,,1141.0891427199967,1142.294619770997,1143.0957358680023,1143.0850245589972,1143.085491279999,1143.0957358680023,1143.0957358680023,1143.0957358680023,,1144.8825492769977,,,,,,,,,,,,,,,,,,,,,,,,,,,,,,left,0.0,1.7747088909964075,,,,,sub-224,1,random_dot,70.30044462991317,
left,left,40.0,0.0,20.0,left,1.0,2.6940007410012186,,speed,space,4.02566982099961,,,,,,0.0,1.0,1.0,1.0,20.0,0.0,40.0,0.0,1144.8917763240024,,,,,,,,,1144.8829992450046,1145.235686547996,1146.0404235390015,1146.0298963899986,1146.0303592170094,1146.0404235390015,1146.0404235390015,1146.0404235390015,,1148.7369683520085,,,,,,,,,,,,,,,,,,,,,,,,,,,,,,left,1.0,2.6940007410012186,,,,,sub-224,1,random_dot,70.30044462991317,
right,right,41.0,1.0,20.0,right,1.0,0.8147941530041862,,speed,space,4.02566982099961,,,,,,0.0,1.0,1.0,1.0,20.0,1.0,41.0,1.0,1148.7478177610028,,,,,,,,,1148.7372534860042,1149.5382260000042,1150.3403759610082,1150.3298616960092,1150.330318207998,1150.3403759610082,1150.3403759610082,1150.3403759610082,,1151.166918627001,,,,,,,,,,,,,,,,,,,,,,,,,,,,,,right,1.0,0.8147941530041862,,,,,sub-224,1,random_dot,70.30044462991317,
left,left,42.0,0.0,21.0,left,1.0,0.9127007639908696,,speed,space,4.02566982099961,,,,,,0.0,1.0,1.0,1.0,21.0,0.0,42.0,0.0,1151.179326318001,,,,,,,,,1151.1673048200028,1151.519259755005,1152.329577026001,1152.311548380996,1152.3120117500075,1152.329577026001,1152.329577026001,1152.329577026001,,1153.254697705008,,,,,,,,,,,,,,,,,,,,,,,,,,,,,,left,1.0,0.9127007639908696,,,,,sub-224,1,random_dot,70.30044462991317,
right,right,43.0,1.0,21.0,right,1.0,1.4196951739868382,,speed,space,4.02566982099961,,,,,,0.0,1.0,1.0,1.0,21.0,1.0,43.0,1.0,1153.2638620850048,,,,,,,,,1153.2549759469985,1154.461194664007,1155.279439699996,1155.2613247209956,1155.2615746350057,1155.279439699996,1155.279439699996,1155.279439699996,,1156.7136127889971,,,,,,,,,,,,,,,,,,,,,,,,,,,,,,right,1.0,1.4196951739868382,,,,,sub-224,1,random_dot,70.30044462991317,
left,left,44.0,0.0,22.0,left,1.0,1.016744598004152,,speed,space,4.02566982099961,,,,,,0.0,1.0,1.0,1.0,22.0,0.0,44.0,0.0,1156.722289726997,,,,,,,,,1156.7138720469957,1157.0558989560086,1157.8652680460073,1157.8515269210038,1157.8519992579968,1157.8652680460073,1157.8652680460073,1157.8652680460073,,1158.891460597995,,,,,,,,,,,,,,,,,,,,,,,,,,,,,,left,1.0,1.016744598004152,,,,,sub-224,1,random_dot,70.30044462991317,
right,right,45.0,1.0,22.0,right,1.0,1.8333750129968396,,speed,space,4.02566982099961,,,,,,0.0,1.0,1.0,1.0,22.0,1.0,45.0,1.0,1158.901615212002,,,,,,,,,1158.8917650990045,1160.096147042001,1160.9069135480097,1160.8964053480013,1160.8968625999987,1160.9069135480097,1160.9069135480097,1160.9069135480097,,1162.750494206004,,,,,,,,,,,,,,,,,,,,,,,,,,,,,,right,1.0,1.8333750129968396,,,,,sub-224,1,random_dot,70.30044462991317,
right,right,46.0,0.0,23.0,right,1.0,1.4528439929999877,,speed,space,4.02566982099961,,,,,,0.0,1.0,1.0,1.0,23.0,0.0,46.0,1.0,1162.7622807300068,,,,,,,,,1162.7507504179955,1162.8476306660014,1163.6483601310028,1163.6348085799982,1163.6352750579972,1163.6483601310028,1163.6483601310028,1163.6483601310028,,1165.1050078090047,,,,,,,,,,,,,,,,,,,,,,,,,,,,,,right,1.0,1.4528439929999877,,,,,sub-224,1,random_dot,70.30044462991317,
left,left,47.0,1.0,23.0,left,1.0,1.001506208005594,,speed,space,4.02566982099961,,,,,,0.0,1.0,1.0,1.0,23.0,1.0,47.0,0.0,1165.1137395580008,,,,,,,,,1165.1053580320004,1165.4548240510048,1166.252251865997,1166.2389702590008,1166.2398994940013,1166.252251865997,1166.252251865997,1166.252251865997,,1167.2671478270058,,,,,,,,,,,,,,,,,,,,,,,,,,,,,,left,1.0,1.001506208005594,,,,,sub-224,1,random_dot,70.30044462991317,
right,right,48.0,0.0,24.0,right,1.0,1.4895990719960537,,speed,space,4.02566982099961,,,,,,0.0,1.0,1.0,1.0,24.0,0.0,48.0,1.0,1167.2792129059962,,,,,,,,,1167.2674098470015,1167.3781583840027,1168.193037222998,1168.177885489,1168.1781319319998,1168.193037222998,1168.193037222998,1168.193037222998,,1169.6924559150066,,,,,,,,,,,,,,,,,,,,,,,,,,,,,,right,1.0,1.4895990719960537,,,,,sub-224,1,random_dot,70.30044462991317,
left,left,49.0,1.0,24.0,left,1.0,0.8530775779945543,,speed,space,4.02566982099961,,,,,,0.0,1.0,1.0,1.0,24.0,1.0,49.0,0.0,1169.7022305310093,,,,,,,,,1169.692986893002,1170.4958987220016,1171.3067005170014,1171.2962072500086,1171.2966680200043,1171.3067005170014,1171.3067005170014,1171.3067005170014,,1172.1669938440027,,,,,,,,,,,,,,,,,,,,,,,,,,,,,,left,1.0,0.8530775779945543,,,,,sub-224,1,random_dot,70.30044462991317,
right,right,50.0,0.0,25.0,right,1.0,1.859894989000168,,speed,space,4.02566982099961,,,,,,0.0,1.0,1.0,1.0,25.0,0.0,50.0,1.0,1172.1763279239967,,,,,,,,,1172.1674530040036,1173.364265762997,1174.1592529430054,1174.148122685001,1174.1493392179982,1174.1592529430054,1174.1592529430054,1174.1592529430054,,1176.0329532370088,,,,,,,,,,,,,,,,,,,,,,,,,,,,,,right,1.0,1.859894989000168,,,,,sub-224,1,random_dot,70.30044462991317,
left,left,51.0,1.0,25.0,left,1.0,0.8630509440117748,,speed,space,4.02566982099961,,,,,,0.0,1.0,1.0,1.0,25.0,1.0,51.0,0.0,1176.0423207690037,,,,,,,,,1176.0334808129992,1176.1319831650037,1176.9459852059954,1176.9279638279986,1176.9284334810072,1176.9459852059954,1176.9459852059954,1176.9459852059954,,1177.816378139003,,,,,,,,,,,,,,,,,,,,,,,,,,,,,,left,1.0,0.8630509440117748,,,,,sub-224,1,random_dot,70.30044462991317,
left,left,52.0,0.0,26.0,left,1.0,1.1162424909998665,,speed,space,4.02566982099961,,,,,,0.0,1.0,1.0,1.0,26.0,0.0,52.0,0.0,1177.8257946560043,,,,,,,,,1177.8168176580075,1178.620955692997,1179.419460449004,1179.4093287430003,1179.410055870001,1179.419460449004,1179.419460449004,1179.419460449004,,1180.5489173560054,,,,,,,,,,,,,,,,,,,,,,,,,,,,,,left,1.0,1.1162424909998665,,,,,sub-224,1,random_dot,70.30044462991317,
right,right,53.0,1.0,26.0,right,1.0,5.718633058000705,,speed,space,4.02566982099961,,,,,,0.0,1.0,1.0,1.0,26.0,1.0,53.0,1.0,1180.5622472929972,,,,,,,,,1180.549179722002,1181.760742729006,1182.560581828002,1182.5484304740094,1182.5497263950092,1182.560581828002,1182.560581828002,1182.560581828002,1187.547638117001,1188.2809015960083,,,,,,,,,,,,,,,,,,,,,,,,,,,,,,right,1.0,5.718633058000705,,,,,sub-224,1,random_dot,70.30044462991317,
left,left,54.0,0.0,27.0,right,0.0,5.519193143001758,,speed,space,4.02566982099961,,,,,,0.0,1.0,1.0,1.0,27.0,0.0,54.0,0.0,1188.2891648960067,,,,,,,,,1188.281286632002,1189.0818255490012,1189.889963723006,1189.8794723620083,1189.879930046009,1189.889963723006,1189.889963723006,1189.889963723006,1194.871416466005,1195.4136421069998,,,,,,,,,,,,,,,,,,,,,,,,,,,,,,right,0.0,5.519193143001758,,,,,sub-224,1,random_dot,70.30044462991317,
right,right,55.0,1.0,27.0,left,0.0,1.483267388990498,,speed,space,4.02566982099961,,,,,,0.0,1.0,1.0,1.0,27.0,1.0,55.0,1.0,1195.4223440880014,,,,,,,,,1195.4140268939957,1196.2123963890044,1197.028848034999,1197.0109520120022,1197.0114214979983,1197.028848034999,1197.028848034999,1197.028848034999,,1198.516719827996,,,,,,,,,,,,,,,,,,,,,,,,,,,,,,left,0.0,1.483267388990498,,,,,sub-224,1,random_dot,70.30044462991317,
left,left,56.0,0.0,28.0,left,1.0,1.56064848099777,,speed,space,4.02566982099961,,,,,,0.0,1.0,1.0,1.0,28.0,0.0,56.0,0.0,1198.528626589003,,,,,,,,,1198.5169808860082,1198.612111185008,1199.414201847001,1199.4036472090083,1199.4045089590072,1199.414201847001,1199.414201847001,1199.414201847001,,1200.9789630710002,,,,,,,,,,,,,,,,,,,,,,,,,,,,,,left,1.0,1.56064848099777,,,,,sub-224,1,random_dot,70.30044462991317,
right,right,57.0,1.0,28.0,left,0.0,3.0139346619980643,,speed,space,4.02566982099961,,,,,,0.0,1.0,1.0,1.0,28.0,1.0,57.0,1.0,1200.9874387510065,,,,,,,,,1200.9793818799951,1202.1746201750066,1202.9955049220007,1202.9776852740033,1202.978152363008,1202.9955049220007,1202.9955049220007,1202.9955049220007,,1206.0211865430028,,,,,,,,,,,,,,,,,,,,,,,,,,,,,,left,0.0,3.0139346619980643,,,,,sub-224,1,random_dot,70.30044462991317,
left,left,58.0,0.0,29.0,right,0.0,5.859163770001032,,speed,space,4.02566982099961,,,,,,0.0,1.0,1.0,1.0,29.0,0.0,58.0,0.0,1206.043651829008,,,,,,,,,1206.0215015340073,1206.377263850998,1207.1719569790002,1207.1623553929967,1207.162680043999,1207.1719569790002,1207.1719569790002,1207.1719569790002,1212.154399801002,1213.0405748860069,,,,,,,,,,,,,,,,,,,,,,,,,,,,,,right,0.0,5.859163770001032,,,,,sub-224,1,random_dot,70.30044462991317,
right,right,59.0,1.0,29.0,right,1.0,6.008881342000677,,speed,space,4.02566982099961,,,,,,0.0,1.0,1.0,1.0,29.0,1.0,59.0,1.0,1213.0504625930043,,,,,,,,,1213.0408782199956,1213.3847451900074,1214.184814296008,1214.1712935109972,1214.172210853998,1214.184814296008,1214.184814296008,1214.184814296008,1219.1773263200012,1220.1968591049954,,,,,,,,,,,,,,,,,,,,,,,,,,,,,,right,1.0,6.008881342000677,,,,,sub-224,1,random_dot,70.30044462991317,
,,1.0,1.0,0.0,,,,,speed,space,4.02566982099961,,,,,,0.0,1.0,1.0,1.0,,,,,,,,,,,,,,,,,,,,,,,,,,,,,,,,,,,,,,,,,,,,,,,,,,,,,,,,,,,,sub-224,1,random_dot,70.30044462991317,
,,,,,,,,,,,,,,,,,,,,,,,,,,,,,,,,,,,,,,,,,,,,,,,,,,,,,,,,,,,,,,,,,,,,,,,,,,,,,1220.2007563280058,1220.2109841460042,1225.2005796390004,sub-224,1,random_dot,70.30044462991317,
