wordCTK,colorCTK,corrAnsCTK,congruentCTK,thisN,thisTrialN,thisRepN,keyResp_CTK.keys,keyResp_CTK.corr,keyResp_CTK.rt,keyResp_CTK.duration,wordPractice,colorPractice,corrAnsPractice,congruentPractice,respPractice.keys,respPractice.corr,respPractice.rt,respPractice.duration,word,color,corrAns,congruent,keyResp_test_run.keys,keyResp_test_run.corr,keyResp_test_run.rt,keyResp_test_run.duration,trials_CTK.thisRepN,trials_CTK.thisTrialN,trials_CTK.thisN,trials_CTK.thisIndex,trials_practice.thisRepN,trials_practice.thisTrialN,trials_practice.thisN,trials_practice.thisIndex,trials_test.thisRepN,trials_test.thisTrialN,trials_test.thisN,trials_test.thisIndex,thisRow.t,notes,instruction.started,instr_text.started,instr_image.started,instr_resp.started,instruction.stopped,instr_resp.keys,instr_resp.rt,instr_resp.duration,instr_color_to_key.started,instr_ctk.started,resp_ctk.started,instr_color_to_key.stopped,resp_ctk.keys,resp_ctk.rt,resp_ctk.duration,ITI.started,fixcross.started,fixcross.stopped,ITI.stopped,color_to_key_run.started,stimulus_CTK.started,keyResp_CTK.started,color_to_key_run.stopped,trials_CTK.keyResp_CTK.keys,trials_CTK.keyResp_CTK.corr,trials_CTK.keyResp_CTK.rt,trials_CTK.keyResp_CTK.duration,instr_practice.started,instr_practice_text.started,instr_practice_resp.started,instr_practice.stopped,instr_practice_resp.keys,instr_practice_resp.rt,instr_practice_resp.duration,practice_run.started,stimulus_practice.started,respPractice.started,practice_run.stopped,trials_practice.respPractice.keys,trials_practice.respPractice.corr,trials_practice.respPractice.rt,trials_practice.respPractice.duration,feedback.started,textFeedback.started,textFeedback.stopped,feedback.stopped,instr_test.started,instr_test_text.started,instr_test_resp.started,instr_test.stopped,instr_test_resp.keys,instr_test_resp.rt,instr_test_resp.duration,test_run.started,stimulus_test_run.started,keyResp_test_run.started,test_run.stopped,trials_test.keyResp_test_run.keys,trials_test.keyResp_test_run.corr,trials_test.keyResp_test_run.rt,trials_test.keyResp_test_run.duration,goodbye.started,textGoodbye.started,textGoodbye.stopped,goodbye.stopped,participant,session,expName,frameRate,Unnamed: 113
,,,,,,,,,,,,,,,,,,,,,,,,,,,,,,,,,,,,,,,,,0.0390256780010531,0.0622320359980221,0.0622320359980221,0.0622320359980221,54.91195547799725,space,54.82987685399712,,,,,,,,,,,,,,,,,,,,,,,,,,,,,,,,,,,,,,,,,,,,,,,,,,,,,,,,,,,sub-238,1,stroop_test,,
,,,,,,,,,,,,,,,,,,,,,,,,,,,,,,,,,,,,,,,,,,,,,,,,,54.91201919699961,54.92090553900198,54.92090553900198,60.75599530799809,space,5.832376767000824,,,,,,,,,,,,,,,,,,,,,,,,,,,,,,,,,,,,,,,,,,,,,,,,,,,,sub-238,1,stroop_test,,
test,red,r,1.0,0.0,0.0,0.0,r,1.0,1.432473887995002,,,,,,,,,,,,,,,,,,0.0,0.0,0.0,0.0,,,,,,,,,60.77552910699888,,,,,,,,,,,,,,,,,60.76568459100236,61.55156234400056,62.34542413199961,62.33840629900078,62.34219128500263,62.34542413199961,62.34542413199961,63.78858229100297,r,1.0,1.432473887995002,,,,,,,,,,,,,,,,,,,,,,,,,,,,,,,,,,,,,,,,sub-238,1,stroop_test,,
test,blue,b,1.0,1.0,1.0,0.0,b,1.0,0.9645073110004888,,,,,,,,,,,,,,,,,,0.0,1.0,1.0,2.0,,,,,,,,,63.79301500000293,,,,,,,,,,,,,,,,,63.788831395999296,64.13495348900324,64.92554063999705,64.92145809099748,64.92177866899874,64.92554063999705,64.92554063999705,65.89493493900227,b,1.0,0.9645073110004888,,,,,,,,,,,,,,,,,,,,,,,,,,,,,,,,,,,,,,,,sub-238,1,stroop_test,,
test,yellow,g,1.0,2.0,2.0,0.0,g,1.0,0.5633308399992529,,,,,,,,,,,,,,,,,,0.0,2.0,2.0,1.0,,,,,,,,,65.9014290940031,,,,,,,,,,,,,,,,,65.89519352999923,66.69097782899917,67.48495231100242,67.47785216900229,67.47817738600133,67.48495231100242,67.48495231100242,68.05582457000128,g,1.0,0.5633308399992529,,,,,,,,,,,,,,,,,,,,,,,,,,,,,,,,,,,,,,,,sub-238,1,stroop_test,,
test,yellow,g,1.0,3.0,0.0,1.0,g,1.0,0.6818886279943399,,,,,,,,,,,,,,,,,,1.0,0.0,3.0,1.0,,,,,,,,,68.06032255000173,,,,,,,,,,,,,,,,,68.05607271400368,68.40161551000347,69.19223062699893,69.18866909600183,69.18898999100202,69.19223062699893,69.19223062699893,69.8786665689986,g,1.0,0.6818886279943399,,,,,,,,,,,,,,,,,,,,,,,,,,,,,,,,,,,,,,,,sub-238,1,stroop_test,,
test,blue,b,1.0,4.0,1.0,1.0,b,1.0,0.7770024220008054,,,,,,,,,,,,,,,,,,1.0,1.0,4.0,2.0,,,,,,,,,69.88489939500141,,,,,,,,,,,,,,,,,69.8789177189974,70.2242058999982,71.01840651100065,71.0110613709985,71.01139751099981,71.01840651100065,71.01840651100065,71.80601594199834,b,1.0,0.7770024220008054,,,,,,,,,,,,,,,,,,,,,,,,,,,,,,,,,,,,,,,,sub-238,1,stroop_test,,
test,red,r,1.0,5.0,2.0,1.0,r,1.0,0.422570930000802,,,,,,,,,,,,,,,,,,1.0,2.0,5.0,0.0,,,,,,,,,71.81048169499991,,,,,,,,,,,,,,,,,71.80626477600163,73.00165942600142,73.79261617200245,73.78909888199996,73.78943495100248,73.79261617200245,73.79261617200245,74.22257196300052,r,1.0,0.422570930000802,,,,,,,,,,,,,,,,,,,,,,,,,,,,,,,,,,,,,,,,sub-238,1,stroop_test,,
test,blue,b,1.0,6.0,0.0,2.0,b,1.0,0.5718655370001215,,,,,,,,,,,,,,,,,,2.0,0.0,6.0,2.0,,,,,,,,,74.22700419700413,,,,,,,,,,,,,,,,,74.22283222500118,75.01832878500136,75.80900202799967,75.8052953439983,75.80561616900377,75.80900202799967,75.80900202799967,76.3893314779998,b,1.0,0.5718655370001215,,,,,,,,,,,,,,,,,,,,,,,,,,,,,,,,,,,,,,,,sub-238,1,stroop_test,,
test,yellow,g,1.0,7.0,1.0,2.0,g,1.0,0.6245686300026136,,,,,,,,,,,,,,,,,,2.0,1.0,7.0,1.0,,,,,,,,,76.39384111300024,,,,,,,,,,,,,,,,,76.38958563000051,77.18502672100294,77.97627681599988,77.97257385400007,77.972906367002,77.97627681599988,77.97627681599988,78.6059764130041,g,1.0,0.6245686300026136,,,,,,,,,,,,,,,,,,,,,,,,,,,,,,,,,,,,,,,,sub-238,1,stroop_test,,
test,red,r,1.0,8.0,2.0,2.0,r,1.0,0.6270280460012145,,,,,,,,,,,,,,,,,,2.0,2.0,8.0,0.0,,,,,,,,,78.61043183499714,,,,,,,,,,,,,,,,,78.6062361689983,78.70162590900145,79.49211901299714,79.48855636000371,79.48889851300191,79.49211901299714,79.49211901299714,80.12269254000421,r,1.0,0.6270280460012145,,,,,,,,,,,,,,,,,,,,,,,,,,,,,,,,,,,,,,,,sub-238,1,stroop_test,,
test,red,r,1.0,9.0,0.0,3.0,r,1.0,0.7152550790051464,,,,,,,,,,,,,,,,,,3.0,0.0,9.0,0.0,,,,,,,,,80.1271002479989,,,,,,,,,,,,,,,,,80.12294372500037,80.91837667999789,81.70920884099905,81.70552271499764,81.70584259599855,81.70920884099905,81.70920884099905,82.42855068299832,r,1.0,0.7152550790051464,,,,,,,,,,,,,,,,,,,,,,,,,,,,,,,,,,,,,,,,sub-238,1,stroop_test,,
test,blue,b,1.0,10.0,1.0,3.0,b,1.0,0.80300900900329,,,,,,,,,,,,,,,,,,3.0,1.0,10.0,2.0,,,,,,,,,82.43496099799813,,,,,,,,,,,,,,,,,82.42881868100085,83.2245405010035,84.01848422100011,84.01147297100397,84.01179043100274,84.01848422100011,84.01848422100011,84.82836446600413,b,1.0,0.80300900900329,,,,,,,,,,,,,,,,,,,,,,,,,,,,,,,,,,,,,,,,sub-238,1,stroop_test,,
test,yellow,g,1.0,11.0,2.0,3.0,g,1.0,0.9055878840008518,,,,,,,,,,,,,,,,,,3.0,2.0,11.0,1.0,,,,,,,,,84.83497793899733,,,,,,,,,,,,,,,,,84.8286174140012,85.17432275199826,85.96819349800353,85.96063931700337,85.96096616700379,85.96819349800353,85.96819349800353,86.87852073200338,g,1.0,0.9055878840008518,,,,,,,,,,,,,,,,,,,,,,,,,,,,,,,,,,,,,,,,sub-238,1,stroop_test,,
,,,,,,,,,,,,,,,,,,,,,,,,,,,,,,,,,,,,,,,,,,,,,,,,,,,,,,,,,,,,,,,,,,,,86.87864435100346,86.88493101699714,86.88493101699714,95.3567837829978,space,8.46828924100555,,,,,,,,,,,,,,,,,,,,,,,,,,,,,,,,,sub-238,1,stroop_test,,
,,,,0.0,0.0,0.0,,,,,blau,blue,b,1.0,b,1.0,0.6862626160000218,,,,,,,,,,,,,,0.0,0.0,0.0,6.0,,,,,95.37245804299891,,,,,,,,,,,,,,,,,95.36631291799858,96.15181144400412,96.94639416800057,96.93929557700176,,,,,,,,,,,,,,,,96.94309431999864,96.94639416800057,96.94639416800057,97.63921358199876,b,1.0,0.6862626160000218,,97.64371621399914,97.6488201980028,98.64146840899777,98.63881219900212,,,,,,,,,,,,,,,,,,,,sub-238,1,stroop_test,,
,,,,1.0,1.0,0.0,,,,,gelb,yellow,g,1.0,g,1.0,1.1753423579939408,,,,,,,,,,,,,,0.0,1.0,1.0,11.0,,,,,98.64146840899777,,,,,,,,,,,,,,,,,98.6390577359998,98.73519107299944,99.52826034100144,99.52204895499744,,,,,,,,,,,,,,,,99.52428774099826,99.52826034100144,99.52826034100144,100.70664323300298,g,1.0,1.1753423579939408,,100.70702484300271,100.71211321600276,101.70789154399972,101.7053326430032,,,,,,,,,,,,,,,,,,,,sub-238,1,stroop_test,,
,,,,2.0,2.0,0.0,,,,,gelb,red,r,0.0,r,1.0,0.9293243020001682,,,,,,,,,,,,,,0.0,2.0,2.0,8.0,,,,,101.70789154399972,,,,,,,,,,,,,,,,,101.70558020599856,102.90186138800344,103.69297174100213,103.68937738399836,,,,,,,,,,,,,,,,103.68972652200318,103.69297174100213,103.69297174100213,104.62381620600354,r,1.0,0.9293243020001682,,104.62420494900287,104.6293915760034,105.62434278100407,105.6218256889988,,,,,,,,,,,,,,,,,,,,sub-238,1,stroop_test,,
,,,,3.0,3.0,0.0,,,,,rot,red,r,1.0,r,1.0,0.9478876639986992,,,,,,,,,,,,,,0.0,3.0,3.0,1.0,,,,,105.62434278100407,,,,,,,,,,,,,,,,,105.62206678400251,106.81864372899872,107.61245127500295,107.60575862500264,,,,,,,,,,,,,,,,107.6089995650036,107.61245127500295,107.61245127500295,108.56271333900077,r,1.0,0.9478876639986992,,108.56308576800076,108.56843226400088,109.55824630900317,109.55570387899934,,,,,,,,,,,,,,,,,,,,sub-238,1,stroop_test,,
,,,,4.0,4.0,0.0,,,,,rot,yellow,g,0.0,g,1.0,0.679653794002661,,,,,,,,,,,,,,0.0,4.0,4.0,3.0,,,,,109.55824630900317,,,,,,,,,,,,,,,,,109.55595390400411,110.75789481899848,111.55187914000273,111.54491839500406,,,,,,,,,,,,,,,,111.54524614699768,111.55187914000273,111.55187914000273,112.23962122599914,g,1.0,0.679653794002661,,112.23999121600356,112.24524208799994,113.24149104599928,113.23889031900036,,,,,,,,,,,,,,,,,,,,sub-238,1,stroop_test,,
,,,,5.0,5.0,0.0,,,,,blau,blue,b,1.0,b,1.0,0.4761291249960777,,,,,,,,,,,,,,0.0,5.0,5.0,5.0,,,,,113.24149104599928,,,,,,,,,,,,,,,,,113.2391369399993,114.0351538820032,114.82837419799762,114.82228712699724,,,,,,,,,,,,,,,,114.8244659789998,114.82837419799762,114.82837419799762,115.3064204320035,b,1.0,0.4761291249960777,,115.30679842500103,115.3118931900026,116.30827386800227,116.30567701700056,,,,,,,,,,,,,,,,,,,,sub-238,1,stroop_test,,
,,,,6.0,6.0,0.0,,,,,gelb,blue,b,0.0,b,1.0,2.4727609460023814,,,,,,,,,,,,,,0.0,6.0,6.0,9.0,,,,,116.30827386800227,,,,,,,,,,,,,,,,,116.3059199700001,117.5018306310012,118.2949040550011,118.2889172560026,,,,,,,,,,,,,,,,118.29109580600198,118.2949040550011,118.2949040550011,120.7734006719984,b,1.0,2.4727609460023814,,120.77376349599945,120.78155682999932,121.77510387799704,121.77236415699736,,,,,,,,,,,,,,,,,,,,sub-238,1,stroop_test,,
,,,,7.0,7.0,0.0,,,,,gelb,yellow,g,1.0,g,1.0,1.5118268109945348,,,,,,,,,,,,,,0.0,7.0,7.0,10.0,,,,,121.77510387799704,,,,,,,,,,,,,,,,,121.77259775499988,121.86851279799885,122.65940690800198,122.6557578840002,,,,,,,,,,,,,,,,122.65609502600272,122.65940690800198,122.65940690800198,124.17396583200023,g,1.0,1.5118268109945348,,124.1743302410032,124.1795084320038,125.1749609690014,125.1724152550014,,,,,,,,,,,,,,,,,,,,sub-238,1,stroop_test,,
,,,,8.0,8.0,0.0,,,,,blau,red,r,0.0,r,1.0,0.5928304070039303,,,,,,,,,,,,,,0.0,8.0,8.0,4.0,,,,,125.1749609690014,,,,,,,,,,,,,,,,,125.17266607000056,125.9685445810028,126.7622461830033,126.75616344500304,,,,,,,,,,,,,,,,126.75846760000422,126.7622461830033,126.7622461830033,127.35676478099776,r,1.0,0.5928304070039303,,127.35741786599829,127.36260814699926,128.35868111799937,128.3560064859994,,,,,,,,,,,,,,,,,,,,sub-238,1,stroop_test,,
,,,,9.0,9.0,0.0,,,,,blau,yellow,g,0.0,g,1.0,1.26856290899741,,,,,,,,,,,,,,0.0,9.0,9.0,7.0,,,,,128.35868111799937,,,,,,,,,,,,,,,,,128.35625546499796,128.70208088900108,129.49274030800007,129.48910857900046,,,,,,,,,,,,,,,,129.48944607799783,129.49274030800007,129.49274030800007,130.76276877499913,g,1.0,1.26856290899741,,130.76315616600186,130.76852099600364,131.75851037599932,131.7559463180005,,,,,,,,,,,,,,,,,,,,sub-238,1,stroop_test,,
,,,,10.0,10.0,0.0,,,,,rot,blue,b,0.0,b,1.0,0.7788252669997746,,,,,,,,,,,,,,0.0,10.0,10.0,2.0,,,,,131.75851037599932,,,,,,,,,,,,,,,,,131.75620598300156,132.10774376500194,132.90203568000288,132.89498569699936,,,,,,,,,,,,,,,,132.8972380569976,132.90203568000288,132.90203568000288,133.68959555200126,b,1.0,0.7788252669997746,,133.68996309800423,133.69515964900347,134.6918690599996,134.6891568689971,,,,,,,,,,,,,,,,,,,,sub-238,1,stroop_test,,
,,,,11.0,11.0,0.0,,,,,rot,red,r,1.0,r,1.0,0.7550838230017689,,,,,,,,,,,,,,0.0,11.0,11.0,0.0,,,,,134.6918690599996,,,,,,,,,,,,,,,,,134.68939767700067,134.7854077680022,135.5761329559973,135.57237914000143,,,,,,,,,,,,,,,,135.572705589002,135.5761329559973,135.5761329559973,136.3397151629979,r,1.0,0.7550838230017689,,136.34008637299848,136.3455275610031,137.34206507899944,137.3392828740034,,,,,,,,,,,,,,,,,,,,sub-238,1,stroop_test,,
,,,,12.0,0.0,1.0,,,,,rot,red,r,1.0,r,1.0,1.1508897460007574,,,,,,,,,,,,,,1.0,0.0,12.0,1.0,,,,,137.34206507899944,,,,,,,,,,,,,,,,,137.33951798499766,138.13537088500016,138.92593415900046,138.92241007900157,,,,,,,,,,,,,,,,138.9227317679979,138.92593415900046,138.92593415900046,140.0797694549983,r,1.0,1.1508897460007574,,140.08013957399817,140.0852531240016,141.07496429300227,141.0723540809995,,,,,,,,,,,,,,,,,,,,sub-238,1,stroop_test,,
,,,,13.0,1.0,1.0,,,,,blau,yellow,g,0.0,g,1.0,1.347366645000875,,,,,,,,,,,,,,1.0,1.0,13.0,7.0,,,,,141.07496429300227,,,,,,,,,,,,,,,,,141.0725842039974,142.2748630089991,143.06874788300047,143.06182029999763,,,,,,,,,,,,,,,,143.0640419409974,143.06874788300047,143.06874788300047,144.4231815480016,g,1.0,1.347366645000875,,144.4235504419994,144.42861222499778,145.42470911300188,145.42211400200176,,,,,,,,,,,,,,,,,,,,sub-238,1,stroop_test,,
,,,,14.0,2.0,1.0,,,,,rot,blue,b,0.0,b,1.0,0.6112233649982954,,,,,,,,,,,,,,1.0,2.0,14.0,2.0,,,,,145.42470911300188,,,,,,,,,,,,,,,,,145.42235181100114,146.6187877839984,147.41130685400276,147.40556430300057,,,,,,,,,,,,,,,,147.4076885780014,147.41130685400276,147.41130685400276,148.02924066800188,b,1.0,0.6112233649982954,,148.0296147170011,148.03534048700385,149.02471799100022,149.0221909710017,,,,,,,,,,,,,,,,,,,,sub-238,1,stroop_test,,
,,,,15.0,3.0,1.0,,,,,gelb,red,r,0.0,r,1.0,1.1599749719971442,,,,,,,,,,,,,,1.0,3.0,15.0,8.0,,,,,149.02471799100022,,,,,,,,,,,,,,,,,149.02242115300032,149.12503051800013,149.91877667899826,149.91166857200005,,,,,,,,,,,,,,,,149.9139042520037,149.91877667899826,149.91877667899826,151.08030848199996,r,1.0,1.1599749719971442,,151.0806910129977,151.10396481399948,,152.08865736400185,,,,,,,,,,,,,,,,,,,,sub-238,1,stroop_test,,
,,,,16.0,4.0,1.0,,,,,gelb,yellow,g,1.0,g,1.0,1.102776227999129,,,,,,,,,,,,,,1.0,4.0,16.0,10.0,,,,,152.0913644359971,,,,,,,,,,,,,,,,,152.08889723000175,152.42488325200247,153.2188080679989,153.211848277002,,,,,,,,,,,,,,,,153.21217248299945,153.2188080679989,153.2188080679989,154.32384312400245,g,1.0,1.102776227999129,,154.32421071700082,154.3293125420023,155.32513625299907,155.3223603610022,,,,,,,,,,,,,,,,,,,,sub-238,1,stroop_test,,
,,,,17.0,5.0,1.0,,,,,blau,blue,b,1.0,b,1.0,0.4638323780018254,,,,,,,,,,,,,,1.0,5.0,17.0,6.0,,,,,155.32513625299907,,,,,,,,,,,,,,,,,155.3225939219992,156.11890485700133,156.91225987600046,156.90586078399792,,,,,,,,,,,,,,,,156.90830984700006,156.91225987600046,156.91225987600046,157.37908811800298,b,1.0,0.4638323780018254,,157.37946195399854,157.38541057700058,158.37530336499913,158.3726266070007,,,,,,,,,,,,,,,,,,,,sub-238,1,stroop_test,,
,,,,18.0,6.0,1.0,,,,,rot,yellow,g,0.0,g,1.0,1.058401000998856,,,,,,,,,,,,,,1.0,6.0,18.0,3.0,,,,,158.37530336499913,,,,,,,,,,,,,,,,,158.37286546199903,158.72509491600067,159.518783350999,159.5110046280024,,,,,,,,,,,,,,,,159.51323569899978,159.518783350999,159.518783350999,160.57948834600393,g,1.0,1.058401000998856,,160.57985356500285,160.58538576000137,161.5753125800038,161.57260657100414,,,,,,,,,,,,,,,,,,,,sub-238,1,stroop_test,,
,,,,19.0,7.0,1.0,,,,,gelb,yellow,g,1.0,g,1.0,0.8263708209997276,,,,,,,,,,,,,,1.0,7.0,19.0,11.0,,,,,161.5753125800038,,,,,,,,,,,,,,,,,161.57284817800246,162.37466918000428,163.16893338400405,163.1614890050041,,,,,,,,,,,,,,,,163.16368673100078,163.16893338400405,163.16893338400405,163.99687894400267,g,1.0,0.8263708209997276,,163.99727190600242,164.00251964700146,164.99199110100017,164.98934409600042,,,,,,,,,,,,,,,,,,,,sub-238,1,stroop_test,,
,,,,20.0,8.0,1.0,,,,,blau,red,r,0.0,r,1.0,0.6570678130010492,,,,,,,,,,,,,,1.0,8.0,20.0,4.0,,,,,164.99199110100017,,,,,,,,,,,,,,,,,164.98958071500238,166.1916268999994,166.98557945300126,166.97848612200323,,,,,,,,,,,,,,,,166.98068120099924,166.98557945300126,166.98557945300126,167.6460147980033,r,1.0,0.6570678130010492,,167.646386172004,167.65218317000108,168.641864352001,168.63899899699754,,,,,,,,,,,,,,,,,,,,sub-238,1,stroop_test,,
,,,,21.0,9.0,1.0,,,,,gelb,blue,b,0.0,b,1.0,0.8009820129955187,,,,,,,,,,,,,,1.0,9.0,21.0,9.0,,,,,168.641864352001,,,,,,,,,,,,,,,,,168.63924736600163,169.84155827500217,170.63563999200414,170.62810963099764,,,,,,,,,,,,,,,,170.63031151599716,170.63563999200414,170.63563999200414,171.44022408500314,b,1.0,0.8009820129955187,,171.44058722499904,171.44575155000348,172.44176773999789,172.43924854999932,,,,,,,,,,,,,,,,,,,,sub-238,1,stroop_test,,
,,,,22.0,10.0,1.0,,,,,rot,red,r,1.0,r,1.0,0.8136637720017461,,,,,,,,,,,,,,1.0,10.0,22.0,0.0,,,,,172.44176773999789,,,,,,,,,,,,,,,,,172.43948943400028,173.23563133300195,174.02885820499796,174.02244772999984,,,,,,,,,,,,,,,,174.02490822000254,174.02885820499796,174.02885820499796,174.84618220399716,r,1.0,0.8136637720017461,,174.846550303002,174.8522066009973,175.84211138699902,175.83943048599758,,,,,,,,,,,,,,,,,,,,sub-238,1,stroop_test,,
,,,,23.0,11.0,1.0,,,,,blau,blue,b,1.0,b,1.0,0.7949567850009771,,,,,,,,,,,,,,1.0,11.0,23.0,5.0,,,,,175.84211138699902,,,,,,,,,,,,,,,,,175.83966962499835,175.94156748199748,176.73567413300043,176.72823767999944,,,,,,,,,,,,,,,,176.73048953899706,176.73567413300043,176.73567413300043,177.53979049400368,b,1.0,0.7949567850009771,,177.5401604860017,177.54533146799804,178.5440354050006,178.53975796000304,,,,,,,,,,,,,,,,,,,,sub-238,1,stroop_test,,
,,,,,,,,,,,,,,,,,,,,,,,,,,,,,,,,,,,,,,,,,,,,,,,,,,,,,,,,,,,,,,,,,,,,,,,,,,,,,,,,,,,,,,,178.53987039899948,178.5440354050006,178.5440354050006,186.3128154660008,space,7.761849034002807,,,,,,,,,,,,,,sub-238,1,stroop_test,,
,,,,0.0,0.0,0.0,,,,,,,,,,,,,gelb,red,r,0.0,r,1.0,0.6017654140014201,,,,,,,,,,0.0,0.0,0.0,8.0,186.32738160200097,,,,,,,,,,,,,,,,,186.3231085849984,187.1084918639972,187.90233862699824,187.89569265900357,,,,,,,,,,,,,,,,,,,,,,,,,,,,,,,,,,,187.8978853899971,187.90233862699824,187.90233862699824,188.5072232120001,r,1.0,0.6017654140014201,,,,,,sub-238,1,stroop_test,,
,,,,1.0,1.0,0.0,,,,,,,,,,,,,blau,blue,b,1.0,b,1.0,1.5246996499990928,,,,,,,,,,0.0,1.0,1.0,5.0,188.51174039000037,,,,,,,,,,,,,,,,,188.5075107790035,188.8523769520034,189.64571353299837,189.63934889299708,,,,,,,,,,,,,,,,,,,,,,,,,,,,,,,,,,,189.64174194500083,189.64571353299837,189.64571353299837,191.173599886999,b,1.0,1.5246996499990928,,,,,,sub-238,1,stroop_test,,
,,,,2.0,2.0,0.0,,,,,,,,,,,,,gelb,yellow,g,1.0,g,1.0,0.7958297740042326,,,,,,,,,,0.0,2.0,2.0,10.0,191.1780061169993,,,,,,,,,,,,,,,,,191.1738903439982,191.2689484770017,192.0623182670024,192.0560561520033,,,,,,,,,,,,,,,,,,,,,,,,,,,,,,,,,,,192.05828394200216,192.0623182670024,192.0623182670024,192.8627044379973,g,1.0,0.7958297740042326,,,,,,sub-238,1,stroop_test,,
,,,,3.0,3.0,0.0,,,,,,,,,,,,,rot,yellow,g,0.0,g,1.0,0.9201062770007412,,,,,,,,,,0.0,3.0,3.0,3.0,192.8690339349996,,,,,,,,,,,,,,,,,192.86298908499884,192.95811664099887,193.75241163199823,193.7453807810016,,,,,,,,,,,,,,,,,,,,,,,,,,,,,,,,,,,193.74751631500112,193.75241163199823,193.75241163199823,194.67952037599755,g,1.0,0.9201062770007412,,,,,,sub-238,1,stroop_test,,
,,,,4.0,4.0,0.0,,,,,,,,,,,,,gelb,blue,b,0.0,b,1.0,0.869450792997668,,,,,,,,,,0.0,4.0,4.0,9.0,194.68564887899996,,,,,,,,,,,,,,,,,194.67980181700116,195.02529011399747,195.819113055004,195.81185870800252,,,,,,,,,,,,,,,,,,,,,,,,,,,,,,,,,,,195.81404309200295,195.819113055004,195.819113055004,196.6901096069996,b,1.0,0.869450792997668,,,,,,sub-238,1,stroop_test,,
,,,,5.0,5.0,0.0,,,,,,,,,,,,,rot,red,r,1.0,r,1.0,0.5349066339986166,,,,,,,,,,0.0,5.0,5.0,1.0,196.6946205560016,,,,,,,,,,,,,,,,,196.69039459899795,197.48575084700133,198.27903775699812,198.2729002359993,,,,,,,,,,,,,,,,,,,,,,,,,,,,,,,,,,,198.2750699590033,198.27903775699812,198.27903775699812,198.8235557549997,r,1.0,0.5349066339986166,,,,,,sub-238,1,stroop_test,,
,,,,6.0,6.0,0.0,,,,,,,,,,,,,blau,blue,b,1.0,b,1.0,0.7861185450019548,,,,,,,,,,0.0,6.0,6.0,6.0,198.82813624200207,,,,,,,,,,,,,,,,,198.82384179300425,199.16918146500396,199.9620318739981,199.95609275400057,,,,,,,,,,,,,,,,,,,,,,,,,,,,,,,,,,,199.9582289250029,199.9620318739981,199.9620318739981,200.75679418099756,b,1.0,0.7861185450019548,,,,,,sub-238,1,stroop_test,,
,,,,7.0,7.0,0.0,,,,,,,,,,,,,blau,red,r,0.0,r,1.0,0.642459244998463,,,,,,,,,,0.0,7.0,7.0,4.0,200.7613033029993,,,,,,,,,,,,,,,,,200.7570901509971,201.95246263800072,202.7431806809982,202.73933197699807,,,,,,,,,,,,,,,,,,,,,,,,,,,,,,,,,,,202.73965952800063,202.7431806809982,202.7431806809982,203.3904977540005,r,1.0,0.642459244998463,,,,,,sub-238,1,stroop_test,,
,,,,8.0,8.0,0.0,,,,,,,,,,,,,gelb,yellow,g,1.0,g,1.0,0.5329388329992071,,,,,,,,,,0.0,8.0,8.0,11.0,203.39496074800263,,,,,,,,,,,,,,,,,203.39078517400048,203.7358329010021,204.52891405200356,204.5229748720012,,,,,,,,,,,,,,,,,,,,,,,,,,,,,,,,,,,204.5251857620024,204.52891405200356,204.52891405200356,205.07433793199743,g,1.0,0.5329388329992071,,,,,,sub-238,1,stroop_test,,
,,,,9.0,9.0,0.0,,,,,,,,,,,,,blau,yellow,g,0.0,g,1.0,0.5042576580017339,,,,,,,,,,0.0,9.0,9.0,7.0,205.0788163760008,,,,,,,,,,,,,,,,,205.074630739,205.16900863499905,205.96236067100108,205.95638009899997,,,,,,,,,,,,,,,,,,,,,,,,,,,,,,,,,,,205.9585890879971,205.96236067100108,205.96236067100108,206.4736627270031,g,1.0,0.5042576580017339,,,,,,sub-238,1,stroop_test,,
,,,,10.0,10.0,0.0,,,,,,,,,,,,,rot,red,r,1.0,r,1.0,0.7200770319977892,,,,,,,,,,0.0,10.0,10.0,0.0,206.47816756999964,,,,,,,,,,,,,,,,,206.47394918200007,206.56905579299928,207.36227302099724,207.35608254800167,,,,,,,,,,,,,,,,,,,,,,,,,,,,,,,,,,,207.35825652100172,207.36227302099724,207.36227302099724,208.0900492150031,r,1.0,0.7200770319977892,,,,,,sub-238,1,stroop_test,,
,,,,11.0,11.0,0.0,,,,,,,,,,,,,rot,blue,b,0.0,b,1.0,0.6421683579974342,,,,,,,,,,0.0,11.0,11.0,2.0,208.0944634530024,,,,,,,,,,,,,,,,,208.09033686700425,208.4357286790037,209.22618411800067,209.22269543300357,,,,,,,,,,,,,,,,,,,,,,,,,,,,,,,,,,,209.22300741900108,209.22618411800067,209.22618411800067,209.87374187500245,b,1.0,0.6421683579974342,,,,,,sub-238,1,stroop_test,,
,,,,12.0,0.0,1.0,,,,,,,,,,,,,rot,blue,b,0.0,b,1.0,0.4625278690000414,,,,,,,,,,1.0,0.0,12.0,2.0,209.87831068300147,,,,,,,,,,,,,,,,,209.874026137004,211.0691246799979,211.8597392390002,211.8562218340012,,,,,,,,,,,,,,,,,,,,,,,,,,,,,,,,,,,211.85655122200117,211.8597392390002,211.8597392390002,212.32417530000384,b,1.0,0.4625278690000414,,,,,,sub-238,1,stroop_test,,
,,,,13.0,1.0,1.0,,,,,,,,,,,,,rot,red,r,1.0,r,1.0,0.8646262809998007,,,,,,,,,,1.0,1.0,13.0,1.0,212.32873780700172,,,,,,,,,,,,,,,,,212.3244640060002,212.41904330300167,213.20975942200312,213.20618003900017,,,,,,,,,,,,,,,,,,,,,,,,,,,,,,,,,,,213.206502164001,213.20975942200312,213.20975942200312,214.07939695200184,r,1.0,0.8646262809998007,,,,,,sub-238,1,stroop_test,,
,,,,14.0,2.0,1.0,,,,,,,,,,,,,gelb,blue,b,0.0,b,1.0,0.9553451230021892,,,,,,,,,,1.0,2.0,14.0,9.0,214.0858591010037,,,,,,,,,,,,,,,,,214.0796866890014,214.8751902360018,215.6692690560012,215.66174634199703,,,,,,,,,,,,,,,,,,,,,,,,,,,,,,,,,,,215.6639097310035,215.6692690560012,215.6692690560012,216.6293837600024,b,1.0,0.9553451230021892,,,,,,sub-238,1,stroop_test,,
,,,,15.0,3.0,1.0,,,,,,,,,,,,,gelb,red,r,0.0,r,1.0,0.7250587529997574,,,,,,,,,,1.0,3.0,15.0,8.0,216.63571675900312,,,,,,,,,,,,,,,,,216.62966728200263,217.8253177630031,218.61929804600368,218.61164958000157,,,,,,,,,,,,,,,,,,,,,,,,,,,,,,,,,,,218.6119698030016,218.61929804600368,218.61929804600368,219.3458887500019,r,1.0,0.7250587529997574,,,,,,sub-238,1,stroop_test,,
,,,,16.0,4.0,1.0,,,,,,,,,,,,,blau,blue,b,1.0,b,1.0,0.8654481249977835,,,,,,,,,,1.0,4.0,16.0,6.0,219.35242735499924,,,,,,,,,,,,,,,,,219.3461815940027,219.6925097670028,220.48595533800108,220.4787524610001,,,,,,,,,,,,,,,,,,,,,,,,,,,,,,,,,,,220.4811217509996,220.48595533800108,220.48595533800108,221.35695536200365,b,1.0,0.8654481249977835,,,,,,sub-238,1,stroop_test,,
,,,,17.0,5.0,1.0,,,,,,,,,,,,,blau,red,r,0.0,r,1.0,0.7435863589998917,,,,,,,,,,1.0,5.0,17.0,4.0,221.36141567800223,,,,,,,,,,,,,,,,,221.35723937400329,221.45250479099923,222.24328536000397,222.23961995600257,,,,,,,,,,,,,,,,,,,,,,,,,,,,,,,,,,,222.23994493400096,222.24328536000397,222.24328536000397,222.990507059003,r,1.0,0.7435863589998917,,,,,,sub-238,1,stroop_test,,
,,,,18.0,6.0,1.0,,,,,,,,,,,,,blau,yellow,g,0.0,g,1.0,0.6354997710004682,,,,,,,,,,1.0,6.0,18.0,7.0,222.99498795100223,,,,,,,,,,,,,,,,,222.99079496400373,223.33586823000223,224.12620096700263,224.12272853600007,,,,,,,,,,,,,,,,,,,,,,,,,,,,,,,,,,,224.12306034599897,224.12620096700263,224.12620096700263,224.76320412699715,g,1.0,0.6354997710004682,,,,,,sub-238,1,stroop_test,,
,,,,19.0,7.0,1.0,,,,,,,,,,,,,rot,red,r,1.0,r,1.0,0.7320829809978022,,,,,,,,,,1.0,7.0,19.0,0.0,224.7691630120025,,,,,,,,,,,,,,,,,224.7634879219986,225.95901000400045,226.75260004099985,226.74572743700264,,,,,,,,,,,,,,,,,,,,,,,,,,,,,,,,,,,226.74787474000183,226.75260004099985,226.75260004099985,227.4904989490024,r,1.0,0.7320829809978022,,,,,,sub-238,1,stroop_test,,
,,,,20.0,8.0,1.0,,,,,,,,,,,,,gelb,yellow,g,1.0,g,1.0,0.8949886339978548,,,,,,,,,,1.0,8.0,20.0,11.0,227.49494637200405,,,,,,,,,,,,,,,,,227.490796488004,228.28599353900063,229.07911965600212,229.07302948299912,,,,,,,,,,,,,,,,,,,,,,,,,,,,,,,,,,,229.07520882799872,229.07911965600212,229.07911965600212,229.9796854390006,g,1.0,0.8949886339978548,,,,,,sub-238,1,stroop_test,,
,,,,21.0,9.0,1.0,,,,,,,,,,,,,rot,yellow,g,0.0,g,1.0,0.6362484779965598,,,,,,,,,,1.0,9.0,21.0,3.0,229.98591032499823,,,,,,,,,,,,,,,,,229.97997058000328,231.17556712600344,231.96926114500093,231.962653513001,,,,,,,,,,,,,,,,,,,,,,,,,,,,,,,,,,,231.9649396840032,231.96926114500093,231.96926114500093,232.60788132699963,g,1.0,0.6362484779965598,,,,,,sub-238,1,stroop_test,,
,,,,22.0,10.0,1.0,,,,,,,,,,,,,blau,blue,b,1.0,b,1.0,0.938014238003234,,,,,,,,,,1.0,10.0,22.0,5.0,232.6123997579998,,,,,,,,,,,,,,,,,232.60816656600215,232.70256833599703,233.49572395400173,233.48961189699912,,,,,,,,,,,,,,,,,,,,,,,,,,,,,,,,,,,233.4918545929977,233.49572395400173,233.49572395400173,234.4403979089984,b,1.0,0.938014238003234,,,,,,sub-238,1,stroop_test,,
,,,,23.0,11.0,1.0,,,,,,,,,,,,,gelb,yellow,g,1.0,g,1.0,1.0729674530011837,,,,,,,,,,1.0,11.0,23.0,10.0,234.44479577900347,,,,,,,,,,,,,,,,,234.44067984200228,235.2360766339989,236.0295476579995,236.02325549800295,,,,,,,,,,,,,,,,,,,,,,,,,,,,,,,,,,,236.0255366850033,236.0295476579995,236.0295476579995,237.10741417900132,g,1.0,1.0729674530011837,,,,,,sub-238,1,stroop_test,,
,,,,24.0,0.0,2.0,,,,,,,,,,,,,gelb,red,r,0.0,r,1.0,0.5771446229991852,,,,,,,,,,2.0,0.0,24.0,8.0,237.11200679100148,,,,,,,,,,,,,,,,,237.10769614900343,237.9027561480034,238.69335381400012,238.68959580999945,,,,,,,,,,,,,,,,,,,,,,,,,,,,,,,,,,,238.68992110100223,238.69335381400012,238.69335381400012,239.27412096300395,r,1.0,0.5771446229991852,,,,,,sub-238,1,stroop_test,,
,,,,25.0,1.0,2.0,,,,,,,,,,,,,blau,blue,b,1.0,b,1.0,0.7800672180019319,,,,,,,,,,2.0,1.0,25.0,5.0,239.27857437800407,,,,,,,,,,,,,,,,,239.27439995299935,239.6194653310013,240.41216493899992,240.4063124750028,,,,,,,,,,,,,,,,,,,,,,,,,,,,,,,,,,,240.408479800004,240.41216493899992,240.41216493899992,241.19613572300293,b,1.0,0.7800672180019319,,,,,,sub-238,1,stroop_test,,
,,,,26.0,2.0,2.0,,,,,,,,,,,,,blau,blue,b,1.0,b,1.0,0.96029517500574,,,,,,,,,,2.0,2.0,26.0,6.0,241.20265619300332,,,,,,,,,,,,,,,,,241.19641579699964,241.99236004600243,242.78610522400413,242.77903888199944,,,,,,,,,,,,,,,,,,,,,,,,,,,,,,,,,,,242.7793671870022,242.78610522400413,242.78610522400413,243.75710324900135,b,1.0,0.96029517500574,,,,,,sub-238,1,stroop_test,,
,,,,27.0,3.0,2.0,,,,,,,,,,,,,rot,red,r,1.0,r,1.0,0.8148016869963612,,,,,,,,,,2.0,3.0,27.0,0.0,243.76161139800388,,,,,,,,,,,,,,,,,243.75738247900156,244.10275707599797,244.89568693099864,244.88982502299768,,,,,,,,,,,,,,,,,,,,,,,,,,,,,,,,,,,244.89197569800308,244.89568693099864,244.89568693099864,245.713509428002,r,1.0,0.8148016869963612,,,,,,sub-238,1,stroop_test,,
,,,,28.0,4.0,2.0,,,,,,,,,,,,,rot,yellow,g,0.0,g,1.0,1.3763653679998242,,,,,,,,,,2.0,4.0,28.0,3.0,245.71934237499957,,,,,,,,,,,,,,,,,245.7137955869985,245.80851184100172,246.6028225350019,246.59491879599955,,,,,,,,,,,,,,,,,,,,,,,,,,,,,,,,,,,246.5952441710033,246.6028225350019,246.6028225350019,247.9903729610014,g,1.0,1.3763653679998242,,,,,,sub-238,1,stroop_test,,
,,,,29.0,5.0,2.0,,,,,,,,,,,,,blau,yellow,g,0.0,g,1.0,1.378561780002201,,,,,,,,,,2.0,5.0,29.0,7.0,247.99481388900315,,,,,,,,,,,,,,,,,247.9906530310036,248.0859853090005,248.87921642699803,248.8731502640003,,,,,,,,,,,,,,,,,,,,,,,,,,,,,,,,,,,248.87536599000305,248.87921642699803,248.87921642699803,250.26380710000376,g,1.0,1.378561780002201,,,,,,sub-238,1,stroop_test,,
,,,,30.0,6.0,2.0,,,,,,,,,,,,,gelb,yellow,g,1.0,g,1.0,0.5184162559962715,,,,,,,,,,2.0,6.0,30.0,10.0,250.2693845670001,,,,,,,,,,,,,,,,,250.2640890179973,250.35873324300337,251.15262849099963,251.14468982000108,,,,,,,,,,,,,,,,,,,,,,,,,,,,,,,,,,,251.1468551459984,251.15262849099963,251.15262849099963,251.67400171900223,g,1.0,0.5184162559962715,,,,,,sub-238,1,stroop_test,,
,,,,31.0,7.0,2.0,,,,,,,,,,,,,gelb,blue,b,0.0,b,1.0,0.6609312240034342,,,,,,,,,,2.0,7.0,31.0,9.0,251.6784479880007,,,,,,,,,,,,,,,,,251.6742896529977,252.46935152500373,253.2602207279997,253.2566207380005,,,,,,,,,,,,,,,,,,,,,,,,,,,,,,,,,,,253.25693102600053,253.2602207279997,253.2602207279997,253.9241397970036,b,1.0,0.6609312240034342,,,,,,sub-238,1,stroop_test,,
,,,,32.0,8.0,2.0,,,,,,,,,,,,,rot,red,r,1.0,r,1.0,0.6675085499955458,,,,,,,,,,2.0,8.0,32.0,1.0,253.9287165310016,,,,,,,,,,,,,,,,,253.9244231440025,254.2694693700032,255.063600786998,255.056664390002,,,,,,,,,,,,,,,,,,,,,,,,,,,,,,,,,,,255.05904289700263,255.063600786998,255.063600786998,255.7403974379995,r,1.0,0.6675085499955458,,,,,,sub-238,1,stroop_test,,
,,,,33.0,9.0,2.0,,,,,,,,,,,,,gelb,yellow,g,1.0,g,1.0,0.563244755998312,,,,,,,,,,2.0,9.0,33.0,11.0,255.74507680600072,,,,,,,,,,,,,,,,,255.7406921389993,256.08627353799966,256.87966996300383,256.87343900900305,,,,,,,,,,,,,,,,,,,,,,,,,,,,,,,,,,,256.87566314900323,256.87966996300383,256.87966996300383,257.4462451400032,g,1.0,0.563244755998312,,,,,,sub-238,1,stroop_test,,
,,,,34.0,10.0,2.0,,,,,,,,,,,,,rot,blue,b,0.0,b,1.0,1.5658108650022768,,,,,,,,,,2.0,10.0,34.0,2.0,257.4526922349978,,,,,,,,,,,,,,,,,257.4465285000042,258.6421798079973,259.436149965004,259.42946789599955,,,,,,,,,,,,,,,,,,,,,,,,,,,,,,,,,,,259.431653353,259.436149965004,259.436149965004,261.00731850900047,b,1.0,1.5658108650022768,,,,,,sub-238,1,stroop_test,,
,,,,35.0,11.0,2.0,,,,,,,,,,,,,blau,red,r,0.0,r,1.0,0.7306331929939915,,,,,,,,,,2.0,11.0,35.0,4.0,261.0118847710037,,,,,,,,,,,,,,,,,261.0075995810039,262.2028779730026,262.9965045740028,262.990335221999,,,,,,,,,,,,,,,,,,,,,,,,,,,,,,,,,,,262.99261546199705,262.9965045740028,262.9965045740028,263.7297088129999,r,1.0,0.7306331929939915,,,,,,sub-238,1,stroop_test,,
,,,,36.0,0.0,3.0,,,,,,,,,,,,,gelb,yellow,g,1.0,g,1.0,1.3993384259956656,,,,,,,,,,3.0,0.0,36.0,10.0,263.7360983489998,,,,,,,,,,,,,,,,,263.729987314,263.8250432729983,264.6195336250021,264.61215481500403,,,,,,,,,,,,,,,,,,,,,,,,,,,,,,,,,,,264.6143115099985,264.6195336250021,264.6195336250021,266.02401863699924,g,1.0,1.3993384259956656,,,,,,sub-238,1,stroop_test,,
,,,,37.0,1.0,3.0,,,,,,,,,,,,,gelb,red,r,0.0,r,1.0,0.9572955409967108,,,,,,,,,,3.0,1.0,37.0,8.0,266.0284896890007,,,,,,,,,,,,,,,,,266.02429925199976,266.8196838040021,267.61947930500173,267.60932423800114,,,,,,,,,,,,,,,,,,,,,,,,,,,,,,,,,,,267.6096551439987,267.61947930500173,267.61947930500173,268.5803258040032,r,1.0,0.9572955409967108,,,,,,sub-238,1,stroop_test,,
,,,,38.0,2.0,3.0,,,,,,,,,,,,,blau,blue,b,1.0,b,1.0,0.734245812993322,,,,,,,,,,3.0,2.0,38.0,5.0,268.58607634800137,,,,,,,,,,,,,,,,,268.58060962900345,269.775532216001,270.56957908400364,270.56312122599775,,,,,,,,,,,,,,,,,,,,,,,,,,,,,,,,,,,270.5653391590022,270.56957908400364,270.56957908400364,271.3073448750001,b,1.0,0.734245812993322,,,,,,sub-238,1,stroop_test,,
,,,,39.0,3.0,3.0,,,,,,,,,,,,,rot,blue,b,0.0,b,1.0,0.8469740110012935,,,,,,,,,,3.0,3.0,39.0,2.0,271.31182873000216,,,,,,,,,,,,,,,,,271.30762556099944,272.10303572200064,272.8959506820029,272.8899963270014,,,,,,,,,,,,,,,,,,,,,,,,,,,,,,,,,,,272.89216353699885,272.8959506820029,272.8959506820029,273.74593553700106,b,1.0,0.8469740110012935,,,,,,sub-238,1,stroop_test,,
,,,,40.0,4.0,3.0,,,,,,,,,,,,,blau,yellow,g,0.0,g,1.0,1.0731194309992134,,,,,,,,,,3.0,4.0,40.0,7.0,273.7527887269971,,,,,,,,,,,,,,,,,273.74621710499923,274.9423503880025,275.7362661060033,275.7292395890036,,,,,,,,,,,,,,,,,,,,,,,,,,,,,,,,,,,275.731433398003,275.7362661060033,275.7362661060033,276.8133251710024,g,1.0,1.0731194309992134,,,,,,sub-238,1,stroop_test,,
,,,,41.0,5.0,3.0,,,,,,,,,,,,,blau,red,r,0.0,r,1.0,1.621500063003623,,,,,,,,,,3.0,5.0,41.0,4.0,276.8195604030043,,,,,,,,,,,,,,,,,276.8136054589995,277.60889413300174,278.40292985900305,278.3959439360042,,,,,,,,,,,,,,,,,,,,,,,,,,,,,,,,,,,278.396271976002,278.40292985900305,278.40292985900305,280.0298765550033,r,1.0,1.621500063003623,,,,,,sub-238,1,stroop_test,,
,,,,42.0,6.0,3.0,,,,,,,,,,,,,rot,red,r,1.0,r,1.0,0.6355368330041529,,,,,,,,,,3.0,6.0,42.0,0.0,280.0362754599992,,,,,,,,,,,,,,,,,280.0301554769976,280.1249951420032,280.9196146070026,280.9118282269992,,,,,,,,,,,,,,,,,,,,,,,,,,,,,,,,,,,280.9139475720003,280.9196146070026,280.9196146070026,281.5580433380019,r,1.0,0.6355368330041529,,,,,,sub-238,1,stroop_test,,
,,,,43.0,7.0,3.0,,,,,,,,,,,,,rot,red,r,1.0,r,1.0,0.7006549770012498,,,,,,,,,,3.0,7.0,43.0,1.0,281.5625869639989,,,,,,,,,,,,,,,,,281.5583337190037,282.3529808329986,283.14366405200417,283.13994298200123,,,,,,,,,,,,,,,,,,,,,,,,,,,,,,,,,,,283.14027134999924,283.14366405200417,283.14366405200417,283.8469707839977,r,1.0,0.7006549770012498,,,,,,sub-238,1,stroop_test,,
,,,,44.0,8.0,3.0,,,,,,,,,,,,,rot,yellow,g,0.0,g,1.0,1.2751399080007104,,,,,,,,,,3.0,8.0,44.0,3.0,283.85289002399804,,,,,,,,,,,,,,,,,283.8472501159995,284.6422968609986,285.43636324500403,285.42904747099965,,,,,,,,,,,,,,,,,,,,,,,,,,,,,,,,,,,285.4293825450004,285.43636324500403,285.43636324500403,286.71385056200234,g,1.0,1.2751399080007104,,,,,,sub-238,1,stroop_test,,
,,,,45.0,9.0,3.0,,,,,,,,,,,,,blau,blue,b,1.0,b,1.0,0.5870852369989734,,,,,,,,,,3.0,9.0,45.0,6.0,286.71952464700007,,,,,,,,,,,,,,,,,286.71413338399725,286.8089478710026,287.6029836969974,287.595902785004,,,,,,,,,,,,,,,,,,,,,,,,,,,,,,,,,,,287.598314431998,287.6029836969974,287.6029836969974,288.1916371490006,b,1.0,0.5870852369989734,,,,,,sub-238,1,stroop_test,,
,,,,46.0,10.0,3.0,,,,,,,,,,,,,gelb,yellow,g,1.0,g,1.0,0.79069416999846,,,,,,,,,,3.0,10.0,46.0,11.0,288.19608534000145,,,,,,,,,,,,,,,,,288.1919198309988,289.38635374300065,290.1800201860024,290.174033381998,,,,,,,,,,,,,,,,,,,,,,,,,,,,,,,,,,,290.1763333109993,290.1800201860024,290.1800201860024,290.97453673400014,g,1.0,0.79069416999846,,,,,,sub-238,1,stroop_test,,
,,,,47.0,11.0,3.0,,,,,,,,,,,,,gelb,blue,b,0.0,b,1.0,0.8919733009970514,,,,,,,,,,3.0,11.0,47.0,9.0,290.97906148999755,,,,,,,,,,,,,,,,,290.974817301998,291.7696561080011,292.560327074003,292.55668840100407,,,,,,,,,,,,,,,,,,,,,,,,,,,,,,,,,,,292.55702044200007,292.560327074003,292.560327074003,293.45739412299736,b,1.0,0.8919733009970514,,,,,,sub-238,1,stroop_test,,
,,,,48.0,0.0,4.0,,,,,,,,,,,,,gelb,blue,b,0.0,b,1.0,1.2926691079992452,,,,,,,,,,4.0,0.0,48.0,9.0,293.4617594220035,,,,,,,,,,,,,,,,,293.45767116999923,294.65318052899966,295.4433794029974,295.43974063600035,,,,,,,,,,,,,,,,,,,,,,,,,,,,,,,,,,,295.4400490819972,295.4433794029974,295.4433794029974,296.74107729900425,b,1.0,1.2926691079992452,,,,,,sub-238,1,stroop_test,,
,,,,49.0,1.0,4.0,,,,,,,,,,,,,gelb,yellow,g,1.0,g,1.0,0.7796666499998537,,,,,,,,,,4.0,1.0,49.0,11.0,296.74560925600235,,,,,,,,,,,,,,,,,296.7413546610041,297.9362954399985,298.72706164500414,298.72330843300006,,,,,,,,,,,,,,,,,,,,,,,,,,,,,,,,,,,298.72363563600084,298.72706164500414,298.72706164500414,299.513682675999,g,1.0,0.7796666499998537,,,,,,sub-238,1,stroop_test,,
,,,,50.0,2.0,4.0,,,,,,,,,,,,,rot,blue,b,0.0,b,1.0,0.8953015220031375,,,,,,,,,,4.0,2.0,50.0,2.0,299.5196922949981,,,,,,,,,,,,,,,,,299.5139669870041,299.8590728769996,300.65312783399713,300.6458938020005,,,,,,,,,,,,,,,,,,,,,,,,,,,,,,,,,,,300.6480788129993,300.65312783399713,300.65312783399713,301.55736303300364,b,1.0,0.8953015220031375,,,,,,sub-238,1,stroop_test,,
,,,,51.0,3.0,4.0,,,,,,,,,,,,,rot,red,r,1.0,r,1.0,0.8502276289946167,,,,,,,,,,4.0,3.0,51.0,0.0,301.5618166630011,,,,,,,,,,,,,,,,,301.5576564660005,302.353114274003,303.1443802979993,303.1405170689977,,,,,,,,,,,,,,,,,,,,,,,,,,,,,,,,,,,303.1408457830039,303.1443802979993,303.1443802979993,303.9968672699979,r,1.0,0.8502276289946167,,,,,,sub-238,1,stroop_test,,
,,,,52.0,4.0,4.0,,,,,,,,,,,,,blau,red,r,0.0,r,1.0,0.7383534440014046,,,,,,,,,,4.0,4.0,52.0,4.0,304.00302222400205,,,,,,,,,,,,,,,,,303.99714477999805,304.79234899899893,305.5864423189996,305.57953381800326,,,,,,,,,,,,,,,,,,,,,,,,,,,,,,,,,,,305.58174702100223,305.5864423189996,305.5864423189996,306.3299117880015,r,1.0,0.7383534440014046,,,,,,sub-238,1,stroop_test,,
,,,,53.0,5.0,4.0,,,,,,,,,,,,,gelb,yellow,g,1.0,b,0.0,1.2651588519947836,,,,,,,,,,4.0,5.0,53.0,10.0,306.33643935200234,,,,,,,,,,,,,,,,,306.33019136000075,306.42522217700025,307.219750147,307.2124383979972,,,,,,,,,,,,,,,,,,,,,,,,,,,,,,,,,,,307.2148370610012,307.219750147,307.219750147,308.4909460650015,b,0.0,1.2651588519947836,,,,,,sub-238,1,stroop_test,,
,,,,54.0,6.0,4.0,,,,,,,,,,,,,blau,blue,b,1.0,g,0.0,0.4204183309993823,,,,,,,,,,4.0,6.0,54.0,6.0,308.4953437380027,,,,,,,,,,,,,,,,,308.49122446500405,309.68653015100426,310.4799131999971,310.47378369099897,,,,,,,,,,,,,,,,,,,,,,,,,,,,,,,,,,,310.4759776380015,310.4799131999971,310.4799131999971,310.90749232500093,g,0.0,0.4204183309993823,,,,,,sub-238,1,stroop_test,,
,,,,55.0,7.0,4.0,,,,,,,,,,,,,rot,red,r,1.0,r,1.0,0.7466667630069423,,,,,,,,,,4.0,7.0,55.0,1.0,310.91201061599713,,,,,,,,,,,,,,,,,310.907770081998,312.10319508700195,312.8961233989976,312.89019330400333,,,,,,,,,,,,,,,,,,,,,,,,,,,,,,,,,,,312.892358735,312.8961233989976,312.8961233989976,313.6471779679996,r,1.0,0.7466667630069423,,,,,,sub-238,1,stroop_test,,
,,,,56.0,8.0,4.0,,,,,,,,,,,,,rot,yellow,g,0.0,g,1.0,1.6304969099946902,,,,,,,,,,4.0,8.0,56.0,3.0,313.6530924170001,,,,,,,,,,,,,,,,,313.64746362000005,314.4427315900029,315.2365995139989,315.2295909320019,,,,,,,,,,,,,,,,,,,,,,,,,,,,,,,,,,,315.2299203799994,315.2365995139989,315.2365995139989,316.87431962600385,g,1.0,1.6304969099946902,,,,,,sub-238,1,stroop_test,,
,,,,57.0,9.0,4.0,,,,,,,,,,,,,gelb,red,r,0.0,r,1.0,0.8706108679980389,,,,,,,,,,4.0,9.0,57.0,8.0,316.8788679459976,,,,,,,,,,,,,,,,,316.8745979239975,316.9697722170022,317.76331740099704,317.7569037830035,,,,,,,,,,,,,,,,,,,,,,,,,,,,,,,,,,,317.75934002600115,317.76331740099704,317.76331740099704,318.6409890970026,r,1.0,0.8706108679980389,,,,,,sub-238,1,stroop_test,,
,,,,58.0,10.0,4.0,,,,,,,,,,,,,blau,yellow,g,0.0,g,1.0,1.484674225001072,,,,,,,,,,4.0,10.0,58.0,7.0,318.64543575100106,,,,,,,,,,,,,,,,,318.6412762370019,319.4368453770003,320.22984901800373,320.2237439669989,,,,,,,,,,,,,,,,,,,,,,,,,,,,,,,,,,,320.2260312569997,320.22984901800373,320.22984901800373,321.72421513299923,g,1.0,1.484674225001072,,,,,,sub-238,1,stroop_test,,
,,,,59.0,11.0,4.0,,,,,,,,,,,,,blau,blue,b,1.0,b,1.0,1.0682734360016184,,,,,,,,,,4.0,11.0,59.0,5.0,321.72869779800385,,,,,,,,,,,,,,,,,321.724498399999,322.9198005360013,323.71071318800387,323.70705548299884,,,,,,,,,,,,,,,,,,,,,,,,,,,,,,,,,,,323.7073796379991,323.71071318800387,323.71071318800387,324.780493459999,b,1.0,1.0682734360016184,,,,,,sub-238,1,stroop_test,,
,,,,60.0,0.0,5.0,,,,,,,,,,,,,blau,yellow,g,0.0,g,1.0,0.9453248610006996,,,,,,,,,,5.0,0.0,60.0,7.0,324.78647826600354,,,,,,,,,,,,,,,,,324.7807788630016,325.12622250999993,325.92004240200185,325.91350166399934,,,,,,,,,,,,,,,,,,,,,,,,,,,,,,,,,,,325.91384363399993,325.92004240200185,325.92004240200185,326.87407584200264,g,1.0,0.9453248610006996,,,,,,sub-238,1,stroop_test,,
,,,,61.0,1.0,5.0,,,,,,,,,,,,,rot,yellow,g,0.0,g,1.0,0.7194612300008885,,,,,,,,,,5.0,1.0,61.0,3.0,326.87866885199765,,,,,,,,,,,,,,,,,326.8743576630004,326.96985136900184,327.7632234650009,327.7570983309997,,,,,,,,,,,,,,,,,,,,,,,,,,,,,,,,,,,327.75933136000094,327.7632234650009,327.7632234650009,328.4909105350016,g,1.0,0.7194612300008885,,,,,,sub-238,1,stroop_test,,
,,,,62.0,2.0,5.0,,,,,,,,,,,,,blau,red,r,0.0,r,1.0,0.6851381090018549,,,,,,,,,,5.0,2.0,62.0,4.0,328.49537896199763,,,,,,,,,,,,,,,,,328.4911888490024,328.58655530800024,329.37990872500086,329.3737495129972,,,,,,,,,,,,,,,,,,,,,,,,,,,,,,,,,,,329.3760450839982,329.37990872500086,329.37990872500086,330.0742377150018,r,1.0,0.6851381090018549,,,,,,sub-238,1,stroop_test,,
,,,,63.0,3.0,5.0,,,,,,,,,,,,,gelb,red,r,0.0,r,1.0,0.5953953490025015,,,,,,,,,,5.0,3.0,63.0,8.0,330.0787811199989,,,,,,,,,,,,,,,,,330.07451729199965,330.4200368009988,331.2130217430022,331.2069212360002,,,,,,,,,,,,,,,,,,,,,,,,,,,,,,,,,,,331.2091300510001,331.2130217430022,331.2130217430022,331.8131692820025,r,1.0,0.5953953490025015,,,,,,sub-238,1,stroop_test,,
,,,,64.0,4.0,5.0,,,,,,,,,,,,,rot,blue,b,0.0,b,1.0,0.9184903700006544,,,,,,,,,,5.0,4.0,64.0,2.0,331.81990263100306,,,,,,,,,,,,,,,,,331.8134468779972,332.1594364039993,332.9532732250009,332.9466941400024,,,,,,,,,,,,,,,,,,,,,,,,,,,,,,,,,,,332.9488536880017,332.9532732250009,332.9532732250009,333.8745231779976,b,1.0,0.9184903700006544,,,,,,sub-238,1,stroop_test,,
,,,,65.0,5.0,5.0,,,,,,,,,,,,,blau,blue,b,1.0,b,1.0,0.4917835660016862,,,,,,,,,,5.0,5.0,65.0,5.0,333.879067752001,,,,,,,,,,,,,,,,,333.8748102539976,335.0700761219996,335.863608671003,335.8571726509981,,,,,,,,,,,,,,,,,,,,,,,,,,,,,,,,,,,335.85968007900374,335.863608671003,335.863608671003,336.3582128900016,b,1.0,0.4917835660016862,,,,,,sub-238,1,stroop_test,,
,,,,66.0,6.0,5.0,,,,,,,,,,,,,gelb,blue,b,0.0,b,1.0,0.5247722069980227,,,,,,,,,,5.0,6.0,66.0,9.0,336.3628519990016,,,,,,,,,,,,,,,,,336.3584932349986,336.703367711998,337.4963937010034,337.4904380970038,,,,,,,,,,,,,,,,,,,,,,,,,,,,,,,,,,,337.49266912999883,337.4963937010034,337.4963937010034,338.0245579339972,b,1.0,0.5247722069980227,,,,,,sub-238,1,stroop_test,,
,,,,67.0,7.0,5.0,,,,,,,,,,,,,rot,red,r,1.0,r,1.0,0.7315546820027521,,,,,,,,,,5.0,7.0,67.0,0.0,338.02908644700074,,,,,,,,,,,,,,,,,338.02483297899744,339.2201072960015,340.01259887799824,340.0066366329993,,,,,,,,,,,,,,,,,,,,,,,,,,,,,,,,,,,340.0088403510017,340.01259887799824,340.01259887799824,340.7476134550016,r,1.0,0.7315546820027521,,,,,,sub-238,1,stroop_test,,
,,,,68.0,8.0,5.0,,,,,,,,,,,,,gelb,yellow,g,1.0,g,1.0,0.5120316239990643,,,,,,,,,,5.0,8.0,68.0,11.0,340.75326539699745,,,,,,,,,,,,,,,,,340.7478919360001,341.5428086480024,342.3367133119973,342.3289548180037,,,,,,,,,,,,,,,,,,,,,,,,,,,,,,,,,,,342.3311681499981,342.3367133119973,342.3367133119973,342.8579267739988,g,1.0,0.5120316239990643,,,,,,sub-238,1,stroop_test,,
,,,,69.0,9.0,5.0,,,,,,,,,,,,,rot,red,r,1.0,r,1.0,0.9759499939973466,,,,,,,,,,5.0,9.0,69.0,1.0,342.86238362899894,,,,,,,,,,,,,,,,,342.8582067000025,344.05338958599896,344.847154162002,344.84084273700137,,,,,,,,,,,,,,,,,,,,,,,,,,,,,,,,,,,344.84324546100106,344.847154162002,344.847154162002,345.8247259630007,r,1.0,0.9759499939973466,,,,,,sub-238,1,stroop_test,,
,,,,70.0,10.0,5.0,,,,,,,,,,,,,gelb,yellow,g,1.0,g,1.0,1.2722283449984388,,,,,,,,,,5.0,10.0,70.0,10.0,345.82924226699834,,,,,,,,,,,,,,,,,345.82502432099864,346.17007600299985,346.9631422110033,346.9570367240012,,,,,,,,,,,,,,,,,,,,,,,,,,,,,,,,,,,346.959255157999,346.9631422110033,346.9631422110033,348.2413846519994,g,1.0,1.2722283449984388,,,,,,sub-238,1,stroop_test,,
,,,,71.0,11.0,5.0,,,,,,,,,,,,,blau,blue,b,1.0,b,1.0,0.6165257370012114,,,,,,,,,,5.0,11.0,71.0,6.0,348.2458904399973,,,,,,,,,,,,,,,,,348.24166558199795,348.586644574003,349.3800172850024,349.373718916002,,,,,,,,,,,,,,,,,,,,,,,,,,,,,,,,,,,349.37615790400014,349.3800172850024,349.3800172850024,349.99810210800206,b,1.0,0.6165257370012114,,,,,,sub-238,1,stroop_test,,
,,,,72.0,0.0,6.0,,,,,,,,,,,,,blau,yellow,g,0.0,g,1.0,0.5364147760046762,,,,,,,,,,6.0,0.0,72.0,7.0,350.0033062259972,,,,,,,,,,,,,,,,,349.99839552999765,350.792641576998,351.586798575001,351.57907404599973,,,,,,,,,,,,,,,,,,,,,,,,,,,,,,,,,,,351.579397956004,351.586798575001,351.586798575001,352.12487738100026,g,1.0,0.5364147760046762,,,,,,sub-238,1,stroop_test,,
,,,,73.0,1.0,6.0,,,,,,,,,,,,,gelb,yellow,g,1.0,g,1.0,0.5331368900006055,,,,,,,,,,6.0,1.0,73.0,10.0,352.12941954500275,,,,,,,,,,,,,,,,,352.12516763599706,353.32017002700013,354.1132552470008,354.1070701360004,,,,,,,,,,,,,,,,,,,,,,,,,,,,,,,,,,,354.1093567959979,354.1132552470008,354.1132552470008,354.6479634970019,g,1.0,0.5331368900006055,,,,,,sub-238,1,stroop_test,,
,,,,74.0,2.0,6.0,,,,,,,,,,,,,rot,blue,b,0.0,b,1.0,0.7677037590037799,,,,,,,,,,6.0,2.0,74.0,2.0,354.6533342519979,,,,,,,,,,,,,,,,,354.64824445200065,355.8427567960025,356.63672350800334,356.62893749999785,,,,,,,,,,,,,,,,,,,,,,,,,,,,,,,,,,,356.63110281099944,356.63672350800334,356.63672350800334,357.4080568729987,b,1.0,0.7677037590037799,,,,,,sub-238,1,stroop_test,,
,,,,75.0,3.0,6.0,,,,,,,,,,,,,gelb,yellow,g,1.0,g,1.0,0.7699685619954835,,,,,,,,,,6.0,3.0,75.0,11.0,357.412441612003,,,,,,,,,,,,,,,,,357.40833661299985,358.20347853699786,358.9965784610031,358.99056057700363,,,,,,,,,,,,,,,,,,,,,,,,,,,,,,,,,,,358.9927755079989,358.9965784610031,358.9965784610031,359.7745538989984,g,1.0,0.7699685619954835,,,,,,sub-238,1,stroop_test,,
,,,,76.0,4.0,6.0,,,,,,,,,,,,,blau,red,r,0.0,r,1.0,0.5753682249996928,,,,,,,,,,6.0,4.0,76.0,4.0,359.7790608430005,,,,,,,,,,,,,,,,,359.77485423000326,360.5702237400037,361.3634605879997,361.3572836710009,,,,,,,,,,,,,,,,,,,,,,,,,,,,,,,,,,,361.3595339309977,361.3634605879997,361.3634605879997,361.941896823002,r,1.0,0.5753682249996928,,,,,,sub-238,1,stroop_test,,
,,,,77.0,5.0,6.0,,,,,,,,,,,,,rot,yellow,g,0.0,g,1.0,1.216307759998017,,,,,,,,,,6.0,5.0,77.0,3.0,361.9464616289988,,,,,,,,,,,,,,,,,361.9422039429992,362.736870367,363.52970817700407,363.5236323019999,,,,,,,,,,,,,,,,,,,,,,,,,,,,,,,,,,,363.5258185940038,363.52970817700407,363.52970817700407,364.74745640499896,g,1.0,1.216307759998017,,,,,,sub-238,1,stroop_test,,
,,,,78.0,6.0,6.0,,,,,,,,,,,,,blau,blue,b,1.0,b,1.0,0.840218109995476,,,,,,,,,,6.0,6.0,78.0,5.0,364.7533637849992,,,,,,,,,,,,,,,,,364.7477383250007,365.5427419129992,366.3369024540007,366.3299317760029,,,,,,,,,,,,,,,,,,,,,,,,,,,,,,,,,,,366.332146726003,366.3369024540007,366.3369024540007,367.180478702001,b,1.0,0.840218109995476,,,,,,sub-238,1,stroop_test,,
,,,,79.0,7.0,6.0,,,,,,,,,,,,,gelb,blue,b,0.0,b,1.0,0.6386987720034085,,,,,,,,,,6.0,7.0,79.0,9.0,367.1868356269988,,,,,,,,,,,,,,,,,367.1807564780029,367.2755570549998,368.07018873500056,368.0631978899983,,,,,,,,,,,,,,,,,,,,,,,,,,,,,,,,,,,368.0653471990008,368.07018873500056,368.07018873500056,368.71386324599735,b,1.0,0.6386987720034085,,,,,,sub-238,1,stroop_test,,
,,,,80.0,8.0,6.0,,,,,,,,,,,,,blau,blue,b,1.0,b,1.0,0.441592273004062,,,,,,,,,,6.0,8.0,80.0,6.0,368.7201736089992,,,,,,,,,,,,,,,,,368.7141423819994,369.05959539899777,369.8535461510037,369.8469821500039,,,,,,,,,,,,,,,,,,,,,,,,,,,,,,,,,,,369.84916651000094,369.8535461510037,369.8535461510037,370.2976662919973,b,1.0,0.441592273004062,,,,,,sub-238,1,stroop_test,,
,,,,81.0,9.0,6.0,,,,,,,,,,,,,rot,red,r,1.0,r,1.0,0.7555066709974199,,,,,,,,,,6.0,9.0,81.0,1.0,370.3034107179992,,,,,,,,,,,,,,,,,370.2979464140008,370.3923262600001,371.186869944002,371.1799876509977,,,,,,,,,,,,,,,,,,,,,,,,,,,,,,,,,,,371.1824114769988,371.186869944002,371.186869944002,371.9470101449988,r,1.0,0.7555066709974199,,,,,,sub-238,1,stroop_test,,
,,,,82.0,10.0,6.0,,,,,,,,,,,,,gelb,red,r,0.0,r,1.0,0.5354810370045016,,,,,,,,,,6.0,10.0,82.0,8.0,371.9535152520039,,,,,,,,,,,,,,,,,371.9472984399981,372.0425714489975,372.8369260510008,372.8296728159985,,,,,,,,,,,,,,,,,,,,,,,,,,,,,,,,,,,372.8318483390031,372.8369260510008,372.8369260510008,373.3750148320032,r,1.0,0.5354810370045016,,,,,,sub-238,1,stroop_test,,
,,,,83.0,11.0,6.0,,,,,,,,,,,,,rot,red,r,1.0,r,1.0,0.6365522459964268,,,,,,,,,,6.0,11.0,83.0,0.0,373.37948740900174,,,,,,,,,,,,,,,,,373.3752939059996,374.17055009100295,374.9633108300041,374.9570184679978,,,,,,,,,,,,,,,,,,,,,,,,,,,,,,,,,,,374.9594506529975,374.9633108300041,374.9633108300041,375.6080845739998,r,1.0,0.6365522459964268,,,,,,sub-238,1,stroop_test,,
,,,,84.0,0.0,7.0,,,,,,,,,,,,,gelb,red,r,0.0,r,1.0,0.5749400130007416,,,,,,,,,,7.0,0.0,84.0,8.0,375.6125562000016,,,,,,,,,,,,,,,,,375.6083616660035,376.40357690100063,377.1970576660024,377.1906352980004,,,,,,,,,,,,,,,,,,,,,,,,,,,,,,,,,,,377.1930509649974,377.1970576660024,377.1970576660024,377.7752315990001,r,1.0,0.5749400130007416,,,,,,sub-238,1,stroop_test,,
,,,,85.0,1.0,7.0,,,,,,,,,,,,,blau,blue,b,1.0,b,1.0,0.9343942679988686,,,,,,,,,,7.0,1.0,85.0,5.0,377.779788165004,,,,,,,,,,,,,,,,,377.7755090069986,377.87011879099737,378.6633927840012,378.6572498430032,,,,,,,,,,,,,,,,,,,,,,,,,,,,,,,,,,,378.65968744899874,378.6633927840012,378.6633927840012,379.6080631959994,b,1.0,0.9343942679988686,,,,,,sub-238,1,stroop_test,,
,,,,86.0,2.0,7.0,,,,,,,,,,,,,rot,blue,b,0.0,b,1.0,0.4435853850009152,,,,,,,,,,7.0,2.0,86.0,2.0,379.6125773219974,,,,,,,,,,,,,,,,,379.6083454890031,379.703529765,380.4964888440009,380.49060853099945,,,,,,,,,,,,,,,,,,,,,,,,,,,,,,,,,,,380.4927742880027,380.4964888440009,380.4964888440009,380.9416545280037,b,1.0,0.4435853850009152,,,,,,sub-238,1,stroop_test,,
,,,,87.0,3.0,7.0,,,,,,,,,,,,,gelb,yellow,g,1.0,g,1.0,0.6015385169957881,,,,,,,,,,7.0,3.0,87.0,10.0,380.946197340003,,,,,,,,,,,,,,,,,380.9419469249988,381.73708232100034,382.5302207370041,382.52413750399865,,,,,,,,,,,,,,,,,,,,,,,,,,,,,,,,,,,382.52638993500295,382.5302207370041,382.5302207370041,383.14130949899845,g,1.0,0.6015385169957881,,,,,,sub-238,1,stroop_test,,
,,,,88.0,4.0,7.0,,,,,,,,,,,,,gelb,blue,b,0.0,b,1.0,0.8180792339990148,,,,,,,,,,7.0,4.0,88.0,9.0,383.146093702002,,,,,,,,,,,,,,,,,383.1415980620004,383.2368398239996,384.027939919004,384.0242438159985,,,,,,,,,,,,,,,,,,,,,,,,,,,,,,,,,,,384.0245774880023,384.027939919004,384.027939919004,384.8475631500041,b,1.0,0.8180792339990148,,,,,,sub-238,1,stroop_test,,
,,,,89.0,5.0,7.0,,,,,,,,,,,,,rot,red,r,1.0,r,1.0,0.6114291389967548,,,,,,,,,,7.0,5.0,89.0,0.0,384.8535703730013,,,,,,,,,,,,,,,,,384.8478449270042,385.643317383001,386.43701023500034,386.4293297190016,,,,,,,,,,,,,,,,,,,,,,,,,,,,,,,,,,,386.4314712069972,386.43701023500034,386.43701023500034,387.05802830599714,r,1.0,0.6114291389967548,,,,,,sub-238,1,stroop_test,,
,,,,90.0,6.0,7.0,,,,,,,,,,,,,rot,red,r,1.0,r,1.0,0.5333480870031053,,,,,,,,,,7.0,6.0,90.0,1.0,387.0623978430013,,,,,,,,,,,,,,,,,387.0583048480039,387.8537233610041,388.6443398379997,388.6405586460023,,,,,,,,,,,,,,,,,,,,,,,,,,,,,,,,,,,388.6408854859983,388.6443398379997,388.6443398379997,389.1810955920009,r,1.0,0.5333480870031053,,,,,,sub-238,1,stroop_test,,
,,,,91.0,7.0,7.0,,,,,,,,,,,,,rot,yellow,g,0.0,g,1.0,0.8884853839990683,,,,,,,,,,7.0,7.0,91.0,3.0,389.1868459000034,,,,,,,,,,,,,,,,,389.1813767190033,389.5264999499996,390.3204862249986,390.31284587400296,,,,,,,,,,,,,,,,,,,,,,,,,,,,,,,,,,,390.31318729699706,390.3204862249986,390.3204862249986,391.214507441,g,1.0,0.8884853839990683,,,,,,sub-238,1,stroop_test,,
,,,,92.0,8.0,7.0,,,,,,,,,,,,,blau,red,r,0.0,r,1.0,1.1201974869982223,,,,,,,,,,7.0,8.0,92.0,4.0,391.2202150890007,,,,,,,,,,,,,,,,,391.2147924230012,392.009697280002,392.8037294949973,392.7963696450024,,,,,,,,,,,,,,,,,,,,,,,,,,,,,,,,,,,392.798578711001,392.8037294949973,392.8037294949973,393.9300514159986,r,1.0,1.1201974869982223,,,,,,sub-238,1,stroop_test,,
,,,,93.0,9.0,7.0,,,,,,,,,,,,,gelb,yellow,g,1.0,g,1.0,1.330969164002454,,,,,,,,,,7.0,9.0,93.0,11.0,393.93697826199787,,,,,,,,,,,,,,,,,393.9303294429992,395.1263443350035,395.92037905200414,395.9138570029973,,,,,,,,,,,,,,,,,,,,,,,,,,,,,,,,,,,395.91631460400095,395.92037905200414,395.92037905200414,397.2583057299999,g,1.0,1.330969164002454,,,,,,sub-238,1,stroop_test,,
,,,,94.0,10.0,7.0,,,,,,,,,,,,,blau,blue,b,1.0,b,1.0,0.838289724997594,,,,,,,,,,7.0,10.0,94.0,6.0,397.2628805920031,,,,,,,,,,,,,,,,,397.2585919350022,398.4538013229976,399.2467769799987,399.24071902300057,,,,,,,,,,,,,,,,,,,,,,,,,,,,,,,,,,,399.2428658990029,399.2467769799987,399.2467769799987,400.0917386479996,b,1.0,0.838289724997594,,,,,,sub-238,1,stroop_test,,
,,,,95.0,11.0,7.0,,,,,,,,,,,,,blau,yellow,g,0.0,g,1.0,1.019584241999837,,,,,,,,,,7.0,11.0,95.0,7.0,400.0962921000028,,,,,,,,,,,,,,,,,400.0920152690014,400.8870899169997,401.67789302299934,401.6742268980015,,,,,,,,,,,,,,,,,,,,,,,,,,,,,,,,,,,401.6745548580002,401.67789302299934,401.67789302299934,402.7081290589995,g,1.0,1.019584241999837,,,,,,sub-238,1,stroop_test,,
,,,,96.0,0.0,8.0,,,,,,,,,,,,,rot,blue,b,0.0,b,1.0,1.1126770639966708,,,,,,,,,,8.0,0.0,96.0,2.0,402.7126348130041,,,,,,,,,,,,,,,,,402.7084093399972,403.0538562790025,403.846815433004,403.84074130700174,,,,,,,,,,,,,,,,,,,,,,,,,,,,,,,,,,,403.8429028649989,403.846815433004,403.846815433004,404.96348024100007,b,1.0,1.1126770639966708,,,,,,sub-238,1,stroop_test,,
,,,,97.0,1.0,8.0,,,,,,,,,,,,,rot,red,r,1.0,r,1.0,0.8382804609937011,,,,,,,,,,8.0,1.0,97.0,1.0,404.9705979010032,,,,,,,,,,,,,,,,,404.9637601470022,405.05942365300143,405.853761987004,405.846887796004,,,,,,,,,,,,,,,,,,,,,,,,,,,,,,,,,,,405.84721166300005,405.853761987004,405.853761987004,406.6973242390013,r,1.0,0.8382804609937011,,,,,,sub-238,1,stroop_test,,
,,,,98.0,2.0,8.0,,,,,,,,,,,,,blau,red,r,0.0,r,1.0,0.7579639139948995,,,,,,,,,,8.0,2.0,98.0,4.0,406.7037136299987,,,,,,,,,,,,,,,,,406.6976068520016,406.7925971799996,407.5871153949993,407.57986553999945,,,,,,,,,,,,,,,,,,,,,,,,,,,,,,,,,,,407.5821070059974,407.5871153949993,407.5871153949993,408.3476031699975,r,1.0,0.7579639139948995,,,,,,sub-238,1,stroop_test,,
,,,,99.0,3.0,8.0,,,,,,,,,,,,,blau,blue,b,1.0,b,1.0,0.7466629179980373,,,,,,,,,,8.0,3.0,99.0,5.0,408.3536971220019,,,,,,,,,,,,,,,,,408.3478800910016,409.1430031100026,409.9371883709973,409.9296560340008,,,,,,,,,,,,,,,,,,,,,,,,,,,,,,,,,,,409.9299858680024,409.9371883709973,409.9371883709973,410.6913566700023,b,1.0,0.7466629179980373,,,,,,sub-238,1,stroop_test,,
,,,,100.0,4.0,8.0,,,,,,,,,,,,,gelb,yellow,g,1.0,g,1.0,0.6926211649988545,,,,,,,,,,8.0,4.0,100.0,11.0,410.6957778590004,,,,,,,,,,,,,,,,,410.6916411229977,411.88719954300177,412.680290297998,412.6741272200016,,,,,,,,,,,,,,,,,,,,,,,,,,,,,,,,,,,412.6763428330014,412.680290297998,412.680290297998,413.3750385919993,g,1.0,0.6926211649988545,,,,,,sub-238,1,stroop_test,,
,,,,101.0,5.0,8.0,,,,,,,,,,,,,rot,red,r,1.0,r,1.0,0.801877132995287,,,,,,,,,,8.0,5.0,101.0,0.0,413.3795180189991,,,,,,,,,,,,,,,,,413.375320788,414.5705938379979,415.3639513399976,415.35787914699904,,,,,,,,,,,,,,,,,,,,,,,,,,,,,,,,,,,415.360129982997,415.3639513399976,415.3639513399976,416.17483014999743,r,1.0,0.801877132995287,,,,,,sub-238,1,stroop_test,,
,,,,102.0,6.0,8.0,,,,,,,,,,,,,gelb,red,r,0.0,r,1.0,1.1326774100016337,,,,,,,,,,8.0,6.0,102.0,8.0,416.1793177849977,,,,,,,,,,,,,,,,,416.1751143700021,417.37050408100185,418.1635254580033,418.1574442549973,,,,,,,,,,,,,,,,,,,,,,,,,,,,,,,,,,,418.15961040899856,418.1635254580033,418.1635254580033,419.3075309170017,r,1.0,1.1326774100016337,,,,,,sub-238,1,stroop_test,,
,,,,103.0,7.0,8.0,,,,,,,,,,,,,blau,blue,b,1.0,b,1.0,0.8327658440030064,,,,,,,,,,8.0,7.0,103.0,6.0,419.3120572230037,,,,,,,,,,,,,,,,,419.30780930400215,420.50389888000063,421.29711038000096,421.2910093649989,,,,,,,,,,,,,,,,,,,,,,,,,,,,,,,,,,,421.2931735730017,421.29711038000096,421.29711038000096,422.1408053129999,b,1.0,0.8327658440030064,,,,,,sub-238,1,stroop_test,,
,,,,104.0,8.0,8.0,,,,,,,,,,,,,gelb,blue,b,0.0,b,1.0,0.6635469430038938,,,,,,,,,,8.0,8.0,104.0,9.0,422.14528267399874,,,,,,,,,,,,,,,,,422.14108226799726,422.9373094199982,423.7302977049985,423.7241661739972,,,,,,,,,,,,,,,,,,,,,,,,,,,,,,,,,,,423.72633555399807,423.7302977049985,423.7302977049985,424.39800970500073,b,1.0,0.6635469430038938,,,,,,sub-238,1,stroop_test,,
,,,,105.0,9.0,8.0,,,,,,,,,,,,,blau,yellow,g,0.0,g,1.0,0.7660678539978107,,,,,,,,,,8.0,9.0,105.0,7.0,424.40379591999954,,,,,,,,,,,,,,,,,424.39828543399926,425.59362828399753,426.3873059280013,426.3798635499989,,,,,,,,,,,,,,,,,,,,,,,,,,,,,,,,,,,426.3820572050026,426.3873059280013,426.3873059280013,427.1584677740029,g,1.0,0.7660678539978107,,,,,,sub-238,1,stroop_test,,
,,,,106.0,10.0,8.0,,,,,,,,,,,,,gelb,yellow,g,1.0,g,1.0,0.5422538999991957,,,,,,,,,,8.0,10.0,106.0,10.0,427.1630008810025,,,,,,,,,,,,,,,,,427.1587502960029,427.9539825399988,428.7471165640018,428.7410999260028,,,,,,,,,,,,,,,,,,,,,,,,,,,,,,,,,,,428.7432967360001,428.7471165640018,428.7471165640018,429.2922387330036,g,1.0,0.5422538999991957,,,,,,sub-238,1,stroop_test,,
,,,,107.0,11.0,8.0,,,,,,,,,,,,,rot,yellow,g,0.0,g,1.0,0.6767593089971342,,,,,,,,,,8.0,11.0,107.0,3.0,429.2967311600005,,,,,,,,,,,,,,,,,429.2925339529975,430.08735820400034,430.8803099729994,430.87430027100345,,,,,,,,,,,,,,,,,,,,,,,,,,,,,,,,,,,430.876446332004,430.8803099729994,430.8803099729994,431.5591586860028,g,1.0,0.6767593089971342,,,,,,sub-238,1,stroop_test,,
,,,,108.0,0.0,9.0,,,,,,,,,,,,,rot,yellow,g,0.0,g,1.0,0.5778833090007538,,,,,,,,,,9.0,0.0,108.0,3.0,431.5638579680017,,,,,,,,,,,,,,,,,431.5594547500005,431.653864300999,432.44458755099913,432.4408435330042,,,,,,,,,,,,,,,,,,,,,,,,,,,,,,,,,,,432.4411684220031,432.44458755099913,432.44458755099913,433.0253017290015,g,1.0,0.5778833090007538,,,,,,sub-238,1,stroop_test,,
,,,,109.0,1.0,9.0,,,,,,,,,,,,,rot,red,r,1.0,r,1.0,0.6673732880008174,,,,,,,,,,9.0,1.0,109.0,1.0,433.02987236800254,,,,,,,,,,,,,,,,,433.0255819189988,434.2206471370009,435.0112551290004,435.0076189660031,,,,,,,,,,,,,,,,,,,,,,,,,,,,,,,,,,,435.00795234100224,435.0112551290004,435.0112551290004,435.6812080489981,r,1.0,0.6673732880008174,,,,,,sub-238,1,stroop_test,,
,,,,110.0,2.0,9.0,,,,,,,,,,,,,gelb,yellow,g,1.0,g,1.0,0.7204472200028249,,,,,,,,,,9.0,2.0,110.0,10.0,435.6872175430035,,,,,,,,,,,,,,,,,435.68149855900265,436.8767287829978,437.67056089999824,437.6642527279983,,,,,,,,,,,,,,,,,,,,,,,,,,,,,,,,,,,437.6664590250002,437.67056089999824,437.67056089999824,438.3975360339973,g,1.0,0.7204472200028249,,,,,,sub-238,1,stroop_test,,
,,,,111.0,3.0,9.0,,,,,,,,,,,,,blau,yellow,g,0.0,g,1.0,0.6129808749974472,,,,,,,,,,9.0,3.0,111.0,7.0,438.4039978080036,,,,,,,,,,,,,,,,,438.3978131660042,439.19350620700425,439.9874680020002,439.9807528349993,,,,,,,,,,,,,,,,,,,,,,,,,,,,,,,,,,,439.982942487004,439.9874680020002,439.9874680020002,440.60838318199967,g,1.0,0.6129808749974472,,,,,,sub-238,1,stroop_test,,
,,,,112.0,4.0,9.0,,,,,,,,,,,,,rot,red,r,1.0,r,1.0,0.8482669810036896,,,,,,,,,,9.0,4.0,112.0,0.0,440.6128516030003,,,,,,,,,,,,,,,,,440.6086738040031,441.4040852079997,442.19714729300176,442.1910553839989,,,,,,,,,,,,,,,,,,,,,,,,,,,,,,,,,,,442.1932169799984,442.19714729300176,442.19714729300176,443.0482196649973,r,1.0,0.8482669810036896,,,,,,sub-238,1,stroop_test,,
,,,,113.0,5.0,9.0,,,,,,,,,,,,,blau,red,r,0.0,r,1.0,0.723957223999605,,,,,,,,,,9.0,5.0,113.0,4.0,443.0539147730015,,,,,,,,,,,,,,,,,443.0484999429973,443.14273078599945,443.9373395880029,443.9305125090032,,,,,,,,,,,,,,,,,,,,,,,,,,,,,,,,,,,443.9327159309978,443.9373395880029,443.9373395880029,444.66447660599806,r,1.0,0.723957223999605,,,,,,sub-238,1,stroop_test,,
,,,,114.0,6.0,9.0,,,,,,,,,,,,,blau,blue,b,1.0,b,1.0,0.6864979419988231,,,,,,,,,,9.0,6.0,114.0,5.0,444.6706365470018,,,,,,,,,,,,,,,,,444.6647632439999,445.859884917998,446.6541014190007,446.6471123579977,,,,,,,,,,,,,,,,,,,,,,,,,,,,,,,,,,,446.6474451210015,446.6541014190007,446.6541014190007,447.3421425580018,b,1.0,0.6864979419988231,,,,,,sub-238,1,stroop_test,,
,,,,115.0,7.0,9.0,,,,,,,,,,,,,gelb,red,r,0.0,r,1.0,2.0761251720032305,,,,,,,,,,9.0,7.0,115.0,8.0,447.3466454329973,,,,,,,,,,,,,,,,,447.3424262519984,448.1374905210032,448.9307134310002,448.9244061709978,,,,,,,,,,,,,,,,,,,,,,,,,,,,,,,,,,,448.9266217269978,448.9307134310002,448.9307134310002,451.0088202469997,r,1.0,2.0761251720032305,,,,,,sub-238,1,stroop_test,,
,,,,116.0,8.0,9.0,,,,,,,,,,,,,gelb,blue,b,0.0,g,0.0,3.637607119002496,,,,,,,,,,9.0,8.0,116.0,9.0,451.0133593110004,,,,,,,,,,,,,,,,,451.0091041790001,451.35420271500334,452.1444592070038,452.1408672359976,,,,,,,,,,,,,,,,,,,,,,,,,,,,,,,,,,,452.141199234,452.1444592070038,452.1444592070038,455.79194872300286,g,0.0,3.637607119002496,,,,,,sub-238,1,stroop_test,,
,,,,117.0,9.0,9.0,,,,,,,,,,,,,rot,blue,b,0.0,r,0.0,0.7972385579996626,,,,,,,,,,9.0,9.0,117.0,2.0,455.7963441309985,,,,,,,,,,,,,,,,,455.7922314800017,456.1374699829976,456.9304633499996,456.9245062850023,,,,,,,,,,,,,,,,,,,,,,,,,,,,,,,,,,,456.9266519579978,456.9304633499996,456.9304633499996,457.73082802099816,r,0.0,0.7972385579996626,,,,,,sub-238,1,stroop_test,,
,,,,118.0,10.0,9.0,,,,,,,,,,,,,gelb,yellow,g,1.0,g,1.0,2.271058295998955,,,,,,,,,,9.0,10.0,118.0,11.0,457.737391886003,,,,,,,,,,,,,,,,,457.7311168770029,457.8265425819991,458.6207685839981,458.61313338999753,,,,,,,,,,,,,,,,,,,,,,,,,,,,,,,,,,,458.615516853999,458.6207685839981,458.6207685839981,460.8977320850026,g,1.0,2.271058295998955,,,,,,sub-238,1,stroop_test,,
,,,,119.0,11.0,9.0,,,,,,,,,,,,,blau,blue,b,1.0,b,1.0,1.115429668003344,,,,,,,,,,9.0,11.0,119.0,6.0,460.9040556289983,,,,,,,,,,,,,,,,,460.89801211000304,460.9934126610024,461.7874697020016,461.7801381360041,,,,,,,,,,,,,,,,,,,,,,,,,,,,,,,,,,,461.782322084,461.7874697020016,461.7874697020016,462.90895635700144,b,1.0,1.115429668003344,,,,,,sub-238,1,stroop_test,,
,,,,,,,,,,,,,,,,,,,,,,,,,,,,,,,,,,,,,,,,,,,,,,,,,,,,,,,,,,,,,,,,,,,,,,,,,,,,,,,,,,,,,,,,,,,,,,,,,,,,,,462.9091912380027,462.9156493039991,467.9102555520003,467.90805644600186,sub-238,1,stroop_test,,
