wordCTK,colorCTK,corrAnsCTK,congruentCTK,thisN,thisTrialN,thisRepN,keyResp_CTK.keys,keyResp_CTK.corr,keyResp_CTK.rt,keyResp_CTK.duration,wordPractice,colorPractice,corrAnsPractice,congruentPractice,respPractice.keys,respPractice.corr,respPractice.rt,respPractice.duration,word,color,corrAns,congruent,keyResp_test_run.keys,keyResp_test_run.corr,keyResp_test_run.rt,keyResp_test_run.duration,trials_CTK.thisRepN,trials_CTK.thisTrialN,trials_CTK.thisN,trials_CTK.thisIndex,trials_practice.thisRepN,trials_practice.thisTrialN,trials_practice.thisN,trials_practice.thisIndex,trials_test.thisRepN,trials_test.thisTrialN,trials_test.thisN,trials_test.thisIndex,thisRow.t,notes,instruction.started,instr_text.started,instr_image.started,instr_resp.started,instruction.stopped,instr_resp.keys,instr_resp.rt,instr_resp.duration,instr_color_to_key.started,instr_ctk.started,resp_ctk.started,instr_color_to_key.stopped,resp_ctk.keys,resp_ctk.rt,resp_ctk.duration,ITI.started,fixcross.started,fixcross.stopped,ITI.stopped,color_to_key_run.started,stimulus_CTK.started,keyResp_CTK.started,color_to_key_run.stopped,trials_CTK.keyResp_CTK.keys,trials_CTK.keyResp_CTK.corr,trials_CTK.keyResp_CTK.rt,trials_CTK.keyResp_CTK.duration,instr_practice.started,instr_practice_text.started,instr_practice_resp.started,instr_practice.stopped,instr_practice_resp.keys,instr_practice_resp.rt,instr_practice_resp.duration,practice_run.started,stimulus_practice.started,respPractice.started,practice_run.stopped,trials_practice.respPractice.keys,trials_practice.respPractice.corr,trials_practice.respPractice.rt,trials_practice.respPractice.duration,feedback.started,textFeedback.started,feedback.stopped,textFeedback.stopped,instr_test.started,instr_test_text.started,instr_test_resp.started,instr_test.stopped,instr_test_resp.keys,instr_test_resp.rt,instr_test_resp.duration,test_run.started,stimulus_test_run.started,keyResp_test_run.started,test_run.stopped,trials_test.keyResp_test_run.keys,trials_test.keyResp_test_run.corr,trials_test.keyResp_test_run.rt,trials_test.keyResp_test_run.duration,goodbye.started,textGoodbye.started,textGoodbye.stopped,goodbye.stopped,participant,session,expName,frameRate,Unnamed: 113
,,,,,,,,,,,,,,,,,,,,,,,,,,,,,,,,,,,,,,,,,0.010246291000044,0.0680320410000376,0.0680320410000376,0.0680320410000376,33.93420025,space,33.81151554200005,,,,,,,,,,,,,,,,,,,,,,,,,,,,,,,,,,,,,,,,,,,,,,,,,,,,,,,,,,,sub-144,1,stroop_test,121.45570836421156,
,,,,,,,,,,,,,,,,,,,,,,,,,,,,,,,,,,,,,,,,,,,,,,,,,33.93451579099997,33.94345562499996,33.94345562499996,41.43486849999999,space,7.480895457999964,,,,,,,,,,,,,,,,,,,,,,,,,,,,,,,,,,,,,,,,,,,,,,,,,,,,sub-144,1,stroop_test,121.45570836421156,
test,red,r,1.0,0.0,0.0,0.0,r,1.0,0.9029739590000644,,,,,,,,,,,,,,,,,,0.0,0.0,0.0,0.0,,,,,,,,,41.465565665999975,,,,,,,,,,,,,,,,,41.45709662499996,41.78641754099999,42.58956720800006,42.57388579100007,42.58242258300004,42.58956720800006,42.58956720800006,43.502704041000015,r,1.0,0.9029739590000644,,,,,,,,,,,,,,,,,,,,,,,,,,,,,,,,,,,,,,,,sub-144,1,stroop_test,121.45570836421156,
test,blue,b,1.0,1.0,1.0,0.0,b,1.0,0.6771612910000613,,,,,,,,,,,,,,,,,,0.0,1.0,1.0,2.0,,,,,,,,,43.51197804100002,,,,,,,,,,,,,,,,,43.50310508300004,43.850717541,44.64251170800003,44.634688083000015,44.63536366599999,44.64251170800003,44.64251170800003,45.32574875,b,1.0,0.6771612910000613,,,,,,,,,,,,,,,,,,,,,,,,,,,,,,,,,,,,,,,,sub-144,1,stroop_test,121.45570836421156,
test,yellow,g,1.0,2.0,2.0,0.0,g,1.0,0.5472618329999932,,,,,,,,,,,,,,,,,,0.0,2.0,2.0,1.0,,,,,,,,,45.35038204099999,,,,,,,,,,,,,,,,,45.32612429100004,45.67442337500006,46.476345541,46.46808250000004,46.46878737500003,46.476345541,46.476345541,47.025850582999965,g,1.0,0.5472618329999932,,,,,,,,,,,,,,,,,,,,,,,,,,,,,,,,,,,,,,,,sub-144,1,stroop_test,121.45570836421156,
test,yellow,g,1.0,3.0,0.0,1.0,g,1.0,0.5504774580000458,,,,,,,,,,,,,,,,,,1.0,0.0,3.0,1.0,,,,,,,,,47.05048525000007,,,,,,,,,,,,,,,,,47.02625375000002,47.82449920800002,48.626132708,48.61810933300001,48.61875362500007,48.626132708,48.626132708,49.186325958,g,1.0,0.5504774580000458,,,,,,,,,,,,,,,,,,,,,,,,,,,,,,,,,,,,,,,,sub-144,1,stroop_test,121.45570836421156,
test,blue,b,1.0,4.0,1.0,1.0,b,1.0,0.608677082999975,,,,,,,,,,,,,,,,,,1.0,1.0,4.0,2.0,,,,,,,,,49.195464000000015,,,,,,,,,,,,,,,,,49.18678124999997,49.984179875,50.77638854099996,50.76830608299997,50.76902345799999,50.77638854099996,50.77638854099996,51.39759837500003,b,1.0,0.608677082999975,,,,,,,,,,,,,,,,,,,,,,,,,,,,,,,,,,,,,,,,sub-144,1,stroop_test,121.45570836421156,
test,red,r,1.0,5.0,2.0,1.0,r,1.0,0.5516704579999896,,,,,,,,,,,,,,,,,,1.0,2.0,5.0,0.0,,,,,,,,,51.402294708,,,,,,,,,,,,,,,,,51.39799229100004,51.74134600000002,52.533927791,52.52447325000003,52.52511095800003,52.533927791,52.533927791,53.09210970800007,r,1.0,0.5516704579999896,,,,,,,,,,,,,,,,,,,,,,,,,,,,,,,,,,,,,,,,sub-144,1,stroop_test,121.45570836421156,
test,red,r,1.0,6.0,0.0,2.0,r,1.0,0.5859802919999311,,,,,,,,,,,,,,,,,,2.0,0.0,6.0,0.0,,,,,,,,,53.10130408300006,,,,,,,,,,,,,,,,,53.09247349999998,53.19067029100006,53.983785416000046,53.97357041600003,53.97422300000005,53.983785416000046,53.983785416000046,54.57561954100004,r,1.0,0.5859802919999311,,,,,,,,,,,,,,,,,,,,,,,,,,,,,,,,,,,,,,,,sub-144,1,stroop_test,121.45570836421156,
test,yellow,g,1.0,7.0,1.0,2.0,g,1.0,0.5500114580000854,,,,,,,,,,,,,,,,,,2.0,1.0,7.0,1.0,,,,,,,,,54.58463387500001,,,,,,,,,,,,,,,,,54.576003291000006,54.67497624999999,55.46739445800006,55.458060875,55.45872929100005,55.46739445800006,55.46739445800006,56.01972133300001,g,1.0,0.5500114580000854,,,,,,,,,,,,,,,,,,,,,,,,,,,,,,,,,,,,,,,,sub-144,1,stroop_test,121.45570836421156,
test,blue,b,1.0,8.0,2.0,2.0,b,1.0,0.4782956669999976,,,,,,,,,,,,,,,,,,2.0,2.0,8.0,2.0,,,,,,,,,56.02559879099999,,,,,,,,,,,,,,,,,56.02011095800003,56.81796541599999,57.60960908300001,57.60167270800002,57.60233041599997,57.60960908300001,57.60960908300001,58.092047750000006,b,1.0,0.4782956669999976,,,,,,,,,,,,,,,,,,,,,,,,,,,,,,,,,,,,,,,,sub-144,1,stroop_test,121.45570836421156,
test,yellow,g,1.0,9.0,0.0,3.0,g,1.0,0.5785136670000384,,,,,,,,,,,,,,,,,,3.0,0.0,9.0,1.0,,,,,,,,,58.10091345800004,,,,,,,,,,,,,,,,,58.09244720800007,58.44065312500004,59.23370195799998,59.22370404100002,59.224381,59.23370195799998,59.23370195799998,59.819708125000034,g,1.0,0.5785136670000384,,,,,,,,,,,,,,,,,,,,,,,,,,,,,,,,,,,,,,,,sub-144,1,stroop_test,121.45570836421156,
test,red,r,1.0,10.0,1.0,3.0,r,1.0,0.6376096249999819,,,,,,,,,,,,,,,,,,3.0,1.0,10.0,0.0,,,,,,,,,59.829005333000055,,,,,,,,,,,,,,,,,59.82018775000006,61.01757804099998,61.80998199999999,61.8018495,61.80248962500002,61.80998199999999,61.80998199999999,62.45242633300006,r,1.0,0.6376096249999819,,,,,,,,,,,,,,,,,,,,,,,,,,,,,,,,,,,,,,,,sub-144,1,stroop_test,121.45570836421156,
test,blue,b,1.0,11.0,2.0,3.0,b,1.0,0.5993266250000033,,,,,,,,,,,,,,,,,,3.0,2.0,11.0,2.0,,,,,,,,,62.46119545800002,,,,,,,,,,,,,,,,,62.45281624999996,62.551374458000055,63.342943333,63.335280540999975,63.33593979099999,63.342943333,63.342943333,63.95273837499997,b,1.0,0.5993266250000033,,,,,,,,,,,,,,,,,,,,,,,,,,,,,,,,,,,,,,,,sub-144,1,stroop_test,121.45570836421156,
,,,,,,,,,,,,,,,,,,,,,,,,,,,,,,,,,,,,,,,,,,,,,,,,,,,,,,,,,,,,,,,,,,,,63.95293395800002,63.96067887499999,63.96067887499999,68.09256433300004,space,4.128028624999956,,,,,,,,,,,,,,,,,,,,,,,,,,,,,,,,,sub-144,1,stroop_test,121.45570836421156,
,,,,0.0,0.0,0.0,,,,,gelb,yellow,g,1.0,g,1.0,0.6076428329999999,,,,,,,,,,,,,,0.0,0.0,0.0,11.0,,,,,68.11317625000004,,,,,,,,,,,,,,,,,68.10507637500007,69.29022695800006,70.08708308300004,70.07382545799999,,,,,,,,,,,,,,,,70.07941095800004,70.08708308300004,70.08708308300004,70.70336362500007,g,1.0,0.6076428329999999,,70.70967066599997,70.719319541,71.70661308299998,,,,,,,,,,,,,,,,,,,,,sub-144,1,stroop_test,121.45570836421156,
,,,,1.0,1.0,0.0,,,,,rot,red,r,1.0,r,1.0,0.5031385419999879,,,,,,,,,,,,,,0.0,1.0,1.0,0.0,,,,,71.71816995799998,,,,,,,,,,,,,,,,,71.70713108300004,71.801551916,72.59808429099996,72.585387416,,,,,,,,,,,,,,,,72.59062529100004,72.59808429099996,72.59808429099996,73.10362241600001,r,1.0,0.5031385419999879,,73.10419037500003,73.11401237500002,74.10210170799996,74.10793933299999,,,,,,,,,,,,,,,,,,,,sub-144,1,stroop_test,121.45570836421156,
,,,,2.0,2.0,0.0,,,,,blau,blue,b,1.0,b,1.0,0.4277926670000624,,,,,,,,,,,,,,0.0,2.0,2.0,6.0,,,,,74.10793933299999,,,,,,,,,,,,,,,,,74.10255895800003,74.90152724999996,75.69786475000001,75.68559949999997,,,,,,,,,,,,,,,,75.69097324999996,75.69786475000001,75.69786475000001,76.13694779100001,b,1.0,0.4277926670000624,,76.13769633300001,76.14799745799996,77.13575416599997,77.14231979099998,,,,,,,,,,,,,,,,,,,,sub-144,1,stroop_test,121.45570836421156,
,,,,3.0,3.0,0.0,,,,,blau,red,r,0.0,r,1.0,0.6482640409999476,,,,,,,,,,,,,,0.0,3.0,3.0,4.0,,,,,77.14231979099998,,,,,,,,,,,,,,,,,77.13630995799997,77.23496320800007,78.02656654099997,78.01883791600005,,,,,,,,,,,,,,,,78.01950016600006,78.02656654099997,78.02656654099997,78.67750012500005,r,1.0,0.6482640409999476,,78.67816137500006,78.68773974999999,79.674239833,79.68520683300005,,,,,,,,,,,,,,,,,,,,sub-144,1,stroop_test,121.45570836421156,
,,,,4.0,4.0,0.0,,,,,rot,blue,b,0.0,b,1.0,0.6786817500000097,,,,,,,,,,,,,,0.0,4.0,4.0,2.0,,,,,79.68520683300005,,,,,,,,,,,,,,,,,79.67468358300005,79.77489887499996,80.58007841599999,80.56910533300004,,,,,,,,,,,,,,,,80.57279633300004,80.58007841599999,80.58007841599999,81.27041541599999,b,1.0,0.6786817500000097,,81.27109645799999,81.28117166599998,82.26896650000003,82.27487283300002,,,,,,,,,,,,,,,,,,,,sub-144,1,stroop_test,121.45570836421156,
,,,,5.0,5.0,0.0,,,,,gelb,red,r,0.0,r,1.0,0.7081176249999999,,,,,,,,,,,,,,0.0,5.0,5.0,8.0,,,,,82.27487283300002,,,,,,,,,,,,,,,,,82.26944229100002,83.46838691599999,84.26425749999999,84.252584125,,,,,,,,,,,,,,,,84.25709274999997,84.26425749999999,84.26425749999999,84.97650783300003,r,1.0,0.7081176249999999,,84.97707904100002,84.98723929100004,85.97429583300004,85.98505091599998,,,,,,,,,,,,,,,,,,,,sub-144,1,stroop_test,121.45570836421156,
,,,,6.0,6.0,0.0,,,,,blau,yellow,g,0.0,g,1.0,0.3952692499999557,,,,,,,,,,,,,,0.0,6.0,6.0,7.0,,,,,85.98505091599998,,,,,,,,,,,,,,,,,85.97475395800006,87.174809708,87.97082370800001,87.95902187499996,,,,,,,,,,,,,,,,87.96271829099999,87.97082370800001,87.97082370800001,88.37024216600003,g,1.0,0.3952692499999557,,88.37080266600003,88.38088083299999,89.36899970800005,89.37487029099998,,,,,,,,,,,,,,,,,,,,sub-144,1,stroop_test,121.45570836421156,
,,,,7.0,7.0,0.0,,,,,gelb,yellow,g,1.0,g,1.0,0.5309539999998378,,,,,,,,,,,,,,0.0,7.0,7.0,10.0,,,,,89.37487029099998,,,,,,,,,,,,,,,,,89.36944825,89.46853354100006,90.26431570800004,90.25239229100008,,,,,,,,,,,,,,,,90.25698891600008,90.26431570800004,90.26431570800004,90.80391891600004,g,1.0,0.5309539999998378,,90.80456983300007,90.81440462500008,91.80282945800002,91.80873595800006,,,,,,,,,,,,,,,,,,,,sub-144,1,stroop_test,121.45570836421156,
,,,,8.0,8.0,0.0,,,,,rot,red,r,1.0,r,1.0,0.5270872080000117,,,,,,,,,,,,,,0.0,8.0,8.0,1.0,,,,,91.80873595800006,,,,,,,,,,,,,,,,,91.80327395799998,91.90197404100002,92.69813345799992,92.6860277909999,,,,,,,,,,,,,,,,92.69058004100008,92.69813345799992,92.69813345799992,93.22762541600002,r,1.0,0.5270872080000117,,93.22819125000012,93.23798924999994,94.22622316600008,94.23497829099996,,,,,,,,,,,,,,,,,,,,sub-144,1,stroop_test,121.45570836421156,
,,,,9.0,9.0,0.0,,,,,blau,blue,b,1.0,b,1.0,0.3750520000000961,,,,,,,,,,,,,,0.0,9.0,9.0,5.0,,,,,94.23497829099996,,,,,,,,,,,,,,,,,94.22674745799998,94.57559333300004,95.380662916,95.3694609580001,,,,,,,,,,,,,,,,95.37339787500002,95.380662916,95.380662916,95.75990241600005,b,1.0,0.3750520000000961,,95.76046366599996,95.77088287499998,96.75771225000004,96.76864045800004,,,,,,,,,,,,,,,,,,,,sub-144,1,stroop_test,121.45570836421156,
,,,,10.0,10.0,0.0,,,,,rot,yellow,g,0.0,g,1.0,0.8388367089999065,,,,,,,,,,,,,,0.0,10.0,10.0,3.0,,,,,96.76864045800004,,,,,,,,,,,,,,,,,96.75818145799995,96.85848954100004,97.65462858300008,97.642306458,,,,,,,,,,,,,,,,97.64573820800013,97.65462858300008,97.65462858300008,98.50418208300005,g,1.0,0.8388367089999065,,98.50487554099992,98.51458341599994,99.50269175000004,99.508307875,,,,,,,,,,,,,,,,,,,,sub-144,1,stroop_test,121.45570836421156,
,,,,11.0,11.0,0.0,,,,,gelb,blue,b,0.0,b,1.0,0.6050491250000505,,,,,,,,,,,,,,0.0,11.0,11.0,9.0,,,,,99.508307875,,,,,,,,,,,,,,,,,99.50320962500008,100.302222916,101.09655008300012,101.08607087500002,,,,,,,,,,,,,,,,101.08943629099996,101.09655008300012,101.09655008300012,101.70414312500009,b,1.0,0.6050491250000505,,101.70473204100006,101.71475466599998,102.70266908299992,102.70858333300008,,,,,,,,,,,,,,,,,,,,sub-144,1,stroop_test,121.45570836421156,
,,,,12.0,0.0,1.0,,,,,blau,blue,b,1.0,b,1.0,0.5323814590001348,,,,,,,,,,,,,,1.0,0.0,12.0,6.0,,,,,102.70858333300008,,,,,,,,,,,,,,,,,102.70319870800006,103.50218308299998,104.297373041,104.28620349999994,,,,,,,,,,,,,,,,104.29007674999993,104.297373041,104.297373041,104.8377905829999,b,1.0,0.5323814590001348,,104.8385077910001,104.84865758300008,105.83668350000003,105.842492375,,,,,,,,,,,,,,,,,,,,sub-144,1,stroop_test,121.45570836421156,
,,,,13.0,1.0,1.0,,,,,rot,blue,b,0.0,b,1.0,0.5972529159998885,,,,,,,,,,,,,,1.0,1.0,13.0,2.0,,,,,105.842492375,,,,,,,,,,,,,,,,,105.83713524999996,107.03553033300012,107.83161125000004,107.81985441600013,,,,,,,,,,,,,,,,107.82419637500004,107.83161125000004,107.83161125000004,108.43755095800007,b,1.0,0.5972529159998885,,108.43826095800011,108.44844920799994,109.43605504100005,109.4424117499999,,,,,,,,,,,,,,,,,,,,sub-144,1,stroop_test,121.45570836421156,
,,,,14.0,2.0,1.0,,,,,rot,red,r,1.0,r,1.0,0.5336753750000298,,,,,,,,,,,,,,1.0,2.0,14.0,1.0,,,,,109.4424117499999,,,,,,,,,,,,,,,,,109.43645179099995,109.78569129100003,110.57764733300009,110.56956983299996,,,,,,,,,,,,,,,,110.57023929100012,110.57764733300009,110.57764733300009,111.12108862499996,r,1.0,0.5336753750000298,,111.1218499580001,111.1321778329999,112.119650708,112.12557195800002,,,,,,,,,,,,,,,,,,,,sub-144,1,stroop_test,121.45570836421156,
,,,,15.0,3.0,1.0,,,,,blau,blue,b,1.0,b,1.0,0.6588207499999044,,,,,,,,,,,,,,1.0,3.0,15.0,5.0,,,,,112.12557195800002,,,,,,,,,,,,,,,,,112.12012474999996,112.21904862500004,113.015401666,113.0032971249999,,,,,,,,,,,,,,,,113.00787620800008,113.015401666,113.015401666,113.67664924999995,b,1.0,0.6588207499999044,,113.6772232080001,113.6876994160001,114.67485520799994,114.68575700000008,,,,,,,,,,,,,,,,,,,,sub-144,1,stroop_test,121.45570836421156,
,,,,16.0,4.0,1.0,,,,,gelb,blue,b,0.0,b,1.0,0.5460979169999973,,,,,,,,,,,,,,1.0,4.0,16.0,9.0,,,,,114.68575700000008,,,,,,,,,,,,,,,,,114.67532012499998,115.87658491600008,116.68091145799995,116.66970741600004,,,,,,,,,,,,,,,,116.6736340000001,116.68091145799995,116.68091145799995,117.23808629100006,b,1.0,0.5460979169999973,,117.23880862499992,117.2490086250001,118.23644591599998,118.24226400000008,,,,,,,,,,,,,,,,,,,,sub-144,1,stroop_test,121.45570836421156,
,,,,17.0,5.0,1.0,,,,,gelb,red,r,0.0,r,1.0,0.6421129579998706,,,,,,,,,,,,,,1.0,5.0,17.0,8.0,,,,,118.24226400000008,,,,,,,,,,,,,,,,,118.23688883300008,119.03586641599998,119.82750929099996,119.81974816600008,,,,,,,,,,,,,,,,119.82040204099997,119.82750929099996,119.82750929099996,120.471980916,r,1.0,0.6421129579998706,,120.47253658300008,120.482631041,121.47026895800002,121.47647625000002,,,,,,,,,,,,,,,,,,,,sub-144,1,stroop_test,121.45570836421156,
,,,,18.0,6.0,1.0,,,,,gelb,yellow,g,1.0,g,1.0,0.7248533329998281,,,,,,,,,,,,,,1.0,6.0,18.0,11.0,,,,,121.47647625000002,,,,,,,,,,,,,,,,,121.47077779099992,122.26928495799996,123.06116162499995,123.05327858299997,,,,,,,,,,,,,,,,123.05396858300004,123.06116162499995,123.06116162499995,123.78891216599992,g,1.0,0.7248533329998281,,123.7896615410001,123.80064225000012,124.78661116599994,124.79218283300008,,,,,,,,,,,,,,,,,,,,sub-144,1,stroop_test,121.45570836421156,
,,,,19.0,7.0,1.0,,,,,rot,red,r,1.0,r,1.0,0.6750394999999116,,,,,,,,,,,,,,1.0,7.0,19.0,0.0,,,,,124.79218283300008,,,,,,,,,,,,,,,,,124.78706629100007,125.13615445800008,125.93097312499992,125.91998625000008,,,,,,,,,,,,,,,,125.92365275000007,125.93097312499992,125.93097312499992,126.6108351659999,r,1.0,0.6750394999999116,,126.61154420800004,126.62191841600009,127.60808354099991,127.619475416,,,,,,,,,,,,,,,,,,,,sub-144,1,stroop_test,121.45570836421156,
,,,,20.0,8.0,1.0,,,,,blau,yellow,g,0.0,g,1.0,0.598073500000055,,,,,,,,,,,,,,1.0,8.0,20.0,7.0,,,,,127.619475416,,,,,,,,,,,,,,,,,127.60851887499996,128.80938362500012,129.60522937500002,129.59343374999992,,,,,,,,,,,,,,,,129.5971740000001,129.60522937500002,129.60522937500002,130.20600433300012,g,1.0,0.598073500000055,,130.2067324159999,130.21749562499997,131.20335716600005,131.2091342079999,,,,,,,,,,,,,,,,,,,,sub-144,1,stroop_test,121.45570836421156,
,,,,21.0,9.0,1.0,,,,,blau,red,r,0.0,r,1.0,0.5463668330000928,,,,,,,,,,,,,,1.0,9.0,21.0,4.0,,,,,131.2091342079999,,,,,,,,,,,,,,,,,131.203829166,132.0029665830001,132.79463058299996,132.78663587500012,,,,,,,,,,,,,,,,132.78735425000002,132.79463058299996,132.79463058299996,133.344291666,r,1.0,0.5463668330000928,,133.34486783299997,133.35517966600003,134.34202741599995,134.3529279160001,,,,,,,,,,,,,,,,,,,,sub-144,1,stroop_test,121.45570836421156,
,,,,22.0,10.0,1.0,,,,,gelb,yellow,g,1.0,g,1.0,0.529488750000155,,,,,,,,,,,,,,1.0,10.0,22.0,10.0,,,,,134.3529279160001,,,,,,,,,,,,,,,,,134.3424652079999,135.54289533300005,136.350337041,136.33740520799995,,,,,,,,,,,,,,,,136.34260041599998,136.350337041,136.350337041,136.88852162499995,g,1.0,0.529488750000155,,136.88924320800004,136.8991460410001,137.88722770800007,137.89340366599993,,,,,,,,,,,,,,,,,,,,sub-144,1,stroop_test,121.45570836421156,
,,,,23.0,11.0,1.0,,,,,rot,yellow,g,0.0,r,0.0,0.817465625000068,,,,,,,,,,,,,,1.0,11.0,23.0,3.0,,,,,137.89340366599993,,,,,,,,,,,,,,,,,137.88769754099997,138.6861183750001,139.48111200000005,139.47028183300006,,,,,,,,,,,,,,,,139.47374687500007,139.48111200000005,139.48111200000005,140.3048151659999,r,0.0,0.817465625000068,,140.30966795799998,140.32014300000003,141.30367145799994,141.31128750000005,,,,,,,,,,,,,,,,,,,,sub-144,1,stroop_test,121.45570836421156,
,,,,,,,,,,,,,,,,,,,,,,,,,,,,,,,,,,,,,,,,,,,,,,,,,,,,,,,,,,,,,,,,,,,,,,,,,,,,,,,,,,,,,,,141.30386800000008,141.31128750000005,141.31128750000005,150.72731991600006,space,9.412213750000092,,,,,,,,,,,,,,sub-144,1,stroop_test,121.45570836421156,
,,,,0.0,0.0,0.0,,,,,,,,,,,,,gelb,yellow,g,1.0,g,1.0,0.8146281250001266,,,,,,,,,,0.0,0.0,0.0,10.0,150.75029512499998,,,,,,,,,,,,,,,,,150.7417192910001,151.52669283300008,152.32183262499996,152.31022287500002,,,,,,,,,,,,,,,,,,,,,,,,,,,,,,,,,,,152.31419975000006,152.32183262499996,152.32183262499996,153.138873708,g,1.0,0.8146281250001266,,,,,,sub-144,1,stroop_test,121.45570836421156,
,,,,1.0,1.0,0.0,,,,,,,,,,,,,blau,blue,b,1.0,b,1.0,0.6386654590000944,,,,,,,,,,0.0,1.0,1.0,6.0,153.1480082910001,,,,,,,,,,,,,,,,,153.13931941599992,153.4865060410001,154.28261224999994,154.27104199999997,,,,,,,,,,,,,,,,,,,,,,,,,,,,,,,,,,,154.27520700000002,154.28261224999994,154.28261224999994,154.9270754160001,b,1.0,0.6386654590000944,,,,,,sub-144,1,stroop_test,121.45570836421156,
,,,,2.0,2.0,0.0,,,,,,,,,,,,,gelb,red,r,0.0,r,1.0,0.3385433340001782,,,,,,,,,,0.0,2.0,2.0,8.0,154.93598691599993,,,,,,,,,,,,,,,,,154.92753000000005,155.72575575000008,156.5205896660001,156.50914625000007,,,,,,,,,,,,,,,,,,,,,,,,,,,,,,,,,,,156.5133245830001,156.5205896660001,156.5205896660001,156.86155204099998,r,1.0,0.3385433340001782,,,,,,sub-144,1,stroop_test,121.45570836421156,
,,,,3.0,3.0,0.0,,,,,,,,,,,,,rot,yellow,g,0.0,g,1.0,0.5876234580000528,,,,,,,,,,0.0,3.0,3.0,3.0,156.88678399999992,,,,,,,,,,,,,,,,,156.86208516599993,158.06004975000008,158.86559875,158.85423679100006,,,,,,,,,,,,,,,,,,,,,,,,,,,,,,,,,,,158.85803587499993,158.86559875,158.86559875,159.45555266600002,g,1.0,0.5876234580000528,,,,,,sub-144,1,stroop_test,121.45570836421156,
,,,,4.0,4.0,0.0,,,,,,,,,,,,,gelb,blue,b,0.0,b,1.0,0.5118983750001007,,,,,,,,,,0.0,4.0,4.0,9.0,159.46491362500012,,,,,,,,,,,,,,,,,159.4560035410001,159.80362429100012,160.59984358300005,160.58803387499995,,,,,,,,,,,,,,,,,,,,,,,,,,,,,,,,,,,160.59221787500007,160.59984358300005,160.59984358300005,161.12186691599993,b,1.0,0.5118983750001007,,,,,,sub-144,1,stroop_test,121.45570836421156,
,,,,5.0,5.0,0.0,,,,,,,,,,,,,gelb,yellow,g,1.0,g,1.0,0.635245292000036,,,,,,,,,,0.0,5.0,5.0,11.0,161.12971204100006,,,,,,,,,,,,,,,,,161.122312458,161.92033345800007,162.711952,162.70420658299997,,,,,,,,,,,,,,,,,,,,,,,,,,,,,,,,,,,162.70486700000004,162.711952,162.711952,163.3556332500001,g,1.0,0.635245292000036,,,,,,sub-144,1,stroop_test,121.45570836421156,
,,,,6.0,6.0,0.0,,,,,,,,,,,,,blau,red,r,0.0,r,1.0,0.6420874159998675,,,,,,,,,,0.0,6.0,6.0,4.0,163.36565266600007,,,,,,,,,,,,,,,,,163.35622458299997,163.45349912500012,164.24806954100006,164.23763066599997,,,,,,,,,,,,,,,,,,,,,,,,,,,,,,,,,,,164.24095179099993,164.24806954100006,164.24806954100006,164.8945977080001,r,1.0,0.6420874159998675,,,,,,sub-144,1,stroop_test,121.45570836421156,
,,,,7.0,7.0,0.0,,,,,,,,,,,,,blau,yellow,g,0.0,g,1.0,0.7552119580000181,,,,,,,,,,0.0,7.0,7.0,7.0,164.90328387500006,,,,,,,,,,,,,,,,,164.895018541,164.9928973750001,165.78658908299997,165.777284333,,,,,,,,,,,,,,,,,,,,,,,,,,,,,,,,,,,165.77798766600006,165.78658908299997,165.78658908299997,166.54541570799995,g,1.0,0.7552119580000181,,,,,,sub-144,1,stroop_test,121.45570836421156,
,,,,8.0,8.0,0.0,,,,,,,,,,,,,rot,red,r,1.0,r,1.0,0.6407722500000546,,,,,,,,,,0.0,8.0,8.0,1.0,166.55524700000012,,,,,,,,,,,,,,,,,166.54595512499998,166.63664266600006,167.43163362500002,167.42083645800005,,,,,,,,,,,,,,,,,,,,,,,,,,,,,,,,,,,167.42462054100008,167.43163362500002,167.43163362500002,168.07876116599994,r,1.0,0.6407722500000546,,,,,,sub-144,1,stroop_test,121.45570836421156,
,,,,9.0,9.0,0.0,,,,,,,,,,,,,rot,red,r,1.0,r,1.0,0.6044991249998475,,,,,,,,,,0.0,9.0,9.0,0.0,168.1032858330001,,,,,,,,,,,,,,,,,168.079232875,169.27698191599995,170.07949591599993,170.0711593750001,,,,,,,,,,,,,,,,,,,,,,,,,,,,,,,,,,,170.07185441600006,170.07949591599993,170.07949591599993,170.68905370799996,r,1.0,0.6044991249998475,,,,,,sub-144,1,stroop_test,121.45570836421156,
,,,,10.0,10.0,0.0,,,,,,,,,,,,,blau,blue,b,1.0,b,1.0,0.5947806250001122,,,,,,,,,,0.0,10.0,10.0,5.0,170.6989830409999,,,,,,,,,,,,,,,,,170.689606541,171.88725279099992,172.68240804100003,172.67132291600012,,,,,,,,,,,,,,,,,,,,,,,,,,,,,,,,,,,172.6752687500001,172.68240804100003,172.68240804100003,173.28827683299994,b,1.0,0.5947806250001122,,,,,,sub-144,1,stroop_test,121.45570836421156,
,,,,11.0,11.0,0.0,,,,,,,,,,,,,rot,blue,b,0.0,b,1.0,0.5925641250000808,,,,,,,,,,0.0,11.0,11.0,2.0,173.29320829100004,,,,,,,,,,,,,,,,,173.28873391600007,174.0871578330001,174.88290191599992,174.87105037499998,,,,,,,,,,,,,,,,,,,,,,,,,,,,,,,,,,,174.87540787499995,174.88290191599992,174.88290191599992,175.47813974999997,b,1.0,0.5925641250000808,,,,,,sub-144,1,stroop_test,121.45570836421156,
,,,,12.0,0.0,1.0,,,,,,,,,,,,,blau,blue,b,1.0,b,1.0,0.4345554579999771,,,,,,,,,,1.0,0.0,12.0,5.0,175.48690345800003,,,,,,,,,,,,,,,,,175.47856504100002,175.5775716249999,176.38229320800008,176.37117825000007,,,,,,,,,,,,,,,,,,,,,,,,,,,,,,,,,,,176.37503333300003,176.38229320800008,176.38229320800008,176.82228466599997,b,1.0,0.4345554579999771,,,,,,sub-144,1,stroop_test,121.45570836421156,
,,,,13.0,1.0,1.0,,,,,,,,,,,,,blau,blue,b,1.0,b,1.0,0.515082583000094,,,,,,,,,,1.0,1.0,13.0,6.0,176.831366625,,,,,,,,,,,,,,,,,176.82278016599992,178.02075700000012,178.81304549999993,178.80473575000008,,,,,,,,,,,,,,,,,,,,,,,,,,,,,,,,,,,178.80542212500006,178.81304549999993,178.81304549999993,179.33942783300006,b,1.0,0.515082583000094,,,,,,sub-144,1,stroop_test,121.45570836421156,
,,,,14.0,2.0,1.0,,,,,,,,,,,,,rot,yellow,g,0.0,g,1.0,0.3707069580000279,,,,,,,,,,1.0,2.0,14.0,3.0,179.34841295800004,,,,,,,,,,,,,,,,,179.33986879099996,180.13724916600006,180.933323333,180.92132145800008,,,,,,,,,,,,,,,,,,,,,,,,,,,,,,,,,,,180.925728583,180.933323333,180.933323333,181.3063390000001,g,1.0,0.3707069580000279,,,,,,sub-144,1,stroop_test,121.45570836421156,
,,,,15.0,3.0,1.0,,,,,,,,,,,,,gelb,red,r,0.0,r,1.0,0.382912959000123,,,,,,,,,,1.0,3.0,15.0,8.0,181.3123488750001,,,,,,,,,,,,,,,,,181.3067763329999,182.5041620000001,183.3000975829999,183.2880763750001,,,,,,,,,,,,,,,,,,,,,,,,,,,,,,,,,,,183.2926947080001,183.3000975829999,183.3000975829999,183.689383583,r,1.0,0.382912959000123,,,,,,sub-144,1,stroop_test,121.45570836421156,
,,,,16.0,4.0,1.0,,,,,,,,,,,,,rot,red,r,1.0,r,1.0,0.3785482910000155,,,,,,,,,,1.0,4.0,16.0,0.0,183.69852616600008,,,,,,,,,,,,,,,,,183.68982670799997,184.48753079100004,185.283601,185.271876333,,,,,,,,,,,,,,,,,,,,,,,,,,,,,,,,,,,185.27588145800007,185.283601,185.283601,185.672819708,r,1.0,0.3785482910000155,,,,,,sub-144,1,stroop_test,121.45570836421156,
,,,,17.0,5.0,1.0,,,,,,,,,,,,,gelb,yellow,g,1.0,b,0.0,0.3882002499999544,,,,,,,,,,1.0,5.0,17.0,11.0,185.682198958,,,,,,,,,,,,,,,,,185.67337458300003,186.470685291,187.2654334160001,187.25465558300004,,,,,,,,,,,,,,,,,,,,,,,,,,,,,,,,,,,187.25835433300009,187.2654334160001,187.2654334160001,187.65624879099997,b,0.0,0.3882002499999544,,,,,,sub-144,1,stroop_test,121.45570836421156,
,,,,18.0,6.0,1.0,,,,,,,,,,,,,gelb,yellow,g,1.0,g,1.0,0.5014418329999444,,,,,,,,,,1.0,6.0,18.0,10.0,187.665285833,,,,,,,,,,,,,,,,,187.656807666,188.00422745799997,188.795378791,188.7878783330001,,,,,,,,,,,,,,,,,,,,,,,,,,,,,,,,,,,188.788527458,188.795378791,188.795378791,189.30590937499997,g,1.0,0.5014418329999444,,,,,,sub-144,1,stroop_test,121.45570836421156,
,,,,19.0,7.0,1.0,,,,,,,,,,,,,rot,red,r,1.0,r,1.0,0.4871105830000033,,,,,,,,,,1.0,7.0,19.0,1.0,189.3147124159999,,,,,,,,,,,,,,,,,189.3063927500001,189.65426425,190.449844375,190.438221708,,,,,,,,,,,,,,,,,,,,,,,,,,,,,,,,,,,190.442524083,190.449844375,190.449844375,190.93959695799992,r,1.0,0.4871105830000033,,,,,,sub-144,1,stroop_test,121.45570836421156,
,,,,20.0,8.0,1.0,,,,,,,,,,,,,blau,red,r,0.0,r,1.0,0.5421140840001044,,,,,,,,,,1.0,8.0,20.0,4.0,190.94889449999997,,,,,,,,,,,,,,,,,190.940119083,192.1373560410001,192.93281912500004,192.9216049580001,,,,,,,,,,,,,,,,,,,,,,,,,,,,,,,,,,,192.925585375,192.93281912500004,192.93281912500004,193.478771166,r,1.0,0.5421140840001044,,,,,,sub-144,1,stroop_test,121.45570836421156,
,,,,21.0,9.0,1.0,,,,,,,,,,,,,rot,blue,b,0.0,b,1.0,0.4159141250001994,,,,,,,,,,1.0,9.0,21.0,2.0,193.48970016600003,,,,,,,,,,,,,,,,,193.4793134580001,193.57718824999995,194.3841464159999,194.371858458,,,,,,,,,,,,,,,,,,,,,,,,,,,,,,,,,,,194.37643587500008,194.3841464159999,194.3841464159999,194.80574916600008,b,1.0,0.4159141250001994,,,,,,sub-144,1,stroop_test,121.45570836421156,
,,,,22.0,10.0,1.0,,,,,,,,,,,,,gelb,blue,b,0.0,b,1.0,0.5837970000000041,,,,,,,,,,1.0,10.0,22.0,9.0,194.81450066600007,,,,,,,,,,,,,,,,,194.806192291,196.004415583,196.7993412080001,196.7884016250001,,,,,,,,,,,,,,,,,,,,,,,,,,,,,,,,,,,196.79211162500008,196.7993412080001,196.7993412080001,197.3894979160001,b,1.0,0.5837970000000041,,,,,,sub-144,1,stroop_test,121.45570836421156,
,,,,23.0,11.0,1.0,,,,,,,,,,,,,blau,yellow,g,0.0,g,1.0,0.5790130420000423,,,,,,,,,,1.0,11.0,23.0,7.0,197.398589,,,,,,,,,,,,,,,,,197.38993604099997,198.187740666,198.982700208,198.97162745799997,,,,,,,,,,,,,,,,,,,,,,,,,,,,,,,,,,,198.9755020409999,198.982700208,198.982700208,199.5728600409999,g,1.0,0.5790130420000423,,,,,,sub-144,1,stroop_test,121.45570836421156,
,,,,24.0,0.0,2.0,,,,,,,,,,,,,blau,blue,b,1.0,b,1.0,0.5584916249999878,,,,,,,,,,2.0,0.0,24.0,6.0,199.581786291,,,,,,,,,,,,,,,,,199.5733078330001,200.371237708,201.16322445799997,201.15523254099992,,,,,,,,,,,,,,,,,,,,,,,,,,,,,,,,,,,201.15586900000005,201.16322445799997,201.16322445799997,201.72407824999996,b,1.0,0.5584916249999878,,,,,,sub-144,1,stroop_test,121.45570836421156,
,,,,25.0,1.0,2.0,,,,,,,,,,,,,blau,blue,b,1.0,b,1.0,0.5528636250001,,,,,,,,,,2.0,1.0,25.0,5.0,201.73334591600008,,,,,,,,,,,,,,,,,201.72452891599997,201.820658666,202.61289987499995,202.605166125,,,,,,,,,,,,,,,,,,,,,,,,,,,,,,,,,,,202.6058165830001,202.61289987499995,202.61289987499995,203.1731675,b,1.0,0.5528636250001,,,,,,sub-144,1,stroop_test,121.45570836421156,
,,,,26.0,2.0,2.0,,,,,,,,,,,,,rot,red,r,1.0,r,1.0,0.5063924169999154,,,,,,,,,,2.0,2.0,26.0,1.0,203.182261583,,,,,,,,,,,,,,,,,203.17361366600005,204.3712132910001,205.16739458299992,205.15540758300008,,,,,,,,,,,,,,,,,,,,,,,,,,,,,,,,,,,205.159760291,205.16739458299992,205.16739458299992,205.679031583,r,1.0,0.5063924169999154,,,,,,sub-144,1,stroop_test,121.45570836421156,
,,,,27.0,3.0,2.0,,,,,,,,,,,,,rot,blue,b,0.0,b,1.0,0.7939400420000311,,,,,,,,,,2.0,3.0,27.0,2.0,205.68817016600008,,,,,,,,,,,,,,,,,205.6794490410001,206.4779777079999,207.27966037499996,207.27186308300008,,,,,,,,,,,,,,,,,,,,,,,,,,,,,,,,,,,207.272512166,207.27966037499996,207.27966037499996,208.0796602080001,b,1.0,0.7939400420000311,,,,,,sub-144,1,stroop_test,121.45570836421156,
,,,,28.0,4.0,2.0,,,,,,,,,,,,,rot,red,r,1.0,r,1.0,0.5001793750000161,,,,,,,,,,2.0,4.0,28.0,0.0,208.10431091599992,,,,,,,,,,,,,,,,,208.080098583,209.277909541,210.07983675000003,210.07188975,,,,,,,,,,,,,,,,,,,,,,,,,,,,,,,,,,,210.07253512499997,210.07983675000003,210.07983675000003,210.58979983300003,r,1.0,0.5001793750000161,,,,,,sub-144,1,stroop_test,121.45570836421156,
,,,,29.0,5.0,2.0,,,,,,,,,,,,,gelb,yellow,g,1.0,g,1.0,0.5554160000001502,,,,,,,,,,2.0,5.0,29.0,11.0,210.59876354100004,,,,,,,,,,,,,,,,,210.59023441600004,210.6880387079999,211.48498329100005,211.4719745000001,,,,,,,,,,,,,,,,,,,,,,,,,,,,,,,,,,,211.4773025000001,211.48498329100005,211.48498329100005,212.0469795,g,1.0,0.5554160000001502,,,,,,sub-144,1,stroop_test,121.45570836421156,
,,,,30.0,6.0,2.0,,,,,,,,,,,,,gelb,yellow,g,1.0,g,1.0,0.5614007079998373,,,,,,,,,,2.0,6.0,30.0,10.0,212.0562544579999,,,,,,,,,,,,,,,,,212.04741816600009,212.145318708,212.94691512499992,212.938862375,,,,,,,,,,,,,,,,,,,,,,,,,,,,,,,,,,,212.93951200000004,212.94691512499992,212.94691512499992,213.51286308300007,g,1.0,0.5614007079998373,,,,,,sub-144,1,stroop_test,121.45570836421156,
,,,,31.0,7.0,2.0,,,,,,,,,,,,,blau,red,r,0.0,r,1.0,0.6210725000000821,,,,,,,,,,2.0,7.0,31.0,4.0,213.53771633300005,,,,,,,,,,,,,,,,,213.51338695800007,214.7115392500001,215.5211613749999,215.4947934160001,,,,,,,,,,,,,,,,,,,,,,,,,,,,,,,,,,,215.498220375,215.5211613749999,215.5211613749999,216.14625104100003,r,1.0,0.6210725000000821,,,,,,sub-144,1,stroop_test,121.45570836421156,
,,,,32.0,8.0,2.0,,,,,,,,,,,,,gelb,blue,b,0.0,b,1.0,0.4340540840000813,,,,,,,,,,2.0,8.0,32.0,9.0,216.17121454100004,,,,,,,,,,,,,,,,,216.146777541,217.345285625,218.14954987499996,218.1388109579999,,,,,,,,,,,,,,,,,,,,,,,,,,,,,,,,,,,218.14225887500004,218.14954987499996,218.14954987499996,218.59095104100004,b,1.0,0.4340540840000813,,,,,,sub-144,1,stroop_test,121.45570836421156,
,,,,33.0,9.0,2.0,,,,,,,,,,,,,rot,yellow,g,0.0,g,1.0,0.836212082999964,,,,,,,,,,2.0,9.0,33.0,3.0,218.60054979099996,,,,,,,,,,,,,,,,,218.59153145800008,218.687834875,219.4827775,219.47203345800008,,,,,,,,,,,,,,,,,,,,,,,,,,,,,,,,,,,219.475356541,219.4827775,219.4827775,220.3233087079999,g,1.0,0.836212082999964,,,,,,sub-144,1,stroop_test,121.45570836421156,
,,,,34.0,10.0,2.0,,,,,,,,,,,,,gelb,red,r,0.0,r,1.0,0.4117159590000483,,,,,,,,,,2.0,10.0,34.0,8.0,220.33209983299992,,,,,,,,,,,,,,,,,220.3237357910001,220.67169770800007,221.467933625,221.4558825830001,,,,,,,,,,,,,,,,,,,,,,,,,,,,,,,,,,,221.460491166,221.467933625,221.467933625,221.890073875,r,1.0,0.4117159590000483,,,,,,sub-144,1,stroop_test,121.45570836421156,
,,,,35.0,11.0,2.0,,,,,,,,,,,,,blau,yellow,g,0.0,g,1.0,0.6229555829997935,,,,,,,,,,2.0,11.0,35.0,7.0,221.899060416,,,,,,,,,,,,,,,,,221.89049883299992,222.2384094580001,223.034501083,223.02260120800008,,,,,,,,,,,,,,,,,,,,,,,,,,,,,,,,,,,223.0270052909999,223.034501083,223.034501083,223.661813458,g,1.0,0.6229555829997935,,,,,,sub-144,1,stroop_test,121.45570836421156,
,,,,36.0,0.0,3.0,,,,,,,,,,,,,rot,blue,b,0.0,b,1.0,0.3622083749999092,,,,,,,,,,3.0,0.0,36.0,2.0,223.67093412499992,,,,,,,,,,,,,,,,,223.6622294160001,223.754763541,224.5518575,224.53907074999995,,,,,,,,,,,,,,,,,,,,,,,,,,,,,,,,,,,224.54390241599992,224.5518575,224.5518575,224.923726333,b,1.0,0.3622083749999092,,,,,,sub-144,1,stroop_test,121.45570836421156,
,,,,37.0,1.0,3.0,,,,,,,,,,,,,blau,red,r,0.0,r,1.0,0.6650716659999034,,,,,,,,,,3.0,1.0,37.0,4.0,224.9326922500001,,,,,,,,,,,,,,,,,224.924173583,225.7217401250001,226.51842083300005,226.5060135,,,,,,,,,,,,,,,,,,,,,,,,,,,,,,,,,,,226.51076249999997,226.51842083300005,226.51842083300005,227.190528625,r,1.0,0.6650716659999034,,,,,,sub-144,1,stroop_test,121.45570836421156,
,,,,38.0,2.0,3.0,,,,,,,,,,,,,rot,red,r,1.0,g,0.0,0.3661121669999829,,,,,,,,,,3.0,2.0,38.0,1.0,227.20002816599992,,,,,,,,,,,,,,,,,227.19106550000004,227.988538125,228.784981291,228.77277537499992,,,,,,,,,,,,,,,,,,,,,,,,,,,,,,,,,,,228.7774055829999,228.784981291,228.784981291,229.15706187500007,g,0.0,0.3661121669999829,,,,,,sub-144,1,stroop_test,121.45570836421156,
,,,,39.0,3.0,3.0,,,,,,,,,,,,,gelb,yellow,g,1.0,g,1.0,0.4679007079998882,,,,,,,,,,3.0,3.0,39.0,10.0,229.166340958,,,,,,,,,,,,,,,,,229.15755712499995,229.255210833,230.050006416,230.03902737500005,,,,,,,,,,,,,,,,,,,,,,,,,,,,,,,,,,,230.04292,230.050006416,230.050006416,230.524210916,g,1.0,0.4679007079998882,,,,,,sub-144,1,stroop_test,121.45570836421156,
,,,,40.0,4.0,3.0,,,,,,,,,,,,,gelb,red,r,0.0,r,1.0,0.6133284579998417,,,,,,,,,,3.0,4.0,40.0,8.0,230.53428529099995,,,,,,,,,,,,,,,,,230.52494520800008,230.6214926250001,231.4145118749999,231.4060705830001,,,,,,,,,,,,,,,,,,,,,,,,,,,,,,,,,,,231.4068832910001,231.4145118749999,231.4145118749999,232.030437708,r,1.0,0.6133284579998417,,,,,,sub-144,1,stroop_test,121.45570836421156,
,,,,41.0,5.0,3.0,,,,,,,,,,,,,gelb,blue,b,0.0,b,1.0,0.5198643329999868,,,,,,,,,,3.0,5.0,41.0,9.0,232.0399140830001,,,,,,,,,,,,,,,,,232.0308765000001,232.8291082080001,233.63052533300004,233.62252620800007,,,,,,,,,,,,,,,,,,,,,,,,,,,,,,,,,,,233.62315958300007,233.63052533300004,233.63052533300004,234.15704941599995,b,1.0,0.5198643329999868,,,,,,sub-144,1,stroop_test,121.45570836421156,
,,,,42.0,6.0,3.0,,,,,,,,,,,,,rot,yellow,g,0.0,g,1.0,0.7403570409999247,,,,,,,,,,3.0,6.0,42.0,3.0,234.16628675000004,,,,,,,,,,,,,,,,,234.157597541,234.50532375,235.30136029099992,235.2893446249999,,,,,,,,,,,,,,,,,,,,,,,,,,,,,,,,,,,235.2936369580001,235.30136029099992,235.30136029099992,236.04627233300005,g,1.0,0.7403570409999247,,,,,,sub-144,1,stroop_test,121.45570836421156,
,,,,43.0,7.0,3.0,,,,,,,,,,,,,rot,red,r,1.0,r,1.0,0.4675073749999683,,,,,,,,,,3.0,7.0,43.0,0.0,236.0555660409999,,,,,,,,,,,,,,,,,236.04669045799997,236.145680083,236.938241791,236.929200916,,,,,,,,,,,,,,,,,,,,,,,,,,,,,,,,,,,236.9298936660001,236.938241791,236.938241791,237.41430725,r,1.0,0.4675073749999683,,,,,,sub-144,1,stroop_test,121.45570836421156,
,,,,44.0,8.0,3.0,,,,,,,,,,,,,blau,yellow,g,0.0,g,1.0,0.6084338340001523,,,,,,,,,,3.0,8.0,44.0,7.0,237.438410458,,,,,,,,,,,,,,,,,237.41473058300005,238.21149541600005,239.0071798749999,238.99556020800003,,,,,,,,,,,,,,,,,,,,,,,,,,,,,,,,,,,238.99948770799995,239.0071798749999,239.0071798749999,239.6240776660001,g,1.0,0.6084338340001523,,,,,,sub-144,1,stroop_test,121.45570836421156,
,,,,45.0,9.0,3.0,,,,,,,,,,,,,gelb,yellow,g,1.0,g,1.0,0.4005410419999862,,,,,,,,,,3.0,9.0,45.0,11.0,239.633334666,,,,,,,,,,,,,,,,,239.6246023750001,239.7218213750001,240.517796791,240.505963875,,,,,,,,,,,,,,,,,,,,,,,,,,,,,,,,,,,240.510096416,240.517796791,240.517796791,240.92426512500003,g,1.0,0.4005410419999862,,,,,,sub-144,1,stroop_test,121.45570836421156,
,,,,46.0,10.0,3.0,,,,,,,,,,,,,blau,blue,b,1.0,b,1.0,0.4011942499998895,,,,,,,,,,3.0,10.0,46.0,6.0,240.93359554100005,,,,,,,,,,,,,,,,,240.92479604099992,241.7222323750001,242.52041258299997,242.50627100000008,,,,,,,,,,,,,,,,,,,,,,,,,,,,,,,,,,,242.512906458,242.52041258299997,242.52041258299997,242.92412374999992,b,1.0,0.4011942499998895,,,,,,sub-144,1,stroop_test,121.45570836421156,
,,,,47.0,11.0,3.0,,,,,,,,,,,,,blau,blue,b,1.0,b,1.0,0.5851467909999428,,,,,,,,,,3.0,11.0,47.0,5.0,242.9329428750001,,,,,,,,,,,,,,,,,242.9245534160001,243.02224954099995,243.8143584579999,243.8061939160001,,,,,,,,,,,,,,,,,,,,,,,,,,,,,,,,,,,243.80690274999995,243.8143584579999,243.8143584579999,244.40778954099997,b,1.0,0.5851467909999428,,,,,,sub-144,1,stroop_test,121.45570836421156,
,,,,48.0,0.0,4.0,,,,,,,,,,,,,gelb,yellow,g,1.0,g,1.0,0.5650681249999252,,,,,,,,,,4.0,0.0,48.0,11.0,244.41710745800003,,,,,,,,,,,,,,,,,244.408319625,245.6057267079999,246.4008721250001,246.38961733300005,,,,,,,,,,,,,,,,,,,,,,,,,,,,,,,,,,,246.3935130410001,246.4008721250001,246.4008721250001,246.9744332500001,g,1.0,0.5650681249999252,,,,,,sub-144,1,stroop_test,121.45570836421156,
,,,,49.0,1.0,4.0,,,,,,,,,,,,,gelb,blue,b,0.0,b,1.0,0.5651115000000573,,,,,,,,,,4.0,1.0,49.0,9.0,246.98372725,,,,,,,,,,,,,,,,,246.97497383300004,247.07249304100003,247.86400679099995,247.856283708,,,,,,,,,,,,,,,,,,,,,,,,,,,,,,,,,,,247.8569040410001,247.86400679099995,247.86400679099995,248.4409307500001,b,1.0,0.5651115000000573,,,,,,sub-144,1,stroop_test,121.45570836421156,
,,,,50.0,2.0,4.0,,,,,,,,,,,,,blau,red,r,0.0,r,1.0,0.7238510419999784,,,,,,,,,,4.0,2.0,50.0,4.0,248.45002145799992,,,,,,,,,,,,,,,,,248.44145941599996,248.53897937499997,249.33140141599995,249.322629291,,,,,,,,,,,,,,,,,,,,,,,,,,,,,,,,,,,249.325231875,249.33140141599995,249.33140141599995,250.057503333,r,1.0,0.7238510419999784,,,,,,sub-144,1,stroop_test,121.45570836421156,
,,,,51.0,3.0,4.0,,,,,,,,,,,,,blau,blue,b,1.0,b,1.0,0.5634812079999847,,,,,,,,,,4.0,3.0,51.0,6.0,250.063464041,,,,,,,,,,,,,,,,,250.05795558300008,251.25578633299995,252.04781074999997,252.0396307499999,,,,,,,,,,,,,,,,,,,,,,,,,,,,,,,,,,,252.040286541,252.04781074999997,252.04781074999997,252.61354566600005,b,1.0,0.5634812079999847,,,,,,sub-144,1,stroop_test,121.45570836421156,
,,,,52.0,4.0,4.0,,,,,,,,,,,,,rot,yellow,g,0.0,g,1.0,0.4838129579998167,,,,,,,,,,4.0,4.0,52.0,3.0,252.62273645800008,,,,,,,,,,,,,,,,,252.613961958,252.715471458,253.51857691599992,253.50645395799995,,,,,,,,,,,,,,,,,,,,,,,,,,,,,,,,,,,253.511058166,253.51857691599992,253.51857691599992,254.00777266600005,g,1.0,0.4838129579998167,,,,,,sub-144,1,stroop_test,121.45570836421156,
,,,,53.0,5.0,4.0,,,,,,,,,,,,,gelb,red,r,0.0,r,1.0,0.5548800419999225,,,,,,,,,,4.0,5.0,53.0,8.0,254.01695404100008,,,,,,,,,,,,,,,,,254.0082215829999,255.20565362500008,256.0005613750001,255.9897433330001,,,,,,,,,,,,,,,,,,,,,,,,,,,,,,,,,,,255.99332570800004,256.0005613750001,256.0005613750001,256.5575695409999,r,1.0,0.5548800419999225,,,,,,sub-144,1,stroop_test,121.45570836421156,
,,,,54.0,6.0,4.0,,,,,,,,,,,,,gelb,yellow,g,1.0,g,1.0,0.4145420419999936,,,,,,,,,,4.0,6.0,54.0,10.0,256.56638962499994,,,,,,,,,,,,,,,,,256.558021708,257.75592370800007,258.5477656659999,258.5398718330001,,,,,,,,,,,,,,,,,,,,,,,,,,,,,,,,,,,258.540504166,258.5477656659999,258.5477656659999,258.9649358329999,g,1.0,0.4145420419999936,,,,,,sub-144,1,stroop_test,121.45570836421156,
,,,,55.0,7.0,4.0,,,,,,,,,,,,,rot,blue,b,0.0,b,1.0,0.7174131669999042,,,,,,,,,,4.0,7.0,55.0,2.0,258.974418208,,,,,,,,,,,,,,,,,258.9654535830001,260.1628935,260.9679527500001,260.9567289160001,,,,,,,,,,,,,,,,,,,,,,,,,,,,,,,,,,,260.960524083,260.9679527500001,260.9679527500001,261.68978075000007,b,1.0,0.7174131669999042,,,,,,sub-144,1,stroop_test,121.45570836421156,
,,,,56.0,8.0,4.0,,,,,,,,,,,,,rot,red,r,1.0,r,1.0,0.3883712089998425,,,,,,,,,,4.0,8.0,56.0,0.0,261.6989266249999,,,,,,,,,,,,,,,,,261.69020108300003,262.8798149580001,263.6806432909999,263.67319662500006,,,,,,,,,,,,,,,,,,,,,,,,,,,,,,,,,,,263.67383499999994,263.6806432909999,263.6806432909999,264.075449541,r,1.0,0.3883712089998425,,,,,,sub-144,1,stroop_test,121.45570836421156,
,,,,57.0,9.0,4.0,,,,,,,,,,,,,rot,red,r,1.0,r,1.0,0.4916459159999249,,,,,,,,,,4.0,9.0,57.0,1.0,264.0850192910001,,,,,,,,,,,,,,,,,264.076100916,265.27278445800005,266.0647351660001,266.05676808300007,,,,,,,,,,,,,,,,,,,,,,,,,,,,,,,,,,,266.05746325000007,266.0647351660001,266.0647351660001,266.558436166,r,1.0,0.4916459159999249,,,,,,sub-144,1,stroop_test,121.45570836421156,
,,,,58.0,10.0,4.0,,,,,,,,,,,,,blau,yellow,g,0.0,g,1.0,0.5357205830000566,,,,,,,,,,4.0,10.0,58.0,7.0,266.56438212499995,,,,,,,,,,,,,,,,,266.558889666,266.6561574159999,267.451209208,267.4406843329999,,,,,,,,,,,,,,,,,,,,,,,,,,,,,,,,,,,267.4439865830001,267.451209208,267.451209208,267.9917341250001,g,1.0,0.5357205830000566,,,,,,sub-144,1,stroop_test,121.45570836421156,
,,,,59.0,11.0,4.0,,,,,,,,,,,,,blau,blue,b,1.0,b,1.0,0.3794132079999599,,,,,,,,,,4.0,11.0,59.0,5.0,268.0008106660001,,,,,,,,,,,,,,,,,267.992205958,268.3394064580001,269.13207816600004,269.12379795799995,,,,,,,,,,,,,,,,,,,,,,,,,,,,,,,,,,,269.12449925,269.13207816600004,269.13207816600004,269.5141024999999,b,1.0,0.3794132079999599,,,,,,sub-144,1,stroop_test,121.45570836421156,
,,,,60.0,0.0,5.0,,,,,,,,,,,,,blau,red,r,0.0,r,1.0,0.4865811249999296,,,,,,,,,,5.0,0.0,60.0,4.0,269.52275083300003,,,,,,,,,,,,,,,,,269.5145988329999,270.7123948330001,271.51524299999994,271.50704333300007,,,,,,,,,,,,,,,,,,,,,,,,,,,,,,,,,,,271.50773170800005,271.51524299999994,271.51524299999994,272.00807120799993,r,1.0,0.4865811249999296,,,,,,sub-144,1,stroop_test,121.45570836421156,
,,,,61.0,1.0,5.0,,,,,,,,,,,,,blau,yellow,g,0.0,g,1.0,0.5437709170000744,,,,,,,,,,5.0,1.0,61.0,7.0,272.016906125,,,,,,,,,,,,,,,,,272.0085506250001,272.805897416,273.5993051250001,273.590570083,,,,,,,,,,,,,,,,,,,,,,,,,,,,,,,,,,,273.591375375,273.5993051250001,273.5993051250001,274.14726870800007,g,1.0,0.5437709170000744,,,,,,sub-144,1,stroop_test,121.45570836421156,
,,,,62.0,2.0,5.0,,,,,,,,,,,,,rot,blue,b,0.0,b,1.0,0.6250520000000961,,,,,,,,,,5.0,2.0,62.0,2.0,274.15598725000007,,,,,,,,,,,,,,,,,274.1476906659999,275.3464284580001,276.1420475829999,276.1298357500001,,,,,,,,,,,,,,,,,,,,,,,,,,,,,,,,,,,276.13421600000004,276.1420475829999,276.1420475829999,276.774940833,b,1.0,0.6250520000000961,,,,,,sub-144,1,stroop_test,121.45570836421156,
,,,,63.0,3.0,5.0,,,,,,,,,,,,,gelb,red,r,0.0,r,1.0,0.7071621669999786,,,,,,,,,,5.0,3.0,63.0,8.0,276.784239,,,,,,,,,,,,,,,,,276.7754907080001,277.123080791,277.91795479099994,277.90705908300004,,,,,,,,,,,,,,,,,,,,,,,,,,,,,,,,,,,277.91066683299994,277.91795479099994,277.91795479099994,278.6310232500001,r,1.0,0.7071621669999786,,,,,,sub-144,1,stroop_test,121.45570836421156,
,,,,64.0,4.0,5.0,,,,,,,,,,,,,gelb,blue,b,0.0,b,1.0,0.4678451250001672,,,,,,,,,,5.0,4.0,64.0,9.0,278.6399801660001,,,,,,,,,,,,,,,,,278.6314435830001,279.829637125,280.6227003749999,280.6133145,,,,,,,,,,,,,,,,,,,,,,,,,,,,,,,,,,,280.6139957500001,280.6227003749999,280.6227003749999,281.09790454100005,b,1.0,0.4678451250001672,,,,,,sub-144,1,stroop_test,121.45570836421156,
,,,,65.0,5.0,5.0,,,,,,,,,,,,,rot,red,r,1.0,r,1.0,0.5835485000000062,,,,,,,,,,5.0,5.0,65.0,1.0,281.1060583750001,,,,,,,,,,,,,,,,,281.098416125,281.195564708,281.989525333,281.9791300830001,,,,,,,,,,,,,,,,,,,,,,,,,,,,,,,,,,,281.98241058299993,281.989525333,281.989525333,282.575069958,r,1.0,0.5835485000000062,,,,,,sub-144,1,stroop_test,121.45570836421156,
,,,,66.0,6.0,5.0,,,,,,,,,,,,,blau,blue,b,1.0,b,1.0,0.6720282090000183,,,,,,,,,,5.0,6.0,66.0,6.0,282.5810412909999,,,,,,,,,,,,,,,,,282.57551812500003,282.67329125000003,283.46802816599995,283.45703641600005,,,,,,,,,,,,,,,,,,,,,,,,,,,,,,,,,,,283.460724958,283.46802816599995,283.46802816599995,284.14202183300006,b,1.0,0.6720282090000183,,,,,,sub-144,1,stroop_test,121.45570836421156,
,,,,67.0,7.0,5.0,,,,,,,,,,,,,rot,red,r,1.0,r,1.0,0.5477152079999996,,,,,,,,,,5.0,7.0,67.0,0.0,284.1478389580001,,,,,,,,,,,,,,,,,284.1424564580001,284.9400077910001,285.7347202909999,285.7237765829999,,,,,,,,,,,,,,,,,,,,,,,,,,,,,,,,,,,285.7273866250001,285.7347202909999,285.7347202909999,286.2921352909999,r,1.0,0.5477152079999996,,,,,,sub-144,1,stroop_test,121.45570836421156,
,,,,68.0,8.0,5.0,,,,,,,,,,,,,rot,yellow,g,0.0,g,1.0,0.4100373339999805,,,,,,,,,,5.0,8.0,68.0,3.0,286.30149666599993,,,,,,,,,,,,,,,,,286.292689,286.390001916,287.1812690830001,287.1737737909999,,,,,,,,,,,,,,,,,,,,,,,,,,,,,,,,,,,287.1744217910001,287.1812690830001,287.1812690830001,287.5982821660001,g,1.0,0.4100373339999805,,,,,,sub-144,1,stroop_test,121.45570836421156,
,,,,69.0,9.0,5.0,,,,,,,,,,,,,gelb,yellow,g,1.0,g,1.0,0.3645250829999895,,,,,,,,,,5.0,9.0,69.0,11.0,287.6079664580001,,,,,,,,,,,,,,,,,287.598714416,287.946372083,288.7421828329999,288.7298950830001,,,,,,,,,,,,,,,,,,,,,,,,,,,,,,,,,,,288.7339740829999,288.7421828329999,288.7421828329999,289.1091176660001,g,1.0,0.3645250829999895,,,,,,sub-144,1,stroop_test,121.45570836421156,
,,,,70.0,10.0,5.0,,,,,,,,,,,,,blau,blue,b,1.0,b,1.0,0.4920342089999394,,,,,,,,,,5.0,10.0,70.0,5.0,289.117931916,,,,,,,,,,,,,,,,,289.10954308299995,289.20670125000004,290.00183237499994,289.99063387500007,,,,,,,,,,,,,,,,,,,,,,,,,,,,,,,,,,,289.9945300410001,290.00183237499994,290.00183237499994,290.497918833,b,1.0,0.4920342089999394,,,,,,sub-144,1,stroop_test,121.45570836421156,
,,,,71.0,11.0,5.0,,,,,,,,,,,,,gelb,yellow,g,1.0,g,1.0,0.5320602089998374,,,,,,,,,,5.0,11.0,71.0,10.0,290.506985916,,,,,,,,,,,,,,,,,290.4983490410001,291.69685741599994,292.5025300000001,292.491010375,,,,,,,,,,,,,,,,,,,,,,,,,,,,,,,,,,,292.495512458,292.5025300000001,292.5025300000001,293.0418995829999,g,1.0,0.5320602089998374,,,,,,sub-144,1,stroop_test,121.45570836421156,
,,,,72.0,0.0,6.0,,,,,,,,,,,,,rot,red,r,1.0,r,1.0,0.4597076669999751,,,,,,,,,,6.0,0.0,72.0,1.0,293.0511740830001,,,,,,,,,,,,,,,,,293.04234600000007,293.3902099999999,294.1860318329999,294.174486625,,,,,,,,,,,,,,,,,,,,,,,,,,,,,,,,,,,294.1784342080001,294.1860318329999,294.1860318329999,294.648274583,r,1.0,0.4597076669999751,,,,,,sub-144,1,stroop_test,121.45570836421156,
,,,,73.0,1.0,6.0,,,,,,,,,,,,,blau,blue,b,1.0,b,1.0,0.445747208000057,,,,,,,,,,6.0,1.0,73.0,6.0,294.672898958,,,,,,,,,,,,,,,,,294.64880366599994,295.4463776250001,296.25275754100005,296.2408288329999,,,,,,,,,,,,,,,,,,,,,,,,,,,,,,,,,,,296.245138375,296.25275754100005,296.25275754100005,296.70841870800007,b,1.0,0.445747208000057,,,,,,sub-144,1,stroop_test,121.45570836421156,
,,,,74.0,2.0,6.0,,,,,,,,,,,,,gelb,blue,b,0.0,b,1.0,0.6996042079999825,,,,,,,,,,6.0,2.0,74.0,9.0,296.7173456659999,,,,,,,,,,,,,,,,,296.7088581659999,296.80682779100005,297.602016083,297.5907839580001,,,,,,,,,,,,,,,,,,,,,,,,,,,,,,,,,,,297.59467662500003,297.602016083,297.602016083,298.307575166,b,1.0,0.6996042079999825,,,,,,sub-144,1,stroop_test,121.45570836421156,
,,,,75.0,3.0,6.0,,,,,,,,,,,,,blau,blue,b,1.0,b,1.0,0.4340824160001375,,,,,,,,,,6.0,3.0,75.0,5.0,298.31486925,,,,,,,,,,,,,,,,,298.3078115,298.64689624999994,299.4565879580001,299.4301066250001,,,,,,,,,,,,,,,,,,,,,,,,,,,,,,,,,,,299.433651875,299.4565879580001,299.4565879580001,299.893086666,b,1.0,0.4340824160001375,,,,,,sub-144,1,stroop_test,121.45570836421156,
,,,,76.0,4.0,6.0,,,,,,,,,,,,,rot,red,r,1.0,r,1.0,0.3863114999999197,,,,,,,,,,6.0,4.0,76.0,0.0,299.90234058299995,,,,,,,,,,,,,,,,,299.8935285409999,301.090320166,301.8875798329999,301.874259541,,,,,,,,,,,,,,,,,,,,,,,,,,,,,,,,,,,301.879916791,301.8875798329999,301.8875798329999,302.2761671249999,r,1.0,0.3863114999999197,,,,,,sub-144,1,stroop_test,121.45570836421156,
,,,,77.0,5.0,6.0,,,,,,,,,,,,,gelb,yellow,g,1.0,g,1.0,0.3433913750000101,,,,,,,,,,6.0,5.0,77.0,11.0,302.2821862080001,,,,,,,,,,,,,,,,,302.2766069160001,303.07359387500003,303.8699224579999,303.85772791600004,,,,,,,,,,,,,,,,,,,,,,,,,,,,,,,,,,,303.862479,303.8699224579999,303.8699224579999,304.215727916,g,1.0,0.3433913750000101,,,,,,sub-144,1,stroop_test,121.45570836421156,
,,,,78.0,6.0,6.0,,,,,,,,,,,,,rot,blue,b,0.0,b,1.0,0.809782499999983,,,,,,,,,,6.0,6.0,78.0,2.0,304.2251675000001,,,,,,,,,,,,,,,,,304.2162575829999,305.013423,305.818768,305.8075063750001,,,,,,,,,,,,,,,,,,,,,,,,,,,,,,,,,,,305.8112958749999,305.818768,305.818768,306.6321932500001,b,1.0,0.809782499999983,,,,,,sub-144,1,stroop_test,121.45570836421156,
,,,,79.0,7.0,6.0,,,,,,,,,,,,,gelb,red,r,0.0,r,1.0,0.5494201249998696,,,,,,,,,,6.0,7.0,79.0,8.0,306.6416210000001,,,,,,,,,,,,,,,,,306.6327352909999,306.72985566599993,307.5240171250001,307.5134585,,,,,,,,,,,,,,,,,,,,,,,,,,,,,,,,,,,307.51684383300005,307.5240171250001,307.5240171250001,308.075750333,r,1.0,0.5494201249998696,,,,,,sub-144,1,stroop_test,121.45570836421156,
,,,,80.0,8.0,6.0,,,,,,,,,,,,,blau,yellow,g,0.0,g,1.0,0.361551167000016,,,,,,,,,,6.0,8.0,80.0,7.0,308.084815458,,,,,,,,,,,,,,,,,308.0761819580001,308.423737083,309.2184954999999,309.207556166,,,,,,,,,,,,,,,,,,,,,,,,,,,,,,,,,,,309.2113546659999,309.2184954999999,309.2184954999999,309.59246233300007,g,1.0,0.361551167000016,,,,,,sub-144,1,stroop_test,121.45570836421156,
,,,,81.0,9.0,6.0,,,,,,,,,,,,,blau,red,r,0.0,r,1.0,0.7925091669999347,,,,,,,,,,6.0,9.0,81.0,4.0,309.6015396660001,,,,,,,,,,,,,,,,,309.59290154100006,309.6905102910001,310.482350791,310.47434787500003,,,,,,,,,,,,,,,,,,,,,,,,,,,,,,,,,,,310.475027416,310.482350791,310.482350791,311.2818713749999,r,1.0,0.7925091669999347,,,,,,sub-144,1,stroop_test,121.45570836421156,
,,,,82.0,10.0,6.0,,,,,,,,,,,,,gelb,yellow,g,1.0,g,1.0,0.6198605000001862,,,,,,,,,,6.0,10.0,82.0,10.0,311.3068529579999,,,,,,,,,,,,,,,,,311.28240874999995,312.08016054100005,312.873544125,312.863164041,,,,,,,,,,,,,,,,,,,,,,,,,,,,,,,,,,,312.86676220800007,312.873544125,312.873544125,313.498614041,g,1.0,0.6198605000001862,,,,,,sub-144,1,stroop_test,121.45570836421156,
,,,,83.0,11.0,6.0,,,,,,,,,,,,,rot,yellow,g,0.0,g,1.0,0.4741680419999738,,,,,,,,,,6.0,11.0,83.0,3.0,313.52352091599994,,,,,,,,,,,,,,,,,313.4990429579999,314.29755975,315.10214291599993,315.0911615829999,,,,,,,,,,,,,,,,,,,,,,,,,,,,,,,,,,,315.094820166,315.10214291599993,315.10214291599993,315.58222979100003,g,1.0,0.4741680419999738,,,,,,sub-144,1,stroop_test,121.45570836421156,
,,,,84.0,0.0,7.0,,,,,,,,,,,,,rot,red,r,1.0,r,1.0,0.5188177909999467,,,,,,,,,,7.0,0.0,84.0,1.0,315.60700795800005,,,,,,,,,,,,,,,,,315.5826578330001,316.3804852909999,317.173594083,317.1645975,,,,,,,,,,,,,,,,,,,,,,,,,,,,,,,,,,,317.165289791,317.173594083,317.173594083,317.6984153750001,r,1.0,0.5188177909999467,,,,,,sub-144,1,stroop_test,121.45570836421156,
,,,,85.0,1.0,7.0,,,,,,,,,,,,,gelb,red,r,0.0,r,1.0,0.5402678329999162,,,,,,,,,,7.0,1.0,85.0,8.0,317.707613916,,,,,,,,,,,,,,,,,317.6988372500001,317.79721299999994,318.6044217079999,318.5914785829999,,,,,,,,,,,,,,,,,,,,,,,,,,,,,,,,,,,318.596814291,318.6044217079999,318.6044217079999,319.14837354100007,r,1.0,0.5402678329999162,,,,,,sub-144,1,stroop_test,121.45570836421156,
,,,,86.0,2.0,7.0,,,,,,,,,,,,,rot,blue,b,0.0,b,1.0,0.444679583999914,,,,,,,,,,7.0,2.0,86.0,2.0,319.1568134580001,,,,,,,,,,,,,,,,,319.1489184579999,319.49785595800006,320.30270591600004,320.2913103750001,,,,,,,,,,,,,,,,,,,,,,,,,,,,,,,,,,,320.29517862499995,320.30270591600004,320.30270591600004,320.759528791,b,1.0,0.444679583999914,,,,,,sub-144,1,stroop_test,121.45570836421156,
,,,,87.0,3.0,7.0,,,,,,,,,,,,,blau,blue,b,1.0,b,1.0,0.6102910410002096,,,,,,,,,,7.0,3.0,87.0,6.0,320.76883154099994,,,,,,,,,,,,,,,,,320.760092958,321.1073310830001,321.9016512910001,321.891159958,,,,,,,,,,,,,,,,,,,,,,,,,,,,,,,,,,,321.8945742080001,321.9016512910001,321.9016512910001,322.51575704100003,b,1.0,0.6102910410002096,,,,,,sub-144,1,stroop_test,121.45570836421156,
,,,,88.0,4.0,7.0,,,,,,,,,,,,,gelb,yellow,g,1.0,g,1.0,0.3507198750000952,,,,,,,,,,7.0,4.0,88.0,10.0,322.52618537499995,,,,,,,,,,,,,,,,,322.5162906659999,322.6132417079999,323.42375308299995,323.39680895799995,,,,,,,,,,,,,,,,,,,,,,,,,,,,,,,,,,,323.4009092499999,323.42375308299995,323.42375308299995,323.776871291,g,1.0,0.3507198750000952,,,,,,sub-144,1,stroop_test,121.45570836421156,
,,,,89.0,5.0,7.0,,,,,,,,,,,,,blau,blue,b,1.0,b,1.0,0.4228865420000147,,,,,,,,,,7.0,5.0,89.0,5.0,323.78580554100006,,,,,,,,,,,,,,,,,323.7773908329999,323.8741968329999,324.6693770410001,324.658029375,,,,,,,,,,,,,,,,,,,,,,,,,,,,,,,,,,,324.661928916,324.6693770410001,324.6693770410001,325.09867075,b,1.0,0.4228865420000147,,,,,,sub-144,1,stroop_test,121.45570836421156,
,,,,90.0,6.0,7.0,,,,,,,,,,,,,rot,yellow,g,0.0,g,1.0,0.6394737499999792,,,,,,,,,,7.0,6.0,90.0,3.0,325.1071485409999,,,,,,,,,,,,,,,,,325.0990828330001,325.197698541,325.993496083,325.9817408330001,,,,,,,,,,,,,,,,,,,,,,,,,,,,,,,,,,,325.9861255,325.993496083,325.993496083,326.642861125,g,1.0,0.6394737499999792,,,,,,sub-144,1,stroop_test,121.45570836421156,
,,,,91.0,7.0,7.0,,,,,,,,,,,,,blau,yellow,g,0.0,g,1.0,0.4244842499999777,,,,,,,,,,7.0,7.0,91.0,7.0,326.65221458300005,,,,,,,,,,,,,,,,,326.64340333300004,326.9909395830001,327.78696779099994,327.7751730409999,,,,,,,,,,,,,,,,,,,,,,,,,,,,,,,,,,,327.7794722079999,327.78696779099994,327.78696779099994,328.216060333,g,1.0,0.4244842499999777,,,,,,sub-144,1,stroop_test,121.45570836421156,
,,,,92.0,8.0,7.0,,,,,,,,,,,,,blau,red,r,0.0,r,1.0,0.3889290420001998,,,,,,,,,,7.0,8.0,92.0,4.0,328.225473416,,,,,,,,,,,,,,,,,328.2165833749999,329.0137772500001,329.8161705409999,329.808303166,,,,,,,,,,,,,,,,,,,,,,,,,,,,,,,,,,,329.8089362500001,329.8161705409999,329.8161705409999,330.2093449580001,r,1.0,0.3889290420001998,,,,,,sub-144,1,stroop_test,121.45570836421156,
,,,,93.0,9.0,7.0,,,,,,,,,,,,,rot,red,r,1.0,r,1.0,0.3543432500000563,,,,,,,,,,7.0,9.0,93.0,0.0,330.21861075000004,,,,,,,,,,,,,,,,,330.209871791,331.007701291,331.803494208,331.7914635410001,,,,,,,,,,,,,,,,,,,,,,,,,,,,,,,,,,,331.79611420799995,331.803494208,331.803494208,332.1602845000001,r,1.0,0.3543432500000563,,,,,,sub-144,1,stroop_test,121.45570836421156,
,,,,94.0,10.0,7.0,,,,,,,,,,,,,gelb,blue,b,0.0,b,1.0,0.6023967090000042,,,,,,,,,,7.0,10.0,94.0,9.0,332.1695370409999,,,,,,,,,,,,,,,,,332.160718625,333.35760375000007,334.1526176660001,334.1416150829999,,,,,,,,,,,,,,,,,,,,,,,,,,,,,,,,,,,334.145455125,334.1526176660001,334.1526176660001,334.7595392500001,b,1.0,0.6023967090000042,,,,,,sub-144,1,stroop_test,121.45570836421156,
,,,,95.0,11.0,7.0,,,,,,,,,,,,,gelb,yellow,g,1.0,g,1.0,0.4997179580000193,,,,,,,,,,7.0,11.0,95.0,11.0,334.7689461660001,,,,,,,,,,,,,,,,,334.76007841600006,335.107831791,335.8993742910001,335.8915988330001,,,,,,,,,,,,,,,,,,,,,,,,,,,,,,,,,,,335.8922469580001,335.8993742910001,335.8993742910001,336.409446625,g,1.0,0.4997179580000193,,,,,,sub-144,1,stroop_test,121.45570836421156,
,,,,96.0,0.0,8.0,,,,,,,,,,,,,blau,blue,b,1.0,b,1.0,0.6301732089998495,,,,,,,,,,8.0,0.0,96.0,5.0,336.4180910000001,,,,,,,,,,,,,,,,,336.4098795829999,336.5078641660001,337.303161875,337.291562666,,,,,,,,,,,,,,,,,,,,,,,,,,,,,,,,,,,337.29572695800005,337.303161875,337.303161875,337.942874833,b,1.0,0.6301732089998495,,,,,,sub-144,1,stroop_test,121.45570836421156,
,,,,97.0,1.0,8.0,,,,,,,,,,,,,gelb,yellow,g,1.0,b,0.0,0.6890224169999328,,,,,,,,,,8.0,1.0,97.0,10.0,337.95225508300007,,,,,,,,,,,,,,,,,337.94339925,338.04070450000006,338.8368112500001,338.825347458,,,,,,,,,,,,,,,,,,,,,,,,,,,,,,,,,,,338.8294300829999,338.8368112500001,338.8368112500001,339.532324333,b,0.0,0.6890224169999328,,,,,,sub-144,1,stroop_test,121.45570836421156,
,,,,98.0,2.0,8.0,,,,,,,,,,,,,blau,red,r,0.0,r,1.0,0.6255429580000964,,,,,,,,,,8.0,2.0,98.0,4.0,339.5414871250001,,,,,,,,,,,,,,,,,339.532754833,339.6316915000001,340.4363045829999,340.42506033300003,,,,,,,,,,,,,,,,,,,,,,,,,,,,,,,,,,,340.4289291660001,340.4363045829999,340.4363045829999,341.06654508300005,r,1.0,0.6255429580000964,,,,,,sub-144,1,stroop_test,121.45570836421156,
,,,,99.0,3.0,8.0,,,,,,,,,,,,,gelb,yellow,g,1.0,g,1.0,0.7544017080001595,,,,,,,,,,8.0,3.0,99.0,11.0,341.07634904100007,,,,,,,,,,,,,,,,,341.0670623330001,341.16521087500007,341.9704269580001,341.958567541,,,,,,,,,,,,,,,,,,,,,,,,,,,,,,,,,,,341.9629200830001,341.9704269580001,341.9704269580001,342.72687462500005,g,1.0,0.7544017080001595,,,,,,sub-144,1,stroop_test,121.45570836421156,
,,,,100.0,4.0,8.0,,,,,,,,,,,,,rot,red,r,1.0,r,1.0,0.5883136670001932,,,,,,,,,,8.0,4.0,100.0,1.0,342.73267124999995,,,,,,,,,,,,,,,,,342.7273100829999,343.0746969999999,343.86991316599995,343.8586152910001,,,,,,,,,,,,,,,,,,,,,,,,,,,,,,,,,,,343.862358083,343.86991316599995,343.86991316599995,344.4610571249999,r,1.0,0.5883136670001932,,,,,,sub-144,1,stroop_test,121.45570836421156,
,,,,101.0,5.0,8.0,,,,,,,,,,,,,rot,red,r,1.0,r,1.0,0.4961976249999225,,,,,,,,,,8.0,5.0,101.0,0.0,344.470958,,,,,,,,,,,,,,,,,344.46178687500003,345.65798129100006,346.449855666,346.44209887499994,,,,,,,,,,,,,,,,,,,,,,,,,,,,,,,,,,,346.4427254579999,346.449855666,346.449855666,346.94882637500007,r,1.0,0.4961976249999225,,,,,,sub-144,1,stroop_test,121.45570836421156,
,,,,102.0,6.0,8.0,,,,,,,,,,,,,gelb,red,r,0.0,r,1.0,0.6892086670000026,,,,,,,,,,8.0,6.0,102.0,8.0,346.9575175409999,,,,,,,,,,,,,,,,,346.94924608300005,348.147938708,348.94375108299994,348.93187854099995,,,,,,,,,,,,,,,,,,,,,,,,,,,,,,,,,,,348.9360526250001,348.94375108299994,348.94375108299994,349.642968666,r,1.0,0.6892086670000026,,,,,,sub-144,1,stroop_test,121.45570836421156,
,,,,103.0,7.0,8.0,,,,,,,,,,,,,blau,blue,b,1.0,b,1.0,0.6012158339999587,,,,,,,,,,8.0,7.0,103.0,6.0,349.652090166,,,,,,,,,,,,,,,,,349.6435270830001,349.9915312500001,350.786694583,350.77531225,,,,,,,,,,,,,,,,,,,,,,,,,,,,,,,,,,,350.7791987500001,350.786694583,350.786694583,351.393239333,b,1.0,0.6012158339999587,,,,,,sub-144,1,stroop_test,121.45570836421156,
,,,,104.0,8.0,8.0,,,,,,,,,,,,,rot,blue,b,0.0,b,1.0,0.6461282089999258,,,,,,,,,,8.0,8.0,104.0,2.0,351.40245274999995,,,,,,,,,,,,,,,,,351.39377350000007,352.5914852500001,353.3868853330001,353.37544004099993,,,,,,,,,,,,,,,,,,,,,,,,,,,,,,,,,,,353.379257208,353.3868853330001,353.3868853330001,354.0431547080001,b,1.0,0.6461282089999258,,,,,,sub-144,1,stroop_test,121.45570836421156,
,,,,105.0,9.0,8.0,,,,,,,,,,,,,blau,yellow,g,0.0,g,1.0,0.5111145420000867,,,,,,,,,,8.0,9.0,105.0,7.0,354.052275875,,,,,,,,,,,,,,,,,354.043603083,354.1414248330001,354.936414958,354.9254629999999,,,,,,,,,,,,,,,,,,,,,,,,,,,,,,,,,,,354.929297583,354.936414958,354.936414958,355.4500865829999,g,1.0,0.5111145420000867,,,,,,sub-144,1,stroop_test,121.45570836421156,
,,,,106.0,10.0,8.0,,,,,,,,,,,,,gelb,blue,b,0.0,b,1.0,0.4913762080000197,,,,,,,,,,8.0,10.0,106.0,9.0,355.459491166,,,,,,,,,,,,,,,,,355.45050308299994,356.2482947909999,357.053347916,357.0423267079999,,,,,,,,,,,,,,,,,,,,,,,,,,,,,,,,,,,357.04620250000005,357.053347916,357.053347916,357.549792208,b,1.0,0.4913762080000197,,,,,,sub-144,1,stroop_test,121.45570836421156,
,,,,107.0,11.0,8.0,,,,,,,,,,,,,rot,yellow,g,0.0,g,1.0,0.6833430829999543,,,,,,,,,,8.0,11.0,107.0,3.0,357.5745945,,,,,,,,,,,,,,,,,357.5502889160001,357.89819049999994,358.704285791,358.6922902079999,,,,,,,,,,,,,,,,,,,,,,,,,,,,,,,,,,,358.696664208,358.704285791,358.704285791,359.393648375,g,1.0,0.6833430829999543,,,,,,sub-144,1,stroop_test,121.45570836421156,
,,,,108.0,0.0,9.0,,,,,,,,,,,,,blau,blue,b,1.0,b,1.0,0.5969708750001246,,,,,,,,,,9.0,0.0,108.0,5.0,359.40405924999993,,,,,,,,,,,,,,,,,359.394302416,360.19171666599993,360.9878360409999,360.976020833,,,,,,,,,,,,,,,,,,,,,,,,,,,,,,,,,,,360.98038329100007,360.9878360409999,360.9878360409999,361.5940460830001,b,1.0,0.5969708750001246,,,,,,sub-144,1,stroop_test,121.45570836421156,
,,,,109.0,1.0,9.0,,,,,,,,,,,,,rot,blue,b,0.0,b,1.0,0.6782612500001051,,,,,,,,,,9.0,1.0,109.0,2.0,361.6032073750001,,,,,,,,,,,,,,,,,361.5945847910001,361.6911637080001,362.487728666,362.4756557910001,,,,,,,,,,,,,,,,,,,,,,,,,,,,,,,,,,,362.480303958,362.487728666,362.487728666,363.177177916,b,1.0,0.6782612500001051,,,,,,sub-144,1,stroop_test,121.45570836421156,
,,,,110.0,2.0,9.0,,,,,,,,,,,,,gelb,yellow,g,1.0,g,1.0,0.7372988750000786,,,,,,,,,,9.0,2.0,110.0,10.0,363.186398208,,,,,,,,,,,,,,,,,363.1776555830001,364.375195,365.171308541,365.159196708,,,,,,,,,,,,,,,,,,,,,,,,,,,,,,,,,,,365.1636803749999,365.171308541,365.171308541,365.914050541,g,1.0,0.7372988750000786,,,,,,sub-144,1,stroop_test,121.45570836421156,
,,,,111.0,3.0,9.0,,,,,,,,,,,,,rot,red,r,1.0,r,1.0,0.4136910839999927,,,,,,,,,,9.0,3.0,111.0,1.0,365.9246877910001,,,,,,,,,,,,,,,,,365.91447270800006,366.26505624999993,367.0698732080001,367.059087083,,,,,,,,,,,,,,,,,,,,,,,,,,,,,,,,,,,367.06264087500006,367.0698732080001,367.0698732080001,367.493877041,r,1.0,0.4136910839999927,,,,,,sub-144,1,stroop_test,121.45570836421156,
,,,,112.0,4.0,9.0,,,,,,,,,,,,,blau,red,r,0.0,r,1.0,0.437556584000049,,,,,,,,,,9.0,4.0,112.0,4.0,367.5029471250001,,,,,,,,,,,,,,,,,367.494307541,368.291606833,369.08731987499993,369.0757393749999,,,,,,,,,,,,,,,,,,,,,,,,,,,,,,,,,,,369.0799781249999,369.08731987499993,369.08731987499993,369.526740291,r,1.0,0.437556584000049,,,,,,sub-144,1,stroop_test,121.45570836421156,
,,,,113.0,5.0,9.0,,,,,,,,,,,,,rot,yellow,g,0.0,g,1.0,0.5647267909998845,,,,,,,,,,9.0,5.0,113.0,3.0,369.5347456660001,,,,,,,,,,,,,,,,,369.5271275409999,369.875315375,370.67017762500006,370.6593087079999,,,,,,,,,,,,,,,,,,,,,,,,,,,,,,,,,,,370.662864041,370.67017762500006,370.67017762500006,371.243715708,g,1.0,0.5647267909998845,,,,,,sub-144,1,stroop_test,121.45570836421156,
,,,,114.0,6.0,9.0,,,,,,,,,,,,,blau,yellow,g,0.0,g,1.0,0.6782995420001043,,,,,,,,,,9.0,6.0,114.0,7.0,371.252949583,,,,,,,,,,,,,,,,,371.24425195800006,372.4416466250001,373.236578833,373.22585104100006,,,,,,,,,,,,,,,,,,,,,,,,,,,,,,,,,,,373.2293075409999,373.236578833,373.236578833,373.927385541,g,1.0,0.6782995420001043,,,,,,sub-144,1,stroop_test,121.45570836421156,
,,,,115.0,7.0,9.0,,,,,,,,,,,,,gelb,red,r,0.0,r,1.0,0.6429166670000086,,,,,,,,,,9.0,7.0,115.0,8.0,373.936940125,,,,,,,,,,,,,,,,,373.9279252079999,374.275352708,375.06966687500005,375.0591687499999,,,,,,,,,,,,,,,,,,,,,,,,,,,,,,,,,,,375.06249041600006,375.06966687500005,375.06966687500005,375.71672887500006,r,1.0,0.6429166670000086,,,,,,sub-144,1,stroop_test,121.45570836421156,
,,,,116.0,8.0,9.0,,,,,,,,,,,,,gelb,blue,b,0.0,b,1.0,0.7441845830001057,,,,,,,,,,9.0,8.0,116.0,9.0,375.7416857500001,,,,,,,,,,,,,,,,,375.71715270800007,376.0652367910001,376.8667950410001,376.8593015830001,,,,,,,,,,,,,,,,,,,,,,,,,,,,,,,,,,,376.8599465410001,376.8667950410001,376.8667950410001,377.6168872500001,b,1.0,0.7441845830001057,,,,,,sub-144,1,stroop_test,121.45570836421156,
,,,,117.0,9.0,9.0,,,,,,,,,,,,,blau,blue,b,1.0,b,1.0,0.3713039169999774,,,,,,,,,,9.0,9.0,117.0,6.0,377.641736708,,,,,,,,,,,,,,,,,377.6173130000001,378.4152901660001,379.2211900830001,379.20947883299993,,,,,,,,,,,,,,,,,,,,,,,,,,,,,,,,,,,379.21397850000005,379.2211900830001,379.2211900830001,379.6009775000001,b,1.0,0.3713039169999774,,,,,,sub-144,1,stroop_test,121.45570836421156,
,,,,118.0,10.0,9.0,,,,,,,,,,,,,gelb,yellow,g,1.0,g,1.0,0.704906291000043,,,,,,,,,,9.0,10.0,118.0,11.0,379.6107557910001,,,,,,,,,,,,,,,,,379.601507791,380.7992660829999,381.6047291660001,381.5928855000001,,,,,,,,,,,,,,,,,,,,,,,,,,,,,,,,,,,381.597257083,381.6047291660001,381.6047291660001,382.3216315000001,g,1.0,0.704906291000043,,,,,,sub-144,1,stroop_test,121.45570836421156,
,,,,119.0,11.0,9.0,,,,,,,,,,,,,rot,red,r,1.0,r,1.0,0.526394124999797,,,,,,,,,,9.0,11.0,119.0,0.0,382.326871291,,,,,,,,,,,,,,,,,382.32206762499993,383.5145254580001,384.308552541,384.297800958,,,,,,,,,,,,,,,,,,,,,,,,,,,,,,,,,,,384.299356166,384.308552541,384.308552541,384.844191041,r,1.0,0.526394124999797,,,,,,sub-144,1,stroop_test,121.45570836421156,
,,,,,,,,,,,,,,,,,,,,,,,,,,,,,,,,,,,,,,,,,,,,,,,,,,,,,,,,,,,,,,,,,,,,,,,,,,,,,,,,,,,,,,,,,,,,,,,,,,,,,,384.8444230829999,384.8542187500001,389.8471033750001,389.8429182910001,sub-144,1,stroop_test,121.45570836421156,
