direction,corrAns,thisN,thisTrialN,thisRepN,respDots.keys,respDots.corr,respDots.rt,respDots.duration,randomInstr,respRandomInstr.keys,respRandomInstr.rt,respRandomInstr.duration,practice_trials.thisRepN,practice_trials.thisTrialN,practice_trials.thisN,practice_trials.thisIndex,instr_trials.thisRepN,instr_trials.thisTrialN,instr_trials.thisN,instr_trials.thisIndex,test_trials.thisRepN,test_trials.thisTrialN,test_trials.thisN,test_trials.thisIndex,thisRow.t,notes,general_instruction.started,textGeneralInstr.started,respGeneralInstr.started,general_instruction.stopped,respGeneralInstr.keys,respGeneralInstr.rt,respGeneralInstr.duration,ITI.started,fixcross.started,fixcross.stopped,ITI.stopped,dots.started,backgroundDots.started,stimulusDots.started,respDots.started,stimulusDots.stopped,dots.stopped,practice_trials.respDots.keys,practice_trials.respDots.corr,practice_trials.respDots.rt,practice_trials.respDots.duration,feedback.started,textFeedback.started,feedback.stopped,textFeedback.stopped,info.started,textInfo.started,keyRespInfo.started,info.stopped,keyRespInfo.keys,keyRespInfo.rt,keyRespInfo.duration,test_instruction.started,textTestInstr.started,respTestInstr.started,test_instruction.stopped,respTestInstr.keys,respTestInstr.rt,respTestInstr.duration,random_instruction.started,textRandomInstr.started,respRandomInstr.started,random_instruction.stopped,instr_trials.respRandomInstr.keys,instr_trials.respRandomInstr.rt,instr_trials.respRandomInstr.duration,test_trials.respDots.keys,test_trials.respDots.corr,test_trials.respDots.rt,test_trials.respDots.duration,goodbye.started,textGoodbye.started,textGoodbye.stopped,goodbye.stopped,participant,session,expName,frameRate,Unnamed: 88
,,,,,,,,,,,,,,,,,,,,,,,,,,,0.0166157679996103,0.0288553419995878,0.0288553419995878,59.15258184599952,space,59.10662146100003,,,,,,,,,,,,,,,,,,,,,,,,,,,,,,,,,,,,,,,,,,,,,,,,,sub-145,1,random_dot,,
right,right,0.0,0.0,0.0,right,1.0,5.630532421999305,,,,,,0.0,0.0,0.0,1.0,,,,,,,,,59.20002516100067,,,,,,,,,59.17995836699993,60.35028882500046,61.15644909100047,61.13429918200018,61.13465091299986,61.15644909100047,61.15644909100047,61.15644909100047,66.1231036879999,66.79150189699976,right,1.0,5.630532421999305,,66.7962370589994,66.85110525699929,67.30051578100029,,,,,,,,,,,,,,,,,,,,,,,,,,,,,,,sub-145,1,random_dot,,
left,left,1.0,1.0,0.0,left,1.0,3.86599865000062,,,,,,0.0,1.0,1.0,0.0,,,,,,,,,67.3059137830005,,,,,,,,,67.30081401400093,68.08893173199976,68.88367509899945,68.87282970900014,68.87316464800097,68.88367509899945,68.88367509899945,68.88367509899945,,72.75160424100068,left,1.0,3.86599865000062,,72.75168941300035,72.75791355600086,73.25111942399963,73.25645607099977,,,,,,,,,,,,,,,,,,,,,,,,,,,,,,sub-145,1,random_dot,,
right,right,2.0,0.0,1.0,right,1.0,4.153313163000348,,,,,,1.0,0.0,2.0,1.0,,,,,,,,,73.25645607099977,,,,,,,,,73.25141871599953,73.35039005699946,74.14154629599943,74.13463215000047,74.13495955200051,74.14154629599943,74.14154629599943,74.14154629599943,,78.3019266930005,right,1.0,4.153313163000348,,78.30201177100025,78.30795328500062,78.80125997300092,78.80636868900001,,,,,,,,,,,,,,,,,,,,,,,,,,,,,,sub-145,1,random_dot,,
left,left,3.0,1.0,1.0,left,1.0,4.369688877999579,,,,,,1.0,1.0,3.0,0.0,,,,,,,,,78.80636868900001,,,,,,,,,78.80154248300096,80.0004784699995,80.79136545199981,80.78444484300053,80.7847798799994,80.79136545199981,80.79136545199981,80.79136545199981,,85.16860376099976,left,1.0,4.369688877999579,,85.16869250300078,85.17483242600065,85.66782511199926,85.67305666299944,,,,,,,,,,,,,,,,,,,,,,,,,,,,,,sub-145,1,random_dot,,
right,right,4.0,0.0,2.0,right,1.0,4.8827402090009855,,,,,,2.0,0.0,4.0,1.0,,,,,,,,,85.67305666299944,,,,,,,,,85.66811355800019,86.01702935200046,86.80784829100048,86.80107201099963,86.80140991299959,86.80784829100048,86.80784829100048,86.80784829100048,,91.69221532399932,right,1.0,4.8827402090009855,,91.69230305400016,91.7004662090003,92.18470418700052,92.18981260200052,,,,,,,,,,,,,,,,,,,,,,,,,,,,,,sub-145,1,random_dot,,
left,left,5.0,1.0,2.0,right,0.0,4.894534319999366,,,,,,2.0,1.0,5.0,0.0,,,,,,,,,92.18981260200052,,,,,,,,,92.18498787099998,93.38899156700064,94.18391469199923,94.17249469499984,94.17280410199965,94.18391469199923,94.18391469199923,94.18391469199923,,99.08462950800094,right,0.0,4.894534319999366,,99.08737512399966,99.09603768399938,99.58450350100064,99.5896179829997,,,,,,,,,,,,,,,,,,,,,,,,,,,,,,sub-145,1,random_dot,,
left,left,6.0,0.0,3.0,right,0.0,2.5352438320005604,,,,,,3.0,0.0,6.0,0.0,,,,,,,,,99.5896179829997,,,,,,,,,99.58478033000029,100.37227251200056,101.16721030900044,101.15640089800036,101.15673493599934,101.16721030900044,101.16721030900044,101.16721030900044,,103.70920616200056,right,0.0,2.5352438320005604,,103.70931408199976,103.71709723300046,104.20130483399952,104.20655509800054,,,,,,,,,,,,,,,,,,,,,,,,,,,,,,sub-145,1,random_dot,,
right,right,7.0,1.0,3.0,right,1.0,5.934827627001141,,,,,,3.0,1.0,7.0,1.0,,,,,,,,,104.20655509800054,,,,,,,,,104.20158732799972,104.55563749199972,105.35059110700058,105.33973087900084,105.34006569300072,105.35059110700058,105.35059110700058,105.35059110700058,110.3339696990006,111.29083433300002,right,1.0,5.934827627001141,,111.29309265200028,111.30052763099955,111.7845818320002,111.78986136899948,,,,,,,,,,,,,,,,,,,,,,,,,,,,,,sub-145,1,random_dot,,
left,left,8.0,0.0,4.0,left,1.0,5.823426032999123,,,,,,4.0,0.0,8.0,0.0,,,,,,,,,111.78986136899948,,,,,,,,,111.78487031300028,112.5891264870006,113.3840650860002,113.37304174100063,113.37337574500089,113.3840650860002,113.3840650860002,113.3840650860002,118.36727676900044,119.21911320000072,left,1.0,5.823426032999123,,119.21920175500054,119.22521757300092,119.71802254000067,119.72313914500046,,,,,,,,,,,,,,,,,,,,,,,,,,,,,,sub-145,1,random_dot,,
right,right,9.0,1.0,4.0,left,0.0,5.7871089629989,,,,,,4.0,1.0,9.0,1.0,,,,,,,,,119.72313914500046,,,,,,,,,119.71830716300065,120.06723584800056,120.85785596300047,120.85115469099946,120.85149318100048,120.85785596300047,120.85785596300047,120.85785596300047,125.84014931400088,126.65215002900004,left,0.0,5.7871089629989,,126.65441508500044,126.6607096030002,127.15137418000086,127.15647058600008,,,,,,,,,,,,,,,,,,,,,,,,,,,,,,sub-145,1,random_dot,,
right,right,10.0,0.0,5.0,right,1.0,4.6091968669989,,,,,,5.0,0.0,10.0,1.0,,,,,,,,,127.15647058600008,,,,,,,,,127.15165942599924,128.3505551390008,129.14137373300036,129.1346146020005,129.13495703800072,129.14137373300036,129.14137373300036,129.14137373300036,,133.75231176300076,right,1.0,4.6091968669989,,133.7544966589994,133.7607894089997,134.2513335370004,134.25648896799976,,,,,,,,,,,,,,,,,,,,,,,,,,,,,,sub-145,1,random_dot,,
left,left,11.0,1.0,5.0,right,0.0,5.742566884000553,,,,,,5.0,1.0,11.0,0.0,,,,,,,,,134.25648896799976,,,,,,,,,134.2516412040004,134.60067506300038,135.3915937799993,135.38464882399967,135.38498623799933,135.3915937799993,135.3915937799993,135.3915937799993,140.37340791899987,141.13600507699994,right,0.0,5.742566884000553,,141.1382610620003,141.1450796249992,141.63468509099948,141.63995730900024,,,,,,,,,,,,,,,,,,,,,,,,,,,,,,sub-145,1,random_dot,,
left,left,12.0,0.0,6.0,right,0.0,4.370279950999247,,,,,,6.0,0.0,12.0,0.0,,,,,,,,,141.63995730900024,,,,,,,,,141.63509075600086,141.98402377599996,142.77497002699965,142.7680359700007,142.7683684019994,142.77497002699965,142.77497002699965,142.77497002699965,,147.1519136700008,right,0.0,4.370279950999247,,147.15199097500044,147.15771488999962,147.65152500600016,147.65672926300067,,,,,,,,,,,,,,,,,,,,,,,,,,,,,,sub-145,1,random_dot,,
right,right,13.0,1.0,6.0,right,1.0,5.701001890998668,,,,,,6.0,1.0,13.0,1.0,,,,,,,,,147.65672926300067,,,,,,,,,147.6518107440006,148.85068055100055,149.641619,149.6349563019994,149.63528805699934,149.641619,149.641619,149.641619,154.6236600379998,155.35231100599958,right,1.0,5.701001890998668,,155.35492062999947,155.36134865299937,155.8513943149992,155.85656803100028,,,,,,,,,,,,,,,,,,,,,,,,,,,,,,sub-145,1,random_dot,,
left,left,14.0,0.0,7.0,left,1.0,1.2942538600000262,,,,,,7.0,0.0,14.0,0.0,,,,,,,,,155.85656803100028,,,,,,,,,155.8516781239996,156.20073959900037,156.9918360970005,156.98491423999985,156.9852543449997,156.9918360970005,156.9918360970005,156.9918360970005,,158.29247149299954,left,1.0,1.2942538600000262,,158.29257904000042,158.30068705600024,158.7846298050008,158.78985337999984,,,,,,,,,,,,,,,,,,,,,,,,,,,,,,sub-145,1,random_dot,,
right,right,15.0,1.0,7.0,left,0.0,3.9658674350012006,,,,,,7.0,1.0,15.0,1.0,,,,,,,,,158.78985337999984,,,,,,,,,158.78491541900075,159.9892803359999,160.78410650600017,160.77350640199984,160.7738340140004,160.78410650600017,160.78410650600017,160.78410650600017,,164.75187437400018,left,0.0,3.9658674350012006,,164.75405045300067,164.76041082499978,165.25144583399924,165.25668822899934,,,,,,,,,,,,,,,,,,,,,,,,,,,,,,sub-145,1,random_dot,,
left,left,16.0,0.0,8.0,right,0.0,5.406100281999898,,,,,,8.0,0.0,16.0,0.0,,,,,,,,,165.25668822899934,,,,,,,,,165.2517343540003,166.05073343100048,166.8415147449996,166.83474837799986,166.83509727599994,166.8415147449996,166.8415147449996,166.8415147449996,171.8235831029997,172.25258246900012,right,0.0,5.406100281999898,,172.25267214199994,172.25877746399965,172.75138456199966,172.75660725099988,,,,,,,,,,,,,,,,,,,,,,,,,,,,,,sub-145,1,random_dot,,
right,right,17.0,1.0,8.0,right,1.0,5.417186164999293,,,,,,8.0,1.0,17.0,1.0,,,,,,,,,172.75660725099988,,,,,,,,,172.75169343199923,173.10069872699933,173.89137375999962,173.8847918299998,173.88512626600095,173.89137375999962,173.89137375999962,173.89137375999962,178.87355768999987,179.31932168800083,right,1.0,5.417186164999293,,179.32165270500082,179.32828594700004,179.81822102300066,179.82349063699985,,,,,,,,,,,,,,,,,,,,,,,,,,,,,,sub-145,1,random_dot,,
right,right,18.0,0.0,9.0,left,0.0,6.639454914999078,,,,,,9.0,0.0,18.0,1.0,,,,,,,,,179.82349063699985,,,,,,,,,179.81850359300006,179.91743834999943,180.70823608700084,180.701472398001,180.7018141589997,180.70823608700084,180.70823608700084,180.70823608700084,185.6904886880002,187.35243547699972,left,0.0,6.639454914999078,,187.3547195859992,187.3611111579994,187.85137117299928,187.85606913599983,,,,,,,,,,,,,,,,,,,,,,,,,,,,,,sub-145,1,random_dot,,
left,left,19.0,1.0,9.0,right,0.0,5.993164827999863,,,,,,9.0,1.0,19.0,0.0,,,,,,,,,187.85606913599983,,,,,,,,,187.85161052399965,189.05074536699976,189.84136454600048,189.8348218859992,189.83516635200067,189.84136454600048,189.84136454600048,189.84136454600048,194.82387345400093,195.84294100999975,right,0.0,5.993164827999863,,195.8430506420009,195.8506816249992,196.33487168099964,196.3418372590004,,,,,,,,,,,,,,,,,,,,,,,,,,,,,,sub-145,1,random_dot,,
,,,,,,,,,,,,,,,,,,,,,,,,,,,,,,,,,,,,,,,,,,,,,,,,,,,,196.33498818299995,196.3418372590004,196.3418372590004,203.16930768599923,space,6.8187889410000935,,,,,,,,,,,,,,,,,,,,,,,,sub-145,1,random_dot,,
,,,,,,,,,,,,,,,,,,,,,,,,,,,,,,,,,,,,,,,,,,,,,,,,,,,,,,,,,,,203.1693729149993,203.17771433300004,203.17771433300004,215.7357520810001,space,12.548986175999744,,,,,,,,,,,,,,,,,sub-145,1,random_dot,,
left,left,0.0,0.0,0.0,left,1.0,1.7027260869999736,,speed,space,4.853870203998667,,,,,,0.0,0.0,0.0,1.0,0.0,0.0,0.0,0.0,220.6298733010008,,,,,,,,,220.62380828000096,221.81758623799945,222.60845078999955,222.601581854,222.601922586,222.60845078999955,222.60845078999955,222.60845078999955,,224.3192602300005,,,,,,,,,,,,,,,,,,,,,,,215.75028150199975,215.7596231780008,215.7596231780008,220.61910734999947,space,4.853870203998667,,left,1.0,1.7027260869999736,,,,,,sub-145,1,random_dot,,
right,right,1.0,1.0,0.0,left,0.0,2.9493255270008376,,speed,space,4.853870203998667,,,,,,0.0,0.0,0.0,1.0,0.0,1.0,1.0,1.0,224.32562312899967,,,,,,,,,224.31956480100047,225.51765141500076,226.3087237359996,226.3018742690001,226.30221162400085,226.3087237359996,226.3087237359996,226.3087237359996,,229.2598099120005,,,,,,,,,,,,,,,,,,,,,,,,,,,,,,left,0.0,2.9493255270008376,,,,,,sub-145,1,random_dot,,
right,right,2.0,0.0,1.0,right,1.0,4.360850635999668,,speed,space,4.853870203998667,,,,,,0.0,0.0,0.0,1.0,1.0,0.0,2.0,1.0,229.26736685800097,,,,,,,,,229.26007151500016,229.35624977999944,230.15084735100027,230.1402002890009,230.1405354279996,230.15084735100027,230.15084735100027,230.15084735100027,,234.5191620050009,,,,,,,,,,,,,,,,,,,,,,,,,,,,,,right,1.0,4.360850635999668,,,,,,sub-145,1,random_dot,,
left,left,3.0,1.0,1.0,left,1.0,5.569392499999594,,speed,space,4.853870203998667,,,,,,0.0,0.0,0.0,1.0,1.0,1.0,3.0,0.0,234.5251648909998,,,,,,,,,234.5194614939992,234.61758670699965,235.40838288899977,235.4015610490005,235.40190126800007,235.40838288899977,235.40838288899977,235.40838288899977,240.3903357979998,240.98610645699955,,,,,,,,,,,,,,,,,,,,,,,,,,,,,,left,1.0,5.569392499999594,,,,,,sub-145,1,random_dot,,
left,left,4.0,0.0,2.0,right,0.0,2.5296363800007384,,speed,space,4.853870203998667,,,,,,0.0,0.0,0.0,1.0,2.0,0.0,4.0,0.0,240.99241964499925,,,,,,,,,240.9864806099995,241.0842410080004,241.87501305499973,241.86818665700048,241.86852126200029,241.87501305499973,241.87501305499973,241.87501305499973,,244.4099142249997,,,,,,,,,,,,,,,,,,,,,,,,,,,,,,right,0.0,2.5296363800007384,,,,,,sub-145,1,random_dot,,
right,right,5.0,1.0,2.0,left,0.0,2.6123111180004344,,speed,space,4.853870203998667,,,,,,0.0,0.0,0.0,1.0,2.0,1.0,5.0,1.0,244.41748885800007,,,,,,,,,244.4102615819993,245.20624693299945,246.0009817000009,245.9903099620005,245.9906471720005,246.0009817000009,246.0009817000009,246.0009817000009,,248.6190189780009,,,,,,,,,,,,,,,,,,,,,,,,,,,,,,left,0.0,2.6123111180004344,,,,,,sub-145,1,random_dot,,
right,right,6.0,0.0,3.0,right,1.0,5.805596571999558,,speed,space,4.853870203998667,,,,,,0.0,0.0,0.0,1.0,3.0,0.0,6.0,1.0,248.6251307950006,,,,,,,,,248.6193106539995,248.7176576689999,249.50858282199988,249.5018277800009,249.50216179500055,249.50858282199988,249.50858282199988,249.50858282199988,254.49013540600023,255.3192884300006,,,,,,,,,,,,,,,,,,,,,,,,,,,,,,right,1.0,5.805596571999558,,,,,,sub-145,1,random_dot,,
left,left,7.0,1.0,3.0,left,1.0,1.7895433769990632,,speed,space,4.853870203998667,,,,,,0.0,0.0,0.0,1.0,3.0,1.0,7.0,0.0,255.325395934,,,,,,,,,255.3195998400006,256.117765559,256.9087507080003,256.9018908849994,256.90222305799944,256.9087507080003,256.9087507080003,256.9087507080003,,258.7027121299998,,,,,,,,,,,,,,,,,,,,,,,,,,,,,,left,1.0,1.7895433769990632,,,,,,sub-145,1,random_dot,,
right,right,8.0,0.0,4.0,right,1.0,2.78070322199892,,speed,space,4.853870203998667,,,,,,0.0,0.0,0.0,1.0,4.0,0.0,8.0,1.0,258.7088232660008,,,,,,,,,258.70301302200096,258.8011897489996,259.5918075680001,259.58503909799947,259.58537114700084,259.5918075680001,259.5918075680001,259.5918075680001,,262.3764482480001,,,,,,,,,,,,,,,,,,,,,,,,,,,,,,right,1.0,2.78070322199892,,,,,,sub-145,1,random_dot,,
left,left,9.0,1.0,4.0,left,1.0,2.714352246999624,,speed,space,4.853870203998667,,,,,,0.0,0.0,0.0,1.0,4.0,1.0,9.0,0.0,262.38421721300074,,,,,,,,,262.3767587019993,263.17295198300053,263.9677184539996,263.9568984100006,263.95723797400024,263.9677184539996,263.9677184539996,263.9677184539996,,266.6857903559994,,,,,,,,,,,,,,,,,,,,,,,,,,,,,,left,1.0,2.714352246999624,,,,,,sub-145,1,random_dot,,
left,left,10.0,0.0,5.0,right,0.0,1.8395126460000029,,speed,space,4.853870203998667,,,,,,0.0,0.0,0.0,1.0,5.0,0.0,10.0,0.0,266.69185993499923,,,,,,,,,266.6860839929996,267.0343825020009,267.8248186180008,267.8183147870004,267.8186531629999,267.8248186180008,267.8248186180008,267.8248186180008,,269.66936749399974,,,,,,,,,,,,,,,,,,,,,,,,,,,,,,right,0.0,1.8395126460000029,,,,,,sub-145,1,random_dot,,
right,right,11.0,1.0,5.0,left,0.0,2.1689761230009026,,speed,space,4.853870203998667,,,,,,0.0,0.0,0.0,1.0,5.0,1.0,11.0,1.0,269.67556907499966,,,,,,,,,269.6696621880001,270.46766483899955,271.2587066979995,271.25182707599924,271.25216353699943,271.2587066979995,271.2587066979995,271.2587066979995,,273.4361475450005,,,,,,,,,,,,,,,,,,,,,,,,,,,,,,left,0.0,2.1689761230009026,,,,,,sub-145,1,random_dot,,
right,right,12.0,0.0,6.0,right,1.0,1.1426592230000097,,speed,space,4.853870203998667,,,,,,0.0,0.0,0.0,1.0,6.0,0.0,12.0,1.0,273.442603857,,,,,,,,,273.43651388500075,273.53434739899967,274.32531369000026,274.318682395,274.3190147610003,274.32531369000026,274.32531369000026,274.32531369000026,,275.46993446099987,,,,,,,,,,,,,,,,,,,,,,,,,,,,,,right,1.0,1.1426592230000097,,,,,,sub-145,1,random_dot,,
left,left,13.0,1.0,6.0,left,1.0,4.394516761998602,,speed,space,4.853870203998667,,,,,,0.0,0.0,0.0,1.0,6.0,1.0,13.0,0.0,275.47581893499955,,,,,,,,,275.4702311630008,276.2675641320002,277.05872870200074,277.0519747449998,277.0523112970004,277.05872870200074,277.05872870200074,277.05872870200074,,281.4596197289993,,,,,,,,,,,,,,,,,,,,,,,,,,,,,,left,1.0,4.394516761998602,,,,,,sub-145,1,random_dot,,
left,left,14.0,0.0,7.0,right,0.0,2.8940527940012544,,speed,space,4.853870203998667,,,,,,0.0,0.0,0.0,1.0,7.0,0.0,14.0,0.0,281.467645961,,,,,,,,,281.4599298249996,281.5562141619994,282.35100594100004,282.3400234370001,282.34036195000044,282.35100594100004,282.35100594100004,282.35100594100004,,285.2529460469996,,,,,,,,,,,,,,,,,,,,,,,,,,,,,,right,0.0,2.8940527940012544,,,,,,sub-145,1,random_dot,,
right,right,15.0,1.0,7.0,right,1.0,4.565602888000285,,speed,space,4.853870203998667,,,,,,0.0,0.0,0.0,1.0,7.0,1.0,15.0,1.0,285.25933572599934,,,,,,,,,285.25331495799946,286.4512153100004,287.2419801600008,287.2350977210008,287.2354393709993,287.2419801600008,287.2419801600008,287.2419801600008,,291.8092169800002,,,,,,,,,,,,,,,,,,,,,,,,,,,,,,right,1.0,4.565602888000285,,,,,,sub-145,1,random_dot,,
right,right,16.0,0.0,8.0,left,0.0,1.9375090060002549,,speed,space,4.853870203998667,,,,,,0.0,0.0,0.0,1.0,8.0,0.0,16.0,1.0,291.8177472210009,,,,,,,,,291.80951843799994,291.9066041139995,292.70103198200013,292.6900014269995,292.6903284990003,292.70103198200013,292.70103198200013,292.70103198200013,,294.64272577200063,,,,,,,,,,,,,,,,,,,,,,,,,,,,,,left,0.0,1.9375090060002549,,,,,,sub-145,1,random_dot,,
left,left,17.0,1.0,8.0,right,0.0,1.2957305399995676,,speed,space,4.853870203998667,,,,,,0.0,0.0,0.0,1.0,8.0,1.0,17.0,0.0,294.65082755500043,,,,,,,,,294.6430078909998,294.7401015760006,295.5343713180009,295.5234849040007,295.5238173960006,295.5343713180009,295.5343713180009,295.5343713180009,,296.8356484680007,,,,,,,,,,,,,,,,,,,,,,,,,,,,,,right,0.0,1.2957305399995676,,,,,,sub-145,1,random_dot,,
left,left,18.0,0.0,9.0,right,0.0,5.1586830010001,,speed,space,4.853870203998667,,,,,,0.0,0.0,0.0,1.0,9.0,0.0,18.0,0.0,296.8414535070005,,,,,,,,,296.8359482750002,298.0343768170005,298.8252112709997,298.8185745369992,298.8189079120002,298.8252112709997,298.8252112709997,298.8252112709997,303.80748384800063,303.9858598139999,,,,,,,,,,,,,,,,,,,,,,,,,,,,,,right,0.0,5.1586830010001,,,,,,sub-145,1,random_dot,,
right,right,19.0,1.0,9.0,left,0.0,5.649699827999939,,speed,space,4.853870203998667,,,,,,0.0,0.0,0.0,1.0,9.0,1.0,19.0,1.0,303.99200602100063,,,,,,,,,303.9861777299993,305.1843332240005,305.97525319600027,305.96850712000014,305.9688430850001,305.97525319600027,305.97525319600027,305.97525319600027,310.9574806620003,311.63626908600054,,,,,,,,,,,,,,,,,,,,,,,,,,,,,,left,0.0,5.649699827999939,,,,,,sub-145,1,random_dot,,
right,right,20.0,0.0,10.0,left,0.0,0.9533633749997534,,speed,space,4.853870203998667,,,,,,0.0,0.0,0.0,1.0,10.0,0.0,20.0,1.0,311.6424405969992,,,,,,,,,311.6365683849999,312.4345416060005,313.2250471379993,313.21841121000034,313.2187633529993,313.2250471379993,313.2250471379993,313.2250471379993,,314.1861798760001,,,,,,,,,,,,,,,,,,,,,,,,,,,,,,left,0.0,0.9533633749997534,,,,,,sub-145,1,random_dot,,
left,left,21.0,1.0,10.0,right,0.0,0.9433955599997716,,speed,space,4.853870203998667,,,,,,0.0,0.0,0.0,1.0,10.0,1.0,21.0,0.0,314.1922099179992,,,,,,,,,314.18648345600013,314.28438404200097,315.07523279499947,315.06845632099976,315.068788781,315.07523279499947,315.07523279499947,315.07523279499947,,316.02660988500065,,,,,,,,,,,,,,,,,,,,,,,,,,,,,,right,0.0,0.9433955599997716,,,,,,sub-145,1,random_dot,,
left,left,22.0,0.0,11.0,left,1.0,2.666642924999905,,speed,space,4.853870203998667,,,,,,0.0,0.0,0.0,1.0,11.0,0.0,22.0,0.0,316.0344001880003,,,,,,,,,316.026882305001,317.2229084720002,318.0177675699997,318.00693597899954,318.0072736090005,318.0177675699997,318.0177675699997,318.0177675699997,,320.6864653240009,,,,,,,,,,,,,,,,,,,,,,,,,,,,,,left,1.0,2.666642924999905,,,,,,sub-145,1,random_dot,,
right,right,23.0,1.0,11.0,left,0.0,3.619418094000139,,speed,space,4.853870203998667,,,,,,0.0,0.0,0.0,1.0,11.0,1.0,23.0,1.0,320.6924141800009,,,,,,,,,320.6867669099993,321.4845034589998,322.2754986300006,322.26854131899927,322.2688765370003,322.2754986300006,322.2754986300006,322.2754986300006,,325.90259818400045,,,,,,,,,,,,,,,,,,,,,,,,,,,,,,left,0.0,3.619418094000139,,,,,,sub-145,1,random_dot,,
right,right,24.0,0.0,12.0,right,1.0,5.266883230000531,,speed,space,4.853870203998667,,,,,,0.0,0.0,0.0,1.0,12.0,0.0,24.0,1.0,325.9087637089997,,,,,,,,,325.9028897749995,326.2511278769998,327.04234958599955,327.0351446320001,327.0356548639993,327.04234958599955,327.04234958599955,327.04234958599955,332.0238715649993,332.319845991,,,,,,,,,,,,,,,,,,,,,,,,,,,,,,right,1.0,5.266883230000531,,,,,,sub-145,1,random_dot,,
left,left,25.0,1.0,12.0,left,1.0,1.72803042400119,,speed,space,4.853870203998667,,,,,,0.0,0.0,0.0,1.0,12.0,1.0,25.0,0.0,332.326221968,,,,,,,,,332.3202124540003,332.6676809920009,333.4586703940004,333.45190632400045,333.452428007,333.4586703940004,333.4586703940004,333.4586703940004,,335.1932916620008,,,,,,,,,,,,,,,,,,,,,,,,,,,,,,left,1.0,1.72803042400119,,,,,,sub-145,1,random_dot,,
right,right,26.0,0.0,13.0,right,1.0,1.464081095999063,,speed,space,4.853870203998667,,,,,,0.0,0.0,0.0,1.0,13.0,0.0,26.0,1.0,335.2012545130001,,,,,,,,,335.193665144001,335.2896630720006,336.0846335890001,336.07355899399954,336.0738946149995,336.0846335890001,336.0846335890001,336.0846335890001,,337.5528023700008,,,,,,,,,,,,,,,,,,,,,,,,,,,,,,right,1.0,1.464081095999063,,,,,,sub-145,1,random_dot,,
left,left,27.0,1.0,13.0,left,1.0,3.066740498999934,,speed,space,4.853870203998667,,,,,,0.0,0.0,0.0,1.0,13.0,1.0,27.0,0.0,337.5587415560003,,,,,,,,,337.5531002030002,337.65117579899925,338.4420987680005,338.4351942560006,338.43568996700014,338.4420987680005,338.4420987680005,338.4420987680005,,341.5193162880005,,,,,,,,,,,,,,,,,,,,,,,,,,,,,,left,1.0,3.066740498999934,,,,,,sub-145,1,random_dot,,
left,left,28.0,0.0,14.0,right,0.0,4.784754640000756,,speed,space,4.853870203998667,,,,,,0.0,0.0,0.0,1.0,14.0,0.0,28.0,0.0,341.5240729880006,,,,,,,,,341.5196220529997,342.7178117629992,343.5087652130005,343.5018314879999,343.5021664720007,343.5087652130005,343.5087652130005,343.5087652130005,,348.302822439,,,,,,,,,,,,,,,,,,,,,,,,,,,,,,right,0.0,4.784754640000756,,,,,,sub-145,1,random_dot,,
right,right,29.0,1.0,14.0,right,1.0,0.8593072240000765,,speed,space,4.853870203998667,,,,,,0.0,0.0,0.0,1.0,14.0,1.0,29.0,1.0,348.30919017400083,,,,,,,,,348.3031166460005,348.40126513200084,349.191933651,349.1853187119996,349.18565669500094,349.191933651,349.191933651,349.191933651,,350.0531412199998,,,,,,,,,,,,,,,,,,,,,,,,,,,,,,right,1.0,0.8593072240000765,,,,,,sub-145,1,random_dot,,
right,right,30.0,0.0,15.0,left,0.0,0.8959804180012725,,speed,space,4.853870203998667,,,,,,0.0,0.0,0.0,1.0,15.0,0.0,30.0,1.0,350.05920086600054,,,,,,,,,350.05344057600087,350.85117420200004,351.64190869400045,351.6351643489997,351.6354935519994,351.64190869400045,351.64190869400045,351.64190869400045,,352.5431851730009,,,,,,,,,,,,,,,,,,,,,,,,,,,,,,left,0.0,0.8959804180012725,,,,,,sub-145,1,random_dot,,
left,left,31.0,1.0,15.0,right,0.0,1.5565240010000707,,speed,space,4.853870203998667,,,,,,0.0,0.0,0.0,1.0,15.0,1.0,31.0,0.0,352.5511298260008,,,,,,,,,352.5435345879996,352.63956712300023,353.43453738800054,353.42361930600055,353.42396799699964,353.43453738800054,353.43453738800054,353.43453738800054,,354.99263217500084,,,,,,,,,,,,,,,,,,,,,,,,,,,,,,right,0.0,1.5565240010000707,,,,,,sub-145,1,random_dot,,
right,right,32.0,0.0,16.0,left,0.0,5.012446056000044,,speed,space,4.853870203998667,,,,,,0.0,0.0,0.0,1.0,16.0,0.0,32.0,1.0,355.00109409200013,,,,,,,,,354.9928903679993,355.09065261499927,355.8919964500001,355.8852071580004,355.8855463529999,355.8919964500001,355.8919964500001,355.8919964500001,360.87409341000057,360.908850758,,,,,,,,,,,,,,,,,,,,,,,,,,,,,,left,0.0,5.012446056000044,,,,,,sub-145,1,random_dot,,
left,left,33.0,1.0,16.0,right,0.0,5.287845105000088,,speed,space,4.853870203998667,,,,,,0.0,0.0,0.0,1.0,16.0,1.0,33.0,0.0,360.9179296000002,,,,,,,,,360.9091497480004,361.0064189170007,361.8012248319992,361.7905684090001,361.7909019889994,361.8012248319992,361.8012248319992,361.8012248319992,366.7845319850003,367.0918617719999,,,,,,,,,,,,,,,,,,,,,,,,,,,,,,right,0.0,5.287845105000088,,,,,,sub-145,1,random_dot,,
left,left,34.0,0.0,17.0,right,0.0,2.7040503400003217,,speed,space,4.853870203998667,,,,,,0.0,0.0,0.0,1.0,17.0,0.0,34.0,0.0,367.1010892760005,,,,,,,,,367.0921465259999,367.889753034,368.6848289270001,368.6738886160001,368.6742265569992,368.6848289270001,368.6848289270001,368.6848289270001,,371.3926741720006,,,,,,,,,,,,,,,,,,,,,,,,,,,,,,right,0.0,2.7040503400003217,,,,,,sub-145,1,random_dot,,
right,right,35.0,1.0,17.0,left,0.0,2.726565598999514,,speed,space,4.853870203998667,,,,,,0.0,0.0,0.0,1.0,17.0,1.0,35.0,1.0,371.40109625200057,,,,,,,,,371.3929623900003,372.5899223190008,373.384857467001,373.3739857729997,373.3743173940002,373.384857467001,373.384857467001,373.384857467001,,376.1197774440007,,,,,,,,,,,,,,,,,,,,,,,,,,,,,,left,0.0,2.726565598999514,,,,,,sub-145,1,random_dot,,
right,right,36.0,0.0,18.0,left,0.0,4.225063244999546,,speed,space,4.853870203998667,,,,,,0.0,0.0,0.0,1.0,18.0,0.0,36.0,1.0,376.12605294900095,,,,,,,,,376.1200731249992,376.4682596269995,377.2587406849998,377.25206374499976,377.2523970820002,377.2587406849998,377.2587406849998,377.2587406849998,,381.4861307209994,,,,,,,,,,,,,,,,,,,,,,,,,,,,,,left,0.0,4.225063244999546,,,,,,sub-145,1,random_dot,,
left,left,37.0,1.0,18.0,right,0.0,1.013358423999307,,speed,space,4.853870203998667,,,,,,0.0,0.0,0.0,1.0,18.0,1.0,37.0,0.0,381.49191524699927,,,,,,,,,381.48642544299946,382.6846195809994,383.4756622299992,383.4687885170006,383.4691228899992,383.4756622299992,383.4756622299992,383.4756622299992,,384.4931342769996,,,,,,,,,,,,,,,,,,,,,,,,,,,,,,right,0.0,1.013358423999307,,,,,,sub-145,1,random_dot,,
left,left,38.0,0.0,19.0,left,1.0,3.6855918149994977,,speed,space,4.853870203998667,,,,,,0.0,0.0,0.0,1.0,19.0,0.0,38.0,0.0,384.5013011520005,,,,,,,,,384.49343299300017,384.5898735930005,385.38461305800047,385.373969014001,385.37430976,385.38461305800047,385.38461305800047,385.38461305800047,,389.0766806930005,,,,,,,,,,,,,,,,,,,,,,,,,,,,,,left,1.0,3.6855918149994977,,,,,,sub-145,1,random_dot,,
right,right,39.0,1.0,19.0,right,1.0,2.934275718000208,,speed,space,4.853870203998667,,,,,,0.0,0.0,0.0,1.0,19.0,1.0,39.0,1.0,389.0846826190009,,,,,,,,,389.07704383000055,389.42305681499965,390.2179437319992,390.2076079210001,390.207938769001,390.2179437319992,390.2179437319992,390.2179437319992,,393.1596586880005,,,,,,,,,,,,,,,,,,,,,,,,,,,,,,right,1.0,2.934275718000208,,,,,,sub-145,1,random_dot,,
left,left,40.0,0.0,20.0,left,1.0,3.742996746999779,,speed,space,4.853870203998667,,,,,,0.0,0.0,0.0,1.0,20.0,0.0,40.0,0.0,393.1679598779992,,,,,,,,,393.1598917850006,393.9566083509999,394.7513346350006,394.7404580429993,394.7407951770001,394.7513346350006,394.7513346350006,394.7513346350006,,398.50280523400033,,,,,,,,,,,,,,,,,,,,,,,,,,,,,,left,1.0,3.742996746999779,,,,,,sub-145,1,random_dot,,
right,right,41.0,1.0,20.0,right,1.0,2.8755594110007223,,speed,space,4.853870203998667,,,,,,0.0,0.0,0.0,1.0,20.0,1.0,41.0,1.0,398.5089952590006,,,,,,,,,398.5031113420009,398.85144742400007,399.6421098440005,399.6352945939998,399.6356262469999,399.6421098440005,399.6421098440005,399.6421098440005,,402.51931331000014,,,,,,,,,,,,,,,,,,,,,,,,,,,,,,right,1.0,2.8755594110007223,,,,,,sub-145,1,random_dot,,
right,right,42.0,0.0,21.0,left,0.0,2.2327207289999933,,speed,space,4.853870203998667,,,,,,0.0,0.0,0.0,1.0,21.0,0.0,42.0,1.0,402.52527492899935,,,,,,,,,402.5196199719994,403.7180399150002,404.508937179,404.5020183020006,404.50235305800015,404.508937179,404.508937179,404.508937179,,406.74335367300046,,,,,,,,,,,,,,,,,,,,,,,,,,,,,,left,0.0,2.2327207289999933,,,,,,sub-145,1,random_dot,,
left,left,43.0,1.0,21.0,left,1.0,3.717336925999916,,speed,space,4.853870203998667,,,,,,0.0,0.0,0.0,1.0,21.0,1.0,43.0,0.0,406.75117092000073,,,,,,,,,406.74361957200017,407.089936452001,407.8846513030003,407.873910499,407.8742504040001,407.8846513030003,407.8846513030003,407.8846513030003,,411.6111458329997,,,,,,,,,,,,,,,,,,,,,,,,,,,,,,left,1.0,3.717336925999916,,,,,,sub-145,1,random_dot,,
right,right,44.0,0.0,22.0,left,0.0,6.054293758999847,,speed,space,4.853870203998667,,,,,,0.0,0.0,0.0,1.0,22.0,0.0,44.0,1.0,411.6179878809999,,,,,,,,,411.6114410280006,412.4066841999993,413.2013639910001,413.1904669939995,413.1908001619995,413.2013639910001,413.2013639910001,413.2013639910001,418.1846622289995,419.2586867709997,,,,,,,,,,,,,,,,,,,,,,,,,,,,,,left,0.0,6.054293758999847,,,,,,sub-145,1,random_dot,,
left,left,45.0,1.0,22.0,left,1.0,1.316248627999812,,speed,space,4.853870203998667,,,,,,0.0,0.0,0.0,1.0,22.0,1.0,45.0,0.0,419.2678235399999,,,,,,,,,419.2589698920001,420.0569057550001,420.8514687429997,420.84039361599935,420.8407309430004,420.8514687429997,420.8514687429997,420.8514687429997,,422.1694171599993,,,,,,,,,,,,,,,,,,,,,,,,,,,,,,left,1.0,1.316248627999812,,,,,,sub-145,1,random_dot,,
right,right,46.0,0.0,23.0,left,0.0,3.252110592000463,,speed,space,4.853870203998667,,,,,,0.0,0.0,0.0,1.0,23.0,0.0,46.0,1.0,422.1754142720001,,,,,,,,,422.1697120999997,422.5179675119998,423.3089493669995,423.3021458830008,423.3024877900007,423.3089493669995,423.3089493669995,423.3089493669995,,426.5699605909995,,,,,,,,,,,,,,,,,,,,,,,,,,,,,,left,0.0,3.252110592000463,,,,,,sub-145,1,random_dot,,
left,left,47.0,1.0,23.0,right,0.0,3.6379122769994874,,speed,space,4.853870203998667,,,,,,0.0,0.0,0.0,1.0,23.0,1.0,47.0,0.0,426.5759002949999,,,,,,,,,426.57026981799936,427.3680114029994,428.158794637,428.1520520550002,428.1523851069997,428.158794637,428.158794637,428.158794637,,431.80298849800056,,,,,,,,,,,,,,,,,,,,,,,,,,,,,,right,0.0,3.6379122769994874,,,,,,sub-145,1,random_dot,,
left,left,48.0,0.0,24.0,right,0.0,4.235879763999037,,speed,space,4.853870203998667,,,,,,0.0,0.0,0.0,1.0,24.0,0.0,48.0,0.0,431.8091408119999,,,,,,,,,431.8032810580007,432.6016900779996,433.39222429099937,433.385427616,433.3857626129993,433.39222429099937,433.39222429099937,433.39222429099937,,437.63640100500015,,,,,,,,,,,,,,,,,,,,,,,,,,,,,,right,0.0,4.235879763999037,,,,,,sub-145,1,random_dot,,
right,right,49.0,1.0,24.0,right,1.0,3.981602971000029,,speed,space,4.853870203998667,,,,,,0.0,0.0,0.0,1.0,24.0,1.0,49.0,1.0,437.6424857719994,,,,,,,,,437.6367072470002,438.4344643460008,439.2258123800002,439.218797648,439.2191375210005,439.2258123800002,439.2258123800002,439.2258123800002,,443.2092636289999,,,,,,,,,,,,,,,,,,,,,,,,,,,,,,right,1.0,3.981602971000029,,,,,,sub-145,1,random_dot,,
right,right,50.0,0.0,25.0,right,1.0,2.358966648000205,,speed,space,4.853870203998667,,,,,,0.0,0.0,0.0,1.0,25.0,0.0,50.0,1.0,443.2178736429996,,,,,,,,,443.2095592990008,444.0069751579995,444.80139364500064,444.7904509210002,444.7907847480001,444.80139364500064,444.80139364500064,444.80139364500064,,447.1698869459997,,,,,,,,,,,,,,,,,,,,,,,,,,,,,,right,1.0,2.358966648000205,,,,,,sub-145,1,random_dot,,
left,left,51.0,1.0,25.0,left,1.0,3.2311201720003737,,speed,space,4.853870203998667,,,,,,0.0,0.0,0.0,1.0,25.0,1.0,51.0,0.0,447.176533580001,,,,,,,,,447.1702435419993,447.96804009399966,448.7583918550008,448.75203295900064,448.7523727320004,448.7583918550008,448.7583918550008,448.7583918550008,,451.9931387979996,,,,,,,,,,,,,,,,,,,,,,,,,,,,,,left,1.0,3.2311201720003737,,,,,,sub-145,1,random_dot,,
left,left,52.0,0.0,26.0,left,1.0,0.8162978879990987,,speed,space,4.853870203998667,,,,,,0.0,0.0,0.0,1.0,26.0,0.0,52.0,0.0,452.00129060499967,,,,,,,,,451.9934148079992,452.0899377469996,452.8848389220002,452.87374196400015,452.8740746450003,452.8848389220002,452.8848389220002,452.8848389220002,,453.7027601720001,,,,,,,,,,,,,,,,,,,,,,,,,,,,,,left,1.0,0.8162978879990987,,,,,,sub-145,1,random_dot,,
right,right,53.0,1.0,26.0,right,1.0,0.8293654270000843,,speed,space,4.853870203998667,,,,,,0.0,0.0,0.0,1.0,26.0,1.0,53.0,1.0,453.7085636720003,,,,,,,,,453.70305006700073,453.80141296700094,454.5922668809999,454.5854843929992,454.58581614099967,454.5922668809999,454.5922668809999,454.5922668809999,,455.4258183149996,,,,,,,,,,,,,,,,,,,,,,,,,,,,,,right,1.0,0.8293654270000843,,,,,,sub-145,1,random_dot,,
left,left,54.0,0.0,27.0,left,1.0,5.454786778000198,,speed,space,4.853870203998667,,,,,,0.0,0.0,0.0,1.0,27.0,0.0,54.0,0.0,455.434858777,,,,,,,,,455.4261003449992,455.5233519169997,456.3181413439997,456.30730098800086,456.3076391499999,456.3181413439997,456.3181413439997,456.3181413439997,461.3014465760007,461.77575138300017,,,,,,,,,,,,,,,,,,,,,,,,,,,,,,left,1.0,5.454786778000198,,,,,,sub-145,1,random_dot,,
right,right,55.0,1.0,27.0,right,1.0,5.17537193499993,,speed,space,4.853870203998667,,,,,,0.0,0.0,0.0,1.0,27.0,1.0,55.0,1.0,461.7847398249996,,,,,,,,,461.7760431919996,462.5732162540007,463.3683043660003,463.3572553350005,463.3575920090007,463.3683043660003,463.3683043660003,463.3683043660003,468.3514490420002,468.5532178320009,,,,,,,,,,,,,,,,,,,,,,,,,,,,,,right,1.0,5.17537193499993,,,,,,sub-145,1,random_dot,,
right,right,56.0,0.0,28.0,left,0.0,3.7729511099987576,,speed,space,4.853870203998667,,,,,,0.0,0.0,0.0,1.0,28.0,0.0,56.0,1.0,468.55935024300015,,,,,,,,,468.5535122990004,468.65140567900016,469.4424296640009,469.43558886199935,469.4359388529992,469.4424296640009,469.4424296640009,469.4424296640009,,473.21947487800026,,,,,,,,,,,,,,,,,,,,,,,,,,,,,,left,0.0,3.7729511099987576,,,,,,sub-145,1,random_dot,,
left,left,57.0,1.0,28.0,right,0.0,4.009713837000163,,speed,space,4.853870203998667,,,,,,0.0,0.0,0.0,1.0,28.0,1.0,57.0,0.0,473.22570618700047,,,,,,,,,473.2197742339995,474.0181492489992,474.8086303820001,474.802036432,474.802396522,474.8086303820001,474.8086303820001,474.8086303820001,,478.8201924090008,,,,,,,,,,,,,,,,,,,,,,,,,,,,,,right,0.0,4.009713837000163,,,,,,sub-145,1,random_dot,,
right,right,58.0,0.0,29.0,left,0.0,2.3759543699998176,,speed,space,4.853870203998667,,,,,,0.0,0.0,0.0,1.0,29.0,0.0,58.0,1.0,478.826303848,,,,,,,,,478.82049515499966,479.6181769319992,480.4089624320004,480.4021878420008,480.40252111600057,480.4089624320004,480.4089624320004,480.4089624320004,,482.7865835619996,,,,,,,,,,,,,,,,,,,,,,,,,,,,,,left,0.0,2.3759543699998176,,,,,,sub-145,1,random_dot,,
left,left,59.0,1.0,29.0,right,0.0,2.9600694609998754,,speed,space,4.853870203998667,,,,,,0.0,0.0,0.0,1.0,29.0,1.0,59.0,0.0,482.7927041019993,,,,,,,,,482.7868807329996,483.9848179820001,484.7760168370005,484.76911528100027,484.7694495409996,484.7760168370005,484.7760168370005,484.7760168370005,,487.7442819549997,,,,,,,,,,,,,,,,,,,,,,,,,,,,,,right,0.0,2.9600694609998754,,,,,,sub-145,1,random_dot,,
,,0.0,0.0,0.0,,,,,speed,space,4.853870203998667,,,,,,0.0,0.0,0.0,1.0,,,,,,,,,,,,,,,,,,,,,,,,,,,,,,,,,,,,,,,,,,,,,,,,,,,,,,,,,,,,,sub-145,1,random_dot,,
left,left,0.0,0.0,0.0,left,1.0,5.52117939100026,,accuracy,space,5.095640785000796,,,,,,0.0,1.0,1.0,0.0,0.0,0.0,0.0,0.0,492.8866919430002,,,,,,,,,492.862809962,492.95765952500005,493.758963319,493.7522208669998,493.75266913499945,493.758963319,493.758963319,493.758963319,498.7409356780008,499.28640303300017,,,,,,,,,,,,,,,,,,,,,,,487.7559690559992,487.7612922799999,487.7612922799999,492.85859096900094,space,5.095640785000796,,left,1.0,5.52117939100026,,,,,,sub-145,1,random_dot,,
right,right,1.0,1.0,0.0,left,0.0,3.008584127001086,,accuracy,space,5.095640785000796,,,,,,0.0,1.0,1.0,0.0,0.0,1.0,1.0,1.0,499.2925937529999,,,,,,,,,499.2866961840009,500.48486803299966,501.2753774760004,501.2688379930005,501.26917179299926,501.2753774760004,501.2753774760004,501.2753774760004,,504.2862066830003,,,,,,,,,,,,,,,,,,,,,,,,,,,,,,left,0.0,3.008584127001086,,,,,,sub-145,1,random_dot,,
left,left,2.0,0.0,1.0,right,0.0,3.7843640569990384,,accuracy,space,5.095640785000796,,,,,,0.0,1.0,1.0,0.0,1.0,0.0,2.0,0.0,504.29205558099966,,,,,,,,,504.2864984200005,504.3850575899996,505.1757980940001,505.1689037640008,505.1692411130007,505.1757980940001,505.1757980940001,505.1757980940001,,508.9698910200004,,,,,,,,,,,,,,,,,,,,,,,,,,,,,,right,0.0,3.7843640569990384,,,,,,sub-145,1,random_dot,,
right,right,3.0,1.0,1.0,right,1.0,5.264577643998564,,accuracy,space,5.095640785000796,,,,,,0.0,1.0,1.0,0.0,1.0,1.0,3.0,1.0,508.9760296450004,,,,,,,,,508.9701818230005,509.7682454740007,510.55814383100005,510.5518335600009,510.5521417,510.55814383100005,510.55814383100005,510.55814383100005,515.5410075020009,515.8255210440002,,,,,,,,,,,,,,,,,,,,,,,,,,,,,,right,1.0,5.264577643998564,,,,,,sub-145,1,random_dot,,
right,right,4.0,0.0,2.0,left,0.0,3.792942526999468,,accuracy,space,5.095640785000796,,,,,,0.0,1.0,1.0,0.0,2.0,0.0,4.0,1.0,515.834798672,,,,,,,,,515.8258045380007,516.1736862910002,516.9682135319999,516.95718476,516.9575159460001,516.9682135319999,516.9682135319999,516.9682135319999,,520.7702019379994,,,,,,,,,,,,,,,,,,,,,,,,,,,,,,left,0.0,3.792942526999468,,,,,,sub-145,1,random_dot,,
left,left,5.0,1.0,2.0,right,0.0,5.459549866998714,,accuracy,space,5.095640785000796,,,,,,0.0,1.0,1.0,0.0,2.0,1.0,5.0,0.0,520.7765184870004,,,,,,,,,520.7705666710008,521.9682831600003,522.7589718710005,522.7523473239999,522.7526760180008,522.7589718710005,522.7589718710005,522.7589718710005,527.7410413990001,528.2268202260002,,,,,,,,,,,,,,,,,,,,,,,,,,,,,,right,0.0,5.459549866998714,,,,,,sub-145,1,random_dot,,
left,left,6.0,0.0,3.0,right,0.0,18.172210704999088,,accuracy,space,5.095640785000796,,,,,,0.0,1.0,1.0,0.0,3.0,0.0,6.0,0.0,528.2350015209995,,,,,,,,,528.2271618310006,529.4235646090001,530.2182328819999,530.2071951620001,530.2075259100002,530.2182328819999,530.2182328819999,530.2182328819999,535.2015468000009,548.3923054280003,,,,,,,,,,,,,,,,,,,,,,,,,,,,,,right,0.0,18.172210704999088,,,,,,sub-145,1,random_dot,,
right,right,7.0,1.0,3.0,left,0.0,3.517673278000075,,accuracy,space,5.095640785000796,,,,,,0.0,1.0,1.0,0.0,3.0,1.0,7.0,1.0,548.4015852779994,,,,,,,,,548.3925646879998,549.590386676,550.3850103080003,550.3745112230008,550.3748455019995,550.3850103080003,550.3850103080003,550.3850103080003,,553.9107775779994,,,,,,,,,,,,,,,,,,,,,,,,,,,,,,left,0.0,3.517673278000075,,,,,,sub-145,1,random_dot,,
left,left,8.0,0.0,4.0,right,0.0,3.303889763999905,,accuracy,space,5.095640785000796,,,,,,0.0,1.0,1.0,0.0,4.0,0.0,8.0,0.0,553.9183129249996,,,,,,,,,553.9111375129996,554.7069464329998,555.5016715290003,555.4907602410003,555.4910911829993,555.5016715290003,555.5016715290003,555.5016715290003,,558.8107731370001,,,,,,,,,,,,,,,,,,,,,,,,,,,,,,right,0.0,3.303889763999905,,,,,,sub-145,1,random_dot,,
right,right,9.0,1.0,4.0,right,1.0,5.716337734000263,,accuracy,space,5.095640785000796,,,,,,0.0,1.0,1.0,0.0,4.0,1.0,9.0,1.0,558.8182266250005,,,,,,,,,558.8110661739993,559.1569769880007,559.9517017790004,559.9407270150004,559.9410533230002,559.9517017790004,559.9517017790004,559.9517017790004,564.9352980559997,565.6698952730003,,,,,,,,,,,,,,,,,,,,,,,,,,,,,,right,1.0,5.716337734000263,,,,,,sub-145,1,random_dot,,
right,right,10.0,0.0,5.0,right,1.0,1.0523690230002103,,accuracy,space,5.095640785000796,,,,,,0.0,1.0,1.0,0.0,5.0,0.0,10.0,1.0,565.6759363950005,,,,,,,,,565.6701927459999,565.7683016890005,566.5588894949997,566.5523270730009,566.5526500489996,566.5588894949997,566.5588894949997,566.5588894949997,,567.6201679660007,,,,,,,,,,,,,,,,,,,,,,,,,,,,,,right,1.0,1.0523690230002103,,,,,,sub-145,1,random_dot,,
left,left,11.0,1.0,5.0,left,1.0,1.8216227080010867,,accuracy,space,5.095640785000796,,,,,,0.0,1.0,1.0,0.0,5.0,1.0,11.0,0.0,567.6262830640007,,,,,,,,,567.6204606690007,567.7183805320001,568.5090361710008,568.5024038449992,568.5027444030002,568.5090361710008,568.5090361710008,568.5090361710008,,570.3364859859994,,,,,,,,,,,,,,,,,,,,,,,,,,,,,,left,1.0,1.8216227080010867,,,,,,sub-145,1,random_dot,,
right,right,12.0,0.0,6.0,right,1.0,4.196478005000245,,accuracy,space,5.095640785000796,,,,,,0.0,1.0,1.0,0.0,6.0,0.0,12.0,1.0,570.3426600050007,,,,,,,,,570.3367827429993,570.6851040349993,571.4757110640003,571.4690514390004,571.4693859689996,571.4757110640003,571.4757110640003,571.4757110640003,,575.6772942089992,,,,,,,,,,,,,,,,,,,,,,,,,,,,,,right,1.0,4.196478005000245,,,,,,sub-145,1,random_dot,,
left,left,13.0,1.0,6.0,left,1.0,4.814107730000615,,accuracy,space,5.095640785000796,,,,,,0.0,1.0,1.0,0.0,6.0,1.0,13.0,0.0,575.6852317659996,,,,,,,,,575.6775981289993,576.4734076959994,577.2683200640004,577.2572891090003,577.2576223859996,577.2683200640004,577.2683200640004,577.2683200640004,,582.0864657149996,,,,,,,,,,,,,,,,,,,,,,,,,,,,,,left,1.0,4.814107730000615,,,,,,sub-145,1,random_dot,,
right,right,14.0,0.0,7.0,right,1.0,8.384096916999624,,accuracy,space,5.095640785000796,,,,,,0.0,1.0,1.0,0.0,7.0,0.0,14.0,1.0,582.0926882669992,,,,,,,,,582.0867539070005,582.1850565479999,582.9761285570003,582.9692334400006,582.9695668380009,582.9761285570003,582.9761285570003,582.9761285570003,587.9582017619996,591.3700852269994,,,,,,,,,,,,,,,,,,,,,,,,,,,,,,right,1.0,8.384096916999624,,,,,,sub-145,1,random_dot,,
left,left,15.0,1.0,7.0,right,0.0,4.226889438999933,,accuracy,space,5.095640785000796,,,,,,0.0,1.0,1.0,0.0,7.0,1.0,15.0,0.0,591.3761056740004,,,,,,,,,591.3703823020005,591.468399671001,592.259241926,592.2524570360001,592.2527929490006,592.259241926,592.259241926,592.259241926,,596.4945343889995,,,,,,,,,,,,,,,,,,,,,,,,,,,,,,right,0.0,4.226889438999933,,,,,,sub-145,1,random_dot,,
right,right,16.0,0.0,8.0,right,1.0,0.9653688889993646,,accuracy,space,5.095640785000796,,,,,,0.0,1.0,1.0,0.0,8.0,0.0,16.0,1.0,596.5018620160008,,,,,,,,,596.4948745870006,596.5908824149992,597.3851917850006,597.3744106110007,597.3747357499997,597.3851917850006,597.3851917850006,597.3851917850006,,598.3532699499992,,,,,,,,,,,,,,,,,,,,,,,,,,,,,,right,1.0,0.9653688889993646,,,,,,sub-145,1,random_dot,,
left,left,17.0,1.0,8.0,left,1.0,3.52252986899839,,accuracy,space,5.095640785000796,,,,,,0.0,1.0,1.0,0.0,8.0,1.0,17.0,0.0,598.359184424,,,,,,,,,598.3535618570004,598.4518732649994,599.2428524669995,599.2359803100007,599.2363188069994,599.2428524669995,599.2428524669995,599.2428524669995,,602.7701105150009,,,,,,,,,,,,,,,,,,,,,,,,,,,,,,left,1.0,3.52252986899839,,,,,,sub-145,1,random_dot,,
left,left,18.0,0.0,9.0,right,0.0,1.1478527850013052,,accuracy,space,5.095640785000796,,,,,,0.0,1.0,1.0,0.0,9.0,0.0,18.0,0.0,602.7762399790008,,,,,,,,,602.7704039300006,603.568415400001,604.3592750339994,604.3524898239993,604.3528297249995,604.3592750339994,604.3592750339994,604.3592750339994,,605.5107240590005,,,,,,,,,,,,,,,,,,,,,,,,,,,,,,right,0.0,1.1478527850013052,,,,,,sub-145,1,random_dot,,
right,right,19.0,1.0,9.0,right,1.0,0.9577720140005112,,accuracy,space,5.095640785000796,,,,,,0.0,1.0,1.0,0.0,9.0,1.0,19.0,1.0,605.518435082,,,,,,,,,605.5110153999995,606.3069534919996,607.1018749430004,607.0908349199999,607.091166958,607.1018749430004,607.1018749430004,607.1018749430004,,608.0699441489996,,,,,,,,,,,,,,,,,,,,,,,,,,,,,,right,1.0,0.9577720140005112,,,,,,sub-145,1,random_dot,,
left,left,20.0,0.0,10.0,right,0.0,4.062622433000797,,accuracy,space,5.095640785000796,,,,,,0.0,1.0,1.0,0.0,10.0,0.0,20.0,0.0,608.075042163,,,,,,,,,608.0702288859993,608.4186301110003,609.2093519009995,609.2026065930004,609.2029414940007,609.2093519009995,609.2093519009995,609.2093519009995,,613.2766282880002,,,,,,,,,,,,,,,,,,,,,,,,,,,,,,right,0.0,4.062622433000797,,,,,,sub-145,1,random_dot,,
right,right,21.0,1.0,10.0,left,0.0,5.543009299000914,,accuracy,space,5.095640785000796,,,,,,0.0,1.0,1.0,0.0,10.0,1.0,21.0,1.0,613.2851520709992,,,,,,,,,613.2769007009992,613.6237986199994,614.4188209269996,614.4080154269996,614.4083416150006,614.4188209269996,614.4188209269996,614.4188209269996,619.401709795,619.970034076001,,,,,,,,,,,,,,,,,,,,,,,,,,,,,,left,0.0,5.543009299000914,,,,,,sub-145,1,random_dot,,
right,right,22.0,0.0,11.0,right,1.0,1.0588265040005354,,accuracy,space,5.095640785000796,,,,,,0.0,1.0,1.0,0.0,11.0,0.0,22.0,1.0,619.9761812310007,,,,,,,,,619.9703872310001,620.0685393219992,620.8589993330006,620.8523713310005,620.8526952400007,620.8589993330006,620.8589993330006,620.8589993330006,,621.9199821050006,,,,,,,,,,,,,,,,,,,,,,,,,,,,,,right,1.0,1.0588265040005354,,,,,,sub-145,1,random_dot,,
left,left,23.0,1.0,11.0,right,0.0,3.451102344000901,,accuracy,space,5.095640785000796,,,,,,0.0,1.0,1.0,0.0,11.0,1.0,23.0,0.0,621.9260773810001,,,,,,,,,621.9202716910004,623.1185226220005,623.9093274120005,623.902534027,623.9028714760007,623.9093274120005,623.9093274120005,623.9093274120005,,627.3705422359999,,,,,,,,,,,,,,,,,,,,,,,,,,,,,,right,0.0,3.451102344000901,,,,,,sub-145,1,random_dot,,
right,right,24.0,0.0,12.0,right,1.0,1.7195697689985536,,accuracy,space,5.095640785000796,,,,,,0.0,1.0,1.0,0.0,12.0,0.0,24.0,1.0,627.3769833509996,,,,,,,,,627.3709004430002,628.1682390450005,628.9594252959996,628.9525186040009,628.952850306001,628.9594252959996,628.9594252959996,628.9594252959996,,630.6864785739999,,,,,,,,,,,,,,,,,,,,,,,,,,,,,,right,1.0,1.7195697689985536,,,,,,sub-145,1,random_dot,,
left,left,25.0,1.0,12.0,right,0.0,5.462601289998929,,accuracy,space,5.095640785000796,,,,,,0.0,1.0,1.0,0.0,12.0,1.0,25.0,0.0,630.6925409169999,,,,,,,,,630.6867692190008,630.7852536980008,631.5762134760007,631.569265606,631.569601913001,631.5762134760007,631.5762134760007,631.5762134760007,636.5580356190003,637.0428510439997,,,,,,,,,,,,,,,,,,,,,,,,,,,,,,right,0.0,5.462601289998929,,,,,,sub-145,1,random_dot,,
right,right,26.0,0.0,13.0,left,0.0,1.937976635999803,,accuracy,space,5.095640785000796,,,,,,0.0,1.0,1.0,0.0,13.0,0.0,26.0,1.0,637.0519122210007,,,,,,,,,637.0431493430006,637.1407595649998,637.9352121209995,637.9248962059992,637.9253167009992,637.9352121209995,637.9352121209995,637.9352121209995,,639.877013751,,,,,,,,,,,,,,,,,,,,,,,,,,,,,,left,0.0,1.937976635999803,,,,,,sub-145,1,random_dot,,
left,left,27.0,1.0,13.0,left,1.0,2.129991654999685,,accuracy,space,5.095640785000796,,,,,,0.0,1.0,1.0,0.0,13.0,1.0,27.0,0.0,639.885051188001,,,,,,,,,639.8772917589995,639.9739994350002,640.7686892540005,640.758049039001,640.758380669,640.7686892540005,640.7686892540005,640.7686892540005,,642.9037226239998,,,,,,,,,,,,,,,,,,,,,,,,,,,,,,left,1.0,2.129991654999685,,,,,,sub-145,1,random_dot,,
left,left,28.0,0.0,14.0,right,0.0,2.9668330590011465,,accuracy,space,5.095640785000796,,,,,,0.0,1.0,1.0,0.0,14.0,0.0,28.0,0.0,642.9098458030003,,,,,,,,,642.9040159640008,643.001845146,643.7928141110006,643.7859180710002,643.7862497980004,643.7928141110006,643.7928141110006,643.7928141110006,,646.7703425460004,,,,,,,,,,,,,,,,,,,,,,,,,,,,,,right,0.0,2.9668330590011465,,,,,,sub-145,1,random_dot,,
right,right,29.0,1.0,14.0,right,1.0,3.725204518999817,,accuracy,space,5.095640785000796,,,,,,0.0,1.0,1.0,0.0,14.0,1.0,29.0,1.0,646.7752603740009,,,,,,,,,646.7706358319992,646.8685558630004,647.6589921819996,647.6525818310001,647.6529230010001,647.6589921819996,647.6589921819996,647.6589921819996,,651.3867261169999,,,,,,,,,,,,,,,,,,,,,,,,,,,,,,right,1.0,3.725204518999817,,,,,,sub-145,1,random_dot,,
right,right,30.0,0.0,15.0,left,0.0,4.108407613000964,,accuracy,space,5.095640785000796,,,,,,0.0,1.0,1.0,0.0,15.0,0.0,30.0,1.0,651.3925945139999,,,,,,,,,651.3870167200002,651.4852837310009,652.2762586560002,652.2694772510004,652.2698070290007,652.2762586560002,652.2762586560002,652.2762586560002,,656.3866365859994,,,,,,,,,,,,,,,,,,,,,,,,,,,,,,left,0.0,4.108407613000964,,,,,,sub-145,1,random_dot,,
left,left,31.0,1.0,15.0,right,0.0,4.513683682000192,,accuracy,space,5.095640785000796,,,,,,0.0,1.0,1.0,0.0,15.0,1.0,31.0,0.0,656.392680459001,,,,,,,,,656.3869330460002,657.185215122001,657.9759994119995,657.969355397001,657.9696880869997,657.9759994119995,657.9759994119995,657.9759994119995,,662.4935259539998,,,,,,,,,,,,,,,,,,,,,,,,,,,,,,right,0.0,4.513683682000192,,,,,,sub-145,1,random_dot,,
right,right,32.0,0.0,16.0,left,0.0,2.0070459510006917,,accuracy,space,5.095640785000796,,,,,,0.0,1.0,1.0,0.0,16.0,0.0,32.0,1.0,662.5018026710004,,,,,,,,,662.4938087959999,662.5903707979996,663.385296425,663.3744060539993,663.3747547460007,663.385296425,663.385296425,663.385296425,,665.3938851469993,,,,,,,,,,,,,,,,,,,,,,,,,,,,,,left,0.0,2.0070459510006917,,,,,,sub-145,1,random_dot,,
left,left,33.0,1.0,16.0,left,1.0,3.335632885999076,,accuracy,space,5.095640785000796,,,,,,0.0,1.0,1.0,0.0,16.0,1.0,33.0,0.0,665.4018610389994,,,,,,,,,665.394182172,665.4907900420003,666.2852834360001,666.2743777779997,666.2746989469997,666.2852834360001,666.2852834360001,666.2852834360001,,669.627592537001,,,,,,,,,,,,,,,,,,,,,,,,,,,,,,left,1.0,3.335632885999076,,,,,,sub-145,1,random_dot,,
right,right,34.0,0.0,17.0,right,1.0,2.777314799999658,,accuracy,space,5.095640785000796,,,,,,0.0,1.0,1.0,0.0,17.0,0.0,34.0,1.0,669.6353077519998,,,,,,,,,669.6279347250002,670.4238623900001,671.218648348,671.2080696520006,671.2084007939993,671.218648348,671.218648348,671.218648348,,674.0036141140008,,,,,,,,,,,,,,,,,,,,,,,,,,,,,,right,1.0,2.777314799999658,,,,,,sub-145,1,random_dot,,
left,left,35.0,1.0,17.0,left,1.0,2.08089744300014,,accuracy,space,5.095640785000796,,,,,,0.0,1.0,1.0,0.0,17.0,1.0,35.0,0.0,674.0096569489997,,,,,,,,,674.0039089620004,674.1019132180008,674.8926959950004,674.8860242179999,674.8863520920004,674.8926959950004,674.8926959950004,674.8926959950004,,676.977630241001,,,,,,,,,,,,,,,,,,,,,,,,,,,,,,left,1.0,2.08089744300014,,,,,,sub-145,1,random_dot,,
right,right,36.0,0.0,18.0,right,1.0,5.2572159439987445,,accuracy,space,5.095640785000796,,,,,,0.0,1.0,1.0,0.0,18.0,0.0,36.0,1.0,676.9851741410002,,,,,,,,,676.9780253480003,677.7738169580007,678.5687899570003,678.5577341789995,678.558059641,678.5687899570003,678.5687899570003,678.5687899570003,683.5522687110006,683.8373588760005,,,,,,,,,,,,,,,,,,,,,,,,,,,,,,right,1.0,5.2572159439987445,,,,,,sub-145,1,random_dot,,
left,left,37.0,1.0,18.0,right,0.0,2.2221131149999565,,accuracy,space,5.095640785000796,,,,,,0.0,1.0,1.0,0.0,18.0,1.0,37.0,0.0,683.8437356430004,,,,,,,,,683.8377183459997,684.1856019099996,684.9763249070002,684.9694940160007,684.9698282289992,684.9763249070002,684.9763249070002,684.9763249070002,,687.2036568820004,,,,,,,,,,,,,,,,,,,,,,,,,,,,,,right,0.0,2.2221131149999565,,,,,,sub-145,1,random_dot,,
right,right,38.0,0.0,19.0,left,0.0,3.708588706000228,,accuracy,space,5.095640785000796,,,,,,0.0,1.0,1.0,0.0,19.0,0.0,38.0,1.0,687.2099321360001,,,,,,,,,687.2039539649995,687.3020096939999,688.0929077050005,688.0860338000002,688.0863667379999,688.0929077050005,688.0929077050005,688.0929077050005,,691.8033823019996,,,,,,,,,,,,,,,,,,,,,,,,,,,,,,left,0.0,3.708588706000228,,,,,,sub-145,1,random_dot,,
left,left,39.0,1.0,19.0,right,0.0,3.690211848999752,,accuracy,space,5.095640785000796,,,,,,0.0,1.0,1.0,0.0,19.0,1.0,39.0,0.0,691.8096326060004,,,,,,,,,691.8036814839998,693.0020239530004,693.7923619430003,693.7859878790005,693.7863142229999,693.7923619430003,693.7923619430003,693.7923619430003,,697.4870194270006,,,,,,,,,,,,,,,,,,,,,,,,,,,,,,right,0.0,3.690211848999752,,,,,,sub-145,1,random_dot,,
right,right,40.0,0.0,20.0,left,0.0,1.572785952999766,,accuracy,space,5.095640785000796,,,,,,0.0,1.0,1.0,0.0,20.0,0.0,40.0,1.0,697.4932314640009,,,,,,,,,697.4873168880004,697.5854737280006,698.3761635339997,698.3693814630005,698.3697089969992,698.3761635339997,698.3761635339997,698.3761635339997,,699.9530416929992,,,,,,,,,,,,,,,,,,,,,,,,,,,,,,left,0.0,1.572785952999766,,,,,,sub-145,1,random_dot,,
left,left,41.0,1.0,20.0,right,0.0,2.9379099499983568,,accuracy,space,5.095640785000796,,,,,,0.0,1.0,1.0,0.0,20.0,1.0,41.0,0.0,699.9588543980008,,,,,,,,,699.953308391001,700.3020697470001,701.0929191310006,701.0860245830008,701.0863616589995,701.0929191310006,701.0929191310006,701.0929191310006,,704.0371254210004,,,,,,,,,,,,,,,,,,,,,,,,,,,,,,right,0.0,2.9379099499983568,,,,,,sub-145,1,random_dot,,
right,right,42.0,0.0,21.0,right,1.0,2.767791598000258,,accuracy,space,5.095640785000796,,,,,,0.0,1.0,1.0,0.0,21.0,0.0,42.0,1.0,704.0433260209993,,,,,,,,,704.0374215699994,704.1354270409993,704.9261915959996,704.9195930829992,704.9199177680002,704.9261915959996,704.9261915959996,704.9261915959996,,707.7044229260009,,,,,,,,,,,,,,,,,,,,,,,,,,,,,,right,1.0,2.767791598000258,,,,,,sub-145,1,random_dot,,
left,left,43.0,1.0,21.0,left,1.0,3.839233950000562,,accuracy,space,5.095640785000796,,,,,,0.0,1.0,1.0,0.0,21.0,1.0,43.0,0.0,707.7108766300007,,,,,,,,,707.7047795270009,707.8020930509992,708.5929617590009,708.5860737870007,708.5865375640005,708.5929617590009,708.5929617590009,708.5929617590009,,712.4372019929997,,,,,,,,,,,,,,,,,,,,,,,,,,,,,,left,1.0,3.839233950000562,,,,,,sub-145,1,random_dot,,
right,right,44.0,0.0,22.0,left,0.0,2.7532983390010486,,accuracy,space,5.095640785000796,,,,,,0.0,1.0,1.0,0.0,22.0,0.0,44.0,1.0,712.4433609919997,,,,,,,,,712.4374949329995,712.5355588519997,713.3259921499994,713.319443499,713.3197925799996,713.3259921499994,713.3259921499994,713.3259921499994,,716.0871905309996,,,,,,,,,,,,,,,,,,,,,,,,,,,,,,left,0.0,2.7532983390010486,,,,,,sub-145,1,random_dot,,
left,left,45.0,1.0,22.0,left,1.0,2.9986117930002365,,accuracy,space,5.095640785000796,,,,,,0.0,1.0,1.0,0.0,22.0,1.0,45.0,0.0,716.0932426710006,,,,,,,,,716.0874856360006,716.1854229950004,716.9761473340004,716.9693539910004,716.9696887940008,716.9761473340004,716.9761473340004,716.9761473340004,,719.9767391320001,,,,,,,,,,,,,,,,,,,,,,,,,,,,,,left,1.0,2.9986117930002365,,,,,,sub-145,1,random_dot,,
right,right,46.0,0.0,23.0,right,1.0,0.8335932890004187,,accuracy,space,5.095640785000796,,,,,,0.0,1.0,1.0,0.0,23.0,0.0,46.0,1.0,719.9852281080002,,,,,,,,,719.9770048570008,720.3238973099997,721.1187321969992,721.1078505490004,721.1081808859999,721.1187321969992,721.1187321969992,721.1187321969992,,721.9540225130004,,,,,,,,,,,,,,,,,,,,,,,,,,,,,,right,1.0,0.8335932890004187,,,,,,sub-145,1,random_dot,,
left,left,47.0,1.0,23.0,right,0.0,4.738206478999928,,accuracy,space,5.095640785000796,,,,,,0.0,1.0,1.0,0.0,23.0,1.0,47.0,0.0,721.9599794200003,,,,,,,,,721.9543170460001,723.1521056290003,723.9429156450005,723.9361078710008,723.9364496710004,723.9429156450005,723.9429156450005,723.9429156450005,,728.6867426110002,,,,,,,,,,,,,,,,,,,,,,,,,,,,,,right,0.0,4.738206478999928,,,,,,sub-145,1,random_dot,,
left,left,48.0,0.0,24.0,left,1.0,2.452657673000431,,accuracy,space,5.095640785000796,,,,,,0.0,1.0,1.0,0.0,24.0,0.0,48.0,0.0,728.6923280020001,,,,,,,,,728.6870007119996,729.0355549409996,729.8261546440008,729.8194087360007,729.8197442159999,729.8261546440008,729.8261546440008,729.8261546440008,,732.2872965879997,,,,,,,,,,,,,,,,,,,,,,,,,,,,,,left,1.0,2.452657673000431,,,,,,sub-145,1,random_dot,,
right,right,49.0,1.0,24.0,left,0.0,1.252285230999405,,accuracy,space,5.095640785000796,,,,,,0.0,1.0,1.0,0.0,24.0,1.0,49.0,1.0,732.2935100470004,,,,,,,,,732.287596954,732.6355108829994,733.4262138470003,733.4194531970006,733.4197980370009,733.4262138470003,733.4262138470003,733.4262138470003,,734.6871123809997,,,,,,,,,,,,,,,,,,,,,,,,,,,,,,left,0.0,1.252285230999405,,,,,,sub-145,1,random_dot,,
left,left,50.0,0.0,25.0,right,0.0,2.3257520189999923,,accuracy,space,5.095640785000796,,,,,,0.0,1.0,1.0,0.0,25.0,0.0,50.0,0.0,734.6932453669997,,,,,,,,,734.6874199360009,735.8854795879997,736.6762691990007,736.6695018659993,736.669834327,736.6762691990007,736.6762691990007,736.6762691990007,,739.0036599190007,,,,,,,,,,,,,,,,,,,,,,,,,,,,,,right,0.0,2.3257520189999923,,,,,,sub-145,1,random_dot,,
right,right,51.0,1.0,25.0,left,0.0,3.228786196999863,,accuracy,space,5.095640785000796,,,,,,0.0,1.0,1.0,0.0,25.0,1.0,51.0,1.0,739.0097193189995,,,,,,,,,739.0039479900006,739.8021216500001,740.5930032600008,740.5863715220003,740.5867029740002,740.5930032600008,740.5930032600008,740.5930032600008,,743.8277132990006,,,,,,,,,,,,,,,,,,,,,,,,,,,,,,left,0.0,3.228786196999863,,,,,,sub-145,1,random_dot,,
right,right,52.0,0.0,26.0,right,1.0,4.786151350999717,,accuracy,space,5.095640785000796,,,,,,0.0,1.0,1.0,0.0,26.0,0.0,52.0,1.0,743.8354367659995,,,,,,,,,743.8280086119994,743.9242009459995,744.7188311760001,744.7078631620006,744.7081958020008,744.7188311760001,744.7188311760001,744.7188311760001,,749.5115619169992,,,,,,,,,,,,,,,,,,,,,,,,,,,,,,right,1.0,4.786151350999717,,,,,,sub-145,1,random_dot,,
left,left,53.0,1.0,26.0,right,0.0,3.34497740200095,,accuracy,space,5.095640785000796,,,,,,0.0,1.0,1.0,0.0,26.0,1.0,53.0,0.0,749.518800418,,,,,,,,,749.5118731340008,749.8573364050008,750.6523358750001,750.6412177780003,750.6415492449996,750.6523358750001,750.6523358750001,750.6523358750001,,754.0037782990003,,,,,,,,,,,,,,,,,,,,,,,,,,,,,,right,0.0,3.34497740200095,,,,,,sub-145,1,random_dot,,
left,left,54.0,0.0,27.0,left,1.0,3.95698373400046,,accuracy,space,5.095640785000796,,,,,,0.0,1.0,1.0,0.0,27.0,0.0,54.0,0.0,754.009780411001,,,,,,,,,754.0040752320001,754.1022261950002,754.8921107669994,754.8860023689995,754.8862721690002,754.8921107669994,754.8921107669994,754.8921107669994,,758.8540338750008,,,,,,,,,,,,,,,,,,,,,,,,,,,,,,left,1.0,3.95698373400046,,,,,,sub-145,1,random_dot,,
right,right,55.0,1.0,27.0,right,1.0,1.9981092250000076,,accuracy,space,5.095640785000796,,,,,,0.0,1.0,1.0,0.0,27.0,1.0,55.0,1.0,758.8601111860007,,,,,,,,,758.854337662,759.2023837510005,759.9932084240008,759.9862226679998,759.9865632069996,759.9932084240008,759.9932084240008,759.9932084240008,,761.9937989810005,,,,,,,,,,,,,,,,,,,,,,,,,,,,,,right,1.0,1.9981092250000076,,,,,,sub-145,1,random_dot,,
left,left,56.0,0.0,28.0,left,1.0,5.547092984999836,,accuracy,space,5.095640785000796,,,,,,0.0,1.0,1.0,0.0,28.0,0.0,56.0,0.0,762.0022704750008,,,,,,,,,761.9940754069994,762.3407772419996,763.1357246459993,763.1247162599993,763.1250521000002,763.1357246459993,763.1357246459993,763.1357246459993,768.1189575709996,768.686992160001,,,,,,,,,,,,,,,,,,,,,,,,,,,,,,left,1.0,5.547092984999836,,,,,,sub-145,1,random_dot,,
right,right,57.0,1.0,28.0,right,1.0,4.504310217998864,,accuracy,space,5.095640785000796,,,,,,0.0,1.0,1.0,0.0,28.0,1.0,57.0,1.0,768.6931255319996,,,,,,,,,768.6872841280001,768.7857190089999,769.5762889220005,769.5695985729999,769.5699351340008,769.5762889220005,769.5762889220005,769.5762889220005,,774.0869367359992,,,,,,,,,,,,,,,,,,,,,,,,,,,,,,right,1.0,4.504310217998864,,,,,,sub-145,1,random_dot,,
right,right,58.0,0.0,29.0,left,0.0,3.586414260998936,,accuracy,space,5.095640785000796,,,,,,0.0,1.0,1.0,0.0,29.0,0.0,58.0,1.0,774.0931205479992,,,,,,,,,774.0872283959998,774.8856536610001,775.6769441380002,775.6699549259993,775.670281789,775.6769441380002,775.6769441380002,775.6769441380002,,779.2704648899999,,,,,,,,,,,,,,,,,,,,,,,,,,,,,,left,0.0,3.586414260998936,,,,,,sub-145,1,random_dot,,
left,left,59.0,1.0,29.0,left,1.0,2.499590925999655,,accuracy,space,5.095640785000796,,,,,,0.0,1.0,1.0,0.0,29.0,1.0,59.0,0.0,779.2765402420009,,,,,,,,,779.2707646060007,780.4689104049994,781.2595319819993,781.2530829000007,781.2534216200002,781.2595319819993,781.2595319819993,781.2595319819993,,783.7608581980003,,,,,,,,,,,,,,,,,,,,,,,,,,,,,,left,1.0,2.499590925999655,,,,,,sub-145,1,random_dot,,
,,1.0,1.0,0.0,,,,,accuracy,space,5.095640785000796,,,,,,0.0,1.0,1.0,0.0,,,,,,,,,,,,,,,,,,,,,,,,,,,,,,,,,,,,,,,,,,,,,,,,,,,,,,,,,,,,,sub-145,1,random_dot,,
,,,,,,,,,,,,,,,,,,,,,,,,,,,,,,,,,,,,,,,,,,,,,,,,,,,,,,,,,,,,,,,,,,,,,,,,,,,,,783.7647240419992,783.7720578480003,788.7690159550002,788.7582334990002,sub-145,1,random_dot,,
