wordCTK,colorCTK,corrAnsCTK,congruentCTK,thisN,thisTrialN,thisRepN,keyResp_CTK.keys,keyResp_CTK.corr,keyResp_CTK.rt,keyResp_CTK.duration,wordPractice,colorPractice,corrAnsPractice,congruentPractice,respPractice.keys,respPractice.corr,respPractice.rt,respPractice.duration,word,color,corrAns,congruent,keyResp_test_run.keys,keyResp_test_run.corr,keyResp_test_run.rt,keyResp_test_run.duration,trials_CTK.thisRepN,trials_CTK.thisTrialN,trials_CTK.thisN,trials_CTK.thisIndex,trials_practice.thisRepN,trials_practice.thisTrialN,trials_practice.thisN,trials_practice.thisIndex,trials_test.thisRepN,trials_test.thisTrialN,trials_test.thisN,trials_test.thisIndex,thisRow.t,notes,instruction.started,instr_text.started,instr_image.started,instr_resp.started,instruction.stopped,instr_resp.keys,instr_resp.rt,instr_resp.duration,instr_color_to_key.started,instr_ctk.started,resp_ctk.started,instr_color_to_key.stopped,resp_ctk.keys,resp_ctk.rt,resp_ctk.duration,ITI.started,fixcross.started,fixcross.stopped,ITI.stopped,color_to_key_run.started,stimulus_CTK.started,keyResp_CTK.started,color_to_key_run.stopped,trials_CTK.keyResp_CTK.keys,trials_CTK.keyResp_CTK.corr,trials_CTK.keyResp_CTK.rt,trials_CTK.keyResp_CTK.duration,instr_practice.started,instr_practice_text.started,instr_practice_resp.started,instr_practice.stopped,instr_practice_resp.keys,instr_practice_resp.rt,instr_practice_resp.duration,practice_run.started,stimulus_practice.started,respPractice.started,practice_run.stopped,trials_practice.respPractice.keys,trials_practice.respPractice.corr,trials_practice.respPractice.rt,trials_practice.respPractice.duration,feedback.started,textFeedback.started,feedback.stopped,textFeedback.stopped,instr_test.started,instr_test_text.started,instr_test_resp.started,instr_test.stopped,instr_test_resp.keys,instr_test_resp.rt,instr_test_resp.duration,test_run.started,stimulus_test_run.started,keyResp_test_run.started,test_run.stopped,trials_test.keyResp_test_run.keys,trials_test.keyResp_test_run.corr,trials_test.keyResp_test_run.rt,trials_test.keyResp_test_run.duration,goodbye.started,textGoodbye.started,goodbye.stopped,participant,session,date,expName,psychopyVersion,frameRate,expStart
,,,,,,,,,,,,,,,,,,,,,,,,,,,,,,,,,,,,,,,,,0.0212937,0.0409437,0.0409437,0.0409437,1.7035023,space,1.5592127,None,,,,,,,,,,,,,,,,,,,,,,,,,,,,,,,,,,,,,,,,,,,,,,,,,,,,,,,,,sub-158,1,2025-03-11_11h43.08.927,stroop_test,04.02.2024,60.07034235,2025-03-11 11h43.34.581619 +0100
,,,,,,,,,,,,,,,,,,,,,,,,,,,,,,,,,,,,,,,,,,,,,,,,,1.7035792,1.7189858,1.7189858,3.3363509,space,1.6035269,None,,,,,,,,,,,,,,,,,,,,,,,,,,,,,,,,,,,,,,,,,,,,,,,,,,sub-158,1,2025-03-11_11h43.08.927,stroop_test,04.02.2024,60.07034235,2025-03-11 11h43.34.581619 +0100
test,yellow,g,1,0,0,0,g,1,1.0055432,None,,,,,,,,,,,,,,,,,0,0,0,1,,,,,,,,,3.3679385,,,,,,,,,,,,,,,,,3.3546315,3.6844601,4.5004802,4.4685228,4.4803577,4.5004802,4.5004802,5.518752,g,1,1.0055432,None,,,,,,,,,,,,,,,,,,,,,,,,,,,,,,,,,,,,,,sub-158,1,2025-03-11_11h43.08.927,stroop_test,04.02.2024,60.07034235,2025-03-11 11h43.34.581619 +0100
test,blue,b,1,1,1,0,b,1,0.7971059,None,,,,,,,,,,,,,,,,,0,1,1,2,,,,,,,,,5.5325128,,,,,,,,,,,,,,,,,5.5193408,5.8824459,6.6819453,6.6664649,6.6672257,6.6819453,6.6819453,7.4828095,b,1,0.7971059,None,,,,,,,,,,,,,,,,,,,,,,,,,,,,,,,,,,,,,,sub-158,1,2025-03-11_11h43.08.927,stroop_test,04.02.2024,60.07034235,2025-03-11 11h43.34.581619 +0100
test,red,r,1,2,2,0,r,1,0.6216424,None,,,,,,,,,,,,,,,,,0,2,2,0,,,,,,,,,7.4974333,,,,,,,,,,,,,,,,,7.4833248,8.6965847,9.4957428,9.4800144,9.4807938,9.4957428,9.4957428,10.1303645,r,1,0.6216424,None,,,,,,,,,,,,,,,,,,,,,,,,,,,,,,,,,,,,,,sub-158,1,2025-03-11_11h43.08.927,stroop_test,04.02.2024,60.07034235,2025-03-11 11h43.34.581619 +0100
test,yellow,g,1,3,0,1,g,1,0.5395091,None,,,,,,,,,,,,,,,,,1,0,3,1,,,,,,,,,10.1450724,,,,,,,,,,,,,,,,,10.130887,10.4947853,11.2942153,11.2784498,11.2792413,11.2942153,11.2942153,11.8454909,g,1,0.5395091,None,,,,,,,,,,,,,,,,,,,,,,,,,,,,,,,,,,,,,,sub-158,1,2025-03-11_11h43.08.927,stroop_test,04.02.2024,60.07034235,2025-03-11 11h43.34.581619 +0100
test,blue,b,1,4,1,1,b,1,0.576581,None,,,,,,,,,,,,,,,,,1,1,4,2,,,,,,,,,11.8602563,,,,,,,,,,,,,,,,,11.8460137,11.9602277,12.7594873,12.7447154,12.7460843,12.7594873,12.7594873,13.3439719,b,1,0.576581,None,,,,,,,,,,,,,,,,,,,,,,,,,,,,,,,,,,,,,,sub-158,1,2025-03-11_11h43.08.927,stroop_test,04.02.2024,60.07034235,2025-03-11 11h43.34.581619 +0100
test,red,r,1,5,2,1,r,1,0.4391568,None,,,,,,,,,,,,,,,,,1,2,5,0,,,,,,,,,13.3589092,,,,,,,,,,,,,,,,,13.3445184,13.708113,14.5079985,14.4923108,14.4930746,14.5079985,14.5079985,14.959248,r,1,0.4391568,None,,,,,,,,,,,,,,,,,,,,,,,,,,,,,,,,,,,,,,sub-158,1,2025-03-11_11h43.08.927,stroop_test,04.02.2024,60.07034235,2025-03-11 11h43.34.581619 +0100
test,red,r,1,6,0,2,r,1,0.5281082,None,,,,,,,,,,,,,,,,,2,0,6,0,,,,,,,,,14.9747617,,,,,,,,,,,,,,,,,14.9597609,16.1731318,16.9724053,16.9568663,16.9576254,16.9724053,16.9724053,17.5070683,r,1,0.5281082,None,,,,,,,,,,,,,,,,,,,,,,,,,,,,,,,,,,,,,,sub-158,1,2025-03-11_11h43.08.927,stroop_test,04.02.2024,60.07034235,2025-03-11 11h43.34.581619 +0100
test,blue,b,1,7,1,2,b,1,0.5839233,None,,,,,,,,,,,,,,,,,2,1,7,2,,,,,,,,,17.5220114,,,,,,,,,,,,,,,,,17.5076042,17.6219151,18.4211596,18.4064106,18.4077608,18.4211596,18.4211596,19.0227124,b,1,0.5839233,None,,,,,,,,,,,,,,,,,,,,,,,,,,,,,,,,,,,,,,sub-158,1,2025-03-11_11h43.08.927,stroop_test,04.02.2024,60.07034235,2025-03-11 11h43.34.581619 +0100
test,yellow,g,1,8,2,2,g,1,0.4740836,None,,,,,,,,,,,,,,,,,2,2,8,1,,,,,,,,,19.0372773,,,,,,,,,,,,,,,,,19.0232321,19.836567,20.6359429,20.620233,20.6210026,20.6359429,20.6359429,21.1211899,g,1,0.4740836,None,,,,,,,,,,,,,,,,,,,,,,,,,,,,,,,,,,,,,,sub-158,1,2025-03-11_11h43.08.927,stroop_test,04.02.2024,60.07034235,2025-03-11 11h43.34.581619 +0100
test,yellow,g,1,9,0,3,g,1,0.5779614,None,,,,,,,,,,,,,,,,,3,0,9,1,,,,,,,,,21.1357765,,,,,,,,,,,,,,,,,21.1218348,21.2353007,22.0352191,22.0190234,22.0197819,22.0352191,22.0352191,22.6194025,g,1,0.5779614,None,,,,,,,,,,,,,,,,,,,,,,,,,,,,,,,,,,,,,,sub-158,1,2025-03-11_11h43.08.927,stroop_test,04.02.2024,60.07034235,2025-03-11 11h43.34.581619 +0100
test,blue,b,1,10,1,3,r,0,0.4650714,None,,,,,,,,,,,,,,,,,3,1,10,2,,,,,,,,,22.634158,,,,,,,,,,,,,,,,,22.6199355,22.734078,23.5333482,23.5179045,23.5186624,23.5333482,23.5333482,24.0015349,r,0,0.4650714,None,,,,,,,,,,,,,,,,,,,,,,,,,,,,,,,,,,,,,,sub-158,1,2025-03-11_11h43.08.927,stroop_test,04.02.2024,60.07034235,2025-03-11 11h43.34.581619 +0100
test,red,r,1,11,2,3,r,1,0.5600635,None,,,,,,,,,,,,,,,,,3,2,11,0,,,,,,,,,24.016203,,,,,,,,,,,,,,,,,24.0020782,24.3659413,25.1654047,25.1499357,25.1507173,25.1654047,25.1654047,25.7332737,r,1,0.5600635,None,,,,,,,,,,,,,,,,,,,,,,,,,,,,,,,,,,,,,,sub-158,1,2025-03-11_11h43.08.927,stroop_test,04.02.2024,60.07034235,2025-03-11 11h43.34.581619 +0100
,,,,,,,,,,,,,,,,,,,,,,,,,,,,,,,,,,,,,,,,,,,,,,,,,,,,,,,,,,,,,,,,,,,,25.7335405,25.7480672,25.7480672,26.7999881,space,1.0332958,None,,,,,,,,,,,,,,,,,,,,,,,,,,,,,,,sub-158,1,2025-03-11_11h43.08.927,stroop_test,04.02.2024,60.07034235,2025-03-11 11h43.34.581619 +0100
,,,,0,0,0,,,,,gelb,yellow,g,1,g,1,1.1784577,None,,,,,,,,,,,,,0,0,0,11,,,,,26.8304558,,,,,,,,,,,,,,,,,26.8177675,27.6132382,28.4289925,28.3967518,,,,,,,,,,,,,,,,28.4060768,28.4289925,28.4289925,29.6133061,g,1,1.1784577,None,29.6268744,29.6445843,30.6272779,,,,,,,,,,,,,,,,,,,,sub-158,1,2025-03-11_11h43.08.927,stroop_test,04.02.2024,60.07034235,2025-03-11 11h43.34.581619 +0100
,,,,1,1,0,,,,,blau,blue,b,1,b,1,0.6579364,None,,,,,,,,,,,,,0,1,1,5,,,,,30.6437181,,,,,,,,,,,,,,,,,30.627781,30.7269907,31.5429022,31.5106025,,,,,,,,,,,,,,,,31.5201331,31.5429022,31.5429022,32.2108162,b,1,0.6579364,None,32.2116563,32.2256566,33.2092319,33.2247689,,,,,,,,,,,,,,,,,,,sub-158,1,2025-03-11_11h43.08.927,stroop_test,04.02.2024,60.07034235,2025-03-11 11h43.34.581619 +0100
,,,,2,2,0,,,,,blau,blue,b,1,b,1,0.4698728,None,,,,,,,,,,,,,0,2,2,6,,,,,33.2247689,,,,,,,,,,,,,,,,,33.2097424,34.4237323,35.2229695,35.207368,,,,,,,,,,,,,,,,35.2081148,35.2229695,35.2229695,35.7072162,b,1,0.4698728,None,35.7077641,35.7225684,36.706006,36.7223175,,,,,,,,,,,,,,,,,,,sub-158,1,2025-03-11_11h43.08.927,stroop_test,04.02.2024,60.07034235,2025-03-11 11h43.34.581619 +0100
,,,,3,3,0,,,,,rot,blue,b,0,b,1,1.8901074,None,,,,,,,,,,,,,0,3,3,2,,,,,36.7223175,,,,,,,,,,,,,,,,,36.7065079,37.9206601,38.7208858,38.7043311,,,,,,,,,,,,,,,,38.7113566,38.7208858,38.7208858,40.6236107,b,1,1.8901074,None,40.6245013,40.6382841,41.6378355,,,,,,,,,,,,,,,,,,,,sub-158,1,2025-03-11_11h43.08.927,stroop_test,04.02.2024,60.07034235,2025-03-11 11h43.34.581619 +0100
,,,,4,4,0,,,,,gelb,red,r,0,r,1,1.0119093,None,,,,,,,,,,,,,0,4,4,8,,,,,41.6541704,,,,,,,,,,,,,,,,,41.6383324,42.8359196,43.6353004,43.6196359,,,,,,,,,,,,,,,,43.6240228,43.6353004,43.6353004,44.6530032,r,1,1.0119093,None,44.6538514,44.6681507,45.6515549,45.6667769,,,,,,,,,,,,,,,,,,,sub-158,1,2025-03-11_11h43.08.927,stroop_test,04.02.2024,60.07034235,2025-03-11 11h43.34.581619 +0100
,,,,5,5,0,,,,,blau,red,r,0,r,1,0.9605032,None,,,,,,,,,,,,,0,5,5,4,,,,,45.6667769,,,,,,,,,,,,,,,,,45.6520438,46.4660674,47.2658052,47.2498036,,,,,,,,,,,,,,,,47.2546569,47.2658052,47.2658052,48.2330752,r,1,0.9605032,None,48.2339102,48.248003,49.2472165,,,,,,,,,,,,,,,,,,,,sub-158,1,2025-03-11_11h43.08.927,stroop_test,04.02.2024,60.07034235,2025-03-11 11h43.34.581619 +0100
,,,,6,6,0,,,,,gelb,blue,b,0,b,1,1.7987848,None,,,,,,,,,,,,,0,6,6,9,,,,,49.2635622,,,,,,,,,,,,,,,,,49.2477172,49.3473116,50.1461568,50.131258,,,,,,,,,,,,,,,,50.136183,50.1461568,50.1461568,51.9469317,b,1,1.7987848,None,51.9478318,51.9612201,52.944732,52.9603361,,,,,,,,,,,,,,,,,,,sub-158,1,2025-03-11_11h43.08.927,stroop_test,04.02.2024,60.07034235,2025-03-11 11h43.34.581619 +0100
,,,,7,7,0,,,,,rot,red,r,1,r,1,0.7614371,None,,,,,,,,,,,,,0,7,7,0,,,,,52.9603361,,,,,,,,,,,,,,,,,52.9452459,53.3103076,54.1097292,54.0943105,,,,,,,,,,,,,,,,54.0993918,54.1097292,54.1097292,54.8772922,r,1,0.7614371,None,54.8781143,54.8919933,55.8761181,55.8910671,,,,,,,,,,,,,,,,,,,sub-158,1,2025-03-11_11h43.08.927,stroop_test,04.02.2024,60.07034235,2025-03-11 11h43.34.581619 +0100
,,,,8,8,0,,,,,rot,red,r,1,r,1,0.7817621,None,,,,,,,,,,,,,0,8,8,1,,,,,55.8910671,,,,,,,,,,,,,,,,,55.8766303,56.6904298,57.48968,57.4743782,,,,,,,,,,,,,,,,57.4751369,57.48968,57.48968,58.2741778,r,1,0.7817621,None,58.275024,58.2890671,59.2725868,59.288679,,,,,,,,,,,,,,,,,,,sub-158,1,2025-03-11_11h43.08.927,stroop_test,04.02.2024,60.07034235,2025-03-11 11h43.34.581619 +0100
,,,,9,9,0,,,,,rot,yellow,g,0,g,1,1.0498332,None,,,,,,,,,,,,,0,9,9,3,,,,,59.288679,,,,,,,,,,,,,,,,,59.2730888,59.6377314,60.4370704,60.421066,,,,,,,,,,,,,,,,60.4215629,60.4370704,60.4370704,61.5049142,g,1,1.0498332,None,61.5057292,61.5195335,62.5029857,62.5184827,,,,,,,,,,,,,,,,,,,sub-158,1,2025-03-11_11h43.08.927,stroop_test,04.02.2024,60.07034235,2025-03-11 11h43.34.581619 +0100
,,,,10,10,0,,,,,gelb,yellow,g,1,g,1,0.8207536,None,,,,,,,,,,,,,0,10,10,10,,,,,62.5184827,,,,,,,,,,,,,,,,,62.5034787,63.717848,64.5172295,64.5015807,,,,,,,,,,,,,,,,64.50601,64.5172295,64.5172295,65.3513596,g,1,0.8207536,None,65.3521957,65.3664904,66.3655494,,,,,,,,,,,,,,,,,,,,sub-158,1,2025-03-11_11h43.08.927,stroop_test,04.02.2024,60.07034235,2025-03-11 11h43.34.581619 +0100
,,,,11,11,0,,,,,blau,yellow,g,0,g,1,0.8444032,None,,,,,,,,,,,,,0,11,11,7,,,,,66.381726,,,,,,,,,,,,,,,,,66.3663146,66.4652157,67.2644077,67.2489573,,,,,,,,,,,,,,,,67.2537189,67.2644077,67.2644077,68.1156572,g,1,0.8444032,None,68.1164827,68.1303473,69.113848,69.1294864,,,,,,,,,,,,,,,,,,,sub-158,1,2025-03-11_11h43.08.927,stroop_test,04.02.2024,60.07034235,2025-03-11 11h43.34.581619 +0100
,,,,12,0,1,,,,,gelb,blue,b,0,b,1,0.9147263,None,,,,,,,,,,,,,1,0,12,9,,,,,69.1294864,,,,,,,,,,,,,,,,,69.1143483,69.2293441,70.0286261,70.0129023,,,,,,,,,,,,,,,,70.0172397,70.0286261,70.0286261,70.9464165,b,1,0.9147263,None,70.9472533,70.961522,71.9609873,,,,,,,,,,,,,,,,,,,,sub-158,1,2025-03-11_11h43.08.927,stroop_test,04.02.2024,60.07034235,2025-03-11 11h43.34.581619 +0100
,,,,13,1,1,,,,,rot,yellow,g,0,g,1,0.9235412,None,,,,,,,,,,,,,1,1,13,3,,,,,71.9767303,,,,,,,,,,,,,,,,,71.9614853,72.0600709,72.8594329,72.8441744,,,,,,,,,,,,,,,,72.849609,72.8594329,72.8594329,73.7945232,g,1,0.9235412,None,73.7953573,73.8088198,74.792477,74.8078087,,,,,,,,,,,,,,,,,,,sub-158,1,2025-03-11_11h43.08.927,stroop_test,04.02.2024,60.07034235,2025-03-11 11h43.34.581619 +0100
,,,,14,2,1,,,,,rot,red,r,1,r,1,0.9897264,None,,,,,,,,,,,,,1,2,14,0,,,,,74.8078087,,,,,,,,,,,,,,,,,74.7929831,75.607207,76.4065199,76.3905303,,,,,,,,,,,,,,,,76.3910394,76.4065199,76.4065199,77.4072065,r,1,0.9897264,None,77.4080313,77.4221107,78.4059514,78.4211329,,,,,,,,,,,,,,,,,,,sub-158,1,2025-03-11_11h43.08.927,stroop_test,04.02.2024,60.07034235,2025-03-11 11h43.34.581619 +0100
,,,,15,3,1,,,,,rot,red,r,1,r,1,1.5330693,None,,,,,,,,,,,,,1,3,15,1,,,,,78.4211329,,,,,,,,,,,,,,,,,78.4064417,79.2211263,80.0371479,80.020762,,,,,,,,,,,,,,,,80.0215276,80.0371479,80.0371479,81.5867734,r,1,1.5330693,None,81.587593,81.6017059,82.5856431,82.6007943,,,,,,,,,,,,,,,,,,,sub-158,1,2025-03-11_11h43.08.927,stroop_test,04.02.2024,60.07034235,2025-03-11 11h43.34.581619 +0100
,,,,16,4,1,,,,,blau,blue,b,1,b,1,0.5506532,None,,,,,,,,,,,,,1,4,16,6,,,,,82.6007943,,,,,,,,,,,,,,,,,82.586142,82.950533,83.7635014,83.734866,,,,,,,,,,,,,,,,83.7429886,83.7635014,83.7635014,84.3164123,b,1,0.5506532,None,84.3172578,84.3297298,85.3134328,85.3287535,,,,,,,,,,,,,,,,,,,sub-158,1,2025-03-11_11h43.08.927,stroop_test,04.02.2024,60.07034235,2025-03-11 11h43.34.581619 +0100
,,,,17,5,1,,,,,gelb,yellow,g,1,g,1,0.6066288,None,,,,,,,,,,,,,1,5,17,10,,,,,85.3287535,,,,,,,,,,,,,,,,,85.3139213,86.1280582,86.9275737,86.9117436,,,,,,,,,,,,,,,,86.9161401,86.9275737,86.9275737,87.5453878,g,1,0.6066288,None,87.5466733,87.560227,88.543613,88.5593367,,,,,,,,,,,,,,,,,,,sub-158,1,2025-03-11_11h43.08.927,stroop_test,04.02.2024,60.07034235,2025-03-11 11h43.34.581619 +0100
,,,,18,6,1,,,,,gelb,yellow,g,1,g,1,0.6449801,None,,,,,,,,,,,,,1,6,18,11,,,,,88.5593367,,,,,,,,,,,,,,,,,88.5441081,89.358541,90.1579016,90.1426195,,,,,,,,,,,,,,,,90.1433792,90.1579016,90.1579016,90.8089801,g,1,0.6449801,None,90.8099525,90.8241798,91.8233616,,,,,,,,,,,,,,,,,,,,sub-158,1,2025-03-11_11h43.08.927,stroop_test,04.02.2024,60.07034235,2025-03-11 11h43.34.581619 +0100
,,,,19,7,1,,,,,blau,red,r,0,r,1,1.0320959,None,,,,,,,,,,,,,1,7,19,4,,,,,91.8396573,,,,,,,,,,,,,,,,,91.8238767,91.9229845,92.7225623,92.7065858,,,,,,,,,,,,,,,,92.7117253,92.7225623,92.7225623,93.7570046,r,1,1.0320959,None,93.7578686,93.7714152,94.7548049,94.7704426,,,,,,,,,,,,,,,,,,,sub-158,1,2025-03-11_11h43.08.927,stroop_test,04.02.2024,60.07034235,2025-03-11 11h43.34.581619 +0100
,,,,20,8,1,,,,,rot,blue,b,0,b,1,0.778487,None,,,,,,,,,,,,,1,8,20,2,,,,,94.7704426,,,,,,,,,,,,,,,,,94.755299,94.8705198,95.6699332,95.6539524,,,,,,,,,,,,,,,,95.6591049,95.6699332,95.6699332,96.4546409,b,1,0.778487,None,96.4554685,96.4693817,97.4527942,97.4681362,,,,,,,,,,,,,,,,,,,sub-158,1,2025-03-11_11h43.08.927,stroop_test,04.02.2024,60.07034235,2025-03-11 11h43.34.581619 +0100
,,,,21,9,1,,,,,gelb,red,r,0,r,1,1.0353186,None,,,,,,,,,,,,,1,9,21,8,,,,,97.4681362,,,,,,,,,,,,,,,,,97.453306,97.5678616,98.3676957,98.3517523,,,,,,,,,,,,,,,,98.3567779,98.3676957,98.3676957,99.4184476,r,1,1.0353186,None,99.4192869,99.4330302,100.4165305,100.4323369,,,,,,,,,,,,,,,,,,,sub-158,1,2025-03-11_11h43.08.927,stroop_test,04.02.2024,60.07034235,2025-03-11 11h43.34.581619 +0100
,,,,22,10,1,,,,,blau,yellow,g,0,g,1,0.8673952,None,,,,,,,,,,,,,1,10,22,7,,,,,100.4323369,,,,,,,,,,,,,,,,,100.4170187,101.6310809,102.4305069,102.414948,,,,,,,,,,,,,,,,102.4196864,102.4305069,102.4305069,103.3148047,g,1,0.8673952,None,103.3156462,103.3294886,104.3131396,104.3286898,,,,,,,,,,,,,,,,,,,sub-158,1,2025-03-11_11h43.08.927,stroop_test,04.02.2024,60.07034235,2025-03-11 11h43.34.581619 +0100
,,,,23,11,1,,,,,blau,blue,b,1,b,1,0.6401862,None,,,,,,,,,,,,,1,11,23,5,,,,,104.3286898,,,,,,,,,,,,,,,,,104.313633,104.6784313,105.477611,105.4620613,,,,,,,,,,,,,,,,105.4628107,105.477611,105.477611,106.1293145,b,1,0.6401862,None,106.1301341,106.1440759,107.143102,,,,,,,,,,,,,,,,,,,,sub-158,1,2025-03-11_11h43.08.927,stroop_test,04.02.2024,60.07034235,2025-03-11 11h43.34.581619 +0100
,,,,,,,,,,,,,,,,,,,,,,,,,,,,,,,,,,,,,,,,,,,,,,,,,,,,,,,,,,,,,,,,,,,,,,,,,,,,,,,,,,,,,,,107.143312,107.1595689,107.1595689,108.2440378,space,1.0758199,None,,,,,,,,,,,,sub-158,1,2025-03-11_11h43.08.927,stroop_test,04.02.2024,60.07034235,2025-03-11 11h43.34.581619 +0100
,,,,0,0,0,,,,,,,,,,,,,gelb,yellow,g,1,g,1,0.6646016,None,,,,,,,,,0,0,0,11,108.2752087,,,,,,,,,,,,,,,,,108.2642916,109.4578777,110.2569577,110.2415713,,,,,,,,,,,,,,,,,,,,,,,,,,,,,,,,,,,110.2460395,110.2569577,110.2569577,110.9250242,g,1,0.6646016,None,,,,sub-158,1,2025-03-11_11h43.08.927,stroop_test,04.02.2024,60.07034235,2025-03-11 11h43.34.581619 +0100
,,,,1,1,0,,,,,,,,,,,,,rot,red,r,1,r,1,0.5687909,None,,,,,,,,,0,1,1,0,110.9401905,,,,,,,,,,,,,,,,,110.9255935,111.739204,112.5567744,112.5391124,,,,,,,,,,,,,,,,,,,,,,,,,,,,,,,,,,,112.5470228,112.5567744,112.5567744,113.1422749,r,1,0.5687909,None,,,,sub-158,1,2025-03-11_11h43.08.927,stroop_test,04.02.2024,60.07034235,2025-03-11 11h43.34.581619 +0100
,,,,2,2,0,,,,,,,,,,,,,rot,yellow,g,0,g,1,0.9179494,None,,,,,,,,,0,2,2,3,113.1572799,,,,,,,,,,,,,,,,,113.1428334,113.2572058,114.0565481,114.0410744,,,,,,,,,,,,,,,,,,,,,,,,,,,,,,,,,,,114.0418408,114.0565481,114.0565481,114.9907213,g,1,0.9179494,None,,,,sub-158,1,2025-03-11_11h43.08.927,stroop_test,04.02.2024,60.07034235,2025-03-11 11h43.34.581619 +0100
,,,,3,3,0,,,,,,,,,,,,,gelb,yellow,g,1,g,1,0.6792666,None,,,,,,,,,0,3,3,10,115.0058031,,,,,,,,,,,,,,,,,114.9912831,115.8048552,116.6046606,116.5885644,,,,,,,,,,,,,,,,,,,,,,,,,,,,,,,,,,,116.594607,116.6046606,116.6046606,117.2890137,g,1,0.6792666,None,,,,sub-158,1,2025-03-11_11h43.08.927,stroop_test,04.02.2024,60.07034235,2025-03-11 11h43.34.581619 +0100
,,,,4,4,0,,,,,,,,,,,,,gelb,blue,b,0,b,1,1.3457751,None,,,,,,,,,0,4,4,9,117.3034006,,,,,,,,,,,,,,,,,117.2895969,117.6532313,118.4531531,118.4368937,,,,,,,,,,,,,,,,,,,,,,,,,,,,,,,,,,,118.4376557,118.4531531,118.4531531,119.8033011,b,1,1.3457751,None,,,,sub-158,1,2025-03-11_11h43.08.927,stroop_test,04.02.2024,60.07034235,2025-03-11 11h43.34.581619 +0100
,,,,5,5,0,,,,,,,,,,,,,blau,blue,b,1,b,1,0.7132264,None,,,,,,,,,0,5,5,6,119.8184585,,,,,,,,,,,,,,,,,119.8038727,120.1680646,120.9674129,120.9516395,,,,,,,,,,,,,,,,,,,,,,,,,,,,,,,,,,,120.9566043,120.9674129,120.9674129,121.6851166,b,1,0.7132264,None,,,,sub-158,1,2025-03-11_11h43.08.927,stroop_test,04.02.2024,60.07034235,2025-03-11 11h43.34.581619 +0100
,,,,6,6,0,,,,,,,,,,,,,blau,blue,b,1,b,1,0.6752152,None,,,,,,,,,0,6,6,5,121.7000439,,,,,,,,,,,,,,,,,121.6856897,122.4989789,123.2984974,123.2827381,,,,,,,,,,,,,,,,,,,,,,,,,,,,,,,,,,,123.2835101,123.2984974,123.2984974,123.9829693,b,1,0.6752152,None,,,,sub-158,1,2025-03-11_11h43.08.927,stroop_test,04.02.2024,60.07034235,2025-03-11 11h43.34.581619 +0100
,,,,7,7,0,,,,,,,,,,,,,rot,blue,b,0,b,1,0.678075,None,,,,,,,,,0,7,7,2,123.997564,,,,,,,,,,,,,,,,,123.9835422,125.1966822,125.9960961,125.9806387,,,,,,,,,,,,,,,,,,,,,,,,,,,,,,,,,,,125.9854559,125.9960961,125.9960961,126.6804306,b,1,0.678075,None,,,,sub-158,1,2025-03-11_11h43.08.927,stroop_test,04.02.2024,60.07034235,2025-03-11 11h43.34.581619 +0100
,,,,8,8,0,,,,,,,,,,,,,blau,red,r,0,r,1,1.2820293,None,,,,,,,,,0,8,8,4,126.6955747,,,,,,,,,,,,,,,,,126.6809935,127.494529,128.2938717,128.2784947,,,,,,,,,,,,,,,,,,,,,,,,,,,,,,,,,,,128.2834171,128.2938717,128.2938717,129.5782498,r,1,1.2820293,None,,,,sub-158,1,2025-03-11_11h43.08.927,stroop_test,04.02.2024,60.07034235,2025-03-11 11h43.34.581619 +0100
,,,,9,9,0,,,,,,,,,,,,,rot,red,r,1,r,1,0.6787244,None,,,,,,,,,0,9,9,1,129.5925599,,,,,,,,,,,,,,,,,129.5787191,130.7916104,131.5911208,131.5755842,,,,,,,,,,,,,,,,,,,,,,,,,,,,,,,,,,,131.5805895,131.5911208,131.5911208,132.2755077,r,1,0.6787244,None,,,,sub-158,1,2025-03-11_11h43.08.927,stroop_test,04.02.2024,60.07034235,2025-03-11 11h43.34.581619 +0100
,,,,10,10,0,,,,,,,,,,,,,gelb,red,r,0,r,1,0.7587052,None,,,,,,,,,0,10,10,8,132.2902423,,,,,,,,,,,,,,,,,132.2760671,132.3906222,133.1895198,133.1740891,,,,,,,,,,,,,,,,,,,,,,,,,,,,,,,,,,,133.1784259,133.1895198,133.1895198,133.9576314,r,1,0.7587052,None,,,,sub-158,1,2025-03-11_11h43.08.927,stroop_test,04.02.2024,60.07034235,2025-03-11 11h43.34.581619 +0100
,,,,11,11,0,,,,,,,,,,,,,blau,yellow,g,0,g,1,0.9548202,None,,,,,,,,,0,11,11,7,133.9723572,,,,,,,,,,,,,,,,,133.9581983,134.0722918,134.8718573,134.8556961,,,,,,,,,,,,,,,,,,,,,,,,,,,,,,,,,,,134.8612185,134.8718573,134.8718573,135.8390122,g,1,0.9548202,None,,,,sub-158,1,2025-03-11_11h43.08.927,stroop_test,04.02.2024,60.07034235,2025-03-11 11h43.34.581619 +0100
,,,,12,0,1,,,,,,,,,,,,,blau,blue,b,1,b,1,1.1553235,None,,,,,,,,,1,0,12,5,135.8539047,,,,,,,,,,,,,,,,,135.8395702,136.6535586,137.469056,137.4534049,,,,,,,,,,,,,,,,,,,,,,,,,,,,,,,,,,,137.4541674,137.469056,137.469056,138.6367025,b,1,1.1553235,None,,,,sub-158,1,2025-03-11_11h43.08.927,stroop_test,04.02.2024,60.07034235,2025-03-11 11h43.34.581619 +0100
,,,,13,1,1,,,,,,,,,,,,,rot,blue,b,0,b,1,1.446515,None,,,,,,,,,1,1,13,2,138.6517073,,,,,,,,,,,,,,,,,138.6372657,139.0009872,139.8003811,139.7847546,,,,,,,,,,,,,,,,,,,,,,,,,,,,,,,,,,,139.7895709,139.8003811,139.8003811,141.2509605,b,1,1.446515,None,,,,sub-158,1,2025-03-11_11h43.08.927,stroop_test,04.02.2024,60.07034235,2025-03-11 11h43.34.581619 +0100
,,,,14,2,1,,,,,,,,,,,,,gelb,blue,b,0,b,1,1.025294,None,,,,,,,,,1,2,14,9,141.2657331,,,,,,,,,,,,,,,,,141.2515305,141.6153969,142.4147093,142.3994157,,,,,,,,,,,,,,,,,,,,,,,,,,,,,,,,,,,142.4037404,142.4147093,142.4147093,143.4492196,b,1,1.025294,None,,,,sub-158,1,2025-03-11_11h43.08.927,stroop_test,04.02.2024,60.07034235,2025-03-11 11h43.34.581619 +0100
,,,,15,3,1,,,,,,,,,,,,,rot,red,r,1,r,1,0.9302028,None,,,,,,,,,1,3,15,1,143.4638414,,,,,,,,,,,,,,,,,143.4497862,143.813924,144.6298564,144.6139014,,,,,,,,,,,,,,,,,,,,,,,,,,,,,,,,,,,144.6187623,144.6298564,144.6298564,145.563121,r,1,0.9302028,None,,,,sub-158,1,2025-03-11_11h43.08.927,stroop_test,04.02.2024,60.07034235,2025-03-11 11h43.34.581619 +0100
,,,,16,4,1,,,,,,,,,,,,,gelb,yellow,g,1,g,1,0.647727,None,,,,,,,,,1,4,16,10,145.5783513,,,,,,,,,,,,,,,,,145.563512,145.6789023,146.4949688,146.478823,,,,,,,,,,,,,,,,,,,,,,,,,,,,,,,,,,,146.483174,146.4949688,146.4949688,147.1458312,g,1,0.647727,None,,,,sub-158,1,2025-03-11_11h43.08.927,stroop_test,04.02.2024,60.07034235,2025-03-11 11h43.34.581619 +0100
,,,,17,5,1,,,,,,,,,,,,,rot,yellow,g,0,g,1,2.4567934,None,,,,,,,,,1,5,17,3,147.1608257,,,,,,,,,,,,,,,,,147.1463912,148.3594248,149.1588269,149.1430858,,,,,,,,,,,,,,,,,,,,,,,,,,,,,,,,,,,149.1478921,149.1588269,149.1588269,151.6251266,g,1,2.4567934,None,,,,sub-158,1,2025-03-11_11h43.08.927,stroop_test,04.02.2024,60.07034235,2025-03-11 11h43.34.581619 +0100
,,,,18,6,1,,,,,,,,,,,,,blau,blue,b,1,b,1,0.6265057,None,,,,,,,,,1,6,18,6,151.6407649,,,,,,,,,,,,,,,,,151.6256895,151.7397214,152.5395102,152.5234877,,,,,,,,,,,,,,,,,,,,,,,,,,,,,,,,,,,152.5291246,152.5395102,152.5395102,153.1740032,b,1,0.6265057,None,,,,sub-158,1,2025-03-11_11h43.08.927,stroop_test,04.02.2024,60.07034235,2025-03-11 11h43.34.581619 +0100
,,,,19,7,1,,,,,,,,,,,,,gelb,yellow,g,1,b,0,0.8163254,None,,,,,,,,,1,7,19,11,153.1887666,,,,,,,,,,,,,,,,,153.1745687,153.2884241,154.0877509,154.0719631,,,,,,,,,,,,,,,,,,,,,,,,,,,,,,,,,,,154.0763392,154.0877509,154.0877509,154.9065106,b,0,0.8163254,None,,,,sub-158,1,2025-03-11_11h43.08.927,stroop_test,04.02.2024,60.07034235,2025-03-11 11h43.34.581619 +0100
,,,,20,8,1,,,,,,,,,,,,,rot,red,r,1,r,1,0.4411404,None,,,,,,,,,1,8,20,0,154.9206792,,,,,,,,,,,,,,,,,154.9070821,155.02069,155.8362246,155.8204607,,,,,,,,,,,,,,,,,,,,,,,,,,,,,,,,,,,155.8254746,155.8362246,155.8362246,156.2874614,r,1,0.4411404,None,,,,sub-158,1,2025-03-11_11h43.08.927,stroop_test,04.02.2024,60.07034235,2025-03-11 11h43.34.581619 +0100
,,,,21,9,1,,,,,,,,,,,,,blau,yellow,g,0,g,1,0.4609122,None,,,,,,,,,1,9,21,7,156.302353,,,,,,,,,,,,,,,,,156.2880357,156.40235,157.2016579,157.1865127,,,,,,,,,,,,,,,,,,,,,,,,,,,,,,,,,,,157.1912873,157.2016579,157.2016579,157.6698076,g,1,0.4609122,None,,,,sub-158,1,2025-03-11_11h43.08.927,stroop_test,04.02.2024,60.07034235,2025-03-11 11h43.34.581619 +0100
,,,,22,10,1,,,,,,,,,,,,,gelb,red,r,0,r,1,1.4169646,None,,,,,,,,,1,10,22,8,157.6844441,,,,,,,,,,,,,,,,,157.6703647,158.0342619,158.8337463,158.8179209,,,,,,,,,,,,,,,,,,,,,,,,,,,,,,,,,,,158.8222196,158.8337463,158.8337463,160.2677809,r,1,1.4169646,None,,,,sub-158,1,2025-03-11_11h43.08.927,stroop_test,04.02.2024,60.07034235,2025-03-11 11h43.34.581619 +0100
,,,,23,11,1,,,,,,,,,,,,,blau,red,r,0,b,0,0.9004581,None,,,,,,,,,1,11,23,4,160.2822868,,,,,,,,,,,,,,,,,160.2685913,160.3821883,161.1814953,161.1662,,,,,,,,,,,,,,,,,,,,,,,,,,,,,,,,,,,161.1709644,161.1814953,161.1814953,162.0992996,b,0,0.9004581,None,,,,sub-158,1,2025-03-11_11h43.08.927,stroop_test,04.02.2024,60.07034235,2025-03-11 11h43.34.581619 +0100
,,,,24,0,2,,,,,,,,,,,,,blau,blue,b,1,b,1,0.785059,None,,,,,,,,,2,0,24,5,162.1141538,,,,,,,,,,,,,,,,,162.0998702,162.9136191,163.7132016,163.6969148,,,,,,,,,,,,,,,,,,,,,,,,,,,,,,,,,,,163.6976795,163.7132016,163.7132016,164.5137843,b,1,0.785059,None,,,,sub-158,1,2025-03-11_11h43.08.927,stroop_test,04.02.2024,60.07034235,2025-03-11 11h43.34.581619 +0100
,,,,25,1,2,,,,,,,,,,,,,rot,yellow,g,0,g,1,1.333644,None,,,,,,,,,2,1,25,3,164.5286202,,,,,,,,,,,,,,,,,164.5143723,164.6284353,165.4280188,165.4121844,,,,,,,,,,,,,,,,,,,,,,,,,,,,,,,,,,,165.4178668,165.4280188,165.4280188,166.7789396,g,1,1.333644,None,,,,sub-158,1,2025-03-11_11h43.08.927,stroop_test,04.02.2024,60.07034235,2025-03-11 11h43.34.581619 +0100
,,,,26,2,2,,,,,,,,,,,,,gelb,yellow,g,1,g,1,0.6364672,None,,,,,,,,,2,2,26,10,166.7932165,,,,,,,,,,,,,,,,,166.7795053,167.5928182,168.3917783,168.3762301,,,,,,,,,,,,,,,,,,,,,,,,,,,,,,,,,,,168.3805192,168.3917783,168.3917783,169.0430511,g,1,0.6364672,None,,,,sub-158,1,2025-03-11_11h43.08.927,stroop_test,04.02.2024,60.07034235,2025-03-11 11h43.34.581619 +0100
,,,,27,3,2,,,,,,,,,,,,,rot,blue,b,0,r,0,0.9078993,None,,,,,,,,,2,3,27,2,169.0579942,,,,,,,,,,,,,,,,,169.0436122,169.4078555,170.2072511,170.1915061,,,,,,,,,,,,,,,,,,,,,,,,,,,,,,,,,,,170.1965598,170.2072511,170.2072511,171.1246369,r,0,0.9078993,None,,,,sub-158,1,2025-03-11_11h43.08.927,stroop_test,04.02.2024,60.07034235,2025-03-11 11h43.34.581619 +0100
,,,,28,4,2,,,,,,,,,,,,,rot,red,r,1,r,1,0.6735686,None,,,,,,,,,2,4,28,1,171.1396783,,,,,,,,,,,,,,,,,171.1251935,172.3382863,173.1375941,173.1228147,,,,,,,,,,,,,,,,,,,,,,,,,,,,,,,,,,,173.1236856,173.1375941,173.1375941,173.8223357,r,1,0.6735686,None,,,,sub-158,1,2025-03-11_11h43.08.927,stroop_test,04.02.2024,60.07034235,2025-03-11 11h43.34.581619 +0100
,,,,29,5,2,,,,,,,,,,,,,gelb,yellow,g,1,g,1,0.6070162,None,,,,,,,,,2,5,29,11,173.8372513,,,,,,,,,,,,,,,,,173.8228957,174.6362372,175.4356838,175.4202011,,,,,,,,,,,,,,,,,,,,,,,,,,,,,,,,,,,175.4244691,175.4356838,175.4356838,176.0535236,g,1,0.6070162,None,,,,sub-158,1,2025-03-11_11h43.08.927,stroop_test,04.02.2024,60.07034235,2025-03-11 11h43.34.581619 +0100
,,,,30,6,2,,,,,,,,,,,,,blau,yellow,g,0,g,1,1.0043019,None,,,,,,,,,2,6,30,7,176.0682709,,,,,,,,,,,,,,,,,176.0540896,176.1683457,176.9675739,176.9520698,,,,,,,,,,,,,,,,,,,,,,,,,,,,,,,,,,,176.956823,176.9675739,176.9675739,177.9850096,g,1,1.0043019,None,,,,sub-158,1,2025-03-11_11h43.08.927,stroop_test,04.02.2024,60.07034235,2025-03-11 11h43.34.581619 +0100
,,,,31,7,2,,,,,,,,,,,,,gelb,red,r,0,r,1,1.4369475,None,,,,,,,,,2,7,31,8,177.9998627,,,,,,,,,,,,,,,,,177.9855681,179.1988274,179.9982917,179.9825749,,,,,,,,,,,,,,,,,,,,,,,,,,,,,,,,,,,179.9868627,179.9982917,179.9982917,181.4487648,r,1,1.4369475,None,,,,sub-158,1,2025-03-11_11h43.08.927,stroop_test,04.02.2024,60.07034235,2025-03-11 11h43.34.581619 +0100
,,,,32,8,2,,,,,,,,,,,,,blau,red,r,0,r,1,1.1502374,None,,,,,,,,,2,8,32,4,181.4637076,,,,,,,,,,,,,,,,,181.4493377,182.6626125,183.4754966,183.4467465,,,,,,,,,,,,,,,,,,,,,,,,,,,,,,,,,,,183.4522535,183.4754966,183.4754966,184.6428664,r,1,1.1502374,None,,,,sub-158,1,2025-03-11_11h43.08.927,stroop_test,04.02.2024,60.07034235,2025-03-11 11h43.34.581619 +0100
,,,,33,9,2,,,,,,,,,,,,,gelb,blue,b,0,b,1,1.0455356,None,,,,,,,,,2,9,33,9,184.6577572,,,,,,,,,,,,,,,,,184.6434328,184.7576801,185.5574554,185.5413892,,,,,,,,,,,,,,,,,,,,,,,,,,,,,,,,,,,185.5456447,185.5574554,185.5574554,186.607915,b,1,1.0455356,None,,,,sub-158,1,2025-03-11_11h43.08.927,stroop_test,04.02.2024,60.07034235,2025-03-11 11h43.34.581619 +0100
,,,,34,10,2,,,,,,,,,,,,,rot,red,r,1,r,1,0.8309086,None,,,,,,,,,2,10,34,0,186.6228752,,,,,,,,,,,,,,,,,186.6084721,187.8218814,188.620739,188.6053562,,,,,,,,,,,,,,,,,,,,,,,,,,,,,,,,,,,188.6102833,188.620739,188.620739,189.4562667,r,1,0.8309086,None,,,,sub-158,1,2025-03-11_11h43.08.927,stroop_test,04.02.2024,60.07034235,2025-03-11 11h43.34.581619 +0100
,,,,35,11,2,,,,,,,,,,,,,blau,blue,b,1,b,1,0.8581673,None,,,,,,,,,2,11,35,6,189.4701924,,,,,,,,,,,,,,,,,189.4568368,190.6691707,191.4685795,191.4529171,,,,,,,,,,,,,,,,,,,,,,,,,,,,,,,,,,,191.4576385,191.4685795,191.4685795,192.3362537,b,1,0.8581673,None,,,,sub-158,1,2025-03-11_11h43.08.927,stroop_test,04.02.2024,60.07034235,2025-03-11 11h43.34.581619 +0100
,,,,36,0,3,,,,,,,,,,,,,blau,red,r,0,r,1,0.8384057,None,,,,,,,,,3,0,36,4,192.3510425,,,,,,,,,,,,,,,,,192.3368214,192.7008495,193.4999705,193.4844415,,,,,,,,,,,,,,,,,,,,,,,,,,,,,,,,,,,193.4852044,193.4999705,193.4999705,194.35097,r,1,0.8384057,None,,,,sub-158,1,2025-03-11_11h43.08.927,stroop_test,04.02.2024,60.07034235,2025-03-11 11h43.34.581619 +0100
,,,,37,1,3,,,,,,,,,,,,,blau,yellow,g,0,b,0,0.7092023,None,,,,,,,,,3,1,37,7,194.3662208,,,,,,,,,,,,,,,,,194.3515318,195.1651861,195.9644368,195.949246,,,,,,,,,,,,,,,,,,,,,,,,,,,,,,,,,,,195.9505097,195.9644368,195.9644368,196.6822829,b,0,0.7092023,None,,,,sub-158,1,2025-03-11_11h43.08.927,stroop_test,04.02.2024,60.07034235,2025-03-11 11h43.34.581619 +0100
,,,,38,2,3,,,,,,,,,,,,,gelb,blue,b,0,b,1,1.1298543,None,,,,,,,,,3,2,38,9,196.6973667,,,,,,,,,,,,,,,,,196.6828524,196.7971018,197.5963775,197.5807249,,,,,,,,,,,,,,,,,,,,,,,,,,,,,,,,,,,197.5850927,197.5963775,197.5963775,198.7307743,b,1,1.1298543,None,,,,sub-158,1,2025-03-11_11h43.08.927,stroop_test,04.02.2024,60.07034235,2025-03-11 11h43.34.581619 +0100
,,,,39,3,3,,,,,,,,,,,,,rot,red,r,1,r,1,0.737896,None,,,,,,,,,3,3,39,1,198.7457405,,,,,,,,,,,,,,,,,198.7313406,199.9443438,200.7438593,200.7278685,,,,,,,,,,,,,,,,,,,,,,,,,,,,,,,,,,,200.7326972,200.7438593,200.7438593,201.4947239,r,1,0.737896,None,,,,sub-158,1,2025-03-11_11h43.08.927,stroop_test,04.02.2024,60.07034235,2025-03-11 11h43.34.581619 +0100
,,,,40,4,3,,,,,,,,,,,,,gelb,yellow,g,1,g,1,0.5490636,None,,,,,,,,,3,4,40,11,201.5097346,,,,,,,,,,,,,,,,,201.4952861,202.7085041,203.5082028,203.4921697,,,,,,,,,,,,,,,,,,,,,,,,,,,,,,,,,,,203.4973554,203.5082028,203.5082028,204.0592651,g,1,0.5490636,None,,,,sub-158,1,2025-03-11_11h43.08.927,stroop_test,04.02.2024,60.07034235,2025-03-11 11h43.34.581619 +0100
,,,,41,5,3,,,,,,,,,,,,,gelb,yellow,g,1,g,1,0.5469576,None,,,,,,,,,3,5,41,10,204.0741768,,,,,,,,,,,,,,,,,204.0598324,204.4236719,205.2229859,205.2074136,,,,,,,,,,,,,,,,,,,,,,,,,,,,,,,,,,,205.2081819,205.2229859,205.2229859,205.7745503,g,1,0.5469576,None,,,,sub-158,1,2025-03-11_11h43.08.927,stroop_test,04.02.2024,60.07034235,2025-03-11 11h43.34.581619 +0100
,,,,42,6,3,,,,,,,,,,,,,blau,blue,b,1,b,1,0.5456002,None,,,,,,,,,3,6,42,6,205.7895045,,,,,,,,,,,,,,,,,205.7751085,206.1387995,206.9384273,206.9224614,,,,,,,,,,,,,,,,,,,,,,,,,,,,,,,,,,,206.9272174,206.9384273,206.9384273,207.4893562,b,1,0.5456002,None,,,,sub-158,1,2025-03-11_11h43.08.927,stroop_test,04.02.2024,60.07034235,2025-03-11 11h43.34.581619 +0100
,,,,43,7,3,,,,,,,,,,,,,rot,red,r,1,r,1,1.3929058,None,,,,,,,,,3,7,43,0,207.5042374,,,,,,,,,,,,,,,,,207.4899236,208.7036462,209.5192334,209.5035217,,,,,,,,,,,,,,,,,,,,,,,,,,,,,,,,,,,209.5082863,209.5192334,209.5192334,210.9198322,r,1,1.3929058,None,,,,sub-158,1,2025-03-11_11h43.08.927,stroop_test,04.02.2024,60.07034235,2025-03-11 11h43.34.581619 +0100
,,,,44,8,3,,,,,,,,,,,,,gelb,red,r,0,r,1,1.1896874,None,,,,,,,,,3,8,44,8,210.9346918,,,,,,,,,,,,,,,,,210.9204013,211.0344727,211.8338364,211.8181803,,,,,,,,,,,,,,,,,,,,,,,,,,,,,,,,,,,211.8225137,211.8338364,211.8338364,213.0350331,r,1,1.1896874,None,,,,sub-158,1,2025-03-11_11h43.08.927,stroop_test,04.02.2024,60.07034235,2025-03-11 11h43.34.581619 +0100
,,,,45,9,3,,,,,,,,,,,,,rot,blue,b,0,g,0,1.4088994,None,,,,,,,,,3,9,45,2,213.0494319,,,,,,,,,,,,,,,,,213.0355831,214.2483542,215.0478088,215.0321061,,,,,,,,,,,,,,,,,,,,,,,,,,,,,,,,,,,215.0369691,215.0478088,215.0478088,216.4649373,g,0,1.4088994,None,,,,sub-158,1,2025-03-11_11h43.08.927,stroop_test,04.02.2024,60.07034235,2025-03-11 11h43.34.581619 +0100
,,,,46,10,3,,,,,,,,,,,,,rot,yellow,g,0,g,1,1.3273346,None,,,,,,,,,3,10,46,3,216.4807431,,,,,,,,,,,,,,,,,216.4654961,217.6786549,218.4779085,218.4623572,,,,,,,,,,,,,,,,,,,,,,,,,,,,,,,,,,,218.4631262,218.4779085,218.4779085,219.8119453,g,1,1.3273346,None,,,,sub-158,1,2025-03-11_11h43.08.927,stroop_test,04.02.2024,60.07034235,2025-03-11 11h43.34.581619 +0100
,,,,47,11,3,,,,,,,,,,,,,blau,blue,b,1,b,1,0.6443462,None,,,,,,,,,3,11,47,5,219.8269214,,,,,,,,,,,,,,,,,219.8125463,220.1764001,220.9758691,220.9604108,,,,,,,,,,,,,,,,,,,,,,,,,,,,,,,,,,,220.9651936,220.9758691,220.9758691,221.6269076,b,1,0.6443462,None,,,,sub-158,1,2025-03-11_11h43.08.927,stroop_test,04.02.2024,60.07034235,2025-03-11 11h43.34.581619 +0100
,,,,48,0,4,,,,,,,,,,,,,gelb,red,r,0,r,1,1.0419167,None,,,,,,,,,4,0,48,8,221.6419374,,,,,,,,,,,,,,,,,221.6274629,221.9915677,222.7910577,222.7754545,,,,,,,,,,,,,,,,,,,,,,,,,,,,,,,,,,,222.7805624,222.7910577,222.7910577,223.8417496,r,1,1.0419167,None,,,,sub-158,1,2025-03-11_11h43.08.927,stroop_test,04.02.2024,60.07034235,2025-03-11 11h43.34.581619 +0100
,,,,49,1,4,,,,,,,,,,,,,gelb,yellow,g,1,g,1,0.7577365,None,,,,,,,,,4,1,49,10,223.8569102,,,,,,,,,,,,,,,,,223.8423053,224.6554,225.4553283,225.4394579,,,,,,,,,,,,,,,,,,,,,,,,,,,,,,,,,,,225.4402193,225.4553283,225.4553283,226.2228108,g,1,0.7577365,None,,,,sub-158,1,2025-03-11_11h43.08.927,stroop_test,04.02.2024,60.07034235,2025-03-11 11h43.34.581619 +0100
,,,,50,2,4,,,,,,,,,,,,,blau,yellow,g,0,g,1,1.0779975,None,,,,,,,,,4,2,50,7,226.23801,,,,,,,,,,,,,,,,,226.2233907,227.0370407,227.8366569,227.8212152,,,,,,,,,,,,,,,,,,,,,,,,,,,,,,,,,,,227.8260724,227.8366569,227.8366569,228.9205414,g,1,1.0779975,None,,,,sub-158,1,2025-03-11_11h43.08.927,stroop_test,04.02.2024,60.07034235,2025-03-11 11h43.34.581619 +0100
,,,,51,3,4,,,,,,,,,,,,,blau,red,r,0,r,1,1.0216177,None,,,,,,,,,4,3,51,4,228.9354315,,,,,,,,,,,,,,,,,228.9211007,230.1344462,230.9335551,230.9182889,,,,,,,,,,,,,,,,,,,,,,,,,,,,,,,,,,,230.9190444,230.9335551,230.9335551,231.9682182,r,1,1.0216177,None,,,,sub-158,1,2025-03-11_11h43.08.927,stroop_test,04.02.2024,60.07034235,2025-03-11 11h43.34.581619 +0100
,,,,52,4,4,,,,,,,,,,,,,blau,blue,b,1,b,1,1.1150829,None,,,,,,,,,4,4,52,6,231.9829054,,,,,,,,,,,,,,,,,231.9687886,232.7822707,233.583065,233.5657184,,,,,,,,,,,,,,,,,,,,,,,,,,,,,,,,,,,233.5664653,233.583065,233.583065,234.7002187,b,1,1.1150829,None,,,,sub-158,1,2025-03-11_11h43.08.927,stroop_test,04.02.2024,60.07034235,2025-03-11 11h43.34.581619 +0100
,,,,53,5,4,,,,,,,,,,,,,blau,blue,b,1,b,1,0.6878198,None,,,,,,,,,4,5,53,5,234.7141583,,,,,,,,,,,,,,,,,234.7007762,235.0632284,235.862744,235.8469552,,,,,,,,,,,,,,,,,,,,,,,,,,,,,,,,,,,235.8476993,235.862744,235.862744,236.5640076,b,1,0.6878198,None,,,,sub-158,1,2025-03-11_11h43.08.927,stroop_test,04.02.2024,60.07034235,2025-03-11 11h43.34.581619 +0100
,,,,54,6,4,,,,,,,,,,,,,gelb,blue,b,0,b,1,1.0884501,None,,,,,,,,,4,6,54,9,236.5786273,,,,,,,,,,,,,,,,,236.5645676,236.67867,237.4778975,237.4621886,,,,,,,,,,,,,,,,,,,,,,,,,,,,,,,,,,,237.4665271,237.4778975,237.4778975,238.5787336,b,1,1.0884501,None,,,,sub-158,1,2025-03-11_11h43.08.927,stroop_test,04.02.2024,60.07034235,2025-03-11 11h43.34.581619 +0100
,,,,55,7,4,,,,,,,,,,,,,rot,yellow,g,0,g,1,1.0868971,None,,,,,,,,,4,7,55,3,238.5942267,,,,,,,,,,,,,,,,,238.5792836,238.6934732,239.4930499,239.4774527,,,,,,,,,,,,,,,,,,,,,,,,,,,,,,,,,,,239.4825851,239.4930499,239.4930499,240.5936827,g,1,1.0868971,None,,,,sub-158,1,2025-03-11_11h43.08.927,stroop_test,04.02.2024,60.07034235,2025-03-11 11h43.34.581619 +0100
,,,,56,8,4,,,,,,,,,,,,,rot,blue,b,0,b,1,1.0993406,None,,,,,,,,,4,8,56,2,240.6083398,,,,,,,,,,,,,,,,,240.5942772,240.9580912,241.757421,241.7421554,,,,,,,,,,,,,,,,,,,,,,,,,,,,,,,,,,,241.7429274,241.757421,241.757421,242.8589886,b,1,1.0993406,None,,,,sub-158,1,2025-03-11_11h43.08.927,stroop_test,04.02.2024,60.07034235,2025-03-11 11h43.34.581619 +0100
,,,,57,9,4,,,,,,,,,,,,,gelb,yellow,g,1,g,1,0.6381972,None,,,,,,,,,4,9,57,11,242.8731761,,,,,,,,,,,,,,,,,242.8595582,242.9730517,243.77235,243.7571102,,,,,,,,,,,,,,,,,,,,,,,,,,,,,,,,,,,243.7613912,243.77235,243.77235,244.4234453,g,1,0.6381972,None,,,,sub-158,1,2025-03-11_11h43.08.927,stroop_test,04.02.2024,60.07034235,2025-03-11 11h43.34.581619 +0100
,,,,58,10,4,,,,,,,,,,,,,rot,red,r,1,r,1,0.899918,None,,,,,,,,,4,10,58,1,244.4386329,,,,,,,,,,,,,,,,,244.4240039,245.2379906,246.0537097,246.0384994,,,,,,,,,,,,,,,,,,,,,,,,,,,,,,,,,,,246.0441837,246.0537097,246.0537097,246.9711087,r,1,0.899918,None,,,,sub-158,1,2025-03-11_11h43.08.927,stroop_test,04.02.2024,60.07034235,2025-03-11 11h43.34.581619 +0100
,,,,59,11,4,,,,,,,,,,,,,rot,red,r,1,r,1,1.4556916,None,,,,,,,,,4,11,59,0,246.9867295,,,,,,,,,,,,,,,,,246.971666,247.7854188,248.5848521,248.5691477,,,,,,,,,,,,,,,,,,,,,,,,,,,,,,,,,,,248.5699054,248.5848521,248.5848521,250.0518314,r,1,1.4556916,None,,,,sub-158,1,2025-03-11_11h43.08.927,stroop_test,04.02.2024,60.07034235,2025-03-11 11h43.34.581619 +0100
,,,,60,0,5,,,,,,,,,,,,,gelb,yellow,g,1,g,1,0.7423401,None,,,,,,,,,5,0,60,10,250.0668585,,,,,,,,,,,,,,,,,250.0523873,250.8660491,251.665281,251.6497134,,,,,,,,,,,,,,,,,,,,,,,,,,,,,,,,,,,251.6539643,251.665281,251.665281,252.4167453,g,1,0.7423401,None,,,,sub-158,1,2025-03-11_11h43.08.927,stroop_test,04.02.2024,60.07034235,2025-03-11 11h43.34.581619 +0100
,,,,61,1,5,,,,,,,,,,,,,gelb,yellow,g,1,g,1,0.6352142,None,,,,,,,,,5,1,61,11,252.4313703,,,,,,,,,,,,,,,,,252.417295,253.2305484,254.0297164,254.0141232,,,,,,,,,,,,,,,,,,,,,,,,,,,,,,,,,,,254.0148892,254.0297164,254.0297164,254.6810738,g,1,0.6352142,None,,,,sub-158,1,2025-03-11_11h43.08.927,stroop_test,04.02.2024,60.07034235,2025-03-11 11h43.34.581619 +0100
,,,,62,2,5,,,,,,,,,,,,,rot,yellow,g,0,g,1,0.9663671,None,,,,,,,,,5,2,62,3,254.696014,,,,,,,,,,,,,,,,,254.681638,255.4952512,256.2946806,256.2789308,,,,,,,,,,,,,,,,,,,,,,,,,,,,,,,,,,,256.2837149,256.2946806,256.2946806,257.2636703,g,1,0.9663671,None,,,,sub-158,1,2025-03-11_11h43.08.927,stroop_test,04.02.2024,60.07034235,2025-03-11 11h43.34.581619 +0100
,,,,63,3,5,,,,,,,,,,,,,blau,yellow,g,0,g,1,0.8181338,None,,,,,,,,,5,3,63,7,257.2771631,,,,,,,,,,,,,,,,,257.2642274,257.626788,258.4263353,258.4104515,,,,,,,,,,,,,,,,,,,,,,,,,,,,,,,,,,,258.4151867,258.4263353,258.4263353,259.2602942,g,1,0.8181338,None,,,,sub-158,1,2025-03-11_11h43.08.927,stroop_test,04.02.2024,60.07034235,2025-03-11 11h43.34.581619 +0100
,,,,64,4,5,,,,,,,,,,,,,rot,red,r,1,r,1,0.7299587,None,,,,,,,,,5,4,64,1,259.2752759,,,,,,,,,,,,,,,,,259.260857,259.3754792,260.1746725,260.1593041,,,,,,,,,,,,,,,,,,,,,,,,,,,,,,,,,,,260.1641792,260.1746725,260.1746725,260.9091814,r,1,0.7299587,None,,,,sub-158,1,2025-03-11_11h43.08.927,stroop_test,04.02.2024,60.07034235,2025-03-11 11h43.34.581619 +0100
,,,,65,5,5,,,,,,,,,,,,,gelb,red,r,0,r,1,0.8558247,None,,,,,,,,,5,5,65,8,260.9238067,,,,,,,,,,,,,,,,,260.9097463,262.1226677,262.9221234,262.9063848,,,,,,,,,,,,,,,,,,,,,,,,,,,,,,,,,,,262.9107048,262.9221234,262.9221234,263.7902109,r,1,0.8558247,None,,,,sub-158,1,2025-03-11_11h43.08.927,stroop_test,04.02.2024,60.07034235,2025-03-11 11h43.34.581619 +0100
,,,,66,6,5,,,,,,,,,,,,,rot,red,r,1,r,1,0.7375705,None,,,,,,,,,5,6,66,0,263.8045382,,,,,,,,,,,,,,,,,263.7907674,264.6040729,265.4046231,265.3877635,,,,,,,,,,,,,,,,,,,,,,,,,,,,,,,,,,,265.3933446,265.4046231,265.4046231,266.1543843,r,1,0.7375705,None,,,,sub-158,1,2025-03-11_11h43.08.927,stroop_test,04.02.2024,60.07034235,2025-03-11 11h43.34.581619 +0100
,,,,67,7,5,,,,,,,,,,,,,blau,red,r,0,r,1,0.8918348,None,,,,,,,,,5,7,67,4,266.1691491,,,,,,,,,,,,,,,,,266.1549376,266.518839,267.318353,267.3025071,,,,,,,,,,,,,,,,,,,,,,,,,,,,,,,,,,,267.3073141,267.318353,267.318353,268.2190928,r,1,0.8918348,None,,,,sub-158,1,2025-03-11_11h43.08.927,stroop_test,04.02.2024,60.07034235,2025-03-11 11h43.34.581619 +0100
,,,,68,8,5,,,,,,,,,,,,,blau,blue,b,1,b,1,0.6475213,None,,,,,,,,,5,8,68,5,268.2339951,,,,,,,,,,,,,,,,,268.2196459,268.583892,269.3829727,269.3674039,,,,,,,,,,,,,,,,,,,,,,,,,,,,,,,,,,,269.3681488,269.3829727,269.3829727,270.0343288,b,1,0.6475213,None,,,,sub-158,1,2025-03-11_11h43.08.927,stroop_test,04.02.2024,60.07034235,2025-03-11 11h43.34.581619 +0100
,,,,69,9,5,,,,,,,,,,,,,gelb,blue,b,0,b,1,0.903446,None,,,,,,,,,5,9,69,9,270.0490467,,,,,,,,,,,,,,,,,270.0348874,270.1489243,270.9491112,270.9326468,,,,,,,,,,,,,,,,,,,,,,,,,,,,,,,,,,,270.9370708,270.9491112,270.9491112,271.8660303,b,1,0.903446,None,,,,sub-158,1,2025-03-11_11h43.08.927,stroop_test,04.02.2024,60.07034235,2025-03-11 11h43.34.581619 +0100
,,,,70,10,5,,,,,,,,,,,,,blau,blue,b,1,b,1,1.0708723,None,,,,,,,,,5,10,70,6,271.8807988,,,,,,,,,,,,,,,,,271.8665824,272.2305229,273.0299834,273.0141356,,,,,,,,,,,,,,,,,,,,,,,,,,,,,,,,,,,273.018844,273.0299834,273.0299834,274.1139203,b,1,1.0708723,None,,,,sub-158,1,2025-03-11_11h43.08.927,stroop_test,04.02.2024,60.07034235,2025-03-11 11h43.34.581619 +0100
,,,,71,11,5,,,,,,,,,,,,,rot,blue,b,0,b,1,0.9157853,None,,,,,,,,,5,11,71,2,274.1288774,,,,,,,,,,,,,,,,,274.1144757,275.3280174,276.1272208,276.1115431,,,,,,,,,,,,,,,,,,,,,,,,,,,,,,,,,,,276.1163213,276.1272208,276.1272208,277.045062,b,1,0.9157853,None,,,,sub-158,1,2025-03-11_11h43.08.927,stroop_test,04.02.2024,60.07034235,2025-03-11 11h43.34.581619 +0100
,,,,72,0,6,,,,,,,,,,,,,gelb,yellow,g,1,g,1,0.87311,None,,,,,,,,,6,0,72,11,277.0596019,,,,,,,,,,,,,,,,,277.0456157,277.4092148,278.208543,278.1928883,,,,,,,,,,,,,,,,,,,,,,,,,,,,,,,,,,,278.1972181,278.208543,278.208543,279.0932739,g,1,0.87311,None,,,,sub-158,1,2025-03-11_11h43.08.927,stroop_test,04.02.2024,60.07034235,2025-03-11 11h43.34.581619 +0100
,,,,73,1,6,,,,,,,,,,,,,rot,red,r,1,r,1,0.7271973,None,,,,,,,,,6,1,73,1,279.1078305,,,,,,,,,,,,,,,,,279.0938854,280.3066709,281.1064197,281.0904153,,,,,,,,,,,,,,,,,,,,,,,,,,,,,,,,,,,281.0959916,281.1064197,281.1064197,281.8404966,r,1,0.7271973,None,,,,sub-158,1,2025-03-11_11h43.08.927,stroop_test,04.02.2024,60.07034235,2025-03-11 11h43.34.581619 +0100
,,,,74,2,6,,,,,,,,,,,,,gelb,yellow,g,1,g,1,0.5813066,None,,,,,,,,,6,2,74,10,281.8552903,,,,,,,,,,,,,,,,,281.8410524,282.6546708,283.4538815,283.4383706,,,,,,,,,,,,,,,,,,,,,,,,,,,,,,,,,,,283.4426485,283.4538815,283.4538815,284.0391452,g,1,0.5813066,None,,,,sub-158,1,2025-03-11_11h43.08.927,stroop_test,04.02.2024,60.07034235,2025-03-11 11h43.34.581619 +0100
,,,,75,3,6,,,,,,,,,,,,,blau,blue,b,1,b,1,0.8884364,None,,,,,,,,,6,3,75,6,284.0537725,,,,,,,,,,,,,,,,,284.0397053,284.1532567,284.9531475,284.936969,,,,,,,,,,,,,,,,,,,,,,,,,,,,,,,,,,,284.9419009,284.9531475,284.9531475,285.8535274,b,1,0.8884364,None,,,,sub-158,1,2025-03-11_11h43.08.927,stroop_test,04.02.2024,60.07034235,2025-03-11 11h43.34.581619 +0100
,,,,76,4,6,,,,,,,,,,,,,rot,blue,b,0,b,1,2.0120133,None,,,,,,,,,6,4,76,2,285.8688723,,,,,,,,,,,,,,,,,285.8540773,286.667766,287.4672346,287.4514007,,,,,,,,,,,,,,,,,,,,,,,,,,,,,,,,,,,287.4561854,287.4672346,287.4672346,289.48434,b,1,2.0120133,None,,,,sub-158,1,2025-03-11_11h43.08.927,stroop_test,04.02.2024,60.07034235,2025-03-11 11h43.34.581619 +0100
,,,,77,5,6,,,,,,,,,,,,,blau,blue,b,1,b,1,0.5209213,None,,,,,,,,,6,5,77,5,289.4986018,,,,,,,,,,,,,,,,,289.4849339,289.8497229,290.6643718,290.6485724,,,,,,,,,,,,,,,,,,,,,,,,,,,,,,,,,,,290.6533525,290.6643718,290.6643718,291.198801,b,1,0.5209213,None,,,,sub-158,1,2025-03-11_11h43.08.927,stroop_test,04.02.2024,60.07034235,2025-03-11 11h43.34.581619 +0100
,,,,78,6,6,,,,,,,,,,,,,gelb,red,r,0,r,1,2.0338878,None,,,,,,,,,6,6,78,8,291.213667,,,,,,,,,,,,,,,,,291.1993707,291.3136484,292.1138039,292.0981511,,,,,,,,,,,,,,,,,,,,,,,,,,,,,,,,,,,292.1026705,292.1138039,292.1138039,294.1628723,r,1,2.0338878,None,,,,sub-158,1,2025-03-11_11h43.08.927,stroop_test,04.02.2024,60.07034235,2025-03-11 11h43.34.581619 +0100
,,,,79,7,6,,,,,,,,,,,,,blau,red,r,0,r,1,1.0707633,None,,,,,,,,,6,7,79,4,294.177789,,,,,,,,,,,,,,,,,294.1634278,294.5274627,295.3270734,295.3111189,,,,,,,,,,,,,,,,,,,,,,,,,,,,,,,,,,,295.3166187,295.3270734,295.3270734,296.410857,r,1,1.0707633,None,,,,sub-158,1,2025-03-11_11h43.08.927,stroop_test,04.02.2024,60.07034235,2025-03-11 11h43.34.581619 +0100
,,,,80,8,6,,,,,,,,,,,,,rot,yellow,g,0,g,1,1.002663,None,,,,,,,,,6,8,80,3,296.4257605,,,,,,,,,,,,,,,,,296.4114131,296.5259462,297.3251683,297.3093168,,,,,,,,,,,,,,,,,,,,,,,,,,,,,,,,,,,297.3140831,297.3251683,297.3251683,298.3425537,g,1,1.002663,None,,,,sub-158,1,2025-03-11_11h43.08.927,stroop_test,04.02.2024,60.07034235,2025-03-11 11h43.34.581619 +0100
,,,,81,9,6,,,,,,,,,,,,,rot,red,r,1,r,1,0.9579952,None,,,,,,,,,6,9,81,0,298.3573843,,,,,,,,,,,,,,,,,298.3431109,298.4573453,299.2568001,299.2408467,,,,,,,,,,,,,,,,,,,,,,,,,,,,,,,,,,,299.2416245,299.2568001,299.2568001,300.2243189,r,1,0.9579952,None,,,,sub-158,1,2025-03-11_11h43.08.927,stroop_test,04.02.2024,60.07034235,2025-03-11 11h43.34.581619 +0100
,,,,82,10,6,,,,,,,,,,,,,gelb,blue,b,0,b,1,0.7593891,None,,,,,,,,,6,10,82,9,300.2395603,,,,,,,,,,,,,,,,,300.2249497,301.4384499,302.2539936,302.2383788,,,,,,,,,,,,,,,,,,,,,,,,,,,,,,,,,,,302.2426661,302.2539936,302.2539936,303.0218883,b,1,0.7593891,None,,,,sub-158,1,2025-03-11_11h43.08.927,stroop_test,04.02.2024,60.07034235,2025-03-11 11h43.34.581619 +0100
,,,,83,11,6,,,,,,,,,,,,,blau,yellow,g,0,g,1,1.1626302,None,,,,,,,,,6,11,83,7,303.0366503,,,,,,,,,,,,,,,,,303.0224464,304.2356573,305.0351147,305.0192381,,,,,,,,,,,,,,,,,,,,,,,,,,,,,,,,,,,305.023995,305.0351147,305.0351147,306.2024682,g,1,1.1626302,None,,,,sub-158,1,2025-03-11_11h43.08.927,stroop_test,04.02.2024,60.07034235,2025-03-11 11h43.34.581619 +0100
,,,,84,0,7,,,,,,,,,,,,,gelb,red,r,0,r,1,0.908128,None,,,,,,,,,7,0,84,8,306.2171002,,,,,,,,,,,,,,,,,306.2030428,306.5668325,307.366367,307.3505227,,,,,,,,,,,,,,,,,,,,,,,,,,,,,,,,,,,307.354888,307.366367,307.366367,308.2850053,r,1,0.908128,None,,,,sub-158,1,2025-03-11_11h43.08.927,stroop_test,04.02.2024,60.07034235,2025-03-11 11h43.34.581619 +0100
,,,,85,1,7,,,,,,,,,,,,,gelb,yellow,g,1,g,1,0.6335823,None,,,,,,,,,7,1,85,11,308.2986159,,,,,,,,,,,,,,,,,308.2858902,308.3985187,309.1980959,309.182226,,,,,,,,,,,,,,,,,,,,,,,,,,,,,,,,,,,309.1829872,309.1980959,309.1980959,309.848957,g,1,0.6335823,None,,,,sub-158,1,2025-03-11_11h43.08.927,stroop_test,04.02.2024,60.07034235,2025-03-11 11h43.34.581619 +0100
,,,,86,2,7,,,,,,,,,,,,,rot,red,r,1,r,1,0.7120233,None,,,,,,,,,7,2,86,0,309.8638708,,,,,,,,,,,,,,,,,309.8495102,309.9638293,310.7633051,310.7476014,,,,,,,,,,,,,,,,,,,,,,,,,,,,,,,,,,,310.7523612,310.7633051,310.7633051,311.4808747,r,1,0.7120233,None,,,,sub-158,1,2025-03-11_11h43.08.927,stroop_test,04.02.2024,60.07034235,2025-03-11 11h43.34.581619 +0100
,,,,87,3,7,,,,,,,,,,,,,blau,blue,b,1,b,1,0.5074927,None,,,,,,,,,7,3,87,5,311.4961397,,,,,,,,,,,,,,,,,311.4814366,311.8455273,312.6451299,312.62915,,,,,,,,,,,,,,,,,,,,,,,,,,,,,,,,,,,312.6347706,312.6451299,312.6451299,313.1630835,b,1,0.5074927,None,,,,sub-158,1,2025-03-11_11h43.08.927,stroop_test,04.02.2024,60.07034235,2025-03-11 11h43.34.581619 +0100
,,,,88,4,7,,,,,,,,,,,,,rot,red,r,1,r,1,0.6059118,None,,,,,,,,,7,4,88,1,313.1776634,,,,,,,,,,,,,,,,,313.1636377,313.9769844,314.7770507,314.7609985,,,,,,,,,,,,,,,,,,,,,,,,,,,,,,,,,,,314.7662087,314.7770507,314.7770507,315.3941925,r,1,0.6059118,None,,,,sub-158,1,2025-03-11_11h43.08.927,stroop_test,04.02.2024,60.07034235,2025-03-11 11h43.34.581619 +0100
,,,,89,5,7,,,,,,,,,,,,,rot,yellow,g,0,g,1,1.0439159,None,,,,,,,,,7,5,89,3,315.409387,,,,,,,,,,,,,,,,,315.3947528,315.5089863,316.3093991,316.2925877,,,,,,,,,,,,,,,,,,,,,,,,,,,,,,,,,,,316.2934019,316.3093991,316.3093991,317.3594718,g,1,1.0439159,None,,,,sub-158,1,2025-03-11_11h43.08.927,stroop_test,04.02.2024,60.07034235,2025-03-11 11h43.34.581619 +0100
,,,,90,6,7,,,,,,,,,,,,,rot,blue,b,0,b,1,0.7897739,None,,,,,,,,,7,6,90,2,317.3739621,,,,,,,,,,,,,,,,,317.3600789,318.1732096,318.9725933,318.9569259,,,,,,,,,,,,,,,,,,,,,,,,,,,,,,,,,,,318.9576579,318.9725933,318.9725933,319.7737034,b,1,0.7897739,None,,,,sub-158,1,2025-03-11_11h43.08.927,stroop_test,04.02.2024,60.07034235,2025-03-11 11h43.34.581619 +0100
,,,,91,7,7,,,,,,,,,,,,,gelb,blue,b,0,b,1,0.9602446,None,,,,,,,,,7,7,91,9,319.7884836,,,,,,,,,,,,,,,,,319.7742691,320.9879848,321.8033539,321.7877452,,,,,,,,,,,,,,,,,,,,,,,,,,,,,,,,,,,321.7920303,321.8033539,321.8033539,322.7711568,b,1,0.9602446,None,,,,sub-158,1,2025-03-11_11h43.08.927,stroop_test,04.02.2024,60.07034235,2025-03-11 11h43.34.581619 +0100
,,,,92,8,7,,,,,,,,,,,,,gelb,yellow,g,1,g,1,0.597707,None,,,,,,,,,7,8,92,10,322.7858751,,,,,,,,,,,,,,,,,322.7717152,323.5851673,324.3844621,324.3688733,,,,,,,,,,,,,,,,,,,,,,,,,,,,,,,,,,,324.369725,324.3844621,324.3844621,324.9858733,g,1,0.597707,None,,,,sub-158,1,2025-03-11_11h43.08.927,stroop_test,04.02.2024,60.07034235,2025-03-11 11h43.34.581619 +0100
,,,,93,9,7,,,,,,,,,,,,,blau,yellow,g,0,g,1,0.7997063,None,,,,,,,,,7,9,93,7,325.000886,,,,,,,,,,,,,,,,,324.9864311,325.3503188,326.1497034,326.133908,,,,,,,,,,,,,,,,,,,,,,,,,,,,,,,,,,,326.1386617,326.1497034,326.1497034,326.9517425,g,1,0.7997063,None,,,,sub-158,1,2025-03-11_11h43.08.927,stroop_test,04.02.2024,60.07034235,2025-03-11 11h43.34.581619 +0100
,,,,94,10,7,,,,,,,,,,,,,blau,red,r,0,r,1,1.3150667,None,,,,,,,,,7,10,94,4,326.9654643,,,,,,,,,,,,,,,,,326.9523074,327.7648118,328.5640653,328.5485628,,,,,,,,,,,,,,,,,,,,,,,,,,,,,,,,,,,328.549327,328.5640653,328.5640653,329.881642,r,1,1.3150667,None,,,,sub-158,1,2025-03-11_11h43.08.927,stroop_test,04.02.2024,60.07034235,2025-03-11 11h43.34.581619 +0100
,,,,95,11,7,,,,,,,,,,,,,blau,blue,b,1,b,1,0.7317418,None,,,,,,,,,7,11,95,6,329.8962754,,,,,,,,,,,,,,,,,329.8821967,330.6954753,331.4947922,331.4792104,,,,,,,,,,,,,,,,,,,,,,,,,,,,,,,,,,,331.4799459,331.4947922,331.4947922,332.2296368,b,1,0.7317418,None,,,,sub-158,1,2025-03-11_11h43.08.927,stroop_test,04.02.2024,60.07034235,2025-03-11 11h43.34.581619 +0100
,,,,96,0,8,,,,,,,,,,,,,blau,blue,b,1,b,1,0.6887844,None,,,,,,,,,8,0,96,6,332.2443926,,,,,,,,,,,,,,,,,332.2302045,332.5941096,333.3931876,333.3774824,,,,,,,,,,,,,,,,,,,,,,,,,,,,,,,,,,,333.3782275,333.3931876,333.3931876,334.0944574,b,1,0.6887844,None,,,,sub-158,1,2025-03-11_11h43.08.927,stroop_test,04.02.2024,60.07034235,2025-03-11 11h43.34.581619 +0100
,,,,97,1,8,,,,,,,,,,,,,blau,red,r,0,r,1,1.0676042,None,,,,,,,,,8,1,97,4,334.1095382,,,,,,,,,,,,,,,,,334.0950221,334.458887,335.2581828,335.2425459,,,,,,,,,,,,,,,,,,,,,,,,,,,,,,,,,,,335.2432983,335.2581828,335.2581828,336.3429533,r,1,1.0676042,None,,,,sub-158,1,2025-03-11_11h43.08.927,stroop_test,04.02.2024,60.07034235,2025-03-11 11h43.34.581619 +0100
,,,,98,2,8,,,,,,,,,,,,,gelb,yellow,g,1,g,1,1.4290153,None,,,,,,,,,8,2,98,11,336.3572329,,,,,,,,,,,,,,,,,336.3435189,336.4568138,337.2565302,337.2408221,,,,,,,,,,,,,,,,,,,,,,,,,,,,,,,,,,,337.2451551,337.2565302,337.2565302,338.6911989,g,1,1.4290153,None,,,,sub-158,1,2025-03-11_11h43.08.927,stroop_test,04.02.2024,60.07034235,2025-03-11 11h43.34.581619 +0100
,,,,99,3,8,,,,,,,,,,,,,blau,blue,b,1,b,1,0.6225649,None,,,,,,,,,8,3,99,5,338.7051542,,,,,,,,,,,,,,,,,338.6918053,339.9044064,340.7040391,340.6877637,,,,,,,,,,,,,,,,,,,,,,,,,,,,,,,,,,,340.6941109,340.7040391,340.7040391,341.3379151,b,1,0.6225649,None,,,,sub-158,1,2025-03-11_11h43.08.927,stroop_test,04.02.2024,60.07034235,2025-03-11 11h43.34.581619 +0100
,,,,100,4,8,,,,,,,,,,,,,rot,blue,b,0,b,1,0.7730762,None,,,,,,,,,8,4,100,2,341.3529846,,,,,,,,,,,,,,,,,341.3384732,341.4527518,342.2522051,342.2364775,,,,,,,,,,,,,,,,,,,,,,,,,,,,,,,,,,,342.2412772,342.2522051,342.2522051,343.0364326,b,1,0.7730762,None,,,,sub-158,1,2025-03-11_11h43.08.927,stroop_test,04.02.2024,60.07034235,2025-03-11 11h43.34.581619 +0100
,,,,101,5,8,,,,,,,,,,,,,rot,red,r,1,r,1,0.6206862,None,,,,,,,,,8,5,101,0,343.0516159,,,,,,,,,,,,,,,,,343.0369836,343.85055,344.6499514,344.6342519,,,,,,,,,,,,,,,,,,,,,,,,,,,,,,,,,,,344.6350085,344.6499514,344.6499514,345.2843888,r,1,0.6206862,None,,,,sub-158,1,2025-03-11_11h43.08.927,stroop_test,04.02.2024,60.07034235,2025-03-11 11h43.34.581619 +0100
,,,,102,6,8,,,,,,,,,,,,,gelb,yellow,g,1,g,1,0.7778567,None,,,,,,,,,8,6,102,10,345.2993072,,,,,,,,,,,,,,,,,345.2849557,345.3992963,346.1985834,346.1828412,,,,,,,,,,,,,,,,,,,,,,,,,,,,,,,,,,,346.1870921,346.1985834,346.1985834,346.9829885,g,1,0.7778567,None,,,,sub-158,1,2025-03-11_11h43.08.927,stroop_test,04.02.2024,60.07034235,2025-03-11 11h43.34.581619 +0100
,,,,103,7,8,,,,,,,,,,,,,gelb,blue,b,0,b,1,1.1051466,None,,,,,,,,,8,7,103,9,346.998247,,,,,,,,,,,,,,,,,346.9835852,347.3474909,348.1467847,348.1311784,,,,,,,,,,,,,,,,,,,,,,,,,,,,,,,,,,,348.1319317,348.1467847,348.1467847,349.2644783,b,1,1.1051466,None,,,,sub-158,1,2025-03-11_11h43.08.927,stroop_test,04.02.2024,60.07034235,2025-03-11 11h43.34.581619 +0100
,,,,104,8,8,,,,,,,,,,,,,blau,yellow,g,0,g,1,1.0795714,None,,,,,,,,,8,8,104,7,349.2795156,,,,,,,,,,,,,,,,,349.2650349,349.6295188,350.4449164,350.4291136,,,,,,,,,,,,,,,,,,,,,,,,,,,,,,,,,,,350.4338735,350.4449164,350.4449164,351.5289839,g,1,1.0795714,None,,,,sub-158,1,2025-03-11_11h43.08.927,stroop_test,04.02.2024,60.07034235,2025-03-11 11h43.34.581619 +0100
,,,,105,9,8,,,,,,,,,,,,,rot,red,r,1,r,1,0.5479979,None,,,,,,,,,8,9,105,1,351.5442686,,,,,,,,,,,,,,,,,351.5295322,352.3431986,353.1427172,353.1267076,,,,,,,,,,,,,,,,,,,,,,,,,,,,,,,,,,,353.1314559,353.1427172,353.1427172,353.6937894,r,1,0.5479979,None,,,,sub-158,1,2025-03-11_11h43.08.927,stroop_test,04.02.2024,60.07034235,2025-03-11 11h43.34.581619 +0100
,,,,106,10,8,,,,,,,,,,,,,rot,yellow,g,0,g,1,1.0320617,None,,,,,,,,,8,10,106,3,353.7085325,,,,,,,,,,,,,,,,,353.6943498,354.9075122,355.706773,355.6915023,,,,,,,,,,,,,,,,,,,,,,,,,,,,,,,,,,,355.6922729,355.706773,355.706773,356.7413642,g,1,1.0320617,None,,,,sub-158,1,2025-03-11_11h43.08.927,stroop_test,04.02.2024,60.07034235,2025-03-11 11h43.34.581619 +0100
,,,,107,11,8,,,,,,,,,,,,,gelb,red,r,0,r,1,0.690594,None,,,,,,,,,8,11,107,8,356.7559475,,,,,,,,,,,,,,,,,356.7419226,356.8560945,357.655572,357.6396093,,,,,,,,,,,,,,,,,,,,,,,,,,,,,,,,,,,357.6439135,357.655572,357.655572,358.356942,r,1,0.690594,None,,,,sub-158,1,2025-03-11_11h43.08.927,stroop_test,04.02.2024,60.07034235,2025-03-11 11h43.34.581619 +0100
,,,,108,0,9,,,,,,,,,,,,,blau,blue,b,1,b,1,0.5233922,None,,,,,,,,,9,0,108,5,358.3710906,,,,,,,,,,,,,,,,,358.3575003,358.4710317,359.2707056,359.2547356,,,,,,,,,,,,,,,,,,,,,,,,,,,,,,,,,,,359.2603552,359.2707056,359.2707056,359.8055688,b,1,0.5233922,None,,,,sub-158,1,2025-03-11_11h43.08.927,stroop_test,04.02.2024,60.07034235,2025-03-11 11h43.34.581619 +0100
,,,,109,1,9,,,,,,,,,,,,,rot,blue,b,0,b,1,0.8074646,None,,,,,,,,,9,1,109,2,359.8203426,,,,,,,,,,,,,,,,,359.8061277,360.1695346,360.9689156,360.9531888,,,,,,,,,,,,,,,,,,,,,,,,,,,,,,,,,,,360.9579745,360.9689156,360.9689156,361.7864677,b,1,0.8074646,None,,,,sub-158,1,2025-03-11_11h43.08.927,stroop_test,04.02.2024,60.07034235,2025-03-11 11h43.34.581619 +0100
,,,,110,2,9,,,,,,,,,,,,,gelb,blue,b,0,b,1,0.6115545,None,,,,,,,,,9,2,110,9,361.8016614,,,,,,,,,,,,,,,,,361.7870357,363.0004566,363.7998126,363.7844742,,,,,,,,,,,,,,,,,,,,,,,,,,,,,,,,,,,363.7887524,363.7998126,363.7998126,364.4176638,b,1,0.6115545,None,,,,sub-158,1,2025-03-11_11h43.08.927,stroop_test,04.02.2024,60.07034235,2025-03-11 11h43.34.581619 +0100
,,,,111,3,9,,,,,,,,,,,,,gelb,yellow,g,1,g,1,0.7585915,None,,,,,,,,,9,3,111,11,364.4324658,,,,,,,,,,,,,,,,,364.4182357,365.2320987,366.0482999,366.0321323,,,,,,,,,,,,,,,,,,,,,,,,,,,,,,,,,,,366.0328976,366.0482999,366.0482999,366.8156816,g,1,0.7585915,None,,,,sub-158,1,2025-03-11_11h43.08.927,stroop_test,04.02.2024,60.07034235,2025-03-11 11h43.34.581619 +0100
,,,,112,4,9,,,,,,,,,,,,,blau,blue,b,1,b,1,0.7005533,None,,,,,,,,,9,4,112,6,366.8302885,,,,,,,,,,,,,,,,,366.8162557,367.6296375,368.4289219,368.4131802,,,,,,,,,,,,,,,,,,,,,,,,,,,,,,,,,,,368.4178908,368.4289219,368.4289219,369.1464841,b,1,0.7005533,None,,,,sub-158,1,2025-03-11_11h43.08.927,stroop_test,04.02.2024,60.07034235,2025-03-11 11h43.34.581619 +0100
,,,,113,5,9,,,,,,,,,,,,,rot,red,r,1,r,1,0.6405292,None,,,,,,,,,9,5,113,1,369.1618809,,,,,,,,,,,,,,,,,369.1470393,369.9608026,370.7605106,370.7445999,,,,,,,,,,,,,,,,,,,,,,,,,,,,,,,,,,,370.74937,370.7605106,370.7605106,371.4115513,r,1,0.6405292,None,,,,sub-158,1,2025-03-11_11h43.08.927,stroop_test,04.02.2024,60.07034235,2025-03-11 11h43.34.581619 +0100
,,,,114,6,9,,,,,,,,,,,,,blau,red,r,0,r,1,1.2943433,None,,,,,,,,,9,6,114,4,371.4262574,,,,,,,,,,,,,,,,,371.4121075,371.7759538,372.5752096,372.5594906,,,,,,,,,,,,,,,,,,,,,,,,,,,,,,,,,,,372.5624636,372.5752096,372.5752096,373.8760436,r,1,1.2943433,None,,,,sub-158,1,2025-03-11_11h43.08.927,stroop_test,04.02.2024,60.07034235,2025-03-11 11h43.34.581619 +0100
,,,,115,7,9,,,,,,,,,,,,,gelb,red,r,0,r,1,0.8587893,None,,,,,,,,,9,7,115,8,373.8907366,,,,,,,,,,,,,,,,,373.8765925,374.2407458,375.0398937,375.0241353,,,,,,,,,,,,,,,,,,,,,,,,,,,,,,,,,,,375.0292969,375.0398937,375.0398937,375.9081641,r,1,0.8587893,None,,,,sub-158,1,2025-03-11_11h43.08.927,stroop_test,04.02.2024,60.07034235,2025-03-11 11h43.34.581619 +0100
,,,,116,8,9,,,,,,,,,,,,,rot,yellow,g,0,g,1,0.6045921,None,,,,,,,,,9,8,116,3,375.9223314,,,,,,,,,,,,,,,,,375.9087395,376.7215813,377.5377288,377.5055584,,,,,,,,,,,,,,,,,,,,,,,,,,,,,,,,,,,377.5142519,377.5377288,377.5377288,378.1545943,g,1,0.6045921,None,,,,sub-158,1,2025-03-11_11h43.08.927,stroop_test,04.02.2024,60.07034235,2025-03-11 11h43.34.581619 +0100
,,,,117,9,9,,,,,,,,,,,,,rot,red,r,1,r,1,1.6099766,None,,,,,,,,,9,9,117,0,378.1699794,,,,,,,,,,,,,,,,,378.1549619,379.3694985,380.1691286,380.1529392,,,,,,,,,,,,,,,,,,,,,,,,,,,,,,,,,,,380.1536955,380.1691286,380.1691286,381.785782,r,1,1.6099766,None,,,,sub-158,1,2025-03-11_11h43.08.927,stroop_test,04.02.2024,60.07034235,2025-03-11 11h43.34.581619 +0100
,,,,118,10,9,,,,,,,,,,,,,gelb,yellow,g,1,g,1,0.563169,None,,,,,,,,,9,10,118,10,381.8005889,,,,,,,,,,,,,,,,,381.786344,382.1507045,382.9660486,382.9504331,,,,,,,,,,,,,,,,,,,,,,,,,,,,,,,,,,,382.9547563,382.9660486,382.9660486,383.534291,g,1,0.563169,None,,,,sub-158,1,2025-03-11_11h43.08.927,stroop_test,04.02.2024,60.07034235,2025-03-11 11h43.34.581619 +0100
,,,,119,11,9,,,,,,,,,,,,,blau,yellow,g,0,g,1,0.8416076,None,,,,,,,,,9,11,119,7,383.5488948,,,,,,,,,,,,,,,,,383.5349041,383.6493926,384.4649365,384.4493108,,,,,,,,,,,,,,,,,,,,,,,,,,,,,,,,,,,384.4540813,384.4649365,384.4649365,385.3161315,g,1,0.8416076,None,,,,sub-158,1,2025-03-11_11h43.08.927,stroop_test,04.02.2024,60.07034235,2025-03-11 11h43.34.581619 +0100
,,,,,,,,,,,,,,,,,,,,,,,,,,,,,,,,,,,,,,,,,,,,,,,,,,,,,,,,,,,,,,,,,,,,,,,,,,,,,,,,,,,,,,,,,,,,,,,,,,,,,,385.3164071,385.3306416,390.3269563,sub-158,1,2025-03-11_11h43.08.927,stroop_test,04.02.2024,60.07034235,2025-03-11 11h43.34.581619 +0100
