direction,corrAns,randomInstr,practice_trials.thisRepN,practice_trials.thisTrialN,practice_trials.thisN,practice_trials.thisIndex,instr_trials.thisRepN,instr_trials.thisTrialN,instr_trials.thisN,instr_trials.thisIndex,test_trials.thisRepN,test_trials.thisTrialN,test_trials.thisN,test_trials.thisIndex,thisRow.t,notes,general_instruction.started,textGeneralInstr.started,respGeneralInstr.started,general_instruction.stopped,respGeneralInstr.keys,respGeneralInstr.rt,respGeneralInstr.duration,ITI.started,fixcross.started,fixcross.stopped,ITI.stopped,dots.started,backgroundDots.started,stimulusDots.started,respDots.started,dots.stopped,respDots.keys,respDots.corr,respDots.rt,respDots.duration,feedback.started,textFeedback.started,feedback.stopped,textFeedback.stopped,info.started,textInfo.started,keyRespInfo.started,info.stopped,keyRespInfo.keys,keyRespInfo.rt,keyRespInfo.duration,test_instruction.started,textTestInstr.started,respTestInstr.started,test_instruction.stopped,respTestInstr.keys,respTestInstr.rt,respTestInstr.duration,random_instruction.started,textRandomInstr.started,respRandomInstr.started,random_instruction.stopped,respRandomInstr.keys,respRandomInstr.rt,respRandomInstr.duration,goodbye.started,textGoodbye.started,textGoodbye.stopped,goodbye.stopped,participant,session,expName,frameRate,Unnamed: 73
,,,,,,,,,,,,,,,,,0.0279375000391155,0.0350752000231295,0.0350752000231295,19.114683599909768,space,107.0875033000484,,,,,,,,,,,,,,,,,,,,,,,,,,,,,,,,,,,,,,,,,,,,sub-066,1.0,random_dot,60.333099033566384,
left,left,,0.0,0.0,0.0,0.0,,,,,,,,,19.151300699915737,,,,,,,,,19.14566779998131,19.22097110003233,20.02063209982589,20.00450939987786,20.0045245999936,20.02063209982589,20.02063209982589,20.02063209982589,21.18892939994112,left,1.0,89.17672310001217,,21.19486549985595,21.20600249990821,21.70399049995467,,,,,,,,,,,,,,,,,,,,,,,,,,,sub-066,1.0,random_dot,60.333099033566384,
right,right,,0.0,1.0,1.0,1.0,,,,,,,,,21.72110349987633,,,,,,,,,21.704340799944475,22.50421189982444,23.3045848000329,23.288232799852267,23.288250099867582,23.3045848000329,23.3045848000329,23.3045848000329,24.705005099996924,right,1.0,89.40818550018594,,24.705523899989203,24.7208567999769,25.2042964999564,25.220688699977472,,,,,,,,,,,,,,,,,,,,,,,,,,sub-066,1.0,random_dot,60.333099033566384,
left,left,,1.0,0.0,2.0,0.0,,,,,,,,,25.220688699977472,,,,,,,,,25.204601799836382,25.57080370001495,26.37117989989929,26.354485499905422,26.35449979989789,26.37117989989929,26.37117989989929,26.37117989989929,27.75517569994554,left,1.0,89.39429070008919,,27.755629899911582,27.770738799823448,28.255118399858475,28.2710522999987,,,,,,,,,,,,,,,,,,,,,,,,,,sub-066,1.0,random_dot,60.333099033566384,
right,right,,1.0,1.0,3.0,1.0,,,,,,,,,28.2710522999987,,,,,,,,,28.25542219984345,29.470902199856937,30.27122740005143,30.2549524998758,30.254973500035703,30.27122740005143,30.27122740005143,30.27122740005143,31.505353200016543,right,1.0,89.23338190000504,,31.50578639982268,31.520641699898988,32.004564999835566,32.02068139985204,,,,,,,,,,,,,,,,,,,,,,,,,,sub-066,1.0,random_dot,60.333099033566384,
right,right,,2.0,0.0,4.0,1.0,,,,,,,,,32.02068139985204,,,,,,,,,32.00486149988137,32.82056829985231,33.6216120000463,33.604195199906826,33.60421169991605,33.6216120000463,33.6216120000463,33.6216120000463,34.55554119986482,left,0.0,88.94371640007012,,34.55600089998916,34.570693999994546,35.05459299986251,35.07082469994202,,,,,,,,,,,,,,,,,,,,,,,,,,sub-066,1.0,random_dot,60.333099033566384,
left,left,,2.0,1.0,5.0,0.0,,,,,,,,,35.07082469994202,,,,,,,,,35.05489689996466,35.87072140001692,36.6710635998752,36.65435099997558,36.65436599985696,36.6710635998752,36.6710635998752,36.6710635998752,37.955583199858665,left,1.0,89.29205709998496,,37.95599739998579,37.970559400040656,38.45440319995396,38.470459799980745,,,,,,,,,,,,,,,,,,,,,,,,,,sub-066,1.0,random_dot,60.333099033566384,
right,right,,3.0,0.0,6.0,1.0,,,,,,,,,38.470459799980745,,,,,,,,,38.454704999923706,39.27056129998528,40.07087169983424,40.05440260004252,40.054420199943706,40.07087169983424,40.07087169983424,40.07087169983424,41.02178939990699,right,1.0,88.95125830010511,,41.02216319995932,41.0374254998751,41.520372699946165,41.53715709992685,,,,,,,,,,,,,,,,,,,,,,,,,,sub-066,1.0,random_dot,60.333099033566384,
left,left,,3.0,1.0,7.0,0.0,,,,,,,,,41.53715709992685,,,,,,,,,41.52063519996591,42.33706609997898,43.1382516999729,43.121126799844205,43.12114109983668,43.1382516999729,43.1382516999729,43.1382516999729,43.90528289997019,left,1.0,88.77865350013599,,43.90566629986279,43.92094370000996,44.40429789992049,44.42001509992406,,,,,,,,,,,,,,,,,,,,,,,,,,sub-066,1.0,random_dot,60.333099033566384,
right,right,,4.0,0.0,8.0,1.0,,,,,,,,,44.42001509992406,,,,,,,,,44.40459279995412,45.22066059987992,46.02131809992716,46.00484359986149,46.00485789985396,46.02131809992716,46.02131809992716,46.02131809992716,46.95501469983719,right,1.0,88.93953140010126,,46.95543229999021,46.97037629992701,47.45434820000082,47.4705858998932,,,,,,,,,,,,,,,,,,,,,,,,,,sub-066,1.0,random_dot,60.333099033566384,
left,left,,4.0,1.0,9.0,0.0,,,,,,,,,47.4705858998932,,,,,,,,,47.4546731999144,48.27043949998915,49.07068579993211,49.054263199912384,49.05427720001899,49.07068579993211,49.07068579993211,49.07068579993211,49.58869579993189,left,1.0,88.5159875000827,,49.58914289996028,49.60405029985122,50.08794909995049,50.104240000015125,,,,,,,,,,,,,,,,,,,,,,,,,,sub-066,1.0,random_dot,60.333099033566384,
right,right,,5.0,0.0,10.0,1.0,,,,,,,,,50.104240000015125,,,,,,,,,50.088241999968886,51.30383299989626,52.10455419984646,52.08763780002482,52.0876513000112,52.10455419984646,52.10455419984646,52.10455419984646,53.03873270004988,right,1.0,88.94688439997844,,53.03914020000957,53.0541469999589,53.5378673998639,53.55393269984052,,,,,,,,,,,,,,,,,,,,,,,,,,sub-066,1.0,random_dot,60.333099033566384,
left,left,,5.0,1.0,11.0,0.0,,,,,,,,,53.55393269984052,,,,,,,,,53.53818959998898,53.9039389998652,54.70487229991704,54.68841029983014,54.68842769996263,54.70487229991704,54.70487229991704,54.70487229991704,56.6055191999767,right,0.0,89.91345170000568,,56.60589140001685,56.62103589996696,57.10493399994448,57.12014089990407,,,,,,,,,,,,,,,,,,,,,,,,,,sub-066,1.0,random_dot,60.333099033566384,
right,right,,6.0,0.0,12.0,1.0,,,,,,,,,57.12014089990407,,,,,,,,,57.10524609987624,57.22051279991865,58.02142519992776,58.00443029985763,58.00445839995518,58.02142519992776,58.02142519992776,58.02142519992776,59.18856979999691,left,0.0,89.168773900019,,59.188942400040105,59.20413349987939,59.68800249998458,59.70372879994102,,,,,,,,,,,,,,,,,,,,,,,,,,sub-066,1.0,random_dot,60.333099033566384,
left,left,,6.0,1.0,13.0,0.0,,,,,,,,,59.70372879994102,,,,,,,,,59.68853729986586,60.05350469984114,60.85522180004045,60.838267900049686,60.83828140003607,60.85522180004045,60.85522180004045,60.85522180004045,62.02203239989467,right,0.0,89.17272949987091,,62.02248609997332,62.0376174999401,62.521129000000656,62.537628799909726,,,,,,,,,,,,,,,,,,,,,,,,,,sub-066,1.0,random_dot,60.333099033566384,
right,right,,7.0,0.0,14.0,1.0,,,,,,,,,62.537628799909726,,,,,,,,,62.52143039996736,62.63696060003713,63.43775379983708,63.42095419997349,63.42096869996749,63.43775379983708,63.43775379983708,63.43775379983708,64.6718635999132,right,1.0,89.24504090007395,,64.67230369988829,64.68709579994902,65.17125150002539,65.18669130001217,,,,,,,,,,,,,,,,,,,,,,,,,,sub-066,1.0,random_dot,60.333099033566384,
left,left,,7.0,1.0,15.0,0.0,,,,,,,,,65.18669130001217,,,,,,,,,65.17160280002281,65.28691360005178,66.08767279982567,66.07099190005101,66.07100729993545,66.08767279982567,66.08767279982567,66.08767279982567,67.65492590004578,left,1.0,89.57087330007926,,67.65538589982316,67.67092109983787,68.15406679990701,68.17050169990398,,,,,,,,,,,,,,,,,,,,,,,,,,sub-066,1.0,random_dot,60.333099033566384,
right,right,,8.0,0.0,16.0,1.0,,,,,,,,,68.17050169990398,,,,,,,,,68.15436259983107,68.2707924998831,69.07115360000171,69.05417470005341,69.0541900000535,69.07115360000171,69.07115360000171,69.07115360000171,70.37182029988617,right,1.0,89.30103509989567,,70.37221880001016,70.38707929989323,70.87086039991118,70.88673469983041,,,,,,,,,,,,,,,,,,,,,,,,,,sub-066,1.0,random_dot,60.333099033566384,
left,left,,8.0,1.0,17.0,0.0,,,,,,,,,70.88673469983041,,,,,,,,,70.87113099987619,71.23723389999941,72.03770119999535,72.02090679993853,72.02092089992948,72.03770119999535,72.03770119999535,72.03770119999535,73.67133819987066,left,1.0,89.64309490006417,,73.67184900003485,73.68695469992235,74.17091949982569,74.187399599934,,,,,,,,,,,,,,,,,,,,,,,,,,sub-066,1.0,random_dot,60.333099033566384,
left,left,,9.0,0.0,18.0,0.0,,,,,,,,,74.187399599934,,,,,,,,,74.17122170003131,74.52010959992185,75.3212623000145,75.30451679998077,75.3045306999702,75.3212623000145,75.3212623000145,75.3212623000145,76.63864380004816,right,0.0,89.32211320009083,,76.63911319989711,76.65438439999707,77.13792139990255,77.15425150003284,,,,,,,,,,,,,,,,,,,,,,,,,,sub-066,1.0,random_dot,60.333099033566384,
right,right,,9.0,1.0,19.0,1.0,,,,,,,,,77.15425150003284,,,,,,,,,77.13827389990911,77.95403190003708,78.75487879989669,78.73791899997741,78.73793599987403,78.75487879989669,78.75487879989669,78.75487879989669,79.85489590000361,right,1.0,89.10468080011196,,79.85532430000603,79.87086949986406,80.35415029991418,80.37052989983931,,,,,,,,,,,,,,,,,,,,,,,,,,sub-066,1.0,random_dot,60.333099033566384,
,,,,,,,,,,,,,,,,,,,,,,,,,,,,,,,,,,,,,,,,,80.35422129998915,80.37052989983931,80.37052989983931,85.6381163999904,space,93.27620530012064,,,,,,,,,,,,,,,,,,,,sub-066,1.0,random_dot,60.333099033566384,
,,,,,,,,,,,,,,,,,,,,,,,,,,,,,,,,,,,,,,,,,,,,,,,,85.63814319996163,85.65476970002055,85.65476970002055,93.07117879996076,space,95.4157366999425,,,,,,,,,,,,,sub-066,1.0,random_dot,60.333099033566384,
right,right,accuracy,,,,,0.0,0.0,0.0,0.0,0.0,0.0,0.0,1.0,96.12002859986389,,,,,,,,,96.1095966999419,97.30387319996952,98.10414149984716,98.0878315998707,98.08784749987537,98.10414149984716,98.10414149984716,98.10414149984716,100.18825090001336,right,1.0,90.08137090015224,,,,,,,,,,,,,,,,,,,,93.08808450005016,93.1000131999608,93.1000131999608,96.10399689991029,space,91.01196169992907,,,,,,sub-066,1.0,random_dot,60.333099033566384,
left,left,accuracy,,,,,0.0,0.0,0.0,0.0,0.0,1.0,1.0,0.0,100.20403689984232,,,,,,,,,100.1891182998661,100.5545359000098,101.35413730004802,101.33772529987618,101.3377391998656,101.35413730004802,101.35413730004802,101.35413730004802,102.05517429998145,left,1.0,88.71070870012045,,,,,,,,,,,,,,,,,,,,,,,,,,,,,,,sub-066,1.0,random_dot,60.333099033566384,
left,left,accuracy,,,,,0.0,0.0,0.0,0.0,1.0,0.0,2.0,0.0,102.07013110001571,,,,,,,,,102.0558201998938,102.8703500998672,103.67035100003704,103.65453399997205,103.65454919985496,103.67035100003704,103.67035100003704,103.67035100003704,105.77177429990844,left,1.0,90.11264010006562,,,,,,,,,,,,,,,,,,,,,,,,,,,,,,,sub-066,1.0,random_dot,60.333099033566384,
right,right,accuracy,,,,,0.0,0.0,0.0,0.0,1.0,1.0,3.0,1.0,105.78745309985244,,,,,,,,,105.77255119988696,106.98731549992226,107.787284999853,107.77021420001984,107.7702293000184,107.787284999853,107.787284999853,107.787284999853,108.32170589989984,right,1.0,88.53484470001422,,,,,,,,,,,,,,,,,,,,,,,,,,,,,,,sub-066,1.0,random_dot,60.333099033566384,
left,left,accuracy,,,,,0.0,0.0,0.0,0.0,2.0,0.0,4.0,0.0,108.33720429986715,,,,,,,,,108.32241649995558,108.68706339993514,109.487500899937,109.47105139982888,109.47106609982438,109.487500899937,109.487500899937,109.487500899937,110.90459019993432,left,1.0,89.42786400020123,,,,,,,,,,,,,,,,,,,,,,,,,,,,,,,sub-066,1.0,random_dot,60.333099033566384,
right,right,accuracy,,,,,0.0,0.0,0.0,0.0,2.0,1.0,5.0,1.0,110.92036099988036,,,,,,,,,110.90540889999828,112.12088999990374,112.92020870000124,112.90383940003812,112.903854199918,112.92020870000124,112.92020870000124,112.92020870000124,114.18855069996788,right,1.0,89.28127210005186,,,,,,,,,,,,,,,,,,,,,,,,,,,,,,,sub-066,1.0,random_dot,60.333099033566384,
left,left,accuracy,,,,,0.0,0.0,0.0,0.0,3.0,0.0,6.0,0.0,114.20376309985296,,,,,,,,,114.189388099825,115.40353599982336,116.20423679985106,116.18758319993503,116.18759740004316,116.20423679985106,116.20423679985106,116.20423679985106,116.87106140004472,left,1.0,88.67402480007149,,,,,,,,,,,,,,,,,,,,,,,,,,,,,,,sub-066,1.0,random_dot,60.333099033566384,
right,right,accuracy,,,,,0.0,0.0,0.0,0.0,3.0,1.0,7.0,1.0,116.8867554999888,,,,,,,,,116.8716768999584,116.98684669984505,117.78674679994585,117.77055380004458,117.77056970004924,117.78674679994585,117.78674679994585,117.78674679994585,119.28802670002916,left,0.0,89.50094190007076,,,,,,,,,,,,,,,,,,,,,,,,,,,,,,,sub-066,1.0,random_dot,60.333099033566384,
left,left,accuracy,,,,,0.0,0.0,0.0,0.0,4.0,0.0,8.0,0.0,119.3035448999144,,,,,,,,,119.28885879996233,120.10312799992973,120.90436999988742,120.88777319993824,120.88778809993528,120.90436999988742,120.90436999988742,120.90436999988742,122.2716728998348,right,0.0,89.37880100007169,,,,,,,,,,,,,,,,,,,,,,,,,,,,,,,sub-066,1.0,random_dot,60.333099033566384,
right,right,accuracy,,,,,0.0,0.0,0.0,0.0,4.0,1.0,9.0,1.0,122.2871325998567,,,,,,,,,122.27238979982212,123.08678280003367,123.88764819991776,123.87121559982188,123.87123669986612,123.88764819991776,123.88764819991776,123.88764819991776,124.70452119992116,right,1.0,88.82245060009882,,,,,,,,,,,,,,,,,,,,,,,,,,,,,,,sub-066,1.0,random_dot,60.333099033566384,
right,right,accuracy,,,,,0.0,0.0,0.0,0.0,5.0,0.0,10.0,1.0,124.7204797999002,,,,,,,,,124.70521629997528,125.0700816998724,125.87114139995538,125.85450979997404,125.85452479985544,125.87114139995538,125.87114139995538,125.87114139995538,127.2378997998312,right,1.0,89.37484330008738,,,,,,,,,,,,,,,,,,,,,,,,,,,,,,,sub-066,1.0,random_dot,60.333099033566384,
left,left,accuracy,,,,,0.0,0.0,0.0,0.0,5.0,1.0,11.0,0.0,127.2530265999958,,,,,,,,,127.23859600001016,127.35347529989669,128.15393529995345,128.13709579990245,128.13711049989797,128.15393529995345,128.15393529995345,128.15393529995345,129.25471819983795,left,1.0,89.10767920012586,,,,,,,,,,,,,,,,,,,,,,,,,,,,,,,sub-066,1.0,random_dot,60.333099033566384,
right,right,accuracy,,,,,0.0,0.0,0.0,0.0,6.0,0.0,12.0,1.0,129.27050899993628,,,,,,,,,129.2554277998861,130.07084800000302,130.87096269987524,130.85419719992206,130.85421180003323,130.87096269987524,130.87096269987524,130.87096269987524,132.25490029994398,right,1.0,89.38115480006672,,,,,,,,,,,,,,,,,,,,,,,,,,,,,,,sub-066,1.0,random_dot,60.333099033566384,
left,left,accuracy,,,,,0.0,0.0,0.0,0.0,6.0,1.0,13.0,0.0,132.26989039988257,,,,,,,,,132.25551080005243,132.37049439991824,133.17051009996794,133.1543741999194,133.15439419983886,133.17051009996794,133.17051009996794,133.17051009996794,133.88802880002186,left,1.0,88.71522370004095,,,,,,,,,,,,,,,,,,,,,,,,,,,,,,,sub-066,1.0,random_dot,60.333099033566384,
left,left,accuracy,,,,,0.0,0.0,0.0,0.0,7.0,0.0,14.0,0.0,133.90310200001113,,,,,,,,,133.8886454999447,134.70387619989924,135.50412829988636,135.48709809989668,135.4871135998983,135.50412829988636,135.50412829988636,135.50412829988636,136.1715838999953,left,1.0,88.6722534999717,,,,,,,,,,,,,,,,,,,,,,,,,,,,,,,sub-066,1.0,random_dot,60.333099033566384,
right,right,accuracy,,,,,0.0,0.0,0.0,0.0,7.0,1.0,15.0,1.0,136.1870740999002,,,,,,,,,136.17226969986223,136.9868951998651,137.78745299996808,137.77114810002968,137.77116449992172,137.78745299996808,137.78745299996808,137.78745299996808,138.6048451999668,right,1.0,88.82031960017048,,,,,,,,,,,,,,,,,,,,,,,,,,,,,,,sub-066,1.0,random_dot,60.333099033566384,
right,right,accuracy,,,,,0.0,0.0,0.0,0.0,8.0,0.0,16.0,1.0,138.62018879991956,,,,,,,,,138.6055783999618,139.42038639984094,140.22125669987872,140.20396819990128,140.20398300001398,140.22125669987872,140.22125669987872,140.22125669987872,141.33811119990423,left,0.0,89.11533780000173,,,,,,,,,,,,,,,,,,,,,,,,,,,,,,,sub-066,1.0,random_dot,60.333099033566384,
left,left,accuracy,,,,,0.0,0.0,0.0,0.0,8.0,1.0,17.0,0.0,141.35377259994857,,,,,,,,,141.33882860001177,141.70379960001446,142.5037998999469,142.4881184999831,142.4881355999969,142.5037998999469,142.5037998999469,142.5037998999469,143.5382042999845,left,1.0,89.04330610018224,,,,,,,,,,,,,,,,,,,,,,,,,,,,,,,sub-066,1.0,random_dot,60.333099033566384,
right,right,accuracy,,,,,0.0,0.0,0.0,0.0,9.0,0.0,18.0,1.0,143.55338749988005,,,,,,,,,143.53895009984262,144.35405319998972,145.15427659987472,145.1374484000262,145.13746579992585,145.15427659987472,145.15427659987472,145.15427659987472,146.47162869991735,left,0.0,89.32613969990052,,,,,,,,,,,,,,,,,,,,,,,,,,,,,,,sub-066,1.0,random_dot,60.333099033566384,
left,left,accuracy,,,,,0.0,0.0,0.0,0.0,9.0,1.0,19.0,0.0,146.4867104999721,,,,,,,,,146.47239599982277,147.68687859992497,148.487138699973,148.47043700003996,148.4704511000309,148.487138699973,148.487138699973,148.487138699973,149.75456429994665,left,1.0,89.26455399999395,,,,,,,,,,,,,,,,,,,,,,,,,,,,,,,sub-066,1.0,random_dot,60.333099033566384,
right,right,accuracy,,,,,0.0,0.0,0.0,0.0,10.0,0.0,20.0,1.0,149.77024420001544,,,,,,,,,149.75527169997804,150.56968289986253,151.37065619998612,151.35435469984077,151.35437019984238,151.37065619998612,151.37065619998612,151.37065619998612,153.0381187000312,right,1.0,89.67925860011019,,,,,,,,,,,,,,,,,,,,,,,,,,,,,,,sub-066,1.0,random_dot,60.333099033566384,
left,left,accuracy,,,,,0.0,0.0,0.0,0.0,10.0,1.0,21.0,0.0,153.05338179995306,,,,,,,,,153.03881950001232,153.15353999985382,153.95382029982284,153.93690349999815,153.93691849987954,153.95382029982284,153.95382029982284,153.95382029982284,155.02165340003558,left,1.0,89.06750099989586,,,,,,,,,,,,,,,,,,,,,,,,,,,,,,,sub-066,1.0,random_dot,60.333099033566384,
right,right,accuracy,,,,,0.0,0.0,0.0,0.0,11.0,0.0,22.0,1.0,155.03688080003485,,,,,,,,,155.02249090000987,155.38696049991995,156.1876691998914,156.1704096000176,156.17042419989593,156.1876691998914,156.1876691998914,156.1876691998914,157.58805430005305,right,1.0,89.39767430024222,,,,,,,,,,,,,,,,,,,,,,,,,,,,,,,sub-066,1.0,random_dot,60.333099033566384,
left,left,accuracy,,,,,0.0,0.0,0.0,0.0,11.0,1.0,23.0,0.0,157.6034645999316,,,,,,,,,157.5887650998775,158.80364719987847,159.6038261000067,159.58647740003653,159.58649099990726,159.6038261000067,159.6038261000067,159.6038261000067,160.6711370998528,left,1.0,89.07781879999675,,,,,,,,,,,,,,,,,,,,,,,,,,,,,,,sub-066,1.0,random_dot,60.333099033566384,
right,right,accuracy,,,,,0.0,0.0,0.0,0.0,12.0,0.0,24.0,1.0,160.6867467998527,,,,,,,,,160.67186450003646,161.88717789994553,162.6870541998651,162.67117049987428,162.6711859998759,162.6870541998651,162.6870541998651,162.6870541998651,163.63746519992128,right,1.0,88.95875470014289,,,,,,,,,,,,,,,,,,,,,,,,,,,,,,,sub-066,1.0,random_dot,60.333099033566384,
left,left,accuracy,,,,,0.0,0.0,0.0,0.0,12.0,1.0,25.0,0.0,163.65312939998694,,,,,,,,,163.63816810003482,163.75388119998388,164.5543219000101,164.53737189993262,164.5373887999449,164.5543219000101,164.5543219000101,164.5543219000101,166.05453630001284,left,1.0,89.50312430015765,,,,,,,,,,,,,,,,,,,,,,,,,,,,,,,sub-066,1.0,random_dot,60.333099033566384,
left,left,accuracy,,,,,0.0,0.0,0.0,0.0,13.0,0.0,26.0,0.0,166.07085369993,,,,,,,,,166.05525829992257,166.87007960001938,167.67064709984697,167.65391639992595,167.65393069991842,167.67064709984697,167.67064709984697,167.67064709984697,168.47156480001286,left,1.0,88.80036320001818,,,,,,,,,,,,,,,,,,,,,,,,,,,,,,,sub-066,1.0,random_dot,60.333099033566384,
right,right,accuracy,,,,,0.0,0.0,0.0,0.0,13.0,1.0,27.0,1.0,168.4871457000263,,,,,,,,,168.47228319989517,168.5869578998536,169.38755710003898,169.37071139994077,169.37073059985414,169.38755710003898,169.38755710003898,169.38755710003898,170.32168459985405,right,1.0,88.93960600020364,,,,,,,,,,,,,,,,,,,,,,,,,,,,,,,sub-066,1.0,random_dot,60.333099033566384,
left,left,accuracy,,,,,0.0,0.0,0.0,0.0,14.0,0.0,28.0,0.0,170.3366258998867,,,,,,,,,170.32240079995245,170.68720519985072,171.4876009998843,171.4705656999722,171.4705801999662,171.4876009998843,171.4876009998843,171.4876009998843,172.55429199989885,left,1.0,89.07835630024783,,,,,,,,,,,,,,,,,,,,,,,,,,,,,,,sub-066,1.0,random_dot,60.333099033566384,
right,right,accuracy,,,,,0.0,0.0,0.0,0.0,14.0,1.0,29.0,1.0,172.56982129998505,,,,,,,,,172.5549288999755,172.65342850005254,173.45425729989074,173.4368267999962,173.43684219988063,173.45425729989074,173.45425729989074,173.45425729989074,174.2214494999498,right,1.0,88.76899649994448,,,,,,,,,,,,,,,,,,,,,,,,,,,,,,,sub-066,1.0,random_dot,60.333099033566384,
right,right,accuracy,,,,,0.0,0.0,0.0,0.0,15.0,0.0,30.0,1.0,174.23636109987274,,,,,,,,,174.22213379992172,174.3368406998925,175.1375766999554,175.1206704999786,175.12068809987977,175.1375766999554,175.1375766999554,175.1375766999554,176.53726430004463,right,1.0,89.40165240014903,,,,,,,,,,,,,,,,,,,,,,,,,,,,,,,sub-066,1.0,random_dot,60.333099033566384,
left,left,accuracy,,,,,0.0,0.0,0.0,0.0,15.0,1.0,31.0,0.0,176.55295030004345,,,,,,,,,176.53786959988065,176.65294699999504,177.4539347998798,177.43698449991643,177.43700150004588,177.4539347998798,177.4539347998798,177.4539347998798,179.0711866999045,left,1.0,89.62494310014881,,,,,,,,,,,,,,,,,,,,,,,,,,,,,,,sub-066,1.0,random_dot,60.333099033566384,
left,left,accuracy,,,,,0.0,0.0,0.0,0.0,16.0,0.0,32.0,0.0,179.08678409992717,,,,,,,,,179.07200419995934,180.28709489991888,181.08707879995927,181.06983559997752,181.0698487998452,181.08707879995927,181.08707879995927,181.08707879995927,182.137856699992,left,1.0,89.05728290020488,,,,,,,,,,,,,,,,,,,,,,,,,,,,,,,sub-066,1.0,random_dot,60.333099033566384,
right,right,accuracy,,,,,0.0,0.0,0.0,0.0,16.0,1.0,33.0,1.0,182.1536723000463,,,,,,,,,182.138543699868,182.5038467999548,183.3040773998946,183.28710850002244,183.2871250000317,183.3040773998946,183.3040773998946,183.3040773998946,184.421383399982,right,1.0,89.11652440018952,,,,,,,,,,,,,,,,,,,,,,,,,,,,,,,sub-066,1.0,random_dot,60.333099033566384,
right,right,accuracy,,,,,0.0,0.0,0.0,0.0,17.0,0.0,34.0,1.0,184.43665319983847,,,,,,,,,184.4220757998992,184.53686250001192,185.3369797000196,185.32028719992377,185.3203020000365,185.3369797000196,185.3369797000196,185.3369797000196,186.65480619994923,right,1.0,89.32922030007467,,,,,,,,,,,,,,,,,,,,,,,,,,,,,,,sub-066,1.0,random_dot,60.333099033566384,
left,left,accuracy,,,,,0.0,0.0,0.0,0.0,17.0,1.0,35.0,0.0,186.66987259988676,,,,,,,,,186.65548449987543,186.76974059990607,187.57090219995007,187.553888999857,187.5539042998571,187.57090219995007,187.57090219995007,187.57090219995007,188.4712513999548,left,1.0,88.89738900004886,,,,,,,,,,,,,,,,,,,,,,,,,,,,,,,sub-066,1.0,random_dot,60.333099033566384,
right,right,accuracy,,,,,0.0,0.0,0.0,0.0,18.0,0.0,36.0,1.0,188.4871682999656,,,,,,,,,188.4719769000076,188.83648759988137,189.6372777998913,189.6206948000472,189.6207112998236,189.6372777998913,189.6372777998913,189.6372777998913,190.50467609986663,right,1.0,88.86704860022292,,,,,,,,,,,,,,,,,,,,,,,,,,,,,,,sub-066,1.0,random_dot,60.333099033566384,
left,left,accuracy,,,,,0.0,0.0,0.0,0.0,18.0,1.0,37.0,0.0,190.5200232998468,,,,,,,,,190.5053725000471,190.6203619998414,191.42003999999724,191.40370739996436,191.40372289996597,191.42003999999724,191.42003999999724,191.42003999999724,192.22167670005,left,1.0,88.81328119989485,,,,,,,,,,,,,,,,,,,,,,,,,,,,,,,sub-066,1.0,random_dot,60.333099033566384,
left,left,accuracy,,,,,0.0,0.0,0.0,0.0,19.0,0.0,38.0,0.0,192.23661719984372,,,,,,,,,192.22232409985736,193.0369812999852,193.83737149997611,193.82065829983912,193.82067279983312,193.83737149997611,193.83737149997611,193.83737149997611,194.6883574000094,right,0.0,88.86377150006592,,,,,,,,,,,,,,,,,,,,,,,,,,,,,,,sub-066,1.0,random_dot,60.333099033566384,
right,right,accuracy,,,,,0.0,0.0,0.0,0.0,19.0,1.0,39.0,1.0,194.70322009990923,,,,,,,,,194.6891765999608,195.5033633999992,196.304156600032,196.28709759982303,196.28711230005135,196.304156600032,196.304156600032,196.304156600032,197.5883448000532,right,1.0,89.2907978000585,,,,,,,,,,,,,,,,,,,,,,,,,,,,,,,sub-066,1.0,random_dot,60.333099033566384,
left,left,accuracy,,,,,0.0,0.0,0.0,0.0,20.0,0.0,40.0,0.0,197.6032006999012,,,,,,,,,197.58919139998036,198.40329369995743,199.2035983998794,199.18681089999157,199.18682439997792,199.2035983998794,199.2035983998794,199.2035983998794,200.33770519983955,left,1.0,89.13778400002047,,,,,,,,,,,,,,,,,,,,,,,,,,,,,,,sub-066,1.0,random_dot,60.333099033566384,
right,right,accuracy,,,,,0.0,0.0,0.0,0.0,20.0,1.0,41.0,1.0,200.35319079994224,,,,,,,,,200.33843089989384,201.55289849988185,202.3537804998923,202.33745909994468,202.33747389982452,202.3537804998923,202.3537804998923,202.3537804998923,203.0709949999582,right,1.0,88.72423120005988,,,,,,,,,,,,,,,,,,,,,,,,,,,,,,,sub-066,1.0,random_dot,60.333099033566384,
left,left,accuracy,,,,,0.0,0.0,0.0,0.0,21.0,0.0,42.0,0.0,203.08675420004877,,,,,,,,,203.07183409994468,203.88673909986392,204.68698909995143,204.6699953000061,204.67001249990423,204.68698909995143,204.68698909995143,204.68698909995143,206.23797489982095,right,0.0,89.5587493001949,,,,,,,,,,,,,,,,,,,,,,,,,,,,,,,sub-066,1.0,random_dot,60.333099033566384,
right,right,accuracy,,,,,0.0,0.0,0.0,0.0,21.0,1.0,43.0,1.0,206.2534505999647,,,,,,,,,206.23931309999895,206.60357359983027,207.403758399887,207.3871309000533,207.3871476999484,207.403758399887,207.403758399887,207.403758399887,208.87118539982475,right,1.0,89.46780430013314,,,,,,,,,,,,,,,,,,,,,,,,,,,,,,,sub-066,1.0,random_dot,60.333099033566384,
left,left,accuracy,,,,,0.0,0.0,0.0,0.0,22.0,0.0,44.0,0.0,208.8868984000292,,,,,,,,,208.87181469984355,208.98641439992932,209.78725619986653,209.77009939984416,209.77011399995536,209.78725619986653,209.78725619986653,209.78725619986653,211.02141000004485,left,1.0,89.23263540002517,,,,,,,,,,,,,,,,,,,,,,,,,,,,,,,sub-066,1.0,random_dot,60.333099033566384,
right,right,accuracy,,,,,0.0,0.0,0.0,0.0,22.0,1.0,45.0,1.0,211.03616819996387,,,,,,,,,211.02205759985367,211.1367222999688,211.93775639985688,211.9202003998216,211.92021669982933,211.93775639985688,211.93775639985688,211.93775639985688,214.05468219984323,left,0.0,90.1163838999346,,,,,,,,,,,,,,,,,,,,,,,,,,,,,,,sub-066,1.0,random_dot,60.333099033566384,
right,right,accuracy,,,,,0.0,0.0,0.0,0.0,23.0,0.0,46.0,1.0,214.06955159991048,,,,,,,,,214.05537729989737,214.4200154999271,215.220351099968,215.20404999982568,215.2040687999688,215.220351099968,215.220351099968,215.220351099968,217.204284099862,left,0.0,89.99361820006743,,,,,,,,,,,,,,,,,,,,,,,,,,,,,,,sub-066,1.0,random_dot,60.333099033566384,
left,left,accuracy,,,,,0.0,0.0,0.0,0.0,23.0,1.0,47.0,0.0,217.22004919988103,,,,,,,,,217.2050423999317,217.5699958999176,218.3701392998919,218.35378739982843,218.35380909987725,218.3701392998919,218.3701392998919,218.3701392998919,219.47056409996003,left,1.0,89.10732050007209,,,,,,,,,,,,,,,,,,,,,,,,,,,,,,,sub-066,1.0,random_dot,60.333099033566384,
right,right,accuracy,,,,,0.0,0.0,0.0,0.0,24.0,0.0,48.0,1.0,219.48647210001943,,,,,,,,,219.47132879984565,220.68660729983824,221.48692219983784,221.4700282998383,221.4700425998308,221.48692219983784,221.48692219983784,221.48692219983784,222.1040989998728,right,1.0,88.61971820006147,,,,,,,,,,,,,,,,,,,,,,,,,,,,,,,sub-066,1.0,random_dot,60.333099033566384,
left,left,accuracy,,,,,0.0,0.0,0.0,0.0,24.0,1.0,49.0,0.0,222.11987089994363,,,,,,,,,222.10478739999235,223.3198925999459,224.1204037999269,224.10354529996405,224.1035629999824,224.1204037999269,224.1204037999269,224.1204037999269,224.95452429982836,left,1.0,88.84477220010012,,,,,,,,,,,,,,,,,,,,,,,,,,,,,,,sub-066,1.0,random_dot,60.333099033566384,
right,right,accuracy,,,,,0.0,0.0,0.0,0.0,25.0,0.0,50.0,1.0,224.96916739991863,,,,,,,,,224.9552257999312,226.16984810004945,226.9704616998788,226.95363379991613,226.9536494000349,226.9704616998788,226.9704616998788,226.9704616998788,227.70386859984137,right,1.0,88.73840900021605,,,,,,,,,,,,,,,,,,,,,,,,,,,,,,,sub-066,1.0,random_dot,60.333099033566384,
left,left,accuracy,,,,,0.0,0.0,0.0,0.0,25.0,1.0,51.0,0.0,227.71966669987887,,,,,,,,,227.7045618998818,228.9202770998236,229.7205387998838,229.70369659992863,229.70371029991657,229.7205387998838,229.7205387998838,229.7205387998838,232.4712202998344,right,0.0,90.76162960007788,,,,,,,,,,,,,,,,,,,,,,,,,,,,,,,sub-066,1.0,random_dot,60.333099033566384,
right,right,accuracy,,,,,0.0,0.0,0.0,0.0,26.0,0.0,52.0,1.0,232.4863140999805,,,,,,,,,232.47194279986437,233.28688109992072,234.08704270003363,234.0698819998652,234.0698974998668,234.08704270003363,234.08704270003363,234.08704270003363,235.80392249999568,right,1.0,89.71784950024448,,,,,,,,,,,,,,,,,,,,,,,,,,,,,,,sub-066,1.0,random_dot,60.333099033566384,
left,left,accuracy,,,,,0.0,0.0,0.0,0.0,26.0,1.0,53.0,0.0,235.81976559991017,,,,,,,,,235.80472099990584,236.16942109982483,236.9705906000454,236.9535479999613,236.9535632999614,236.9705906000454,236.9705906000454,236.9705906000454,237.67060499987565,left,1.0,88.70789640001021,,,,,,,,,,,,,,,,,,,,,,,,,,,,,,,sub-066,1.0,random_dot,60.333099033566384,
right,right,accuracy,,,,,0.0,0.0,0.0,0.0,27.0,0.0,54.0,1.0,237.68635139986876,,,,,,,,,237.67129009985365,238.4699194999412,239.26989459991452,239.2536378998775,239.2536543000024,239.26989459991452,239.26989459991452,239.26989459991452,241.3374815999996,right,1.0,90.0779931000434,,,,,,,,,,,,,,,,,,,,,,,,,,,,,,,sub-066,1.0,random_dot,60.333099033566384,
left,left,accuracy,,,,,0.0,0.0,0.0,0.0,27.0,1.0,55.0,0.0,241.35343110002577,,,,,,,,,241.3382037000265,242.5529888998717,243.35386549984105,243.33699609991163,243.3370135000441,243.35386549984105,243.35386549984105,243.35386549984105,245.2543577000033,left,1.0,89.89943920029327,,,,,,,,,,,,,,,,,,,,,,,,,,,,,,,sub-066,1.0,random_dot,60.333099033566384,
left,left,accuracy,,,,,0.0,0.0,0.0,0.0,28.0,0.0,56.0,0.0,245.2701423999388,,,,,,,,,245.25505180004984,245.37006119987927,246.1701990999281,246.1532443000469,246.15325800003484,246.1701990999281,246.1701990999281,246.1701990999281,247.30413750000295,right,0.0,89.14526879996993,,,,,,,,,,,,,,,,,,,,,,,,,,,,,,,sub-066,1.0,random_dot,60.333099033566384,
right,right,accuracy,,,,,0.0,0.0,0.0,0.0,28.0,1.0,57.0,1.0,247.31914359983057,,,,,,,,,247.3047764999792,247.41955300001428,248.22042629984207,248.2030541000422,248.2030682000332,248.22042629984207,248.22042629984207,248.22042629984207,249.8376241000369,right,1.0,89.62938160030171,,,,,,,,,,,,,,,,,,,,,,,,,,,,,,,sub-066,1.0,random_dot,60.333099033566384,
right,right,accuracy,,,,,0.0,0.0,0.0,0.0,29.0,0.0,58.0,1.0,249.8530337999109,,,,,,,,,249.83845070004463,250.2031814998481,251.00380109995604,250.9873354998417,250.9873507998418,251.00380109995604,251.00380109995604,251.00380109995604,253.07146799983457,left,0.0,90.06570610008202,,,,,,,,,,,,,,,,,,,,,,,,,,,,,,,sub-066,1.0,random_dot,60.333099033566384,
left,left,accuracy,,,,,0.0,0.0,0.0,0.0,29.0,1.0,59.0,0.0,253.08621539990415,,,,,,,,,253.07214159984144,254.2862740999553,255.08653369988315,255.06976029998623,255.0697806000244,255.08653369988315,255.08653369988315,255.08653369988315,256.20402599987574,right,0.0,89.12233950011432,,,,,,,,,,,,,,,,,,,,,,,,,,,,,,,sub-066,1.0,random_dot,60.333099033566384,
,,accuracy,,,,,0.0,0.0,0.0,0.0,,,,,,,,,,,,,,,,,,,,,,,,,,,,,,,,,,,,,,,,,,,,,,,,,,,,,,,,sub-066,1.0,random_dot,60.333099033566384,
right,right,speed,,,,,0.0,1.0,1.0,1.0,0.0,0.0,0.0,1.0,277.88577139982954,,,,,,,,,277.8760329999496,277.9693777000066,278.77051629987545,278.75363519997336,278.7536551998928,278.77051629987545,278.77051629987545,278.77051629987545,279.2375009998213,left,0.0,88.47109660017304,,,,,,,,,,,,,,,,,,,,256.20484429993667,256.2194566000253,256.2194566000253,277.8701855998952,space,109.66258220025338,,,,,,sub-066,1.0,random_dot,60.333099033566384,
left,left,speed,,,,,0.0,1.0,1.0,1.0,0.0,1.0,1.0,0.0,279.25337199983187,,,,,,,,,279.23827229999006,280.45317610003985,281.253351500025,281.2370664998889,281.23708089999855,281.253351500025,281.253351500025,281.253351500025,282.0541645998601,right,0.0,88.80591930006631,,,,,,,,,,,,,,,,,,,,,,,,,,,,,,,sub-066,1.0,random_dot,60.333099033566384,
left,left,speed,,,,,0.0,1.0,1.0,1.0,1.0,0.0,2.0,0.0,282.06931749987416,,,,,,,,,282.0549029998947,283.2695368998684,284.0703070999589,284.05364629998803,284.0536610998679,284.0703070999589,284.0703070999589,284.0703070999589,284.7207543000113,left,1.0,88.64972260012291,,,,,,,,,,,,,,,,,,,,,,,,,,,,,,,sub-066,1.0,random_dot,60.333099033566384,
right,right,speed,,,,,0.0,1.0,1.0,1.0,1.0,1.0,3.0,1.0,284.7361914999783,,,,,,,,,284.72151559987105,284.8363981998991,285.63652869989164,285.6195980999619,285.61961829988286,285.63652869989164,285.63652869989164,285.63652869989164,286.5541878999211,right,1.0,88.92352219996974,,,,,,,,,,,,,,,,,,,,,,,,,,,,,,,sub-066,1.0,random_dot,60.333099033566384,
left,left,speed,,,,,0.0,1.0,1.0,1.0,2.0,0.0,4.0,0.0,286.56964739994146,,,,,,,,,286.5548902999144,286.9200324998237,287.71986650000326,287.7030584998429,287.7030736999586,287.71986650000326,287.71986650000326,287.71986650000326,288.3706147999037,left,1.0,88.65461839991622,,,,,,,,,,,,,,,,,,,,,,,,,,,,,,,sub-066,1.0,random_dot,60.333099033566384,
right,right,speed,,,,,0.0,1.0,1.0,1.0,2.0,1.0,5.0,1.0,288.3860379999969,,,,,,,,,288.3713275999762,289.1862249998376,289.9869702998549,289.9704292998649,289.9704435998574,289.9869702998549,289.9869702998549,289.9869702998549,290.98735950002447,right,1.0,89.002139700111,,,,,,,,,,,,,,,,,,,,,,,,,,,,,,,sub-066,1.0,random_dot,60.333099033566384,
left,left,speed,,,,,0.0,1.0,1.0,1.0,3.0,0.0,6.0,0.0,291.00314329983667,,,,,,,,,290.9880439999979,291.1030150000006,291.9037496999372,291.8870250999462,291.8870399999432,291.9037496999372,291.9037496999372,291.9037496999372,292.83782869996503,left,1.0,88.93203809997067,,,,,,,,,,,,,,,,,,,,,,,,,,,,,,,sub-066,1.0,random_dot,60.333099033566384,
right,right,speed,,,,,0.0,1.0,1.0,1.0,3.0,1.0,7.0,1.0,292.8529322999529,,,,,,,,,292.8386377999559,292.95318459998816,293.75321580003947,293.7370565000456,293.73707379982807,293.75321580003947,293.75321580003947,293.75321580003947,294.78759279986843,left,0.0,89.03646990004927,,,,,,,,,,,,,,,,,,,,,,,,,,,,,,,sub-066,1.0,random_dot,60.333099033566384,
right,right,speed,,,,,0.0,1.0,1.0,1.0,4.0,0.0,8.0,1.0,294.8026533999946,,,,,,,,,294.7883205998223,296.00263289990835,296.8039293999318,296.78673149994574,296.7867480998393,296.8039293999318,296.8039293999318,296.8039293999318,298.0207471998874,right,1.0,89.22216400015168,,,,,,,,,,,,,,,,,,,,,,,,,,,,,,,sub-066,1.0,random_dot,60.333099033566384,
left,left,speed,,,,,0.0,1.0,1.0,1.0,4.0,1.0,9.0,0.0,298.0366485998966,,,,,,,,,298.0214366998989,298.1364557000343,298.9368094999809,298.9197926998604,298.9198071998544,298.9368094999809,298.9368094999809,298.9368094999809,299.83723099995404,left,1.0,88.91114480001852,,,,,,,,,,,,,,,,,,,,,,,,,,,,,,,sub-066,1.0,random_dot,60.333099033566384,
left,left,speed,,,,,0.0,1.0,1.0,1.0,5.0,0.0,10.0,0.0,299.8526335998904,,,,,,,,,299.83796289982274,300.2027701998595,301.0039276999887,300.9869472999126,300.98696210002527,301.0039276999887,301.0039276999887,301.0039276999887,301.88744089985266,left,1.0,88.8818353000097,,,,,,,,,,,,,,,,,,,,,,,,,,,,,,,sub-066,1.0,random_dot,60.333099033566384,
right,right,speed,,,,,0.0,1.0,1.0,1.0,5.0,1.0,11.0,1.0,301.90287319989875,,,,,,,,,301.88813879992813,303.103007099824,303.903608399909,303.88672379986383,303.8867389999796,303.903608399909,303.903608399909,303.903608399909,304.57123699993826,right,1.0,88.68046310008503,,,,,,,,,,,,,,,,,,,,,,,,,,,,,,,sub-066,1.0,random_dot,60.333099033566384,
left,left,speed,,,,,0.0,1.0,1.0,1.0,6.0,0.0,12.0,0.0,304.5864528999664,,,,,,,,,304.571948699886,305.7865809998475,306.58669929997995,306.5696745000314,306.56969040003605,306.58669929997995,306.58669929997995,306.58669929997995,307.1375261999201,left,1.0,88.56308150012046,,,,,,,,,,,,,,,,,,,,,,,,,,,,,,,sub-066,1.0,random_dot,60.333099033566384,
right,right,speed,,,,,0.0,1.0,1.0,1.0,6.0,1.0,13.0,1.0,307.1526517998427,,,,,,,,,307.1382577000186,307.2532484999392,308.05373239982873,308.0366640998982,308.03667919989675,308.05373239982873,308.05373239982873,308.05373239982873,308.6706393000204,right,1.0,88.62920379987918,,,,,,,,,,,,,,,,,,,,,,,,,,,,,,,sub-066,1.0,random_dot,60.333099033566384,
left,left,speed,,,,,0.0,1.0,1.0,1.0,7.0,0.0,14.0,0.0,308.68618829990737,,,,,,,,,308.6713385998737,308.78624299983494,309.5866338999476,309.5704552999232,309.5704830000177,309.5866338999476,309.5866338999476,309.5866338999476,310.67009429982863,left,1.0,89.08547740010545,,,,,,,,,,,,,,,,,,,,,,,,,,,,,,,sub-066,1.0,random_dot,60.333099033566384,
right,right,speed,,,,,0.0,1.0,1.0,1.0,7.0,1.0,15.0,1.0,310.68584239995107,,,,,,,,,310.6707786000334,311.4696806999855,312.2695471998304,312.25248649995774,312.2525030998513,312.2695471998304,312.2695471998304,312.2695471998304,313.88777779997326,right,1.0,89.61622540024109,,,,,,,,,,,,,,,,,,,,,,,,,,,,,,,sub-066,1.0,random_dot,60.333099033566384,
left,left,speed,,,,,0.0,1.0,1.0,1.0,8.0,0.0,16.0,0.0,313.9031281999778,,,,,,,,,313.888488000026,314.7031547999941,315.50370020000264,315.48731560003944,315.48733309982345,315.50370020000264,315.50370020000264,315.50370020000264,315.97090509999543,right,0.0,88.46532510011457,,,,,,,,,,,,,,,,,,,,,,,,,,,,,,,sub-066,1.0,random_dot,60.333099033566384,
right,right,speed,,,,,0.0,1.0,1.0,1.0,8.0,1.0,17.0,1.0,315.9864688999951,,,,,,,,,315.97161829983816,316.3359673998784,317.13666089996696,317.1204377999529,317.1204546999652,317.13666089996696,317.13666089996696,317.13666089996696,318.3545607998967,right,1.0,89.2168956999667,,,,,,,,,,,,,,,,,,,,,,,,,,,,,,,sub-066,1.0,random_dot,60.333099033566384,
left,left,speed,,,,,0.0,1.0,1.0,1.0,9.0,0.0,18.0,0.0,318.36903079994954,,,,,,,,,318.3552888999693,318.71966519998387,319.52001079986803,319.5032003999222,319.5032148999162,319.52001079986803,319.52001079986803,319.52001079986803,320.2541008999105,left,1.0,88.74611510010436,,,,,,,,,,,,,,,,,,,,,,,,,,,,,,,sub-066,1.0,random_dot,60.333099033566384,
right,right,speed,,,,,0.0,1.0,1.0,1.0,9.0,1.0,19.0,1.0,320.26962579996325,,,,,,,,,320.2548050999176,321.4698451999575,322.26978099998087,322.25366729986854,322.2536849998869,322.26978099998087,322.26978099998087,322.26978099998087,323.2213033000007,right,1.0,88.94998240005225,,,,,,,,,,,,,,,,,,,,,,,,,,,,,,,sub-066,1.0,random_dot,60.333099033566384,
right,right,speed,,,,,0.0,1.0,1.0,1.0,10.0,0.0,20.0,1.0,323.236208899878,,,,,,,,,323.2219956999179,324.4367126999423,325.23661340004764,325.22025049990043,325.2202673999127,325.23661340004764,325.23661340004764,325.23661340004764,325.68747189990245,left,0.0,88.46153870015405,,,,,,,,,,,,,,,,,,,,,,,,,,,,,,,sub-066,1.0,random_dot,60.333099033566384,
left,left,speed,,,,,0.0,1.0,1.0,1.0,10.0,1.0,21.0,0.0,325.70261279982515,,,,,,,,,325.6881573998835,326.9030645999592,327.7033635999542,327.68679429986514,327.6868080999702,327.7033635999542,327.7033635999542,327.7033635999542,328.97037899983115,right,0.0,89.27306240005419,,,,,,,,,,,,,,,,,,,,,,,,,,,,,,,sub-066,1.0,random_dot,60.333099033566384,
left,left,speed,,,,,0.0,1.0,1.0,1.0,11.0,0.0,22.0,0.0,328.9862442999147,,,,,,,,,328.9710941000376,329.06966349994764,329.869776800042,329.85351109993644,329.8535267999396,329.869776800042,329.869776800042,329.869776800042,330.6705606000032,left,1.0,88.81086230021901,,,,,,,,,,,,,,,,,,,,,,,,,,,,,,,sub-066,1.0,random_dot,60.333099033566384,
right,right,speed,,,,,0.0,1.0,1.0,1.0,11.0,1.0,23.0,1.0,330.6866768999025,,,,,,,,,330.671248300001,330.78585079987533,331.58669929997995,331.5697095999494,331.56972399982624,331.58669929997995,331.58669929997995,331.58669929997995,332.6701360999141,right,1.0,89.08632930018939,,,,,,,,,,,,,,,,,,,,,,,,,,,,,,,sub-066,1.0,random_dot,60.333099033566384,
left,left,speed,,,,,0.0,1.0,1.0,1.0,12.0,0.0,24.0,0.0,332.68582429992966,,,,,,,,,332.67083740001544,332.78620209987275,333.5872855000198,333.5700627998449,333.57007979997434,333.5872855000198,333.5872855000198,333.5872855000198,335.05430600000545,right,0.0,89.46602779999375,,,,,,,,,,,,,,,,,,,,,,,,,,,,,,,sub-066,1.0,random_dot,60.333099033566384,
right,right,speed,,,,,0.0,1.0,1.0,1.0,12.0,1.0,25.0,1.0,335.0697667999193,,,,,,,,,335.0550639999565,335.4192335999105,336.2199611000251,336.2033644998446,336.2033795998432,336.2199611000251,336.2199611000251,336.2199611000251,337.104375799885,right,1.0,88.89088049996644,,,,,,,,,,,,,,,,,,,,,,,,,,,,,,,sub-066,1.0,random_dot,60.333099033566384,
left,left,speed,,,,,0.0,1.0,1.0,1.0,13.0,0.0,26.0,0.0,337.11958679999225,,,,,,,,,337.10507429996505,337.4698489999864,338.2695521998685,338.25275059998967,338.25276750000194,338.2695521998685,338.2695521998685,338.2695521998685,339.1368237999268,left,1.0,88.86943279998377,,,,,,,,,,,,,,,,,,,,,,,,,,,,,,,sub-066,1.0,random_dot,60.333099033566384,
right,right,speed,,,,,0.0,1.0,1.0,1.0,13.0,1.0,27.0,1.0,339.1525596999563,,,,,,,,,339.13744509988464,339.9522031999659,340.75298009999096,340.73669769987464,340.7367120999843,340.75298009999096,340.75298009999096,340.75298009999096,341.27046659984626,right,1.0,88.52471480006352,,,,,,,,,,,,,,,,,,,,,,,,,,,,,,,sub-066,1.0,random_dot,60.333099033566384,
left,left,speed,,,,,0.0,1.0,1.0,1.0,14.0,0.0,28.0,0.0,341.2861395999789,,,,,,,,,341.2713808999397,341.635871599894,342.4370438999031,342.41974889999256,342.419764299877,342.4370438999031,342.4370438999031,342.4370438999031,342.83741909987293,left,1.0,88.39798290003091,,,,,,,,,,,,,,,,,,,,,,,,,,,,,,,sub-066,1.0,random_dot,60.333099033566384,
right,right,speed,,,,,0.0,1.0,1.0,1.0,14.0,1.0,29.0,1.0,342.8527997999918,,,,,,,,,342.8380968000274,344.05272389994934,344.8529888000339,344.8363190998789,344.83633659989573,344.8529888000339,344.8529888000339,344.8529888000339,345.8372597999405,right,1.0,88.99619559990242,,,,,,,,,,,,,,,,,,,,,,,,,,,,,,,sub-066,1.0,random_dot,60.333099033566384,
left,left,speed,,,,,0.0,1.0,1.0,1.0,15.0,0.0,30.0,0.0,345.85283009987324,,,,,,,,,345.8379668998532,346.6529242999386,347.4527375998441,347.43647659989074,347.4364944000263,347.4527375998441,347.4527375998441,347.4527375998441,348.13679079990834,left,1.0,88.69403740018606,,,,,,,,,,,,,,,,,,,,,,,,,,,,,,,sub-066,1.0,random_dot,60.333099033566384,
right,right,speed,,,,,0.0,1.0,1.0,1.0,15.0,1.0,31.0,1.0,348.152657300001,,,,,,,,,348.13748799986206,348.9528574999422,349.75325639988296,349.736262699822,349.7362778999377,349.75325639988296,349.75325639988296,349.75325639988296,350.38685359992087,right,1.0,88.63410980021581,,,,,,,,,,,,,,,,,,,,,,,,,,,,,,,sub-066,1.0,random_dot,60.333099033566384,
right,right,speed,,,,,0.0,1.0,1.0,1.0,16.0,0.0,32.0,1.0,350.4027215000242,,,,,,,,,350.387556700036,350.75285799987614,351.553269200027,351.5367238998879,351.5367385998834,351.553269200027,351.553269200027,351.553269200027,352.32075660000555,right,1.0,88.76523680007085,,,,,,,,,,,,,,,,,,,,,,,,,,,,,,,sub-066,1.0,random_dot,60.333099033566384,
left,left,speed,,,,,0.0,1.0,1.0,1.0,16.0,1.0,33.0,0.0,352.33590939990245,,,,,,,,,352.3214141000062,352.4360225000419,353.23611659999005,353.22016769996844,353.2201848998666,353.23611659999005,353.23611659999005,353.23611659999005,353.6706289998256,left,1.0,88.44478620006703,,,,,,,,,,,,,,,,,,,,,,,,,,,,,,,sub-066,1.0,random_dot,60.333099033566384,
left,left,speed,,,,,0.0,1.0,1.0,1.0,17.0,0.0,34.0,0.0,353.68604059983045,,,,,,,,,353.671355499886,354.0361385999713,354.8363022999838,354.8201170999091,354.8201319000218,354.8363022999838,354.8363022999838,354.8363022999838,355.7205081998836,right,0.0,88.8945601999294,,,,,,,,,,,,,,,,,,,,,,,,,,,,,,,sub-066,1.0,random_dot,60.333099033566384,
right,right,speed,,,,,0.0,1.0,1.0,1.0,17.0,1.0,35.0,1.0,355.7359958998859,,,,,,,,,355.7212318999227,356.5361271998845,357.33637050003745,357.3202203998808,357.32024020003155,357.33637050003745,357.33637050003745,357.33637050003745,358.17066859989427,left,0.0,88.84724720008671,,,,,,,,,,,,,,,,,,,,,,,,,,,,,,,sub-066,1.0,random_dot,60.333099033566384,
left,left,speed,,,,,0.0,1.0,1.0,1.0,18.0,0.0,36.0,0.0,358.1860078999307,,,,,,,,,358.17146679991856,359.3861719998531,360.1867992999032,360.16975150001235,360.16976600000635,360.1867992999032,360.1867992999032,360.1867992999032,360.9204813998658,left,1.0,88.74535800004378,,,,,,,,,,,,,,,,,,,,,,,,,,,,,,,sub-066,1.0,random_dot,60.333099033566384,
right,right,speed,,,,,0.0,1.0,1.0,1.0,18.0,1.0,37.0,1.0,360.9359031999484,,,,,,,,,360.92114580003545,361.7363690000493,362.53654580004513,362.5198582999874,362.5198728998657,362.53654580004513,362.53654580004513,362.53654580004513,363.1875118999742,right,1.0,88.6638964000158,,,,,,,,,,,,,,,,,,,,,,,,,,,,,,,sub-066,1.0,random_dot,60.333099033566384,
left,left,speed,,,,,0.0,1.0,1.0,1.0,19.0,0.0,38.0,0.0,363.2025806000456,,,,,,,,,363.188252300024,363.3022226998583,364.10355999995954,364.0863995999098,364.0864140999038,364.10355999995954,364.10355999995954,364.10355999995954,365.13700919994153,left,1.0,89.03773179999553,,,,,,,,,,,,,,,,,,,,,,,,,,,,,,,sub-066,1.0,random_dot,60.333099033566384,
right,right,speed,,,,,0.0,1.0,1.0,1.0,19.0,1.0,39.0,1.0,365.15262219985016,,,,,,,,,365.1377065998968,365.253145399969,366.053225300042,366.0360075000208,366.0360222000163,366.053225300042,366.053225300042,366.053225300042,366.603778099874,right,1.0,88.55638480023481,,,,,,,,,,,,,,,,,,,,,,,,,,,,,,,sub-066,1.0,random_dot,60.333099033566384,
left,left,speed,,,,,0.0,1.0,1.0,1.0,20.0,0.0,40.0,0.0,366.61931229988113,,,,,,,,,366.60447969986126,366.96935479994863,367.7698701999616,367.7529895999469,367.7530037998222,367.7698701999616,367.7698701999616,367.7698701999616,368.55400640005246,left,1.0,88.79543270007707,,,,,,,,,,,,,,,,,,,,,,,,,,,,,,,sub-066,1.0,random_dot,60.333099033566384,
right,right,speed,,,,,0.0,1.0,1.0,1.0,20.0,1.0,41.0,1.0,368.5693279998377,,,,,,,,,368.554641299881,368.9194821999408,369.7200499998871,369.7032887998503,369.7033059999813,369.7200499998871,369.7200499998871,369.7200499998871,370.7876548999921,right,1.0,89.06476649991237,,,,,,,,,,,,,,,,,,,,,,,,,,,,,,,sub-066,1.0,random_dot,60.333099033566384,
left,left,speed,,,,,0.0,1.0,1.0,1.0,21.0,0.0,42.0,0.0,370.8030121999327,,,,,,,,,370.7884672000073,371.6025674999692,372.40289649995975,372.3866365998984,372.3866526999045,372.40289649995975,372.40289649995975,372.40289649995975,372.9371509999037,left,1.0,88.53825039998628,,,,,,,,,,,,,,,,,,,,,,,,,,,,,,,sub-066,1.0,random_dot,60.333099033566384,
right,right,speed,,,,,0.0,1.0,1.0,1.0,21.0,1.0,43.0,1.0,372.9522561000194,,,,,,,,,372.93788169999607,373.30275929998606,374.10313079995103,374.08654149994254,374.0865575999487,374.10313079995103,374.10313079995103,374.10313079995103,374.92057810002007,right,1.0,88.8302595000714,,,,,,,,,,,,,,,,,,,,,,,,,,,,,,,sub-066,1.0,random_dot,60.333099033566384,
left,left,speed,,,,,0.0,1.0,1.0,1.0,22.0,0.0,44.0,0.0,374.9356414999347,,,,,,,,,374.921297899913,375.285997999832,376.0864194999449,376.0698148999363,376.06982899992727,376.0864194999449,376.0864194999449,376.0864194999449,376.45388679998,left,1.0,88.3732302999124,,,,,,,,,,,,,,,,,,,,,,,,,,,,,,,sub-066,1.0,random_dot,60.333099033566384,
right,right,speed,,,,,0.0,1.0,1.0,1.0,22.0,1.0,45.0,1.0,376.46891930000857,,,,,,,,,376.4545831999276,376.5692821999546,377.3696579998359,377.353541099932,377.3535577999428,377.3696579998359,377.3696579998359,377.3696579998359,377.920125399949,right,1.0,88.5601615998894,,,,,,,,,,,,,,,,,,,,,,,,,,,,,,,sub-066,1.0,random_dot,60.333099033566384,
right,right,speed,,,,,0.0,1.0,1.0,1.0,23.0,0.0,46.0,1.0,377.9359364998527,,,,,,,,,377.9208368000109,379.1362204998732,379.9364093998447,379.919733799994,379.9197555999272,379.9364093998447,379.9364093998447,379.9364093998447,380.3208365000319,left,0.0,88.38161290017888,,,,,,,,,,,,,,,,,,,,,,,,,,,,,,,sub-066,1.0,random_dot,60.333099033566384,
left,left,speed,,,,,0.0,1.0,1.0,1.0,23.0,1.0,47.0,0.0,380.33567649987526,,,,,,,,,380.3216605000198,381.5361347999424,382.3360919000115,382.32002099999227,382.3200354999863,382.3360919000115,382.3360919000115,382.3360919000115,382.9037378998473,left,1.0,88.57766130007803,,,,,,,,,,,,,,,,,,,,,,,,,,,,,,,sub-066,1.0,random_dot,60.333099033566384,
right,right,speed,,,,,0.0,1.0,1.0,1.0,24.0,0.0,48.0,1.0,382.9191794998478,,,,,,,,,382.9044492000248,384.1193084998522,384.9199935998768,384.903071800014,384.9030867998954,384.9199935998768,384.9199935998768,384.9199935998768,385.3535771998577,left,0.0,88.43716820003465,,,,,,,,,,,,,,,,,,,,,,,,,,,,,,,sub-066,1.0,random_dot,60.333099033566384,
left,left,speed,,,,,0.0,1.0,1.0,1.0,24.0,1.0,49.0,0.0,385.3694231999106,,,,,,,,,385.3542684998829,385.4696500999853,386.2693731999025,386.2527033998631,386.25271929986775,386.2693731999025,386.2693731999025,386.2693731999025,386.9208742999472,left,1.0,88.66420160001144,,,,,,,,,,,,,,,,,,,,,,,,,,,,,,,sub-066,1.0,random_dot,60.333099033566384,
right,right,speed,,,,,0.0,1.0,1.0,1.0,25.0,0.0,50.0,1.0,386.9359979999717,,,,,,,,,386.92163729993626,387.0356520998757,387.83644129987806,387.8196317998227,387.819647999946,387.83644129987806,387.83644129987806,387.83644129987806,388.6377153999638,left,0.0,88.81420670007356,,,,,,,,,,,,,,,,,,,,,,,,,,,,,,,sub-066,1.0,random_dot,60.333099033566384,
left,left,speed,,,,,0.0,1.0,1.0,1.0,25.0,1.0,51.0,0.0,388.6527076000348,,,,,,,,,388.638437199872,389.0026521999389,389.803071500035,389.78666480001993,389.78668099991046,389.803071500035,389.803071500035,389.803071500035,390.6370236999355,left,1.0,88.84328559995629,,,,,,,,,,,,,,,,,,,,,,,,,,,,,,,sub-066,1.0,random_dot,60.333099033566384,
left,left,speed,,,,,0.0,1.0,1.0,1.0,26.0,0.0,52.0,0.0,390.65290169999935,,,,,,,,,390.6377250000369,390.7525871999096,391.5530628999695,391.5361895000096,391.5362031999976,391.5530628999695,391.5530628999695,391.5530628999695,392.1541609999258,left,1.0,88.60676490003243,,,,,,,,,,,,,,,,,,,,,,,,,,,,,,,sub-066,1.0,random_dot,60.333099033566384,
right,right,speed,,,,,0.0,1.0,1.0,1.0,26.0,1.0,53.0,1.0,392.1688687000424,,,,,,,,,392.1550884998869,392.2690093999263,393.0702024998609,393.0536078000441,393.0536247999408,393.0702024998609,393.0702024998609,393.0702024998609,393.95389269990847,left,0.0,88.89667619997635,,,,,,,,,,,,,,,,,,,,,,,,,,,,,,,sub-066,1.0,random_dot,60.333099033566384,
right,right,speed,,,,,0.0,1.0,1.0,1.0,27.0,0.0,54.0,1.0,393.9695786000229,,,,,,,,,393.9545919999946,394.7691968998406,395.5700123000424,395.55287699983455,395.5528917999473,395.5700123000424,395.5700123000424,395.5700123000424,396.2368258000352,right,1.0,88.6785088002216,,,,,,,,,,,,,,,,,,,,,,,,,,,,,,,sub-066,1.0,random_dot,60.333099033566384,
left,left,speed,,,,,0.0,1.0,1.0,1.0,27.0,1.0,55.0,0.0,396.2525414999109,,,,,,,,,396.23754510004073,396.6026463999879,397.4030672998633,397.3861300998833,397.38614550000057,397.4030672998633,397.4030672998633,397.4030672998633,398.120534799993,left,1.0,88.73029009997845,,,,,,,,,,,,,,,,,,,,,,,,,,,,,,,sub-066,1.0,random_dot,60.333099033566384,
left,left,speed,,,,,0.0,1.0,1.0,1.0,28.0,0.0,56.0,0.0,398.135426599998,,,,,,,,,398.1212505998556,399.3359346999787,400.1360216999892,400.1198596998584,400.1198750999756,400.1360216999892,400.1360216999892,400.1360216999892,400.65378009993583,left,1.0,88.5204998999834,,,,,,,,,,,,,,,,,,,,,,,,,,,,,,,sub-066,1.0,random_dot,60.333099033566384,
right,right,speed,,,,,0.0,1.0,1.0,1.0,28.0,1.0,57.0,1.0,400.6692353999242,,,,,,,,,400.6545853000134,401.8693223998416,402.6700359999668,402.6530704998877,402.6530879999045,402.6700359999668,402.6700359999668,402.6700359999668,404.02022239984944,right,1.0,89.35502910008654,,,,,,,,,,,,,,,,,,,,,,,,,,,,,,,sub-066,1.0,random_dot,60.333099033566384,
right,right,speed,,,,,0.0,1.0,1.0,1.0,29.0,0.0,58.0,1.0,404.036053000018,,,,,,,,,404.0209301998839,404.3857811000198,405.186337799998,405.1697996999137,405.1698177999351,405.186337799998,405.186337799998,405.186337799998,405.8368466999382,left,0.0,88.65658580022864,,,,,,,,,,,,,,,,,,,,,,,,,,,,,,,sub-066,1.0,random_dot,60.333099033566384,
left,left,speed,,,,,0.0,1.0,1.0,1.0,29.0,1.0,59.0,0.0,405.8527152999304,,,,,,,,,405.837664199993,406.2022279000376,407.0029942998663,406.986175699858,406.98619189998135,407.0029942998663,407.0029942998663,407.0029942998663,408.08674969989806,left,1.0,89.08078770013526,,,,,,,,,,,,,,,,,,,,,,,,,,,,,,,sub-066,1.0,random_dot,60.333099033566384,
,,speed,,,,,0.0,1.0,1.0,1.0,,,,,,,,,,,,,,,,,,,,,,,,,,,,,,,,,,,,,,,,,,,,,,,,,,,,,,,,sub-066,1.0,random_dot,60.333099033566384,
,,,,,,,,,,,,,,,,,,,,,,,,,,,,,,,,,,,,,,,,,,,,,,,,,,,,,,,,,,,,,,408.0873296998907,408.1023637999315,413.102049899986,413.0858060999308,sub-066,,,,
