direction,corrAns,randomInstr,practice_trials.thisRepN,practice_trials.thisTrialN,practice_trials.thisN,practice_trials.thisIndex,instr_trials.thisRepN,instr_trials.thisTrialN,instr_trials.thisN,instr_trials.thisIndex,test_trials.thisRepN,test_trials.thisTrialN,test_trials.thisN,test_trials.thisIndex,thisRow.t,notes,general_instruction.started,textGeneralInstr.started,respGeneralInstr.started,general_instruction.stopped,respGeneralInstr.keys,respGeneralInstr.rt,respGeneralInstr.duration,ITI.started,fixcross.started,fixcross.stopped,ITI.stopped,dots.started,backgroundDots.started,stimulusDots.started,respDots.started,dots.stopped,respDots.keys,respDots.corr,respDots.rt,respDots.duration,feedback.started,textFeedback.started,textFeedback.stopped,feedback.stopped,info.started,textInfo.started,keyRespInfo.started,info.stopped,keyRespInfo.keys,keyRespInfo.rt,keyRespInfo.duration,test_instruction.started,textTestInstr.started,respTestInstr.started,test_instruction.stopped,respTestInstr.keys,respTestInstr.rt,respTestInstr.duration,random_instruction.started,textRandomInstr.started,respRandomInstr.started,random_instruction.stopped,respRandomInstr.keys,respRandomInstr.rt,respRandomInstr.duration,stimulusDots.stopped,goodbye.started,textGoodbye.started,goodbye.stopped,participant,session,expName,frameRate,Unnamed: 73
,,,,,,,,,,,,,,,,,0.0037284999853,0.0080236999783664,0.0080236999783664,1.159536199993454,space,19.167720400029797,,,,,,,,,,,,,,,,,,,,,,,,,,,,,,,,,,,,,,,,,,,,sub-229,1.0,random_dot,60.02808112655261,
right,right,,0.0,0.0,0.0,1.0,,,,,,,,,1.1749050000216812,,,,,,,,,1.1714985000435263,2.373351000016555,3.17827859998215,3.157495699939318,3.157545299967751,3.17827859998215,3.17827859998215,3.17827859998215,4.540302000008524,right,1.0,19.36810069996864,,4.540906799957156,4.5552390000084415,5.0553431999869645,5.040147199993953,,,,,,,,,,,,,,,,,,,,,,,,,,sub-229,1.0,random_dot,60.02808112655261,
left,left,,0.0,1.0,1.0,0.0,,,,,,,,,5.0553431999869645,,,,,,,,,5.041343000018969,5.854510599980131,6.655054399976507,6.638878799974918,6.63893559994176,6.655054399976507,6.655054399976507,6.655054399976507,7.70505939994473,left,1.0,19.055231699952856,,7.705561600043438,7.719893099972978,8.219644399941899,8.203856599982828,,,,,,,,,,,,,,,,,,,,,,,,,,sub-229,1.0,random_dot,60.02808112655261,
left,left,,1.0,0.0,2.0,0.0,,,,,,,,,8.219644399941899,,,,,,,,,8.204450799967162,9.4190466,10.219523799954914,10.202839200035667,10.202877899981104,10.219523799954914,10.219523799954914,10.219523799954914,13.085751999984495,left,1.0,20.87289349990897,,13.08664090000093,13.100123799988069,13.59972249995917,13.584081599954516,,,,,,,,,,,,,,,,,,,,,,,,,,sub-229,1.0,random_dot,60.02808112655261,
right,right,,1.0,1.0,3.0,1.0,,,,,,,,,13.59972249995917,,,,,,,,,13.58487439993769,13.699914199998602,14.500056099961512,14.484398699947633,14.484471400035543,14.500056099961512,14.500056099961512,14.500056099961512,15.551153299980797,right,1.0,19.059913699980825,,15.552144899964333,15.56532369996421,16.065195200033486,16.050123499939218,,,,,,,,,,,,,,,,,,,,,,,,,,sub-229,1.0,random_dot,60.02808112655261,
right,right,,2.0,0.0,4.0,1.0,,,,,,,,,16.065195200033486,,,,,,,,,16.05128330003936,17.264478500001132,18.064787999959663,18.048291399958543,18.048340399982408,18.064787999959663,18.064787999959663,18.064787999959663,19.58317200001329,right,1.0,19.52670609997585,,19.584883700008504,19.5962347999448,20.09597699996084,20.080528300022703,,,,,,,,,,,,,,,,,,,,,,,,,,sub-229,1.0,random_dot,60.02808112655261,
left,left,,2.0,1.0,5.0,0.0,,,,,,,,,20.09597699996084,,,,,,,,,20.08158120000735,20.19863380002789,21.012823099968955,20.99620519997552,20.99624110001605,21.012823099968955,21.012823099968955,21.012823099968955,22.013141499948688,left,1.0,19.005808799993247,,22.013735000044107,22.02790320001077,22.52770380000584,22.51244860002771,,,,,,,,,,,,,,,,,,,,,,,,,,sub-229,1.0,random_dot,60.02808112655261,
right,right,,3.0,0.0,6.0,1.0,,,,,,,,,22.52770380000584,,,,,,,,,22.513480599969625,22.62758189998567,23.42800900002476,23.411583599983715,23.41162429994438,23.42800900002476,23.42800900002476,23.42800900002476,24.145544599974528,right,1.0,18.72208129998762,,24.146309499978088,24.159982900018804,24.65958510001656,24.64396419993136,,,,,,,,,,,,,,,,,,,,,,,,,,sub-229,1.0,random_dot,60.02808112655261,
left,left,,3.0,1.0,7.0,0.0,,,,,,,,,24.65958510001656,,,,,,,,,24.64471409993712,25.85903019993566,26.659329399932176,26.643342799972743,26.643404599977657,26.659329399932176,26.659329399932176,26.659329399932176,27.49371990002692,left,1.0,18.84060990007129,,27.49466810002923,27.507890100008808,28.00757270003669,27.991955199977383,,,,,,,,,,,,,,,,,,,,,,,,,,sub-229,1.0,random_dot,60.02808112655261,
left,left,,4.0,0.0,8.0,0.0,,,,,,,,,28.00757270003669,,,,,,,,,27.99271429993678,29.207061699940823,30.00724129995797,29.99138180003501,29.991445799940266,30.00724129995797,30.00724129995797,30.00724129995797,32.54148220003117,right,0.0,20.545129199977964,,32.54297549999319,32.557560199988075,,33.054765500011854,,,,,,,,,,,,,,,,,,,,,,,,,,sub-229,1.0,random_dot,60.02808112655261,
right,right,,4.0,1.0,9.0,1.0,,,,,,,,,33.07115420000628,,,,,,,,,33.055609500035644,33.8539005999919,34.65458670002408,34.63852709997445,34.638589399983175,34.65458670002408,34.65458670002408,34.65458670002408,35.82196329999715,right,1.0,19.17505620000884,,35.8229258999927,35.83621730003506,36.33581600000616,36.32014279998839,,,,,,,,,,,,,,,,,,,,,,,,,,sub-229,1.0,random_dot,60.02808112655261,
left,left,,5.0,0.0,10.0,0.0,,,,,,,,,36.33581600000616,,,,,,,,,36.32086480001453,37.135324600036256,37.93564669997431,37.91910009994172,37.919137299992144,37.93564669997431,37.93564669997431,37.93564669997431,38.70348689996172,left,1.0,18.775311999954283,,38.70448259997647,38.71779130003415,39.21730659995228,39.20127229997888,,,,,,,,,,,,,,,,,,,,,,,,,,sub-229,1.0,random_dot,60.02808112655261,
right,right,,5.0,1.0,11.0,1.0,,,,,,,,,39.21730659995228,,,,,,,,,39.20170039997902,40.41687479999382,41.217067099991255,41.20044859999325,41.20048979995772,41.217067099991255,41.217067099991255,41.217067099991255,42.06772319995798,right,1.0,18.863216100027785,,42.06837660004385,42.0822143999394,42.58198549994268,42.56627489998937,,,,,,,,,,,,,,,,,,,,,,,,,,sub-229,1.0,random_dot,60.02808112655261,
right,right,,6.0,0.0,12.0,1.0,,,,,,,,,42.58198549994268,,,,,,,,,42.567007299978286,43.38147429993842,44.18205269996543,44.1659155000234,44.165977900032885,44.18205269996543,44.18205269996543,44.18205269996543,45.46666609996464,right,1.0,19.29608979995828,,45.46796559996437,45.480260299984366,45.97977029997856,45.96377469995059,,,,,,,,,,,,,,,,,,,,,,,,,,sub-229,1.0,random_dot,60.02808112655261,
left,left,,6.0,1.0,13.0,0.0,,,,,,,,,45.97977029997856,,,,,,,,,45.96417219995055,46.77930609998293,47.57974329998251,47.56326109997463,47.56330169993453,47.57974329998251,47.57974329998251,47.57974329998251,48.71464769996237,left,1.0,19.14962039992679,,48.71598700003233,48.72825219994411,49.228070899960585,49.21287219994701,,,,,,,,,,,,,,,,,,,,,,,,,,sub-229,1.0,random_dot,60.02808112655261,
right,right,,7.0,0.0,14.0,1.0,,,,,,,,,49.228070899960585,,,,,,,,,49.214081799960695,50.0272633000277,50.82799499994144,50.81186519993935,50.81192839995492,50.82799499994144,50.82799499994144,50.82799499994144,51.77882939996198,right,1.0,18.96091050002724,,51.77969889994711,51.79298230004497,52.29275200003758,52.276889299973845,,,,,,,,,,,,,,,,,,,,,,,,,,sub-229,1.0,random_dot,60.02808112655261,
left,left,,7.0,1.0,15.0,0.0,,,,,,,,,52.29275200003758,,,,,,,,,52.27766060002614,53.49196200002916,54.29216389998328,54.27533440000843,54.2753750999691,54.29216389998328,54.29216389998328,54.29216389998328,55.29307969997171,left,1.0,19.014598399982788,,55.29395860002842,55.30738430004567,55.80728259996977,55.79173169995192,,,,,,,,,,,,,,,,,,,,,,,,,,sub-229,1.0,random_dot,60.02808112655261,
right,right,,8.0,0.0,16.0,1.0,,,,,,,,,55.80728259996977,,,,,,,,,55.792695399955846,56.15712560003158,56.95730589993764,56.940326699987054,56.94034540001303,56.95730589993764,56.95730589993764,56.95730589993764,57.77529020002112,right,1.0,18.83005590003449,,57.77639110002201,57.78923500003293,58.289018300012685,58.27336310001556,,,,,,,,,,,,,,,,,,,,,,,,,,sub-229,1.0,random_dot,60.02808112655261,
left,left,,8.0,1.0,17.0,0.0,,,,,,,,,58.289018300012685,,,,,,,,,58.27400610002224,58.6387072999496,59.43923589994665,59.42305280000437,59.42310789995827,59.43923589994665,59.43923589994665,59.43923589994665,60.62345499999356,right,0.0,19.18951559998095,,60.624470700044185,60.63747219997458,61.13725110003725,61.1215786000248,,,,,,,,,,,,,,,,,,,,,,,,,,sub-229,1.0,random_dot,60.02808112655261,
left,left,,9.0,0.0,18.0,0.0,,,,,,,,,61.13725110003725,,,,,,,,,61.12228310003411,61.93675729993265,62.73709279997274,62.72006409999449,62.72008560004178,62.73709279997274,62.73709279997274,62.73709279997274,65.70375620003324,left,1.0,20.98267460009083,,65.7048369999975,65.7177133000223,66.21738329995424,66.2013635999756,,,,,,,,,,,,,,,,,,,,,,,,,,sub-229,1.0,random_dot,60.02808112655261,
right,right,,9.0,1.0,19.0,1.0,,,,,,,,,66.21738329995424,,,,,,,,,66.20175609993748,66.5673906999873,67.36734460003208,67.35030769999139,67.35032309999224,67.36734460003208,67.36734460003208,67.36734460003208,68.48595450003631,right,1.0,19.1377476999769,,68.48717750003561,68.49938990001101,68.9991267999867,68.9829475999577,,,,,,,,,,,,,,,,,,,,,,,,,,sub-229,1.0,random_dot,60.02808112655261,
,,,,,,,,,,,,,,,,,,,,,,,,,,,,,,,,,,,,,,,,,68.98301159997936,68.9991267999867,68.9991267999867,70.99875230004545,space,20.00421279994771,,,,,,,,,,,,,,,,,,,,sub-229,1.0,random_dot,60.02808112655261,
,,,,,,,,,,,,,,,,,,,,,,,,,,,,,,,,,,,,,,,,,,,,,,,,70.99878210003953,71.01479799998924,71.01479799998924,72.08241249993443,space,19.083711700048298,,,,,,,,,,,,,sub-229,1.0,random_dot,60.02808112655261,
left,left,speed,,,,,0.0,0.0,0.0,1.0,0.0,0.0,0.0,0.0,72.94666080002207,,,,,,,,,72.93837290001102,73.74616370000876,74.54657549993135,74.5297424000455,74.52977559994906,74.54657549993135,74.54657549993135,74.54657549993135,75.34688850003295,right,0.0,18.81286849989556,,,,,,,,,,,,,,,,,,,,72.08939790003933,72.11082429997623,72.11082429997623,72.93168000003789,space,18.831679900060408,,,,,,sub-229,1.0,random_dot,60.02808112655261,
right,right,speed,,,,,0.0,0.0,0.0,1.0,0.0,1.0,1.0,1.0,75.36167320003733,,,,,,,,,75.34821269998793,75.71267739997711,76.52870290004648,76.51194380002562,76.51197270001285,76.52870290004648,76.52870290004648,76.52870290004648,77.3632969999453,right,1.0,18.85432029992808,,,,,,,,,,,,,,,,,,,,,,,,,,,,,,,sub-229,1.0,random_dot,60.02808112655261,
left,left,speed,,,,,0.0,0.0,0.0,1.0,1.0,0.0,2.0,0.0,77.37718149996363,,,,,,,,,77.3650252999505,77.47739859996364,78.27765589999035,78.2613678999478,78.26141689997166,78.27765589999035,78.27765589999035,78.27765589999035,78.97762709995732,left,1.0,18.71869919996243,,,,,,,,,,,,,,,,,,,,,,,,,,,,,,,sub-229,1.0,random_dot,60.02808112655261,
right,right,speed,,,,,0.0,0.0,0.0,1.0,1.0,1.0,3.0,1.0,78.99273229995742,,,,,,,,,78.97831239993684,79.3429146000417,80.14299680001568,80.12616340001114,80.12618949997704,80.14299680001568,80.14299680001568,80.14299680001568,81.09365079994313,right,1.0,18.967373799998317,,,,,,,,,,,,,,,,,,,,,,,,,,,,,,,sub-229,1.0,random_dot,60.02808112655261,
left,left,speed,,,,,0.0,0.0,0.0,1.0,2.0,0.0,4.0,0.0,81.10790669999551,,,,,,,,,81.09514450002462,81.90777920000255,82.70824720000383,82.69186320004519,82.69191259995569,82.70824720000383,82.70824720000383,82.70824720000383,83.37693779997062,left,1.0,18.672233800054528,,,,,,,,,,,,,,,,,,,,,,,,,,,,,,,sub-229,1.0,random_dot,60.02808112655261,
right,right,speed,,,,,0.0,0.0,0.0,1.0,2.0,1.0,5.0,1.0,83.39045339997392,,,,,,,,,83.37992450001184,84.5896809999831,85.40612259996124,85.38892980001401,85.38894179998897,85.40612259996124,85.40612259996124,85.40612259996124,86.15766759996768,right,1.0,18.76830389990937,,,,,,,,,,,,,,,,,,,,,,,,,,,,,,,sub-229,1.0,random_dot,60.02808112655261,
right,right,speed,,,,,0.0,0.0,0.0,1.0,3.0,0.0,6.0,1.0,86.17180450004525,,,,,,,,,86.1595273000421,86.5215312000364,87.32202379999217,87.30544519994874,87.30548550002277,87.32202379999217,87.32202379999217,87.32202379999217,88.60592580004595,right,1.0,19.290133300004527,,,,,,,,,,,,,,,,,,,,,,,,,,,,,,,sub-229,1.0,random_dot,60.02808112655261,
left,left,speed,,,,,0.0,0.0,0.0,1.0,3.0,1.0,7.0,0.0,88.62020550004672,,,,,,,,,88.60767399996985,88.72030149993952,89.52090709994081,89.50473599997349,89.5047972999746,89.52090709994081,89.52090709994081,89.52090709994081,90.68867740000132,left,1.0,19.17347080004401,,,,,,,,,,,,,,,,,,,,,,,,,,,,,,,sub-229,1.0,random_dot,60.02808112655261,
left,left,speed,,,,,0.0,0.0,0.0,1.0,4.0,0.0,8.0,0.0,90.70244829996956,,,,,,,,,90.6910523000406,90.8022352999542,91.60266380000394,91.58561609999742,91.58563859993592,91.60266380000394,91.60266380000394,91.60266380000394,95.03607210004702,right,0.0,21.448781999992207,,,,,,,,,,,,,,,,,,,,,,,,,,,,,,,sub-229,1.0,random_dot,60.02808112655261,
right,right,speed,,,,,0.0,0.0,0.0,1.0,4.0,1.0,9.0,1.0,95.0497276999522,,,,,,,,,95.03845789993647,95.84946149995083,96.64956149994396,96.63299369998276,96.63303529995028,96.64956149994396,96.64956149994396,96.64956149994396,97.4167711000191,right,1.0,18.784785700030625,,,,,,,,,,,,,,,,,,,,,,,,,,,,,,,sub-229,1.0,random_dot,60.02808112655261,
left,left,speed,,,,,0.0,0.0,0.0,1.0,5.0,0.0,10.0,0.0,97.43146370002069,,,,,,,,,97.41788810002618,97.7814561999403,98.5817869999446,98.56475949997548,98.56478519993834,98.5817869999446,98.5817869999446,98.5817869999446,99.33359089994336,left,1.0,18.76406669989228,,,,,,,,,,,,,,,,,,,,,,,,,,,,,,,sub-229,1.0,random_dot,60.02808112655261,
right,right,speed,,,,,0.0,0.0,0.0,1.0,5.0,1.0,11.0,1.0,99.34709019993898,,,,,,,,,99.33620829996651,99.44683929998428,100.24739759997463,100.23078220000023,100.23082259995864,100.24739759997463,100.24739759997463,100.24739759997463,101.24842830002308,right,1.0,19.02004059997853,,,,,,,,,,,,,,,,,,,,,,,,,,,,,,,sub-229,1.0,random_dot,60.02808112655261,
right,right,speed,,,,,0.0,0.0,0.0,1.0,6.0,0.0,12.0,1.0,101.2625331999734,,,,,,,,,101.25024510000368,101.36272189999,102.1629281999776,102.14660219999496,102.14665220002644,102.1629281999776,102.1629281999776,102.1629281999776,103.21377449994908,left,0.0,19.05920789996162,,,,,,,,,,,,,,,,,,,,,,,,,,,,,,,sub-229,1.0,random_dot,60.02808112655261,
left,left,speed,,,,,0.0,0.0,0.0,1.0,6.0,1.0,13.0,0.0,103.22806899994612,,,,,,,,,103.21565160003956,104.4274578000186,105.22764880000614,105.21127079997676,105.21131349995268,105.22764880000614,105.22764880000614,105.22764880000614,106.0448519999627,left,1.0,18.82645249995403,,,,,,,,,,,,,,,,,,,,,,,,,,,,,,,sub-229,1.0,random_dot,60.02808112655261,
right,right,speed,,,,,0.0,0.0,0.0,1.0,7.0,0.0,14.0,1.0,106.05951199994888,,,,,,,,,106.0460704000434,107.2590673000086,108.059217800037,108.0432812999934,108.04334410000592,108.059217800037,108.059217800037,108.059217800037,108.9272996999789,right,1.0,18.886965399957266,,,,,,,,,,,,,,,,,,,,,,,,,,,,,,,sub-229,1.0,random_dot,60.02808112655261,
left,left,speed,,,,,0.0,0.0,0.0,1.0,7.0,1.0,15.0,0.0,108.9411831999896,,,,,,,,,108.92934319993948,109.29111250001006,110.09148339997046,110.07557690003888,110.07569670001976,110.09148339997046,110.09148339997046,110.09148339997046,110.92639139993116,left,1.0,18.8415850000456,,,,,,,,,,,,,,,,,,,,,,,,,,,,,,,sub-229,1.0,random_dot,60.02808112655261,
left,left,speed,,,,,0.0,0.0,0.0,1.0,8.0,0.0,16.0,0.0,110.93981569993775,,,,,,,,,110.92917589994612,112.1391654999461,112.93953790003434,112.92261659994256,112.92263950000051,112.93953790003434,112.93953790003434,112.93953790003434,115.72201959998348,left,1.0,20.794700799975544,,,,,,,,,,,,,,,,,,,,,,,,,,,,,,,sub-229,1.0,random_dot,60.02808112655261,
right,right,speed,,,,,0.0,0.0,0.0,1.0,8.0,1.0,17.0,1.0,115.7368099000305,,,,,,,,,115.72287289996166,116.53671100002248,117.3371296999976,117.32097699993756,117.32104029995388,117.3371296999976,117.3371296999976,117.3371296999976,117.97099239996167,right,1.0,18.65416659996845,,,,,,,,,,,,,,,,,,,,,,,,,,,,,,,sub-229,1.0,random_dot,60.02808112655261,
left,left,speed,,,,,0.0,0.0,0.0,1.0,9.0,0.0,18.0,0.0,117.98550319997594,,,,,,,,,117.97195419995114,119.18487819994334,119.98504649999086,119.96864800003824,119.96868699998596,119.98504649999086,119.98504649999086,119.98504649999086,121.13556880003308,right,0.0,19.164477800019085,,,,,,,,,,,,,,,,,,,,,,,,,,,,,,,sub-229,1.0,random_dot,60.02808112655261,
right,right,speed,,,,,0.0,0.0,0.0,1.0,9.0,1.0,19.0,1.0,121.15024949994404,,,,,,,,,121.13674710004123,121.25019349996,122.0505850999616,122.03384749998804,122.03387489996383,122.0505850999616,122.0505850999616,122.0505850999616,124.36693150002976,right,1.0,20.3351726999972,,,,,,,,,,,,,,,,,,,,,,,,,,,,,,,sub-229,1.0,random_dot,60.02808112655261,
right,right,speed,,,,,0.0,0.0,0.0,1.0,10.0,0.0,20.0,1.0,124.38166860002092,,,,,,,,,124.3681033999892,124.48167220002506,125.28203400003258,125.26535550004336,125.26539710001089,125.28203400003258,125.28203400003258,125.28203400003258,126.84995619999243,right,1.0,19.571218500030227,,,,,,,,,,,,,,,,,,,,,,,,,,,,,,,sub-229,1.0,random_dot,60.02808112655261,
left,left,speed,,,,,0.0,0.0,0.0,1.0,10.0,1.0,21.0,0.0,126.8635461999802,,,,,,,,,126.85283220000564,127.21343040000647,128.01368209999055,127.997055200045,127.99709339998662,128.01368209999055,128.01368209999055,128.01368209999055,128.6137379000429,left,1.0,18.60914590000175,,,,,,,,,,,,,,,,,,,,,,,,,,,,,,,sub-229,1.0,random_dot,60.02808112655261,
left,left,speed,,,,,0.0,0.0,0.0,1.0,11.0,0.0,22.0,0.0,128.62895439995918,,,,,,,,,128.61458489997312,129.42850919999182,130.22896550002042,130.21236709994264,130.21240519999992,130.22896550002042,130.22896550002042,130.22896550002042,130.94638630002737,left,1.0,18.736949699930847,,,,,,,,,,,,,,,,,,,,,,,,,,,,,,,sub-229,1.0,random_dot,60.02808112655261,
right,right,speed,,,,,0.0,0.0,0.0,1.0,11.0,1.0,23.0,1.0,130.96086590003688,,,,,,,,,130.94784559996333,131.7606933999341,132.56103760004044,132.54504510003608,132.54510769993067,132.56103760004044,132.56103760004044,132.56103760004044,133.5116520000156,left,0.0,18.95556240004953,,,,,,,,,,,,,,,,,,,,,,,,,,,,,,,sub-229,1.0,random_dot,60.02808112655261,
left,left,speed,,,,,0.0,0.0,0.0,1.0,12.0,0.0,24.0,0.0,133.5259479000233,,,,,,,,,133.51319049997255,133.8760534999892,134.67626460001338,134.66046729998197,134.66052999999374,134.67626460001338,134.67626460001338,134.67626460001338,138.07596169994213,right,0.0,21.407461699913256,,,,,,,,,,,,,,,,,,,,,,,,,,,,,,,sub-229,1.0,random_dot,60.02808112655261,
right,right,speed,,,,,0.0,0.0,0.0,1.0,12.0,1.0,25.0,1.0,138.0899099999806,,,,,,,,,138.07829360000324,138.43993480002973,139.2398405999411,139.22295570001006,139.22298009996302,139.2398405999411,139.2398405999411,139.2398405999411,141.2902270000195,right,1.0,20.063278599991463,,,,,,,,,,,,,,,,,,,,,,,,,,,,,,,sub-229,1.0,random_dot,60.02808112655261,
left,left,speed,,,,,0.0,0.0,0.0,1.0,13.0,0.0,26.0,0.0,141.30454329994973,,,,,,,,,141.29192510002758,141.40435530000832,142.2051070999587,142.18910700001288,142.1891754999524,142.2051070999587,142.2051070999587,142.2051070999587,143.12272460001986,left,1.0,18.93261269992217,,,,,,,,,,,,,,,,,,,,,,,,,,,,,,,sub-229,1.0,random_dot,60.02808112655261,
right,right,speed,,,,,0.0,0.0,0.0,1.0,13.0,1.0,27.0,1.0,143.13684649998322,,,,,,,,,143.12468909996096,143.93647559999954,144.73666139994748,144.71960239997134,144.71962470002472,144.73666139994748,144.73666139994748,144.73666139994748,145.97024019993842,right,1.0,19.24444969999604,,,,,,,,,,,,,,,,,,,,,,,,,,,,,,,sub-229,1.0,random_dot,60.02808112655261,
right,right,speed,,,,,0.0,0.0,0.0,1.0,14.0,0.0,28.0,1.0,145.984934899956,,,,,,,,,145.97132000001147,146.78448749997187,147.5851263999939,147.56897469994146,147.5690287000034,147.5851263999939,147.5851263999939,147.5851263999939,148.6855003000237,right,1.0,19.105760299949907,,,,,,,,,,,,,,,,,,,,,,,,,,,,,,,sub-229,1.0,random_dot,60.02808112655261,
left,left,speed,,,,,0.0,0.0,0.0,1.0,14.0,1.0,29.0,0.0,148.69993450003676,,,,,,,,,148.68691849999595,149.049843100016,149.85038810002152,149.83442980004477,149.83449359994847,149.85038810002152,149.85038810002152,149.85038810002152,150.58454650000203,left,1.0,18.75093969993759,,,,,,,,,,,,,,,,,,,,,,,,,,,,,,,sub-229,1.0,random_dot,60.02808112655261,
left,left,speed,,,,,0.0,0.0,0.0,1.0,15.0,0.0,30.0,0.0,150.59891149995383,,,,,,,,,150.58616459998302,151.398597399937,152.19877639994957,152.18157859996427,152.18159469997045,152.19877639994957,152.19877639994957,152.19877639994957,153.06636009993963,right,0.0,18.878035700065084,,,,,,,,,,,,,,,,,,,,,,,,,,,,,,,sub-229,1.0,random_dot,60.02808112655261,
right,right,speed,,,,,0.0,0.0,0.0,1.0,15.0,1.0,31.0,1.0,153.0807278000284,,,,,,,,,153.06804599997122,153.18079839996062,153.98102069995366,153.96415410004556,153.9641835000366,153.98102069995366,153.98102069995366,153.98102069995366,154.948567799991,left,0.0,18.98267289996147,,,,,,,,,,,,,,,,,,,,,,,,,,,,,,,sub-229,1.0,random_dot,60.02808112655261,
left,left,speed,,,,,0.0,0.0,0.0,1.0,16.0,0.0,32.0,0.0,154.96276349993423,,,,,,,,,154.94953159999568,155.06272229994647,155.86325679998845,155.84657900000457,155.84661679994315,155.86325679998845,155.86325679998845,155.86325679998845,158.29666680004448,left,1.0,20.43765269999858,,,,,,,,,,,,,,,,,,,,,,,,,,,,,,,sub-229,1.0,random_dot,60.02808112655261,
right,right,speed,,,,,0.0,0.0,0.0,1.0,16.0,1.0,33.0,1.0,158.31085619993974,,,,,,,,,158.298840799951,158.4108014999656,159.21120379993226,159.1950385000091,159.19510200002696,159.21120379993226,159.21120379993226,159.21120379993226,159.89508609997574,right,1.0,18.689865099964663,,,,,,,,,,,,,,,,,,,,,,,,,,,,,,,sub-229,1.0,random_dot,60.02808112655261,
left,left,speed,,,,,0.0,0.0,0.0,1.0,17.0,0.0,34.0,0.0,159.9097552000312,,,,,,,,,159.89632830000482,160.70910219999496,161.50990970002022,161.49349879997317,161.4935470999917,161.50990970002022,161.50990970002022,161.50990970002022,162.41091049998067,left,1.0,18.92018860008102,,,,,,,,,,,,,,,,,,,,,,,,,,,,,,,sub-229,1.0,random_dot,60.02808112655261,
right,right,speed,,,,,0.0,0.0,0.0,1.0,17.0,1.0,35.0,1.0,162.42490949993953,,,,,,,,,162.41264370002318,163.6242240000283,164.4247518000193,164.40888889995404,164.40895279997494,164.4247518000193,164.4247518000193,164.4247518000193,165.07497570000123,right,1.0,18.65946750005241,,,,,,,,,,,,,,,,,,,,,,,,,,,,,,,sub-229,1.0,random_dot,60.02808112655261,
right,right,speed,,,,,0.0,0.0,0.0,1.0,18.0,0.0,36.0,1.0,165.0898175999755,,,,,,,,,165.0758077999344,166.289180999971,167.08966980001424,167.07356429996435,167.07364519999828,167.08966980001424,167.08966980001424,167.08966980001424,168.10682069999166,right,1.0,19.03478789993096,,,,,,,,,,,,,,,,,,,,,,,,,,,,,,,sub-229,1.0,random_dot,60.02808112655261,
left,left,speed,,,,,0.0,0.0,0.0,1.0,18.0,1.0,37.0,0.0,168.12131479999516,,,,,,,,,168.10819769999944,168.47119139996357,169.2717876000097,169.25558300002012,169.25564879993908,169.2717876000097,169.2717876000097,169.2717876000097,169.97326899995096,left,1.0,18.70585319993552,,,,,,,,,,,,,,,,,,,,,,,,,,,,,,,sub-229,1.0,random_dot,60.02808112655261,
left,left,speed,,,,,0.0,0.0,0.0,1.0,19.0,0.0,38.0,0.0,169.98706299997866,,,,,,,,,169.9758359999396,170.78645310003776,171.58676969993394,171.5696798999561,171.56969809997827,171.58676969993394,171.58676969993394,171.58676969993394,172.38787259999663,left,1.0,18.81567509996239,,,,,,,,,,,,,,,,,,,,,,,,,,,,,,,sub-229,1.0,random_dot,60.02808112655261,
right,right,speed,,,,,0.0,0.0,0.0,1.0,19.0,1.0,39.0,1.0,172.40213399997447,,,,,,,,,172.38949470000807,173.6015932000009,174.40185210003983,174.38520449993666,174.38524239999242,174.40185210003983,174.40185210003983,174.40185210003983,175.50286869995762,right,1.0,19.114078099955805,,,,,,,,,,,,,,,,,,,,,,,,,,,,,,,sub-229,1.0,random_dot,60.02808112655261,
right,right,speed,,,,,0.0,0.0,0.0,1.0,20.0,0.0,40.0,1.0,175.5168692000443,,,,,,,,,175.5048251999542,176.71633419999853,177.51658139994834,177.50047079997603,177.50053810002282,177.51658139994834,177.51658139994834,177.51658139994834,178.96729159995448,right,1.0,19.45745460002217,,,,,,,,,,,,,,,,,,,,,,,,,,,,,,,sub-229,1.0,random_dot,60.02808112655261,
left,left,speed,,,,,0.0,0.0,0.0,1.0,20.0,1.0,41.0,0.0,178.98126989998855,,,,,,,,,178.9694676999934,179.33117260003928,180.13150519994088,180.11414860002697,180.11416190001182,180.13150519994088,180.13150519994088,180.13150519994088,180.86653979995756,left,1.0,18.73986370000057,,,,,,,,,,,,,,,,,,,,,,,,,,,,,,,sub-229,1.0,random_dot,60.02808112655261,
right,right,speed,,,,,0.0,0.0,0.0,1.0,21.0,0.0,42.0,1.0,180.8804968999466,,,,,,,,,180.86951540003065,180.98018219997172,181.7805720999604,181.7639322000323,181.7639627000317,181.7805720999604,181.7805720999604,181.7805720999604,185.4956357999472,left,0.0,21.72807730000932,,,,,,,,,,,,,,,,,,,,,,,,,,,,,,,sub-229,1.0,random_dot,60.02808112655261,
left,left,speed,,,,,0.0,0.0,0.0,1.0,21.0,1.0,43.0,0.0,185.510703500011,,,,,,,,,185.49645119998604,186.31024819996676,187.1108058999525,187.0947124999948,187.09477650001645,187.1108058999525,187.1108058999525,187.1108058999525,188.1494649000233,left,1.0,19.04836819996126,,,,,,,,,,,,,,,,,,,,,,,,,,,,,,,sub-229,1.0,random_dot,60.02808112655261,
left,left,speed,,,,,0.0,0.0,0.0,1.0,22.0,0.0,44.0,0.0,188.15909009997267,,,,,,,,,188.1515823999653,188.95855710003525,189.7590116999345,189.7424915999873,189.74253369995856,189.7590116999345,189.7590116999345,189.7590116999345,191.5602879000362,left,1.0,19.81060059997253,,,,,,,,,,,,,,,,,,,,,,,,,,,,,,,sub-229,1.0,random_dot,60.02808112655261,
right,right,speed,,,,,0.0,0.0,0.0,1.0,22.0,1.0,45.0,1.0,191.57377000001725,,,,,,,,,191.56316729995888,191.92334420001131,192.72386949998327,192.7076926999725,192.70774810004517,192.72386949998327,192.72386949998327,192.72386949998327,193.67464290000495,right,1.0,18.9690526999766,,,,,,,,,,,,,,,,,,,,,,,,,,,,,,,sub-229,1.0,random_dot,60.02808112655261,
left,left,speed,,,,,0.0,0.0,0.0,1.0,23.0,0.0,46.0,0.0,193.6889809999848,,,,,,,,,193.6761551999953,194.4887382000452,195.28890269994736,195.27197679993697,195.2720009000041,195.28890269994736,195.28890269994736,195.28890269994736,196.09060170000885,left,1.0,18.811090099974532,,,,,,,,,,,,,,,,,,,,,,,,,,,,,,,sub-229,1.0,random_dot,60.02808112655261,
right,right,speed,,,,,0.0,0.0,0.0,1.0,23.0,1.0,47.0,1.0,196.1042058999883,,,,,,,,,196.09320480003956,196.9040208000224,197.70415050000884,197.68755229993255,197.68759480002336,197.70415050000884,197.70415050000884,197.70415050000884,198.53884029993787,right,1.0,18.85061359999236,,,,,,,,,,,,,,,,,,,,,,,,,,,,,,,sub-229,1.0,random_dot,60.02808112655261,
left,left,speed,,,,,0.0,0.0,0.0,1.0,24.0,0.0,48.0,0.0,198.5528626999585,,,,,,,,,198.54088480002247,198.9026698999805,199.7030920999823,199.6870617000386,199.68712569994383,199.7030920999823,199.7030920999823,199.7030920999823,200.87003190000544,left,1.0,19.176710100029595,,,,,,,,,,,,,,,,,,,,,,,,,,,,,,,sub-229,1.0,random_dot,60.02808112655261,
right,right,speed,,,,,0.0,0.0,0.0,1.0,24.0,1.0,49.0,1.0,200.8845521999756,,,,,,,,,200.87147060001732,202.0838775000302,202.88416879996657,202.870753300027,202.8708160000388,202.88416879996657,202.88416879996657,202.88416879996657,203.63576540001668,right,1.0,18.756985699990764,,,,,,,,,,,,,,,,,,,,,,,,,,,,,,,sub-229,1.0,random_dot,60.02808112655261,
right,right,speed,,,,,0.0,0.0,0.0,1.0,25.0,0.0,50.0,1.0,203.649624499958,,,,,,,,,203.638096199953,204.4491485999897,205.2496073000366,205.2333217000123,205.2333759999601,205.2496073000366,205.2496073000366,205.2496073000366,206.6333562999498,right,1.0,19.388238599989563,,,,,,,,,,,,,,,,,,,,,,,,,,,,,,,sub-229,1.0,random_dot,60.02808112655261,
left,left,speed,,,,,0.0,0.0,0.0,1.0,25.0,1.0,51.0,0.0,206.6477761999704,,,,,,,,,206.6349410000257,207.84700509998947,208.6473365999991,208.63159739994444,208.63166019995697,208.6473365999991,208.6473365999991,208.6473365999991,209.4829533000011,left,1.0,18.84974490001332,,,,,,,,,,,,,,,,,,,,,,,,,,,,,,,sub-229,1.0,random_dot,60.02808112655261,
left,left,speed,,,,,0.0,0.0,0.0,1.0,26.0,0.0,52.0,0.0,209.49617529998068,,,,,,,,,209.48634349997155,210.29546059994027,211.09599399997387,211.07928339997304,211.07931609998923,211.09599399997387,211.09599399997387,211.09599399997387,214.74541790003423,right,0.0,21.658091999939643,,,,,,,,,,,,,,,,,,,,,,,,,,,,,,,sub-229,1.0,random_dot,60.02808112655261,
right,right,speed,,,,,0.0,0.0,0.0,1.0,26.0,1.0,53.0,1.0,214.7594950000057,,,,,,,,,214.7475958999712,215.55908409995027,216.35937660001215,216.3430897999788,216.34314060001637,216.35937660001215,216.35937660001215,216.35937660001215,217.74399059999269,right,1.0,19.393856199923903,,,,,,,,,,,,,,,,,,,,,,,,,,,,,,,sub-229,1.0,random_dot,60.02808112655261,
left,left,speed,,,,,0.0,0.0,0.0,1.0,27.0,0.0,54.0,0.0,217.7575721000321,,,,,,,,,217.74659580003936,217.86100579996128,218.6745404000394,218.657753800042,218.65778500004672,218.6745404000394,218.6745404000394,218.6745404000394,219.9575362999458,left,1.0,19.29879200004507,,,,,,,,,,,,,,,,,,,,,,,,,,,,,,,sub-229,1.0,random_dot,60.02808112655261,
right,right,speed,,,,,0.0,0.0,0.0,1.0,27.0,1.0,55.0,1.0,219.9727472999366,,,,,,,,,219.95822979998772,220.072767799953,220.87327099998947,220.8565161000006,220.8565505000297,220.87327099998947,220.87327099998947,220.87327099998947,224.0722680999897,right,1.0,21.21182269998826,,,,,,,,,,,,,,,,,,,,,,,,,,,,,,,sub-229,1.0,random_dot,60.02808112655261,
left,left,speed,,,,,0.0,0.0,0.0,1.0,28.0,0.0,56.0,0.0,224.08688269997947,,,,,,,,,224.07344029995147,225.28628160001244,226.08674439997407,226.07004000002053,226.070074499934,226.08674439997407,226.08674439997407,226.08674439997407,226.93696099997032,left,1.0,18.863321299897507,,,,,,,,,,,,,,,,,,,,,,,,,,,,,,,sub-229,1.0,random_dot,60.02808112655261,
right,right,speed,,,,,0.0,0.0,0.0,1.0,28.0,1.0,57.0,1.0,226.9517935999902,,,,,,,,,226.9377785000252,227.7515980999451,228.5516858999617,228.53471040003933,228.5347282999428,228.5516858999617,228.5516858999617,228.5516858999617,229.5022604999831,right,1.0,18.956171700032428,,,,,,,,,,,,,,,,,,,,,,,,,,,,,,,sub-229,1.0,random_dot,60.02808112655261,
right,right,speed,,,,,0.0,0.0,0.0,1.0,29.0,0.0,58.0,1.0,229.5168030000059,,,,,,,,,229.5034852999961,229.61686970002484,230.4172940000426,230.4007888999768,230.400830199942,230.4172940000426,230.4172940000426,230.4172940000426,234.5331254999619,left,0.0,22.122292599990036,,,,,,,,,,,,,,,,,,,,,,,,,,,,,,,sub-229,1.0,random_dot,60.02808112655261,
left,left,speed,,,,,0.0,0.0,0.0,1.0,29.0,1.0,59.0,0.0,234.5472680999665,,,,,,,,,234.535279899952,235.74648810003416,236.546848100028,236.52987109997773,236.5298919000197,236.546848100028,236.546848100028,236.546848100028,237.66486879996955,left,1.0,19.128664599964395,,,,,,,,,,,,,,,,,,,,,,,,,,,,,,,sub-229,1.0,random_dot,60.02808112655261,
,,speed,,,,,0.0,0.0,0.0,1.0,,,,,,,,,,,,,,,,,,,,,,,,,,,,,,,,,,,,,,,,,,,,,,,,,,,,,,,,sub-229,1.0,random_dot,60.02808112655261,
right,right,accuracy,,,,,0.0,1.0,1.0,0.0,0.0,0.0,0.0,1.0,243.04183879995253,,,,,,,,,243.03438920003828,243.1421359999804,243.9424770999467,243.92645479994823,243.92652450001333,243.9424770999467,243.9424770999467,243.9424770999467,245.82666439993773,right,1.0,19.888331900001504,,,,,,,,,,,,,,,,,,,,237.66709919995628,237.69158360001165,237.69158360001165,243.026345100021,space,23.352604200015776,,,,,,sub-229,1.0,random_dot,60.02808112655261,
left,left,accuracy,,,,,0.0,1.0,1.0,0.0,0.0,1.0,1.0,0.0,245.84038609999695,,,,,,,,,245.82997910003175,247.03966370003764,247.83997800003272,247.82313869998325,247.82316709996667,247.83997800003272,247.83997800003272,247.83997800003272,248.79022379999515,left,1.0,18.96222339989617,,,,,,,,,,,,,,,,,,,,,,,,,,,,,,,sub-229,1.0,random_dot,60.02808112655261,
right,right,accuracy,,,,,0.0,1.0,1.0,0.0,1.0,0.0,2.0,1.0,248.80501060001552,,,,,,,,,248.79111099999864,250.00458429998253,250.80478410003707,250.78799919993617,250.78802690003067,250.80478410003707,250.80478410003707,250.80478410003707,252.5050359000452,right,1.0,19.70558690000325,,,,,,,,,,,,,,,,,,,,,,,,,,,,,,,sub-229,1.0,random_dot,60.02808112655261,
left,left,accuracy,,,,,0.0,1.0,1.0,0.0,1.0,1.0,3.0,0.0,252.5196064999327,,,,,,,,,252.5066398000345,252.86921429994985,253.669883799972,253.65395469998475,253.65401699999347,253.669883799972,253.669883799972,253.669883799972,254.53673980000892,left,1.0,18.87171989993658,,,,,,,,,,,,,,,,,,,,,,,,,,,,,,,sub-229,1.0,random_dot,60.02808112655261,
right,right,accuracy,,,,,0.0,1.0,1.0,0.0,2.0,0.0,4.0,1.0,254.55161209998187,,,,,,,,,254.5377776999958,254.6516656000167,255.4519512000261,255.435231499956,255.43526399997063,255.4519512000261,255.4519512000261,255.4519512000261,256.4196916000219,right,1.0,18.98019460006617,,,,,,,,,,,,,,,,,,,,,,,,,,,,,,,sub-229,1.0,random_dot,60.02808112655261,
left,left,accuracy,,,,,0.0,1.0,1.0,0.0,2.0,1.0,5.0,0.0,256.43375690001994,,,,,,,,,256.4218671999406,257.23356560000684,258.0337093999842,258.0166674000211,258.01669209997635,258.0337093999842,258.0337093999842,258.0337093999842,258.73530990001746,left,1.0,18.71784019994084,,,,,,,,,,,,,,,,,,,,,,,,,,,,,,,sub-229,1.0,random_dot,60.02808112655261,
right,right,accuracy,,,,,0.0,1.0,1.0,0.0,3.0,0.0,6.0,1.0,258.749180899933,,,,,,,,,258.7376268999651,259.0989057000261,259.8992893999676,259.882666499936,259.88270419999026,259.8992893999676,259.8992893999676,259.8992893999676,260.8495794000337,right,1.0,18.96780139999464,,,,,,,,,,,,,,,,,,,,,,,,,,,,,,,sub-229,1.0,random_dot,60.02808112655261,
left,left,accuracy,,,,,0.0,1.0,1.0,0.0,3.0,1.0,7.0,0.0,260.86432589998003,,,,,,,,,260.8506699999561,261.66390899999533,262.4644635999575,262.4484191000229,262.4484821000369,262.4644635999575,262.4644635999575,262.4644635999575,263.1823243999388,left,1.0,18.729888000059876,,,,,,,,,,,,,,,,,,,,,,,,,,,,,,,sub-229,1.0,random_dot,60.02808112655261,
right,right,accuracy,,,,,0.0,1.0,1.0,0.0,4.0,0.0,8.0,1.0,263.1962555999635,,,,,,,,,263.184119499987,264.39563849999104,265.1962175000226,265.18007909995504,265.1801422999706,265.1962175000226,265.1962175000226,265.1962175000226,266.178835800034,right,1.0,18.988557899952863,,,,,,,,,,,,,,,,,,,,,,,,,,,,,,,sub-229,1.0,random_dot,60.02808112655261,
left,left,accuracy,,,,,0.0,1.0,1.0,0.0,4.0,1.0,9.0,0.0,266.1940752000082,,,,,,,,,266.1794740000041,267.3938957999926,268.19420399994124,268.1775937000057,268.17763829999603,268.19420399994124,268.19420399994124,268.19420399994124,268.92840620002244,left,1.0,18.750218100030903,,,,,,,,,,,,,,,,,,,,,,,,,,,,,,,sub-229,1.0,random_dot,60.02808112655261,
right,right,accuracy,,,,,0.0,1.0,1.0,0.0,5.0,0.0,10.0,1.0,268.9425582999829,,,,,,,,,268.9301228999393,270.14224660000764,270.9424585000379,270.9259112,270.92594899993856,270.9424585000379,270.9424585000379,270.9424585000379,271.8107608000282,right,1.0,18.884846700006165,,,,,,,,,,,,,,,,,,,,,,,,,,,,,,,sub-229,1.0,random_dot,60.02808112655261,
left,left,accuracy,,,,,0.0,1.0,1.0,0.0,5.0,1.0,11.0,0.0,271.8244497999549,,,,,,,,,271.8132948999992,272.6239423999796,273.42416930000763,273.40798429993447,273.4080257000169,273.42416930000763,273.42416930000763,273.42416930000763,274.1430909000337,left,1.0,18.731973799993284,,,,,,,,,,,,,,,,,,,,,,,,,,,,,,,sub-229,1.0,random_dot,60.02808112655261,
right,right,accuracy,,,,,0.0,1.0,1.0,0.0,6.0,0.0,12.0,1.0,274.15636839997023,,,,,,,,,274.14639749994967,274.5059838000452,275.3064524999354,275.29011880001053,275.29016900004353,275.3064524999354,275.3064524999354,275.3064524999354,276.12419270002283,right,1.0,18.821574899950065,,,,,,,,,,,,,,,,,,,,,,,,,,,,,,,sub-229,1.0,random_dot,60.02808112655261,
left,left,accuracy,,,,,0.0,1.0,1.0,0.0,6.0,1.0,13.0,0.0,276.1383080999367,,,,,,,,,276.12621330004185,276.4881743999431,277.2886179999914,277.2719370999839,277.2719744000351,277.2886179999914,277.2886179999914,277.2886179999914,277.9393019999843,left,1.0,18.662591799977235,,,,,,,,,,,,,,,,,,,,,,,,,,,,,,,sub-229,1.0,random_dot,60.02808112655261,
right,right,accuracy,,,,,0.0,1.0,1.0,0.0,7.0,0.0,14.0,1.0,277.9538026000373,,,,,,,,,277.9405916000251,279.1533242999576,279.9537693000166,279.9369354000082,279.9369763999712,279.9537693000166,279.9537693000166,279.9537693000166,280.9716289000353,right,1.0,19.025848500081334,,,,,,,,,,,,,,,,,,,,,,,,,,,,,,,sub-229,1.0,random_dot,60.02808112655261,
left,left,accuracy,,,,,0.0,1.0,1.0,0.0,7.0,1.0,15.0,0.0,280.9854082999518,,,,,,,,,280.9741718999576,281.33531510003377,282.13546379993204,282.1189337000251,282.1189687999431,282.13546379993204,282.13546379993204,282.13546379993204,283.0359276999952,left,1.0,18.905677099945024,,,,,,,,,,,,,,,,,,,,,,,,,,,,,,,sub-229,1.0,random_dot,60.02808112655261,
left,left,accuracy,,,,,0.0,1.0,1.0,0.0,8.0,0.0,16.0,0.0,283.0506847000215,,,,,,,,,283.0369204999879,283.40053380001336,284.2008961000247,284.18432320002466,284.1843641999876,284.2008961000247,284.2008961000247,284.2008961000247,285.0866675999714,left,1.0,18.88967369997408,,,,,,,,,,,,,,,,,,,,,,,,,,,,,,,sub-229,1.0,random_dot,60.02808112655261,
right,right,accuracy,,,,,0.0,1.0,1.0,0.0,8.0,1.0,17.0,1.0,285.099442500039,,,,,,,,,285.09012279997114,286.2987393999938,287.0990788999479,287.0821319000097,287.0821533999406,287.0990788999479,287.0990788999479,287.0990788999479,288.0330388000002,right,1.0,18.95151459996123,,,,,,,,,,,,,,,,,,,,,,,,,,,,,,,sub-229,1.0,random_dot,60.02808112655261,
left,left,accuracy,,,,,0.0,1.0,1.0,0.0,9.0,0.0,18.0,0.0,288.0475576999597,,,,,,,,,288.0343231000006,288.14763280004263,288.9482195000164,288.9320998999756,288.93216359999496,288.9482195000164,288.9482195000164,288.9482195000164,289.7818155999994,left,1.0,18.850877600023523,,,,,,,,,,,,,,,,,,,,,,,,,,,,,,,sub-229,1.0,random_dot,60.02808112655261,
right,right,accuracy,,,,,0.0,1.0,1.0,0.0,9.0,1.0,19.0,1.0,289.7964784000069,,,,,,,,,289.782855700003,290.14665499993134,290.9468352999538,290.9304819999961,290.93053110002074,290.9468352999538,290.9468352999538,290.9468352999538,291.6318484999938,right,1.0,18.696461000014096,,,,,,,,,,,,,,,,,,,,,,,,,,,,,,,sub-229,1.0,random_dot,60.02808112655261,
left,left,accuracy,,,,,0.0,1.0,1.0,0.0,10.0,0.0,20.0,0.0,291.64544420002494,,,,,,,,,291.6342211000156,291.7455806999933,292.5459725999972,292.52970269997604,292.5297638999764,292.5459725999972,292.5459725999972,292.5459725999972,293.3128837000113,left,1.0,18.78612489998341,,,,,,,,,,,,,,,,,,,,,,,,,,,,,,,sub-229,1.0,random_dot,60.02808112655261,
right,right,accuracy,,,,,0.0,1.0,1.0,0.0,10.0,1.0,21.0,1.0,293.32769379997626,,,,,,,,,293.3138353000395,294.5269533999963,295.3273840999464,295.3115596999414,295.3116234999616,295.3273840999464,295.3273840999464,295.3273840999464,296.2277412000112,right,1.0,18.916188500006683,,,,,,,,,,,,,,,,,,,,,,,,,,,,,,,sub-229,1.0,random_dot,60.02808112655261,
right,right,accuracy,,,,,0.0,1.0,1.0,0.0,11.0,0.0,22.0,1.0,296.2424469999969,,,,,,,,,296.22863969998434,296.342610099935,297.1429528000299,297.1261874999618,297.1262161999475,297.1429528000299,297.1429528000299,297.1429528000299,300.52533069998026,left,0.0,21.38897819991689,,,,,,,,,,,,,,,,,,,,,,,,,,,,,,,sub-229,1.0,random_dot,60.02808112655261,
left,left,accuracy,,,,,0.0,1.0,1.0,0.0,11.0,1.0,23.0,0.0,300.53995549993124,,,,,,,,,300.5265454000328,301.33974450000096,302.13995989994146,302.12300769996364,302.12303719995543,302.13995989994146,302.13995989994146,302.13995989994146,304.3734773999313,left,1.0,20.24577749997843,,,,,,,,,,,,,,,,,,,,,,,,,,,,,,,sub-229,1.0,random_dot,60.02808112655261,
right,right,accuracy,,,,,0.0,1.0,1.0,0.0,12.0,0.0,24.0,1.0,304.3876471000258,,,,,,,,,304.3754652999341,305.58709489996545,306.3873903999338,306.3708443000214,306.3708896000171,306.3873903999338,306.3873903999338,306.3873903999338,307.1890629000264,right,1.0,18.807394299888983,,,,,,,,,,,,,,,,,,,,,,,,,,,,,,,sub-229,1.0,random_dot,60.02808112655261,
left,left,accuracy,,,,,0.0,1.0,1.0,0.0,12.0,1.0,25.0,0.0,307.2026839000173,,,,,,,,,307.19164620002266,308.4020183000248,309.2023136999924,309.18564639997203,309.18569139996544,309.2023136999924,309.2023136999924,309.2023136999924,310.0361306000268,left,1.0,18.844563800026663,,,,,,,,,,,,,,,,,,,,,,,,,,,,,,,sub-229,1.0,random_dot,60.02808112655261,
right,right,accuracy,,,,,0.0,1.0,1.0,0.0,13.0,0.0,26.0,1.0,310.0506655999925,,,,,,,,,310.03738729993347,311.2499872000189,312.0504658999853,312.0334798999829,312.0335102999816,312.0504658999853,312.0504658999853,312.0504658999853,312.9677176999394,right,1.0,18.926055199932307,,,,,,,,,,,,,,,,,,,,,,,,,,,,,,,sub-229,1.0,random_dot,60.02808112655261,
left,left,accuracy,,,,,0.0,1.0,1.0,0.0,13.0,1.0,27.0,0.0,312.982229599962,,,,,,,,,312.9690650999546,313.0823248999659,313.88272849994246,313.8662551000016,313.86629939998966,313.88272849994246,313.88272849994246,313.88272849994246,314.8839236999629,right,0.0,19.0203209000174,,,,,,,,,,,,,,,,,,,,,,,,,,,,,,,sub-229,1.0,random_dot,60.02808112655261,
right,right,accuracy,,,,,0.0,1.0,1.0,0.0,14.0,0.0,28.0,1.0,314.89783579995856,,,,,,,,,314.885751600028,315.24786090001,316.04773700004444,316.03097850002814,316.0310000999598,316.04773700004444,316.04773700004444,316.04773700004444,316.9999469999457,right,1.0,18.95648449996952,,,,,,,,,,,,,,,,,,,,,,,,,,,,,,,sub-229,1.0,random_dot,60.02808112655261,
left,left,accuracy,,,,,0.0,1.0,1.0,0.0,14.0,1.0,29.0,0.0,317.0132529999828,,,,,,,,,317.0028028000379,317.8130088000325,318.6130495000398,318.5965125999646,318.5965531000402,318.6130495000398,318.6130495000398,318.6130495000398,319.2811542999698,left,1.0,18.68624950002413,,,,,,,,,,,,,,,,,,,,,,,,,,,,,,,sub-229,1.0,random_dot,60.02808112655261,
left,left,accuracy,,,,,0.0,1.0,1.0,0.0,15.0,0.0,30.0,0.0,319.29509299993515,,,,,,,,,319.2830796999624,320.4945122000063,321.29483509995043,321.2782029999653,321.2782439000439,321.29483509995043,321.29483509995043,321.29483509995043,322.1458683999954,left,1.0,18.865166899980977,,,,,,,,,,,,,,,,,,,,,,,,,,,,,,,sub-229,1.0,random_dot,60.02808112655261,
right,right,accuracy,,,,,0.0,1.0,1.0,0.0,15.0,1.0,31.0,1.0,322.16002179996576,,,,,,,,,322.14781200001016,322.2602385999635,323.06029399996623,323.04336859995965,323.0433920000214,323.06029399996623,323.06029399996623,323.06029399996623,324.34476899995934,right,1.0,19.303696199902333,,,,,,,,,,,,,,,,,,,,,,,,,,,,,,,sub-229,1.0,random_dot,60.02808112655261,
right,right,accuracy,,,,,0.0,1.0,1.0,0.0,16.0,0.0,32.0,1.0,324.358635499957,,,,,,,,,324.3465978000313,325.557938199956,326.357981499983,326.3407370999921,326.34074859996326,326.357981499983,326.357981499983,326.357981499983,327.62576470000204,left,0.0,19.275498400093056,,,,,,,,,,,,,,,,,,,,,,,,,,,,,,,sub-229,1.0,random_dot,60.02808112655261,
left,left,accuracy,,,,,0.0,1.0,1.0,0.0,16.0,1.0,33.0,0.0,327.6399427000433,,,,,,,,,327.6274633000139,327.9898255999433,328.7901859999401,328.77362059999723,328.7736607999541,328.7901859999401,328.7901859999401,328.7901859999401,329.8070782000432,left,1.0,19.02180640003644,,,,,,,,,,,,,,,,,,,,,,,,,,,,,,,sub-229,1.0,random_dot,60.02808112655261,
left,left,accuracy,,,,,0.0,1.0,1.0,0.0,17.0,0.0,34.0,0.0,329.82186289993115,,,,,,,,,329.8080530000152,331.02136779995635,331.8218278000131,331.8059376999736,331.8060014999937,331.8218278000131,331.8218278000131,331.8218278000131,338.30299270001706,left,1.0,24.497033399995416,,,,,,,,,,,,,,,,,,,,,,,,,,,336.8185700000031,,,,sub-229,1.0,random_dot,60.02808112655261,
right,right,accuracy,,,,,0.0,1.0,1.0,0.0,17.0,1.0,35.0,1.0,338.3166479000356,,,,,,,,,338.3054048999911,338.416644699988,339.2171065999428,339.200446199975,339.2004789999919,339.2171065999428,339.2171065999428,339.2171065999428,340.03432850004174,right,1.0,18.832420699996877,,,,,,,,,,,,,,,,,,,,,,,,,,,,,,,sub-229,1.0,random_dot,60.02808112655261,
right,right,accuracy,,,,,0.0,1.0,1.0,0.0,18.0,0.0,36.0,1.0,340.04892860003747,,,,,,,,,340.03553879994433,340.8485702000325,341.6488998000277,341.6333325000014,341.6333949000109,341.6488998000277,341.6488998000277,341.6488998000277,342.41600149997976,right,1.0,18.77668549993541,,,,,,,,,,,,,,,,,,,,,,,,,,,,,,,sub-229,1.0,random_dot,60.02808112655261,
left,left,accuracy,,,,,0.0,1.0,1.0,0.0,18.0,1.0,37.0,0.0,342.4307717999909,,,,,,,,,342.41699289996177,342.78084060002584,343.58108729997184,343.56419399997685,343.56422299996484,343.58108729997184,343.58108729997184,343.58108729997184,344.7658206999768,right,0.0,19.197562100016512,,,,,,,,,,,,,,,,,,,,,,,,,,,,,,,sub-229,1.0,random_dot,60.02808112655261,
right,right,accuracy,,,,,0.0,1.0,1.0,0.0,19.0,0.0,38.0,1.0,344.77955500001553,,,,,,,,,344.7681331000058,344.87962050002534,345.67976580001414,345.6626919000409,345.6627137999749,345.67976580001414,345.67976580001414,345.67976580001414,346.61428450001404,right,1.0,18.95148190006148,,,,,,,,,,,,,,,,,,,,,,,,,,,,,,,sub-229,1.0,random_dot,60.02808112655261,
left,left,accuracy,,,,,0.0,1.0,1.0,0.0,19.0,1.0,39.0,0.0,346.6282787999371,,,,,,,,,346.6162571000168,346.728174299933,347.5286579999374,347.5120250999462,347.51206640002783,347.5286579999374,347.5286579999374,347.5286579999374,348.23094309994485,left,1.0,18.71951500000432,,,,,,,,,,,,,,,,,,,,,,,,,,,,,,,sub-229,1.0,random_dot,60.02808112655261,
right,right,accuracy,,,,,0.0,1.0,1.0,0.0,20.0,0.0,40.0,1.0,348.24399069999345,,,,,,,,,348.23386779997963,349.4433820999693,350.2439153000014,350.2277255000081,350.2277865000069,350.2439153000014,350.2439153000014,350.2439153000014,351.0102023000363,right,1.0,18.77920500002801,,,,,,,,,,,,,,,,,,,,,,,,,,,,,,,sub-229,1.0,random_dot,60.02808112655261,
left,left,accuracy,,,,,0.0,1.0,1.0,0.0,20.0,1.0,41.0,0.0,351.02550819993485,,,,,,,,,351.01098310004454,352.22516140004154,353.02531109994743,353.0091567999916,353.0092111999402,353.02531109994743,353.02531109994743,353.02531109994743,356.94249269994907,left,1.0,21.933055299916305,,,,,,,,,,,,,,,,,,,,,,,,,,,,,,,sub-229,1.0,random_dot,60.02808112655261,
right,right,accuracy,,,,,0.0,1.0,1.0,0.0,21.0,0.0,42.0,1.0,356.9553497999441,,,,,,,,,356.9458316999953,357.75498660001904,358.55522340000607,358.53813719993923,358.53815529996064,358.55522340000607,358.55522340000607,358.55522340000607,359.2724601000082,right,1.0,18.722346399910748,,,,,,,,,,,,,,,,,,,,,,,,,,,,,,,sub-229,1.0,random_dot,60.02808112655261,
left,left,accuracy,,,,,0.0,1.0,1.0,0.0,21.0,1.0,43.0,0.0,359.2870704999659,,,,,,,,,359.27362859994173,359.3871254000114,360.18739690002985,360.1706633999711,360.1706918999553,360.18739690002985,360.18739690002985,360.18739690002985,360.8719919000287,left,1.0,18.697179200011306,,,,,,,,,,,,,,,,,,,,,,,,,,,,,,,sub-229,1.0,random_dot,60.02808112655261,
left,left,accuracy,,,,,0.0,1.0,1.0,0.0,22.0,0.0,44.0,0.0,360.88611159997527,,,,,,,,,360.8736780999461,362.0853803999489,362.8857773999917,362.869246999966,362.8692874000408,362.8857773999917,362.8857773999917,362.8857773999917,365.0522646999452,right,0.0,20.182811100035902,,,,,,,,,,,,,,,,,,,,,,,,,,,,,,,sub-229,1.0,random_dot,60.02808112655261,
right,right,accuracy,,,,,0.0,1.0,1.0,0.0,22.0,1.0,45.0,1.0,365.0668793999357,,,,,,,,,365.0535577000119,365.4166961000301,366.2171832999448,366.2005448000273,366.2005784999346,366.2171832999448,366.2171832999448,366.2171832999448,366.9850645000115,left,0.0,18.787444800022055,,,,,,,,,,,,,,,,,,,,,,,,,,,,,,,sub-229,1.0,random_dot,60.02808112655261,
left,left,accuracy,,,,,0.0,1.0,1.0,0.0,23.0,0.0,46.0,0.0,366.9991055999417,,,,,,,,,366.9873660999583,367.3488377999747,368.1493383999914,368.1333449999802,368.1334032999585,368.1493383999914,368.1493383999914,368.1493383999914,369.23315340001136,right,0.0,19.092803600011397,,,,,,,,,,,,,,,,,,,,,,,,,,,,,,,sub-229,1.0,random_dot,60.02808112655261,
right,right,accuracy,,,,,0.0,1.0,1.0,0.0,23.0,1.0,47.0,1.0,369.247537999996,,,,,,,,,369.2346555000404,370.4469220000319,371.2474266999634,371.2314825999784,371.2315443999833,371.2474266999634,371.2474266999634,371.2474266999634,372.048078599968,right,1.0,18.80916940001771,,,,,,,,,,,,,,,,,,,,,,,,,,,,,,,sub-229,1.0,random_dot,60.02808112655261,
right,right,accuracy,,,,,0.0,1.0,1.0,0.0,24.0,0.0,48.0,1.0,372.0626539000077,,,,,,,,,372.04950219998136,373.2622819000389,374.062252099975,374.045245999936,374.0452677999856,374.062252099975,374.062252099975,374.062252099975,374.84798880002927,right,1.0,18.80372859991621,,,,,,,,,,,,,,,,,,,,,,,,,,,,,,,sub-229,1.0,random_dot,60.02808112655261,
left,left,accuracy,,,,,0.0,1.0,1.0,0.0,24.0,1.0,49.0,0.0,374.8608988999622,,,,,,,,,374.8506100999657,374.96101289999206,375.76105780003127,375.7450004999992,375.74507730000187,375.76105780003127,375.76105780003127,375.76105780003127,377.2624181000283,left,1.0,19.51964760001283,,,,,,,,,,,,,,,,,,,,,,,,,,,,,,,sub-229,1.0,random_dot,60.02808112655261,
left,left,accuracy,,,,,0.0,1.0,1.0,0.0,25.0,0.0,50.0,0.0,377.2763224999653,,,,,,,,,377.2647948999656,377.3762996000005,378.1764683999354,378.1597121999366,378.1597390000243,378.1764683999354,378.1764683999354,378.1764683999354,379.3773193999659,right,0.0,19.219208499998786,,,,,,,,,,,,,,,,,,,,,,,,,,,,,,,sub-229,1.0,random_dot,60.02808112655261,
right,right,accuracy,,,,,0.0,1.0,1.0,0.0,25.0,1.0,51.0,1.0,379.39151149999816,,,,,,,,,379.3792717999313,380.59097789996304,381.3912541000173,381.3747212999733,381.3747755000368,381.3912541000173,381.3912541000173,381.3912541000173,382.1591146000428,right,1.0,18.779434100026265,,,,,,,,,,,,,,,,,,,,,,,,,,,,,,,sub-229,1.0,random_dot,60.02808112655261,
left,left,accuracy,,,,,0.0,1.0,1.0,0.0,26.0,0.0,52.0,0.0,382.1732030999847,,,,,,,,,382.1612975000171,382.52316550002433,383.3230173999909,383.3065442999359,383.3065829999978,383.3230173999909,383.3230173999909,383.3230173999909,384.16103109996766,left,1.0,18.8549006000394,,,,,,,,,,,,,,,,,,,,,,,,,,,,,,,sub-229,1.0,random_dot,60.02808112655261,
right,right,accuracy,,,,,0.0,1.0,1.0,0.0,26.0,1.0,53.0,1.0,384.17174389993306,,,,,,,,,384.1622083999682,384.9716096000048,385.77187729999423,385.7556976999622,385.7557518000249,385.77187729999423,385.77187729999423,385.77187729999423,386.443660799996,right,1.0,18.68918180000037,,,,,,,,,,,,,,,,,,,,,,,,,,,,,,,sub-229,1.0,random_dot,60.02808112655261,
left,left,accuracy,,,,,0.0,1.0,1.0,0.0,27.0,0.0,54.0,0.0,386.4537487999769,,,,,,,,,386.4470255000051,386.80351560004056,387.60371179995127,387.5868431000272,387.5868652999634,387.60371179995127,387.60371179995127,387.60371179995127,388.17229679995216,left,1.0,18.5859022999648,,,,,,,,,,,,,,,,,,,,,,,,,,,,,,,sub-229,1.0,random_dot,60.02808112655261,
right,right,accuracy,,,,,0.0,1.0,1.0,0.0,27.0,1.0,55.0,1.0,388.1860529000405,,,,,,,,,388.1746147000231,389.38531839998905,390.1857346999459,390.16970670002047,390.169760699966,390.1857346999459,390.1857346999459,390.1857346999459,390.8041851000162,right,1.0,18.63105169998016,,,,,,,,,,,,,,,,,,,,,,,,,,,,,,,sub-229,1.0,random_dot,60.02808112655261,
right,right,accuracy,,,,,0.0,1.0,1.0,0.0,28.0,0.0,56.0,1.0,390.8176169999642,,,,,,,,,390.8067443999462,390.9176992999856,391.718139500008,391.70155290002,391.7015846000286,391.718139500008,391.718139500008,391.718139500008,392.4693252999568,right,1.0,18.762450899928808,,,,,,,,,,,,,,,,,,,,,,,,,,,,,,,sub-229,1.0,random_dot,60.02808112655261,
left,left,accuracy,,,,,0.0,1.0,1.0,0.0,28.0,1.0,57.0,0.0,392.4835037000012,,,,,,,,,392.4712704999838,392.8333883000305,393.633660399937,393.6165244999575,393.6165446999949,393.633660399937,393.633660399937,393.633660399937,394.3193273999496,left,1.0,18.701901799999177,,,,,,,,,,,,,,,,,,,,,,,,,,,,,,,sub-229,1.0,random_dot,60.02808112655261,
left,left,accuracy,,,,,0.0,1.0,1.0,0.0,29.0,0.0,58.0,0.0,394.33237700001337,,,,,,,,,394.3221652000211,394.43245439999737,395.2325892000226,395.2156985999318,395.2157254000194,395.2325892000226,395.2325892000226,395.2325892000226,396.1671148999594,left,1.0,18.9481382999802,,,,,,,,,,,,,,,,,,,,,,,,,,,,,,,sub-229,1.0,random_dot,60.02808112655261,
right,right,accuracy,,,,,0.0,1.0,1.0,0.0,29.0,1.0,59.0,1.0,396.1809488999425,,,,,,,,,396.1686702000443,396.9806597999996,397.7812059000135,397.7644586999668,397.7644927999936,397.7812059000135,397.7812059000135,397.7812059000135,398.2658777999459,right,1.0,18.50445170002058,,,,,,,,,,,,,,,,,,,,,,,,,,,,,,,sub-229,1.0,random_dot,60.02808112655261,
,,accuracy,,,,,0.0,1.0,1.0,0.0,,,,,,,,,,,,,,,,,,,,,,,,,,,,,,,,,,,,,,,,,,,,,,,,,,,,,,,,sub-229,1.0,random_dot,60.02808112655261,
,,,,,,,,,,,,,,,,,,,,,,,,,,,,,,,,,,,,,,,,,,,,,,,,,,,,,,,,,,,,,,,398.2670050000306,398.2798416999867,403.277030199999,sub-229,,,,
