wordCTK,colorCTK,corrAnsCTK,congruentCTK,thisN,thisTrialN,thisRepN,keyResp_CTK.keys,keyResp_CTK.corr,keyResp_CTK.rt,keyResp_CTK.duration,wordPractice,colorPractice,corrAnsPractice,congruentPractice,respPractice.keys,respPractice.corr,respPractice.rt,respPractice.duration,word,color,corrAns,congruent,keyResp_test_run.keys,keyResp_test_run.corr,keyResp_test_run.rt,keyResp_test_run.duration,trials_CTK.thisRepN,trials_CTK.thisTrialN,trials_CTK.thisN,trials_CTK.thisIndex,trials_practice.thisRepN,trials_practice.thisTrialN,trials_practice.thisN,trials_practice.thisIndex,trials_test.thisRepN,trials_test.thisTrialN,trials_test.thisN,trials_test.thisIndex,thisRow.t,notes,instruction.started,instr_text.started,instr_image.started,instr_resp.started,instruction.stopped,instr_resp.keys,instr_resp.rt,instr_resp.duration,instr_color_to_key.started,instr_ctk.started,resp_ctk.started,instr_color_to_key.stopped,resp_ctk.keys,resp_ctk.rt,resp_ctk.duration,ITI.started,fixcross.started,fixcross.stopped,ITI.stopped,color_to_key_run.started,stimulus_CTK.started,keyResp_CTK.started,color_to_key_run.stopped,trials_CTK.keyResp_CTK.keys,trials_CTK.keyResp_CTK.corr,trials_CTK.keyResp_CTK.rt,trials_CTK.keyResp_CTK.duration,instr_practice.started,instr_practice_text.started,instr_practice_resp.started,instr_practice.stopped,instr_practice_resp.keys,instr_practice_resp.rt,instr_practice_resp.duration,practice_run.started,stimulus_practice.started,respPractice.started,practice_run.stopped,trials_practice.respPractice.keys,trials_practice.respPractice.corr,trials_practice.respPractice.rt,trials_practice.respPractice.duration,feedback.started,textFeedback.started,textFeedback.stopped,feedback.stopped,instr_test.started,instr_test_text.started,instr_test_resp.started,instr_test.stopped,instr_test_resp.keys,instr_test_resp.rt,instr_test_resp.duration,test_run.started,stimulus_test_run.started,keyResp_test_run.started,test_run.stopped,trials_test.keyResp_test_run.keys,trials_test.keyResp_test_run.corr,trials_test.keyResp_test_run.rt,trials_test.keyResp_test_run.duration,goodbye.started,textGoodbye.started,textGoodbye.stopped,goodbye.stopped,participant,session,expName,frameRate,Unnamed: 113
,,,,,,,,,,,,,,,,,,,,,,,,,,,,,,,,,,,,,,,,,0.0097537079127505,0.0718072499148547,0.0718072499148547,0.0718072499148547,40.40759766695555,space,40.33336250006687,,,,,,,,,,,,,,,,,,,,,,,,,,,,,,,,,,,,,,,,,,,,,,,,,,,,,,,,,,,sub-048,1,stroop_test,,
,,,,,,,,,,,,,,,,,,,,,,,,,,,,,,,,,,,,,,,,,,,,,,,,,40.40771058294922,40.42124245793093,40.42124245793093,47.54989620798733,space,7.11839375004638,,,,,,,,,,,,,,,,,,,,,,,,,,,,,,,,,,,,,,,,,,,,,,,,,,,,sub-048,1,stroop_test,,
test,yellow,g,1.0,0.0,0.0,0.0,g,1.0,1.0391771249705926,,,,,,,,,,,,,,,,,,0.0,0.0,0.0,1.0,,,,,,,,,47.58633333293256,,,,,,,,,,,,,,,,,47.56764924991876,47.64764229196589,48.44660499994643,48.43260420800652,48.439047541935,48.44660499994643,48.44660499994643,49.48937187495176,g,1.0,1.0391771249705926,,,,,,,,,,,,,,,,,,,,,,,,,,,,,,,,,,,,,,,,sub-048,1,stroop_test,,
test,blue,b,1.0,1.0,1.0,0.0,b,1.0,0.9688828750513494,,,,,,,,,,,,,,,,,,0.0,1.0,1.0,2.0,,,,,,,,,49.49833654193208,,,,,,,,,,,,,,,,,49.489764750003815,49.83696766698267,50.63134895800613,50.62070749991108,50.62137179193087,50.63134895800613,50.63134895800613,51.60682387498673,b,1.0,0.9688828750513494,,,,,,,,,,,,,,,,,,,,,,,,,,,,,,,,,,,,,,,,sub-048,1,stroop_test,,
test,red,r,1.0,2.0,2.0,0.0,r,1.0,0.5908475839532912,,,,,,,,,,,,,,,,,,0.0,2.0,2.0,0.0,,,,,,,,,51.61576095793862,,,,,,,,,,,,,,,,,51.60719529201742,51.954541167011485,52.74784529197496,52.73763183294796,52.73836924997158,52.74784529197496,52.74784529197496,53.35075345798396,r,1.0,0.5908475839532912,,,,,,,,,,,,,,,,,,,,,,,,,,,,,,,,,,,,,,,,sub-048,1,stroop_test,,
test,yellow,g,1.0,3.0,0.0,1.0,g,1.0,0.8687142499256879,,,,,,,,,,,,,,,,,,1.0,0.0,3.0,1.0,,,,,,,,,53.35983641701751,,,,,,,,,,,,,,,,,53.35115683299955,54.54831887490582,55.34054499992635,55.332659416948445,55.333293541916646,55.34054499992635,55.34054499992635,56.21657404198777,g,1.0,0.8687142499256879,,,,,,,,,,,,,,,,,,,,,,,,,,,,,,,,,,,,,,,,sub-048,1,stroop_test,,
test,red,r,1.0,4.0,1.0,1.0,r,1.0,0.5812690000748262,,,,,,,,,,,,,,,,,,1.0,1.0,4.0,0.0,,,,,,,,,56.2255291249603,,,,,,,,,,,,,,,,,56.21695612499025,57.01528016699013,57.80828891694546,57.80012449994683,57.80084649997298,57.80828891694546,57.80828891694546,58.402521417010576,r,1.0,0.5812690000748262,,,,,,,,,,,,,,,,,,,,,,,,,,,,,,,,,,,,,,,,sub-048,1,stroop_test,,
test,blue,b,1.0,5.0,2.0,1.0,b,1.0,1.7834910420933738,,,,,,,,,,,,,,,,,,1.0,2.0,5.0,2.0,,,,,,,,,58.41578141693026,,,,,,,,,,,,,,,,,58.40293695800938,58.74891158298124,59.54018491692841,59.53267987491563,59.53334337496199,59.54018491692841,59.54018491692841,61.33430462493561,b,1.0,1.7834910420933738,,,,,,,,,,,,,,,,,,,,,,,,,,,,,,,,,,,,,,,,sub-048,1,stroop_test,,
test,blue,b,1.0,6.0,0.0,2.0,b,1.0,0.5487892079399899,,,,,,,,,,,,,,,,,,2.0,0.0,6.0,2.0,,,,,,,,,61.34368995798286,,,,,,,,,,,,,,,,,61.33469887496904,61.68205687496811,62.47432304196991,62.46623254194856,62.46696333296131,62.47432304196991,62.47432304196991,63.03404662490357,b,1.0,0.5487892079399899,,,,,,,,,,,,,,,,,,,,,,,,,,,,,,,,,,,,,,,,sub-048,1,stroop_test,,
test,red,r,1.0,7.0,1.0,2.0,r,1.0,0.583366374950856,,,,,,,,,,,,,,,,,,2.0,1.0,7.0,0.0,,,,,,,,,63.04330404195935,,,,,,,,,,,,,,,,,63.03445666690823,64.23240833298769,65.02479549997952,65.01678933296353,65.01745695795398,65.02479549997952,65.02479549997952,65.61698524991516,r,1.0,0.583366374950856,,,,,,,,,,,,,,,,,,,,,,,,,,,,,,,,,,,,,,,,sub-048,1,stroop_test,,
test,yellow,g,1.0,8.0,2.0,2.0,g,1.0,0.6057578750187531,,,,,,,,,,,,,,,,,,2.0,2.0,8.0,1.0,,,,,,,,,65.62627699994482,,,,,,,,,,,,,,,,,65.61736620799638,65.96529112500139,66.75716624991037,66.7497025829507,66.75037591694854,66.75716624991037,66.75716624991037,67.36782370798755,g,1.0,0.6057578750187531,,,,,,,,,,,,,,,,,,,,,,,,,,,,,,,,,,,,,,,,sub-048,1,stroop_test,,
test,blue,b,1.0,9.0,0.0,3.0,b,1.0,0.3154425829416141,,,,,,,,,,,,,,,,,,3.0,0.0,9.0,2.0,,,,,,,,,67.37689924996812,,,,,,,,,,,,,,,,,67.36821695801336,67.465900124982,68.25834374991246,68.24987691699062,68.2506198749179,68.25834374991246,68.25834374991246,68.58410712494515,b,1.0,0.3154425829416141,,,,,,,,,,,,,,,,,,,,,,,,,,,,,,,,,,,,,,,,sub-048,1,stroop_test,,
test,red,r,1.0,10.0,1.0,3.0,g,0.0,0.5163583750836551,,,,,,,,,,,,,,,,,,3.0,1.0,10.0,0.0,,,,,,,,,68.59351216698997,,,,,,,,,,,,,,,,,68.58453358290717,68.68259741691872,69.47531937493477,69.46696091699414,69.46776316699106,69.47531937493477,69.47531937493477,70.00052449991927,g,0.0,0.5163583750836551,,,,,,,,,,,,,,,,,,,,,,,,,,,,,,,,,,,,,,,,sub-048,1,stroop_test,,
test,yellow,g,1.0,11.0,2.0,3.0,r,0.0,0.0198221249738708,,,,,,,,,,,,,,,,,,3.0,2.0,11.0,1.0,,,,,,,,,70.00944220798556,,,,,,,,,,,,,,,,,70.00090104201809,70.0885690000141,70.88191429199651,70.87268262496218,70.8733816249296,70.88191429199651,70.88191429199651,70.90677799994592,r,0.0,0.0198221249738708,,,,,,,,,,,,,,,,,,,,,,,,,,,,,,,,,,,,,,,,sub-048,1,stroop_test,,
,,,,,,,,,,,,,,,,,,,,,,,,,,,,,,,,,,,,,,,,,,,,,,,,,,,,,,,,,,,,,,,,,,,,70.90696604200639,70.9190297499299,70.9190297499299,75.2682625419693,space,4.337150582927279,,,,,,,,,,,,,,,,,,,,,,,,,,,,,,,,,sub-048,1,stroop_test,,
,,,,0.0,0.0,0.0,,,,,blau,yellow,g,0.0,b,0.0,0.7255447079660371,,,,,,,,,,,,,,0.0,0.0,0.0,7.0,,,,,75.29127295792568,,,,,,,,,,,,,,,,,75.28244216693565,76.06615237495862,76.86353220790625,76.85003337496892,,,,,,,,,,,,,,,,76.85630754195154,76.86353220790625,76.86353220790625,77.60132195800543,b,0.0,0.7255447079660371,,77.60707458294928,77.61733570799697,78.6065645829076,78.60056295793038,,,,,,,,,,,,,,,,,,,,sub-048,1,stroop_test,,
,,,,1.0,1.0,0.0,,,,,rot,yellow,g,0.0,r,0.0,0.6238854170078412,,,,,,,,,,,,,,0.0,1.0,1.0,3.0,,,,,78.6065645829076,,,,,,,,,,,,,,,,,78.60106837493367,79.79952120792586,80.59682354191318,80.58340658294037,,,,,,,,,,,,,,,,80.58937033300754,80.59682354191318,80.59682354191318,81.22579499997664,r,0.0,0.6238854170078412,,81.22653658292256,81.24051399994642,,82.23365179193206,,,,,,,,,,,,,,,,,,,,sub-048,1,stroop_test,,
,,,,2.0,2.0,0.0,,,,,blau,blue,b,1.0,b,1.0,0.8008272090228274,,,,,,,,,,,,,,0.0,2.0,2.0,6.0,,,,,82.23882270790637,,,,,,,,,,,,,,,,,82.23411104199477,83.0225649169879,83.82858437497634,83.8175457919715,,,,,,,,,,,,,,,,83.82141099998262,83.82858437497634,83.82858437497634,84.63481295795646,b,1.0,0.8008272090228274,,84.64013666694518,84.6502094999887,85.63905662496109,85.63378995796666,,,,,,,,,,,,,,,,,,,,sub-048,1,stroop_test,,
,,,,3.0,3.0,0.0,,,,,gelb,yellow,g,1.0,g,1.0,1.3996155420318246,,,,,,,,,,,,,,0.0,3.0,3.0,10.0,,,,,85.63905662496109,,,,,,,,,,,,,,,,,85.63422779191751,85.98298504191916,86.77828337496612,86.76694158301689,,,,,,,,,,,,,,,,86.77083441696595,86.77828337496612,86.77828337496612,88.18525829201099,g,1.0,1.3996155420318246,,88.18598483293317,88.19682937499601,89.19065745791886,89.1847920420114,,,,,,,,,,,,,,,,,,,,sub-048,1,stroop_test,,
,,,,4.0,4.0,0.0,,,,,gelb,red,r,0.0,g,0.0,0.9337715000147,,,,,,,,,,,,,,0.0,4.0,4.0,8.0,,,,,89.19065745791886,,,,,,,,,,,,,,,,,89.18536474998109,89.28322212491184,90.07532270799857,90.06727945792954,,,,,,,,,,,,,,,,90.06819974991959,90.07532270799857,90.07532270799857,91.01869887497742,g,0.0,0.9337715000147,,91.02262774994595,91.03348820796236,92.02356416697148,92.01768912491389,,,,,,,,,,,,,,,,,,,,sub-048,1,stroop_test,,
,,,,5.0,5.0,0.0,,,,,rot,blue,b,0.0,r,0.0,0.9282515830127522,,,,,,,,,,,,,,0.0,5.0,5.0,2.0,,,,,92.02356416697148,,,,,,,,,,,,,,,,,92.01819958293343,93.21678991697264,94.012559166993,94.00124504195992,,,,,,,,,,,,,,,,94.00506029196548,94.012559166993,94.012559166993,94.95181624998804,r,0.0,0.9282515830127522,,94.9523823329946,94.96286795800552,95.95556637493428,95.9505738329608,,,,,,,,,,,,,,,,,,,,sub-048,1,stroop_test,,
,,,,6.0,6.0,0.0,,,,,rot,red,r,1.0,r,1.0,1.212048124987632,,,,,,,,,,,,,,0.0,6.0,6.0,0.0,,,,,95.95556637493428,,,,,,,,,,,,,,,,,95.95103633299004,96.05022941692732,96.84281858301256,96.83479812496807,,,,,,,,,,,,,,,,96.83545708295424,96.84281858301256,96.84281858301256,98.05826537497342,r,1.0,1.212048124987632,,98.06254879198968,98.07360783300828,,99.06760624994058,,,,,,,,,,,,,,,,,,,,sub-048,1,stroop_test,,
,,,,7.0,7.0,0.0,,,,,gelb,blue,b,0.0,g,0.0,1.106204833020456,,,,,,,,,,,,,,0.0,7.0,7.0,9.0,,,,,99.07304120797198,,,,,,,,,,,,,,,,,99.0680744999554,100.2562618330121,101.05025391699746,101.03947691700888,,,,,,,,,,,,,,,,101.04315970791504,101.05025391699746,101.05025391699746,102.15916754200587,g,0.0,1.106204833020456,,102.16277720790822,102.17434233298992,,103.16713600000368,,,,,,,,,,,,,,,,,,,,sub-048,1,stroop_test,,
,,,,8.0,8.0,0.0,,,,,rot,red,r,1.0,r,1.0,3.564809915958904,,,,,,,,,,,,,,0.0,8.0,8.0,1.0,,,,,103.17221654194871,,,,,,,,,,,,,,,,,103.1676185419783,103.95696316694377,104.75485658296384,104.74160404200666,,,,,,,,,,,,,,,,104.74535891693084,104.75485658296384,104.75485658296384,108.32604358298704,r,1.0,3.564809915958904,,108.3296984579647,108.34067837498152,,109.33502195798792,,,,,,,,,,,,,,,,,,,,sub-048,1,stroop_test,,
,,,,9.0,9.0,0.0,,,,,gelb,yellow,g,1.0,g,1.0,0.9892281669890508,,,,,,,,,,,,,,0.0,9.0,9.0,11.0,,,,,109.34137566690332,,,,,,,,,,,,,,,,,109.3355715830112,110.1253439579159,110.93081337492912,110.918978416943,,,,,,,,,,,,,,,,110.92331287497656,110.93081337492912,110.93081337492912,111.92556529201102,g,1.0,0.9892281669890508,,111.92614083294757,111.93803416693116,112.93481345800684,112.92349337495398,,,,,,,,,,,,,,,,,,,,sub-048,1,stroop_test,,
,,,,10.0,10.0,0.0,,,,,blau,red,r,0.0,r,1.0,0.6534497499233112,,,,,,,,,,,,,,0.0,10.0,10.0,4.0,,,,,112.93481345800684,,,,,,,,,,,,,,,,,112.92388312495314,113.27376795792952,114.06755191693082,114.05717566690872,,,,,,,,,,,,,,,,114.06066170800476,114.06755191693082,114.06755191693082,114.72575929190498,r,1.0,0.6534497499233112,,114.72631312499288,114.73765079199802,115.73489874997176,115.7235078329686,,,,,,,,,,,,,,,,,,,,sub-048,1,stroop_test,,
,,,,11.0,11.0,0.0,,,,,blau,blue,b,1.0,b,1.0,0.7686710839625448,,,,,,,,,,,,,,0.0,11.0,11.0,5.0,,,,,115.73489874997176,,,,,,,,,,,,,,,,,115.72394900000654,116.07356787496246,116.86783620796632,116.85645104199648,,,,,,,,,,,,,,,,116.856997457915,116.86783620796632,116.86783620796632,117.64139370794874,b,1.0,0.7686710839625448,,117.64195799990556,117.66774970793632,,118.65124854200984,,,,,,,,,,,,,,,,,,,,sub-048,1,stroop_test,,
,,,,12.0,0.0,1.0,,,,,gelb,blue,b,0.0,b,1.0,0.5832814580062404,,,,,,,,,,,,,,1.0,0.0,12.0,9.0,,,,,118.65702387492638,,,,,,,,,,,,,,,,,118.65176658297425,119.84087420790456,120.64761995791925,120.63584662496578,,,,,,,,,,,,,,,,120.64045904192608,120.64761995791925,120.64761995791925,121.236015958013,b,1.0,0.5832814580062404,,121.23658108292148,121.24685366696212,122.23984249995556,122.23511345800944,,,,,,,,,,,,,,,,,,,,sub-048,1,stroop_test,,
,,,,13.0,1.0,1.0,,,,,blau,yellow,g,0.0,g,1.0,1.107107499963604,,,,,,,,,,,,,,1.0,1.0,13.0,7.0,,,,,122.23984249995556,,,,,,,,,,,,,,,,,122.23543583299032,122.33463874994776,123.13148491701575,123.11962074995972,,,,,,,,,,,,,,,,123.12369345792104,123.13148491701575,123.13148491701575,124.24253729195334,g,1.0,1.107107499963604,,124.24313129193617,124.25425733299926,125.25151162501425,125.24045899999328,,,,,,,,,,,,,,,,,,,,sub-048,1,stroop_test,,
,,,,14.0,2.0,1.0,,,,,rot,blue,b,0.0,r,0.0,0.664769500028342,,,,,,,,,,,,,,1.0,2.0,14.0,2.0,,,,,125.25151162501425,,,,,,,,,,,,,,,,,125.2409248749027,126.04076612496284,126.8384807499824,126.8248008749215,,,,,,,,,,,,,,,,126.82898874999955,126.8384807499824,126.8384807499824,127.50982787495012,r,0.0,0.664769500028342,,127.51341679191682,127.5254487079801,,128.51885366695933,,,,,,,,,,,,,,,,,,,,sub-048,1,stroop_test,,
,,,,15.0,3.0,1.0,,,,,rot,red,r,1.0,r,1.0,0.6383315410930663,,,,,,,,,,,,,,1.0,3.0,15.0,1.0,,,,,128.52411774999928,,,,,,,,,,,,,,,,,128.5193287919974,128.60847220791038,129.40073287498672,129.39276591700036,,,,,,,,,,,,,,,,129.3934531249106,129.40073287498672,129.40073287498672,130.04330099991057,r,1.0,0.6383315410930663,,130.04693750001024,130.05825241701675,,131.05171195801813,,,,,,,,,,,,,,,,,,,,sub-048,1,stroop_test,,
,,,,16.0,4.0,1.0,,,,,gelb,yellow,g,1.0,r,0.0,0.7751098340377212,,,,,,,,,,,,,,1.0,4.0,16.0,10.0,,,,,131.0567719999235,,,,,,,,,,,,,,,,,131.05217541696038,132.2411357499659,133.0344275420066,133.02416245790664,,,,,,,,,,,,,,,,133.02746145799756,133.0344275420066,133.0344275420066,133.82014137494843,r,0.0,0.7751098340377212,,133.82365916692652,133.83416620793287,134.82549841690343,134.81969720800407,,,,,,,,,,,,,,,,,,,,sub-048,1,stroop_test,,
,,,,17.0,5.0,1.0,,,,,gelb,red,r,0.0,g,0.0,0.4924902080092579,,,,,,,,,,,,,,1.0,5.0,17.0,8.0,,,,,134.82549841690343,,,,,,,,,,,,,,,,,134.82017720793374,135.61858999996912,136.4110027080169,136.40272399992682,,,,,,,,,,,,,,,,136.4034349579597,136.4110027080169,136.4110027080169,136.9085789169185,g,0.0,0.4924902080092579,,136.9091421669582,136.93520095793065,,137.91913770791143,,,,,,,,,,,,,,,,,,,,sub-048,1,stroop_test,,
,,,,18.0,6.0,1.0,,,,,blau,red,r,0.0,b,0.0,0.7519669160246849,,,,,,,,,,,,,,1.0,6.0,18.0,4.0,,,,,137.92435616697185,,,,,,,,,,,,,,,,,137.91960374999326,139.10823141690344,139.9186756249983,139.89186120801605,,,,,,,,,,,,,,,,139.8960187919438,139.9186756249983,139.9186756249983,140.6755904169986,b,0.0,0.7519669160246849,,140.67617237498052,140.7019525419455,,141.68598083290271,,,,,,,,,,,,,,,,,,,,sub-048,1,stroop_test,,
,,,,19.0,7.0,1.0,,,,,rot,red,r,1.0,r,1.0,0.6100967499660328,,,,,,,,,,,,,,1.0,7.0,19.0,0.0,,,,,141.69252562499605,,,,,,,,,,,,,,,,,141.6864099999657,141.77486999996472,142.5805879579857,142.56973049999215,,,,,,,,,,,,,,,,142.57320295798127,142.5805879579857,142.5805879579857,143.19358633295633,r,1.0,0.6100967499660328,,143.19722504192032,143.2081534579629,144.2020512499148,144.1910802499624,,,,,,,,,,,,,,,,,,,,sub-048,1,stroop_test,,
,,,,20.0,8.0,1.0,,,,,blau,blue,b,1.0,b,1.0,0.9795883339829744,,,,,,,,,,,,,,1.0,8.0,20.0,5.0,,,,,144.2020512499148,,,,,,,,,,,,,,,,,144.19144370791037,144.54150208295323,145.3359557079384,145.3260049999226,,,,,,,,,,,,,,,,145.32921287498905,145.3359557079384,145.3359557079384,146.32109891693108,b,1.0,0.9795883339829744,,146.32189620798454,146.33342633291613,147.32625204196663,147.32032470800914,,,,,,,,,,,,,,,,,,,,sub-048,1,stroop_test,,
,,,,21.0,9.0,1.0,,,,,rot,yellow,g,0.0,g,1.0,1.018516750074923,,,,,,,,,,,,,,1.0,9.0,21.0,3.0,,,,,147.32625204196663,,,,,,,,,,,,,,,,,147.32079941697884,147.41909891692922,148.21304924995638,148.20284362498205,,,,,,,,,,,,,,,,148.20588166697416,148.21304924995638,148.21304924995638,149.23869645793457,g,1.0,1.018516750074923,,149.23927187500522,149.2495315829292,150.24155337491538,150.2364226669306,,,,,,,,,,,,,,,,,,,,sub-048,1,stroop_test,,
,,,,22.0,10.0,1.0,,,,,blau,blue,b,1.0,b,1.0,0.801690874970518,,,,,,,,,,,,,,1.0,10.0,22.0,6.0,,,,,150.24155337491538,,,,,,,,,,,,,,,,,150.23688937490806,150.33579325000755,151.1303222499555,151.11957049998455,,,,,,,,,,,,,,,,151.1232053330168,151.1303222499555,151.1303222499555,151.93839541694615,b,1.0,0.801690874970518,,151.93897787493188,151.94904333294835,152.9415562079521,152.93635141698178,,,,,,,,,,,,,,,,,,,,sub-048,1,stroop_test,,
,,,,23.0,11.0,1.0,,,,,gelb,yellow,g,1.0,g,1.0,0.4626314579509198,,,,,,,,,,,,,,1.0,11.0,23.0,11.0,,,,,152.9415562079521,,,,,,,,,,,,,,,,,152.93682883295696,153.28577954194043,154.08153412491083,154.07042966701556,,,,,,,,,,,,,,,,154.07427087496035,154.08153412491083,154.08153412491083,154.55452345800586,g,1.0,0.4626314579509198,,154.5550793329021,154.56560345797334,155.5615142500028,155.55389895790722,,,,,,,,,,,,,,,,,,,,sub-048,1,stroop_test,,
,,,,,,,,,,,,,,,,,,,,,,,,,,,,,,,,,,,,,,,,,,,,,,,,,,,,,,,,,,,,,,,,,,,,,,,,,,,,,,,,,,,,,,,155.55407787498552,155.5615142500028,155.5615142500028,177.61225424997974,space,22.04684949992225,,,,,,,,,,,,,,sub-048,1,stroop_test,,
,,,,0.0,0.0,0.0,,,,,,,,,,,,,gelb,yellow,g,1.0,g,1.0,1.0554131669923663,,,,,,,,,,0.0,0.0,0.0,11.0,177.63629720790777,,,,,,,,,,,,,,,,,177.62711070792284,177.70916899992153,178.50422941695433,178.49264395795765,,,,,,,,,,,,,,,,,,,,,,,,,,,,,,,,,,,178.49668062501587,178.50422941695433,178.50422941695433,179.5621365829138,g,1.0,1.0554131669923663,,,,,,sub-048,1,stroop_test,,
,,,,1.0,1.0,0.0,,,,,,,,,,,,,rot,red,r,1.0,r,1.0,0.6919443330261856,,,,,,,,,,0.0,1.0,1.0,1.0,179.58696762495674,,,,,,,,,,,,,,,,,179.5625945829088,180.35987070796543,181.16549579193816,181.15432224993128,,,,,,,,,,,,,,,,,,,,,,,,,,,,,,,,,,,181.15799749991857,181.16549579193816,181.16549579193816,181.86100191692825,r,1.0,0.6919443330261856,,,,,,sub-048,1,stroop_test,,
,,,,2.0,2.0,0.0,,,,,,,,,,,,,blau,yellow,g,0.0,b,0.0,0.551588875008747,,,,,,,,,,0.0,2.0,2.0,7.0,181.8702695419779,,,,,,,,,,,,,,,,,181.8614379169885,182.2089193329448,183.0072638329584,182.99451274995224,,,,,,,,,,,,,,,,,,,,,,,,,,,,,,,,,,,182.9980574579677,183.0072638329584,183.0072638329584,183.5627147079213,b,0.0,0.551588875008747,,,,,,sub-048,1,stroop_test,,
,,,,3.0,3.0,0.0,,,,,,,,,,,,,rot,yellow,g,0.0,r,0.0,0.5825563339749351,,,,,,,,,,0.0,3.0,3.0,3.0,183.5736011669505,,,,,,,,,,,,,,,,,183.5631682499079,184.761001707986,185.55817191698588,185.54516895790584,,,,,,,,,,,,,,,,,,,,,,,,,,,,,,,,,,,185.5487788330065,185.55817191698588,185.55817191698588,186.1463731249096,r,0.0,0.5825563339749351,,,,,,sub-048,1,stroop_test,,
,,,,4.0,4.0,0.0,,,,,,,,,,,,,blau,red,r,0.0,b,0.0,0.989455624949187,,,,,,,,,,0.0,4.0,4.0,4.0,186.15734441694804,,,,,,,,,,,,,,,,,186.146932750009,186.2445461669704,187.0495501669357,187.0385295829037,,,,,,,,,,,,,,,,,,,,,,,,,,,,,,,,,,,187.04224229196552,187.0495501669357,187.0495501669357,188.0444914579857,b,0.0,0.989455624949187,,,,,,sub-048,1,stroop_test,,
,,,,5.0,5.0,0.0,,,,,,,,,,,,,rot,red,r,1.0,r,1.0,1.0181934169959277,,,,,,,,,,0.0,5.0,5.0,0.0,188.0537044579396,,,,,,,,,,,,,,,,,188.04492083296643,188.1436667079106,188.94396070798396,188.92872583295684,,,,,,,,,,,,,,,,,,,,,,,,,,,,,,,,,,,188.93268229195385,188.94396070798396,188.94396070798396,189.97305379190948,r,1.0,1.0181934169959277,,,,,,sub-048,1,stroop_test,,
,,,,6.0,6.0,0.0,,,,,,,,,,,,,rot,blue,b,0.0,r,0.0,1.1186944169458002,,,,,,,,,,0.0,6.0,6.0,2.0,189.9830122499261,,,,,,,,,,,,,,,,,189.97359833295923,190.77098349994048,191.5637630829588,191.555602791952,,,,,,,,,,,,,,,,,,,,,,,,,,,,,,,,,,,191.55631116696168,191.5637630829588,191.5637630829588,192.6898129999172,r,0.0,1.1186944169458002,,,,,,sub-048,1,stroop_test,,
,,,,7.0,7.0,0.0,,,,,,,,,,,,,gelb,red,r,0.0,r,1.0,0.8833273330237716,,,,,,,,,,0.0,7.0,7.0,8.0,192.699225832941,,,,,,,,,,,,,,,,,192.69035783293657,193.48726424993947,194.28356408292893,194.27183112490457,,,,,,,,,,,,,,,,,,,,,,,,,,,,,,,,,,,194.27642504195683,194.28356408292893,194.28356408292893,195.17272262496408,r,1.0,0.8833273330237716,,,,,,sub-048,1,stroop_test,,
,,,,8.0,8.0,0.0,,,,,,,,,,,,,gelb,yellow,g,1.0,g,1.0,1.7025166660314426,,,,,,,,,,0.0,8.0,8.0,10.0,195.1820200419752,,,,,,,,,,,,,,,,,195.1731679169461,195.52093720796984,196.31345395790413,196.305031041964,,,,,,,,,,,,,,,,,,,,,,,,,,,,,,,,,,,196.30569616693535,196.31345395790413,196.31345395790413,198.02278195798863,g,1.0,1.7025166660314426,,,,,,sub-048,1,stroop_test,,
,,,,9.0,9.0,0.0,,,,,,,,,,,,,blau,blue,b,1.0,b,1.0,0.6979424580931664,,,,,,,,,,0.0,9.0,9.0,5.0,198.0322437499417,,,,,,,,,,,,,,,,,198.02333237498533,198.120764583,198.91606145794503,198.9048663330032,,,,,,,,,,,,,,,,,,,,,,,,,,,,,,,,,,,198.908672541962,198.91606145794503,198.91606145794503,199.62267487496135,b,1.0,0.6979424580931664,,,,,,sub-048,1,stroop_test,,
,,,,10.0,10.0,0.0,,,,,,,,,,,,,blau,blue,b,1.0,b,1.0,0.5079347500577569,,,,,,,,,,0.0,10.0,10.0,6.0,199.6318026249064,,,,,,,,,,,,,,,,,199.62311537493952,199.971773291938,200.7647699579829,200.7563880829839,,,,,,,,,,,,,,,,,,,,,,,,,,,,,,,,,,,200.75725591694936,200.7647699579829,200.7647699579829,201.2780029999558,b,1.0,0.5079347500577569,,,,,,sub-048,1,stroop_test,,
,,,,11.0,11.0,0.0,,,,,,,,,,,,,gelb,blue,b,0.0,b,1.0,0.4699393339687958,,,,,,,,,,0.0,11.0,11.0,9.0,201.2873534169048,,,,,,,,,,,,,,,,,201.27842341701037,202.4774626669241,203.270916791982,203.26058079197537,,,,,,,,,,,,,,,,,,,,,,,,,,,,,,,,,,,203.26390729192644,203.270916791982,203.270916791982,203.74566024995875,b,1.0,0.4699393339687958,,,,,,sub-048,1,stroop_test,,
,,,,12.0,0.0,1.0,,,,,,,,,,,,,blau,blue,b,1.0,b,1.0,0.5724432079587132,,,,,,,,,,1.0,0.0,12.0,6.0,203.7546385419555,,,,,,,,,,,,,,,,,203.7460915419506,204.9440457919845,205.73798949993216,205.72772329195868,,,,,,,,,,,,,,,,,,,,,,,,,,,,,,,,,,,205.730798332952,205.73798949993216,205.73798949993216,206.31257454201116,b,1.0,0.5724432079587132,,,,,,sub-048,1,stroop_test,,
,,,,13.0,1.0,1.0,,,,,,,,,,,,,gelb,blue,b,0.0,b,1.0,0.508320500026457,,,,,,,,,,1.0,1.0,13.0,9.0,206.32198037498165,,,,,,,,,,,,,,,,,206.3130337079056,207.1107366669457,207.9214184579905,207.89479104196653,,,,,,,,,,,,,,,,,,,,,,,,,,,,,,,,,,,207.8989037919091,207.9214184579905,207.9214184579905,208.4399655829184,b,1.0,0.508320500026457,,,,,,sub-048,1,stroop_test,,
,,,,14.0,2.0,1.0,,,,,,,,,,,,,gelb,red,r,0.0,r,1.0,0.8445152500644326,,,,,,,,,,1.0,2.0,14.0,8.0,208.44918212492485,,,,,,,,,,,,,,,,,208.4405080829747,208.78831470792647,209.5803387919441,209.57206774991937,,,,,,,,,,,,,,,,,,,,,,,,,,,,,,,,,,,209.5727572079049,209.5803387919441,209.5803387919441,210.42882466700397,r,1.0,0.8445152500644326,,,,,,sub-048,1,stroop_test,,
,,,,15.0,3.0,1.0,,,,,,,,,,,,,rot,blue,b,0.0,g,0.0,2.0025928750401363,,,,,,,,,,1.0,3.0,15.0,2.0,210.43774008296896,,,,,,,,,,,,,,,,,210.4292618749896,210.7781529999338,211.57254724996164,211.56153595796783,,,,,,,,,,,,,,,,,,,,,,,,,,,,,,,,,,,211.56516283296517,211.57254724996164,211.57254724996164,213.57891108293552,g,0.0,2.0025928750401363,,,,,,sub-048,1,stroop_test,,
,,,,16.0,4.0,1.0,,,,,,,,,,,,,rot,red,r,1.0,r,1.0,1.0764504170510918,,,,,,,,,,1.0,4.0,16.0,1.0,213.58815008297097,,,,,,,,,,,,,,,,,213.5794285829179,214.3781144999666,215.1805320829153,215.17258487490471,,,,,,,,,,,,,,,,,,,,,,,,,,,,,,,,,,,215.17328820796683,215.1805320829153,215.1805320829153,216.2634229999967,r,1.0,1.0764504170510918,,,,,,sub-048,1,stroop_test,,
,,,,17.0,5.0,1.0,,,,,,,,,,,,,gelb,yellow,g,1.0,g,1.0,1.4294659169390798,,,,,,,,,,1.0,5.0,17.0,11.0,216.2720884579467,,,,,,,,,,,,,,,,,216.2638477080036,216.61216720798984,217.4170349579072,217.4057934579905,,,,,,,,,,,,,,,,,,,,,,,,,,,,,,,,,,,217.40970899991223,217.4170349579072,217.4170349579072,218.8570975419134,g,1.0,1.4294659169390798,,,,,,sub-048,1,stroop_test,,
,,,,18.0,6.0,1.0,,,,,,,,,,,,,blau,blue,b,1.0,b,1.0,0.3773087080335244,,,,,,,,,,1.0,6.0,18.0,5.0,218.8663565829629,,,,,,,,,,,,,,,,,218.85754074994475,220.05536220793147,220.8500708329957,220.8391352079343,,,,,,,,,,,,,,,,,,,,,,,,,,,,,,,,,,,220.84271899994928,220.8500708329957,220.8500708329957,221.2295217500068,b,1.0,0.3773087080335244,,,,,,sub-048,1,stroop_test,,
,,,,19.0,7.0,1.0,,,,,,,,,,,,,blau,red,r,0.0,r,1.0,1.0592264579609036,,,,,,,,,,1.0,7.0,19.0,4.0,221.23877474991605,,,,,,,,,,,,,,,,,221.22995516692757,222.4283299579984,223.23180924996268,223.2235387499677,,,,,,,,,,,,,,,,,,,,,,,,,,,,,,,,,,,223.22425833297893,223.23180924996268,223.23180924996268,224.29613270796835,r,1.0,1.0592264579609036,,,,,,sub-048,1,stroop_test,,
,,,,20.0,8.0,1.0,,,,,,,,,,,,,gelb,yellow,g,1.0,g,1.0,1.2238271249225363,,,,,,,,,,1.0,8.0,20.0,10.0,224.30534662492573,,,,,,,,,,,,,,,,,224.29655954195184,225.09513112495188,225.88933629193343,225.878484332934,,,,,,,,,,,,,,,,,,,,,,,,,,,,,,,,,,,225.8819314169232,225.88933629193343,225.88933629193343,227.1242919579381,g,1.0,1.2238271249225363,,,,,,sub-048,1,stroop_test,,
,,,,21.0,9.0,1.0,,,,,,,,,,,,,rot,red,r,1.0,r,1.0,1.7182239999528974,,,,,,,,,,1.0,9.0,21.0,0.0,227.1337300830055,,,,,,,,,,,,,,,,,227.12484366691208,227.92228695796803,228.716750707943,228.70612925000023,,,,,,,,,,,,,,,,,,,,,,,,,,,,,,,,,,,228.7093877079897,228.716750707943,228.716750707943,230.44124629197177,r,1.0,1.7182239999528974,,,,,,sub-048,1,stroop_test,,
,,,,22.0,10.0,1.0,,,,,,,,,,,,,blau,yellow,g,0.0,g,1.0,1.4522982080234217,,,,,,,,,,1.0,10.0,22.0,7.0,230.451229166938,,,,,,,,,,,,,,,,,230.44180425000377,230.53960675001144,231.33384279196616,231.32293345790825,,,,,,,,,,,,,,,,,,,,,,,,,,,,,,,,,,,231.32652141700964,231.33384279196616,231.33384279196616,232.7913190829568,g,1.0,1.4522982080234217,,,,,,sub-048,1,stroop_test,,
,,,,23.0,11.0,1.0,,,,,,,,,,,,,rot,yellow,g,0.0,g,1.0,1.3892647500615567,,,,,,,,,,1.0,11.0,23.0,3.0,232.8006715419469,,,,,,,,,,,,,,,,,232.7918747919612,232.8893007920124,233.68531804194208,233.6730648329249,,,,,,,,,,,,,,,,,,,,,,,,,,,,,,,,,,,233.6775579169625,233.68531804194208,233.68531804194208,235.08097412495408,g,1.0,1.3892647500615567,,,,,,sub-048,1,stroop_test,,
,,,,24.0,0.0,2.0,,,,,,,,,,,,,gelb,red,r,0.0,r,1.0,2.07818650000263,,,,,,,,,,2.0,0.0,24.0,8.0,235.10599099996037,,,,,,,,,,,,,,,,,235.08151720790192,235.8785374169238,236.67235687491484,236.6618119579507,,,,,,,,,,,,,,,,,,,,,,,,,,,,,,,,,,,236.66536391701084,236.67235687491484,236.67235687491484,238.75831004197244,r,1.0,2.07818650000263,,,,,,sub-048,1,stroop_test,,
,,,,25.0,1.0,2.0,,,,,,,,,,,,,blau,yellow,g,0.0,g,1.0,1.693638833006844,,,,,,,,,,2.0,1.0,25.0,7.0,238.7679285419872,,,,,,,,,,,,,,,,,238.75885787501463,239.10628629196435,239.9015272499528,239.8900301249232,,,,,,,,,,,,,,,,,,,,,,,,,,,,,,,,,,,239.89429458300583,239.9015272499528,239.9015272499528,241.59775574994276,g,1.0,1.693638833006844,,,,,,sub-048,1,stroop_test,,
,,,,26.0,2.0,2.0,,,,,,,,,,,,,blau,red,r,0.0,r,1.0,1.0262417499907317,,,,,,,,,,2.0,2.0,26.0,4.0,241.6230182920117,,,,,,,,,,,,,,,,,241.5982845419785,242.79655633296352,243.5980395419756,243.59030549996527,,,,,,,,,,,,,,,,,,,,,,,,,,,,,,,,,,,243.59100954199675,243.5980395419756,243.5980395419756,244.62989841692612,r,1.0,1.0262417499907317,,,,,,sub-048,1,stroop_test,,
,,,,27.0,3.0,2.0,,,,,,,,,,,,,blau,blue,b,1.0,b,1.0,1.1253880419535562,,,,,,,,,,2.0,3.0,27.0,5.0,244.63921095791736,,,,,,,,,,,,,,,,,244.63034749997317,245.82931358297355,246.63237933290657,246.624296749942,,,,,,,,,,,,,,,,,,,,,,,,,,,,,,,,,,,246.624987166957,246.63237933290657,246.63237933290657,247.77041783300228,b,1.0,1.1253880419535562,,,,,,sub-048,1,stroop_test,,
,,,,28.0,4.0,2.0,,,,,,,,,,,,,gelb,yellow,g,1.0,g,1.0,0.850174207938835,,,,,,,,,,2.0,4.0,28.0,10.0,247.7758046669187,,,,,,,,,,,,,,,,,247.770868832944,248.56202158296944,249.35749383294024,249.3461790420115,,,,,,,,,,,,,,,,,,,,,,,,,,,,,,,,,,,249.35017687501383,249.35749383294024,249.35749383294024,250.21931395796128,g,1.0,0.850174207938835,,,,,,sub-048,1,stroop_test,,
,,,,29.0,5.0,2.0,,,,,,,,,,,,,rot,yellow,g,0.0,g,1.0,1.363694250001572,,,,,,,,,,2.0,5.0,29.0,3.0,250.22609024995472,,,,,,,,,,,,,,,,,250.21975299995395,250.31236987491135,251.10614945797715,251.095566916978,,,,,,,,,,,,,,,,,,,,,,,,,,,,,,,,,,,251.09880916692785,251.10614945797715,251.10614945797715,252.4750922080129,g,1.0,1.363694250001572,,,,,,sub-048,1,stroop_test,,
,,,,30.0,6.0,2.0,,,,,,,,,,,,,rot,red,r,1.0,r,1.0,0.8382701670052484,,,,,,,,,,2.0,6.0,30.0,0.0,252.4842832919676,,,,,,,,,,,,,,,,,252.4755482499022,253.67327949998435,254.4650429999456,254.45781854190864,,,,,,,,,,,,,,,,,,,,,,,,,,,,,,,,,,,254.4583314579213,254.4650429999456,254.4650429999456,255.30842987494543,r,1.0,0.8382701670052484,,,,,,sub-048,1,stroop_test,,
,,,,31.0,7.0,2.0,,,,,,,,,,,,,rot,blue,b,0.0,b,1.0,1.275271625025198,,,,,,,,,,2.0,7.0,31.0,2.0,255.31740041694135,,,,,,,,,,,,,,,,,255.30886741692663,255.40729295799972,256.20649854198564,256.19612354191486,,,,,,,,,,,,,,,,,,,,,,,,,,,,,,,,,,,256.1966561250156,256.20649854198564,256.20649854198564,257.4922876249766,b,1.0,1.275271625025198,,,,,,sub-048,1,stroop_test,,
,,,,32.0,8.0,2.0,,,,,,,,,,,,,rot,red,r,1.0,r,1.0,0.720182792050764,,,,,,,,,,2.0,8.0,32.0,1.0,257.5019229169702,,,,,,,,,,,,,,,,,257.4929056249093,258.6949765830068,259.490318291937,259.47973320796154,,,,,,,,,,,,,,,,,,,,,,,,,,,,,,,,,,,259.4802943749819,259.490318291937,259.490318291937,260.2142994579626,r,1.0,0.720182792050764,,,,,,sub-048,1,stroop_test,,
,,,,33.0,9.0,2.0,,,,,,,,,,,,,gelb,yellow,g,1.0,g,1.0,1.1367297909455374,,,,,,,,,,2.0,9.0,33.0,11.0,260.2234939580085,,,,,,,,,,,,,,,,,260.2147476669634,260.3130397920031,261.1068675830029,261.0964982499136,,,,,,,,,,,,,,,,,,,,,,,,,,,,,,,,,,,261.09997208300047,261.1068675830029,261.1068675830029,262.24888620793354,g,1.0,1.1367297909455374,,,,,,sub-048,1,stroop_test,,
,,,,34.0,10.0,2.0,,,,,,,,,,,,,blau,blue,b,1.0,b,1.0,0.8311147909844294,,,,,,,,,,2.0,10.0,34.0,6.0,262.2737286249176,,,,,,,,,,,,,,,,,262.24933345790487,263.4575153749902,264.2518055830151,264.2414073329419,,,,,,,,,,,,,,,,,,,,,,,,,,,,,,,,,,,264.24475187493954,264.2518055830151,264.2518055830151,265.0918825829867,b,1.0,0.8311147909844294,,,,,,sub-048,1,stroop_test,,
,,,,35.0,11.0,2.0,,,,,,,,,,,,,gelb,blue,b,0.0,b,1.0,1.8579074169974772,,,,,,,,,,2.0,11.0,35.0,9.0,265.10081699991133,,,,,,,,,,,,,,,,,265.09231020801235,266.2904772500042,267.08705620793626,267.0751191249583,,,,,,,,,,,,,,,,,,,,,,,,,,,,,,,,,,,267.0796884169104,267.08705620793626,267.08705620793626,268.948617166956,b,1.0,1.8579074169974772,,,,,,sub-048,1,stroop_test,,
,,,,36.0,0.0,3.0,,,,,,,,,,,,,blau,blue,b,1.0,b,1.0,0.5176015410106629,,,,,,,,,,3.0,0.0,36.0,6.0,268.9572152079781,,,,,,,,,,,,,,,,,268.9490656249691,270.1468051249394,270.9574428749038,270.929888957995,,,,,,,,,,,,,,,,,,,,,,,,,,,,,,,,,,,270.93409229198005,270.9574428749038,270.9574428749038,271.4867953329813,b,1.0,0.5176015410106629,,,,,,sub-048,1,stroop_test,,
,,,,37.0,1.0,3.0,,,,,,,,,,,,,blau,blue,b,1.0,b,1.0,0.3854933340335265,,,,,,,,,,3.0,1.0,37.0,5.0,271.4935309999855,,,,,,,,,,,,,,,,,271.4872307080077,272.28047595801763,273.0735364579596,273.063590082922,,,,,,,,,,,,,,,,,,,,,,,,,,,,,,,,,,,273.06429508293513,273.0735364579596,273.0735364579596,273.46413166692946,b,1.0,0.3854933340335265,,,,,,sub-048,1,stroop_test,,
,,,,38.0,2.0,3.0,,,,,,,,,,,,,gelb,red,r,0.0,r,1.0,0.8597340830601752,,,,,,,,,,3.0,2.0,38.0,8.0,273.4736332499888,,,,,,,,,,,,,,,,,273.46455608296674,274.65751158294734,275.45738562499173,275.44718062493484,,,,,,,,,,,,,,,,,,,,,,,,,,,,,,,,,,,275.4502736249706,275.45738562499173,275.45738562499173,276.3266638749046,r,1.0,0.8597340830601752,,,,,,sub-048,1,stroop_test,,
,,,,39.0,3.0,3.0,,,,,,,,,,,,,rot,red,r,1.0,r,1.0,0.4162920829840004,,,,,,,,,,3.0,3.0,39.0,1.0,276.3361589999404,,,,,,,,,,,,,,,,,276.3272530419053,276.4243033749517,277.2194748749025,277.2088907499565,,,,,,,,,,,,,,,,,,,,,,,,,,,,,,,,,,,277.2118976669153,277.2194748749025,277.2194748749025,277.6430262499489,r,1.0,0.4162920829840004,,,,,,sub-048,1,stroop_test,,
,,,,40.0,4.0,3.0,,,,,,,,,,,,,gelb,yellow,g,1.0,g,1.0,0.8287564580095932,,,,,,,,,,3.0,4.0,40.0,11.0,277.6530025419779,,,,,,,,,,,,,,,,,277.64357391698286,278.44514362490736,279.24024491698947,279.2299284579931,,,,,,,,,,,,,,,,,,,,,,,,,,,,,,,,,,,279.23302012495697,279.24024491698947,279.24024491698947,280.07645754201803,g,1.0,0.8287564580095932,,,,,,sub-048,1,stroop_test,,
,,,,41.0,5.0,3.0,,,,,,,,,,,,,rot,red,r,1.0,r,1.0,0.5397248340304941,,,,,,,,,,3.0,5.0,41.0,0.0,280.08603320794646,,,,,,,,,,,,,,,,,280.0770061669173,281.27454166696407,282.06987687491346,282.05841466691345,,,,,,,,,,,,,,,,,,,,,,,,,,,,,,,,,,,282.0622521669138,282.06987687491346,282.06987687491346,282.61505599995144,r,1.0,0.5397248340304941,,,,,,sub-048,1,stroop_test,,
,,,,42.0,6.0,3.0,,,,,,,,,,,,,rot,blue,b,0.0,b,1.0,0.994900708901696,,,,,,,,,,3.0,6.0,42.0,2.0,282.624306541984,,,,,,,,,,,,,,,,,282.6154752919683,283.41433562501334,284.2072733329842,284.19803220790345,,,,,,,,,,,,,,,,,,,,,,,,,,,,,,,,,,,284.1987246249337,284.2072733329842,284.2072733329842,285.209943124908,b,1.0,0.994900708901696,,,,,,sub-048,1,stroop_test,,
,,,,43.0,7.0,3.0,,,,,,,,,,,,,gelb,blue,b,0.0,b,1.0,1.37794945796486,,,,,,,,,,3.0,7.0,43.0,9.0,285.2193214999279,,,,,,,,,,,,,,,,,285.21038329193834,286.408096625004,287.2075343329925,287.19569570792373,,,,,,,,,,,,,,,,,,,,,,,,,,,,,,,,,,,287.1987527079182,287.2075343329925,287.2075343329925,288.59353729197755,b,1.0,1.37794945796486,,,,,,sub-048,1,stroop_test,,
,,,,44.0,8.0,3.0,,,,,,,,,,,,,blau,red,r,0.0,r,1.0,0.924154542037286,,,,,,,,,,3.0,8.0,44.0,4.0,288.60280233295634,,,,,,,,,,,,,,,,,288.59400358295534,288.94232349994127,289.7365494999103,289.72540854196995,,,,,,,,,,,,,,,,,,,,,,,,,,,,,,,,,,,289.7292745419545,289.7365494999103,289.7365494999103,290.66668258293066,r,1.0,0.924154542037286,,,,,,sub-048,1,stroop_test,,
,,,,45.0,9.0,3.0,,,,,,,,,,,,,blau,yellow,g,0.0,g,1.0,1.087995416019112,,,,,,,,,,3.0,9.0,45.0,7.0,290.693691457971,,,,,,,,,,,,,,,,,290.66715095797554,291.8652386670001,292.6675143749453,292.6589116249233,,,,,,,,,,,,,,,,,,,,,,,,,,,,,,,,,,,292.6596272079041,292.6675143749453,292.6675143749453,293.7604346249718,g,1.0,1.087995416019112,,,,,,sub-048,1,stroop_test,,
,,,,46.0,10.0,3.0,,,,,,,,,,,,,rot,yellow,g,0.0,g,1.0,1.589266834082082,,,,,,,,,,3.0,10.0,46.0,3.0,293.7705412500072,,,,,,,,,,,,,,,,,293.7610808329191,294.5582642079098,295.35408249998,295.3422317079967,,,,,,,,,,,,,,,,,,,,,,,,,,,,,,,,,,,295.34666070796084,295.35408249998,295.35408249998,296.9496257499559,g,1.0,1.589266834082082,,,,,,sub-048,1,stroop_test,,
,,,,47.0,11.0,3.0,,,,,,,,,,,,,gelb,yellow,g,1.0,g,1.0,1.1576098749646917,,,,,,,,,,3.0,11.0,47.0,10.0,296.9592143329792,,,,,,,,,,,,,,,,,296.95017708290834,297.7476686669979,298.54277687496506,298.5315980419982,,,,,,,,,,,,,,,,,,,,,,,,,,,,,,,,,,,298.5354212919483,298.54277687496506,298.54277687496506,299.71063508291263,g,1.0,1.1576098749646917,,,,,,sub-048,1,stroop_test,,
,,,,48.0,0.0,4.0,,,,,,,,,,,,,gelb,red,r,0.0,g,0.0,0.7200706669827923,,,,,,,,,,4.0,0.0,48.0,8.0,299.72059129201807,,,,,,,,,,,,,,,,,299.71117679192685,300.0585543749621,300.8503883749945,300.8425491669914,,,,,,,,,,,,,,,,,,,,,,,,,,,,,,,,,,,300.8432270420017,300.8503883749945,300.8503883749945,301.5777075419901,g,0.0,0.7200706669827923,,,,,,sub-048,1,stroop_test,,
,,,,49.0,1.0,4.0,,,,,,,,,,,,,gelb,blue,b,0.0,b,1.0,1.1248352909460664,,,,,,,,,,4.0,1.0,49.0,9.0,301.5869931249181,,,,,,,,,,,,,,,,,301.57819354196545,302.7751685419353,303.56831937492825,303.56024858297314,,,,,,,,,,,,,,,,,,,,,,,,,,,,,,,,,,,303.5609374999767,303.56831937492825,303.56831937492825,304.6989691249328,b,1.0,1.1248352909460664,,,,,,sub-048,1,stroop_test,,
,,,,50.0,2.0,4.0,,,,,,,,,,,,,blau,blue,b,1.0,b,1.0,0.4417043330613523,,,,,,,,,,4.0,2.0,50.0,5.0,304.7081992919557,,,,,,,,,,,,,,,,,304.69939924997743,305.4989457919728,306.29565091698896,306.2829859169433,,,,,,,,,,,,,,,,,,,,,,,,,,,,,,,,,,,306.28646883298643,306.29565091698896,306.29565091698896,306.74508183298167,b,1.0,0.4417043330613523,,,,,,sub-048,1,stroop_test,,
,,,,51.0,3.0,4.0,,,,,,,,,,,,,gelb,yellow,g,1.0,g,1.0,0.7231059999903664,,,,,,,,,,4.0,3.0,51.0,10.0,306.754717374919,,,,,,,,,,,,,,,,,306.74563579191454,307.0922094999114,307.88730366691016,307.8760837079026,,,,,,,,,,,,,,,,,,,,,,,,,,,,,,,,,,,307.8799899579026,307.88730366691016,307.88730366691016,308.62318779190537,g,1.0,0.7231059999903664,,,,,,sub-048,1,stroop_test,,
,,,,52.0,4.0,4.0,,,,,,,,,,,,,rot,blue,b,0.0,b,1.0,1.795676791924052,,,,,,,,,,4.0,4.0,52.0,2.0,308.6281677079387,,,,,,,,,,,,,,,,,308.6236181249842,308.96535512490664,309.75968620798085,309.7484258329496,,,,,,,,,,,,,,,,,,,,,,,,,,,,,,,,,,,309.7522348749917,309.75968620798085,309.75968620798085,311.56071141699795,b,1.0,1.795676791924052,,,,,,sub-048,1,stroop_test,,
,,,,53.0,5.0,4.0,,,,,,,,,,,,,blau,red,r,0.0,r,1.0,0.8494631249923259,,,,,,,,,,4.0,5.0,53.0,4.0,311.56982295797206,,,,,,,,,,,,,,,,,311.5611510829767,312.7590332919499,313.5538132499205,313.5430724169128,,,,,,,,,,,,,,,,,,,,,,,,,,,,,,,,,,,313.5466677499935,313.5538132499205,313.5538132499205,314.4111154580023,r,1.0,0.8494631249923259,,,,,,sub-048,1,stroop_test,,
,,,,54.0,6.0,4.0,,,,,,,,,,,,,rot,red,r,1.0,r,1.0,0.9929255420574918,,,,,,,,,,4.0,6.0,54.0,0.0,314.4208041669335,,,,,,,,,,,,,,,,,314.4116554579232,314.75991795794107,315.5565586669836,315.5437450419413,,,,,,,,,,,,,,,,,,,,,,,,,,,,,,,,,,,315.5492339580087,315.5565586669836,315.5565586669836,316.56117729190737,r,1.0,0.9929255420574918,,,,,,sub-048,1,stroop_test,,
,,,,55.0,7.0,4.0,,,,,,,,,,,,,rot,yellow,g,0.0,g,1.0,1.7040210840059444,,,,,,,,,,4.0,7.0,55.0,3.0,316.5705100420164,,,,,,,,,,,,,,,,,316.56159654201474,316.6592863330152,317.45171637495514,317.4437903749058,,,,,,,,,,,,,,,,,,,,,,,,,,,,,,,,,,,317.4445089579094,317.45171637495514,317.45171637495514,319.16108266694937,g,1.0,1.7040210840059444,,,,,,sub-048,1,stroop_test,,
,,,,56.0,8.0,4.0,,,,,,,,,,,,,blau,yellow,g,0.0,g,1.0,1.474069832940586,,,,,,,,,,4.0,8.0,56.0,7.0,319.1701211669715,,,,,,,,,,,,,,,,,319.1615069999825,319.5093307499774,320.3045179999899,320.2933310419321,,,,,,,,,,,,,,,,,,,,,,,,,,,,,,,,,,,320.2972261669347,320.3045179999899,320.3045179999899,321.7851187499473,g,1.0,1.474069832940586,,,,,,sub-048,1,stroop_test,,
,,,,57.0,9.0,4.0,,,,,,,,,,,,,gelb,yellow,g,1.0,g,1.0,0.5424359169555828,,,,,,,,,,4.0,9.0,57.0,11.0,321.7959929169156,,,,,,,,,,,,,,,,,321.78568387497216,322.5818607499823,323.3754132919712,323.36511241691187,,,,,,,,,,,,,,,,,,,,,,,,,,,,,,,,,,,323.36820870800875,323.3754132919712,323.3754132919712,323.9282057079254,g,1.0,0.5424359169555828,,,,,,sub-048,1,stroop_test,,
,,,,58.0,10.0,4.0,,,,,,,,,,,,,rot,red,r,1.0,r,1.0,0.4157938749995082,,,,,,,,,,4.0,10.0,58.0,1.0,323.93771633296274,,,,,,,,,,,,,,,,,323.92870020796545,324.2762972499477,325.0720950419782,325.0606659579789,,,,,,,,,,,,,,,,,,,,,,,,,,,,,,,,,,,325.0644943329971,325.0720950419782,325.0720950419782,325.49534412496723,r,1.0,0.4157938749995082,,,,,,sub-048,1,stroop_test,,
,,,,59.0,11.0,4.0,,,,,,,,,,,,,blau,blue,b,1.0,b,1.0,0.6072493750834838,,,,,,,,,,4.0,11.0,59.0,6.0,325.50449870794546,,,,,,,,,,,,,,,,,325.49579570791684,326.6936181669589,327.4885642079171,327.4774276249809,,,,,,,,,,,,,,,,,,,,,,,,,,,,,,,,,,,327.4813052499667,327.4885642079171,327.4885642079171,328.10013695794623,b,1.0,0.6072493750834838,,,,,,sub-048,1,stroop_test,,
,,,,60.0,0.0,5.0,,,,,,,,,,,,,rot,red,r,1.0,r,1.0,0.5297823749715462,,,,,,,,,,5.0,0.0,60.0,0.0,328.10927570797503,,,,,,,,,,,,,,,,,328.1005575829185,328.19904137495905,328.992458374938,328.9820495829917,,,,,,,,,,,,,,,,,,,,,,,,,,,,,,,,,,,328.98506337497383,328.992458374938,328.992458374938,329.5287360829534,r,1.0,0.5297823749715462,,,,,,sub-048,1,stroop_test,,
,,,,61.0,1.0,5.0,,,,,,,,,,,,,gelb,red,r,0.0,r,1.0,1.0488614580826834,,,,,,,,,,5.0,1.0,61.0,8.0,329.5378122079419,,,,,,,,,,,,,,,,,329.5292745420011,329.876623417018,330.67109445796814,330.6603419169551,,,,,,,,,,,,,,,,,,,,,,,,,,,,,,,,,,,330.6639509999659,330.67109445796814,330.67109445796814,331.72811454196926,r,1.0,1.0488614580826834,,,,,,sub-048,1,stroop_test,,
,,,,62.0,2.0,5.0,,,,,,,,,,,,,rot,blue,b,0.0,b,1.0,1.748360124998726,,,,,,,,,,5.0,2.0,62.0,2.0,331.73724454198964,,,,,,,,,,,,,,,,,331.7285377919907,331.8273556670174,332.6220466250088,332.6108066670131,,,,,,,,,,,,,,,,,,,,,,,,,,,,,,,,,,,332.6147996669169,332.6220466250088,332.6220466250088,334.37877458299045,b,1.0,1.748360124998726,,,,,,sub-048,1,stroop_test,,
,,,,63.0,3.0,5.0,,,,,,,,,,,,,blau,yellow,g,0.0,g,1.0,0.8131903751054779,,,,,,,,,,5.0,3.0,63.0,7.0,334.3882177079795,,,,,,,,,,,,,,,,,334.3793045829516,335.1767549999058,335.9723326249514,335.96106433297973,,,,,,,,,,,,,,,,,,,,,,,,,,,,,,,,,,,335.9650091669755,335.9723326249514,335.9723326249514,336.79565304191783,g,1.0,0.8131903751054779,,,,,,sub-048,1,stroop_test,,
,,,,64.0,4.0,5.0,,,,,,,,,,,,,gelb,yellow,g,1.0,g,1.0,1.241156916948967,,,,,,,,,,5.0,4.0,64.0,11.0,336.8053395829629,,,,,,,,,,,,,,,,,336.79619941697456,337.99375337490346,338.78757962491363,338.77770208299626,,,,,,,,,,,,,,,,,,,,,,,,,,,,,,,,,,,338.78095512499567,338.78757962491363,338.78757962491363,340.0348556669196,g,1.0,1.241156916948967,,,,,,sub-048,1,stroop_test,,
,,,,65.0,5.0,5.0,,,,,,,,,,,,,rot,red,r,1.0,r,1.0,0.7580087919486687,,,,,,,,,,5.0,5.0,65.0,1.0,340.04383374995086,,,,,,,,,,,,,,,,,340.0353212499758,341.2339394999435,342.038967957953,342.0282046669163,,,,,,,,,,,,,,,,,,,,,,,,,,,,,,,,,,,342.03202499996405,342.038967957953,342.038967957953,342.80180529190693,r,1.0,0.7580087919486687,,,,,,sub-048,1,stroop_test,,
,,,,66.0,6.0,5.0,,,,,,,,,,,,,gelb,blue,b,0.0,g,0.0,1.4851639579283074,,,,,,,,,,5.0,6.0,66.0,9.0,342.81106504192576,,,,,,,,,,,,,,,,,342.80223487492185,342.89922504196875,343.7105014169356,343.6844577079173,,,,,,,,,,,,,,,,,,,,,,,,,,,,,,,,,,,343.6879952499876,343.7105014169356,343.7105014169356,345.2002120419638,g,0.0,1.4851639579283074,,,,,,sub-048,1,stroop_test,,
,,,,67.0,7.0,5.0,,,,,,,,,,,,,gelb,yellow,g,1.0,g,1.0,2.0022442920599133,,,,,,,,,,5.0,7.0,67.0,10.0,345.2102492499398,,,,,,,,,,,,,,,,,345.2006569169462,345.9997514169663,346.8022985419957,346.7943347080145,,,,,,,,,,,,,,,,,,,,,,,,,,,,,,,,,,,346.79501679190435,346.8022985419957,346.8022985419957,348.8123541249661,g,1.0,2.0022442920599133,,,,,,sub-048,1,stroop_test,,
,,,,68.0,8.0,5.0,,,,,,,,,,,,,blau,blue,b,1.0,b,1.0,0.7163405000464991,,,,,,,,,,5.0,8.0,68.0,6.0,348.8215309579391,,,,,,,,,,,,,,,,,348.81279304192867,349.1605422919383,349.95507412496954,349.9447389169364,,,,,,,,,,,,,,,,,,,,,,,,,,,,,,,,,,,349.9480659170076,349.95507412496954,349.95507412496954,350.68031812494155,b,1.0,0.7163405000464991,,,,,,sub-048,1,stroop_test,,
,,,,69.0,9.0,5.0,,,,,,,,,,,,,blau,red,r,0.0,r,1.0,0.4939195410115644,,,,,,,,,,5.0,9.0,69.0,4.0,350.69059541693423,,,,,,,,,,,,,,,,,350.68106808292214,351.47729399998207,352.269261166919,352.2614118329948,,,,,,,,,,,,,,,,,,,,,,,,,,,,,,,,,,,352.26207854191307,352.269261166919,352.269261166919,352.7675990419229,r,1.0,0.4939195410115644,,,,,,sub-048,1,stroop_test,,
,,,,70.0,10.0,5.0,,,,,,,,,,,,,blau,blue,b,1.0,b,1.0,0.4406412920216098,,,,,,,,,,5.0,10.0,70.0,5.0,352.7766124579357,,,,,,,,,,,,,,,,,352.7680283749942,353.566882749903,354.360257082968,354.3506482919911,,,,,,,,,,,,,,,,,,,,,,,,,,,,,,,,,,,354.35128795797937,354.360257082968,354.360257082968,354.8031138329534,b,1.0,0.4406412920216098,,,,,,sub-048,1,stroop_test,,
,,,,71.0,11.0,5.0,,,,,,,,,,,,,rot,yellow,g,0.0,g,1.0,0.6813447920139879,,,,,,,,,,5.0,11.0,71.0,3.0,354.81440083298367,,,,,,,,,,,,,,,,,354.8035504579311,355.60000179195777,356.3982500829734,356.3847573749954,,,,,,,,,,,,,,,,,,,,,,,,,,,,,,,,,,,356.389209582936,356.3982500829734,356.3982500829734,357.08435454196297,g,1.0,0.6813447920139879,,,,,,sub-048,1,stroop_test,,
,,,,72.0,0.0,6.0,,,,,,,,,,,,,gelb,blue,b,0.0,b,1.0,1.4297485419083389,,,,,,,,,,6.0,0.0,72.0,9.0,357.0936431669397,,,,,,,,,,,,,,,,,357.08479224995244,358.28449612495024,359.0909160419833,359.0791928329272,,,,,,,,,,,,,,,,,,,,,,,,,,,,,,,,,,,359.0834259999683,359.0909160419833,359.0909160419833,360.5294306249125,b,1.0,1.4297485419083389,,,,,,sub-048,1,stroop_test,,
,,,,73.0,1.0,6.0,,,,,,,,,,,,,blau,blue,b,1.0,b,1.0,0.6259253330063075,,,,,,,,,,6.0,1.0,73.0,5.0,360.5386077919975,,,,,,,,,,,,,,,,,360.5299567499897,361.3278977079317,362.1235874579288,362.1123225420015,,,,,,,,,,,,,,,,,,,,,,,,,,,,,,,,,,,362.1162054999732,362.1235874579288,362.1235874579288,362.7516552079469,b,1.0,0.6259253330063075,,,,,,sub-048,1,stroop_test,,
,,,,74.0,2.0,6.0,,,,,,,,,,,,,blau,red,r,0.0,r,1.0,0.9489095830358564,,,,,,,,,,6.0,2.0,74.0,4.0,362.7607385419542,,,,,,,,,,,,,,,,,362.75200566696,362.8496026250068,363.6440553750144,363.6344397079665,,,,,,,,,,,,,,,,,,,,,,,,,,,,,,,,,,,363.6350942919962,363.6440553750144,363.6440553750144,364.59652287501376,r,1.0,0.9489095830358564,,,,,,sub-048,1,stroop_test,,
,,,,75.0,3.0,6.0,,,,,,,,,,,,,blau,yellow,g,0.0,b,0.0,0.6936942080501467,,,,,,,,,,6.0,3.0,75.0,7.0,364.6062127919868,,,,,,,,,,,,,,,,,364.59707874991,364.694568958017,365.4858506669989,365.4783025420038,,,,,,,,,,,,,,,,,,,,,,,,,,,,,,,,,,,365.479009832954,365.4858506669989,365.4858506669989,366.19069216691423,b,0.0,0.6936942080501467,,,,,,sub-048,1,stroop_test,,
,,,,76.0,4.0,6.0,,,,,,,,,,,,,gelb,red,r,0.0,r,1.0,1.4021347919479012,,,,,,,,,,6.0,4.0,76.0,8.0,366.1974144999404,,,,,,,,,,,,,,,,,366.1911316249752,366.2827235419536,367.0947388749337,367.0683118749876,,,,,,,,,,,,,,,,,,,,,,,,,,,,,,,,,,,367.07194504200015,367.0947388749337,367.0947388749337,368.5017287499504,r,1.0,1.4021347919479012,,,,,,sub-048,1,stroop_test,,
,,,,77.0,5.0,6.0,,,,,,,,,,,,,gelb,yellow,g,1.0,g,1.0,0.8653938339557499,,,,,,,,,,6.0,5.0,77.0,10.0,368.5107144999784,,,,,,,,,,,,,,,,,368.50217329198495,369.3010857499903,370.0942533749621,370.0842502079904,,,,,,,,,,,,,,,,,,,,,,,,,,,,,,,,,,,370.08495312498417,370.0942533749621,370.0942533749621,370.96342383301817,g,1.0,0.8653938339557499,,,,,,sub-048,1,stroop_test,,
,,,,78.0,6.0,6.0,,,,,,,,,,,,,rot,blue,b,0.0,b,1.0,1.051869541988708,,,,,,,,,,6.0,6.0,78.0,2.0,370.9724734169431,,,,,,,,,,,,,,,,,370.963866957929,371.0620389999822,371.8570287079783,371.8458996249829,,,,,,,,,,,,,,,,,,,,,,,,,,,,,,,,,,,371.8497196669923,371.8570287079783,371.8570287079783,372.9139308750164,b,1.0,1.051869541988708,,,,,,sub-048,1,stroop_test,,
,,,,79.0,7.0,6.0,,,,,,,,,,,,,rot,yellow,g,0.0,g,1.0,1.0452327079838142,,,,,,,,,,6.0,7.0,79.0,3.0,372.9232982499525,,,,,,,,,,,,,,,,,372.9144629999064,373.26196345791686,374.0537507919362,374.0461256249109,,,,,,,,,,,,,,,,,,,,,,,,,,,,,,,,,,,374.0467894169269,374.0537507919362,374.0537507919362,375.102826874936,g,1.0,1.0452327079838142,,,,,,sub-048,1,stroop_test,,
,,,,80.0,8.0,6.0,,,,,,,,,,,,,gelb,yellow,g,1.0,g,1.0,0.4148015830432996,,,,,,,,,,6.0,8.0,80.0,11.0,375.12851025001146,,,,,,,,,,,,,,,,,375.1033693329664,375.9009877080098,376.71172895794734,376.6855605000165,,,,,,,,,,,,,,,,,,,,,,,,,,,,,,,,,,,376.689133582986,376.71172895794734,376.71172895794734,377.1303123749094,g,1.0,0.4148015830432996,,,,,,sub-048,1,stroop_test,,
,,,,81.0,9.0,6.0,,,,,,,,,,,,,blau,blue,b,1.0,b,1.0,0.5732769169844687,,,,,,,,,,6.0,9.0,81.0,6.0,377.1395008749096,,,,,,,,,,,,,,,,,377.1308163749054,378.3285474579316,379.1260414579883,379.1132014999166,,,,,,,,,,,,,,,,,,,,,,,,,,,,,,,,,,,379.118464707979,379.1260414579883,379.1260414579883,379.7026869169204,b,1.0,0.5732769169844687,,,,,,sub-048,1,stroop_test,,
,,,,82.0,10.0,6.0,,,,,,,,,,,,,rot,red,r,1.0,r,1.0,0.7711978330044076,,,,,,,,,,6.0,10.0,82.0,0.0,379.71199354191776,,,,,,,,,,,,,,,,,379.7031117079314,380.0512646669522,380.8452025830047,380.8344194169622,,,,,,,,,,,,,,,,,,,,,,,,,,,,,,,,,,,380.83808412496,380.8452025830047,380.8452025830047,381.61888854193967,r,1.0,0.7711978330044076,,,,,,sub-048,1,stroop_test,,
,,,,83.0,11.0,6.0,,,,,,,,,,,,,rot,red,r,1.0,r,1.0,0.95318741700612,,,,,,,,,,6.0,11.0,83.0,1.0,381.62781879201066,,,,,,,,,,,,,,,,,381.6193099579541,382.81826516694855,383.61142912495416,383.6017317919759,,,,,,,,,,,,,,,,,,,,,,,,,,,,,,,,,,,383.60235904192086,383.61142912495416,383.61142912495416,384.5688967079623,r,1.0,0.95318741700612,,,,,,sub-048,1,stroop_test,,
,,,,84.0,0.0,7.0,,,,,,,,,,,,,blau,red,r,0.0,r,1.0,1.5522907499689609,,,,,,,,,,7.0,0.0,84.0,4.0,384.57843804196455,,,,,,,,,,,,,,,,,384.5693345000036,384.6672788329888,385.4616159580182,385.45049874996766,,,,,,,,,,,,,,,,,,,,,,,,,,,,,,,,,,,385.45355916698463,385.4616159580182,385.4616159580182,387.01934645790607,r,1.0,1.5522907499689609,,,,,,sub-048,1,stroop_test,,
,,,,85.0,1.0,7.0,,,,,,,,,,,,,blau,blue,b,1.0,b,1.0,1.9516952499980107,,,,,,,,,,7.0,1.0,85.0,5.0,387.02841770800296,,,,,,,,,,,,,,,,,387.01977258292027,387.1118439169368,387.90476045792457,387.8968665419379,,,,,,,,,,,,,,,,,,,,,,,,,,,,,,,,,,,387.8975025829859,387.90476045792457,387.90476045792457,389.8643472919939,b,1.0,1.9516952499980107,,,,,,sub-048,1,stroop_test,,
,,,,86.0,2.0,7.0,,,,,,,,,,,,,rot,blue,b,0.0,b,1.0,1.0721441250061616,,,,,,,,,,7.0,2.0,86.0,2.0,389.8744267079746,,,,,,,,,,,,,,,,,389.8649572079303,390.66231116699055,391.457786749932,391.447037542006,,,,,,,,,,,,,,,,,,,,,,,,,,,,,,,,,,,391.4504998750053,391.457786749932,391.457786749932,392.5325260419632,b,1.0,1.0721441250061616,,,,,,sub-048,1,stroop_test,,
,,,,87.0,3.0,7.0,,,,,,,,,,,,,rot,red,r,1.0,r,1.0,0.8294557500630617,,,,,,,,,,7.0,3.0,87.0,1.0,392.542008957942,,,,,,,,,,,,,,,,,392.532977416995,392.8790610829601,393.67105562496,393.6631459579803,,,,,,,,,,,,,,,,,,,,,,,,,,,,,,,,,,,393.6638393329922,393.67105562496,393.67105562496,394.5045562919695,r,1.0,0.8294557500630617,,,,,,sub-048,1,stroop_test,,
,,,,88.0,4.0,7.0,,,,,,,,,,,,,gelb,blue,b,0.0,g,0.0,0.7980307090329006,,,,,,,,,,7.0,4.0,88.0,9.0,394.5292097919155,,,,,,,,,,,,,,,,,394.50496904191095,395.7029769580113,396.50908733299,396.49688274995424,,,,,,,,,,,,,,,,,,,,,,,,,,,,,,,,,,,396.5015652079601,396.50908733299,396.50908733299,397.3148610419594,g,0.0,0.7980307090329006,,,,,,sub-048,1,stroop_test,,
,,,,89.0,5.0,7.0,,,,,,,,,,,,,rot,red,r,1.0,r,1.0,0.565064457943663,,,,,,,,,,7.0,5.0,89.0,0.0,397.3242649579188,,,,,,,,,,,,,,,,,397.3153130830033,397.6625651249197,398.45755179191474,398.4467258749064,,,,,,,,,,,,,,,,,,,,,,,,,,,,,,,,,,,398.450122582959,398.45755179191474,398.45755179191474,399.0312649169937,r,1.0,0.565064457943663,,,,,,sub-048,1,stroop_test,,
,,,,90.0,6.0,7.0,,,,,,,,,,,,,rot,yellow,g,0.0,g,1.0,1.1593422919977456,,,,,,,,,,7.0,6.0,90.0,3.0,399.0406973749632,,,,,,,,,,,,,,,,,399.0318057079567,400.2293277080171,401.02203949994873,401.0136416249443,,,,,,,,,,,,,,,,,,,,,,,,,,,,,,,,,,,401.0143554999959,401.02203949994873,401.02203949994873,402.1924524999922,g,1.0,1.1593422919977456,,,,,,sub-048,1,stroop_test,,
,,,,91.0,7.0,7.0,,,,,,,,,,,,,gelb,red,r,0.0,r,1.0,0.7784687499515712,,,,,,,,,,7.0,7.0,91.0,8.0,402.1992842080072,,,,,,,,,,,,,,,,,402.1929147919873,402.5357516669901,403.3462107919622,403.3196343749296,,,,,,,,,,,,,,,,,,,,,,,,,,,,,,,,,,,403.3237298330059,403.3462107919622,403.3462107919622,404.1314942919416,r,1.0,0.7784687499515712,,,,,,sub-048,1,stroop_test,,
,,,,92.0,8.0,7.0,,,,,,,,,,,,,gelb,yellow,g,1.0,g,1.0,0.3316810840042308,,,,,,,,,,7.0,8.0,92.0,11.0,404.14100966695696,,,,,,,,,,,,,,,,,404.1320093749091,405.32936337497085,406.1222671669675,406.1140381669393,,,,,,,,,,,,,,,,,,,,,,,,,,,,,,,,,,,406.1147525419947,406.1222671669675,406.1222671669675,406.4647277499316,g,1.0,0.3316810840042308,,,,,,sub-048,1,stroop_test,,
,,,,93.0,9.0,7.0,,,,,,,,,,,,,blau,blue,b,1.0,b,1.0,0.4266786250518635,,,,,,,,,,7.0,9.0,93.0,6.0,406.47378220793325,,,,,,,,,,,,,,,,,406.4651530829724,406.8130559580168,407.6095432919683,407.59748274995945,,,,,,,,,,,,,,,,,,,,,,,,,,,,,,,,,,,407.6021088329144,407.6095432919683,407.6095432919683,408.0476397919701,b,1.0,0.4266786250518635,,,,,,sub-048,1,stroop_test,,
,,,,94.0,10.0,7.0,,,,,,,,,,,,,blau,yellow,g,0.0,r,0.0,0.4758662499953061,,,,,,,,,,7.0,10.0,94.0,7.0,408.0525187079329,,,,,,,,,,,,,,,,,408.04810970800463,408.1371192079969,408.93852529197466,408.9308271670016,,,,,,,,,,,,,,,,,,,,,,,,,,,,,,,,,,,408.93148408294655,408.93852529197466,408.93852529197466,409.4202887499705,r,0.0,0.4758662499953061,,,,,,sub-048,1,stroop_test,,
,,,,95.0,11.0,7.0,,,,,,,,,,,,,gelb,yellow,g,1.0,g,1.0,0.4048215420916676,,,,,,,,,,7.0,11.0,95.0,10.0,409.4295574169373,,,,,,,,,,,,,,,,,409.4207049999386,409.5190358749824,410.3124376249034,410.3021384169115,,,,,,,,,,,,,,,,,,,,,,,,,,,,,,,,,,,410.3052194999764,410.3124376249034,410.3124376249034,410.72124179196544,g,1.0,0.4048215420916676,,,,,,sub-048,1,stroop_test,,
,,,,96.0,0.0,8.0,,,,,,,,,,,,,rot,yellow,g,0.0,g,1.0,0.3172778750304132,,,,,,,,,,8.0,0.0,96.0,3.0,410.7305518749636,,,,,,,,,,,,,,,,,410.7216568329604,411.0698496669065,411.8638494169573,411.852865666966,,,,,,,,,,,,,,,,,,,,,,,,,,,,,,,,,,,411.85636495798826,411.8638494169573,411.8638494169573,412.1872698329389,g,1.0,0.3172778750304132,,,,,,sub-048,1,stroop_test,,
,,,,97.0,1.0,8.0,,,,,,,,,,,,,gelb,red,r,0.0,r,1.0,0.3680569580756128,,,,,,,,,,8.0,1.0,97.0,8.0,412.1964259169763,,,,,,,,,,,,,,,,,412.1876895419555,412.53602845792193,413.3467874169583,413.31971816695295,,,,,,,,,,,,,,,,,,,,,,,,,,,,,,,,,,,413.324010042008,413.3467874169583,413.3467874169583,413.7218764999416,r,1.0,0.3680569580756128,,,,,,sub-048,1,stroop_test,,
,,,,98.0,2.0,8.0,,,,,,,,,,,,,blau,red,r,0.0,r,1.0,1.7894088750472292,,,,,,,,,,8.0,2.0,98.0,4.0,413.7466963749612,,,,,,,,,,,,,,,,,413.7222939999774,414.0704345419072,414.8752833330073,414.86411920795217,,,,,,,,,,,,,,,,,,,,,,,,,,,,,,,,,,,414.8680291249184,414.8752833330073,414.8752833330073,416.6706284579122,r,1.0,1.7894088750472292,,,,,,sub-048,1,stroop_test,,
,,,,99.0,3.0,8.0,,,,,,,,,,,,,gelb,yellow,g,1.0,g,1.0,0.8638071669265628,,,,,,,,,,8.0,3.0,99.0,11.0,416.6797604999738,,,,,,,,,,,,,,,,,416.6710583330132,417.0197964999825,417.8177639169153,417.8044742079219,,,,,,,,,,,,,,,,,,,,,,,,,,,,,,,,,,,417.8088287499268,417.8177639169153,417.8177639169153,418.6959780419711,g,1.0,0.8638071669265628,,,,,,sub-048,1,stroop_test,,
,,,,100.0,4.0,8.0,,,,,,,,,,,,,blau,blue,b,1.0,b,1.0,0.498194208019413,,,,,,,,,,8.0,4.0,100.0,6.0,418.7008689579088,,,,,,,,,,,,,,,,,418.6964313749922,418.78479237493593,419.5798790829722,419.5692621249473,,,,,,,,,,,,,,,,,,,,,,,,,,,,,,,,,,,419.5729179169284,419.5798790829722,419.5798790829722,420.0822140829405,b,1.0,0.498194208019413,,,,,,sub-048,1,stroop_test,,
,,,,101.0,5.0,8.0,,,,,,,,,,,,,rot,red,r,1.0,r,1.0,0.7640743750380352,,,,,,,,,,8.0,5.0,101.0,0.0,420.09203837497625,,,,,,,,,,,,,,,,,420.082757041906,420.4302740419516,421.2247840419877,421.2141417500097,,,,,,,,,,,,,,,,,,,,,,,,,,,,,,,,,,,421.2173891249113,421.2247840419877,421.2247840419877,421.9994408749044,r,1.0,0.7640743750380352,,,,,,sub-048,1,stroop_test,,
,,,,102.0,6.0,8.0,,,,,,,,,,,,,blau,yellow,g,0.0,g,1.0,0.7649097500834614,,,,,,,,,,8.0,6.0,102.0,7.0,422.00905424996745,,,,,,,,,,,,,,,,,421.9998791249236,423.1970510829706,423.9927722499706,423.98113274993375,,,,,,,,,,,,,,,,,,,,,,,,,,,,,,,,,,,423.9852091249777,423.9927722499706,423.9927722499706,424.7650943329791,g,1.0,0.7649097500834614,,,,,,sub-048,1,stroop_test,,
,,,,103.0,7.0,8.0,,,,,,,,,,,,,blau,blue,b,1.0,b,1.0,1.3931412090314552,,,,,,,,,,8.0,7.0,103.0,5.0,424.7741322499933,,,,,,,,,,,,,,,,,424.7655408330029,425.96427533298265,426.75629629194736,426.7484274579911,,,,,,,,,,,,,,,,,,,,,,,,,,,,,,,,,,,426.74908433295786,426.75629629194736,426.75629629194736,428.1546649999218,b,1.0,1.3931412090314552,,,,,,sub-048,1,stroop_test,,
,,,,104.0,8.0,8.0,,,,,,,,,,,,,rot,red,r,1.0,r,1.0,0.7246312500210479,,,,,,,,,,8.0,8.0,104.0,1.0,428.164035707945,,,,,,,,,,,,,,,,,428.1551773749525,428.2546664580004,429.0600332079921,429.04804324998986,,,,,,,,,,,,,,,,,,,,,,,,,,,,,,,,,,,429.0522742079338,429.0600332079921,429.0600332079921,429.7875935420161,r,1.0,0.7246312500210479,,,,,,sub-048,1,stroop_test,,
,,,,105.0,9.0,8.0,,,,,,,,,,,,,gelb,blue,b,0.0,g,0.0,0.8765057920245454,,,,,,,,,,8.0,9.0,105.0,9.0,429.79657137498725,,,,,,,,,,,,,,,,,429.7880130419508,430.58700562501326,431.38129629194736,431.37040149990935,,,,,,,,,,,,,,,,,,,,,,,,,,,,,,,,,,,431.3738344579469,431.38129629194736,431.38129629194736,432.2660976249026,g,0.0,0.8765057920245454,,,,,,sub-048,1,stroop_test,,
,,,,106.0,10.0,8.0,,,,,,,,,,,,,rot,blue,b,0.0,r,0.0,0.6172397920163348,,,,,,,,,,8.0,10.0,106.0,2.0,432.2753666669596,,,,,,,,,,,,,,,,,432.266545707942,433.4643384999363,434.2592916249996,434.2481994580012,,,,,,,,,,,,,,,,,,,,,,,,,,,,,,,,,,,434.2519197919173,434.2592916249996,434.2592916249996,434.8828484999249,r,0.0,0.6172397920163348,,,,,,sub-048,1,stroop_test,,
,,,,107.0,11.0,8.0,,,,,,,,,,,,,gelb,yellow,g,1.0,g,1.0,0.6315084580564871,,,,,,,,,,8.0,11.0,107.0,10.0,434.89215745800175,,,,,,,,,,,,,,,,,434.883410041919,435.6808706249576,436.47665458300617,436.4653949169442,,,,,,,,,,,,,,,,,,,,,,,,,,,,,,,,,,,436.4693805419374,436.47665458300617,436.47665458300617,437.1156474169111,g,1.0,0.6315084580564871,,,,,,sub-048,1,stroop_test,,
,,,,108.0,0.0,9.0,,,,,,,,,,,,,rot,blue,b,0.0,b,1.0,0.8849516659975052,,,,,,,,,,9.0,0.0,108.0,2.0,437.1250559579348,,,,,,,,,,,,,,,,,437.11608487495687,437.4537734579062,438.2483166250168,438.2374187919777,,,,,,,,,,,,,,,,,,,,,,,,,,,,,,,,,,,438.2407911249902,438.2483166250168,438.2483166250168,439.1381930420175,b,1.0,0.8849516659975052,,,,,,sub-048,1,stroop_test,,
,,,,109.0,1.0,9.0,,,,,,,,,,,,,blau,blue,b,1.0,b,1.0,0.5066115410299972,,,,,,,,,,9.0,1.0,109.0,6.0,439.1471149999416,,,,,,,,,,,,,,,,,439.1386272920063,439.9382032919675,440.743054541992,440.7321102080168,,,,,,,,,,,,,,,,,,,,,,,,,,,,,,,,,,,440.7358605829068,440.743054541992,440.743054541992,441.2557449579472,b,1.0,0.5066115410299972,,,,,,sub-048,1,stroop_test,,
,,,,110.0,2.0,9.0,,,,,,,,,,,,,gelb,red,r,0.0,r,1.0,2.6107363750925288,,,,,,,,,,9.0,2.0,110.0,8.0,441.2646160830045,,,,,,,,,,,,,,,,,441.25619591691066,441.6036037919112,442.398284416995,442.3876241249964,,,,,,,,,,,,,,,,,,,,,,,,,,,,,,,,,,,442.3910592499888,442.398284416995,442.398284416995,445.0166697920067,r,1.0,2.6107363750925288,,,,,,sub-048,1,stroop_test,,
,,,,111.0,3.0,9.0,,,,,,,,,,,,,rot,yellow,g,0.0,g,1.0,0.8629556250525638,,,,,,,,,,9.0,3.0,111.0,3.0,445.02624595793895,,,,,,,,,,,,,,,,,445.0172164579853,445.3645451669581,446.1600353330141,446.1487987919245,,,,,,,,,,,,,,,,,,,,,,,,,,,,,,,,,,,446.1525115419645,446.1600353330141,446.1600353330141,447.0332035829779,g,1.0,0.8629556250525638,,,,,,sub-048,1,stroop_test,,
,,,,112.0,4.0,9.0,,,,,,,,,,,,,blau,red,r,0.0,b,0.0,0.4945566250244155,,,,,,,,,,9.0,4.0,112.0,4.0,447.0429902499309,,,,,,,,,,,,,,,,,447.0336515830131,448.2313127919333,449.02656216698233,449.0159005830064,,,,,,,,,,,,,,,,,,,,,,,,,,,,,,,,,,,449.019428791944,449.02656216698233,449.02656216698233,449.5234504999826,b,0.0,0.4945566250244155,,,,,,sub-048,1,stroop_test,,
,,,,113.0,5.0,9.0,,,,,,,,,,,,,blau,blue,b,1.0,b,1.0,0.517477500019595,,,,,,,,,,9.0,5.0,113.0,5.0,449.5482147919247,,,,,,,,,,,,,,,,,449.5238722079666,449.6218411249574,450.4233473750064,450.41547383298166,,,,,,,,,,,,,,,,,,,,,,,,,,,,,,,,,,,450.4161210829625,450.4233473750064,450.4233473750064,450.9498615829507,b,1.0,0.517477500019595,,,,,,sub-048,1,stroop_test,,
,,,,114.0,6.0,9.0,,,,,,,,,,,,,gelb,yellow,g,1.0,g,1.0,0.5992085840553045,,,,,,,,,,9.0,6.0,114.0,10.0,450.9593295829836,,,,,,,,,,,,,,,,,450.9504432500107,451.298268332961,452.0940814999631,452.0822931670118,,,,,,,,,,,,,,,,,,,,,,,,,,,,,,,,,,,452.0864957079757,452.0940814999631,452.0940814999631,452.7006839169189,g,1.0,0.5992085840553045,,,,,,sub-048,1,stroop_test,,
,,,,115.0,7.0,9.0,,,,,,,,,,,,,rot,red,r,1.0,r,1.0,0.5097895839717239,,,,,,,,,,9.0,7.0,115.0,1.0,452.7105965419905,,,,,,,,,,,,,,,,,452.7013269999297,453.49830883299,454.2963809579378,454.283105666982,,,,,,,,,,,,,,,,,,,,,,,,,,,,,,,,,,,454.28852141695097,454.2963809579378,454.2963809579378,454.8169286249904,r,1.0,0.5097895839717239,,,,,,sub-048,1,stroop_test,,
,,,,116.0,8.0,9.0,,,,,,,,,,,,,blau,yellow,g,0.0,g,1.0,0.8590700830100104,,,,,,,,,,9.0,8.0,116.0,7.0,454.8239138749195,,,,,,,,,,,,,,,,,454.8174257499632,455.61475829198025,456.41031895799097,456.3994169579819,,,,,,,,,,,,,,,,,,,,,,,,,,,,,,,,,,,456.4030632919166,456.41031895799097,456.41031895799097,457.2724398329156,g,1.0,0.8590700830100104,,,,,,sub-048,1,stroop_test,,
,,,,117.0,9.0,9.0,,,,,,,,,,,,,gelb,yellow,g,1.0,g,1.0,0.3848129159305244,,,,,,,,,,9.0,9.0,117.0,11.0,457.2817679999862,,,,,,,,,,,,,,,,,457.2728732499527,457.6209884169512,458.4152115829056,458.4045653329231,,,,,,,,,,,,,,,,,,,,,,,,,,,,,,,,,,,458.4081201249501,458.4152115829056,458.4152115829056,458.8128444999456,g,1.0,0.3848129159305244,,,,,,sub-048,1,stroop_test,,
,,,,118.0,10.0,9.0,,,,,,,,,,,,,rot,red,r,1.0,r,1.0,0.5769230419537053,,,,,,,,,,9.0,10.0,118.0,0.0,458.8176944999723,,,,,,,,,,,,,,,,,458.8132841249462,459.60481570800766,460.410710832919,460.39976412500255,,,,,,,,,,,,,,,,,,,,,,,,,,,,,,,,,,,460.40361649997067,460.410710832919,460.410710832919,460.9898386249552,r,1.0,0.5769230419537053,,,,,,sub-048,1,stroop_test,,
,,,,119.0,11.0,9.0,,,,,,,,,,,,,gelb,blue,b,0.0,b,1.0,1.6969669579993931,,,,,,,,,,9.0,11.0,119.0,9.0,460.9988544579828,,,,,,,,,,,,,,,,,460.9902757919626,461.3379868749762,462.1363843749277,462.1230981249828,,,,,,,,,,,,,,,,,,,,,,,,,,,,,,,,,,,462.1267519169487,462.1363843749277,462.1363843749277,463.8450583330123,b,1.0,1.6969669579993931,,,,,,sub-048,1,stroop_test,,
,,,,,,,,,,,,,,,,,,,,,,,,,,,,,,,,,,,,,,,,,,,,,,,,,,,,,,,,,,,,,,,,,,,,,,,,,,,,,,,,,,,,,,,,,,,,,,,,,,,,,,463.8452846669825,463.8518182499101,468.8487912499113,468.8388034169329,sub-048,1,stroop_test,,
