direction,corrAns,thisN,thisTrialN,thisRepN,respDots.keys,respDots.corr,respDots.rt,respDots.duration,randomInstr,respRandomInstr.keys,respRandomInstr.rt,respRandomInstr.duration,practice_trials.thisRepN,practice_trials.thisTrialN,practice_trials.thisN,practice_trials.thisIndex,instr_trials.thisRepN,instr_trials.thisTrialN,instr_trials.thisN,instr_trials.thisIndex,test_trials.thisRepN,test_trials.thisTrialN,test_trials.thisN,test_trials.thisIndex,thisRow.t,notes,general_instruction.started,textGeneralInstr.started,respGeneralInstr.started,general_instruction.stopped,respGeneralInstr.keys,respGeneralInstr.rt,respGeneralInstr.duration,ITI.started,fixcross.started,fixcross.stopped,ITI.stopped,dots.started,backgroundDots.started,stimulusDots.started,respDots.started,stimulusDots.stopped,dots.stopped,practice_trials.respDots.keys,practice_trials.respDots.corr,practice_trials.respDots.rt,practice_trials.respDots.duration,feedback.started,textFeedback.started,feedback.stopped,textFeedback.stopped,info.started,textInfo.started,keyRespInfo.started,info.stopped,keyRespInfo.keys,keyRespInfo.rt,keyRespInfo.duration,test_instruction.started,textTestInstr.started,respTestInstr.started,test_instruction.stopped,respTestInstr.keys,respTestInstr.rt,respTestInstr.duration,random_instruction.started,textRandomInstr.started,respRandomInstr.started,random_instruction.stopped,instr_trials.respRandomInstr.keys,instr_trials.respRandomInstr.rt,instr_trials.respRandomInstr.duration,test_trials.respDots.keys,test_trials.respDots.corr,test_trials.respDots.rt,test_trials.respDots.duration,goodbye.started,textGoodbye.started,goodbye.stopped,participant,session,expName,frameRate,Unnamed: 87
,,,,,,,,,,,,,,,,,,,,,,,,,,,0.0092019999865442,0.0341703000012785,0.0341703000012785,99.03082320000976,space,98.94112430000678,,,,,,,,,,,,,,,,,,,,,,,,,,,,,,,,,,,,,,,,,,,,,,,,sub-161,1,random_dot,59.98411619681316,
right,right,0.0,0.0,0.0,left,0.0,12.357446999987587,,,,,,0.0,0.0,0.0,1.0,,,,,,,,,99.07895769993776,,,,,,,,,99.06732119992375,100.23269649990834,101.0383800000418,101.01658529997805,101.01685739983805,101.0383800000418,101.0383800000418,101.0383800000418,106.01621129992418,113.40076330001466,left,0.0,12.357446999987587,,113.40911039989442,113.4211644998286,113.91611899994314,,,,,,,,,,,,,,,,,,,,,,,,,,,,,,sub-161,1,random_dot,59.98411619681316,
left,left,1.0,1.0,0.0,right,0.0,6.175701800035313,,,,,,0.0,1.0,1.0,0.0,,,,,,,,,113.93294469988903,,,,,,,,,113.91634739981964,115.11630909983069,115.91650749999098,115.90010079997592,115.90035100001842,115.91650749999098,115.91650749999098,115.91650749999098,120.89971009991132,122.10067489999346,right,0.0,6.175701800035313,,122.1007572999224,122.1163653000258,122.60024179983884,122.61643159994856,,,,,,,,,,,,,,,,,,,,,,,,,,,,,sub-161,1,random_dot,59.98411619681316,
right,right,2.0,0.0,1.0,right,1.0,10.846590099856256,,,,,,1.0,0.0,2.0,1.0,,,,,,,,,122.61643159994856,,,,,,,,,122.6004695999436,122.69971139985137,123.49992099986412,123.4833485998679,123.48359219986014,123.49992099986412,123.49992099986412,123.49992099986412,128.4831260999199,134.3510695998557,right,1.0,10.846590099856256,,134.35722589981742,134.36992780002765,134.86676279990934,,,,,,,,,,,,,,,,,,,,,,,,,,,,,,sub-161,1,random_dot,59.98411619681316,
left,left,3.0,1.0,1.0,right,0.0,6.840335299959406,,,,,,1.0,1.0,3.0,0.0,,,,,,,,,134.88337949989364,,,,,,,,,134.86701709986664,135.21658949996345,136.0169446999207,136.00038019986823,136.0006420998834,136.0169446999207,136.0169446999207,136.0169446999207,141.0001212998759,142.8681193999946,right,0.0,6.840335299959406,,142.87003250000998,142.88357169996016,143.3666821999941,143.38313489989378,,,,,,,,,,,,,,,,,,,,,,,,,,,,,sub-161,1,random_dot,59.98411619681316,
right,right,4.0,0.0,2.0,right,1.0,6.540525399846956,,,,,,2.0,0.0,4.0,1.0,,,,,,,,,143.38313489989378,,,,,,,,,143.36688410001807,144.58375140000135,145.3836020999588,145.36688490002416,145.36714369989932,145.3836020999588,145.3836020999588,145.3836020999588,150.36683149985038,151.93505379999988,right,1.0,6.540525399846956,,151.93725769990124,151.95020490000024,152.43355069984682,152.4497842998244,,,,,,,,,,,,,,,,,,,,,,,,,,,,,sub-161,1,random_dot,59.98411619681316,
left,left,5.0,1.0,2.0,left,1.0,6.000312200048938,,,,,,2.0,1.0,5.0,0.0,,,,,,,,,152.4497842998244,,,,,,,,,152.433733999962,152.54945669998415,153.35036889999174,153.333564999979,153.3337840999011,153.35036889999174,153.35036889999174,153.35036889999174,158.3333472998347,159.35171939991417,left,1.0,6.000312200048938,,159.3518004999496,159.36684239981696,159.85104730003513,159.86697830003686,,,,,,,,,,,,,,,,,,,,,,,,,,,,,sub-161,1,random_dot,59.98411619681316,
left,left,6.0,0.0,3.0,left,1.0,6.101359999971464,,,,,,3.0,0.0,6.0,0.0,,,,,,,,,159.86697830003686,,,,,,,,,159.85128249996342,160.2168366999831,161.01719679986127,161.0001750998199,161.00041790003888,161.01719679986127,161.01719679986127,161.01719679986127,166.00030019995756,167.13497140002437,left,1.0,6.101359999971464,,167.13505499996245,167.15010019997135,167.63449219986796,167.65050169988535,,,,,,,,,,,,,,,,,,,,,,,,,,,,,sub-161,1,random_dot,59.98411619681316,
right,right,7.0,1.0,3.0,right,1.0,5.925607700133696,,,,,,3.0,1.0,7.0,1.0,,,,,,,,,167.65050169988535,,,,,,,,,167.63471839996055,167.75059799989685,168.55059570004232,168.53448130004108,168.53473499999382,168.55059570004232,168.55059570004232,168.55059570004232,173.53398149996065,174.48496499983594,right,1.0,5.925607700133696,,174.48505699983798,174.50010910001583,174.98459579981863,175.00048329983838,,,,,,,,,,,,,,,,,,,,,,,,,,,,,sub-161,1,random_dot,59.98411619681316,
right,right,8.0,0.0,4.0,left,0.0,5.950841299956664,,,,,,4.0,0.0,8.0,1.0,,,,,,,,,175.00048329983838,,,,,,,,,174.98482350003906,175.35064409999177,176.15100910002366,176.13479499984533,176.13506360002793,176.15100910002366,176.15100910002366,176.15100910002366,181.13414769992232,182.11839189985767,left,0.0,5.950841299956664,,182.12078729993664,182.13450679997916,182.61779509996995,182.63394810003228,,,,,,,,,,,,,,,,,,,,,,,,,,,,,sub-161,1,random_dot,59.98411619681316,
left,left,9.0,1.0,4.0,right,0.0,5.973219600040466,,,,,,4.0,1.0,9.0,0.0,,,,,,,,,182.63394810003228,,,,,,,,,182.61803539982063,183.4342340999283,184.2344545999076,184.21783059998413,184.2181102000177,184.2344545999076,184.2344545999076,184.2344545999076,189.21946759987625,190.2184341000393,right,0.0,5.973219600040466,,190.21851809998043,190.233903599903,190.71804169984532,190.7341098999605,,,,,,,,,,,,,,,,,,,,,,,,,,,,,sub-161,1,random_dot,59.98411619681316,
right,right,10.0,0.0,5.0,right,1.0,6.972544899908826,,,,,,5.0,0.0,10.0,1.0,,,,,,,,,190.7341098999605,,,,,,,,,190.71827269997448,191.933377899928,192.7354768998921,192.71892090002075,192.71927939984016,192.7354768998921,192.7354768998921,192.7354768998921,197.7343550999649,199.7185310998466,right,1.0,6.972544899908826,,199.7211402999237,199.7342332999688,200.2181102000177,200.23419109988023,,,,,,,,,,,,,,,,,,,,,,,,,,,,,sub-161,1,random_dot,59.98411619681316,
left,left,11.0,1.0,5.0,left,1.0,6.077125899959356,,,,,,5.0,1.0,11.0,0.0,,,,,,,,,200.23419109988023,,,,,,,,,200.21833319985308,201.4175529000349,202.21785569982603,202.20170109998435,202.2019609999843,202.21785569982603,202.21785569982603,202.21785569982603,207.20116439997216,208.3020015999209,left,1.0,6.077125899959356,,208.3020846999716,208.3173387998249,208.80174200003967,208.81784079992207,,,,,,,,,,,,,,,,,,,,,,,,,,,,,sub-161,1,random_dot,59.98411619681316,
right,right,12.0,0.0,6.0,right,1.0,5.726228000130504,,,,,,6.0,0.0,12.0,1.0,,,,,,,,,208.81784079992207,,,,,,,,,208.80199089995585,210.0012944999617,210.80153399985284,210.7852190998383,210.78548730001785,210.80153399985284,210.80153399985284,210.80153399985284,215.7841825999785,216.53519429988228,right,1.0,5.726228000130504,,216.53527459991165,216.55072099994868,217.03498779982328,217.05115059996024,,,,,,,,,,,,,,,,,,,,,,,,,,,,,sub-161,1,random_dot,59.98411619681316,
left,left,13.0,1.0,6.0,left,1.0,5.726648299954832,,,,,,6.0,1.0,13.0,0.0,,,,,,,,,217.05115059996024,,,,,,,,,217.03521319990975,217.40121349995025,218.20126719982363,218.18520749988969,218.185447699856,218.20126719982363,218.20126719982363,218.20126719982363,223.18458709982224,223.93539949995463,left,1.0,5.726648299954832,,223.9354891998228,223.95096339983863,224.4349232998211,224.451293299906,,,,,,,,,,,,,,,,,,,,,,,,,,,,,sub-161,1,random_dot,59.98411619681316,
left,left,14.0,0.0,7.0,right,0.0,5.833093200111762,,,,,,7.0,0.0,14.0,0.0,,,,,,,,,224.451293299906,,,,,,,,,224.43514620000497,224.78467159997672,225.58492359984663,225.5683389999904,225.56859829998572,225.58492359984663,225.58492359984663,225.58492359984663,230.5680423998274,231.41934429993853,right,0.0,5.833093200111762,,231.42151149990968,231.43413329985924,231.9185722998809,231.9348400000017,,,,,,,,,,,,,,,,,,,,,,,,,,,,,sub-161,1,random_dot,59.98411619681316,
right,right,15.0,1.0,7.0,left,0.0,5.9372206998523325,,,,,,7.0,1.0,15.0,1.0,,,,,,,,,231.9348400000017,,,,,,,,,231.91878720000383,232.284765599994,233.08518679998812,233.06888409983367,233.06916640000415,233.08518679998812,233.08518679998812,233.08518679998812,238.06816160003652,239.03585899993777,left,0.0,5.9372206998523325,,239.03594089997927,239.05108989984728,239.5351066999137,239.55169379990548,,,,,,,,,,,,,,,,,,,,,,,,,,,,,sub-161,1,random_dot,59.98411619681316,
right,right,16.0,0.0,8.0,left,0.0,3.940861399983987,,,,,,8.0,0.0,16.0,1.0,,,,,,,,,239.55169379990548,,,,,,,,,239.53533410001543,240.73559159995057,241.53617589990608,241.51961119985208,241.51995250000616,241.53617589990608,241.53617589990608,241.53617589990608,,245.4860876998864,left,0.0,3.940861399983987,,245.4861717999447,245.5012501999736,245.985085999826,246.00150409992784,,,,,,,,,,,,,,,,,,,,,,,,,,,,,sub-161,1,random_dot,59.98411619681316,
left,left,17.0,1.0,8.0,left,1.0,5.853754999814555,,,,,,8.0,1.0,17.0,0.0,,,,,,,,,246.00150409992784,,,,,,,,,245.9852990999352,246.10159159987236,246.9018432998564,246.885413199896,246.8856758999173,246.9018432998564,246.9018432998564,246.9018432998564,251.8851451999508,252.7694949998986,left,1.0,5.853754999814555,,252.772337500006,252.7851569999475,253.26901859999637,253.284950299887,,,,,,,,,,,,,,,,,,,,,,,,,,,,,sub-161,1,random_dot,59.98411619681316,
right,right,18.0,0.0,9.0,right,1.0,5.850145200034604,,,,,,9.0,0.0,18.0,1.0,,,,,,,,,253.284950299887,,,,,,,,,253.26925219991244,254.48508380004205,255.28537880000655,255.26902280002832,255.2693003998138,255.28537880000655,255.28537880000655,255.28537880000655,260.268359299982,261.1365812998265,right,1.0,5.850145200034604,,261.1366640999913,261.1517296000384,261.6358382999897,261.65167939988896,,,,,,,,,,,,,,,,,,,,,,,,,,,,,sub-161,1,random_dot,59.98411619681316,
left,left,19.0,1.0,9.0,left,1.0,5.939960299991071,,,,,,9.0,1.0,19.0,0.0,,,,,,,,,261.65167939988896,,,,,,,,,261.63605959992856,262.45193049986847,263.25183940003626,263.23548739985563,263.2357447999529,263.25183940003626,263.25183940003626,263.25183940003626,268.23515670001507,269.2027991998475,left,1.0,5.939960299991071,,269.2028820000123,269.21824870002456,269.70257429988123,269.7187389000319,,,,,,,,,,,,,,,,,,,,,,,,,,,,,sub-161,1,random_dot,59.98411619681316,
,,,,,,,,,,,,,,,,,,,,,,,,,,,,,,,,,,,,,,,,,,,,,,,,,,,,269.7026655999944,269.7187389000319,269.7187389000319,276.1694161000196,space,6.445637499913573,,,,,,,,,,,,,,,,,,,,,,,sub-161,1,random_dot,59.98411619681316,
,,,,,,,,,,,,,,,,,,,,,,,,,,,,,,,,,,,,,,,,,,,,,,,,,,,,,,,,,,,276.1694697998464,276.1856011999771,276.1856011999771,287.5193250000011,space,11.319137500133364,,,,,,,,,,,,,,,,sub-161,1,random_dot,59.98411619681316,
right,right,0.0,0.0,0.0,right,1.0,1.646553099853918,,speed,space,4.561969300033525,,,,,,0.0,0.0,0.0,1.0,0.0,0.0,0.0,1.0,292.16078100004233,,,,,,,,,292.15144379995763,292.48559499997646,293.2856234998908,293.26940510002896,293.2696592998691,293.2856234998908,293.2856234998908,293.2856234998908,,294.93662489997223,,,,,,,,,,,,,,,,,,,,,,,287.55649579991587,287.56736989994533,287.56736989994533,292.1364988000132,space,4.561969300033525,,right,1.0,1.646553099853918,,,,,sub-161,1,random_dot,59.98411619681316,
left,left,1.0,1.0,0.0,left,1.0,1.7152613999787718,,speed,space,4.561969300033525,,,,,,0.0,0.0,0.0,1.0,0.0,1.0,1.0,0.0,294.9518617999274,,,,,,,,,294.93691699998453,296.15241399989463,296.9525949000381,296.93627139995806,296.9365393000189,296.9525949000381,296.9525949000381,296.9525949000381,,298.6702707000077,,,,,,,,,,,,,,,,,,,,,,,,,,,,,,left,1.0,1.7152613999787718,,,,,sub-161,1,random_dot,59.98411619681316,
right,right,2.0,0.0,1.0,right,1.0,1.6746950999367982,,speed,space,4.561969300033525,,,,,,0.0,0.0,0.0,1.0,1.0,0.0,2.0,1.0,298.6856035999954,,,,,,,,,298.6705779999029,298.78543219994754,299.5859922999516,299.569612900028,299.5698692998849,299.5859922999516,299.5859922999516,299.5859922999516,,301.2702387999743,,,,,,,,,,,,,,,,,,,,,,,,,,,,,,right,1.0,1.6746950999367982,,,,,sub-161,1,random_dot,59.98411619681316,
left,left,3.0,1.0,1.0,left,1.0,1.6084007997997103,,speed,space,4.561969300033525,,,,,,0.0,0.0,0.0,1.0,1.0,1.0,3.0,0.0,301.28549759997986,,,,,,,,,301.2705415999517,302.08566810004413,302.8861549999565,302.8697452999186,302.87001729989424,302.8861549999565,302.8861549999565,302.8861549999565,,304.50358060002327,,,,,,,,,,,,,,,,,,,,,,,,,,,,,,left,1.0,1.6084007997997103,,,,,sub-161,1,random_dot,59.98411619681316,
right,right,4.0,0.0,2.0,right,1.0,1.1856734999455512,,speed,space,4.561969300033525,,,,,,0.0,0.0,0.0,1.0,2.0,0.0,4.0,1.0,304.51883849990554,,,,,,,,,304.5038717999123,304.8690194999799,305.66942129982635,305.6526947999373,305.65294149983674,305.66942129982635,305.66942129982635,305.66942129982635,,306.87023100000806,,,,,,,,,,,,,,,,,,,,,,,,,,,,,,right,1.0,1.1856734999455512,,,,,sub-161,1,random_dot,59.98411619681316,
left,left,5.0,1.0,2.0,left,1.0,1.1312295999377966,,speed,space,4.561969300033525,,,,,,0.0,0.0,0.0,1.0,2.0,1.0,5.0,0.0,306.8854698999785,,,,,,,,,306.87052550003864,307.23593059997074,308.0360200998839,308.0197769999504,308.02003360004164,308.0360200998839,308.0360200998839,308.0360200998839,,309.1702393000014,,,,,,,,,,,,,,,,,,,,,,,,,,,,,,left,1.0,1.1312295999377966,,,,,sub-161,1,random_dot,59.98411619681316,
right,right,6.0,0.0,3.0,right,1.0,1.3782319999299943,,speed,space,4.561969300033525,,,,,,0.0,0.0,0.0,1.0,3.0,0.0,6.0,1.0,309.1853098999709,,,,,,,,,309.1705272998661,310.369263399858,311.1694812998176,311.15335619985126,311.1536142998375,311.1694812998176,311.1694812998176,311.1694812998176,,312.5538808000274,,,,,,,,,,,,,,,,,,,,,,,,,,,,,,right,1.0,1.3782319999299943,,,,,sub-161,1,random_dot,59.98411619681316,
left,left,7.0,1.0,3.0,left,1.0,1.2090205000713468,,speed,space,4.561969300033525,,,,,,0.0,0.0,0.0,1.0,3.0,1.0,7.0,0.0,312.5690593998879,,,,,,,,,312.554171100026,312.66911010001786,313.4695784000214,313.45324689988047,313.4535129999276,313.4695784000214,313.4695784000214,313.4695784000214,,314.68692719982937,,,,,,,,,,,,,,,,,,,,,,,,,,,,,,left,1.0,1.2090205000713468,,,,,sub-161,1,random_dot,59.98411619681316,
left,left,8.0,0.0,4.0,left,1.0,3.450870200060308,,speed,space,4.561969300033525,,,,,,0.0,0.0,0.0,1.0,4.0,0.0,8.0,0.0,314.7024832998868,,,,,,,,,314.68721170001663,315.03602129989304,315.8363653998822,315.8201655000448,315.82044869987294,315.8363653998822,315.8363653998822,315.8363653998822,,319.3037455000449,,,,,,,,,,,,,,,,,,,,,,,,,,,,,,left,1.0,3.450870200060308,,,,,sub-161,1,random_dot,59.98411619681316,
right,right,9.0,1.0,4.0,right,1.0,1.5502157998271286,,speed,space,4.561969300033525,,,,,,0.0,0.0,0.0,1.0,4.0,1.0,9.0,1.0,319.31900989986025,,,,,,,,,319.30403089988977,320.1192983998917,320.91975859995,320.90343159995973,320.9037206999492,320.91975859995,320.91975859995,320.91975859995,,322.48703900002874,,,,,,,,,,,,,,,,,,,,,,,,,,,,,,right,1.0,1.5502157998271286,,,,,sub-161,1,random_dot,59.98411619681316,
left,left,10.0,0.0,5.0,left,1.0,3.380691099911928,,speed,space,4.561969300033525,,,,,,0.0,0.0,0.0,1.0,5.0,0.0,10.0,0.0,322.5024474998936,,,,,,,,,322.4873494999483,322.8359327998478,323.6363836999517,323.6200559998397,323.6203270999249,323.6363836999517,323.6363836999517,323.6363836999517,,327.0204886998981,,,,,,,,,,,,,,,,,,,,,,,,,,,,,,left,1.0,3.380691099911928,,,,,sub-161,1,random_dot,59.98411619681316,
right,right,11.0,1.0,5.0,right,1.0,1.620809799991548,,speed,space,4.561969300033525,,,,,,0.0,0.0,0.0,1.0,5.0,1.0,11.0,1.0,327.0360262999311,,,,,,,,,327.0207690999377,327.83616820001043,328.63685190002434,328.62009750003926,328.6204051999375,328.63685190002434,328.63685190002434,328.63685190002434,,330.2705647998955,,,,,,,,,,,,,,,,,,,,,,,,,,,,,,right,1.0,1.620809799991548,,,,,sub-161,1,random_dot,59.98411619681316,
right,right,12.0,0.0,6.0,right,1.0,2.4331671001855284,,speed,space,4.561969300033525,,,,,,0.0,0.0,0.0,1.0,6.0,0.0,12.0,1.0,330.28580319997855,,,,,,,,,330.27085189986974,331.0863703000359,331.88640479999594,331.8701335999649,331.87038860004395,331.88640479999594,331.88640479999594,331.88640479999594,,334.3209201998543,,,,,,,,,,,,,,,,,,,,,,,,,,,,,,right,1.0,2.4331671001855284,,,,,sub-161,1,random_dot,59.98411619681316,
left,left,13.0,1.0,6.0,left,1.0,2.0901514999568462,,speed,space,4.561969300033525,,,,,,0.0,0.0,0.0,1.0,6.0,1.0,13.0,0.0,334.33580249990337,,,,,,,,,334.3212174999062,335.13611089996994,335.93643989996053,335.920149799902,335.92040059994906,335.93643989996053,335.93643989996053,335.93643989996053,,338.03717939998023,,,,,,,,,,,,,,,,,,,,,,,,,,,,,,left,1.0,2.0901514999568462,,,,,sub-161,1,random_dot,59.98411619681316,
left,left,14.0,0.0,7.0,left,1.0,4.735763899981976,,speed,space,4.561969300033525,,,,,,0.0,0.0,0.0,1.0,7.0,0.0,14.0,0.0,338.05240689986385,,,,,,,,,338.03745749988593,339.25248929997906,340.0532115998212,340.03706729994155,340.03733449988067,340.0532115998212,340.0532115998212,340.0532115998212,,344.8040932000149,,,,,,,,,,,,,,,,,,,,,,,,,,,,,,left,1.0,4.735763899981976,,,,,sub-161,1,random_dot,59.98411619681316,
right,right,15.0,1.0,7.0,left,0.0,3.3276613000780344,,speed,space,4.561969300033525,,,,,,0.0,0.0,0.0,1.0,7.0,1.0,15.0,1.0,344.8194094998762,,,,,,,,,344.80437399982475,345.1697686999105,345.9698720998131,345.95371349994093,345.9539669000078,345.9698720998131,345.9698720998131,345.9698720998131,,349.3041488998569,,,,,,,,,,,,,,,,,,,,,,,,,,,,,,left,0.0,3.3276613000780344,,,,,sub-161,1,random_dot,59.98411619681316,
right,right,16.0,0.0,8.0,right,1.0,4.375066000036895,,speed,space,4.561969300033525,,,,,,0.0,0.0,0.0,1.0,8.0,0.0,16.0,1.0,349.3195916998666,,,,,,,,,349.3044306000229,350.1197624998167,350.9199953000061,350.90353519981727,350.9037748000119,350.9199953000061,350.9199953000061,350.9199953000061,,355.3041948999744,,,,,,,,,,,,,,,,,,,,,,,,,,,,,,right,1.0,4.375066000036895,,,,,sub-161,1,random_dot,59.98411619681316,
left,left,17.0,1.0,8.0,left,1.0,5.371823700144887,,speed,space,4.561969300033525,,,,,,0.0,0.0,0.0,1.0,8.0,1.0,17.0,0.0,355.3197145999875,,,,,,,,,355.3044812998269,356.5033759998623,357.30325999995694,357.2867397000082,357.2869855999015,357.30325999995694,357.30325999995694,357.30325999995694,362.2866741998587,362.6873990998138,,,,,,,,,,,,,,,,,,,,,,,,,,,,,,left,1.0,5.371823700144887,,,,,sub-161,1,random_dot,59.98411619681316,
left,left,18.0,0.0,9.0,left,1.0,1.8872082000598311,,speed,space,4.561969300033525,,,,,,0.0,0.0,0.0,1.0,9.0,0.0,18.0,0.0,362.7028636999894,,,,,,,,,362.6876818998717,362.80303329997696,363.6033973998856,363.586811499903,363.5870603998192,363.6033973998856,363.6033973998856,363.6033973998856,,365.50433889986016,,,,,,,,,,,,,,,,,,,,,,,,,,,,,,left,1.0,1.8872082000598311,,,,,sub-161,1,random_dot,59.98411619681316,
right,right,19.0,1.0,9.0,right,1.0,2.17284300015308,,speed,space,4.561969300033525,,,,,,0.0,0.0,0.0,1.0,9.0,1.0,19.0,1.0,365.5196530998219,,,,,,,,,365.5046180000063,365.61973559996113,366.4204065999948,366.40402100002393,366.4042956999037,366.4204065999948,366.4204065999948,366.4204065999948,,368.60422009998,,,,,,,,,,,,,,,,,,,,,,,,,,,,,,right,1.0,2.17284300015308,,,,,sub-161,1,random_dot,59.98411619681316,
left,left,20.0,0.0,10.0,left,1.0,2.163276000181213,,speed,space,4.561969300033525,,,,,,0.0,0.0,0.0,1.0,10.0,0.0,20.0,0.0,368.6197448000312,,,,,,,,,368.6045150000136,369.8034999000374,370.6035827999003,370.5869126999751,370.5871599998791,370.6035827999003,370.6035827999003,370.6035827999003,,372.7709595998749,,,,,,,,,,,,,,,,,,,,,,,,,,,,,,left,1.0,2.163276000181213,,,,,sub-161,1,random_dot,59.98411619681316,
right,right,21.0,1.0,10.0,right,1.0,2.8344218998681754,,speed,space,4.561969300033525,,,,,,0.0,0.0,0.0,1.0,10.0,1.0,21.0,1.0,372.78643959993497,,,,,,,,,372.77123579988256,372.8865825999528,373.6872246998828,373.6709824998397,373.67125819996,373.6872246998828,373.6872246998828,373.6872246998828,,376.5378381998744,,,,,,,,,,,,,,,,,,,,,,,,,,,,,,right,1.0,2.8344218998681754,,,,,sub-161,1,random_dot,59.98411619681316,
right,right,22.0,0.0,11.0,right,1.0,2.062229200033471,,speed,space,4.561969300033525,,,,,,0.0,0.0,0.0,1.0,11.0,0.0,22.0,1.0,376.553107699845,,,,,,,,,376.5381281999871,376.65313859982416,377.4536545998417,377.4372673998587,377.43751379987225,377.4536545998417,377.4536545998417,377.4536545998417,,379.52117189997807,,,,,,,,,,,,,,,,,,,,,,,,,,,,,,right,1.0,2.062229200033471,,,,,sub-161,1,random_dot,59.98411619681316,
left,left,23.0,1.0,11.0,right,0.0,2.6678454999346286,,speed,space,4.561969300033525,,,,,,0.0,0.0,0.0,1.0,11.0,1.0,23.0,0.0,379.536628899863,,,,,,,,,379.52144899987616,380.3202282998245,381.1204383999575,381.10391629999503,381.1041873998474,381.1204383999575,381.1204383999575,381.1204383999575,,383.80454659997486,,,,,,,,,,,,,,,,,,,,,,,,,,,,,,right,0.0,2.6678454999346286,,,,,sub-161,1,random_dot,59.98411619681316,
right,right,24.0,0.0,12.0,left,0.0,2.86991270002909,,speed,space,4.561969300033525,,,,,,0.0,0.0,0.0,1.0,12.0,0.0,24.0,1.0,383.8200285998173,,,,,,,,,383.8048320999369,384.6203530000057,385.42061070003547,385.4040808000136,385.40434529981576,385.42061070003547,385.42061070003547,385.42061070003547,,388.30470979982056,,,,,,,,,,,,,,,,,,,,,,,,,,,,,,left,0.0,2.86991270002909,,,,,sub-161,1,random_dot,59.98411619681316,
left,left,25.0,1.0,12.0,right,0.0,2.5953506000805646,,speed,space,4.561969300033525,,,,,,0.0,0.0,0.0,1.0,12.0,1.0,25.0,0.0,388.32017049985006,,,,,,,,,388.30499339988455,388.4199985000305,389.2205677998718,389.2044871998951,389.20473639993,389.2205677998718,389.2205677998718,389.2205677998718,,391.8208621998783,,,,,,,,,,,,,,,,,,,,,,,,,,,,,,right,0.0,2.5953506000805646,,,,,sub-161,1,random_dot,59.98411619681316,
right,right,26.0,0.0,13.0,right,1.0,2.45788859995082,,speed,space,4.561969300033525,,,,,,0.0,0.0,0.0,1.0,13.0,0.0,26.0,1.0,391.8362683998421,,,,,,,,,391.8211238000076,392.1700483998284,392.9710683999583,392.9553234998602,392.955570399994,392.9710683999583,392.9710683999583,392.9710683999583,,395.4378879999276,,,,,,,,,,,,,,,,,,,,,,,,,,,,,,right,1.0,2.45788859995082,,,,,sub-161,1,random_dot,59.98411619681316,
left,left,27.0,1.0,13.0,left,1.0,4.532726300181821,,speed,space,4.561969300033525,,,,,,0.0,0.0,0.0,1.0,13.0,1.0,27.0,0.0,395.4533549998887,,,,,,,,,395.4381818999536,395.7868139999919,396.58746739989147,396.57118119997904,396.5714622999076,396.58746739989147,396.58746739989147,396.58746739989147,,401.1215746998787,,,,,,,,,,,,,,,,,,,,,,,,,,,,,,left,1.0,4.532726300181821,,,,,sub-161,1,random_dot,59.98411619681316,
right,right,28.0,0.0,14.0,left,0.0,2.678648000117392,,speed,space,4.561969300033525,,,,,,0.0,0.0,0.0,1.0,14.0,0.0,28.0,1.0,401.1369221999776,,,,,,,,,401.1218444998376,401.93722720001824,402.737427999964,402.72097110003233,402.72122900001705,402.737427999964,402.737427999964,402.737427999964,,405.4214784998912,,,,,,,,,,,,,,,,,,,,,,,,,,,,,,left,0.0,2.678648000117392,,,,,sub-161,1,random_dot,59.98411619681316,
left,left,29.0,1.0,14.0,right,0.0,2.6846349998377264,,speed,space,4.561969300033525,,,,,,0.0,0.0,0.0,1.0,14.0,1.0,29.0,0.0,405.436869799858,,,,,,,,,405.4217562000267,405.5369637999684,406.34436680004,406.3248532998841,406.3256830000319,406.34436680004,406.34436680004,406.34436680004,,409.0382767999545,,,,,,,,,,,,,,,,,,,,,,,,,,,,,,right,0.0,2.6846349998377264,,,,,sub-161,1,random_dot,59.98411619681316,
right,right,30.0,0.0,15.0,right,1.0,3.0710583999753,,speed,space,4.561969300033525,,,,,,0.0,0.0,0.0,1.0,15.0,0.0,30.0,1.0,409.0538053999189,,,,,,,,,409.0385648999363,410.238658899907,411.0541603998281,411.0377978000324,411.0380422000308,411.0541603998281,411.0541603998281,411.0541603998281,,414.1384202998597,,,,,,,,,,,,,,,,,,,,,,,,,,,,,,right,1.0,3.0710583999753,,,,,sub-161,1,random_dot,59.98411619681316,
left,left,31.0,1.0,15.0,left,1.0,4.322882199892774,,speed,space,4.561969300033525,,,,,,0.0,0.0,0.0,1.0,15.0,1.0,31.0,0.0,414.15366459987126,,,,,,,,,414.1387149998918,414.2538200998679,415.0541752998252,415.0380122999195,415.0382677000016,415.0541752998252,415.0541752998252,415.0541752998252,,419.388305200031,,,,,,,,,,,,,,,,,,,,,,,,,,,,,,left,1.0,4.322882199892774,,,,,sub-161,1,random_dot,59.98411619681316,
left,left,32.0,0.0,16.0,left,1.0,3.973245899891481,,speed,space,4.561969300033525,,,,,,0.0,0.0,0.0,1.0,16.0,0.0,32.0,0.0,419.4039580000099,,,,,,,,,419.3885973000433,420.5876138999593,421.3876724999864,421.3715872999746,421.3718695999123,421.3876724999864,421.3876724999864,421.3876724999864,,425.37186249997467,,,,,,,,,,,,,,,,,,,,,,,,,,,,,,left,1.0,3.973245899891481,,,,,sub-161,1,random_dot,59.98411619681316,
right,right,33.0,1.0,16.0,left,0.0,3.888892800081521,,speed,space,4.561969300033525,,,,,,0.0,0.0,0.0,1.0,16.0,1.0,33.0,1.0,425.3873178998474,,,,,,,,,425.3721516998485,426.57092450000346,427.371161499992,427.3547044999432,427.3549565998837,427.371161499992,427.371161499992,427.371161499992,,431.27190049993806,,,,,,,,,,,,,,,,,,,,,,,,,,,,,,left,0.0,3.888892800081521,,,,,sub-161,1,random_dot,59.98411619681316,
right,right,34.0,0.0,17.0,right,1.0,3.156501100165769,,speed,space,4.561969300033525,,,,,,0.0,0.0,0.0,1.0,17.0,0.0,34.0,1.0,431.2873092999216,,,,,,,,,431.2721841000021,431.3872789999005,432.1878971999977,432.1716012000106,432.1718776000198,432.1878971999977,432.1878971999977,432.1878971999977,,435.3555735000409,,,,,,,,,,,,,,,,,,,,,,,,,,,,,,right,1.0,3.156501100165769,,,,,sub-161,1,random_dot,59.98411619681316,
left,left,35.0,1.0,17.0,left,1.0,2.128618899965659,,speed,space,4.561969300033525,,,,,,0.0,0.0,0.0,1.0,17.0,1.0,35.0,0.0,435.3708732000087,,,,,,,,,435.35587839991786,436.57126749982126,437.3713273999747,437.3548681000248,437.3551321998239,437.3713273999747,437.3713273999747,437.3713273999747,,439.5053892999422,,,,,,,,,,,,,,,,,,,,,,,,,,,,,,left,1.0,2.128618899965659,,,,,sub-161,1,random_dot,59.98411619681316,
right,right,36.0,0.0,18.0,right,1.0,2.08637799997814,,speed,space,4.561969300033525,,,,,,0.0,0.0,0.0,1.0,18.0,0.0,36.0,1.0,439.520666499855,,,,,,,,,439.5056809999514,440.3044908000156,441.104475799948,441.0881466998253,441.0884491000325,441.104475799948,441.104475799948,441.104475799948,,443.2054175999947,,,,,,,,,,,,,,,,,,,,,,,,,,,,,,right,1.0,2.08637799997814,,,,,sub-161,1,random_dot,59.98411619681316,
left,left,37.0,1.0,18.0,left,1.0,2.432584500173107,,speed,space,4.561969300033525,,,,,,0.0,0.0,0.0,1.0,18.0,1.0,37.0,0.0,443.2206566999666,,,,,,,,,443.2057031998411,444.4045253000222,445.2047049999237,445.188577399822,445.1888255998492,445.2047049999237,445.2047049999237,445.2047049999237,,447.6386859000195,,,,,,,,,,,,,,,,,,,,,,,,,,,,,,left,1.0,2.432584500173107,,,,,sub-161,1,random_dot,59.98411619681316,
left,left,38.0,0.0,19.0,left,1.0,3.725412999978289,,speed,space,4.561969300033525,,,,,,0.0,0.0,0.0,1.0,19.0,0.0,38.0,0.0,447.65419729985297,,,,,,,,,447.6389772000257,447.9878263999708,448.78820979991,448.7716255998239,448.7718759998679,448.78820979991,448.78820979991,448.78820979991,,452.5222791999113,,,,,,,,,,,,,,,,,,,,,,,,,,,,,,left,1.0,3.725412999978289,,,,,sub-161,1,random_dot,59.98411619681316,
right,right,39.0,1.0,19.0,right,1.0,1.2075288000050932,,speed,space,4.561969300033525,,,,,,0.0,0.0,0.0,1.0,19.0,1.0,39.0,1.0,452.53773969993927,,,,,,,,,452.5225629999768,453.7226954000071,454.5380565999076,454.5219623998273,454.5222518998198,454.5380565999076,454.5380565999076,454.5380565999076,,455.75577980000526,,,,,,,,,,,,,,,,,,,,,,,,,,,,,,right,1.0,1.2075288000050932,,,,,sub-161,1,random_dot,59.98411619681316,
left,left,40.0,0.0,20.0,left,1.0,2.3229121998883784,,speed,space,4.561969300033525,,,,,,0.0,0.0,0.0,1.0,20.0,0.0,40.0,0.0,455.7709407999646,,,,,,,,,455.7560796998441,456.97117559984326,457.7715934000444,457.75529469992034,457.7555724999402,457.7715934000444,457.7715934000444,457.7715934000444,,460.10593349998817,,,,,,,,,,,,,,,,,,,,,,,,,,,,,,left,1.0,2.3229121998883784,,,,,sub-161,1,random_dot,59.98411619681316,
right,right,41.0,1.0,20.0,right,1.0,0.9778909999877214,,speed,space,4.561969300033525,,,,,,0.0,0.0,0.0,1.0,20.0,1.0,41.0,1.0,460.1211606999859,,,,,,,,,460.1062238998711,460.22114799986593,461.0215401998721,461.0050219998229,461.0052602000069,461.0215401998721,461.0215401998721,461.0215401998721,,462.0110070998781,,,,,,,,,,,,,,,,,,,,,,,,,,,,,,right,1.0,0.9778909999877214,,,,,sub-161,1,random_dot,59.98411619681316,
left,left,42.0,0.0,21.0,left,1.0,0.886814400088042,,speed,space,4.561969300033525,,,,,,0.0,0.0,0.0,1.0,21.0,0.0,42.0,0.0,462.0241000999231,,,,,,,,,462.0113270999864,462.82280980004,463.6382869000081,463.6219174999278,463.6221631998196,463.6382869000081,463.6382869000081,463.6382869000081,,464.5392424999736,,,,,,,,,,,,,,,,,,,,,,,,,,,,,,left,1.0,0.886814400088042,,,,,sub-161,1,random_dot,59.98411619681316,
right,right,43.0,1.0,21.0,right,1.0,1.7595939000602812,,speed,space,4.561969300033525,,,,,,0.0,0.0,0.0,1.0,21.0,1.0,43.0,1.0,464.5545469999779,,,,,,,,,464.5395284998231,464.6545432000421,465.4548980998807,465.4385917999316,465.4388470000122,465.4548980998807,465.4548980998807,465.4548980998807,,467.22246489999816,,,,,,,,,,,,,,,,,,,,,,,,,,,,,,right,1.0,1.7595939000602812,,,,,sub-161,1,random_dot,59.98411619681316,
right,right,44.0,0.0,22.0,right,1.0,1.4255188999231905,,speed,space,4.561969300033525,,,,,,0.0,0.0,0.0,1.0,22.0,0.0,44.0,1.0,467.23798199999146,,,,,,,,,467.22274969983846,467.337649299996,468.1382837998681,468.1221445000265,468.1223913999274,468.1382837998681,468.1382837998681,468.1382837998681,,469.57243669987656,,,,,,,,,,,,,,,,,,,,,,,,,,,,,,right,1.0,1.4255188999231905,,,,,sub-161,1,random_dot,59.98411619681316,
left,left,45.0,1.0,22.0,left,1.0,1.1919557999353856,,speed,space,4.561969300033525,,,,,,0.0,0.0,0.0,1.0,22.0,1.0,45.0,0.0,469.5877886998933,,,,,,,,,469.572733100038,469.93817329988815,470.7383468998596,470.722046099836,470.7223165000323,470.7383468998596,470.7383468998596,470.7383468998596,,471.9391917998437,,,,,,,,,,,,,,,,,,,,,,,,,,,,,,left,1.0,1.1919557999353856,,,,,sub-161,1,random_dot,59.98411619681316,
left,left,46.0,0.0,23.0,left,1.0,2.7960147000849247,,speed,space,4.561969300033525,,,,,,0.0,0.0,0.0,1.0,23.0,0.0,46.0,0.0,471.9544134000316,,,,,,,,,471.9394735000096,473.1548631999176,473.955036399886,473.93888939986937,473.9391459999606,473.955036399886,473.955036399886,473.955036399886,,476.7558772999328,,,,,,,,,,,,,,,,,,,,,,,,,,,,,,left,1.0,2.7960147000849247,,,,,sub-161,1,random_dot,59.98411619681316,
right,right,47.0,1.0,23.0,right,1.0,1.0882795001380146,,speed,space,4.561969300033525,,,,,,0.0,0.0,0.0,1.0,23.0,1.0,47.0,1.0,476.77099239989184,,,,,,,,,476.7561566999648,477.971631599823,478.7717607999221,478.7553330999799,478.7555777998641,478.7717607999221,478.7717607999221,478.7717607999221,,479.8727243000176,,,,,,,,,,,,,,,,,,,,,,,,,,,,,,right,1.0,1.0882795001380146,,,,,sub-161,1,random_dot,59.98411619681316,
left,left,48.0,0.0,24.0,left,1.0,1.3204159999731928,,speed,space,4.561969300033525,,,,,,0.0,0.0,0.0,1.0,24.0,0.0,48.0,0.0,479.8879668000154,,,,,,,,,479.8730053999461,480.6882929999847,481.4884756000247,481.4722849000245,481.4725241998676,481.4884756000247,481.4884756000247,481.4884756000247,,482.8228092000354,,,,,,,,,,,,,,,,,,,,,,,,,,,,,,left,1.0,1.3204159999731928,,,,,sub-161,1,random_dot,59.98411619681316,
right,right,49.0,1.0,24.0,right,1.0,1.1233892000745982,,speed,space,4.561969300033525,,,,,,0.0,0.0,0.0,1.0,24.0,1.0,49.0,1.0,482.8379962998442,,,,,,,,,482.82309179985896,483.1881559998728,483.9886686999816,483.97205189988017,483.97230609995313,483.9886686999816,483.9886686999816,483.9886686999816,,485.12259779986925,,,,,,,,,,,,,,,,,,,,,,,,,,,,,,right,1.0,1.1233892000745982,,,,,sub-161,1,random_dot,59.98411619681316,
right,right,50.0,0.0,25.0,right,1.0,1.1488031998742372,,speed,space,4.561969300033525,,,,,,0.0,0.0,0.0,1.0,25.0,0.0,50.0,1.0,485.13789139990695,,,,,,,,,485.1228811999317,485.488353200024,486.2882774998434,486.2719325998333,486.2721789998468,486.2882774998434,486.2882774998434,486.2882774998434,,487.4394896000158,,,,,,,,,,,,,,,,,,,,,,,,,,,,,,right,1.0,1.1488031998742372,,,,,sub-161,1,random_dot,59.98411619681316,
left,left,51.0,1.0,25.0,left,1.0,0.9058921998366714,,speed,space,4.561969300033525,,,,,,0.0,0.0,0.0,1.0,25.0,1.0,51.0,0.0,487.4547135999892,,,,,,,,,487.4397686999291,487.5548902999144,488.3553028998431,488.3387406999245,488.3389973999001,488.3553028998431,488.3553028998431,488.3553028998431,,489.2727051998954,,,,,,,,,,,,,,,,,,,,,,,,,,,,,,left,1.0,0.9058921998366714,,,,,sub-161,1,random_dot,59.98411619681316,
right,right,52.0,0.0,26.0,left,0.0,4.905118700116873,,speed,space,4.561969300033525,,,,,,0.0,0.0,0.0,1.0,26.0,0.0,52.0,1.0,489.2881837999448,,,,,,,,,489.2729960998986,490.0883902998176,490.8886444999371,490.872390500037,490.8726590999868,490.8886444999371,490.8886444999371,490.8886444999371,,495.8060671999119,,,,,,,,,,,,,,,,,,,,,,,,,,,,,,left,0.0,4.905118700116873,,,,,sub-161,1,random_dot,59.98411619681316,
left,left,53.0,1.0,26.0,right,0.0,2.4835569001734257,,speed,space,4.561969300033525,,,,,,0.0,0.0,0.0,1.0,26.0,1.0,53.0,0.0,495.8215365000069,,,,,,,,,495.8063504998572,496.1718355999328,496.9720073000062,496.9558994998224,496.9561375998892,496.9720073000062,496.9720073000062,496.9720073000062,,499.4726698999293,,,,,,,,,,,,,,,,,,,,,,,,,,,,,,right,0.0,2.4835569001734257,,,,,sub-161,1,random_dot,59.98411619681316,
left,left,54.0,0.0,27.0,left,1.0,2.731524699833244,,speed,space,4.561969300033525,,,,,,0.0,0.0,0.0,1.0,27.0,0.0,54.0,0.0,499.4882361998316,,,,,,,,,499.4729611999355,500.2718461998738,501.0720948998351,501.0558505998925,501.0561122999061,501.0720948998351,501.0720948998351,501.0720948998351,,503.8064075999428,,,,,,,,,,,,,,,,,,,,,,,,,,,,,,left,1.0,2.731524699833244,,,,,sub-161,1,random_dot,59.98411619681316,
right,right,55.0,1.0,27.0,right,1.0,2.923016200074926,,speed,space,4.561969300033525,,,,,,0.0,0.0,0.0,1.0,27.0,1.0,55.0,1.0,503.8217576998286,,,,,,,,,503.80668959999457,505.02205129992217,505.82209079992026,505.8057299999055,505.80597250000574,505.82209079992026,505.82209079992026,505.82209079992026,,508.7562696998939,,,,,,,,,,,,,,,,,,,,,,,,,,,,,,right,1.0,2.923016200074926,,,,,sub-161,1,random_dot,59.98411619681316,
right,right,56.0,0.0,28.0,right,1.0,1.9850934001151472,,speed,space,4.561969300033525,,,,,,0.0,0.0,0.0,1.0,28.0,0.0,56.0,1.0,508.7716965000145,,,,,,,,,508.7565421999898,509.9552469998598,510.7554136000108,510.73912169993855,510.7393845999613,510.7554136000108,510.7554136000108,510.7554136000108,,512.7565663999412,,,,,,,,,,,,,,,,,,,,,,,,,,,,,,right,1.0,1.9850934001151472,,,,,sub-161,1,random_dot,59.98411619681316,
left,left,57.0,1.0,28.0,left,1.0,3.3021631999872625,,speed,space,4.561969300033525,,,,,,0.0,0.0,0.0,1.0,28.0,1.0,57.0,0.0,512.7717988998629,,,,,,,,,512.7568492998835,513.972059499938,514.7723891998176,514.7560719999019,514.7563203999307,514.7723891998176,514.7723891998176,514.7723891998176,,518.089725599857,,,,,,,,,,,,,,,,,,,,,,,,,,,,,,left,1.0,3.3021631999872625,,,,,sub-161,1,random_dot,59.98411619681316,
left,left,58.0,0.0,29.0,right,0.0,1.8848862000741065,,speed,space,4.561969300033525,,,,,,0.0,0.0,0.0,1.0,29.0,0.0,58.0,0.0,518.1053118000273,,,,,,,,,518.0900122998282,518.2050761999562,519.0057458998635,518.9894332999829,518.9896889999509,519.0057458998635,519.0057458998635,519.0057458998635,,520.9065948999487,,,,,,,,,,,,,,,,,,,,,,,,,,,,,,right,0.0,1.8848862000741065,,,,,sub-161,1,random_dot,59.98411619681316,
right,right,59.0,1.0,29.0,right,1.0,2.9254439000505954,,speed,space,4.561969300033525,,,,,,0.0,0.0,0.0,1.0,29.0,1.0,59.0,1.0,520.9217329998501,,,,,,,,,520.9068658999167,521.0220631998964,521.8224734000396,521.8063159999438,521.80656489986,521.8224734000396,521.8224734000396,521.8224734000396,,524.7567070999648,,,,,,,,,,,,,,,,,,,,,,,,,,,,,,right,1.0,2.9254439000505954,,,,,sub-161,1,random_dot,59.98411619681316,
,,0.0,0.0,0.0,,,,,speed,space,4.561969300033525,,,,,,0.0,0.0,0.0,1.0,,,,,,,,,,,,,,,,,,,,,,,,,,,,,,,,,,,,,,,,,,,,,,,,,,,,,,,,,,,,sub-161,1,random_dot,59.98411619681316,
right,right,0.0,0.0,0.0,left,0.0,5.684290700126439,,accuracy,space,5.3638853000011295,,,,,,0.0,1.0,1.0,0.0,0.0,0.0,0.0,1.0,530.1737373999786,,,,,,,,,530.1613808998372,530.9557381998748,531.7560029998422,531.7393535999581,531.739614199847,531.7560029998422,531.7560029998422,531.7560029998422,536.7392839998938,537.4567046000157,,,,,,,,,,,,,,,,,,,,,,,524.77917600004,524.7898277000058,524.7898277000058,530.1564852998126,space,5.3638853000011295,,left,0.0,5.684290700126439,,,,,sub-161,1,random_dot,59.98411619681316,
left,left,1.0,1.0,0.0,left,1.0,0.8372700000181794,,accuracy,space,5.3638853000011295,,,,,,0.0,1.0,1.0,0.0,0.0,1.0,1.0,0.0,537.4719686999451,,,,,,,,,537.4569826999214,537.8058554998133,538.6060081999749,538.5892856998835,538.5895288998727,538.6060081999749,538.6060081999749,538.6060081999749,,539.4568227999844,,,,,,,,,,,,,,,,,,,,,,,,,,,,,,left,1.0,0.8372700000181794,,,,,sub-161,1,random_dot,59.98411619681316,
right,right,2.0,0.0,1.0,left,0.0,0.9664755000267178,,accuracy,space,5.3638853000011295,,,,,,0.0,1.0,1.0,0.0,1.0,0.0,2.0,1.0,539.4720844000112,,,,,,,,,539.4570975999814,539.8058597999625,540.6063604999799,540.5898374998942,540.5901170000434,540.6063604999799,540.6063604999799,540.6063604999799,,541.573998299893,,,,,,,,,,,,,,,,,,,,,,,,,,,,,,left,0.0,0.9664755000267178,,,,,sub-161,1,random_dot,59.98411619681316,
left,left,3.0,1.0,1.0,right,0.0,1.4587153000757098,,accuracy,space,5.3638853000011295,,,,,,0.0,1.0,1.0,0.0,1.0,1.0,3.0,0.0,541.5891774999909,,,,,,,,,541.5743034000043,542.3893187998328,543.1896243998781,543.1734491998795,543.17372229998,543.1896243998781,543.1896243998781,543.1896243998781,,544.6571960998699,,,,,,,,,,,,,,,,,,,,,,,,,,,,,,right,0.0,1.4587153000757098,,,,,sub-161,1,random_dot,59.98411619681316,
right,right,4.0,0.0,2.0,right,1.0,4.625404400052503,,accuracy,space,5.3638853000011295,,,,,,0.0,1.0,1.0,0.0,2.0,0.0,4.0,1.0,544.6724439999089,,,,,,,,,544.6574976998381,545.0225666000042,545.8227744998876,545.8065433998127,545.8068033999298,545.8227744998876,545.8227744998876,545.8227744998876,,550.4570426999126,,,,,,,,,,,,,,,,,,,,,,,,,,,,,,right,1.0,4.625404400052503,,,,,sub-161,1,random_dot,59.98411619681316,
left,left,5.0,1.0,2.0,left,1.0,1.147190200164914,,accuracy,space,5.3638853000011295,,,,,,0.0,1.0,1.0,0.0,2.0,1.0,5.0,0.0,550.4722626998555,,,,,,,,,550.4573272999842,551.2726356999483,552.0729272000026,552.0566534998361,552.0569183998741,552.0729272000026,552.0729272000026,552.0729272000026,,553.2238381998613,,,,,,,,,,,,,,,,,,,,,,,,,,,,,,left,1.0,1.147190200164914,,,,,sub-161,1,random_dot,59.98411619681316,
left,left,6.0,0.0,3.0,left,1.0,1.825619300128892,,accuracy,space,5.3638853000011295,,,,,,0.0,1.0,1.0,0.0,3.0,0.0,6.0,0.0,553.239270699909,,,,,,,,,553.2241248998325,554.0392781000119,554.8397009999026,554.8232622998767,554.8235347999725,554.8397009999026,554.8397009999026,554.8397009999026,,556.6737518999726,,,,,,,,,,,,,,,,,,,,,,,,,,,,,,left,1.0,1.825619300128892,,,,,sub-161,1,random_dot,59.98411619681316,
right,right,7.0,1.0,3.0,right,1.0,1.19938339991495,,accuracy,space,5.3638853000011295,,,,,,0.0,1.0,1.0,0.0,3.0,1.0,7.0,1.0,556.6889736999292,,,,,,,,,556.674034900032,557.0393232998904,557.8395505999215,557.8228475998621,557.823086499935,557.8395505999215,557.8395505999215,557.8395505999215,,559.0402478999458,,,,,,,,,,,,,,,,,,,,,,,,,,,,,,right,1.0,1.19938339991495,,,,,sub-161,1,random_dot,59.98411619681316,
left,left,8.0,0.0,4.0,right,0.0,1.6390305000822991,,accuracy,space,5.3638853000011295,,,,,,0.0,1.0,1.0,0.0,4.0,0.0,8.0,0.0,559.0557794999331,,,,,,,,,559.0405323000159,560.2394999000244,561.0395737998188,561.0232889000326,561.023545099888,561.0395737998188,561.0395737998188,561.0395737998188,,562.6905507999472,,,,,,,,,,,,,,,,,,,,,,,,,,,,,,right,0.0,1.6390305000822991,,,,,sub-161,1,random_dot,59.98411619681316,
right,right,9.0,1.0,4.0,right,1.0,1.7726497000548989,,accuracy,space,5.3638853000011295,,,,,,0.0,1.0,1.0,0.0,4.0,1.0,9.0,1.0,562.7057669998612,,,,,,,,,562.6908346000127,563.5060923998244,564.3063264999073,564.2899904998485,564.2902362998575,564.3063264999073,564.3063264999073,564.3063264999073,,566.0906386999413,,,,,,,,,,,,,,,,,,,,,,,,,,,,,,right,1.0,1.7726497000548989,,,,,sub-161,1,random_dot,59.98411619681316,
right,right,10.0,0.0,5.0,right,1.0,1.334412599913776,,accuracy,space,5.3638853000011295,,,,,,0.0,1.0,1.0,0.0,5.0,0.0,10.0,1.0,566.1058465000242,,,,,,,,,566.0909243000206,566.9057032999117,567.7067430999596,567.6906077999156,567.6908936998807,567.7067430999596,567.7067430999596,567.7067430999596,,569.0572013999335,,,,,,,,,,,,,,,,,,,,,,,,,,,,,,right,1.0,1.334412599913776,,,,,sub-161,1,random_dot,59.98411619681316,
left,left,11.0,1.0,5.0,right,0.0,1.2064435998909175,,accuracy,space,5.3638853000011295,,,,,,0.0,1.0,1.0,0.0,5.0,1.0,11.0,0.0,569.0726615998428,,,,,,,,,569.0574771999381,569.8726659000386,570.6730748999398,570.6566647000145,570.6569234998897,570.6730748999398,570.6730748999398,570.6730748999398,,571.8905217999127,,,,,,,,,,,,,,,,,,,,,,,,,,,,,,right,0.0,1.2064435998909175,,,,,sub-161,1,random_dot,59.98411619681316,
left,left,12.0,0.0,6.0,right,0.0,1.2760425000451503,,accuracy,space,5.3638853000011295,,,,,,0.0,1.0,1.0,0.0,6.0,0.0,12.0,0.0,571.9060390000232,,,,,,,,,571.8907985999249,572.6896513998508,573.4898894999642,573.4732524999417,573.4735037998762,573.4898894999642,573.4898894999642,573.4898894999642,,574.7740735998377,,,,,,,,,,,,,,,,,,,,,,,,,,,,,,right,0.0,1.2760425000451503,,,,,sub-161,1,random_dot,59.98411619681316,
right,right,13.0,1.0,6.0,right,1.0,1.5789057000074536,,accuracy,space,5.3638853000011295,,,,,,0.0,1.0,1.0,0.0,6.0,1.0,13.0,1.0,574.7892169000115,,,,,,,,,574.774353899993,574.8894461998716,575.689955299953,575.6735473000444,575.6738173000049,575.689955299953,575.689955299953,575.689955299953,,577.2739269000012,,,,,,,,,,,,,,,,,,,,,,,,,,,,,,right,1.0,1.5789057000074536,,,,,sub-161,1,random_dot,59.98411619681316,
left,left,14.0,0.0,7.0,left,1.0,1.9081757001113149,,accuracy,space,5.3638853000011295,,,,,,0.0,1.0,1.0,0.0,7.0,0.0,14.0,0.0,577.2892377998214,,,,,,,,,577.2742065000348,578.073131899815,578.8732366999611,578.8570248000324,578.8572815998923,578.8732366999611,578.8732366999611,578.8732366999611,,580.7909252999816,,,,,,,,,,,,,,,,,,,,,,,,,,,,,,left,1.0,1.9081757001113149,,,,,sub-161,1,random_dot,59.98411619681316,
right,right,15.0,1.0,7.0,left,0.0,2.109854100039229,,accuracy,space,5.3638853000011295,,,,,,0.0,1.0,1.0,0.0,7.0,1.0,15.0,1.0,580.8062342000194,,,,,,,,,580.7912007998675,582.0063819999341,582.8065176999662,582.7902234999929,582.7904880999122,582.8065176999662,582.8065176999662,582.8065176999662,,584.9241428000387,,,,,,,,,,,,,,,,,,,,,,,,,,,,,,left,0.0,2.109854100039229,,,,,sub-161,1,random_dot,59.98411619681316,
right,right,16.0,0.0,8.0,right,1.0,1.9574237999040636,,accuracy,space,5.3638853000011295,,,,,,0.0,1.0,1.0,0.0,8.0,0.0,16.0,1.0,584.9395812998991,,,,,,,,,584.9244368998334,585.2898001000285,586.0899296000134,586.0734977000393,586.0737393999007,586.0899296000134,586.0899296000134,586.0899296000134,,588.0576237000059,,,,,,,,,,,,,,,,,,,,,,,,,,,,,,right,1.0,1.9574237999040636,,,,,sub-161,1,random_dot,59.98411619681316,
left,left,17.0,1.0,8.0,right,0.0,1.5769944998901335,,accuracy,space,5.3638853000011295,,,,,,0.0,1.0,1.0,0.0,8.0,1.0,17.0,0.0,588.072721599834,,,,,,,,,588.0579070998356,588.873193099862,589.6732262999285,589.6567720000166,589.6570174999069,589.6732262999285,589.6732262999285,589.6732262999285,,591.257493800018,,,,,,,,,,,,,,,,,,,,,,,,,,,,,,right,0.0,1.5769944998901335,,,,,sub-161,1,random_dot,59.98411619681316,
left,left,18.0,0.0,9.0,left,1.0,1.1985917000565678,,accuracy,space,5.3638853000011295,,,,,,0.0,1.0,1.0,0.0,9.0,0.0,18.0,0.0,591.2730413998943,,,,,,,,,591.2577710999176,592.4615888998378,593.2734752998222,593.2568482998759,593.2571043998469,593.2734752998222,593.2734752998222,593.2734752998222,,594.4743661999237,,,,,,,,,,,,,,,,,,,,,,,,,,,,,,left,1.0,1.1985917000565678,,,,,sub-161,1,random_dot,59.98411619681316,
right,right,19.0,1.0,9.0,right,1.0,5.640356800053269,,accuracy,space,5.3638853000011295,,,,,,0.0,1.0,1.0,0.0,9.0,1.0,19.0,1.0,594.4895368998405,,,,,,,,,594.4746532998979,595.6933158999309,596.5067856998648,596.4906049999408,596.4908600999042,596.5067856998648,596.5067856998648,596.5067856998648,601.4900475000031,602.1577649998944,,,,,,,,,,,,,,,,,,,,,,,,,,,,,,right,1.0,5.640356800053269,,,,,sub-161,1,random_dot,59.98411619681316,
right,right,20.0,0.0,10.0,left,0.0,2.682647000066936,,accuracy,space,5.3638853000011295,,,,,,0.0,1.0,1.0,0.0,10.0,0.0,20.0,1.0,602.1732336999848,,,,,,,,,602.1580493999645,602.5065593998879,603.3070010000374,603.2907942000311,603.2910716999322,603.3070010000374,603.3070010000374,603.3070010000374,,605.9913135999814,,,,,,,,,,,,,,,,,,,,,,,,,,,,,,left,0.0,2.682647000066936,,,,,sub-161,1,random_dot,59.98411619681316,
left,left,21.0,1.0,10.0,right,0.0,1.440625200048089,,accuracy,space,5.3638853000011295,,,,,,0.0,1.0,1.0,0.0,10.0,1.0,21.0,0.0,606.0067324000411,,,,,,,,,605.9916354999878,606.8069440999534,607.6068239999004,607.5904231998138,607.5906636000145,607.6068239999004,607.6068239999004,607.6068239999004,,609.0630409000441,,,,,,,,,,,,,,,,,,,,,,,,,,,,,,right,0.0,1.440625200048089,,,,,sub-161,1,random_dot,59.98411619681316,
left,left,22.0,0.0,11.0,left,1.0,2.1440787999890745,,accuracy,space,5.3638853000011295,,,,,,0.0,1.0,1.0,0.0,11.0,0.0,22.0,0.0,609.0763612999581,,,,,,,,,609.0632643999998,609.8742175998632,610.6736761999782,610.6572797999252,610.657533899881,610.6736761999782,610.6736761999782,610.6736761999782,,612.8258131998591,,,,,,,,,,,,,,,,,,,,,,,,,,,,,,left,1.0,2.1440787999890745,,,,,sub-161,1,random_dot,59.98411619681316,
right,right,23.0,1.0,11.0,right,1.0,1.235023999819532,,accuracy,space,5.3638853000011295,,,,,,0.0,1.0,1.0,0.0,11.0,1.0,23.0,1.0,612.8405781998299,,,,,,,,,612.8261990998872,614.040231899824,614.8404767999891,614.8241424998268,614.8244087998755,614.8404767999891,614.8404767999891,614.8404767999891,,616.0914170998149,,,,,,,,,,,,,,,,,,,,,,,,,,,,,,right,1.0,1.235023999819532,,,,,sub-161,1,random_dot,59.98411619681316,
left,left,24.0,0.0,12.0,left,1.0,0.774397199973464,,accuracy,space,5.3638853000011295,,,,,,0.0,1.0,1.0,0.0,12.0,0.0,24.0,0.0,616.10675060004,,,,,,,,,616.0917135998607,616.4569997999351,617.2569198999554,617.2401697000023,617.240418399917,617.2569198999554,617.2569198999554,617.2569198999554,,618.0414710999466,,,,,,,,,,,,,,,,,,,,,,,,,,,,,,left,1.0,0.774397199973464,,,,,sub-161,1,random_dot,59.98411619681316,
right,right,25.0,1.0,12.0,right,1.0,1.5704584999475628,,accuracy,space,5.3638853000011295,,,,,,0.0,1.0,1.0,0.0,12.0,1.0,25.0,1.0,618.0568386998493,,,,,,,,,618.0417495998554,618.8570101000369,619.6570409999695,619.6409276998602,619.641185299959,619.6570409999695,619.6570409999695,619.6570409999695,,621.2412608999293,,,,,,,,,,,,,,,,,,,,,,,,,,,,,,right,1.0,1.5704584999475628,,,,,sub-161,1,random_dot,59.98411619681316,
left,left,26.0,0.0,13.0,left,1.0,1.1317871001083404,,accuracy,space,5.3638853000011295,,,,,,0.0,1.0,1.0,0.0,13.0,0.0,26.0,0.0,621.25661819987,,,,,,,,,621.2415471000131,622.0569219000172,622.8572060998995,622.8406829000451,622.8409341999795,622.8572060998995,622.8572060998995,622.8572060998995,,623.9914593999274,,,,,,,,,,,,,,,,,,,,,,,,,,,,,,left,1.0,1.1317871001083404,,,,,sub-161,1,random_dot,59.98411619681316,
right,right,27.0,1.0,13.0,right,1.0,2.0868073001038283,,accuracy,space,5.3638853000011295,,,,,,0.0,1.0,1.0,0.0,13.0,1.0,27.0,1.0,624.0069058998488,,,,,,,,,623.9917581998743,624.1067140998784,624.9069664999843,624.8906921998132,624.8909286998678,624.9069664999843,624.9069664999843,624.9069664999843,,627.0079774998594,,,,,,,,,,,,,,,,,,,,,,,,,,,,,,right,1.0,2.0868073001038283,,,,,sub-161,1,random_dot,59.98411619681316,
left,left,28.0,0.0,14.0,left,1.0,1.1315939999185505,,accuracy,space,5.3638853000011295,,,,,,0.0,1.0,1.0,0.0,14.0,0.0,28.0,0.0,627.0233620000072,,,,,,,,,627.0082480998244,628.2071146999951,629.0074546998367,628.9911239999346,628.9913933000062,629.0074546998367,629.0074546998367,629.0074546998367,,630.1416233000346,,,,,,,,,,,,,,,,,,,,,,,,,,,,,,left,1.0,1.1315939999185505,,,,,sub-161,1,random_dot,59.98411619681316,
right,right,29.0,1.0,14.0,right,1.0,1.3244920000433922,,accuracy,space,5.3638853000011295,,,,,,0.0,1.0,1.0,0.0,14.0,1.0,29.0,1.0,630.1565996999852,,,,,,,,,630.1418874999508,630.941203400027,631.7406472000293,631.7243816999253,631.7246214998886,631.7406472000293,631.7406472000293,631.7406472000293,,633.0750112999231,,,,,,,,,,,,,,,,,,,,,,,,,,,,,,right,1.0,1.3244920000433922,,,,,sub-161,1,random_dot,59.98411619681316,
right,right,30.0,0.0,15.0,right,1.0,1.4647800999227911,,accuracy,space,5.3638853000011295,,,,,,0.0,1.0,1.0,0.0,15.0,0.0,30.0,1.0,633.0903207999654,,,,,,,,,633.0752950999886,633.4404143998399,634.2407841999084,634.224431599956,634.2246957998723,634.2407841999084,634.2407841999084,634.2407841999084,,635.7082895999774,,,,,,,,,,,,,,,,,,,,,,,,,,,,,,right,1.0,1.4647800999227911,,,,,sub-161,1,random_dot,59.98411619681316,
left,left,31.0,1.0,15.0,right,0.0,2.490600799908861,,accuracy,space,5.3638853000011295,,,,,,0.0,1.0,1.0,0.0,15.0,1.0,31.0,0.0,635.7235528999008,,,,,,,,,635.7085745998193,636.5072478998918,637.3074504998513,637.2912055999041,637.2914674999192,637.3074504998513,637.3074504998513,637.3074504998513,,639.8085890999064,,,,,,,,,,,,,,,,,,,,,,,,,,,,,,right,0.0,2.490600799908861,,,,,sub-161,1,random_dot,59.98411619681316,
right,right,32.0,0.0,16.0,left,0.0,1.7412020999472588,,accuracy,space,5.3638853000011295,,,,,,0.0,1.0,1.0,0.0,16.0,0.0,32.0,1.0,639.8237470998429,,,,,,,,,639.8088742999826,640.1739906000439,640.9740758999251,640.9577531998511,640.957996299956,640.9740758999251,640.9740758999251,640.9740758999251,,642.7251424998976,,,,,,,,,,,,,,,,,,,,,,,,,,,,,,left,0.0,1.7412020999472588,,,,,sub-161,1,random_dot,59.98411619681316,
left,left,33.0,1.0,16.0,left,1.0,1.218925999943167,,accuracy,space,5.3638853000011295,,,,,,0.0,1.0,1.0,0.0,16.0,1.0,33.0,0.0,642.7403231000062,,,,,,,,,642.7254301998764,642.8402894998435,643.6408138000406,643.624539299868,643.6247894999105,643.6408138000406,643.6408138000406,643.6408138000406,,644.8749807998538,,,,,,,,,,,,,,,,,,,,,,,,,,,,,,left,1.0,1.218925999943167,,,,,sub-161,1,random_dot,59.98411619681316,
right,right,34.0,0.0,17.0,right,1.0,0.9926958999130876,,accuracy,space,5.3638853000011295,,,,,,0.0,1.0,1.0,0.0,17.0,0.0,34.0,1.0,644.8901589999441,,,,,,,,,644.8752697999589,645.6907642998267,646.4912521999795,646.4742953998502,646.4745463998988,646.4912521999795,646.4912521999795,646.4912521999795,,647.4916586999316,,,,,,,,,,,,,,,,,,,,,,,,,,,,,,right,1.0,0.9926958999130876,,,,,sub-161,1,random_dot,59.98411619681316,
left,left,35.0,1.0,17.0,left,1.0,1.766387699870393,,accuracy,space,5.3638853000011295,,,,,,0.0,1.0,1.0,0.0,17.0,1.0,35.0,0.0,647.5071656999644,,,,,,,,,647.4919632999226,648.7073543998413,649.5076289998833,649.4912439000327,649.491497799987,649.5076289998833,649.5076289998833,649.5076289998833,,651.2753472998738,,,,,,,,,,,,,,,,,,,,,,,,,,,,,,left,1.0,1.766387699870393,,,,,sub-161,1,random_dot,59.98411619681316,
left,left,36.0,0.0,18.0,left,1.0,1.656662099994719,,accuracy,space,5.3638853000011295,,,,,,0.0,1.0,1.0,0.0,18.0,0.0,36.0,0.0,651.2906241999008,,,,,,,,,651.2756218998693,652.4909561998211,653.2908983998932,653.274355399888,653.2746031000279,653.2908983998932,653.2908983998932,653.2908983998932,,654.9585217998829,,,,,,,,,,,,,,,,,,,,,,,,,,,,,,left,1.0,1.656662099994719,,,,,sub-161,1,random_dot,59.98411619681316,
right,right,37.0,1.0,18.0,left,0.0,1.825746500166133,,accuracy,space,5.3638853000011295,,,,,,0.0,1.0,1.0,0.0,18.0,1.0,37.0,1.0,654.9739798000082,,,,,,,,,654.9588048998266,655.7741785999388,656.5742718998808,656.5579162999056,656.5581620000303,656.5742718998808,656.5742718998808,656.5742718998808,,658.4086839999072,,,,,,,,,,,,,,,,,,,,,,,,,,,,,,left,0.0,1.825746500166133,,,,,sub-161,1,random_dot,59.98411619681316,
right,right,38.0,0.0,19.0,right,1.0,2.2062534000724554,,accuracy,space,5.3638853000011295,,,,,,0.0,1.0,1.0,0.0,19.0,0.0,38.0,1.0,658.424006999936,,,,,,,,,658.4090342000127,659.6242281999439,660.4243011998478,660.407899199985,660.4081510000397,660.4243011998478,660.4243011998478,660.4243011998478,,662.6419118000194,,,,,,,,,,,,,,,,,,,,,,,,,,,,,,right,1.0,2.2062534000724554,,,,,sub-161,1,random_dot,59.98411619681316,
left,left,39.0,1.0,19.0,right,0.0,3.2969531000126158,,accuracy,space,5.3638853000011295,,,,,,0.0,1.0,1.0,0.0,19.0,1.0,39.0,0.0,662.6570357999299,,,,,,,,,662.6421934999526,663.4572560999077,664.2577080000192,664.2414075999986,664.2416583998129,664.2577080000192,664.2577080000192,664.2577080000192,,667.5590815998148,,,,,,,,,,,,,,,,,,,,,,,,,,,,,,right,0.0,3.2969531000126158,,,,,sub-161,1,random_dot,59.98411619681316,
left,left,40.0,0.0,20.0,left,1.0,1.444848099956289,,accuracy,space,5.3638853000011295,,,,,,0.0,1.0,1.0,0.0,20.0,0.0,40.0,0.0,667.5742752999067,,,,,,,,,667.5593822998926,667.9242594998796,668.7242527999915,668.7080959999003,668.7083362999838,668.7242527999915,668.7242527999915,668.7242527999915,,670.172878399957,,,,,,,,,,,,,,,,,,,,,,,,,,,,,,left,1.0,1.444848099956289,,,,,sub-161,1,random_dot,59.98411619681316,
right,right,41.0,1.0,20.0,left,0.0,1.259129900019616,,accuracy,space,5.3638853000011295,,,,,,0.0,1.0,1.0,0.0,20.0,1.0,41.0,1.0,670.182554199826,,,,,,,,,670.1732677998953,670.2746790999081,671.0745102998335,671.0584420999512,671.0587036998477,671.0745102998335,671.0745102998335,671.0745102998335,,672.3419510000385,,,,,,,,,,,,,,,,,,,,,,,,,,,,,,left,0.0,1.259129900019616,,,,,sub-161,1,random_dot,59.98411619681316,
left,left,42.0,0.0,21.0,left,1.0,1.575407899916172,,accuracy,space,5.3638853000011295,,,,,,0.0,1.0,1.0,0.0,21.0,0.0,42.0,0.0,672.3572491998784,,,,,,,,,672.3422369000036,672.4575322999153,673.2578834998421,673.2413494999055,673.2416037998628,673.2578834998421,673.2578834998421,673.2578834998421,,674.8420477998443,,,,,,,,,,,,,,,,,,,,,,,,,,,,,,left,1.0,1.575407899916172,,,,,sub-161,1,random_dot,59.98411619681316,
right,right,43.0,1.0,21.0,right,1.0,2.686982300132513,,accuracy,space,5.3638853000011295,,,,,,0.0,1.0,1.0,0.0,21.0,1.0,43.0,1.0,674.8574683000334,,,,,,,,,674.8423492000438,675.2078537000343,676.0079458998516,675.9916739999317,675.9919354999438,676.0079458998516,676.0079458998516,676.0079458998516,,678.7089044000022,,,,,,,,,,,,,,,,,,,,,,,,,,,,,,right,1.0,2.686982300132513,,,,,sub-161,1,random_dot,59.98411619681316,
left,left,44.0,0.0,22.0,left,1.0,3.5480663999915123,,accuracy,space,5.3638853000011295,,,,,,0.0,1.0,1.0,0.0,22.0,0.0,44.0,0.0,678.7239832000341,,,,,,,,,678.7091908999719,679.9243956999853,680.7246502998751,680.7082734999713,680.7085434999317,680.7246502998751,680.7246502998751,680.7246502998751,,684.2757313000038,,,,,,,,,,,,,,,,,,,,,,,,,,,,,,left,1.0,3.5480663999915123,,,,,sub-161,1,random_dot,59.98411619681316,
right,right,45.0,1.0,22.0,right,1.0,2.816356200026348,,accuracy,space,5.3638853000011295,,,,,,0.0,1.0,1.0,0.0,22.0,1.0,45.0,1.0,684.2910068000201,,,,,,,,,684.2760198998731,684.6412062998861,685.4414096998516,685.4251669999212,685.4254413000308,685.4414096998516,685.4414096998516,685.4414096998516,,688.2591045999434,,,,,,,,,,,,,,,,,,,,,,,,,,,,,,right,1.0,2.816356200026348,,,,,sub-161,1,random_dot,59.98411619681316,
left,left,46.0,0.0,23.0,right,0.0,2.7071811999194324,,accuracy,space,5.3638853000011295,,,,,,0.0,1.0,1.0,0.0,23.0,0.0,46.0,0.0,688.2744036999065,,,,,,,,,688.2593858998735,688.3743643998168,689.1747319998685,689.158141899854,689.158395000035,689.1747319998685,689.1747319998685,689.1747319998685,,691.8922359999269,,,,,,,,,,,,,,,,,,,,,,,,,,,,,,right,0.0,2.7071811999194324,,,,,sub-161,1,random_dot,59.98411619681316,
right,right,47.0,1.0,23.0,right,1.0,4.328539500012994,,accuracy,space,5.3638853000011295,,,,,,0.0,1.0,1.0,0.0,23.0,1.0,47.0,1.0,691.9078635999467,,,,,,,,,691.8925232000183,692.7080000999849,693.5081459998619,693.4914535998832,693.4916975998785,693.5081459998619,693.5081459998619,693.5081459998619,,697.842622899916,,,,,,,,,,,,,,,,,,,,,,,,,,,,,,right,1.0,4.328539500012994,,,,,sub-161,1,random_dot,59.98411619681316,
right,right,48.0,0.0,24.0,right,1.0,3.339131399989128,,accuracy,space,5.3638853000011295,,,,,,0.0,1.0,1.0,0.0,24.0,0.0,48.0,1.0,697.85783610004,,,,,,,,,697.8429046999663,698.2083008999471,699.0082749000285,698.991835599998,698.9920864999294,699.0082749000285,699.0082749000285,699.0082749000285,,702.3592347998638,,,,,,,,,,,,,,,,,,,,,,,,,,,,,,right,1.0,3.339131399989128,,,,,sub-161,1,random_dot,59.98411619681316,
left,left,49.0,1.0,24.0,right,0.0,4.379349299939349,,accuracy,space,5.3638853000011295,,,,,,0.0,1.0,1.0,0.0,24.0,1.0,49.0,0.0,702.3743797999341,,,,,,,,,702.3595121998806,703.1748636998236,703.9750419999473,703.9587758998387,703.9590377998538,703.9750419999473,703.9750419999473,703.9750419999473,,708.3593197998125,,,,,,,,,,,,,,,,,,,,,,,,,,,,,,right,0.0,4.379349299939349,,,,,sub-161,1,random_dot,59.98411619681316,
left,left,50.0,0.0,25.0,left,1.0,1.929544700076804,,accuracy,space,5.3638853000011295,,,,,,0.0,1.0,1.0,0.0,25.0,0.0,50.0,0.0,708.374417199986,,,,,,,,,708.3595994999632,708.7248243000358,709.5251388999168,709.508642999921,709.508893399965,709.5251388999168,709.5251388999168,709.5251388999168,,711.4593183000106,,,,,,,,,,,,,,,,,,,,,,,,,,,,,,left,1.0,1.929544700076804,,,,,sub-161,1,random_dot,59.98411619681316,
right,right,51.0,1.0,25.0,left,0.0,3.354862099979073,,accuracy,space,5.3638853000011295,,,,,,0.0,1.0,1.0,0.0,25.0,1.0,51.0,1.0,711.4745634000283,,,,,,,,,711.4596003999468,712.6583673998248,713.4585326998495,713.4424060999881,713.4426559000276,713.4585326998495,713.4585326998495,713.4585326998495,,716.8261223000009,,,,,,,,,,,,,,,,,,,,,,,,,,,,,,left,0.0,3.354862099979073,,,,,sub-161,1,random_dot,59.98411619681316,
left,left,52.0,0.0,26.0,left,1.0,5.938573600025848,,accuracy,space,5.3638853000011295,,,,,,0.0,1.0,1.0,0.0,26.0,0.0,52.0,0.0,716.8418027998414,,,,,,,,,716.8264031999279,717.6414935998619,718.4418293999042,718.4256594998296,718.4259134999011,718.4418293999042,718.4418293999042,718.4418293999042,723.4250014999416,724.3926615000237,,,,,,,,,,,,,,,,,,,,,,,,,,,,,,left,1.0,5.938573600025848,,,,,sub-161,1,random_dot,59.98411619681316,
right,right,53.0,1.0,26.0,right,1.0,2.7002930999733508,,accuracy,space,5.3638853000011295,,,,,,0.0,1.0,1.0,0.0,26.0,1.0,53.0,1.0,724.4079764999915,,,,,,,,,724.3929403999355,725.591962199891,726.3920126999728,726.375545399962,726.3758008000441,726.3920126999728,726.3920126999728,726.3920126999728,,729.0935784999747,,,,,,,,,,,,,,,,,,,,,,,,,,,,,,right,1.0,2.7002930999733508,,,,,sub-161,1,random_dot,59.98411619681316,
right,right,54.0,0.0,27.0,right,1.0,3.2511481000110507,,accuracy,space,5.3638853000011295,,,,,,0.0,1.0,1.0,0.0,27.0,0.0,54.0,1.0,729.108450899832,,,,,,,,,729.0938641999383,729.9085244999733,730.7087254000362,730.6924812998623,730.6928123999387,730.7087254000362,730.7087254000362,730.7087254000362,,733.9764480998274,,,,,,,,,,,,,,,,,,,,,,,,,,,,,,right,1.0,3.2511481000110507,,,,,sub-161,1,random_dot,59.98411619681316,
left,left,55.0,1.0,27.0,right,0.0,2.4727980999741703,,accuracy,space,5.3638853000011295,,,,,,0.0,1.0,1.0,0.0,27.0,1.0,55.0,0.0,733.9916534000076,,,,,,,,,733.976736899931,734.7919615998399,735.5921805999242,735.5757700998802,735.5760154998861,735.5921805999242,735.5921805999242,735.5921805999242,,738.0762124999892,,,,,,,,,,,,,,,,,,,,,,,,,,,,,,right,0.0,2.4727980999741703,,,,,sub-161,1,random_dot,59.98411619681316,
right,right,56.0,0.0,28.0,left,0.0,2.2014468999113888,,accuracy,space,5.3638853000011295,,,,,,0.0,1.0,1.0,0.0,28.0,0.0,56.0,1.0,738.091521400027,,,,,,,,,738.0764962998219,738.4252153998241,739.225547199836,739.2091826000251,739.2094363998622,739.225547199836,739.225547199836,739.225547199836,,741.4429707999807,,,,,,,,,,,,,,,,,,,,,,,,,,,,,,left,0.0,2.2014468999113888,,,,,sub-161,1,random_dot,59.98411619681316,
left,left,57.0,1.0,28.0,right,0.0,4.468598099891096,,accuracy,space,5.3638853000011295,,,,,,0.0,1.0,1.0,0.0,28.0,1.0,57.0,0.0,741.4584242999554,,,,,,,,,741.4432643000036,741.8087891999166,742.6086071999744,742.592375200009,742.5926314999815,742.6086071999744,742.6086071999744,742.6086071999744,,747.092873999849,,,,,,,,,,,,,,,,,,,,,,,,,,,,,,right,0.0,4.468598099891096,,,,,sub-161,1,random_dot,59.98411619681316,
left,left,58.0,0.0,29.0,left,1.0,1.8932562998961655,,accuracy,space,5.3638853000011295,,,,,,0.0,1.0,1.0,0.0,29.0,0.0,58.0,0.0,747.1083620998543,,,,,,,,,747.0931603999343,747.2082602998707,748.0090783999767,747.9929386000149,747.9932023999281,748.0090783999767,748.0090783999767,748.0090783999767,,749.9095763999503,,,,,,,,,,,,,,,,,,,,,,,,,,,,,,left,1.0,1.8932562998961655,,,,,sub-161,1,random_dot,59.98411619681316,
right,right,59.0,1.0,29.0,left,0.0,1.822821600129828,,accuracy,space,5.3638853000011295,,,,,,0.0,1.0,1.0,0.0,29.0,1.0,59.0,1.0,749.9251045000274,,,,,,,,,749.9098664999474,750.025476400042,750.8256516000256,750.8093342999928,750.80958250002,750.8256516000256,750.8256516000256,750.8256516000256,,752.6597946998663,,,,,,,,,,,,,,,,,,,,,,,,,,,,,,left,0.0,1.822821600129828,,,,,sub-161,1,random_dot,59.98411619681316,
,,1.0,1.0,0.0,,,,,accuracy,space,5.3638853000011295,,,,,,0.0,1.0,1.0,0.0,,,,,,,,,,,,,,,,,,,,,,,,,,,,,,,,,,,,,,,,,,,,,,,,,,,,,,,,,,,,sub-161,1,random_dot,59.98411619681316,
,,,,,,,,,,,,,,,,,,,,,,,,,,,,,,,,,,,,,,,,,,,,,,,,,,,,,,,,,,,,,,,,,,,,,,,,,,,,,752.6637309999205,752.677542099962,757.6757575999945,sub-161,1,random_dot,59.98411619681316,
