direction,corrAns,thisN,thisTrialN,thisRepN,respDots.keys,respDots.corr,respDots.rt,respDots.duration,randomInstr,respRandomInstr.keys,respRandomInstr.rt,respRandomInstr.duration,practice_trials.thisRepN,practice_trials.thisTrialN,practice_trials.thisN,practice_trials.thisIndex,instr_trials.thisRepN,instr_trials.thisTrialN,instr_trials.thisN,instr_trials.thisIndex,test_trials.thisRepN,test_trials.thisTrialN,test_trials.thisN,test_trials.thisIndex,thisRow.t,notes,general_instruction.started,textGeneralInstr.started,respGeneralInstr.started,general_instruction.stopped,respGeneralInstr.keys,respGeneralInstr.rt,respGeneralInstr.duration,ITI.started,fixcross.started,fixcross.stopped,ITI.stopped,dots.started,backgroundDots.started,stimulusDots.started,respDots.started,dots.stopped,practice_trials.respDots.keys,practice_trials.respDots.corr,practice_trials.respDots.rt,practice_trials.respDots.duration,feedback.started,textFeedback.started,feedback.stopped,textFeedback.stopped,stimulusDots.stopped,info.started,textInfo.started,keyRespInfo.started,info.stopped,keyRespInfo.keys,keyRespInfo.rt,keyRespInfo.duration,test_instruction.started,textTestInstr.started,respTestInstr.started,test_instruction.stopped,respTestInstr.keys,respTestInstr.rt,respTestInstr.duration,random_instruction.started,textRandomInstr.started,respRandomInstr.started,random_instruction.stopped,instr_trials.respRandomInstr.keys,instr_trials.respRandomInstr.rt,instr_trials.respRandomInstr.duration,test_trials.respDots.keys,test_trials.respDots.corr,test_trials.respDots.rt,test_trials.respDots.duration,goodbye.started,textGoodbye.started,goodbye.stopped,participant,session,expName,frameRate,Unnamed: 87
,,,,,,,,,,,,,,,,,,,,,,,,,,,0.0075483749969862,0.0189839170052437,0.0189839170052437,31.424312041999656,space,31.2717568329972,,,,,,,,,,,,,,,,,,,,,,,,,,,,,,,,,,,,,,,,,,,,,,,,sub-070,1,random_dot,,
left,left,0.0,0.0,0.0,right,0.0,2.2020499159989413,,,,,,0.0,0.0,0.0,0.0,,,,,,,,,31.45293529200717,,,,,,,,,31.44178191700485,32.22725262500171,33.027539167000214,33.01183870900422,33.01249595900299,33.027539167000214,33.027539167000214,33.027539167000214,35.235700792007265,right,0.0,2.2020499159989413,,35.24400987500849,35.296075667007244,35.744765167008154,,,,,,,,,,,,,,,,,,,,,,,,,,,,,,,sub-070,1,random_dot,,
right,right,1.0,1.0,0.0,right,1.0,2.7430772910011,,,,,,0.0,1.0,1.0,1.0,,,,,,,,,35.75080275000073,,,,,,,,,35.74532000000181,36.53507295899908,37.32768691700767,37.31834904200514,37.31896354199853,37.32768691700767,37.32768691700767,37.32768691700767,40.07903429200815,right,1.0,2.7430772910011,,40.08471808400645,40.10596383400844,40.58443241700297,,,,,,,,,,,,,,,,,,,,,,,,,,,,,,,sub-070,1,random_dot,,
left,left,2.0,0.0,1.0,left,1.0,1.3853892909974093,,,,,,1.0,0.0,2.0,0.0,,,,,,,,,40.594917292008176,,,,,,,,,40.584996834004414,40.919197541996255,41.72033354200539,41.71212862500397,41.71274370899482,41.72033354200539,41.72033354200539,41.72033354200539,43.11319462499523,left,1.0,1.3853892909974093,,43.11336954199942,43.12215391700738,43.61188462500286,43.61802908399841,,,,,,,,,,,,,,,,,,,,,,,,,,,,,,sub-070,1,random_dot,,
right,right,3.0,1.0,1.0,left,0.0,2.223513749006088,,,,,,1.0,1.0,3.0,1.0,,,,,,,,,43.61802908399841,,,,,,,,,43.61242950000451,44.4116737919976,45.20420329199988,45.19565574999433,45.19631537499663,45.20420329199988,45.20420329199988,45.20420329199988,47.42967112500628,left,0.0,2.223513749006088,,47.43318137500319,47.44170974999725,47.9290217920061,47.93492654200236,,,,,,,,,,,,,,,,,,,,,,,,,,,,,,sub-070,1,random_dot,,
right,right,4.0,0.0,2.0,left,0.0,2.4937303320039064,,,,,,2.0,0.0,4.0,1.0,,,,,,,,,47.93492654200236,,,,,,,,,47.92951475000882,48.028797624996514,48.82105741700798,48.8124108750053,48.8131056669954,48.82105741700798,48.82105741700798,48.82105741700798,51.32030066700827,left,0.0,2.4937303320039064,,51.320412250002846,51.32815008399484,51.812134292005794,51.8179699589964,,,,,,,,,,,,,,,,,,,,,,,,,,,,,,sub-070,1,random_dot,,
left,left,5.0,1.0,2.0,right,0.0,2.4180641659913817,,,,,,2.0,1.0,5.0,0.0,,,,,,,,,51.8179699589964,,,,,,,,,51.8126294590038,51.91839741700096,52.71161800000118,52.70172645899584,52.70232529200439,52.71161800000118,52.71161800000118,52.71161800000118,55.13622083399969,right,0.0,2.4180641659913817,,55.13637141700019,55.14439529199444,55.62902962500812,55.63491241700831,,,,,,,,,,,,,,,,,,,,,,,,,,,,,,sub-070,1,random_dot,,
right,right,6.0,0.0,3.0,right,1.0,5.810507624002639,,,,,,3.0,0.0,6.0,1.0,,,,,,,,,55.63491241700831,,,,,,,,,55.62950395900407,56.43529241699434,57.228375125007005,57.219027166996966,57.21963437499653,57.228375125007005,57.228375125007005,57.228375125007005,63.04729004199908,right,1.0,5.810507624002639,,63.051816084000166,63.06096258400066,63.54622562500299,63.55243845899531,62.212207792006666,,,,,,,,,,,,,,,,,,,,,,,,,,,,,sub-070,1,random_dot,,
left,left,7.0,1.0,3.0,right,0.0,1.8883291249949248,,,,,,3.0,1.0,7.0,0.0,,,,,,,,,63.55243845899531,,,,,,,,,63.54681066700141,63.64574537500448,64.43758787499974,64.42953204200603,64.43013154200162,64.43758787499974,64.43758787499974,64.43758787499974,66.33024054199632,right,0.0,1.8883291249949248,,66.33409204200143,66.34250804199837,66.82961308400263,66.83544708399859,,,,,,,,,,,,,,,,,,,,,,,,,,,,,,sub-070,1,random_dot,,
left,left,8.0,0.0,4.0,left,1.0,2.181656708009541,,,,,,4.0,0.0,8.0,0.0,,,,,,,,,66.83544708399859,,,,,,,,,66.83010129199829,66.92009283399966,67.72219441700145,67.71323300000222,67.71393791699666,67.72219441700145,67.72219441700145,67.72219441700145,69.91332091699587,left,1.0,2.181656708009541,,69.91672654199647,69.92499699999462,70.41286100000434,70.41862912500801,,,,,,,,,,,,,,,,,,,,,,,,,,,,,,sub-070,1,random_dot,,
right,right,9.0,1.0,4.0,left,0.0,1.9753268329950515,,,,,,4.0,1.0,9.0,1.0,,,,,,,,,70.41862912500801,,,,,,,,,70.41335008399619,70.50296054199862,71.29553649999434,71.28617945899896,71.28664770899923,71.29553649999434,71.29553649999434,71.29553649999434,73.28069245899678,left,0.0,1.9753268329950515,,73.2848003340041,73.2934927919996,73.77984099999594,73.7857528750028,,,,,,,,,,,,,,,,,,,,,,,,,,,,,,sub-070,1,random_dot,,
right,right,10.0,0.0,5.0,right,1.0,2.4252849579934264,,,,,,5.0,0.0,10.0,1.0,,,,,,,,,73.7857528750028,,,,,,,,,73.78045537500293,74.97943404200487,75.77160566700331,75.76311420899583,75.7637027919991,75.77160566700331,75.77160566700331,75.77160566700331,78.20448070899874,right,1.0,2.4252849579934264,,78.20800783400773,78.21743504199549,78.70253283399506,78.71308358400711,,,,,,,,,,,,,,,,,,,,,,,,,,,,,,sub-070,1,random_dot,,
left,left,11.0,1.0,5.0,right,0.0,2.703377790996456,,,,,,5.0,1.0,11.0,0.0,,,,,,,,,78.71308358400711,,,,,,,,,78.70309841699782,78.80411266699957,79.60570504200587,79.59689441700175,79.59759508400748,79.60570504200587,79.60570504200587,79.60570504200587,82.3137409589981,right,0.0,2.703377790996456,,82.31815725000342,82.32669975000317,82.81324891699478,82.8191209170036,,,,,,,,,,,,,,,,,,,,,,,,,,,,,,sub-070,1,random_dot,,
right,right,12.0,0.0,6.0,right,1.0,3.621198249005829,,,,,,6.0,0.0,12.0,1.0,,,,,,,,,82.8191209170036,,,,,,,,,82.81380137499946,83.15287849999731,83.94588837500487,83.93618408399925,83.93673775000207,83.94588837500487,83.94588837500487,83.94588837500487,87.57107933399675,right,1.0,3.621198249005829,,87.57504949999566,87.58421874999476,88.06978220900055,88.07970891700825,,,,,,,,,,,,,,,,,,,,,,,,,,,,,,sub-070,1,random_dot,,
left,left,13.0,1.0,6.0,left,1.0,2.488409290992422,,,,,,6.0,1.0,13.0,0.0,,,,,,,,,88.07970891700825,,,,,,,,,88.07032675000664,89.2705832500069,90.072722375,90.06371425000543,90.06442433400662,90.072722375,90.072722375,90.072722375,92.5642525840085,left,1.0,2.488409290992422,,92.56441704199824,92.57321570899512,93.06365691700194,93.06949587499548,,,,,,,,,,,,,,,,,,,,,,,,,,,,,,sub-070,1,random_dot,,
left,left,14.0,0.0,7.0,left,1.0,2.178197832996375,,,,,,7.0,0.0,14.0,0.0,,,,,,,,,93.06949587499548,,,,,,,,,93.06423654200626,94.25461466700654,95.05604512500577,95.04717987500771,95.04797154200789,95.05604512500577,95.05604512500577,95.05604512500577,97.23863970900128,left,1.0,2.178197832996375,,97.23877900000662,97.24666516699654,97.73058054200374,97.73646554199512,,,,,,,,,,,,,,,,,,,,,,,,,,,,,,sub-070,1,random_dot,,
right,right,15.0,1.0,7.0,right,1.0,2.840467375004664,,,,,,7.0,1.0,15.0,1.0,,,,,,,,,97.73646554199512,,,,,,,,,97.73109762500098,98.5379130000074,99.33877345900692,99.33063224999933,99.33121887499874,99.33877345900692,99.33877345900692,99.33877345900692,102.18098566700064,right,1.0,2.840467375004664,,102.1811245419958,102.18678466700658,102.6702944169956,102.68044170900248,,,,,,,,,,,,,,,,,,,,,,,,,,,,,,sub-070,1,random_dot,,
left,left,16.0,0.0,8.0,right,0.0,1.9617327080050015,,,,,,8.0,0.0,16.0,0.0,,,,,,,,,102.68044170900248,,,,,,,,,102.67076475000069,103.02064020899708,103.8225199169974,103.81411341700004,103.81471004200284,103.8225199169974,103.8225199169974,103.8225199169974,105.78788337500008,right,0.0,1.9617327080050015,,105.79118304200529,105.80162533400288,106.28656029200648,106.29720179199649,,,,,,,,,,,,,,,,,,,,,,,,,,,,,,sub-070,1,random_dot,,
right,right,17.0,1.0,8.0,right,1.0,2.9493462499958696,,,,,,8.0,1.0,17.0,1.0,,,,,,,,,106.29720179199649,,,,,,,,,106.28702241700375,107.08675104200664,107.87999124999624,107.8703611670062,107.87096275000658,107.87999124999624,107.87999124999624,107.87999124999624,110.83130737500323,right,1.0,2.9493462499958696,,110.8346955839952,110.84320429200308,111.33118449999893,111.33741558399925,,,,,,,,,,,,,,,,,,,,,,,,,,,,,,sub-070,1,random_dot,,
right,right,18.0,0.0,9.0,left,0.0,2.1672489990014583,,,,,,9.0,0.0,18.0,1.0,,,,,,,,,111.33741558399925,,,,,,,,,111.33174616700852,112.5218392090028,113.32304608399863,113.31454554200172,113.31513724999968,113.32304608399863,113.32304608399863,113.32304608399863,115.498150333995,left,0.0,2.1672489990014583,,115.5014670840028,115.50971441699949,115.99770683400855,116.00381245900644,,,,,,,,,,,,,,,,,,,,,,,,,,,,,,sub-070,1,random_dot,,
left,left,19.0,1.0,9.0,left,1.0,3.892918623998412,,,,,,9.0,1.0,19.0,0.0,,,,,,,,,116.00381245900644,,,,,,,,,115.9983016250044,117.1873664589948,117.98037795900018,117.97071824999875,117.971299249999,117.98037795900018,117.98037795900018,117.98037795900018,121.882148167002,left,1.0,3.892918623998412,,121.88678850000724,121.89551083400148,122.38136025000132,122.3896214999986,,,,,,,,,,,,,,,,,,,,,,,,,,,,,,sub-070,1,random_dot,,
,,,,,,,,,,,,,,,,,,,,,,,,,,,,,,,,,,,,,,,,,,,,,,,,,,,,122.38158629200188,122.3896214999986,122.3896214999986,128.03242512499855,space,5.634828416004893,,,,,,,,,,,,,,,,,,,,,,,sub-070,1,random_dot,,
,,,,,,,,,,,,,,,,,,,,,,,,,,,,,,,,,,,,,,,,,,,,,,,,,,,,,,,,,,,128.03252204200544,128.0430392499984,128.0430392499984,130.44946304200857,space,2.396405915991636,,,,,,,,,,,,,,,,sub-070,1,random_dot,,
right,right,0.0,0.0,0.0,right,1.0,2.9835856659919955,,accuracy,space,2.911226750002242,,,,,,0.0,0.0,0.0,0.0,0.0,0.0,0.0,1.0,133.41811379199498,,,,,,,,,133.40975858400634,133.49830966700392,134.29088904200762,134.28212791700207,134.2828346669994,134.29088904200762,134.29088904200762,134.29088904200762,137.28264741699968,,,,,,,,,,,,,,,,,,,,,,,,130.47424774999672,130.48333016700053,130.48333016700053,133.39974733399868,space,2.911226750002242,,right,1.0,2.9835856659919955,,,,,sub-070,1,random_dot,,
left,left,1.0,1.0,0.0,right,0.0,4.745572291009012,,accuracy,space,2.911226750002242,,,,,,0.0,0.0,0.0,0.0,0.0,1.0,1.0,0.0,137.2904472920054,,,,,,,,,137.28304833400762,138.07306275000155,138.87401404199773,138.8652069590025,138.86588520900114,138.87401404199773,138.87401404199773,138.87401404199773,143.623192250001,,,,,,,,,,,,,,,,,,,,,,,,,,,,,,,right,0.0,4.745572291009012,,,,,sub-070,1,random_dot,,
right,right,2.0,0.0,1.0,right,1.0,1.5118914159975247,,accuracy,space,2.911226750002242,,,,,,0.0,0.0,0.0,0.0,1.0,0.0,2.0,1.0,143.63095187500585,,,,,,,,,143.62368279200746,143.72161808400415,144.51462933400762,144.50491166699794,144.50547191700025,144.51462933400762,144.51462933400762,144.51462933400762,146.03264183399733,,,,,,,,,,,,,,,,,,,,,,,,,,,,,,,right,1.0,1.5118914159975247,,,,,sub-070,1,random_dot,,
left,left,3.0,1.0,1.0,left,1.0,2.8409771239967085,,accuracy,space,2.911226750002242,,,,,,0.0,0.0,0.0,0.0,1.0,1.0,3.0,0.0,146.04087195900502,,,,,,,,,146.03312358399853,147.22186508400773,148.01481654199597,148.00530270900344,148.00589370900707,148.01481654199597,148.01481654199597,148.01481654199597,150.8667790000036,,,,,,,,,,,,,,,,,,,,,,,,,,,,,,,left,1.0,2.8409771239967085,,,,,sub-070,1,random_dot,,
left,left,4.0,0.0,2.0,left,1.0,3.258370332987397,,accuracy,space,2.911226750002242,,,,,,0.0,0.0,0.0,0.0,2.0,0.0,4.0,0.0,150.87588712500292,,,,,,,,,150.8674275000085,152.0652307499986,152.8582492919959,152.84921254200162,152.84987641700718,152.8582492919959,152.8582492919959,152.8582492919959,156.12371729200822,,,,,,,,,,,,,,,,,,,,,,,,,,,,,,,left,1.0,3.258370332987397,,,,,sub-070,1,random_dot,,
right,right,5.0,1.0,2.0,right,1.0,2.2469429570046486,,accuracy,space,2.911226750002242,,,,,,0.0,0.0,0.0,0.0,2.0,1.0,5.0,1.0,156.13191604199528,,,,,,,,,156.12427145900438,157.33295116700174,158.1227357089956,158.1159922920051,158.11639933400147,158.1227357089956,158.1227357089956,158.1227357089956,160.37343308400887,,,,,,,,,,,,,,,,,,,,,,,,,,,,,,,right,1.0,2.2469429570046486,,,,,sub-070,1,random_dot,,
right,right,6.0,0.0,3.0,right,1.0,5.605263707999256,,accuracy,space,2.911226750002242,,,,,,0.0,0.0,0.0,0.0,3.0,0.0,6.0,1.0,160.38147137500346,,,,,,,,,160.37394987500738,160.47363637499802,161.27451712499897,161.26632683399657,161.26690820899967,161.27451712499897,161.27451712499897,161.27451712499897,166.88380158400105,,,,,,,,,166.25421495900082,,,,,,,,,,,,,,,,,,,,,,right,1.0,5.605263707999256,,,,,sub-070,1,random_dot,,
left,left,7.0,1.0,3.0,left,1.0,2.186700582009508,,accuracy,space,2.911226750002242,,,,,,0.0,0.0,0.0,0.0,3.0,1.0,7.0,0.0,166.89349883400428,,,,,,,,,166.88442954199854,167.6739105000015,168.47423350000463,168.46632316699834,168.46687795899925,168.47423350000463,168.47423350000463,168.47423350000463,170.6670317090029,,,,,,,,,,,,,,,,,,,,,,,,,,,,,,,left,1.0,2.186700582009508,,,,,sub-070,1,random_dot,,
right,right,8.0,0.0,4.0,right,1.0,2.6228320409863954,,accuracy,space,2.911226750002242,,,,,,0.0,0.0,0.0,0.0,4.0,0.0,8.0,1.0,170.67536708399712,,,,,,,,,170.66753883400816,171.45608124999853,172.24805525000556,172.23965816700365,172.24028149999504,172.24805525000556,172.24805525000556,172.24805525000556,174.87419033399783,,,,,,,,,,,,,,,,,,,,,,,,,,,,,,,right,1.0,2.6228320409863954,,,,,sub-070,1,random_dot,,
left,left,9.0,1.0,4.0,right,0.0,1.964370665999013,,accuracy,space,2.911226750002242,,,,,,0.0,0.0,0.0,0.0,4.0,1.0,9.0,0.0,174.88250024999434,,,,,,,,,174.87468200000876,175.22406770900125,176.02458566700807,176.01651841700368,176.0170258750004,176.02458566700807,176.02458566700807,176.02458566700807,178.00046412499796,,,,,,,,,,,,,,,,,,,,,,,,,,,,,,,right,0.0,1.964370665999013,,,,,sub-070,1,random_dot,,
left,left,10.0,0.0,5.0,left,1.0,1.8584453740040767,,accuracy,space,2.911226750002242,,,,,,0.0,0.0,0.0,0.0,5.0,0.0,10.0,0.0,178.0049291250034,,,,,,,,,178.00090154200734,178.78960162500152,179.58243491699977,179.57249129199772,179.57305554200138,179.58243491699977,179.58243491699977,179.58243491699977,181.45046950000688,,,,,,,,,,,,,,,,,,,,,,,,,,,,,,,left,1.0,1.8584453740040767,,,,,sub-070,1,random_dot,,
right,right,11.0,1.0,5.0,right,1.0,3.4364968739973847,,accuracy,space,2.911226750002242,,,,,,0.0,0.0,0.0,0.0,5.0,1.0,11.0,1.0,181.4584364589973,,,,,,,,,181.4509670420084,181.5396268339973,182.33252266699856,182.32302079199872,182.3236346670019,182.33252266699856,182.33252266699856,182.33252266699856,185.7741812919994,,,,,,,,,,,,,,,,,,,,,,,,,,,,,,,right,1.0,3.4364968739973847,,,,,sub-070,1,random_dot,,
left,left,12.0,0.0,6.0,right,0.0,2.9602202490059426,,accuracy,space,2.911226750002242,,,,,,0.0,0.0,0.0,0.0,6.0,0.0,12.0,0.0,185.7824867500021,,,,,,,,,185.7746798750013,186.9741046249983,187.77580683400447,187.76685783399444,187.7674065839965,187.77580683400447,187.77580683400447,187.77580683400447,190.74118916700536,,,,,,,,,,,,,,,,,,,,,,,,,,,,,,,right,0.0,2.9602202490059426,,,,,sub-070,1,random_dot,,
right,right,13.0,1.0,6.0,left,0.0,2.4449857069994323,,accuracy,space,2.911226750002242,,,,,,0.0,0.0,0.0,0.0,6.0,1.0,13.0,1.0,190.7490187920048,,,,,,,,,190.74169308399723,191.94079333399716,192.7420901669975,192.733851625002,192.7344146670075,192.7420901669975,192.7420901669975,192.7420901669975,195.1911628749949,,,,,,,,,,,,,,,,,,,,,,,,,,,,,,,left,0.0,2.4449857069994323,,,,,sub-070,1,random_dot,,
right,right,14.0,0.0,7.0,left,0.0,2.8929774159914814,,accuracy,space,2.911226750002242,,,,,,0.0,0.0,0.0,0.0,7.0,0.0,14.0,1.0,195.19955383399792,,,,,,,,,195.19167633399772,195.9899080000032,196.7830236669979,196.7734219999984,196.7740002089995,196.7830236669979,196.7830236669979,196.7830236669979,199.684351917007,,,,,,,,,,,,,,,,,,,,,,,,,,,,,,,left,0.0,2.8929774159914814,,,,,sub-070,1,random_dot,,
left,left,15.0,1.0,7.0,left,1.0,3.532285374996718,,accuracy,space,2.911226750002242,,,,,,0.0,0.0,0.0,0.0,7.0,1.0,15.0,0.0,199.6924327089946,,,,,,,,,199.684864750001,199.7735742090008,200.56582608399916,200.55680083400512,200.5574633340002,200.56582608399916,200.56582608399916,200.56582608399916,204.1013364590035,,,,,,,,,,,,,,,,,,,,,,,,,,,,,,,left,1.0,3.532285374996718,,,,,sub-070,1,random_dot,,
right,right,16.0,0.0,8.0,right,1.0,2.8835343750106404,,accuracy,space,2.911226750002242,,,,,,0.0,0.0,0.0,0.0,8.0,0.0,16.0,1.0,204.11036079200855,,,,,,,,,204.10186095899556,204.8916029170068,205.69249358400705,205.6842977089982,205.68486541700256,205.69249358400705,205.69249358400705,205.69249358400705,208.58530708399485,,,,,,,,,,,,,,,,,,,,,,,,,,,,,,,right,1.0,2.8835343750106404,,,,,sub-070,1,random_dot,,
left,left,17.0,1.0,8.0,left,1.0,1.848617623996688,,accuracy,space,2.911226750002242,,,,,,0.0,0.0,0.0,0.0,8.0,1.0,17.0,0.0,208.5940656669991,,,,,,,,,208.58589416700124,209.3840712920064,210.17657208400487,210.16774212500604,210.16839375000563,210.17657208400487,210.17657208400487,210.17657208400487,212.03493554200395,,,,,,,,,,,,,,,,,,,,,,,,,,,,,,,left,1.0,1.848617623996688,,,,,sub-070,1,random_dot,,
right,right,18.0,0.0,9.0,left,0.0,3.7103567909944095,,accuracy,space,2.911226750002242,,,,,,0.0,0.0,0.0,0.0,9.0,0.0,18.0,1.0,212.04288679199817,,,,,,,,,212.03542637500504,212.82535654200183,213.6258809590072,213.6178300419997,213.61839266700557,213.6258809590072,213.6258809590072,213.6258809590072,217.3430507919984,,,,,,,,,,,,,,,,,,,,,,,,,,,,,,,left,0.0,3.7103567909944095,,,,,sub-070,1,random_dot,,
left,left,19.0,1.0,9.0,left,1.0,3.505053082000813,,accuracy,space,2.911226750002242,,,,,,0.0,0.0,0.0,0.0,9.0,1.0,19.0,0.0,217.36735866700477,,,,,,,,,217.34354629200243,217.6909706250008,218.4841371250077,218.47460379199765,218.47522983400268,218.4841371250077,218.4841371250077,218.4841371250077,221.9919132089999,,,,,,,,,,,,,,,,,,,,,,,,,,,,,,,left,1.0,3.505053082000813,,,,,sub-070,1,random_dot,,
left,left,20.0,0.0,10.0,right,0.0,2.001212040995597,,accuracy,space,2.911226750002242,,,,,,0.0,0.0,0.0,0.0,10.0,0.0,20.0,0.0,222.00079845900476,,,,,,,,,221.99240941699827,222.3407165420067,223.13396566700249,223.1238882500038,223.1245928340068,223.13396566700249,223.13396566700249,223.13396566700249,225.14253712500795,,,,,,,,,,,,,,,,,,,,,,,,,,,,,,,right,0.0,2.001212040995597,,,,,sub-070,1,random_dot,,
right,right,21.0,1.0,10.0,left,0.0,2.712290915995254,,accuracy,space,2.911226750002242,,,,,,0.0,0.0,0.0,0.0,10.0,1.0,21.0,1.0,225.1505313749949,,,,,,,,,225.14302508400576,225.49294066699804,226.29306374999575,226.28497300000163,226.28550100000572,226.29306374999575,226.29306374999575,226.29306374999575,229.009370084008,,,,,,,,,,,,,,,,,,,,,,,,,,,,,,,left,0.0,2.712290915995254,,,,,sub-070,1,random_dot,,
right,right,22.0,0.0,11.0,left,0.0,2.775094040989643,,accuracy,space,2.911226750002242,,,,,,0.0,0.0,0.0,0.0,11.0,0.0,22.0,1.0,229.01739666699723,,,,,,,,,229.0098781669949,229.8094896249968,230.61034087500596,230.60180079200651,230.60236274999625,230.61034087500596,230.61034087500596,230.61034087500596,233.39232166700825,,,,,,,,,,,,,,,,,,,,,,,,,,,,,,,left,0.0,2.775094040989643,,,,,sub-070,1,random_dot,,
left,left,23.0,1.0,11.0,right,0.0,2.694905041003949,,accuracy,space,2.911226750002242,,,,,,0.0,0.0,0.0,0.0,11.0,1.0,23.0,0.0,233.40068704199803,,,,,,,,,233.39285308400576,234.19210491700505,234.9934258340072,234.98514600000635,234.985697666998,234.9934258340072,234.9934258340072,234.9934258340072,237.69271674999615,,,,,,,,,,,,,,,,,,,,,,,,,,,,,,,right,0.0,2.694905041003949,,,,,sub-070,1,random_dot,,
left,left,24.0,0.0,12.0,right,0.0,2.3488535409996985,,accuracy,space,2.911226750002242,,,,,,0.0,0.0,0.0,0.0,12.0,0.0,24.0,0.0,237.7005381670024,,,,,,,,,237.69324074999892,238.49284587500733,239.2937409169972,239.28519137500552,239.2858639170008,239.2937409169972,239.2937409169972,239.2937409169972,241.6525834170025,,,,,,,,,,,,,,,,,,,,,,,,,,,,,,,right,0.0,2.3488535409996985,,,,,sub-070,1,random_dot,,
right,right,25.0,1.0,12.0,left,0.0,4.164210874994751,,accuracy,space,2.911226750002242,,,,,,0.0,0.0,0.0,0.0,12.0,1.0,25.0,1.0,241.6607034589979,,,,,,,,,241.6530753749976,242.84311512499696,243.6442894170032,243.63559979200363,243.6362602500012,243.6442894170032,243.6442894170032,243.6442894170032,247.8108030000003,,,,,,,,,,,,,,,,,,,,,,,,,,,,,,,left,0.0,4.164210874994751,,,,,sub-070,1,random_dot,,
right,right,26.0,0.0,13.0,left,0.0,4.30314154100779,,accuracy,space,2.911226750002242,,,,,,0.0,0.0,0.0,0.0,13.0,0.0,26.0,1.0,247.8350977920054,,,,,,,,,247.81131299999836,248.15840875000868,248.95146837500212,248.9411289999989,248.9416985840071,248.95146837500212,248.95146837500212,248.95146837500212,253.26035687500556,,,,,,,,,,,,,,,,,,,,,,,,,,,,,,,left,0.0,4.30314154100779,,,,,sub-070,1,random_dot,,
left,left,27.0,1.0,13.0,right,0.0,1.9148822909919545,,accuracy,space,2.911226750002242,,,,,,0.0,0.0,0.0,0.0,13.0,1.0,27.0,0.0,253.2689685840014,,,,,,,,,253.26085750000493,253.6101313340041,254.4108135419956,254.402563584008,254.40315345900308,254.4108135419956,254.4108135419956,254.4108135419956,256.3271110420028,,,,,,,,,,,,,,,,,,,,,,,,,,,,,,,right,0.0,1.9148822909919545,,,,,sub-070,1,random_dot,,
left,left,28.0,0.0,14.0,right,0.0,3.6811746250023134,,accuracy,space,2.911226750002242,,,,,,0.0,0.0,0.0,0.0,14.0,0.0,28.0,0.0,256.33526737500506,,,,,,,,,256.32760629200493,256.6757287090004,257.46837575000245,257.4587612089963,257.4593520000053,257.46837575000245,257.46837575000245,257.46837575000245,261.153344499995,,,,,,,,,,,,,,,,,,,,,,,,,,,,,,,right,0.0,3.6811746250023134,,,,,sub-070,1,random_dot,,
right,right,29.0,1.0,14.0,left,0.0,3.486581707009464,,accuracy,space,2.911226750002242,,,,,,0.0,0.0,0.0,0.0,14.0,1.0,29.0,1.0,261.16240837500663,,,,,,,,,261.1538956669974,261.2432010420016,262.04423850000603,262.03591295900696,262.0364591670077,262.04423850000603,262.04423850000603,262.04423850000603,265.53682333399775,,,,,,,,,,,,,,,,,,,,,,,,,,,,,,,left,0.0,3.486581707009464,,,,,sub-070,1,random_dot,,
right,right,30.0,0.0,15.0,left,0.0,4.288963708007941,,accuracy,space,2.911226750002242,,,,,,0.0,0.0,0.0,0.0,15.0,0.0,30.0,1.0,265.5451165840059,,,,,,,,,265.53732016700087,266.3260793750087,267.1187428340054,267.10914991699974,267.1097500839969,267.1187428340054,267.1187428340054,267.1187428340054,271.41080075000355,,,,,,,,,,,,,,,,,,,,,,,,,,,,,,,left,0.0,4.288963708007941,,,,,sub-070,1,random_dot,,
left,left,31.0,1.0,15.0,right,0.0,2.635614124010317,,accuracy,space,2.911226750002242,,,,,,0.0,0.0,0.0,0.0,15.0,1.0,31.0,0.0,271.4186593750055,,,,,,,,,271.4112883750058,271.7596069590072,272.5522645000019,272.54235841700574,272.542962749998,272.5522645000019,272.5522645000019,272.5522645000019,275.1942451670038,,,,,,,,,,,,,,,,,,,,,,,,,,,,,,,right,0.0,2.635614124010317,,,,,sub-070,1,random_dot,,
right,right,32.0,0.0,16.0,right,1.0,4.525066248999792,,accuracy,space,2.911226750002242,,,,,,0.0,0.0,0.0,0.0,16.0,0.0,32.0,1.0,275.202328667001,,,,,,,,,275.19475741700444,275.99404704199696,276.7947600000043,276.7865211669996,276.7871181250084,276.7947600000043,276.7947600000043,276.7947600000043,281.3278930840024,,,,,,,,,,,,,,,,,,,,,,,,,,,,,,,right,1.0,4.525066248999792,,,,,sub-070,1,random_dot,,
left,left,33.0,1.0,16.0,left,1.0,2.7027170410001418,,accuracy,space,2.911226750002242,,,,,,0.0,0.0,0.0,0.0,16.0,1.0,33.0,0.0,281.3358616250043,,,,,,,,,281.3284030000068,281.42735237500165,282.2290515420027,282.22035770899674,282.2209047920041,282.2290515420027,282.2290515420027,282.2290515420027,284.9372565000085,,,,,,,,,,,,,,,,,,,,,,,,,,,,,,,left,1.0,2.7027170410001418,,,,,sub-070,1,random_dot,,
right,right,34.0,0.0,17.0,left,0.0,2.16723229100171,,accuracy,space,2.911226750002242,,,,,,0.0,0.0,0.0,0.0,17.0,0.0,34.0,1.0,284.9456297919969,,,,,,,,,284.93773941700056,285.2773916669976,286.0785097920016,286.0702964999946,286.07086691699806,286.0785097920016,286.0785097920016,286.0785097920016,288.254232834006,,,,,,,,,,,,,,,,,,,,,,,,,,,,,,,left,0.0,2.16723229100171,,,,,sub-070,1,random_dot,,
left,left,35.0,1.0,17.0,left,1.0,2.8860162909986684,,accuracy,space,2.911226750002242,,,,,,0.0,0.0,0.0,0.0,17.0,1.0,35.0,0.0,288.2620805839979,,,,,,,,,288.25462033400254,288.59320587500406,289.3958970840031,289.3871572920034,289.3878519169957,289.3958970840031,289.3958970840031,289.3958970840031,292.28771816700464,,,,,,,,,,,,,,,,,,,,,,,,,,,,,,,left,1.0,2.8860162909986684,,,,,sub-070,1,random_dot,,
left,left,36.0,0.0,18.0,left,1.0,3.2755840820027515,,accuracy,space,2.911226750002242,,,,,,0.0,0.0,0.0,0.0,18.0,0.0,36.0,0.0,292.2958594999945,,,,,,,,,292.28820262500085,292.6281165420078,293.42926845900365,293.420655791997,293.4213650839956,293.42926845900365,293.42926845900365,293.42926845900365,296.71187016699696,,,,,,,,,,,,,,,,,,,,,,,,,,,,,,,left,1.0,3.2755840820027515,,,,,sub-070,1,random_dot,,
right,right,37.0,1.0,18.0,right,1.0,2.0387367500079563,,accuracy,space,2.911226750002242,,,,,,0.0,0.0,0.0,0.0,18.0,1.0,37.0,1.0,296.71979775000364,,,,,,,,,296.71236354199937,296.8111712920072,297.6122921250062,297.604037416997,297.6046151250048,297.6122921250062,297.6122921250062,297.6122921250062,299.65465050000057,,,,,,,,,,,,,,,,,,,,,,,,,,,,,,,right,1.0,2.0387367500079563,,,,,sub-070,1,random_dot,,
left,left,38.0,0.0,19.0,right,0.0,2.520610748993932,,accuracy,space,2.911226750002242,,,,,,0.0,0.0,0.0,0.0,19.0,0.0,38.0,0.0,299.6602213340084,,,,,,,,,299.65511833400524,300.44492166700365,301.24553070899856,301.2373607920017,301.23793970899715,301.24553070899856,301.24553070899856,301.24553070899856,303.7710702089971,,,,,,,,,,,,,,,,,,,,,,,,,,,,,,,right,0.0,2.520610748993932,,,,,sub-070,1,random_dot,,
right,right,39.0,1.0,19.0,left,0.0,2.343527624005219,,accuracy,space,2.911226750002242,,,,,,0.0,0.0,0.0,0.0,19.0,1.0,39.0,1.0,303.77664954200736,,,,,,,,,303.7715669169993,304.5618418340018,305.36252774999593,305.3542730839981,305.3548520839977,305.36252774999593,305.36252774999593,305.36252774999593,307.71225729200523,,,,,,,,,,,,,,,,,,,,,,,,,,,,,,,left,0.0,2.343527624005219,,,,,sub-070,1,random_dot,,
right,right,40.0,0.0,20.0,left,0.0,3.752685874991585,,accuracy,space,2.911226750002242,,,,,,0.0,0.0,0.0,0.0,20.0,0.0,40.0,1.0,307.72088679199805,,,,,,,,,307.7127484590019,307.8110347500042,308.6034670420049,308.59374987499905,308.59433400000853,308.6034670420049,308.6034670420049,308.6034670420049,312.3619861670013,,,,,,,,,,,,,,,,,,,,,,,,,,,,,,,left,0.0,3.752685874991585,,,,,sub-070,1,random_dot,,
left,left,41.0,1.0,20.0,left,1.0,3.085652249006671,,accuracy,space,2.911226750002242,,,,,,0.0,0.0,0.0,0.0,20.0,1.0,41.0,0.0,312.36995570900035,,,,,,,,,312.36248941700615,312.4616437500081,313.26279616700776,313.25456625000515,313.2551196249988,313.26279616700776,313.26279616700776,313.26279616700776,316.3548842500022,,,,,,,,,,,,,,,,,,,,,,,,,,,,,,,left,1.0,3.085652249006671,,,,,sub-070,1,random_dot,,
right,right,42.0,0.0,21.0,right,1.0,3.2104742910014465,,accuracy,space,2.911226750002242,,,,,,0.0,0.0,0.0,0.0,21.0,0.0,42.0,1.0,316.36295475000225,,,,,,,,,316.35537295900576,317.1456227500021,317.946812958995,317.93783170900133,317.93840083399846,317.946812958995,317.946812958995,317.946812958995,321.1618370000069,,,,,,,,,,,,,,,,,,,,,,,,,,,,,,,right,1.0,3.2104742910014465,,,,,sub-070,1,random_dot,,
left,left,43.0,1.0,21.0,right,0.0,2.027001415990526,,accuracy,space,2.911226750002242,,,,,,0.0,0.0,0.0,0.0,21.0,1.0,43.0,0.0,321.1700012090005,,,,,,,,,321.1623211670085,321.96244541699707,322.76321829200606,322.75480816699564,322.7553827500087,322.76321829200606,322.76321829200606,322.76321829200606,324.7959684170055,,,,,,,,,,,,,,,,,,,,,,,,,,,,,,,right,0.0,2.027001415990526,,,,,sub-070,1,random_dot,,
left,left,44.0,0.0,22.0,right,0.0,2.495850291001261,,accuracy,space,2.911226750002242,,,,,,0.0,0.0,0.0,0.0,22.0,0.0,44.0,0.0,324.803910083996,,,,,,,,,324.7964483340038,325.59577620899654,326.396533334002,326.388347250002,326.3889197920071,326.396533334002,326.396533334002,326.396533334002,328.89517120900564,,,,,,,,,,,,,,,,,,,,,,,,,,,,,,,right,0.0,2.495850291001261,,,,,sub-070,1,random_dot,,
right,right,45.0,1.0,22.0,left,0.0,4.304447791000712,,accuracy,space,2.911226750002242,,,,,,0.0,0.0,0.0,0.0,22.0,1.0,45.0,1.0,328.90446266700746,,,,,,,,,328.8955565840006,329.2461222919956,330.04680591699434,330.0385470420006,330.039106917,330.04680591699434,330.04680591699434,330.04680591699434,334.3556917090027,,,,,,,,,,,,,,,,,,,,,,,,,,,,,,,left,0.0,4.304447791000712,,,,,sub-070,1,random_dot,,
left,left,46.0,0.0,23.0,right,0.0,1.6473156660067616,,accuracy,space,2.911226750002242,,,,,,0.0,0.0,0.0,0.0,23.0,0.0,46.0,0.0,334.36438704200555,,,,,,,,,334.3562963340082,334.4446613339969,335.2379460000084,335.2284916250064,335.2290757090086,335.2379460000084,335.2379460000084,335.2379460000084,336.889089874996,,,,,,,,,,,,,,,,,,,,,,,,,,,,,,,right,0.0,1.6473156660067616,,,,,sub-070,1,random_dot,,
right,right,47.0,1.0,23.0,left,0.0,2.7941302910039667,,accuracy,space,2.911226750002242,,,,,,0.0,0.0,0.0,0.0,23.0,1.0,47.0,1.0,336.8943178339978,,,,,,,,,336.8895769170049,338.07923575000314,338.8802732089971,338.8720639999956,338.872649500001,338.8802732089971,338.8802732089971,338.8802732089971,341.68009570900176,,,,,,,,,,,,,,,,,,,,,,,,,,,,,,,left,0.0,2.7941302910039667,,,,,sub-070,1,random_dot,,
left,left,48.0,0.0,24.0,right,0.0,1.5543714579980588,,accuracy,space,2.911226750002242,,,,,,0.0,0.0,0.0,0.0,24.0,0.0,48.0,0.0,341.687850125003,,,,,,,,,341.6805765839963,342.47988412500126,343.28122054200503,343.2723355420021,343.2730051670078,343.28122054200503,343.28122054200503,343.28122054200503,344.83944416699524,,,,,,,,,,,,,,,,,,,,,,,,,,,,,,,right,0.0,1.5543714579980588,,,,,sub-070,1,random_dot,,
right,right,49.0,1.0,24.0,left,0.0,1.517586998990737,,accuracy,space,2.911226750002242,,,,,,0.0,0.0,0.0,0.0,24.0,1.0,49.0,1.0,344.84500512499653,,,,,,,,,344.8399370420084,345.1796324589959,345.980946124997,345.9721479169966,345.972810709005,345.980946124997,345.980946124997,345.980946124997,347.5062076670001,,,,,,,,,,,,,,,,,,,,,,,,,,,,,,,left,0.0,1.517586998990737,,,,,sub-070,1,random_dot,,
right,right,50.0,0.0,25.0,right,1.0,4.121200124005554,,accuracy,space,2.911226750002242,,,,,,0.0,0.0,0.0,0.0,25.0,0.0,50.0,1.0,347.5154791249952,,,,,,,,,347.50677137500315,348.6963680839981,349.4973036250012,349.48907287500333,349.4896536669985,349.4973036250012,349.4973036250012,349.4973036250012,353.6228431250056,,,,,,,,,,,,,,,,,,,,,,,,,,,,,,,right,1.0,4.121200124005554,,,,,sub-070,1,random_dot,,
left,left,51.0,1.0,25.0,right,0.0,2.932484165998176,,accuracy,space,2.911226750002242,,,,,,0.0,0.0,0.0,0.0,25.0,1.0,51.0,0.0,353.6284440419986,,,,,,,,,353.62332579199574,353.96228554200206,354.7550736249977,354.7455042500078,354.74608683399856,354.7550736249977,354.7550736249977,354.7550736249977,357.6899572499969,,,,,,,,,,,,,,,,,,,,,,,,,,,,,,,right,0.0,2.932484165998176,,,,,sub-070,1,random_dot,,
right,right,52.0,0.0,26.0,left,0.0,3.1247706659924006,,accuracy,space,2.911226750002242,,,,,,0.0,0.0,0.0,0.0,26.0,0.0,52.0,1.0,357.69897758400475,,,,,,,,,357.69050837500254,357.7789683750016,358.5718207500031,358.5619719170063,358.56252833400504,358.5718207500031,358.5718207500031,358.5718207500031,361.7069107499992,,,,,,,,,,,,,,,,,,,,,,,,,,,,,,,left,0.0,3.1247706659924006,,,,,sub-070,1,random_dot,,
left,left,53.0,1.0,26.0,right,0.0,2.70395479099534,,accuracy,space,2.911226750002242,,,,,,0.0,0.0,0.0,0.0,26.0,1.0,53.0,0.0,361.7156227920059,,,,,,,,,361.7076372090087,362.9057175420021,363.69779366700095,363.6896282499947,363.6901999999973,363.69779366700095,363.69779366700095,363.69779366700095,366.40668733400526,,,,,,,,,,,,,,,,,,,,,,,,,,,,,,,right,0.0,2.70395479099534,,,,,sub-070,1,random_dot,,
right,right,54.0,0.0,27.0,left,0.0,4.712663999001961,,accuracy,space,2.911226750002242,,,,,,0.0,0.0,0.0,0.0,27.0,0.0,54.0,1.0,366.4119139590039,,,,,,,,,366.4071680839989,366.7468161669967,367.54802595899673,367.5398049590003,367.5403893339972,367.54802595899673,367.54802595899673,367.54802595899673,372.2641843750025,,,,,,,,,,,,,,,,,,,,,,,,,,,,,,,left,0.0,4.712663999001961,,,,,sub-070,1,random_dot,,
left,left,55.0,1.0,27.0,right,0.0,2.2658305410004687,,accuracy,space,2.911226750002242,,,,,,0.0,0.0,0.0,0.0,27.0,1.0,55.0,0.0,372.2721423339972,,,,,,,,,372.2646717500029,372.6138919590012,373.4148506670026,373.4065944169997,373.40717129199766,373.4148506670026,373.4148506670026,373.4148506670026,375.69058183400193,,,,,,,,,,,,,,,,,,,,,,,,,,,,,,,right,0.0,2.2658305410004687,,,,,sub-070,1,random_dot,,
left,left,56.0,0.0,28.0,left,1.0,3.151118041001609,,accuracy,space,2.911226750002242,,,,,,0.0,0.0,0.0,0.0,28.0,0.0,56.0,0.0,375.6991353339981,,,,,,,,,375.6910660840076,376.0299080420082,376.83156083400536,376.82334637500753,376.8239192500041,376.83156083400536,376.83156083400536,376.83156083400536,379.99064366699895,,,,,,,,,,,,,,,,,,,,,,,,,,,,,,,left,1.0,3.151118041001609,,,,,sub-070,1,random_dot,,
right,right,57.0,1.0,28.0,left,0.0,2.7484134159894893,,accuracy,space,2.911226750002242,,,,,,0.0,0.0,0.0,0.0,28.0,1.0,57.0,1.0,379.998225000003,,,,,,,,,379.9910232920083,380.3313579590031,381.1315154589975,381.1231552920072,381.1237195840076,381.1315154589975,381.1315154589975,381.1315154589975,383.8910478339967,,,,,,,,,,,,,,,,,,,,,,,,,,,,,,,left,0.0,2.7484134159894893,,,,,sub-070,1,random_dot,,
right,right,58.0,0.0,29.0,right,1.0,3.186910791002447,,accuracy,space,2.911226750002242,,,,,,0.0,0.0,0.0,0.0,29.0,0.0,58.0,1.0,383.8999323750031,,,,,,,,,383.8915973340045,384.68114812500426,385.48199491700507,385.4734834170085,385.47414091699466,385.48199491700507,385.48199491700507,385.48199491700507,388.6740614589944,,,,,,,,,,,,,,,,,,,,,,,,,,,,,,,right,1.0,3.186910791002447,,,,,sub-070,1,random_dot,,
left,left,59.0,1.0,29.0,left,1.0,4.201582583002164,,accuracy,space,2.911226750002242,,,,,,0.0,0.0,0.0,0.0,29.0,1.0,59.0,0.0,388.6824142090045,,,,,,,,,388.6745321670023,388.76430779200746,389.5653354170063,389.557044000001,389.5576174589951,389.5653354170063,389.5653354170063,389.5653354170063,393.77439633400354,,,,,,,,,,,,,,,,,,,,,,,,,,,,,,,left,1.0,4.201582583002164,,,,,sub-070,1,random_dot,,
,,0.0,0.0,0.0,,,,,accuracy,space,2.911226750002242,,,,,,0.0,0.0,0.0,0.0,,,,,,,,,,,,,,,,,,,,,,,,,,,,,,,,,,,,,,,,,,,,,,,,,,,,,,,,,,,,sub-070,1,random_dot,,
right,right,0.0,0.0,0.0,left,0.0,0.8347830819984665,,speed,space,14.446082124995884,,,,,,0.0,1.0,1.0,1.0,0.0,0.0,0.0,1.0,408.2675975419989,,,,,,,,,408.2586702090048,408.3475827500079,409.1498084589985,409.14130954199936,409.1419172089954,409.1498084589985,409.1498084589985,409.1498084589985,409.9916443749971,,,,,,,,,,,,,,,,,,,,,,,,393.7920052499976,393.7995259589952,393.7995259589952,408.2483610420022,space,14.446082124995884,,left,0.0,0.8347830819984665,,,,,sub-070,1,random_dot,,
left,left,1.0,1.0,0.0,left,1.0,1.474842498995713,,speed,space,14.446082124995884,,,,,,0.0,1.0,1.0,1.0,0.0,1.0,1.0,0.0,410.0001726670016,,,,,,,,,409.9921277090034,410.0816300419974,410.8827342919976,410.87431866700354,410.87484337500064,410.8827342919976,410.8827342919976,410.8827342919976,412.36491420899983,,,,,,,,,,,,,,,,,,,,,,,,,,,,,,,left,1.0,1.474842498995713,,,,,sub-070,1,random_dot,,
left,left,2.0,0.0,1.0,right,0.0,1.2589730829931796,,speed,space,14.446082124995884,,,,,,0.0,1.0,1.0,1.0,1.0,0.0,2.0,0.0,412.3728312089952,,,,,,,,,412.3654065839946,412.7158353749983,413.5165377090016,413.5079133340041,413.5085776670021,413.5165377090016,413.5165377090016,413.5165377090016,414.7823960420064,,,,,,,,,,,,,,,,,,,,,,,,,,,,,,,right,0.0,1.2589730829931796,,,,,sub-070,1,random_dot,,
right,right,3.0,1.0,1.0,right,1.0,1.4093192909931531,,speed,space,14.446082124995884,,,,,,0.0,1.0,1.0,1.0,1.0,1.0,3.0,1.0,414.7903325420048,,,,,,,,,414.7828717090015,415.5817992920056,416.383289874997,416.3745956670027,416.3752700420009,416.383289874997,416.383289874997,416.383289874997,417.7988861250051,,,,,,,,,,,,,,,,,,,,,,,,,,,,,,,right,1.0,1.4093192909931531,,,,,sub-070,1,random_dot,,
right,right,4.0,0.0,2.0,right,1.0,1.6189603740058374,,speed,space,14.446082124995884,,,,,,0.0,1.0,1.0,1.0,2.0,0.0,4.0,1.0,417.8071345000062,,,,,,,,,417.7993829170009,418.99891112500336,419.7997529999993,419.79152891700505,419.7920967920072,419.7997529999993,419.7997529999993,419.7997529999993,421.4253577089985,,,,,,,,,,,,,,,,,,,,,,,,,,,,,,,right,1.0,1.6189603740058374,,,,,sub-070,1,random_dot,,
left,left,5.0,1.0,2.0,right,0.0,2.645880332987872,,speed,space,14.446082124995884,,,,,,0.0,1.0,1.0,1.0,2.0,1.0,5.0,0.0,421.43444166700647,,,,,,,,,421.4258942089946,421.5157068749977,422.3168462500034,422.3083520000073,422.3090059590031,422.3168462500034,422.3168462500034,422.3168462500034,424.9660442500026,,,,,,,,,,,,,,,,,,,,,,,,,,,,,,,right,0.0,2.645880332987872,,,,,sub-070,1,random_dot,,
right,right,6.0,0.0,3.0,left,0.0,2.129691124006058,,speed,space,14.446082124995884,,,,,,0.0,1.0,1.0,1.0,3.0,0.0,6.0,1.0,424.9741345840012,,,,,,,,,424.9665174590045,425.31588616699446,426.1170142920018,426.1082111249998,426.1088869170053,426.1170142920018,426.1170142920018,426.1170142920018,428.249620750008,,,,,,,,,,,,,,,,,,,,,,,,,,,,,,,left,0.0,2.129691124006058,,,,,sub-070,1,random_dot,,
left,left,7.0,1.0,3.0,right,0.0,1.514527540988638,,speed,space,14.446082124995884,,,,,,0.0,1.0,1.0,1.0,3.0,1.0,7.0,0.0,428.2578568339959,,,,,,,,,428.2500912920077,429.4485536669963,430.2502972500079,430.24179458399885,430.24239166700863,430.2502972500079,430.2502972500079,430.2502972500079,431.766569333995,,,,,,,,,,,,,,,,,,,,,,,,,,,,,,,right,0.0,1.514527540988638,,,,,sub-070,1,random_dot,,
left,left,8.0,0.0,4.0,left,1.0,1.9389709570095877,,speed,space,14.446082124995884,,,,,,0.0,1.0,1.0,1.0,4.0,0.0,8.0,0.0,431.7743807500083,,,,,,,,,431.7670497500076,432.1161438340059,432.915946292007,432.9086118340056,432.9090980839974,432.915946292007,432.915946292007,432.915946292007,434.8593727090047,,,,,,,,,,,,,,,,,,,,,,,,,,,,,,,left,1.0,1.9389709570095877,,,,,sub-070,1,random_dot,,
right,right,9.0,1.0,4.0,left,0.0,2.7909242489986354,,speed,space,14.446082124995884,,,,,,0.0,1.0,1.0,1.0,4.0,1.0,9.0,1.0,434.86863954200817,,,,,,,,,434.8599210840039,435.19956241700856,436.0000292500045,435.99180029200215,435.99233595900296,436.0000292500045,436.0000292500045,436.0000292500045,438.79301437499817,,,,,,,,,,,,,,,,,,,,,,,,,,,,,,,left,0.0,2.7909242489986354,,,,,sub-070,1,random_dot,,
right,right,10.0,0.0,5.0,right,1.0,4.309344583001803,,speed,space,14.446082124995884,,,,,,0.0,1.0,1.0,1.0,5.0,0.0,10.0,1.0,438.801905417,,,,,,,,,438.7935430840007,438.8914890000015,439.6835143339995,439.6751786249952,439.67574550000427,439.6835143339995,439.6835143339995,439.6835143339995,443.9994907090004,,,,,,,,,,,,,,,,,,,,,,,,,,,,,,,right,1.0,4.309344583001803,,,,,sub-070,1,random_dot,,
left,left,11.0,1.0,5.0,right,0.0,1.5433824159990763,,speed,space,14.446082124995884,,,,,,0.0,1.0,1.0,1.0,5.0,1.0,11.0,0.0,444.0073120419984,,,,,,,,,443.9999782090017,444.348437749999,445.1506080840045,445.142296334001,445.1428532090067,445.1506080840045,445.1506080840045,445.1506080840045,446.6992821669992,,,,,,,,,,,,,,,,,,,,,,,,,,,,,,,right,0.0,1.5433824159990763,,,,,sub-070,1,random_dot,,
left,left,12.0,0.0,6.0,right,0.0,3.743328915996244,,speed,space,14.446082124995884,,,,,,0.0,1.0,1.0,1.0,6.0,0.0,12.0,0.0,446.7081909170083,,,,,,,,,446.6996650420042,446.7995903340052,447.6007321250072,447.5923356669955,447.5929441250046,447.6007321250072,447.6007321250072,447.6007321250072,451.3497637499968,,,,,,,,,,,,,,,,,,,,,,,,,,,,,,,right,0.0,3.743328915996244,,,,,sub-070,1,random_dot,,
right,right,13.0,1.0,6.0,right,1.0,3.3327115410065744,,speed,space,14.446082124995884,,,,,,0.0,1.0,1.0,1.0,6.0,1.0,13.0,1.0,451.3578454170056,,,,,,,,,451.3502690419991,451.4528307500004,452.251221833998,452.2424327089975,452.24310312500165,452.251221833998,452.251221833998,452.251221833998,455.5929700840061,,,,,,,,,,,,,,,,,,,,,,,,,,,,,,,right,1.0,3.3327115410065744,,,,,sub-070,1,random_dot,,
right,right,14.0,0.0,7.0,right,1.0,4.231522374000633,,speed,space,14.446082124995884,,,,,,0.0,1.0,1.0,1.0,7.0,0.0,14.0,1.0,455.60138208400167,,,,,,,,,455.5934545420023,456.3836208340072,457.1847700000071,457.17595074999554,457.1766119170061,457.1847700000071,457.1847700000071,457.1847700000071,461.42689000000246,,,,,,,,,,,,,,,,,,,,,,,,,,,,,,,right,1.0,4.231522374000633,,,,,sub-070,1,random_dot,,
left,left,15.0,1.0,7.0,left,1.0,0.9605389999924228,,speed,space,14.446082124995884,,,,,,0.0,1.0,1.0,1.0,7.0,1.0,15.0,0.0,461.4354324589949,,,,,,,,,461.4273747499974,461.51717750000535,462.3185860420053,462.30967750000127,462.3103554170084,462.3185860420053,462.3185860420053,462.3185860420053,463.284389959008,,,,,,,,,,,,,,,,,,,,,,,,,,,,,,,left,1.0,0.9605389999924228,,,,,sub-070,1,random_dot,,
left,left,16.0,0.0,8.0,left,1.0,2.118626958006644,,speed,space,14.446082124995884,,,,,,0.0,1.0,1.0,1.0,8.0,0.0,16.0,0.0,463.2921130000032,,,,,,,,,463.2848758750042,463.3824838340079,464.17548045900185,464.16606445900106,464.1666661670024,464.17548045900185,464.17548045900185,464.17548045900185,466.3003389170044,,,,,,,,,,,,,,,,,,,,,,,,,,,,,,,left,1.0,2.118626958006644,,,,,sub-070,1,random_dot,,
right,right,17.0,1.0,8.0,right,1.0,1.0649322910030603,,speed,space,14.446082124995884,,,,,,0.0,1.0,1.0,1.0,8.0,1.0,17.0,1.0,466.3085722499964,,,,,,,,,466.30081529200834,466.3990975000052,467.1922281250008,467.18226558400784,467.1828827499994,467.1922281250008,467.1922281250008,467.1922281250008,468.2603661250032,,,,,,,,,,,,,,,,,,,,,,,,,,,,,,,right,1.0,1.0649322910030603,,,,,sub-070,1,random_dot,,
right,right,18.0,0.0,9.0,left,0.0,1.570862374996068,,speed,space,14.446082124995884,,,,,,0.0,1.0,1.0,1.0,9.0,0.0,18.0,1.0,468.2691908340057,,,,,,,,,468.2608985840052,468.34912758400606,469.1423547919985,469.13229229200806,469.132864166997,469.1423547919985,469.1423547919985,469.1423547919985,470.7170986669953,,,,,,,,,,,,,,,,,,,,,,,,,,,,,,,left,0.0,1.570862374996068,,,,,sub-070,1,random_dot,,
left,left,19.0,1.0,9.0,left,1.0,1.235474332002923,,speed,space,14.446082124995884,,,,,,0.0,1.0,1.0,1.0,9.0,1.0,19.0,0.0,470.7258258340007,,,,,,,,,470.717578374999,471.0674529170065,471.8686325419985,471.8598821250053,471.8605477920064,471.8686325419985,471.8686325419985,471.8686325419985,473.1107009999978,,,,,,,,,,,,,,,,,,,,,,,,,,,,,,,left,1.0,1.235474332002923,,,,,sub-070,1,random_dot,,
right,right,20.0,0.0,10.0,right,1.0,1.2829022490041098,,speed,space,14.446082124995884,,,,,,0.0,1.0,1.0,1.0,10.0,0.0,20.0,1.0,473.118654417005,,,,,,,,,473.1111836670025,473.4496220419969,474.2424953750015,474.2330151250062,474.2336047090066,474.2424953750015,474.2424953750015,474.2424953750015,475.52749154200137,,,,,,,,,,,,,,,,,,,,,,,,,,,,,,,right,1.0,1.2829022490041098,,,,,sub-070,1,random_dot,,
left,left,21.0,1.0,10.0,right,0.0,1.0989507070044056,,speed,space,14.446082124995884,,,,,,0.0,1.0,1.0,1.0,10.0,1.0,21.0,0.0,475.5365007090004,,,,,,,,,475.5280208750046,475.8762197920005,476.6683106249984,476.6600730420032,476.6606710420019,476.6683106249984,476.6683106249984,476.6683106249984,477.77757429200574,,,,,,,,,,,,,,,,,,,,,,,,,,,,,,,right,0.0,1.0989507070044056,,,,,sub-070,1,random_dot,,
left,left,22.0,0.0,11.0,right,0.0,1.0824659159989096,,speed,space,14.446082124995884,,,,,,0.0,1.0,1.0,1.0,11.0,0.0,22.0,0.0,477.7868417090067,,,,,,,,,477.77813154199976,478.97624487499706,479.7687677500071,479.7599403750064,479.7605982090026,479.7687677500071,479.7687677500071,479.7687677500071,480.86092654199456,,,,,,,,,,,,,,,,,,,,,,,,,,,,,,,right,0.0,1.0824659159989096,,,,,sub-070,1,random_dot,,
right,right,23.0,1.0,11.0,right,1.0,1.0778069569932995,,speed,space,14.446082124995884,,,,,,0.0,1.0,1.0,1.0,11.0,1.0,23.0,1.0,480.8694557919953,,,,,,,,,480.8615505839989,481.6597163340048,482.4524912500056,482.4436739999946,482.4443510840065,482.4524912500056,482.4524912500056,482.4524912500056,483.5350709170016,,,,,,,,,,,,,,,,,,,,,,,,,,,,,,,right,1.0,1.0778069569932995,,,,,sub-070,1,random_dot,,
right,right,24.0,0.0,12.0,left,0.0,0.9355427490081638,,speed,space,14.446082124995884,,,,,,0.0,1.0,1.0,1.0,12.0,0.0,24.0,1.0,483.5436168750021,,,,,,,,,483.5355451250071,483.8843737499992,484.68578033399535,484.6771464170015,484.6778074169997,484.68578033399535,484.68578033399535,484.68578033399535,485.6273278340086,,,,,,,,,,,,,,,,,,,,,,,,,,,,,,,left,0.0,0.9355427490081638,,,,,sub-070,1,random_dot,,
left,left,25.0,1.0,12.0,right,0.0,1.3156747079920024,,speed,space,14.446082124995884,,,,,,0.0,1.0,1.0,1.0,12.0,1.0,25.0,0.0,485.635424542008,,,,,,,,,485.6278182090027,486.416475459002,487.2095071250078,487.1999268340005,487.2005411669961,487.2095071250078,487.2095071250078,487.2095071250078,488.5276938339957,,,,,,,,,,,,,,,,,,,,,,,,,,,,,,,right,0.0,1.3156747079920024,,,,,sub-070,1,random_dot,,
right,right,26.0,0.0,13.0,right,1.0,1.1233292079996318,,speed,space,14.446082124995884,,,,,,0.0,1.0,1.0,1.0,13.0,0.0,26.0,1.0,488.53317645900825,,,,,,,,,488.5281838750088,488.8676650419948,489.6690730840055,489.660399417,489.6610601249995,489.6690730840055,489.6690730840055,489.6690730840055,490.7941135840083,,,,,,,,,,,,,,,,,,,,,,,,,,,,,,,right,1.0,1.1233292079996318,,,,,sub-070,1,random_dot,,
left,left,27.0,1.0,13.0,right,0.0,2.028128665988333,,speed,space,14.446082124995884,,,,,,0.0,1.0,1.0,1.0,13.0,1.0,27.0,0.0,490.7996899590071,,,,,,,,,490.7945905000088,491.58345933399687,492.3763635000069,492.3664897499984,492.3671202920086,492.3763635000069,492.3763635000069,492.3763635000069,494.4108747499995,,,,,,,,,,,,,,,,,,,,,,,,,,,,,,,right,0.0,2.028128665988333,,,,,sub-070,1,random_dot,,
left,left,28.0,0.0,14.0,left,1.0,1.9368384999979755,,speed,space,14.446082124995884,,,,,,0.0,1.0,1.0,1.0,14.0,0.0,28.0,0.0,494.4191754170024,,,,,,,,,494.4113461670058,495.6014255839982,496.40258550000726,496.3941393749992,496.394692834001,496.40258550000726,496.40258550000726,496.40258550000726,498.34480545899714,,,,,,,,,,,,,,,,,,,,,,,,,,,,,,,left,1.0,1.9368384999979755,,,,,sub-070,1,random_dot,,
right,right,29.0,1.0,14.0,left,0.0,1.5565282909956295,,speed,space,14.446082124995884,,,,,,0.0,1.0,1.0,1.0,14.0,1.0,29.0,1.0,498.35387049999554,,,,,,,,,498.34535183399566,498.4346547919995,499.23585241699766,499.22757020899735,499.2281453339965,499.23585241699766,499.23585241699766,499.23585241699766,500.794833167005,,,,,,,,,,,,,,,,,,,,,,,,,,,,,,,left,0.0,1.5565282909956295,,,,,sub-070,1,random_dot,,
left,left,30.0,0.0,15.0,left,1.0,1.6767151249950984,,speed,space,14.446082124995884,,,,,,0.0,1.0,1.0,1.0,15.0,0.0,30.0,0.0,500.8026877500088,,,,,,,,,500.7953224170051,501.1440087500087,501.9358271249948,501.92759712500265,501.9281755420088,501.9358271249948,501.9358271249948,501.9358271249948,503.6184448340064,,,,,,,,,,,,,,,,,,,,,,,,,,,,,,,left,1.0,1.6767151249950984,,,,,sub-070,1,random_dot,,
right,right,31.0,1.0,15.0,right,1.0,2.44620949900127,,speed,space,14.446082124995884,,,,,,0.0,1.0,1.0,1.0,15.0,1.0,31.0,1.0,503.62625116700656,,,,,,,,,503.6189100839984,504.4172744590032,505.2101927500044,505.2001760419953,505.2007888750086,505.2101927500044,505.2101927500044,505.2101927500044,507.66141104200506,,,,,,,,,,,,,,,,,,,,,,,,,,,,,,,right,1.0,2.44620949900127,,,,,sub-070,1,random_dot,,
right,right,32.0,0.0,16.0,right,1.0,0.9733310409937984,,speed,space,14.446082124995884,,,,,,0.0,1.0,1.0,1.0,16.0,0.0,32.0,1.0,507.6698247919994,,,,,,,,,507.6618810420041,508.0020568750042,508.8032659589953,508.7942907499964,508.7948434590071,508.8032659589953,508.8032659589953,508.8032659589953,509.7784889589966,,,,,,,,,,,,,,,,,,,,,,,,,,,,,,,right,1.0,0.9733310409937984,,,,,sub-070,1,random_dot,,
left,left,33.0,1.0,16.0,right,0.0,0.8558825830114074,,speed,space,14.446082124995884,,,,,,0.0,1.0,1.0,1.0,16.0,1.0,33.0,0.0,509.78766270900087,,,,,,,,,509.7790288749966,509.8683754999947,510.6695212920022,510.6613112089981,510.66185725000105,510.6695212920022,510.6695212920022,510.6695212920022,511.528155292006,,,,,,,,,,,,,,,,,,,,,,,,,,,,,,,right,0.0,0.8558825830114074,,,,,sub-070,1,random_dot,,
right,right,34.0,0.0,17.0,left,0.0,1.5259321659978011,,speed,space,14.446082124995884,,,,,,0.0,1.0,1.0,1.0,17.0,0.0,34.0,1.0,511.5359079170012,,,,,,,,,511.5286332090036,511.8686725419975,512.6695734170062,512.6613790420088,512.6619705839985,512.6695734170062,512.6695734170062,512.6695734170062,514.2020558340009,,,,,,,,,,,,,,,,,,,,,,,,,,,,,,,left,0.0,1.5259321659978011,,,,,sub-070,1,random_dot,,
left,left,35.0,1.0,17.0,right,0.0,2.60949524899479,,speed,space,14.446082124995884,,,,,,0.0,1.0,1.0,1.0,17.0,1.0,35.0,0.0,514.2100191670033,,,,,,,,,514.2025176669995,515.001810583999,515.8030119169998,515.7948022089986,515.7953617500025,515.8030119169998,515.8030119169998,515.8030119169998,518.4191694170004,,,,,,,,,,,,,,,,,,,,,,,,,,,,,,,right,0.0,2.60949524899479,,,,,sub-070,1,random_dot,,
left,left,36.0,0.0,18.0,left,1.0,1.585643500002334,,speed,space,14.446082124995884,,,,,,0.0,1.0,1.0,1.0,18.0,0.0,36.0,0.0,518.4281284169992,,,,,,,,,518.4197311669996,519.6175874589971,520.4109488340036,520.4012703339977,520.4018730840035,520.4109488340036,520.4109488340036,520.4109488340036,522.0029859170027,,,,,,,,,,,,,,,,,,,,,,,,,,,,,,,left,1.0,1.585643500002334,,,,,sub-070,1,random_dot,,
right,right,37.0,1.0,18.0,right,1.0,1.6016018320078729,,speed,space,14.446082124995884,,,,,,0.0,1.0,1.0,1.0,18.0,1.0,37.0,1.0,522.0116118340084,,,,,,,,,522.0034960839985,522.1013309590053,522.8941058339988,522.8842432920064,522.8848049170047,522.8941058339988,522.8941058339988,522.8941058339988,524.5022466670052,,,,,,,,,,,,,,,,,,,,,,,,,,,,,,,right,1.0,1.6016018320078729,,,,,sub-070,1,random_dot,,
right,right,38.0,0.0,19.0,left,0.0,3.604544165995321,,speed,space,14.446082124995884,,,,,,0.0,1.0,1.0,1.0,19.0,0.0,38.0,1.0,524.5101056669955,,,,,,,,,524.5027232919965,525.7016752089985,526.493330583995,526.4849613340048,526.4855417500075,526.493330583995,526.493330583995,526.493330583995,530.1025535840017,,,,,,,,,,,,,,,,,,,,,,,,,,,,,,,left,0.0,3.604544165995321,,,,,sub-070,1,random_dot,,
left,left,39.0,1.0,19.0,right,0.0,0.9302079990011408,,speed,space,14.446082124995884,,,,,,0.0,1.0,1.0,1.0,19.0,1.0,39.0,0.0,530.1103537089948,,,,,,,,,530.1030092500005,530.9013957090065,531.703541541996,531.6953329590033,531.6958998339978,531.703541541996,531.703541541996,531.703541541996,532.6359381670045,,,,,,,,,,,,,,,,,,,,,,,,,,,,,,,right,0.0,0.9302079990011408,,,,,sub-070,1,random_dot,,
right,right,40.0,0.0,20.0,right,1.0,0.9948602499935078,,speed,space,14.446082124995884,,,,,,0.0,1.0,1.0,1.0,20.0,0.0,40.0,1.0,532.6443205840042,,,,,,,,,532.636452916995,533.8361998750042,534.6368325000076,534.6285124169954,534.6290622090019,534.6368325000076,534.6368325000076,534.6368325000076,535.6362116249948,,,,,,,,,,,,,,,,,,,,,,,,,,,,,,,right,1.0,0.9948602499935078,,,,,sub-070,1,random_dot,,
left,left,41.0,1.0,20.0,left,1.0,1.567793123991578,,speed,space,14.446082124995884,,,,,,0.0,1.0,1.0,1.0,20.0,1.0,41.0,0.0,535.6441894589952,,,,,,,,,535.6367025420041,535.9861076249945,536.7870379590022,536.7788101670012,536.7794069999945,536.7870379590022,536.7870379590022,536.7870379590022,538.3630897920084,,,,,,,,,,,,,,,,,,,,,,,,,,,,,,,left,1.0,1.567793123991578,,,,,sub-070,1,random_dot,,
left,left,42.0,0.0,21.0,left,1.0,1.788898540995433,,speed,space,14.446082124995884,,,,,,0.0,1.0,1.0,1.0,21.0,0.0,42.0,0.0,538.3721597920085,,,,,,,,,538.3636366249993,539.5530932090041,540.3538721670047,540.3456024170009,540.3461797089985,540.3538721670047,540.3538721670047,540.3538721670047,542.1462757090048,,,,,,,,,,,,,,,,,,,,,,,,,,,,,,,left,1.0,1.788898540995433,,,,,sub-070,1,random_dot,,
right,right,43.0,1.0,21.0,right,1.0,0.6667822070012335,,speed,space,14.446082124995884,,,,,,0.0,1.0,1.0,1.0,21.0,1.0,43.0,1.0,542.1554028340033,,,,,,,,,542.1468279170076,542.4866121250088,543.2869743339979,543.2788259170047,543.2793546250032,543.2869743339979,543.2869743339979,543.2869743339979,543.9629698339995,,,,,,,,,,,,,,,,,,,,,,,,,,,,,,,right,1.0,0.6667822070012335,,,,,sub-070,1,random_dot,,
left,left,44.0,0.0,22.0,right,0.0,2.728004165997845,,speed,space,14.446082124995884,,,,,,0.0,1.0,1.0,1.0,22.0,0.0,44.0,0.0,543.9706315420044,,,,,,,,,543.9634354589944,544.0518646249984,544.8448508750007,544.8347470000008,544.8353475839976,544.8448508750007,544.8448508750007,544.8448508750007,547.5797770839999,,,,,,,,,,,,,,,,,,,,,,,,,,,,,,,right,0.0,2.728004165997845,,,,,sub-070,1,random_dot,,
right,right,45.0,1.0,22.0,left,0.0,0.5142971239984035,,speed,space,14.446082124995884,,,,,,0.0,1.0,1.0,1.0,22.0,1.0,45.0,1.0,547.5884173340019,,,,,,,,,547.5803400840086,548.7698032089975,549.5707564170007,549.5625961670012,549.5631549170066,549.5707564170007,549.5707564170007,549.5707564170007,550.0865340419987,,,,,,,,,,,,,,,,,,,,,,,,,,,,,,,left,0.0,0.5142971239984035,,,,,sub-070,1,random_dot,,
left,left,46.0,0.0,23.0,left,1.0,1.9287397080042863,,speed,space,14.446082124995884,,,,,,0.0,1.0,1.0,1.0,23.0,0.0,46.0,0.0,550.0952917499962,,,,,,,,,550.086997749997,550.8867033749993,551.6872850000073,551.6792837090034,551.6798524589976,551.6872850000073,551.6872850000073,551.6872850000073,553.6200172499957,,,,,,,,,,,,,,,,,,,,,,,,,,,,,,,left,1.0,1.9287397080042863,,,,,sub-070,1,random_dot,,
right,right,47.0,1.0,23.0,right,1.0,1.786191831997712,,speed,space,14.446082124995884,,,,,,0.0,1.0,1.0,1.0,23.0,1.0,47.0,1.0,553.6278520420019,,,,,,,,,553.6204571249982,554.8199128340057,555.6208282500011,555.6127879169944,555.6132810840063,555.6208282500011,555.6208282500011,555.6208282500011,557.4133925420028,,,,,,,,,,,,,,,,,,,,,,,,,,,,,,,right,1.0,1.786191831997712,,,,,sub-070,1,random_dot,,
right,right,48.0,0.0,24.0,right,1.0,1.2244349159882404,,speed,space,14.446082124995884,,,,,,0.0,1.0,1.0,1.0,24.0,0.0,48.0,1.0,557.4219023339974,,,,,,,,,557.4139485420019,557.7533074590028,558.5545580000035,558.5459267090046,558.5464717919967,558.5545580000035,558.5545580000035,558.5545580000035,559.7872672090016,,,,,,,,,,,,,,,,,,,,,,,,,,,,,,,right,1.0,1.2244349159882404,,,,,sub-070,1,random_dot,,
left,left,49.0,1.0,24.0,left,1.0,0.9871775820065524,,speed,space,14.446082124995884,,,,,,0.0,1.0,1.0,1.0,24.0,1.0,49.0,0.0,559.7952995840024,,,,,,,,,559.7877410000074,560.5848415000073,561.3789290419954,561.368641167006,561.3691593340045,561.3789290419954,561.3789290419954,561.3789290419954,562.3701824589953,,,,,,,,,,,,,,,,,,,,,,,,,,,,,,,left,1.0,0.9871775820065524,,,,,sub-070,1,random_dot,,
right,right,50.0,0.0,25.0,right,1.0,1.3523781239928212,,speed,space,14.446082124995884,,,,,,0.0,1.0,1.0,1.0,25.0,0.0,50.0,1.0,562.3779054170009,,,,,,,,,562.3706290420087,563.5706905420084,564.3717057920003,564.3629769170075,564.3636521669978,564.3717057920003,564.3717057920003,564.3717057920003,565.730188542002,,,,,,,,,,,,,,,,,,,,,,,,,,,,,,,right,1.0,1.3523781239928212,,,,,sub-070,1,random_dot,,
left,left,51.0,1.0,25.0,right,0.0,2.83173954099766,,speed,space,14.446082124995884,,,,,,0.0,1.0,1.0,1.0,25.0,1.0,51.0,0.0,565.7379435839975,,,,,,,,,565.730661374997,566.9206598750025,567.7214981249999,567.7133413340052,567.713915750006,567.7214981249999,567.7214981249999,567.7214981249999,570.5639035420027,,,,,,,,,,,,,,,,,,,,,,,,,,,,,,,right,0.0,2.83173954099766,,,,,sub-070,1,random_dot,,
right,right,52.0,0.0,26.0,right,1.0,2.0124256660055835,,speed,space,14.446082124995884,,,,,,0.0,1.0,1.0,1.0,26.0,0.0,52.0,1.0,570.5719017090014,,,,,,,,,570.564374249996,571.353600375005,572.1547632090078,572.1466326250084,572.147189167008,572.1547632090078,572.1547632090078,572.1547632090078,574.1712041249993,,,,,,,,,,,,,,,,,,,,,,,,,,,,,,,right,1.0,2.0124256660055835,,,,,sub-070,1,random_dot,,
left,left,53.0,1.0,26.0,left,1.0,1.4126014990033582,,speed,space,14.446082124995884,,,,,,0.0,1.0,1.0,1.0,26.0,1.0,53.0,0.0,574.1789323340054,,,,,,,,,574.1716515839944,574.9706108340033,575.7715412920079,575.763340000005,575.7639145840076,575.7715412920079,575.7715412920079,575.7715412920079,577.1873280840082,,,,,,,,,,,,,,,,,,,,,,,,,,,,,,,left,1.0,1.4126014990033582,,,,,sub-070,1,random_dot,,
right,right,54.0,0.0,27.0,left,0.0,1.6419113320007457,,speed,space,14.446082124995884,,,,,,0.0,1.0,1.0,1.0,27.0,0.0,54.0,1.0,577.1953406249959,,,,,,,,,577.1877586670016,577.5363515839999,578.3293352089968,578.3189731669991,578.319459499995,578.3293352089968,578.3293352089968,578.3293352089968,579.9806410419988,,,,,,,,,,,,,,,,,,,,,,,,,,,,,,,left,0.0,1.6419113320007457,,,,,sub-070,1,random_dot,,
left,left,55.0,1.0,27.0,left,1.0,1.770862458011834,,speed,space,14.446082124995884,,,,,,0.0,1.0,1.0,1.0,27.0,1.0,55.0,0.0,579.9886871670024,,,,,,,,,579.9811385840003,580.320877584003,581.1225151670078,581.1136303340027,581.1142853339989,581.1225151670078,581.1225151670078,581.1225151670078,582.8976351250021,,,,,,,,,,,,,,,,,,,,,,,,,,,,,,,left,1.0,1.770862458011834,,,,,sub-070,1,random_dot,,
left,left,56.0,0.0,28.0,right,0.0,1.9189709579950431,,speed,space,14.446082124995884,,,,,,0.0,1.0,1.0,1.0,28.0,0.0,56.0,0.0,582.9059132920083,,,,,,,,,582.8981996250077,582.9967770000076,583.789322334007,583.7806422919966,583.7813429170055,583.789322334007,583.789322334007,583.789322334007,585.7143156249949,,,,,,,,,,,,,,,,,,,,,,,,,,,,,,,right,0.0,1.9189709579950431,,,,,sub-070,1,random_dot,,
right,right,57.0,1.0,28.0,right,1.0,1.3802217909978935,,speed,space,14.446082124995884,,,,,,0.0,1.0,1.0,1.0,28.0,1.0,57.0,1.0,585.7221235420002,,,,,,,,,585.7147967500059,585.8046259999974,586.6050956670078,586.5968470420048,586.5974187920074,586.6050956670078,586.6050956670078,586.6050956670078,587.9878869170061,,,,,,,,,,,,,,,,,,,,,,,,,,,,,,,right,1.0,1.3802217909978935,,,,,sub-070,1,random_dot,,
right,right,58.0,0.0,29.0,left,0.0,0.9955520829971648,,speed,space,14.446082124995884,,,,,,0.0,1.0,1.0,1.0,29.0,0.0,58.0,1.0,587.9964968340064,,,,,,,,,587.9883494170062,588.0795772919955,588.8717444170034,588.8636378750089,588.8642278750049,588.8717444170034,588.8717444170034,588.8717444170034,589.871104292004,,,,,,,,,,,,,,,,,,,,,,,,,,,,,,,left,0.0,0.9955520829971648,,,,,sub-070,1,random_dot,,
left,left,59.0,1.0,29.0,right,0.0,1.064315915995394,,speed,space,14.446082124995884,,,,,,0.0,1.0,1.0,1.0,29.0,1.0,59.0,0.0,589.8790813749947,,,,,,,,,589.871554917001,589.9714246670046,590.7720146670035,590.7637650420074,590.7643315000023,590.7720146670035,590.7720146670035,590.7720146670035,591.8383962090011,,,,,,,,,,,,,,,,,,,,,,,,,,,,,,,right,0.0,1.064315915995394,,,,,sub-070,1,random_dot,,
,,1.0,1.0,0.0,,,,,speed,space,14.446082124995884,,,,,,0.0,1.0,1.0,1.0,,,,,,,,,,,,,,,,,,,,,,,,,,,,,,,,,,,,,,,,,,,,,,,,,,,,,,,,,,,,sub-070,1,random_dot,,
,,,,,,,,,,,,,,,,,,,,,,,,,,,,,,,,,,,,,,,,,,,,,,,,,,,,,,,,,,,,,,,,,,,,,,,,,,,,,591.8458102919976,591.8547959999996,596.8474003750016,sub-070,1,random_dot,,
