direction,corrAns,thisN,thisTrialN,thisRepN,respDots.keys,respDots.corr,respDots.rt,respDots.duration,randomInstr,respRandomInstr.keys,respRandomInstr.rt,respRandomInstr.duration,practice_trials.thisRepN,practice_trials.thisTrialN,practice_trials.thisN,practice_trials.thisIndex,instr_trials.thisRepN,instr_trials.thisTrialN,instr_trials.thisN,instr_trials.thisIndex,test_trials.thisRepN,test_trials.thisTrialN,test_trials.thisN,test_trials.thisIndex,thisRow.t,notes,general_instruction.started,textGeneralInstr.started,respGeneralInstr.started,general_instruction.stopped,respGeneralInstr.keys,respGeneralInstr.rt,respGeneralInstr.duration,ITI.started,fixcross.started,fixcross.stopped,ITI.stopped,dots.started,backgroundDots.started,stimulusDots.started,respDots.started,stimulusDots.stopped,dots.stopped,practice_trials.respDots.keys,practice_trials.respDots.corr,practice_trials.respDots.rt,practice_trials.respDots.duration,feedback.started,textFeedback.started,feedback.stopped,textFeedback.stopped,info.started,textInfo.started,keyRespInfo.started,info.stopped,keyRespInfo.keys,keyRespInfo.rt,keyRespInfo.duration,test_instruction.started,textTestInstr.started,respTestInstr.started,test_instruction.stopped,respTestInstr.keys,respTestInstr.rt,respTestInstr.duration,random_instruction.started,textRandomInstr.started,respRandomInstr.started,random_instruction.stopped,instr_trials.respRandomInstr.keys,instr_trials.respRandomInstr.rt,instr_trials.respRandomInstr.duration,test_trials.respDots.keys,test_trials.respDots.corr,test_trials.respDots.rt,test_trials.respDots.duration,goodbye.started,textGoodbye.started,textGoodbye.stopped,goodbye.stopped,participant,session,expName,frameRate,Unnamed: 88
,,,,,,,,,,,,,,,,,,,,,,,,,,,0.0092052090039942,0.016815167007735,0.016815167007735,33.36716587500996,space,33.30805883402354,,,,,,,,,,,,,,,,,,,,,,,,,,,,,,,,,,,,,,,,,,,,,,,,,sub-187,1,random_dot,119.93631285821183,
right,right,0.0,0.0,0.0,left,0.0,7.749942833004752,,,,,,0.0,0.0,0.0,1.0,,,,,,,,,33.40325291699264,,,,,,,,,33.38706791700679,34.161414208996575,35.01779929199256,34.94586133401026,34.946374708990334,35.01779929199256,35.01779929199256,35.01779929199256,39.94526450001285,42.77084529199056,left,0.0,7.749942833004752,,42.77896008398966,42.854110084008425,43.2787964589952,,,,,,,,,,,,,,,,,,,,,,,,,,,,,,,sub-187,1,random_dot,119.93631285821183,
left,left,1.0,1.0,0.0,right,0.0,1.967934584012255,,,,,,0.0,1.0,1.0,0.0,,,,,,,,,43.2847206669976,,,,,,,,,43.2792003749928,43.61915524999495,44.411541875015246,44.40223370899912,44.40275554198888,44.411541875015246,44.411541875015246,44.411541875015246,,46.38670945900958,right,0.0,1.967934584012255,,46.38682829201571,46.39981745899422,46.88457070899312,46.89546766699641,,,,,,,,,,,,,,,,,,,,,,,,,,,,,,sub-187,1,random_dot,119.93631285821183,
left,left,2.0,0.0,1.0,right,0.0,5.929853125009686,,,,,,1.0,0.0,2.0,0.0,,,,,,,,,46.89546766699641,,,,,,,,,46.88495345899719,48.085204125003656,48.88827629201114,48.87986549999914,48.880396041990025,48.88827629201114,48.88827629201114,48.88827629201114,53.878783041989664,54.821062125003664,right,0.0,5.929853125009686,,54.821186959015904,54.83822274999693,55.32902991698938,,,,,,,,,,,,,,,,,,,,,,,,,,,,,,,sub-187,1,random_dot,119.93631285821183,
right,right,3.0,1.0,1.0,right,1.0,3.32762416699552,,,,,,1.0,1.0,3.0,1.0,,,,,,,,,55.33520133400452,,,,,,,,,55.32954529201379,56.51871483400464,57.32128279199242,57.31288949999725,57.31342808401678,57.32128279199242,57.32128279199242,57.32128279199242,,60.65373162500328,right,1.0,3.32762416699552,,60.659454042004654,60.66769079200458,61.15130620900891,61.16228887499892,,,,,,,,,,,,,,,,,,,,,,,,,,,,,,sub-187,1,random_dot,119.93631285821183,
right,right,4.0,0.0,2.0,right,1.0,1.4620363749854732,,,,,,2.0,0.0,4.0,1.0,,,,,,,,,61.16228887499892,,,,,,,,,61.1516450420022,61.25102541700471,62.04517466700054,62.03491362501518,62.035405792004894,62.04517466700054,62.04517466700054,62.04517466700054,,63.51352187499288,right,1.0,1.4620363749854732,,63.51364725001622,63.52251524999156,64.01294541699463,64.01838399999542,,,,,,,,,,,,,,,,,,,,,,,,,,,,,,sub-187,1,random_dot,119.93631285821183,
left,left,5.0,1.0,2.0,right,0.0,2.638285791996168,,,,,,2.0,1.0,5.0,0.0,,,,,,,,,64.01838399999542,,,,,,,,,64.01333787498879,64.11248591699405,64.90436345900525,64.89622162500746,64.8967839590041,64.90436345900525,64.90436345900525,64.90436345900525,,67.54689054199844,right,0.0,2.638285791996168,,67.55007629201282,67.55911291699158,68.0463835420087,68.05210816700128,,,,,,,,,,,,,,,,,,,,,,,,,,,,,,sub-187,1,random_dot,119.93631285821183,
left,left,6.0,0.0,3.0,left,1.0,5.686900416010758,,,,,,3.0,0.0,6.0,0.0,,,,,,,,,68.05210816700128,,,,,,,,,68.04677445901325,68.39579441701062,69.1878499170125,69.17976087500574,69.1802355000109,69.1878499170125,69.1878499170125,69.1878499170125,74.17885079199914,74.88103433401557,left,1.0,5.686900416010758,,74.88448524998967,74.8937099169998,75.37973458401393,75.38568325000233,,,,,,,,,,,,,,,,,,,,,,,,,,,,,,sub-187,1,random_dot,119.93631285821183,
right,right,7.0,1.0,3.0,right,1.0,1.3482346249802504,,,,,,3.0,1.0,7.0,1.0,,,,,,,,,75.38568325000233,,,,,,,,,75.3801297500031,76.57932845898904,77.371369667002,77.36331004201202,77.3638300000166,77.371369667002,77.371369667002,77.371369667002,,78.74641858399264,right,1.0,1.3482346249802504,,78.7465357920155,78.76261470900499,79.24643462500535,79.25250408399734,,,,,,,,,,,,,,,,,,,,,,,,,,,,,,sub-187,1,random_dot,119.93631285821183,
left,left,8.0,0.0,4.0,right,0.0,0.8584856670058798,,,,,,4.0,0.0,8.0,0.0,,,,,,,,,79.25250408399734,,,,,,,,,79.24682245901204,80.43601320899324,81.22778841698891,81.21966724999947,81.22017358400626,81.22778841698891,81.22778841698891,81.22778841698891,,82.11322570900666,right,0.0,0.8584856670058798,,82.1166873339971,82.12930729199434,82.61342000000877,82.61931441701017,,,,,,,,,,,,,,,,,,,,,,,,,,,,,,sub-187,1,random_dot,119.93631285821183,
right,right,9.0,1.0,4.0,left,0.0,2.965853125002468,,,,,,4.0,1.0,9.0,1.0,,,,,,,,,82.61931441701017,,,,,,,,,82.61385500000324,83.40234720899025,84.20431116700638,84.19669258399517,84.19715891699889,84.20431116700638,84.20431116700638,84.20431116700638,,87.18108141701669,left,0.0,2.965853125002468,,87.18119750000187,87.18699883398949,87.67992620900623,87.68565679198946,,,,,,,,,,,,,,,,,,,,,,,,,,,,,,sub-187,1,random_dot,119.93631285821183,
left,left,10.0,0.0,5.0,right,0.0,5.476034791994607,,,,,,5.0,0.0,10.0,0.0,,,,,,,,,87.68565679198946,,,,,,,,,87.68031825000071,87.77952808400732,88.5714745419973,88.56337987500592,88.56385104201036,88.5714745419973,88.5714745419973,88.5714745419973,93.55240495901673,94.05896941700485,right,0.0,5.476034791994607,,94.05908141701366,94.06456262498978,94.5521931250114,94.5627231670078,,,,,,,,,,,,,,,,,,,,,,,,,,,,,,sub-187,1,random_dot,119.93631285821183,
right,right,11.0,1.0,5.0,left,0.0,1.3620833749882877,,,,,,5.0,1.0,11.0,1.0,,,,,,,,,94.5627231670078,,,,,,,,,94.55264524999076,95.35281216699514,96.15560058399568,96.14722054201413,96.14775845900294,96.15560058399568,96.15560058399568,96.15560058399568,,97.52130395901622,left,0.0,1.3620833749882877,,97.52142045900108,97.54592241698992,98.02985212500788,,,,,,,,,,,,,,,,,,,,,,,,,,,,,,,sub-187,1,random_dot,119.93631285821183,
right,right,12.0,0.0,6.0,right,1.0,1.7608437500020957,,,,,,6.0,0.0,12.0,1.0,,,,,,,,,98.03495720899082,,,,,,,,,98.03023708399267,98.81931262501166,99.62162541699944,99.61364166700514,99.61409254200407,99.62162541699944,99.62162541699944,99.62162541699944,,101.38772329199128,right,1.0,1.7608437500020957,,101.39090437500272,101.40091137500713,101.8854611669958,101.89635291701416,,,,,,,,,,,,,,,,,,,,,,,,,,,,,,sub-187,1,random_dot,119.93631285821183,
left,left,13.0,1.0,6.0,left,1.0,2.342268333974061,,,,,,6.0,1.0,13.0,0.0,,,,,,,,,101.89635291701416,,,,,,,,,101.88586829201084,101.98560008400818,102.7791227500129,102.76976591700804,102.77024549999624,102.7791227500129,102.7791227500129,102.7791227500129,,105.13105441699736,left,1.0,2.342268333974061,,105.1311804589932,105.13979608399676,105.63052758399864,105.63714987499408,,,,,,,,,,,,,,,,,,,,,,,,,,,,,,sub-187,1,random_dot,119.93631285821183,
right,right,14.0,0.0,7.0,left,0.0,2.064154416002566,,,,,,7.0,0.0,14.0,1.0,,,,,,,,,105.63714987499408,,,,,,,,,105.63094974998968,105.979779959016,106.77240320900457,106.76403016698896,106.7645657089888,106.77240320900457,106.77240320900457,106.77240320900457,,108.83886774998972,left,0.0,2.064154416002566,,108.84206108399668,108.85087191700586,109.3358267500007,109.34639662501286,,,,,,,,,,,,,,,,,,,,,,,,,,,,,,sub-187,1,random_dot,119.93631285821183,
left,left,15.0,1.0,7.0,right,0.0,3.777298624976538,,,,,,7.0,1.0,15.0,0.0,,,,,,,,,109.34639662501286,,,,,,,,,109.33624624999356,110.53622800001176,111.33891325001603,111.3304062919924,111.33097300000372,111.33891325001603,111.33891325001603,111.33891325001603,,115.1214037089958,right,0.0,3.777298624976538,,115.1215205420158,115.1296440839942,115.61367029199027,115.6194605420169,,,,,,,,,,,,,,,,,,,,,,,,,,,,,,sub-187,1,random_dot,119.93631285821183,
right,right,16.0,0.0,8.0,left,0.0,1.9168655830144417,,,,,,8.0,0.0,16.0,1.0,,,,,,,,,115.6194605420169,,,,,,,,,115.61406200000783,115.71955458400772,116.52169170900017,116.51365075001377,116.5141161250067,116.52169170900017,116.52169170900017,116.52169170900017,,118.44802608399186,left,0.0,1.9168655830144417,,118.44814587500878,118.45669279200956,118.94728508399568,118.95322275001672,,,,,,,,,,,,,,,,,,,,,,,,,,,,,,sub-187,1,random_dot,119.93631285821183,
left,left,17.0,1.0,8.0,right,0.0,5.909237999992911,,,,,,8.0,1.0,17.0,0.0,,,,,,,,,118.95322275001672,,,,,,,,,118.94767216700713,119.7464069169946,120.53813241701572,120.53045441699214,120.53090779201013,120.53813241701572,120.53813241701572,120.53813241701572,125.51880412499304,126.4584670420154,right,0.0,5.909237999992911,,126.45858087501256,126.4651452919934,126.9526417090092,126.96338029199978,,,,,,,,,,,,,,,,,,,,,,,,,,,,,,sub-187,1,random_dot,119.93631285821183,
right,right,18.0,0.0,9.0,left,0.0,3.255463334004162,,,,,,9.0,0.0,18.0,1.0,,,,,,,,,126.96338029199978,,,,,,,,,126.95312079199356,127.3033292920154,128.09645266699954,128.08792845899006,128.08847675001016,128.09645266699954,128.09645266699954,128.09645266699954,,131.35448595898924,left,0.0,3.255463334004162,,131.35459920900755,131.36277004200383,131.8473085000005,131.85305666699423,,,,,,,,,,,,,,,,,,,,,,,,,,,,,,sub-187,1,random_dot,119.93631285821183,
left,left,19.0,1.0,9.0,left,1.0,4.743149958027061,,,,,,9.0,1.0,19.0,0.0,,,,,,,,,131.85305666699423,,,,,,,,,131.84769537500688,132.6534281669883,133.45525166700827,133.44735791700077,133.4478355839965,133.45525166700827,133.45525166700827,133.45525166700827,,138.20497200000682,left,1.0,4.743149958027061,,138.20813129199087,138.21790945899556,138.7032412920089,138.71297020901693,,,,,,,,,,,,,,,,,,,,,,,,,,,,,,sub-187,1,random_dot,119.93631285821183,
,,,,,,,,,,,,,,,,,,,,,,,,,,,,,,,,,,,,,,,,,,,,,,,,,,,,138.70340883400058,138.71297020901693,138.71297020901693,143.1827818340098,space,4.467220292019192,,,,,,,,,,,,,,,,,,,,,,,,sub-187,1,random_dot,119.93631285821183,
,,,,,,,,,,,,,,,,,,,,,,,,,,,,,,,,,,,,,,,,,,,,,,,,,,,,,,,,,,,143.18288716700044,143.19419937499333,143.19419937499333,152.48867520899512,space,9.289854041999206,,,,,,,,,,,,,,,,,sub-187,1,random_dot,119.93631285821183,
right,right,0.0,0.0,0.0,right,1.0,1.0508896660176106,,speed,space,3.983177624992095,,,,,,0.0,0.0,0.0,1.0,0.0,0.0,0.0,1.0,156.52133304200834,,,,,,,,,156.51285624998854,157.70341124999686,158.4965685000061,158.48635283400654,158.4868584999931,158.4965685000061,158.4965685000061,158.4965685000061,,159.5582338749955,,,,,,,,,,,,,,,,,,,,,,,152.51010758400662,152.5191641249985,152.5191641249985,156.5051785419928,space,3.983177624992095,,right,1.0,1.0508896660176106,,,,,,sub-187,1,random_dot,119.93631285821183,
left,left,1.0,1.0,0.0,left,1.0,2.220847499993397,,speed,space,3.983177624992095,,,,,,0.0,0.0,0.0,1.0,0.0,1.0,1.0,0.0,159.56398566701682,,,,,,,,,159.558653916989,160.7532677919953,161.54662795900367,161.53637549999985,161.5368382089946,161.54662795900367,161.54662795900367,161.54662795900367,,163.7722510000167,,,,,,,,,,,,,,,,,,,,,,,,,,,,,,left,1.0,2.220847499993397,,,,,,sub-187,1,random_dot,119.93631285821183,
left,left,2.0,0.0,1.0,right,0.0,1.9349340840126388,,speed,space,3.983177624992095,,,,,,0.0,0.0,0.0,1.0,1.0,0.0,2.0,0.0,163.78101695899386,,,,,,,,,163.77265008399263,164.9708076250099,165.76266345899785,165.75454487500247,165.75502779200906,165.76266345899785,165.76266345899785,165.76266345899785,,167.7082924169954,,,,,,,,,,,,,,,,,,,,,,,,,,,,,,right,0.0,1.9349340840126388,,,,,,sub-187,1,random_dot,119.93631285821183,
right,right,3.0,1.0,1.0,right,1.0,3.0619380830030423,,speed,space,3.983177624992095,,,,,,0.0,0.0,0.0,1.0,1.0,1.0,3.0,1.0,167.71450087500853,,,,,,,,,167.70871100001386,168.50388766700053,169.3056720420136,169.29784229199868,169.29830920899985,169.3056720420136,169.3056720420136,169.3056720420136,,172.37245158400037,,,,,,,,,,,,,,,,,,,,,,,,,,,,,,right,1.0,3.0619380830030423,,,,,,sub-187,1,random_dot,119.93631285821183,
right,right,4.0,0.0,2.0,left,0.0,4.135474250011612,,speed,space,3.983177624992095,,,,,,0.0,0.0,0.0,1.0,2.0,0.0,4.0,1.0,172.38082845899044,,,,,,,,,172.3728587499936,172.4695997920062,173.26287529201363,173.25469858400174,173.25516529200831,173.26287529201363,173.26287529201363,173.26287529201363,,177.40549283399014,,,,,,,,,,,,,,,,,,,,,,,,,,,,,,left,0.0,4.135474250011612,,,,,,sub-187,1,random_dot,119.93631285821183,
left,left,5.0,1.0,2.0,left,1.0,2.8586866249970626,,speed,space,3.983177624992095,,,,,,0.0,0.0,0.0,1.0,2.0,1.0,5.0,0.0,177.41371404199162,,,,,,,,,177.40589233400533,177.75372516701464,178.54711549999774,178.5378767090151,178.5383481250028,178.54711549999774,178.54711549999774,178.54711549999774,,181.41547208401607,,,,,,,,,,,,,,,,,,,,,,,,,,,,,,left,1.0,2.8586866249970626,,,,,,sub-187,1,random_dot,119.93631285821183,
left,left,6.0,0.0,3.0,left,1.0,5.181697375024669,,speed,space,3.983177624992095,,,,,,0.0,0.0,0.0,1.0,3.0,0.0,6.0,0.0,181.4240430420032,,,,,,,,,181.41588512499584,181.51418175001163,182.30617929200525,182.29808670899365,182.2985626250156,182.30617929200525,182.30617929200525,182.30617929200525,187.28638862501248,187.4907465839933,,,,,,,,,,,,,,,,,,,,,,,,,,,,,,left,1.0,5.181697375024669,,,,,,sub-187,1,random_dot,119.93631285821183,
right,right,7.0,1.0,3.0,right,1.0,2.0845757909992244,,speed,space,3.983177624992095,,,,,,0.0,0.0,0.0,1.0,3.0,1.0,7.0,1.0,187.4995525419945,,,,,,,,,187.49116916701317,188.6871589999937,189.4804468340008,189.47137108401512,189.47184979199665,189.4804468340008,189.4804468340008,189.4804468340008,,191.5753827500157,,,,,,,,,,,,,,,,,,,,,,,,,,,,,,right,1.0,2.0845757909992244,,,,,,sub-187,1,random_dot,119.93631285821183,
right,right,8.0,0.0,4.0,left,0.0,5.3861722919973545,,speed,space,3.983177624992095,,,,,,0.0,0.0,0.0,1.0,4.0,0.0,8.0,1.0,191.58077929200957,,,,,,,,,191.57578820901108,191.67092316699564,192.46311708400023,192.454891292,192.4553640840168,192.46311708400023,192.46311708400023,192.46311708400023,197.44771283399317,197.85648975000367,,,,,,,,,,,,,,,,,,,,,,,,,,,,,,left,0.0,5.3861722919973545,,,,,,sub-187,1,random_dot,119.93631285821183,
left,left,9.0,1.0,4.0,right,0.0,2.317297208996024,,speed,space,3.983177624992095,,,,,,0.0,0.0,0.0,1.0,4.0,1.0,9.0,0.0,197.8664319590025,,,,,,,,,197.8570254590013,198.6543846669956,199.45635441699412,199.44830350001573,199.4487620000145,199.45635441699412,199.45635441699412,199.45635441699412,,201.78255629198972,,,,,,,,,,,,,,,,,,,,,,,,,,,,,,right,0.0,2.317297208996024,,,,,,sub-187,1,random_dot,119.93631285821183,
left,left,10.0,0.0,5.0,right,0.0,2.79746141700889,,speed,space,3.983177624992095,,,,,,0.0,0.0,0.0,1.0,5.0,0.0,10.0,0.0,201.79089487501187,,,,,,,,,201.78297908400415,202.1312521249929,202.92304533399877,202.91502779201252,202.915470500011,202.92304533399877,202.92304533399877,202.92304533399877,,205.7228535420145,,,,,,,,,,,,,,,,,,,,,,,,,,,,,,right,0.0,2.79746141700889,,,,,,sub-187,1,random_dot,119.93631285821183,
right,right,11.0,1.0,5.0,left,0.0,2.486638957983814,,speed,space,3.983177624992095,,,,,,0.0,0.0,0.0,1.0,5.0,1.0,11.0,1.0,205.7315807089908,,,,,,,,,205.7232720419997,206.92121150001185,207.72313287499128,207.71512283399352,207.71559025000897,207.72313287499128,207.72313287499128,207.72313287499128,,210.21589879199743,,,,,,,,,,,,,,,,,,,,,,,,,,,,,,left,0.0,2.486638957983814,,,,,,sub-187,1,random_dot,119.93631285821183,
left,left,12.0,0.0,6.0,left,1.0,3.0263904170133173,,speed,space,3.983177624992095,,,,,,0.0,0.0,0.0,1.0,6.0,0.0,12.0,0.0,210.22432754200415,,,,,,,,,210.21631454199087,211.414697041997,212.2061040000117,212.19841195899065,212.19888899999205,212.2061040000117,212.2061040000117,212.2061040000117,,215.24333200001277,,,,,,,,,,,,,,,,,,,,,,,,,,,,,,left,1.0,3.0263904170133173,,,,,,sub-187,1,random_dot,119.93631285821183,
right,right,13.0,1.0,6.0,right,1.0,4.409965416998602,,speed,space,3.983177624992095,,,,,,0.0,0.0,0.0,1.0,6.0,1.0,13.0,1.0,215.25018512501265,,,,,,,,,215.24376583399132,216.43849125001,217.2412286670005,217.23235183401263,217.23290400000403,217.2412286670005,217.2412286670005,217.2412286670005,,221.6564547920134,,,,,,,,,,,,,,,,,,,,,,,,,,,,,,right,1.0,4.409965416998602,,,,,,sub-187,1,random_dot,119.93631285821183,
left,left,14.0,0.0,7.0,right,0.0,3.2860803329967894,,speed,space,3.983177624992095,,,,,,0.0,0.0,0.0,1.0,7.0,0.0,14.0,0.0,221.66490545900888,,,,,,,,,221.65685395899345,221.75442516698968,222.55670833401385,222.5485942919913,222.54906554199988,222.55670833401385,222.55670833401385,222.55670833401385,,225.84975866699824,,,,,,,,,,,,,,,,,,,,,,,,,,,,,,right,0.0,3.2860803329967894,,,,,,sub-187,1,random_dot,119.93631285821183,
right,right,15.0,1.0,7.0,left,0.0,3.561012499994831,,speed,space,3.983177624992095,,,,,,0.0,0.0,0.0,1.0,7.0,1.0,15.0,1.0,225.85825683400617,,,,,,,,,225.85018237499756,226.1982268750144,226.9905656670162,226.982300417003,226.98276775001432,226.9905656670162,226.9905656670162,226.9905656670162,,230.5563068340125,,,,,,,,,,,,,,,,,,,,,,,,,,,,,,left,0.0,3.561012499994831,,,,,,sub-187,1,random_dot,119.93631285821183,
right,right,16.0,0.0,8.0,left,0.0,4.856168541999068,,speed,space,3.983177624992095,,,,,,0.0,0.0,0.0,1.0,8.0,0.0,16.0,1.0,230.5644200000097,,,,,,,,,230.55671833400265,230.657175291999,231.4566694170062,231.44876291698893,231.4492356670089,231.4566694170062,231.4566694170062,231.4566694170062,,236.3163772090047,,,,,,,,,,,,,,,,,,,,,,,,,,,,,,left,0.0,4.856168541999068,,,,,,sub-187,1,random_dot,119.93631285821183,
left,left,17.0,1.0,8.0,left,1.0,4.054360790993087,,speed,space,3.983177624992095,,,,,,0.0,0.0,0.0,1.0,8.0,1.0,17.0,0.0,236.32509670901345,,,,,,,,,236.3168147089891,237.11511812501703,237.906633000006,237.89873366701067,237.89920449999045,237.906633000006,237.906633000006,237.906633000006,,241.96663837501544,,,,,,,,,,,,,,,,,,,,,,,,,,,,,,left,1.0,4.054360790993087,,,,,,sub-187,1,random_dot,119.93631285821183,
right,right,18.0,0.0,9.0,left,0.0,2.5659619999933057,,speed,space,3.983177624992095,,,,,,0.0,0.0,0.0,1.0,9.0,0.0,18.0,1.0,241.9747094589984,,,,,,,,,241.9670496250037,242.3152174999996,243.10703454201573,243.0991267499921,243.09957795901573,243.10703454201573,243.10703454201573,243.10703454201573,,245.68342000001576,,,,,,,,,,,,,,,,,,,,,,,,,,,,,,left,0.0,2.5659619999933057,,,,,,sub-187,1,random_dot,119.93631285821183,
left,left,19.0,1.0,9.0,right,0.0,3.832758000004105,,speed,space,3.983177624992095,,,,,,0.0,0.0,0.0,1.0,9.0,1.0,19.0,0.0,245.68917037500069,,,,,,,,,245.68384754200812,246.48177533398848,247.2738314169983,247.2656500840094,247.2661197920097,247.2738314169983,247.2738314169983,247.2738314169983,,251.1164996669977,,,,,,,,,,,,,,,,,,,,,,,,,,,,,,right,0.0,3.832758000004105,,,,,,sub-187,1,random_dot,119.93631285821183,
left,left,20.0,0.0,10.0,left,1.0,1.363115584012121,,speed,space,3.983177624992095,,,,,,0.0,0.0,0.0,1.0,10.0,0.0,20.0,0.0,251.12495245900936,,,,,,,,,251.1169083749992,252.3152787500003,253.1071822500089,253.0990845420165,253.0995591249957,253.1071822500089,253.1071822500089,253.1071822500089,,254.47344450000676,,,,,,,,,,,,,,,,,,,,,,,,,,,,,,left,1.0,1.363115584012121,,,,,,sub-187,1,random_dot,119.93631285821183,
right,right,21.0,1.0,10.0,right,1.0,5.589361791993724,,speed,space,3.983177624992095,,,,,,0.0,0.0,0.0,1.0,10.0,1.0,21.0,1.0,254.48151149999467,,,,,,,,,254.4738482089888,255.67148404201723,256.4641003750148,256.4557860000059,256.4562566670065,256.4641003750148,256.4641003750148,256.4641003750148,261.44846545899054,262.057442291989,,,,,,,,,,,,,,,,,,,,,,,,,,,,,,right,1.0,5.589361791993724,,,,,,sub-187,1,random_dot,119.93631285821183,
left,left,22.0,0.0,11.0,left,1.0,0.8780508750060108,,speed,space,3.983177624992095,,,,,,0.0,0.0,0.0,1.0,11.0,0.0,22.0,0.0,262.08173020899994,,,,,,,,,262.0578802500095,263.25495762500213,264.04820158399525,264.0379361670057,264.0383396669931,264.04820158399525,264.04820158399525,264.04820158399525,,264.933363499993,,,,,,,,,,,,,,,,,,,,,,,,,,,,,,left,1.0,0.8780508750060108,,,,,,sub-187,1,random_dot,119.93631285821183,
right,right,23.0,1.0,11.0,right,1.0,1.5524606249819044,,speed,space,3.983177624992095,,,,,,0.0,0.0,0.0,1.0,11.0,1.0,23.0,1.0,264.942001834017,,,,,,,,,264.93377420899924,266.1321414170088,266.9245969170006,266.9162095840147,266.91673545900267,266.9245969170006,266.9245969170006,266.9245969170006,,268.4834313750034,,,,,,,,,,,,,,,,,,,,,,,,,,,,,,right,1.0,1.5524606249819044,,,,,,sub-187,1,random_dot,119.93631285821183,
left,left,24.0,0.0,12.0,right,0.0,2.888313625007868,,speed,space,3.983177624992095,,,,,,0.0,0.0,0.0,1.0,12.0,0.0,24.0,0.0,268.4919212090026,,,,,,,,,268.4838543749938,268.58176175001427,269.374143833993,269.3660539170087,269.3665294169914,269.374143833993,269.374143833993,269.374143833993,,272.267019958992,,,,,,,,,,,,,,,,,,,,,,,,,,,,,,right,0.0,2.888313625007868,,,,,,sub-187,1,random_dot,119.93631285821183,
right,right,25.0,1.0,12.0,left,0.0,5.322281208005734,,speed,space,3.983177624992095,,,,,,0.0,0.0,0.0,1.0,12.0,1.0,25.0,1.0,272.27547608400346,,,,,,,,,272.2674382920086,273.465645749995,274.25751737499377,274.24949562500115,274.2499567499908,274.25751737499377,274.25751737499377,274.25751737499377,279.237779624993,279.5844857089978,,,,,,,,,,,,,,,,,,,,,,,,,,,,,,left,0.0,5.322281208005734,,,,,,sub-187,1,random_dot,119.93631285821183,
left,left,26.0,0.0,13.0,right,0.0,2.597279208013788,,speed,space,3.983177624992095,,,,,,0.0,0.0,0.0,1.0,13.0,0.0,26.0,0.0,279.59367104200646,,,,,,,,,279.5850646670151,279.93227620900143,280.7252456670103,280.71670533399447,280.7172676670016,280.7252456670103,280.7252456670103,280.7252456670103,,283.3495384170092,,,,,,,,,,,,,,,,,,,,,,,,,,,,,,right,0.0,2.597279208013788,,,,,,sub-187,1,random_dot,119.93631285821183,
right,right,27.0,1.0,13.0,left,0.0,5.041620665986557,,speed,space,3.983177624992095,,,,,,0.0,0.0,0.0,1.0,13.0,1.0,27.0,1.0,283.3656602500123,,,,,,,,,283.3499482090119,284.1392109169974,284.94054829201195,284.9329324999999,284.933380625007,284.94054829201195,284.94054829201195,284.94054829201195,289.9211412919976,289.98528616700787,,,,,,,,,,,,,,,,,,,,,,,,,,,,,,left,0.0,5.041620665986557,,,,,,sub-187,1,random_dot,119.93631285821183,
right,right,28.0,0.0,14.0,left,0.0,4.337819083011709,,speed,space,3.983177624992095,,,,,,0.0,0.0,0.0,1.0,14.0,0.0,28.0,1.0,289.9939972090069,,,,,,,,,289.9858610419906,290.08238345899736,290.8746810420125,290.86644945899025,290.86691166699165,290.8746810420125,290.8746810420125,290.8746810420125,,295.2171037090011,,,,,,,,,,,,,,,,,,,,,,,,,,,,,,left,0.0,4.337819083011709,,,,,,sub-187,1,random_dot,119.93631285821183,
left,left,29.0,1.0,14.0,right,0.0,3.53755983299925,,speed,space,3.983177624992095,,,,,,0.0,0.0,0.0,1.0,14.0,1.0,29.0,0.0,295.2253518750076,,,,,,,,,295.21751262500766,296.4158658340166,297.2080331250036,297.1998988749983,297.200368958991,297.2080331250036,297.2080331250036,297.2080331250036,,300.75048162500025,,,,,,,,,,,,,,,,,,,,,,,,,,,,,,right,0.0,3.53755983299925,,,,,,sub-187,1,random_dot,119.93631285821183,
right,right,30.0,0.0,15.0,left,0.0,5.329711166996276,,speed,space,3.983177624992095,,,,,,0.0,0.0,0.0,1.0,15.0,0.0,30.0,1.0,300.75886458400055,,,,,,,,,300.75089450000087,301.54934241701267,302.3413456249982,302.3333410840132,302.3337855839927,302.3413456249982,302.3413456249982,302.3413456249982,307.3325355839916,307.6750041670166,,,,,,,,,,,,,,,,,,,,,,,,,,,,,,left,0.0,5.329711166996276,,,,,,sub-187,1,random_dot,119.93631285821183,
left,left,31.0,1.0,15.0,left,1.0,3.4574772919877432,,speed,space,3.983177624992095,,,,,,0.0,0.0,0.0,1.0,15.0,1.0,31.0,0.0,307.684538875008,,,,,,,,,307.67556416700245,308.022387584002,308.8147781669977,308.8067307920137,308.80720804200973,308.8147781669977,308.8147781669977,308.8147781669977,,312.27454479201697,,,,,,,,,,,,,,,,,,,,,,,,,,,,,,left,1.0,3.4574772919877432,,,,,,sub-187,1,random_dot,119.93631285821183,
right,right,32.0,0.0,16.0,left,0.0,1.6247140839986969,,speed,space,3.983177624992095,,,,,,0.0,0.0,0.0,1.0,16.0,0.0,32.0,1.0,312.29907954199007,,,,,,,,,312.27494912501425,312.62216058399645,313.4155061670172,313.4064737500157,313.4069326670142,313.4155061670172,313.4155061670172,313.4155061670172,,315.0511747089913,,,,,,,,,,,,,,,,,,,,,,,,,,,,,,left,0.0,1.6247140839986969,,,,,,sub-187,1,random_dot,119.93631285821183,
left,left,33.0,1.0,16.0,right,0.0,5.511949666019063,,speed,space,3.983177624992095,,,,,,0.0,0.0,0.0,1.0,16.0,1.0,33.0,0.0,315.0596610420034,,,,,,,,,315.051585875015,315.14886449999176,315.94249899999704,315.9338496249984,315.93450249999296,315.94249899999704,315.94249899999704,315.94249899999704,320.9325715000159,321.457483709004,,,,,,,,,,,,,,,,,,,,,,,,,,,,,,right,0.0,5.511949666019063,,,,,,sub-187,1,random_dot,119.93631285821183,
left,left,34.0,0.0,17.0,left,1.0,2.686333041987382,,speed,space,3.983177624992095,,,,,,0.0,0.0,0.0,1.0,17.0,0.0,34.0,0.0,321.4657997920003,,,,,,,,,321.457907834003,322.6559722090024,323.44881083400105,323.4403389169893,323.44084262501565,323.44881083400105,323.44881083400105,323.44881083400105,,326.14132041699486,,,,,,,,,,,,,,,,,,,,,,,,,,,,,,left,1.0,2.686333041987382,,,,,,sub-187,1,random_dot,119.93631285821183,
right,right,35.0,1.0,17.0,right,1.0,5.33613941600197,,speed,space,3.983177624992095,,,,,,0.0,0.0,0.0,1.0,17.0,1.0,35.0,1.0,326.1498119590105,,,,,,,,,326.1417306670046,326.4897579590033,327.2918270000082,327.28367091700784,327.2841387919907,327.2918270000082,327.2918270000082,327.2918270000082,332.2829930839944,332.6351710839954,,,,,,,,,,,,,,,,,,,,,,,,,,,,,,right,1.0,5.33613941600197,,,,,,sub-187,1,random_dot,119.93631285821183,
right,right,36.0,0.0,18.0,left,0.0,5.329101624985924,,speed,space,3.983177624992095,,,,,,0.0,0.0,0.0,1.0,18.0,0.0,36.0,1.0,332.64386916699004,,,,,,,,,332.63560970898834,332.7329834169941,333.5262649590149,333.5172836249985,333.51790187499137,333.5262649590149,333.5262649590149,333.5262649590149,338.5163872920093,338.8583981250122,,,,,,,,,,,,,,,,,,,,,,,,,,,,,,left,0.0,5.329101624985924,,,,,,sub-187,1,random_dot,119.93631285821183,
left,left,37.0,1.0,18.0,left,1.0,0.9246802910056432,,speed,space,3.983177624992095,,,,,,0.0,0.0,0.0,1.0,18.0,1.0,37.0,0.0,338.8666791249998,,,,,,,,,338.8588145420072,340.0564160000067,340.8581979169976,340.85033983399626,340.85080345900496,340.8581979169976,340.8581979169976,340.8581979169976,,341.7851279170136,,,,,,,,,,,,,,,,,,,,,,,,,,,,,,left,1.0,0.9246802910056432,,,,,,sub-187,1,random_dot,119.93631285821183,
right,right,38.0,0.0,19.0,right,1.0,3.1836941659857985,,speed,space,3.983177624992095,,,,,,0.0,0.0,0.0,1.0,19.0,0.0,38.0,1.0,341.79374345901306,,,,,,,,,341.7855557090079,342.9832064170041,343.77501679200213,343.7673077500076,343.7677557920106,343.77501679200213,343.77501679200213,343.77501679200213,,346.9679705419985,,,,,,,,,,,,,,,,,,,,,,,,,,,,,,right,1.0,3.1836941659857985,,,,,,sub-187,1,random_dot,119.93631285821183,
left,left,39.0,1.0,19.0,right,0.0,5.10081795899896,,speed,space,3.983177624992095,,,,,,0.0,0.0,0.0,1.0,19.0,1.0,39.0,0.0,346.9764352499915,,,,,,,,,346.9683724170027,348.16671054199105,348.9589864590089,348.95076833400526,348.95129916700535,348.9589864590089,348.9589864590089,348.9589864590089,353.9497527499916,354.06903375001275,,,,,,,,,,,,,,,,,,,,,,,,,,,,,,right,0.0,5.10081795899896,,,,,,sub-187,1,random_dot,119.93631285821183,
right,right,40.0,0.0,20.0,right,1.0,4.283714209013851,,speed,space,3.983177624992095,,,,,,0.0,0.0,0.0,1.0,20.0,0.0,40.0,1.0,354.07827850000467,,,,,,,,,354.0696512499999,354.166695708991,354.95903774999897,354.9507937919989,354.9512978339917,354.95903774999897,354.95903774999897,354.95903774999897,,359.2514541670098,,,,,,,,,,,,,,,,,,,,,,,,,,,,,,right,1.0,4.283714209013851,,,,,,sub-187,1,random_dot,119.93631285821183,
left,left,41.0,1.0,20.0,left,1.0,5.381922208005562,,speed,space,3.983177624992095,,,,,,0.0,0.0,0.0,1.0,20.0,1.0,41.0,0.0,359.2599082090019,,,,,,,,,359.2518795840151,360.0497545840044,360.8424277919985,360.83416516700527,360.83474462499726,360.8424277919985,360.8424277919985,360.8424277919985,365.8334574170003,366.23549262501183,,,,,,,,,,,,,,,,,,,,,,,,,,,,,,left,1.0,5.381922208005562,,,,,,sub-187,1,random_dot,119.93631285821183,
right,right,42.0,0.0,21.0,left,0.0,5.4647750000003725,,speed,space,3.983177624992095,,,,,,0.0,0.0,0.0,1.0,21.0,0.0,42.0,1.0,366.2442654170154,,,,,,,,,366.2360190420004,366.33310704200994,367.1253253339965,367.1173069170036,367.117761417001,367.1253253339965,367.1253253339965,367.1253253339965,372.1167670839932,372.5928070000082,,,,,,,,,,,,,,,,,,,,,,,,,,,,,,left,0.0,5.4647750000003725,,,,,,sub-187,1,random_dot,119.93631285821183,
left,left,43.0,1.0,21.0,left,1.0,4.045999750000192,,speed,space,3.983177624992095,,,,,,0.0,0.0,0.0,1.0,21.0,1.0,43.0,0.0,372.6018853340065,,,,,,,,,372.5933013340109,372.6891189170128,373.48287112501566,373.4744286669884,373.47493158400175,373.48287112501566,373.48287112501566,373.48287112501566,,377.5351233750116,,,,,,,,,,,,,,,,,,,,,,,,,,,,,,left,1.0,4.045999750000192,,,,,,sub-187,1,random_dot,119.93631285821183,
left,left,44.0,0.0,22.0,right,0.0,4.496294084005058,,speed,space,3.983177624992095,,,,,,0.0,0.0,0.0,1.0,22.0,0.0,44.0,0.0,377.5437655840069,,,,,,,,,377.5355327090074,378.3337816669955,379.12537520899787,379.11765562501387,379.1181287500076,379.12537520899787,379.12537520899787,379.12537520899787,,383.6262069590157,,,,,,,,,,,,,,,,,,,,,,,,,,,,,,right,0.0,4.496294084005058,,,,,,sub-187,1,random_dot,119.93631285821183,
right,right,45.0,1.0,22.0,right,1.0,4.97590758302249,,speed,space,3.983177624992095,,,,,,0.0,0.0,0.0,1.0,22.0,1.0,45.0,1.0,383.65020233401447,,,,,,,,,383.6265989170061,384.4240261249943,385.21651112500695,385.2073618340073,385.2078451249981,385.21651112500695,385.21651112500695,385.21651112500695,390.2004523749929,390.2026127919962,,,,,,,,,,,,,,,,,,,,,,,,,,,,,,right,1.0,4.97590758302249,,,,,,sub-187,1,random_dot,119.93631285821183,
left,left,46.0,0.0,23.0,left,1.0,2.6830669160117395,,speed,space,3.983177624992095,,,,,,0.0,0.0,0.0,1.0,23.0,0.0,46.0,0.0,390.21146799999406,,,,,,,,,390.2031302090036,390.5505174169957,391.3424655839917,391.33441691700136,391.3348893340153,391.3424655839917,391.3424655839917,391.3424655839917,,394.03526062500896,,,,,,,,,,,,,,,,,,,,,,,,,,,,,,left,1.0,2.6830669160117395,,,,,,sub-187,1,random_dot,119.93631285821183,
right,right,47.0,1.0,23.0,right,1.0,3.646887083014008,,speed,space,3.983177624992095,,,,,,0.0,0.0,0.0,1.0,23.0,1.0,47.0,1.0,394.0440890000027,,,,,,,,,394.0356827499927,394.38400824999553,395.17598495900165,395.167851709004,395.1683112499886,395.17598495900165,395.17598495900165,395.17598495900165,,398.8254719589895,,,,,,,,,,,,,,,,,,,,,,,,,,,,,,right,1.0,3.646887083014008,,,,,,sub-187,1,random_dot,119.93631285821183,
right,right,48.0,0.0,24.0,left,0.0,5.54924216598738,,speed,space,3.983177624992095,,,,,,0.0,0.0,0.0,1.0,24.0,0.0,48.0,1.0,398.8341761250049,,,,,,,,,398.825871042005,398.92438549999497,399.7256576670042,399.717795250006,399.7182662920095,399.7256576670042,399.7256576670042,399.7256576670042,404.7061291249993,405.2859733340156,,,,,,,,,,,,,,,,,,,,,,,,,,,,,,left,0.0,5.54924216598738,,,,,,sub-187,1,random_dot,119.93631285821183,
left,left,49.0,1.0,24.0,left,1.0,4.744561542000156,,speed,space,3.983177624992095,,,,,,0.0,0.0,0.0,1.0,24.0,1.0,49.0,0.0,405.2945142500103,,,,,,,,,405.2863987919991,406.0841395420139,406.8754883340152,406.8679490420036,406.8684262919997,406.8754883340152,406.8754883340152,406.8754883340152,,411.6257109589933,,,,,,,,,,,,,,,,,,,,,,,,,,,,,,left,1.0,4.744561542000156,,,,,,sub-187,1,random_dot,119.93631285821183,
left,left,50.0,0.0,25.0,left,1.0,4.263501041976269,,speed,space,3.983177624992095,,,,,,0.0,0.0,0.0,1.0,25.0,0.0,50.0,0.0,411.63434424999286,,,,,,,,,411.6261071249901,411.9737697920064,412.7762924589915,412.768175959005,412.7686667919916,412.7762924589915,412.7762924589915,412.7762924589915,,417.0424547090079,,,,,,,,,,,,,,,,,,,,,,,,,,,,,,left,1.0,4.263501041976269,,,,,,sub-187,1,random_dot,119.93631285821183,
right,right,51.0,1.0,25.0,right,1.0,3.911707250023028,,speed,space,3.983177624992095,,,,,,0.0,0.0,0.0,1.0,25.0,1.0,51.0,1.0,417.0506170000008,,,,,,,,,417.0428589170042,417.1414661669987,417.94349687499925,417.93475300000864,417.93521204200806,417.94349687499925,417.94349687499925,417.94349687499925,,421.8590999589942,,,,,,,,,,,,,,,,,,,,,,,,,,,,,,right,1.0,3.911707250023028,,,,,,sub-187,1,random_dot,119.93631285821183,
right,right,52.0,0.0,26.0,right,1.0,4.679903915995965,,speed,space,3.983177624992095,,,,,,0.0,0.0,0.0,1.0,26.0,0.0,52.0,1.0,421.8671904169896,,,,,,,,,421.8594960840128,421.9576486250153,422.7497145840025,422.7412484170054,422.7417819999973,422.7497145840025,422.7497145840025,422.7497145840025,,427.43565775000025,,,,,,,,,,,,,,,,,,,,,,,,,,,,,,right,1.0,4.679903915995965,,,,,,sub-187,1,random_dot,119.93631285821183,
left,left,53.0,1.0,26.0,left,1.0,1.5541713749989867,,speed,space,3.983177624992095,,,,,,0.0,0.0,0.0,1.0,26.0,1.0,53.0,0.0,427.4441184590105,,,,,,,,,427.4360760420095,427.78433024999686,428.5767987500003,428.5683744999988,428.5689186670061,428.5767987500003,428.5767987500003,428.5767987500003,,430.1355546670093,,,,,,,,,,,,,,,,,,,,,,,,,,,,,,left,1.0,1.5541713749989867,,,,,,sub-187,1,random_dot,119.93631285821183,
left,left,54.0,0.0,27.0,left,1.0,4.1974802920012735,,speed,space,3.983177624992095,,,,,,0.0,0.0,0.0,1.0,27.0,0.0,54.0,0.0,430.1438852919964,,,,,,,,,430.1359582089936,430.9343976250093,431.7261193750019,431.7182361250161,431.71871216699947,431.7261193750019,431.7261193750019,431.7261193750019,,435.9265057500161,,,,,,,,,,,,,,,,,,,,,,,,,,,,,,left,1.0,4.1974802920012735,,,,,,sub-187,1,random_dot,119.93631285821183,
right,right,55.0,1.0,27.0,left,0.0,3.437413125007879,,speed,space,3.983177624992095,,,,,,0.0,0.0,0.0,1.0,27.0,1.0,55.0,1.0,435.95077687499,,,,,,,,,435.92697866700473,436.0173677089915,436.8101442920161,436.8020539589925,436.8025825000077,436.8101442920161,436.8101442920161,436.8101442920161,,440.2523203339952,,,,,,,,,,,,,,,,,,,,,,,,,,,,,,left,0.0,3.437413125007879,,,,,,sub-187,1,random_dot,119.93631285821183,
left,left,56.0,0.0,28.0,right,0.0,2.552548666979419,,speed,space,3.983177624992095,,,,,,0.0,0.0,0.0,1.0,28.0,0.0,56.0,0.0,440.2608957920165,,,,,,,,,440.2527339170047,440.60119600000326,441.393335834,441.3851777919917,441.3856390840083,441.393335834,441.393335834,441.393335834,,443.9528317090008,,,,,,,,,,,,,,,,,,,,,,,,,,,,,,right,0.0,2.552548666979419,,,,,,sub-187,1,random_dot,119.93631285821183,
right,right,57.0,1.0,28.0,left,0.0,4.779514750000089,,speed,space,3.983177624992095,,,,,,0.0,0.0,0.0,1.0,28.0,1.0,57.0,1.0,443.96144158398965,,,,,,,,,443.9532400839962,445.151500167005,445.943419459014,445.9352646670013,445.935771584016,445.943419459014,445.943419459014,445.943419459014,,450.7265207919991,,,,,,,,,,,,,,,,,,,,,,,,,,,,,,left,0.0,4.779514750000089,,,,,,sub-187,1,random_dot,119.93631285821183,
left,left,58.0,0.0,29.0,right,0.0,5.277476791990921,,speed,space,3.983177624992095,,,,,,0.0,0.0,0.0,1.0,29.0,0.0,58.0,0.0,450.73510237500886,,,,,,,,,450.7269164999889,450.8269264590053,451.6273452500173,451.618827208993,451.619370875007,451.6273452500173,451.6273452500173,451.6273452500173,456.61801400000695,456.90976337500615,,,,,,,,,,,,,,,,,,,,,,,,,,,,,,right,0.0,5.277476791990921,,,,,,sub-187,1,random_dot,119.93631285821183,
right,right,59.0,1.0,29.0,left,0.0,1.9700454999983776,,speed,space,3.983177624992095,,,,,,0.0,0.0,0.0,1.0,29.0,1.0,59.0,1.0,456.9343917090155,,,,,,,,,456.9102805420116,457.7079394999892,458.51006712499657,458.5021523750038,458.5026246670168,458.51006712499657,458.51006712499657,458.51006712499657,,460.4860687920009,,,,,,,,,,,,,,,,,,,,,,,,,,,,,,left,0.0,1.9700454999983776,,,,,,sub-187,1,random_dot,119.93631285821183,
,,0.0,0.0,0.0,,,,,speed,space,3.983177624992095,,,,,,0.0,0.0,0.0,1.0,,,,,,,,,,,,,,,,,,,,,,,,,,,,,,,,,,,,,,,,,,,,,,,,,,,,,,,,,,,,,sub-187,1,random_dot,119.93631285821183,
right,right,0.0,0.0,0.0,right,1.0,3.351522124983603,,accuracy,space,7.996653999987757,,,,,,0.0,1.0,1.0,0.0,0.0,0.0,0.0,1.0,468.5260024589952,,,,,,,,,468.5174619999889,469.3080563750118,470.11043583400897,470.1022637920105,470.102735249995,470.11043583400897,470.11043583400897,470.11043583400897,,473.46946429199306,,,,,,,,,,,,,,,,,,,,,,,460.5018757919897,460.5101141250052,460.5101141250052,468.50965324998833,space,7.996653999987757,,right,1.0,3.351522124983603,,,,,,sub-187,1,random_dot,119.93631285821183,
left,left,1.0,1.0,0.0,right,0.0,3.8664073749969248,,accuracy,space,7.996653999987757,,,,,,0.0,1.0,1.0,0.0,0.0,1.0,1.0,0.0,473.477955209004,,,,,,,,,473.4698871250148,474.2683273750008,475.0598442920018,475.0523021669942,475.05275412500487,475.0598442920018,475.0598442920018,475.0598442920018,,478.9362368750153,,,,,,,,,,,,,,,,,,,,,,,,,,,,,,right,0.0,3.8664073749969248,,,,,,sub-187,1,random_dot,119.93631285821183,
left,left,2.0,0.0,1.0,left,1.0,3.7810951249848586,,accuracy,space,7.996653999987757,,,,,,0.0,1.0,1.0,0.0,1.0,0.0,2.0,0.0,478.9449325000169,,,,,,,,,478.9366389590141,479.035388874996,479.826995875017,479.8189140839968,479.8193888750102,479.826995875017,479.826995875017,479.826995875017,,483.6104297919956,,,,,,,,,,,,,,,,,,,,,,,,,,,,,,left,1.0,3.7810951249848586,,,,,,sub-187,1,random_dot,119.93631285821183,
right,right,3.0,1.0,1.0,right,1.0,4.07525470800465,,accuracy,space,7.996653999987757,,,,,,0.0,1.0,1.0,0.0,1.0,1.0,3.0,1.0,483.6347684999928,,,,,,,,,483.6108484590077,484.8082414590172,485.61002137500327,485.6023022920126,485.6027725840104,485.61002137500327,485.61002137500327,485.61002137500327,,489.696194084012,,,,,,,,,,,,,,,,,,,,,,,,,,,,,,right,1.0,4.07525470800465,,,,,,sub-187,1,random_dot,119.93631285821183,
left,left,4.0,0.0,2.0,left,1.0,2.091086583008291,,accuracy,space,7.996653999987757,,,,,,0.0,1.0,1.0,0.0,2.0,0.0,4.0,0.0,489.7016089170065,,,,,,,,,489.6966122089944,490.4916229590017,491.2941724169941,491.2860227499914,491.286476542009,491.2941724169941,491.2941724169941,491.2941724169941,,493.3974320839916,,,,,,,,,,,,,,,,,,,,,,,,,,,,,,left,1.0,2.091086583008291,,,,,,sub-187,1,random_dot,119.93631285821183,
right,right,5.0,1.0,2.0,left,0.0,5.409284499997739,,accuracy,space,7.996653999987757,,,,,,0.0,1.0,1.0,0.0,2.0,1.0,5.0,1.0,493.4036043749948,,,,,,,,,493.3978687500057,494.1918064170168,494.99366245899,494.9857967499993,494.9862598339969,494.99366245899,494.99366245899,494.99366245899,499.9740604170074,500.409661667014,,,,,,,,,,,,,,,,,,,,,,,,,,,,,,left,0.0,5.409284499997739,,,,,,sub-187,1,random_dot,119.93631285821183,
right,right,6.0,0.0,3.0,right,1.0,5.375782667018939,,accuracy,space,7.996653999987757,,,,,,0.0,1.0,1.0,0.0,3.0,0.0,6.0,1.0,500.4180559590168,,,,,,,,,500.4100645839935,501.60866070899647,502.4015908339934,502.3922403749893,502.392723500001,502.4015908339934,502.4015908339934,502.4015908339934,507.38550237499294,507.78759045898914,,,,,,,,,,,,,,,,,,,,,,,,,,,,,,right,1.0,5.375782667018939,,,,,,sub-187,1,random_dot,119.93631285821183,
left,left,7.0,1.0,3.0,right,0.0,4.544372374977684,,accuracy,space,7.996653999987757,,,,,,0.0,1.0,1.0,0.0,3.0,1.0,7.0,0.0,507.7963716250088,,,,,,,,,507.7881130420137,508.5854680420016,509.377822459006,509.36942220901255,509.3699531670136,509.377822459006,509.377822459006,509.377822459006,,513.9271943749918,,,,,,,,,,,,,,,,,,,,,,,,,,,,,,right,0.0,4.544372374977684,,,,,,sub-187,1,random_dot,119.93631285821183,
right,right,8.0,0.0,4.0,left,0.0,5.445431707979878,,accuracy,space,7.996653999987757,,,,,,0.0,1.0,1.0,0.0,4.0,0.0,8.0,1.0,513.9356591670075,,,,,,,,,513.9276008750021,514.0183501669962,514.810791625001,514.8027790420165,514.8032322500076,514.810791625001,514.810791625001,514.810791625001,519.7917017090076,520.260931249999,,,,,,,,,,,,,,,,,,,,,,,,,,,,,,left,0.0,5.445431707979878,,,,,,sub-187,1,random_dot,119.93631285821183,
left,left,9.0,1.0,4.0,left,1.0,3.562939374998677,,accuracy,space,7.996653999987757,,,,,,0.0,1.0,1.0,0.0,4.0,1.0,9.0,0.0,520.2710777090106,,,,,,,,,520.261447375,521.0589254999941,521.8612447920023,521.8528993340151,521.8533683750138,521.8612447920023,521.8612447920023,521.8612447920023,,525.4275635840022,,,,,,,,,,,,,,,,,,,,,,,,,,,,,,left,1.0,3.562939374998677,,,,,,sub-187,1,random_dot,119.93631285821183,
right,right,10.0,0.0,5.0,right,1.0,1.0331898750155233,,accuracy,space,7.996653999987757,,,,,,0.0,1.0,1.0,0.0,5.0,0.0,10.0,1.0,525.4360912920092,,,,,,,,,525.4279703340144,526.2256162500125,527.0275194169953,527.0196710420132,527.0201277919987,527.0275194169953,527.0275194169953,527.0275194169953,,528.0703984170104,,,,,,,,,,,,,,,,,,,,,,,,,,,,,,right,1.0,1.0331898750155233,,,,,,sub-187,1,random_dot,119.93631285821183,
left,left,11.0,1.0,5.0,right,0.0,5.466290584008675,,accuracy,space,7.996653999987757,,,,,,0.0,1.0,1.0,0.0,5.0,1.0,11.0,0.0,528.078926459013,,,,,,,,,528.0708320419944,528.169165416999,528.9614424169995,528.9531894169922,528.9536576670071,528.9614424169995,528.9614424169995,528.9614424169995,533.9523898340121,534.4377793339954,,,,,,,,,,,,,,,,,,,,,,,,,,,,,,right,0.0,5.466290584008675,,,,,,sub-187,1,random_dot,119.93631285821183,
left,left,12.0,0.0,6.0,left,1.0,4.007780874992022,,accuracy,space,7.996653999987757,,,,,,0.0,1.0,1.0,0.0,6.0,0.0,12.0,0.0,534.4464523339993,,,,,,,,,534.43823345899,535.6359059590031,536.428027417016,536.4200723750109,536.4205470840097,536.428027417016,536.428027417016,536.428027417016,,540.4477288339986,,,,,,,,,,,,,,,,,,,,,,,,,,,,,,left,1.0,4.007780874992022,,,,,,sub-187,1,random_dot,119.93631285821183,
right,right,13.0,1.0,6.0,left,0.0,5.446728625014657,,accuracy,space,7.996653999987757,,,,,,0.0,1.0,1.0,0.0,6.0,1.0,13.0,1.0,540.4687452090147,,,,,,,,,540.4481359170168,541.6422095840098,542.4441206670017,542.4363153750019,542.4367818339961,542.4441206670017,542.4441206670017,542.4441206670017,547.4252391670016,547.8940308750025,,,,,,,,,,,,,,,,,,,,,,,,,,,,,,left,0.0,5.446728625014657,,,,,,sub-187,1,random_dot,119.93631285821183,
left,left,14.0,0.0,7.0,right,0.0,2.1275262919953093,,accuracy,space,7.996653999987757,,,,,,0.0,1.0,1.0,0.0,7.0,0.0,14.0,0.0,547.9022225420049,,,,,,,,,547.8944452500145,549.0927452500036,549.8852943340025,549.8768258340133,549.8772859169985,549.8852943340025,549.8852943340025,549.8852943340025,,552.0206980840012,,,,,,,,,,,,,,,,,,,,,,,,,,,,,,right,0.0,2.1275262919953093,,,,,,sub-187,1,random_dot,119.93631285821183,
right,right,15.0,1.0,7.0,right,1.0,5.3257583750237245,,accuracy,space,7.996653999987757,,,,,,0.0,1.0,1.0,0.0,7.0,1.0,15.0,1.0,552.0290650840034,,,,,,,,,552.0211287499988,552.1193821250054,552.9110349169932,552.9032864170149,552.9037485000154,552.9110349169932,552.9110349169932,552.9110349169932,557.9026142919902,558.2434502920078,,,,,,,,,,,,,,,,,,,,,,,,,,,,,,right,1.0,5.3257583750237245,,,,,,sub-187,1,random_dot,119.93631285821183,
left,left,16.0,0.0,8.0,right,0.0,1.8983394170063548,,accuracy,space,7.996653999987757,,,,,,0.0,1.0,1.0,0.0,8.0,0.0,16.0,0.0,558.2517024170083,,,,,,,,,558.2438522090088,559.443661458994,560.2448632919986,560.2368343750131,560.2372887090023,560.2448632919986,560.2448632919986,560.2448632919986,,562.1701578340144,,,,,,,,,,,,,,,,,,,,,,,,,,,,,,right,0.0,1.8983394170063548,,,,,,sub-187,1,random_dot,119.93631285821183,
right,right,17.0,1.0,8.0,left,0.0,5.509860000020126,,accuracy,space,7.996653999987757,,,,,,0.0,1.0,1.0,0.0,8.0,1.0,17.0,1.0,562.1862758340139,,,,,,,,,562.1705526669975,563.360235375003,564.1613526669971,564.1534253749996,564.1538840419962,564.1613526669971,564.1613526669971,564.1613526669971,569.1529172500013,569.678036583995,,,,,,,,,,,,,,,,,,,,,,,,,,,,,,left,0.0,5.509860000020126,,,,,,sub-187,1,random_dot,119.93631285821183,
right,right,18.0,0.0,9.0,right,1.0,5.584094624995487,,accuracy,space,7.996653999987757,,,,,,0.0,1.0,1.0,0.0,9.0,0.0,18.0,1.0,569.6862294999883,,,,,,,,,569.6784398340096,570.4762025419914,571.2779647090065,571.2702049590007,571.2706966249971,571.2779647090065,571.2779647090065,571.2779647090065,576.2584130000032,576.8707478750148,,,,,,,,,,,,,,,,,,,,,,,,,,,,,,right,1.0,5.584094624995487,,,,,,sub-187,1,random_dot,119.93631285821183,
left,left,19.0,1.0,9.0,right,0.0,2.300199374993099,,accuracy,space,7.996653999987757,,,,,,0.0,1.0,1.0,0.0,9.0,1.0,19.0,0.0,576.8791445840034,,,,,,,,,576.8711507499975,576.9696977919957,577.7622462919971,577.7536959169956,577.7541757090075,577.7622462919971,577.7622462919971,577.7622462919971,,580.0711209590081,,,,,,,,,,,,,,,,,,,,,,,,,,,,,,right,0.0,2.300199374993099,,,,,,sub-187,1,random_dot,119.93631285821183,
left,left,20.0,0.0,10.0,left,1.0,6.068483208015095,,accuracy,space,7.996653999987757,,,,,,0.0,1.0,1.0,0.0,10.0,0.0,20.0,0.0,580.07967520901,,,,,,,,,580.0715418340114,581.269508833997,582.0615212919947,582.0536732499895,582.0541219589941,582.0615212919947,582.0615212919947,582.0615212919947,587.0419180839963,588.1381609590026,,,,,,,,,,,,,,,,,,,,,,,,,,,,,,left,1.0,6.068483208015095,,,,,,sub-187,1,random_dot,119.93631285821183,
right,right,21.0,1.0,10.0,right,1.0,4.366538208007114,,accuracy,space,7.996653999987757,,,,,,0.0,1.0,1.0,0.0,10.0,1.0,21.0,1.0,588.1467639170005,,,,,,,,,588.1385859170114,588.2364918749954,589.0291319169919,589.02056574999,589.0211199170153,589.0291319169919,589.0291319169919,589.0291319169919,,593.404623792012,,,,,,,,,,,,,,,,,,,,,,,,,,,,,,right,1.0,4.366538208007114,,,,,,sub-187,1,random_dot,119.93631285821183,
left,left,22.0,0.0,11.0,right,0.0,3.106678792013554,,accuracy,space,7.996653999987757,,,,,,0.0,1.0,1.0,0.0,11.0,0.0,22.0,0.0,593.4131243340089,,,,,,,,,593.4050583750068,594.2033799590135,594.9965614590037,594.9876825000101,594.9882068340085,594.9965614590037,594.9965614590037,594.9965614590037,,598.1054473340046,,,,,,,,,,,,,,,,,,,,,,,,,,,,,,right,0.0,3.106678792013554,,,,,,sub-187,1,random_dot,119.93631285821183,
right,right,23.0,1.0,11.0,right,1.0,1.5850484580150803,,accuracy,space,7.996653999987757,,,,,,0.0,1.0,1.0,0.0,11.0,1.0,23.0,1.0,598.1137940420012,,,,,,,,,598.1058480000065,598.2034577089944,598.9953894590144,598.9873770000122,598.9878391670063,598.9953894590144,598.9953894590144,598.9953894590144,,600.587858792016,,,,,,,,,,,,,,,,,,,,,,,,,,,,,,right,1.0,1.5850484580150803,,,,,,sub-187,1,random_dot,119.93631285821183,
left,left,24.0,0.0,12.0,left,1.0,3.186056834005285,,accuracy,space,7.996653999987757,,,,,,0.0,1.0,1.0,0.0,12.0,0.0,24.0,0.0,600.5965176250029,,,,,,,,,600.588287459017,600.9367106250138,601.7294198750169,601.7209209589928,601.7215623340162,601.7294198750169,601.7294198750169,601.7294198750169,,604.9213698340172,,,,,,,,,,,,,,,,,,,,,,,,,,,,,,left,1.0,3.186056834005285,,,,,,sub-187,1,random_dot,119.93631285821183,
right,right,25.0,1.0,12.0,left,0.0,5.908614749991102,,accuracy,space,7.996653999987757,,,,,,0.0,1.0,1.0,0.0,12.0,1.0,25.0,1.0,604.9298488750064,,,,,,,,,604.9217714169936,605.0202868749911,605.8120508340071,605.8040312090016,605.8044905000133,605.8120508340071,605.8120508340071,605.8120508340071,610.7929565419909,611.7231635419885,,,,,,,,,,,,,,,,,,,,,,,,,,,,,,left,0.0,5.908614749991102,,,,,,sub-187,1,random_dot,119.93631285821183,
left,left,26.0,0.0,13.0,left,1.0,3.191871415998321,,accuracy,space,7.996653999987757,,,,,,0.0,1.0,1.0,0.0,13.0,0.0,26.0,0.0,611.7316328340094,,,,,,,,,611.7236403750139,612.5201598750136,613.312709958991,613.3044004589901,613.3049618749938,613.312709958991,613.312709958991,613.312709958991,,616.5118169170164,,,,,,,,,,,,,,,,,,,,,,,,,,,,,,left,1.0,3.191871415998321,,,,,,sub-187,1,random_dot,119.93631285821183,
right,right,27.0,1.0,13.0,right,1.0,4.989650792005705,,accuracy,space,7.996653999987757,,,,,,0.0,1.0,1.0,0.0,13.0,1.0,27.0,1.0,616.5198845840059,,,,,,,,,616.5122305839905,616.6091551250138,617.4028148750076,617.3942448339949,617.3947183339915,617.4028148750076,617.4028148750076,617.4028148750076,622.392655625008,622.3946947919903,,,,,,,,,,,,,,,,,,,,,,,,,,,,,,right,1.0,4.989650792005705,,,,,,sub-187,1,random_dot,119.93631285821183,
right,right,28.0,0.0,14.0,left,0.0,1.2902618329972029,,accuracy,space,7.996653999987757,,,,,,0.0,1.0,1.0,0.0,14.0,0.0,28.0,1.0,622.4031269169936,,,,,,,,,622.3950964999967,623.5938075000013,624.3864070420095,624.3772084590164,624.3777051669895,624.3864070420095,624.3864070420095,624.3864070420095,,625.6789756669896,,,,,,,,,,,,,,,,,,,,,,,,,,,,,,left,0.0,1.2902618329972029,,,,,,sub-187,1,random_dot,119.93631285821183,
left,left,29.0,1.0,14.0,left,1.0,3.895072374987649,,accuracy,space,7.996653999987757,,,,,,0.0,1.0,1.0,0.0,14.0,1.0,29.0,0.0,625.7032584589906,,,,,,,,,625.679379542009,626.4771873340069,627.2787769999995,627.2709782920138,627.2714520420122,627.2787769999995,627.2787769999995,627.2787769999995,,631.1787424169888,,,,,,,,,,,,,,,,,,,,,,,,,,,,,,left,1.0,3.895072374987649,,,,,,sub-187,1,random_dot,119.93631285821183,
left,left,30.0,0.0,15.0,left,1.0,3.531452541006729,,accuracy,space,7.996653999987757,,,,,,0.0,1.0,1.0,0.0,15.0,0.0,30.0,0.0,631.1868390419986,,,,,,,,,631.1791402499948,631.275811917003,632.0695799170062,632.0594292920141,632.0599225420156,632.0695799170062,632.0695799170062,632.0695799170062,,635.605386375013,,,,,,,,,,,,,,,,,,,,,,,,,,,,,,left,1.0,3.531452541006729,,,,,,sub-187,1,random_dot,119.93631285821183,
right,right,31.0,1.0,15.0,right,1.0,2.540969416993903,,accuracy,space,7.996653999987757,,,,,,0.0,1.0,1.0,0.0,15.0,1.0,31.0,1.0,635.613906500017,,,,,,,,,635.6058003340149,635.953965875,636.7463731669995,636.7379125840089,636.7384454169951,636.7463731669995,636.7463731669995,636.7463731669995,,639.2993782089907,,,,,,,,,,,,,,,,,,,,,,,,,,,,,,right,1.0,2.540969416993903,,,,,,sub-187,1,random_dot,119.93631285821183,
right,right,32.0,0.0,16.0,right,1.0,1.5216613750089891,,accuracy,space,7.996653999987757,,,,,,0.0,1.0,1.0,0.0,16.0,0.0,32.0,1.0,639.3055877090083,,,,,,,,,639.2997811670066,640.4941754589963,641.2869230840006,641.2782332919887,641.2787159169966,641.2869230840006,641.2869230840006,641.2869230840006,,642.812349749991,,,,,,,,,,,,,,,,,,,,,,,,,,,,,,right,1.0,1.5216613750089891,,,,,,sub-187,1,random_dot,119.93631285821183,
left,left,33.0,1.0,16.0,right,0.0,1.174001790990587,,accuracy,space,7.996653999987757,,,,,,0.0,1.0,1.0,0.0,16.0,1.0,33.0,0.0,642.8204310000001,,,,,,,,,642.8127535840031,643.6107571670145,644.4033768340014,644.3940839999996,644.3945802090166,644.4033768340014,644.4033768340014,644.4033768340014,,645.5796550840023,,,,,,,,,,,,,,,,,,,,,,,,,,,,,,right,0.0,1.174001790990587,,,,,,sub-187,1,random_dot,119.93631285821183,
right,right,34.0,0.0,17.0,right,1.0,0.8330513749970123,,accuracy,space,7.996653999987757,,,,,,0.0,1.0,1.0,0.0,17.0,0.0,34.0,1.0,645.603469499998,,,,,,,,,645.5800732919888,646.3772720420093,647.1793117090128,647.1712711250002,647.1717385000084,647.1793117090128,647.1793117090128,647.1793117090128,,648.0219889589935,,,,,,,,,,,,,,,,,,,,,,,,,,,,,,right,1.0,0.8330513749970123,,,,,,sub-187,1,random_dot,119.93631285821183,
left,left,35.0,1.0,17.0,left,1.0,5.243789416010259,,accuracy,space,7.996653999987757,,,,,,0.0,1.0,1.0,0.0,17.0,1.0,35.0,0.0,648.0306188339891,,,,,,,,,648.0224003340118,649.2207003750082,650.0122041669965,650.0045278749894,650.0049975000147,650.0122041669965,650.0122041669965,650.0122041669965,654.9928561669949,655.2624881250085,,,,,,,,,,,,,,,,,,,,,,,,,,,,,,left,1.0,5.243789416010259,,,,,,sub-187,1,random_dot,119.93631285821183,
right,right,36.0,0.0,18.0,right,1.0,5.059724207996624,,accuracy,space,7.996653999987757,,,,,,0.0,1.0,1.0,0.0,18.0,0.0,36.0,1.0,655.2709868340171,,,,,,,,,655.2629035419959,656.0602136669913,656.8536970840069,656.8431608749961,656.8436048750009,656.8536970840069,656.8536970840069,656.8536970840069,661.8372965840099,661.922749624995,,,,,,,,,,,,,,,,,,,,,,,,,,,,,,right,1.0,5.059724207996624,,,,,,sub-187,1,random_dot,119.93631285821183,
left,left,37.0,1.0,18.0,right,0.0,2.94957174998126,,accuracy,space,7.996653999987757,,,,,,0.0,1.0,1.0,0.0,18.0,1.0,37.0,0.0,661.9313390000025,,,,,,,,,661.9231830839999,662.2709440840117,663.0623709170031,663.0547690420062,663.055246917007,663.0623709170031,663.0623709170031,663.0623709170031,,666.0223920840072,,,,,,,,,,,,,,,,,,,,,,,,,,,,,,right,0.0,2.94957174998126,,,,,,sub-187,1,random_dot,119.93631285821183,
right,right,38.0,0.0,19.0,right,1.0,3.010990042006597,,accuracy,space,7.996653999987757,,,,,,0.0,1.0,1.0,0.0,19.0,0.0,38.0,1.0,666.0280596670054,,,,,,,,,666.0228090840101,666.3710384590086,667.1633894169936,667.1549102920108,667.1555307090166,667.1633894169936,667.1633894169936,667.1633894169936,,670.179212499992,,,,,,,,,,,,,,,,,,,,,,,,,,,,,,right,1.0,3.010990042006597,,,,,,sub-187,1,random_dot,119.93631285821183,
left,left,39.0,1.0,19.0,right,0.0,3.962489957979415,,accuracy,space,7.996653999987757,,,,,,0.0,1.0,1.0,0.0,19.0,1.0,39.0,0.0,670.1875526249933,,,,,,,,,670.1796135420154,670.5273264590069,671.3205141669896,671.3102333339921,671.3107652089966,671.3205141669896,671.3205141669896,671.3205141669896,,675.2891495840158,,,,,,,,,,,,,,,,,,,,,,,,,,,,,,right,0.0,3.962489957979415,,,,,,sub-187,1,random_dot,119.93631285821183,
left,left,40.0,0.0,20.0,left,1.0,5.379770458996063,,accuracy,space,7.996653999987757,,,,,,0.0,1.0,1.0,0.0,20.0,0.0,40.0,0.0,675.2977670420078,,,,,,,,,675.2895599589974,676.0877483749937,676.8801422090037,676.8716177500028,676.8720935840101,676.8801422090037,676.8801422090037,676.8801422090037,681.8710540840111,682.2633838749898,,,,,,,,,,,,,,,,,,,,,,,,,,,,,,left,1.0,5.379770458996063,,,,,,sub-187,1,random_dot,119.93631285821183,
right,right,41.0,1.0,20.0,left,0.0,2.683669250021921,,accuracy,space,7.996653999987757,,,,,,0.0,1.0,1.0,0.0,20.0,1.0,41.0,1.0,682.2874121670029,,,,,,,,,682.2638157090114,682.36150954201,683.164094000007,683.1552180419967,683.1558362090145,683.164094000007,683.164094000007,683.164094000007,,685.8559273749997,,,,,,,,,,,,,,,,,,,,,,,,,,,,,,left,0.0,2.683669250021921,,,,,,sub-187,1,random_dot,119.93631285821183,
left,left,42.0,0.0,21.0,right,0.0,1.0386182499933057,,accuracy,space,7.996653999987757,,,,,,0.0,1.0,1.0,0.0,21.0,0.0,42.0,0.0,685.864439500001,,,,,,,,,685.8563375000085,687.0545567919908,687.8460715420078,687.8384506670118,687.8389322090079,687.8460715420078,687.8460715420078,687.8460715420078,,688.8893912089989,,,,,,,,,,,,,,,,,,,,,,,,,,,,,,right,0.0,1.0386182499933057,,,,,,sub-187,1,random_dot,119.93631285821183,
right,right,43.0,1.0,21.0,right,1.0,1.9293345420155676,,accuracy,space,7.996653999987757,,,,,,0.0,1.0,1.0,0.0,21.0,1.0,43.0,1.0,688.8979721670039,,,,,,,,,688.8897922920005,689.2378687500022,690.0298909170087,690.0218094589945,690.0222757500014,690.0298909170087,690.0298909170087,690.0298909170087,,691.9629592499987,,,,,,,,,,,,,,,,,,,,,,,,,,,,,,right,1.0,1.9293345420155676,,,,,,sub-187,1,random_dot,119.93631285821183,
left,left,44.0,0.0,22.0,left,1.0,1.0948660419962837,,accuracy,space,7.996653999987757,,,,,,0.0,1.0,1.0,0.0,22.0,0.0,44.0,0.0,691.971574708994,,,,,,,,,691.9633515000169,692.0612028749892,692.8541637090093,692.8449494590168,692.845409083995,692.8541637090093,692.8541637090093,692.8541637090093,,693.9561092499935,,,,,,,,,,,,,,,,,,,,,,,,,,,,,,left,1.0,1.0948660419962837,,,,,,sub-187,1,random_dot,119.93631285821183,
right,right,45.0,1.0,22.0,right,1.0,5.303151000000071,,accuracy,space,7.996653999987757,,,,,,0.0,1.0,1.0,0.0,22.0,1.0,45.0,1.0,693.9649903340032,,,,,,,,,693.9565189169953,694.3046491669957,695.0968259169895,695.0885940839944,695.0891107920033,695.0968259169895,695.0968259169895,695.0968259169895,700.0880306249892,700.4062248340051,,,,,,,,,,,,,,,,,,,,,,,,,,,,,,right,1.0,5.303151000000071,,,,,,sub-187,1,random_dot,119.93631285821183,
left,left,46.0,0.0,23.0,right,0.0,5.18651274999138,,accuracy,space,7.996653999987757,,,,,,0.0,1.0,1.0,0.0,23.0,0.0,46.0,0.0,700.4149471670098,,,,,,,,,700.4066645840066,701.204798583989,701.9964123750106,701.9886203340138,701.9890880839957,701.9964123750106,701.9964123750106,701.9964123750106,706.9769793339947,707.1900264589931,,,,,,,,,,,,,,,,,,,,,,,,,,,,,,right,0.0,5.18651274999138,,,,,,sub-187,1,random_dot,119.93631285821183,
right,right,47.0,1.0,23.0,right,1.0,5.485550625016913,,accuracy,space,7.996653999987757,,,,,,0.0,1.0,1.0,0.0,23.0,1.0,47.0,1.0,707.1986851670081,,,,,,,,,707.1904428339913,707.9881751250068,708.7802053340129,708.7720372499898,708.772587125015,708.7802053340129,708.7802053340129,708.7802053340129,713.7604200420028,714.2735217500012,,,,,,,,,,,,,,,,,,,,,,,,,,,,,,right,1.0,5.485550625016913,,,,,,sub-187,1,random_dot,119.93631285821183,
right,right,48.0,0.0,24.0,right,1.0,4.740874040988274,,accuracy,space,7.996653999987757,,,,,,0.0,1.0,1.0,0.0,24.0,0.0,48.0,1.0,714.2824252920109,,,,,,,,,714.2740479590138,715.0716725419916,715.8638156669913,715.8555299589934,715.8559802090167,715.8638156669913,715.8638156669913,715.8638156669913,,720.6069101250032,,,,,,,,,,,,,,,,,,,,,,,,,,,,,,right,1.0,4.740874040988274,,,,,,sub-187,1,random_dot,119.93631285821183,
left,left,49.0,1.0,24.0,left,1.0,4.992161000001943,,accuracy,space,7.996653999987757,,,,,,0.0,1.0,1.0,0.0,24.0,1.0,49.0,0.0,720.6155248750001,,,,,,,,,720.6073123340029,720.9550357919943,721.7468337090104,721.7388379999902,721.739294125,721.7468337090104,721.7468337090104,721.7468337090104,726.7271687499888,726.7502947500034,,,,,,,,,,,,,,,,,,,,,,,,,,,,,,left,1.0,4.992161000001943,,,,,,sub-187,1,random_dot,119.93631285821183,
right,right,50.0,0.0,25.0,left,0.0,2.7513239580148365,,accuracy,space,7.996653999987757,,,,,,0.0,1.0,1.0,0.0,25.0,0.0,50.0,1.0,726.7564901669975,,,,,,,,,726.7507203750138,727.0946136669954,727.8871940000099,727.8789750419965,727.8794556669891,727.8871940000099,727.8871940000099,727.8871940000099,,730.6506558340043,,,,,,,,,,,,,,,,,,,,,,,,,,,,,,left,0.0,2.7513239580148365,,,,,,sub-187,1,random_dot,119.93631285821183,
left,left,51.0,1.0,25.0,left,1.0,4.3811271250015125,,accuracy,space,7.996653999987757,,,,,,0.0,1.0,1.0,0.0,25.0,1.0,51.0,0.0,730.6561119589896,,,,,,,,,730.6510846670135,730.7478196670127,731.5473085840058,731.5390715000103,731.5395919590082,731.5473085840058,731.5473085840058,731.5473085840058,,735.9307341669919,,,,,,,,,,,,,,,,,,,,,,,,,,,,,,left,1.0,4.3811271250015125,,,,,,sub-187,1,random_dot,119.93631285821183,
right,right,52.0,0.0,26.0,right,1.0,1.7349962079897523,,accuracy,space,7.996653999987757,,,,,,0.0,1.0,1.0,0.0,26.0,0.0,52.0,1.0,735.9548764170031,,,,,,,,,735.9311460840108,736.7280315840035,737.5212842090114,737.5109927919984,737.5114797090064,737.5212842090114,737.5212842090114,737.5212842090114,,739.2635350839992,,,,,,,,,,,,,,,,,,,,,,,,,,,,,,right,1.0,1.7349962079897523,,,,,,sub-187,1,random_dot,119.93631285821183,
left,left,53.0,1.0,26.0,right,0.0,1.395745458023157,,accuracy,space,7.996653999987757,,,,,,0.0,1.0,1.0,0.0,26.0,1.0,53.0,0.0,739.2716212090163,,,,,,,,,739.2639490840083,740.0619708340091,740.854344249994,740.8459003749886,740.8463922500086,740.854344249994,740.854344249994,740.854344249994,,742.2567103340116,,,,,,,,,,,,,,,,,,,,,,,,,,,,,,right,0.0,1.395745458023157,,,,,,sub-187,1,random_dot,119.93631285821183,
right,right,54.0,0.0,27.0,left,0.0,3.4814304579922464,,accuracy,space,7.996653999987757,,,,,,0.0,1.0,1.0,0.0,27.0,0.0,54.0,1.0,742.26520324999,,,,,,,,,742.2571132089943,742.6053002499975,743.3972791669948,743.3893207499932,743.3897797499958,743.3972791669948,743.3972791669948,743.3972791669948,,746.8810741250054,,,,,,,,,,,,,,,,,,,,,,,,,,,,,,left,0.0,3.4814304579922464,,,,,,sub-187,1,random_dot,119.93631285821183,
left,left,55.0,1.0,27.0,left,1.0,5.536490958998911,,accuracy,space,7.996653999987757,,,,,,0.0,1.0,1.0,0.0,27.0,1.0,55.0,0.0,746.90490683401,,,,,,,,,746.8814949170046,747.6788369170099,748.4810868340137,748.4727969169908,748.473312334012,748.4810868340137,748.4810868340137,748.4810868340137,753.4718322920089,754.0235938749975,,,,,,,,,,,,,,,,,,,,,,,,,,,,,,left,1.0,5.536490958998911,,,,,,sub-187,1,random_dot,119.93631285821183,
right,right,56.0,0.0,28.0,right,1.0,1.4930728339822965,,accuracy,space,7.996653999987757,,,,,,0.0,1.0,1.0,0.0,28.0,0.0,56.0,1.0,754.0322028340015,,,,,,,,,754.024026250001,754.8222044169961,755.6141481249942,755.6060262919927,755.6064919999917,755.6141481249942,755.6141481249942,755.6141481249942,,757.1136767090065,,,,,,,,,,,,,,,,,,,,,,,,,,,,,,right,1.0,1.4930728339822965,,,,,,sub-187,1,random_dot,119.93631285821183,
left,left,57.0,1.0,28.0,left,1.0,5.617224499990698,,accuracy,space,7.996653999987757,,,,,,0.0,1.0,1.0,0.0,28.0,1.0,57.0,0.0,757.121743124997,,,,,,,,,757.1140709590109,758.3120713339886,759.1138452500163,759.106052084011,759.1065303749929,759.1138452500163,759.1138452500163,759.1138452500163,764.0942636670079,764.7410068339959,,,,,,,,,,,,,,,,,,,,,,,,,,,,,,left,1.0,5.617224499990698,,,,,,sub-187,1,random_dot,119.93631285821183,
right,right,58.0,0.0,29.0,right,1.0,5.294109708018368,,accuracy,space,7.996653999987757,,,,,,0.0,1.0,1.0,0.0,29.0,0.0,58.0,1.0,764.7492377500166,,,,,,,,,764.7414466670016,765.9386554170051,766.7310143749928,766.7228482920036,766.723303375009,766.7310143749928,766.7310143749928,766.7310143749928,771.7110759589996,772.0303636250028,,,,,,,,,,,,,,,,,,,,,,,,,,,,,,right,1.0,5.294109708018368,,,,,,sub-187,1,random_dot,119.93631285821183,
left,left,59.0,1.0,29.0,left,1.0,0.8884007500018924,,accuracy,space,7.996653999987757,,,,,,0.0,1.0,1.0,0.0,29.0,1.0,59.0,0.0,772.0385133750096,,,,,,,,,772.0307673749921,772.1290115420124,772.9312865000102,772.9230162090098,772.9234870840155,772.9312865000102,772.9312865000102,772.9312865000102,,773.8236837089935,,,,,,,,,,,,,,,,,,,,,,,,,,,,,,left,1.0,0.8884007500018924,,,,,,sub-187,1,random_dot,119.93631285821183,
,,1.0,1.0,0.0,,,,,accuracy,space,7.996653999987757,,,,,,0.0,1.0,1.0,0.0,,,,,,,,,,,,,,,,,,,,,,,,,,,,,,,,,,,,,,,,,,,,,,,,,,,,,,,,,,,,,sub-187,1,random_dot,119.93631285821183,
,,,,,,,,,,,,,,,,,,,,,,,,,,,,,,,,,,,,,,,,,,,,,,,,,,,,,,,,,,,,,,,,,,,,,,,,,,,,,773.8301060420054,773.8393612090149,778.8272095420107,778.8230289170169,sub-187,1,random_dot,119.93631285821183,
