direction,corrAns,randomInstr,practice_trials.thisRepN,practice_trials.thisTrialN,practice_trials.thisN,practice_trials.thisIndex,instr_trials.thisRepN,instr_trials.thisTrialN,instr_trials.thisN,instr_trials.thisIndex,test_trials.thisRepN,test_trials.thisTrialN,test_trials.thisN,test_trials.thisIndex,thisRow.t,notes,general_instruction.started,textGeneralInstr.started,respGeneralInstr.started,general_instruction.stopped,respGeneralInstr.keys,respGeneralInstr.rt,respGeneralInstr.duration,ITI.started,fixcross.started,fixcross.stopped,ITI.stopped,dots.started,backgroundDots.started,stimulusDots.started,respDots.started,stimulusDots.stopped,dots.stopped,respDots.keys,respDots.corr,respDots.rt,respDots.duration,feedback.started,textFeedback.started,feedback.stopped,textFeedback.stopped,info.started,textInfo.started,keyRespInfo.started,info.stopped,keyRespInfo.keys,keyRespInfo.rt,keyRespInfo.duration,test_instruction.started,textTestInstr.started,respTestInstr.started,test_instruction.stopped,respTestInstr.keys,respTestInstr.rt,respTestInstr.duration,random_instruction.started,textRandomInstr.started,respRandomInstr.started,random_instruction.stopped,respRandomInstr.keys,respRandomInstr.rt,respRandomInstr.duration,goodbye.started,textGoodbye.started,goodbye.stopped,participant,session,expName,frameRate,Unnamed: 73
,,,,,,,,,,,,,,,,,0.0073565000000144,0.024415800000014,0.024415800000014,102.41268150000002,space,135.60527579999996,,,,,,,,,,,,,,,,,,,,,,,,,,,,,,,,,,,,,,,,,,,,sub-030,2.0,random_dot,60.02343314829857,
left,left,,0.0,0.0,0.0,0.0,,,,,,,,,102.4895975,,,,,,,,,102.47768510000004,102.52449080000002,103.33037310000005,103.30907610000004,103.30913550000002,103.33037310000005,103.33037310000005,103.33037310000005,108.3099588,145.0737535,right,0.0,74.95780189999999,,145.07510710000005,145.1092339,145.59013170000003,,,,,,,,,,,,,,,,,,,,,,,,,,sub-030,2.0,random_dot,60.02343314829857,
right,right,,0.0,1.0,1.0,1.0,,,,,,,,,145.6064407,,,,,,,,,145.5914032,146.3896249,147.1944305,147.1744203,147.1744797,147.1944305,147.1944305,147.1944305,152.1906161,160.79365790000003,right,1.0,46.8100905,,160.7952183,160.82968820000002,161.30715530000003,,,,,,,,,,,,,,,,,,,,,,,,,,sub-030,2.0,random_dot,60.02343314829857,
left,left,,1.0,0.0,2.0,0.0,,,,,,,,,161.32291100000003,,,,,,,,,161.30834020000003,161.6559434,162.4600241,162.4410464,162.44110520000004,162.4600241,162.4600241,162.4600241,167.4553217,176.53017119999998,right,0.0,47.29536410000003,,176.53172870000003,176.55471260000002,177.0401723,,,,,,,,,,,,,,,,,,,,,,,,,,sub-030,2.0,random_dot,60.02343314829857,
right,right,,1.0,1.0,3.0,1.0,,,,,,,,,177.0560233,,,,,,,,,177.0418543,177.3894517,178.19283080000002,178.1738267,178.1738846,178.19283080000002,178.19283080000002,178.19283080000002,,181.7906579,left,0.0,36.813064699999984,,181.791691,181.8054909,182.2896127,182.3050996,,,,,,,,,,,,,,,,,,,,,,,,,sub-030,2.0,random_dot,60.02343314829857,
left,left,,2.0,0.0,4.0,0.0,,,,,,,,,182.3050996,,,,,,,,,182.29033480000004,183.10506810000004,183.9054476,183.88941950000003,183.8894594,183.9054476,183.9054476,183.9054476,,185.2403142,left,1.0,34.54915879999999,,185.2413403,185.260516,185.75527980000004,,,,,,,,,,,,,,,,,,,,,,,,,,sub-030,2.0,random_dot,60.02343314829857,
right,right,,2.0,1.0,5.0,1.0,,,,,,,,,185.7717493,,,,,,,,,185.75616130000003,185.8550593,186.6554216,186.6394032,186.63944380000004,186.6554216,186.6554216,186.6554216,,187.5904127,right,1.0,34.14721599999996,,187.5914427,187.6051852,188.0893596,188.1050235,,,,,,,,,,,,,,,,,,,,,,,,,sub-030,2.0,random_dot,60.02343314829857,
right,right,,3.0,0.0,6.0,1.0,,,,,,,,,188.1050235,,,,,,,,,188.09008140000003,188.9050861,189.7053871,189.6893654,189.6894055,189.7053871,189.7053871,189.7053871,,190.5903094,right,1.0,34.11194979999999,,190.5914105,190.6053374,191.0893641,191.1049568,,,,,,,,,,,,,,,,,,,,,,,,,sub-030,2.0,random_dot,60.02343314829857,
left,left,,3.0,1.0,7.0,0.0,,,,,,,,,191.1049568,,,,,,,,,191.09010920000003,192.3049143,193.1053164,193.08928180000004,193.0893211,193.1053164,193.1053164,193.1053164,,194.2234065,left,1.0,34.33513020000004,,194.224429,194.2384437,194.7227674,194.73823700000003,,,,,,,,,,,,,,,,,,,,,,,,,sub-030,2.0,random_dot,60.02343314829857,
left,left,,4.0,0.0,8.0,0.0,,,,,,,,,194.73823700000003,,,,,,,,,194.72349430000003,195.5382055,196.3386616,196.3228093,196.3228491,196.3386616,196.3386616,196.3386616,,197.12344740000003,left,1.0,33.9992211,,197.12447130000004,197.1383412,197.6226338,197.6381503,,,,,,,,,,,,,,,,,,,,,,,,,sub-030,2.0,random_dot,60.02343314829857,
right,right,,4.0,1.0,9.0,1.0,,,,,,,,,197.6381503,,,,,,,,,197.62335110000004,198.4381546,199.2378451,199.2217441,199.2217701,199.2378451,199.2378451,199.2378451,,200.4723206,right,1.0,34.4614871,,200.4729823,200.4877796,200.9737058,200.98882710000004,,,,,,,,,,,,,,,,,,,,,,,,,sub-030,2.0,random_dot,60.02343314829857,
left,left,,5.0,0.0,10.0,0.0,,,,,,,,,200.98882710000004,,,,,,,,,200.9747813,201.3224098,202.12591250000003,202.1070479,202.1071066,202.12591250000003,202.12591250000003,202.12591250000003,,203.3674482,right,0.0,34.459945000000005,,203.3692817,203.3914555,203.8721944,,,,,,,,,,,,,,,,,,,,,,,,,,sub-030,2.0,random_dot,60.02343314829857,
right,right,,5.0,1.0,11.0,1.0,,,,,,,,,203.8886734,,,,,,,,,203.87349090000004,204.2221041,205.0253561,205.00692250000003,205.0069898,205.0253561,205.0253561,205.0253561,,206.0369885,right,1.0,34.228145600000005,,206.0385605,206.06081670000003,206.5389366,,,,,,,,,,,,,,,,,,,,,,,,,,sub-030,2.0,random_dot,60.02343314829857,
right,right,,6.0,0.0,12.0,1.0,,,,,,,,,206.555293,,,,,,,,,206.5402293,207.7384913,208.54247480000004,208.52341790000003,208.52347680000003,208.54247480000004,208.54247480000004,208.54247480000004,,209.4066712,right,1.0,34.08762329999996,,209.4082201,209.4243611,209.9222234,,,,,,,,,,,,,,,,,,,,,,,,,,sub-030,2.0,random_dot,60.02343314829857,
left,left,,6.0,1.0,13.0,0.0,,,,,,,,,209.9385519,,,,,,,,,209.9234551,210.0219554,210.8254695,210.8066592,210.8067178,210.8254695,210.8254695,210.8254695,,212.1457853,left,1.0,34.53298569999998,,212.1473623,212.1607383,212.6555269,,,,,,,,,,,,,,,,,,,,,,,,,,sub-030,2.0,random_dot,60.02343314829857,
left,left,,7.0,0.0,14.0,0.0,,,,,,,,,212.6719721,,,,,,,,,212.65677070000004,213.0050928,213.8096132,213.7900963,213.7901567,213.8096132,213.8096132,213.8096132,,218.63408980000003,left,1.0,38.03753649999999,,218.6358349,218.6491393,219.138829,,,,,,,,,,,,,,,,,,,,,,,,,,sub-030,2.0,random_dot,60.02343314829857,
right,right,,7.0,1.0,15.0,1.0,,,,,,,,,219.1550368,,,,,,,,,219.1400845,219.48836420000003,220.2915932,220.2731812,220.27325130000003,220.2915932,220.2915932,220.2915932,,221.0533113,right,1.0,33.98786179999996,,221.0548466,221.0707438,221.555299,,,,,,,,,,,,,,,,,,,,,,,,,,sub-030,2.0,random_dot,60.02343314829857,
left,left,,8.0,0.0,16.0,0.0,,,,,,,,,221.57181000000003,,,,,,,,,221.5564806,221.6551381,222.45871620000003,222.4396966,222.4397538,222.45871620000003,222.45871620000003,222.45871620000003,,223.3825701,right,0.0,34.13433309999999,,223.3850733,223.40654340000003,223.88848740000003,,,,,,,,,,,,,,,,,,,,,,,,,,sub-030,2.0,random_dot,60.02343314829857,
right,right,,8.0,1.0,17.0,1.0,,,,,,,,,223.904937,,,,,,,,,223.8897756,224.6882408,225.49178470000004,225.4730095,225.47306760000004,225.49178470000004,225.49178470000004,225.49178470000004,,226.6034876,right,1.0,34.32657649999999,,226.6049905,226.62682140000004,227.1053782,,,,,,,,,,,,,,,,,,,,,,,,,,sub-030,2.0,random_dot,60.02343314829857,
right,right,,9.0,0.0,18.0,1.0,,,,,,,,,227.1216633,,,,,,,,,227.10661220000003,227.4548257,228.2588647,228.23973340000003,228.2397927,228.2588647,228.2588647,228.2588647,,229.0345795,right,1.0,33.99056589999998,,229.0363029,229.0493626,229.538413,,,,,,,,,,,,,,,,,,,,,,,,,,sub-030,2.0,random_dot,60.02343314829857,
left,left,,9.0,1.0,19.0,0.0,,,,,,,,,229.554948,,,,,,,,,229.53957410000004,230.3384454,231.1419995,231.1229205,231.12297870000003,231.1419995,231.1419995,231.1419995,,231.8722174,left,1.0,33.950064199999986,,231.8731115,231.8874138,232.3718251,232.387471,,,,,,,,,,,,,,,,,,,,,,,,,sub-030,2.0,random_dot,60.02343314829857,
,,,,,,,,,,,,,,,,,,,,,,,,,,,,,,,,,,,,,,,,,,232.3719253,232.387471,232.387471,239.65564970000003,space,40.49253299999998,,,,,,,,,,,,,,,,,,,sub-030,2.0,random_dot,60.02343314829857,
,,,,,,,,,,,,,,,,,,,,,,,,,,,,,,,,,,,,,,,,,,,,,,,,,239.6557085,239.67059240000003,239.67059240000003,251.1219678,space,44.672954,,,,,,,,,,,,sub-030,2.0,random_dot,60.02343314829857,
left,left,accuracy,,,,,0.0,0.0,0.0,0.0,0.0,0.0,0.0,0.0,255.5247883,,,,,,,,,255.5136807,255.60431170000004,256.4082651,256.3894259,256.3894985,256.4082651,256.4082651,256.4082651,261.40372460000003,262.3597984,left,1.0,39.17790289999999,,,,,,,,,,,,,,,,,,,,251.1581504,251.24544560000004,251.24544560000004,255.49093220000003,space,37.46979809999999,,,,,sub-030,2.0,random_dot,60.02343314829857,
right,right,accuracy,,,,,0.0,0.0,0.0,0.0,0.0,1.0,1.0,1.0,262.37700490000003,,,,,,,,,262.3657076,263.17083660000003,263.97426590000003,263.9556092,263.9556703,263.97426590000003,263.97426590000003,263.97426590000003,,264.6603953,right,1.0,33.898540699999955,,,,,,,,,,,,,,,,,,,,,,,,,,,,,,sub-030,2.0,random_dot,60.02343314829857,
right,right,accuracy,,,,,0.0,0.0,0.0,0.0,1.0,0.0,2.0,1.0,264.67696340000003,,,,,,,,,264.6649075,265.4705935,266.2720562,266.2551675,266.25521480000003,266.2720562,266.2720562,266.2720562,,267.7074654,right,1.0,34.54129739999996,,,,,,,,,,,,,,,,,,,,,,,,,,,,,,sub-030,2.0,random_dot,60.02343314829857,
left,left,accuracy,,,,,0.0,0.0,0.0,0.0,1.0,1.0,3.0,0.0,267.7197822,,,,,,,,,267.7087745,268.5198901,269.3198521,269.3038878,269.3039129,269.3198521,269.3198521,269.3198521,,270.9543286,left,1.0,34.85551850000002,,,,,,,,,,,,,,,,,,,,,,,,,,,,,,sub-030,2.0,random_dot,60.02343314829857,
left,left,accuracy,,,,,0.0,0.0,0.0,0.0,2.0,0.0,4.0,0.0,270.9698412,,,,,,,,,270.9556106,272.170524,272.9718599,272.9550337,272.9550808,272.9718599,272.9718599,272.9718599,,276.3729699,left,1.0,36.61696379999995,,,,,,,,,,,,,,,,,,,,,,,,,,,,,,sub-030,2.0,random_dot,60.02343314829857,
right,right,accuracy,,,,,0.0,0.0,0.0,0.0,2.0,1.0,5.0,1.0,276.3873127,,,,,,,,,276.3754573,276.7370343,277.5387002,277.5215649,277.52161240000004,277.5387002,277.5387002,277.5387002,,278.3086684,right,1.0,33.9905066,,,,,,,,,,,,,,,,,,,,,,,,,,,,,,sub-030,2.0,random_dot,60.02343314829857,
left,left,accuracy,,,,,0.0,0.0,0.0,0.0,3.0,0.0,6.0,0.0,278.32308620000003,,,,,,,,,278.3111025,279.5202522,280.321837,280.3048556,280.3049024,280.321837,280.321837,280.321837,,285.1115405,right,0.0,38.01071009999998,,,,,,,,,,,,,,,,,,,,,,,,,,,,,,sub-030,2.0,random_dot,60.02343314829857,
right,right,accuracy,,,,,0.0,0.0,0.0,0.0,3.0,1.0,7.0,1.0,285.12541590000006,,,,,,,,,285.11397560000006,285.2202531,286.02179870000003,286.0049694,286.005017,286.02179870000003,286.02179870000003,286.02179870000003,,287.6245463,right,1.0,34.82506950000004,,,,,,,,,,,,,,,,,,,,,,,,,,,,,,sub-030,2.0,random_dot,60.02343314829857,
left,left,accuracy,,,,,0.0,0.0,0.0,0.0,4.0,0.0,8.0,0.0,287.6390916,,,,,,,,,287.6270249,288.8367963,289.63833860000005,289.6214072,289.6214548,289.63833860000005,289.63833860000005,289.63833860000005,,290.34463380000005,right,0.0,33.91898219999996,,,,,,,,,,,,,,,,,,,,,,,,,,,,,,sub-030,2.0,random_dot,60.02343314829857,
right,right,accuracy,,,,,0.0,0.0,0.0,0.0,4.0,1.0,9.0,1.0,290.3587398,,,,,,,,,290.34709530000003,290.70349130000005,291.50508640000004,291.48805970000006,291.4881069,291.50508640000004,291.50508640000004,291.50508640000004,,292.6408167,right,1.0,34.349432399999955,,,,,,,,,,,,,,,,,,,,,,,,,,,,,,sub-030,2.0,random_dot,60.02343314829857,
right,right,accuracy,,,,,0.0,0.0,0.0,0.0,5.0,0.0,10.0,1.0,292.654757,,,,,,,,,292.64326980000004,293.00344320000005,293.8049822,293.7880678,293.78811720000004,293.8049822,293.8049822,293.8049822,,296.32712740000005,right,1.0,35.74947730000008,,,,,,,,,,,,,,,,,,,,,,,,,,,,,,sub-030,2.0,random_dot,60.02343314829857,
left,left,accuracy,,,,,0.0,0.0,0.0,0.0,5.0,1.0,11.0,0.0,296.3422183,,,,,,,,,296.3299425,296.6866938,297.4880972,297.4713443,297.4713919,297.4880972,297.4880972,297.4880972,,299.2771668,left,1.0,35.011795000000006,,,,,,,,,,,,,,,,,,,,,,,,,,,,,,sub-030,2.0,random_dot,60.02343314829857,
left,left,accuracy,,,,,0.0,0.0,0.0,0.0,6.0,0.0,12.0,0.0,299.2916243,,,,,,,,,299.2795938,300.08665560000003,300.8880482,300.8711405,300.87118730000003,300.8880482,300.8880482,300.8880482,,303.07710960000003,left,1.0,35.406351799999925,,,,,,,,,,,,,,,,,,,,,,,,,,,,,,sub-030,2.0,random_dot,60.02343314829857,
right,right,accuracy,,,,,0.0,0.0,0.0,0.0,6.0,1.0,13.0,1.0,303.0915517,,,,,,,,,303.0795543,303.18659770000005,303.9884729,303.97151390000005,303.9715621,303.9884729,303.9884729,303.9884729,,304.79409960000004,right,1.0,34.019242899999995,,,,,,,,,,,,,,,,,,,,,,,,,,,,,,sub-030,2.0,random_dot,60.02343314829857,
right,right,accuracy,,,,,0.0,0.0,0.0,0.0,7.0,0.0,14.0,1.0,304.8083741,,,,,,,,,304.79653420000005,304.90322970000005,305.70486710000006,305.6879697,305.6880176,305.70486710000006,305.70486710000006,305.70486710000006,,306.3934029,right,1.0,33.90837510000006,,,,,,,,,,,,,,,,,,,,,,,,,,,,,,sub-030,2.0,random_dot,60.02343314829857,
left,left,accuracy,,,,,0.0,0.0,0.0,0.0,7.0,1.0,15.0,0.0,306.4080228,,,,,,,,,306.395875,306.5032183,307.3045662,307.28775060000004,307.28779760000003,307.3045662,307.3045662,307.3045662,312.2898941,313.0390808,left,1.0,38.9583897,,,,,,,,,,,,,,,,,,,,,,,,,,,,,,sub-030,2.0,random_dot,60.02343314829857,
left,left,accuracy,,,,,0.0,0.0,0.0,0.0,8.0,0.0,16.0,0.0,313.0558057,,,,,,,,,313.043425,313.8530292,314.6545305,314.6377002,314.6377469,314.6545305,314.6545305,314.6545305,,315.8089746,left,1.0,34.379388699999936,,,,,,,,,,,,,,,,,,,,,,,,,,,,,,sub-030,2.0,random_dot,60.02343314829857,
right,right,accuracy,,,,,0.0,0.0,0.0,0.0,8.0,1.0,17.0,1.0,315.82357070000006,,,,,,,,,315.8114321,316.1697062,316.97114790000006,316.9542251,316.9542903,316.97114790000006,316.97114790000006,316.97114790000006,,317.6573097,right,1.0,33.89702209999996,,,,,,,,,,,,,,,,,,,,,,,,,,,,,,sub-030,2.0,random_dot,60.02343314829857,
right,right,accuracy,,,,,0.0,0.0,0.0,0.0,9.0,0.0,18.0,1.0,317.6714047,,,,,,,,,317.65973290000005,318.46962120000006,319.2710443,319.25417870000007,319.25422640000005,319.2710443,319.2710443,319.2710443,,321.9113723,left,0.0,35.85546160000001,,,,,,,,,,,,,,,,,,,,,,,,,,,,,,sub-030,2.0,random_dot,60.02343314829857,
left,left,accuracy,,,,,0.0,0.0,0.0,0.0,9.0,1.0,19.0,0.0,321.9352608,,,,,,,,,321.9137987,322.0196166,322.8210083,322.8041407,322.80418860000003,322.8210083,322.8210083,322.8210083,,323.59050670000005,left,1.0,33.99107839999999,,,,,,,,,,,,,,,,,,,,,,,,,,,,,,sub-030,2.0,random_dot,60.02343314829857,
right,right,accuracy,,,,,0.0,0.0,0.0,0.0,10.0,0.0,20.0,1.0,323.60496800000004,,,,,,,,,323.592969,323.95291260000005,324.7542484,324.73736550000007,324.737415,324.7542484,324.7542484,324.7542484,,325.6575427,right,1.0,34.11683590000007,,,,,,,,,,,,,,,,,,,,,,,,,,,,,,sub-030,2.0,random_dot,60.02343314829857,
left,left,accuracy,,,,,0.0,0.0,0.0,0.0,10.0,1.0,21.0,0.0,325.6715047,,,,,,,,,325.6600193,325.76959700000003,326.5708695,326.5540769,326.55412440000003,326.5708695,326.5708695,326.5708695,331.5692363,332.4401685,right,0.0,39.08139979999999,,,,,,,,,,,,,,,,,,,,,,,,,,,,,,sub-030,2.0,random_dot,60.02343314829857,
right,right,accuracy,,,,,0.0,0.0,0.0,0.0,11.0,0.0,22.0,1.0,332.45545440000006,,,,,,,,,332.4433066,333.6533735,334.4564694,334.43793840000006,334.43799670000004,334.4564694,334.4564694,334.4564694,,335.26228080000004,right,1.0,34.025339999999915,,,,,,,,,,,,,,,,,,,,,,,,,,,,,,sub-030,2.0,random_dot,60.02343314829857,
left,left,accuracy,,,,,0.0,0.0,0.0,0.0,11.0,1.0,23.0,0.0,335.27621460000006,,,,,,,,,335.26541720000006,336.0697377,336.87302830000004,336.85447030000006,336.8545283,336.87302830000004,336.87302830000004,336.87302830000004,,337.83782890000003,left,1.0,34.178575600000045,,,,,,,,,,,,,,,,,,,,,,,,,,,,,,sub-030,2.0,random_dot,60.02343314829857,
left,left,accuracy,,,,,0.0,0.0,0.0,0.0,12.0,0.0,24.0,0.0,337.8536387,,,,,,,,,337.84097920000005,339.0530061,339.8564555,339.83781560000006,339.8378743,339.8564555,339.8564555,339.8564555,,340.63778270000006,right,0.0,34.00360599999999,,,,,,,,,,,,,,,,,,,,,,,,,,,,,,sub-030,2.0,random_dot,60.02343314829857,
right,right,accuracy,,,,,0.0,0.0,0.0,0.0,12.0,1.0,25.0,1.0,340.6535726,,,,,,,,,340.6409052,340.7528571,341.5565053,341.53796470000003,341.5380221,341.5565053,341.5565053,341.5565053,,342.16441530000003,right,1.0,33.83399859999997,,,,,,,,,,,,,,,,,,,,,,,,,,,,,,sub-030,2.0,random_dot,60.02343314829857,
right,right,accuracy,,,,,0.0,0.0,0.0,0.0,13.0,0.0,26.0,1.0,342.17857050000003,,,,,,,,,342.1680959,343.3696368,344.1729334,344.15448080000004,344.1545409,344.1729334,344.1729334,344.1729334,,344.83524030000007,right,1.0,33.87261920000003,,,,,,,,,,,,,,,,,,,,,,,,,,,,,,sub-030,2.0,random_dot,60.02343314829857,
left,left,accuracy,,,,,0.0,0.0,0.0,0.0,13.0,1.0,27.0,0.0,344.85296410000007,,,,,,,,,344.83832720000004,345.18621350000006,345.98937100000006,345.97093060000003,345.97103180000005,345.98937100000006,345.98937100000006,345.98937100000006,,347.29938340000007,left,1.0,34.53307050000001,,,,,,,,,,,,,,,,,,,,,,,,,,,,,,sub-030,2.0,random_dot,60.02343314829857,
left,left,accuracy,,,,,0.0,0.0,0.0,0.0,14.0,0.0,28.0,0.0,347.3129392,,,,,,,,,347.30253280000005,347.40370420000005,348.2067281,348.1875605,348.18761810000007,348.2067281,348.2067281,348.2067281,,353.1544075,left,1.0,38.17593769999996,,,,,,,,,,,,,,,,,,,,,,,,,,,,,,sub-030,2.0,random_dot,60.02343314829857,
right,right,accuracy,,,,,0.0,0.0,0.0,0.0,14.0,1.0,29.0,1.0,353.1688331,,,,,,,,,353.15648530000004,354.3688033,355.16923090000006,355.15324690000006,355.1532871,355.16923090000006,355.16923090000006,355.16923090000006,,355.7705088,right,1.0,33.8207063000001,,,,,,,,,,,,,,,,,,,,,,,,,,,,,,sub-030,2.0,random_dot,60.02343314829857,
left,left,accuracy,,,,,0.0,0.0,0.0,0.0,15.0,0.0,30.0,0.0,355.7855232,,,,,,,,,355.7725638,355.88540100000006,356.6858351,356.6698204,356.66985990000006,356.6858351,356.6858351,356.6858351,361.685439,362.0207106,left,1.0,38.55695849999995,,,,,,,,,,,,,,,,,,,,,,,,,,,,,,sub-030,2.0,random_dot,60.02343314829857,
right,right,accuracy,,,,,0.0,0.0,0.0,0.0,15.0,1.0,31.0,1.0,362.0353122,,,,,,,,,362.0227768,362.3853948,363.1857331000001,363.1697134,363.16975370000006,363.1857331000001,363.1857331000001,363.1857331000001,,363.7037521,right,1.0,33.741365900000005,,,,,,,,,,,,,,,,,,,,,,,,,,,,,,sub-030,2.0,random_dot,60.02343314829857,
left,left,accuracy,,,,,0.0,0.0,0.0,0.0,16.0,0.0,32.0,0.0,363.7185558000001,,,,,,,,,363.7058253,364.5186245,365.3190322,365.3030568,365.3030974,365.3190322,365.3190322,365.3190322,,365.970794,right,0.0,33.86808179999991,,,,,,,,,,,,,,,,,,,,,,,,,,,,,,sub-030,2.0,random_dot,60.02343314829857,
right,right,accuracy,,,,,0.0,0.0,0.0,0.0,16.0,1.0,33.0,1.0,365.985393,,,,,,,,,365.9728793,367.1852659000001,367.9856212,367.96953320000006,367.9695726000001,367.9856212,367.9856212,367.9856212,,368.7871281,right,1.0,34.02321990000007,,,,,,,,,,,,,,,,,,,,,,,,,,,,,,sub-030,2.0,random_dot,60.02343314829857,
left,left,accuracy,,,,,0.0,0.0,0.0,0.0,17.0,0.0,34.0,0.0,368.8019656,,,,,,,,,368.7891639,368.9020295,369.7024433,369.6862895,369.6863296,369.7024433,369.7024433,369.7024433,,370.4370582,left,1.0,33.9610242,,,,,,,,,,,,,,,,,,,,,,,,,,,,,,sub-030,2.0,random_dot,60.02343314829857,
right,right,accuracy,,,,,0.0,0.0,0.0,0.0,17.0,1.0,35.0,1.0,370.451852,,,,,,,,,370.4391003,371.2518701,372.05218570000005,372.03617190000006,372.0362122,372.05218570000005,372.05218570000005,372.05218570000005,,374.0036617,right,1.0,35.17497949999995,,,,,,,,,,,,,,,,,,,,,,,,,,,,,,sub-030,2.0,random_dot,60.02343314829857,
right,right,accuracy,,,,,0.0,0.0,0.0,0.0,18.0,0.0,36.0,1.0,374.0184734,,,,,,,,,374.0057163,374.11848190000006,374.9188921000001,374.902834,374.9028744,374.9188921000001,374.9188921000001,374.9188921000001,,378.7704194,left,0.0,37.06763880000005,,,,,,,,,,,,,,,,,,,,,,,,,,,,,,sub-030,2.0,random_dot,60.02343314829857,
left,left,accuracy,,,,,0.0,0.0,0.0,0.0,18.0,1.0,37.0,0.0,378.7850159,,,,,,,,,378.7724716,379.1350081,379.9355007,379.9194127,379.9194523000001,379.9355007,379.9355007,379.9355007,,384.003535,right,0.0,37.29123679999998,,,,,,,,,,,,,,,,,,,,,,,,,,,,,,sub-030,2.0,random_dot,60.02343314829857,
right,right,accuracy,,,,,0.0,0.0,0.0,0.0,19.0,0.0,38.0,1.0,384.0182333,,,,,,,,,384.0055842,385.21825100000007,386.0188142,386.0026707,386.00271090000007,386.0188142,386.0188142,386.0188142,,390.5365786,left,0.0,37.74176090000003,,,,,,,,,,,,,,,,,,,,,,,,,,,,,,sub-030,2.0,random_dot,60.02343314829857,
left,left,accuracy,,,,,0.0,0.0,0.0,0.0,19.0,1.0,39.0,0.0,390.551547,,,,,,,,,390.53863500000006,390.90156600000006,391.7020682,391.685888,391.6859442000001,391.7020682,391.7020682,391.7020682,,392.9865955,left,1.0,34.50254619999998,,,,,,,,,,,,,,,,,,,,,,,,,,,,,,sub-030,2.0,random_dot,60.02343314829857,
left,left,accuracy,,,,,0.0,0.0,0.0,0.0,20.0,0.0,40.0,0.0,393.0014352,,,,,,,,,392.9886475,393.3514743,394.151846,394.1358111,394.1358513,394.151846,394.151846,394.151846,,396.0782491000001,left,1.0,35.1534640000001,,,,,,,,,,,,,,,,,,,,,,,,,,,,,,sub-030,2.0,random_dot,60.02343314829857,
right,right,accuracy,,,,,0.0,0.0,0.0,0.0,20.0,1.0,41.0,1.0,396.0933151,,,,,,,,,396.0826639,396.4352352,397.23480810000007,397.2192362,397.2192687,397.23480810000007,397.23480810000007,397.23480810000007,,398.1541844,right,1.0,34.131231699999944,,,,,,,,,,,,,,,,,,,,,,,,,,,,,,sub-030,2.0,random_dot,60.02343314829857,
left,left,accuracy,,,,,0.0,0.0,0.0,0.0,21.0,0.0,42.0,0.0,398.1682979,,,,,,,,,398.1564198,399.36810170000007,400.1689452,400.1528122,400.1528584,400.1689452,400.1689452,400.1689452,,402.7436732000001,left,1.0,35.797318399999995,,,,,,,,,,,,,,,,,,,,,,,,,,,,,,sub-030,2.0,random_dot,60.02343314829857,
right,right,accuracy,,,,,0.0,0.0,0.0,0.0,21.0,1.0,43.0,1.0,402.7660355,,,,,,,,,402.746504,403.9517855,404.7553101,404.7367507,404.7368128,404.7553101,404.7553101,404.7553101,,407.13203990000005,right,1.0,35.59213479999994,,,,,,,,,,,,,,,,,,,,,,,,,,,,,,sub-030,2.0,random_dot,60.02343314829857,
left,left,accuracy,,,,,0.0,0.0,0.0,0.0,22.0,0.0,44.0,0.0,407.1510676,,,,,,,,,407.1353197,408.3353825,409.1389473,409.1197174,409.1197762,409.1389473,409.1389473,409.1389473,,412.40432360000005,left,1.0,36.49266149999994,,,,,,,,,,,,,,,,,,,,,,,,,,,,,,sub-030,2.0,random_dot,60.02343314829857,
right,right,accuracy,,,,,0.0,0.0,0.0,0.0,22.0,1.0,45.0,1.0,412.4186759,,,,,,,,,412.4062787,412.5176542,413.3176589,413.3018853,413.3019204,413.3176589,413.3176589,413.3176589,,416.9190098,right,1.0,36.81981129999997,,,,,,,,,,,,,,,,,,,,,,,,,,,,,,sub-030,2.0,random_dot,60.02343314829857,
right,right,accuracy,,,,,0.0,0.0,0.0,0.0,23.0,0.0,46.0,1.0,416.9343007000001,,,,,,,,,416.9208292,417.7343479000001,418.5341861,418.5185587,418.5185928,418.5341861,418.5341861,418.5341861,,419.7189586,right,1.0,34.40052990000004,,,,,,,,,,,,,,,,,,,,,,,,,,,,,,sub-030,2.0,random_dot,60.02343314829857,
left,left,accuracy,,,,,0.0,0.0,0.0,0.0,23.0,1.0,47.0,0.0,419.7341723,,,,,,,,,419.7207089,420.0841887,420.88418700000005,420.8683673,420.8684014,420.88418700000005,420.88418700000005,420.88418700000005,,423.1689584,left,1.0,35.50995109999997,,,,,,,,,,,,,,,,,,,,,,,,,,,,,,sub-030,2.0,random_dot,60.02343314829857,
right,right,accuracy,,,,,0.0,0.0,0.0,0.0,24.0,0.0,48.0,1.0,423.1842083,,,,,,,,,423.1707133000001,423.284193,424.0841164,424.06835070000005,424.0683852,424.0841164,424.0841164,424.0841164,,427.918982,left,0.0,37.05119669999999,,,,,,,,,,,,,,,,,,,,,,,,,,,,,,sub-030,2.0,random_dot,60.02343314829857,
left,left,accuracy,,,,,0.0,0.0,0.0,0.0,24.0,1.0,49.0,0.0,427.934053,,,,,,,,,427.92073210000007,429.13479250000006,429.9386456,429.9198865,429.9199455,429.9386456,429.9386456,429.9386456,434.9340676,435.104968,left,1.0,38.377907100000016,,,,,,,,,,,,,,,,,,,,,,,,,,,,,,sub-030,2.0,random_dot,60.02343314829857,
right,right,accuracy,,,,,0.0,0.0,0.0,0.0,25.0,0.0,50.0,1.0,435.1200439,,,,,,,,,435.1080534,435.4679913000001,436.2714099,436.25283170000006,436.252891,436.2714099,436.2714099,436.2714099,,437.1438973,right,1.0,34.09505289999993,,,,,,,,,,,,,,,,,,,,,,,,,,,,,,sub-030,2.0,random_dot,60.02343314829857,
left,left,accuracy,,,,,0.0,0.0,0.0,0.0,25.0,1.0,51.0,0.0,437.1606252,,,,,,,,,437.1495345,437.95171410000006,438.7514733,438.7351805,438.7352197,438.7514733,438.7514733,438.7514733,443.75054130000007,444.9212528,right,0.0,39.39127629999996,,,,,,,,,,,,,,,,,,,,,,,,,,,,,,sub-030,2.0,random_dot,60.02343314829857,
left,left,accuracy,,,,,0.0,0.0,0.0,0.0,26.0,0.0,52.0,0.0,444.93689150000006,,,,,,,,,444.9243165,445.2843624,446.0884018,446.0695162,446.06957460000007,446.0884018,446.0884018,446.0884018,,447.09411100000005,left,1.0,34.22992629999999,,,,,,,,,,,,,,,,,,,,,,,,,,,,,,sub-030,2.0,random_dot,60.02343314829857,
right,right,accuracy,,,,,0.0,0.0,0.0,0.0,26.0,1.0,53.0,1.0,447.10936,,,,,,,,,447.0985176,447.2009328,448.00450000000006,447.9858185,447.9858779000001,448.00450000000006,448.00450000000006,448.00450000000006,,449.0462293,right,1.0,34.265767799999935,,,,,,,,,,,,,,,,,,,,,,,,,,,,,,sub-030,2.0,random_dot,60.02343314829857,
left,left,accuracy,,,,,0.0,0.0,0.0,0.0,27.0,0.0,54.0,0.0,449.06038930000005,,,,,,,,,449.0497681,449.4010085000001,450.2044265,450.1858767000001,450.18593490000006,450.2044265,450.2044265,450.2044265,,451.8318174,right,0.0,34.84358599999996,,,,,,,,,,,,,,,,,,,,,,,,,,,,,,sub-030,2.0,random_dot,60.02343314829857,
right,right,accuracy,,,,,0.0,0.0,0.0,0.0,27.0,1.0,55.0,1.0,451.8509572,,,,,,,,,451.8349792,452.1844305,452.9878779,452.9692373,452.9692958,452.9878779,452.9878779,452.9878779,,455.2377074,right,1.0,35.4746864,,,,,,,,,,,,,,,,,,,,,,,,,,,,,,sub-030,2.0,random_dot,60.02343314829857,
left,left,accuracy,,,,,0.0,0.0,0.0,0.0,28.0,0.0,56.0,0.0,455.2535453,,,,,,,,,455.24072100000006,455.3513799,456.1545097,456.1357085,456.1357668,456.1545097,456.1545097,456.1545097,,459.2316926,right,0.0,36.29580669999996,,,,,,,,,,,,,,,,,,,,,,,,,,,,,,sub-030,2.0,random_dot,60.02343314829857,
right,right,accuracy,,,,,0.0,0.0,0.0,0.0,28.0,1.0,57.0,1.0,459.2453539,,,,,,,,,459.2349535,460.43478640000006,461.2382209,461.2190376,461.21909710000006,461.2382209,461.2382209,461.2382209,,464.1831017,right,1.0,36.16945239999996,,,,,,,,,,,,,,,,,,,,,,,,,,,,,,sub-030,2.0,random_dot,60.02343314829857,
right,right,accuracy,,,,,0.0,0.0,0.0,0.0,29.0,0.0,58.0,1.0,464.1969164,,,,,,,,,464.1861972,464.55073940000005,465.3545610000001,465.3359546,465.3360081,465.3545610000001,465.3545610000001,465.3545610000001,,467.5042616,right,1.0,35.3663967,,,,,,,,,,,,,,,,,,,,,,,,,,,,,,sub-030,2.0,random_dot,60.02343314829857,
left,left,accuracy,,,,,0.0,0.0,0.0,0.0,29.0,1.0,59.0,0.0,467.5201747,,,,,,,,,467.5073601,467.86732480000006,468.6666638,468.6509633,468.6510125,468.6666638,468.6666638,468.6666638,,470.8320953000001,left,1.0,35.38735929999996,,,,,,,,,,,,,,,,,,,,,,,,,,,,,,sub-030,2.0,random_dot,60.02343314829857,
,,accuracy,,,,,0.0,0.0,0.0,0.0,,,,,,,,,,,,,,,,,,,,,,,,,,,,,,,,,,,,,,,,,,,,,,,,,,,,,,,,sub-030,2.0,random_dot,60.02343314829857,
right,right,speed,,,,,0.0,1.0,1.0,1.0,0.0,0.0,0.0,1.0,482.1215391,,,,,,,,,482.1110785,482.2005630000001,483.0038653,482.9853102,482.985382,483.0038653,483.0038653,483.0038653,,483.8663415,right,1.0,34.07814250000007,,,,,,,,,,,,,,,,,,,,470.83538990000005,470.8722059,470.8722059,482.0871067,space,44.43083900000005,,,,,sub-030,2.0,random_dot,60.02343314829857,
left,left,speed,,,,,0.0,1.0,1.0,1.0,0.0,1.0,1.0,0.0,483.8831943,,,,,,,,,483.8709132,484.23378470000006,485.0371746,485.01864100000006,485.0186998,485.0371746,485.0371746,485.0371746,,485.84427610000006,left,1.0,34.03329749999995,,,,,,,,,,,,,,,,,,,,,,,,,,,,,,sub-030,2.0,random_dot,60.02343314829857,
right,right,speed,,,,,0.0,1.0,1.0,1.0,1.0,0.0,2.0,1.0,485.8586248,,,,,,,,,485.8481042,486.6505262,487.4540300000001,487.4353904,487.4354487,487.4540300000001,487.4540300000001,487.4540300000001,,488.2045182,right,1.0,33.96534959999991,,,,,,,,,,,,,,,,,,,,,,,,,,,,,,sub-030,2.0,random_dot,60.02343314829857,
left,left,speed,,,,,0.0,1.0,1.0,1.0,1.0,1.0,3.0,0.0,488.2196678,,,,,,,,,488.2075842,489.41713840000006,490.2201058,490.2017144,490.2017769,490.2201058,490.2201058,490.2201058,,492.44713070000006,left,1.0,35.448565799999926,,,,,,,,,,,,,,,,,,,,,,,,,,,,,,sub-030,2.0,random_dot,60.02343314829857,
right,right,speed,,,,,0.0,1.0,1.0,1.0,2.0,0.0,4.0,1.0,492.4607842,,,,,,,,,492.4503683,492.8003803,493.6038673,493.58518570000007,493.5852440000001,493.6038673,493.6038673,493.6038673,,494.2490716,left,0.0,33.859980899999925,,,,,,,,,,,,,,,,,,,,,,,,,,,,,,sub-030,2.0,random_dot,60.02343314829857,
left,left,speed,,,,,0.0,1.0,1.0,1.0,2.0,1.0,5.0,0.0,494.2670643,,,,,,,,,494.25218580000006,494.6003509,495.4034644,495.3850623,495.3851249,495.4034644,495.4034644,495.4034644,,497.81444130000006,left,1.0,35.63644879999998,,,,,,,,,,,,,,,,,,,,,,,,,,,,,,sub-030,2.0,random_dot,60.02343314829857,
left,left,speed,,,,,0.0,1.0,1.0,1.0,3.0,0.0,6.0,0.0,497.8279668,,,,,,,,,497.8175256,498.6169804000001,499.420424,499.4016877,499.4017452,499.420424,499.420424,499.420424,,501.6965483,left,1.0,35.503314200000034,,,,,,,,,,,,,,,,,,,,,,,,,,,,,,sub-030,2.0,random_dot,60.02343314829857,
right,right,speed,,,,,0.0,1.0,1.0,1.0,3.0,1.0,7.0,1.0,501.71017580000006,,,,,,,,,501.6997187,501.800183,502.6034453,502.5849396,502.5850023,502.6034453,502.6034453,502.6034453,,504.5185359,right,1.0,35.128800600000034,,,,,,,,,,,,,,,,,,,,,,,,,,,,,,sub-030,2.0,random_dot,60.02343314829857,
right,right,speed,,,,,0.0,1.0,1.0,1.0,4.0,0.0,8.0,1.0,504.5338884,,,,,,,,,504.5215949,504.6334485,505.4369427,505.418103,505.4181623,505.4369427,505.4369427,505.4369427,510.4326313,511.0840914,right,1.0,38.860636000000056,,,,,,,,,,,,,,,,,,,,,,,,,,,,,,sub-030,2.0,random_dot,60.02343314829857,
left,left,speed,,,,,0.0,1.0,1.0,1.0,4.0,1.0,9.0,0.0,511.0992889,,,,,,,,,511.0858463,511.8999864000001,512.7033690000001,512.6846701,512.6847285000001,512.7033690000001,512.7033690000001,512.7033690000001,,513.8787616,left,1.0,34.390254899999945,,,,,,,,,,,,,,,,,,,,,,,,,,,,,,sub-030,2.0,random_dot,60.02343314829857,
right,right,speed,,,,,0.0,1.0,1.0,1.0,5.0,0.0,10.0,1.0,513.8922819,,,,,,,,,513.8823848,513.9836230000001,514.7870805,514.7681849,514.7682445,514.7870805,514.7870805,514.7870805,,515.8478333999999,right,1.0,34.27338469999995,,,,,,,,,,,,,,,,,,,,,,,,,,,,,,sub-030,2.0,random_dot,60.02343314829857,
left,left,speed,,,,,0.0,1.0,1.0,1.0,5.0,1.0,11.0,0.0,515.8667302000001,,,,,,,,,515.8508534,515.9498490000001,516.7532934000001,516.7347652999999,516.7348234000001,516.7532934000001,516.7532934000001,516.7532934000001,,517.5989667000001,right,0.0,34.069451299999855,,,,,,,,,,,,,,,,,,,,,,,,,,,,,,sub-030,2.0,random_dot,60.02343314829857,
left,left,speed,,,,,0.0,1.0,1.0,1.0,6.0,0.0,12.0,0.0,517.6128424999999,,,,,,,,,517.6020441999999,518.8164253,519.619758,519.6013475,519.6014178,519.619758,519.619758,519.619758,,520.9144973,left,1.0,34.52227119999998,,,,,,,,,,,,,,,,,,,,,,,,,,,,,,sub-030,2.0,random_dot,60.02343314829857,
right,right,speed,,,,,0.0,1.0,1.0,1.0,6.0,1.0,13.0,1.0,520.9281169000001,,,,,,,,,520.9176339,522.1166813,522.9200131,522.9013615000001,522.9014204,522.9200131,522.9200131,522.9200131,,526.4281945,left,0.0,36.72559160000014,,,,,,,,,,,,,,,,,,,,,,,,,,,,,,sub-030,2.0,random_dot,60.02343314829857,
left,left,speed,,,,,0.0,1.0,1.0,1.0,7.0,0.0,14.0,0.0,526.4422003,,,,,,,,,526.4323231000001,526.7831756999999,527.5863223000001,527.5678347,527.5678944000001,527.5863223000001,527.5863223000001,527.5863223000001,,530.0416055000001,left,1.0,35.66958190000014,,,,,,,,,,,,,,,,,,,,,,,,,,,,,,sub-030,2.0,random_dot,60.02343314829857,
right,right,speed,,,,,0.0,1.0,1.0,1.0,7.0,1.0,15.0,1.0,530.0549398999999,,,,,,,,,530.0447827,530.8495105,531.6529886999999,531.6344185,531.6344773000001,531.6529886999999,531.6529886999999,531.6529886999999,,532.9430318,right,1.0,34.511742899999945,,,,,,,,,,,,,,,,,,,,,,,,,,,,,,sub-030,2.0,random_dot,60.02343314829857,
right,right,speed,,,,,0.0,1.0,1.0,1.0,8.0,0.0,16.0,1.0,532.9572854,,,,,,,,,532.9466431999999,533.7496193,534.5527642,534.5343551999999,534.5344167000001,534.5527642,534.5527642,534.5527642,,535.4322727000001,right,1.0,34.10553550000009,,,,,,,,,,,,,,,,,,,,,,,,,,,,,,sub-030,2.0,random_dot,60.02343314829857,
left,left,speed,,,,,0.0,1.0,1.0,1.0,8.0,1.0,17.0,0.0,535.4479344000001,,,,,,,,,535.4352962,535.5496086,536.353341,536.3346889,536.3347722999999,536.353341,536.353341,536.353341,,538.8973501,left,1.0,35.77168619999998,,,,,,,,,,,,,,,,,,,,,,,,,,,,,,sub-030,2.0,random_dot,60.02343314829857,
left,left,speed,,,,,0.0,1.0,1.0,1.0,9.0,0.0,18.0,0.0,538.9109748000001,,,,,,,,,538.9004018999999,540.0994075000001,540.9029562000001,540.8842933999999,540.8843526,540.9029562000001,540.9029562000001,540.9029562000001,,543.0476286,left,1.0,35.358731400000124,,,,,,,,,,,,,,,,,,,,,,,,,,,,,,sub-030,2.0,random_dot,60.02343314829857,
right,right,speed,,,,,0.0,1.0,1.0,1.0,9.0,1.0,19.0,1.0,543.0661826999999,,,,,,,,,543.0506637999999,543.1492791999999,543.9527232,543.9343226999999,543.9343816999999,543.9527232,543.9527232,543.9527232,,544.7104267,right,1.0,33.97237619999987,,,,,,,,,,,,,,,,,,,,,,,,,,,,,,sub-030,2.0,random_dot,60.02343314829857,
right,right,speed,,,,,0.0,1.0,1.0,1.0,10.0,0.0,20.0,1.0,544.7323587999999,,,,,,,,,544.7141531,545.9161085999999,546.7200811,546.7014518000001,546.7015111999999,546.7200811,546.7200811,546.7200811,,551.2648609,right,1.0,37.76028039999983,,,,,,,,,,,,,,,,,,,,,,,,,,,,,,sub-030,2.0,random_dot,60.02343314829857,
left,left,speed,,,,,0.0,1.0,1.0,1.0,10.0,1.0,21.0,0.0,551.2826419,,,,,,,,,551.2679776,552.4660231,553.2701907000001,553.2509964000001,553.2510553,553.2701907000001,553.2701907000001,553.2701907000001,,556.2072995000001,left,1.0,36.15069689999996,,,,,,,,,,,,,,,,,,,,,,,,,,,,,,sub-030,2.0,random_dot,60.02343314829857,
left,left,speed,,,,,0.0,1.0,1.0,1.0,11.0,0.0,22.0,0.0,556.2209677000001,,,,,,,,,556.2104422,556.3158009000001,557.1196448000001,557.1011446,557.1012026000001,557.1196448000001,557.1196448000001,557.1196448000001,,559.8719506,left,1.0,35.97943119999991,,,,,,,,,,,,,,,,,,,,,,,,,,,,,,sub-030,2.0,random_dot,60.02343314829857,
right,right,speed,,,,,0.0,1.0,1.0,1.0,11.0,1.0,23.0,1.0,559.8875396000001,,,,,,,,,559.8749852000001,560.2324193,561.0359582000001,561.0173984,561.0174572999999,561.0359582000001,561.0359582000001,561.0359582000001,,561.8468794,right,1.0,34.032131900000195,,,,,,,,,,,,,,,,,,,,,,,,,,,,,,sub-030,2.0,random_dot,60.02343314829857,
left,left,speed,,,,,0.0,1.0,1.0,1.0,12.0,0.0,24.0,0.0,561.8603324999999,,,,,,,,,561.8499736000001,561.9490436000001,562.7526585999999,562.7338643,562.7339235,562.7526585999999,562.7526585999999,562.7526585999999,,563.4254252000001,left,1.0,33.89548500000001,,,,,,,,,,,,,,,,,,,,,,,,,,,,,,sub-030,2.0,random_dot,60.02343314829857,
right,right,speed,,,,,0.0,1.0,1.0,1.0,12.0,1.0,25.0,1.0,563.4416435,,,,,,,,,563.4301815000001,564.2324642000001,565.0359527999999,565.0173540000001,565.017413,565.0359527999999,565.0359527999999,565.0359527999999,,565.7197724,right,1.0,33.896992199999886,,,,,,,,,,,,,,,,,,,,,,,,,,,,,,sub-030,2.0,random_dot,60.02343314829857,
right,right,speed,,,,,0.0,1.0,1.0,1.0,13.0,0.0,26.0,1.0,565.7350374,,,,,,,,,565.7228718000001,566.0824863,566.8857615,566.8672631,566.8673209000001,566.8857615,566.8857615,566.8857615,,567.6397457,right,1.0,33.979442500000005,,,,,,,,,,,,,,,,,,,,,,,,,,,,,,sub-030,2.0,random_dot,60.02343314829857,
left,left,speed,,,,,0.0,1.0,1.0,1.0,13.0,1.0,27.0,0.0,567.6539634999999,,,,,,,,,567.6428069000001,568.4489739999999,569.2526327,569.2338737,569.2339316,569.2526327,569.2526327,569.2526327,,570.0031537,right,0.0,33.96236669999985,,,,,,,,,,,,,,,,,,,,,,,,,,,,,,sub-030,2.0,random_dot,60.02343314829857,
left,left,speed,,,,,0.0,1.0,1.0,1.0,14.0,0.0,28.0,0.0,570.0187267000001,,,,,,,,,570.0064004000001,570.3655847,571.1692333000001,571.1506167,571.1506996999999,571.1692333000001,571.1692333000001,571.1692333000001,,572.0422894000001,right,0.0,34.097701400000005,,,,,,,,,,,,,,,,,,,,,,,,,,,,,,sub-030,2.0,random_dot,60.02343314829857,
right,right,speed,,,,,0.0,1.0,1.0,1.0,14.0,1.0,29.0,1.0,572.0579686000001,,,,,,,,,572.0471848,572.3990119,573.2031456,573.1837820999999,573.1838407,573.2031456,573.2031456,573.2031456,,574.0093944,right,1.0,34.01985149999996,,,,,,,,,,,,,,,,,,,,,,,,,,,,,,sub-030,2.0,random_dot,60.02343314829857,
right,right,speed,,,,,0.0,1.0,1.0,1.0,15.0,0.0,30.0,1.0,574.0232834000001,,,,,,,,,574.0132509,574.1156722000001,574.9190226999999,574.9005402,574.9005999000001,574.9190226999999,574.9190226999999,574.9190226999999,,576.9957353,right,1.0,35.28927339999996,,,,,,,,,,,,,,,,,,,,,,,,,,,,,,sub-030,2.0,random_dot,60.02343314829857,
left,left,speed,,,,,0.0,1.0,1.0,1.0,15.0,1.0,31.0,0.0,577.0147423999999,,,,,,,,,576.9989316000001,577.0987528,577.9023666,577.8838063000001,577.8838644,577.9023666,577.9023666,577.9023666,,581.1127122,left,1.0,36.43465139999989,,,,,,,,,,,,,,,,,,,,,,,,,,,,,,sub-030,2.0,random_dot,60.02343314829857,
left,left,speed,,,,,0.0,1.0,1.0,1.0,16.0,0.0,32.0,0.0,581.1263197999999,,,,,,,,,581.1158234,581.2153907,582.0188426,582.000352,582.0004062,582.0188426,582.0188426,582.0188426,,583.9646494000001,right,0.0,35.15882479999982,,,,,,,,,,,,,,,,,,,,,,,,,,,,,,sub-030,2.0,random_dot,60.02343314829857,
right,right,speed,,,,,0.0,1.0,1.0,1.0,16.0,1.0,33.0,1.0,583.9820386000001,,,,,,,,,583.9677263000001,584.0823603000001,584.8854775,584.8669224,584.8669806,584.8854775,584.8854775,584.8854775,,586.1582122,right,1.0,34.497409399999924,,,,,,,,,,,,,,,,,,,,,,,,,,,,,,sub-030,2.0,random_dot,60.02343314829857,
right,right,speed,,,,,0.0,1.0,1.0,1.0,17.0,0.0,34.0,1.0,586.1733939000001,,,,,,,,,586.1628247000001,586.2653359999999,587.0688766000001,587.0503690999999,587.0504277,587.0688766000001,587.0688766000001,587.0688766000001,,588.4430729000001,right,1.0,34.58705329999998,,,,,,,,,,,,,,,,,,,,,,,,,,,,,,sub-030,2.0,random_dot,60.02343314829857,
left,left,speed,,,,,0.0,1.0,1.0,1.0,17.0,1.0,35.0,0.0,588.4646035000001,,,,,,,,,588.4465559,588.548589,589.3527495999999,589.3340733,589.3341324,589.3527495999999,589.3527495999999,589.3527495999999,,591.3810917999999,left,1.0,35.251759199999924,,,,,,,,,,,,,,,,,,,,,,,,,,,,,,sub-030,2.0,random_dot,60.02343314829857,
left,left,speed,,,,,0.0,1.0,1.0,1.0,18.0,0.0,36.0,0.0,591.3951367,,,,,,,,,591.3841895,592.1988045,593.0022604999999,592.9835854,592.9836449,593.0022604999999,593.0022604999999,593.0022604999999,,594.8621923999999,left,1.0,35.08018530000004,,,,,,,,,,,,,,,,,,,,,,,,,,,,,,sub-030,2.0,random_dot,60.02343314829857,
right,right,speed,,,,,0.0,1.0,1.0,1.0,18.0,1.0,37.0,1.0,594.8757158000001,,,,,,,,,594.8653125000001,595.6652408,596.4685944,596.4498060999999,596.4498644,596.4685944,596.4685944,596.4685944,,597.3939888,right,1.0,34.14129389999994,,,,,,,,,,,,,,,,,,,,,,,,,,,,,,sub-030,2.0,random_dot,60.02343314829857,
left,left,speed,,,,,0.0,1.0,1.0,1.0,19.0,0.0,38.0,0.0,597.4075714999999,,,,,,,,,597.3977451000001,597.4986001,598.3019515000001,598.2834731,598.2835328000001,598.3019515000001,598.3019515000001,598.3019515000001,,599.1251569000001,left,1.0,34.03480380000019,,,,,,,,,,,,,,,,,,,,,,,,,,,,,,sub-030,2.0,random_dot,60.02343314829857,
right,right,speed,,,,,0.0,1.0,1.0,1.0,19.0,1.0,39.0,1.0,599.1395207999999,,,,,,,,,599.1295617999999,599.9346509,600.7519831,600.7335432,600.7336015999999,600.7519831,600.7519831,600.7519831,605.7487071999999,605.8851222000001,left,0.0,38.35563500000012,,,,,,,,,,,,,,,,,,,,,,,,,,,,,,sub-030,2.0,random_dot,60.02343314829857,
left,left,speed,,,,,0.0,1.0,1.0,1.0,20.0,0.0,40.0,0.0,605.900764,,,,,,,,,605.8881994000001,606.6982390000001,607.5018247,607.4831550000001,607.4832137999999,607.5018247,607.5018247,607.5018247,,609.0800964,left,1.0,34.79521809999983,,,,,,,,,,,,,,,,,,,,,,,,,,,,,,sub-030,2.0,random_dot,60.02343314829857,
right,right,speed,,,,,0.0,1.0,1.0,1.0,20.0,1.0,41.0,1.0,609.0983860000001,,,,,,,,,609.0831998000001,609.8815603,610.6858866,610.6663705000001,610.6664321999999,610.6858866,610.6858866,610.6858866,,611.8999140000001,right,1.0,34.42693520000012,,,,,,,,,,,,,,,,,,,,,,,,,,,,,,sub-030,2.0,random_dot,60.02343314829857,
right,right,speed,,,,,0.0,1.0,1.0,1.0,21.0,0.0,42.0,1.0,611.9151587000001,,,,,,,,,611.9030435,612.7148503999999,613.5181735000001,613.4996564999999,613.4997149000001,613.5181735000001,613.5181735000001,613.5181735000001,,614.4495614,right,1.0,34.14937280000004,,,,,,,,,,,,,,,,,,,,,,,,,,,,,,sub-030,2.0,random_dot,60.02343314829857,
left,left,speed,,,,,0.0,1.0,1.0,1.0,21.0,1.0,43.0,0.0,614.4652752,,,,,,,,,614.4525913,614.8149255000001,615.6180923,615.5996778000001,615.5997463000001,615.6180923,615.6180923,615.6180923,,617.0470800999999,left,1.0,34.64098029999991,,,,,,,,,,,,,,,,,,,,,,,,,,,,,,sub-030,2.0,random_dot,60.02343314829857,
right,right,speed,,,,,0.0,1.0,1.0,1.0,22.0,0.0,44.0,1.0,617.0650084000001,,,,,,,,,617.0501670000001,617.8482716999999,618.6515693000001,618.6330919,618.6331574000001,618.6515693000001,618.6515693000001,618.6515693000001,,619.4575104999999,right,1.0,34.033594900000026,,,,,,,,,,,,,,,,,,,,,,,,,,,,,,sub-030,2.0,random_dot,60.02343314829857,
left,left,speed,,,,,0.0,1.0,1.0,1.0,22.0,1.0,45.0,0.0,619.4719146,,,,,,,,,619.4612608,619.8149286,620.61852,620.6000451,620.600103,620.61852,620.61852,620.61852,,621.3925924,left,1.0,33.988971699999865,,,,,,,,,,,,,,,,,,,,,,,,,,,,,,sub-030,2.0,random_dot,60.02343314829857,
right,right,speed,,,,,0.0,1.0,1.0,1.0,23.0,0.0,46.0,1.0,621.4140447,,,,,,,,,621.3959884000001,622.1980096,622.9981624,622.9823716999999,622.9824044,622.9981624,622.9981624,622.9981624,,623.7126661,right,1.0,33.92925060000016,,,,,,,,,,,,,,,,,,,,,,,,,,,,,,sub-030,2.0,random_dot,60.02343314829857,
left,left,speed,,,,,0.0,1.0,1.0,1.0,23.0,1.0,47.0,0.0,623.7313781,,,,,,,,,623.7157597,623.8147179,624.6181249000001,624.5997567,624.5998179999999,624.6181249000001,624.6181249000001,624.6181249000001,,625.3734131000001,left,1.0,33.97926499999994,,,,,,,,,,,,,,,,,,,,,,,,,,,,,,sub-030,2.0,random_dot,60.02343314829857,
left,left,speed,,,,,0.0,1.0,1.0,1.0,24.0,0.0,48.0,0.0,625.3884330999999,,,,,,,,,625.3775446,625.4813581000001,626.2847116,626.2663156000001,626.2663737,626.2847116,626.2847116,626.2847116,,627.0467388,left,1.0,33.982986499999924,,,,,,,,,,,,,,,,,,,,,,,,,,,,,,sub-030,2.0,random_dot,60.02343314829857,
right,right,speed,,,,,0.0,1.0,1.0,1.0,24.0,1.0,49.0,1.0,627.0643620999999,,,,,,,,,627.0507534000001,627.4148147999999,628.2179921,628.1993910000001,628.1994497000001,628.2179921,628.2179921,628.2179921,,628.8960829,right,1.0,33.89155690000007,,,,,,,,,,,,,,,,,,,,,,,,,,,,,,sub-030,2.0,random_dot,60.02343314829857,
left,left,speed,,,,,0.0,1.0,1.0,1.0,25.0,0.0,50.0,0.0,628.9146546,,,,,,,,,628.899183,630.0979050999999,630.9014376,630.8828590999999,630.882918,630.9014376,630.9014376,630.9014376,,631.4980888,left,1.0,33.811643600000025,,,,,,,,,,,,,,,,,,,,,,,,,,,,,,sub-030,2.0,random_dot,60.02343314829857,
right,right,speed,,,,,0.0,1.0,1.0,1.0,25.0,1.0,51.0,1.0,631.5147139999999,,,,,,,,,631.5011162999999,631.8645464000001,632.6684479999999,632.6498584000001,632.6499174,632.6684479999999,632.6684479999999,632.6684479999999,,633.2014269000001,right,1.0,33.75980419999996,,,,,,,,,,,,,,,,,,,,,,,,,,,,,,sub-030,2.0,random_dot,60.02343314829857,
left,left,speed,,,,,0.0,1.0,1.0,1.0,26.0,0.0,52.0,0.0,633.2173336999999,,,,,,,,,633.2044526,634.4146098000001,635.217729,635.1992276999999,635.1992855999999,635.217729,635.217729,635.217729,,635.8112062,left,1.0,33.81362919999992,,,,,,,,,,,,,,,,,,,,,,,,,,,,,,sub-030,2.0,random_dot,60.02343314829857,
right,right,speed,,,,,0.0,1.0,1.0,1.0,26.0,1.0,53.0,1.0,635.8250886000001,,,,,,,,,635.8144437000001,636.1645555,636.9677157000001,636.9492267999999,636.9492842,636.9677157000001,636.9677157000001,636.9677157000001,,637.5786396999999,right,1.0,33.826520299999856,,,,,,,,,,,,,,,,,,,,,,,,,,,,,,sub-030,2.0,random_dot,60.02343314829857,
left,left,speed,,,,,0.0,1.0,1.0,1.0,27.0,0.0,54.0,0.0,637.5978745,,,,,,,,,637.5817159999999,637.9310124000001,638.7343745000001,638.7159588,638.7160176,638.7343745000001,638.7343745000001,638.7343745000001,,639.2783847000001,left,1.0,33.77001150000001,,,,,,,,,,,,,,,,,,,,,,,,,,,,,,sub-030,2.0,random_dot,60.02343314829857,
right,right,speed,,,,,0.0,1.0,1.0,1.0,27.0,1.0,55.0,1.0,639.2922622000001,,,,,,,,,639.2816882,640.0809965000001,640.884415,640.8658275,640.8658858000001,640.884415,640.884415,640.884415,,641.4788421000001,right,1.0,33.8107771,,,,,,,,,,,,,,,,,,,,,,,,,,,,,,sub-030,2.0,random_dot,60.02343314829857,
right,right,speed,,,,,0.0,1.0,1.0,1.0,28.0,0.0,56.0,1.0,641.4923209000001,,,,,,,,,641.4819187,642.2811764,643.0844239,643.0659149,643.0659817000001,643.0844239,643.0844239,643.0844239,,643.7789161999999,right,1.0,33.91581240000005,,,,,,,,,,,,,,,,,,,,,,,,,,,,,,sub-030,2.0,random_dot,60.02343314829857,
left,left,speed,,,,,0.0,1.0,1.0,1.0,28.0,1.0,57.0,0.0,643.7925373999999,,,,,,,,,643.7820684999999,644.1312,644.9343368,644.9158646999999,644.9159311000001,644.9343368,644.9343368,644.9343368,,645.6425428,left,1.0,33.92331829999989,,,,,,,,,,,,,,,,,,,,,,,,,,,,,,sub-030,2.0,random_dot,60.02343314829857,
left,left,speed,,,,,0.0,1.0,1.0,1.0,29.0,0.0,58.0,0.0,645.6562715,,,,,,,,,645.6464011,645.7477286000001,646.5511256,646.5326445000001,646.5327001999999,646.5511256,646.5511256,646.5511256,,647.127853,right,0.0,33.79801930000008,,,,,,,,,,,,,,,,,,,,,,,,,,,,,,sub-030,2.0,random_dot,60.02343314829857,
right,right,speed,,,,,0.0,1.0,1.0,1.0,29.0,1.0,59.0,1.0,647.1415052,,,,,,,,,647.1310842,647.4810116000001,648.2841464,648.2656337999999,648.2656923,648.2841464,648.2841464,648.2841464,,648.9101906000001,right,1.0,33.85295180000003,,,,,,,,,,,,,,,,,,,,,,,,,,,,,,sub-030,2.0,random_dot,60.02343314829857,
,,speed,,,,,0.0,1.0,1.0,1.0,,,,,,,,,,,,,,,,,,,,,,,,,,,,,,,,,,,,,,,,,,,,,,,,,,,,,,,,sub-030,2.0,random_dot,60.02343314829857,
,,,,,,,,,,,,,,,,,,,,,,,,,,,,,,,,,,,,,,,,,,,,,,,,,,,,,,,,,,,,,,,648.9128989999999,648.9285385999999,653.9147416000001,sub-030,,,,
