direction,corrAns,thisN,thisTrialN,thisRepN,respDots.keys,respDots.corr,respDots.rt,respDots.duration,randomInstr,respRandomInstr.keys,respRandomInstr.rt,respRandomInstr.duration,practice_trials.thisRepN,practice_trials.thisTrialN,practice_trials.thisN,practice_trials.thisIndex,instr_trials.thisRepN,instr_trials.thisTrialN,instr_trials.thisN,instr_trials.thisIndex,test_trials.thisRepN,test_trials.thisTrialN,test_trials.thisN,test_trials.thisIndex,thisRow.t,notes,general_instruction.started,textGeneralInstr.started,respGeneralInstr.started,general_instruction.stopped,respGeneralInstr.keys,respGeneralInstr.rt,respGeneralInstr.duration,ITI.started,fixcross.started,fixcross.stopped,ITI.stopped,dots.started,backgroundDots.started,stimulusDots.started,respDots.started,stimulusDots.stopped,dots.stopped,practice_trials.respDots.keys,practice_trials.respDots.corr,practice_trials.respDots.rt,practice_trials.respDots.duration,feedback.started,textFeedback.started,feedback.stopped,textFeedback.stopped,info.started,textInfo.started,keyRespInfo.started,info.stopped,keyRespInfo.keys,keyRespInfo.rt,keyRespInfo.duration,test_instruction.started,textTestInstr.started,respTestInstr.started,test_instruction.stopped,respTestInstr.keys,respTestInstr.rt,respTestInstr.duration,random_instruction.started,textRandomInstr.started,respRandomInstr.started,random_instruction.stopped,instr_trials.respRandomInstr.keys,instr_trials.respRandomInstr.rt,instr_trials.respRandomInstr.duration,test_trials.respDots.keys,test_trials.respDots.corr,test_trials.respDots.rt,test_trials.respDots.duration,goodbye.started,textGoodbye.started,goodbye.stopped,participant,session,expName,frameRate,Unnamed: 87
,,,,,,,,,,,,,,,,,,,,,,,,,,,0.0186290179999559,0.0544619779998356,0.0544619779998356,15.371275296000022,space,15.292317739999817,,,,,,,,,,,,,,,,,,,,,,,,,,,,,,,,,,,,,,,,,,,,,,,,sub-233,1,random_dot,60.47746462392519,
left,left,0.0,0.0,0.0,left,1.0,7.41801528499991,,,,,,0.0,0.0,0.0,0.0,,,,,,,,,15.409511252999891,,,,,,,,,15.395677778999923,15.715629579000051,16.52711752999994,16.50592855700006,16.506510758999866,16.52711752999994,16.52711752999994,16.52711752999994,21.520499709999967,23.949500986000203,left,1.0,7.41801528499991,,23.956401639999967,23.98085698900013,24.45482152700015,,,,,,,,,,,,,,,,,,,,,,,,,,,,,,sub-233,1,random_dot,60.47746462392519,
right,right,1.0,1.0,0.0,left,0.0,2.413027065999813,,,,,,0.0,1.0,1.0,1.0,,,,,,,,,24.46252350299983,,,,,,,,,24.455298334999952,25.24614803499981,26.04545292700004,26.03766173399981,26.037956257000133,26.04545292700004,26.04545292700004,26.04545292700004,,28.47048263599981,left,0.0,2.413027065999813,,28.47604852299992,28.487637233999976,28.975851474000137,,,,,,,,,,,,,,,,,,,,,,,,,,,,,,sub-233,1,random_dot,60.47746462392519,
right,right,2.0,0.0,1.0,left,0.0,6.185926666999876,,,,,,1.0,0.0,2.0,1.0,,,,,,,,,28.98642640900016,,,,,,,,,28.97636610400013,30.1595630339998,30.95327227899997,30.943757641000047,30.94407782999997,30.95327227899997,30.95327227899997,30.95327227899997,35.93758218499988,37.152231218,left,0.0,6.185926666999876,,37.1523463540002,37.16295239200008,37.65485753299981,,,,,,,,,,,,,,,,,,,,,,,,,,,,,,sub-233,1,random_dot,60.47746462392519,
left,left,3.0,1.0,1.0,left,1.0,3.0965345260001413,,,,,,1.0,1.0,3.0,0.0,,,,,,,,,37.66208274500013,,,,,,,,,37.65533018299993,38.44489190500008,39.24697158800018,39.23790243199983,39.2384402419998,39.24697158800018,39.24697158800018,39.24697158800018,,42.349410199999966,left,1.0,3.0965345260001413,,42.35233485800018,42.36255198900017,42.85408638899981,,,,,,,,,,,,,,,,,,,,,,,,,,,,,,sub-233,1,random_dot,60.47746462392519,
left,left,4.0,0.0,2.0,right,0.0,1.2157420930002445,,,,,,2.0,0.0,4.0,0.0,,,,,,,,,42.8615408579999,,,,,,,,,42.85455186499985,43.194555232999846,44.003248214,43.97900517700009,43.9795532359999,44.003248214,44.003248214,44.003248214,,45.22312473800002,right,0.0,1.2157420930002445,,45.225829089999934,45.2346116939998,45.72159859700014,45.72892599399984,,,,,,,,,,,,,,,,,,,,,,,,,,,,,sub-233,1,random_dot,60.47746462392519,
right,right,5.0,1.0,2.0,left,0.0,3.8684423350000543,,,,,,2.0,1.0,5.0,1.0,,,,,,,,,45.72892599399984,,,,,,,,,45.72205609699995,46.52028360199984,47.3144748740001,47.30486659899998,47.30540318800013,47.3144748740001,47.3144748740001,47.3144748740001,,51.19066307899993,left,0.0,3.8684423350000543,,51.19079183799977,51.2010923050002,51.688414185000056,51.6960505359998,,,,,,,,,,,,,,,,,,,,,,,,,,,,,sub-233,1,random_dot,60.47746462392519,
left,left,6.0,0.0,3.0,right,0.0,1.5109640840000793,,,,,,3.0,0.0,6.0,0.0,,,,,,,,,51.6960505359998,,,,,,,,,51.68887002500014,52.48734073100013,53.28012233900017,53.27133310799991,53.271730128999934,53.28012233900017,53.28012233900017,53.28012233900017,,54.79451608199997,right,0.0,1.5109640840000793,,54.79464354299989,54.80284680099976,55.28930884100009,55.29789524199987,,,,,,,,,,,,,,,,,,,,,,,,,,,,,sub-233,1,random_dot,60.47746462392519,
right,right,7.0,1.0,3.0,right,1.0,3.189896728999884,,,,,,3.0,1.0,7.0,1.0,,,,,,,,,55.29789524199987,,,,,,,,,55.28976972700002,56.493795082999895,57.302963810000165,57.27878396999995,57.2793292020001,57.302963810000165,57.302963810000165,57.302963810000165,,60.50114272000019,right,1.0,3.189896728999884,,60.5042092990002,60.514404828999886,61.00389990799977,,,,,,,,,,,,,,,,,,,,,,,,,,,,,,sub-233,1,random_dot,60.47746462392519,
left,left,8.0,0.0,4.0,right,0.0,1.8214724730000853,,,,,,4.0,0.0,8.0,0.0,,,,,,,,,61.0108552239999,,,,,,,,,61.00427617200012,62.19485903399982,62.99767995999992,62.98811696099983,62.9886551579998,62.99767995999992,62.99767995999992,62.99767995999992,,64.82924060100004,right,0.0,1.8214724730000853,,64.83408690999977,64.84391979300017,65.33845925100013,,,,,,,,,,,,,,,,,,,,,,,,,,,,,,sub-233,1,random_dot,60.47746462392519,
right,right,9.0,1.0,4.0,right,1.0,6.083761741000217,,,,,,4.0,1.0,9.0,1.0,,,,,,,,,65.34725607100017,,,,,,,,,65.33894370899998,65.68707108099989,66.48741447900011,66.47601483800008,66.47654953199981,66.48741447900011,66.48741447900011,66.48741447900011,71.48635780599989,72.57819479999989,right,1.0,6.083761741000217,,72.58140882999987,72.59156190600015,73.07975430299985,,,,,,,,,,,,,,,,,,,,,,,,,,,,,,sub-233,1,random_dot,60.47746462392519,
right,right,10.0,0.0,5.0,right,1.0,5.564858529000048,,,,,,5.0,0.0,10.0,1.0,,,,,,,,,73.08811456400008,,,,,,,,,73.08013263600014,74.26949368899977,75.06479991000015,75.05534567299992,75.05588038399992,75.06479991000015,75.06479991000015,75.06479991000015,80.05407223600014,80.63968115599982,right,1.0,5.564858529000048,,80.63980851699989,80.64958080999986,81.14184897199993,,,,,,,,,,,,,,,,,,,,,,,,,,,,,,sub-233,1,random_dot,60.47746462392519,
left,left,11.0,1.0,5.0,left,1.0,3.65502939199996,,,,,,5.0,1.0,11.0,0.0,,,,,,,,,81.15467421099993,,,,,,,,,81.1423223910001,81.93597567899997,82.73226004099979,82.72220068800016,82.72272633600005,82.73226004099979,82.73226004099979,82.73226004099979,,86.39405462400009,left,1.0,3.65502939199996,,86.39416728600008,86.40295144299989,86.88762440399978,86.89470313699985,,,,,,,,,,,,,,,,,,,,,,,,,,,,,sub-233,1,random_dot,60.47746462392519,
right,right,12.0,0.0,6.0,right,1.0,1.2388521379998565,,,,,,6.0,0.0,12.0,1.0,,,,,,,,,86.89470313699985,,,,,,,,,86.88807994299987,87.68656570299981,88.4806670490002,88.4709797989999,88.47150739200015,88.4806670490002,88.4806670490002,88.4806670490002,,89.7233276840002,right,1.0,1.2388521379998565,,89.72354771499977,89.73358013899997,90.22224161199983,90.23089010700004,,,,,,,,,,,,,,,,,,,,,,,,,,,,,sub-233,1,random_dot,60.47746462392519,
left,left,13.0,1.0,6.0,left,1.0,2.3294550020000315,,,,,,6.0,1.0,13.0,0.0,,,,,,,,,90.23089010700004,,,,,,,,,90.22269149400016,90.570975783,91.37127181100004,91.3550049280002,91.35554678800008,91.37127181100004,91.37127181100004,91.37127181100004,,93.7059645180002,left,1.0,2.3294550020000315,,93.70607508000012,93.7158304159998,94.20793061299992,,,,,,,,,,,,,,,,,,,,,,,,,,,,,,sub-233,1,random_dot,60.47746462392519,
left,left,14.0,0.0,7.0,right,0.0,1.9098285230002148,,,,,,7.0,0.0,14.0,0.0,,,,,,,,,94.2212622269999,,,,,,,,,94.20840111300004,95.40335439399996,96.19764198599978,96.18824870399976,96.18878497300012,96.19764198599978,96.19764198599978,96.19764198599978,,98.11922131599977,right,0.0,1.9098285230002148,,98.12217811900018,98.13157356200009,98.62518252400014,,,,,,,,,,,,,,,,,,,,,,,,,,,,,,sub-233,1,random_dot,60.47746462392519,
right,right,15.0,1.0,7.0,right,1.0,4.028184391000195,,,,,,7.0,1.0,15.0,1.0,,,,,,,,,98.63755831900016,,,,,,,,,98.62553494699978,99.81320213800018,100.60989865300007,100.60261566999998,100.60291619200008,100.60989865300007,100.60989865300007,100.60989865300007,,104.6482769610002,right,1.0,4.028184391000195,,104.6510977490002,104.65963137200016,105.15251146899982,,,,,,,,,,,,,,,,,,,,,,,,,,,,,,sub-233,1,random_dot,60.47746462392519,
right,right,16.0,0.0,8.0,left,0.0,3.1939364270001533,,,,,,8.0,0.0,16.0,1.0,,,,,,,,,105.1587244530001,,,,,,,,,105.15287004599986,105.94343923399992,106.74416454599988,106.736354526,106.73677308000016,106.74416454599988,106.74416454599988,106.74416454599988,,109.94899359300008,left,0.0,3.1939364270001533,,109.9524064819998,109.96181888599996,110.45230460099992,,,,,,,,,,,,,,,,,,,,,,,,,,,,,,sub-233,1,random_dot,60.47746462392519,
left,left,17.0,1.0,8.0,right,0.0,4.180861551999897,,,,,,8.0,1.0,17.0,0.0,,,,,,,,,110.4585262720002,,,,,,,,,110.45260898200011,110.79221285599988,111.58604809300004,111.57644055799985,111.5768636439998,111.58604809300004,111.58604809300004,111.58604809300004,,115.777527534,right,0.0,4.180861551999897,,115.77763697399996,115.7864183390002,116.27021044499998,116.27684222100017,,,,,,,,,,,,,,,,,,,,,,,,,,,,,sub-233,1,random_dot,60.47746462392519,
left,left,18.0,0.0,9.0,right,0.0,1.517743535000136,,,,,,9.0,0.0,18.0,0.0,,,,,,,,,116.27684222100017,,,,,,,,,116.27054382300004,117.07777920099988,117.8735251070002,117.86157371099988,117.86211737199984,117.8735251070002,117.8735251070002,117.8735251070002,,119.4014933110002,right,0.0,1.517743535000136,,119.40166704500008,119.4121258099999,119.8975329760001,119.9081829480001,,,,,,,,,,,,,,,,,,,,,,,,,,,,,sub-233,1,random_dot,60.47746462392519,
right,right,19.0,1.0,9.0,right,1.0,4.227560219999759,,,,,,9.0,1.0,19.0,1.0,,,,,,,,,119.9081829480001,,,,,,,,,119.89800669999975,120.69306483499986,121.48695321600007,121.47751960699998,121.47805926899991,121.48695321600007,121.48695321600007,121.48695321600007,,125.73795014100006,right,1.0,4.227560219999759,,125.74116684699992,125.75318977799998,126.23839492800016,126.25047883299976,,,,,,,,,,,,,,,,,,,,,,,,,,,,,sub-233,1,random_dot,60.47746462392519,
,,,,,,,,,,,,,,,,,,,,,,,,,,,,,,,,,,,,,,,,,,,,,,,,,,,,126.23856966799984,126.25047883299976,126.25047883299976,132.71158902199977,space,6.4571433989999605,,,,,,,,,,,,,,,,,,,,,,,sub-233,1,random_dot,60.47746462392519,
,,,,,,,,,,,,,,,,,,,,,,,,,,,,,,,,,,,,,,,,,,,,,,,,,,,,,,,,,,,132.71169985100005,132.72580431000006,132.72580431000006,135.09476175999998,space,2.3581032349998168,,,,,,,,,,,,,,,,sub-233,1,random_dot,60.47746462392519,
left,left,0.0,0.0,0.0,right,0.0,1.720559473999856,,speed,space,17.52658159099974,,,,,,0.0,0.0,0.0,1.0,0.0,0.0,0.0,0.0,152.6710334180002,,,,,,,,,152.66132097199988,153.00177433999988,153.79603513699976,153.78672059400014,153.78712426699985,153.79603513699976,153.79603513699976,153.79603513699976,,155.52732571600018,,,,,,,,,,,,,,,,,,,,,,,135.11385622399985,135.12497069399978,135.12497069399978,152.6554584999999,space,17.52658159099974,,right,0.0,1.720559473999856,,,,,sub-233,1,random_dot,60.47746462392519,
right,right,1.0,1.0,0.0,right,1.0,2.224864135999724,,speed,space,17.52658159099974,,,,,,0.0,0.0,0.0,1.0,0.0,1.0,1.0,1.0,155.53663007700015,,,,,,,,,155.52776720500017,155.62043310799982,156.43496008700004,156.41074188899984,156.411297785,156.43496008700004,156.43496008700004,156.43496008700004,,158.67168856299986,,,,,,,,,,,,,,,,,,,,,,,,,,,,,,right,1.0,2.224864135999724,,,,,sub-233,1,random_dot,60.47746462392519,
right,right,2.0,0.0,1.0,left,0.0,1.697268900000381,,speed,space,17.52658159099974,,,,,,0.0,0.0,0.0,1.0,1.0,0.0,2.0,1.0,158.68063879200008,,,,,,,,,158.67212325599985,159.01913642299996,159.81354823699985,159.80391590699992,159.8044402410001,159.81354823699985,159.81354823699985,159.81354823699985,,161.52070830399998,,,,,,,,,,,,,,,,,,,,,,,,,,,,,,left,0.0,1.697268900000381,,,,,sub-233,1,random_dot,60.47746462392519,
left,left,3.0,1.0,1.0,right,0.0,1.0438373659999345,,speed,space,17.52658159099974,,,,,,0.0,0.0,0.0,1.0,1.0,1.0,3.0,0.0,161.52894469500006,,,,,,,,,161.52108198799988,162.7191895179999,163.51424150499997,163.50468199099987,163.50521505999995,163.51424150499997,163.51424150499997,163.51424150499997,,164.5680593799998,,,,,,,,,,,,,,,,,,,,,,,,,,,,,,right,0.0,1.0438373659999345,,,,,sub-233,1,random_dot,60.47746462392519,
right,right,4.0,0.0,2.0,right,1.0,0.4154734140001892,,speed,space,17.52658159099974,,,,,,0.0,0.0,0.0,1.0,2.0,0.0,4.0,1.0,164.57916421900018,,,,,,,,,164.568649242,165.7599539920002,166.55646031800006,166.54446806899978,166.545003877,166.55646031800006,166.55646031800006,166.55646031800006,,166.9759896149999,,,,,,,,,,,,,,,,,,,,,,,,,,,,,,right,1.0,0.4154734140001892,,,,,sub-233,1,random_dot,60.47746462392519,
left,left,5.0,1.0,2.0,left,1.0,0.8668117880001773,,speed,space,17.52658159099974,,,,,,0.0,0.0,0.0,1.0,2.0,1.0,5.0,0.0,166.9857809949999,,,,,,,,,166.9763665720002,167.06929418399977,167.86653255500005,167.8547386649998,167.85526336700013,167.86653255500005,167.86653255500005,167.86653255500005,,168.74430092500006,,,,,,,,,,,,,,,,,,,,,,,,,,,,,,left,1.0,0.8668117880001773,,,,,sub-233,1,random_dot,60.47746462392519,
left,left,6.0,0.0,3.0,right,0.0,1.0425392659999488,,speed,space,17.52658159099974,,,,,,0.0,0.0,0.0,1.0,3.0,0.0,6.0,0.0,168.7535154440002,,,,,,,,,168.744748049,168.8365440990001,169.63396762499997,169.62171826299982,169.62225686500005,169.63396762499997,169.63396762499997,169.63396762499997,,170.6881663889999,,,,,,,,,,,,,,,,,,,,,,,,,,,,,,right,0.0,1.0425392659999488,,,,,sub-233,1,random_dot,60.47746462392519,
right,right,7.0,1.0,3.0,right,1.0,0.9788479329999972,,speed,space,17.52658159099974,,,,,,0.0,0.0,0.0,1.0,3.0,1.0,7.0,1.0,170.69725494900013,,,,,,,,,170.68862048399978,171.48654902999988,172.28589912899997,172.27653852699996,172.27695721100008,172.28589912899997,172.28589912899997,172.28589912899997,,173.27568913999994,,,,,,,,,,,,,,,,,,,,,,,,,,,,,,right,1.0,0.9788479329999972,,,,,sub-233,1,random_dot,60.47746462392519,
left,left,8.0,0.0,4.0,left,1.0,1.077885194999908,,speed,space,17.52658159099974,,,,,,0.0,0.0,0.0,1.0,4.0,0.0,8.0,0.0,173.28531691299986,,,,,,,,,173.27606740400006,174.0750330740002,174.86797535000005,174.85845689100006,174.85877641099978,174.86797535000005,174.86797535000005,174.86797535000005,,175.95444026999985,,,,,,,,,,,,,,,,,,,,,,,,,,,,,,left,1.0,1.077885194999908,,,,,sub-233,1,random_dot,60.47746462392519,
right,right,9.0,1.0,4.0,left,0.0,0.9058032339999044,,speed,space,17.52658159099974,,,,,,0.0,0.0,0.0,1.0,4.0,1.0,9.0,1.0,175.96385678800016,,,,,,,,,175.95488159800016,176.75189122699976,177.54523044799998,177.5360991540001,177.5366213389998,177.54523044799998,177.54523044799998,177.54523044799998,,178.46148835299982,,,,,,,,,,,,,,,,,,,,,,,,,,,,,,left,0.0,0.9058032339999044,,,,,sub-233,1,random_dot,60.47746462392519,
right,right,10.0,0.0,5.0,right,1.0,1.4131299010000475,,speed,space,17.52658159099974,,,,,,0.0,0.0,0.0,1.0,5.0,0.0,10.0,1.0,178.48515856899985,,,,,,,,,178.46192865700004,179.65975005300015,180.4534015690001,180.4444629149998,180.444868179,180.4534015690001,180.4534015690001,180.4534015690001,,181.8704736929999,,,,,,,,,,,,,,,,,,,,,,,,,,,,,,right,1.0,1.4131299010000475,,,,,sub-233,1,random_dot,60.47746462392519,
left,left,11.0,1.0,5.0,left,1.0,3.123618247000195,,speed,space,17.52658159099974,,,,,,0.0,0.0,0.0,1.0,5.0,1.0,11.0,0.0,181.8801245270001,,,,,,,,,181.8707907060002,183.0685265980001,183.8622275849998,183.8528534930001,183.85338385700013,183.8622275849998,183.8622275849998,183.8622275849998,,186.99206423399983,,,,,,,,,,,,,,,,,,,,,,,,,,,,,,left,1.0,3.123618247000195,,,,,sub-233,1,random_dot,60.47746462392519,
left,left,12.0,0.0,6.0,right,0.0,2.81301290600004,,speed,space,17.52658159099974,,,,,,0.0,0.0,0.0,1.0,6.0,0.0,12.0,0.0,187.00233374299975,,,,,,,,,186.99244740099996,187.08631410599992,187.88880155000012,187.87707887899975,187.877633523,187.88880155000012,187.88880155000012,187.88880155000012,,190.70528387900004,,,,,,,,,,,,,,,,,,,,,,,,,,,,,,right,0.0,2.81301290600004,,,,,sub-233,1,random_dot,60.47746462392519,
right,right,13.0,1.0,6.0,right,1.0,2.736923644999933,,speed,space,17.52658159099974,,,,,,0.0,0.0,0.0,1.0,6.0,1.0,13.0,1.0,190.713585986,,,,,,,,,190.705724163,191.05184702199995,191.84597520199983,191.83631227199976,191.83684473599988,191.84597520199983,191.84597520199983,191.84597520199983,,194.593526914,,,,,,,,,,,,,,,,,,,,,,,,,,,,,,right,1.0,2.736923644999933,,,,,sub-233,1,random_dot,60.47746462392519,
right,right,14.0,0.0,7.0,left,0.0,2.974766316999649,,speed,space,17.52658159099974,,,,,,0.0,0.0,0.0,1.0,7.0,0.0,14.0,1.0,194.6025900919999,,,,,,,,,194.59397364100005,195.79305996599987,196.58983741200015,196.57777178200013,196.5783222300001,196.58983741200015,196.58983741200015,196.58983741200015,,199.5722594949998,,,,,,,,,,,,,,,,,,,,,,,,,,,,,,left,0.0,2.974766316999649,,,,,sub-233,1,random_dot,60.47746462392519,
left,left,15.0,1.0,7.0,right,0.0,2.429387800999848,,speed,space,17.52658159099974,,,,,,0.0,0.0,0.0,1.0,7.0,1.0,15.0,0.0,199.5827187949999,,,,,,,,,199.57268696599976,199.9197077650001,200.71974196600013,200.70783165600005,200.7083662609998,200.71974196600013,200.71974196600013,200.71974196600013,,203.15963851200013,,,,,,,,,,,,,,,,,,,,,,,,,,,,,,right,0.0,2.429387800999848,,,,,sub-233,1,random_dot,60.47746462392519,
left,left,16.0,0.0,8.0,left,1.0,2.016873303000011,,speed,space,17.52658159099974,,,,,,0.0,0.0,0.0,1.0,8.0,0.0,16.0,0.0,203.16793807900007,,,,,,,,,203.160093467,203.95911064099985,204.76743271799975,204.74337698399995,204.7439183319998,204.76743271799975,204.76743271799975,204.76743271799975,,206.7884703320001,,,,,,,,,,,,,,,,,,,,,,,,,,,,,,left,1.0,2.016873303000011,,,,,sub-233,1,random_dot,60.47746462392519,
right,right,17.0,1.0,8.0,left,0.0,3.205011284000193,,speed,space,17.52658159099974,,,,,,0.0,0.0,0.0,1.0,8.0,1.0,17.0,1.0,206.797402018,,,,,,,,,206.78884863799976,207.58524040500012,208.37810870600012,208.36922990499988,208.36962357099992,208.37810870600012,208.37810870600012,208.37810870600012,,211.58781785100015,,,,,,,,,,,,,,,,,,,,,,,,,,,,,,left,0.0,3.205011284000193,,,,,sub-233,1,random_dot,60.47746462392519,
right,right,18.0,0.0,9.0,left,0.0,2.611799149000035,,speed,space,17.52658159099974,,,,,,0.0,0.0,0.0,1.0,9.0,0.0,18.0,1.0,211.59638974900008,,,,,,,,,211.58820987699983,211.68533520399976,212.47892220099996,212.46948907600017,212.470026816,212.47892220099996,212.47892220099996,212.47892220099996,,215.10515270199997,,,,,,,,,,,,,,,,,,,,,,,,,,,,,,left,0.0,2.611799149000035,,,,,sub-233,1,random_dot,60.47746462392519,
left,left,19.0,1.0,9.0,left,1.0,2.5229393569998138,,speed,space,17.52658159099974,,,,,,0.0,0.0,0.0,1.0,9.0,1.0,19.0,0.0,215.112884612,,,,,,,,,215.10560960300015,215.9017716630001,216.6960618359999,216.6864012420001,216.68693665499995,216.6960618359999,216.6960618359999,216.6960618359999,,219.22690622499977,,,,,,,,,,,,,,,,,,,,,,,,,,,,,,left,1.0,2.5229393569998138,,,,,sub-233,1,random_dot,60.47746462392519,
right,right,20.0,0.0,10.0,right,1.0,3.0257164100003138,,speed,space,17.52658159099974,,,,,,0.0,0.0,0.0,1.0,10.0,0.0,20.0,1.0,219.23604236099985,,,,,,,,,219.22733511700017,220.42554510799985,221.2184108800002,221.20933280300005,221.2097345000002,221.2184108800002,221.2184108800002,221.2184108800002,,224.2470699340001,,,,,,,,,,,,,,,,,,,,,,,,,,,,,,right,1.0,3.0257164100003138,,,,,sub-233,1,random_dot,60.47746462392519,
left,left,21.0,1.0,10.0,right,0.0,2.725448162000248,,speed,space,17.52658159099974,,,,,,0.0,0.0,0.0,1.0,10.0,1.0,21.0,0.0,224.257102695,,,,,,,,,224.24757956199983,225.44215859,226.25073227199985,226.226453235,226.22699417800004,226.25073227199985,226.25073227199985,226.25073227199985,,228.98853023899983,,,,,,,,,,,,,,,,,,,,,,,,,,,,,,right,0.0,2.725448162000248,,,,,sub-233,1,random_dot,60.47746462392519,
left,left,22.0,0.0,11.0,left,1.0,2.488585478999994,,speed,space,17.52658159099974,,,,,,0.0,0.0,0.0,1.0,11.0,0.0,22.0,0.0,228.9991584620002,,,,,,,,,228.98911208399977,229.084778294,229.88517277599976,229.8727213699999,229.87326571599988,229.88517277599976,229.88517277599976,229.88517277599976,,232.38184315499984,,,,,,,,,,,,,,,,,,,,,,,,,,,,,,left,1.0,2.488585478999994,,,,,sub-233,1,random_dot,60.47746462392519,
right,right,23.0,1.0,11.0,left,0.0,0.4415386780001427,,speed,space,17.52658159099974,,,,,,0.0,0.0,0.0,1.0,11.0,1.0,23.0,1.0,232.391414407,,,,,,,,,232.38228942700016,233.57584236899996,234.3840813490001,234.359890833,234.3604384969999,234.3840813490001,234.3840813490001,234.3840813490001,,234.84163778799984,,,,,,,,,,,,,,,,,,,,,,,,,,,,,,left,0.0,0.4415386780001427,,,,,sub-233,1,random_dot,60.47746462392519,
right,right,24.0,0.0,12.0,left,0.0,0.8528191320001497,,speed,space,17.52658159099974,,,,,,0.0,0.0,0.0,1.0,12.0,0.0,24.0,1.0,234.8514232450002,,,,,,,,,234.84201105400007,235.18460750699975,235.978954577,235.96933068599992,235.96986054699985,235.978954577,235.978954577,235.978954577,,236.84243908100007,,,,,,,,,,,,,,,,,,,,,,,,,,,,,,left,0.0,0.8528191320001497,,,,,sub-233,1,random_dot,60.47746462392519,
left,left,25.0,1.0,12.0,right,0.0,0.4389401460002773,,speed,space,17.52658159099974,,,,,,0.0,0.0,0.0,1.0,12.0,1.0,25.0,0.0,236.8509181700001,,,,,,,,,236.8428695540001,238.0346427039999,238.82936049599996,238.81991957899984,238.82045056100011,238.82936049599996,238.82936049599996,238.82936049599996,,239.2707511250001,,,,,,,,,,,,,,,,,,,,,,,,,,,,,,right,0.0,0.4389401460002773,,,,,sub-233,1,random_dot,60.47746462392519,
left,left,26.0,0.0,13.0,right,0.0,1.8070650630002087,,speed,space,17.52658159099974,,,,,,0.0,0.0,0.0,1.0,13.0,0.0,26.0,0.0,239.27980857600005,,,,,,,,,239.271189308,239.3690381370002,240.16644732899977,240.15418276599985,240.154711056,240.16644732899977,240.16644732899977,240.16644732899977,,241.980869044,,,,,,,,,,,,,,,,,,,,,,,,,,,,,,right,0.0,1.8070650630002087,,,,,sub-233,1,random_dot,60.47746462392519,
right,right,27.0,1.0,13.0,right,1.0,0.7135735920001025,,speed,space,17.52658159099974,,,,,,0.0,0.0,0.0,1.0,13.0,1.0,27.0,1.0,241.99090651100005,,,,,,,,,241.98130459799995,242.32530607599983,243.13666186499995,243.125595689,243.12601790000008,243.13666186499995,243.13666186499995,243.13666186499995,,243.85482299800012,,,,,,,,,,,,,,,,,,,,,,,,,,,,,,right,1.0,0.7135735920001025,,,,,sub-233,1,random_dot,60.47746462392519,
right,right,28.0,0.0,14.0,right,1.0,0.8403781979995983,,speed,space,17.52658159099974,,,,,,0.0,0.0,0.0,1.0,14.0,0.0,28.0,1.0,243.86367450099988,,,,,,,,,243.85528441499991,245.05050766700012,245.84270041399984,245.834554049,245.83497823100012,245.84270041399984,245.84270041399984,245.84270041399984,,246.68689545300003,,,,,,,,,,,,,,,,,,,,,,,,,,,,,,right,1.0,0.8403781979995983,,,,,sub-233,1,random_dot,60.47746462392519,
left,left,29.0,1.0,14.0,right,0.0,1.0305264409998929,,speed,space,17.52658159099974,,,,,,0.0,0.0,0.0,1.0,14.0,1.0,29.0,0.0,246.69720367699983,,,,,,,,,246.6873264320002,247.03450608799997,247.8272237430001,247.8183913150001,247.8187960780001,247.8272237430001,247.8272237430001,247.8272237430001,,248.86398216499992,,,,,,,,,,,,,,,,,,,,,,,,,,,,,,right,0.0,1.0305264409998929,,,,,sub-233,1,random_dot,60.47746462392519,
right,right,30.0,0.0,15.0,right,1.0,1.727196496999568,,speed,space,17.52658159099974,,,,,,0.0,0.0,0.0,1.0,15.0,0.0,30.0,1.0,248.87375245300015,,,,,,,,,248.8643729760001,248.95824141999992,249.75172605599985,249.742520414,249.7429141319999,249.75172605599985,249.75172605599985,249.75172605599985,,251.48680080699975,,,,,,,,,,,,,,,,,,,,,,,,,,,,,,right,1.0,1.727196496999568,,,,,sub-233,1,random_dot,60.47746462392519,
left,left,31.0,1.0,15.0,right,0.0,1.3964509259999431,,speed,space,17.52658159099974,,,,,,0.0,0.0,0.0,1.0,15.0,1.0,31.0,0.0,251.4953740330002,,,,,,,,,251.4872466060001,252.684932439,253.4784966699999,253.46873364500016,253.4692670710001,253.4784966699999,253.4784966699999,253.4784966699999,,254.886884861,,,,,,,,,,,,,,,,,,,,,,,,,,,,,,right,0.0,1.3964509259999431,,,,,sub-233,1,random_dot,60.47746462392519,
left,left,32.0,0.0,16.0,left,1.0,0.4093265609999434,,speed,space,17.52658159099974,,,,,,0.0,0.0,0.0,1.0,16.0,0.0,32.0,0.0,254.895783169,,,,,,,,,254.88731871499976,256.08397824199983,256.8772255839999,256.8683646989998,256.86890777200006,256.8772255839999,256.8772255839999,256.8772255839999,,257.2918042900001,,,,,,,,,,,,,,,,,,,,,,,,,,,,,,left,1.0,0.4093265609999434,,,,,sub-233,1,random_dot,60.47746462392519,
right,right,33.0,1.0,16.0,right,1.0,3.802921533000245,,speed,space,17.52658159099974,,,,,,0.0,0.0,0.0,1.0,16.0,1.0,33.0,1.0,257.30180811699984,,,,,,,,,257.29224088,258.0849420189997,258.8790002989999,258.869381082,258.86990877300013,258.8790002989999,258.8790002989999,258.8790002989999,,262.68730570900016,,,,,,,,,,,,,,,,,,,,,,,,,,,,,,right,1.0,3.802921533000245,,,,,sub-233,1,random_dot,60.47746462392519,
right,right,34.0,0.0,17.0,right,1.0,2.155625771999894,,speed,space,17.52658159099974,,,,,,0.0,0.0,0.0,1.0,17.0,0.0,34.0,1.0,262.6958662950001,,,,,,,,,262.68768133000003,263.48453254800006,264.27794102100006,264.268542756,264.2690762809998,264.27794102100006,264.27794102100006,264.27794102100006,,266.4410024529998,,,,,,,,,,,,,,,,,,,,,,,,,,,,,,right,1.0,2.155625771999894,,,,,sub-233,1,random_dot,60.47746462392519,
left,left,35.0,1.0,17.0,right,0.0,2.039033093999933,,speed,space,17.52658159099974,,,,,,0.0,0.0,0.0,1.0,17.0,1.0,35.0,0.0,266.4511255980001,,,,,,,,,266.4413768909999,267.634177678,268.42858990800005,268.4186950170001,268.4192204370001,268.42858990800005,268.42858990800005,268.42858990800005,,270.469985231,,,,,,,,,,,,,,,,,,,,,,,,,,,,,,right,0.0,2.039033093999933,,,,,sub-233,1,random_dot,60.47746462392519,
right,right,36.0,0.0,18.0,left,0.0,3.304904290000195,,speed,space,17.52658159099974,,,,,,0.0,0.0,0.0,1.0,18.0,0.0,36.0,1.0,270.4782378670002,,,,,,,,,270.4705186619999,270.568098495,271.3847878329998,271.36805794300017,271.368593271,271.3847878329998,271.3847878329998,271.3847878329998,,274.6978685590002,,,,,,,,,,,,,,,,,,,,,,,,,,,,,,left,0.0,3.304904290000195,,,,,sub-233,1,random_dot,60.47746462392519,
left,left,37.0,1.0,18.0,right,0.0,0.4149025060000895,,speed,space,17.52658159099974,,,,,,0.0,0.0,0.0,1.0,18.0,1.0,37.0,0.0,274.7072916249999,,,,,,,,,274.69825870099976,275.89139934900004,276.699932644,276.675902681,276.67647628199984,276.699932644,276.699932644,276.699932644,,277.12541600099985,,,,,,,,,,,,,,,,,,,,,,,,,,,,,,right,0.0,0.4149025060000895,,,,,sub-233,1,random_dot,60.47746462392519,
left,left,38.0,0.0,19.0,right,0.0,2.093742934999682,,speed,space,17.52658159099974,,,,,,0.0,0.0,0.0,1.0,19.0,0.0,38.0,0.0,277.13381726399984,,,,,,,,,277.1257905040002,277.2176059960002,278.01231758899985,278.0025792329998,278.003114481,278.01231758899985,278.01231758899985,278.01231758899985,,280.109844135,,,,,,,,,,,,,,,,,,,,,,,,,,,,,,right,0.0,2.093742934999682,,,,,sub-233,1,random_dot,60.47746462392519,
right,right,39.0,1.0,19.0,right,1.0,0.9695323280002413,,speed,space,17.52658159099974,,,,,,0.0,0.0,0.0,1.0,19.0,1.0,39.0,1.0,280.1216172909999,,,,,,,,,280.1105538870001,280.4581165210002,281.250614432,281.2416032770002,281.2420022219999,281.250614432,281.250614432,281.250614432,,282.23166342600007,,,,,,,,,,,,,,,,,,,,,,,,,,,,,,right,1.0,0.9695323280002413,,,,,sub-233,1,random_dot,60.47746462392519,
left,left,40.0,0.0,20.0,right,0.0,0.9087730590003956,,speed,space,17.52658159099974,,,,,,0.0,0.0,0.0,1.0,20.0,0.0,40.0,0.0,282.2420396759999,,,,,,,,,282.23223010799984,283.42530863799993,284.2182221120001,284.2091744009999,284.2095833919998,284.2182221120001,284.2182221120001,284.2182221120001,,285.1358894379996,,,,,,,,,,,,,,,,,,,,,,,,,,,,,,right,0.0,0.9087730590003956,,,,,sub-233,1,random_dot,60.47746462392519,
right,right,41.0,1.0,20.0,right,1.0,1.3199729999996634,,speed,space,17.52658159099974,,,,,,0.0,0.0,0.0,1.0,20.0,1.0,41.0,1.0,285.14516163799954,,,,,,,,,285.13631495300024,285.4840040920003,286.27796048400023,286.26849083499974,286.269017911,286.27796048400023,286.27796048400023,286.27796048400023,,287.60959143399987,,,,,,,,,,,,,,,,,,,,,,,,,,,,,,right,1.0,1.3199729999996634,,,,,sub-233,1,random_dot,60.47746462392519,
left,left,42.0,0.0,21.0,right,0.0,0.9523295529997996,,speed,space,17.52658159099974,,,,,,0.0,0.0,0.0,1.0,21.0,0.0,42.0,0.0,287.621683975,,,,,,,,,287.61018606399966,288.8084375379999,289.6052620630003,289.59323615899984,289.5937907120001,289.6052620630003,289.6052620630003,289.6052620630003,,290.56406641700005,,,,,,,,,,,,,,,,,,,,,,,,,,,,,,right,0.0,0.9523295529997996,,,,,sub-233,1,random_dot,60.47746462392519,
right,right,43.0,1.0,21.0,left,0.0,0.4059542430004512,,speed,space,17.52658159099974,,,,,,0.0,0.0,0.0,1.0,21.0,1.0,43.0,1.0,290.57365587600043,,,,,,,,,290.56451653700015,290.65911172000006,291.45521614699965,291.4431826309997,291.44372340400014,291.45521614699965,291.45521614699965,291.45521614699965,,291.8692173280001,,,,,,,,,,,,,,,,,,,,,,,,,,,,,,left,0.0,0.4059542430004512,,,,,sub-233,1,random_dot,60.47746462392519,
right,right,44.0,0.0,22.0,right,1.0,0.3894685189998199,,speed,space,17.52658159099974,,,,,,0.0,0.0,0.0,1.0,22.0,0.0,44.0,1.0,291.8784919960003,,,,,,,,,291.86964787700026,291.9680144030003,292.7675759540002,292.7569854210001,292.7573832860003,292.7675759540002,292.7675759540002,292.7675759540002,,293.1703575679999,,,,,,,,,,,,,,,,,,,,,,,,,,,,,,right,1.0,0.3894685189998199,,,,,sub-233,1,random_dot,60.47746462392519,
left,left,45.0,1.0,22.0,left,1.0,1.023025761000099,,speed,space,17.52658159099974,,,,,,0.0,0.0,0.0,1.0,22.0,1.0,45.0,0.0,293.18000272400013,,,,,,,,,293.17093798700034,293.51737981199994,294.31114402399953,294.30266466500007,294.3030622860001,294.31114402399953,294.31114402399953,294.31114402399953,,295.34181684199984,,,,,,,,,,,,,,,,,,,,,,,,,,,,,,left,1.0,1.023025761000099,,,,,sub-233,1,random_dot,60.47746462392519,
right,right,46.0,0.0,23.0,left,0.0,0.739792714000032,,speed,space,17.52658159099974,,,,,,0.0,0.0,0.0,1.0,23.0,0.0,46.0,1.0,295.3505813249999,,,,,,,,,295.342255133,295.6838801620001,296.4771916249997,296.4679883129997,296.46851826600005,296.4771916249997,296.4771916249997,296.4771916249997,,297.2251770810003,,,,,,,,,,,,,,,,,,,,,,,,,,,,,,left,0.0,0.739792714000032,,,,,sub-233,1,random_dot,60.47746462392519,
left,left,47.0,1.0,23.0,left,1.0,0.5411072589995456,,speed,space,17.52658159099974,,,,,,0.0,0.0,0.0,1.0,23.0,1.0,47.0,0.0,297.2338134309998,,,,,,,,,297.22563355600005,297.5672955340001,298.3613014380003,298.351640679,298.3521723500003,298.3613014380003,298.3613014380003,298.3613014380003,,298.90757870900006,,,,,,,,,,,,,,,,,,,,,,,,,,,,,,left,1.0,0.5411072589995456,,,,,sub-233,1,random_dot,60.47746462392519,
right,right,48.0,0.0,24.0,left,0.0,1.022926754000764,,speed,space,17.52658159099974,,,,,,0.0,0.0,0.0,1.0,24.0,0.0,48.0,1.0,298.91718018599977,,,,,,,,,298.9079570500003,299.2506742330001,300.0429202529999,300.0342149189996,300.0346108480003,300.0429202529999,300.0429202529999,300.0429202529999,,301.06977008900003,,,,,,,,,,,,,,,,,,,,,,,,,,,,,,left,0.0,1.022926754000764,,,,,sub-233,1,random_dot,60.47746462392519,
left,left,49.0,1.0,24.0,left,1.0,1.8536932540000637,,speed,space,17.52658159099974,,,,,,0.0,0.0,0.0,1.0,24.0,1.0,49.0,0.0,301.0777347119997,,,,,,,,,301.0701524889996,301.1677786710002,301.96188079600006,301.9524170689997,301.95297214,301.96188079600006,301.96188079600006,301.96188079600006,,303.82083484199984,,,,,,,,,,,,,,,,,,,,,,,,,,,,,,left,1.0,1.8536932540000637,,,,,sub-233,1,random_dot,60.47746462392519,
right,right,50.0,0.0,25.0,right,1.0,1.9365453279997384,,speed,space,17.52658159099974,,,,,,0.0,0.0,0.0,1.0,25.0,0.0,50.0,1.0,303.83080303199995,,,,,,,,,303.8212604080004,304.6170734120001,305.4117610489998,305.4020379819999,305.40256045700016,305.4117610489998,305.4117610489998,305.4117610489998,,307.35278207700003,,,,,,,,,,,,,,,,,,,,,,,,,,,,,,right,1.0,1.9365453279997384,,,,,sub-233,1,random_dot,60.47746462392519,
left,left,51.0,1.0,25.0,left,1.0,0.9064298620005502,,speed,space,17.52658159099974,,,,,,0.0,0.0,0.0,1.0,25.0,1.0,51.0,0.0,307.3612902210002,,,,,,,,,307.3532320569998,308.55053209399966,309.34572112700016,309.33560946700027,309.3361463650004,309.34572112700016,309.34572112700016,309.34572112700016,,310.2630794270003,,,,,,,,,,,,,,,,,,,,,,,,,,,,,,left,1.0,0.9064298620005502,,,,,sub-233,1,random_dot,60.47746462392519,
right,right,52.0,0.0,26.0,left,0.0,0.8242922700001145,,speed,space,17.52658159099974,,,,,,0.0,0.0,0.0,1.0,26.0,0.0,52.0,1.0,310.2724788210003,,,,,,,,,310.2635117630002,311.0580775550002,311.85455041399973,311.84252975000027,311.8430776179998,311.85455041399973,311.85455041399973,311.85455041399973,,312.6864252139999,,,,,,,,,,,,,,,,,,,,,,,,,,,,,,left,0.0,0.8242922700001145,,,,,sub-233,1,random_dot,60.47746462392519,
left,left,53.0,1.0,26.0,left,1.0,0.9233938510005828,,speed,space,17.52658159099974,,,,,,0.0,0.0,0.0,1.0,26.0,1.0,53.0,0.0,312.6951000269996,,,,,,,,,312.6867940679999,313.4832132440001,314.27630173399984,314.2676748879999,314.26808735199984,314.27630173399984,314.27630173399984,314.27630173399984,,315.208841448,,,,,,,,,,,,,,,,,,,,,,,,,,,,,,left,1.0,0.9233938510005828,,,,,sub-233,1,random_dot,60.47746462392519,
right,right,54.0,0.0,27.0,left,0.0,1.8316738769999572,,speed,space,17.52658159099974,,,,,,0.0,0.0,0.0,1.0,27.0,0.0,54.0,1.0,315.2181923339999,,,,,,,,,315.20914991499967,316.40539066500014,317.2000057910004,317.1903752539997,317.19077983000034,317.2000057910004,317.2000057910004,317.2000057910004,,319.03590692900025,,,,,,,,,,,,,,,,,,,,,,,,,,,,,,left,0.0,1.8316738769999572,,,,,sub-233,1,random_dot,60.47746462392519,
left,left,55.0,1.0,27.0,left,1.0,0.8554331010000169,,speed,space,17.52658159099974,,,,,,0.0,0.0,0.0,1.0,27.0,1.0,55.0,0.0,319.0448517689997,,,,,,,,,319.0362179440003,319.1355021510003,319.93445439200013,319.9249291410001,319.9253490019996,319.93445439200013,319.93445439200013,319.93445439200013,,320.797863065,,,,,,,,,,,,,,,,,,,,,,,,,,,,,,left,1.0,0.8554331010000169,,,,,sub-233,1,random_dot,60.47746462392519,
left,left,56.0,0.0,28.0,left,1.0,0.4988854840003114,,speed,space,17.52658159099974,,,,,,0.0,0.0,0.0,1.0,28.0,0.0,56.0,0.0,320.807781514,,,,,,,,,320.79837130999977,321.59096411200017,322.3836113319999,322.37433972400004,322.3747495310004,322.3836113319999,322.3836113319999,322.3836113319999,,322.89300421799953,,,,,,,,,,,,,,,,,,,,,,,,,,,,,,left,1.0,0.4988854840003114,,,,,sub-233,1,random_dot,60.47746462392519,
right,right,57.0,1.0,28.0,left,0.0,1.4554214049994698,,speed,space,17.52658159099974,,,,,,0.0,0.0,0.0,1.0,28.0,1.0,57.0,1.0,322.9048448660001,,,,,,,,,322.89343556999984,322.9916769739998,323.793579441,323.78450349700006,323.78490089199977,323.793579441,323.793579441,323.793579441,,325.25769511299995,,,,,,,,,,,,,,,,,,,,,,,,,,,,,,left,0.0,1.4554214049994698,,,,,sub-233,1,random_dot,60.47746462392519,
left,left,58.0,0.0,29.0,left,1.0,0.5610717760000625,,speed,space,17.52658159099974,,,,,,0.0,0.0,0.0,1.0,29.0,0.0,58.0,0.0,325.2661322609997,,,,,,,,,325.2581212809996,325.5999300219996,326.39234298899964,326.38393627399955,326.384335493,326.39234298899964,326.39234298899964,326.39234298899964,,326.95757473500043,,,,,,,,,,,,,,,,,,,,,,,,,,,,,,left,1.0,0.5610717760000625,,,,,sub-233,1,random_dot,60.47746462392519,
right,right,59.0,1.0,29.0,left,0.0,0.4044530130004204,,speed,space,17.52658159099974,,,,,,0.0,0.0,0.0,1.0,29.0,1.0,59.0,1.0,326.9656246789996,,,,,,,,,326.957948492,327.75002109800016,328.5444191900001,328.53478374,328.5353266930001,328.5444191900001,328.5444191900001,328.5444191900001,,328.9539415860004,,,,,,,,,,,,,,,,,,,,,,,,,,,,,,left,0.0,0.4044530130004204,,,,,sub-233,1,random_dot,60.47746462392519,
,,0.0,0.0,0.0,,,,,speed,space,17.52658159099974,,,,,,0.0,0.0,0.0,1.0,,,,,,,,,,,,,,,,,,,,,,,,,,,,,,,,,,,,,,,,,,,,,,,,,,,,,,,,,,,,sub-233,1,random_dot,60.47746462392519,
right,right,0.0,0.0,0.0,right,1.0,0.3869266749998132,,accuracy,space,10.445267500000227,,,,,,0.0,1.0,1.0,0.0,0.0,0.0,0.0,1.0,339.4511360789997,,,,,,,,,339.43765292800026,340.623883965,341.4165986590001,341.4075417910003,341.40797411999984,341.4165986590001,341.4165986590001,341.4165986590001,,341.8089499900002,,,,,,,,,,,,,,,,,,,,,,,328.9674184009996,328.9758919560004,328.9758919560004,339.43079937599987,space,10.445267500000227,,right,1.0,0.3869266749998132,,,,,sub-233,1,random_dot,60.47746462392519,
left,left,1.0,1.0,0.0,right,0.0,2.170814797000276,,accuracy,space,10.445267500000227,,,,,,0.0,1.0,1.0,0.0,0.0,1.0,1.0,0.0,341.81813555300005,,,,,,,,,341.8093877079996,343.0078614119998,343.80482221600005,343.7927811129998,343.7933306500004,343.80482221600005,343.80482221600005,343.80482221600005,,345.9806479929998,,,,,,,,,,,,,,,,,,,,,,,,,,,,,,right,0.0,2.170814797000276,,,,,sub-233,1,random_dot,60.47746462392519,
left,left,2.0,0.0,1.0,left,1.0,2.5901468219999515,,accuracy,space,10.445267500000227,,,,,,0.0,1.0,1.0,0.0,1.0,0.0,2.0,0.0,345.99037754899973,,,,,,,,,345.9811724360002,346.32441186200003,347.12160014200026,347.110589247,347.11113674299986,347.12160014200026,347.12160014200026,347.12160014200026,,349.71942240100043,,,,,,,,,,,,,,,,,,,,,,,,,,,,,,left,1.0,2.5901468219999515,,,,,sub-233,1,random_dot,60.47746462392519,
right,right,3.0,1.0,1.0,left,0.0,0.894669629999953,,accuracy,space,10.445267500000227,,,,,,0.0,1.0,1.0,0.0,1.0,1.0,3.0,1.0,349.7286879469998,,,,,,,,,349.71985925000035,350.5166381630001,351.3099340699996,351.30079133000027,351.3011898660002,351.3099340699996,351.3099340699996,351.3099340699996,,352.2189008150003,,,,,,,,,,,,,,,,,,,,,,,,,,,,,,left,0.0,0.894669629999953,,,,,sub-233,1,random_dot,60.47746462392519,
left,left,4.0,0.0,2.0,right,0.0,0.5894795820004219,,accuracy,space,10.445267500000227,,,,,,0.0,1.0,1.0,0.0,2.0,0.0,4.0,0.0,352.233741603,,,,,,,,,352.2194841129999,352.56657733400016,353.3614931260004,353.35152532999973,353.3520587329999,353.3614931260004,353.3614931260004,353.3614931260004,,353.96436409399985,,,,,,,,,,,,,,,,,,,,,,,,,,,,,,right,0.0,0.5894795820004219,,,,,sub-233,1,random_dot,60.47746462392519,
right,right,5.0,1.0,2.0,left,0.0,0.3803309920003812,,accuracy,space,10.445267500000227,,,,,,0.0,1.0,1.0,0.0,2.0,1.0,5.0,1.0,353.9726278929997,,,,,,,,,353.96482541399973,355.1575908669997,355.9546681879997,355.9425960169997,355.9431427659997,355.9546681879997,355.9546681879997,355.9546681879997,,356.3402593220003,,,,,,,,,,,,,,,,,,,,,,,,,,,,,,left,0.0,0.3803309920003812,,,,,sub-233,1,random_dot,60.47746462392519,
right,right,6.0,0.0,3.0,left,0.0,1.2661435399995753,,accuracy,space,10.445267500000227,,,,,,0.0,1.0,1.0,0.0,3.0,0.0,6.0,1.0,356.34990770099967,,,,,,,,,356.3406376799999,357.53308236099974,358.3266029270003,358.3172980459999,358.31768477000014,358.3266029270003,358.3266029270003,358.3266029270003,,359.60231871899987,,,,,,,,,,,,,,,,,,,,,,,,,,,,,,left,0.0,1.2661435399995753,,,,,sub-233,1,random_dot,60.47746462392519,
left,left,7.0,1.0,3.0,left,1.0,0.944227488999786,,accuracy,space,10.445267500000227,,,,,,0.0,1.0,1.0,0.0,3.0,1.0,7.0,0.0,359.6111328129996,,,,,,,,,359.6027476390004,359.7012304550003,360.4999406490001,360.4907852319998,360.4911928030001,360.4999406490001,360.4999406490001,360.4999406490001,,361.4485653240004,,,,,,,,,,,,,,,,,,,,,,,,,,,,,,left,1.0,0.944227488999786,,,,,sub-233,1,random_dot,60.47746462392519,
right,right,8.0,0.0,4.0,left,0.0,0.906847614999606,,accuracy,space,10.445267500000227,,,,,,0.0,1.0,1.0,0.0,4.0,0.0,8.0,1.0,361.4583037440002,,,,,,,,,361.4489991420001,362.64056844000015,363.4367857809998,363.4250680979999,363.4256087030003,363.4367857809998,363.4367857809998,363.4367857809998,,364.35274285700007,,,,,,,,,,,,,,,,,,,,,,,,,,,,,,left,0.0,0.906847614999606,,,,,sub-233,1,random_dot,60.47746462392519,
left,left,9.0,1.0,4.0,left,1.0,1.04560530299932,,accuracy,space,10.445267500000227,,,,,,0.0,1.0,1.0,0.0,4.0,1.0,9.0,0.0,364.3620047760001,,,,,,,,,364.3531825719997,365.14994856600015,365.9451462510001,365.9343656349997,365.9349140420004,365.9451462510001,365.9451462510001,365.9451462510001,,366.9951868220001,,,,,,,,,,,,,,,,,,,,,,,,,,,,,,left,1.0,1.04560530299932,,,,,sub-233,1,random_dot,60.47746462392519,
right,right,10.0,0.0,5.0,right,1.0,2.3335478019998845,,accuracy,space,10.445267500000227,,,,,,0.0,1.0,1.0,0.0,5.0,0.0,10.0,1.0,367.0045868760003,,,,,,,,,366.9956104500002,367.09117696400017,367.8925916129997,367.8837039240002,367.88409092400025,367.8925916129997,367.8925916129997,367.8925916129997,,370.23109758999954,,,,,,,,,,,,,,,,,,,,,,,,,,,,,,right,1.0,2.3335478019998845,,,,,sub-233,1,random_dot,60.47746462392519,
left,left,11.0,1.0,5.0,left,1.0,1.845179312999789,,accuracy,space,10.445267500000227,,,,,,0.0,1.0,1.0,0.0,5.0,1.0,11.0,0.0,370.2410297689999,,,,,,,,,370.2315541780004,371.0239909099996,371.8200174010003,371.8084813279997,371.8090220420004,371.8200174010003,371.8200174010003,371.8200174010003,,373.6686257070001,,,,,,,,,,,,,,,,,,,,,,,,,,,,,,left,1.0,1.845179312999789,,,,,sub-233,1,random_dot,60.47746462392519,
left,left,12.0,0.0,6.0,right,0.0,0.426159956000447,,accuracy,space,10.445267500000227,,,,,,0.0,1.0,1.0,0.0,6.0,0.0,12.0,0.0,373.6769585159996,,,,,,,,,373.6690670490002,374.8662717949997,375.6601314479999,375.65065208999977,375.6511911120001,375.6601314479999,375.6601314479999,375.6601314479999,,376.1024787049996,,,,,,,,,,,,,,,,,,,,,,,,,,,,,,right,0.0,0.426159956000447,,,,,sub-233,1,random_dot,60.47746462392519,
right,right,13.0,1.0,6.0,left,0.0,6.059405873999822,,accuracy,space,10.445267500000227,,,,,,0.0,1.0,1.0,0.0,6.0,1.0,13.0,1.0,376.1130871749997,,,,,,,,,376.1029279270001,376.4504310870002,377.2443365969998,377.2346023690002,377.23513856099953,377.2443365969998,377.2443365969998,377.2443365969998,382.24878822300025,383.3128750909996,,,,,,,,,,,,,,,,,,,,,,,,,,,,,,left,0.0,6.059405873999822,,,,,sub-233,1,random_dot,60.47746462392519,
right,right,14.0,0.0,7.0,left,0.0,0.6471640820000175,,accuracy,space,10.445267500000227,,,,,,0.0,1.0,1.0,0.0,7.0,0.0,14.0,1.0,383.3237387390004,,,,,,,,,383.3135562829998,384.508205435,385.30375296400007,385.29188809200014,385.2924246280004,385.30375296400007,385.30375296400007,385.30375296400007,,385.9574614369999,,,,,,,,,,,,,,,,,,,,,,,,,,,,,,left,0.0,0.6471640820000175,,,,,sub-233,1,random_dot,60.47746462392519,
left,left,15.0,1.0,7.0,left,1.0,1.7228687130000253,,accuracy,space,10.445267500000227,,,,,,0.0,1.0,1.0,0.0,7.0,1.0,15.0,0.0,385.9661411680004,,,,,,,,,385.9578978599998,386.307113112,387.1044221349998,387.0921826859999,387.09258886,387.1044221349998,387.1044221349998,387.1044221349998,,388.83725426199953,,,,,,,,,,,,,,,,,,,,,,,,,,,,,,left,1.0,1.7228687130000253,,,,,sub-233,1,random_dot,60.47746462392519,
left,left,16.0,0.0,8.0,right,0.0,0.5241653359998963,,accuracy,space,10.445267500000227,,,,,,0.0,1.0,1.0,0.0,8.0,0.0,16.0,0.0,388.8473743469999,,,,,,,,,388.8376855580004,390.0327193500002,390.8267690460002,390.8176621890002,390.8180995779999,390.8267690460002,390.8267690460002,390.8267690460002,,391.3532773279999,,,,,,,,,,,,,,,,,,,,,,,,,,,,,,right,0.0,0.5241653359998963,,,,,sub-233,1,random_dot,60.47746462392519,
right,right,17.0,1.0,8.0,right,1.0,1.108724954000536,,accuracy,space,10.445267500000227,,,,,,0.0,1.0,1.0,0.0,8.0,1.0,17.0,1.0,391.36180288700007,,,,,,,,,391.353801279,392.14932298400026,392.9443792159996,392.9338994109999,392.93442636200007,392.9443792159996,392.9443792159996,392.9443792159996,,394.05699131699976,,,,,,,,,,,,,,,,,,,,,,,,,,,,,,right,1.0,1.108724954000536,,,,,sub-233,1,random_dot,60.47746462392519,
left,left,18.0,0.0,9.0,right,0.0,0.942530141000134,,accuracy,space,10.445267500000227,,,,,,0.0,1.0,1.0,0.0,9.0,0.0,18.0,0.0,394.065358284,,,,,,,,,394.0573643550001,395.25659612200025,396.0648509560001,396.0407940070004,396.0413387849999,396.0648509560001,396.0648509560001,396.0648509560001,,397.01175150100016,,,,,,,,,,,,,,,,,,,,,,,,,,,,,,right,0.0,0.942530141000134,,,,,sub-233,1,random_dot,60.47746462392519,
right,right,19.0,1.0,9.0,right,1.0,1.3587878079997608,,accuracy,space,10.445267500000227,,,,,,0.0,1.0,1.0,0.0,9.0,1.0,19.0,1.0,397.02098885999976,,,,,,,,,397.0121285910004,397.1309443429996,397.9258683330004,397.9170605929999,397.9174498770003,397.9258683330004,397.9258683330004,397.9258683330004,,399.29049245299984,,,,,,,,,,,,,,,,,,,,,,,,,,,,,,right,1.0,1.3587878079997608,,,,,sub-233,1,random_dot,60.47746462392519,
right,right,20.0,0.0,10.0,right,1.0,1.6609016249994966,,accuracy,space,10.445267500000227,,,,,,0.0,1.0,1.0,0.0,10.0,0.0,20.0,1.0,399.29893315599975,,,,,,,,,399.29086209800016,399.640283358,400.4481991300004,400.424216762,400.42475137799966,400.4481991300004,400.4481991300004,400.4481991300004,,402.2008893859997,,,,,,,,,,,,,,,,,,,,,,,,,,,,,,right,1.0,1.6609016249994966,,,,,sub-233,1,random_dot,60.47746462392519,
left,left,21.0,1.0,10.0,left,1.0,0.4685340690002704,,accuracy,space,10.445267500000227,,,,,,0.0,1.0,1.0,0.0,10.0,1.0,21.0,0.0,402.2131360520002,,,,,,,,,402.2013492889996,402.99898888100006,403.7899204279997,403.7820473979996,403.78240036800025,403.7899204279997,403.7899204279997,403.7899204279997,,404.2675139210001,,,,,,,,,,,,,,,,,,,,,,,,,,,,,,left,1.0,0.4685340690002704,,,,,sub-233,1,random_dot,60.47746462392519,
left,left,22.0,0.0,11.0,right,0.0,0.4227954759999193,,accuracy,space,10.445267500000227,,,,,,0.0,1.0,1.0,0.0,11.0,0.0,22.0,0.0,404.275620811,,,,,,,,,404.2678962189998,405.4653790970001,406.2589442940002,406.25011138699983,406.25051285400014,406.2589442940002,406.2589442940002,406.2589442940002,,406.6856212580001,,,,,,,,,,,,,,,,,,,,,,,,,,,,,,right,0.0,0.4227954759999193,,,,,sub-233,1,random_dot,60.47746462392519,
right,right,23.0,1.0,11.0,right,1.0,0.3744522070001039,,accuracy,space,10.445267500000227,,,,,,0.0,1.0,1.0,0.0,11.0,1.0,23.0,1.0,406.69500638599993,,,,,,,,,406.68620356699967,407.8818412389997,408.6738676560003,408.66581283499954,408.6662106560002,408.6738676560003,408.6738676560003,408.6738676560003,,409.05106486199975,,,,,,,,,,,,,,,,,,,,,,,,,,,,,,right,1.0,0.3744522070001039,,,,,sub-233,1,random_dot,60.47746462392519,
right,right,24.0,0.0,12.0,right,1.0,0.8744093670002258,,accuracy,space,10.445267500000227,,,,,,0.0,1.0,1.0,0.0,12.0,0.0,24.0,1.0,409.059305104,,,,,,,,,409.0516062230004,410.2492925519996,411.04309437799975,411.03312127599975,411.0336503820004,411.04309437799975,411.04309437799975,411.04309437799975,,411.9237257870004,,,,,,,,,,,,,,,,,,,,,,,,,,,,,,right,1.0,0.8744093670002258,,,,,sub-233,1,random_dot,60.47746462392519,
left,left,25.0,1.0,12.0,right,0.0,0.6766054179997809,,accuracy,space,10.445267500000227,,,,,,0.0,1.0,1.0,0.0,12.0,1.0,25.0,0.0,411.9320931739999,,,,,,,,,411.9241800570003,412.71612147800033,413.50807701799977,413.4997336069996,413.5000852839999,413.50807701799977,413.50807701799977,413.50807701799977,,414.18983116000027,,,,,,,,,,,,,,,,,,,,,,,,,,,,,,right,0.0,0.6766054179997809,,,,,sub-233,1,random_dot,60.47746462392519,
left,left,26.0,0.0,13.0,right,0.0,0.7686321020000833,,accuracy,space,10.445267500000227,,,,,,0.0,1.0,1.0,0.0,13.0,0.0,26.0,0.0,414.1986866390002,,,,,,,,,414.1902618729996,414.2823896069999,415.07440526100027,415.0658498739999,415.0662534389999,415.07440526100027,415.07440526100027,415.07440526100027,,415.8516505479997,,,,,,,,,,,,,,,,,,,,,,,,,,,,,,right,0.0,0.7686321020000833,,,,,sub-233,1,random_dot,60.47746462392519,
right,right,27.0,1.0,13.0,right,1.0,0.8713155629993707,,accuracy,space,10.445267500000227,,,,,,0.0,1.0,1.0,0.0,13.0,1.0,27.0,1.0,415.8605807580002,,,,,,,,,415.85209763600005,416.649077009,417.4417708280002,417.43262256800017,417.43295868,417.4417708280002,417.4417708280002,417.4417708280002,,418.32363398699954,,,,,,,,,,,,,,,,,,,,,,,,,,,,,,right,1.0,0.8713155629993707,,,,,sub-233,1,random_dot,60.47746462392519,
left,left,28.0,0.0,14.0,right,0.0,0.4391841950000525,,accuracy,space,10.445267500000227,,,,,,0.0,1.0,1.0,0.0,14.0,0.0,28.0,0.0,418.3324196239996,,,,,,,,,418.32407434100014,419.122412188,419.9155345169997,419.90616396,419.9067079729998,419.9155345169997,419.9155345169997,419.9155345169997,,420.3565833649996,,,,,,,,,,,,,,,,,,,,,,,,,,,,,,right,0.0,0.4391841950000525,,,,,sub-233,1,random_dot,60.47746462392519,
right,right,29.0,1.0,14.0,left,0.0,0.7095105560001684,,accuracy,space,10.445267500000227,,,,,,0.0,1.0,1.0,0.0,14.0,1.0,29.0,1.0,420.36475851600017,,,,,,,,,420.35690765499976,421.5555768030004,422.36446226,422.340329059,422.3408853039996,422.36446226,422.36446226,422.36446226,,423.0835554869996,,,,,,,,,,,,,,,,,,,,,,,,,,,,,,left,0.0,0.7095105560001684,,,,,sub-233,1,random_dot,60.47746462392519,
left,left,30.0,0.0,15.0,left,1.0,0.4342141119996086,,accuracy,space,10.445267500000227,,,,,,0.0,1.0,1.0,0.0,15.0,0.0,30.0,0.0,423.0990593170004,,,,,,,,,423.08398245800026,424.2820221329998,425.0761680520004,425.06644068000014,425.06698268300033,425.0761680520004,425.0761680520004,425.0761680520004,,425.5139347250001,,,,,,,,,,,,,,,,,,,,,,,,,,,,,,left,1.0,0.4342141119996086,,,,,sub-233,1,random_dot,60.47746462392519,
right,right,31.0,1.0,15.0,right,1.0,0.6570825660000992,,accuracy,space,10.445267500000227,,,,,,0.0,1.0,1.0,0.0,15.0,1.0,31.0,1.0,425.5236107779997,,,,,,,,,425.5143794170003,425.8564987579998,426.6644118339996,426.6406179210003,426.6411564060004,426.6644118339996,426.6644118339996,426.6644118339996,,427.32783645599966,,,,,,,,,,,,,,,,,,,,,,,,,,,,,,right,1.0,0.6570825660000992,,,,,sub-233,1,random_dot,60.47746462392519,
right,right,32.0,0.0,16.0,left,0.0,1.2323967040001662,,accuracy,space,10.445267500000227,,,,,,0.0,1.0,1.0,0.0,16.0,0.0,32.0,1.0,427.3369832780004,,,,,,,,,427.3282130359999,427.6724901740004,428.465249161,428.4563674369997,428.45677717100034,428.465249161,428.465249161,428.465249161,,429.7012321670004,,,,,,,,,,,,,,,,,,,,,,,,,,,,,,left,0.0,1.2323967040001662,,,,,sub-233,1,random_dot,60.47746462392519,
left,left,33.0,1.0,16.0,right,0.0,1.002713343999858,,accuracy,space,10.445267500000227,,,,,,0.0,1.0,1.0,0.0,16.0,1.0,33.0,0.0,429.7096745439999,,,,,,,,,429.70165806999967,430.8987785889999,431.6938104619999,431.684286442,431.6848212399996,431.6938104619999,431.6938104619999,431.6938104619999,,432.7083762739999,,,,,,,,,,,,,,,,,,,,,,,,,,,,,,right,0.0,1.002713343999858,,,,,sub-233,1,random_dot,60.47746462392519,
left,left,34.0,0.0,17.0,right,0.0,5.164527250999527,,accuracy,space,10.445267500000227,,,,,,0.0,1.0,1.0,0.0,17.0,0.0,34.0,0.0,432.7193502409996,,,,,,,,,432.7088113140003,432.79982149800026,433.59914804200025,433.5894663169997,433.5898447309996,433.59914804200025,433.59914804200025,433.59914804200025,438.5830824050004,438.7737913939996,,,,,,,,,,,,,,,,,,,,,,,,,,,,,,right,0.0,5.164527250999527,,,,,sub-233,1,random_dot,60.47746462392519,
right,right,35.0,1.0,17.0,left,0.0,3.3938596540001527,,accuracy,space,10.445267500000227,,,,,,0.0,1.0,1.0,0.0,17.0,1.0,35.0,1.0,438.7825012210001,,,,,,,,,438.77423423699975,439.9739420279998,440.7701459160003,440.75798630300005,440.7585268529997,440.7701459160003,440.7701459160003,440.7701459160003,,444.1721447679997,,,,,,,,,,,,,,,,,,,,,,,,,,,,,,left,0.0,3.3938596540001527,,,,,sub-233,1,random_dot,60.47746462392519,
left,left,36.0,0.0,18.0,right,0.0,0.6305620719995204,,accuracy,space,10.445267500000227,,,,,,0.0,1.0,1.0,0.0,18.0,0.0,36.0,0.0,444.1821673310001,,,,,,,,,444.1725308569999,445.3654089819997,446.1606361449999,446.150561592,446.1510946080002,446.1606361449999,446.1606361449999,446.1606361449999,,446.79556597300007,,,,,,,,,,,,,,,,,,,,,,,,,,,,,,right,0.0,0.6305620719995204,,,,,sub-233,1,random_dot,60.47746462392519,
right,right,37.0,1.0,18.0,right,1.0,0.6191725740000038,,accuracy,space,10.445267500000227,,,,,,0.0,1.0,1.0,0.0,18.0,1.0,37.0,1.0,446.8052009730004,,,,,,,,,446.7960737469998,447.98910833699983,448.7975143830004,448.77379831200005,448.7743343850002,448.7975143830004,448.7975143830004,448.7975143830004,,449.4246053009997,,,,,,,,,,,,,,,,,,,,,,,,,,,,,,right,1.0,0.6191725740000038,,,,,sub-233,1,random_dot,60.47746462392519,
left,left,38.0,0.0,19.0,right,0.0,0.4557245569994848,,accuracy,space,10.445267500000227,,,,,,0.0,1.0,1.0,0.0,19.0,0.0,38.0,0.0,449.4480232580004,,,,,,,,,449.4250390539996,450.2231581680003,451.02527051399966,451.0157763570001,451.0163225860001,451.02527051399966,451.02527051399966,451.02527051399966,,451.4844616209998,,,,,,,,,,,,,,,,,,,,,,,,,,,,,,right,0.0,0.4557245569994848,,,,,sub-233,1,random_dot,60.47746462392519,
right,right,39.0,1.0,19.0,right,1.0,0.5885626420003973,,accuracy,space,10.445267500000227,,,,,,0.0,1.0,1.0,0.0,19.0,1.0,39.0,1.0,451.49323866500026,,,,,,,,,451.4848941659998,452.2822966489998,453.0748291340001,453.0661156339997,453.0665258040003,453.0748291340001,453.0748291340001,453.0748291340001,,453.67249874599975,,,,,,,,,,,,,,,,,,,,,,,,,,,,,,right,1.0,0.5885626420003973,,,,,sub-233,1,random_dot,60.47746462392519,
right,right,40.0,0.0,20.0,left,0.0,0.6373450339997362,,accuracy,space,10.445267500000227,,,,,,0.0,1.0,1.0,0.0,20.0,0.0,40.0,1.0,453.6809433479998,,,,,,,,,453.67293259699954,453.7652128470004,454.5603400389996,454.55046429,454.5509903179996,454.5603400389996,454.5603400389996,454.5603400389996,,455.2012995600003,,,,,,,,,,,,,,,,,,,,,,,,,,,,,,left,0.0,0.6373450339997362,,,,,sub-233,1,random_dot,60.47746462392519,
left,left,41.0,1.0,20.0,left,1.0,1.2614170610004294,,accuracy,space,10.445267500000227,,,,,,0.0,1.0,1.0,0.0,20.0,1.0,41.0,0.0,455.2105904940004,,,,,,,,,455.2017341039996,455.9985158280001,456.79390365599966,456.7840294960001,456.7845705630002,456.79390365599966,456.79390365599966,456.79390365599966,,458.066556327,,,,,,,,,,,,,,,,,,,,,,,,,,,,,,left,1.0,1.2614170610004294,,,,,sub-233,1,random_dot,60.47746462392519,
left,left,42.0,0.0,21.0,right,0.0,0.7391568539997024,,accuracy,space,10.445267500000227,,,,,,0.0,1.0,1.0,0.0,21.0,0.0,42.0,0.0,458.07436136299975,,,,,,,,,458.06686275400034,458.164936273,458.958733512,458.9492051989996,458.94975556300005,458.958733512,458.958733512,458.958733512,,459.7014648339996,,,,,,,,,,,,,,,,,,,,,,,,,,,,,,right,0.0,0.7391568539997024,,,,,sub-233,1,random_dot,60.47746462392519,
right,right,43.0,1.0,21.0,right,1.0,1.6527360069994756,,accuracy,space,10.445267500000227,,,,,,0.0,1.0,1.0,0.0,21.0,1.0,43.0,1.0,459.7103587360002,,,,,,,,,459.7019108629997,460.8982755310003,461.693805245,461.68365262399993,461.68418378199976,461.693805245,461.693805245,461.693805245,,463.351046585,,,,,,,,,,,,,,,,,,,,,,,,,,,,,,right,1.0,1.6527360069994756,,,,,sub-233,1,random_dot,60.47746462392519,
right,right,44.0,0.0,22.0,right,1.0,0.9794969270005822,,accuracy,space,10.445267500000227,,,,,,0.0,1.0,1.0,0.0,22.0,0.0,44.0,1.0,463.359798252,,,,,,,,,463.3514182929998,464.54844823899975,465.34292116699953,465.3330167899999,465.33354773400015,465.34292116699953,465.34292116699953,465.34292116699953,,466.3276386129997,,,,,,,,,,,,,,,,,,,,,,,,,,,,,,right,1.0,0.9794969270005822,,,,,sub-233,1,random_dot,60.47746462392519,
left,left,45.0,1.0,22.0,right,0.0,0.5702273690003494,,accuracy,space,10.445267500000227,,,,,,0.0,1.0,1.0,0.0,22.0,1.0,45.0,0.0,466.3370919510003,,,,,,,,,466.32802031599977,467.1225469349997,467.915217626,467.9062384949998,467.90664859100025,467.915217626,467.915217626,467.915217626,,468.4883436429996,,,,,,,,,,,,,,,,,,,,,,,,,,,,,,right,0.0,0.5702273690003494,,,,,sub-233,1,random_dot,60.47746462392519,
left,left,46.0,0.0,23.0,right,0.0,0.7697831069999665,,accuracy,space,10.445267500000227,,,,,,0.0,1.0,1.0,0.0,23.0,0.0,46.0,0.0,468.49846483400006,,,,,,,,,468.4887468490001,468.5816359229998,469.3772820380004,469.3674745249996,469.3680048840001,469.3772820380004,469.3772820380004,469.3772820380004,,470.1517718959999,,,,,,,,,,,,,,,,,,,,,,,,,,,,,,right,0.0,0.7697831069999665,,,,,sub-233,1,random_dot,60.47746462392519,
right,right,47.0,1.0,23.0,right,1.0,0.6713900270005979,,accuracy,space,10.445267500000227,,,,,,0.0,1.0,1.0,0.0,23.0,1.0,47.0,1.0,470.1599244650001,,,,,,,,,470.15220098300006,470.249253343,471.0429950049997,471.03348126300034,471.0340209889996,471.0429950049997,471.0429950049997,471.0429950049997,,471.718355519,,,,,,,,,,,,,,,,,,,,,,,,,,,,,,right,1.0,0.6713900270005979,,,,,sub-233,1,random_dot,60.47746462392519,
left,left,48.0,0.0,24.0,right,0.0,0.3315415099996244,,accuracy,space,10.445267500000227,,,,,,0.0,1.0,1.0,0.0,24.0,0.0,48.0,0.0,471.7271056249997,,,,,,,,,471.7187876410003,472.5150135509998,473.30888356199966,473.2996896090003,473.300229254,473.30888356199966,473.30888356199966,473.30888356199966,,473.6513458530003,,,,,,,,,,,,,,,,,,,,,,,,,,,,,,right,0.0,0.3315415099996244,,,,,sub-233,1,random_dot,60.47746462392519,
right,right,49.0,1.0,24.0,left,0.0,0.4453913220004324,,accuracy,space,10.445267500000227,,,,,,0.0,1.0,1.0,0.0,24.0,1.0,49.0,1.0,473.6598111540002,,,,,,,,,473.6517729330003,473.7479338199996,474.5426352469999,474.53319970799976,474.5337268480002,474.5426352469999,474.5426352469999,474.5426352469999,,475.004741792,,,,,,,,,,,,,,,,,,,,,,,,,,,,,,left,0.0,0.4453913220004324,,,,,sub-233,1,random_dot,60.47746462392519,
right,right,50.0,0.0,25.0,right,1.0,0.3444816149994949,,accuracy,space,10.445267500000227,,,,,,0.0,1.0,1.0,0.0,25.0,0.0,50.0,1.0,475.0151193779998,,,,,,,,,475.005341734,476.198016541,476.99208277800017,476.9823833100004,476.982912295,476.99208277800017,476.99208277800017,476.99208277800017,,477.3440989200003,,,,,,,,,,,,,,,,,,,,,,,,,,,,,,right,1.0,0.3444816149994949,,,,,sub-233,1,random_dot,60.47746462392519,
left,left,51.0,1.0,25.0,right,0.0,0.7173920819996056,,accuracy,space,10.445267500000227,,,,,,0.0,1.0,1.0,0.0,25.0,1.0,51.0,0.0,477.3535277320002,,,,,,,,,477.344532953,477.6900710470004,478.49127567499954,478.4821117220004,478.48263548099976,478.49127567499954,478.49127567499954,478.49127567499954,,479.21299757800034,,,,,,,,,,,,,,,,,,,,,,,,,,,,,,right,0.0,0.7173920819996056,,,,,sub-233,1,random_dot,60.47746462392519,
right,right,52.0,0.0,26.0,left,0.0,0.4774672419998751,,accuracy,space,10.445267500000227,,,,,,0.0,1.0,1.0,0.0,26.0,0.0,52.0,1.0,479.2230766569997,,,,,,,,,479.21361613,479.5562254040001,480.3621115589999,480.3503517459999,480.3508953650002,480.3621115589999,480.3621115589999,480.3621115589999,,480.85040928900025,,,,,,,,,,,,,,,,,,,,,,,,,,,,,,left,0.0,0.4774672419998751,,,,,sub-233,1,random_dot,60.47746462392519,
left,left,53.0,1.0,26.0,right,0.0,0.4927615759997934,,accuracy,space,10.445267500000227,,,,,,0.0,1.0,1.0,0.0,26.0,1.0,53.0,0.0,480.8589364309996,,,,,,,,,480.8507876239996,481.198127051,481.99279320599953,481.9830875350003,481.9836209179998,481.99279320599953,481.99279320599953,481.99279320599953,,482.4893562619996,,,,,,,,,,,,,,,,,,,,,,,,,,,,,,right,0.0,0.4927615759997934,,,,,sub-233,1,random_dot,60.47746462392519,
left,left,54.0,0.0,27.0,left,1.0,1.101576496999769,,accuracy,space,10.445267500000227,,,,,,0.0,1.0,1.0,0.0,27.0,0.0,54.0,0.0,482.4987322000002,,,,,,,,,482.48978926599966,482.59838628900025,483.39076430199975,483.38198559500006,483.3823773090003,483.39076430199975,483.39076430199975,483.39076430199975,,484.5006157120001,,,,,,,,,,,,,,,,,,,,,,,,,,,,,,left,1.0,1.101576496999769,,,,,sub-233,1,random_dot,60.47746462392519,
right,right,55.0,1.0,27.0,right,1.0,0.6414811189997636,,accuracy,space,10.445267500000227,,,,,,0.0,1.0,1.0,0.0,27.0,1.0,55.0,1.0,484.5084185849996,,,,,,,,,484.50099397799977,484.8485971519999,485.6428639230003,485.6332623699996,485.6337867959997,485.6428639230003,485.6428639230003,485.6428639230003,,486.2941700180004,,,,,,,,,,,,,,,,,,,,,,,,,,,,,,right,1.0,0.6414811189997636,,,,,sub-233,1,random_dot,60.47746462392519,
left,left,56.0,0.0,28.0,left,1.0,0.504934442999911,,accuracy,space,10.445267500000227,,,,,,0.0,1.0,1.0,0.0,28.0,0.0,56.0,0.0,486.30377176199954,,,,,,,,,486.2946188740002,487.0891555399999,487.88248556200006,487.8725143930001,487.8730121829999,487.88248556200006,487.88248556200006,487.88248556200006,,488.3909659449996,,,,,,,,,,,,,,,,,,,,,,,,,,,,,,left,1.0,0.504934442999911,,,,,sub-233,1,random_dot,60.47746462392519,
right,right,57.0,1.0,28.0,right,1.0,0.4681840510002075,,accuracy,space,10.445267500000227,,,,,,0.0,1.0,1.0,0.0,28.0,1.0,57.0,1.0,488.402822386,,,,,,,,,488.3913982879999,488.4990213220003,489.297392901,489.2847227329999,489.2851668870003,489.297392901,489.297392901,489.297392901,,489.7755597419996,,,,,,,,,,,,,,,,,,,,,,,,,,,,,,right,1.0,0.4681840510002075,,,,,sub-233,1,random_dot,60.47746462392519,
right,right,58.0,0.0,29.0,right,1.0,0.3955681260003985,,accuracy,space,10.445267500000227,,,,,,0.0,1.0,1.0,0.0,29.0,0.0,58.0,1.0,489.7862187389997,,,,,,,,,489.7758633899998,490.1201964690004,490.9146917659996,490.90588654500016,490.9061882820001,490.9146917659996,490.9146917659996,490.9146917659996,,491.3167329120001,,,,,,,,,,,,,,,,,,,,,,,,,,,,,,right,1.0,0.3955681260003985,,,,,sub-233,1,random_dot,60.47746462392519,
left,left,59.0,1.0,29.0,right,0.0,0.8001766639999914,,accuracy,space,10.445267500000227,,,,,,0.0,1.0,1.0,0.0,29.0,1.0,59.0,0.0,491.3243574330004,,,,,,,,,491.3171202950002,491.4138544049997,492.2061858359998,492.1980359180002,492.19844553899975,492.2061858359998,492.2061858359998,492.2061858359998,,493.010346906,,,,,,,,,,,,,,,,,,,,,,,,,,,,,,right,0.0,0.8001766639999914,,,,,sub-233,1,random_dot,60.47746462392519,
,,1.0,1.0,0.0,,,,,accuracy,space,10.445267500000227,,,,,,0.0,1.0,1.0,0.0,,,,,,,,,,,,,,,,,,,,,,,,,,,,,,,,,,,,,,,,,,,,,,,,,,,,,,,,,,,,sub-233,1,random_dot,60.47746462392519,
,,,,,,,,,,,,,,,,,,,,,,,,,,,,,,,,,,,,,,,,,,,,,,,,,,,,,,,,,,,,,,,,,,,,,,,,,,,,,493.0154943619996,493.0268822599997,498.0136585289997,sub-233,1,random_dot,60.47746462392519,
