wordCTK,colorCTK,corrAnsCTK,congruentCTK,thisN,thisTrialN,thisRepN,keyResp_CTK.keys,keyResp_CTK.corr,keyResp_CTK.rt,keyResp_CTK.duration,wordPractice,colorPractice,corrAnsPractice,congruentPractice,respPractice.keys,respPractice.corr,respPractice.rt,respPractice.duration,word,color,corrAns,congruent,keyResp_test_run.keys,keyResp_test_run.corr,keyResp_test_run.rt,keyResp_test_run.duration,trials_CTK.thisRepN,trials_CTK.thisTrialN,trials_CTK.thisN,trials_CTK.thisIndex,trials_practice.thisRepN,trials_practice.thisTrialN,trials_practice.thisN,trials_practice.thisIndex,trials_test.thisRepN,trials_test.thisTrialN,trials_test.thisN,trials_test.thisIndex,thisRow.t,notes,instruction.started,instr_text.started,instr_image.started,instr_resp.started,instruction.stopped,instr_resp.keys,instr_resp.rt,instr_resp.duration,instr_color_to_key.started,instr_ctk.started,resp_ctk.started,instr_color_to_key.stopped,resp_ctk.keys,resp_ctk.rt,resp_ctk.duration,ITI.started,fixcross.started,fixcross.stopped,ITI.stopped,color_to_key_run.started,stimulus_CTK.started,keyResp_CTK.started,color_to_key_run.stopped,trials_CTK.keyResp_CTK.keys,trials_CTK.keyResp_CTK.corr,trials_CTK.keyResp_CTK.rt,trials_CTK.keyResp_CTK.duration,instr_practice.started,instr_practice_text.started,instr_practice_resp.started,instr_practice.stopped,instr_practice_resp.keys,instr_practice_resp.rt,instr_practice_resp.duration,practice_run.started,stimulus_practice.started,respPractice.started,practice_run.stopped,trials_practice.respPractice.keys,trials_practice.respPractice.corr,trials_practice.respPractice.rt,trials_practice.respPractice.duration,feedback.started,textFeedback.started,feedback.stopped,textFeedback.stopped,instr_test.started,instr_test_text.started,instr_test_resp.started,instr_test.stopped,instr_test_resp.keys,instr_test_resp.rt,instr_test_resp.duration,test_run.started,stimulus_test_run.started,keyResp_test_run.started,test_run.stopped,trials_test.keyResp_test_run.keys,trials_test.keyResp_test_run.corr,trials_test.keyResp_test_run.rt,trials_test.keyResp_test_run.duration,goodbye.started,textGoodbye.started,textGoodbye.stopped,goodbye.stopped,participant,session,expName,frameRate,Unnamed: 113
,,,,,,,,,,,,,,,,,,,,,,,,,,,,,,,,,,,,,,,,,0.0099347999785095,0.0495176999829709,0.0495176999829709,0.0495176999829709,50.14806639996823,space,50.08770670002559,,,,,,,,,,,,,,,,,,,,,,,,,,,,,,,,,,,,,,,,,,,,,,,,,,,,,,,,,,,sub-230,1,stroop_test,60.31374000742968,
,,,,,,,,,,,,,,,,,,,,,,,,,,,,,,,,,,,,,,,,,,,,,,,,,50.14814339997247,50.16338209999958,50.16338209999958,54.91755610000109,space,4.748865300032776,,,,,,,,,,,,,,,,,,,,,,,,,,,,,,,,,,,,,,,,,,,,,,,,,,,,sub-230,1,stroop_test,60.31374000742968,
test,red,r,1.0,0.0,0.0,0.0,r,1.0,0.9936251000035554,,,,,,,,,,,,,,,,,,0.0,0.0,0.0,0.0,,,,,,,,,54.94878919998882,,,,,,,,,,,,,,,,,54.94502929999726,55.72992599999998,56.54825589997927,56.51522840000689,56.54135700000916,56.54825589997927,56.54825589997927,57.54700959997717,r,1.0,0.9936251000035554,,,,,,,,,,,,,,,,,,,,,,,,,,,,,,,,,,,,,,,,sub-230,1,stroop_test,60.31374000742968,
test,yellow,g,1.0,1.0,1.0,0.0,g,1.0,2.134955299959984,,,,,,,,,,,,,,,,,,0.0,1.0,1.0,1.0,,,,,,,,,57.56221569998888,,,,,,,,,,,,,,,,,57.54764939995948,57.912194399978034,58.713173699972685,58.69613589998335,58.696798599965405,58.713173699972685,58.713173699972685,60.86355219996767,g,1.0,2.134955299959984,,,,,,,,,,,,,,,,,,,,,,,,,,,,,,,,,,,,,,,,sub-230,1,stroop_test,60.31374000742968,
test,blue,b,1.0,2.0,2.0,0.0,b,1.0,1.3953752999659628,,,,,,,,,,,,,,,,,,0.0,2.0,2.0,2.0,,,,,,,,,60.878436399973,,,,,,,,,,,,,,,,,60.8642330999719,62.07836419995874,62.87845679995371,62.86498219997157,62.86687669996172,62.87845679995371,62.87845679995371,64.27952350000851,b,1.0,1.3953752999659628,,,,,,,,,,,,,,,,,,,,,,,,,,,,,,,,,,,,,,,,sub-230,1,stroop_test,60.31374000742968,
test,red,r,1.0,3.0,0.0,1.0,r,1.0,1.0514301999937743,,,,,,,,,,,,,,,,,,1.0,0.0,3.0,0.0,,,,,,,,,64.29461459995946,,,,,,,,,,,,,,,,,64.28000689996406,65.07817849999992,65.87777139997343,65.86204679997172,65.86282699997537,65.87777139997343,65.87777139997343,66.94638280000072,r,1.0,1.0514301999937743,,,,,,,,,,,,,,,,,,,,,,,,,,,,,,,,,,,,,,,,sub-230,1,stroop_test,60.31374000742968,
test,yellow,g,1.0,4.0,1.0,1.0,g,1.0,1.7002689999644645,,,,,,,,,,,,,,,,,,1.0,1.0,4.0,1.0,,,,,,,,,66.9609260999714,,,,,,,,,,,,,,,,,66.94699889997719,67.31088459998136,68.11081629997352,68.09503490000498,68.09579739999026,68.11081629997352,68.11081629997352,69.83068469999125,g,1.0,1.7002689999644645,,,,,,,,,,,,,,,,,,,,,,,,,,,,,,,,,,,,,,,,sub-230,1,stroop_test,60.31374000742968,
test,blue,b,1.0,5.0,2.0,1.0,b,1.0,1.1299396000104025,,,,,,,,,,,,,,,,,,1.0,2.0,5.0,2.0,,,,,,,,,69.84401870000875,,,,,,,,,,,,,,,,,69.83183109998936,71.0440289999824,71.84365150000667,71.82823799998732,71.82927899999777,71.84365150000667,71.84365150000667,72.97860909998417,b,1.0,1.1299396000104025,,,,,,,,,,,,,,,,,,,,,,,,,,,,,,,,,,,,,,,,sub-230,1,stroop_test,60.31374000742968,
test,blue,b,1.0,6.0,0.0,2.0,b,1.0,0.7498943000100553,,,,,,,,,,,,,,,,,,2.0,0.0,6.0,2.0,,,,,,,,,72.99355399998603,,,,,,,,,,,,,,,,,72.97909589996561,73.79336989996955,74.59336229995824,74.57766079995781,74.57853309996426,74.59336229995824,74.59336229995824,75.34441219997825,b,1.0,0.7498943000100553,,,,,,,,,,,,,,,,,,,,,,,,,,,,,,,,,,,,,,,,sub-230,1,stroop_test,60.31374000742968,
test,yellow,g,1.0,7.0,1.0,2.0,g,1.0,3.670206500042696,,,,,,,,,,,,,,,,,,2.0,1.0,7.0,1.0,,,,,,,,,75.35983299999498,,,,,,,,,,,,,,,,,75.34479929995723,76.15987529995618,76.95987729995977,76.94548649998615,76.94693749997532,76.95987729995977,76.95987729995977,80.64358009997522,g,1.0,3.670206500042696,,,,,,,,,,,,,,,,,,,,,,,,,,,,,,,,,,,,,,,,sub-230,1,stroop_test,60.31374000742968,
test,red,r,1.0,8.0,2.0,2.0,r,1.0,0.583785499969963,,,,,,,,,,,,,,,,,,2.0,2.0,8.0,0.0,,,,,,,,,80.66042709996691,,,,,,,,,,,,,,,,,80.64394879998872,80.99247299996205,81.79252899996936,81.77719589998014,81.77819639997324,81.79252899996936,81.79252899996936,82.39318590000039,r,1.0,0.583785499969963,,,,,,,,,,,,,,,,,,,,,,,,,,,,,,,,,,,,,,,,sub-230,1,stroop_test,60.31374000742968,
test,blue,b,1.0,9.0,0.0,3.0,b,1.0,0.7839027000009082,,,,,,,,,,,,,,,,,,3.0,0.0,9.0,2.0,,,,,,,,,82.4094630999607,,,,,,,,,,,,,,,,,82.39354530000128,83.19240559998434,83.99385289999191,83.97601320000831,83.97661399998469,83.99385289999191,83.99385289999191,84.79267729999265,b,1.0,0.7839027000009082,,,,,,,,,,,,,,,,,,,,,,,,,,,,,,,,,,,,,,,,sub-230,1,stroop_test,60.31374000742968,
test,yellow,g,1.0,10.0,1.0,3.0,g,1.0,1.242188299947884,,,,,,,,,,,,,,,,,,3.0,1.0,10.0,1.0,,,,,,,,,84.80939239996951,,,,,,,,,,,,,,,,,84.79309309995733,84.89210170001024,85.69209819997195,85.67886359995464,85.68122759996913,85.69209819997195,85.69209819997195,86.94297289999668,g,1.0,1.242188299947884,,,,,,,,,,,,,,,,,,,,,,,,,,,,,,,,,,,,,,,,sub-230,1,stroop_test,60.31374000742968,
test,red,r,1.0,11.0,2.0,3.0,r,1.0,0.5201978000113741,,,,,,,,,,,,,,,,,,3.0,2.0,11.0,0.0,,,,,,,,,86.95893510000315,,,,,,,,,,,,,,,,,86.9434093000018,87.75868719996652,88.55836259998614,88.54318419995252,88.54465529997833,88.55836259998614,88.55836259998614,89.09283439995488,r,1.0,0.5201978000113741,,,,,,,,,,,,,,,,,,,,,,,,,,,,,,,,,,,,,,,,sub-230,1,stroop_test,60.31374000742968,
,,,,,,,,,,,,,,,,,,,,,,,,,,,,,,,,,,,,,,,,,,,,,,,,,,,,,,,,,,,,,,,,,,,,89.09305899997707,89.10823029995663,89.10823029995663,93.0097593999817,space,3.8967720000073314,,,,,,,,,,,,,,,,,,,,,,,,,,,,,,,,,sub-230,1,stroop_test,60.31374000742968,
,,,,0.0,0.0,0.0,,,,,blau,blue,b,1.0,b,1.0,0.8813831000006758,,,,,,,,,,,,,,0.0,0.0,0.0,5.0,,,,,93.04305559996284,,,,,,,,,,,,,,,,,93.03899869997986,93.37446849996924,94.18516930000624,94.16075669997372,,,,,,,,,,,,,,,,94.17896940000357,94.18516930000624,94.18516930000624,95.07565999997314,b,1.0,0.8813831000006758,,95.08924760000082,95.0948637999827,96.0905885999673,,,,,,,,,,,,,,,,,,,,,sub-230,1,stroop_test,60.31374000742968,
,,,,1.0,1.0,0.0,,,,,blau,yellow,g,0.0,g,1.0,1.3643526999512687,,,,,,,,,,,,,,0.0,1.0,1.0,7.0,,,,,96.10774389997825,,,,,,,,,,,,,,,,,96.090848599968,96.44041519996244,97.24059489998037,97.2265550000011,,,,,,,,,,,,,,,,97.22830349998549,97.24059489998037,97.24059489998037,98.61048480001044,g,1.0,1.3643526999512687,,98.61288159998368,98.62383810000028,99.60734749998664,99.62343129998771,,,,,,,,,,,,,,,,,,,,sub-230,1,stroop_test,60.31374000742968,
,,,,2.0,2.0,0.0,,,,,rot,red,r,1.0,r,1.0,0.9012255000416188,,,,,,,,,,,,,,0.0,2.0,2.0,1.0,,,,,99.62343129998771,,,,,,,,,,,,,,,,,99.60756069998024,100.82386139995651,101.62343320000218,101.6072114999988,,,,,,,,,,,,,,,,101.6109821999562,101.62343320000218,101.62343320000218,102.54066229995806,r,1.0,0.9012255000416188,,102.54106459999456,102.55688920000102,103.5404234000016,103.55660640000131,,,,,,,,,,,,,,,,,,,,sub-230,1,stroop_test,60.31374000742968,
,,,,3.0,3.0,0.0,,,,,rot,blue,b,0.0,b,1.0,0.9777479999465868,,,,,,,,,,,,,,0.0,3.0,3.0,2.0,,,,,103.55660640000131,,,,,,,,,,,,,,,,,103.54075409995858,103.88982989999931,104.6896274999599,104.6734247999848,,,,,,,,,,,,,,,,104.6738100000075,104.6896274999599,104.6896274999599,105.67350009997608,b,1.0,0.9777479999465868,,105.67383599997264,105.68927480001004,106.67388879996724,106.68944539997028,,,,,,,,,,,,,,,,,,,,sub-230,1,stroop_test,60.31374000742968,
,,,,4.0,4.0,0.0,,,,,gelb,yellow,g,1.0,g,1.0,0.7774636000394821,,,,,,,,,,,,,,0.0,4.0,4.0,10.0,,,,,106.68944539997028,,,,,,,,,,,,,,,,,106.67427580000368,107.48901349998778,108.2890630000038,108.27269759995396,,,,,,,,,,,,,,,,108.27466900000582,108.2890630000038,108.2890630000038,109.07357279997086,g,1.0,0.7774636000394821,,109.07393769995542,109.08894469996449,110.07287209999048,110.08885919995372,,,,,,,,,,,,,,,,,,,,sub-230,1,stroop_test,60.31374000742968,
,,,,5.0,5.0,0.0,,,,,gelb,blue,b,0.0,b,1.0,0.8295358999748714,,,,,,,,,,,,,,0.0,5.0,5.0,9.0,,,,,110.08885919995372,,,,,,,,,,,,,,,,,110.0732153999852,110.88870559999486,111.6892714999849,111.6726178000099,,,,,,,,,,,,,,,,111.67293279996376,111.6892714999849,111.6892714999849,112.52304539998296,b,1.0,0.8295358999748714,,112.5235256999731,112.5389043999603,113.52214650000678,113.53823179996108,,,,,,,,,,,,,,,,,,,,sub-230,1,stroop_test,60.31374000742968,
,,,,6.0,6.0,0.0,,,,,gelb,red,r,0.0,r,1.0,0.7882032999768853,,,,,,,,,,,,,,0.0,6.0,6.0,8.0,,,,,113.53823179996108,,,,,,,,,,,,,,,,,113.52233929996146,114.7382703999756,115.53848539997124,115.52268029999686,,,,,,,,,,,,,,,,115.52299520000815,115.53848539997124,115.53848539997124,116.33904329995858,r,1.0,0.7882032999768853,,116.33941199997209,116.35483269998804,117.33832719997736,117.35496409999904,,,,,,,,,,,,,,,,,,,,sub-230,1,stroop_test,60.31374000742968,
,,,,7.0,7.0,0.0,,,,,rot,yellow,g,0.0,g,1.0,0.908188399975188,,,,,,,,,,,,,,0.0,7.0,7.0,3.0,,,,,117.35496409999904,,,,,,,,,,,,,,,,,117.3385800999822,117.68776120000985,118.4882074999623,118.47192569996696,,,,,,,,,,,,,,,,118.4747645999887,118.4882074999623,118.4882074999623,119.40523589996155,g,1.0,0.908188399975188,,119.40564359998098,119.42110779997893,120.40449859999352,120.420993799984,,,,,,,,,,,,,,,,,,,,sub-230,1,stroop_test,60.31374000742968,
,,,,8.0,8.0,0.0,,,,,rot,red,r,1.0,r,1.0,0.8927963000023738,,,,,,,,,,,,,,0.0,8.0,8.0,0.0,,,,,120.420993799984,,,,,,,,,,,,,,,,,120.4047006999608,121.6042666999856,122.40412369999105,122.38759519997984,,,,,,,,,,,,,,,,122.3879137999611,122.40412369999105,122.40412369999105,123.305114399991,r,1.0,0.8927963000023738,,123.3056649999926,123.32054179999976,124.3048341999529,124.32066339999436,,,,,,,,,,,,,,,,,,,,sub-230,1,stroop_test,60.31374000742968,
,,,,9.0,9.0,0.0,,,,,blau,blue,b,1.0,b,1.0,0.9370364000205882,,,,,,,,,,,,,,0.0,9.0,9.0,6.0,,,,,124.32066339999436,,,,,,,,,,,,,,,,,124.30530010000804,124.42059679998783,125.22053759999108,125.20455199998104,,,,,,,,,,,,,,,,125.20756660000188,125.22053759999108,125.22053759999108,126.17155799997272,b,1.0,0.9370364000205882,,126.17213620000985,126.18703249999088,127.17099009995582,127.18678579997504,,,,,,,,,,,,,,,,,,,,sub-230,1,stroop_test,60.31374000742968,
,,,,10.0,10.0,0.0,,,,,gelb,yellow,g,1.0,g,1.0,0.8703143000020646,,,,,,,,,,,,,,0.0,10.0,10.0,11.0,,,,,127.18678579997504,,,,,,,,,,,,,,,,,127.17131219996372,128.38643600000069,129.18691539997235,129.17073949996848,,,,,,,,,,,,,,,,129.17467849998502,129.18691539997235,129.18691539997235,130.07089430000633,g,1.0,0.8703143000020646,,130.0714045999921,130.08659369999077,131.0705425000051,131.08623019995866,,,,,,,,,,,,,,,,,,,,sub-230,1,stroop_test,60.31374000742968,
,,,,11.0,11.0,0.0,,,,,blau,red,r,0.0,r,1.0,0.8013268999638967,,,,,,,,,,,,,,0.0,11.0,11.0,4.0,,,,,131.08623019995866,,,,,,,,,,,,,,,,,131.07088620000286,131.88629409996793,132.68634029995883,132.67027820000658,,,,,,,,,,,,,,,,132.6733941999846,132.68634029995883,132.68634029995883,133.50386179995257,r,1.0,0.8013268999638967,,133.50442139996449,133.51953649998177,134.5034619999933,134.51925299997674,,,,,,,,,,,,,,,,,,,,sub-230,1,stroop_test,60.31374000742968,
,,,,12.0,0.0,1.0,,,,,gelb,yellow,g,1.0,g,1.0,0.4923199000186287,,,,,,,,,,,,,,1.0,0.0,12.0,11.0,,,,,134.51925299997674,,,,,,,,,,,,,,,,,134.50370529998327,135.31909919995817,136.11914039996918,136.10309940000298,,,,,,,,,,,,,,,,136.106225800002,136.11914039996918,136.11914039996918,136.62019419996068,g,1.0,0.4923199000186287,,136.62073109997436,136.63569490000373,137.61950029997388,137.63536670000758,,,,,,,,,,,,,,,,,,,,sub-230,1,stroop_test,60.31374000742968,
,,,,13.0,1.0,1.0,,,,,blau,red,r,0.0,r,1.0,1.2612081000115722,,,,,,,,,,,,,,1.0,1.0,13.0,4.0,,,,,137.63536670000758,,,,,,,,,,,,,,,,,137.6198238999932,137.73531169997295,138.53528359998018,138.51949819998117,,,,,,,,,,,,,,,,138.52267469995422,138.53528359998018,138.53528359998018,139.80341629998293,r,1.0,1.2612081000115722,,139.8040711999638,139.8185140999849,140.80262609996134,140.81827289995272,,,,,,,,,,,,,,,,,,,,sub-230,1,stroop_test,60.31374000742968,
,,,,14.0,2.0,1.0,,,,,rot,blue,b,0.0,b,1.0,1.8431326000136323,,,,,,,,,,,,,,1.0,2.0,14.0,2.0,,,,,140.81827289995272,,,,,,,,,,,,,,,,,140.80284660001053,141.6181074999622,142.41816609998932,142.40239349997137,,,,,,,,,,,,,,,,142.4049855999765,142.41816609998932,142.41816609998932,144.2690533999703,b,1.0,1.8431326000136323,,144.26960149995284,144.28479879995575,145.2687358999974,145.28438739996636,,,,,,,,,,,,,,,,,,,,sub-230,1,stroop_test,60.31374000742968,
,,,,15.0,3.0,1.0,,,,,rot,red,r,1.0,r,1.0,0.8283101000124589,,,,,,,,,,,,,,1.0,3.0,15.0,0.0,,,,,145.28438739996636,,,,,,,,,,,,,,,,,145.26905870001065,146.4845449999557,147.28437599999597,147.2683243000065,,,,,,,,,,,,,,,,147.26881320000393,147.28437599999597,147.28437599999597,148.1187101000105,r,1.0,0.8283101000124589,,148.11927089997334,148.13416259997757,149.11805309995543,149.13407849997748,,,,,,,,,,,,,,,,,,,,sub-230,1,stroop_test,60.31374000742968,
,,,,16.0,4.0,1.0,,,,,rot,red,r,1.0,r,1.0,0.734065999975428,,,,,,,,,,,,,,1.0,4.0,16.0,1.0,,,,,149.13407849997748,,,,,,,,,,,,,,,,,149.11841170000844,149.233820799971,150.03395889996318,150.01799459999893,,,,,,,,,,,,,,,,150.01851540000644,150.03395889996318,150.03395889996318,150.7850413999986,r,1.0,0.734065999975428,,150.78565029997844,150.80052180000348,151.78429169999436,151.8003289999906,,,,,,,,,,,,,,,,,,,,sub-230,1,stroop_test,60.31374000742968,
,,,,17.0,5.0,1.0,,,,,gelb,blue,b,0.0,b,1.0,0.569327000004705,,,,,,,,,,,,,,1.0,5.0,17.0,9.0,,,,,151.8003289999906,,,,,,,,,,,,,,,,,151.78460399998585,151.90055630001007,152.7000768999569,152.68422029999783,,,,,,,,,,,,,,,,152.68760109995492,152.7000768999569,152.7000768999569,153.2845992000075,b,1.0,0.569327000004705,,153.2850671999622,153.30001999996605,154.28416719997767,154.3000245000003,,,,,,,,,,,,,,,,,,,,sub-230,1,stroop_test,60.31374000742968,
,,,,18.0,6.0,1.0,,,,,rot,yellow,g,0.0,g,1.0,0.5755094000487588,,,,,,,,,,,,,,1.0,6.0,18.0,3.0,,,,,154.3000245000003,,,,,,,,,,,,,,,,,154.2845071000047,154.64998109999578,155.44977169996127,155.43398549995618,,,,,,,,,,,,,,,,155.43786389997695,155.44977169996127,155.44977169996127,156.03429549996508,g,1.0,0.5755094000487588,,156.0348185999901,156.04983239999274,157.03399059997173,157.0497682999703,,,,,,,,,,,,,,,,,,,,sub-230,1,stroop_test,60.31374000742968,
,,,,19.0,7.0,1.0,,,,,blau,blue,b,1.0,b,1.0,0.639567399979569,,,,,,,,,,,,,,1.0,7.0,19.0,5.0,,,,,157.0497682999703,,,,,,,,,,,,,,,,,157.0344123999821,157.14974649995565,157.94961969996805,157.93367509997915,,,,,,,,,,,,,,,,157.93780289997812,157.94961969996805,157.94961969996805,158.60090620000847,b,1.0,0.639567399979569,,158.6016299999901,158.61611649999395,159.60016939998604,159.6159147999715,,,,,,,,,,,,,,,,,,,,sub-230,1,stroop_test,60.31374000742968,
,,,,20.0,8.0,1.0,,,,,gelb,yellow,g,1.0,r,0.0,0.5194118999643251,,,,,,,,,,,,,,1.0,8.0,20.0,10.0,,,,,159.6159147999715,,,,,,,,,,,,,,,,,159.6005880999728,160.41595880000386,161.21565789997112,161.19980070000747,,,,,,,,,,,,,,,,161.20279929996468,161.21565789997112,161.21565789997112,161.75031339999987,r,0.0,0.5194118999643251,,161.75573659996735,161.76550549996318,162.7497466999921,162.76552119996632,,,,,,,,,,,,,,,,,,,,sub-230,1,stroop_test,60.31374000742968,
,,,,21.0,9.0,1.0,,,,,blau,blue,b,1.0,b,1.0,0.7415560000226833,,,,,,,,,,,,,,1.0,9.0,21.0,6.0,,,,,162.76552119996632,,,,,,,,,,,,,,,,,162.7500621000072,163.56550599995535,164.3656555999769,164.34944439999526,,,,,,,,,,,,,,,,164.35263679997297,164.3656555999769,164.3656555999769,165.1166963999858,b,1.0,0.7415560000226833,,165.1213778000092,165.1321331000072,166.1160451999749,166.13181920000352,,,,,,,,,,,,,,,,,,,,sub-230,1,stroop_test,60.31374000742968,
,,,,22.0,10.0,1.0,,,,,gelb,red,r,0.0,r,1.0,0.9961855000001378,,,,,,,,,,,,,,1.0,10.0,22.0,8.0,,,,,166.13181920000352,,,,,,,,,,,,,,,,,166.1165279999841,167.33178809995297,168.13168479996966,168.11586339998755,,,,,,,,,,,,,,,,168.12150740000652,168.13168479996966,168.13168479996966,169.1327032999834,r,1.0,0.9961855000001378,,169.13321549998363,169.14824329997646,170.13184139999794,170.1477881000028,,,,,,,,,,,,,,,,,,,,sub-230,1,stroop_test,60.31374000742968,
,,,,23.0,11.0,1.0,,,,,blau,yellow,g,0.0,g,1.0,0.7765442000236362,,,,,,,,,,,,,,1.0,11.0,23.0,7.0,,,,,170.1477881000028,,,,,,,,,,,,,,,,,170.13213039998664,170.49783879995812,171.2978273999761,171.28196389996447,,,,,,,,,,,,,,,,171.28473019995727,171.2978273999761,171.2978273999761,172.0824575999868,g,1.0,0.7765442000236362,,172.08309999998892,172.09784780000336,173.08158800000092,173.097471999994,,,,,,,,,,,,,,,,,,,,sub-230,1,stroop_test,60.31374000742968,
,,,,,,,,,,,,,,,,,,,,,,,,,,,,,,,,,,,,,,,,,,,,,,,,,,,,,,,,,,,,,,,,,,,,,,,,,,,,,,,,,,,,,,,173.08173799997894,173.097471999994,173.097471999994,176.0652631999692,space,2.9549510999931954,,,,,,,,,,,,,,sub-230,1,stroop_test,60.31374000742968,
,,,,0.0,0.0,0.0,,,,,,,,,,,,,blau,blue,b,1.0,b,1.0,0.7819796000258066,,,,,,,,,,0.0,0.0,0.0,6.0,176.0804489000002,,,,,,,,,,,,,,,,,176.0760936999577,177.28036989999237,178.08051729999715,178.0639591999934,,,,,,,,,,,,,,,,,,,,,,,,,,,,,,,,,,,178.06703559996097,178.08051729999715,178.08051729999715,178.86483559996122,b,1.0,0.7819796000258066,,,,,,sub-230,1,stroop_test,60.31374000742968,
,,,,1.0,1.0,0.0,,,,,,,,,,,,,rot,red,r,1.0,r,1.0,0.9337879000231624,,,,,,,,,,0.0,1.0,1.0,0.0,178.8802937999717,,,,,,,,,,,,,,,,,178.8652182999649,179.23015029996168,180.0300942999893,180.01414220000152,,,,,,,,,,,,,,,,,,,,,,,,,,,,,,,,,,,180.0177744999528,180.0300942999893,180.0300942999893,180.98094979999587,r,1.0,0.9337879000231624,,,,,,sub-230,1,stroop_test,60.31374000742968,
,,,,2.0,2.0,0.0,,,,,,,,,,,,,blau,red,r,0.0,r,1.0,0.6126338000176474,,,,,,,,,,0.0,2.0,2.0,4.0,180.99665809998987,,,,,,,,,,,,,,,,,180.9813364999718,181.09649500000523,181.89662729995325,181.8806679999689,,,,,,,,,,,,,,,,,,,,,,,,,,,,,,,,,,,181.88314559997525,181.89662729995325,181.89662729995325,182.51398819999304,r,1.0,0.6126338000176474,,,,,,sub-230,1,stroop_test,60.31374000742968,
,,,,3.0,3.0,0.0,,,,,,,,,,,,,rot,yellow,g,0.0,g,1.0,0.6763446999830194,,,,,,,,,,0.0,3.0,3.0,3.0,182.52982850000265,,,,,,,,,,,,,,,,,182.51424849999603,182.6297042999649,183.4297438999638,183.4136287999572,,,,,,,,,,,,,,,,,,,,,,,,,,,,,,,,,,,183.4161604999681,183.4297438999638,183.4297438999638,184.1139542000019,g,1.0,0.6763446999830194,,,,,,sub-230,1,stroop_test,60.31374000742968,
,,,,4.0,4.0,0.0,,,,,,,,,,,,,gelb,yellow,g,1.0,r,0.0,0.5754362000152469,,,,,,,,,,0.0,4.0,4.0,11.0,184.1294844999793,,,,,,,,,,,,,,,,,184.11430229997492,184.9293922999641,185.7293869999703,185.7135314999614,,,,,,,,,,,,,,,,,,,,,,,,,,,,,,,,,,,185.71664529998088,185.7293869999703,185.7293869999703,186.31361369998197,r,0.0,0.5754362000152469,,,,,,sub-230,1,stroop_test,60.31374000742968,
,,,,5.0,5.0,0.0,,,,,,,,,,,,,gelb,yellow,g,1.0,g,1.0,0.6088456999859773,,,,,,,,,,0.0,5.0,5.0,10.0,186.32904509996297,,,,,,,,,,,,,,,,,186.31394949997772,186.67917640000812,187.47913509997304,187.4631889999728,,,,,,,,,,,,,,,,,,,,,,,,,,,,,,,,,,,187.4636490999837,187.47913509997304,187.47913509997304,188.09675159998005,g,1.0,0.6088456999859773,,,,,,sub-230,1,stroop_test,60.31374000742968,
,,,,6.0,6.0,0.0,,,,,,,,,,,,,gelb,red,r,0.0,r,1.0,0.5525517999776639,,,,,,,,,,0.0,6.0,6.0,8.0,188.11248690000505,,,,,,,,,,,,,,,,,188.09709779999685,189.3119965000078,190.1119150999584,190.09616899996763,,,,,,,,,,,,,,,,,,,,,,,,,,,,,,,,,,,190.09669109998504,190.1119150999584,190.1119150999584,190.679945299984,r,1.0,0.5525517999776639,,,,,,sub-230,1,stroop_test,60.31374000742968,
,,,,7.0,7.0,0.0,,,,,,,,,,,,,blau,yellow,g,0.0,r,0.0,0.6143792999791913,,,,,,,,,,0.0,7.0,7.0,7.0,190.69518320000495,,,,,,,,,,,,,,,,,190.680370499962,191.04528520000167,191.8452293999726,191.8291489999974,,,,,,,,,,,,,,,,,,,,,,,,,,,,,,,,,,,191.83279829996167,191.8452293999726,191.8452293999726,192.4630062999786,r,0.0,0.6143792999791913,,,,,,sub-230,1,stroop_test,60.31374000742968,
,,,,8.0,8.0,0.0,,,,,,,,,,,,,rot,red,r,1.0,r,1.0,1.255217799975071,,,,,,,,,,0.0,8.0,8.0,1.0,192.47845569998023,,,,,,,,,,,,,,,,,192.46339220000664,192.57839189999504,193.37838660000125,193.36223659996176,,,,,,,,,,,,,,,,,,,,,,,,,,,,,,,,,,,193.3661600999767,193.37838660000125,193.37838660000125,194.64618019998304,r,1.0,1.255217799975071,,,,,,sub-230,1,stroop_test,60.31374000742968,
,,,,9.0,9.0,0.0,,,,,,,,,,,,,rot,blue,b,0.0,b,1.0,0.7012179000303149,,,,,,,,,,0.0,9.0,9.0,2.0,194.6613227999769,,,,,,,,,,,,,,,,,194.64659969997592,195.8615601999918,196.66114619997097,196.64534119999732,,,,,,,,,,,,,,,,,,,,,,,,,,,,,,,,,,,196.6459074000013,196.66114619997097,196.66114619997097,197.3791677999543,b,1.0,0.7012179000303149,,,,,,sub-230,1,stroop_test,60.31374000742968,
,,,,10.0,10.0,0.0,,,,,,,,,,,,,gelb,blue,b,0.0,b,1.0,0.4530242999899201,,,,,,,,,,0.0,10.0,10.0,9.0,197.39440509997075,,,,,,,,,,,,,,,,,197.37957729998743,198.19442489999344,198.994355599978,198.97819259995595,,,,,,,,,,,,,,,,,,,,,,,,,,,,,,,,,,,198.9820238999673,198.994355599978,198.994355599978,199.4623811999918,b,1.0,0.4530242999899201,,,,,,sub-230,1,stroop_test,60.31374000742968,
,,,,11.0,11.0,0.0,,,,,,,,,,,,,blau,blue,b,1.0,b,1.0,0.4790611999924294,,,,,,,,,,0.0,11.0,11.0,5.0,199.47737559996312,,,,,,,,,,,,,,,,,199.46279399999185,200.6772958000074,201.47708729997976,201.46123749995604,,,,,,,,,,,,,,,,,,,,,,,,,,,,,,,,,,,201.4653536999831,201.47708729997976,201.47708729997976,201.9616070999764,b,1.0,0.4790611999924294,,,,,,sub-230,1,stroop_test,60.31374000742968,
,,,,12.0,0.0,1.0,,,,,,,,,,,,,gelb,yellow,g,1.0,g,1.0,0.7798839999595657,,,,,,,,,,1.0,0.0,12.0,11.0,201.9772375999601,,,,,,,,,,,,,,,,,201.96190499997465,202.77706339996075,203.5770300999866,203.561006199976,,,,,,,,,,,,,,,,,,,,,,,,,,,,,,,,,,,203.56406199996127,203.5770300999866,203.5770300999866,204.36121599999024,g,1.0,0.7798839999595657,,,,,,sub-230,1,stroop_test,60.31374000742968,
,,,,13.0,1.0,1.0,,,,,,,,,,,,,blau,blue,b,1.0,b,1.0,0.5847723000333644,,,,,,,,,,1.0,1.0,13.0,5.0,204.3766818000004,,,,,,,,,,,,,,,,,204.3615690000006,204.4767893999815,205.27667200000724,205.2607733999612,,,,,,,,,,,,,,,,,,,,,,,,,,,,,,,,,,,205.26357289997395,205.27667200000724,205.27667200000724,205.8781655000057,b,1.0,0.5847723000333644,,,,,,sub-230,1,stroop_test,60.31374000742968,
,,,,14.0,2.0,1.0,,,,,,,,,,,,,blau,red,r,0.0,r,1.0,0.5003703000256792,,,,,,,,,,1.0,2.0,14.0,4.0,205.89360229996964,,,,,,,,,,,,,,,,,205.8783945000032,206.69317210000008,207.4930559999775,207.47717839997492,,,,,,,,,,,,,,,,,,,,,,,,,,,,,,,,,,,207.47762159997365,207.4930559999775,207.4930559999775,207.9943912999588,r,1.0,0.5003703000256792,,,,,,sub-230,1,stroop_test,60.31374000742968,
,,,,15.0,3.0,1.0,,,,,,,,,,,,,blau,yellow,g,0.0,g,1.0,0.5823495000367984,,,,,,,,,,1.0,3.0,15.0,7.0,208.0099249999621,,,,,,,,,,,,,,,,,207.99470709997692,209.20964269997785,210.00953469995875,209.993662199995,,,,,,,,,,,,,,,,,,,,,,,,,,,,,,,,,,,209.99424369999903,210.00953469995875,210.00953469995875,210.59425909997665,g,1.0,0.5823495000367984,,,,,,sub-230,1,stroop_test,60.31374000742968,
,,,,16.0,4.0,1.0,,,,,,,,,,,,,rot,red,r,1.0,r,1.0,1.4792029000236653,,,,,,,,,,1.0,4.0,16.0,1.0,210.60945950000317,,,,,,,,,,,,,,,,,210.5946717999759,210.7094911999884,211.50956579996276,211.49331879999957,,,,,,,,,,,,,,,,,,,,,,,,,,,,,,,,,,,211.49724009999773,211.50956579996276,211.50956579996276,212.99366669997107,r,1.0,1.4792029000236653,,,,,,sub-230,1,stroop_test,60.31374000742968,
,,,,17.0,5.0,1.0,,,,,,,,,,,,,rot,blue,b,0.0,b,1.0,0.4943861000356264,,,,,,,,,,1.0,5.0,17.0,2.0,213.00895459996536,,,,,,,,,,,,,,,,,212.9940379000036,213.80893199995623,214.6087915999815,214.5930081999977,,,,,,,,,,,,,,,,,,,,,,,,,,,,,,,,,,,214.5935589000001,214.6087915999815,214.6087915999815,215.11015769996447,b,1.0,0.4943861000356264,,,,,,sub-230,1,stroop_test,60.31374000742968,
,,,,18.0,6.0,1.0,,,,,,,,,,,,,gelb,red,r,0.0,r,1.0,1.135197399999015,,,,,,,,,,1.0,6.0,18.0,8.0,215.1254663,,,,,,,,,,,,,,,,,215.1105330999708,215.22553920000792,216.02544429997212,216.0094374999753,,,,,,,,,,,,,,,,,,,,,,,,,,,,,,,,,,,216.0123556999606,216.02544429997212,216.02544429997212,217.1763972999761,r,1.0,1.135197399999015,,,,,,sub-230,1,stroop_test,60.31374000742968,
,,,,19.0,7.0,1.0,,,,,,,,,,,,,rot,red,r,1.0,r,1.0,0.6569884999771602,,,,,,,,,,1.0,7.0,19.0,0.0,217.1918082999764,,,,,,,,,,,,,,,,,217.17679110000608,218.3918025000021,219.19170989998383,219.17565579997608,,,,,,,,,,,,,,,,,,,,,,,,,,,,,,,,,,,219.1795488999924,219.19170989998383,219.19170989998383,219.85945579997497,r,1.0,0.6569884999771602,,,,,,sub-230,1,stroop_test,60.31374000742968,
,,,,20.0,8.0,1.0,,,,,,,,,,,,,gelb,yellow,g,1.0,g,1.0,1.0259676999994554,,,,,,,,,,1.0,8.0,20.0,10.0,219.87489009997807,,,,,,,,,,,,,,,,,219.85984879999887,221.0747736999765,221.8747943000053,221.8586310999817,,,,,,,,,,,,,,,,,,,,,,,,,,,,,,,,,,,221.8626246000058,221.8747943000053,221.8747943000053,222.90915490000043,g,1.0,1.0259676999994554,,,,,,sub-230,1,stroop_test,60.31374000742968,
,,,,21.0,9.0,1.0,,,,,,,,,,,,,blau,blue,b,1.0,b,1.0,0.4406706999870948,,,,,,,,,,1.0,9.0,21.0,6.0,222.9244413999841,,,,,,,,,,,,,,,,,222.90959190001013,223.2744751999853,224.07435979996808,224.05833379999967,,,,,,,,,,,,,,,,,,,,,,,,,,,,,,,,,,,224.06194509996567,224.07435979996808,224.07435979996808,224.5257129999809,b,1.0,0.4406706999870948,,,,,,sub-230,1,stroop_test,60.31374000742968,
,,,,22.0,10.0,1.0,,,,,,,,,,,,,rot,yellow,g,0.0,r,0.0,0.7619881999562494,,,,,,,,,,1.0,10.0,22.0,3.0,224.54077590000816,,,,,,,,,,,,,,,,,224.5261491999845,224.8907739999704,225.6907772999839,225.6749367999728,,,,,,,,,,,,,,,,,,,,,,,,,,,,,,,,,,,225.67815549997613,225.6907772999839,225.6907772999839,226.4586029999773,r,0.0,0.7619881999562494,,,,,,sub-230,1,stroop_test,60.31374000742968,
,,,,23.0,11.0,1.0,,,,,,,,,,,,,gelb,blue,b,0.0,b,1.0,1.7537790999631395,,,,,,,,,,1.0,11.0,23.0,9.0,226.47409669996705,,,,,,,,,,,,,,,,,226.4589232999715,226.5741444999585,227.3741142000072,227.35842139995657,,,,,,,,,,,,,,,,,,,,,,,,,,,,,,,,,,,227.36340719996952,227.3741142000072,227.3741142000072,229.1417607999756,b,1.0,1.7537790999631395,,,,,,sub-230,1,stroop_test,60.31374000742968,
,,,,24.0,0.0,2.0,,,,,,,,,,,,,blau,blue,b,1.0,b,1.0,0.6416545999818482,,,,,,,,,,2.0,0.0,24.0,6.0,229.1570496999775,,,,,,,,,,,,,,,,,229.14216429996304,229.95691899996015,230.75672840001064,230.7409342000028,,,,,,,,,,,,,,,,,,,,,,,,,,,,,,,,,,,230.74443949997655,230.75672840001064,230.75672840001064,231.4082038999768,b,1.0,0.6416545999818482,,,,,,sub-230,1,stroop_test,60.31374000742968,
,,,,25.0,1.0,2.0,,,,,,,,,,,,,blau,yellow,g,0.0,r,0.0,0.1963055999949574,,,,,,,,,,2.0,1.0,25.0,7.0,231.42324119998372,,,,,,,,,,,,,,,,,231.40861699997916,232.22352379997028,233.02330299996535,233.00715239997956,,,,,,,,,,,,,,,,,,,,,,,,,,,,,,,,,,,233.0076656999881,233.02330299996535,233.02330299996535,233.2244532000041,r,0.0,0.1963055999949574,,,,,,sub-230,1,stroop_test,60.31374000742968,
,,,,26.0,2.0,2.0,,,,,,,,,,,,,rot,yellow,g,0.0,g,1.0,0.4770812999922782,,,,,,,,,,2.0,2.0,26.0,3.0,233.2396076999721,,,,,,,,,,,,,,,,,233.22483259998265,233.58973049995257,234.38970529998187,234.3737703000079,,,,,,,,,,,,,,,,,,,,,,,,,,,,,,,,,,,234.3772493999568,234.38970529998187,234.38970529998187,234.8741716999793,g,1.0,0.4770812999922782,,,,,,sub-230,1,stroop_test,60.31374000742968,
,,,,27.0,3.0,2.0,,,,,,,,,,,,,rot,red,r,1.0,r,1.0,0.6284659000230022,,,,,,,,,,2.0,3.0,27.0,1.0,234.88939540000865,,,,,,,,,,,,,,,,,234.874556099996,235.2396602999652,236.03934640000807,236.0236092999694,,,,,,,,,,,,,,,,,,,,,,,,,,,,,,,,,,,236.02398749999705,236.03934640000807,236.03934640000807,236.6739155999967,r,1.0,0.6284659000230022,,,,,,sub-230,1,stroop_test,60.31374000742968,
,,,,28.0,4.0,2.0,,,,,,,,,,,,,blau,red,r,0.0,r,1.0,0.7371183999930508,,,,,,,,,,2.0,4.0,28.0,4.0,236.68936009996105,,,,,,,,,,,,,,,,,236.6743148000096,237.88928379997375,238.68913389998488,238.67305990000025,,,,,,,,,,,,,,,,,,,,,,,,,,,,,,,,,,,238.6762723999564,238.68913389998488,238.68913389998488,239.4405601999606,r,1.0,0.7371183999930508,,,,,,sub-230,1,stroop_test,60.31374000742968,
,,,,29.0,5.0,2.0,,,,,,,,,,,,,gelb,yellow,g,1.0,g,1.0,0.8224201000411995,,,,,,,,,,2.0,5.0,29.0,10.0,239.45575989998176,,,,,,,,,,,,,,,,,239.44105560000756,239.80569089995697,240.60563730000283,240.5898312999634,,,,,,,,,,,,,,,,,,,,,,,,,,,,,,,,,,,240.5953897999716,240.60563730000283,240.60563730000283,241.4402287999983,g,1.0,0.8224201000411995,,,,,,sub-230,1,stroop_test,60.31374000742968,
,,,,30.0,6.0,2.0,,,,,,,,,,,,,blau,blue,b,1.0,b,1.0,0.4086630999809131,,,,,,,,,,2.0,6.0,30.0,5.0,241.45533419999992,,,,,,,,,,,,,,,,,241.44072309997864,242.25544249999805,243.05549929995323,243.0392802999704,,,,,,,,,,,,,,,,,,,,,,,,,,,,,,,,,,,243.0423164999811,243.05549929995323,243.05549929995323,243.4730344999698,b,1.0,0.4086630999809131,,,,,,sub-230,1,stroop_test,60.31374000742968,
,,,,31.0,7.0,2.0,,,,,,,,,,,,,gelb,blue,b,0.0,b,1.0,1.7465901999967173,,,,,,,,,,2.0,7.0,31.0,9.0,243.488494499994,,,,,,,,,,,,,,,,,243.4733946999768,243.58854769996836,244.3883002999937,244.37251989997455,,,,,,,,,,,,,,,,,,,,,,,,,,,,,,,,,,,244.3759748999728,244.3883002999937,244.3883002999937,246.1389633999788,b,1.0,1.7465901999967173,,,,,,sub-230,1,stroop_test,60.31374000742968,
,,,,32.0,8.0,2.0,,,,,,,,,,,,,rot,red,r,1.0,r,1.0,0.6762507000239566,,,,,,,,,,2.0,8.0,32.0,0.0,246.1547490999801,,,,,,,,,,,,,,,,,246.13923470000736,247.35463479999453,248.15454489999684,248.13850999996063,,,,,,,,,,,,,,,,,,,,,,,,,,,,,,,,,,,248.14164729998447,248.15454489999684,248.15454489999684,248.83860999997705,r,1.0,0.6762507000239566,,,,,,sub-230,1,stroop_test,60.31374000742968,
,,,,33.0,9.0,2.0,,,,,,,,,,,,,rot,blue,b,0.0,b,1.0,1.2339559000101872,,,,,,,,,,2.0,9.0,33.0,2.0,248.85431099997368,,,,,,,,,,,,,,,,,248.8388936999836,249.20439649996115,250.00442179996756,249.9884410999948,,,,,,,,,,,,,,,,,,,,,,,,,,,,,,,,,,,249.9889649999677,250.00442179996756,250.00442179996756,251.25510269997176,b,1.0,1.2339559000101872,,,,,,sub-230,1,stroop_test,60.31374000742968,
,,,,34.0,10.0,2.0,,,,,,,,,,,,,gelb,yellow,g,1.0,g,1.0,0.6237439999822527,,,,,,,,,,2.0,10.0,34.0,11.0,251.27074189996347,,,,,,,,,,,,,,,,,251.25546289997877,252.05423639999933,252.85395329998573,252.83794019999917,,,,,,,,,,,,,,,,,,,,,,,,,,,,,,,,,,,252.8410355999949,252.85395329998573,252.85395329998573,253.48834159999387,g,1.0,0.6237439999822527,,,,,,sub-230,1,stroop_test,60.31374000742968,
,,,,35.0,11.0,2.0,,,,,,,,,,,,,gelb,red,r,0.0,r,1.0,1.0084663000307046,,,,,,,,,,2.0,11.0,35.0,8.0,253.5038345999783,,,,,,,,,,,,,,,,,253.488671900006,253.6038433999638,254.4039834999712,254.38777370000025,,,,,,,,,,,,,,,,,,,,,,,,,,,,,,,,,,,254.38817839999683,254.4039834999712,254.4039834999712,255.4214667999768,r,1.0,1.0084663000307046,,,,,,sub-230,1,stroop_test,60.31374000742968,
,,,,36.0,0.0,3.0,,,,,,,,,,,,,rot,red,r,1.0,r,1.0,0.556896299996879,,,,,,,,,,3.0,0.0,36.0,0.0,255.4369982999633,,,,,,,,,,,,,,,,,255.42184879997512,256.63662499998463,257.4366989999544,257.4207841999596,,,,,,,,,,,,,,,,,,,,,,,,,,,,,,,,,,,257.4243688999559,257.4366989999544,257.4366989999544,258.0042616999708,r,1.0,0.556896299996879,,,,,,sub-230,1,stroop_test,60.31374000742968,
,,,,37.0,1.0,3.0,,,,,,,,,,,,,rot,red,r,1.0,r,1.0,0.5306304999976419,,,,,,,,,,3.0,1.0,37.0,1.0,258.0200450999546,,,,,,,,,,,,,,,,,258.00463649997255,258.8198707999545,259.6197489000042,259.60372119996464,,,,,,,,,,,,,,,,,,,,,,,,,,,,,,,,,,,259.60422310000286,259.6197489000042,259.6197489000042,260.15429859998403,r,1.0,0.5306304999976419,,,,,,sub-230,1,stroop_test,60.31374000742968,
,,,,38.0,2.0,3.0,,,,,,,,,,,,,blau,blue,b,1.0,b,1.0,0.6000311999814585,,,,,,,,,,3.0,2.0,38.0,5.0,260.16962289996445,,,,,,,,,,,,,,,,,260.1546663999907,260.52009429998,261.319575099973,261.3037215999793,,,,,,,,,,,,,,,,,,,,,,,,,,,,,,,,,,,261.3080187999876,261.319575099973,261.319575099973,261.920423100004,b,1.0,0.6000311999814585,,,,,,sub-230,1,stroop_test,60.31374000742968,
,,,,39.0,3.0,3.0,,,,,,,,,,,,,blau,red,r,0.0,r,1.0,0.8617809999850579,,,,,,,,,,3.0,3.0,39.0,4.0,261.9361157999956,,,,,,,,,,,,,,,,,261.9206962999888,262.28612089995295,263.0860660999897,263.0700964999851,,,,,,,,,,,,,,,,,,,,,,,,,,,,,,,,,,,263.0706206999603,263.0860660999897,263.0860660999897,263.9537883999874,r,1.0,0.8617809999850579,,,,,,sub-230,1,stroop_test,60.31374000742968,
,,,,40.0,4.0,3.0,,,,,,,,,,,,,gelb,blue,b,0.0,b,1.0,1.6683061000076125,,,,,,,,,,3.0,4.0,40.0,9.0,263.9692443999811,,,,,,,,,,,,,,,,,263.95414679998066,264.31917649996467,265.11904299998423,265.10280659998534,,,,,,,,,,,,,,,,,,,,,,,,,,,,,,,,,,,265.1064366999781,265.11904299998423,265.11904299998423,266.8035692999838,b,1.0,1.6683061000076125,,,,,,sub-230,1,stroop_test,60.31374000742968,
,,,,41.0,5.0,3.0,,,,,,,,,,,,,rot,blue,b,0.0,r,0.0,0.928771400009282,,,,,,,,,,3.0,5.0,41.0,2.0,266.8186532999971,,,,,,,,,,,,,,,,,266.80390569998417,266.9189052999718,267.71874469995964,267.70262189995265,,,,,,,,,,,,,,,,,,,,,,,,,,,,,,,,,,,267.70589579996886,267.71874469995964,267.71874469995964,268.6531517999829,r,0.0,0.928771400009282,,,,,,sub-230,1,stroop_test,60.31374000742968,
,,,,42.0,6.0,3.0,,,,,,,,,,,,,rot,yellow,g,0.0,g,1.0,1.1744414000422694,,,,,,,,,,3.0,6.0,42.0,3.0,268.6683079999639,,,,,,,,,,,,,,,,,268.6534624999622,269.4685297999531,270.268598900002,270.25207280000905,,,,,,,,,,,,,,,,,,,,,,,,,,,,,,,,,,,270.2523796999594,270.268598900002,270.268598900002,271.45342629996594,g,1.0,1.1744414000422694,,,,,,sub-230,1,stroop_test,60.31374000742968,
,,,,43.0,7.0,3.0,,,,,,,,,,,,,blau,blue,b,1.0,b,1.0,0.6267507000011392,,,,,,,,,,3.0,7.0,43.0,6.0,271.4682135999901,,,,,,,,,,,,,,,,,271.45400059997337,271.8181388999801,272.617999399954,272.60201199998846,,,,,,,,,,,,,,,,,,,,,,,,,,,,,,,,,,,272.60473439999623,272.617999399954,272.617999399954,273.25255219999235,b,1.0,0.6267507000011392,,,,,,sub-230,1,stroop_test,60.31374000742968,
,,,,44.0,8.0,3.0,,,,,,,,,,,,,blau,yellow,g,0.0,b,0.0,1.079663700016681,,,,,,,,,,3.0,8.0,44.0,7.0,273.2680319999927,,,,,,,,,,,,,,,,,273.2528878999874,273.3679889999912,274.1677720999578,274.1519190999679,,,,,,,,,,,,,,,,,,,,,,,,,,,,,,,,,,,274.1523788999766,274.1677720999578,274.1677720999578,275.25179019995267,b,0.0,1.079663700016681,,,,,,sub-230,1,stroop_test,60.31374000742968,
,,,,45.0,9.0,3.0,,,,,,,,,,,,,gelb,yellow,g,1.0,g,1.0,1.2651808999944478,,,,,,,,,,3.0,9.0,45.0,11.0,275.2676145999576,,,,,,,,,,,,,,,,,275.2521169999964,276.0510331999976,276.85096389998216,276.8349540999625,,,,,,,,,,,,,,,,,,,,,,,,,,,,,,,,,,,276.83804060000693,276.85096389998216,276.85096389998216,278.118341399997,g,1.0,1.2651808999944478,,,,,,sub-230,1,stroop_test,60.31374000742968,
,,,,46.0,10.0,3.0,,,,,,,,,,,,,gelb,yellow,g,1.0,g,1.0,1.3507164000184275,,,,,,,,,,3.0,10.0,46.0,10.0,278.1340105999843,,,,,,,,,,,,,,,,,278.1186984999804,278.9337975999806,279.73388610000256,279.7177425999544,,,,,,,,,,,,,,,,,,,,,,,,,,,,,,,,,,,279.71824819996255,279.73388610000256,279.73388610000256,281.1017576999729,g,1.0,1.3507164000184275,,,,,,sub-230,1,stroop_test,60.31374000742968,
,,,,47.0,11.0,3.0,,,,,,,,,,,,,gelb,red,r,0.0,r,1.0,1.008217800001148,,,,,,,,,,3.0,11.0,47.0,8.0,281.1169656999991,,,,,,,,,,,,,,,,,281.1021319999709,281.46686689998023,282.26692470000125,282.25093649997143,,,,,,,,,,,,,,,,,,,,,,,,,,,,,,,,,,,282.2514671999961,282.26692470000125,282.26692470000125,283.2846920999582,r,1.0,1.008217800001148,,,,,,sub-230,1,stroop_test,60.31374000742968,
,,,,48.0,0.0,4.0,,,,,,,,,,,,,blau,yellow,g,0.0,g,1.0,1.3128234000178054,,,,,,,,,,4.0,0.0,48.0,7.0,283.2999211999704,,,,,,,,,,,,,,,,,283.2850690999767,284.0999848999781,284.8997632999672,284.8839565999806,,,,,,,,,,,,,,,,,,,,,,,,,,,,,,,,,,,284.8883554000058,284.8997632999672,284.8997632999672,286.2172477999702,g,1.0,1.3128234000178054,,,,,,sub-230,1,stroop_test,60.31374000742968,
,,,,49.0,1.0,4.0,,,,,,,,,,,,,gelb,yellow,g,1.0,g,1.0,0.90736160002416,,,,,,,,,,4.0,1.0,49.0,11.0,286.23298109997995,,,,,,,,,,,,,,,,,286.2175525999628,287.03292899997905,287.83292159996927,287.8166719999863,,,,,,,,,,,,,,,,,,,,,,,,,,,,,,,,,,,287.81966529996134,287.83292159996927,287.83292159996927,288.7504338999861,g,1.0,0.90736160002416,,,,,,sub-230,1,stroop_test,60.31374000742968,
,,,,50.0,2.0,4.0,,,,,,,,,,,,,gelb,red,r,0.0,r,1.0,1.070422300021164,,,,,,,,,,4.0,2.0,50.0,8.0,288.7659185999655,,,,,,,,,,,,,,,,,288.7508129999624,289.115793999983,289.91571199998725,289.8999620999675,,,,,,,,,,,,,,,,,,,,,,,,,,,,,,,,,,,289.9005337999552,289.91571199998725,289.91571199998725,291.00032019999344,r,1.0,1.070422300021164,,,,,,sub-230,1,stroop_test,60.31374000742968,
,,,,51.0,3.0,4.0,,,,,,,,,,,,,blau,blue,b,1.0,b,1.0,0.4792789000202901,,,,,,,,,,4.0,3.0,51.0,6.0,291.0155670999666,,,,,,,,,,,,,,,,,291.0006830999628,291.36576719995355,292.1654791999608,292.149587199965,,,,,,,,,,,,,,,,,,,,,,,,,,,,,,,,,,,292.1524231999647,292.1654791999608,292.1654791999608,292.6500127000036,b,1.0,0.4792789000202901,,,,,,sub-230,1,stroop_test,60.31374000742968,
,,,,52.0,4.0,4.0,,,,,,,,,,,,,rot,blue,b,0.0,b,1.0,0.9989140999969096,,,,,,,,,,4.0,4.0,52.0,2.0,292.66552749997936,,,,,,,,,,,,,,,,,292.6503636999987,293.0155578999548,293.815326299984,293.79916509997565,,,,,,,,,,,,,,,,,,,,,,,,,,,,,,,,,,,293.8022782999906,293.815326299984,293.815326299984,294.816340499965,b,1.0,0.9989140999969096,,,,,,sub-230,1,stroop_test,60.31374000742968,
,,,,53.0,5.0,4.0,,,,,,,,,,,,,blau,red,r,0.0,r,1.0,0.6129362999927253,,,,,,,,,,4.0,5.0,53.0,4.0,294.83179209998343,,,,,,,,,,,,,,,,,294.8166708999779,296.03157739999006,296.8315768999746,296.81569409999065,,,,,,,,,,,,,,,,,,,,,,,,,,,,,,,,,,,296.8197489999584,296.8315768999746,296.8315768999746,297.4496510999743,r,1.0,0.6129362999927253,,,,,,sub-230,1,stroop_test,60.31374000742968,
,,,,54.0,6.0,4.0,,,,,,,,,,,,,gelb,blue,b,0.0,b,1.0,0.9586753000039608,,,,,,,,,,4.0,6.0,54.0,9.0,297.46482809999725,,,,,,,,,,,,,,,,,297.45017359999474,298.6648150999681,299.46463969995966,299.4487768999534,,,,,,,,,,,,,,,,,,,,,,,,,,,,,,,,,,,299.45344129996374,299.46463969995966,299.46463969995966,300.43201689998386,b,1.0,0.9586753000039608,,,,,,sub-230,1,stroop_test,60.31374000742968,
,,,,55.0,7.0,4.0,,,,,,,,,,,,,rot,yellow,g,0.0,g,1.0,1.029623200010974,,,,,,,,,,4.0,7.0,55.0,3.0,300.44781969999894,,,,,,,,,,,,,,,,,300.4323494999553,300.79783110000426,301.5977026000037,301.5817163999891,,,,,,,,,,,,,,,,,,,,,,,,,,,,,,,,,,,301.58550759998616,301.5977026000037,301.5977026000037,302.6320185000077,g,1.0,1.029623200010974,,,,,,sub-230,1,stroop_test,60.31374000742968,
,,,,56.0,8.0,4.0,,,,,,,,,,,,,blau,blue,b,1.0,b,1.0,0.5920582999824546,,,,,,,,,,4.0,8.0,56.0,5.0,302.64748889999464,,,,,,,,,,,,,,,,,302.63240929995663,302.99756089999573,303.7974620999885,303.78149389999453,,,,,,,,,,,,,,,,,,,,,,,,,,,,,,,,,,,303.7851587999612,303.7974620999885,303.7974620999885,304.3984603999997,b,1.0,0.5920582999824546,,,,,,sub-230,1,stroop_test,60.31374000742968,
,,,,57.0,9.0,4.0,,,,,,,,,,,,,gelb,yellow,g,1.0,g,1.0,0.962124900019262,,,,,,,,,,4.0,9.0,57.0,10.0,304.4138674999704,,,,,,,,,,,,,,,,,304.3988406999852,305.21368970000185,306.0139884999953,305.9979306999594,,,,,,,,,,,,,,,,,,,,,,,,,,,,,,,,,,,306.0003362999996,306.0139884999953,306.0139884999953,306.98164169996744,g,1.0,0.962124900019262,,,,,,sub-230,1,stroop_test,60.31374000742968,
,,,,58.0,10.0,4.0,,,,,,,,,,,,,rot,red,r,1.0,r,1.0,0.7406073000165634,,,,,,,,,,4.0,10.0,58.0,1.0,306.9968683999614,,,,,,,,,,,,,,,,,306.9820143999532,307.79675479995785,308.59652859997004,308.5808120999718,,,,,,,,,,,,,,,,,,,,,,,,,,,,,,,,,,,308.5846454999992,308.59652859997004,308.59652859997004,309.3478563000099,r,1.0,0.7406073000165634,,,,,,sub-230,1,stroop_test,60.31374000742968,
,,,,59.0,11.0,4.0,,,,,,,,,,,,,rot,red,r,1.0,r,1.0,0.5923613999621011,,,,,,,,,,4.0,11.0,59.0,0.0,309.36331369995605,,,,,,,,,,,,,,,,,309.348217199964,310.16309469996486,310.9629946000059,310.94711619999725,,,,,,,,,,,,,,,,,,,,,,,,,,,,,,,,,,,310.947632299969,310.9629946000059,310.9629946000059,311.5639938999666,r,1.0,0.5923613999621011,,,,,,sub-230,1,stroop_test,60.31374000742968,
,,,,60.0,0.0,5.0,,,,,,,,,,,,,rot,red,r,1.0,r,1.0,1.5928270000149496,,,,,,,,,,5.0,0.0,60.0,0.0,311.5796151999966,,,,,,,,,,,,,,,,,311.5642866999842,312.37949699995806,313.17953759996453,313.16354019998107,,,,,,,,,,,,,,,,,,,,,,,,,,,,,,,,,,,313.1641041999683,313.17953759996453,313.17953759996453,314.7805575999664,r,1.0,1.5928270000149496,,,,,,sub-230,1,stroop_test,60.31374000742968,
,,,,61.0,1.0,5.0,,,,,,,,,,,,,blau,red,r,0.0,r,1.0,0.5176885999972001,,,,,,,,,,5.0,1.0,61.0,4.0,314.7956858999678,,,,,,,,,,,,,,,,,314.7809312999598,315.99576739995973,316.7957138000056,316.7797752000042,,,,,,,,,,,,,,,,,,,,,,,,,,,,,,,,,,,316.78259449999314,316.7957138000056,316.7957138000056,317.33018409996293,r,1.0,0.5176885999972001,,,,,,sub-230,1,stroop_test,60.31374000742968,
,,,,62.0,2.0,5.0,,,,,,,,,,,,,blau,blue,b,1.0,b,1.0,1.0883899999898858,,,,,,,,,,5.0,2.0,62.0,5.0,317.34545119997347,,,,,,,,,,,,,,,,,317.33052889996907,318.1454405999975,318.94545179995475,318.92930389998946,,,,,,,,,,,,,,,,,,,,,,,,,,,,,,,,,,,318.9297804000089,318.94545179995475,318.94545179995475,320.0463065999793,b,1.0,1.0883899999898858,,,,,,sub-230,1,stroop_test,60.31374000742968,
,,,,63.0,3.0,5.0,,,,,,,,,,,,,gelb,yellow,g,1.0,g,1.0,0.6291236000251956,,,,,,,,,,5.0,3.0,63.0,11.0,320.06174669996835,,,,,,,,,,,,,,,,,320.0466485999641,321.26171579997754,322.06188930000644,322.0459106999915,,,,,,,,,,,,,,,,,,,,,,,,,,,,,,,,,,,322.0483893000055,322.06188930000644,322.06188930000644,322.6961656999774,g,1.0,0.6291236000251956,,,,,,sub-230,1,stroop_test,60.31374000742968,
,,,,64.0,4.0,5.0,,,,,,,,,,,,,gelb,blue,b,0.0,b,1.0,3.9263479000073858,,,,,,,,,,5.0,4.0,64.0,9.0,322.7115374999703,,,,,,,,,,,,,,,,,322.6965000999626,322.8116318999673,323.6116373999976,323.59550399996806,,,,,,,,,,,,,,,,,,,,,,,,,,,,,,,,,,,323.5959584999946,323.6116373999976,323.6116373999976,327.545587599976,b,1.0,3.9263479000073858,,,,,,sub-230,1,stroop_test,60.31374000742968,
,,,,65.0,5.0,5.0,,,,,,,,,,,,,rot,red,r,1.0,r,1.0,2.5353630999452434,,,,,,,,,,5.0,5.0,65.0,1.0,327.5607347000041,,,,,,,,,,,,,,,,,327.5459619999747,328.7608165999991,329.56097549997503,329.5449175999965,,,,,,,,,,,,,,,,,,,,,,,,,,,,,,,,,,,329.5489471000037,329.56097549997503,329.56097549997503,332.1115761999972,r,1.0,2.5353630999452434,,,,,,sub-230,1,stroop_test,60.31374000742968,
,,,,66.0,6.0,5.0,,,,,,,,,,,,,gelb,yellow,g,1.0,g,1.0,0.6322873999597505,,,,,,,,,,5.0,6.0,66.0,10.0,332.12710359995253,,,,,,,,,,,,,,,,,332.11191839998355,332.226976899954,333.0268976999796,333.01090210000984,,,,,,,,,,,,,,,,,,,,,,,,,,,,,,,,,,,333.0138753000065,333.0268976999796,333.0268976999796,333.66136639995966,g,1.0,0.6322873999597505,,,,,,sub-230,1,stroop_test,60.31374000742968,
,,,,67.0,7.0,5.0,,,,,,,,,,,,,rot,yellow,g,0.0,g,1.0,2.4362817999790423,,,,,,,,,,5.0,7.0,67.0,3.0,333.6768099999754,,,,,,,,,,,,,,,,,333.66176019998966,333.7768267999636,334.5768017999944,334.56062720000045,,,,,,,,,,,,,,,,,,,,,,,,,,,,,,,,,,,334.56395049998537,334.5768017999944,334.5768017999944,337.0273561999784,g,1.0,2.4362817999790423,,,,,,sub-230,1,stroop_test,60.31374000742968,
,,,,68.0,8.0,5.0,,,,,,,,,,,,,gelb,red,r,0.0,r,1.0,0.918301399971824,,,,,,,,,,5.0,8.0,68.0,8.0,337.04274869995425,,,,,,,,,,,,,,,,,337.02772700000787,337.142901299987,337.94289899995783,337.9270541999722,,,,,,,,,,,,,,,,,,,,,,,,,,,,,,,,,,,337.9306041999953,337.94289899995783,337.94289899995783,338.8774522999884,r,1.0,0.918301399971824,,,,,,sub-230,1,stroop_test,60.31374000742968,
,,,,69.0,9.0,5.0,,,,,,,,,,,,,blau,yellow,g,0.0,g,1.0,0.9323103000060656,,,,,,,,,,5.0,9.0,69.0,7.0,338.8927084999741,,,,,,,,,,,,,,,,,338.87782980001066,339.69272689998616,340.49249839998083,340.47651790000964,,,,,,,,,,,,,,,,,,,,,,,,,,,,,,,,,,,340.4797776999767,340.49249839998083,340.49249839998083,341.4271369999624,g,1.0,0.9323103000060656,,,,,,sub-230,1,stroop_test,60.31374000742968,
,,,,70.0,10.0,5.0,,,,,,,,,,,,,rot,blue,b,0.0,b,1.0,0.7790673000272363,,,,,,,,,,5.0,10.0,70.0,2.0,341.44255899998825,,,,,,,,,,,,,,,,,341.42750729998806,341.7922668000101,342.59243039996363,342.576469099964,,,,,,,,,,,,,,,,,,,,,,,,,,,,,,,,,,,342.5795172000071,342.59243039996363,342.59243039996363,343.3767483999836,b,1.0,0.7790673000272363,,,,,,sub-230,1,stroop_test,60.31374000742968,
,,,,71.0,11.0,5.0,,,,,,,,,,,,,blau,blue,b,1.0,b,1.0,0.5320737999863923,,,,,,,,,,5.0,11.0,71.0,6.0,343.3923092999612,,,,,,,,,,,,,,,,,343.37709059997,343.4923872000072,344.2921423999942,344.2761561999796,,,,,,,,,,,,,,,,,,,,,,,,,,,,,,,,,,,344.2791193999583,344.2921423999942,344.2921423999942,344.8264246999752,b,1.0,0.5320737999863923,,,,,,sub-230,1,stroop_test,60.31374000742968,
,,,,72.0,0.0,6.0,,,,,,,,,,,,,rot,yellow,g,0.0,g,1.0,0.90401539998129,,,,,,,,,,6.0,0.0,72.0,3.0,344.8421083999565,,,,,,,,,,,,,,,,,344.8267994999769,346.02553749998333,346.8252366000088,346.80897499999264,,,,,,,,,,,,,,,,,,,,,,,,,,,,,,,,,,,346.8129648999893,346.8252366000088,346.8252366000088,347.7428626999608,g,1.0,0.90401539998129,,,,,,sub-230,1,stroop_test,60.31374000742968,
,,,,73.0,1.0,6.0,,,,,,,,,,,,,gelb,yellow,g,1.0,g,1.0,0.6435810999828391,,,,,,,,,,6.0,1.0,73.0,11.0,347.7583919999888,,,,,,,,,,,,,,,,,347.7432316999766,348.5581854999764,349.3580612000078,349.34202679997543,,,,,,,,,,,,,,,,,,,,,,,,,,,,,,,,,,,349.345576599997,349.3580612000078,349.3580612000078,350.0093544999836,g,1.0,0.6435810999828391,,,,,,sub-230,1,stroop_test,60.31374000742968,
,,,,74.0,2.0,6.0,,,,,,,,,,,,,gelb,red,r,0.0,r,1.0,0.8813763000071049,,,,,,,,,,6.0,2.0,74.0,8.0,350.0248037999845,,,,,,,,,,,,,,,,,350.0097353999736,350.1247197999619,350.9246648999979,350.908689200005,,,,,,,,,,,,,,,,,,,,,,,,,,,,,,,,,,,350.9092141999863,350.9246648999979,350.9246648999979,351.8091732999892,r,1.0,0.8813763000071049,,,,,,sub-230,1,stroop_test,60.31374000742968,
,,,,75.0,3.0,6.0,,,,,,,,,,,,,blau,red,r,0.0,r,1.0,1.0633215000270866,,,,,,,,,,6.0,3.0,75.0,4.0,351.8243042000104,,,,,,,,,,,,,,,,,351.80954990000464,352.1745833999594,352.9746331999777,352.9584987999988,,,,,,,,,,,,,,,,,,,,,,,,,,,,,,,,,,,352.9608024999616,352.9746331999777,352.9746331999777,354.04208220000146,r,1.0,1.0633215000270866,,,,,,sub-230,1,stroop_test,60.31374000742968,
,,,,76.0,4.0,6.0,,,,,,,,,,,,,blau,blue,b,1.0,b,1.0,0.7119604999898002,,,,,,,,,,6.0,4.0,76.0,5.0,354.0575700000045,,,,,,,,,,,,,,,,,354.0424613999785,355.25723049999215,356.0574645999586,356.04121960001066,,,,,,,,,,,,,,,,,,,,,,,,,,,,,,,,,,,356.0416008000029,356.0574645999586,356.0574645999586,356.7750754999579,b,1.0,0.7119604999898002,,,,,,sub-230,1,stroop_test,60.31374000742968,
,,,,77.0,5.0,6.0,,,,,,,,,,,,,blau,blue,b,1.0,b,1.0,1.6763172000064517,,,,,,,,,,6.0,5.0,77.0,6.0,356.7904082000023,,,,,,,,,,,,,,,,,356.7753424999537,356.8904399999883,357.6900100999628,357.6738078999915,,,,,,,,,,,,,,,,,,,,,,,,,,,,,,,,,,,357.6741776999552,357.6900100999628,357.6900100999628,359.37478720000945,b,1.0,1.6763172000064517,,,,,,sub-230,1,stroop_test,60.31374000742968,
,,,,78.0,6.0,6.0,,,,,,,,,,,,,rot,blue,b,0.0,r,0.0,2.2799325000378303,,,,,,,,,,6.0,6.0,78.0,2.0,359.3900057999999,,,,,,,,,,,,,,,,,359.37520529999165,359.73992610001005,360.53995079995366,360.52418279997073,,,,,,,,,,,,,,,,,,,,,,,,,,,,,,,,,,,360.52816919999896,360.53995079995366,360.53995079995366,362.8242476999876,r,0.0,2.2799325000378303,,,,,,sub-230,1,stroop_test,60.31374000742968,
,,,,79.0,7.0,6.0,,,,,,,,,,,,,rot,red,r,1.0,r,1.0,0.61859829997411,,,,,,,,,,6.0,7.0,79.0,1.0,362.8395634999615,,,,,,,,,,,,,,,,,362.8246833999874,363.63967269996647,364.4394598999643,364.423541199998,,,,,,,,,,,,,,,,,,,,,,,,,,,,,,,,,,,364.4241507999832,364.4394598999643,364.4394598999643,365.0743177999975,r,1.0,0.61859829997411,,,,,,sub-230,1,stroop_test,60.31374000742968,
,,,,80.0,8.0,6.0,,,,,,,,,,,,,rot,red,r,1.0,r,1.0,0.6553219000343233,,,,,,,,,,6.0,8.0,80.0,0.0,365.0892049999675,,,,,,,,,,,,,,,,,365.0747351999744,366.2892791999621,367.08921879995614,367.0733258999535,,,,,,,,,,,,,,,,,,,,,,,,,,,,,,,,,,,367.0738443000009,367.08921879995614,367.08921879995614,367.7568639999954,r,1.0,0.6553219000343233,,,,,,sub-230,1,stroop_test,60.31374000742968,
,,,,81.0,9.0,6.0,,,,,,,,,,,,,gelb,yellow,g,1.0,g,1.0,0.7134764000074938,,,,,,,,,,6.0,9.0,81.0,10.0,367.772475100006,,,,,,,,,,,,,,,,,367.7572453999892,368.12259549996816,368.92246089997934,368.90632279997226,,,,,,,,,,,,,,,,,,,,,,,,,,,,,,,,,,,368.9099353000056,368.92246089997934,368.92246089997934,369.64010459999554,g,1.0,0.7134764000074938,,,,,,sub-230,1,stroop_test,60.31374000742968,
,,,,82.0,10.0,6.0,,,,,,,,,,,,,gelb,blue,b,0.0,b,1.0,0.9393826000159606,,,,,,,,,,6.0,10.0,82.0,9.0,369.6554327000049,,,,,,,,,,,,,,,,,369.6404898999608,370.0053242999711,370.80531169998,370.78915399999823,,,,,,,,,,,,,,,,,,,,,,,,,,,,,,,,,,,370.7896526999539,370.80531169998,370.80531169998,371.756533399981,b,1.0,0.9393826000159606,,,,,,sub-230,1,stroop_test,60.31374000742968,
,,,,83.0,11.0,6.0,,,,,,,,,,,,,blau,yellow,g,0.0,g,1.0,0.5488746000337414,,,,,,,,,,6.0,11.0,83.0,7.0,371.7717681999784,,,,,,,,,,,,,,,,,371.75690859998576,372.5717219999642,373.3715709999669,373.355855199974,,,,,,,,,,,,,,,,,,,,,,,,,,,,,,,,,,,373.3608818000066,373.3715709999669,373.3715709999669,373.9225834999816,g,1.0,0.5488746000337414,,,,,,sub-230,1,stroop_test,60.31374000742968,
,,,,84.0,0.0,7.0,,,,,,,,,,,,,gelb,yellow,g,1.0,g,1.0,0.4778657000279054,,,,,,,,,,7.0,0.0,84.0,10.0,373.9383521999698,,,,,,,,,,,,,,,,,373.9228964999784,374.2882954999805,375.0883704999578,375.0720316999941,,,,,,,,,,,,,,,,,,,,,,,,,,,,,,,,,,,375.0746282999753,375.0883704999578,375.0883704999578,375.5722456999938,g,1.0,0.4778657000279054,,,,,,sub-230,1,stroop_test,60.31374000742968,
,,,,85.0,1.0,7.0,,,,,,,,,,,,,blau,blue,b,1.0,b,1.0,0.5311602000147104,,,,,,,,,,7.0,1.0,85.0,6.0,375.5876428000047,,,,,,,,,,,,,,,,,375.5725892999908,375.6876534000039,376.4875379999866,376.4723758999608,,,,,,,,,,,,,,,,,,,,,,,,,,,,,,,,,,,376.4781585999881,376.4875379999866,376.4875379999866,377.0229254000005,b,1.0,0.5311602000147104,,,,,,sub-230,1,stroop_test,60.31374000742968,
,,,,86.0,2.0,7.0,,,,,,,,,,,,,gelb,red,r,0.0,r,1.0,0.8496656999923289,,,,,,,,,,7.0,2.0,86.0,8.0,377.0377225999837,,,,,,,,,,,,,,,,,377.0233717999654,378.2376967999735,379.0376555999974,379.021723599988,,,,,,,,,,,,,,,,,,,,,,,,,,,,,,,,,,,379.0262393999728,379.0376555999974,379.0376555999974,379.8888287000009,r,1.0,0.8496656999923289,,,,,,sub-230,1,stroop_test,60.31374000742968,
,,,,87.0,3.0,7.0,,,,,,,,,,,,,gelb,blue,b,0.0,b,1.0,1.3014418000238948,,,,,,,,,,7.0,3.0,87.0,9.0,379.90412959997775,,,,,,,,,,,,,,,,,379.8892154999776,380.7040925999754,381.50360209995415,381.48797429999104,,,,,,,,,,,,,,,,,,,,,,,,,,,,,,,,,,,381.4883327999851,381.50360209995415,381.50360209995415,382.821460200008,b,1.0,1.3014418000238948,,,,,,sub-230,1,stroop_test,60.31374000742968,
,,,,88.0,4.0,7.0,,,,,,,,,,,,,blau,yellow,g,0.0,g,1.0,1.297255200042855,,,,,,,,,,7.0,4.0,88.0,7.0,382.8371883999789,,,,,,,,,,,,,,,,,382.8218273000093,382.93712650000816,383.7371642999933,383.7212091999827,,,,,,,,,,,,,,,,,,,,,,,,,,,,,,,,,,,383.7243617000058,383.7371642999933,383.7371642999933,385.03796719998354,g,1.0,1.297255200042855,,,,,,sub-230,1,stroop_test,60.31374000742968,
,,,,89.0,5.0,7.0,,,,,,,,,,,,,rot,blue,b,0.0,r,0.0,0.9551019000355154,,,,,,,,,,7.0,5.0,89.0,2.0,385.05375339998864,,,,,,,,,,,,,,,,,385.0382425999851,385.4034605000052,386.2034323999542,386.1874160000007,,,,,,,,,,,,,,,,,,,,,,,,,,,,,,,,,,,386.19003509997856,386.2034323999542,386.2034323999542,387.17103679996217,r,0.0,0.9551019000355154,,,,,,sub-230,1,stroop_test,60.31374000742968,
,,,,90.0,6.0,7.0,,,,,,,,,,,,,blau,red,r,0.0,r,1.0,1.022361500014085,,,,,,,,,,7.0,6.0,90.0,4.0,387.186366799986,,,,,,,,,,,,,,,,,387.17138610000256,387.2866540999967,388.0865301999729,388.0705382999731,,,,,,,,,,,,,,,,,,,,,,,,,,,,,,,,,,,388.0735860999557,388.0865301999729,388.0865301999729,389.1209475999931,r,1.0,1.022361500014085,,,,,,sub-230,1,stroop_test,60.31374000742968,
,,,,91.0,7.0,7.0,,,,,,,,,,,,,blau,blue,b,1.0,b,1.0,1.046007000026293,,,,,,,,,,7.0,7.0,91.0,5.0,389.1362261999748,,,,,,,,,,,,,,,,,389.121323600004,389.4861318999901,390.28617390000727,390.2702082999749,,,,,,,,,,,,,,,,,,,,,,,,,,,,,,,,,,,390.27070940000704,390.28617390000727,390.28617390000727,391.3373656999902,b,1.0,1.046007000026293,,,,,,sub-230,1,stroop_test,60.31374000742968,
,,,,92.0,8.0,7.0,,,,,,,,,,,,,rot,yellow,g,0.0,g,1.0,0.6481493000173941,,,,,,,,,,7.0,8.0,92.0,3.0,391.35283869999694,,,,,,,,,,,,,,,,,391.3377282999572,391.7026445000083,392.5026362999925,392.4865626000101,,,,,,,,,,,,,,,,,,,,,,,,,,,,,,,,,,,392.49132450000616,392.5026362999925,392.5026362999925,393.15387370000826,g,1.0,0.6481493000173941,,,,,,sub-230,1,stroop_test,60.31374000742968,
,,,,93.0,9.0,7.0,,,,,,,,,,,,,rot,red,r,1.0,r,1.0,0.5477495000232011,,,,,,,,,,7.0,9.0,93.0,0.0,393.16914399998495,,,,,,,,,,,,,,,,,393.15429719997337,394.3689696000074,395.1688792000059,395.15261839999584,,,,,,,,,,,,,,,,,,,,,,,,,,,,,,,,,,,395.15301499998895,395.1688792000059,395.1688792000059,395.7198025999824,r,1.0,0.5477495000232011,,,,,,sub-230,1,stroop_test,60.31374000742968,
,,,,94.0,10.0,7.0,,,,,,,,,,,,,rot,red,r,1.0,r,1.0,1.4091056999750435,,,,,,,,,,7.0,10.0,94.0,1.0,395.7355061999988,,,,,,,,,,,,,,,,,395.7201410999987,395.8354978999705,396.6352646999876,396.6195524999639,,,,,,,,,,,,,,,,,,,,,,,,,,,,,,,,,,,396.6202325999621,396.6352646999876,396.6352646999876,398.0534903999651,r,1.0,1.4091056999750435,,,,,,sub-230,1,stroop_test,60.31374000742968,
,,,,95.0,11.0,7.0,,,,,,,,,,,,,gelb,yellow,g,1.0,g,1.0,0.8531254999688827,,,,,,,,,,7.0,11.0,95.0,11.0,398.0685452999896,,,,,,,,,,,,,,,,,398.05401989998063,398.868301999988,399.6682753000059,399.6523708999739,,,,,,,,,,,,,,,,,,,,,,,,,,,,,,,,,,,399.656714599987,399.6682753000059,399.6682753000059,400.5361681999639,g,1.0,0.8531254999688827,,,,,,sub-230,1,stroop_test,60.31374000742968,
,,,,96.0,0.0,8.0,,,,,,,,,,,,,rot,yellow,g,0.0,g,1.0,5.730710499978159,,,,,,,,,,8.0,0.0,96.0,3.0,400.55135749996407,,,,,,,,,,,,,,,,,400.5365588999703,400.6515187000041,401.4516252999893,401.4354380999576,,,,,,,,,,,,,,,,,,,,,,,,,,,,,,,,,,,401.43914689996745,401.4516252999893,401.4516252999893,407.18496639997466,g,1.0,5.730710499978159,,,,,,sub-230,1,stroop_test,60.31374000742968,
,,,,97.0,1.0,8.0,,,,,,,,,,,,,gelb,yellow,g,1.0,g,1.0,0.6626362000242807,,,,,,,,,,8.0,1.0,97.0,10.0,407.2006191999535,,,,,,,,,,,,,,,,,407.1854640999809,407.5506090999697,408.35068059997866,408.3344500999665,,,,,,,,,,,,,,,,,,,,,,,,,,,,,,,,,,,408.3379699999932,408.35068059997866,408.35068059997866,409.0184499999741,g,1.0,0.6626362000242807,,,,,,sub-230,1,stroop_test,60.31374000742968,
,,,,98.0,2.0,8.0,,,,,,,,,,,,,blau,blue,b,1.0,b,1.0,0.7200002999743447,,,,,,,,,,8.0,2.0,98.0,6.0,409.0336123000016,,,,,,,,,,,,,,,,,409.0188199999975,409.3835268999683,410.1835437999689,410.16744339995785,,,,,,,,,,,,,,,,,,,,,,,,,,,,,,,,,,,410.1705304000061,410.1835437999689,410.1835437999689,410.91817969997646,b,1.0,0.7200002999743447,,,,,,sub-230,1,stroop_test,60.31374000742968,
,,,,99.0,3.0,8.0,,,,,,,,,,,,,blau,red,r,0.0,r,1.0,1.1381304999813435,,,,,,,,,,8.0,3.0,99.0,4.0,410.933334500005,,,,,,,,,,,,,,,,,410.9185472999816,411.7334019999834,412.5331816999824,412.5170212999801,,,,,,,,,,,,,,,,,,,,,,,,,,,,,,,,,,,412.5174381000106,412.5331816999824,412.5331816999824,413.6843985999585,r,1.0,1.1381304999813435,,,,,,sub-230,1,stroop_test,60.31374000742968,
,,,,100.0,4.0,8.0,,,,,,,,,,,,,blau,yellow,g,0.0,g,1.0,0.8271177999558859,,,,,,,,,,8.0,4.0,100.0,7.0,413.6998393999529,,,,,,,,,,,,,,,,,413.68472299998393,414.8997588999919,415.6996233999962,415.68368550000014,,,,,,,,,,,,,,,,,,,,,,,,,,,,,,,,,,,415.6842432999984,415.6996233999962,415.6996233999962,416.53393929998856,g,1.0,0.8271177999558859,,,,,,sub-230,1,stroop_test,60.31374000742968,
,,,,101.0,5.0,8.0,,,,,,,,,,,,,rot,red,r,1.0,r,1.0,0.9350060999859124,,,,,,,,,,8.0,5.0,101.0,1.0,416.5493362999987,,,,,,,,,,,,,,,,,416.534317899961,417.3493080000044,418.1491722000064,418.1330854999833,,,,,,,,,,,,,,,,,,,,,,,,,,,,,,,,,,,418.1368747999659,418.1491722000064,418.1491722000064,419.1003534999909,r,1.0,0.9350060999859124,,,,,,sub-230,1,stroop_test,60.31374000742968,
,,,,102.0,6.0,8.0,,,,,,,,,,,,,gelb,blue,b,0.0,b,1.0,1.9345244000433013,,,,,,,,,,8.0,6.0,102.0,9.0,419.11554569995496,,,,,,,,,,,,,,,,,419.1007177999709,419.4655821999768,420.2656929999939,420.2497165999957,,,,,,,,,,,,,,,,,,,,,,,,,,,,,,,,,,,420.2531305999728,420.2656929999939,420.2656929999939,422.2163974999567,b,1.0,1.9345244000433013,,,,,,sub-230,1,stroop_test,60.31374000742968,
,,,,103.0,7.0,8.0,,,,,,,,,,,,,rot,blue,b,0.0,b,1.0,0.6234227999811992,,,,,,,,,,8.0,7.0,103.0,2.0,422.2322570999968,,,,,,,,,,,,,,,,,422.216698299977,422.581984599994,423.3820892999647,423.36604429996805,,,,,,,,,,,,,,,,,,,,,,,,,,,,,,,,,,,423.36861349997343,423.3820892999647,423.3820892999647,424.0161064999993,b,1.0,0.6234227999811992,,,,,,sub-230,1,stroop_test,60.31374000742968,
,,,,104.0,8.0,8.0,,,,,,,,,,,,,blau,blue,b,1.0,b,1.0,0.5515121000353247,,,,,,,,,,8.0,8.0,104.0,5.0,424.0319722999702,,,,,,,,,,,,,,,,,424.0163826000062,424.3816735,425.1815289999941,425.1657615999575,,,,,,,,,,,,,,,,,,,,,,,,,,,,,,,,,,,425.1689117999631,425.1815289999941,425.1815289999941,425.7495886999532,b,1.0,0.5515121000353247,,,,,,sub-230,1,stroop_test,60.31374000742968,
,,,,105.0,9.0,8.0,,,,,,,,,,,,,rot,red,r,1.0,r,1.0,0.7002852000296116,,,,,,,,,,8.0,9.0,105.0,0.0,425.7649100999697,,,,,,,,,,,,,,,,,425.749972999969,426.5647110999562,427.3647096999921,427.3488462999812,,,,,,,,,,,,,,,,,,,,,,,,,,,,,,,,,,,427.35243249998894,427.3647096999921,427.3647096999921,428.0660688999924,r,1.0,0.7002852000296116,,,,,,sub-230,1,stroop_test,60.31374000742968,
,,,,106.0,10.0,8.0,,,,,,,,,,,,,gelb,yellow,g,1.0,g,1.0,0.6490043000085279,,,,,,,,,,8.0,10.0,106.0,11.0,428.0811650999822,,,,,,,,,,,,,,,,,428.0664451000048,428.8810455999919,429.6811991999857,429.6650829999708,,,,,,,,,,,,,,,,,,,,,,,,,,,,,,,,,,,429.66876909998246,429.6811991999857,429.6811991999857,430.3323038999806,g,1.0,0.6490043000085279,,,,,,sub-230,1,stroop_test,60.31374000742968,
,,,,107.0,11.0,8.0,,,,,,,,,,,,,gelb,red,r,0.0,r,1.0,1.65104229998542,,,,,,,,,,8.0,11.0,107.0,8.0,430.3475416000001,,,,,,,,,,,,,,,,,430.3326663000044,430.6977168999729,431.49763509997865,431.48160249996,,,,,,,,,,,,,,,,,,,,,,,,,,,,,,,,,,,431.48208799998974,431.49763509997865,431.49763509997865,433.1651971999672,r,1.0,1.65104229998542,,,,,,sub-230,1,stroop_test,60.31374000742968,
,,,,108.0,0.0,9.0,,,,,,,,,,,,,gelb,yellow,g,1.0,g,1.0,0.6081486000330187,,,,,,,,,,9.0,0.0,108.0,11.0,433.1804906000034,,,,,,,,,,,,,,,,,433.16552519996185,433.28038569999626,434.0804047999554,434.0645628999919,,,,,,,,,,,,,,,,,,,,,,,,,,,,,,,,,,,434.0650217999937,434.0804047999554,434.0804047999554,434.69850070000393,g,1.0,0.6081486000330187,,,,,,sub-230,1,stroop_test,60.31374000742968,
,,,,109.0,1.0,9.0,,,,,,,,,,,,,gelb,blue,b,0.0,b,1.0,0.7206525000510737,,,,,,,,,,9.0,1.0,109.0,9.0,434.713730599964,,,,,,,,,,,,,,,,,434.6988785999711,434.8136663999758,435.61371599999256,435.5978655999643,,,,,,,,,,,,,,,,,,,,,,,,,,,,,,,,,,,435.5985871999874,435.61371599999256,435.61371599999256,436.3482082999544,b,1.0,0.7206525000510737,,,,,,sub-230,1,stroop_test,60.31374000742968,
,,,,110.0,2.0,9.0,,,,,,,,,,,,,rot,red,r,1.0,r,1.0,0.5744416000088677,,,,,,,,,,9.0,2.0,110.0,1.0,436.3634087999817,,,,,,,,,,,,,,,,,436.348603099992,436.46362289995886,437.26346679998096,437.2475133999833,,,,,,,,,,,,,,,,,,,,,,,,,,,,,,,,,,,437.2510814999696,437.26346679998096,437.26346679998096,437.8477404000005,r,1.0,0.5744416000088677,,,,,,sub-230,1,stroop_test,60.31374000742968,
,,,,111.0,3.0,9.0,,,,,,,,,,,,,gelb,red,r,0.0,r,1.0,0.9079700000002048,,,,,,,,,,9.0,3.0,111.0,8.0,437.8633603999624,,,,,,,,,,,,,,,,,437.8481087999535,437.9632240000065,438.76334700000007,438.7473212999757,,,,,,,,,,,,,,,,,,,,,,,,,,,,,,,,,,,438.7509959999588,438.76334700000007,438.76334700000007,439.68092610000167,r,1.0,0.9079700000002048,,,,,,sub-230,1,stroop_test,60.31374000742968,
,,,,112.0,4.0,9.0,,,,,,,,,,,,,blau,red,r,0.0,r,1.0,0.630816200049594,,,,,,,,,,9.0,4.0,112.0,4.0,439.696231299953,,,,,,,,,,,,,,,,,439.68130729999393,440.89623379998375,441.6961647999706,441.6801552999532,,,,,,,,,,,,,,,,,,,,,,,,,,,,,,,,,,,441.68325239996193,441.6961647999706,441.6961647999706,442.3307179999538,r,1.0,0.630816200049594,,,,,,sub-230,1,stroop_test,60.31374000742968,
,,,,113.0,5.0,9.0,,,,,,,,,,,,,blau,yellow,g,0.0,g,1.0,0.6890855000237934,,,,,,,,,,9.0,5.0,113.0,7.0,442.3463376999716,,,,,,,,,,,,,,,,,442.3310040999786,443.14595979999285,443.9459509999724,443.9297732999548,,,,,,,,,,,,,,,,,,,,,,,,,,,,,,,,,,,443.9303011999582,443.9459509999724,443.9459509999724,444.646963200008,g,1.0,0.6890855000237934,,,,,,sub-230,1,stroop_test,60.31374000742968,
,,,,114.0,6.0,9.0,,,,,,,,,,,,,rot,blue,b,0.0,b,1.0,1.579178000043612,,,,,,,,,,9.0,6.0,114.0,2.0,444.6622350999969,,,,,,,,,,,,,,,,,444.6473275999888,444.7623147999984,445.5622589999693,445.54635479999706,,,,,,,,,,,,,,,,,,,,,,,,,,,,,,,,,,,445.5493636999745,445.5622589999693,445.5622589999693,447.1465868999949,b,1.0,1.579178000043612,,,,,,sub-230,1,stroop_test,60.31374000742968,
,,,,115.0,7.0,9.0,,,,,,,,,,,,,blau,blue,b,1.0,b,1.0,1.2422615999821571,,,,,,,,,,9.0,7.0,115.0,5.0,447.1620558999712,,,,,,,,,,,,,,,,,447.1469470000011,447.5119214999722,448.3118969000061,448.2959931999794,,,,,,,,,,,,,,,,,,,,,,,,,,,,,,,,,,,448.29906729998766,448.3118969000061,448.3118969000061,449.5631552999839,b,1.0,1.2422615999821571,,,,,,sub-230,1,stroop_test,60.31374000742968,
,,,,116.0,8.0,9.0,,,,,,,,,,,,,blau,blue,b,1.0,b,1.0,3.613515100034419,,,,,,,,,,9.0,8.0,116.0,6.0,449.578518699971,,,,,,,,,,,,,,,,,449.56351429998176,450.3781763999723,451.17835699999705,451.16202099999646,,,,,,,,,,,,,,,,,,,,,,,,,,,,,,,,,,,451.1623826999567,451.17835699999705,451.17835699999705,454.7955098999664,b,1.0,3.613515100034419,,,,,,sub-230,1,stroop_test,60.31374000742968,
,,,,117.0,9.0,9.0,,,,,,,,,,,,,rot,red,r,1.0,r,1.0,0.7682045999681577,,,,,,,,,,9.0,9.0,117.0,0.0,454.81125410000095,,,,,,,,,,,,,,,,,454.7958261999884,455.6109701999813,456.4410900999792,456.3949531999533,,,,,,,,,,,,,,,,,,,,,,,,,,,,,,,,,,,456.4347652999568,456.4410900999792,456.4410900999792,457.21148719999474,r,1.0,0.7682045999681577,,,,,,sub-230,1,stroop_test,60.31374000742968,
,,,,118.0,10.0,9.0,,,,,,,,,,,,,gelb,yellow,g,1.0,g,1.0,1.0143543999874964,,,,,,,,,,9.0,10.0,118.0,10.0,457.2270313999616,,,,,,,,,,,,,,,,,457.2118114999612,457.3270372999832,458.1270211999654,458.11069379997207,,,,,,,,,,,,,,,,,,,,,,,,,,,,,,,,,,,458.11307129997294,458.1270211999654,458.1270211999654,459.1450835999567,g,1.0,1.0143543999874964,,,,,,sub-230,1,stroop_test,60.31374000742968,
,,,,119.0,11.0,9.0,,,,,,,,,,,,,rot,yellow,g,0.0,r,0.0,0.940813299966976,,,,,,,,,,9.0,11.0,119.0,3.0,459.16069579997566,,,,,,,,,,,,,,,,,459.1453951000003,459.26067649998,460.06067249999614,460.0445289000054,,,,,,,,,,,,,,,,,,,,,,,,,,,,,,,,,,,460.0474506999599,460.06067249999614,460.06067249999614,461.0112792999717,r,0.0,0.940813299966976,,,,,,sub-230,1,stroop_test,60.31374000742968,
,,,,,,,,,,,,,,,,,,,,,,,,,,,,,,,,,,,,,,,,,,,,,,,,,,,,,,,,,,,,,,,,,,,,,,,,,,,,,,,,,,,,,,,,,,,,,,,,,,,,,,461.0114263999858,461.027078199957,466.02641739998944,466.010492899979,sub-230,1,stroop_test,60.31374000742968,
