wordCTK,colorCTK,corrAnsCTK,congruentCTK,thisN,thisTrialN,thisRepN,keyResp_CTK.keys,keyResp_CTK.corr,keyResp_CTK.rt,keyResp_CTK.duration,wordPractice,colorPractice,corrAnsPractice,congruentPractice,respPractice.keys,respPractice.corr,respPractice.rt,respPractice.duration,word,color,corrAns,congruent,keyResp_test_run.keys,keyResp_test_run.corr,keyResp_test_run.rt,keyResp_test_run.duration,trials_CTK.thisRepN,trials_CTK.thisTrialN,trials_CTK.thisN,trials_CTK.thisIndex,trials_practice.thisRepN,trials_practice.thisTrialN,trials_practice.thisN,trials_practice.thisIndex,trials_test.thisRepN,trials_test.thisTrialN,trials_test.thisN,trials_test.thisIndex,thisRow.t,notes,instruction.started,instr_text.started,instr_image.started,instr_resp.started,instruction.stopped,instr_resp.keys,instr_resp.rt,instr_resp.duration,instr_color_to_key.started,instr_ctk.started,resp_ctk.started,instr_color_to_key.stopped,resp_ctk.keys,resp_ctk.rt,resp_ctk.duration,ITI.started,fixcross.started,fixcross.stopped,ITI.stopped,color_to_key_run.started,stimulus_CTK.started,keyResp_CTK.started,color_to_key_run.stopped,trials_CTK.keyResp_CTK.keys,trials_CTK.keyResp_CTK.corr,trials_CTK.keyResp_CTK.rt,trials_CTK.keyResp_CTK.duration,instr_practice.started,instr_practice_text.started,instr_practice_resp.started,instr_practice.stopped,instr_practice_resp.keys,instr_practice_resp.rt,instr_practice_resp.duration,practice_run.started,stimulus_practice.started,respPractice.started,practice_run.stopped,trials_practice.respPractice.keys,trials_practice.respPractice.corr,trials_practice.respPractice.rt,trials_practice.respPractice.duration,feedback.started,textFeedback.started,feedback.stopped,textFeedback.stopped,instr_test.started,instr_test_text.started,instr_test_resp.started,instr_test.stopped,instr_test_resp.keys,instr_test_resp.rt,instr_test_resp.duration,test_run.started,stimulus_test_run.started,keyResp_test_run.started,test_run.stopped,trials_test.keyResp_test_run.keys,trials_test.keyResp_test_run.corr,trials_test.keyResp_test_run.rt,trials_test.keyResp_test_run.duration,goodbye.started,textGoodbye.started,goodbye.stopped,participant,session,expName,frameRate,Unnamed: 112
,,,,,,,,,,,,,,,,,,,,,,,,,,,,,,,,,,,,,,,,,0.0048919000000751,0.1180186000019603,0.1180186000019603,0.1180186000019603,52.34551640000063,space,52.21973660000003,,,,,,,,,,,,,,,,,,,,,,,,,,,,,,,,,,,,,,,,,,,,,,,,,,,,,,,,,,sub-025,1,stroop_test,59.94589283642964,
,,,,,,,,,,,,,,,,,,,,,,,,,,,,,,,,,,,,,,,,,,,,,,,,,52.345630300002085,52.35917390000032,52.35917390000032,57.315031900001486,space,4.939494599999307,,,,,,,,,,,,,,,,,,,,,,,,,,,,,,,,,,,,,,,,,,,,,,,,,,,sub-025,1,stroop_test,59.94589283642964,
test,blue,b,1.0,0.0,0.0,0.0,b,1.0,1.3137499000004027,,,,,,,,,,,,,,,,,,0.0,0.0,0.0,2.0,,,,,,,,,57.35165480000069,,,,,,,,,,,,,,,,,57.34635740000158,58.53000880000036,59.34459900000002,59.31519540000227,59.33468780000112,59.34459900000002,59.34459900000002,60.667748500000016,b,1.0,1.3137499000004027,,,,,,,,,,,,,,,,,,,,,,,,,,,,,,,,,,,,,,,sub-025,1,stroop_test,59.94589283642964,
test,yellow,g,1.0,1.0,1.0,0.0,g,1.0,1.4363482000007934,,,,,,,,,,,,,,,,,,0.0,1.0,1.0,1.0,,,,,,,,,60.68149249999988,,,,,,,,,,,,,,,,,60.66830360000313,60.78169810000327,61.58189520000087,61.56613010000001,61.56681390000085,61.58189520000087,61.58189520000087,63.03759140000329,g,1.0,1.4363482000007934,,,,,,,,,,,,,,,,,,,,,,,,,,,,,,,,,,,,,,,sub-025,1,stroop_test,59.94589283642964,
test,red,r,1.0,2.0,2.0,0.0,r,1.0,0.8674720999988494,,,,,,,,,,,,,,,,,,0.0,2.0,2.0,0.0,,,,,,,,,63.04979770000136,,,,,,,,,,,,,,,,,63.038136700000905,63.39972200000193,64.20055450000291,64.1857196000019,64.18669260000024,64.20055450000291,64.20055450000291,65.07163970000329,r,1.0,0.8674720999988494,,,,,,,,,,,,,,,,,,,,,,,,,,,,,,,,,,,,,,,sub-025,1,stroop_test,59.94589283642964,
test,yellow,g,1.0,3.0,0.0,1.0,g,1.0,1.3430339000005915,,,,,,,,,,,,,,,,,,1.0,0.0,3.0,1.0,,,,,,,,,65.08450270000321,,,,,,,,,,,,,,,,,65.07217020000098,65.43469790000017,66.23560580000049,66.22014400000262,66.22090410000237,66.23560580000049,66.23560580000049,67.588674300001,g,1.0,1.3430339000005915,,,,,,,,,,,,,,,,,,,,,,,,,,,,,,,,,,,,,,,sub-025,1,stroop_test,59.94589283642964,
test,red,r,1.0,4.0,1.0,1.0,r,1.0,1.0539657000008449,,,,,,,,,,,,,,,,,,1.0,1.0,4.0,0.0,,,,,,,,,67.60279500000252,,,,,,,,,,,,,,,,,67.58918750000157,68.8038833999999,69.60438890000296,69.58907850000105,69.58993650000048,69.60438890000296,69.60438890000296,70.67397520000304,r,1.0,1.0539657000008449,,,,,,,,,,,,,,,,,,,,,,,,,,,,,,,,,,,,,,,sub-025,1,stroop_test,59.94589283642964,
test,blue,b,1.0,5.0,2.0,1.0,b,1.0,0.8894450000007055,,,,,,,,,,,,,,,,,,1.0,2.0,5.0,2.0,,,,,,,,,70.68861370000013,,,,,,,,,,,,,,,,,70.67465260000245,70.78845320000255,71.58929050000006,71.5735674000025,71.57450770000287,71.58929050000006,71.58929050000006,72.49152430000322,b,1.0,0.8894450000007055,,,,,,,,,,,,,,,,,,,,,,,,,,,,,,,,,,,,,,,sub-025,1,stroop_test,59.94589283642964,
test,red,r,1.0,6.0,0.0,2.0,r,1.0,0.6903880999998364,,,,,,,,,,,,,,,,,,2.0,0.0,6.0,0.0,,,,,,,,,72.50645420000001,,,,,,,,,,,,,,,,,72.49205520000032,73.30694080000103,74.1075763000008,74.09212130000014,74.09290950000286,74.1075763000008,74.1075763000008,74.81041890000051,r,1.0,0.6903880999998364,,,,,,,,,,,,,,,,,,,,,,,,,,,,,,,,,,,,,,,sub-025,1,stroop_test,59.94589283642964,
test,blue,b,1.0,7.0,1.0,2.0,b,1.0,0.7523629999996047,,,,,,,,,,,,,,,,,,2.0,1.0,7.0,2.0,,,,,,,,,74.82453480000186,,,,,,,,,,,,,,,,,74.81093930000134,76.02556370000093,76.82606080000187,76.8111775000034,76.81213960000241,76.82606080000187,76.82606080000187,77.5953225000012,b,1.0,0.7523629999996047,,,,,,,,,,,,,,,,,,,,,,,,,,,,,,,,,,,,,,,sub-025,1,stroop_test,59.94589283642964,
test,yellow,g,1.0,8.0,2.0,2.0,g,1.0,0.887423399999534,,,,,,,,,,,,,,,,,,2.0,2.0,8.0,1.0,,,,,,,,,77.61023780000323,,,,,,,,,,,,,,,,,77.59600280000086,77.71045220000087,78.51039910000327,78.49524999999994,78.49624180000319,78.51039910000327,78.51039910000327,79.4133937000006,g,1.0,0.887423399999534,,,,,,,,,,,,,,,,,,,,,,,,,,,,,,,,,,,,,,,sub-025,1,stroop_test,59.94589283642964,
test,blue,b,1.0,9.0,0.0,3.0,b,1.0,0.9998030999995536,,,,,,,,,,,,,,,,,,3.0,0.0,9.0,2.0,,,,,,,,,79.42766130000018,,,,,,,,,,,,,,,,,79.4140432000022,79.77812320000157,80.57857830000285,80.56316080000033,80.56385330000194,80.57857830000285,80.57857830000285,81.58160090000092,b,1.0,0.9998030999995536,,,,,,,,,,,,,,,,,,,,,,,,,,,,,,,,,,,,,,,sub-025,1,stroop_test,59.94589283642964,
test,yellow,g,1.0,10.0,1.0,3.0,g,1.0,0.7909436000009009,,,,,,,,,,,,,,,,,,3.0,1.0,10.0,1.0,,,,,,,,,81.59587440000178,,,,,,,,,,,,,,,,,81.58213120000073,82.39655530000164,83.19719130000158,83.18222400000013,83.18321500000093,83.19719130000158,83.19719130000158,84.00008180000077,g,1.0,0.7909436000009009,,,,,,,,,,,,,,,,,,,,,,,,,,,,,,,,,,,,,,,sub-025,1,stroop_test,59.94589283642964,
test,red,r,1.0,11.0,2.0,3.0,r,1.0,0.8225297999997565,,,,,,,,,,,,,,,,,,3.0,2.0,11.0,0.0,,,,,,,,,84.01433280000128,,,,,,,,,,,,,,,,,84.00078060000305,84.36455209999986,85.16547510000237,85.15038180000192,85.15118700000312,85.16547510000237,85.16547510000237,86.00155030000315,r,1.0,0.8225297999997565,,,,,,,,,,,,,,,,,,,,,,,,,,,,,,,,,,,,,,,sub-025,1,stroop_test,59.94589283642964,
,,,,,,,,,,,,,,,,,,,,,,,,,,,,,,,,,,,,,,,,,,,,,,,,,,,,,,,,,,,,,,,,,,,,86.00182490000225,86.01590100000249,86.01590100000249,94.22393360000206,space,8.20316079999975,,,,,,,,,,,,,,,,,,,,,,,,,,,,,,,,sub-025,1,stroop_test,59.94589283642964,
,,,,0.0,0.0,0.0,,,,,gelb,yellow,g,1.0,g,1.0,1.8892808000018704,,,,,,,,,,,,,,0.0,0.0,0.0,11.0,,,,,94.24939230000018,,,,,,,,,,,,,,,,,94.24340530000336,95.03868409999995,95.849272200001,95.8241315000014,,,,,,,,,,,,,,,,95.84142229999998,95.849272200001,95.849272200001,97.74337180000292,g,1.0,1.8892808000018704,,97.76466040000014,97.77456500000336,98.7584358000022,,,,,,,,,,,,,,,,,,,,sub-025,1,stroop_test,59.94589283642964,
,,,,1.0,1.0,0.0,,,,,rot,blue,b,0.0,b,1.0,1.4674546999995073,,,,,,,,,,,,,,0.0,1.0,1.0,2.0,,,,,98.7745571000014,,,,,,,,,,,,,,,,,98.75903939999988,99.5587523000031,100.3613538999998,100.34380370000144,,,,,,,,,,,,,,,,100.35265390000131,100.3613538999998,100.3613538999998,101.84548530000028,b,1.0,1.4674546999995073,,101.8465939000016,101.86030750000282,102.84571680000226,102.86067350000305,,,,,,,,,,,,,,,,,,,sub-025,1,stroop_test,59.94589283642964,
,,,,2.0,2.0,0.0,,,,,gelb,blue,b,0.0,g,0.0,1.233233900002233,,,,,,,,,,,,,,0.0,2.0,2.0,9.0,,,,,102.86067350000305,,,,,,,,,,,,,,,,,102.84621830000106,103.66133919999992,104.46548320000149,104.45044180000332,,,,,,,,,,,,,,,,104.45739980000144,104.46548320000149,104.46548320000149,105.71496820000176,g,0.0,1.233233900002233,,105.73651000000244,105.75129780000134,106.73092030000043,,,,,,,,,,,,,,,,,,,,sub-025,1,stroop_test,59.94589283642964,
,,,,3.0,3.0,0.0,,,,,gelb,yellow,g,1.0,g,1.0,3.952956200002518,,,,,,,,,,,,,,0.0,3.0,3.0,10.0,,,,,106.74695730000168,,,,,,,,,,,,,,,,,106.73162349999984,107.91471210000236,108.71521660000144,108.6995541000033,,,,,,,,,,,,,,,,108.70074130000285,108.71521660000144,108.71521660000144,112.67050690000178,g,1.0,3.952956200002518,,112.67855060000149,112.68858700000057,113.68571440000233,,,,,,,,,,,,,,,,,,,,sub-025,1,stroop_test,59.94589283642964,
,,,,4.0,4.0,0.0,,,,,blau,blue,b,1.0,b,1.0,1.361206300000049,,,,,,,,,,,,,,0.0,4.0,4.0,5.0,,,,,113.7016521000005,,,,,,,,,,,,,,,,,113.68631540000206,113.78496520000044,114.58723280000048,114.57031830000052,,,,,,,,,,,,,,,,114.57901430000128,114.58723280000048,114.58723280000048,115.95534320000296,b,1.0,1.361206300000049,,115.95607490000113,115.97000190000108,116.95524550000118,116.97045190000064,,,,,,,,,,,,,,,,,,,sub-025,1,stroop_test,59.94589283642964,
,,,,5.0,5.0,0.0,,,,,blau,red,r,0.0,b,0.0,1.207224199999473,,,,,,,,,,,,,,0.0,5.0,5.0,4.0,,,,,116.97045190000064,,,,,,,,,,,,,,,,,116.95582750000176,117.07069110000155,117.871176800003,117.85581390000152,,,,,,,,,,,,,,,,117.85659120000128,117.871176800003,117.871176800003,119.09110110000256,b,0.0,1.207224199999473,,119.0994445000033,119.11018810000314,120.10665810000135,,,,,,,,,,,,,,,,,,,,sub-025,1,stroop_test,59.94589283642964,
,,,,6.0,6.0,0.0,,,,,rot,yellow,g,0.0,g,1.0,2.476951000000554,,,,,,,,,,,,,,0.0,6.0,6.0,3.0,,,,,120.12297180000314,,,,,,,,,,,,,,,,,120.10720260000016,120.2059685000022,121.01129870000295,120.99180660000276,,,,,,,,,,,,,,,,120.99927810000008,121.01129870000295,121.01129870000295,123.493953600002,g,1.0,2.476951000000554,,123.50211990000024,123.51467110000158,124.50957689999996,,,,,,,,,,,,,,,,,,,,sub-025,1,stroop_test,59.94589283642964,
,,,,7.0,7.0,0.0,,,,,rot,red,r,1.0,r,1.0,0.994756200001575,,,,,,,,,,,,,,0.0,7.0,7.0,0.0,,,,,124.52580670000316,,,,,,,,,,,,,,,,,124.51010400000088,125.69323360000271,126.49412060000031,126.47879760000068,,,,,,,,,,,,,,,,126.47971400000095,126.49412060000031,126.49412060000031,127.4969428000004,r,1.0,0.994756200001575,,127.49788400000034,127.5112532000021,128.49626050000006,128.5117480000008,,,,,,,,,,,,,,,,,,,sub-025,1,stroop_test,59.94589283642964,
,,,,8.0,8.0,0.0,,,,,blau,yellow,g,0.0,g,1.0,2.4358309999988705,,,,,,,,,,,,,,0.0,8.0,8.0,7.0,,,,,128.5117480000008,,,,,,,,,,,,,,,,,128.49668380000003,128.86201750000328,129.66258630000084,129.64699830000245,,,,,,,,,,,,,,,,129.65216970000256,129.66258630000084,129.66258630000084,132.10111340000003,g,1.0,2.4358309999988705,,132.10202700000082,132.11443190000136,133.10128070000064,133.1149163000009,,,,,,,,,,,,,,,,,,,sub-025,1,stroop_test,59.94589283642964,
,,,,9.0,9.0,0.0,,,,,blau,blue,b,1.0,b,1.0,1.8827319000010905,,,,,,,,,,,,,,0.0,9.0,9.0,6.0,,,,,133.1149163000009,,,,,,,,,,,,,,,,,133.10181580000062,133.91572799999994,134.71617570000308,134.7010635000006,,,,,,,,,,,,,,,,134.7023407000015,134.71617570000308,134.71617570000308,136.6039574000024,b,1.0,1.8827319000010905,,136.604949200002,136.61756700000117,137.60326440000065,137.61834780000208,,,,,,,,,,,,,,,,,,,sub-025,1,stroop_test,59.94589283642964,
,,,,10.0,10.0,0.0,,,,,rot,red,r,1.0,r,1.0,1.1380046999984188,,,,,,,,,,,,,,0.0,10.0,10.0,1.0,,,,,137.61834780000208,,,,,,,,,,,,,,,,,137.60381430000052,137.71827640000265,138.5205797000017,138.50405450000108,,,,,,,,,,,,,,,,138.51239300000088,138.5205797000017,138.5205797000017,139.67262790000314,r,1.0,1.1380046999984188,,139.6739028000011,139.68644340000174,140.6723140000031,140.68705240000054,,,,,,,,,,,,,,,,,,,sub-025,1,stroop_test,59.94589283642964,
,,,,11.0,11.0,0.0,,,,,gelb,red,r,0.0,r,1.0,1.4209625000003143,,,,,,,,,,,,,,0.0,11.0,11.0,8.0,,,,,140.68705240000054,,,,,,,,,,,,,,,,,140.67291570000089,141.0371606000008,141.83789100000286,141.8236315000031,,,,,,,,,,,,,,,,141.83026670000254,141.83789100000286,141.83789100000286,143.27432430000044,r,1.0,1.4209625000003143,,143.2750855000013,143.2890961000012,144.27420570000322,144.2895204000015,,,,,,,,,,,,,,,,,,,sub-025,1,stroop_test,59.94589283642964,
,,,,12.0,0.0,1.0,,,,,gelb,yellow,g,1.0,g,1.0,1.4746863999971538,,,,,,,,,,,,,,1.0,0.0,12.0,10.0,,,,,144.2895204000015,,,,,,,,,,,,,,,,,144.27465740000116,145.0736563999999,145.87390980000055,145.85922240000218,,,,,,,,,,,,,,,,145.860003400001,145.87390980000055,145.87390980000055,147.36081670000203,g,1.0,1.4746863999971538,,147.3616811000029,147.37490170000092,148.3603808000007,148.37547000000268,,,,,,,,,,,,,,,,,,,sub-025,1,stroop_test,59.94589283642964,
,,,,13.0,1.0,1.0,,,,,rot,red,r,1.0,r,1.0,1.2614098000012746,,,,,,,,,,,,,,1.0,1.0,13.0,0.0,,,,,148.37547000000268,,,,,,,,,,,,,,,,,148.36089520000314,148.47590870000204,149.2768849000022,149.26144540000314,,,,,,,,,,,,,,,,149.26889570000276,149.2768849000022,149.2768849000022,150.5460834000005,r,1.0,1.2614098000012746,,150.54694910000035,150.5605499000012,151.54635490000146,151.5611769000025,,,,,,,,,,,,,,,,,,,sub-025,1,stroop_test,59.94589283642964,
,,,,14.0,2.0,1.0,,,,,gelb,blue,b,0.0,b,1.0,1.4123784999974305,,,,,,,,,,,,,,1.0,2.0,14.0,9.0,,,,,151.5611769000025,,,,,,,,,,,,,,,,,151.54694790000212,152.7452637000024,153.54591000000073,153.5306418,,,,,,,,,,,,,,,,153.53674220000175,153.54591000000073,153.54591000000073,154.9660451000018,b,1.0,1.4123784999974305,,154.96684730000197,154.98039370000333,155.9659345,155.98097990000315,,,,,,,,,,,,,,,,,,,sub-025,1,stroop_test,59.94589283642964,
,,,,15.0,3.0,1.0,,,,,gelb,red,r,0.0,r,1.0,2.036706299997604,,,,,,,,,,,,,,1.0,3.0,15.0,8.0,,,,,155.98097990000315,,,,,,,,,,,,,,,,,155.9664530000009,156.78172690000065,157.582094100002,157.56650810000065,,,,,,,,,,,,,,,,157.56730080000125,157.582094100002,157.582094100002,159.63529820000258,r,1.0,2.036706299997604,,159.635970000003,159.650354100002,160.6357147000017,160.65098220000073,,,,,,,,,,,,,,,,,,,sub-025,1,stroop_test,59.94589283642964,
,,,,16.0,4.0,1.0,,,,,gelb,yellow,g,1.0,g,1.0,1.1368241000018315,,,,,,,,,,,,,,1.0,4.0,16.0,11.0,,,,,160.65098220000073,,,,,,,,,,,,,,,,,160.63641930000085,160.75112620000073,161.55162310000014,161.5358809999998,,,,,,,,,,,,,,,,161.53675310000108,161.55162310000014,161.55162310000014,162.70466230000238,g,1.0,1.1368241000018315,,162.70565400000123,162.71912110000267,163.70460690000257,163.71987870000157,,,,,,,,,,,,,,,,,,,sub-025,1,stroop_test,59.94589283642964,
,,,,17.0,5.0,1.0,,,,,rot,blue,b,0.0,b,1.0,1.5569369000004372,,,,,,,,,,,,,,1.0,5.0,17.0,2.0,,,,,163.71987870000157,,,,,,,,,,,,,,,,,163.70518840000295,163.81962740000017,164.62209820000135,164.6051557000028,,,,,,,,,,,,,,,,164.61196250000285,164.62209820000135,164.62209820000135,166.1901487000032,b,1.0,1.5569369000004372,,166.19094790000236,166.20480830000088,167.19016940000074,167.20556110000325,,,,,,,,,,,,,,,,,,,sub-025,1,stroop_test,59.94589283642964,
,,,,18.0,6.0,1.0,,,,,rot,yellow,g,0.0,g,1.0,1.592679399996996,,,,,,,,,,,,,,1.0,6.0,18.0,3.0,,,,,167.20556110000325,,,,,,,,,,,,,,,,,167.1907355000003,167.30539230000068,168.106147100003,168.0906900000009,,,,,,,,,,,,,,,,168.0917995000018,168.106147100003,168.106147100003,169.70954859999983,g,1.0,1.592679399996996,,169.71051010000156,169.72382650000145,170.7096139000023,170.72526070000094,,,,,,,,,,,,,,,,,,,sub-025,1,stroop_test,59.94589283642964,
,,,,19.0,7.0,1.0,,,,,blau,blue,b,1.0,b,1.0,1.2246020000020508,,,,,,,,,,,,,,1.0,7.0,19.0,6.0,,,,,170.72526070000094,,,,,,,,,,,,,,,,,170.71025480000026,170.82480159999977,171.6256766000006,171.60963880000054,,,,,,,,,,,,,,,,171.61488570000074,171.6256766000006,171.6256766000006,172.8619417000009,b,1.0,1.2246020000020508,,172.8629026000017,172.87610880000284,173.8618819000003,173.87709370000084,,,,,,,,,,,,,,,,,,,sub-025,1,stroop_test,59.94589283642964,
,,,,20.0,8.0,1.0,,,,,blau,yellow,g,0.0,g,1.0,2.4314335999988543,,,,,,,,,,,,,,1.0,8.0,20.0,7.0,,,,,173.87709370000084,,,,,,,,,,,,,,,,,173.8625204000018,173.97682840000198,174.77726880000046,174.76207140000042,,,,,,,,,,,,,,,,174.76295890000256,174.77726880000046,174.77726880000046,177.21468800000002,g,1.0,2.4314335999988543,,177.21560430000318,177.22919080000065,178.2148128000008,178.2299970000022,,,,,,,,,,,,,,,,,,,sub-025,1,stroop_test,59.94589283642964,
,,,,21.0,9.0,1.0,,,,,blau,blue,b,1.0,b,1.0,0.9481797000007646,,,,,,,,,,,,,,1.0,9.0,21.0,5.0,,,,,178.2299970000022,,,,,,,,,,,,,,,,,178.21537510000053,178.3298759999998,179.1307772,179.11492210000142,,,,,,,,,,,,,,,,179.1158092000005,179.1307772,179.1307772,180.08374040000126,b,1.0,0.9481797000007646,,180.08464860000095,180.09766260000106,181.08308460000265,181.098565100001,,,,,,,,,,,,,,,,,,,sub-025,1,stroop_test,59.94589283642964,
,,,,22.0,10.0,1.0,,,,,rot,red,r,1.0,r,1.0,0.8352250000025379,,,,,,,,,,,,,,1.0,10.0,22.0,1.0,,,,,181.098565100001,,,,,,,,,,,,,,,,,181.0836616000015,181.4486751000004,182.25396929999988,182.2337320000006,,,,,,,,,,,,,,,,182.24400530000275,182.25396929999988,182.25396929999988,183.1019320000014,r,1.0,0.8352250000025379,,183.10274870000285,183.11634870000125,184.1026874000017,184.1170736000022,,,,,,,,,,,,,,,,,,,sub-025,1,stroop_test,59.94589283642964,
,,,,23.0,11.0,1.0,,,,,blau,red,r,0.0,r,1.0,1.4311742999998387,,,,,,,,,,,,,,1.0,11.0,23.0,4.0,,,,,184.1170736000022,,,,,,,,,,,,,,,,,184.1032362000005,184.21734210000068,185.01780390000204,185.00252080000064,,,,,,,,,,,,,,,,185.00853450000068,185.01780390000204,185.01780390000204,186.4549178000016,r,1.0,1.4311742999998387,,186.45575250000184,186.46892420000225,187.4543577000004,187.46976020000147,,,,,,,,,,,,,,,,,,,sub-025,1,stroop_test,59.94589283642964,
,,,,,,,,,,,,,,,,,,,,,,,,,,,,,,,,,,,,,,,,,,,,,,,,,,,,,,,,,,,,,,,,,,,,,,,,,,,,,,,,,,,,,,,187.4545954000023,187.46976020000147,187.46976020000147,208.57012050000048,space,21.08969359999901,,,,,,,,,,,,,sub-025,1,stroop_test,59.94589283642964,
,,,,0.0,0.0,0.0,,,,,,,,,,,,,gelb,blue,b,0.0,b,1.0,1.3649736999977904,,,,,,,,,,0.0,0.0,0.0,9.0,208.6026748000004,,,,,,,,,,,,,,,,,208.59624090000216,208.68452660000185,209.48511020000296,209.4701142000013,,,,,,,,,,,,,,,,,,,,,,,,,,,,,,,,,,,209.47633500000305,209.48511020000296,209.48511020000296,210.85565900000077,b,1.0,1.3649736999977904,,,,,sub-025,1,stroop_test,59.94589283642964,
,,,,1.0,1.0,0.0,,,,,,,,,,,,,gelb,yellow,g,1.0,g,1.0,0.93897189999916,,,,,,,,,,0.0,1.0,1.0,10.0,210.8689491000005,,,,,,,,,,,,,,,,,210.85631860000285,212.06986830000096,212.87049950000076,212.8551883,,,,,,,,,,,,,,,,,,,,,,,,,,,,,,,,,,,212.85608649999995,212.87049950000076,212.87049950000076,213.824027900002,g,1.0,0.93897189999916,,,,,sub-025,1,stroop_test,59.94589283642964,
,,,,2.0,2.0,0.0,,,,,,,,,,,,,gelb,red,r,0.0,r,1.0,0.8511365000013029,,,,,,,,,,0.0,2.0,2.0,8.0,213.8378651000021,,,,,,,,,,,,,,,,,213.82490900000263,213.93797050000285,214.73841200000243,214.72299510000084,,,,,,,,,,,,,,,,,,,,,,,,,,,,,,,,,,,214.723879600002,214.73841200000243,214.73841200000243,215.59200390000117,r,1.0,0.8511365000013029,,,,,sub-025,1,stroop_test,59.94589283642964,
,,,,3.0,3.0,0.0,,,,,,,,,,,,,rot,red,r,1.0,r,1.0,0.8307978000011644,,,,,,,,,,0.0,3.0,3.0,0.0,215.60553580000123,,,,,,,,,,,,,,,,,215.5925919000001,216.4062979000009,217.20825660000264,217.19184920000043,,,,,,,,,,,,,,,,,,,,,,,,,,,,,,,,,,,217.19962090000263,217.20825660000264,217.20825660000264,218.04334230000316,r,1.0,0.8307978000011644,,,,,sub-025,1,stroop_test,59.94589283642964,
,,,,4.0,4.0,0.0,,,,,,,,,,,,,rot,blue,b,0.0,b,1.0,0.8201447000028566,,,,,,,,,,0.0,4.0,4.0,2.0,218.0572932000032,,,,,,,,,,,,,,,,,218.04397660000177,219.25817260000255,220.05874170000243,220.04387700000007,,,,,,,,,,,,,,,,,,,,,,,,,,,,,,,,,,,220.04471710000144,220.05874170000243,220.05874170000243,220.895093500003,b,1.0,0.8201447000028566,,,,,sub-025,1,stroop_test,59.94589283642964,
,,,,5.0,5.0,0.0,,,,,,,,,,,,,blau,blue,b,1.0,b,1.0,0.8280123000004096,,,,,,,,,,0.0,5.0,5.0,6.0,220.90918610000156,,,,,,,,,,,,,,,,,220.8958686000005,222.1104176000008,222.9107971000012,222.896090000002,,,,,,,,,,,,,,,,,,,,,,,,,,,,,,,,,,,222.9021747000006,222.9107971000012,222.9107971000012,223.7469904000027,b,1.0,0.8280123000004096,,,,,sub-025,1,stroop_test,59.94589283642964,
,,,,6.0,6.0,0.0,,,,,,,,,,,,,rot,red,r,1.0,r,1.0,0.7169579000001249,,,,,,,,,,0.0,6.0,6.0,1.0,223.76138020000144,,,,,,,,,,,,,,,,,223.7475685999998,224.56237200000032,225.3623428000028,225.34678650000205,,,,,,,,,,,,,,,,,,,,,,,,,,,,,,,,,,,225.35107900000003,225.3623428000028,225.3623428000028,226.0823023000012,r,1.0,0.7169579000001249,,,,,sub-025,1,stroop_test,59.94589283642964,
,,,,7.0,7.0,0.0,,,,,,,,,,,,,blau,red,r,0.0,r,1.0,1.452801200000977,,,,,,,,,,0.0,7.0,7.0,4.0,226.0961688000025,,,,,,,,,,,,,,,,,226.08295030000227,226.8968175000009,227.69735650000075,227.6824291000012,,,,,,,,,,,,,,,,,,,,,,,,,,,,,,,,,,,227.68922160000147,227.69735650000075,227.69735650000075,229.1675714000012,r,1.0,1.452801200000977,,,,,sub-025,1,stroop_test,59.94589283642964,
,,,,8.0,8.0,0.0,,,,,,,,,,,,,rot,yellow,g,0.0,g,1.0,1.5565461999976833,,,,,,,,,,0.0,8.0,8.0,3.0,229.1817888000005,,,,,,,,,,,,,,,,,229.1682060000021,229.53200720000316,230.3325552000024,230.3176549000018,,,,,,,,,,,,,,,,,,,,,,,,,,,,,,,,,,,230.32413129999983,230.3325552000024,230.3325552000024,231.903062100002,g,1.0,1.5565461999976833,,,,,sub-025,1,stroop_test,59.94589283642964,
,,,,9.0,9.0,0.0,,,,,,,,,,,,,blau,blue,b,1.0,b,1.0,1.3404327999996897,,,,,,,,,,0.0,9.0,9.0,5.0,231.9170361000033,,,,,,,,,,,,,,,,,231.90371779999987,232.71759210000164,233.51966050000192,233.5035061000017,,,,,,,,,,,,,,,,,,,,,,,,,,,,,,,,,,,233.5102246000024,233.51966050000192,233.51966050000192,234.87175000000207,b,1.0,1.3404327999996897,,,,,sub-025,1,stroop_test,59.94589283642964,
,,,,10.0,10.0,0.0,,,,,,,,,,,,,blau,yellow,g,0.0,g,1.0,0.8759202000001096,,,,,,,,,,0.0,10.0,10.0,7.0,234.88582660000247,,,,,,,,,,,,,,,,,234.87239610000324,235.68901929999996,236.5035670000034,236.48841600000011,,,,,,,,,,,,,,,,,,,,,,,,,,,,,,,,,,,236.48930770000152,236.5035670000034,236.5035670000034,237.3900513000008,g,1.0,0.8759202000001096,,,,,sub-025,1,stroop_test,59.94589283642964,
,,,,11.0,11.0,0.0,,,,,,,,,,,,,gelb,yellow,g,1.0,g,1.0,0.9239132999973664,,,,,,,,,,0.0,11.0,11.0,11.0,237.40390540000223,,,,,,,,,,,,,,,,,237.39067510000316,237.75452779999975,238.5559110000031,238.53965920000337,,,,,,,,,,,,,,,,,,,,,,,,,,,,,,,,,,,238.54562970000188,238.5559110000031,238.5559110000031,239.4916667000034,g,1.0,0.9239132999973664,,,,,sub-025,1,stroop_test,59.94589283642964,
,,,,12.0,0.0,1.0,,,,,,,,,,,,,blau,blue,b,1.0,b,1.0,0.9628650999984528,,,,,,,,,,1.0,0.0,12.0,5.0,239.5055441000004,,,,,,,,,,,,,,,,,239.49246610000048,239.85594810000111,240.6563821000018,240.64122150000185,,,,,,,,,,,,,,,,,,,,,,,,,,,,,,,,,,,240.64697640000304,240.6563821000018,240.6563821000018,241.6259914000002,b,1.0,0.9628650999984528,,,,,sub-025,1,stroop_test,59.94589283642964,
,,,,13.0,1.0,1.0,,,,,,,,,,,,,rot,yellow,g,0.0,g,1.0,1.1388418999995338,,,,,,,,,,1.0,1.0,13.0,3.0,241.6406019000024,,,,,,,,,,,,,,,,,241.62657030000264,241.740994900003,242.5409587000031,242.52615050000168,,,,,,,,,,,,,,,,,,,,,,,,,,,,,,,,,,,242.5328791000029,242.5409587000031,242.5409587000031,243.69462660000136,g,1.0,1.1388418999995338,,,,,sub-025,1,stroop_test,59.94589283642964,
,,,,14.0,2.0,1.0,,,,,,,,,,,,,blau,yellow,g,0.0,g,1.0,1.1684891000004427,,,,,,,,,,1.0,2.0,14.0,7.0,243.7085436000016,,,,,,,,,,,,,,,,,243.69521030000035,244.90950180000075,245.7110152000023,245.69460670000265,,,,,,,,,,,,,,,,,,,,,,,,,,,,,,,,,,,245.7016130000011,245.7110152000023,245.7110152000023,246.89632170000183,g,1.0,1.1684891000004427,,,,,sub-025,1,stroop_test,59.94589283642964,
,,,,15.0,3.0,1.0,,,,,,,,,,,,,rot,blue,b,0.0,b,1.0,1.366197600000305,,,,,,,,,,1.0,3.0,15.0,2.0,246.9109787000016,,,,,,,,,,,,,,,,,246.89711700000043,247.71164750000025,248.51304250000248,248.4971304999999,,,,,,,,,,,,,,,,,,,,,,,,,,,,,,,,,,,248.50440110000272,248.51304250000248,248.51304250000248,249.8822282000001,b,1.0,1.366197600000305,,,,,sub-025,1,stroop_test,59.94589283642964,
,,,,16.0,4.0,1.0,,,,,,,,,,,,,blau,blue,b,1.0,b,1.0,1.23221950000152,,,,,,,,,,1.0,4.0,16.0,6.0,249.89630490000127,,,,,,,,,,,,,,,,,249.8828424000021,249.9961426000009,250.79676520000064,250.78173360000076,,,,,,,,,,,,,,,,,,,,,,,,,,,,,,,,,,,250.78807390000293,250.79676520000064,250.79676520000064,252.03375790000064,b,1.0,1.23221950000152,,,,,sub-025,1,stroop_test,59.94589283642964,
,,,,17.0,5.0,1.0,,,,,,,,,,,,,blau,red,r,0.0,r,1.0,1.2312413999970886,,,,,,,,,,1.0,5.0,17.0,4.0,252.04771059999985,,,,,,,,,,,,,,,,,252.0345769000014,252.14767810000197,252.94838940000045,252.9329469000004,,,,,,,,,,,,,,,,,,,,,,,,,,,,,,,,,,,252.93393050000304,252.94838940000045,252.94838940000045,254.18520810000336,r,1.0,1.2312413999970886,,,,,sub-025,1,stroop_test,59.94589283642964,
,,,,18.0,6.0,1.0,,,,,,,,,,,,,rot,red,r,1.0,r,1.0,2.0800658999978623,,,,,,,,,,1.0,6.0,18.0,1.0,254.19910900000104,,,,,,,,,,,,,,,,,254.18584940000076,254.54929630000333,255.34999850000167,255.33494430000064,,,,,,,,,,,,,,,,,,,,,,,,,,,,,,,,,,,255.341385300002,255.34999850000167,255.34999850000167,257.4371621999999,r,1.0,2.0800658999978623,,,,,sub-025,1,stroop_test,59.94589283642964,
,,,,19.0,7.0,1.0,,,,,,,,,,,,,gelb,blue,b,0.0,b,1.0,1.4146592000033706,,,,,,,,,,1.0,7.0,19.0,9.0,257.4515055000011,,,,,,,,,,,,,,,,,257.43797690000065,258.65235750000284,259.4549904000014,259.43754620000254,,,,,,,,,,,,,,,,,,,,,,,,,,,,,,,,,,,259.44555850000324,259.4549904000014,259.4549904000014,260.8732974000013,b,1.0,1.4146592000033706,,,,,sub-025,1,stroop_test,59.94589283642964,
,,,,20.0,8.0,1.0,,,,,,,,,,,,,gelb,yellow,g,1.0,g,1.0,1.36091099999976,,,,,,,,,,1.0,8.0,20.0,10.0,260.88729500000045,,,,,,,,,,,,,,,,,260.8738768000003,262.08839960000114,262.88882730000114,262.8731383000013,,,,,,,,,,,,,,,,,,,,,,,,,,,,,,,,,,,262.8738153000013,262.88882730000114,262.88882730000114,264.25945480000155,g,1.0,1.36091099999976,,,,,sub-025,1,stroop_test,59.94589283642964,
,,,,21.0,9.0,1.0,,,,,,,,,,,,,gelb,red,r,0.0,r,1.0,1.1359971999991103,,,,,,,,,,1.0,9.0,21.0,8.0,264.2727401000011,,,,,,,,,,,,,,,,,264.26072540000314,265.0736467000024,265.87383970000155,265.8586477000026,,,,,,,,,,,,,,,,,,,,,,,,,,,,,,,,,,,265.8597096000012,265.87383970000155,265.87383970000155,267.026933000001,r,1.0,1.1359971999991103,,,,,sub-025,1,stroop_test,59.94589283642964,
,,,,22.0,10.0,1.0,,,,,,,,,,,,,rot,red,r,1.0,r,1.0,1.707312099999399,,,,,,,,,,1.0,10.0,22.0,0.0,267.0417128000008,,,,,,,,,,,,,,,,,267.0276438000001,267.1413495000015,267.9420061000019,267.92692460000035,,,,,,,,,,,,,,,,,,,,,,,,,,,,,,,,,,,267.93356180000046,267.9420061000019,267.9420061000019,269.6626537000011,r,1.0,1.707312099999399,,,,,sub-025,1,stroop_test,59.94589283642964,
,,,,23.0,11.0,1.0,,,,,,,,,,,,,gelb,yellow,g,1.0,g,1.0,1.5725015999996683,,,,,,,,,,1.0,11.0,23.0,11.0,269.67659170000115,,,,,,,,,,,,,,,,,269.6633112000018,269.7767175000008,270.5772133999999,270.5616743999999,,,,,,,,,,,,,,,,,,,,,,,,,,,,,,,,,,,270.56902640000044,270.5772133999999,270.5772133999999,272.16444850000335,g,1.0,1.5725015999996683,,,,,sub-025,1,stroop_test,59.94589283642964,
,,,,24.0,0.0,2.0,,,,,,,,,,,,,blau,blue,b,1.0,b,1.0,1.070257700001093,,,,,,,,,,2.0,0.0,24.0,5.0,272.1782856000027,,,,,,,,,,,,,,,,,272.1650203999998,272.9789783000015,273.7795346000021,273.7641730000032,,,,,,,,,,,,,,,,,,,,,,,,,,,,,,,,,,,273.7700165000024,273.7795346000021,273.7795346000021,274.8654161000013,b,1.0,1.070257700001093,,,,,sub-025,1,stroop_test,59.94589283642964,
,,,,25.0,1.0,2.0,,,,,,,,,,,,,blau,yellow,g,0.0,g,1.0,1.1380405000018072,,,,,,,,,,2.0,1.0,25.0,7.0,274.87997440000254,,,,,,,,,,,,,,,,,274.8659671000023,275.23045060000004,276.03122780000194,276.01561850000144,,,,,,,,,,,,,,,,,,,,,,,,,,,,,,,,,,,276.0165803000018,276.03122780000194,276.03122780000194,277.18394790000093,g,1.0,1.1380405000018072,,,,,sub-025,1,stroop_test,59.94589283642964,
,,,,26.0,2.0,2.0,,,,,,,,,,,,,gelb,yellow,g,1.0,g,1.0,0.9896459000010508,,,,,,,,,,2.0,2.0,26.0,11.0,277.19827799999985,,,,,,,,,,,,,,,,,277.18456960000185,277.54883370000243,278.3500699000033,278.33393050000086,,,,,,,,,,,,,,,,,,,,,,,,,,,,,,,,,,,278.3413958000019,278.3500699000033,278.3500699000033,279.35244890000104,g,1.0,0.9896459000010508,,,,,sub-025,1,stroop_test,59.94589283642964,
,,,,27.0,3.0,2.0,,,,,,,,,,,,,gelb,red,r,0.0,r,1.0,0.9821961999987252,,,,,,,,,,2.0,3.0,27.0,8.0,279.3665645000001,,,,,,,,,,,,,,,,,279.3529804000027,280.1671030000034,280.9677174000026,280.9533291000007,,,,,,,,,,,,,,,,,,,,,,,,,,,,,,,,,,,280.9542641000007,280.9677174000026,280.9677174000026,281.954744900002,r,1.0,0.9821961999987252,,,,,sub-025,1,stroop_test,59.94589283642964,
,,,,28.0,4.0,2.0,,,,,,,,,,,,,rot,blue,b,0.0,b,1.0,1.137993299998925,,,,,,,,,,2.0,4.0,28.0,2.0,281.96850280000217,,,,,,,,,,,,,,,,,281.95567160000064,282.3191132000029,283.1211352999999,283.10536360000333,,,,,,,,,,,,,,,,,,,,,,,,,,,,,,,,,,,283.11214140000084,283.1211352999999,283.1211352999999,284.2726565000012,b,1.0,1.137993299998925,,,,,sub-025,1,stroop_test,59.94589283642964,
,,,,29.0,5.0,2.0,,,,,,,,,,,,,rot,yellow,g,0.0,g,1.0,1.1025248999976611,,,,,,,,,,2.0,5.0,29.0,3.0,284.2865429000012,,,,,,,,,,,,,,,,,284.2732253000031,284.3867031000009,285.18721730000107,285.1723407999998,,,,,,,,,,,,,,,,,,,,,,,,,,,,,,,,,,,285.1731698000003,285.18721730000107,285.18721730000107,286.3065723,g,1.0,1.1025248999976611,,,,,sub-025,1,stroop_test,59.94589283642964,
,,,,30.0,6.0,2.0,,,,,,,,,,,,,blau,blue,b,1.0,b,1.0,1.0276321999990614,,,,,,,,,,2.0,6.0,30.0,6.0,286.32160790000125,,,,,,,,,,,,,,,,,286.307192100001,287.1218892000033,287.92267340000035,287.90742930000124,,,,,,,,,,,,,,,,,,,,,,,,,,,,,,,,,,,287.9134208000032,287.92267340000035,287.92267340000035,288.959166800003,b,1.0,1.0276321999990614,,,,,sub-025,1,stroop_test,59.94589283642964,
,,,,31.0,7.0,2.0,,,,,,,,,,,,,blau,red,r,0.0,r,1.0,0.9656783000027644,,,,,,,,,,2.0,7.0,31.0,4.0,288.9732127000025,,,,,,,,,,,,,,,,,288.9598075000031,289.7738120000031,290.57456490000186,290.55915200000163,,,,,,,,,,,,,,,,,,,,,,,,,,,,,,,,,,,290.5599174000017,290.57456490000186,290.57456490000186,291.5446024000012,r,1.0,0.9656783000027644,,,,,sub-025,1,stroop_test,59.94589283642964,
,,,,32.0,8.0,2.0,,,,,,,,,,,,,gelb,yellow,g,1.0,g,1.0,1.3399181999993743,,,,,,,,,,2.0,8.0,32.0,10.0,291.55871740000293,,,,,,,,,,,,,,,,,291.54518870000175,292.7590440000022,293.5598198000007,293.5447987000007,,,,,,,,,,,,,,,,,,,,,,,,,,,,,,,,,,,293.5520718000007,293.5598198000007,293.5598198000007,294.91296120000334,g,1.0,1.3399181999993743,,,,,sub-025,1,stroop_test,59.94589283642964,
,,,,33.0,9.0,2.0,,,,,,,,,,,,,rot,red,r,1.0,r,1.0,1.3202294999973674,,,,,,,,,,2.0,9.0,33.0,0.0,294.9274854000032,,,,,,,,,,,,,,,,,294.9138635000017,295.7280983000019,296.529608300003,296.5135121000021,,,,,,,,,,,,,,,,,,,,,,,,,,,,,,,,,,,296.5208274000033,296.529608300003,296.529608300003,297.86443990000043,r,1.0,1.3202294999973674,,,,,sub-025,1,stroop_test,59.94589283642964,
,,,,34.0,10.0,2.0,,,,,,,,,,,,,rot,red,r,1.0,r,1.0,0.86911709999913,,,,,,,,,,2.0,10.0,34.0,1.0,297.87922470000194,,,,,,,,,,,,,,,,,297.8649146000025,298.6798884000018,299.4806783000022,299.4651975000015,,,,,,,,,,,,,,,,,,,,,,,,,,,,,,,,,,,299.4658303000033,299.4806783000022,299.4806783000022,300.36636830000134,r,1.0,0.86911709999913,,,,,sub-025,1,stroop_test,59.94589283642964,
,,,,35.0,11.0,2.0,,,,,,,,,,,,,gelb,blue,b,0.0,b,1.0,1.6474245999997947,,,,,,,,,,2.0,11.0,35.0,9.0,300.38117030000285,,,,,,,,,,,,,,,,,300.3669813000015,300.4811206000013,301.2821397000007,301.2659961999998,,,,,,,,,,,,,,,,,,,,,,,,,,,,,,,,,,,301.271897300001,301.2821397000007,301.2821397000007,302.93492900000274,b,1.0,1.6474245999997947,,,,,sub-025,1,stroop_test,59.94589283642964,
,,,,36.0,0.0,3.0,,,,,,,,,,,,,blau,yellow,g,0.0,g,1.0,1.26851539999916,,,,,,,,,,3.0,0.0,36.0,7.0,302.9493199000026,,,,,,,,,,,,,,,,,302.9352773999999,304.15049550000185,304.95112820000213,304.9355585000012,,,,,,,,,,,,,,,,,,,,,,,,,,,,,,,,,,,304.9417484000005,304.95112820000213,304.95112820000213,306.2241485000013,g,1.0,1.26851539999916,,,,,sub-025,1,stroop_test,59.94589283642964,
,,,,37.0,1.0,3.0,,,,,,,,,,,,,rot,red,r,1.0,r,1.0,1.0498358999975608,,,,,,,,,,3.0,1.0,37.0,0.0,306.23554050000166,,,,,,,,,,,,,,,,,306.2247378000029,307.4363279999998,308.2406728000024,308.2213058000016,,,,,,,,,,,,,,,,,,,,,,,,,,,,,,,,,,,308.2281384000016,308.2406728000024,308.2406728000024,309.30622510000103,r,1.0,1.0498358999975608,,,,,sub-025,1,stroop_test,59.94589283642964,
,,,,38.0,2.0,3.0,,,,,,,,,,,,,rot,yellow,g,0.0,g,1.0,0.9476767999985896,,,,,,,,,,3.0,2.0,38.0,3.0,309.32080260000293,,,,,,,,,,,,,,,,,309.30696140000146,310.52148769999985,311.3220797000031,311.3067385000031,,,,,,,,,,,,,,,,,,,,,,,,,,,,,,,,,,,311.30743110000185,311.3220797000031,311.3220797000031,312.2752349000002,g,1.0,0.9476767999985896,,,,,sub-025,1,stroop_test,59.94589283642964,
,,,,39.0,3.0,3.0,,,,,,,,,,,,,rot,blue,b,0.0,b,1.0,0.9389706999972988,,,,,,,,,,3.0,3.0,39.0,2.0,312.289444500002,,,,,,,,,,,,,,,,,312.2761132000014,312.3896542000002,313.19039820000035,313.17471090000254,,,,,,,,,,,,,,,,,,,,,,,,,,,,,,,,,,,313.1754523000018,313.19039820000035,313.19039820000035,314.1431447000032,b,1.0,0.9389706999972988,,,,,sub-025,1,stroop_test,59.94589283642964,
,,,,40.0,4.0,3.0,,,,,,,,,,,,,blau,red,r,0.0,r,1.0,1.430748599999788,,,,,,,,,,3.0,4.0,40.0,4.0,314.1575034000016,,,,,,,,,,,,,,,,,314.1437001000013,315.35830230000283,316.16002720000324,316.1436031000012,,,,,,,,,,,,,,,,,,,,,,,,,,,,,,,,,,,316.1510434000011,316.16002720000324,316.16002720000324,317.59543889999986,r,1.0,1.430748599999788,,,,,sub-025,1,stroop_test,59.94589283642964,
,,,,41.0,5.0,3.0,,,,,,,,,,,,,gelb,yellow,g,1.0,g,1.0,1.109202300001925,,,,,,,,,,3.0,5.0,41.0,11.0,317.60976970000047,,,,,,,,,,,,,,,,,317.5960122000033,318.4103560000003,319.2107735000027,319.19565290000173,,,,,,,,,,,,,,,,,,,,,,,,,,,,,,,,,,,319.20218840000234,319.2107735000027,319.2107735000027,320.3303674000017,g,1.0,1.109202300001925,,,,,sub-025,1,stroop_test,59.94589283642964,
,,,,42.0,6.0,3.0,,,,,,,,,,,,,blau,blue,b,1.0,b,1.0,0.9045060999997075,,,,,,,,,,3.0,6.0,42.0,5.0,320.3448750000025,,,,,,,,,,,,,,,,,320.33080100000006,320.44517100000303,321.24564170000303,321.2306552000009,,,,,,,,,,,,,,,,,,,,,,,,,,,,,,,,,,,321.236821100003,321.24564170000303,321.24564170000303,322.1652009999998,b,1.0,0.9045060999997075,,,,,sub-025,1,stroop_test,59.94589283642964,
,,,,43.0,7.0,3.0,,,,,,,,,,,,,rot,red,r,1.0,r,1.0,0.8892321000021184,,,,,,,,,,3.0,7.0,43.0,1.0,322.1796566000012,,,,,,,,,,,,,,,,,322.165823000003,322.529954200003,323.33071740000014,323.31512160000057,,,,,,,,,,,,,,,,,,,,,,,,,,,,,,,,,,,323.321418800002,323.33071740000014,323.33071740000014,324.233062000003,r,1.0,0.8892321000021184,,,,,sub-025,1,stroop_test,59.94589283642964,
,,,,44.0,8.0,3.0,,,,,,,,,,,,,gelb,blue,b,0.0,b,1.0,1.3958930000007967,,,,,,,,,,3.0,8.0,44.0,9.0,324.24787170000127,,,,,,,,,,,,,,,,,324.2336740000028,325.43211599999995,326.23389790000147,326.2174292000018,,,,,,,,,,,,,,,,,,,,,,,,,,,,,,,,,,,326.2235150000015,326.23389790000147,326.23389790000147,327.6365673,b,1.0,1.3958930000007967,,,,,sub-025,1,stroop_test,59.94589283642964,
,,,,45.0,9.0,3.0,,,,,,,,,,,,,gelb,yellow,g,1.0,g,1.0,1.04892800000016,,,,,,,,,,3.0,9.0,45.0,10.0,327.6500116000025,,,,,,,,,,,,,,,,,327.63762230000066,327.7500876000013,328.5506552000006,328.5362318000007,,,,,,,,,,,,,,,,,,,,,,,,,,,,,,,,,,,328.5371333000003,328.5506552000006,328.5506552000006,329.6043067999999,g,1.0,1.04892800000016,,,,,sub-025,1,stroop_test,59.94589283642964,
,,,,46.0,10.0,3.0,,,,,,,,,,,,,gelb,red,r,0.0,r,1.0,1.2317292000007,,,,,,,,,,3.0,10.0,46.0,8.0,329.6179815000032,,,,,,,,,,,,,,,,,329.6049731000021,329.7183795000019,330.5187784000009,330.50306190000265,,,,,,,,,,,,,,,,,,,,,,,,,,,,,,,,,,,330.5038764000019,330.5187784000009,330.5187784000009,331.75578430000314,r,1.0,1.2317292000007,,,,,sub-025,1,stroop_test,59.94589283642964,
,,,,47.0,11.0,3.0,,,,,,,,,,,,,blau,blue,b,1.0,b,1.0,0.8975523999979487,,,,,,,,,,3.0,11.0,47.0,6.0,331.7695053000025,,,,,,,,,,,,,,,,,331.75634010000067,331.8700456000006,332.6719589000022,332.65501900000163,,,,,,,,,,,,,,,,,,,,,,,,,,,,,,,,,,,332.6625406000021,332.6719589000022,332.6719589000022,333.57371550000244,b,1.0,0.8975523999979487,,,,,sub-025,1,stroop_test,59.94589283642964,
,,,,48.0,0.0,4.0,,,,,,,,,,,,,blau,blue,b,1.0,b,1.0,0.8226060000015423,,,,,,,,,,4.0,0.0,48.0,5.0,333.5874068000012,,,,,,,,,,,,,,,,,333.5743962000015,333.687586,334.488097700003,334.4728869999999,,,,,,,,,,,,,,,,,,,,,,,,,,,,,,,,,,,334.4737571000005,334.488097700003,334.488097700003,335.325466600003,b,1.0,0.8226060000015423,,,,,sub-025,1,stroop_test,59.94589283642964,
,,,,49.0,1.0,4.0,,,,,,,,,,,,,gelb,blue,b,0.0,b,1.0,1.0994943999976383,,,,,,,,,,4.0,1.0,49.0,9.0,335.33863500000007,,,,,,,,,,,,,,,,,335.32633180000266,336.5395970999998,337.34034330000213,337.32474090000323,,,,,,,,,,,,,,,,,,,,,,,,,,,,,,,,,,,337.33049949999986,337.34034330000213,337.34034330000213,338.44389180000144,b,1.0,1.0994943999976383,,,,,sub-025,1,stroop_test,59.94589283642964,
,,,,50.0,2.0,4.0,,,,,,,,,,,,,rot,yellow,g,0.0,g,1.0,1.8405194999977537,,,,,,,,,,4.0,2.0,50.0,3.0,338.45767190000333,,,,,,,,,,,,,,,,,338.44486099999995,338.5575600000011,339.3598606000014,339.34304880000127,,,,,,,,,,,,,,,,,,,,,,,,,,,,,,,,,,,339.35077620000084,339.3598606000014,339.3598606000014,341.21229830000084,g,1.0,1.8405194999977537,,,,,sub-025,1,stroop_test,59.94589283642964,
,,,,51.0,3.0,4.0,,,,,,,,,,,,,blau,yellow,g,0.0,g,1.0,1.0330042999994475,,,,,,,,,,4.0,3.0,51.0,7.0,341.2262065000032,,,,,,,,,,,,,,,,,341.2129442000005,341.57632990000275,342.3771127,342.36179950000223,,,,,,,,,,,,,,,,,,,,,,,,,,,,,,,,,,,342.3678140000011,342.3771127,342.3771127,343.41416220000247,g,1.0,1.0330042999994475,,,,,sub-025,1,stroop_test,59.94589283642964,
,,,,52.0,4.0,4.0,,,,,,,,,,,,,blau,red,r,0.0,r,1.0,1.1913846999996167,,,,,,,,,,4.0,4.0,52.0,4.0,343.42760980000094,,,,,,,,,,,,,,,,,343.4147999000015,344.6285054,345.42910920000213,345.4140395000031,,,,,,,,,,,,,,,,,,,,,,,,,,,,,,,,,,,345.4147681000032,345.42910920000213,345.42910920000213,346.6327244000022,r,1.0,1.1913846999996167,,,,,sub-025,1,stroop_test,59.94589283642964,
,,,,53.0,5.0,4.0,,,,,,,,,,,,,rot,red,r,1.0,r,1.0,0.939679700000852,,,,,,,,,,4.0,5.0,53.0,1.0,346.64681960000235,,,,,,,,,,,,,,,,,346.6335884,347.44714990000284,348.25005450000026,348.23265580000225,,,,,,,,,,,,,,,,,,,,,,,,,,,,,,,,,,,348.2395698,348.25005450000026,348.25005450000026,349.2007502000015,r,1.0,0.939679700000852,,,,,sub-025,1,stroop_test,59.94589283642964,
,,,,54.0,6.0,4.0,,,,,,,,,,,,,gelb,red,r,0.0,r,1.0,1.2348697000015818,,,,,,,,,,4.0,6.0,54.0,8.0,349.2149952,,,,,,,,,,,,,,,,,349.2013633000024,349.31529280000177,350.11567450000075,350.1004993000024,,,,,,,,,,,,,,,,,,,,,,,,,,,,,,,,,,,350.106910100003,350.11567450000075,350.11567450000075,351.35273700000107,r,1.0,1.2348697000015818,,,,,sub-025,1,stroop_test,59.94589283642964,
,,,,55.0,7.0,4.0,,,,,,,,,,,,,rot,blue,b,0.0,b,1.0,0.972532699997828,,,,,,,,,,4.0,7.0,55.0,2.0,351.3667310000019,,,,,,,,,,,,,,,,,351.35328030000164,352.16730590000225,352.96754839999994,352.952342200002,,,,,,,,,,,,,,,,,,,,,,,,,,,,,,,,,,,352.9598919000018,352.96754839999994,352.96754839999994,353.9542674000004,b,1.0,0.972532699997828,,,,,sub-025,1,stroop_test,59.94589283642964,
,,,,56.0,8.0,4.0,,,,,,,,,,,,,gelb,yellow,g,1.0,g,1.0,0.9907469999998284,,,,,,,,,,4.0,8.0,56.0,11.0,353.9684386000008,,,,,,,,,,,,,,,,,353.95486730000266,355.16904270000305,355.97020220000195,355.9542137000026,,,,,,,,,,,,,,,,,,,,,,,,,,,,,,,,,,,355.959701900003,355.97020220000195,355.97020220000195,356.9733763000004,g,1.0,0.9907469999998284,,,,,sub-025,1,stroop_test,59.94589283642964,
,,,,57.0,9.0,4.0,,,,,,,,,,,,,gelb,yellow,g,1.0,g,1.0,0.9923287000019628,,,,,,,,,,4.0,9.0,57.0,10.0,356.9870783000006,,,,,,,,,,,,,,,,,356.9743343000009,357.33741870000085,358.1378319000032,358.1229980000025,,,,,,,,,,,,,,,,,,,,,,,,,,,,,,,,,,,358.1238102000025,358.1378319000032,358.1378319000032,359.1412584999998,g,1.0,0.9923287000019628,,,,,sub-025,1,stroop_test,59.94589283642964,
,,,,58.0,10.0,4.0,,,,,,,,,,,,,blau,blue,b,1.0,b,1.0,0.8607403999994858,,,,,,,,,,4.0,10.0,58.0,6.0,359.1554012000015,,,,,,,,,,,,,,,,,359.14185120000184,359.4890762000032,360.289976,360.2739646000009,,,,,,,,,,,,,,,,,,,,,,,,,,,,,,,,,,,360.2802580000025,360.289976,360.289976,361.1591397000011,b,1.0,0.8607403999994858,,,,,sub-025,1,stroop_test,59.94589283642964,
,,,,59.0,11.0,4.0,,,,,,,,,,,,,rot,red,r,1.0,r,1.0,0.8840945000010834,,,,,,,,,,4.0,11.0,59.0,0.0,361.173340100002,,,,,,,,,,,,,,,,,361.1597948000017,361.273441100002,362.0759179000015,362.0594297000025,,,,,,,,,,,,,,,,,,,,,,,,,,,,,,,,,,,362.066503500002,362.0759179000015,362.0759179000015,362.9768601000033,r,1.0,0.8840945000010834,,,,,sub-025,1,stroop_test,59.94589283642964,
,,,,60.0,0.0,5.0,,,,,,,,,,,,,gelb,red,r,0.0,r,1.0,0.9392647000022408,,,,,,,,,,5.0,0.0,60.0,8.0,362.9911530999998,,,,,,,,,,,,,,,,,362.9775131000024,363.3414475999998,364.1420824000015,364.1269451000008,,,,,,,,,,,,,,,,,,,,,,,,,,,,,,,,,,,364.1345492,364.1420824000015,364.1420824000015,365.0948900000003,r,1.0,0.9392647000022408,,,,,sub-025,1,stroop_test,59.94589283642964,
,,,,61.0,1.0,5.0,,,,,,,,,,,,,rot,blue,b,0.0,b,1.0,1.0384264000022083,,,,,,,,,,5.0,1.0,61.0,2.0,365.1097488000014,,,,,,,,,,,,,,,,,365.095570700003,365.9101289000028,366.7121901999999,366.6953889000033,,,,,,,,,,,,,,,,,,,,,,,,,,,,,,,,,,,366.7014329000013,366.7121901999999,366.7121901999999,367.7638607000008,b,1.0,1.0384264000022083,,,,,sub-025,1,stroop_test,59.94589283642964,
,,,,62.0,2.0,5.0,,,,,,,,,,,,,blau,blue,b,1.0,b,1.0,0.8215361999973538,,,,,,,,,,5.0,2.0,62.0,5.0,367.7778571000017,,,,,,,,,,,,,,,,,367.76457350000055,367.8783645000003,368.6788713000024,368.6634945000005,,,,,,,,,,,,,,,,,,,,,,,,,,,,,,,,,,,368.6695883000029,368.6788713000024,368.6788713000024,369.5147127000018,b,1.0,0.8215361999973538,,,,,sub-025,1,stroop_test,59.94589283642964,
,,,,63.0,3.0,5.0,,,,,,,,,,,,,rot,yellow,g,0.0,g,1.0,0.9506885000009788,,,,,,,,,,5.0,3.0,63.0,3.0,369.52904910000143,,,,,,,,,,,,,,,,,369.5154351000019,369.8794868000005,370.6799987000013,370.66508460000114,,,,,,,,,,,,,,,,,,,,,,,,,,,,,,,,,,,370.6714665,370.6799987000013,370.6799987000013,371.6339528000026,g,1.0,0.9506885000009788,,,,,sub-025,1,stroop_test,59.94589283642964,
,,,,64.0,4.0,5.0,,,,,,,,,,,,,gelb,yellow,g,1.0,g,1.0,0.9000332999967213,,,,,,,,,,5.0,4.0,64.0,11.0,371.6472566000011,,,,,,,,,,,,,,,,,371.63474270000006,372.8482239000005,373.6505164000009,373.6337155000001,,,,,,,,,,,,,,,,,,,,,,,,,,,,,,,,,,,373.64056210000126,373.6505164000009,373.6505164000009,374.5532305000015,g,1.0,0.9000332999967213,,,,,sub-025,1,stroop_test,59.94589283642964,
,,,,65.0,5.0,5.0,,,,,,,,,,,,,rot,red,r,1.0,r,1.0,1.163904500001081,,,,,,,,,,5.0,5.0,65.0,1.0,374.56599130000177,,,,,,,,,,,,,,,,,374.5540987000022,374.9165509000013,375.71700150000106,375.7011630000016,,,,,,,,,,,,,,,,,,,,,,,,,,,,,,,,,,,375.7083499,375.71700150000106,375.71700150000106,376.8865608000015,r,1.0,1.163904500001081,,,,,sub-025,1,stroop_test,59.94589283642964,
,,,,66.0,6.0,5.0,,,,,,,,,,,,,rot,red,r,1.0,r,1.0,1.2383257999972557,,,,,,,,,,5.0,6.0,66.0,0.0,376.9008498000003,,,,,,,,,,,,,,,,,376.887187100001,377.0012781000005,377.80151390000174,377.786524500003,,,,,,,,,,,,,,,,,,,,,,,,,,,,,,,,,,,377.7874194000033,377.80151390000174,377.80151390000174,379.0559953000011,r,1.0,1.2383257999972557,,,,,sub-025,1,stroop_test,59.94589283642964,
,,,,67.0,7.0,5.0,,,,,,,,,,,,,blau,blue,b,1.0,b,1.0,0.970415799998591,,,,,,,,,,5.0,7.0,67.0,6.0,379.0694550000008,,,,,,,,,,,,,,,,,379.05657970000175,379.4199493000015,380.2196784000007,380.20459910000136,,,,,,,,,,,,,,,,,,,,,,,,,,,,,,,,,,,380.2096765000024,380.2196784000007,380.2196784000007,381.2062330000008,b,1.0,0.970415799998591,,,,,sub-025,1,stroop_test,59.94589283642964,
,,,,68.0,8.0,5.0,,,,,,,,,,,,,blau,yellow,g,0.0,g,1.0,1.3588420999985829,,,,,,,,,,5.0,8.0,68.0,7.0,381.2207794000024,,,,,,,,,,,,,,,,,381.2068634000025,381.5710331000009,382.37137890000304,382.3562329000015,,,,,,,,,,,,,,,,,,,,,,,,,,,,,,,,,,,382.3570491999999,382.37137890000304,382.37137890000304,383.741453300001,g,1.0,1.3588420999985829,,,,,sub-025,1,stroop_test,59.94589283642964,
,,,,69.0,9.0,5.0,,,,,,,,,,,,,gelb,yellow,g,1.0,g,1.0,1.0542099000012968,,,,,,,,,,5.0,9.0,69.0,10.0,383.7557009000011,,,,,,,,,,,,,,,,,383.7422262,383.8558703000017,384.6563378000028,384.6414963000025,,,,,,,,,,,,,,,,,,,,,,,,,,,,,,,,,,,384.6476053000006,384.6563378000028,384.6563378000028,385.7263216000029,g,1.0,1.0542099000012968,,,,,sub-025,1,stroop_test,59.94589283642964,
,,,,70.0,10.0,5.0,,,,,,,,,,,,,gelb,blue,b,0.0,b,1.0,0.8092099000023154,,,,,,,,,,5.0,10.0,70.0,9.0,385.7403048000015,,,,,,,,,,,,,,,,,385.7269675000025,386.5407841000015,387.34139360000336,387.3261770000026,,,,,,,,,,,,,,,,,,,,,,,,,,,,,,,,,,,387.327006800002,387.34139360000336,387.34139360000336,388.1614105000008,b,1.0,0.8092099000023154,,,,,sub-025,1,stroop_test,59.94589283642964,
,,,,71.0,11.0,5.0,,,,,,,,,,,,,blau,red,r,0.0,r,1.0,0.8648861000001489,,,,,,,,,,5.0,11.0,71.0,4.0,388.17532760000176,,,,,,,,,,,,,,,,,388.1619862000007,388.525690100003,389.326186600003,389.3110556000029,,,,,,,,,,,,,,,,,,,,,,,,,,,,,,,,,,,389.3161328000024,389.326186600003,389.326186600003,390.19625930000257,r,1.0,0.8648861000001489,,,,,sub-025,1,stroop_test,59.94589283642964,
,,,,72.0,0.0,6.0,,,,,,,,,,,,,blau,red,r,0.0,r,1.0,1.098990500002401,,,,,,,,,,6.0,0.0,72.0,4.0,390.2103277000024,,,,,,,,,,,,,,,,,390.19699030000265,390.5603402000015,391.36098160000256,391.3457252000008,,,,,,,,,,,,,,,,,,,,,,,,,,,,,,,,,,,391.3466172000008,391.36098160000256,391.36098160000256,392.46411510000326,r,1.0,1.098990500002401,,,,,sub-025,1,stroop_test,59.94589283642964,
,,,,73.0,1.0,6.0,,,,,,,,,,,,,blau,yellow,g,0.0,g,1.0,0.941186000000016,,,,,,,,,,6.0,1.0,73.0,7.0,392.4784568000032,,,,,,,,,,,,,,,,,392.4646836000029,392.8289003000027,393.6292899,393.6139941000001,,,,,,,,,,,,,,,,,,,,,,,,,,,,,,,,,,,393.6147117,393.6292899,393.6292899,394.5824884000031,g,1.0,0.941186000000016,,,,,sub-025,1,stroop_test,59.94589283642964,
,,,,74.0,2.0,6.0,,,,,,,,,,,,,gelb,yellow,g,1.0,g,1.0,0.8923437999983435,,,,,,,,,,6.0,2.0,74.0,10.0,394.5964803000024,,,,,,,,,,,,,,,,,394.5830753000009,394.9468223000004,395.7475811000004,395.7323490000017,,,,,,,,,,,,,,,,,,,,,,,,,,,,,,,,,,,395.7376829000023,395.7475811000004,395.7475811000004,396.6494115000023,g,1.0,0.8923437999983435,,,,,sub-025,1,stroop_test,59.94589283642964,
,,,,75.0,3.0,6.0,,,,,,,,,,,,,gelb,yellow,g,1.0,g,1.0,0.834848200000124,,,,,,,,,,6.0,3.0,75.0,11.0,396.6646955000033,,,,,,,,,,,,,,,,,396.6498309000017,396.7651384000019,397.5655518000021,397.5543206000002,,,,,,,,,,,,,,,,,,,,,,,,,,,,,,,,,,,397.555088000001,397.5655518000021,397.5655518000021,398.417463400001,g,1.0,0.834848200000124,,,,,sub-025,1,stroop_test,59.94589283642964,
,,,,76.0,4.0,6.0,,,,,,,,,,,,,rot,red,r,1.0,r,1.0,0.8217793999974674,,,,,,,,,,6.0,4.0,76.0,0.0,398.4325854000017,,,,,,,,,,,,,,,,,398.4179159000014,399.216396900003,400.01844170000186,400.001701600002,,,,,,,,,,,,,,,,,,,,,,,,,,,,,,,,,,,400.01001570000153,400.01844170000186,400.01844170000186,400.8536581000008,r,1.0,0.8217793999974674,,,,,sub-025,1,stroop_test,59.94589283642964,
,,,,77.0,5.0,6.0,,,,,,,,,,,,,rot,blue,b,0.0,b,1.0,0.8923993999997037,,,,,,,,,,6.0,5.0,77.0,2.0,400.8674302,,,,,,,,,,,,,,,,,400.8542820000002,401.218238700003,402.01823480000166,402.00334270000167,,,,,,,,,,,,,,,,,,,,,,,,,,,,,,,,,,,402.0041867,402.01823480000166,402.01823480000166,402.9216262000009,b,1.0,0.8923993999997037,,,,,sub-025,1,stroop_test,59.94589283642964,
,,,,78.0,6.0,6.0,,,,,,,,,,,,,blau,blue,b,1.0,b,1.0,0.9735918000005768,,,,,,,,,,6.0,6.0,78.0,6.0,402.9356748999999,,,,,,,,,,,,,,,,,402.9222253000007,403.2859999000029,404.0865339000011,404.0710762000017,,,,,,,,,,,,,,,,,,,,,,,,,,,,,,,,,,,404.0781227000007,404.0865339000011,404.0865339000011,405.0729523000009,b,1.0,0.9735918000005768,,,,,sub-025,1,stroop_test,59.94589283642964,
,,,,79.0,7.0,6.0,,,,,,,,,,,,,rot,red,r,1.0,r,1.0,0.9302992000011728,,,,,,,,,,6.0,7.0,79.0,1.0,405.0871351000024,,,,,,,,,,,,,,,,,405.0735918999999,406.2880382000003,407.0903425000033,407.07371180000337,,,,,,,,,,,,,,,,,,,,,,,,,,,,,,,,,,,407.0808756000006,407.0903425000033,407.0903425000033,408.0250631000017,r,1.0,0.9302992000011728,,,,,sub-025,1,stroop_test,59.94589283642964,
,,,,80.0,8.0,6.0,,,,,,,,,,,,,gelb,blue,b,0.0,b,1.0,1.060514199998579,,,,,,,,,,6.0,8.0,80.0,9.0,408.03919470000255,,,,,,,,,,,,,,,,,408.0258815000016,408.1392281000008,408.9398248000034,408.9248839000029,,,,,,,,,,,,,,,,,,,,,,,,,,,,,,,,,,,408.9310856000011,408.9398248000034,408.9398248000034,410.0098444000032,b,1.0,1.060514199998579,,,,,sub-025,1,stroop_test,59.94589283642964,
,,,,81.0,9.0,6.0,,,,,,,,,,,,,blau,blue,b,1.0,b,1.0,0.8955444999992324,,,,,,,,,,6.0,9.0,81.0,5.0,410.0239557000023,,,,,,,,,,,,,,,,,410.01052170000185,410.37432190000254,411.1747946000032,411.1593756000002,,,,,,,,,,,,,,,,,,,,,,,,,,,,,,,,,,,411.1660851000015,411.1747946000032,411.1747946000032,412.07821930000136,b,1.0,0.8955444999992324,,,,,sub-025,1,stroop_test,59.94589283642964,
,,,,82.0,10.0,6.0,,,,,,,,,,,,,gelb,red,r,0.0,r,1.0,1.37750959999903,,,,,,,,,,6.0,10.0,82.0,8.0,412.0927669000012,,,,,,,,,,,,,,,,,412.0790106000022,413.2928745999998,414.09341300000233,414.0789374000015,,,,,,,,,,,,,,,,,,,,,,,,,,,,,,,,,,,414.0856120000026,414.09341300000233,414.09341300000233,415.4802647000033,r,1.0,1.37750959999903,,,,,sub-025,1,stroop_test,59.94589283642964,
,,,,83.0,11.0,6.0,,,,,,,,,,,,,rot,yellow,g,0.0,g,1.0,0.9345100999998976,,,,,,,,,,6.0,11.0,83.0,3.0,415.4944119000029,,,,,,,,,,,,,,,,,415.4808589000022,416.2950680000031,417.0957374000027,417.08041159999993,,,,,,,,,,,,,,,,,,,,,,,,,,,,,,,,,,,417.08627030000207,417.0957374000027,417.0957374000027,418.0329704000033,g,1.0,0.9345100999998976,,,,,sub-025,1,stroop_test,59.94589283642964,
,,,,84.0,0.0,7.0,,,,,,,,,,,,,blau,blue,b,1.0,b,1.0,0.993921399996907,,,,,,,,,,7.0,0.0,84.0,6.0,418.04646630000207,,,,,,,,,,,,,,,,,418.033597200003,418.8466685000021,419.6470384000022,419.6323575000024,,,,,,,,,,,,,,,,,,,,,,,,,,,,,,,,,,,419.6390451000007,419.6470384000022,419.6470384000022,420.6505332000015,b,1.0,0.993921399996907,,,,,sub-025,1,stroop_test,59.94589283642964,
,,,,85.0,1.0,7.0,,,,,,,,,,,,,gelb,red,r,0.0,r,1.0,1.1145673000028182,,,,,,,,,,7.0,1.0,85.0,8.0,420.6649447000018,,,,,,,,,,,,,,,,,420.6511839000013,421.0149653000008,421.8161325000001,421.8014680000015,,,,,,,,,,,,,,,,,,,,,,,,,,,,,,,,,,,421.8080780000018,421.8161325000001,421.8161325000001,422.9352927,r,1.0,1.1145673000028182,,,,,sub-025,1,stroop_test,59.94589283642964,
,,,,86.0,2.0,7.0,,,,,,,,,,,,,blau,blue,b,1.0,b,1.0,0.959979300001578,,,,,,,,,,7.0,2.0,86.0,5.0,422.949807500001,,,,,,,,,,,,,,,,,422.93597630000295,423.2999584999998,424.1002683000006,424.0851188000015,,,,,,,,,,,,,,,,,,,,,,,,,,,,,,,,,,,424.0919696000019,424.1002683000006,424.1002683000006,425.0706123000018,b,1.0,0.959979300001578,,,,,sub-025,1,stroop_test,59.94589283642964,
,,,,87.0,3.0,7.0,,,,,,,,,,,,,gelb,yellow,g,1.0,g,1.0,0.9437790000010864,,,,,,,,,,7.0,3.0,87.0,10.0,425.08452540000144,,,,,,,,,,,,,,,,,425.0712700000004,425.1845002000009,425.9867688000013,425.9700130000019,,,,,,,,,,,,,,,,,,,,,,,,,,,,,,,,,,,425.9784372000031,425.9867688000013,425.9867688000013,426.9382676000023,g,1.0,0.9437790000010864,,,,,sub-025,1,stroop_test,59.94589283642964,
,,,,88.0,4.0,7.0,,,,,,,,,,,,,rot,red,r,1.0,r,1.0,0.7561136999975133,,,,,,,,,,7.0,4.0,88.0,1.0,426.95235070000126,,,,,,,,,,,,,,,,,426.9389439000006,427.302438900002,428.1042519000002,428.0878594000024,,,,,,,,,,,,,,,,,,,,,,,,,,,,,,,,,,,428.09544240000105,428.1042519000002,428.1042519000002,428.8730077,r,1.0,0.7561136999975133,,,,,sub-025,1,stroop_test,59.94589283642964,
,,,,89.0,5.0,7.0,,,,,,,,,,,,,blau,red,r,0.0,r,1.0,0.9527361000000384,,,,,,,,,,7.0,5.0,89.0,4.0,428.8870360000001,,,,,,,,,,,,,,,,,428.87359490000017,429.6874818000033,430.4881830000013,430.4728596000023,,,,,,,,,,,,,,,,,,,,,,,,,,,,,,,,,,,430.47834180000063,430.4881830000013,430.4881830000013,431.4580270000006,r,1.0,0.9527361000000384,,,,,sub-025,1,stroop_test,59.94589283642964,
,,,,90.0,6.0,7.0,,,,,,,,,,,,,rot,yellow,g,0.0,g,1.0,0.9674884999985808,,,,,,,,,,7.0,6.0,90.0,3.0,431.47221230000287,,,,,,,,,,,,,,,,,431.4587760000031,432.2739372000033,433.0732781000006,433.0581643000005,,,,,,,,,,,,,,,,,,,,,,,,,,,,,,,,,,,433.0642990000015,433.0732781000006,433.0732781000006,434.0435527000009,g,1.0,0.9674884999985808,,,,,sub-025,1,stroop_test,59.94589283642964,
,,,,91.0,7.0,7.0,,,,,,,,,,,,,gelb,blue,b,0.0,b,1.0,1.1313285999967777,,,,,,,,,,7.0,7.0,91.0,9.0,434.05742360000295,,,,,,,,,,,,,,,,,434.0441911000016,435.2580791,436.059196000002,436.0431736999999,,,,,,,,,,,,,,,,,,,,,,,,,,,,,,,,,,,436.049743800002,436.059196000002,436.059196000002,437.1953420000027,b,1.0,1.1313285999967777,,,,,sub-025,1,stroop_test,59.94589283642964,
,,,,92.0,8.0,7.0,,,,,,,,,,,,,gelb,yellow,g,1.0,g,1.0,1.0801866999972844,,,,,,,,,,7.0,8.0,92.0,11.0,437.2096558000012,,,,,,,,,,,,,,,,,437.1960777000022,438.00992640000186,438.8106106000014,438.79512810000233,,,,,,,,,,,,,,,,,,,,,,,,,,,,,,,,,,,438.7960254000027,438.8106106000014,438.8106106000014,439.8962623000007,g,1.0,1.0801866999972844,,,,,sub-025,1,stroop_test,59.94589283642964,
,,,,93.0,9.0,7.0,,,,,,,,,,,,,rot,blue,b,0.0,b,1.0,1.1870452000002842,,,,,,,,,,7.0,9.0,93.0,2.0,439.9113986000011,,,,,,,,,,,,,,,,,439.89697030000025,440.7119534000012,441.5138605000029,441.4976387000024,,,,,,,,,,,,,,,,,,,,,,,,,,,,,,,,,,,441.5037797000005,441.5138605000029,441.5138605000029,442.7157052000002,b,1.0,1.1870452000002842,,,,,sub-025,1,stroop_test,59.94589283642964,
,,,,94.0,10.0,7.0,,,,,,,,,,,,,blau,yellow,g,0.0,g,1.0,1.1704296999996586,,,,,,,,,,7.0,10.0,94.0,7.0,442.7299670000029,,,,,,,,,,,,,,,,,442.71632220000174,443.5307283000002,444.3308969999998,444.3157318000012,,,,,,,,,,,,,,,,,,,,,,,,,,,,,,,,,,,444.3228404000001,444.3308969999998,444.3308969999998,445.51718510000137,g,1.0,1.1704296999996586,,,,,sub-025,1,stroop_test,59.94589283642964,
,,,,95.0,11.0,7.0,,,,,,,,,,,,,rot,red,r,1.0,r,1.0,1.2069621999980882,,,,,,,,,,7.0,11.0,95.0,0.0,445.5318019000006,,,,,,,,,,,,,,,,,445.51770990000296,446.7326424000021,447.5334348000033,447.5179983000016,,,,,,,,,,,,,,,,,,,,,,,,,,,,,,,,,,,447.52420730000085,447.5334348000033,447.5334348000033,448.7543931,r,1.0,1.2069621999980882,,,,,sub-025,1,stroop_test,59.94589283642964,
,,,,96.0,0.0,8.0,,,,,,,,,,,,,blau,blue,b,1.0,b,1.0,1.012071000001015,,,,,,,,,,8.0,0.0,96.0,6.0,448.7676097000003,,,,,,,,,,,,,,,,,448.7549943000013,449.1180757000002,449.9184835000015,449.9029648000033,,,,,,,,,,,,,,,,,,,,,,,,,,,,,,,,,,,449.9103345000003,449.9184835000015,449.9184835000015,450.93810430000303,b,1.0,1.012071000001015,,,,,sub-025,1,stroop_test,59.94589283642964,
,,,,97.0,1.0,8.0,,,,,,,,,,,,,gelb,red,r,0.0,r,1.0,1.1568970999978774,,,,,,,,,,8.0,1.0,97.0,8.0,450.95237460000135,,,,,,,,,,,,,,,,,450.9387590000006,452.1533743,452.9535383000002,452.9383919000029,,,,,,,,,,,,,,,,,,,,,,,,,,,,,,,,,,,452.9443864000023,452.9535383000002,452.9535383000002,454.1239005000025,r,1.0,1.1568970999978774,,,,,sub-025,1,stroop_test,59.94589283642964,
,,,,98.0,2.0,8.0,,,,,,,,,,,,,blau,red,r,0.0,r,1.0,1.1622411999996984,,,,,,,,,,8.0,2.0,98.0,4.0,454.1379952000025,,,,,,,,,,,,,,,,,454.1245333000006,454.4880944000033,455.288671600003,455.273106800003,,,,,,,,,,,,,,,,,,,,,,,,,,,,,,,,,,,455.2765612000003,455.288671600003,455.288671600003,456.4590709000004,r,1.0,1.1622411999996984,,,,,sub-025,1,stroop_test,59.94589283642964,
,,,,99.0,3.0,8.0,,,,,,,,,,,,,rot,yellow,g,0.0,g,1.0,0.934312699999282,,,,,,,,,,8.0,3.0,99.0,3.0,456.4728179000013,,,,,,,,,,,,,,,,,456.4596861000027,457.2734502000021,458.0766481000028,458.0586240000012,,,,,,,,,,,,,,,,,,,,,,,,,,,,,,,,,,,458.0659739000002,458.0766481000028,458.0766481000028,459.0270700000001,g,1.0,0.934312699999282,,,,,sub-025,1,stroop_test,59.94589283642964,
,,,,100.0,4.0,8.0,,,,,,,,,,,,,gelb,yellow,g,1.0,g,1.0,0.8771130000022822,,,,,,,,,,8.0,4.0,100.0,10.0,459.041415300002,,,,,,,,,,,,,,,,,459.02780450000137,459.3920835000026,460.1940372000026,460.1772988000012,,,,,,,,,,,,,,,,,,,,,,,,,,,,,,,,,,,460.1844259000027,460.1940372000026,460.1940372000026,461.0791085000019,g,1.0,0.8771130000022822,,,,,sub-025,1,stroop_test,59.94589283642964,
,,,,101.0,5.0,8.0,,,,,,,,,,,,,gelb,blue,b,0.0,b,1.0,1.006486499998573,,,,,,,,,,8.0,5.0,101.0,9.0,461.0927619000031,,,,,,,,,,,,,,,,,461.0797672000008,461.4428650000009,462.24387480000223,462.2280817999999,,,,,,,,,,,,,,,,,,,,,,,,,,,,,,,,,,,462.2291556000018,462.24387480000223,462.24387480000223,463.2632862000028,b,1.0,1.006486499998573,,,,,sub-025,1,stroop_test,59.94589283642964,
,,,,102.0,6.0,8.0,,,,,,,,,,,,,rot,blue,b,0.0,b,1.0,1.1119505999995454,,,,,,,,,,8.0,6.0,102.0,2.0,463.2774285000014,,,,,,,,,,,,,,,,,463.2638103999998,463.6278568000016,464.4284109,464.413435800001,,,,,,,,,,,,,,,,,,,,,,,,,,,,,,,,,,,464.4198302000004,464.4284109,464.4284109,465.5478126000016,b,1.0,1.1119505999995454,,,,,sub-025,1,stroop_test,59.94589283642964,
,,,,103.0,7.0,8.0,,,,,,,,,,,,,rot,red,r,1.0,r,1.0,1.0573651999984577,,,,,,,,,,8.0,7.0,103.0,1.0,465.56234510000286,,,,,,,,,,,,,,,,,465.5484423000016,465.9126971000005,466.7132877000004,466.6982205000022,,,,,,,,,,,,,,,,,,,,,,,,,,,,,,,,,,,466.69924700000047,466.7132877000004,466.7132877000004,467.7824787999998,r,1.0,1.0573651999984577,,,,,sub-025,1,stroop_test,59.94589283642964,
,,,,104.0,8.0,8.0,,,,,,,,,,,,,blau,blue,b,1.0,b,1.0,1.002811300000758,,,,,,,,,,8.0,8.0,104.0,5.0,467.7975144000011,,,,,,,,,,,,,,,,,467.7827947000005,468.1479223000024,468.9480605000026,468.93316570000025,,,,,,,,,,,,,,,,,,,,,,,,,,,,,,,,,,,468.93942310000057,468.9480605000026,468.9480605000026,469.96805200000017,b,1.0,1.002811300000758,,,,,sub-025,1,stroop_test,59.94589283642964,
,,,,105.0,9.0,8.0,,,,,,,,,,,,,rot,red,r,1.0,r,1.0,0.9782981999996992,,,,,,,,,,8.0,9.0,105.0,0.0,469.9821555000017,,,,,,,,,,,,,,,,,469.9686806000027,470.332334900002,471.1330570999999,471.11762850000014,,,,,,,,,,,,,,,,,,,,,,,,,,,,,,,,,,,471.1224586000026,471.1330570999999,471.1330570999999,472.1197496000023,r,1.0,0.9782981999996992,,,,,sub-025,1,stroop_test,59.94589283642964,
,,,,106.0,10.0,8.0,,,,,,,,,,,,,gelb,yellow,g,1.0,g,1.0,0.9057507999968948,,,,,,,,,,8.0,10.0,106.0,11.0,472.1336684000016,,,,,,,,,,,,,,,,,472.1206525000016,473.33490150000216,474.1352519000029,474.1194147000024,,,,,,,,,,,,,,,,,,,,,,,,,,,,,,,,,,,474.1249562000012,474.1352519000029,474.1352519000029,475.0549181000024,g,1.0,0.9057507999968948,,,,,sub-025,1,stroop_test,59.94589283642964,
,,,,107.0,11.0,8.0,,,,,,,,,,,,,blau,yellow,g,0.0,g,1.0,1.0008923999994297,,,,,,,,,,8.0,11.0,107.0,7.0,475.0690357000021,,,,,,,,,,,,,,,,,475.05551560000094,475.1691769000026,475.9697394000032,475.9545450000005,,,,,,,,,,,,,,,,,,,,,,,,,,,,,,,,,,,475.9598986000019,475.9697394000032,475.9697394000032,476.9728209000023,g,1.0,1.0008923999994297,,,,,sub-025,1,stroop_test,59.94589283642964,
,,,,108.0,0.0,9.0,,,,,,,,,,,,,rot,red,r,1.0,r,1.0,0.9310356999994838,,,,,,,,,,9.0,0.0,108.0,0.0,476.987086000001,,,,,,,,,,,,,,,,,476.9734973000013,478.18778920000113,478.9895474000005,478.9738713000006,,,,,,,,,,,,,,,,,,,,,,,,,,,,,,,,,,,478.980397000003,478.9895474000005,478.9895474000005,479.9250610000017,r,1.0,0.9310356999994838,,,,,sub-025,1,stroop_test,59.94589283642964,
,,,,109.0,1.0,9.0,,,,,,,,,,,,,rot,red,r,1.0,r,1.0,1.01147359999959,,,,,,,,,,9.0,1.0,109.0,1.0,479.9390869000017,,,,,,,,,,,,,,,,,479.9256752000001,480.0393488000009,480.8396849000019,480.8249911000021,,,,,,,,,,,,,,,,,,,,,,,,,,,,,,,,,,,480.82589930000177,480.8396849000019,480.8396849000019,481.85968330000105,r,1.0,1.01147359999959,,,,,sub-025,1,stroop_test,59.94589283642964,
,,,,110.0,2.0,9.0,,,,,,,,,,,,,rot,yellow,g,0.0,g,1.0,0.8767263000008825,,,,,,,,,,9.0,2.0,110.0,3.0,481.8739550999999,,,,,,,,,,,,,,,,,481.8604108,481.9737776000002,482.7746447999998,482.75959980000334,,,,,,,,,,,,,,,,,,,,,,,,,,,,,,,,,,,482.7604013000018,482.7746447999998,482.7746447999998,483.6610744999998,g,1.0,0.8767263000008825,,,,,sub-025,1,stroop_test,59.94589283642964,
,,,,111.0,3.0,9.0,,,,,,,,,,,,,blau,blue,b,1.0,b,1.0,0.9931682999995246,,,,,,,,,,9.0,3.0,111.0,6.0,483.6750982000012,,,,,,,,,,,,,,,,,483.6616533000015,484.8761822000015,485.6776224000023,485.6613229000032,,,,,,,,,,,,,,,,,,,,,,,,,,,,,,,,,,,485.66762160000144,485.6776224000023,485.6776224000023,486.6795949000007,b,1.0,0.9931682999995246,,,,,sub-025,1,stroop_test,59.94589283642964,
,,,,112.0,4.0,9.0,,,,,,,,,,,,,gelb,red,r,0.0,r,1.0,1.095467800001643,,,,,,,,,,9.0,4.0,112.0,8.0,486.6939121000032,,,,,,,,,,,,,,,,,486.6802616000023,487.894724400001,488.69544210000095,488.6801437000031,,,,,,,,,,,,,,,,,,,,,,,,,,,,,,,,,,,488.6874189000009,488.69544210000095,488.69544210000095,489.79792700000326,r,1.0,1.095467800001643,,,,,sub-025,1,stroop_test,59.94589283642964,
,,,,113.0,5.0,9.0,,,,,,,,,,,,,blau,red,r,0.0,r,1.0,0.9168907999992372,,,,,,,,,,9.0,5.0,113.0,4.0,489.8125629000024,,,,,,,,,,,,,,,,,489.7986056000009,491.01376540000274,491.8143271000008,491.7987485000013,,,,,,,,,,,,,,,,,,,,,,,,,,,,,,,,,,,491.8047330000009,491.8143271000008,491.8143271000008,492.7340304999998,r,1.0,0.9168907999992372,,,,,sub-025,1,stroop_test,59.94589283642964,
,,,,114.0,6.0,9.0,,,,,,,,,,,,,rot,blue,b,0.0,b,1.0,1.3514885999975377,,,,,,,,,,9.0,6.0,114.0,2.0,492.7477635000032,,,,,,,,,,,,,,,,,492.73469710000063,492.8482006000013,493.64983930000017,493.633406500001,,,,,,,,,,,,,,,,,,,,,,,,,,,,,,,,,,,493.64088640000045,493.64983930000017,493.64983930000017,495.0181435000013,b,1.0,1.3514885999975377,,,,,sub-025,1,stroop_test,59.94589283642964,
,,,,115.0,7.0,9.0,,,,,,,,,,,,,gelb,blue,b,0.0,b,1.0,0.9547238000013748,,,,,,,,,,9.0,7.0,115.0,9.0,495.0328745000006,,,,,,,,,,,,,,,,,495.0187072000008,496.233769100003,497.0357387000004,497.019731700002,,,,,,,,,,,,,,,,,,,,,,,,,,,,,,,,,,,497.0276124000011,497.0357387000004,497.0357387000004,498.0041328000007,b,1.0,0.9547238000013748,,,,,sub-025,1,stroop_test,59.94589283642964,
,,,,116.0,8.0,9.0,,,,,,,,,,,,,gelb,yellow,g,1.0,g,1.0,1.151622499997757,,,,,,,,,,9.0,8.0,116.0,11.0,498.0182643000008,,,,,,,,,,,,,,,,,498.0047685000027,498.1184908000032,498.9191507000032,498.9035341000017,,,,,,,,,,,,,,,,,,,,,,,,,,,,,,,,,,,498.9046667000002,498.9191507000032,498.9191507000032,500.0729652000009,g,1.0,1.151622499997757,,,,,sub-025,1,stroop_test,59.94589283642964,
,,,,117.0,9.0,9.0,,,,,,,,,,,,,blau,yellow,g,0.0,g,1.0,1.2441568000031111,,,,,,,,,,9.0,9.0,117.0,7.0,500.0867542000015,,,,,,,,,,,,,,,,,500.07361370000217,500.4366277000008,501.237245700002,501.2216979000005,,,,,,,,,,,,,,,,,,,,,,,,,,,,,,,,,,,501.2266948000033,501.237245700002,501.237245700002,502.4904974000019,g,1.0,1.2441568000031111,,,,,sub-025,1,stroop_test,59.94589283642964,
,,,,118.0,10.0,9.0,,,,,,,,,,,,,gelb,yellow,g,1.0,g,1.0,0.9564366000013252,,,,,,,,,,9.0,10.0,118.0,10.0,502.50466360000064,,,,,,,,,,,,,,,,,502.491077900002,502.6048254000016,503.4052945000003,503.3900517000002,,,,,,,,,,,,,,,,,,,,,,,,,,,,,,,,,,,503.39588060000096,503.4052945000003,503.4052945000003,504.3748180000002,g,1.0,0.9564366000013252,,,,,sub-025,1,stroop_test,59.94589283642964,
,,,,119.0,11.0,9.0,,,,,,,,,,,,,blau,blue,b,1.0,b,1.0,1.0281160999984422,,,,,,,,,,9.0,11.0,119.0,5.0,504.3892554000013,,,,,,,,,,,,,,,,,504.3754160000026,504.4898275000014,505.2936605000032,505.2748162000025,,,,,,,,,,,,,,,,,,,,,,,,,,,,,,,,,,,505.2845654000012,505.2936605000032,505.2936605000032,506.3269198000016,b,1.0,1.0281160999984422,,,,,sub-025,1,stroop_test,59.94589283642964,
,,,,,,,,,,,,,,,,,,,,,,,,,,,,,,,,,,,,,,,,,,,,,,,,,,,,,,,,,,,,,,,,,,,,,,,,,,,,,,,,,,,,,,,,,,,,,,,,,,,,,,506.327193000001,506.34085010000126,511.3279325000003,sub-025,1,stroop_test,59.94589283642964,
