direction,corrAns,randomInstr,practice_trials.thisRepN,practice_trials.thisTrialN,practice_trials.thisN,practice_trials.thisIndex,instr_trials.thisRepN,instr_trials.thisTrialN,instr_trials.thisN,instr_trials.thisIndex,test_trials.thisRepN,test_trials.thisTrialN,test_trials.thisN,test_trials.thisIndex,thisRow.t,notes,general_instruction.started,textGeneralInstr.started,respGeneralInstr.started,general_instruction.stopped,respGeneralInstr.keys,respGeneralInstr.rt,respGeneralInstr.duration,ITI.started,fixcross.started,fixcross.stopped,ITI.stopped,dots.started,backgroundDots.started,stimulusDots.started,respDots.started,dots.stopped,respDots.keys,respDots.corr,respDots.rt,respDots.duration,feedback.started,textFeedback.started,feedback.stopped,textFeedback.stopped,info.started,textInfo.started,keyRespInfo.started,info.stopped,keyRespInfo.keys,keyRespInfo.rt,keyRespInfo.duration,test_instruction.started,textTestInstr.started,respTestInstr.started,test_instruction.stopped,respTestInstr.keys,respTestInstr.rt,respTestInstr.duration,random_instruction.started,textRandomInstr.started,respRandomInstr.started,random_instruction.stopped,respRandomInstr.keys,respRandomInstr.rt,respRandomInstr.duration,stimulusDots.stopped,goodbye.started,textGoodbye.started,goodbye.stopped,participant,session,expName,frameRate,Unnamed: 73
,,,,,,,,,,,,,,,,,0.0136965999845415,0.0211763998959213,0.0211763998959213,1.947270100004971,space,27.69252939987928,,,,,,,,,,,,,,,,,,,,,,,,,,,,,,,,,,,,,,,,,,,,sub-198,1.0,random_dot,60.02264057266915,
right,right,,0.0,0.0,0.0,1.0,,,,,,,,,1.9682515999302268,,,,,,,,,1.963866899954155,2.310959199909121,3.111141199944541,3.094073100015521,3.094093600055203,3.111141199944541,3.111141199944541,3.111141199944541,6.192506500054151,left,0.0,28.83843189990148,,6.195896500023082,6.210859199985862,6.707048400072381,,,,,,,,,,,,,,,,,,,,,,,,,,,sub-198,1.0,random_dot,60.02264057266915,
left,left,,0.0,1.0,1.0,0.0,,,,,,,,,6.723664700053632,,,,,,,,,6.707380899926648,6.80669549992308,7.607236699899659,7.589926900109276,7.589944100007415,7.607236699899659,7.607236699899659,7.607236699899659,8.658079799963161,right,0.0,26.81938250013627,,8.658769000088796,8.671675899997354,9.155452500097454,9.171195599948987,,,,,,,,,,,,,,,,,,,,,,,,,,sub-198,1.0,random_dot,60.02264057266915,
right,right,,1.0,0.0,2.0,1.0,,,,,,,,,9.171195599948987,,,,,,,,,9.156027500052003,9.271078000077978,10.071585099911315,10.054788700072097,10.054819399956614,10.071585099911315,10.071585099911315,10.071585099911315,10.754966400098056,left,0.0,26.452964999945834,,10.755370100028813,10.769766099983826,11.252998099895194,11.269453499931842,,,,,,,,,,,,,,,,,,,,,,,,,,sub-198,1.0,random_dot,60.02264057266915,
left,left,,1.0,1.0,3.0,0.0,,,,,,,,,11.269453499931842,,,,,,,,,11.253333500120789,11.618892800062897,12.419168600114062,12.403400900075212,12.4034229000099,12.419168600114062,12.419168600114062,12.419168600114062,13.003249800065532,left,1.0,26.34826250001788,,13.003745400113983,13.017610799986867,13.501409699907526,13.517075200099498,,,,,,,,,,,,,,,,,,,,,,,,,,sub-198,1.0,random_dot,60.02264057266915,
right,right,,2.0,0.0,4.0,1.0,,,,,,,,,13.517075200099498,,,,,,,,,13.501826599938797,14.716282800072804,15.53293569991365,15.51585069997236,15.51587129989639,15.53293569991365,15.53293569991365,15.53293569991365,16.649506899993867,right,1.0,26.873225399991497,,16.650017000036314,16.66411289991811,17.147853899979964,17.16366480011493,,,,,,,,,,,,,,,,,,,,,,,,,,sub-198,1.0,random_dot,60.02264057266915,
left,left,,2.0,1.0,5.0,0.0,,,,,,,,,17.16366480011493,,,,,,,,,17.148475100053474,18.362529600039124,19.16332729998976,19.14583669998683,19.14585560001433,19.16332729998976,19.16332729998976,19.16332729998976,20.096594500122592,left,1.0,26.68823520001024,,20.09716450003907,20.110923999920487,20.59439960005693,20.61056510009803,,,,,,,,,,,,,,,,,,,,,,,,,,sub-198,1.0,random_dot,60.02264057266915,
left,left,,3.0,0.0,6.0,0.0,,,,,,,,,20.61056510009803,,,,,,,,,20.594710200093687,20.960542799904943,21.777151999995112,21.759795299964026,21.75982569996268,21.777151999995112,21.777151999995112,21.777151999995112,23.36001270008273,left,1.0,27.338896099943668,,23.36055029998533,23.374487099936232,23.858185000019148,23.873995000030845,,,,,,,,,,,,,,,,,,,,,,,,,,sub-198,1.0,random_dot,60.02264057266915,
right,right,,3.0,1.0,7.0,1.0,,,,,,,,,23.873995000030845,,,,,,,,,23.85867709992453,24.223818500060588,25.02390439994633,25.007010800065476,25.007033000001684,25.02390439994633,25.02390439994633,25.02390439994633,25.973838600097224,right,1.0,26.71732739987783,,25.974239700008184,25.988821299979463,26.47251019999385,26.48830739990808,,,,,,,,,,,,,,,,,,,,,,,,,,sub-198,1.0,random_dot,60.02264057266915,
left,left,,4.0,0.0,8.0,0.0,,,,,,,,,26.48830739990808,,,,,,,,,26.473035299917683,27.2875099000521,28.087848199997097,28.07386210002005,28.073880499927327,28.087848199997097,28.087848199997097,28.087848199997097,29.270916000008583,right,0.0,26.940346299903467,,29.27141549997032,29.28583050007001,29.769536700099707,29.785156700061638,,,,,,,,,,,,,,,,,,,,,,,,,,sub-198,1.0,random_dot,60.02264057266915,
right,right,,4.0,1.0,9.0,1.0,,,,,,,,,29.785156700061638,,,,,,,,,29.77007120009512,30.584509500069544,31.384911299915984,31.367679599905387,31.367702400079,31.384911299915984,31.384911299915984,31.384911299915984,32.46838330011815,right,1.0,26.847092000069097,,32.468928599962965,32.48268590006046,32.96662160009146,32.98236529994756,,,,,,,,,,,,,,,,,,,,,,,,,,sub-198,1.0,random_dot,60.02264057266915,
right,right,,5.0,0.0,10.0,1.0,,,,,,,,,32.98236529994756,,,,,,,,,32.96720750001259,34.18170140008442,34.99819330009632,34.98092920007184,34.98094619996846,34.99819330009632,34.99819330009632,34.99819330009632,35.64885509992018,left,0.0,26.419174199923877,,35.6494313001167,35.6632109999191,36.146551199955866,36.16273219999857,,,,,,,,,,,,,,,,,,,,,,,,,,sub-198,1.0,random_dot,60.02264057266915,
left,left,,5.0,1.0,11.0,0.0,,,,,,,,,36.16273219999857,,,,,,,,,36.14697239990346,36.512296200031415,37.31277190009132,37.29547420004383,37.29549599997699,37.31277190009132,37.31277190009132,37.31277190009132,38.2468155999668,left,1.0,26.70335380011238,,38.247734300093725,38.26057699997909,38.745216300012544,38.760541199939325,,,,,,,,,,,,,,,,,,,,,,,,,,sub-198,1.0,random_dot,60.02264057266915,
right,right,,6.0,0.0,12.0,1.0,,,,,,,,,38.760541199939325,,,,,,,,,38.74657359998673,39.559497399954125,40.35960160009563,40.34245179989375,40.34247460006736,40.35960160009563,40.35960160009563,40.35960160009563,40.843261200003326,left,0.0,26.23882879992016,,40.8436732001137,40.85827419999987,41.34180300007574,41.35768750007264,,,,,,,,,,,,,,,,,,,,,,,,,,sub-198,1.0,random_dot,60.02264057266915,
left,left,,6.0,1.0,13.0,0.0,,,,,,,,,41.35768750007264,,,,,,,,,41.34223910002038,42.55686110001989,43.35702580003999,43.33985490002669,43.33987249992788,43.35702580003999,43.35702580003999,43.35702580003999,44.04065140010789,right,0.0,26.44486269983463,,44.04130499996245,44.05518910009414,44.53925850009546,44.55481970007531,,,,,,,,,,,,,,,,,,,,,,,,,,sub-198,1.0,random_dot,60.02264057266915,
right,right,,7.0,0.0,14.0,1.0,,,,,,,,,44.55481970007531,,,,,,,,,44.54000229993835,45.75354459998198,46.55388269992545,46.53667780011892,46.53671130002476,46.55388269992545,46.55388269992545,46.55388269992545,47.42096600006335,right,1.0,26.63489290000871,,47.421647700015455,47.4353765998967,47.918837500037625,47.93494489998557,,,,,,,,,,,,,,,,,,,,,,,,,,sub-198,1.0,random_dot,60.02264057266915,
left,left,,7.0,1.0,15.0,0.0,,,,,,,,,47.93494489998557,,,,,,,,,47.91918259998784,49.13370719994418,49.93419470009394,49.917107299901545,49.91712799994275,49.93419470009394,49.93419470009394,49.93419470009394,51.08530639996752,left,1.0,26.90898449998349,,51.0863304999657,51.0987354000099,51.58193459990434,51.59802130004391,,,,,,,,,,,,,,,,,,,,,,,,,,sub-198,1.0,random_dot,60.02264057266915,
right,right,,8.0,0.0,16.0,1.0,,,,,,,,,51.59802130004391,,,,,,,,,51.582274300046265,51.697964899940416,52.49836029997096,52.48137570009567,52.48139470000751,52.49836029997096,52.49836029997096,52.49836029997096,53.26500050001778,left,0.0,26.530022899853066,,53.26541209989227,53.28017510008067,53.76340060005896,53.77987010008656,,,,,,,,,,,,,,,,,,,,,,,,,,sub-198,1.0,random_dot,60.02264057266915,
left,left,,8.0,1.0,17.0,0.0,,,,,,,,,53.77987010008656,,,,,,,,,53.76381719997153,54.12926089996472,54.92946520005353,54.91225460008718,54.91227430012077,54.92946520005353,54.92946520005353,54.92946520005353,55.66396509995684,left,1.0,26.497152699856088,,55.66512929997407,55.67781549994834,56.162195899989456,56.17782979994081,,,,,,,,,,,,,,,,,,,,,,,,,,sub-198,1.0,random_dot,60.02264057266915,
left,left,,9.0,0.0,18.0,0.0,,,,,,,,,56.17782979994081,,,,,,,,,56.163164200028405,56.52734620007686,57.327674200059846,57.311014800099656,57.31106680002995,57.327674200059846,57.327674200059846,57.327674200059846,58.394828600110486,right,0.0,26.827151499921456,,58.39577429997735,58.40859850007109,58.89167289994657,58.90780459996313,,,,,,,,,,,,,,,,,,,,,,,,,,sub-198,1.0,random_dot,60.02264057266915,
right,right,,9.0,1.0,19.0,1.0,,,,,,,,,58.90780459996313,,,,,,,,,58.89203230012208,59.70734079997055,60.50787440012209,60.49135900009424,60.4913993999362,60.50787440012209,60.50787440012209,60.50787440012209,61.47651920001954,right,1.0,26.733203399926424,,61.47770550008863,61.489419700112194,61.97299419995397,61.988950999919325,,,,,,,,,,,,,,,,,,,,,,,,,,sub-198,1.0,random_dot,60.02264057266915,
,,,,,,,,,,,,,,,,,,,,,,,,,,,,,,,,,,,,,,,,,61.97311299992725,61.988950999919325,61.988950999919325,63.223072699969634,space,26.988740799948573,,,,,,,,,,,,,,,,,,,,sub-198,1.0,random_dot,60.02264057266915,
,,,,,,,,,,,,,,,,,,,,,,,,,,,,,,,,,,,,,,,,,,,,,,,,63.22314090002328,63.23784839990549,63.23784839990549,63.922842799918726,space,26.449014199897647,,,,,,,,,,,,,sub-198,1.0,random_dot,60.02264057266915,
left,left,accuracy,,,,,0.0,0.0,0.0,0.0,0.0,0.0,0.0,0.0,65.86830729991198,,,,,,,,,65.85801470000297,66.65086650010198,67.45122980000451,67.43433910002932,67.43437790009193,67.45122980000451,67.45122980000451,67.45122980000451,68.80143800005317,left,1.0,27.114295599982142,,,,,,,,,,,,,,,,,,,,63.931820899946615,63.959791200002655,63.959791200002655,65.8525656000711,space,27.64952729991637,,,,,,sub-198,1.0,random_dot,60.02264057266915,
right,right,accuracy,,,,,0.0,0.0,0.0,0.0,0.0,1.0,1.0,1.0,68.81572149996646,,,,,,,,,68.80338810011744,69.16574559989385,69.96577350003645,69.94988270010799,69.94995980011299,69.96577350003645,69.96577350003645,69.96577350003645,70.69925790000707,right,1.0,26.49468829995021,,,,,,,,,,,,,,,,,,,,,,,,,,,,,,,sub-198,1.0,random_dot,60.02264057266915,
right,right,accuracy,,,,,0.0,0.0,0.0,0.0,1.0,0.0,2.0,1.0,70.71396970003843,,,,,,,,,70.70055690011941,71.51910350006074,72.33002860005945,72.31394900009036,72.31400309992023,72.33002860005945,72.33002860005945,72.33002860005945,74.09573350008577,left,0.0,27.52966589992866,,,,,,,,,,,,,,,,,,,,,,,,,,,,,,,sub-198,1.0,random_dot,60.02264057266915,
left,left,accuracy,,,,,0.0,0.0,0.0,0.0,1.0,1.0,3.0,0.0,74.11260750005022,,,,,,,,,74.09666740009561,75.30972729995847,76.10987140005454,76.09338429989293,76.09343210002407,76.10987140005454,76.10987140005454,76.10987140005454,78.54167820001021,right,0.0,28.18629250000231,,,,,,,,,,,,,,,,,,,,,,,,,,,,,,,sub-198,1.0,random_dot,60.02264057266915,
right,right,accuracy,,,,,0.0,0.0,0.0,0.0,2.0,0.0,4.0,1.0,78.55630669998936,,,,,,,,,78.54249990009703,78.90646969992667,79.72291929996572,79.70634000003338,79.70637240004726,79.72291929996572,79.72291929996572,79.72291929996572,82.02314840001054,left,0.0,28.06483349995688,,,,,,,,,,,,,,,,,,,,,,,,,,,,,,,sub-198,1.0,random_dot,60.02264057266915,
left,left,accuracy,,,,,0.0,0.0,0.0,0.0,2.0,1.0,5.0,0.0,82.03667069994844,,,,,,,,,82.02535220002756,83.23536520008929,84.03535500005819,84.0184698998928,84.01848570001312,84.03535500005819,84.03535500005819,84.03535500005819,88.08243889990263,left,1.0,29.80338860000484,,,,,,,,,,,,,,,,,,,,,,,,,,,,,,,sub-198,1.0,random_dot,60.02264057266915,
left,left,accuracy,,,,,0.0,0.0,0.0,0.0,3.0,0.0,6.0,0.0,88.09723290009424,,,,,,,,,88.0833932000678,89.29623230011202,90.09694069996476,90.07950429990888,90.0795277999714,90.09694069996476,90.09694069996476,90.09694069996476,91.64578559994698,right,0.0,27.30797820002772,,,,,,,,,,,,,,,,,,,,,,,,,,,,,,,sub-198,1.0,random_dot,60.02264057266915,
right,right,accuracy,,,,,0.0,0.0,0.0,0.0,3.0,1.0,7.0,1.0,91.66097049997188,,,,,,,,,91.6465849999804,91.76111389999278,92.5817313999869,92.56017390009949,92.56019020010716,92.5817313999869,92.5817313999869,92.5817313999869,93.5301032999996,right,1.0,26.717165699927136,,,,,,,,,,,,,,,,,,,,,,,,,,,,,,,sub-198,1.0,random_dot,60.02264057266915,
right,right,accuracy,,,,,0.0,0.0,0.0,0.0,4.0,0.0,8.0,1.0,93.54220360005274,,,,,,,,,93.53309929999524,93.6422317000106,94.44238879997285,94.4256100000348,94.42562919994816,94.44238879997285,94.44238879997285,94.44238879997285,95.2928637000732,left,0.0,26.612397199962288,,,,,,,,,,,,,,,,,,,,,,,,,,,,,,,sub-198,1.0,random_dot,60.02264057266915,
left,left,accuracy,,,,,0.0,0.0,0.0,0.0,4.0,1.0,9.0,0.0,95.30710890004411,,,,,,,,,95.293711300008,96.10681249992922,96.92383389989844,96.90655350009912,96.90657020010984,96.92383389989844,96.92383389989844,96.92383389989844,101.820021700114,right,0.0,30.656561200041324,,,,,,,,,,,,,,,,,,,,,,,,,,,,,,,sub-198,1.0,random_dot,60.02264057266915,
left,left,accuracy,,,,,0.0,0.0,0.0,0.0,5.0,0.0,10.0,0.0,101.83479140000418,,,,,,,,,101.82124660001136,103.03350050002337,103.83364000008442,103.82038980000652,103.82042149989866,103.83364000008442,103.83364000008442,103.83364000008442,107.89771710010244,left,1.0,29.83363480004482,,,,,,,,,,,,,,,,,,,,,,,,,,,,,,,sub-198,1.0,random_dot,60.02264057266915,
right,right,accuracy,,,,,0.0,0.0,0.0,0.0,5.0,1.0,11.0,1.0,107.91227380000056,,,,,,,,,107.89872900000772,108.26172790001146,109.06182889989576,109.04465429997072,109.04467159998605,109.06182889989576,109.06182889989576,109.06182889989576,110.21208039997146,right,1.0,26.90698319976218,,,,,,,,,,,,,,,,,,,,,,,,,,,,,,,sub-198,1.0,random_dot,60.02264057266915,
right,right,accuracy,,,,,0.0,0.0,0.0,0.0,6.0,0.0,12.0,1.0,110.22693490004168,,,,,,,,,110.21300689992496,111.02620860002936,111.8264601000119,111.80983959999868,111.80988100008108,111.8264601000119,111.8264601000119,111.8264601000119,113.79206510004587,right,1.0,27.73501430009492,,,,,,,,,,,,,,,,,,,,,,,,,,,,,,,sub-198,1.0,random_dot,60.02264057266915,
left,left,accuracy,,,,,0.0,0.0,0.0,0.0,6.0,1.0,13.0,0.0,113.80678800004534,,,,,,,,,113.79287840006872,115.0057401000522,115.82235920010136,115.80577809992246,115.80579599994236,115.82235920010136,115.82235920010136,115.82235920010136,118.27141600009054,left,1.0,28.20380329992622,,,,,,,,,,,,,,,,,,,,,,,,,,,,,,,sub-198,1.0,random_dot,60.02264057266915,
left,left,accuracy,,,,,0.0,0.0,0.0,0.0,7.0,0.0,14.0,0.0,118.2861093999818,,,,,,,,,118.2724625999108,118.63574629998766,119.43575599999168,119.4193277999293,119.4193685001228,119.43575599999168,119.43575599999168,119.43575599999168,121.33957779989578,left,1.0,27.6657648999244,,,,,,,,,,,,,,,,,,,,,,,,,,,,,,,sub-198,1.0,random_dot,60.02264057266915,
right,right,accuracy,,,,,0.0,0.0,0.0,0.0,7.0,1.0,15.0,1.0,121.34943699999712,,,,,,,,,121.34050859999844,122.14876949996687,122.9524795000907,122.93180239992216,122.93181829992682,122.9524795000907,122.9524795000907,122.9524795000907,124.51531550008804,right,1.0,27.325788100017235,,,,,,,,,,,,,,,,,,,,,,,,,,,,,,,sub-198,1.0,random_dot,60.02264057266915,
right,right,accuracy,,,,,0.0,0.0,0.0,0.0,8.0,0.0,16.0,1.0,124.52975469990632,,,,,,,,,124.5163686000742,125.32905400008896,126.12915090005843,126.11226850003004,126.1122852000408,126.12915090005843,126.12915090005843,126.12915090005843,127.36227939999662,right,1.0,27.00188899994828,,,,,,,,,,,,,,,,,,,,,,,,,,,,,,,sub-198,1.0,random_dot,60.02264057266915,
left,left,accuracy,,,,,0.0,0.0,0.0,0.0,8.0,1.0,17.0,0.0,127.37709009996615,,,,,,,,,127.3631170000881,127.47708370001055,128.27730789990164,128.26045889989473,128.2604749999009,128.27730789990164,128.27730789990164,128.27730789990164,130.32639089995064,left,1.0,27.812359099974856,,,,,,,,,,,,,,,,,,,,,,,,,,,,,,,sub-198,1.0,random_dot,60.02264057266915,
left,left,accuracy,,,,,0.0,0.0,0.0,0.0,9.0,0.0,18.0,0.0,130.341031299904,,,,,,,,,130.32750879996456,130.44093549996614,131.24109850008972,131.22393120010383,131.22394730011,131.24109850008972,131.24109850008972,131.24109850008972,134.5222289999947,left,1.0,29.04942990001291,,,,,,,,,,,,,,,,,,,,,,,,,,,,,,,sub-198,1.0,random_dot,60.02264057266915,
right,right,accuracy,,,,,0.0,0.0,0.0,0.0,9.0,1.0,19.0,1.0,134.537084300071,,,,,,,,,134.52302989992313,134.6370224999264,135.43731510010548,135.42017189995386,135.42018899996765,135.43731510010548,135.43731510010548,135.43731510010548,137.7526803999208,right,1.0,28.07412360003218,,,,,,,,,,,,,,,,,,,,,,,,,,,,,,,sub-198,1.0,random_dot,60.02264057266915,
right,right,accuracy,,,,,0.0,0.0,0.0,0.0,10.0,0.0,20.0,1.0,137.7674066000618,,,,,,,,,137.75350870005786,138.56669049989432,139.3671756000258,139.34968429990113,139.34970310004428,139.3671756000258,139.3671756000258,139.3671756000258,145.12903599999845,left,0.0,31.530001600040123,,,,,,,,,,,,,,,,,,,,,,,,,,,144.3620130000636,,,,sub-198,1.0,random_dot,60.02264057266915,
left,left,accuracy,,,,,0.0,0.0,0.0,0.0,10.0,1.0,21.0,0.0,145.1438275000546,,,,,,,,,145.1298364000395,145.24377109995112,146.04389750002883,146.02681809989735,146.02683370001614,146.04389750002883,146.04389750002883,146.04389750002883,148.0430232998915,right,0.0,27.760143700055774,,,,,,,,,,,,,,,,,,,,,,,,,,,,,,,sub-198,1.0,random_dot,60.02264057266915,
right,right,accuracy,,,,,0.0,0.0,0.0,0.0,11.0,0.0,22.0,1.0,148.05774530000053,,,,,,,,,148.0438632001169,148.85704410006292,149.6577016999945,149.6408500999678,149.64089530007914,149.6577016999945,149.6577016999945,149.6577016999945,150.8403372000903,right,1.0,26.948134599952027,,,,,,,,,,,,,,,,,,,,,,,,,,,,,,,sub-198,1.0,random_dot,60.02264057266915,
left,left,accuracy,,,,,0.0,0.0,0.0,0.0,11.0,1.0,23.0,0.0,150.85508439992554,,,,,,,,,150.8412450000178,151.2051613999065,152.0051158000715,151.9884516999591,151.988482600078,152.0051158000715,152.0051158000715,152.0051158000715,153.55579090001993,left,1.0,27.306593199959025,,,,,,,,,,,,,,,,,,,,,,,,,,,,,,,sub-198,1.0,random_dot,60.02264057266915,
right,right,accuracy,,,,,0.0,0.0,0.0,0.0,12.0,0.0,24.0,1.0,153.56987769994885,,,,,,,,,153.55816080002114,153.6695703000296,154.4696585999336,154.453266199911,154.45331040001474,154.4696585999336,154.4696585999336,154.4696585999336,155.95305870007724,right,1.0,27.251122300047427,,,,,,,,,,,,,,,,,,,,,,,,,,,,,,,sub-198,1.0,random_dot,60.02264057266915,
left,left,accuracy,,,,,0.0,0.0,0.0,0.0,12.0,1.0,25.0,0.0,155.96714990003966,,,,,,,,,155.95473159989342,156.06751909991726,156.88401619996876,156.8671371000819,156.86715790000744,156.88401619996876,156.88401619996876,156.88401619996876,158.08563650003634,right,0.0,26.966401000041515,,,,,,,,,,,,,,,,,,,,,,,,,,,,,,,sub-198,1.0,random_dot,60.02264057266915,
left,left,accuracy,,,,,0.0,0.0,0.0,0.0,13.0,0.0,26.0,0.0,158.09857039991766,,,,,,,,,158.08818780002184,158.4486080999486,159.26544320001267,159.24817740009166,159.24820140004158,159.26544320001267,159.26544320001267,159.26544320001267,161.89762710011564,right,0.0,28.400953399948776,,,,,,,,,,,,,,,,,,,,,,,,,,,,,,,sub-198,1.0,random_dot,60.02264057266915,
right,right,accuracy,,,,,0.0,0.0,0.0,0.0,13.0,1.0,27.0,1.0,161.91169340000488,,,,,,,,,161.89948490005918,162.01169120008126,162.81180500006303,162.79614629992284,162.79621229995973,162.81180500006303,162.81180500006303,162.81180500006303,164.2443725001067,left,0.0,27.192819599993527,,,,,,,,,,,,,,,,,,,,,,,,,,,,,,,sub-198,1.0,random_dot,60.02264057266915,
left,left,accuracy,,,,,0.0,0.0,0.0,0.0,14.0,0.0,28.0,0.0,164.2592482001055,,,,,,,,,164.2451462999452,164.35919429990463,165.15958840004168,165.14278550003655,165.14280949998647,165.15958840004168,165.15958840004168,165.15958840004168,168.25752849993296,right,0.0,28.859296799870208,,,,,,,,,,,,,,,,,,,,,,,,,,,,,,,sub-198,1.0,random_dot,60.02264057266915,
right,right,accuracy,,,,,0.0,0.0,0.0,0.0,14.0,1.0,29.0,1.0,168.2723930999637,,,,,,,,,168.2584804999642,169.47140290006064,170.27181669999845,170.25569580006413,170.25575969996862,170.27181669999845,170.27181669999845,170.27181669999845,172.42069509997964,right,1.0,27.916872599860653,,,,,,,,,,,,,,,,,,,,,,,,,,,,,,,sub-198,1.0,random_dot,60.02264057266915,
right,right,accuracy,,,,,0.0,0.0,0.0,0.0,15.0,0.0,30.0,1.0,172.43515380006284,,,,,,,,,172.42204919992946,173.2345070000738,174.0348896998912,174.01772910007276,174.01775799994357,174.0348896998912,174.0348896998912,174.0348896998912,174.6702431999147,left,0.0,26.40080359997228,,,,,,,,,,,,,,,,,,,,,,,,,,,,,,,sub-198,1.0,random_dot,60.02264057266915,
left,left,accuracy,,,,,0.0,0.0,0.0,0.0,15.0,1.0,31.0,0.0,174.6833520999644,,,,,,,,,174.67318890010938,175.0331691999454,175.8499068999663,175.83327700011432,175.83332070009783,175.8499068999663,175.8499068999663,175.8499068999663,176.8681733000558,right,0.0,26.776351999957114,,,,,,,,,,,,,,,,,,,,,,,,,,,,,,,sub-198,1.0,random_dot,60.02264057266915,
right,right,accuracy,,,,,0.0,0.0,0.0,0.0,16.0,0.0,32.0,1.0,176.88089799997397,,,,,,,,,176.87007530010305,177.23046170012094,178.03114639990963,178.01409259997308,178.0141110001132,178.03114639990963,178.03114639990963,178.03114639990963,179.31432719994336,right,1.0,27.05356679996476,,,,,,,,,,,,,,,,,,,,,,,,,,,,,,,sub-198,1.0,random_dot,60.02264057266915,
left,left,accuracy,,,,,0.0,0.0,0.0,0.0,16.0,1.0,33.0,0.0,179.32845779997297,,,,,,,,,179.31550149992108,179.4284938001074,180.22921549994496,180.21281099994667,180.21286930004132,180.22921549994496,180.22921549994496,180.22921549994496,182.22826869995333,right,0.0,27.768102600006387,,,,,,,,,,,,,,,,,,,,,,,,,,,,,,,sub-198,1.0,random_dot,60.02264057266915,
left,left,accuracy,,,,,0.0,0.0,0.0,0.0,17.0,0.0,34.0,0.0,182.24253559997305,,,,,,,,,182.2293185000308,182.5921974000521,183.3924265999813,183.37532999995165,183.37535100011155,183.3924265999813,183.3924265999813,183.3924265999813,185.47460540011525,left,1.0,27.849116099998355,,,,,,,,,,,,,,,,,,,,,,,,,,,,,,,sub-198,1.0,random_dot,60.02264057266915,
right,right,accuracy,,,,,0.0,0.0,0.0,0.0,17.0,1.0,35.0,1.0,185.48938759998416,,,,,,,,,185.47548900009133,186.6886402999517,187.50554420007396,187.48837690008804,187.48839300009425,187.50554420007396,187.50554420007396,187.50554420007396,188.8549883000087,right,1.0,27.105141500011086,,,,,,,,,,,,,,,,,,,,,,,,,,,,,,,sub-198,1.0,random_dot,60.02264057266915,
right,right,accuracy,,,,,0.0,0.0,0.0,0.0,18.0,0.0,36.0,1.0,188.86969469999892,,,,,,,,,188.85593750001863,190.06870390009132,190.88540320005268,190.86816009995528,190.86817499995232,190.88540320005268,190.88540320005268,190.88540320005268,191.71871439996173,right,1.0,26.591537199914452,,,,,,,,,,,,,,,,,,,,,,,,,,,,,,,sub-198,1.0,random_dot,60.02264057266915,
left,left,accuracy,,,,,0.0,0.0,0.0,0.0,18.0,1.0,37.0,0.0,191.73353759991005,,,,,,,,,191.71954050008208,192.0832022998948,192.88365609990436,192.86633819993585,192.86635469994508,192.88365609990436,192.88365609990436,192.88365609990436,193.9502244000323,left,1.0,26.82348369993269,,,,,,,,,,,,,,,,,,,,,,,,,,,,,,,sub-198,1.0,random_dot,60.02264057266915,
right,right,accuracy,,,,,0.0,0.0,0.0,0.0,19.0,0.0,38.0,1.0,193.9652144999709,,,,,,,,,193.9511041000951,194.31451219995503,195.11464389995672,195.09779540007003,195.09781630011275,195.11464389995672,195.11464389995672,195.11464389995672,196.91362360003404,right,1.0,27.56891669984907,,,,,,,,,,,,,,,,,,,,,,,,,,,,,,,sub-198,1.0,random_dot,60.02264057266915,
left,left,accuracy,,,,,0.0,0.0,0.0,0.0,19.0,1.0,39.0,0.0,196.92870520008728,,,,,,,,,196.91442980011925,197.2783242999576,198.0784682999365,198.0616335999221,198.06164640001955,198.0784682999365,198.0784682999365,198.0784682999365,199.4781843998935,left,1.0,27.16936880000867,,,,,,,,,,,,,,,,,,,,,,,,,,,,,,,sub-198,1.0,random_dot,60.02264057266915,
right,right,accuracy,,,,,0.0,0.0,0.0,0.0,20.0,0.0,40.0,1.0,199.4929011000786,,,,,,,,,199.47904499992728,200.6920376000926,201.5088122999296,201.4916614999529,201.49170230003077,201.5088122999296,201.5088122999296,201.5088122999296,204.05709769995883,left,0.0,28.311583200003952,,,,,,,,,,,,,,,,,,,,,,,,,,,,,,,sub-198,1.0,random_dot,60.02264057266915,
left,left,accuracy,,,,,0.0,0.0,0.0,0.0,20.0,1.0,41.0,0.0,204.07192860008217,,,,,,,,,204.0579486999195,204.1718908001203,204.97210779995655,204.95492510008623,204.9549408999737,204.97210779995655,204.97210779995655,204.97210779995655,206.62122850003647,right,0.0,27.41687830002047,,,,,,,,,,,,,,,,,,,,,,,,,,,,,,,sub-198,1.0,random_dot,60.02264057266915,
left,left,accuracy,,,,,0.0,0.0,0.0,0.0,21.0,0.0,42.0,0.0,206.6362381000072,,,,,,,,,206.62200980004852,207.83517020009455,208.63537940010428,208.6183986000251,208.6184241999872,208.63537940010428,208.63537940010428,208.63537940010428,210.4509527999908,left,1.0,27.575623399810866,,,,,,,,,,,,,,,,,,,,,,,,,,,,,,,sub-198,1.0,random_dot,60.02264057266915,
right,right,accuracy,,,,,0.0,0.0,0.0,0.0,21.0,1.0,43.0,1.0,210.465948499972,,,,,,,,,210.45171379996464,210.8156451000832,211.61627219989896,211.5986780000385,211.5986953000538,211.61627219989896,211.61627219989896,211.61627219989896,212.73230369994417,right,1.0,26.8718196998816,,,,,,,,,,,,,,,,,,,,,,,,,,,,,,,sub-198,1.0,random_dot,60.02264057266915,
left,left,accuracy,,,,,0.0,0.0,0.0,0.0,22.0,0.0,44.0,0.0,212.7487820000388,,,,,,,,,212.7331435000524,213.5464705999475,214.346996499924,214.32949090003967,214.32950520003212,214.346996499924,214.346996499924,214.346996499924,216.04586760001257,left,1.0,27.45982180000283,,,,,,,,,,,,,,,,,,,,,,,,,,,,,,,sub-198,1.0,random_dot,60.02264057266915,
right,right,accuracy,,,,,0.0,0.0,0.0,0.0,22.0,1.0,45.0,1.0,216.06077879993245,,,,,,,,,216.0466640999075,216.8600349999033,217.66027830005623,217.64302480011247,217.64303859998472,217.66027830005623,217.66027830005623,217.66027830005623,218.9931445000693,right,1.0,27.10055930004455,,,,,,,,,,,,,,,,,,,,,,,,,,,,,,,sub-198,1.0,random_dot,60.02264057266915,
right,right,accuracy,,,,,0.0,0.0,0.0,0.0,23.0,0.0,46.0,1.0,219.0079856000375,,,,,,,,,218.9940166999586,219.3576551000588,220.1580348999705,220.1408295999281,220.1408625000622,220.1580348999705,220.1580348999705,220.1580348999705,221.3750080999453,right,1.0,26.985760800074782,,,,,,,,,,,,,,,,,,,,,,,,,,,,,,,sub-198,1.0,random_dot,60.02264057266915,
left,left,accuracy,,,,,0.0,0.0,0.0,0.0,23.0,1.0,47.0,0.0,221.38913960009813,,,,,,,,,221.3768062000163,221.7388991001062,222.5391243000049,222.52192400000055,222.5219419000205,222.5391243000049,222.5391243000049,222.5391243000049,223.83875950006768,left,1.0,27.060653900029138,,,,,,,,,,,,,,,,,,,,,,,,,,,,,,,sub-198,1.0,random_dot,60.02264057266915,
right,right,accuracy,,,,,0.0,0.0,0.0,0.0,24.0,0.0,48.0,1.0,223.853391099954,,,,,,,,,223.83966800011692,223.95336139993745,224.75356310000643,224.7366726999171,224.7366941999644,224.75356310000643,224.75356310000643,224.75356310000643,225.9370174000505,right,1.0,26.941451200051237,,,,,,,,,,,,,,,,,,,,,,,,,,,,,,,sub-198,1.0,random_dot,60.02264057266915,
left,left,accuracy,,,,,0.0,0.0,0.0,0.0,24.0,1.0,49.0,0.0,225.9515041001141,,,,,,,,,225.93809340009463,226.30121700000015,227.10175730008632,227.08470200002196,227.0847434999887,227.10175730008632,227.10175730008632,227.10175730008632,228.10151889990084,left,1.0,26.75631209998392,,,,,,,,,,,,,,,,,,,,,,,,,,,,,,,sub-198,1.0,random_dot,60.02264057266915,
right,right,accuracy,,,,,0.0,0.0,0.0,0.0,25.0,0.0,50.0,1.0,228.11615490005352,,,,,,,,,228.1026268999558,229.3151257000864,230.1152852999512,230.0981626000721,230.09818019997329,230.1152852999512,230.1152852999512,230.1152852999512,231.4151089000516,right,1.0,27.063048199983317,,,,,,,,,,,,,,,,,,,,,,,,,,,,,,,sub-198,1.0,random_dot,60.02264057266915,
left,left,accuracy,,,,,0.0,0.0,0.0,0.0,25.0,1.0,51.0,0.0,231.42976960004307,,,,,,,,,231.41606110008436,231.5296889999881,232.32983710011467,232.3127536000684,232.31277079996653,232.32983710011467,232.32983710011467,232.32983710011467,233.8463401000481,right,0.0,27.27330029988661,,,,,,,,,,,,,,,,,,,,,,,,,,,,,,,sub-198,1.0,random_dot,60.02264057266915,
right,right,accuracy,,,,,0.0,0.0,0.0,0.0,26.0,0.0,52.0,1.0,233.8607795999851,,,,,,,,,233.8474280999508,234.2105171000585,235.010798699921,234.99361220002172,234.993637500098,235.010798699921,235.010798699921,235.010798699921,236.26054930011745,right,1.0,27.01181789999828,,,,,,,,,,,,,,,,,,,,,,,,,,,,,,,sub-198,1.0,random_dot,60.02264057266915,
left,left,accuracy,,,,,0.0,0.0,0.0,0.0,26.0,1.0,53.0,0.0,236.27527999994345,,,,,,,,,236.2613784999121,236.37516329996288,237.17552229994908,237.15891580004245,237.15893639996648,237.17552229994908,237.17552229994908,237.17552229994908,238.30851810006425,left,1.0,26.894686799962077,,,,,,,,,,,,,,,,,,,,,,,,,,,,,,,sub-198,1.0,random_dot,60.02264057266915,
left,left,accuracy,,,,,0.0,0.0,0.0,0.0,27.0,0.0,54.0,0.0,238.32334810006432,,,,,,,,,238.3093266999349,239.5222263999749,240.32252960000187,240.30557770002636,240.30559940007515,240.32252960000187,240.32252960000187,240.32252960000187,244.02105890004896,left,1.0,29.468056899961084,,,,,,,,,,,,,,,,,,,,,,,,,,,,,,,sub-198,1.0,random_dot,60.02264057266915,
right,right,accuracy,,,,,0.0,0.0,0.0,0.0,27.0,1.0,55.0,1.0,244.03465660009533,,,,,,,,,244.02233469998464,244.3843104999978,245.1844945000485,245.16794610000213,245.16798190004192,245.1844945000485,245.1844945000485,245.1844945000485,249.3160900999792,right,1.0,29.896255099913105,,,,,,,,,,,,,,,,,,,,,,,,,,,,,,,sub-198,1.0,random_dot,60.02264057266915,
right,right,accuracy,,,,,0.0,0.0,0.0,0.0,28.0,0.0,56.0,1.0,249.3297508000396,,,,,,,,,249.3186534000561,250.52869740012105,251.3287782999687,251.3117269999348,251.31174080003984,251.3287782999687,251.3287782999687,251.3287782999687,252.91136229992844,right,1.0,27.33813179982826,,,,,,,,,,,,,,,,,,,,,,,,,,,,,,,sub-198,1.0,random_dot,60.02264057266915,
left,left,accuracy,,,,,0.0,0.0,0.0,0.0,28.0,1.0,57.0,0.0,252.92679670010693,,,,,,,,,252.9121642000973,253.72553019993936,254.52575549995527,254.5087248000782,254.50874410010877,254.52575549995527,254.52575549995527,254.52575549995527,256.4079698000569,left,1.0,27.63783339993097,,,,,,,,,,,,,,,,,,,,,,,,,,,,,,,sub-198,1.0,random_dot,60.02264057266915,
left,left,accuracy,,,,,0.0,0.0,0.0,0.0,29.0,0.0,58.0,0.0,256.4230277999304,,,,,,,,,256.4087523999624,257.22226960002445,258.022444000002,258.005569800036,258.0055958000012,258.022444000002,258.022444000002,258.022444000002,259.3553317999467,right,0.0,27.094314199872315,,,,,,,,,,,,,,,,,,,,,,,,,,,,,,,sub-198,1.0,random_dot,60.02264057266915,
right,right,accuracy,,,,,0.0,0.0,0.0,0.0,29.0,1.0,59.0,1.0,259.3701849000063,,,,,,,,,259.35615890007466,260.56912850006483,261.3693896001205,261.3521511000581,261.35217380011454,261.3693896001205,261.3693896001205,261.3693896001205,262.9031396999489,right,1.0,27.2987089001108,,,,,,,,,,,,,,,,,,,,,,,,,,,,,,,sub-198,1.0,random_dot,60.02264057266915,
,,accuracy,,,,,0.0,0.0,0.0,0.0,,,,,,,,,,,,,,,,,,,,,,,,,,,,,,,,,,,,,,,,,,,,,,,,,,,,,,,,sub-198,1.0,random_dot,60.02264057266915,
left,left,speed,,,,,0.0,1.0,1.0,1.0,0.0,0.0,0.0,0.0,264.95299959997647,,,,,,,,,264.94877359992824,265.04850360006094,265.84878130001016,265.8315874999389,265.83160499995574,265.84878130001016,265.84878130001016,265.84878130001016,267.0485141999088,right,0.0,26.95487700006925,,,,,,,,,,,,,,,,,,,,262.90483490005136,262.92650859989226,262.92650859989226,264.93436569999903,space,27.775124799925837,,,,,,sub-198,1.0,random_dot,60.02264057266915,
right,right,speed,,,,,0.0,1.0,1.0,1.0,0.0,1.0,1.0,1.0,267.0629984999541,,,,,,,,,267.0496155999135,268.2619328000583,269.0624736999161,269.04521570005454,269.045241399901,269.0624736999161,269.0624736999161,269.0624736999161,269.7795265000313,right,1.0,26.476128899957985,,,,,,,,,,,,,,,,,,,,,,,,,,,,,,,sub-198,1.0,random_dot,60.02264057266915,
right,right,speed,,,,,0.0,1.0,1.0,1.0,1.0,0.0,2.0,1.0,269.79426199989393,,,,,,,,,269.7803356999066,269.89386099996045,270.69432640005834,270.6773353999015,270.6773514999077,270.69432640005834,270.69432640005834,270.69432640005834,271.4107623999007,right,1.0,26.483234399929643,,,,,,,,,,,,,,,,,,,,,,,,,,,,,,,sub-198,1.0,random_dot,60.02264057266915,
left,left,speed,,,,,0.0,1.0,1.0,1.0,1.0,1.0,3.0,0.0,271.4256039999891,,,,,,,,,271.41163369989954,272.6245025000535,273.4249577000737,273.4078981999773,273.40791790001094,273.4249577000737,273.4249577000737,273.4249577000737,273.99227709998377,right,0.0,26.322047300171107,,,,,,,,,,,,,,,,,,,,,,,,,,,,,,,sub-198,1.0,random_dot,60.02264057266915,
right,right,speed,,,,,0.0,1.0,1.0,1.0,2.0,0.0,4.0,1.0,274.0067928000353,,,,,,,,,273.99370200000703,274.8062154999934,275.60633399989456,275.58938880008645,275.5894063001033,275.60633399989456,275.60633399989456,275.60633399989456,276.25674539990723,left,0.0,26.419648500159383,,,,,,,,,,,,,,,,,,,,,,,,,,,,,,,sub-198,1.0,random_dot,60.02264057266915,
left,left,speed,,,,,0.0,1.0,1.0,1.0,2.0,1.0,5.0,0.0,276.2713391999714,,,,,,,,,276.2578829000704,277.47058070008643,278.28689089999534,278.2699114999268,278.2699331000913,278.28689089999534,278.28689089999534,278.28689089999534,279.1870677000843,left,1.0,26.66408420004882,,,,,,,,,,,,,,,,,,,,,,,,,,,,,,,sub-198,1.0,random_dot,60.02264057266915,
right,right,speed,,,,,0.0,1.0,1.0,1.0,3.0,0.0,6.0,1.0,279.2033009000588,,,,,,,,,279.18806990003213,280.40059489989653,281.2013938999735,281.1842801999301,281.1843214998953,281.2013938999735,281.2013938999735,281.2013938999735,281.83442410011776,right,1.0,26.399876500014216,,,,,,,,,,,,,,,,,,,,,,,,,,,,,,,sub-198,1.0,random_dot,60.02264057266915,
left,left,speed,,,,,0.0,1.0,1.0,1.0,3.0,1.0,7.0,0.0,281.8492042000871,,,,,,,,,281.8362342999317,282.1991968001239,282.9995144000277,282.98338439990766,282.9834322000388,282.9995144000277,282.9995144000277,282.9995144000277,283.58336360007524,left,1.0,26.34994040010497,,,,,,,,,,,,,,,,,,,,,,,,,,,,,,,sub-198,1.0,random_dot,60.02264057266915,
left,left,speed,,,,,0.0,1.0,1.0,1.0,4.0,0.0,8.0,0.0,283.5977914999239,,,,,,,,,283.5847179000266,283.69793200003915,284.51446219999343,284.4973949000705,284.4974126999732,284.51446219999343,284.51446219999343,284.51446219999343,285.34788589994423,left,1.0,26.594658399932086,,,,,,,,,,,,,,,,,,,,,,,,,,,,,,,sub-198,1.0,random_dot,60.02264057266915,
right,right,speed,,,,,0.0,1.0,1.0,1.0,4.0,1.0,9.0,1.0,285.3627879000269,,,,,,,,,285.34868640010245,286.5614716000855,287.3617175999097,287.3445717000868,287.3445876000915,287.3617175999097,287.3617175999097,287.3617175999097,287.9953328000847,left,0.0,26.400481999851763,,,,,,,,,,,,,,,,,,,,,,,,,,,,,,,sub-198,1.0,random_dot,60.02264057266915,
right,right,speed,,,,,0.0,1.0,1.0,1.0,5.0,0.0,10.0,1.0,288.0101059000008,,,,,,,,,287.9962941999547,289.2090185000561,290.0093827000819,289.9921578001231,289.9921899000183,290.0093827000819,290.0093827000819,290.0093827000819,290.62624850007705,right,1.0,26.38018549978733,,,,,,,,,,,,,,,,,,,,,,,,,,,,,,,sub-198,1.0,random_dot,60.02264057266915,
left,left,speed,,,,,0.0,1.0,1.0,1.0,5.0,1.0,11.0,0.0,290.6412533000112,,,,,,,,,290.62705589993857,291.4407623000443,292.25728329992853,292.24010979989544,292.2401306000538,292.25728329992853,292.25728329992853,292.25728329992853,292.8911943000276,right,0.0,26.389666399918497,,,,,,,,,,,,,,,,,,,,,,,,,,,,,,,sub-198,1.0,random_dot,60.02264057266915,
left,left,speed,,,,,0.0,1.0,1.0,1.0,6.0,0.0,12.0,0.0,292.9055645000189,,,,,,,,,292.8923496999778,294.10452629998326,294.9050861999858,294.8887901999988,294.88883650000207,294.9050861999858,294.9050861999858,294.9050861999858,295.4887918001041,right,0.0,26.34288450004533,,,,,,,,,,,,,,,,,,,,,,,,,,,,,,,sub-198,1.0,random_dot,60.02264057266915,
right,right,speed,,,,,0.0,1.0,1.0,1.0,6.0,1.0,13.0,1.0,295.50327889993787,,,,,,,,,295.4900843000505,295.6033497999888,296.4033379999455,296.38658039993607,296.38661099993624,296.4033379999455,296.4033379999455,296.4033379999455,297.18662520009093,right,1.0,26.542294200044125,,,,,,,,,,,,,,,,,,,,,,,,,,,,,,,sub-198,1.0,random_dot,60.02264057266915,
left,left,speed,,,,,0.0,1.0,1.0,1.0,7.0,0.0,14.0,0.0,297.2023112000897,,,,,,,,,297.18740619998425,298.4004281000234,299.20096040004864,299.18450119998306,299.1845392000396,299.20096040004864,299.20096040004864,299.20096040004864,299.6521924000699,right,0.0,26.219441899796948,,,,,,,,,,,,,,,,,,,,,,,,,,,,,,,sub-198,1.0,random_dot,60.02264057266915,
right,right,speed,,,,,0.0,1.0,1.0,1.0,7.0,1.0,15.0,1.0,299.66637800005265,,,,,,,,,299.65360520011745,300.86469410010614,301.6651506999042,301.6477109999396,301.6477240000386,301.6651506999042,301.6651506999042,301.6651506999042,302.1986014998984,right,1.0,26.292698400095105,,,,,,,,,,,,,,,,,,,,,,,,,,,,,,,sub-198,1.0,random_dot,60.02264057266915,
right,right,speed,,,,,0.0,1.0,1.0,1.0,8.0,0.0,16.0,1.0,302.2136494999286,,,,,,,,,302.1993966998998,302.56315369997174,303.3634806999471,303.34624890005216,303.34626309992746,303.3634806999471,303.3634806999471,303.3634806999471,304.0680112000555,left,0.0,26.46979160001501,,,,,,,,,,,,,,,,,,,,,,,,,,,,,,,sub-198,1.0,random_dot,60.02264057266915,
left,left,speed,,,,,0.0,1.0,1.0,1.0,8.0,1.0,17.0,0.0,304.0786182999145,,,,,,,,,304.06884360010736,304.1784969998989,304.978598699905,304.9616666999645,304.9616884998977,304.978598699905,304.978598699905,304.978598699905,305.52895929990336,left,1.0,26.31293040001765,,,,,,,,,,,,,,,,,,,,,,,,,,,,,,,sub-198,1.0,random_dot,60.02264057266915,
right,right,speed,,,,,0.0,1.0,1.0,1.0,9.0,0.0,18.0,1.0,305.54389260010794,,,,,,,,,305.5302043999545,306.74287680001,307.5429521999322,307.5256421000231,307.52565720002167,307.5429521999322,307.5429521999322,307.5429521999322,308.1099392999895,left,0.0,26.32515690010041,,,,,,,,,,,,,,,,,,,,,,,,,,,,,,,sub-198,1.0,random_dot,60.02264057266915,
left,left,speed,,,,,0.0,1.0,1.0,1.0,9.0,1.0,19.0,0.0,308.1246889999602,,,,,,,,,308.11095199990086,308.4742610999383,309.2748968999367,309.2577404000331,309.2577780999709,309.2748968999367,309.2748968999367,309.2748968999367,309.8248699000105,left,1.0,26.307673300150785,,,,,,,,,,,,,,,,,,,,,,,,,,,,,,,sub-198,1.0,random_dot,60.02264057266915,
right,right,speed,,,,,0.0,1.0,1.0,1.0,10.0,0.0,20.0,1.0,309.8396324000787,,,,,,,,,309.82568460004404,310.1893482999876,310.98972920002416,310.97233729995787,310.97235159995034,310.98972920002416,310.98972920002416,310.98972920002416,311.5244845999405,right,1.0,26.303336299955845,,,,,,,,,,,,,,,,,,,,,,,,,,,,,,,sub-198,1.0,random_dot,60.02264057266915,
left,left,speed,,,,,0.0,1.0,1.0,1.0,10.0,1.0,21.0,0.0,311.53822820005007,,,,,,,,,311.52657010010444,311.644569600001,312.4550181000959,312.43764630006626,312.4376618999522,312.4550181000959,312.4550181000959,312.4550181000959,313.40508430008776,right,0.0,26.709862099960446,,,,,,,,,,,,,,,,,,,,,,,,,,,,,,,sub-198,1.0,random_dot,60.02264057266915,
right,right,speed,,,,,0.0,1.0,1.0,1.0,11.0,0.0,22.0,1.0,313.4196824999526,,,,,,,,,313.4061634000391,314.21921869996004,315.03580190008506,315.0188599000685,315.0188812999986,315.03580190008506,315.03580190008506,315.03580190008506,315.536509500118,right,1.0,26.26917869993485,,,,,,,,,,,,,,,,,,,,,,,,,,,,,,,sub-198,1.0,random_dot,60.02264057266915,
left,left,speed,,,,,0.0,1.0,1.0,1.0,11.0,1.0,23.0,0.0,315.55182900000364,,,,,,,,,315.5374994999729,316.7498631000053,317.5500441000331,317.53345760004595,317.53349409997463,317.5500441000331,317.5500441000331,317.5500441000331,318.15059689991176,right,0.0,26.35722320014611,,,,,,,,,,,,,,,,,,,,,,,,,,,,,,,sub-198,1.0,random_dot,60.02264057266915,
right,right,speed,,,,,0.0,1.0,1.0,1.0,12.0,0.0,24.0,1.0,318.1652154000476,,,,,,,,,318.1515526000876,318.9646602999419,319.7648970000446,319.7476574999746,319.7476745999884,319.7648970000446,319.7648970000446,319.7648970000446,320.28172979992814,left,0.0,26.277032600017264,,,,,,,,,,,,,,,,,,,,,,,,,,,,,,,sub-198,1.0,random_dot,60.02264057266915,
left,left,speed,,,,,0.0,1.0,1.0,1.0,12.0,1.0,25.0,0.0,320.29673509998247,,,,,,,,,320.2828218000941,320.401734800078,321.21334949997254,321.1961803000886,321.19619600009173,321.21334949997254,321.21334949997254,321.21334949997254,321.8636682999786,left,1.0,26.416864599799737,,,,,,,,,,,,,,,,,,,,,,,,,,,,,,,sub-198,1.0,random_dot,60.02264057266915,
left,left,speed,,,,,0.0,1.0,1.0,1.0,13.0,0.0,26.0,0.0,321.8783943001181,,,,,,,,,321.864634900121,322.22810019995086,323.0282622000668,323.0110673001036,323.0110810000915,323.0282622000668,323.0282622000668,323.0282622000668,323.66251980001107,left,1.0,26.399567799875516,,,,,,,,,,,,,,,,,,,,,,,,,,,,,,,sub-198,1.0,random_dot,60.02264057266915,
right,right,speed,,,,,0.0,1.0,1.0,1.0,13.0,1.0,27.0,1.0,323.6767545999028,,,,,,,,,323.6638885999564,323.77672170009464,324.5771626001224,324.5597955000121,324.55982409999706,324.5771626001224,324.5771626001224,324.5771626001224,325.4602950999979,right,1.0,26.639901400078088,,,,,,,,,,,,,,,,,,,,,,,,,,,,,,,sub-198,1.0,random_dot,60.02264057266915,
right,right,speed,,,,,0.0,1.0,1.0,1.0,14.0,0.0,28.0,1.0,325.4752299000975,,,,,,,,,325.4612586000003,325.82472370006144,326.6249442000408,326.6081948999781,326.60821059998125,326.6249442000408,326.6249442000408,326.6249442000408,327.19227880006656,left,0.0,26.32378250011243,,,,,,,,,,,,,,,,,,,,,,,,,,,,,,,sub-198,1.0,random_dot,60.02264057266915,
left,left,speed,,,,,0.0,1.0,1.0,1.0,14.0,1.0,29.0,0.0,327.2067255000584,,,,,,,,,327.19319469993934,327.3068794000428,328.1068965001032,328.08976990007795,328.08978569996543,328.1068965001032,328.1068965001032,328.1068965001032,328.9071947999764,left,1.0,26.564765699906275,,,,,,,,,,,,,,,,,,,,,,,,,,,,,,,sub-198,1.0,random_dot,60.02264057266915,
right,right,speed,,,,,0.0,1.0,1.0,1.0,15.0,0.0,30.0,1.0,328.9218144000042,,,,,,,,,328.90829819999635,329.0218148001004,329.8220265998971,329.8051601999905,329.805183700053,329.8220265998971,329.8220265998971,329.8220265998971,330.4388399999589,right,1.0,26.381974100135267,,,,,,,,,,,,,,,,,,,,,,,,,,,,,,,sub-198,1.0,random_dot,60.02264057266915,
left,left,speed,,,,,0.0,1.0,1.0,1.0,15.0,1.0,31.0,0.0,330.453713899944,,,,,,,,,330.4396418998949,330.5537288999185,331.35405649989843,331.33724400005303,331.33726980001666,331.35405649989843,331.35405649989843,331.35405649989843,332.08744599996135,left,1.0,26.49790389998816,,,,,,,,,,,,,,,,,,,,,,,,,,,,,,,sub-198,1.0,random_dot,60.02264057266915,
right,right,speed,,,,,0.0,1.0,1.0,1.0,16.0,0.0,32.0,1.0,332.1025898999069,,,,,,,,,332.08830710011534,332.90189499990083,333.7187125000637,333.70167450001463,333.70170060009696,333.7187125000637,333.7187125000637,333.7187125000637,334.0691142999567,right,1.0,26.11905639991164,,,,,,,,,,,,,,,,,,,,,,,,,,,,,,,sub-198,1.0,random_dot,60.02264057266915,
left,left,speed,,,,,0.0,1.0,1.0,1.0,16.0,1.0,33.0,0.0,334.0837260000408,,,,,,,,,334.06994449999183,334.433559600031,335.2337847999297,335.2173329000361,335.2173772000242,335.2337847999297,335.2337847999297,335.2337847999297,335.80252599995583,left,1.0,26.326124100014567,,,,,,,,,,,,,,,,,,,,,,,,,,,,,,,sub-198,1.0,random_dot,60.02264057266915,
right,right,speed,,,,,0.0,1.0,1.0,1.0,17.0,0.0,34.0,1.0,335.8157967000734,,,,,,,,,335.8049119999632,337.01488210004754,337.83132690005004,337.8149389999453,337.8149741999805,337.83132690005004,337.83132690005004,337.83132690005004,338.19897749996744,right,1.0,26.132564399857078,,,,,,,,,,,,,,,,,,,,,,,,,,,,,,,sub-198,1.0,random_dot,60.02264057266915,
left,left,speed,,,,,0.0,1.0,1.0,1.0,17.0,1.0,35.0,0.0,338.2134555000812,,,,,,,,,338.20024339994416,338.5632193000056,339.3636006999295,339.3470459000673,339.3470890999306,339.3636006999295,339.3636006999295,339.3636006999295,340.24868039996363,right,0.0,26.653219499858096,,,,,,,,,,,,,,,,,,,,,,,,,,,,,,,sub-198,1.0,random_dot,60.02264057266915,
right,right,speed,,,,,0.0,1.0,1.0,1.0,18.0,0.0,36.0,1.0,340.26154320011847,,,,,,,,,340.25130330002867,340.36202159989625,341.1782251999248,341.1618802000303,341.1619172000792,341.1782251999248,341.1782251999248,341.1782251999248,341.89511770009995,right,1.0,26.48157320008613,,,,,,,,,,,,,,,,,,,,,,,,,,,,,,,sub-198,1.0,random_dot,60.02264057266915,
left,left,speed,,,,,0.0,1.0,1.0,1.0,18.0,1.0,37.0,0.0,341.9096880001016,,,,,,,,,341.89656309993006,342.00957300001755,342.81026989989914,342.7929255999625,342.7929479999002,342.81026989989914,342.81026989989914,342.81026989989914,343.62688190001063,left,1.0,26.572419499978423,,,,,,,,,,,,,,,,,,,,,,,,,,,,,,,sub-198,1.0,random_dot,60.02264057266915,
left,left,speed,,,,,0.0,1.0,1.0,1.0,19.0,0.0,38.0,0.0,343.64146650000475,,,,,,,,,343.62767349998467,343.9914897000417,344.8100880999118,344.7908495001029,344.7908757000696,344.8100880999118,344.8100880999118,344.8100880999118,345.7253312000539,left,1.0,26.67014870001003,,,,,,,,,,,,,,,,,,,,,,,,,,,,,,,sub-198,1.0,random_dot,60.02264057266915,
right,right,speed,,,,,0.0,1.0,1.0,1.0,19.0,1.0,39.0,1.0,345.7395977000706,,,,,,,,,345.72630929993466,346.53909109998494,347.35576390009373,347.33906019991264,347.339085200103,347.35576390009373,347.35576390009373,347.35576390009373,348.52274450007826,right,1.0,26.931471900083125,,,,,,,,,,,,,,,,,,,,,,,,,,,,,,,sub-198,1.0,random_dot,60.02264057266915,
right,right,speed,,,,,0.0,1.0,1.0,1.0,20.0,0.0,40.0,1.0,348.53727019997314,,,,,,,,,348.5242312999908,349.73563089990057,350.5358893000521,350.51923869992606,350.5192642000038,350.5358893000521,350.5358893000521,350.5358893000521,351.6525008000899,right,1.0,26.881093899952248,,,,,,,,,,,,,,,,,,,,,,,,,,,,,,,sub-198,1.0,random_dot,60.02264057266915,
left,left,speed,,,,,0.0,1.0,1.0,1.0,20.0,1.0,41.0,0.0,351.66735569993034,,,,,,,,,351.6533192000352,351.76738189999014,352.5680472999811,352.5520782000385,352.5521392999217,352.5680472999811,352.5680472999811,352.5680472999811,353.667577000102,right,0.0,26.854857099941,,,,,,,,,,,,,,,,,,,,,,,,,,,,,,,sub-198,1.0,random_dot,60.02264057266915,
left,left,speed,,,,,0.0,1.0,1.0,1.0,21.0,0.0,42.0,0.0,353.6819853000343,,,,,,,,,353.6686817998998,354.481269299984,355.2815861001145,355.26434240001254,355.26435839990154,355.2815861001145,355.2815861001145,355.2815861001145,355.9654830000364,left,1.0,26.439527800073847,,,,,,,,,,,,,,,,,,,,,,,,,,,,,,,sub-198,1.0,random_dot,60.02264057266915,
right,right,speed,,,,,0.0,1.0,1.0,1.0,21.0,1.0,43.0,1.0,355.98006420000456,,,,,,,,,355.9663353001233,357.17913990002126,357.9792967000976,357.962143199984,357.96216339990497,357.9792967000976,357.9792967000976,357.9792967000976,358.7795047000982,right,1.0,26.56549459998496,,,,,,,,,,,,,,,,,,,,,,,,,,,,,,,sub-198,1.0,random_dot,60.02264057266915,
right,right,speed,,,,,0.0,1.0,1.0,1.0,22.0,0.0,44.0,1.0,358.79387210006826,,,,,,,,,358.78032099991105,359.14370370004326,359.94402669998817,359.9273034001235,359.927332600113,359.94402669998817,359.94402669998817,359.94402669998817,360.876958000008,right,1.0,26.6935934999492,,,,,,,,,,,,,,,,,,,,,,,,,,,,,,,sub-198,1.0,random_dot,60.02264057266915,
left,left,speed,,,,,0.0,1.0,1.0,1.0,22.0,1.0,45.0,0.0,360.8920205999166,,,,,,,,,360.8777682001237,361.2418333000969,362.0585727998987,362.04126650001854,362.0412818000186,362.0585727998987,362.0585727998987,362.0585727998987,363.0587387001142,right,0.0,26.76402290002443,,,,,,,,,,,,,,,,,,,,,,,,,,,,,,,sub-198,1.0,random_dot,60.02264057266915,
right,right,speed,,,,,0.0,1.0,1.0,1.0,23.0,0.0,46.0,1.0,363.0735881999135,,,,,,,,,363.0597800998949,363.1781349999365,363.9900038000196,363.9728310001083,363.9728484998923,363.9900038000196,363.9900038000196,363.9900038000196,364.8733256999403,right,1.0,26.652975599979985,,,,,,,,,,,,,,,,,,,,,,,,,,,,,,,sub-198,1.0,random_dot,60.02264057266915,
left,left,speed,,,,,0.0,1.0,1.0,1.0,23.0,1.0,47.0,0.0,364.8881035998929,,,,,,,,,364.8742837999016,365.23787000007,366.0385936000384,366.0214945001062,366.02153289993294,366.0385936000384,366.0385936000384,366.0385936000384,366.85638989997096,left,1.0,26.5872498000972,,,,,,,,,,,,,,,,,,,,,,,,,,,,,,,sub-198,1.0,random_dot,60.02264057266915,
left,left,speed,,,,,0.0,1.0,1.0,1.0,24.0,0.0,48.0,0.0,366.8709646000061,,,,,,,,,366.858881500084,366.9696692000143,367.7700751998928,367.75295239989646,367.7529827998951,367.7700751998928,367.7700751998928,367.7700751998928,368.7200690000318,left,1.0,26.70818409998901,,,,,,,,,,,,,,,,,,,,,,,,,,,,,,,sub-198,1.0,random_dot,60.02264057266915,
right,right,speed,,,,,0.0,1.0,1.0,1.0,24.0,1.0,49.0,1.0,368.7345503000543,,,,,,,,,368.7211633000989,369.534103400074,370.3344493999612,370.3170974000823,370.3171115000732,370.3344493999612,370.3344493999612,370.3344493999612,370.93428890011273,right,1.0,26.359331499785185,,,,,,,,,,,,,,,,,,,,,,,,,,,,,,,sub-198,1.0,random_dot,60.02264057266915,
right,right,speed,,,,,0.0,1.0,1.0,1.0,25.0,0.0,50.0,1.0,370.9490906998981,,,,,,,,,370.9351488999091,371.7484446999151,372.5485519999638,372.53157819993794,372.5315956999548,372.5485519999638,372.5485519999638,372.5485519999638,373.3320400998928,right,1.0,26.545443099923432,,,,,,,,,,,,,,,,,,,,,,,,,,,,,,,sub-198,1.0,random_dot,60.02264057266915,
left,left,speed,,,,,0.0,1.0,1.0,1.0,25.0,1.0,51.0,0.0,373.3468446000479,,,,,,,,,373.3328335999977,374.1461352000479,374.9469010001048,374.9294104001019,374.9294263999909,374.9469010001048,374.9469010001048,374.9469010001048,375.6807784000412,right,0.0,26.497006899910048,,,,,,,,,,,,,,,,,,,,,,,,,,,,,,,sub-198,1.0,random_dot,60.02264057266915,
right,right,speed,,,,,0.0,1.0,1.0,1.0,26.0,0.0,52.0,1.0,375.69483190006576,,,,,,,,,375.6827185000293,375.79462939989753,376.5950054000132,376.578181900084,376.5782095999457,376.5950054000132,376.5950054000132,376.5950054000132,377.827998300083,right,1.0,26.99642589990981,,,,,,,,,,,,,,,,,,,,,,,,,,,,,,,sub-198,1.0,random_dot,60.02264057266915,
left,left,speed,,,,,0.0,1.0,1.0,1.0,26.0,1.0,53.0,0.0,377.8426884000655,,,,,,,,,377.8291909000836,377.9425784000196,378.7429969999939,378.7260280000046,378.7260471000336,378.7429969999939,378.7429969999939,378.7429969999939,380.0259589999914,left,1.0,27.041559799807143,,,,,,,,,,,,,,,,,,,,,,,,,,,,,,,sub-198,1.0,random_dot,60.02264057266915,
left,left,speed,,,,,0.0,1.0,1.0,1.0,27.0,0.0,54.0,0.0,380.0409695999697,,,,,,,,,380.0267286999151,380.3903805001173,381.1908984999173,381.1734229000285,381.1734388000332,381.1908984999173,381.1908984999173,381.1908984999173,381.8408456000034,left,1.0,26.40648079989478,,,,,,,,,,,,,,,,,,,,,,,,,,,,,,,sub-198,1.0,random_dot,60.02264057266915,
right,right,speed,,,,,0.0,1.0,1.0,1.0,27.0,1.0,55.0,1.0,381.8560538999736,,,,,,,,,381.8417183000129,383.05493160011247,383.8718666001223,383.8542772000656,383.85430460004136,383.8718666001223,383.8718666001223,383.8718666001223,384.70501670008525,right,1.0,26.589229399804022,,,,,,,,,,,,,,,,,,,,,,,,,,,,,,,sub-198,1.0,random_dot,60.02264057266915,
left,left,speed,,,,,0.0,1.0,1.0,1.0,28.0,0.0,56.0,0.0,384.71958349994384,,,,,,,,,384.70594220003113,384.819633499952,385.6202394999564,385.6030532000586,385.60307099996135,385.6202394999564,385.6202394999564,385.6202394999564,386.6863645000849,left,1.0,26.836419299943373,,,,,,,,,,,,,,,,,,,,,,,,,,,,,,,sub-198,1.0,random_dot,60.02264057266915,
right,right,speed,,,,,0.0,1.0,1.0,1.0,28.0,1.0,57.0,1.0,386.7011037999764,,,,,,,,,386.6871635999996,387.5005399999209,388.3005313000176,388.28348600002937,388.2835093000904,388.3005313000176,388.3005313000176,388.3005313000176,389.4176125999074,right,1.0,26.885120199993253,,,,,,,,,,,,,,,,,,,,,,,,,,,,,,,sub-198,1.0,random_dot,60.02264057266915,
right,right,speed,,,,,0.0,1.0,1.0,1.0,29.0,0.0,58.0,1.0,389.43189819995314,,,,,,,,,389.41874710004777,390.6311431000941,391.4309900999069,391.41635160008445,391.41636630008,391.4309900999069,391.4309900999069,391.4309900999069,392.2480200000573,right,1.0,26.57480919989757,,,,,,,,,,,,,,,,,,,,,,,,,,,,,,,sub-198,1.0,random_dot,60.02264057266915,
left,left,speed,,,,,0.0,1.0,1.0,1.0,29.0,1.0,59.0,0.0,392.26260220003314,,,,,,,,,392.2488500999752,392.6125348999631,393.429051999934,393.4119935999624,393.41202570009045,393.429051999934,393.429051999934,393.429051999934,394.62871719989926,right,0.0,26.96449470007792,,,,,,,,,,,,,,,,,,,,,,,,,,,,,,,sub-198,1.0,random_dot,60.02264057266915,
,,speed,,,,,0.0,1.0,1.0,1.0,,,,,,,,,,,,,,,,,,,,,,,,,,,,,,,,,,,,,,,,,,,,,,,,,,,,,,,,sub-198,1.0,random_dot,60.02264057266915,
,,,,,,,,,,,,,,,,,,,,,,,,,,,,,,,,,,,,,,,,,,,,,,,,,,,,,,,,,,,,,,,394.6293194000609,394.6437852999661,399.6391976000741,sub-198,,,,
