direction,corrAns,randomInstr,practice_trials.thisRepN,practice_trials.thisTrialN,practice_trials.thisN,practice_trials.thisIndex,instr_trials.thisRepN,instr_trials.thisTrialN,instr_trials.thisN,instr_trials.thisIndex,test_trials.thisRepN,test_trials.thisTrialN,test_trials.thisN,test_trials.thisIndex,thisRow.t,notes,general_instruction.started,textGeneralInstr.started,respGeneralInstr.started,general_instruction.stopped,respGeneralInstr.keys,respGeneralInstr.rt,respGeneralInstr.duration,ITI.started,fixcross.started,fixcross.stopped,ITI.stopped,dots.started,backgroundDots.started,stimulusDots.started,respDots.started,stimulusDots.stopped,dots.stopped,respDots.keys,respDots.corr,respDots.rt,respDots.duration,feedback.started,textFeedback.started,feedback.stopped,textFeedback.stopped,info.started,textInfo.started,keyRespInfo.started,info.stopped,keyRespInfo.keys,keyRespInfo.rt,keyRespInfo.duration,test_instruction.started,textTestInstr.started,respTestInstr.started,test_instruction.stopped,respTestInstr.keys,respTestInstr.rt,respTestInstr.duration,random_instruction.started,textRandomInstr.started,respRandomInstr.started,random_instruction.stopped,respRandomInstr.keys,respRandomInstr.rt,respRandomInstr.duration,goodbye.started,textGoodbye.started,textGoodbye.stopped,goodbye.stopped,participant,session,expName,frameRate,Unnamed: 74
,,,,,,,,,,,,,,,,,1.434102199971676,1.4473923000041395,1.4473923000041395,24.609170299954712,space,38.26576410024427,,,,,,,,,,,,,,,,,,,,,,,,,,,,,,,,,,,,,,,,,,,,,sub-083,1.0,random_dot,60.03186493290544,
right,right,,0.0,0.0,0.0,1.0,,,,,,,,,24.65191819984466,,,,,,,,,24.646665999898687,25.422959999879826,26.224073600023985,26.207521199947223,26.20756240002811,26.224073600023985,26.224073600023985,26.224073600023985,31.20717309997417,35.02632319997065,right,1.0,23.903919800184667,,35.02857859991491,35.04641569987871,35.53968179994263,,,,,,,,,,,,,,,,,,,,,,,,,,,sub-083,1.0,random_dot,60.03186493290544,
left,left,,0.0,1.0,1.0,0.0,,,,,,,,,35.55625270004384,,,,,,,,,35.54034289997071,35.889466600026935,36.69053340004757,36.67401949991472,36.67406139988452,36.69053340004757,36.69053340004757,36.69053340004757,41.67382639995776,42.592914999928325,left,1.0,21.015497100073844,,42.593735199887305,42.60615590005182,43.09069560002536,43.10595420002937,,,,,,,,,,,,,,,,,,,,,,,,,,sub-083,1.0,random_dot,60.03186493290544,
left,left,,1.0,0.0,2.0,0.0,,,,,,,,,43.10595420002937,,,,,,,,,43.09135750005953,43.20614459994249,44.00716309994459,43.99048010003753,43.990520199993625,44.00716309994459,44.00716309994459,44.00716309994459,48.99021889991127,49.40897420002148,left,1.0,20.50937890028581,,49.40981499990448,49.422814700054005,49.90713229984976,49.922738699940965,,,,,,,,,,,,,,,,,,,,,,,,,,sub-083,1.0,random_dot,60.03186493290544,
right,right,,1.0,1.0,3.0,1.0,,,,,,,,,49.922738699940965,,,,,,,,,49.90770639991388,50.022549599874765,50.823646100005135,50.80735410004854,50.807394499890506,50.823646100005135,50.823646100005135,50.823646100005135,,53.70960419997573,right,1.0,18.000674000242725,,53.71036610007286,53.72260209987871,54.20674149994738,54.22235609986819,,,,,,,,,,,,,,,,,,,,,,,,,,sub-083,1.0,random_dot,60.03186493290544,
left,left,,2.0,0.0,4.0,0.0,,,,,,,,,54.22235609986819,,,,,,,,,54.20733130001463,54.322577599901706,55.12342239986174,55.10712349996902,55.10716610006057,55.12342239986174,55.12342239986174,55.12342239986174,,55.941717699868605,left,1.0,15.920978700043634,,55.94232099992223,55.95606980007142,56.44050240004435,56.45590649987571,,,,,,,,,,,,,,,,,,,,,,,,,,sub-083,1.0,random_dot,60.03186493290544,
right,right,,2.0,1.0,5.0,1.0,,,,,,,,,56.45590649987571,,,,,,,,,56.4411853000056,57.25570790003985,58.0565344998613,58.039953500032425,58.040032600052655,58.0565344998613,58.0565344998613,58.0565344998613,,58.9081414998509,right,1.0,15.954561100108547,,58.9088810000103,58.92225049994886,59.40671629994176,59.42248860001564,,,,,,,,,,,,,,,,,,,,,,,,,,sub-083,1.0,random_dot,60.03186493290544,
right,right,,3.0,0.0,6.0,1.0,,,,,,,,,59.42248860001564,,,,,,,,,59.40727930003777,60.22214929992333,61.14973869989626,61.006854800041765,61.00689099985175,61.14973869989626,61.14973869989626,61.14973869989626,,64.46070050005801,right,1.0,18.42590790009126,,64.46150740003213,64.47232629987411,64.95665209996514,64.9724594000727,,,,,,,,,,,,,,,,,,,,,,,,,,sub-083,1.0,random_dot,60.03186493290544,
left,left,,3.0,1.0,7.0,0.0,,,,,,,,,64.9724594000727,,,,,,,,,64.95727250003256,66.17261929996312,66.97312109987251,66.95685159997083,66.95693990006112,66.97312109987251,66.97312109987251,66.97312109987251,,69.32529449998401,left,1.0,17.465638500172645,,69.32610139995813,69.33904800005257,69.82350489986129,69.83888299996033,,,,,,,,,,,,,,,,,,,,,,,,,,sub-083,1.0,random_dot,60.03186493290544,
left,left,,4.0,0.0,8.0,0.0,,,,,,,,,69.83888299996033,,,,,,,,,69.82415540004149,71.03903819993138,71.83973949984647,71.82339480007067,71.8234357999172,71.83973949984647,71.83973949984647,71.83973949984647,,75.60703299986199,left,1.0,18.87075330014341,,75.60737639991567,75.62228289991617,76.10698330006562,76.12232919991948,,,,,,,,,,,,,,,,,,,,,,,,,,sub-083,1.0,random_dot,60.03186493290544,
right,right,,4.0,1.0,9.0,1.0,,,,,,,,,76.12232919991948,,,,,,,,,76.10762819997035,77.32239250000566,78.12328749988228,78.10678109992296,78.10682199988514,78.12328749988228,78.12328749988228,78.12328749988228,,79.0585240998771,right,1.0,16.04488950013183,,79.05929709994234,79.07230159989558,79.55685729999095,79.57199299987406,,,,,,,,,,,,,,,,,,,,,,,,,,sub-083,1.0,random_dot,60.03186493290544,
left,left,,5.0,0.0,10.0,0.0,,,,,,,,,79.57199299987406,,,,,,,,,79.5574834998697,80.37218319997191,81.17275059991516,81.15674140001647,81.15678299986757,81.17275059991516,81.17275059991516,81.17275059991516,,81.94186610006727,left,1.0,15.87374039995484,,81.94253779994324,81.95527869998477,82.44003980001435,82.45561269996688,,,,,,,,,,,,,,,,,,,,,,,,,,sub-083,1.0,random_dot,60.03186493290544,
right,right,,5.0,1.0,11.0,1.0,,,,,,,,,82.45561269996688,,,,,,,,,82.44072779989801,82.80560719990171,83.60618150001392,83.59003479988314,83.5901136000175,83.60618150001392,83.60618150001392,83.60618150001392,,84.29176429985091,right,1.0,15.79334570025094,,84.292626200011,84.30548239988275,84.789440699853,84.80503270006739,,,,,,,,,,,,,,,,,,,,,,,,,,sub-083,1.0,random_dot,60.03186493290544,
left,left,,6.0,0.0,12.0,0.0,,,,,,,,,84.80503270006739,,,,,,,,,84.78999349987134,86.0052972000558,86.8060594999697,86.78872679988854,86.78874059999362,86.8060594999697,86.8060594999697,86.8060594999697,,87.8918732998427,left,1.0,16.194542899960652,,87.89256289997138,87.90546169993468,88.38980209990405,88.40515169990249,,,,,,,,,,,,,,,,,,,,,,,,,,sub-083,1.0,random_dot,60.03186493290544,
right,right,,6.0,1.0,13.0,1.0,,,,,,,,,88.40515169990249,,,,,,,,,88.39048819988966,89.60524039994925,90.40623739990406,90.38967949990185,90.38971809996292,90.40623739990406,90.40623739990406,90.40623739990406,,91.62505849986336,right,1.0,16.324661300051957,,91.62595429993236,91.63876460003668,92.12314759986477,92.13866219995543,,,,,,,,,,,,,,,,,,,,,,,,,,sub-083,1.0,random_dot,60.03186493290544,
left,left,,7.0,0.0,14.0,0.0,,,,,,,,,92.13866219995543,,,,,,,,,92.12383699999192,92.48854160006158,93.28949550003745,93.27325579989702,93.27329350006768,93.28949550003745,93.28949550003745,93.28949550003745,,94.32467729994096,left,1.0,16.142903400119394,,94.32551150000654,94.33839170006104,94.82297479989938,94.83841710002162,,,,,,,,,,,,,,,,,,,,,,,,,,sub-083,1.0,random_dot,60.03186493290544,
right,right,,7.0,1.0,15.0,1.0,,,,,,,,,94.83841710002162,,,,,,,,,94.82365989987738,94.93842749996112,95.73924509994686,95.72306520002894,95.72310029994696,95.73924509994686,95.73924509994686,95.73924509994686,,96.92582200001924,right,1.0,16.30144950002432,,96.92651510005815,96.93851889995858,97.42295829998328,97.43828969984315,,,,,,,,,,,,,,,,,,,,,,,,,,sub-083,1.0,random_dot,60.03186493290544,
left,left,,8.0,0.0,16.0,0.0,,,,,,,,,97.43828969984315,,,,,,,,,97.42358449986205,97.78842350002378,98.58924850006588,98.5727413999848,98.57277940004133,98.58924850006588,98.58924850006588,98.58924850006588,,99.191531999968,left,1.0,15.705789499916136,,99.19230019999668,99.20518200006336,99.68978259991854,99.70515569997951,,,,,,,,,,,,,,,,,,,,,,,,,,sub-083,1.0,random_dot,60.03186493290544,
right,right,,8.0,1.0,17.0,1.0,,,,,,,,,99.70515569997951,,,,,,,,,99.69038629997522,100.50504569988698,101.3060599998571,101.28971569985151,101.28975520003588,101.3060599998571,101.3060599998571,101.3060599998571,,104.35776289994828,left,0.0,18.16193319996819,,104.3584569999948,104.37342359987088,104.87199150002562,,,,,,,,,,,,,,,,,,,,,,,,,,,sub-083,1.0,random_dot,60.03186493290544,
right,right,,9.0,0.0,18.0,1.0,,,,,,,,,104.88833960006014,,,,,,,,,104.8726558999624,105.22185009997338,106.02278169989586,106.00577099993824,106.00580019992776,106.02278169989586,106.02278169989586,106.02278169989586,,107.3581832998898,right,1.0,16.441503300098702,,107.35899699991568,107.37143439985812,107.85626469994897,107.87180699990132,,,,,,,,,,,,,,,,,,,,,,,,,,sub-083,1.0,random_dot,60.03186493290544,
left,left,,9.0,1.0,19.0,0.0,,,,,,,,,107.87180699990132,,,,,,,,,107.8569465999026,107.9717564000748,108.77265139995144,108.75603069993667,108.75606459984556,108.77265139995144,108.77265139995144,108.77265139995144,,109.22490489995108,left,1.0,15.56065750005655,,109.22563069988972,109.23831270006484,109.7225684998557,109.7381855000276,,,,,,,,,,,,,,,,,,,,,,,,,,sub-083,1.0,random_dot,60.03186493290544,
,,,,,,,,,,,,,,,,,,,,,,,,,,,,,,,,,,,,,,,,,,109.7226821000222,109.7381855000276,109.7381855000276,115.50704449997284,space,20.882494600256905,,,,,,,,,,,,,,,,,,,,sub-083,1.0,random_dot,60.03186493290544,
,,,,,,,,,,,,,,,,,,,,,,,,,,,,,,,,,,,,,,,,,,,,,,,,,115.5071050999686,115.5214889999479,115.5214889999479,124.5569996999111,space,24.15075080003589,,,,,,,,,,,,,sub-083,1.0,random_dot,60.03186493290544,
right,right,speed,,,,,0.0,0.0,0.0,1.0,0.0,0.0,0.0,1.0,127.53787839994766,,,,,,,,,127.5310138000641,127.88805599999614,128.68888929998502,128.67251949990168,128.6725626999978,128.68888929998502,128.68888929998502,128.68888929998502,,129.32442800002173,right,1.0,15.739579500164837,,,,,,,,,,,,,,,,,,,,124.56290769996122,124.58219029987232,124.58219029987232,127.52271299995482,space,18.04637280013412,,,,,,sub-083,1.0,random_dot,60.03186493290544,
left,left,speed,,,,,0.0,0.0,0.0,1.0,0.0,1.0,1.0,0.0,129.337954999879,,,,,,,,,129.32620429992676,130.13808079995215,130.93874619994313,130.92237889999524,130.92241950007156,130.93874619994313,130.93874619994313,130.93874619994313,,131.4579706999939,left,1.0,15.63433440006338,,,,,,,,,,,,,,,,,,,,,,,,,,,,,,,sub-083,1.0,random_dot,60.03186493290544,
left,left,speed,,,,,0.0,0.0,0.0,1.0,1.0,0.0,2.0,0.0,131.4714515998494,,,,,,,,,131.45941110001877,131.82145110005513,132.62214759993367,132.60592580004595,132.60596319986507,132.62214759993367,132.62214759993367,132.62214759993367,,133.55737629998475,left,1.0,16.04556080000475,,,,,,,,,,,,,,,,,,,,,,,,,,,,,,,sub-083,1.0,random_dot,60.03186493290544,
right,right,speed,,,,,0.0,0.0,0.0,1.0,1.0,1.0,3.0,1.0,133.5712619998958,,,,,,,,,133.55877389991656,133.92130999988876,134.72220419999212,134.70551420003176,134.70555409998633,134.72220419999212,134.72220419999212,134.72220419999212,,135.19080700003542,right,1.0,15.580153499962762,,,,,,,,,,,,,,,,,,,,,,,,,,,,,,,sub-083,1.0,random_dot,60.03186493290544,
right,right,speed,,,,,0.0,0.0,0.0,1.0,2.0,0.0,4.0,1.0,135.20449319994077,,,,,,,,,135.19222879991867,135.55442960001528,136.3553116999101,136.33881630003452,136.3388535999693,136.3553116999101,136.3553116999101,136.3553116999101,,137.15770189999603,right,1.0,15.913767600199208,,,,,,,,,,,,,,,,,,,,,,,,,,,,,,,sub-083,1.0,random_dot,60.03186493290544,
left,left,speed,,,,,0.0,0.0,0.0,1.0,2.0,1.0,5.0,0.0,137.17107019992545,,,,,,,,,137.15924949990583,137.5212284999434,138.322168600047,138.30565189989284,138.3056918999646,138.322168600047,138.322168600047,138.322168600047,,138.90773109998554,left,1.0,15.688025600276887,,,,,,,,,,,,,,,,,,,,,,,,,,,,,,,sub-083,1.0,random_dot,60.03186493290544,
left,left,speed,,,,,0.0,0.0,0.0,1.0,3.0,0.0,6.0,0.0,138.92120580002666,,,,,,,,,138.90913340006955,139.7209560999181,140.52193789999,140.5056088999845,140.5056497999467,140.52193789999,140.52193789999,140.52193789999,,141.3086800999008,left,1.0,15.902998500037938,,,,,,,,,,,,,,,,,,,,,,,,,,,,,,,sub-083,1.0,random_dot,60.03186493290544,
right,right,speed,,,,,0.0,0.0,0.0,1.0,3.0,1.0,7.0,1.0,141.32112219999544,,,,,,,,,141.3099012998864,141.6707462000195,142.4719519999344,142.4553797999397,142.45541809988208,142.4719519999344,142.4719519999344,142.4719519999344,,143.2237054000143,right,1.0,15.865871400106698,,,,,,,,,,,,,,,,,,,,,,,,,,,,,,,sub-083,1.0,random_dot,60.03186493290544,
left,left,speed,,,,,0.0,0.0,0.0,1.0,4.0,0.0,8.0,0.0,143.2376663000323,,,,,,,,,143.22517099999823,144.03774229995906,144.83857570006512,144.8217664998956,144.8217984000221,144.83857570006512,144.83857570006512,144.83857570006512,,145.3908130999189,left,1.0,15.657188200158998,,,,,,,,,,,,,,,,,,,,,,,,,,,,,,,sub-083,1.0,random_dot,60.03186493290544,
right,right,speed,,,,,0.0,0.0,0.0,1.0,4.0,1.0,9.0,1.0,145.40407749987207,,,,,,,,,145.3921238000039,145.75419009989128,146.55506539996713,146.53905789996497,146.53910559997894,146.55506539996713,146.55506539996713,146.55506539996713,,147.1573266000487,right,1.0,15.715350500075148,,,,,,,,,,,,,,,,,,,,,,,,,,,,,,,sub-083,1.0,random_dot,60.03186493290544,
right,right,speed,,,,,0.0,0.0,0.0,1.0,5.0,0.0,10.0,1.0,147.17111909994856,,,,,,,,,147.15852759988047,147.9708167000208,148.77191059989855,148.7556551999878,148.75569500005804,148.77191059989855,148.77191059989855,148.77191059989855,,149.2575556000229,left,0.0,15.58979510026984,,,,,,,,,,,,,,,,,,,,,,,,,,,,,,,sub-083,1.0,random_dot,60.03186493290544,
left,left,speed,,,,,0.0,0.0,0.0,1.0,5.0,1.0,11.0,0.0,149.27072279993445,,,,,,,,,149.25899549992755,150.0705619000364,150.87178339995444,150.85506669990718,150.85510069993325,150.87178339995444,150.87178339995444,150.87178339995444,,151.4241975999903,left,1.0,15.654183400096372,,,,,,,,,,,,,,,,,,,,,,,,,,,,,,,sub-083,1.0,random_dot,60.03186493290544,
right,right,speed,,,,,0.0,0.0,0.0,1.0,6.0,0.0,12.0,1.0,151.43768720002845,,,,,,,,,151.4256458999589,152.63722099992447,153.43844749988057,153.42182930000126,153.42186559992842,153.43844749988057,153.43844749988057,153.43844749988057,,153.89047989994287,right,1.0,15.558065900113434,,,,,,,,,,,,,,,,,,,,,,,,,,,,,,,sub-083,1.0,random_dot,60.03186493290544,
left,left,speed,,,,,0.0,0.0,0.0,1.0,6.0,1.0,13.0,0.0,153.90408120001666,,,,,,,,,153.89188749995083,155.1041504999157,155.90505130006932,155.8886754999403,155.88871599989943,155.90505130006932,155.90505130006932,155.90505130006932,,156.39059529989026,left,1.0,15.592610700055957,,,,,,,,,,,,,,,,,,,,,,,,,,,,,,,sub-083,1.0,random_dot,60.03186493290544,
left,left,speed,,,,,0.0,0.0,0.0,1.0,7.0,0.0,14.0,0.0,156.40403390000574,,,,,,,,,156.39199939998798,157.2041616998613,158.00476549984887,157.9885797998868,157.98861930007115,158.00476549984887,158.00476549984887,158.00476549984887,,159.02378479996696,right,0.0,16.132741700159386,,,,,,,,,,,,,,,,,,,,,,,,,,,,,,,sub-083,1.0,random_dot,60.03186493290544,
right,right,speed,,,,,0.0,0.0,0.0,1.0,7.0,1.0,15.0,1.0,159.03729090001434,,,,,,,,,159.02516189985909,159.38749459991232,160.1883355998434,160.17196149984375,160.17200109991245,160.1883355998434,160.1883355998434,160.1883355998434,,161.44077139999715,right,1.0,16.367951600113884,,,,,,,,,,,,,,,,,,,,,,,,,,,,,,,sub-083,1.0,random_dot,60.03186493290544,
left,left,speed,,,,,0.0,0.0,0.0,1.0,8.0,0.0,16.0,0.0,161.45424810005352,,,,,,,,,161.4422096000053,161.8041077000089,162.60513719986193,162.58850859990343,162.58854819997214,162.60513719986193,162.60513719986193,162.60513719986193,,163.10693349991925,left,1.0,15.617556100245563,,,,,,,,,,,,,,,,,,,,,,,,,,,,,,,sub-083,1.0,random_dot,60.03186493290544,
right,right,speed,,,,,0.0,0.0,0.0,1.0,8.0,1.0,17.0,1.0,163.12068239995278,,,,,,,,,163.10826030001044,163.47056899988092,164.27156149991788,164.25507339998148,164.25511309993453,164.27156149991788,164.27156149991788,164.27156149991788,,164.69022789993323,right,1.0,15.52933629998006,,,,,,,,,,,,,,,,,,,,,,,,,,,,,,,sub-083,1.0,random_dot,60.03186493290544,
right,right,speed,,,,,0.0,0.0,0.0,1.0,9.0,0.0,18.0,1.0,164.70374500006437,,,,,,,,,164.69165679998696,165.50382749992423,166.30490930005908,166.2885817999486,166.28862260002643,166.30490930005908,166.30490930005908,166.30490930005908,,167.30639679986052,right,1.0,16.11297560017556,,,,,,,,,,,,,,,,,,,,,,,,,,,,,,,sub-083,1.0,random_dot,60.03186493290544,
left,left,speed,,,,,0.0,0.0,0.0,1.0,9.0,1.0,19.0,0.0,167.3206557999365,,,,,,,,,167.3077859999612,167.67084929998964,168.4715648998972,168.4552595000714,168.45529869990423,168.4715648998972,168.4715648998972,168.4715648998972,,168.89001900004223,left,1.0,15.529946099966764,,,,,,,,,,,,,,,,,,,,,,,,,,,,,,,sub-083,1.0,random_dot,60.03186493290544,
right,right,speed,,,,,0.0,0.0,0.0,1.0,10.0,0.0,20.0,1.0,168.90383440000005,,,,,,,,,168.8913894998841,169.70366870006546,170.50481189996935,170.4886489000637,170.48869169992395,170.50481189996935,170.50481189996935,170.50481189996935,,171.00672359997407,right,1.0,15.61561350012198,,,,,,,,,,,,,,,,,,,,,,,,,,,,,,,sub-083,1.0,random_dot,60.03186493290544,
left,left,speed,,,,,0.0,0.0,0.0,1.0,10.0,1.0,21.0,0.0,171.02036129985936,,,,,,,,,171.00816549989395,171.12045509996824,171.92127359984443,171.9049203998875,171.90495719993487,171.92127359984443,171.92127359984443,171.92127359984443,,172.54035550006665,right,0.0,15.730777899967508,,,,,,,,,,,,,,,,,,,,,,,,,,,,,,,sub-083,1.0,random_dot,60.03186493290544,
right,right,speed,,,,,0.0,0.0,0.0,1.0,11.0,0.0,22.0,1.0,172.5538522999268,,,,,,,,,172.54167749988846,173.3537266999483,174.15486150002107,174.13810059987009,174.1381379000377,174.15486150002107,174.15486150002107,174.15486150002107,,175.24020630004816,right,1.0,16.19302530004643,,,,,,,,,,,,,,,,,,,,,,,,,,,,,,,sub-083,1.0,random_dot,60.03186493290544,
left,left,speed,,,,,0.0,0.0,0.0,1.0,11.0,1.0,23.0,0.0,175.25392809999175,,,,,,,,,175.2416588999331,175.3537230999209,176.1546096999664,176.13800729997456,176.13804270001128,176.1546096999664,176.1546096999664,176.1546096999664,,176.60669759986922,left,1.0,15.56225370010361,,,,,,,,,,,,,,,,,,,,,,,,,,,,,,,sub-083,1.0,random_dot,60.03186493290544,
left,left,speed,,,,,0.0,0.0,0.0,1.0,12.0,0.0,24.0,0.0,176.62025619996712,,,,,,,,,176.60874260007404,177.42051359987818,178.22109139990062,178.20465309987776,178.20469349995255,178.22109139990062,178.22109139990062,178.22109139990062,,179.10649579996243,right,0.0,15.995923599926757,,,,,,,,,,,,,,,,,,,,,,,,,,,,,,,sub-083,1.0,random_dot,60.03186493290544,
right,right,speed,,,,,0.0,0.0,0.0,1.0,12.0,1.0,25.0,1.0,179.12028689985164,,,,,,,,,179.10789779992774,179.2204233999364,180.02132249996066,180.0049679998774,180.00500699994154,180.02132249996066,180.02132249996066,180.02132249996066,,180.79019530001096,right,1.0,15.873551400145516,,,,,,,,,,,,,,,,,,,,,,,,,,,,,,,sub-083,1.0,random_dot,60.03186493290544,
left,left,speed,,,,,0.0,0.0,0.0,1.0,13.0,0.0,26.0,0.0,180.80376309994608,,,,,,,,,180.7916188000236,180.90363799990155,181.70432929997327,181.6882235999219,181.68825969984755,181.70432929997327,181.70432929997327,181.70432929997327,,182.2253968999721,left,1.0,15.635544399963692,,,,,,,,,,,,,,,,,,,,,,,,,,,,,,,sub-083,1.0,random_dot,60.03186493290544,
right,right,speed,,,,,0.0,0.0,0.0,1.0,13.0,1.0,27.0,1.0,182.2368902999442,,,,,,,,,182.2266806999687,182.58672549994665,183.38786759995853,183.37169269984588,183.3717324999161,183.38786759995853,183.38786759995853,183.38786759995853,,183.84067930001763,right,1.0,15.566889300243927,,,,,,,,,,,,,,,,,,,,,,,,,,,,,,,sub-083,1.0,random_dot,60.03186493290544,
right,right,speed,,,,,0.0,0.0,0.0,1.0,14.0,0.0,28.0,1.0,183.85367699991912,,,,,,,,,183.84207749995403,184.65346309985037,185.4542650000658,185.437987399986,185.4380274999421,185.4542650000658,185.4542650000658,185.4542650000658,,186.15653489995748,right,1.0,15.806858700234445,,,,,,,,,,,,,,,,,,,,,,,,,,,,,,,sub-083,1.0,random_dot,60.03186493290544,
left,left,speed,,,,,0.0,0.0,0.0,1.0,14.0,1.0,29.0,0.0,186.1698886998929,,,,,,,,,186.15788699989207,186.5200558998622,187.32117959996685,187.30448729987256,187.30452340003103,187.32117959996685,187.32117959996685,187.32117959996685,,187.9065006999299,left,1.0,15.695608800277114,,,,,,,,,,,,,,,,,,,,,,,,,,,,,,,sub-083,1.0,random_dot,60.03186493290544,
left,left,speed,,,,,0.0,0.0,0.0,1.0,15.0,0.0,30.0,0.0,187.92038999986835,,,,,,,,,187.90796989994124,188.02029570005837,188.821036899928,188.8047998000402,188.804842799902,188.821036899928,188.821036899928,188.821036899928,,189.70730619993992,right,0.0,16.00311590032652,,,,,,,,,,,,,,,,,,,,,,,,,,,,,,,sub-083,1.0,random_dot,60.03186493290544,
right,right,speed,,,,,0.0,0.0,0.0,1.0,15.0,1.0,31.0,1.0,189.7201211999636,,,,,,,,,189.7086954000406,190.52002159995027,191.3209982998669,191.30470729991796,191.3047438999638,191.3209982998669,191.3209982998669,191.3209982998669,,191.88973250007257,right,1.0,15.673717600293458,,,,,,,,,,,,,,,,,,,,,,,,,,,,,,,sub-083,1.0,random_dot,60.03186493290544,
left,left,speed,,,,,0.0,0.0,0.0,1.0,16.0,0.0,32.0,0.0,191.9035433998797,,,,,,,,,191.8911828999408,193.10352239990607,193.90430060005747,193.8878464999143,193.88789759995416,193.90430060005747,193.90430060005747,193.90430060005747,,194.3892649000045,left,1.0,15.587314600124955,,,,,,,,,,,,,,,,,,,,,,,,,,,,,,,sub-083,1.0,random_dot,60.03186493290544,
right,right,speed,,,,,0.0,0.0,0.0,1.0,16.0,1.0,33.0,1.0,194.40349649987184,,,,,,,,,194.3907097999472,195.20314199989664,196.00442979997024,195.9877818999812,195.987818100024,196.00442979997024,196.00442979997024,196.00442979997024,,196.47317750006917,right,1.0,15.573053300147876,,,,,,,,,,,,,,,,,,,,,,,,,,,,,,,sub-083,1.0,random_dot,60.03186493290544,
left,left,speed,,,,,0.0,0.0,0.0,1.0,17.0,0.0,34.0,0.0,196.4865276999772,,,,,,,,,196.47464230004695,197.68685849988836,198.487547100056,198.4710313999094,198.4710714998655,198.487547100056,198.487547100056,198.487547100056,,199.00667469995096,left,1.0,15.62235840014182,,,,,,,,,,,,,,,,,,,,,,,,,,,,,,,sub-083,1.0,random_dot,60.03186493290544,
right,right,speed,,,,,0.0,0.0,0.0,1.0,17.0,1.0,35.0,1.0,199.01999559998512,,,,,,,,,199.008096100064,199.1203757999465,199.92099180002697,199.904263000004,199.90429700003008,199.92099180002697,199.92099180002697,199.92099180002697,,200.3890686999075,right,1.0,15.577966100070626,,,,,,,,,,,,,,,,,,,,,,,,,,,,,,,sub-083,1.0,random_dot,60.03186493290544,
left,left,speed,,,,,0.0,0.0,0.0,1.0,18.0,0.0,36.0,0.0,200.4032906999346,,,,,,,,,200.3903550999239,201.6030712998472,202.40423689992167,202.38756409985945,202.3876006999053,202.40423689992167,202.40423689992167,202.40423689992167,,202.97302919998765,left,1.0,15.678423600038514,,,,,,,,,,,,,,,,,,,,,,,,,,,,,,,sub-083,1.0,random_dot,60.03186493290544,
right,right,speed,,,,,0.0,0.0,0.0,1.0,18.0,1.0,37.0,1.0,202.9867904998828,,,,,,,,,202.97449279995635,203.33621019986455,204.13741820002903,204.1212597000413,204.12130049988627,204.13741820002903,204.13741820002903,204.13741820002903,,204.5914090999868,right,1.0,15.569721500156447,,,,,,,,,,,,,,,,,,,,,,,,,,,,,,,sub-083,1.0,random_dot,60.03186493290544,
left,left,speed,,,,,0.0,0.0,0.0,1.0,19.0,0.0,38.0,0.0,204.6032640999183,,,,,,,,,204.5926014999859,205.40295580006205,206.20397079992108,206.18787140003408,206.18791099986996,206.20397079992108,206.20397079992108,206.20397079992108,,206.7561919,left,1.0,15.65535130002536,,,,,,,,,,,,,,,,,,,,,,,,,,,,,,,sub-083,1.0,random_dot,60.03186493290544,
right,right,speed,,,,,0.0,0.0,0.0,1.0,19.0,1.0,39.0,1.0,206.7696545999497,,,,,,,,,206.75763259991072,206.8698080999311,207.67049679998308,207.65405889996327,207.65409910003652,207.67049679998308,207.67049679998308,207.67049679998308,,208.17322420002893,right,1.0,15.617645500227807,,,,,,,,,,,,,,,,,,,,,,,,,,,,,,,sub-083,1.0,random_dot,60.03186493290544,
left,left,speed,,,,,0.0,0.0,0.0,1.0,20.0,0.0,40.0,0.0,208.18652129988183,,,,,,,,,208.17451669997536,208.53651369991712,209.3371212000493,209.3208719999529,209.3209092998877,209.3371212000493,209.3371212000493,209.3371212000493,,210.156159899896,left,1.0,15.93070420017466,,,,,,,,,,,,,,,,,,,,,,,,,,,,,,,sub-083,1.0,random_dot,60.03186493290544,
right,right,speed,,,,,0.0,0.0,0.0,1.0,20.0,1.0,41.0,1.0,210.16993710002865,,,,,,,,,210.1575233999174,210.96972989989445,211.77058440004475,211.7542313998565,211.7542707999237,211.77058440004475,211.77058440004475,211.77058440004475,,212.37277589994483,right,1.0,15.717055400134996,,,,,,,,,,,,,,,,,,,,,,,,,,,,,,,sub-083,1.0,random_dot,60.03186493290544,
right,right,speed,,,,,0.0,0.0,0.0,1.0,21.0,0.0,42.0,1.0,212.3864160999656,,,,,,,,,212.3741728998721,212.7362883000169,213.53731909999624,213.52111479989253,213.52115589985624,213.53731909999624,213.53731909999624,213.53731909999624,,214.1392947998829,right,1.0,15.70877190027386,,,,,,,,,,,,,,,,,,,,,,,,,,,,,,,sub-083,1.0,random_dot,60.03186493290544,
left,left,speed,,,,,0.0,0.0,0.0,1.0,21.0,1.0,43.0,0.0,214.152994300006,,,,,,,,,214.1407009998802,214.25331109995025,215.0540944999084,215.03714319993745,215.03718369989656,215.0540944999084,215.0540944999084,215.0540944999084,,215.656365999952,left,1.0,15.717581700067967,,,,,,,,,,,,,,,,,,,,,,,,,,,,,,,sub-083,1.0,random_dot,60.03186493290544,
right,right,speed,,,,,0.0,0.0,0.0,1.0,22.0,0.0,44.0,1.0,215.6698109998833,,,,,,,,,215.65763629996215,215.7697918000631,216.5706609999761,216.55374969984405,216.5537781000603,216.5706609999761,216.5706609999761,216.5706609999761,,217.0390842999332,right,1.0,15.579735700273886,,,,,,,,,,,,,,,,,,,,,,,,,,,,,,,sub-083,1.0,random_dot,60.03186493290544,
left,left,speed,,,,,0.0,0.0,0.0,1.0,22.0,1.0,45.0,0.0,217.0529107998591,,,,,,,,,217.04059330001476,217.40288539999165,218.2038690999616,218.18724690005183,218.18728720000945,218.2038690999616,218.2038690999616,218.2038690999616,,219.2727858000435,left,1.0,16.176292600110173,,,,,,,,,,,,,,,,,,,,,,,,,,,,,,,sub-083,1.0,random_dot,60.03186493290544,
left,left,speed,,,,,0.0,0.0,0.0,1.0,23.0,0.0,46.0,0.0,219.28644759999588,,,,,,,,,219.27421589987352,220.0863304999657,220.8869243999943,220.8705527000129,220.870592399966,220.8869243999943,220.8869243999943,220.8869243999943,,221.455916200066,left,1.0,15.67927540000528,,,,,,,,,,,,,,,,,,,,,,,,,,,,,,,sub-083,1.0,random_dot,60.03186493290544,
right,right,speed,,,,,0.0,0.0,0.0,1.0,23.0,1.0,47.0,1.0,221.46927169989797,,,,,,,,,221.45714119984768,221.8195590998512,222.62052750005387,222.60400240006857,222.60404270002616,222.62052750005387,222.62052750005387,222.62052750005387,,223.1061623999849,right,1.0,15.586935699917376,,,,,,,,,,,,,,,,,,,,,,,,,,,,,,,sub-083,1.0,random_dot,60.03186493290544,
right,right,speed,,,,,0.0,0.0,0.0,1.0,24.0,0.0,48.0,1.0,223.11966149997895,,,,,,,,,223.10763129987757,223.91976309986785,224.7204233999364,224.704236399848,224.7042767999228,224.7204233999364,224.7204233999364,224.7204233999364,,225.6891578999348,right,1.0,16.073893300024793,,,,,,,,,,,,,,,,,,,,,,,,,,,,,,,sub-083,1.0,random_dot,60.03186493290544,
left,left,speed,,,,,0.0,0.0,0.0,1.0,24.0,1.0,49.0,0.0,225.70271850004792,,,,,,,,,225.69062289991416,226.05264929984696,226.8537262999453,226.83697719988413,226.83701459993608,226.8537262999453,226.8537262999453,226.8537262999453,,227.38928929995745,left,1.0,15.64044630015269,,,,,,,,,,,,,,,,,,,,,,,,,,,,,,,sub-083,1.0,random_dot,60.03186493290544,
left,left,speed,,,,,0.0,0.0,0.0,1.0,25.0,0.0,50.0,0.0,227.40285740001127,,,,,,,,,227.39070319989696,228.602724700002,229.4037798999343,229.38723860005848,229.3872803999111,229.4037798999343,229.4037798999343,229.4037798999343,,230.03880600002597,left,1.0,15.75255289999768,,,,,,,,,,,,,,,,,,,,,,,,,,,,,,,sub-083,1.0,random_dot,60.03186493290544,
right,right,speed,,,,,0.0,0.0,0.0,1.0,25.0,1.0,51.0,1.0,230.05260799988173,,,,,,,,,230.03989030001685,231.2526316000149,232.0535015000496,232.03681689989756,232.03684239997528,232.0535015000496,232.0535015000496,232.0535015000496,,232.50552979996428,right,1.0,15.557310200063512,,,,,,,,,,,,,,,,,,,,,,,,,,,,,,,sub-083,1.0,random_dot,60.03186493290544,
right,right,speed,,,,,0.0,0.0,0.0,1.0,26.0,0.0,52.0,1.0,232.5192936998792,,,,,,,,,232.5071439999156,232.61920489999463,233.42008369998075,233.4039006999228,233.40394099988043,233.42008369998075,233.42008369998075,233.42008369998075,,233.97229499998505,left,0.0,15.662861900171263,,,,,,,,,,,,,,,,,,,,,,,,,,,,,,,sub-083,1.0,random_dot,60.03186493290544,
left,left,speed,,,,,0.0,0.0,0.0,1.0,26.0,1.0,53.0,0.0,233.985807799967,,,,,,,,,233.97369259991683,234.3359556000214,235.13681639987044,235.12048040004447,235.12052009999752,235.13681639987044,235.13681639987044,235.13681639987044,,235.7556507999543,left,1.0,15.727558400016278,,,,,,,,,,,,,,,,,,,,,,,,,,,,,,,sub-083,1.0,random_dot,60.03186493290544,
left,left,speed,,,,,0.0,0.0,0.0,1.0,27.0,0.0,54.0,0.0,235.76933469995856,,,,,,,,,235.75706800003536,236.96900400007144,237.77013810002245,237.7541561999824,237.75420029996891,237.77013810002245,237.77013810002245,237.77013810002245,,238.7059009000659,left,1.0,16.05097880004905,,,,,,,,,,,,,,,,,,,,,,,,,,,,,,,sub-083,1.0,random_dot,60.03186493290544,
right,right,speed,,,,,0.0,0.0,0.0,1.0,27.0,1.0,55.0,1.0,238.7192349999677,,,,,,,,,238.70718869986013,238.8191918998491,239.6201158999465,239.603920100024,239.60395989986137,239.6201158999465,239.6201158999465,239.6201158999465,,240.10541890002787,right,1.0,15.594964700052516,,,,,,,,,,,,,,,,,,,,,,,,,,,,,,,sub-083,1.0,random_dot,60.03186493290544,
right,right,speed,,,,,0.0,0.0,0.0,1.0,28.0,0.0,56.0,1.0,240.11905319988728,,,,,,,,,240.10696109989655,240.46933669992725,241.27020499994975,241.2537587999832,241.2537960000336,241.27020499994975,241.27020499994975,241.27020499994975,,242.3228515998926,right,1.0,16.158387400209904,,,,,,,,,,,,,,,,,,,,,,,,,,,,,,,sub-083,1.0,random_dot,60.03186493290544,
left,left,speed,,,,,0.0,0.0,0.0,1.0,28.0,1.0,57.0,0.0,242.33601760002784,,,,,,,,,242.3242980998475,242.43584709987044,243.2368524000049,243.2205415000208,243.2205773999449,243.2368524000049,243.2368524000049,243.2368524000049,,243.77218349999748,left,1.0,15.637379200197756,,,,,,,,,,,,,,,,,,,,,,,,,,,,,,,sub-083,1.0,random_dot,60.03186493290544,
left,left,speed,,,,,0.0,0.0,0.0,1.0,29.0,0.0,58.0,0.0,243.7860499999952,,,,,,,,,243.77360629988837,244.9856813000515,245.7866290998645,245.76996519998647,245.7699952998664,245.7866290998645,245.7866290998645,245.7866290998645,,246.47240249998868,right,0.0,15.793944400036708,,,,,,,,,,,,,,,,,,,,,,,,,,,,,,,sub-083,1.0,random_dot,60.03186493290544,
right,right,speed,,,,,0.0,0.0,0.0,1.0,29.0,1.0,59.0,1.0,246.48616179986857,,,,,,,,,246.47382089984603,247.68567779986188,248.4866231000051,248.4703206999693,248.47039799997583,248.4866231000051,248.4866231000051,248.4866231000051,,249.20557059999555,right,1.0,15.82772870012559,,,,,,,,,,,,,,,,,,,,,,,,,,,,,,,sub-083,1.0,random_dot,60.03186493290544,
,,speed,,,,,0.0,0.0,0.0,1.0,,,,,,,,,,,,,,,,,,,,,,,,,,,,,,,,,,,,,,,,,,,,,,,,,,,,,,,,,sub-083,1.0,random_dot,60.03186493290544,
left,left,accuracy,,,,,0.0,1.0,1.0,0.0,0.0,0.0,0.0,0.0,253.05204480001703,,,,,,,,,253.0473439998459,253.4024272998795,254.203191800043,254.18691669986583,254.1869609998539,254.203191800043,254.203191800043,254.203191800043,,258.43969949986786,left,1.0,19.351286000106484,,,,,,,,,,,,,,,,,,,,249.20684150001037,249.2195410998538,249.2195410998538,253.03778479993343,space,18.926905500004068,,,,,,sub-083,1.0,random_dot,60.03186493290544,
right,right,accuracy,,,,,0.0,1.0,1.0,0.0,0.0,1.0,1.0,1.0,258.4523320000153,,,,,,,,,258.4412827999331,258.5523530000355,259.3529866000172,259.3365994999185,259.33664110000245,259.3529866000172,259.3529866000172,259.3529866000172,,260.60681029991247,left,0.0,16.368552800267935,,,,,,,,,,,,,,,,,,,,,,,,,,,,,,,sub-083,1.0,random_dot,60.03186493290544,
left,left,accuracy,,,,,0.0,1.0,1.0,0.0,1.0,0.0,2.0,0.0,260.618541700067,,,,,,,,,260.6081216998864,261.8188074999489,262.61963179986924,262.60331350006163,262.6033540999051,262.61963179986924,262.61963179986924,262.61963179986924,,263.90566050005145,left,1.0,16.39266959996894,,,,,,,,,,,,,,,,,,,,,,,,,,,,,,,sub-083,1.0,random_dot,60.03186493290544,
right,right,accuracy,,,,,0.0,1.0,1.0,0.0,1.0,1.0,3.0,1.0,263.9189740999136,,,,,,,,,263.90702300006524,265.11878779996186,265.91977839986794,265.90320229996,265.90324250003323,265.91977839986794,265.91977839986794,265.91977839986794,,266.63885860005394,right,1.0,15.828079200116916,,,,,,,,,,,,,,,,,,,,,,,,,,,,,,,sub-083,1.0,random_dot,60.03186493290544,
right,right,accuracy,,,,,0.0,1.0,1.0,0.0,2.0,0.0,4.0,1.0,266.65184299997054,,,,,,,,,266.6402857999783,267.8520964998752,268.65306649985723,268.63656469993293,268.6366019998677,268.65306649985723,268.65306649985723,268.65306649985723,,271.3386591000017,right,1.0,17.787626300239936,,,,,,,,,,,,,,,,,,,,,,,,,,,,,,,sub-083,1.0,random_dot,60.03186493290544,
left,left,accuracy,,,,,0.0,1.0,1.0,0.0,2.0,1.0,5.0,0.0,271.3518788998481,,,,,,,,,271.3400258999318,271.451958599966,272.25280599994585,272.2364443000406,272.2364841999952,272.25280599994585,272.25280599994585,272.25280599994585,,272.95396799989976,left,1.0,15.8124468002934,,,,,,,,,,,,,,,,,,,,,,,,,,,,,,,sub-083,1.0,random_dot,60.03186493290544,
left,left,accuracy,,,,,0.0,1.0,1.0,0.0,3.0,0.0,6.0,0.0,272.9684383000713,,,,,,,,,272.95502420002595,273.3185467000585,274.1195000999141,274.1029864999,274.1030250999611,274.1195000999141,274.1195000999141,274.1195000999141,,275.3382401999552,right,0.0,16.33055890025571,,,,,,,,,,,,,,,,,,,,,,,,,,,,,,,sub-083,1.0,random_dot,60.03186493290544,
right,right,accuracy,,,,,0.0,1.0,1.0,0.0,3.0,1.0,7.0,1.0,275.3517962000333,,,,,,,,,275.3395795999095,275.4517306999769,276.25279299984686,276.2365104998462,276.2365484000184,276.25279299984686,276.25279299984686,276.25279299984686,,280.9550230000168,right,1.0,19.80337940016761,,,,,,,,,,,,,,,,,,,,,,,,,,,,,,,sub-083,1.0,random_dot,60.03186493290544,
right,right,accuracy,,,,,0.0,1.0,1.0,0.0,4.0,0.0,8.0,1.0,280.9684484000318,,,,,,,,,280.956569199916,282.1683902000077,282.9687936999835,282.95271890005097,282.95275949989446,282.9687936999835,282.9687936999835,282.9687936999835,,286.55546050006524,right,1.0,18.70189390028827,,,,,,,,,,,,,,,,,,,,,,,,,,,,,,,sub-083,1.0,random_dot,60.03186493290544,
left,left,accuracy,,,,,0.0,1.0,1.0,0.0,4.0,1.0,9.0,0.0,286.5684571999591,,,,,,,,,286.55679539986886,287.36845050007105,288.16909149987623,288.1529647000134,288.153004999971,288.16909149987623,288.16909149987623,288.16909149987623,,288.83835099986754,left,1.0,15.77141120005399,,,,,,,,,,,,,,,,,,,,,,,,,,,,,,,sub-083,1.0,random_dot,60.03186493290544,
left,left,accuracy,,,,,0.0,1.0,1.0,0.0,5.0,0.0,10.0,0.0,288.85170360002667,,,,,,,,,288.83975749998353,290.0517215,290.85274889995344,290.8362354999408,290.83627439988777,290.85274889995344,290.85274889995344,290.85274889995344,,291.68747400003485,left,1.0,15.943202200112864,,,,,,,,,,,,,,,,,,,,,,,,,,,,,,,sub-083,1.0,random_dot,60.03186493290544,
right,right,accuracy,,,,,0.0,1.0,1.0,0.0,5.0,1.0,11.0,1.0,291.7016898000147,,,,,,,,,291.68879689997993,292.0515264000278,292.8527005999349,292.8364041999448,292.8364454000257,292.8527005999349,292.8527005999349,292.8527005999349,,293.671422699932,right,1.0,15.922838900238276,,,,,,,,,,,,,,,,,,,,,,,,,,,,,,,sub-083,1.0,random_dot,60.03186493290544,
right,right,accuracy,,,,,0.0,1.0,1.0,0.0,6.0,0.0,12.0,1.0,293.6850175000727,,,,,,,,,293.6729327000212,294.4848253999371,295.2859765000176,295.269595899852,295.2696352999192,295.2859765000176,295.2859765000176,295.2859765000176,,296.121793899918,right,1.0,15.950218999991192,,,,,,,,,,,,,,,,,,,,,,,,,,,,,,,sub-083,1.0,random_dot,60.03186493290544,
left,left,accuracy,,,,,0.0,1.0,1.0,0.0,6.0,1.0,13.0,0.0,296.1350755998865,,,,,,,,,296.1231507000048,297.33508750004694,298.1356234999839,298.1194750999566,298.11951479990967,298.1356234999839,298.1356234999839,298.1356234999839,,299.0724005999509,left,1.0,16.051868500187993,,,,,,,,,,,,,,,,,,,,,,,,,,,,,,,sub-083,1.0,random_dot,60.03186493290544,
left,left,accuracy,,,,,0.0,1.0,1.0,0.0,7.0,0.0,14.0,0.0,299.08477379987016,,,,,,,,,299.0736980999354,300.2850007000379,301.08582789986394,301.06908129993826,301.06912119989283,301.08582789986394,301.08582789986394,301.08582789986394,,303.55402039992623,left,1.0,17.583416300127283,,,,,,,,,,,,,,,,,,,,,,,,,,,,,,,sub-083,1.0,random_dot,60.03186493290544,
right,right,accuracy,,,,,0.0,1.0,1.0,0.0,7.0,1.0,15.0,1.0,303.56808530003764,,,,,,,,,303.5554330998566,304.36830309988,305.169159400044,305.15259319986217,305.15263190004043,305.169159400044,305.169159400044,305.169159400044,,305.8547328999266,right,1.0,15.79009240004234,,,,,,,,,,,,,,,,,,,,,,,,,,,,,,,sub-083,1.0,random_dot,60.03186493290544,
right,right,accuracy,,,,,0.0,1.0,1.0,0.0,8.0,0.0,16.0,1.0,305.8679796999786,,,,,,,,,305.8562737000175,305.9678954000119,306.76877969992347,306.75261839991435,306.7526531999465,306.76877969992347,306.76877969992347,306.76877969992347,,308.07099699997343,right,1.0,16.409495000028983,,,,,,,,,,,,,,,,,,,,,,,,,,,,,,,sub-083,1.0,random_dot,60.03186493290544,
left,left,accuracy,,,,,0.0,1.0,1.0,0.0,8.0,1.0,17.0,0.0,308.0845101000741,,,,,,,,,308.0724378000013,308.4345837999135,309.23559389985166,309.21896949992515,309.2190076999832,309.23559389985166,309.23559389985166,309.23559389985166,,310.9875944000669,left,1.0,16.859599500196055,,,,,,,,,,,,,,,,,,,,,,,,,,,,,,,sub-083,1.0,random_dot,60.03186493290544,
left,left,accuracy,,,,,0.0,1.0,1.0,0.0,9.0,0.0,18.0,0.0,311.001403399976,,,,,,,,,310.9889608998783,311.3514024000615,312.1521270999219,312.1355597998481,312.1355993999168,312.1521270999219,312.1521270999219,312.1521270999219,,312.98789949994534,left,1.0,15.937924000201749,,,,,,,,,,,,,,,,,,,,,,,,,,,,,,,sub-083,1.0,random_dot,60.03186493290544,
right,right,accuracy,,,,,0.0,1.0,1.0,0.0,9.0,1.0,19.0,1.0,313.0013812999241,,,,,,,,,312.9893183000386,314.20104729989544,315.0019856998697,314.9856525999494,314.9856930000242,315.0019856998697,315.0019856998697,315.0019856998697,,315.67059860005975,right,1.0,15.78423250024207,,,,,,,,,,,,,,,,,,,,,,,,,,,,,,,sub-083,1.0,random_dot,60.03186493290544,
left,left,accuracy,,,,,0.0,1.0,1.0,0.0,10.0,0.0,20.0,0.0,315.6843707000371,,,,,,,,,315.67185289994814,316.4844686000142,317.28551469999366,317.2691277998965,317.2691676998511,317.28551469999366,317.28551469999366,317.28551469999366,,321.5208483000752,left,1.0,19.3484480001498,,,,,,,,,,,,,,,,,,,,,,,,,,,,,,,sub-083,1.0,random_dot,60.03186493290544,
right,right,accuracy,,,,,0.0,1.0,1.0,0.0,10.0,1.0,21.0,1.0,321.53455199999735,,,,,,,,,321.52222179993987,321.8843594000209,322.6855259998701,322.66878509987146,322.66882220003754,322.6855259998701,322.6855259998701,322.6855259998701,,323.4873180000577,right,1.0,15.91565030021593,,,,,,,,,,,,,,,,,,,,,,,,,,,,,,,sub-083,1.0,random_dot,60.03186493290544,
right,right,accuracy,,,,,0.0,1.0,1.0,0.0,11.0,0.0,22.0,1.0,323.5008759999182,,,,,,,,,323.48881440004334,324.3004584000446,325.1019088998437,325.0851052000653,325.08513629995286,325.1019088998437,325.1019088998437,325.1019088998437,,327.52032439992763,right,1.0,17.527351200114936,,,,,,,,,,,,,,,,,,,,,,,,,,,,,,,sub-083,1.0,random_dot,60.03186493290544,
left,left,accuracy,,,,,0.0,1.0,1.0,0.0,11.0,1.0,23.0,0.0,327.5342126998585,,,,,,,,,327.5216612999793,327.6342356998939,328.4351083000656,328.4188015998807,328.41884210007265,328.4351083000656,328.4351083000656,328.4351083000656,,329.2543462999165,left,1.0,15.93033320014365,,,,,,,,,,,,,,,,,,,,,,,,,,,,,,,sub-083,1.0,random_dot,60.03186493290544,
left,left,accuracy,,,,,0.0,1.0,1.0,0.0,12.0,0.0,24.0,0.0,329.26762479986064,,,,,,,,,329.2558114998974,330.0676680000033,330.86865389999,330.85183579986915,330.8518683000002,330.86865389999,330.86865389999,330.86865389999,,333.0555266998708,left,1.0,17.301464800024405,,,,,,,,,,,,,,,,,,,,,,,,,,,,,,,sub-083,1.0,random_dot,60.03186493290544,
right,right,accuracy,,,,,0.0,1.0,1.0,0.0,12.0,1.0,25.0,1.0,333.06750210002065,,,,,,,,,333.0568603000138,333.167183799902,333.96836459985934,333.9520052999724,333.9520453000441,333.96836459985934,333.96836459985934,333.96836459985934,,334.80623660003766,right,1.0,15.952270800247788,,,,,,,,,,,,,,,,,,,,,,,,,,,,,,,sub-083,1.0,random_dot,60.03186493290544,
right,right,accuracy,,,,,0.0,1.0,1.0,0.0,13.0,0.0,26.0,1.0,334.8173692999408,,,,,,,,,334.8075975999236,335.617582899984,336.4183058999479,336.4020167000126,336.4020574998576,336.4183058999479,336.4183058999479,336.4183058999479,,337.60384689993225,right,1.0,16.299060000106692,,,,,,,,,,,,,,,,,,,,,,,,,,,,,,,sub-083,1.0,random_dot,60.03186493290544,
left,left,accuracy,,,,,0.0,1.0,1.0,0.0,13.0,1.0,27.0,0.0,337.6174051000271,,,,,,,,,337.60521469987,338.41756940004416,339.2181253999006,339.202025400009,339.20206479984336,339.2181253999006,339.2181253999006,339.2181253999006,,339.83712849998847,left,1.0,15.72666050028056,,,,,,,,,,,,,,,,,,,,,,,,,,,,,,,sub-083,1.0,random_dot,60.03186493290544,
left,left,accuracy,,,,,0.0,1.0,1.0,0.0,14.0,0.0,28.0,0.0,339.85067519987933,,,,,,,,,339.8384930000175,340.2008626998868,341.0017237998545,340.9847136000172,340.98474169988185,341.0017237998545,341.0017237998545,341.0017237998545,,343.42044360004365,left,1.0,17.531412900192663,,,,,,,,,,,,,,,,,,,,,,,,,,,,,,,sub-083,1.0,random_dot,60.03186493290544,
right,right,accuracy,,,,,0.0,1.0,1.0,0.0,14.0,1.0,29.0,1.0,343.4347220000345,,,,,,,,,343.42181769991294,344.63409379986115,345.4348893999122,345.418269299902,345.41830600006506,345.4348893999122,345.4348893999122,345.4348893999122,,346.0536088999361,right,1.0,15.726138700032608,,,,,,,,,,,,,,,,,,,,,,,,,,,,,,,sub-083,1.0,random_dot,60.03186493290544,
left,left,accuracy,,,,,0.0,1.0,1.0,0.0,15.0,0.0,30.0,0.0,346.0673720999621,,,,,,,,,346.05483360006474,347.2671252998989,348.0681310999207,348.05114619992673,348.0511781000532,348.0681310999207,348.0681310999207,348.0681310999207,,348.7370281999465,left,1.0,15.78208680008538,,,,,,,,,,,,,,,,,,,,,,,,,,,,,,,sub-083,1.0,random_dot,60.03186493290544,
right,right,accuracy,,,,,0.0,1.0,1.0,0.0,15.0,1.0,31.0,1.0,348.7503758999519,,,,,,,,,348.7384087999817,348.85060100001283,349.6514689999167,349.6351743999403,349.635215499904,349.6514689999167,349.6514689999167,349.6514689999167,,350.520554299932,right,1.0,15.978198300115764,,,,,,,,,,,,,,,,,,,,,,,,,,,,,,,sub-083,1.0,random_dot,60.03186493290544,
left,left,accuracy,,,,,0.0,1.0,1.0,0.0,16.0,0.0,32.0,0.0,350.5341439000331,,,,,,,,,350.52200239989907,350.88407159992494,351.6845296998508,351.668122000061,351.6681536000688,351.6845296998508,351.6845296998508,351.6845296998508,,352.65366359986365,left,1.0,16.07262960029766,,,,,,,,,,,,,,,,,,,,,,,,,,,,,,,sub-083,1.0,random_dot,60.03186493290544,
right,right,accuracy,,,,,0.0,1.0,1.0,0.0,16.0,1.0,33.0,1.0,352.667183799902,,,,,,,,,352.6549390000291,352.7671882000286,353.56795069994405,353.55170680000447,353.55174769996665,353.56795069994405,353.56795069994405,353.56795069994405,,354.2203740000259,right,1.0,15.761760600144044,,,,,,,,,,,,,,,,,,,,,,,,,,,,,,,sub-083,1.0,random_dot,60.03186493290544,
right,right,accuracy,,,,,0.0,1.0,1.0,0.0,17.0,0.0,34.0,1.0,354.2337352000177,,,,,,,,,354.2217424998525,355.0337260998785,355.8346368998755,355.81819749996066,355.81823790003546,355.8346368998755,355.8346368998755,355.8346368998755,,356.5202770999167,right,1.0,15.78875460010022,,,,,,,,,,,,,,,,,,,,,,,,,,,,,,,sub-083,1.0,random_dot,60.03186493290544,
left,left,accuracy,,,,,0.0,1.0,1.0,0.0,17.0,1.0,35.0,0.0,356.5338351998944,,,,,,,,,356.5216444998514,357.73364369990304,358.5345184998587,358.5178747000173,358.517911199946,358.5345184998587,358.5345184998587,358.5345184998587,,359.17111829994246,left,1.0,15.753223800100386,,,,,,,,,,,,,,,,,,,,,,,,,,,,,,,sub-083,1.0,random_dot,60.03186493290544,
left,left,accuracy,,,,,0.0,1.0,1.0,0.0,18.0,0.0,36.0,0.0,359.18367070006207,,,,,,,,,359.17247570003383,359.53377249999903,360.33462530002,360.318165600067,360.318206399912,360.33462530002,360.33462530002,360.33462530002,,361.06998559995554,right,0.0,15.84778740000911,,,,,,,,,,,,,,,,,,,,,,,,,,,,,,,sub-083,1.0,random_dot,60.03186493290544,
right,right,accuracy,,,,,0.0,1.0,1.0,0.0,18.0,1.0,37.0,1.0,361.083681799937,,,,,,,,,361.0713390999008,361.1833627000451,361.9844953999855,361.96799440006725,361.9680355999153,361.9844953999855,361.9844953999855,361.9844953999855,,362.8699361998588,right,1.0,15.989458600059152,,,,,,,,,,,,,,,,,,,,,,,,,,,,,,,sub-083,1.0,random_dot,60.03186493290544,
right,right,accuracy,,,,,0.0,1.0,1.0,0.0,19.0,0.0,38.0,1.0,362.8837102998514,,,,,,,,,362.8713775998913,363.2334020000417,364.0346323000267,364.01832209993154,364.0183621000033,364.0346323000267,364.0346323000267,364.0346323000267,,364.853501399979,right,1.0,15.928053900133818,,,,,,,,,,,,,,,,,,,,,,,,,,,,,,,sub-083,1.0,random_dot,60.03186493290544,
left,left,accuracy,,,,,0.0,1.0,1.0,0.0,19.0,1.0,39.0,0.0,364.86712790001184,,,,,,,,,364.8549311000388,366.06685339985415,366.8677918000613,366.85118019999936,366.8512200000696,366.8677918000613,366.8677918000613,366.8677918000613,,367.9199715000577,left,1.0,16.163185500074178,,,,,,,,,,,,,,,,,,,,,,,,,,,,,,,sub-083,1.0,random_dot,60.03186493290544,
left,left,accuracy,,,,,0.0,1.0,1.0,0.0,20.0,0.0,40.0,0.0,367.9334172999952,,,,,,,,,367.92134079989046,369.1335257999599,369.9343463999685,369.9176372999791,369.9176775000524,369.9343463999685,369.9343463999685,369.9343463999685,,370.7529470999725,left,1.0,15.920753500191497,,,,,,,,,,,,,,,,,,,,,,,,,,,,,,,sub-083,1.0,random_dot,60.03186493290544,
right,right,accuracy,,,,,0.0,1.0,1.0,0.0,20.0,1.0,41.0,1.0,370.7668570999522,,,,,,,,,370.7543700998649,371.967013000045,372.7676053000614,372.7512882999145,372.7513279998675,372.7676053000614,372.7676053000614,372.7676053000614,,373.4039884998929,right,1.0,15.7512044000905,,,,,,,,,,,,,,,,,,,,,,,,,,,,,,,sub-083,1.0,random_dot,60.03186493290544,
right,right,accuracy,,,,,0.0,1.0,1.0,0.0,21.0,0.0,42.0,1.0,373.41685839998536,,,,,,,,,373.4053291999735,373.7668806998991,374.5677678999491,374.55125100002624,374.5512913998682,374.5677678999491,374.5677678999491,374.5677678999491,,375.2860790998675,right,1.0,15.82479070010595,,,,,,,,,,,,,,,,,,,,,,,,,,,,,,,sub-083,1.0,random_dot,60.03186493290544,
left,left,accuracy,,,,,0.0,1.0,1.0,0.0,21.0,1.0,43.0,0.0,375.3000552998856,,,,,,,,,375.2873738999479,375.65026889997534,376.4510129999835,376.4347590999678,376.43479930004105,376.4510129999835,376.4510129999835,376.4510129999835,,377.0210422000382,left,1.0,15.685654600150883,,,,,,,,,,,,,,,,,,,,,,,,,,,,,,,sub-083,1.0,random_dot,60.03186493290544,
right,right,accuracy,,,,,0.0,1.0,1.0,0.0,22.0,0.0,44.0,1.0,377.03350849985145,,,,,,,,,377.0223119000439,378.23345969989896,379.034452999942,379.01774080004543,379.0177815000061,379.034452999942,379.034452999942,379.034452999942,,379.6033955998719,right,1.0,15.673035900108516,,,,,,,,,,,,,,,,,,,,,,,,,,,,,,,sub-083,1.0,random_dot,60.03186493290544,
left,left,accuracy,,,,,0.0,1.0,1.0,0.0,22.0,1.0,45.0,0.0,379.6167830000632,,,,,,,,,379.604819299886,380.41620310000144,381.2175557999872,381.2012876998633,381.20132509991527,381.2175557999872,381.2175557999872,381.2175557999872,,381.93645099992864,left,1.0,15.829304700251669,,,,,,,,,,,,,,,,,,,,,,,,,,,,,,,sub-083,1.0,random_dot,60.03186493290544,
right,right,accuracy,,,,,0.0,1.0,1.0,0.0,23.0,0.0,46.0,1.0,381.94988529989496,,,,,,,,,381.9378500999883,382.3001506000292,383.1006116999779,383.08442089986056,383.0844596999232,383.1006116999779,383.1006116999779,383.1006116999779,,383.68647009995766,right,1.0,15.697933100163937,,,,,,,,,,,,,,,,,,,,,,,,,,,,,,,sub-083,1.0,random_dot,60.03186493290544,
left,left,accuracy,,,,,0.0,1.0,1.0,0.0,23.0,1.0,47.0,0.0,383.6998163000681,,,,,,,,,383.6878597000614,384.4998146998696,385.30080209998414,385.2846460000146,385.2846883998718,385.30080209998414,385.30080209998414,385.30080209998414,,386.0856613998767,left,1.0,15.894688500091434,,,,,,,,,,,,,,,,,,,,,,,,,,,,,,,sub-083,1.0,random_dot,60.03186493290544,
right,right,accuracy,,,,,0.0,1.0,1.0,0.0,24.0,0.0,48.0,1.0,386.0997218000703,,,,,,,,,386.0869923999999,386.199879999971,387.00066399993375,386.98392289993353,386.9839572999626,387.00066399993375,387.00066399993375,387.00066399993375,,387.5697572999634,right,1.0,15.675930900266394,,,,,,,,,,,,,,,,,,,,,,,,,,,,,,,sub-083,1.0,random_dot,60.03186493290544,
left,left,accuracy,,,,,0.0,1.0,1.0,0.0,24.0,1.0,49.0,0.0,387.5831589999143,,,,,,,,,387.571195699973,388.7830262000207,389.58397879987024,389.56761560007,389.567656399915,389.58397879987024,389.58397879987024,389.58397879987024,,390.1866681999527,left,1.0,15.718509300146252,,,,,,,,,,,,,,,,,,,,,,,,,,,,,,,sub-083,1.0,random_dot,60.03186493290544,
left,left,accuracy,,,,,0.0,1.0,1.0,0.0,25.0,0.0,50.0,0.0,390.1997001999989,,,,,,,,,390.1880202998873,390.5496548998635,391.3507662999909,391.3343946000096,391.3344298999291,391.3507662999909,391.3507662999909,391.3507662999909,,392.1859170999378,left,1.0,15.94305400014855,,,,,,,,,,,,,,,,,,,,,,,,,,,,,,,sub-083,1.0,random_dot,60.03186493290544,
right,right,accuracy,,,,,0.0,1.0,1.0,0.0,25.0,1.0,51.0,1.0,392.1999544999562,,,,,,,,,392.1872592000291,392.9997618999332,393.80067789996974,393.7841521999799,393.7841922000516,393.80067789996974,393.80067789996974,393.80067789996974,,394.802752800053,right,1.0,16.10654310020618,,,,,,,,,,,,,,,,,,,,,,,,,,,,,,,sub-083,1.0,random_dot,60.03186493290544,
right,right,accuracy,,,,,0.0,1.0,1.0,0.0,26.0,0.0,52.0,1.0,394.8164264999796,,,,,,,,,394.8041522998829,395.1662149999757,395.9671753000002,395.9507782999426,395.9508167998865,395.9671753000002,395.9671753000002,395.9671753000002,,396.65283639985137,right,1.0,15.790854100137947,,,,,,,,,,,,,,,,,,,,,,,,,,,,,,,sub-083,1.0,random_dot,60.03186493290544,
left,left,accuracy,,,,,0.0,1.0,1.0,0.0,26.0,1.0,53.0,0.0,396.6660636998713,,,,,,,,,396.65431969985366,397.4664036000613,398.2671167999506,398.2507066999096,398.2507471998688,398.2671167999506,398.2671167999506,398.2671167999506,,398.90238169999793,left,1.0,15.749263000208884,,,,,,,,,,,,,,,,,,,,,,,,,,,,,,,sub-083,1.0,random_dot,60.03186493290544,
right,right,accuracy,,,,,0.0,1.0,1.0,0.0,27.0,0.0,54.0,1.0,398.91616869997233,,,,,,,,,398.9037915000226,399.2662676000036,400.0673414999619,400.0507809999399,400.0508204998914,400.0673414999619,400.0673414999619,400.0673414999619,,400.6863977999892,right,1.0,15.730984900146725,,,,,,,,,,,,,,,,,,,,,,,,,,,,,,,sub-083,1.0,random_dot,60.03186493290544,
left,left,accuracy,,,,,0.0,1.0,1.0,0.0,27.0,1.0,55.0,0.0,400.6994747999124,,,,,,,,,400.6878219000064,401.8994497999083,402.7003831998445,402.6837824999821,402.6838195999153,402.7003831998445,402.7003831998445,402.7003831998445,,403.301992099965,left,1.0,15.71156010008417,,,,,,,,,,,,,,,,,,,,,,,,,,,,,,,sub-083,1.0,random_dot,60.03186493290544,
right,right,accuracy,,,,,0.0,1.0,1.0,0.0,28.0,0.0,56.0,1.0,403.3162330999039,,,,,,,,,403.3029783000238,403.4162786998786,404.2171126999892,404.2006165999919,404.20065560005605,404.2171126999892,404.2171126999892,404.2171126999892,,404.7359925999772,right,1.0,15.62397970026359,,,,,,,,,,,,,,,,,,,,,,,,,,,,,,,sub-083,1.0,random_dot,60.03186493290544,
left,left,accuracy,,,,,0.0,1.0,1.0,0.0,28.0,1.0,57.0,0.0,404.7494258999359,,,,,,,,,404.73752269987017,405.9493487,406.7503249000292,406.733910900075,406.7339524999261,406.7503249000292,406.7503249000292,406.7503249000292,,407.602782699978,left,1.0,15.96551340026781,,,,,,,,,,,,,,,,,,,,,,,,,,,,,,,sub-083,1.0,random_dot,60.03186493290544,
right,right,accuracy,,,,,0.0,1.0,1.0,0.0,29.0,0.0,58.0,1.0,407.6161100999452,,,,,,,,,407.6042073999997,408.4160118000582,409.2169761999976,409.2005702999886,409.2006089999341,409.2169761999976,409.2169761999976,409.2169761999976,,409.7186757999007,right,1.0,15.614703800296413,,,,,,,,,,,,,,,,,,,,,,,,,,,,,,,sub-083,1.0,random_dot,60.03186493290544,
left,left,accuracy,,,,,0.0,1.0,1.0,0.0,29.0,1.0,59.0,0.0,409.7326537999325,,,,,,,,,409.720000699861,410.93254159996286,411.7335224000272,411.7172379000112,411.71727899997495,411.7335224000272,411.7335224000272,411.7335224000272,,412.26930699986406,left,1.0,15.648422100115567,,,,,,,,,,,,,,,,,,,,,,,,,,,,,,,sub-083,1.0,random_dot,60.03186493290544,
,,accuracy,,,,,0.0,1.0,1.0,0.0,,,,,,,,,,,,,,,,,,,,,,,,,,,,,,,,,,,,,,,,,,,,,,,,,,,,,,,,,sub-083,1.0,random_dot,60.03186493290544,
,,,,,,,,,,,,,,,,,,,,,,,,,,,,,,,,,,,,,,,,,,,,,,,,,,,,,,,,,,,,,,,412.2704389998689,412.2825092000421,417.282604200067,417.2669494000729,sub-083,,,,
