direction,corrAns,randomInstr,practice_trials.thisRepN,practice_trials.thisTrialN,practice_trials.thisN,practice_trials.thisIndex,instr_trials.thisRepN,instr_trials.thisTrialN,instr_trials.thisN,instr_trials.thisIndex,test_trials.thisRepN,test_trials.thisTrialN,test_trials.thisN,test_trials.thisIndex,thisRow.t,notes,general_instruction.started,textGeneralInstr.started,respGeneralInstr.started,general_instruction.stopped,respGeneralInstr.keys,respGeneralInstr.rt,respGeneralInstr.duration,ITI.started,fixcross.started,fixcross.stopped,ITI.stopped,dots.started,backgroundDots.started,stimulusDots.started,respDots.started,stimulusDots.stopped,dots.stopped,respDots.keys,respDots.corr,respDots.rt,respDots.duration,feedback.started,textFeedback.started,feedback.stopped,textFeedback.stopped,info.started,textInfo.started,keyRespInfo.started,info.stopped,keyRespInfo.keys,keyRespInfo.rt,keyRespInfo.duration,test_instruction.started,textTestInstr.started,respTestInstr.started,test_instruction.stopped,respTestInstr.keys,respTestInstr.rt,respTestInstr.duration,random_instruction.started,textRandomInstr.started,respRandomInstr.started,random_instruction.stopped,respRandomInstr.keys,respRandomInstr.rt,respRandomInstr.duration,goodbye.started,textGoodbye.started,textGoodbye.stopped,goodbye.stopped,participant,session,expName,frameRate,Unnamed: 74
,,,,,,,,,,,,,,,,,0.04137580000679,0.057656200020574,0.057656200020574,26.79085860002669,space,45.41777319996618,,,,,,,,,,,,,,,,,,,,,,,,,,,,,,,,,,,,,,,,,,,,,sub-220,1.0,random_dot,60.05418088206938,
left,left,,0.0,0.0,0.0,0.0,,,,,,,,,26.81804350001039,,,,,,,,,26.81371220000437,27.154871400009142,27.966969800007064,27.940001700015276,27.9400319000124,27.966969800007064,27.966969800007064,27.966969800007064,32.944284700002754,37.14961340001901,left,1.0,27.87424109998392,,37.16158450001967,37.18233780001174,37.66394670002046,,,,,,,,,,,,,,,,,,,,,,,,,,,sub-220,1.0,random_dot,60.05418088206938,
right,right,,0.0,1.0,1.0,1.0,,,,,,,,,37.680220000009285,,,,,,,,,37.66462300001877,38.46449070001836,39.266055200016126,39.24960600002669,39.24964460000047,39.266055200016126,39.266055200016126,39.266055200016126,44.25332190000336,48.526316000003135,right,1.0,27.95839779998641,,48.52712000001338,48.539395600004354,49.02445970001281,49.03980369999772,,,,,,,,,,,,,,,,,,,,,,,,,,sub-220,1.0,random_dot,60.05418088206938,
left,left,,1.0,0.0,2.0,0.0,,,,,,,,,49.03980369999772,,,,,,,,,49.02506780001568,49.14008599999943,49.9417012000049,49.92513330001384,49.92516930002603,49.9417012000049,49.9417012000049,49.9417012000049,54.929031700012274,56.39873130002525,left,1.0,25.141482299979543,,56.39943860002677,56.41286870001932,56.89740220000385,56.91291310000816,,,,,,,,,,,,,,,,,,,,,,,,,,sub-220,1.0,random_dot,60.05418088206938,
right,right,,1.0,1.0,3.0,1.0,,,,,,,,,56.91291310000816,,,,,,,,,56.89821150002536,57.01315370001248,57.81465010001557,57.798094600002514,57.7981275000202,57.81465010001557,57.81465010001557,57.81465010001557,62.80249110001023,65.6566285000008,right,1.0,26.528488199983254,,65.65743350001867,65.67044440002064,66.1551191000035,66.17086640000343,,,,,,,,,,,,,,,,,,,,,,,,,,sub-220,1.0,random_dot,60.05418088206938,
right,right,,2.0,0.0,4.0,1.0,,,,,,,,,66.17086640000343,,,,,,,,,66.15575070001069,66.97129210000276,67.77314070001012,67.75662150001153,67.756658600003,67.77314070001012,67.77314070001012,67.77314070001012,72.76036830001976,73.76322130000335,right,1.0,24.68434169999091,,73.76404570002342,73.77720840001712,74.26213470002403,74.27744540001731,,,,,,,,,,,,,,,,,,,,,,,,,,sub-220,1.0,random_dot,60.05418088206938,
left,left,,2.0,1.0,5.0,0.0,,,,,,,,,74.27744540001731,,,,,,,,,74.26273560000118,75.4785102000169,76.28005190001568,76.26362599999993,76.263664099999,76.28005190001568,76.28005190001568,76.28005190001568,81.26750590000302,82.25367970002117,left,1.0,24.65819189997273,,82.25451790000079,82.26768260000972,82.75262140002451,82.76776660000905,,,,,,,,,,,,,,,,,,,,,,,,,,sub-220,1.0,random_dot,60.05418088206938,
right,right,,3.0,0.0,6.0,1.0,,,,,,,,,82.76776660000905,,,,,,,,,82.75324840002577,83.1182933000091,83.91938110001502,83.90309470001375,83.90313140000217,83.91938110001502,83.91938110001502,83.91938110001502,88.90717320001568,91.04464500001632,right,1.0,25.815949399984675,,91.04600480000954,91.05813940000372,91.542754300026,91.5583309000067,,,,,,,,,,,,,,,,,,,,,,,,,,sub-220,1.0,random_dot,60.05418088206938,
left,left,,3.0,1.0,7.0,0.0,,,,,,,,,91.5583309000067,,,,,,,,,91.54331320000348,91.65850879999924,92.46010960001148,92.44335100002354,92.44338440001592,92.46010960001148,92.46010960001148,92.46010960001148,97.44753430000856,98.90054290002443,right,0.0,25.13567829996464,,98.9014035,98.9183200999978,99.41520330001369,,,,,,,,,,,,,,,,,,,,,,,,,,,sub-220,1.0,random_dot,60.05418088206938,
right,right,,4.0,0.0,8.0,1.0,,,,,,,,,99.43164809999872,,,,,,,,,99.41590480000012,100.6159676000243,101.41765730001498,101.4011438000016,101.40118159999838,101.41765730001498,101.41765730001498,101.41765730001498,106.4050802999991,107.45804370002588,left,0.0,24.730687199975364,,107.45894830001636,107.47179060001508,107.957166600012,107.97208170001976,,,,,,,,,,,,,,,,,,,,,,,,,,sub-220,1.0,random_dot,60.05418088206938,
left,left,,4.0,1.0,9.0,0.0,,,,,,,,,107.97208170001976,,,,,,,,,107.95783180001308,108.07229790001291,108.87398699999903,108.85748880001483,108.85752610000782,108.87398699999903,108.87398699999903,108.87398699999903,113.86114760002238,114.6801977000141,right,0.0,24.499470399983693,,114.68105710000964,114.69419580002432,115.17932260001544,115.194908400008,,,,,,,,,,,,,,,,,,,,,,,,,,sub-220,1.0,random_dot,60.05418088206938,
left,left,,5.0,0.0,10.0,0.0,,,,,,,,,115.194908400008,,,,,,,,,115.1799816999992,115.99550060002366,116.79709370000636,116.78043230000183,116.78046980002546,116.79709370000636,116.79709370000636,116.79709370000636,121.78437730000589,122.82057360000908,left,1.0,24.71730359995854,,122.82139330002246,122.83440160000464,123.31937900002232,123.33480160002364,,,,,,,,,,,,,,,,,,,,,,,,,,sub-220,1.0,random_dot,60.05418088206938,
right,right,,5.0,1.0,11.0,1.0,,,,,,,,,123.33480160002364,,,,,,,,,123.32005600002594,124.53588140002104,125.33747050000238,125.3209575000219,125.32099600002402,125.33747050000238,125.33747050000238,125.33747050000238,130.3248817000131,131.32769299999927,right,1.0,24.676968599960677,,131.3284795000218,131.34142370001064,131.82666469999822,131.84190960001433,,,,,,,,,,,,,,,,,,,,,,,,,,sub-220,1.0,random_dot,60.05418088206938,
right,right,,6.0,0.0,12.0,1.0,,,,,,,,,131.84190960001433,,,,,,,,,131.8273134000192,131.94260770000983,132.74362700001802,132.7271886000235,132.72722490000888,132.74362700001802,132.74362700001802,132.74362700001802,137.7309997000266,138.48365270000068,left,0.0,24.433706499956315,,138.48448000001372,138.4972161000187,138.98231960000703,138.9976821000164,,,,,,,,,,,,,,,,,,,,,,,,,,sub-220,1.0,random_dot,60.05418088206938,
left,left,,6.0,1.0,13.0,0.0,,,,,,,,,138.9976821000164,,,,,,,,,138.98292710000533,139.3480997000006,140.14959620000445,140.13322899999912,140.1332670999982,140.14959620000445,140.14959620000445,140.14959620000445,145.1370631000027,147.00751120000496,right,0.0,25.54560389998369,,147.00832540000556,147.02121810000972,147.50609010001062,147.52151030002278,,,,,,,,,,,,,,,,,,,,,,,,,,sub-220,1.0,random_dot,60.05418088206938,
right,right,,7.0,0.0,14.0,1.0,,,,,,,,,147.52151030002278,,,,,,,,,147.5067644000228,147.62160350001068,148.4232736999984,148.40686880002613,148.40691660001175,148.4232736999984,148.4232736999984,148.4232736999984,153.41059000001405,154.18008200000622,right,1.0,24.454639099974884,,154.18089390001842,154.1935296000156,154.67897150001954,154.6942512000096,,,,,,,,,,,,,,,,,,,,,,,,,,sub-220,1.0,random_dot,60.05418088206938,
left,left,,7.0,1.0,15.0,0.0,,,,,,,,,154.6942512000096,,,,,,,,,154.67960490001133,155.49481530001503,156.29632410002523,156.2798940000066,156.27993119999883,156.29632410002523,156.29632410002523,156.29632410002523,161.28394790002494,161.9697559000051,left,1.0,24.36098279998987,,161.9706531999982,161.98367919999873,162.46848730000784,162.48388720001094,,,,,,,,,,,,,,,,,,,,,,,,,,sub-220,1.0,random_dot,60.05418088206938,
right,right,,8.0,0.0,16.0,1.0,,,,,,,,,162.48388720001094,,,,,,,,,162.46911630002433,163.68498460002593,164.48654740001075,164.47003370002494,164.4700708000164,164.48654740001075,164.48654740001075,164.48654740001075,169.47398390001035,170.20984250001493,left,0.0,24.41489929999807,,170.2106586000009,170.2236394000065,170.70860990000074,170.72394980001263,,,,,,,,,,,,,,,,,,,,,,,,,,sub-220,1.0,random_dot,60.05418088206938,
left,left,,8.0,1.0,17.0,0.0,,,,,,,,,170.72394980001263,,,,,,,,,170.70925250000437,170.82412679999834,171.625855100021,171.6094733000209,171.60950990000856,171.625855100021,171.625855100021,171.625855100021,176.6130740000226,177.5327700000198,left,1.0,24.590480099985143,,177.5335607000161,177.54628790001152,178.03130610001972,178.04694710002514,,,,,,,,,,,,,,,,,,,,,,,,,,sub-220,1.0,random_dot,60.05418088206938,
right,right,,9.0,0.0,18.0,1.0,,,,,,,,,178.04694710002514,,,,,,,,,178.03193180001108,178.3968991000147,179.1988796000078,179.18218640002306,179.18223350000335,179.1988796000078,179.1988796000078,179.1988796000078,184.18614030000757,184.95503450001704,right,1.0,24.44219149998389,,184.95593250001548,184.96906530001436,185.45445650001056,185.4697215000051,,,,,,,,,,,,,,,,,,,,,,,,,,sub-220,1.0,random_dot,60.05418088206938,
left,left,,9.0,1.0,19.0,0.0,,,,,,,,,185.4697215000051,,,,,,,,,185.45516570002653,185.8198998000007,186.62156390000015,186.6051156000176,186.60515290001055,186.62156390000015,186.62156390000015,186.62156390000015,191.60879590001423,192.31125170001175,left,1.0,24.376266199979,,192.3119582000072,192.3252697999997,192.8099885000265,192.82548660002067,,,,,,,,,,,,,,,,,,,,,,,,,,sub-220,1.0,random_dot,60.05418088206938,
,,,,,,,,,,,,,,,,,,,,,,,,,,,,,,,,,,,,,,,,,,192.81010820000665,192.82548660002067,192.82548660002067,198.48248610002335,space,24.344171099975934,,,,,,,,,,,,,,,,,,,,sub-220,1.0,random_dot,60.05418088206938,
,,,,,,,,,,,,,,,,,,,,,,,,,,,,,,,,,,,,,,,,,,,,,,,,,198.4825456000108,198.4974530000181,198.4974530000181,203.2532997000089,space,23.445160599978408,,,,,,,,,,,,,sub-220,1.0,random_dot,60.05418088206938,
right,right,accuracy,,,,,0.0,0.0,0.0,0.0,0.0,0.0,0.0,1.0,206.67279100001903,,,,,,,,,206.66807530002552,207.87155640000128,208.6732136000064,208.6566995000176,208.6567431000003,208.6732136000064,208.6732136000064,208.6732136000064,213.66108180000447,214.6136254000012,right,1.0,24.631870399956824,,,,,,,,,,,,,,,,,,,,203.26088890002572,203.30469000001904,203.30469000001904,206.65594460000284,space,22.04246269998839,,,,,,sub-220,1.0,random_dot,60.05418088206938,
left,left,accuracy,,,,,0.0,0.0,0.0,0.0,0.0,1.0,1.0,0.0,214.62718410001253,,,,,,,,,214.61578580000787,215.82806960001471,216.6299260000233,216.6134616000054,216.6134973000153,216.6299260000233,216.6299260000233,216.6299260000233,221.6173153000127,223.32066740002483,left,1.0,25.38071609995677,,,,,,,,,,,,,,,,,,,,,,,,,,,,,,,sub-220,1.0,random_dot,60.05418088206938,
left,left,accuracy,,,,,0.0,0.0,0.0,0.0,1.0,0.0,2.0,0.0,223.33425470002112,,,,,,,,,223.32234100002097,224.53547100001012,225.3371558000217,225.32061190000968,225.32064820002412,225.3371558000217,225.3371558000217,225.3371558000217,230.3244239000196,231.27715010000972,left,1.0,24.623997399990916,,,,,,,,,,,,,,,,,,,,,,,,,,,,,,,sub-220,1.0,random_dot,60.05418088206938,
right,right,accuracy,,,,,0.0,0.0,0.0,0.0,1.0,1.0,3.0,1.0,231.291298199998,,,,,,,,,231.27885690002583,231.39121810000503,232.1928197000234,232.1764379000233,232.17647520001628,232.1928197000234,232.1928197000234,232.1928197000234,237.1802174000186,238.39981250002165,right,1.0,24.891709799994715,,,,,,,,,,,,,,,,,,,,,,,,,,,,,,,sub-220,1.0,random_dot,60.05418088206938,
left,left,accuracy,,,,,0.0,0.0,0.0,0.0,2.0,0.0,4.0,0.0,238.41355580001252,,,,,,,,,238.4014567000268,239.61452940001615,240.4162092000188,240.3998318000231,240.3998694000184,240.4162092000188,240.4162092000188,240.4162092000188,245.40390060000937,246.47306119999848,left,1.0,24.740034199960064,,,,,,,,,,,,,,,,,,,,,,,,,,,,,,,sub-220,1.0,random_dot,60.05418088206938,
right,right,accuracy,,,,,0.0,0.0,0.0,0.0,2.0,1.0,5.0,1.0,246.48695000002044,,,,,,,,,246.4747532000183,246.8373729000159,247.63897110000835,247.62216790000093,247.62220510002223,247.63897110000835,247.63897110000835,247.63897110000835,252.6262688999996,254.12955270000384,right,1.0,25.177427499962505,,,,,,,,,,,,,,,,,,,,,,,,,,,,,,,sub-220,1.0,random_dot,60.05418088206938,
right,right,accuracy,,,,,0.0,0.0,0.0,0.0,3.0,0.0,6.0,1.0,254.1432222000149,,,,,,,,,254.1312268000038,254.49356630002148,255.29526250000345,255.27883910000676,255.27888700002225,255.29526250000345,255.29526250000345,255.29526250000345,260.28255950001767,261.73596499999985,right,1.0,25.134786499955226,,,,,,,,,,,,,,,,,,,,,,,,,,,,,,,sub-220,1.0,random_dot,60.05418088206938,
left,left,accuracy,,,,,0.0,0.0,0.0,0.0,3.0,1.0,7.0,0.0,261.7495671000215,,,,,,,,,261.7375824000046,262.55044630001066,263.35204210001393,263.3353182999999,263.3353674000245,263.35204210001393,263.35204210001393,263.35204210001393,268.3393175000092,269.3092574000184,left,1.0,24.65535249997629,,,,,,,,,,,,,,,,,,,,,,,,,,,,,,,sub-220,1.0,random_dot,60.05418088206938,
right,right,accuracy,,,,,0.0,0.0,0.0,0.0,4.0,0.0,8.0,1.0,269.32267510000383,,,,,,,,,269.3108814000152,270.5235731000139,271.3252338000166,271.3087534000224,271.308789600007,271.3252338000166,271.3252338000166,271.3252338000166,276.3125657000055,277.415496600006,left,0.0,24.77756980000413,,,,,,,,,,,,,,,,,,,,,,,,,,,,,,,sub-220,1.0,random_dot,60.05418088206938,
left,left,accuracy,,,,,0.0,0.0,0.0,0.0,4.0,1.0,9.0,0.0,277.4294274999993,,,,,,,,,277.417116000026,277.7795448000252,278.58117340001627,278.5647241999977,278.56476190002286,278.58117340001627,278.58117340001627,278.58117340001627,283.5680341000261,284.5380018000142,left,1.0,24.650412099959794,,,,,,,,,,,,,,,,,,,,,,,,,,,,,,,sub-220,1.0,random_dot,60.05418088206938,
right,right,accuracy,,,,,0.0,0.0,0.0,0.0,5.0,0.0,10.0,1.0,284.5518650000158,,,,,,,,,284.5396459000185,284.6519138000149,285.453439200006,285.4370982000255,285.43713530001696,285.453439200006,285.453439200006,285.453439200006,290.44104030000744,291.5773005000083,left,0.0,24.82248899998376,,,,,,,,,,,,,,,,,,,,,,,,,,,,,,,sub-220,1.0,random_dot,60.05418088206938,
left,left,accuracy,,,,,0.0,0.0,0.0,0.0,5.0,1.0,11.0,0.0,291.5910220000078,,,,,,,,,291.5788799000147,291.6910313999979,292.49280750000617,292.4762717000267,292.4763079000113,292.49280750000617,292.49280750000617,292.49280750000617,297.4802768000227,298.5830455000105,right,0.0,24.77712449998944,,,,,,,,,,,,,,,,,,,,,,,,,,,,,,,sub-220,1.0,random_dot,60.05418088206938,
right,right,accuracy,,,,,0.0,0.0,0.0,0.0,6.0,0.0,12.0,1.0,298.59689340001205,,,,,,,,,298.5847336000006,298.94697260000976,299.7489038000058,299.73192660001223,299.7319629999984,299.7489038000058,299.7489038000058,299.7489038000058,304.7360784000193,305.82237370000803,right,1.0,24.76551359999576,,,,,,,,,,,,,,,,,,,,,,,,,,,,,,,sub-220,1.0,random_dot,60.05418088206938,
left,left,accuracy,,,,,0.0,0.0,0.0,0.0,6.0,1.0,13.0,0.0,305.83610450002016,,,,,,,,,305.82399870001245,305.936279000016,306.73768990000826,306.72161990002496,306.7216708000051,306.73768990000826,306.73768990000826,306.73768990000826,311.7252264000126,312.6447339000006,left,1.0,24.591779399954248,,,,,,,,,,,,,,,,,,,,,,,,,,,,,,,sub-220,1.0,random_dot,60.05418088206938,
left,left,accuracy,,,,,0.0,0.0,0.0,0.0,7.0,0.0,14.0,0.0,312.65839390002657,,,,,,,,,312.64642370000365,313.4597254000255,314.26083559999825,314.24418420001166,314.2442513999995,314.26083559999825,314.26083559999825,314.26083559999825,319.24796030001016,320.0341045000241,left,1.0,24.45725469995523,,,,,,,,,,,,,,,,,,,,,,,,,,,,,,,sub-220,1.0,random_dot,60.05418088206938,
right,right,accuracy,,,,,0.0,0.0,0.0,0.0,7.0,1.0,15.0,1.0,320.0479192000057,,,,,,,,,320.03570360000595,320.39825110000675,321.1998514000152,321.183417799999,321.1834538000112,321.1998514000152,321.1998514000152,321.1998514000152,326.1872521000041,327.37363020001794,right,1.0,24.866497099981643,,,,,,,,,,,,,,,,,,,,,,,,,,,,,,,sub-220,1.0,random_dot,60.05418088206938,
left,left,accuracy,,,,,0.0,0.0,0.0,0.0,8.0,0.0,16.0,0.0,327.38732380000874,,,,,,,,,327.37531530001434,328.5881784000085,329.39004070000374,329.3737974000105,329.3738336000242,329.39004070000374,329.39004070000374,329.39004070000374,334.3777101000014,335.36346710001817,left,1.0,24.663241699978244,,,,,,,,,,,,,,,,,,,,,,,,,,,,,,,sub-220,1.0,random_dot,60.05418088206938,
right,right,accuracy,,,,,0.0,0.0,0.0,0.0,8.0,1.0,17.0,1.0,335.37736930002575,,,,,,,,,335.36546630001976,336.57821360000526,337.3798535000242,337.36352170002647,337.3635591000202,337.3798535000242,337.3798535000242,337.3798535000242,342.3673428000184,343.47018610002124,right,1.0,24.78050219998113,,,,,,,,,,,,,,,,,,,,,,,,,,,,,,,sub-220,1.0,random_dot,60.05418088206938,
right,right,accuracy,,,,,0.0,0.0,0.0,0.0,9.0,0.0,18.0,1.0,343.48405510000885,,,,,,,,,343.4718938000151,343.8343204999983,344.6360862000147,344.6196162000124,344.6196532000031,344.6360862000147,344.6360862000147,344.6360862000147,349.6233150000044,350.4757574000105,right,1.0,24.531053399958186,,,,,,,,,,,,,,,,,,,,,,,,,,,,,,,sub-220,1.0,random_dot,60.05418088206938,
left,left,accuracy,,,,,0.0,0.0,0.0,0.0,9.0,1.0,19.0,0.0,350.48957170001813,,,,,,,,,350.4782976999996,350.5900851000042,351.3915218000184,351.3752991000074,351.3753353000211,351.3915218000184,351.3915218000184,351.3915218000184,356.3789909000043,357.0818818999978,right,0.0,24.38371479997295,,,,,,,,,,,,,,,,,,,,,,,,,,,,,,,sub-220,1.0,random_dot,60.05418088206938,
left,left,accuracy,,,,,0.0,0.0,0.0,0.0,10.0,0.0,20.0,0.0,357.09512010001345,,,,,,,,,357.0834806000057,357.19531010001083,357.99718080001185,357.9807559000037,357.9807929000235,357.99718080001185,357.99718080001185,357.99718080001185,362.9844412000093,363.8035149000061,left,1.0,24.490186199982418,,,,,,,,,,,,,,,,,,,,,,,,,,,,,,,sub-220,1.0,random_dot,60.05418088206938,
right,right,accuracy,,,,,0.0,0.0,0.0,0.0,10.0,1.0,21.0,1.0,363.81765579999774,,,,,,,,,363.80515640001977,365.01842710000346,365.8201624000212,365.8036934999982,365.80373240000335,365.8201624000212,365.8201624000212,365.8201624000212,370.8077223,371.3599192000111,right,1.0,24.23503619997064,,,,,,,,,,,,,,,,,,,,,,,,,,,,,,,sub-220,1.0,random_dot,60.05418088206938,
left,left,accuracy,,,,,0.0,0.0,0.0,0.0,11.0,0.0,22.0,0.0,371.373746199999,,,,,,,,,371.3615932000103,371.7240636000061,372.52576509999926,372.5094620000164,372.50950000001467,372.52576509999926,372.52576509999926,372.52576509999926,377.5131818000227,378.11567820000346,left,1.0,24.27322969996021,,,,,,,,,,,,,,,,,,,,,,,,,,,,,,,sub-220,1.0,random_dot,60.05418088206938,
right,right,accuracy,,,,,0.0,0.0,0.0,0.0,11.0,1.0,23.0,1.0,378.12938710002345,,,,,,,,,378.11748980000266,379.3302092000085,380.1321409000084,380.11576720001176,380.1158035999979,380.1321409000084,380.1321409000084,380.1321409000084,385.119613900024,385.80518750002375,right,1.0,24.360725999984425,,,,,,,,,,,,,,,,,,,,,,,,,,,,,,,sub-220,1.0,random_dot,60.05418088206938,
left,left,accuracy,,,,,0.0,0.0,0.0,0.0,12.0,0.0,24.0,0.0,385.8192124000052,,,,,,,,,385.8068430999992,386.61973790000775,387.421543000004,387.4049477000081,387.4049858000071,387.421543000004,387.421543000004,387.421543000004,392.4086393000034,393.4279385000118,left,1.0,24.69517739998992,,,,,,,,,,,,,,,,,,,,,,,,,,,,,,,sub-220,1.0,random_dot,60.05418088206938,
right,right,accuracy,,,,,0.0,0.0,0.0,0.0,12.0,1.0,25.0,1.0,393.4419013000152,,,,,,,,,393.4296285000164,394.642894700024,395.4447796000168,395.4283047000063,395.42833940000855,395.4447796000168,395.4447796000168,395.4447796000168,400.4319878000242,401.1015809000237,right,1.0,24.352911399968438,,,,,,,,,,,,,,,,,,,,,,,,,,,,,,,sub-220,1.0,random_dot,60.05418088206938,
left,left,accuracy,,,,,0.0,0.0,0.0,0.0,13.0,0.0,26.0,0.0,401.11527310000383,,,,,,,,,401.10323840001365,401.915453499998,402.71739930001786,402.7010942000197,402.7011308000074,402.71739930001786,402.71739930001786,402.71739930001786,407.70493390000775,408.52424360002624,left,1.0,24.50195099998382,,,,,,,,,,,,,,,,,,,,,,,,,,,,,,,sub-220,1.0,random_dot,60.05418088206938,
right,right,accuracy,,,,,0.0,0.0,0.0,0.0,13.0,1.0,27.0,1.0,408.5380917000002,,,,,,,,,408.5258894000144,409.3385116000136,410.1401913000154,410.1238944000215,410.1239466000116,410.1401913000154,410.1401913000154,410.1401913000154,415.1276689000079,416.2473491000128,left,0.0,24.79137769996305,,,,,,,,,,,,,,,,,,,,,,,,,,,,,,,sub-220,1.0,random_dot,60.05418088206938,
left,left,accuracy,,,,,0.0,0.0,0.0,0.0,14.0,0.0,28.0,0.0,416.2609476000071,,,,,,,,,416.2490709000267,416.3610950000002,417.1625462000084,417.1459843000048,417.1460197000124,417.1625462000084,417.1625462000084,417.1625462000084,422.1499030000123,423.0029212000081,left,1.0,24.53599939995911,,,,,,,,,,,,,,,,,,,,,,,,,,,,,,,sub-220,1.0,random_dot,60.05418088206938,
right,right,accuracy,,,,,0.0,0.0,0.0,0.0,14.0,1.0,29.0,1.0,423.0168194000144,,,,,,,,,423.0046103000059,423.1166809000133,423.9180352000112,423.9019599000167,423.901995799999,423.9180352000112,423.9180352000112,423.9180352000112,428.9056599000178,429.7081221000117,right,1.0,24.484839699987788,,,,,,,,,,,,,,,,,,,,,,,,,,,,,,,sub-220,1.0,random_dot,60.05418088206938,
right,right,accuracy,,,,,0.0,0.0,0.0,0.0,15.0,0.0,30.0,1.0,429.7221723000112,,,,,,,,,429.70973660002346,430.0725036000076,430.8737721000216,430.8577924999991,430.8578293000173,430.8737721000216,430.8737721000216,430.8737721000216,435.8614546000026,436.3303363000159,right,1.0,24.150632799981395,,,,,,,,,,,,,,,,,,,,,,,,,,,,,,,sub-220,1.0,random_dot,60.05418088206938,
left,left,accuracy,,,,,0.0,0.0,0.0,0.0,15.0,1.0,31.0,0.0,436.3442465000262,,,,,,,,,436.3319611000188,436.4445031000069,437.24611150001874,437.22964020000654,437.229688100022,437.24611150001874,437.24611150001874,437.24611150001874,442.2333633000089,442.6690507000021,left,1.0,24.114394399977755,,,,,,,,,,,,,,,,,,,,,,,,,,,,,,,sub-220,1.0,random_dot,60.05418088206938,
left,left,accuracy,,,,,0.0,0.0,0.0,0.0,16.0,0.0,32.0,0.0,442.68295740001486,,,,,,,,,442.6706451000064,443.0333518999978,443.83488100001705,443.81840580000426,443.8184410000104,443.83488100001705,443.83488100001705,443.83488100001705,448.8222581000009,449.2412977000058,left,1.0,24.092582299985224,,,,,,,,,,,,,,,,,,,,,,,,,,,,,,,sub-220,1.0,random_dot,60.05418088206938,
right,right,accuracy,,,,,0.0,0.0,0.0,0.0,16.0,1.0,33.0,1.0,449.2550696000108,,,,,,,,,449.24297099999967,449.60546270001214,450.4070053000178,450.3904430000112,450.3904814000125,450.4070053000178,450.4070053000178,450.4070053000178,455.39431430000695,455.863388800004,right,1.0,24.14115359997959,,,,,,,,,,,,,,,,,,,,,,,,,,,,,,,sub-220,1.0,random_dot,60.05418088206938,
right,right,accuracy,,,,,0.0,0.0,0.0,0.0,17.0,0.0,34.0,1.0,455.87723710000864,,,,,,,,,455.8650495000184,456.6779251000262,457.4795867000066,457.46305400002166,457.4630916000169,457.4795867000066,457.4795867000066,457.4795867000066,462.4669722000253,462.9358016000188,right,1.0,24.149179899977756,,,,,,,,,,,,,,,,,,,,,,,,,,,,,,,sub-220,1.0,random_dot,60.05418088206938,
left,left,accuracy,,,,,0.0,0.0,0.0,0.0,17.0,1.0,35.0,0.0,462.9497880999989,,,,,,,,,462.9374708000105,463.7506370000192,464.5519157000235,464.5357308000093,464.5357679000008,464.5519157000235,464.5519157000235,464.5519157000235,469.5394946000015,470.45875499999966,left,1.0,24.59336049997364,,,,,,,,,,,,,,,,,,,,,,,,,,,,,,,sub-220,1.0,random_dot,60.05418088206938,
left,left,accuracy,,,,,0.0,0.0,0.0,0.0,18.0,0.0,36.0,0.0,470.4728005000216,,,,,,,,,470.4603975000209,470.57277880000765,471.3743777000054,471.3578228999977,471.357986100018,471.3743777000054,471.3743777000054,471.3743777000054,476.3619019000034,476.84770140002365,left,1.0,24.15887610000209,,,,,,,,,,,,,,,,,,,,,,,,,,,,,,,sub-220,1.0,random_dot,60.05418088206938,
right,right,accuracy,,,,,0.0,0.0,0.0,0.0,18.0,1.0,37.0,1.0,476.8612276000204,,,,,,,,,476.84957300001406,477.6621333000076,478.46359550001216,478.4469476000231,478.44698410001,478.46359550001216,478.46359550001216,478.46359550001216,483.4510487000225,483.986641800002,right,1.0,24.21714549997705,,,,,,,,,,,,,,,,,,,,,,,,,,,,,,,sub-220,1.0,random_dot,60.05418088206938,
right,right,accuracy,,,,,0.0,0.0,0.0,0.0,19.0,0.0,38.0,1.0,484.00053730001673,,,,,,,,,483.9883296000189,484.80111250001937,485.6027000000177,485.5863488000177,485.5863852000039,485.6027000000177,485.6027000000177,485.6027000000177,490.5901434000116,491.2426912000228,right,1.0,24.324646299966844,,,,,,,,,,,,,,,,,,,,,,,,,,,,,,,sub-220,1.0,random_dot,60.05418088206938,
left,left,accuracy,,,,,0.0,0.0,0.0,0.0,19.0,1.0,39.0,0.0,491.2564395000227,,,,,,,,,491.2451111000264,492.05724390002433,492.8587436000234,492.8422796000086,492.8423174000054,492.8587436000234,492.8587436000234,492.8587436000234,497.8464325000241,498.3652854000102,left,1.0,24.189756899984783,,,,,,,,,,,,,,,,,,,,,,,,,,,,,,,sub-220,1.0,random_dot,60.05418088206938,
left,left,accuracy,,,,,0.0,0.0,0.0,0.0,20.0,0.0,40.0,0.0,498.3790270000172,,,,,,,,,498.3669108000177,499.1795333000191,499.9815188000212,499.96505990001606,499.9650970000075,499.9815188000212,499.9815188000212,499.9815188000212,504.9689035000047,505.6545580000093,left,1.0,24.36958189998404,,,,,,,,,,,,,,,,,,,,,,,,,,,,,,,sub-220,1.0,random_dot,60.05418088206938,
right,right,accuracy,,,,,0.0,0.0,0.0,0.0,20.0,1.0,41.0,1.0,505.668379300012,,,,,,,,,505.6562178000168,506.8694073000224,507.67100040000514,507.6548620000249,507.65489880001405,507.67100040000514,507.67100040000514,507.67100040000514,512.6583317000186,513.0944949000259,right,1.0,24.12216129995068,,,,,,,,,,,,,,,,,,,,,,,,,,,,,,,sub-220,1.0,random_dot,60.05418088206938,
left,left,accuracy,,,,,0.0,0.0,0.0,0.0,21.0,0.0,42.0,0.0,513.1079644999991,,,,,,,,,513.0960705000034,513.908600900002,514.7102907000226,514.6938949000032,514.6939291000017,514.7102907000226,514.7102907000226,514.7102907000226,519.6975220000022,520.2490341000084,left,1.0,24.233377299970016,,,,,,,,,,,,,,,,,,,,,,,,,,,,,,,sub-220,1.0,random_dot,60.05418088206938,
right,right,accuracy,,,,,0.0,0.0,0.0,0.0,21.0,1.0,43.0,1.0,520.2634035000228,,,,,,,,,520.2503413000086,521.0643356000073,521.8659349000081,521.8493269000028,521.8493631000165,521.8659349000081,521.8659349000081,521.8659349000081,526.8537407000258,527.3560102000192,right,1.0,24.18009829998482,,,,,,,,,,,,,,,,,,,,,,,,,,,,,,,sub-220,1.0,random_dot,60.05418088206938,
right,right,accuracy,,,,,0.0,0.0,0.0,0.0,22.0,0.0,44.0,1.0,527.3697159000149,,,,,,,,,527.3577299000171,527.7200986000244,528.5218533000152,528.5052781000268,528.505315700022,528.5218533000152,528.5218533000152,528.5218533000152,533.5093033000012,533.9947427000152,right,1.0,24.157228199968813,,,,,,,,,,,,,,,,,,,,,,,,,,,,,,,sub-220,1.0,random_dot,60.05418088206938,
left,left,accuracy,,,,,0.0,0.0,0.0,0.0,22.0,1.0,45.0,0.0,534.008644800022,,,,,,,,,533.9963916999986,534.8094142000191,535.6110456000024,535.5943696000031,535.5944057000161,535.6110456000024,535.6110456000024,535.6110456000024,540.5983632999996,541.3845987000095,left,1.0,24.471248199988626,,,,,,,,,,,,,,,,,,,,,,,,,,,,,,,sub-220,1.0,random_dot,60.05418088206938,
right,right,accuracy,,,,,0.0,0.0,0.0,0.0,23.0,0.0,46.0,1.0,541.398004000017,,,,,,,,,541.3862011000165,542.1986969000136,543.0006390000053,542.9842122000118,542.9842579000106,543.0006390000053,543.0006390000053,543.0006390000053,547.9878333000233,549.4409300000116,left,0.0,25.123678899981314,,,,,,,,,,,,,,,,,,,,,,,,,,,,,,,sub-220,1.0,random_dot,60.05418088206938,
left,left,accuracy,,,,,0.0,0.0,0.0,0.0,23.0,1.0,47.0,0.0,549.4547557000187,,,,,,,,,549.4425473000156,549.5551229999983,550.3566098000156,550.3400414000207,550.3400786000129,550.3566098000156,550.3566098000156,550.3566098000156,555.3439049000153,555.8632577000244,left,1.0,24.20315129999653,,,,,,,,,,,,,,,,,,,,,,,,,,,,,,,sub-220,1.0,random_dot,60.05418088206938,
right,right,accuracy,,,,,0.0,0.0,0.0,0.0,24.0,0.0,48.0,1.0,555.876810900023,,,,,,,,,555.8649101000046,555.976590700011,556.778532700002,556.7622789000161,556.7623159000068,556.778532700002,556.778532700002,556.778532700002,561.76595120001,562.3684697000135,right,1.0,24.28806339995936,,,,,,,,,,,,,,,,,,,,,,,,,,,,,,,sub-220,1.0,random_dot,60.05418088206938,
left,left,accuracy,,,,,0.0,0.0,0.0,0.0,24.0,1.0,49.0,0.0,562.3822323000059,,,,,,,,,562.3700720000197,563.5830022000009,564.384940900025,564.3682798000227,564.3683163000096,564.384940900025,564.384940900025,564.384940900025,569.3722290000005,570.1246788999997,left,1.0,24.432491399988063,,,,,,,,,,,,,,,,,,,,,,,,,,,,,,,sub-220,1.0,random_dot,60.05418088206938,
right,right,accuracy,,,,,0.0,0.0,0.0,0.0,25.0,0.0,50.0,1.0,570.1384800000233,,,,,,,,,570.1262835000234,571.3395123000082,572.141323000018,572.1250035999983,572.1250405000173,572.141323000018,572.141323000018,572.141323000018,577.1286229000252,577.6478170000191,right,1.0,24.19674459999078,,,,,,,,,,,,,,,,,,,,,,,,,,,,,,,sub-220,1.0,random_dot,60.05418088206938,
left,left,accuracy,,,,,0.0,0.0,0.0,0.0,25.0,1.0,51.0,0.0,577.6612831000239,,,,,,,,,577.6505776000267,578.8625790000078,579.6641219000157,579.6474967000249,579.6475343000202,579.6641219000157,579.6641219000157,579.6641219000157,584.6515475000197,585.3374325000041,right,0.0,24.367172599973856,,,,,,,,,,,,,,,,,,,,,,,,,,,,,,,sub-220,1.0,random_dot,60.05418088206938,
right,right,accuracy,,,,,0.0,0.0,0.0,0.0,26.0,0.0,52.0,1.0,585.3511807000032,,,,,,,,,585.3390426000115,585.4513654000184,586.2528434999986,586.236413000006,586.2364556000102,586.2528434999986,586.2528434999986,586.2528434999986,591.2403909999994,591.676180200011,right,1.0,24.116082499967888,,,,,,,,,,,,,,,,,,,,,,,,,,,,,,,sub-220,1.0,random_dot,60.05418088206938,
left,left,accuracy,,,,,0.0,0.0,0.0,0.0,26.0,1.0,53.0,0.0,591.6897634000052,,,,,,,,,591.6777928000083,591.7899199000094,592.5913080000028,592.5748394000111,592.5748765000026,592.5913080000028,592.5913080000028,592.5913080000028,597.5789327000093,598.3149932000088,right,0.0,24.41477979999036,,,,,,,,,,,,,,,,,,,,,,,,,,,,,,,sub-220,1.0,random_dot,60.05418088206938,
left,left,accuracy,,,,,0.0,0.0,0.0,0.0,27.0,0.0,54.0,0.0,598.3285872999986,,,,,,,,,598.3166579000244,598.4288127000036,599.230332600011,599.2137936000072,599.213839700009,599.230332600011,599.230332600011,599.230332600011,604.2177264000056,605.2374553000263,left,1.0,24.697283699992116,,,,,,,,,,,,,,,,,,,,,,,,,,,,,,,sub-220,1.0,random_dot,60.05418088206938,
right,right,accuracy,,,,,0.0,0.0,0.0,0.0,27.0,1.0,55.0,1.0,605.251071000006,,,,,,,,,605.2390324000153,605.6013931000198,606.4030268000206,606.3865879000223,606.3866367000155,606.4030268000206,606.4030268000206,606.4030268000206,611.3904942000227,612.3101554000168,right,1.0,24.60274429997662,,,,,,,,,,,,,,,,,,,,,,,,,,,,,,,sub-220,1.0,random_dot,60.05418088206938,
left,left,accuracy,,,,,0.0,0.0,0.0,0.0,28.0,0.0,56.0,0.0,612.323455900012,,,,,,,,,612.3117962000251,612.4238225000154,613.2255905000202,613.2089699000062,613.2090062000207,613.2255905000202,613.2255905000202,613.2255905000202,618.2127357000136,618.8819610000064,left,1.0,24.34631589998025,,,,,,,,,,,,,,,,,,,,,,,,,,,,,,,sub-220,1.0,random_dot,60.05418088206938,
right,right,accuracy,,,,,0.0,0.0,0.0,0.0,28.0,1.0,57.0,1.0,618.8957792000147,,,,,,,,,618.883593800012,618.9958257000253,619.7974016000226,619.7809466000181,619.780983900011,619.7974016000226,619.7974016000226,619.7974016000226,624.7847562000097,625.4875696000236,right,1.0,24.37989529996412,,,,,,,,,,,,,,,,,,,,,,,,,,,,,,,sub-220,1.0,random_dot,60.05418088206938,
left,left,accuracy,,,,,0.0,0.0,0.0,0.0,29.0,0.0,58.0,0.0,625.5011758000182,,,,,,,,,625.4891936000204,625.601206100022,626.4029061000037,626.3864064000081,626.3864434999996,626.4029061000037,626.4029061000037,626.4029061000037,631.3903112999978,632.042947000009,left,1.0,24.33646099996986,,,,,,,,,,,,,,,,,,,,,,,,,,,,,,,sub-220,1.0,random_dot,60.05418088206938,
right,right,accuracy,,,,,0.0,0.0,0.0,0.0,29.0,1.0,59.0,1.0,632.0563287000114,,,,,,,,,632.0445446000085,632.1568077000265,632.9582787000109,632.9420794000034,632.9421172000002,632.9582787000109,632.9582787000109,632.9582787000109,637.9459072000172,638.5141624000098,right,1.0,24.242666299978737,,,,,,,,,,,,,,,,,,,,,,,,,,,,,,,sub-220,1.0,random_dot,60.05418088206938,
,,accuracy,,,,,0.0,0.0,0.0,0.0,,,,,,,,,,,,,,,,,,,,,,,,,,,,,,,,,,,,,,,,,,,,,,,,,,,,,,,,,sub-220,1.0,random_dot,60.05418088206938,
left,left,speed,,,,,0.0,1.0,1.0,1.0,0.0,0.0,0.0,0.0,641.267860699998,,,,,,,,,641.2634595000127,642.4652124000131,643.2669677000085,643.2503910000087,643.2504315999977,643.2669677000085,643.2669677000085,643.2669677000085,,643.9363798999984,left,1.0,19.357879799965303,,,,,,,,,,,,,,,,,,,,638.5150419000129,638.5285045000201,638.5285045000201,641.2496080000128,space,21.409605699998792,,,,,,sub-220,1.0,random_dot,60.05418088206938,
right,right,speed,,,,,0.0,1.0,1.0,1.0,0.0,1.0,1.0,1.0,643.9498001000029,,,,,,,,,643.9384455000109,644.3001744000067,645.1017472000094,645.0854326999979,645.0854695000162,645.1017472000094,645.1017472000094,645.1017472000094,,645.7545929000189,right,1.0,19.336180399986915,,,,,,,,,,,,,,,,,,,,,,,,,,,,,,,sub-220,1.0,random_dot,60.05418088206938,
right,right,speed,,,,,0.0,1.0,1.0,1.0,1.0,0.0,2.0,1.0,645.7680693000148,,,,,,,,,645.7562156000058,646.9689720000024,647.7704604000028,647.7540859000001,647.7541298000142,647.7704604000028,647.7704604000028,647.7704604000028,,648.4563620999979,left,0.0,19.36988529996597,,,,,,,,,,,,,,,,,,,,,,,,,,,,,,,sub-220,1.0,random_dot,60.05418088206938,
left,left,speed,,,,,0.0,1.0,1.0,1.0,1.0,1.0,3.0,0.0,648.4704008999979,,,,,,,,,648.458047400025,648.5701307000127,649.3720359000145,649.3555124000122,649.3555487000267,649.3720359000145,649.3720359000145,649.3720359000145,,650.1411121000128,left,1.0,19.45823469996685,,,,,,,,,,,,,,,,,,,,,,,,,,,,,,,sub-220,1.0,random_dot,60.05418088206938,
left,left,speed,,,,,0.0,1.0,1.0,1.0,2.0,0.0,4.0,0.0,650.1550604000222,,,,,,,,,650.142926200002,651.3561611000041,652.1575804000022,652.141137300001,652.1411734000139,652.1575804000022,652.1575804000022,652.1575804000022,,652.9767335000215,left,1.0,19.5181648999569,,,,,,,,,,,,,,,,,,,,,,,,,,,,,,,sub-220,1.0,random_dot,60.05418088206938,
right,right,speed,,,,,0.0,1.0,1.0,1.0,2.0,1.0,5.0,1.0,652.9905127000238,,,,,,,,,652.978668100026,653.340827100008,654.1426022000087,654.1258657000144,654.1259025000036,654.1426022000087,654.1426022000087,654.1426022000087,,654.8116662000248,right,1.0,19.363048999977764,,,,,,,,,,,,,,,,,,,,,,,,,,,,,,,sub-220,1.0,random_dot,60.05418088206938,
right,right,speed,,,,,0.0,1.0,1.0,1.0,3.0,0.0,6.0,1.0,654.825425100018,,,,,,,,,654.8136182000162,654.925587900012,655.7272642000171,655.7106405000086,655.7106770000246,655.7272642000171,655.7272642000171,655.7272642000171,,656.8300642000104,right,1.0,19.78609169996344,,,,,,,,,,,,,,,,,,,,,,,,,,,,,,,sub-220,1.0,random_dot,60.05418088206938,
left,left,speed,,,,,0.0,1.0,1.0,1.0,3.0,1.0,7.0,0.0,656.8437005000014,,,,,,,,,656.8317475000222,657.1940750000067,657.9957131000119,657.9791974000109,657.9792727000022,657.9957131000119,657.9957131000119,657.9957131000119,,658.6156251000066,left,1.0,19.318592599971453,,,,,,,,,,,,,,,,,,,,,,,,,,,,,,,sub-220,1.0,random_dot,60.05418088206938,
right,right,speed,,,,,0.0,1.0,1.0,1.0,4.0,0.0,8.0,1.0,658.6287640000228,,,,,,,,,658.6173253000015,658.9788665000233,659.7806321000098,659.7640336000186,659.7640712000139,659.7806321000098,659.7806321000098,659.7806321000098,,660.4164943000069,right,1.0,19.33293089995277,,,,,,,,,,,,,,,,,,,,,,,,,,,,,,,sub-220,1.0,random_dot,60.05418088206938,
left,left,speed,,,,,0.0,1.0,1.0,1.0,4.0,1.0,9.0,0.0,660.4300552000059,,,,,,,,,660.4185612000001,661.631074600009,662.4325314000016,662.4161223000265,662.416158100008,662.4325314000016,662.4325314000016,662.4325314000016,,663.0185667000187,left,1.0,19.269031399977397,,,,,,,,,,,,,,,,,,,,,,,,,,,,,,,sub-220,1.0,random_dot,60.05418088206938,
left,left,speed,,,,,0.0,1.0,1.0,1.0,5.0,0.0,10.0,0.0,663.0324040999985,,,,,,,,,663.0202743000118,663.3825779000181,664.184294000006,664.1677575000213,664.1677939000074,664.184294000006,664.184294000006,664.184294000006,,664.7870913000079,left,1.0,19.30076309997821,,,,,,,,,,,,,,,,,,,,,,,,,,,,,,,sub-220,1.0,random_dot,60.05418088206938,
right,right,speed,,,,,0.0,1.0,1.0,1.0,5.0,1.0,11.0,1.0,664.8006123000232,,,,,,,,,664.7887393000128,664.9004716000054,665.702079700015,665.6856211000122,665.6856561000168,665.702079700015,665.702079700015,665.702079700015,,666.3716964000196,right,1.0,19.361579999967944,,,,,,,,,,,,,,,,,,,,,,,,,,,,,,,sub-220,1.0,random_dot,60.05418088206938,
left,left,speed,,,,,0.0,1.0,1.0,1.0,6.0,0.0,12.0,0.0,666.3850418000075,,,,,,,,,666.3733052000171,666.7351057000051,667.536962800019,667.5205271000159,667.5205634000013,667.536962800019,667.536962800019,667.536962800019,,668.0893304000201,left,1.0,19.243560099974275,,,,,,,,,,,,,,,,,,,,,,,,,,,,,,,sub-220,1.0,random_dot,60.05418088206938,
right,right,speed,,,,,0.0,1.0,1.0,1.0,6.0,1.0,13.0,1.0,668.1031490000023,,,,,,,,,668.0915492000058,668.9038014000107,669.7055082000152,669.6890071000089,669.6890437000256,669.7055082000152,669.7055082000152,669.7055082000152,,670.2078783000179,right,1.0,19.193127799982904,,,,,,,,,,,,,,,,,,,,,,,,,,,,,,,sub-220,1.0,random_dot,60.05418088206938,
left,left,speed,,,,,0.0,1.0,1.0,1.0,7.0,0.0,14.0,0.0,670.2215492000105,,,,,,,,,670.2096131000144,670.5720161000208,671.3735731000197,671.3569718000072,671.3570086000254,671.3735731000197,671.3735731000197,671.3735731000197,,671.9260479000222,left,1.0,19.237942199979443,,,,,,,,,,,,,,,,,,,,,,,,,,,,,,,sub-220,1.0,random_dot,60.05418088206938,
right,right,speed,,,,,0.0,1.0,1.0,1.0,7.0,1.0,15.0,1.0,671.9396533000108,,,,,,,,,671.9276115000248,672.7403827000235,673.5419583000185,673.5256035000202,673.5256403000094,673.5419583000185,673.5419583000185,673.5419583000185,,673.9943642000144,right,1.0,19.147520399972564,,,,,,,,,,,,,,,,,,,,,,,,,,,,,,,sub-220,1.0,random_dot,60.05418088206938,
right,right,speed,,,,,0.0,1.0,1.0,1.0,8.0,0.0,16.0,1.0,674.0081020000216,,,,,,,,,673.9960420000134,674.8087057000084,675.6104907000263,675.5938432000112,675.5938789000211,675.6104907000263,675.6104907000263,675.6104907000263,,676.4296687000024,right,1.0,19.513247699971544,,,,,,,,,,,,,,,,,,,,,,,,,,,,,,,sub-220,1.0,random_dot,60.05418088206938,
left,left,speed,,,,,0.0,1.0,1.0,1.0,8.0,1.0,17.0,0.0,676.4431851000118,,,,,,,,,676.4312906000123,677.2441808000149,678.0476535000198,678.0293129000056,678.0293495000224,678.0476535000198,678.0476535000198,678.0476535000198,,678.6157852000033,left,1.0,19.26639079998131,,,,,,,,,,,,,,,,,,,,,,,,,,,,,,,sub-220,1.0,random_dot,60.05418088206938,
right,right,speed,,,,,0.0,1.0,1.0,1.0,9.0,0.0,18.0,1.0,678.6284542000212,,,,,,,,,678.6174312000221,679.429115100007,680.2308792000113,680.2144533000246,680.2144910000206,680.2308792000113,680.2308792000113,680.2308792000113,,680.8333818000101,right,1.0,19.291251499962527,,,,,,,,,,,,,,,,,,,,,,,,,,,,,,,sub-220,1.0,random_dot,60.05418088206938,
left,left,speed,,,,,0.0,1.0,1.0,1.0,9.0,1.0,19.0,0.0,680.8472039000189,,,,,,,,,680.83504060001,680.9470310000179,681.7488508000097,681.7323835999996,681.7324200000148,681.7488508000097,681.7488508000097,681.7488508000097,,682.534673200018,left,1.0,19.47510079998756,,,,,,,,,,,,,,,,,,,,,,,,,,,,,,,sub-220,1.0,random_dot,60.05418088206938,
left,left,speed,,,,,0.0,1.0,1.0,1.0,10.0,0.0,20.0,0.0,682.5484243000101,,,,,,,,,682.5360668000067,683.3491134000069,684.1508856000146,684.1343729000073,684.134409899998,684.1508856000146,684.1508856000146,684.1508856000146,,685.0870224000246,left,1.0,19.627315299992915,,,,,,,,,,,,,,,,,,,,,,,,,,,,,,,sub-220,1.0,random_dot,60.05418088206938,
right,right,speed,,,,,0.0,1.0,1.0,1.0,10.0,1.0,21.0,1.0,685.1006394000142,,,,,,,,,685.08867930001,685.2007905000064,686.0024013000075,685.9859127000091,685.9859501000028,686.0024013000075,686.0024013000075,686.0024013000075,,686.6550922000024,right,1.0,19.340060399961654,,,,,,,,,,,,,,,,,,,,,,,,,,,,,,,sub-220,1.0,random_dot,60.05418088206938,
right,right,speed,,,,,0.0,1.0,1.0,1.0,11.0,0.0,22.0,1.0,686.6687082000135,,,,,,,,,686.6567697999999,687.4693178000161,688.2707833000168,688.2544583000126,688.2545073000074,688.2707833000168,688.2707833000168,688.2707833000168,,689.0903756000043,left,0.0,19.50815799998236,,,,,,,,,,,,,,,,,,,,,,,,,,,,,,,sub-220,1.0,random_dot,60.05418088206938,
left,left,speed,,,,,0.0,1.0,1.0,1.0,11.0,1.0,23.0,0.0,689.1038325000263,,,,,,,,,689.0919812000066,689.203877300024,690.0057357000187,689.9891343000054,689.9891720000014,690.0057357000187,690.0057357000187,690.0057357000187,,690.8415987000044,right,0.0,19.523694699950283,,,,,,,,,,,,,,,,,,,,,,,,,,,,,,,sub-220,1.0,random_dot,60.05418088206938,
right,right,speed,,,,,0.0,1.0,1.0,1.0,12.0,0.0,24.0,1.0,690.85544080002,,,,,,,,,690.843292000005,692.0563953000237,692.8578922000015,692.8415835000051,692.8416230000148,692.8578922000015,692.8578922000015,692.8578922000015,,693.4930183000106,right,1.0,19.322228299977724,,,,,,,,,,,,,,,,,,,,,,,,,,,,,,,sub-220,1.0,random_dot,60.05418088206938,
left,left,speed,,,,,0.0,1.0,1.0,1.0,12.0,1.0,25.0,0.0,693.5075519000238,,,,,,,,,693.4946837000025,693.8576317000261,694.6592769999988,694.6426050000009,694.642637300014,694.6592769999988,694.6592769999988,694.6592769999988,,695.277974800003,left,1.0,19.30830879995483,,,,,,,,,,,,,,,,,,,,,,,,,,,,,,,sub-220,1.0,random_dot,60.05418088206938,
left,left,speed,,,,,0.0,1.0,1.0,1.0,13.0,0.0,26.0,0.0,695.2922269000264,,,,,,,,,695.2796080000116,696.4932331000164,697.2947870000207,697.2782673000183,697.2783070000005,697.2947870000207,697.2947870000207,697.2947870000207,,698.263893299998,left,1.0,19.662934999971185,,,,,,,,,,,,,,,,,,,,,,,,,,,,,,,sub-220,1.0,random_dot,60.05418088206938,
right,right,speed,,,,,0.0,1.0,1.0,1.0,13.0,1.0,27.0,1.0,698.27778210002,,,,,,,,,698.2658083999995,698.3781440000166,699.1800501000253,699.1634732000239,699.1635106000176,699.1800501000253,699.1800501000253,699.1800501000253,,699.7992557000252,right,1.0,19.31479639999452,,,,,,,,,,,,,,,,,,,,,,,,,,,,,,,sub-220,1.0,random_dot,60.05418088206938,
left,left,speed,,,,,0.0,1.0,1.0,1.0,14.0,0.0,28.0,0.0,699.8127764000092,,,,,,,,,699.8008560000162,700.6135641000001,701.4151595000003,701.3987315000268,701.3987991000176,701.4151595000003,701.4151595000003,701.4151595000003,,701.9170810000214,left,1.0,19.18939839999075,,,,,,,,,,,,,,,,,,,,,,,,,,,,,,,sub-220,1.0,random_dot,60.05418088206938,
right,right,speed,,,,,0.0,1.0,1.0,1.0,14.0,1.0,29.0,1.0,701.9310874000075,,,,,,,,,701.9189675000089,702.2815210999979,703.0831304000167,703.0667949000199,703.066830900003,703.0831304000167,703.0831304000167,703.0831304000167,,703.6194838000229,right,1.0,19.23083719998249,,,,,,,,,,,,,,,,,,,,,,,,,,,,,,,sub-220,1.0,random_dot,60.05418088206938,
left,left,speed,,,,,0.0,1.0,1.0,1.0,15.0,0.0,30.0,0.0,703.6325979000248,,,,,,,,,703.6212916000222,704.43325620002,705.2349942000001,705.2183550000191,705.2183963000134,705.2349942000001,705.2349942000001,705.2349942000001,,705.8206882000086,left,1.0,19.27691689998028,,,,,,,,,,,,,,,,,,,,,,,,,,,,,,,sub-220,1.0,random_dot,60.05418088206938,
right,right,speed,,,,,0.0,1.0,1.0,1.0,15.0,1.0,31.0,1.0,705.8344307000225,,,,,,,,,705.8223629000131,706.1847134999989,706.9863865000079,706.9699297000188,706.969966100005,706.9863865000079,706.9863865000079,706.9863865000079,,707.5558234000055,right,1.0,19.26521089999005,,,,,,,,,,,,,,,,,,,,,,,,,,,,,,,sub-220,1.0,random_dot,60.05418088206938,
left,left,speed,,,,,0.0,1.0,1.0,1.0,16.0,0.0,32.0,0.0,707.5690406000067,,,,,,,,,707.5576575000014,708.3698168999981,709.1712707999977,709.1545413999993,709.1546032000042,709.1712707999977,709.1712707999977,709.1712707999977,,709.7241035000188,left,1.0,19.248998599970943,,,,,,,,,,,,,,,,,,,,,,,,,,,,,,,sub-220,1.0,random_dot,60.05418088206938,
right,right,speed,,,,,0.0,1.0,1.0,1.0,16.0,1.0,33.0,1.0,709.7376775000012,,,,,,,,,709.7257712999999,709.8377345000044,710.6394239000219,710.6230966000003,710.6231333000178,710.6394239000219,710.6394239000219,710.6394239000219,,711.3085137000016,right,1.0,19.364824999967823,,,,,,,,,,,,,,,,,,,,,,,,,,,,,,,sub-220,1.0,random_dot,60.05418088206938,
right,right,speed,,,,,0.0,1.0,1.0,1.0,17.0,0.0,34.0,1.0,711.3224853000138,,,,,,,,,711.3101349000062,712.1228601000039,712.924682300014,712.9083818000217,712.9084364000009,712.924682300014,712.924682300014,712.924682300014,,713.7939368000079,right,1.0,19.558870799985016,,,,,,,,,,,,,,,,,,,,,,,,,,,,,,,sub-220,1.0,random_dot,60.05418088206938,
left,left,speed,,,,,0.0,1.0,1.0,1.0,17.0,1.0,35.0,0.0,713.8077741000161,,,,,,,,,713.7953823000134,714.6082806000195,715.4098578000267,715.3935377000016,715.3935752000252,715.4098578000267,715.4098578000267,715.4098578000267,,715.9290099000209,left,1.0,19.202648199978285,,,,,,,,,,,,,,,,,,,,,,,,,,,,,,,sub-220,1.0,random_dot,60.05418088206938,
left,left,speed,,,,,0.0,1.0,1.0,1.0,18.0,0.0,36.0,0.0,715.9428836000152,,,,,,,,,715.9306269000226,716.743603400013,717.5451372000098,717.528639199998,717.5286759000155,717.5451372000098,717.5451372000098,717.5451372000098,,718.2646059000108,right,0.0,19.41628179998952,,,,,,,,,,,,,,,,,,,,,,,,,,,,,,,sub-220,1.0,random_dot,60.05418088206938,
right,right,speed,,,,,0.0,1.0,1.0,1.0,18.0,1.0,37.0,1.0,718.2781037000241,,,,,,,,,718.2662544000195,718.6283481999999,719.4314911000256,719.4136391000065,719.4136768000026,719.4314911000256,719.4314911000256,719.4314911000256,,720.0492575000098,right,1.0,19.310686199984048,,,,,,,,,,,,,,,,,,,,,,,,,,,,,,,sub-220,1.0,random_dot,60.05418088206938,
right,right,speed,,,,,0.0,1.0,1.0,1.0,19.0,0.0,38.0,1.0,720.0629830000107,,,,,,,,,720.0509147999983,720.1630435000116,720.9645836999989,720.9481534000079,720.9481921000115,720.9645836999989,720.9645836999989,720.9645836999989,,721.7006431000191,right,1.0,19.43066739998176,,,,,,,,,,,,,,,,,,,,,,,,,,,,,,,sub-220,1.0,random_dot,60.05418088206938,
left,left,speed,,,,,0.0,1.0,1.0,1.0,19.0,1.0,39.0,0.0,721.714219800022,,,,,,,,,721.7023092000163,722.0644939000194,722.8662368000078,722.8496562000073,722.8496929000248,722.8662368000078,722.8662368000078,722.8662368000078,,723.4854437000176,left,1.0,19.30838119998225,,,,,,,,,,,,,,,,,,,,,,,,,,,,,,,sub-220,1.0,random_dot,60.05418088206938,
right,right,speed,,,,,0.0,1.0,1.0,1.0,20.0,0.0,40.0,1.0,723.4990598000004,,,,,,,,,723.4871119000018,724.299671500019,725.1014610000129,725.0847433000163,725.0847747000225,725.1014610000129,725.1014610000129,725.1014610000129,,725.6869265999994,right,1.0,19.26909499996691,,,,,,,,,,,,,,,,,,,,,,,,,,,,,,,sub-220,1.0,random_dot,60.05418088206938,
left,left,speed,,,,,0.0,1.0,1.0,1.0,20.0,1.0,41.0,0.0,725.7007333000074,,,,,,,,,725.6891623999982,726.0512592000014,726.8527845000208,726.8363119999995,726.8363483000139,726.8527845000208,726.8527845000208,726.8527845000208,,727.5553925000131,left,1.0,19.39604439996765,,,,,,,,,,,,,,,,,,,,,,,,,,,,,,,sub-220,1.0,random_dot,60.05418088206938,
right,right,speed,,,,,0.0,1.0,1.0,1.0,21.0,0.0,42.0,1.0,727.5693064000225,,,,,,,,,727.5573419000139,727.6693768000114,728.470864700008,728.4544030000106,728.4544453000126,728.470864700008,728.470864700008,728.470864700008,,729.1233347000089,right,1.0,19.348437399981776,,,,,,,,,,,,,,,,,,,,,,,,,,,,,,,sub-220,1.0,random_dot,60.05418088206938,
left,left,speed,,,,,0.0,1.0,1.0,1.0,21.0,1.0,43.0,0.0,729.1373019000166,,,,,,,,,729.1249649000238,730.3381563000148,731.1397479000152,731.123355800024,731.1233919000078,731.1397479000152,731.1397479000152,731.1397479000152,,731.8257112000138,left,1.0,19.37095989997033,,,,,,,,,,,,,,,,,,,,,,,,,,,,,,,sub-220,1.0,random_dot,60.05418088206938,
right,right,speed,,,,,0.0,1.0,1.0,1.0,22.0,0.0,44.0,1.0,731.8393514000054,,,,,,,,,731.8277281000046,732.1895660000155,732.9913798000198,732.9750169000181,732.9750533000042,732.9913798000198,732.9913798000198,732.9913798000198,,733.5443773000152,right,1.0,19.249047299963426,,,,,,,,,,,,,,,,,,,,,,,,,,,,,,,sub-220,1.0,random_dot,60.05418088206938,
left,left,speed,,,,,0.0,1.0,1.0,1.0,22.0,1.0,45.0,0.0,733.5574682000151,,,,,,,,,733.5460173000174,734.7585092000081,735.5599868000136,735.5437035000068,735.5437397000205,735.5599868000136,735.5599868000136,735.5599868000136,,736.1291740000015,left,1.0,19.265832899982342,,,,,,,,,,,,,,,,,,,,,,,,,,,,,,,sub-220,1.0,random_dot,60.05418088206938,
right,right,speed,,,,,0.0,1.0,1.0,1.0,23.0,0.0,46.0,1.0,736.1429028999992,,,,,,,,,736.1308680000075,736.2431618999981,737.0448266000021,737.0281123000022,737.0281483000144,737.0448266000021,737.0448266000021,737.0448266000021,,737.6472562999988,right,1.0,19.28611359995557,,,,,,,,,,,,,,,,,,,,,,,,,,,,,,,sub-220,1.0,random_dot,60.05418088206938,
left,left,speed,,,,,0.0,1.0,1.0,1.0,23.0,1.0,47.0,0.0,737.6609519000049,,,,,,,,,737.6489073000266,737.7609049000021,738.5624128000054,738.546069700009,738.5461064000265,738.5624128000054,738.5624128000054,738.5624128000054,,738.9984682000068,left,1.0,19.12381499996991,,,,,,,,,,,,,,,,,,,,,,,,,,,,,,,sub-220,1.0,random_dot,60.05418088206938,
right,right,speed,,,,,0.0,1.0,1.0,1.0,24.0,0.0,48.0,1.0,739.0117942000215,,,,,,,,,739.000054300006,740.2130590000015,741.0145564000122,740.998339200014,740.9983752999979,741.0145564000122,741.0145564000122,741.0145564000122,,741.6836094000028,right,1.0,19.359973099984927,,,,,,,,,,,,,,,,,,,,,,,,,,,,,,,sub-220,1.0,random_dot,60.05418088206938,
left,left,speed,,,,,0.0,1.0,1.0,1.0,24.0,1.0,49.0,0.0,741.6974908000266,,,,,,,,,741.68525520002,742.4984893000219,743.2998509000172,743.2835113000183,743.2835472000006,743.2998509000172,743.2998509000172,743.2998509000172,,743.885726700013,left,1.0,19.27554349997081,,,,,,,,,,,,,,,,,,,,,,,,,,,,,,,sub-220,1.0,random_dot,60.05418088206938,
right,right,speed,,,,,0.0,1.0,1.0,1.0,25.0,0.0,50.0,1.0,743.8991396000201,,,,,,,,,743.8873093000147,744.7000996000133,745.5015436000249,745.4852954000235,745.4853317000088,745.5015436000249,745.5015436000249,745.5015436000249,,746.2041221000254,right,1.0,19.391626899974653,,,,,,,,,,,,,,,,,,,,,,,,,,,,,,,sub-220,1.0,random_dot,60.05418088206938,
left,left,speed,,,,,0.0,1.0,1.0,1.0,25.0,1.0,51.0,0.0,746.2177949000034,,,,,,,,,746.2057033000165,746.5683079000155,747.369877900026,747.3533504000225,747.3533868000086,747.369877900026,747.369877900026,747.369877900026,,747.9723594000097,left,1.0,19.287167799979212,,,,,,,,,,,,,,,,,,,,,,,,,,,,,,,sub-220,1.0,random_dot,60.05418088206938,
right,right,speed,,,,,0.0,1.0,1.0,1.0,26.0,0.0,52.0,1.0,747.9857650000195,,,,,,,,,747.9751408000011,748.0860914000077,748.8876753000077,748.8714698000113,748.8715051000181,748.8876753000077,748.8876753000077,748.8876753000077,,749.4902605000243,right,1.0,19.28711089998251,,,,,,,,,,,,,,,,,,,,,,,,,,,,,,,sub-220,1.0,random_dot,60.05418088206938,
left,left,speed,,,,,0.0,1.0,1.0,1.0,26.0,1.0,53.0,0.0,749.5038642,,,,,,,,,749.4919512000051,749.6041460999986,750.4059171000263,750.3892286000191,750.3892637000245,750.4059171000263,750.4059171000263,750.4059171000263,,751.0250962999999,left,1.0,19.309894999983957,,,,,,,,,,,,,,,,,,,,,,,,,,,,,,,sub-220,1.0,random_dot,60.05418088206938,
left,left,speed,,,,,0.0,1.0,1.0,1.0,27.0,0.0,54.0,0.0,751.0385563000164,,,,,,,,,751.026731400023,752.2395152000245,753.0411558000196,753.0242472000245,753.0243103000103,753.0411558000196,753.0411558000196,753.0411558000196,,753.8438626000134,right,0.0,19.493801699980395,,,,,,,,,,,,,,,,,,,,,,,,,,,,,,,sub-220,1.0,random_dot,60.05418088206938,
right,right,speed,,,,,0.0,1.0,1.0,1.0,27.0,1.0,55.0,1.0,753.8574163000158,,,,,,,,,753.8454850999988,754.2078914000012,755.0095327000017,754.9931006000261,754.9931452000164,755.0095327000017,755.0095327000017,755.0095327000017,,755.7123245000257,right,1.0,19.390266699978383,,,,,,,,,,,,,,,,,,,,,,,,,,,,,,,sub-220,1.0,random_dot,60.05418088206938,
left,left,speed,,,,,0.0,1.0,1.0,1.0,28.0,0.0,56.0,0.0,755.7258813000226,,,,,,,,,755.7139066000236,756.9265929000103,757.7281808000116,757.7117867000052,757.7118223000143,757.7281808000116,757.7281808000116,757.7281808000116,,758.3141390000237,left,1.0,19.2695741999778,,,,,,,,,,,,,,,,,,,,,,,,,,,,,,,sub-220,1.0,random_dot,60.05418088206938,
right,right,speed,,,,,0.0,1.0,1.0,1.0,28.0,1.0,57.0,1.0,758.3277874000196,,,,,,,,,758.315736300021,758.6784197000088,759.4799097000214,759.463414400001,759.463458400016,759.4799097000214,759.4799097000214,759.4799097000214,,760.099003100011,right,1.0,19.304509299981877,,,,,,,,,,,,,,,,,,,,,,,,,,,,,,,sub-220,1.0,random_dot,60.05418088206938,
left,left,speed,,,,,0.0,1.0,1.0,1.0,29.0,0.0,58.0,0.0,760.1127487000194,,,,,,,,,760.1005872000242,760.4631787000108,761.2647703000112,761.2482167000126,761.2482527000248,761.2647703000112,761.2647703000112,761.2647703000112,,762.2508118000114,right,0.0,19.6831357999763,,,,,,,,,,,,,,,,,,,,,,,,,,,,,,,sub-220,1.0,random_dot,60.05418088206938,
right,right,speed,,,,,0.0,1.0,1.0,1.0,29.0,1.0,59.0,1.0,762.2644865000038,,,,,,,,,762.2525573000021,763.0652189000102,763.8667965000204,763.8502494000131,763.8502849000215,763.8667965000204,763.8667965000204,763.8667965000204,,764.7033315000008,right,1.0,19.534380799974315,,,,,,,,,,,,,,,,,,,,,,,,,,,,,,,sub-220,1.0,random_dot,60.05418088206938,
,,speed,,,,,0.0,1.0,1.0,1.0,,,,,,,,,,,,,,,,,,,,,,,,,,,,,,,,,,,,,,,,,,,,,,,,,,,,,,,,,sub-220,1.0,random_dot,60.05418088206938,
,,,,,,,,,,,,,,,,,,,,,,,,,,,,,,,,,,,,,,,,,,,,,,,,,,,,,,,,,,,,,,,764.7045201000001,764.7167600000103,769.7205914000224,769.7052852000052,sub-220,,,,
