wordCTK,colorCTK,corrAnsCTK,congruentCTK,thisN,thisTrialN,thisRepN,keyResp_CTK.keys,keyResp_CTK.corr,keyResp_CTK.rt,keyResp_CTK.duration,wordPractice,colorPractice,corrAnsPractice,congruentPractice,respPractice.keys,respPractice.corr,respPractice.rt,respPractice.duration,word,color,corrAns,congruent,keyResp_test_run.keys,keyResp_test_run.corr,keyResp_test_run.rt,keyResp_test_run.duration,trials_CTK.thisRepN,trials_CTK.thisTrialN,trials_CTK.thisN,trials_CTK.thisIndex,trials_practice.thisRepN,trials_practice.thisTrialN,trials_practice.thisN,trials_practice.thisIndex,trials_test.thisRepN,trials_test.thisTrialN,trials_test.thisN,trials_test.thisIndex,thisRow.t,notes,instruction.started,instr_text.started,instr_image.started,instr_resp.started,instruction.stopped,instr_resp.keys,instr_resp.rt,instr_resp.duration,instr_color_to_key.started,instr_ctk.started,resp_ctk.started,instr_color_to_key.stopped,resp_ctk.keys,resp_ctk.rt,resp_ctk.duration,ITI.started,fixcross.started,fixcross.stopped,ITI.stopped,color_to_key_run.started,stimulus_CTK.started,keyResp_CTK.started,color_to_key_run.stopped,trials_CTK.keyResp_CTK.keys,trials_CTK.keyResp_CTK.corr,trials_CTK.keyResp_CTK.rt,trials_CTK.keyResp_CTK.duration,instr_practice.started,instr_practice_text.started,instr_practice_resp.started,instr_practice.stopped,instr_practice_resp.keys,instr_practice_resp.rt,instr_practice_resp.duration,practice_run.started,stimulus_practice.started,respPractice.started,practice_run.stopped,trials_practice.respPractice.keys,trials_practice.respPractice.corr,trials_practice.respPractice.rt,trials_practice.respPractice.duration,feedback.started,textFeedback.started,feedback.stopped,textFeedback.stopped,instr_test.started,instr_test_text.started,instr_test_resp.started,instr_test.stopped,instr_test_resp.keys,instr_test_resp.rt,instr_test_resp.duration,test_run.started,stimulus_test_run.started,keyResp_test_run.started,test_run.stopped,trials_test.keyResp_test_run.keys,trials_test.keyResp_test_run.corr,trials_test.keyResp_test_run.rt,trials_test.keyResp_test_run.duration,goodbye.started,textGoodbye.started,goodbye.stopped,participant,session,expName,frameRate,Unnamed: 112
,,,,,,,,,,,,,,,,,,,,,,,,,,,,,,,,,,,,,,,,,0.3736771999974735,0.4859602000215091,0.4859602000215091,0.4859602000215091,12.189612900023349,space,11.497941399982665,,,,,,,,,,,,,,,,,,,,,,,,,,,,,,,,,,,,,,,,,,,,,,,,,,,,,,,,,,sub-107,2,stroop_test,60.23733508415545,
,,,,,,,,,,,,,,,,,,,,,,,,,,,,,,,,,,,,,,,,,,,,,,,,,12.189659799973017,12.195328300003894,12.195328300003894,13.995833799999671,space,1.7918723999755457,,,,,,,,,,,,,,,,,,,,,,,,,,,,,,,,,,,,,,,,,,,,,,,,,,,sub-107,2,stroop_test,60.23733508415545,
test,blue,b,1.0,0.0,0.0,0.0,b,1.0,1.0528027000254951,,,,,,,,,,,,,,,,,,0.0,0.0,0.0,2.0,,,,,,,,,14.02792550000595,,,,,,,,,,,,,,,,,14.024104900017846,14.110634099983145,14.909766900003888,14.89441569999326,14.901887600019109,14.909766900003888,14.909766900003888,15.977523699984886,b,1.0,1.0528027000254951,,,,,,,,,,,,,,,,,,,,,,,,,,,,,,,,,,,,,,,sub-107,2,stroop_test,60.23733508415545,
test,red,r,1.0,1.0,1.0,0.0,r,1.0,0.6702428000280634,,,,,,,,,,,,,,,,,,0.0,1.0,1.0,0.0,,,,,,,,,15.992207199975384,,,,,,,,,,,,,,,,,15.97800790000474,17.191066599974874,17.990455799968913,17.97457399999257,17.975263500004075,17.990455799968913,17.990455799968913,18.674645699968096,r,1.0,0.6702428000280634,,,,,,,,,,,,,,,,,,,,,,,,,,,,,,,,,,,,,,,sub-107,2,stroop_test,60.23733508415545,
test,yellow,g,1.0,2.0,2.0,0.0,g,1.0,1.241364099958446,,,,,,,,,,,,,,,,,,0.0,2.0,2.0,1.0,,,,,,,,,18.689654599991627,,,,,,,,,,,,,,,,,18.675083399983123,18.78964019997511,19.5890623999876,19.57325459999265,19.57403700001305,19.5890623999876,19.5890623999876,20.83923019998474,g,1.0,1.241364099958446,,,,,,,,,,,,,,,,,,,,,,,,,,,,,,,,,,,,,,,sub-107,2,stroop_test,60.23733508415545,
test,yellow,g,1.0,3.0,0.0,1.0,g,1.0,0.4592931999941356,,,,,,,,,,,,,,,,,,1.0,0.0,3.0,1.0,,,,,,,,,20.85435460001463,,,,,,,,,,,,,,,,,20.83967680000933,21.20396549999714,22.00325629999861,21.98736169998301,21.98792250000406,22.00325629999861,22.00325629999861,22.471233699994627,g,1.0,0.4592931999941356,,,,,,,,,,,,,,,,,,,,,,,,,,,,,,,,,,,,,,,sub-107,2,stroop_test,60.23733508415545,
test,red,r,1.0,4.0,1.0,1.0,r,1.0,0.4778717000153847,,,,,,,,,,,,,,,,,,1.0,1.0,4.0,0.0,,,,,,,,,22.486057700007223,,,,,,,,,,,,,,,,,22.471693500003312,23.684967199980747,24.484305199992377,24.46837040001992,24.468909799994435,24.484305199992377,24.484305199992377,24.96863099996699,r,1.0,0.4778717000153847,,,,,,,,,,,,,,,,,,,,,,,,,,,,,,,,,,,,,,,sub-107,2,stroop_test,60.23733508415545,
test,blue,b,1.0,5.0,2.0,1.0,b,1.0,0.6704950999701396,,,,,,,,,,,,,,,,,,1.0,2.0,5.0,2.0,,,,,,,,,24.983717399998568,,,,,,,,,,,,,,,,,24.969065100012813,25.08373070001835,25.883027700008824,25.867139699985277,25.867781199980527,25.883027700008824,25.883027700008824,26.567143799969926,b,1.0,0.6704950999701396,,,,,,,,,,,,,,,,,,,,,,,,,,,,,,,,,,,,,,,sub-107,2,stroop_test,60.23733508415545,
test,blue,b,1.0,6.0,0.0,2.0,b,1.0,0.4403153000166639,,,,,,,,,,,,,,,,,,2.0,0.0,6.0,2.0,,,,,,,,,26.58229739998933,,,,,,,,,,,,,,,,,26.567705900000878,27.78117939998629,28.580475899972956,28.564959799987264,28.565812100016046,28.580475899972956,28.580475899972956,29.031183400016744,b,1.0,0.4403153000166639,,,,,,,,,,,,,,,,,,,,,,,,,,,,,,,,,,,,,,,sub-107,2,stroop_test,60.23733508415545,
test,yellow,g,1.0,7.0,1.0,2.0,r,0.0,0.4788492999505251,,,,,,,,,,,,,,,,,,2.0,1.0,7.0,1.0,,,,,,,,,29.046573799976613,,,,,,,,,,,,,,,,,29.031503800011706,29.14655830000993,29.945774300023917,29.929974099970423,29.93084149999777,29.945774300023917,29.945774300023917,30.429884499986656,r,0.0,0.4788492999505251,,,,,,,,,,,,,,,,,,,,,,,,,,,,,,,,,,,,,,,sub-107,2,stroop_test,60.23733508415545,
test,red,r,1.0,8.0,2.0,2.0,r,1.0,0.6880357000045478,,,,,,,,,,,,,,,,,,2.0,2.0,8.0,0.0,,,,,,,,,30.44529100001091,,,,,,,,,,,,,,,,,30.430231200007256,30.794947499991395,31.594423300004564,31.57847700000275,31.57942010002444,31.594423300004564,31.594423300004564,32.295189399970695,r,1.0,0.6880357000045478,,,,,,,,,,,,,,,,,,,,,,,,,,,,,,,,,,,,,,,sub-107,2,stroop_test,60.23733508415545,
test,yellow,g,1.0,9.0,0.0,3.0,g,1.0,0.5768838000367396,,,,,,,,,,,,,,,,,,3.0,0.0,9.0,1.0,,,,,,,,,32.310164999973495,,,,,,,,,,,,,,,,,32.29563589999452,32.66002100001788,33.459476199990604,33.44337459997041,33.44389380002394,33.459476199990604,33.459476199990604,34.04370259999996,g,1.0,0.5768838000367396,,,,,,,,,,,,,,,,,,,,,,,,,,,,,,,,,,,,,,,sub-107,2,stroop_test,60.23733508415545,
test,blue,b,1.0,10.0,1.0,3.0,b,1.0,0.7572275000275113,,,,,,,,,,,,,,,,,,3.0,1.0,10.0,2.0,,,,,,,,,34.058590699976776,,,,,,,,,,,,,,,,,34.04409189999569,34.85780950001208,35.65704050002387,35.64099559996976,35.64167320000706,35.65704050002387,35.65704050002387,36.42437640001299,b,1.0,0.7572275000275113,,,,,,,,,,,,,,,,,,,,,,,,,,,,,,,,,,,,,,,sub-107,2,stroop_test,60.23733508415545,
test,red,r,1.0,11.0,2.0,3.0,r,1.0,0.4992551999748684,,,,,,,,,,,,,,,,,,3.0,2.0,11.0,0.0,,,,,,,,,36.43957769998815,,,,,,,,,,,,,,,,,36.42468230001396,36.78946499997983,37.58914019999793,37.57392130000517,37.57502019999083,37.58914019999793,37.58914019999793,38.09178770001745,r,1.0,0.4992551999748684,,,,,,,,,,,,,,,,,,,,,,,,,,,,,,,,,,,,,,,sub-107,2,stroop_test,60.23733508415545,
,,,,,,,,,,,,,,,,,,,,,,,,,,,,,,,,,,,,,,,,,,,,,,,,,,,,,,,,,,,,,,,,,,,,38.09219290001784,38.10546310001519,38.10546310001519,40.355110300006345,space,2.240252099989448,,,,,,,,,,,,,,,,,,,,,,,,,,,,,,,,sub-107,2,stroop_test,60.23733508415545,
,,,,0.0,0.0,0.0,,,,,rot,blue,b,0.0,b,1.0,0.9367302999598904,,,,,,,,,,,,,,0.0,0.0,0.0,2.0,,,,,40.39099960000021,,,,,,,,,,,,,,,,,40.38622739998391,40.46935899998061,41.2821990000084,41.25363609998021,,,,,,,,,,,,,,,,41.27406409999821,41.2821990000084,41.2821990000084,42.22179689997574,b,1.0,0.9367302999598904,,42.25731030001771,42.26752390002366,43.234243499988224,,,,,,,,,,,,,,,,,,,,sub-107,2,stroop_test,60.23733508415545,
,,,,1.0,1.0,0.0,,,,,rot,yellow,g,0.0,g,1.0,0.8376313999760896,,,,,,,,,,,,,,0.0,1.0,1.0,3.0,,,,,43.25052800000413,,,,,,,,,,,,,,,,,43.23496339999838,43.33378450002056,44.13293189997785,44.11803900002269,,,,,,,,,,,,,,,,44.11928929999704,44.13293189997785,44.13293189997785,44.98493440001039,g,1.0,0.8376313999760896,,44.98616249999032,44.99872159998631,45.9830762000056,45.99797289998969,,,,,,,,,,,,,,,,,,,sub-107,2,stroop_test,60.23733508415545,
,,,,2.0,2.0,0.0,,,,,gelb,yellow,g,1.0,g,1.0,0.4256705999723635,,,,,,,,,,,,,,0.0,2.0,2.0,10.0,,,,,45.99797289998969,,,,,,,,,,,,,,,,,45.98386580002261,47.1970244999975,48.01744209998287,47.997269399988,,,,,,,,,,,,,,,,48.00914009998087,48.01744209998287,48.01744209998287,48.44799439999042,g,1.0,0.4256705999723635,,48.44915310002398,48.46217169996817,49.46185570000671,,,,,,,,,,,,,,,,,,,,sub-107,2,stroop_test,60.23733508415545,
,,,,3.0,3.0,0.0,,,,,gelb,blue,b,0.0,b,1.0,0.6089987000450492,,,,,,,,,,,,,,0.0,3.0,3.0,9.0,,,,,49.47780729999067,,,,,,,,,,,,,,,,,49.46256179996999,49.56155520002358,50.377198399975896,50.361778699967545,,,,,,,,,,,,,,,,50.36290160001954,50.377198399975896,50.377198399975896,50.995918400003575,b,1.0,0.6089987000450492,,50.99707550002495,51.00980529998196,51.99299900000915,52.00853739999002,,,,,,,,,,,,,,,,,,,sub-107,2,stroop_test,60.23733508415545,
,,,,4.0,4.0,0.0,,,,,blau,blue,b,1.0,b,1.0,0.4669904999900609,,,,,,,,,,,,,,0.0,4.0,4.0,5.0,,,,,52.00853739999002,,,,,,,,,,,,,,,,,51.99340689997189,52.108535400009714,52.90770079998765,52.89207549998537,,,,,,,,,,,,,,,,52.90104510000674,52.90770079998765,52.90770079998765,53.37698499998078,b,1.0,0.4669904999900609,,53.37797239999054,53.390754299995024,54.37434629997006,54.38960559997941,,,,,,,,,,,,,,,,,,,sub-107,2,stroop_test,60.23733508415545,
,,,,5.0,5.0,0.0,,,,,rot,red,r,1.0,r,1.0,0.426010099996347,,,,,,,,,,,,,,0.0,5.0,5.0,1.0,,,,,54.38960559997941,,,,,,,,,,,,,,,,,54.37489799998002,54.7401032000198,55.555408900021575,55.539377100009006,,,,,,,,,,,,,,,,55.54466870002216,55.555408900021575,55.555408900021575,55.99224709998816,r,1.0,0.426010099996347,,55.99386829999276,56.00534019997576,56.98952090000967,57.00421649997588,,,,,,,,,,,,,,,,,,,sub-107,2,stroop_test,60.23733508415545,
,,,,6.0,6.0,0.0,,,,,blau,blue,b,1.0,b,1.0,0.4065177000011317,,,,,,,,,,,,,,0.0,6.0,6.0,6.0,,,,,57.00421649997588,,,,,,,,,,,,,,,,,56.99035809998168,57.80333859997336,58.60389999998733,58.5873926000204,,,,,,,,,,,,,,,,58.59505910001462,58.60389999998733,58.60389999998733,59.02183400001377,b,1.0,0.4065177000011317,,59.02299059997313,59.03562069998589,60.01998209999874,60.03481119999197,,,,,,,,,,,,,,,,,,,sub-107,2,stroop_test,60.23733508415545,
,,,,7.0,7.0,0.0,,,,,blau,yellow,g,0.0,r,0.0,0.7722996000084095,,,,,,,,,,,,,,0.0,7.0,7.0,7.0,,,,,60.03481119999197,,,,,,,,,,,,,,,,,60.02076310000848,60.1346034000162,60.93401879997691,60.919020399975125,,,,,,,,,,,,,,,,60.92030270001851,60.93401879997691,60.93401879997691,61.71894940000493,r,0.0,0.7722996000084095,,61.73478290002095,61.74143479997292,62.73279679997359,,,,,,,,,,,,,,,,,,,,sub-107,2,stroop_test,60.23733508415545,
,,,,8.0,8.0,0.0,,,,,gelb,red,r,0.0,r,1.0,0.7031661999644712,,,,,,,,,,,,,,0.0,8.0,8.0,8.0,,,,,62.74879510002211,,,,,,,,,,,,,,,,,62.73348840000108,63.53187659999821,64.33463960001245,64.3156813000096,,,,,,,,,,,,,,,,64.3237608000054,64.33463960001245,64.33463960001245,65.04922529996838,r,1.0,0.7031661999644712,,65.07010579999769,65.07991729996866,66.06298809999134,,,,,,,,,,,,,,,,,,,,sub-107,2,stroop_test,60.23733508415545,
,,,,9.0,9.0,0.0,,,,,rot,red,r,1.0,r,1.0,0.5374844000325538,,,,,,,,,,,,,,0.0,9.0,9.0,0.0,,,,,66.07902800000738,,,,,,,,,,,,,,,,,66.063810200023,66.86174849997042,67.6771084999782,67.66105459997198,,,,,,,,,,,,,,,,67.66599820001284,67.6771084999782,67.6771084999782,68.22847719996935,r,1.0,0.5374844000325538,,68.22942869999679,68.24344270001166,69.22697040002095,69.24235700001009,,,,,,,,,,,,,,,,,,,sub-107,2,stroop_test,60.23733508415545,
,,,,10.0,10.0,0.0,,,,,gelb,yellow,g,1.0,g,1.0,0.4903603999991901,,,,,,,,,,,,,,0.0,10.0,10.0,11.0,,,,,69.24235700001009,,,,,,,,,,,,,,,,,69.2275466999854,70.04169109999202,70.86296659999061,70.8246916999924,,,,,,,,,,,,,,,,70.85498280002503,70.86296659999061,70.86296659999061,71.36005979997572,g,1.0,0.4903603999991901,,71.36146390001522,71.37397860002238,72.35796059999848,72.3732403999893,,,,,,,,,,,,,,,,,,,sub-107,2,stroop_test,60.23733508415545,
,,,,11.0,11.0,0.0,,,,,blau,red,r,0.0,b,0.0,0.6018395999562927,,,,,,,,,,,,,,0.0,11.0,11.0,4.0,,,,,72.3732403999893,,,,,,,,,,,,,,,,,72.35876779997488,72.47275899996748,73.27211149997311,73.25624710001284,,,,,,,,,,,,,,,,73.26316079997923,73.27211149997311,73.27211149997311,73.88945760001661,b,0.0,0.6018395999562927,,73.89486770000076,73.90479349996895,74.8877767000231,74.90373800002271,,,,,,,,,,,,,,,,,,,sub-107,2,stroop_test,60.23733508415545,
,,,,12.0,0.0,1.0,,,,,gelb,red,r,0.0,r,1.0,0.5052919000154361,,,,,,,,,,,,,,1.0,0.0,12.0,8.0,,,,,74.90373800002271,,,,,,,,,,,,,,,,,74.88799820002168,76.1026569000096,76.90194750000956,76.88608909997856,,,,,,,,,,,,,,,,76.89091899996856,76.90194750000956,76.90194750000956,77.42003219999606,r,1.0,0.5052919000154361,,77.42698940000264,77.43478790001245,78.41831179999281,78.43389119999483,,,,,,,,,,,,,,,,,,,sub-107,2,stroop_test,60.23733508415545,
,,,,13.0,1.0,1.0,,,,,rot,blue,b,0.0,g,0.0,0.5572646000073291,,,,,,,,,,,,,,1.0,1.0,13.0,2.0,,,,,78.43389119999483,,,,,,,,,,,,,,,,,78.41878940002061,78.78383899998153,79.59925969998585,79.58305509999627,,,,,,,,,,,,,,,,79.58774829999311,79.59925969998585,79.59925969998585,80.16743349999888,g,0.0,0.5572646000073291,,80.17625700001372,80.18367180001223,81.18147810001392,,,,,,,,,,,,,,,,,,,,sub-107,2,stroop_test,60.23733508415545,
,,,,14.0,2.0,1.0,,,,,rot,red,r,1.0,r,1.0,0.4198277000105008,,,,,,,,,,,,,,1.0,2.0,14.0,1.0,,,,,81.19783660001121,,,,,,,,,,,,,,,,,81.1819053000072,81.98050489998423,82.77978769998299,82.76391229999717,,,,,,,,,,,,,,,,82.76456579996739,82.77978769998299,82.77978769998299,83.21423049998702,r,1.0,0.4198277000105008,,83.21996590000344,83.22942589997547,84.2127442000201,84.22844480001368,,,,,,,,,,,,,,,,,,,sub-107,2,stroop_test,60.23733508415545,
,,,,15.0,3.0,1.0,,,,,gelb,yellow,g,1.0,g,1.0,0.5508903000154532,,,,,,,,,,,,,,1.0,3.0,15.0,11.0,,,,,84.22844480001368,,,,,,,,,,,,,,,,,84.21327700000256,85.42784690001281,86.23048520000884,86.2121856000158,,,,,,,,,,,,,,,,86.22272249998059,86.23048520000884,86.23048520000884,86.79570899996907,g,1.0,0.5508903000154532,,86.79689009999856,86.80955790000735,87.7934103999869,87.80864230002044,,,,,,,,,,,,,,,,,,,sub-107,2,stroop_test,60.23733508415545,
,,,,16.0,4.0,1.0,,,,,blau,blue,b,1.0,b,1.0,0.4801085999934003,,,,,,,,,,,,,,1.0,4.0,16.0,6.0,,,,,87.80864230002044,,,,,,,,,,,,,,,,,87.79410719999578,88.15805560001172,88.95903730002465,88.94231760001276,,,,,,,,,,,,,,,,88.94994050002424,88.95903730002465,88.95903730002465,89.4420320999925,b,1.0,0.4801085999934003,,89.44282110000495,89.45692239998607,90.44015029998263,90.45588010002392,,,,,,,,,,,,,,,,,,,sub-107,2,stroop_test,60.23733508415545,
,,,,17.0,5.0,1.0,,,,,blau,blue,b,1.0,b,1.0,0.5158729000249878,,,,,,,,,,,,,,1.0,5.0,17.0,5.0,,,,,90.45588010002392,,,,,,,,,,,,,,,,,90.4405830000178,91.25541530002374,92.05476620001718,92.040334899968,,,,,,,,,,,,,,,,92.04177640000124,92.05476620001718,92.05476620001718,92.5753279000055,b,1.0,0.5158729000249878,,92.57645629998296,92.58744269999444,93.57067569997162,93.5862837000168,,,,,,,,,,,,,,,,,,,sub-107,2,stroop_test,60.23733508415545,
,,,,18.0,6.0,1.0,,,,,blau,yellow,g,0.0,r,0.0,0.9376169000170194,,,,,,,,,,,,,,1.0,6.0,18.0,7.0,,,,,93.5862837000168,,,,,,,,,,,,,,,,,93.57109500002116,93.93612879997818,94.73598860000492,94.72128519997932,,,,,,,,,,,,,,,,94.7227630999987,94.73598860000492,94.73598860000492,95.68824619997758,r,0.0,0.9376169000170194,,95.70335099997465,95.71633570000996,96.70037689997116,,,,,,,,,,,,,,,,,,,,sub-107,2,stroop_test,60.23733508415545,
,,,,19.0,7.0,1.0,,,,,blau,red,r,0.0,r,1.0,0.7661553000216372,,,,,,,,,,,,,,1.0,7.0,19.0,4.0,,,,,96.71682059997693,,,,,,,,,,,,,,,,,96.7008137999801,97.05024860001868,97.8492624000064,97.83396299998276,,,,,,,,,,,,,,,,97.83484819997102,97.8492624000064,97.8492624000064,98.6183047000086,r,1.0,0.7661553000216372,,98.62804400001188,98.63830960000632,99.63085319998208,,,,,,,,,,,,,,,,,,,,sub-107,2,stroop_test,60.23733508415545,
,,,,20.0,8.0,1.0,,,,,gelb,blue,b,0.0,b,1.0,0.6866002000169829,,,,,,,,,,,,,,1.0,8.0,20.0,9.0,,,,,99.64730539999437,,,,,,,,,,,,,,,,,99.63130170002114,100.82953079999425,101.62881119997472,101.6130466000177,,,,,,,,,,,,,,,,101.61787919997003,101.62881119997472,101.62881119997472,102.32941950001988,b,1.0,0.6866002000169829,,102.33011470001657,102.34488669998244,103.32810549996792,103.34375379997071,,,,,,,,,,,,,,,,,,,sub-107,2,stroop_test,60.23733508415545,
,,,,21.0,9.0,1.0,,,,,gelb,yellow,g,1.0,g,1.0,1.0538994999951683,,,,,,,,,,,,,,1.0,9.0,21.0,10.0,,,,,103.34375379997071,,,,,,,,,,,,,,,,,103.32855739997468,104.54276839998784,105.3420413999702,105.32629340002312,,,,,,,,,,,,,,,,105.32723009999609,105.3420413999702,105.3420413999702,106.40918580000287,g,1.0,1.0538994999951683,,106.40989209996768,106.4243448000052,107.40783330000704,107.42341430002124,,,,,,,,,,,,,,,,,,,sub-107,2,stroop_test,60.23733508415545,
,,,,22.0,10.0,1.0,,,,,rot,yellow,g,0.0,r,0.0,0.7387801000149921,,,,,,,,,,,,,,1.0,10.0,22.0,3.0,,,,,107.42341430002124,,,,,,,,,,,,,,,,,107.40826850000305,107.77307250001468,108.57229709997772,108.5564766000025,,,,,,,,,,,,,,,,108.56122749997304,108.57229709997772,108.57229709997772,109.3234193000244,r,0.0,0.7387801000149921,,109.32966639997905,109.33831810002448,110.3215926999692,110.3372552000219,,,,,,,,,,,,,,,,,,,sub-107,2,stroop_test,60.23733508415545,
,,,,23.0,11.0,1.0,,,,,rot,red,r,1.0,r,1.0,0.5267307999893092,,,,,,,,,,,,,,1.0,11.0,23.0,0.0,,,,,110.3372552000219,,,,,,,,,,,,,,,,,110.32203799998388,111.13655170000855,111.93587320001096,111.9200157999876,,,,,,,,,,,,,,,,111.92068619997008,111.93587320001096,111.93587320001096,112.47010009997756,r,1.0,0.5267307999893092,,112.47637469996698,112.4853208999848,113.46858980000252,113.48451310000382,,,,,,,,,,,,,,,,,,,sub-107,2,stroop_test,60.23733508415545,
,,,,,,,,,,,,,,,,,,,,,,,,,,,,,,,,,,,,,,,,,,,,,,,,,,,,,,,,,,,,,,,,,,,,,,,,,,,,,,,,,,,,,,,113.46877269999824,113.48451310000382,113.48451310000382,123.99288330000128,space,10.497762299957683,,,,,,,,,,,,,sub-107,2,stroop_test,60.23733508415545,
,,,,0.0,0.0,0.0,,,,,,,,,,,,,blau,red,r,0.0,r,1.0,1.649339700001292,,,,,,,,,,0.0,0.0,0.0,4.0,124.01528360001976,,,,,,,,,,,,,,,,,124.01110010000411,125.20680549996904,126.00593889999436,125.989744600025,,,,,,,,,,,,,,,,,,,,,,,,,,,,,,,,,,,125.99244529998396,126.00593889999436,126.00593889999436,127.67241619998822,r,1.0,1.649339700001292,,,,,sub-107,2,stroop_test,60.23733508415545,
,,,,1.0,1.0,0.0,,,,,,,,,,,,,gelb,yellow,g,1.0,g,1.0,0.6831192999961786,,,,,,,,,,0.0,1.0,1.0,11.0,127.68779320002068,,,,,,,,,,,,,,,,,127.67280930001289,127.78766680002444,128.5869553000084,128.5710500999703,,,,,,,,,,,,,,,,,,,,,,,,,,,,,,,,,,,128.57598409999628,128.5869553000084,128.5869553000084,129.27180990000488,g,1.0,0.6831192999961786,,,,,sub-107,2,stroop_test,60.23733508415545,
,,,,2.0,2.0,0.0,,,,,,,,,,,,,blau,blue,b,1.0,b,1.0,0.4811883000074886,,,,,,,,,,0.0,2.0,2.0,5.0,129.28621099999873,,,,,,,,,,,,,,,,,129.27231420000317,130.48511379997944,131.28439639997669,131.2685193999787,,,,,,,,,,,,,,,,,,,,,,,,,,,,,,,,,,,131.27303550002398,131.28439639997669,131.28439639997669,131.76893859996926,b,1.0,0.4811883000074886,,,,,sub-107,2,stroop_test,60.23733508415545,
,,,,3.0,3.0,0.0,,,,,,,,,,,,,blau,blue,b,1.0,b,1.0,0.4027807000093162,,,,,,,,,,0.0,3.0,3.0,6.0,131.78390989999752,,,,,,,,,,,,,,,,,131.7694627000019,132.13364519999595,132.932957299985,132.91709800000535,,,,,,,,,,,,,,,,,,,,,,,,,,,,,,,,,,,132.9178029000177,132.932957299985,132.932957299985,133.35064319998492,b,1.0,0.4027807000093162,,,,,sub-107,2,stroop_test,60.23733508415545,
,,,,4.0,4.0,0.0,,,,,,,,,,,,,gelb,red,r,0.0,r,1.0,0.4195064000086859,,,,,,,,,,0.0,4.0,4.0,8.0,133.36578509997344,,,,,,,,,,,,,,,,,133.35113730002195,133.4657070999965,134.264975099999,134.24912069999846,,,,,,,,,,,,,,,,,,,,,,,,,,,,,,,,,,,134.25436219997937,134.264975099999,134.264975099999,134.69963019998977,r,1.0,0.4195064000086859,,,,,sub-107,2,stroop_test,60.23733508415545,
,,,,5.0,5.0,0.0,,,,,,,,,,,,,gelb,blue,b,0.0,b,1.0,0.4738531999755651,,,,,,,,,,0.0,5.0,5.0,9.0,134.7144214999862,,,,,,,,,,,,,,,,,134.70011580002028,135.51377979997778,136.31307630002266,136.29718950000824,,,,,,,,,,,,,,,,,,,,,,,,,,,,,,,,,,,136.2978765000007,136.31307630002266,136.31307630002266,136.79742229997646,b,1.0,0.4738531999755651,,,,,sub-107,2,stroop_test,60.23733508415545,
,,,,6.0,6.0,0.0,,,,,,,,,,,,,rot,red,r,1.0,r,1.0,0.4022054000524804,,,,,,,,,,0.0,6.0,6.0,1.0,136.81244890001835,,,,,,,,,,,,,,,,,136.79793050000444,137.61178699997254,138.4109540000209,138.39522080001188,,,,,,,,,,,,,,,,,,,,,,,,,,,,,,,,,,,138.39974710001843,138.4109540000209,138.4109540000209,138.82876409997698,r,1.0,0.4022054000524804,,,,,sub-107,2,stroop_test,60.23733508415545,
,,,,7.0,7.0,0.0,,,,,,,,,,,,,blau,yellow,g,0.0,g,1.0,0.840574000030756,,,,,,,,,,0.0,7.0,7.0,7.0,138.84399249998387,,,,,,,,,,,,,,,,,138.829245299974,140.0428998999996,140.84216960001504,140.82632689998718,,,,,,,,,,,,,,,,,,,,,,,,,,,,,,,,,,,140.83081610000227,140.84216960001504,140.84216960001504,141.69297550001647,g,1.0,0.840574000030756,,,,,sub-107,2,stroop_test,60.23733508415545,
,,,,8.0,8.0,0.0,,,,,,,,,,,,,rot,red,r,1.0,b,0.0,0.4989733999827876,,,,,,,,,,0.0,8.0,8.0,0.0,141.70792840002105,,,,,,,,,,,,,,,,,141.69349360000342,142.5072515999782,143.30648829997517,143.29068229999393,,,,,,,,,,,,,,,,,,,,,,,,,,,,,,,,,,,143.2954241000116,143.30648829997517,143.30648829997517,143.80771209998056,b,0.0,0.4989733999827876,,,,,sub-107,2,stroop_test,60.23733508415545,
,,,,9.0,9.0,0.0,,,,,,,,,,,,,rot,blue,b,0.0,r,0.0,0.5069054000196047,,,,,,,,,,0.0,9.0,9.0,2.0,143.822634799988,,,,,,,,,,,,,,,,,143.80822519998765,144.62199030001648,145.4212101000012,145.40526829997543,,,,,,,,,,,,,,,,,,,,,,,,,,,,,,,,,,,145.4059067000053,145.4212101000012,145.4212101000012,145.9388850000105,r,0.0,0.5069054000196047,,,,,sub-107,2,stroop_test,60.23733508415545,
,,,,10.0,10.0,0.0,,,,,,,,,,,,,gelb,yellow,g,1.0,g,1.0,0.4777382999891415,,,,,,,,,,0.0,10.0,10.0,10.0,145.9539355000015,,,,,,,,,,,,,,,,,145.93938370002434,147.15280420001363,147.95215899997856,147.9362821999821,,,,,,,,,,,,,,,,,,,,,,,,,,,,,,,,,,,147.94094140001107,147.95215899997856,147.95215899997856,148.43661550001707,g,1.0,0.4777382999891415,,,,,sub-107,2,stroop_test,60.23733508415545,
,,,,11.0,11.0,0.0,,,,,,,,,,,,,rot,yellow,g,0.0,g,1.0,0.8849649999756366,,,,,,,,,,0.0,11.0,11.0,3.0,148.451633699995,,,,,,,,,,,,,,,,,148.4371590000228,148.80163509998238,149.60060750000412,149.58484939998016,,,,,,,,,,,,,,,,,,,,,,,,,,,,,,,,,,,149.58942630002275,149.60060750000412,149.60060750000412,150.5013952999725,g,1.0,0.8849649999756366,,,,,sub-107,2,stroop_test,60.23733508415545,
,,,,12.0,0.0,1.0,,,,,,,,,,,,,gelb,yellow,g,1.0,g,1.0,0.4056845000013709,,,,,,,,,,1.0,0.0,12.0,11.0,150.51639379997505,,,,,,,,,,,,,,,,,150.50192469998728,151.71521120000398,152.51473920000717,152.4987488000188,,,,,,,,,,,,,,,,,,,,,,,,,,,,,,,,,,,152.50430719996805,152.51473920000717,152.51473920000717,152.93244649999542,g,1.0,0.4056845000013709,,,,,sub-107,2,stroop_test,60.23733508415545,
,,,,13.0,1.0,1.0,,,,,,,,,,,,,blau,blue,b,1.0,b,1.0,0.4539055000059306,,,,,,,,,,1.0,1.0,13.0,6.0,152.94740649999585,,,,,,,,,,,,,,,,,152.93297169997822,153.74669020000147,154.5459621999762,154.53014589997474,,,,,,,,,,,,,,,,,,,,,,,,,,,,,,,,,,,154.53482910001185,154.5459621999762,154.5459621999762,155.01358510000864,b,1.0,0.4539055000059306,,,,,sub-107,2,stroop_test,60.23733508415545,
,,,,14.0,2.0,1.0,,,,,,,,,,,,,rot,red,r,1.0,r,1.0,0.4671283000498079,,,,,,,,,,1.0,2.0,14.0,0.0,155.02883239998482,,,,,,,,,,,,,,,,,155.01395150000462,155.3784478000016,156.17780960001983,156.1619772000122,,,,,,,,,,,,,,,,,,,,,,,,,,,,,,,,,,,156.1667674999917,156.17780960001983,156.17780960001983,156.66185620002216,r,1.0,0.4671283000498079,,,,,sub-107,2,stroop_test,60.23733508415545,
,,,,15.0,3.0,1.0,,,,,,,,,,,,,blau,blue,b,1.0,b,1.0,0.5235202999901958,,,,,,,,,,1.0,3.0,15.0,5.0,156.67725760000758,,,,,,,,,,,,,,,,,156.66226880002068,156.77723239996703,157.57645689998753,157.56068459997186,,,,,,,,,,,,,,,,,,,,,,,,,,,,,,,,,,,157.56530040001962,157.57645689998753,157.57645689998753,158.11094400001457,b,1.0,0.5235202999901958,,,,,sub-107,2,stroop_test,60.23733508415545,
,,,,16.0,4.0,1.0,,,,,,,,,,,,,rot,blue,b,0.0,b,1.0,0.7217984999879263,,,,,,,,,,1.0,4.0,16.0,2.0,158.1258915999788,,,,,,,,,,,,,,,,,158.11147850000998,158.47564189997502,159.27491759997793,159.25915549998172,,,,,,,,,,,,,,,,,,,,,,,,,,,,,,,,,,,159.26471590000438,159.27491759997793,159.27491759997793,160.0089883999899,b,1.0,0.7217984999879263,,,,,sub-107,2,stroop_test,60.23733508415545,
,,,,17.0,5.0,1.0,,,,,,,,,,,,,gelb,blue,b,0.0,b,1.0,0.3933367000427097,,,,,,,,,,1.0,5.0,17.0,9.0,160.0241881000111,,,,,,,,,,,,,,,,,160.00941950001288,160.37383150000824,161.17300120001892,161.15678339998703,,,,,,,,,,,,,,,,,,,,,,,,,,,,,,,,,,,161.15920729999198,161.17300120001892,161.17300120001892,161.57434739999007,b,1.0,0.3933367000427097,,,,,sub-107,2,stroop_test,60.23733508415545,
,,,,18.0,6.0,1.0,,,,,,,,,,,,,rot,red,r,1.0,r,1.0,0.4827681999886408,,,,,,,,,,1.0,6.0,18.0,1.0,161.58932919998188,,,,,,,,,,,,,,,,,161.57486779999454,161.93905480002286,162.74638630001573,162.72419079998508,,,,,,,,,,,,,,,,,,,,,,,,,,,,,,,,,,,162.73549689998617,162.74638630001573,162.74638630001573,163.24017439997988,r,1.0,0.4827681999886408,,,,,sub-107,2,stroop_test,60.23733508415545,
,,,,19.0,7.0,1.0,,,,,,,,,,,,,rot,yellow,g,0.0,g,1.0,0.5907537000020966,,,,,,,,,,1.0,7.0,19.0,3.0,163.2546148999827,,,,,,,,,,,,,,,,,163.24083119997522,164.45393540000077,165.2692027000012,165.25316690001637,,,,,,,,,,,,,,,,,,,,,,,,,,,,,,,,,,,165.25363320001634,165.2692027000012,165.2692027000012,165.87279860000126,g,1.0,0.5907537000020966,,,,,sub-107,2,stroop_test,60.23733508415545,
,,,,20.0,8.0,1.0,,,,,,,,,,,,,gelb,red,r,0.0,r,1.0,0.7660515000461601,,,,,,,,,,1.0,8.0,20.0,8.0,165.8857978999731,,,,,,,,,,,,,,,,,165.8738934000139,165.98522630002117,166.78442979999818,166.76829099998577,,,,,,,,,,,,,,,,,,,,,,,,,,,,,,,,,,,166.7708980999887,166.78442979999818,166.78442979999818,167.55180339998333,r,1.0,0.7660515000461601,,,,,sub-107,2,stroop_test,60.23733508415545,
,,,,21.0,9.0,1.0,,,,,,,,,,,,,gelb,yellow,g,1.0,g,1.0,0.55553549999604,,,,,,,,,,1.0,9.0,21.0,10.0,167.56701729999622,,,,,,,,,,,,,,,,,167.5520912000211,168.76657909998903,169.5658685999806,169.54995810001856,,,,,,,,,,,,,,,,,,,,,,,,,,,,,,,,,,,169.55076870002085,169.5658685999806,169.5658685999806,170.1323288999847,g,1.0,0.55553549999604,,,,,sub-107,2,stroop_test,60.23733508415545,
,,,,22.0,10.0,1.0,,,,,,,,,,,,,blau,red,r,0.0,b,0.0,0.4764340000110678,,,,,,,,,,1.0,10.0,22.0,4.0,170.14789839996956,,,,,,,,,,,,,,,,,170.1325821999926,170.2478378000087,171.05576929997187,171.03327810001792,,,,,,,,,,,,,,,,,,,,,,,,,,,,,,,,,,,171.04408010002226,171.05576929997187,171.05576929997187,171.54834749997826,b,0.0,0.4764340000110678,,,,,sub-107,2,stroop_test,60.23733508415545,
,,,,23.0,11.0,1.0,,,,,,,,,,,,,blau,yellow,g,0.0,g,1.0,0.4037547999760136,,,,,,,,,,1.0,11.0,23.0,7.0,171.5633480999968,,,,,,,,,,,,,,,,,171.54887930001132,172.76225759997033,173.56158679997316,173.54574089997914,,,,,,,,,,,,,,,,,,,,,,,,,,,,,,,,,,,173.5464797000168,173.56158679997316,173.56158679997316,173.98022849997506,g,1.0,0.4037547999760136,,,,,sub-107,2,stroop_test,60.23733508415545,
,,,,24.0,0.0,2.0,,,,,,,,,,,,,gelb,yellow,g,1.0,g,1.0,0.4933662000112235,,,,,,,,,,2.0,0.0,24.0,11.0,173.99436720000813,,,,,,,,,,,,,,,,,173.98078899999382,174.094303699967,174.8954752999707,174.87886469997466,,,,,,,,,,,,,,,,,,,,,,,,,,,,,,,,,,,174.8868895000196,174.8954752999707,174.8954752999707,175.39509429997997,g,1.0,0.4933662000112235,,,,,sub-107,2,stroop_test,60.23733508415545,
,,,,25.0,1.0,2.0,,,,,,,,,,,,,blau,blue,b,1.0,r,0.0,0.5776567999855615,,,,,,,,,,2.0,1.0,25.0,5.0,175.40975920000346,,,,,,,,,,,,,,,,,175.39555149996886,176.60864709998714,177.40855829999782,177.39309179998236,,,,,,,,,,,,,,,,,,,,,,,,,,,,,,,,,,,177.4006130999769,177.40855829999782,177.40855829999782,177.99385769997025,r,0.0,0.5776567999855615,,,,,sub-107,2,stroop_test,60.23733508415545,
,,,,26.0,2.0,2.0,,,,,,,,,,,,,rot,yellow,g,0.0,g,1.0,0.7395918000256643,,,,,,,,,,2.0,2.0,26.0,3.0,178.00753439997789,,,,,,,,,,,,,,,,,177.99468329997035,179.20629760000156,180.00553169997875,179.9899308999884,,,,,,,,,,,,,,,,,,,,,,,,,,,,,,,,,,,179.99668540002313,180.00553169997875,180.00553169997875,180.75757830002112,g,1.0,0.7395918000256643,,,,,sub-107,2,stroop_test,60.23733508415545,
,,,,27.0,3.0,2.0,,,,,,,,,,,,,gelb,blue,b,0.0,b,1.0,0.6295783999958076,,,,,,,,,,2.0,3.0,27.0,9.0,180.77160500001628,,,,,,,,,,,,,,,,,180.7583807000192,181.571076799999,182.37209959997563,182.35500799998408,,,,,,,,,,,,,,,,,,,,,,,,,,,,,,,,,,,182.36296180001227,182.37209959997563,182.37209959997563,183.0058287999709,b,1.0,0.6295783999958076,,,,,sub-107,2,stroop_test,60.23733508415545,
,,,,28.0,4.0,2.0,,,,,,,,,,,,,rot,blue,b,0.0,b,1.0,0.5530112000415102,,,,,,,,,,2.0,4.0,28.0,2.0,183.0195581999724,,,,,,,,,,,,,,,,,183.00667039997643,183.11928440001796,183.91890260000943,183.9032453999971,,,,,,,,,,,,,,,,,,,,,,,,,,,,,,,,,,,183.9095213999972,183.91890260000943,183.91890260000943,184.4855835000053,b,1.0,0.5530112000415102,,,,,sub-107,2,stroop_test,60.23733508415545,
,,,,29.0,5.0,2.0,,,,,,,,,,,,,blau,red,r,0.0,r,1.0,0.6316478000371717,,,,,,,,,,2.0,5.0,29.0,4.0,184.50123689998875,,,,,,,,,,,,,,,,,184.4859402999864,184.83515359996815,185.6502445000224,185.63461830001324,,,,,,,,,,,,,,,,,,,,,,,,,,,,,,,,,,,185.63822329998948,185.6502445000224,185.6502445000224,186.28626660001464,r,1.0,0.6316478000371717,,,,,sub-107,2,stroop_test,60.23733508415545,
,,,,30.0,6.0,2.0,,,,,,,,,,,,,rot,red,r,1.0,r,1.0,0.4478855999768711,,,,,,,,,,2.0,6.0,30.0,1.0,186.29984059999697,,,,,,,,,,,,,,,,,186.28705159999663,187.4984514999669,188.29790509998568,188.28233289998025,,,,,,,,,,,,,,,,,,,,,,,,,,,,,,,,,,,188.288493399974,188.29790509998568,188.29790509998568,188.7495431000134,r,1.0,0.4478855999768711,,,,,sub-107,2,stroop_test,60.23733508415545,
,,,,31.0,7.0,2.0,,,,,,,,,,,,,blau,blue,b,1.0,b,1.0,0.4395902000251226,,,,,,,,,,2.0,7.0,31.0,6.0,188.7640298000188,,,,,,,,,,,,,,,,,188.7502048999886,189.1136726000113,189.91427720000505,189.8979653000133,,,,,,,,,,,,,,,,,,,,,,,,,,,,,,,,,,,189.90587730001425,189.91427720000505,189.91427720000505,190.3639525999897,b,1.0,0.4395902000251226,,,,,sub-107,2,stroop_test,60.23733508415545,
,,,,32.0,8.0,2.0,,,,,,,,,,,,,rot,red,r,1.0,r,1.0,0.4325342000229284,,,,,,,,,,2.0,8.0,32.0,0.0,190.37906060001117,,,,,,,,,,,,,,,,,190.36442669999087,191.57859089999693,192.3940439000144,192.37863260001177,,,,,,,,,,,,,,,,,,,,,,,,,,,,,,,,,,,192.38645140000156,192.3940439000144,192.3940439000144,192.83112839999376,r,1.0,0.4325342000229284,,,,,sub-107,2,stroop_test,60.23733508415545,
,,,,33.0,9.0,2.0,,,,,,,,,,,,,gelb,yellow,g,1.0,g,1.0,0.5298981000087224,,,,,,,,,,2.0,9.0,33.0,10.0,192.8439145999728,,,,,,,,,,,,,,,,,192.83228859998053,194.0428249000106,194.84309909999135,194.8269848999917,,,,,,,,,,,,,,,,,,,,,,,,,,,,,,,,,,,194.83494849997803,194.84309909999135,194.84309909999135,195.3776417999761,g,1.0,0.5298981000087224,,,,,sub-107,2,stroop_test,60.23733508415545,
,,,,34.0,10.0,2.0,,,,,,,,,,,,,gelb,red,r,0.0,r,1.0,0.7143576999660581,,,,,,,,,,2.0,10.0,34.0,8.0,195.39128879999043,,,,,,,,,,,,,,,,,195.37843500002052,195.7411212999723,196.54037080000853,196.52519750001372,,,,,,,,,,,,,,,,,,,,,,,,,,,,,,,,,,,196.5263255999889,196.54037080000853,196.54037080000853,197.25999629998117,r,1.0,0.7143576999660581,,,,,sub-107,2,stroop_test,60.23733508415545,
,,,,35.0,11.0,2.0,,,,,,,,,,,,,blau,yellow,g,0.0,r,0.0,1.0845812000334265,,,,,,,,,,2.0,11.0,35.0,7.0,197.2731512999744,,,,,,,,,,,,,,,,,197.2610444999882,197.3727562999702,198.1784883000073,198.1576708999928,,,,,,,,,,,,,,,,,,,,,,,,,,,,,,,,,,,198.1683120999951,198.1784883000073,198.1784883000073,199.27359080000315,r,0.0,1.0845812000334265,,,,,sub-107,2,stroop_test,60.23733508415545,
,,,,36.0,0.0,3.0,,,,,,,,,,,,,rot,yellow,g,0.0,g,1.0,0.68043409998063,,,,,,,,,,3.0,0.0,36.0,3.0,199.2876236999873,,,,,,,,,,,,,,,,,199.27441020001424,200.08748039999043,200.90642219997244,200.88786209997488,,,,,,,,,,,,,,,,,,,,,,,,,,,,,,,,,,,200.89651449996745,200.90642219997244,200.90642219997244,201.60438330000036,g,1.0,0.68043409998063,,,,,sub-107,2,stroop_test,60.23733508415545,
,,,,37.0,1.0,3.0,,,,,,,,,,,,,rot,red,r,1.0,r,1.0,0.4117736999760382,,,,,,,,,,3.0,1.0,37.0,0.0,201.6186162999948,,,,,,,,,,,,,,,,,201.6052041000221,202.41851190000307,203.2337692999863,203.2179854999995,,,,,,,,,,,,,,,,,,,,,,,,,,,,,,,,,,,203.21865130000515,203.2337692999863,203.2337692999863,203.65211999998428,r,1.0,0.4117736999760382,,,,,sub-107,2,stroop_test,60.23733508415545,
,,,,38.0,2.0,3.0,,,,,,,,,,,,,blau,yellow,g,0.0,g,1.0,0.5399041000055149,,,,,,,,,,3.0,2.0,38.0,7.0,203.6666520999861,,,,,,,,,,,,,,,,,203.65271639998537,204.01724730001297,204.8337703999714,204.8175395000144,,,,,,,,,,,,,,,,,,,,,,,,,,,,,,,,,,,204.8255014999886,204.8337703999714,204.8337703999714,205.38565030001337,g,1.0,0.5399041000055149,,,,,sub-107,2,stroop_test,60.23733508415545,
,,,,39.0,3.0,3.0,,,,,,,,,,,,,gelb,yellow,g,1.0,g,1.0,0.4143084000097587,,,,,,,,,,3.0,3.0,39.0,11.0,205.3985009000171,,,,,,,,,,,,,,,,,205.3866817000089,205.4988123999792,206.3145719000022,206.29847360000716,,,,,,,,,,,,,,,,,,,,,,,,,,,,,,,,,,,206.30396260001,206.3145719000022,206.3145719000022,206.73346550000133,g,1.0,0.4143084000097587,,,,,sub-107,2,stroop_test,60.23733508415545,
,,,,40.0,4.0,3.0,,,,,,,,,,,,,gelb,yellow,g,1.0,g,1.0,0.4120271999854594,,,,,,,,,,3.0,4.0,40.0,10.0,206.74738060001985,,,,,,,,,,,,,,,,,206.7342550000176,207.9460631000111,208.7455750000081,208.73033280001252,,,,,,,,,,,,,,,,,,,,,,,,,,,,,,,,,,,208.73143320000963,208.7455750000081,208.7455750000081,209.1647465999704,g,1.0,0.4120271999854594,,,,,sub-107,2,stroop_test,60.23733508415545,
,,,,41.0,5.0,3.0,,,,,,,,,,,,,gelb,red,r,0.0,r,1.0,0.7800131000112742,,,,,,,,,,3.0,5.0,41.0,8.0,209.17844489996787,,,,,,,,,,,,,,,,,209.1655380000011,209.2789489999996,210.07782030000817,210.06276070000604,,,,,,,,,,,,,,,,,,,,,,,,,,,,,,,,,,,210.0640572999837,210.07782030000817,210.07782030000817,210.8631334999809,r,1.0,0.7800131000112742,,,,,sub-107,2,stroop_test,60.23733508415545,
,,,,42.0,6.0,3.0,,,,,,,,,,,,,blau,red,r,0.0,r,1.0,0.7147631000261754,,,,,,,,,,3.0,6.0,42.0,4.0,210.8768172999844,,,,,,,,,,,,,,,,,210.8639951000223,212.075829599984,212.8750064999913,212.859766700014,,,,,,,,,,,,,,,,,,,,,,,,,,,,,,,,,,,212.8667104999768,212.8750064999913,212.8750064999913,213.59241969999857,r,1.0,0.7147631000261754,,,,,sub-107,2,stroop_test,60.23733508415545,
,,,,43.0,7.0,3.0,,,,,,,,,,,,,rot,red,r,1.0,r,1.0,0.4741622000001371,,,,,,,,,,3.0,7.0,43.0,1.0,213.6074306999799,,,,,,,,,,,,,,,,,213.5929393999977,214.8066996000125,215.60968230001163,215.59110229997896,,,,,,,,,,,,,,,,,,,,,,,,,,,,,,,,,,,215.60046869999496,215.60968230001163,215.60968230001163,216.09150440001395,r,1.0,0.4741622000001371,,,,,sub-107,2,stroop_test,60.23733508415545,
,,,,44.0,8.0,3.0,,,,,,,,,,,,,blau,blue,b,1.0,b,1.0,0.5477885999716818,,,,,,,,,,3.0,8.0,44.0,6.0,216.1053368999856,,,,,,,,,,,,,,,,,216.0924450000166,216.9047733999905,217.70385619997975,217.68851670000004,,,,,,,,,,,,,,,,,,,,,,,,,,,,,,,,,,,217.6953931999742,217.70385619997975,217.70385619997975,218.2554659000016,b,1.0,0.5477885999716818,,,,,sub-107,2,stroop_test,60.23733508415545,
,,,,45.0,9.0,3.0,,,,,,,,,,,,,rot,blue,b,0.0,b,1.0,0.4051662000128999,,,,,,,,,,3.0,9.0,45.0,2.0,218.26987349998672,,,,,,,,,,,,,,,,,218.2562038999749,219.46921680000375,220.2754826999735,220.2537936000153,,,,,,,,,,,,,,,,,,,,,,,,,,,,,,,,,,,220.264917100023,220.2754826999735,220.2754826999735,220.6862722000224,b,1.0,0.4051662000128999,,,,,sub-107,2,stroop_test,60.23733508415545,
,,,,46.0,10.0,3.0,,,,,,,,,,,,,gelb,blue,b,0.0,b,1.0,0.4331620999728329,,,,,,,,,,3.0,10.0,46.0,9.0,220.7008712000097,,,,,,,,,,,,,,,,,220.6869263999979,221.0508567999932,221.8497953999904,221.83408409997355,,,,,,,,,,,,,,,,,,,,,,,,,,,,,,,,,,,221.83944100001827,221.8497953999904,221.8497953999904,222.2870142000029,b,1.0,0.4331620999728329,,,,,sub-107,2,stroop_test,60.23733508415545,
,,,,47.0,11.0,3.0,,,,,,,,,,,,,blau,blue,b,1.0,b,1.0,0.4251021999516524,,,,,,,,,,3.0,11.0,47.0,5.0,222.29953299998303,,,,,,,,,,,,,,,,,222.28805620002092,223.09882860002108,223.89865029999052,223.88274999998976,,,,,,,,,,,,,,,,,,,,,,,,,,,,,,,,,,,223.8905843999819,223.89865029999052,223.89865029999052,224.33386989997237,b,1.0,0.4251021999516524,,,,,sub-107,2,stroop_test,60.23733508415545,
,,,,48.0,0.0,4.0,,,,,,,,,,,,,blau,blue,b,1.0,b,1.0,0.3653236999525688,,,,,,,,,,4.0,0.0,48.0,5.0,224.34760789998109,,,,,,,,,,,,,,,,,224.3346850000089,225.1473282999941,225.946480899991,225.9317004000186,,,,,,,,,,,,,,,,,,,,,,,,,,,,,,,,,,,225.9331198,225.946480899991,225.946480899991,226.3141080000205,b,1.0,0.3653236999525688,,,,,sub-107,2,stroop_test,60.23733508415545,
,,,,49.0,1.0,4.0,,,,,,,,,,,,,blau,blue,b,1.0,b,1.0,0.4034450000035576,,,,,,,,,,4.0,1.0,49.0,6.0,226.3287864999729,,,,,,,,,,,,,,,,,226.31464180001055,227.12881819996983,227.92811380000785,227.9128682999872,,,,,,,,,,,,,,,,,,,,,,,,,,,,,,,,,,,227.9140802000184,227.92811380000785,227.92811380000785,228.34563910000725,b,1.0,0.4034450000035576,,,,,sub-107,2,stroop_test,60.23733508415545,
,,,,50.0,2.0,4.0,,,,,,,,,,,,,blau,red,r,0.0,r,1.0,0.4844594000023789,,,,,,,,,,4.0,2.0,50.0,4.0,228.36024599999652,,,,,,,,,,,,,,,,,228.3461998999701,229.55944350000937,230.3587633999996,230.3436056000064,,,,,,,,,,,,,,,,,,,,,,,,,,,,,,,,,,,230.34467069996757,230.3587633999996,230.3587633999996,230.85960969998268,r,1.0,0.4844594000023789,,,,,sub-107,2,stroop_test,60.23733508415545,
,,,,51.0,3.0,4.0,,,,,,,,,,,,,gelb,yellow,g,1.0,g,1.0,0.3732815000112168,,,,,,,,,,4.0,3.0,51.0,11.0,230.87448759999825,,,,,,,,,,,,,,,,,230.86012700002172,232.07420339999956,232.88942020002287,232.87357719999272,,,,,,,,,,,,,,,,,,,,,,,,,,,,,,,,,,,232.8783980999724,232.88942020002287,232.88942020002287,233.27347880002344,g,1.0,0.3732815000112168,,,,,sub-107,2,stroop_test,60.23733508415545,
,,,,52.0,4.0,4.0,,,,,,,,,,,,,rot,yellow,g,0.0,g,1.0,0.5142311999807134,,,,,,,,,,4.0,4.0,52.0,3.0,233.288824999996,,,,,,,,,,,,,,,,,233.27383199997712,234.4883790999884,235.29142610001145,235.27267229999416,,,,,,,,,,,,,,,,,,,,,,,,,,,,,,,,,,,235.2822700999677,235.29142610001145,235.29142610001145,235.82338090002304,g,1.0,0.5142311999807134,,,,,sub-107,2,stroop_test,60.23733508415545,
,,,,53.0,5.0,4.0,,,,,,,,,,,,,rot,blue,b,0.0,r,0.0,0.5976624999893829,,,,,,,,,,4.0,5.0,53.0,2.0,235.83696519996735,,,,,,,,,,,,,,,,,235.8244806000148,236.18693760002495,236.98563459998692,236.97101300000213,,,,,,,,,,,,,,,,,,,,,,,,,,,,,,,,,,,236.9719702000148,236.98563459998692,236.98563459998692,237.58712729997933,r,0.0,0.5976624999893829,,,,,sub-107,2,stroop_test,60.23733508415545,
,,,,54.0,6.0,4.0,,,,,,,,,,,,,blau,yellow,g,0.0,g,1.0,0.53877729998203,,,,,,,,,,4.0,6.0,54.0,7.0,237.6016678999877,,,,,,,,,,,,,,,,,237.58775639999655,237.9516578000039,238.75392789999023,238.73605549999047,,,,,,,,,,,,,,,,,,,,,,,,,,,,,,,,,,,238.74483029998373,238.75392789999023,238.75392789999023,239.3013194000232,g,1.0,0.53877729998203,,,,,sub-107,2,stroop_test,60.23733508415545,
,,,,55.0,7.0,4.0,,,,,,,,,,,,,gelb,red,r,0.0,b,0.0,1.259708400000818,,,,,,,,,,4.0,7.0,55.0,8.0,239.31663660000777,,,,,,,,,,,,,,,,,239.3016475000186,239.4167919000029,240.22096499998588,240.20121490000747,,,,,,,,,,,,,,,,,,,,,,,,,,,,,,,,,,,240.21048820001303,240.22096499998588,240.22096499998588,241.48472750000656,b,0.0,1.259708400000818,,,,,sub-107,2,stroop_test,60.23733508415545,
,,,,56.0,8.0,4.0,,,,,,,,,,,,,gelb,yellow,g,1.0,g,1.0,0.6663194000138901,,,,,,,,,,4.0,8.0,56.0,10.0,241.49822519999,,,,,,,,,,,,,,,,,241.485539300018,242.6971037000185,243.496800599969,243.4817792000249,,,,,,,,,,,,,,,,,,,,,,,,,,,,,,,,,,,243.4833480999805,243.496800599969,243.496800599969,244.16590780002295,g,1.0,0.6663194000138901,,,,,sub-107,2,stroop_test,60.23733508415545,
,,,,57.0,9.0,4.0,,,,,,,,,,,,,gelb,blue,b,0.0,b,1.0,1.6416271000052802,,,,,,,,,,4.0,9.0,57.0,9.0,244.17902039998444,,,,,,,,,,,,,,,,,244.1667010000092,244.2792330000084,245.0785986999981,245.0629930999712,,,,,,,,,,,,,,,,,,,,,,,,,,,,,,,,,,,245.0641293000081,245.0785986999981,245.0785986999981,246.7294080000138,b,1.0,1.6416271000052802,,,,,sub-107,2,stroop_test,60.23733508415545,
,,,,58.0,10.0,4.0,,,,,,,,,,,,,rot,red,r,1.0,r,1.0,1.097670100047253,,,,,,,,,,4.0,10.0,58.0,1.0,246.74334210000237,,,,,,,,,,,,,,,,,246.73025799996685,247.0930864000111,247.90861539996692,247.89280149998376,,,,,,,,,,,,,,,,,,,,,,,,,,,,,,,,,,,247.89735330000985,247.90861539996692,247.90861539996692,249.0109140999848,r,1.0,1.097670100047253,,,,,sub-107,2,stroop_test,60.23733508415545,
,,,,59.0,11.0,4.0,,,,,,,,,,,,,rot,red,r,1.0,r,1.0,0.3821588999708183,,,,,,,,,,4.0,11.0,59.0,0.0,249.02456360001813,,,,,,,,,,,,,,,,,249.0117199000088,250.2237206000136,251.03910739999264,251.02343010000183,,,,,,,,,,,,,,,,,,,,,,,,,,,,,,,,,,,251.02410869998857,251.03910739999264,251.03910739999264,251.4256013999693,r,1.0,0.3821588999708183,,,,,sub-107,2,stroop_test,60.23733508415545,
,,,,60.0,0.0,5.0,,,,,,,,,,,,,rot,blue,b,0.0,b,1.0,0.4760094999801367,,,,,,,,,,5.0,0.0,60.0,2.0,251.43927699996857,,,,,,,,,,,,,,,,,251.4265069999965,251.78895580000244,252.58818159997463,252.5732633000007,,,,,,,,,,,,,,,,,,,,,,,,,,,,,,,,,,,252.5744697999908,252.58818159997463,252.58818159997463,253.07385179999983,b,1.0,0.4760094999801367,,,,,sub-107,2,stroop_test,60.23733508415545,
,,,,61.0,1.0,5.0,,,,,,,,,,,,,gelb,blue,b,0.0,b,1.0,0.4261760999797843,,,,,,,,,,5.0,1.0,61.0,9.0,253.0875895000063,,,,,,,,,,,,,,,,,253.0748555000173,254.2863219999708,255.08681339997565,255.07048459997168,,,,,,,,,,,,,,,,,,,,,,,,,,,,,,,,,,,255.07853669999167,255.08681339997565,255.08681339997565,255.52100299997252,b,1.0,0.4261760999797843,,,,,sub-107,2,stroop_test,60.23733508415545,
,,,,62.0,2.0,5.0,,,,,,,,,,,,,blau,blue,b,1.0,b,1.0,0.4330517000053078,,,,,,,,,,5.0,2.0,62.0,6.0,255.53519949998008,,,,,,,,,,,,,,,,,255.5218080999912,256.3343802000163,257.1349001000053,257.11834879999515,,,,,,,,,,,,,,,,,,,,,,,,,,,,,,,,,,,257.1265529000084,257.1349001000053,257.1349001000053,257.58530119998613,b,1.0,0.4330517000053078,,,,,sub-107,2,stroop_test,60.23733508415545,
,,,,63.0,3.0,5.0,,,,,,,,,,,,,blau,blue,b,1.0,b,1.0,0.3817838999675587,,,,,,,,,,5.0,3.0,63.0,5.0,257.5998013999779,,,,,,,,,,,,,,,,,257.5860367999994,258.799182799994,259.59858440002427,259.5835164000164,,,,,,,,,,,,,,,,,,,,,,,,,,,,,,,,,,,259.58513919997495,259.59858440002427,259.59858440002427,259.98478050000267,b,1.0,0.3817838999675587,,,,,sub-107,2,stroop_test,60.23733508415545,
,,,,64.0,4.0,5.0,,,,,,,,,,,,,blau,red,r,0.0,r,1.0,0.9751084999879822,,,,,,,,,,5.0,4.0,64.0,4.0,259.9981383999693,,,,,,,,,,,,,,,,,259.9858408999862,260.79721220000647,261.5964072999777,261.5811569999787,,,,,,,,,,,,,,,,,,,,,,,,,,,,,,,,,,,261.58239150000736,261.5964072999777,261.5964072999777,262.5820039999671,r,1.0,0.9751084999879822,,,,,sub-107,2,stroop_test,60.23733508415545,
,,,,65.0,5.0,5.0,,,,,,,,,,,,,rot,red,r,1.0,r,1.0,0.4552033999934792,,,,,,,,,,5.0,5.0,65.0,0.0,262.59559540002374,,,,,,,,,,,,,,,,,262.5830031000078,262.6953784999787,263.50103970000055,263.4793694000109,,,,,,,,,,,,,,,,,,,,,,,,,,,,,,,,,,,263.491362700006,263.50103970000055,263.50103970000055,263.9631406000117,r,1.0,0.4552033999934792,,,,,sub-107,2,stroop_test,60.23733508415545,
,,,,66.0,6.0,5.0,,,,,,,,,,,,,gelb,yellow,g,1.0,g,1.0,0.5686433000373654,,,,,,,,,,5.0,6.0,66.0,10.0,263.9771782999742,,,,,,,,,,,,,,,,,263.9639554999885,264.0773543000105,264.8833854999976,264.8619056000025,,,,,,,,,,,,,,,,,,,,,,,,,,,,,,,,,,,264.8725902999868,264.8833854999976,264.8833854999976,265.46308299998054,g,1.0,0.5686433000373654,,,,,sub-107,2,stroop_test,60.23733508415545,
,,,,67.0,7.0,5.0,,,,,,,,,,,,,gelb,red,r,0.0,b,0.0,0.6801757999928668,,,,,,,,,,5.0,7.0,67.0,8.0,265.4759942999808,,,,,,,,,,,,,,,,,265.4641635000007,265.8257992999861,266.6249253000133,266.60978990001604,,,,,,,,,,,,,,,,,,,,,,,,,,,,,,,,,,,266.6110479999916,266.6249253000133,266.6249253000133,267.31068210001104,b,0.0,0.6801757999928668,,,,,sub-107,2,stroop_test,60.23733508415545,
,,,,68.0,8.0,5.0,,,,,,,,,,,,,gelb,yellow,g,1.0,g,1.0,0.5486741999629885,,,,,,,,,,5.0,8.0,68.0,11.0,267.3243485999992,,,,,,,,,,,,,,,,,267.3115957999835,268.52352709998377,269.3386846000212,269.32277799997246,,,,,,,,,,,,,,,,,,,,,,,,,,,,,,,,,,,269.32342430000426,269.3386846000212,269.3386846000212,269.8912092000246,g,1.0,0.5486741999629885,,,,,sub-107,2,stroop_test,60.23733508415545,
,,,,69.0,9.0,5.0,,,,,,,,,,,,,rot,red,r,1.0,r,1.0,0.5133476000046358,,,,,,,,,,5.0,9.0,69.0,1.0,269.9051069999696,,,,,,,,,,,,,,,,,269.8920694999979,270.7043330000015,271.5052411999786,271.4884027999942,,,,,,,,,,,,,,,,,,,,,,,,,,,,,,,,,,,271.49632179999026,271.5052411999786,271.5052411999786,272.0211132999975,r,1.0,0.5133476000046358,,,,,sub-107,2,stroop_test,60.23733508415545,
,,,,70.0,10.0,5.0,,,,,,,,,,,,,blau,yellow,g,0.0,g,1.0,1.2458104000543244,,,,,,,,,,5.0,10.0,70.0,7.0,272.0360971000045,,,,,,,,,,,,,,,,,272.0216473999899,272.3862323000212,273.19429660000606,273.1706972999964,,,,,,,,,,,,,,,,,,,,,,,,,,,,,,,,,,,273.1858860999928,273.19429660000606,273.19429660000606,274.4541043000063,g,1.0,1.2458104000543244,,,,,sub-107,2,stroop_test,60.23733508415545,
,,,,71.0,11.0,5.0,,,,,,,,,,,,,rot,yellow,g,0.0,r,0.0,0.8388809000025503,,,,,,,,,,5.0,11.0,71.0,3.0,274.4678409000044,,,,,,,,,,,,,,,,,274.45499940001173,274.81748809997225,275.6261265000212,275.6017301999964,,,,,,,,,,,,,,,,,,,,,,,,,,,,,,,,,,,275.61527140002,275.6261265000212,275.6261265000212,276.4692638000124,r,0.0,0.8388809000025503,,,,,sub-107,2,stroop_test,60.23733508415545,
,,,,72.0,0.0,6.0,,,,,,,,,,,,,gelb,yellow,g,1.0,g,1.0,0.3994841999956406,,,,,,,,,,6.0,0.0,72.0,10.0,276.4827426999691,,,,,,,,,,,,,,,,,276.470324599999,276.83229089999804,277.64028280001367,277.6165344999754,,,,,,,,,,,,,,,,,,,,,,,,,,,,,,,,,,,277.62917209998704,277.64028280001367,277.64028280001367,278.05058659997303,g,1.0,0.3994841999956406,,,,,sub-107,2,stroop_test,60.23733508415545,
,,,,73.0,1.0,6.0,,,,,,,,,,,,,blau,blue,b,1.0,b,1.0,0.3719707999844104,,,,,,,,,,6.0,1.0,73.0,6.0,278.0641351999948,,,,,,,,,,,,,,,,,278.0515145999961,278.86369919998106,279.6656278999872,279.6476465999731,,,,,,,,,,,,,,,,,,,,,,,,,,,,,,,,,,,279.65641080000205,279.6656278999872,279.6656278999872,280.04852170002414,b,1.0,0.3719707999844104,,,,,sub-107,2,stroop_test,60.23733508415545,
,,,,74.0,2.0,6.0,,,,,,,,,,,,,rot,yellow,g,0.0,g,1.0,0.4800765999825671,,,,,,,,,,6.0,2.0,74.0,3.0,280.06239739997545,,,,,,,,,,,,,,,,,280.0494552999735,280.1623365000123,280.9689815000165,280.94663879997097,,,,,,,,,,,,,,,,,,,,,,,,,,,,,,,,,,,280.9593928999966,280.9689815000165,280.9689815000165,281.4634386000107,g,1.0,0.4800765999825671,,,,,sub-107,2,stroop_test,60.23733508415545,
,,,,75.0,3.0,6.0,,,,,,,,,,,,,gelb,yellow,g,1.0,g,1.0,0.3744836999685503,,,,,,,,,,6.0,3.0,75.0,11.0,281.4774713999941,,,,,,,,,,,,,,,,,281.4642340000137,281.8270029000123,282.6281063000206,282.611170499993,,,,,,,,,,,,,,,,,,,,,,,,,,,,,,,,,,,282.6193919000216,282.6281063000206,282.6281063000206,283.01207719999366,g,1.0,0.3744836999685503,,,,,sub-107,2,stroop_test,60.23733508415545,
,,,,76.0,4.0,6.0,,,,,,,,,,,,,gelb,red,r,0.0,r,1.0,0.4021550000179559,,,,,,,,,,6.0,4.0,76.0,8.0,283.02611029997934,,,,,,,,,,,,,,,,,283.0129472999833,283.37571059999755,284.17507870000554,284.1597579999943,,,,,,,,,,,,,,,,,,,,,,,,,,,,,,,,,,,284.16084999998566,284.17507870000554,284.17507870000554,284.5940290999715,r,1.0,0.4021550000179559,,,,,sub-107,2,stroop_test,60.23733508415545,
,,,,77.0,5.0,6.0,,,,,,,,,,,,,blau,red,r,0.0,r,1.0,0.4439636999741196,,,,,,,,,,6.0,5.0,77.0,4.0,284.6081311000162,,,,,,,,,,,,,,,,,284.5948337999871,284.95792120002443,285.773326799972,285.7587210999918,,,,,,,,,,,,,,,,,,,,,,,,,,,,,,,,,,,285.7668442999711,285.773326799972,285.773326799972,286.2261490999954,r,1.0,0.4439636999741196,,,,,sub-107,2,stroop_test,60.23733508415545,
,,,,78.0,6.0,6.0,,,,,,,,,,,,,blau,blue,b,1.0,b,1.0,0.3828087000292726,,,,,,,,,,6.0,6.0,78.0,5.0,286.2401146999909,,,,,,,,,,,,,,,,,286.2270453000092,287.4386734999716,288.23827390000224,288.2229307999951,,,,,,,,,,,,,,,,,,,,,,,,,,,,,,,,,,,288.2241968999733,288.23827390000224,288.23827390000224,288.6239997000084,b,1.0,0.3828087000292726,,,,,sub-107,2,stroop_test,60.23733508415545,
,,,,79.0,7.0,6.0,,,,,,,,,,,,,rot,red,r,1.0,r,1.0,0.5250903000123799,,,,,,,,,,6.0,7.0,79.0,0.0,288.63755460001994,,,,,,,,,,,,,,,,,288.6248077999917,289.8366844999837,290.652046400006,290.63628400000744,,,,,,,,,,,,,,,,,,,,,,,,,,,,,,,,,,,290.6428623999818,290.652046400006,290.652046400006,291.18644820002373,r,1.0,0.5250903000123799,,,,,sub-107,2,stroop_test,60.23733508415545,
,,,,80.0,8.0,6.0,,,,,,,,,,,,,blau,yellow,g,0.0,g,1.0,0.5018948999932036,,,,,,,,,,6.0,8.0,80.0,7.0,291.2014370000106,,,,,,,,,,,,,,,,,291.1869252999895,292.4003740000189,293.2001487999805,293.1845333999954,,,,,,,,,,,,,,,,,,,,,,,,,,,,,,,,,,,293.1909488000092,293.2001487999805,293.2001487999805,293.71816200000467,g,1.0,0.5018948999932036,,,,,sub-107,2,stroop_test,60.23733508415545,
,,,,81.0,9.0,6.0,,,,,,,,,,,,,rot,red,r,1.0,r,1.0,0.4469130000215955,,,,,,,,,,6.0,9.0,81.0,1.0,293.73284369998146,,,,,,,,,,,,,,,,,293.7187920999713,293.8330435000244,294.6422953999718,294.61774730001343,,,,,,,,,,,,,,,,,,,,,,,,,,,,,,,,,,,294.63175749999937,294.6422953999718,294.6422953999718,295.1011744000134,r,1.0,0.4469130000215955,,,,,sub-107,2,stroop_test,60.23733508415545,
,,,,82.0,10.0,6.0,,,,,,,,,,,,,gelb,blue,b,0.0,b,1.0,0.440134400036186,,,,,,,,,,6.0,10.0,82.0,9.0,295.11488419998204,,,,,,,,,,,,,,,,,295.1021588000003,295.91378270002315,296.7167432999704,296.6980928999837,,,,,,,,,,,,,,,,,,,,,,,,,,,,,,,,,,,296.70595839997986,296.7167432999704,296.7167432999704,297.1652103000088,b,1.0,0.440134400036186,,,,,sub-107,2,stroop_test,60.23733508415545,
,,,,83.0,11.0,6.0,,,,,,,,,,,,,rot,blue,b,0.0,b,1.0,0.3985968000488356,,,,,,,,,,6.0,11.0,83.0,2.0,297.1795992999687,,,,,,,,,,,,,,,,,297.16598489996977,297.5297765000141,298.3522279000026,298.3307839999907,,,,,,,,,,,,,,,,,,,,,,,,,,,,,,,,,,,298.3412770999712,298.3522279000026,298.3522279000026,298.7642620999832,b,1.0,0.3985968000488356,,,,,sub-107,2,stroop_test,60.23733508415545,
,,,,84.0,0.0,7.0,,,,,,,,,,,,,gelb,blue,b,0.0,b,1.0,0.3968612999888137,,,,,,,,,,7.0,0.0,84.0,9.0,298.77821399999084,,,,,,,,,,,,,,,,,298.7650549000245,299.1277440999984,299.92979269998614,299.9118701000116,,,,,,,,,,,,,,,,,,,,,,,,,,,,,,,,,,,299.9207369000069,299.92979269998614,299.92979269998614,300.32830679998733,b,1.0,0.3968612999888137,,,,,sub-107,2,stroop_test,60.23733508415545,
,,,,85.0,1.0,7.0,,,,,,,,,,,,,gelb,red,r,0.0,r,1.0,0.3987808999954723,,,,,,,,,,7.0,1.0,85.0,8.0,300.3429585999693,,,,,,,,,,,,,,,,,300.32880249997834,301.14247299998533,301.94202239997685,301.9267656999873,,,,,,,,,,,,,,,,,,,,,,,,,,,,,,,,,,,301.9278644999722,301.94202239997685,301.94202239997685,302.344472799974,r,1.0,0.3987808999954723,,,,,sub-107,2,stroop_test,60.23733508415545,
,,,,86.0,2.0,7.0,,,,,,,,,,,,,blau,blue,b,1.0,b,1.0,0.5023390999995172,,,,,,,,,,7.0,2.0,86.0,6.0,302.35803469998064,,,,,,,,,,,,,,,,,302.34527499997057,302.45810430002166,303.2597858000081,303.2423612999846,,,,,,,,,,,,,,,,,,,,,,,,,,,,,,,,,,,303.2514364999952,303.2597858000081,303.2597858000081,303.77702460001456,b,1.0,0.5023390999995172,,,,,sub-107,2,stroop_test,60.23733508415545,
,,,,87.0,3.0,7.0,,,,,,,,,,,,,blau,blue,b,1.0,b,1.0,0.4043536999961361,,,,,,,,,,7.0,3.0,87.0,5.0,303.79019460000563,,,,,,,,,,,,,,,,,303.7780713000102,303.8898518999922,304.6892761000199,304.67428959999233,,,,,,,,,,,,,,,,,,,,,,,,,,,,,,,,,,,304.67546960001346,304.6892761000199,304.6892761000199,305.10817700001644,b,1.0,0.4043536999961361,,,,,sub-107,2,stroop_test,60.23733508415545,
,,,,88.0,4.0,7.0,,,,,,,,,,,,,gelb,yellow,g,1.0,g,1.0,0.4940172999631613,,,,,,,,,,7.0,4.0,88.0,10.0,305.1222645000089,,,,,,,,,,,,,,,,,305.1089808999677,305.4717795000179,306.2724470999674,306.2556826000218,,,,,,,,,,,,,,,,,,,,,,,,,,,,,,,,,,,306.26411290001124,306.2724470999674,306.2724470999674,306.77349170000525,g,1.0,0.4940172999631613,,,,,sub-107,2,stroop_test,60.23733508415545,
,,,,89.0,5.0,7.0,,,,,,,,,,,,,rot,red,r,1.0,r,1.0,0.4676743000163696,,,,,,,,,,7.0,5.0,89.0,1.0,306.7872230000212,,,,,,,,,,,,,,,,,306.7743156999932,306.8873694000067,307.68705850001425,307.6710650000023,,,,,,,,,,,,,,,,,,,,,,,,,,,,,,,,,,,307.67885939998087,307.68705850001425,307.68705850001425,308.1705170000205,r,1.0,0.4676743000163696,,,,,sub-107,2,stroop_test,60.23733508415545,
,,,,90.0,6.0,7.0,,,,,,,,,,,,,rot,yellow,g,0.0,g,1.0,0.75732519995654,,,,,,,,,,7.0,6.0,90.0,3.0,308.1855205000029,,,,,,,,,,,,,,,,,308.1709993999684,309.3845296999789,310.1845776999835,310.1695605000132,,,,,,,,,,,,,,,,,,,,,,,,,,,,,,,,,,,310.17099810001673,310.1845776999835,310.1845776999835,310.9530925999861,g,1.0,0.75732519995654,,,,,sub-107,2,stroop_test,60.23733508415545,
,,,,91.0,7.0,7.0,,,,,,,,,,,,,gelb,yellow,g,1.0,g,1.0,0.4174553999910131,,,,,,,,,,7.0,7.0,91.0,11.0,310.9668578999699,,,,,,,,,,,,,,,,,310.95400759996846,311.31659319996834,312.1190342999762,312.1007409999729,,,,,,,,,,,,,,,,,,,,,,,,,,,,,,,,,,,312.10978830000386,312.1190342999762,312.1190342999762,312.5517437999952,g,1.0,0.4174553999910131,,,,,sub-107,2,stroop_test,60.23733508415545,
,,,,92.0,8.0,7.0,,,,,,,,,,,,,blau,red,r,0.0,r,1.0,1.7604373000212945,,,,,,,,,,7.0,8.0,92.0,4.0,312.56515759998,,,,,,,,,,,,,,,,,312.55268149997573,313.7641911000246,314.56743579998147,314.5480174999684,,,,,,,,,,,,,,,,,,,,,,,,,,,,,,,,,,,314.55904670001473,314.56743579998147,314.56743579998147,316.3325436000014,r,1.0,1.7604373000212945,,,,,sub-107,2,stroop_test,60.23733508415545,
,,,,93.0,9.0,7.0,,,,,,,,,,,,,rot,red,r,1.0,r,1.0,0.5086534000001848,,,,,,,,,,7.0,9.0,93.0,0.0,316.34536719997413,,,,,,,,,,,,,,,,,316.3336327999714,317.5438119000173,318.3427813000162,318.3270675999811,,,,,,,,,,,,,,,,,,,,,,,,,,,,,,,,,,,318.33250249997946,318.3427813000162,318.3427813000162,318.86004629998934,r,1.0,0.5086534000001848,,,,,sub-107,2,stroop_test,60.23733508415545,
,,,,94.0,10.0,7.0,,,,,,,,,,,,,blau,yellow,g,0.0,g,1.0,1.514162499981467,,,,,,,,,,7.0,10.0,94.0,7.0,318.8754823000054,,,,,,,,,,,,,,,,,318.8603998000035,318.97550359996967,319.7748618000187,319.7586927000084,,,,,,,,,,,,,,,,,,,,,,,,,,,,,,,,,,,319.7616328999866,319.7748618000187,319.7748618000187,321.29181760002393,g,1.0,1.514162499981467,,,,,sub-107,2,stroop_test,60.23733508415545,
,,,,95.0,11.0,7.0,,,,,,,,,,,,,rot,blue,b,0.0,b,1.0,0.6874690999975428,,,,,,,,,,7.0,11.0,95.0,2.0,321.3066514999955,,,,,,,,,,,,,,,,,321.29232850001426,321.65625270002056,322.455594900006,322.4396682999796,,,,,,,,,,,,,,,,,,,,,,,,,,,,,,,,,,,322.44326169998385,322.455594900006,322.455594900006,323.15813439997146,b,1.0,0.6874690999975428,,,,,sub-107,2,stroop_test,60.23733508415545,
,,,,96.0,0.0,8.0,,,,,,,,,,,,,gelb,yellow,g,1.0,g,1.0,0.4374813000322319,,,,,,,,,,8.0,0.0,96.0,11.0,323.17206319997786,,,,,,,,,,,,,,,,,323.1589474999928,323.9715409000055,324.7778557999991,324.7558403000003,,,,,,,,,,,,,,,,,,,,,,,,,,,,,,,,,,,324.77066310000373,324.7778557999991,324.7778557999991,325.22251250001136,g,1.0,0.4374813000322319,,,,,sub-107,2,stroop_test,60.23733508415545,
,,,,97.0,1.0,8.0,,,,,,,,,,,,,blau,blue,b,1.0,b,1.0,0.7893457000027411,,,,,,,,,,8.0,1.0,97.0,5.0,325.2366233000066,,,,,,,,,,,,,,,,,325.22331640002085,325.3366471999907,326.1372650999692,326.1202623000136,,,,,,,,,,,,,,,,,,,,,,,,,,,,,,,,,,,326.1270790999988,326.1372650999692,326.1372650999692,326.9362096000113,b,1.0,0.7893457000027411,,,,,sub-107,2,stroop_test,60.23733508415545,
,,,,98.0,2.0,8.0,,,,,,,,,,,,,rot,red,r,1.0,r,1.0,0.4412056000437587,,,,,,,,,,8.0,2.0,98.0,1.0,326.95135879999725,,,,,,,,,,,,,,,,,326.93671019998146,327.75065369997174,328.5498917999794,328.5337909000227,,,,,,,,,,,,,,,,,,,,,,,,,,,,,,,,,,,328.53765800001565,328.5498917999794,328.5498917999794,329.0005568999913,r,1.0,0.4412056000437587,,,,,sub-107,2,stroop_test,60.23733508415545,
,,,,99.0,3.0,8.0,,,,,,,,,,,,,gelb,blue,b,0.0,b,1.0,1.4740138999768533,,,,,,,,,,8.0,3.0,99.0,9.0,329.01601740001934,,,,,,,,,,,,,,,,,329.0009192000143,330.2152221999713,331.0144408000051,330.9985715000076,,,,,,,,,,,,,,,,,,,,,,,,,,,,,,,,,,,331.0049121999764,331.0144408000051,331.0144408000051,332.49838260002434,b,1.0,1.4740138999768533,,,,,sub-107,2,stroop_test,60.23733508415545,
,,,,100.0,4.0,8.0,,,,,,,,,,,,,rot,blue,b,0.0,r,0.0,0.6895727000082843,,,,,,,,,,8.0,4.0,100.0,2.0,332.51324310002383,,,,,,,,,,,,,,,,,332.49897999997484,332.86308759998064,333.6724777999916,333.6476418999955,,,,,,,,,,,,,,,,,,,,,,,,,,,,,,,,,,,333.658168199996,333.6724777999916,333.6724777999916,334.3648416000069,r,0.0,0.6895727000082843,,,,,sub-107,2,stroop_test,60.23733508415545,
,,,,101.0,5.0,8.0,,,,,,,,,,,,,blau,blue,b,1.0,b,1.0,0.5028800999862142,,,,,,,,,,8.0,5.0,101.0,6.0,334.37829530000454,,,,,,,,,,,,,,,,,334.3657020999817,335.17733709997265,335.9769899999956,335.96153839997714,,,,,,,,,,,,,,,,,,,,,,,,,,,,,,,,,,,335.9690109000076,335.9769899999956,335.9769899999956,336.4957282000105,b,1.0,0.5028800999862142,,,,,sub-107,2,stroop_test,60.23733508415545,
,,,,102.0,6.0,8.0,,,,,,,,,,,,,gelb,yellow,g,1.0,g,1.0,0.8058078000321984,,,,,,,,,,8.0,6.0,102.0,10.0,336.5096728000208,,,,,,,,,,,,,,,,,336.4965109999757,337.30901540000923,338.11629239999456,338.093295699975,,,,,,,,,,,,,,,,,,,,,,,,,,,,,,,,,,,338.1039172000019,338.11629239999456,338.11629239999456,338.926898900012,g,1.0,0.8058078000321984,,,,,sub-107,2,stroop_test,60.23733508415545,
,,,,103.0,7.0,8.0,,,,,,,,,,,,,rot,yellow,g,0.0,g,1.0,1.4654227999853902,,,,,,,,,,8.0,7.0,103.0,3.0,338.941713600012,,,,,,,,,,,,,,,,,338.9278166000149,339.2905386000057,340.10942400002386,340.0909334999742,,,,,,,,,,,,,,,,,,,,,,,,,,,,,,,,,,,340.09959399997024,340.10942400002386,340.10942400002386,341.5915843999828,g,1.0,1.4654227999853902,,,,,sub-107,2,stroop_test,60.23733508415545,
,,,,104.0,8.0,8.0,,,,,,,,,,,,,blau,yellow,g,0.0,g,1.0,0.4403631999739446,,,,,,,,,,8.0,8.0,104.0,7.0,341.60508960002335,,,,,,,,,,,,,,,,,341.5926202000119,341.9546026000171,342.7700359000009,342.754429499968,,,,,,,,,,,,,,,,,,,,,,,,,,,,,,,,,,,342.76027779997094,342.7700359000009,342.7700359000009,343.2230156000005,g,1.0,0.4403631999739446,,,,,sub-107,2,stroop_test,60.23733508415545,
,,,,105.0,9.0,8.0,,,,,,,,,,,,,rot,red,r,1.0,r,1.0,0.4716677999822423,,,,,,,,,,8.0,9.0,105.0,0.0,343.2366715000244,,,,,,,,,,,,,,,,,343.22394479997456,343.5860324000241,344.3850561999716,344.3692891999963,,,,,,,,,,,,,,,,,,,,,,,,,,,,,,,,,,,344.3747108000098,344.3850561999716,344.3850561999716,344.87076479999814,r,1.0,0.4716677999822423,,,,,sub-107,2,stroop_test,60.23733508415545,
,,,,106.0,10.0,8.0,,,,,,,,,,,,,blau,red,r,0.0,r,1.0,0.7032673000358045,,,,,,,,,,8.0,10.0,106.0,4.0,344.8851682000095,,,,,,,,,,,,,,,,,344.87160179996863,346.0838899000082,346.8830280000111,346.8671175999916,,,,,,,,,,,,,,,,,,,,,,,,,,,,,,,,,,,346.8717252999777,346.8830280000111,346.8830280000111,347.6015088999993,r,1.0,0.7032673000358045,,,,,sub-107,2,stroop_test,60.23733508415545,
,,,,107.0,11.0,8.0,,,,,,,,,,,,,gelb,red,r,0.0,r,1.0,0.4129249000106938,,,,,,,,,,8.0,11.0,107.0,8.0,347.6157238999731,,,,,,,,,,,,,,,,,347.60232150001684,348.81446849997155,349.61513749998994,349.5986586000072,,,,,,,,,,,,,,,,,,,,,,,,,,,,,,,,,,,349.60665049997624,349.61513749998994,349.61513749998994,350.03287880000426,r,1.0,0.4129249000106938,,,,,sub-107,2,stroop_test,60.23733508415545,
,,,,108.0,0.0,9.0,,,,,,,,,,,,,gelb,blue,b,0.0,b,1.0,0.4978411999763921,,,,,,,,,,9.0,0.0,108.0,9.0,350.0470158000244,,,,,,,,,,,,,,,,,350.03371029999107,350.8462622999796,351.6456605999847,351.630050799984,,,,,,,,,,,,,,,,,,,,,,,,,,,,,,,,,,,351.63110689999303,351.6456605999847,351.6456605999847,352.14752349996706,b,1.0,0.4978411999763921,,,,,sub-107,2,stroop_test,60.23733508415545,
,,,,109.0,1.0,9.0,,,,,,,,,,,,,blau,red,r,0.0,r,1.0,0.6866961999912746,,,,,,,,,,9.0,1.0,109.0,4.0,352.1616987999878,,,,,,,,,,,,,,,,,352.1483424999751,352.96124109998345,353.7800003999728,353.7616465999745,,,,,,,,,,,,,,,,,,,,,,,,,,,,,,,,,,,353.7709915000014,353.7800003999728,353.7800003999728,354.47800860001007,r,1.0,0.6866961999912746,,,,,sub-107,2,stroop_test,60.23733508415545,
,,,,110.0,2.0,9.0,,,,,,,,,,,,,rot,red,r,1.0,r,1.0,0.4133026000345126,,,,,,,,,,9.0,2.0,110.0,0.0,354.4927211999893,,,,,,,,,,,,,,,,,354.4786738000112,354.8424496999942,355.64444990002085,355.62670620001154,,,,,,,,,,,,,,,,,,,,,,,,,,,,,,,,,,,355.63519270002143,355.64444990002085,355.64444990002085,356.05898969998816,r,1.0,0.4133026000345126,,,,,sub-107,2,stroop_test,60.23733508415545,
,,,,111.0,3.0,9.0,,,,,,,,,,,,,blau,yellow,g,0.0,g,1.0,0.6007539000129327,,,,,,,,,,9.0,3.0,111.0,7.0,356.0741252999869,,,,,,,,,,,,,,,,,356.0592600000091,356.8736902999808,357.6744157000212,357.657864000008,,,,,,,,,,,,,,,,,,,,,,,,,,,,,,,,,,,357.66554999997607,357.6744157000212,357.6744157000212,358.2915377999889,g,1.0,0.6007539000129327,,,,,sub-107,2,stroop_test,60.23733508415545,
,,,,112.0,4.0,9.0,,,,,,,,,,,,,gelb,yellow,g,1.0,g,1.0,0.3959503999794833,,,,,,,,,,9.0,4.0,112.0,10.0,358.30567390000215,,,,,,,,,,,,,,,,,358.29235539998626,358.40553320001345,359.21002800000133,359.18981700000586,,,,,,,,,,,,,,,,,,,,,,,,,,,,,,,,,,,359.2013369000051,359.21002800000133,359.21002800000133,359.6236067999853,g,1.0,0.3959503999794833,,,,,sub-107,2,stroop_test,60.23733508415545,
,,,,113.0,5.0,9.0,,,,,,,,,,,,,rot,yellow,g,0.0,g,1.0,0.3272575999726541,,,,,,,,,,9.0,5.0,113.0,3.0,359.6377153000212,,,,,,,,,,,,,,,,,359.6243974000099,359.7379065999994,360.5434620999731,360.52246710000327,,,,,,,,,,,,,,,,,,,,,,,,,,,,,,,,,,,360.5330038000248,360.5434620999731,360.5434620999731,360.8746679999749,g,1.0,0.3272575999726541,,,,,sub-107,2,stroop_test,60.23733508415545,
,,,,114.0,6.0,9.0,,,,,,,,,,,,,gelb,red,r,0.0,r,1.0,0.4320791999925859,,,,,,,,,,9.0,6.0,114.0,8.0,360.886426299985,,,,,,,,,,,,,,,,,360.8761960999691,360.9865372999921,361.8023400999955,361.7863452999736,,,,,,,,,,,,,,,,,,,,,,,,,,,,,,,,,,,361.79108399996767,361.8023400999955,361.8023400999955,362.2382813000004,r,1.0,0.4320791999925859,,,,,sub-107,2,stroop_test,60.23733508415545,
,,,,115.0,7.0,9.0,,,,,,,,,,,,,rot,blue,b,0.0,b,1.0,0.3541444999864325,,,,,,,,,,9.0,7.0,115.0,2.0,362.2522528999834,,,,,,,,,,,,,,,,,362.23907279997366,363.0513054999756,363.8503177000093,363.8346868000226,,,,,,,,,,,,,,,,,,,,,,,,,,,,,,,,,,,363.8402479999932,363.8503177000093,363.8503177000093,364.2196483999724,b,1.0,0.3541444999864325,,,,,sub-107,2,stroop_test,60.23733508415545,
,,,,116.0,8.0,9.0,,,,,,,,,,,,,rot,red,r,1.0,r,1.0,0.4079649000195786,,,,,,,,,,9.0,8.0,116.0,1.0,364.2336262000026,,,,,,,,,,,,,,,,,364.22047499998007,365.43261119996896,366.23185899999226,366.2164817000157,,,,,,,,,,,,,,,,,,,,,,,,,,,,,,,,,,,366.21757859998615,366.23185899999226,366.23185899999226,366.6503879000084,r,1.0,0.4079649000195786,,,,,sub-107,2,stroop_test,60.23733508415545,
,,,,117.0,9.0,9.0,,,,,,,,,,,,,blau,blue,b,1.0,g,0.0,0.4998914999887347,,,,,,,,,,9.0,9.0,117.0,6.0,366.6644968999899,,,,,,,,,,,,,,,,,366.65117859997554,367.4639795999974,368.264633600018,368.24835639999947,,,,,,,,,,,,,,,,,,,,,,,,,,,,,,,,,,,368.2564078000141,368.264633600018,368.264633600018,368.7822190999868,g,0.0,0.4998914999887347,,,,,sub-107,2,stroop_test,60.23733508415545,
,,,,118.0,10.0,9.0,,,,,,,,,,,,,gelb,yellow,g,1.0,g,1.0,0.5195977999828756,,,,,,,,,,9.0,10.0,118.0,11.0,368.7961923999828,,,,,,,,,,,,,,,,,368.78306609997526,369.5953576000175,370.3957272999687,370.3791178999818,,,,,,,,,,,,,,,,,,,,,,,,,,,,,,,,,,,370.3872662999784,370.3957272999687,370.3957272999687,370.9296561999945,g,1.0,0.5195977999828756,,,,,sub-107,2,stroop_test,60.23733508415545,
,,,,119.0,11.0,9.0,,,,,,,,,,,,,blau,blue,b,1.0,b,1.0,0.5374161999789067,,,,,,,,,,9.0,11.0,119.0,5.0,370.9438811999862,,,,,,,,,,,,,,,,,370.93044799997006,371.0439873000141,371.8507654999849,371.82824599999,,,,,,,,,,,,,,,,,,,,,,,,,,,,,,,,,,,371.84007490001386,371.8507654999849,371.8507654999849,372.3935382000054,b,1.0,0.5374161999789067,,,,,sub-107,2,stroop_test,60.23733508415545,
,,,,,,,,,,,,,,,,,,,,,,,,,,,,,,,,,,,,,,,,,,,,,,,,,,,,,,,,,,,,,,,,,,,,,,,,,,,,,,,,,,,,,,,,,,,,,,,,,,,,,,372.3937777000247,372.4090006999904,377.4047926000203,sub-107,2,stroop_test,60.23733508415545,
