direction,corrAns,randomInstr,practice_trials.thisRepN,practice_trials.thisTrialN,practice_trials.thisN,practice_trials.thisIndex,instr_trials.thisRepN,instr_trials.thisTrialN,instr_trials.thisN,instr_trials.thisIndex,test_trials.thisRepN,test_trials.thisTrialN,test_trials.thisN,test_trials.thisIndex,thisRow.t,notes,general_instruction.started,textGeneralInstr.started,respGeneralInstr.started,general_instruction.stopped,respGeneralInstr.keys,respGeneralInstr.rt,respGeneralInstr.duration,ITI.started,fixcross.started,fixcross.stopped,ITI.stopped,dots.started,backgroundDots.started,stimulusDots.started,respDots.started,stimulusDots.stopped,dots.stopped,respDots.keys,respDots.corr,respDots.rt,respDots.duration,feedback.started,textFeedback.started,textFeedback.stopped,feedback.stopped,info.started,textInfo.started,keyRespInfo.started,info.stopped,keyRespInfo.keys,keyRespInfo.rt,keyRespInfo.duration,test_instruction.started,textTestInstr.started,respTestInstr.started,test_instruction.stopped,respTestInstr.keys,respTestInstr.rt,respTestInstr.duration,random_instruction.started,textRandomInstr.started,respRandomInstr.started,random_instruction.stopped,respRandomInstr.keys,respRandomInstr.rt,respRandomInstr.duration,goodbye.started,textGoodbye.started,textGoodbye.stopped,goodbye.stopped,participant,session,date,expName,psychopyVersion,frameRate,expStart
,,,,,,,,,,,,,,,,,0.0159172,0.0204788,0.0204788,42.2110799,space,64.2038369,None,,,,,,,,,,,,,,,,,,,,,,,,,,,,,,,,,,,,,,,,,,,,sub-038,1,2025-03-12_05h19.15.111,random_dot,03.02.2023,59.72688095,2025-03-12 05h19.30.633393 +0100
left,left,,0,0,0,0,,,,,,,,,42.2747949,,,,,,,,,42.2698638,42.326396,43.127117,43.1103448,43.1103634,43.127117,43.127117,43.127117,48.1098107,53.9783565,left,1,32.8640637,None,53.9789962,53.9923957,54.4921811,54.4766441,,,,,,,,,,,,,,,,,,,,,,,,,,sub-038,1,2025-03-12_05h19.15.111,random_dot,03.02.2023,59.72688095,2025-03-12 05h19.30.633393 +0100
right,right,,0,1,1,1,,,,,,,,,54.4921811,,,,,,,,,54.4773408,55.2921216,56.092741,56.0763522,56.0763727,56.092741,56.092741,56.092741,61.0761415,61.2288897,left,0,27.1409728,None,61.2298437,61.241724,61.742069,61.7264339,,,,,,,,,,,,,,,,,,,,,,,,,,sub-038,1,2025-03-12_05h19.15.111,random_dot,03.02.2023,59.72688095,2025-03-12 05h19.30.633393 +0100
right,right,,1,0,2,1,,,,,,,,,61.742069,,,,,,,,,61.726861,61.8418466,62.6422207,62.6263349,62.62636,62.6422207,62.6422207,62.6422207,,67.4769819,left,0,26.8468529,None,67.4773496,67.4916959,67.9915437,67.9758733,,,,,,,,,,,,,,,,,,,,,,,,,,sub-038,1,2025-03-12_05h19.15.111,random_dot,03.02.2023,59.72688095,2025-03-12 05h19.30.633393 +0100
left,left,,1,1,3,0,,,,,,,,,67.9915437,,,,,,,,,67.9763994,68.3415313,69.1425472,69.1260416,69.1260622,69.1425472,69.1425472,69.1425472,,71.9113622,right,0,24.7757021,None,71.9119596,71.9250429,72.4248508,72.4093608,,,,,,,,,,,,,,,,,,,,,,,,,,sub-038,1,2025-03-12_05h19.15.111,random_dot,03.02.2023,59.72688095,2025-03-12 05h19.30.633393 +0100
right,right,,2,0,4,1,,,,,,,,,72.4248508,,,,,,,,,72.4098894,73.6250442,74.4253143,74.4091055,74.4091344,74.4253143,74.4253143,74.4253143,,77.7791987,left,0,25.3709919,None,77.7796817,77.7911661,78.2911987,78.2758189,,,,,,,,,,,,,,,,,,,,,,,,,,sub-038,1,2025-03-12_05h19.15.111,random_dot,03.02.2023,59.72688095,2025-03-12 05h19.30.633393 +0100
left,left,,2,1,5,0,,,,,,,,,78.2911987,,,,,,,,,78.2763665,78.6408864,79.4417418,79.4254722,79.4255133,79.4417418,79.4417418,79.4417418,,81.3103804,right,0,23.8878698,None,81.3109092,81.3244715,81.8243266,81.8090297,,,,,,,,,,,,,,,,,,,,,,,,,,sub-038,1,2025-03-12_05h19.15.111,random_dot,03.02.2023,59.72688095,2025-03-12 05h19.30.633393 +0100
left,left,,3,0,6,0,,,,,,,,,81.8243266,,,,,,,,,81.8096093,82.6242642,83.4252819,83.4085806,83.4086069,83.4252819,83.4252819,83.4252819,88.4083908,88.7594055,left,1,27.3415314,None,88.7598862,88.7738385,89.2738453,89.2587805,,,,,,,,,,,,,,,,,,,,,,,,,,sub-038,1,2025-03-12_05h19.15.111,random_dot,03.02.2023,59.72688095,2025-03-12 05h19.30.633393 +0100
right,right,,3,1,7,1,,,,,,,,,89.2738453,,,,,,,,,89.2591637,90.0740071,90.8746404,90.8584781,90.8585043,90.8746404,90.8746404,90.8746404,,94.0591238,left,0,25.1915637,None,94.0595764,94.0737186,94.5735664,94.5579437,,,,,,,,,,,,,,,,,,,,,,,,,,sub-038,1,2025-03-12_05h19.15.111,random_dot,03.02.2023,59.72688095,2025-03-12 05h19.30.633393 +0100
left,left,,4,0,8,0,,,,,,,,,94.5735664,,,,,,,,,94.5585484,95.7734906,96.5740257,96.5578029,96.5578269,96.5740257,96.5740257,96.5740257,,98.4093336,left,1,23.8471686,None,98.4097131,98.4234802,98.9234301,98.9073658,,,,,,,,,,,,,,,,,,,,,,,,,,sub-038,1,2025-03-12_05h19.15.111,random_dot,03.02.2023,59.72688095,2025-03-12 05h19.30.633393 +0100
right,right,,4,1,9,1,,,,,,,,,98.9234301,,,,,,,,,98.9078409,99.0235687,99.824117,99.8077304,99.8077518,99.824117,99.824117,99.824117,,103.6921181,left,0,25.8747582,None,103.6927847,103.7064122,104.2068389,104.1906004,,,,,,,,,,,,,,,,,,,,,,,,,,sub-038,1,2025-03-12_05h19.15.111,random_dot,03.02.2023,59.72688095,2025-03-12 05h19.30.633393 +0100
left,left,,5,0,10,0,,,,,,,,,104.2068389,,,,,,,,,104.1909391,104.3064927,105.1072904,105.0905426,105.0905603,105.1072904,105.1072904,105.1072904,,106.6918303,left,1,23.5894296,None,106.692379,106.7062685,107.2062759,107.1914002,,,,,,,,,,,,,,,,,,,,,,,,,,sub-038,1,2025-03-12_05h19.15.111,random_dot,03.02.2023,59.72688095,2025-03-12 05h19.30.633393 +0100
right,right,,5,1,11,1,,,,,,,,,107.2062759,,,,,,,,,107.1918619,107.306311,108.1069227,108.0906861,108.0907115,108.1069227,108.1069227,108.1069227,,110.4255111,right,1,24.3243142,None,110.4261413,110.4391108,110.9395427,110.9239922,,,,,,,,,,,,,,,,,,,,,,,,,,sub-038,1,2025-03-12_05h19.15.111,random_dot,03.02.2023,59.72688095,2025-03-12 05h19.30.633393 +0100
right,right,,6,0,12,1,,,,,,,,,110.9395427,,,,,,,,,110.9246215,111.7393936,112.5397923,112.5238384,112.5238733,112.5397923,112.5397923,112.5397923,,114.7090534,right,1,24.1884291,None,114.7099126,114.7224519,115.2226286,115.2068451,,,,,,,,,,,,,,,,,,,,,,,,,,sub-038,1,2025-03-12_05h19.15.111,random_dot,03.02.2023,59.72688095,2025-03-12 05h19.30.633393 +0100
left,left,,6,1,13,0,,,,,,,,,115.2226286,,,,,,,,,115.2073347,116.4223754,117.223519,117.2072928,117.2073766,117.223519,117.223519,117.223519,,118.9917639,right,0,23.7815515,None,118.9923008,119.0061772,119.5057092,119.4905094,,,,,,,,,,,,,,,,,,,,,,,,,,sub-038,1,2025-03-12_05h19.15.111,random_dot,03.02.2023,59.72688095,2025-03-12 05h19.30.633393 +0100
left,left,,7,0,14,0,,,,,,,,,119.5057092,,,,,,,,,119.4912063,120.705482,121.5065478,121.4908362,121.490862,121.5065478,121.5065478,121.5065478,,123.6093896,right,0,24.120446,None,123.6097972,123.622188,124.1219291,124.106228,,,,,,,,,,,,,,,,,,,,,,,,,,sub-038,1,2025-03-12_05h19.15.111,random_dot,03.02.2023,59.72688095,2025-03-12 05h19.30.633393 +0100
right,right,,7,1,15,1,,,,,,,,,124.1219291,,,,,,,,,124.1066052,124.4722503,125.272997,125.2565645,125.2565812,125.272997,125.272997,125.272997,,126.7908982,left,0,23.5366792,None,126.7914279,126.8052356,127.3053147,127.2898601,,,,,,,,,,,,,,,,,,,,,,,,,,sub-038,1,2025-03-12_05h19.15.111,random_dot,03.02.2023,59.72688095,2025-03-12 05h19.30.633393 +0100
left,left,,8,0,16,0,,,,,,,,,127.3053147,,,,,,,,,127.2902713,127.6553206,128.4561805,128.4397877,128.4398132,128.4561805,128.4561805,128.4561805,,130.4904319,left,1,24.046984,None,130.4907964,130.5050432,131.0050521,130.9894567,,,,,,,,,,,,,,,,,,,,,,,,,,sub-038,1,2025-03-12_05h19.15.111,random_dot,03.02.2023,59.72688095,2025-03-12 05h19.30.633393 +0100
right,right,,8,1,17,1,,,,,,,,,131.0050521,,,,,,,,,130.9898323,131.3549702,132.155783,132.139213,132.1392385,132.155783,132.155783,132.155783,,133.9405918,left,0,23.8008622,None,133.941262,133.9548464,134.4552055,134.4392687,,,,,,,,,,,,,,,,,,,,,,,,,,sub-038,1,2025-03-12_05h19.15.111,random_dot,03.02.2023,59.72688095,2025-03-12 05h19.30.633393 +0100
right,right,,9,0,18,1,,,,,,,,,134.4552055,,,,,,,,,134.4396638,134.5549767,135.3554698,135.3390216,135.339041,135.3554698,135.3554698,135.3554698,,137.1066676,right,1,23.7640624,None,137.1071023,137.1216775,137.6214303,137.6056252,,,,,,,,,,,,,,,,,,,,,,,,,,sub-038,1,2025-03-12_05h19.15.111,random_dot,03.02.2023,59.72688095,2025-03-12 05h19.30.633393 +0100
left,left,,9,1,19,0,,,,,,,,,137.6214303,,,,,,,,,137.6060076,138.8214242,139.6221705,139.605707,139.6057318,139.6221705,139.6221705,139.6221705,,142.1753304,left,1,24.5721073,None,142.175688,142.1879006,142.6879831,142.6720804,,,,,,,,,,,,,,,,,,,,,,,,,,sub-038,1,2025-03-12_05h19.15.111,random_dot,03.02.2023,59.72688095,2025-03-12 05h19.30.633393 +0100
,,,,,,,,,,,,,,,,,,,,,,,,,,,,,,,,,,,,,,,,,,142.6721279,142.6879831,142.6879831,148.6390033,space,27.9626594,None,,,,,,,,,,,,,,,,,,,sub-038,1,2025-03-12_05h19.15.111,random_dot,03.02.2023,59.72688095,2025-03-12 05h19.30.633393 +0100
,,,,,,,,,,,,,,,,,,,,,,,,,,,,,,,,,,,,,,,,,,,,,,,,,148.639031,148.6544731,148.6544731,157.6548554,space,31.0183018,None,,,,,,,,,,,,sub-038,1,2025-03-12_05h19.15.111,random_dot,03.02.2023,59.72688095,2025-03-12 05h19.30.633393 +0100
right,right,accuracy,,,,,0,0,0,0,0,0,0,1,162.3371292,,,,,,,,,162.3279955,162.6867688,163.4874239,163.4712441,163.4712678,163.4874239,163.4874239,163.4874239,,166.855441,right,1,25.3738064,None,,,,,,,,,,,,,,,,,,,157.6593992,157.684472,157.684472,162.3215438,space,26.6435745,None,,,,,sub-038,1,2025-03-12_05h19.15.111,random_dot,03.02.2023,59.72688095,2025-03-12 05h19.30.633393 +0100
left,left,accuracy,,,,,0,0,0,0,0,1,1,0,166.8697883,,,,,,,,,166.856583,167.6698378,168.4703393,168.453775,168.4538009,168.4703393,168.4703393,168.4703393,173.4535452,174.3555292,right,0,27.9039003,None,,,,,,,,,,,,,,,,,,,,,,,,,,,,,,sub-038,1,2025-03-12_05h19.15.111,random_dot,03.02.2023,59.72688095,2025-03-12 05h19.30.633393 +0100
right,right,accuracy,,,,,0,0,0,0,1,0,2,1,174.3695434,,,,,,,,,174.3566883,175.5693794,176.369828,176.3536723,176.3536976,176.369828,176.369828,176.369828,,180.1716231,left,0,25.8098188,None,,,,,,,,,,,,,,,,,,,,,,,,,,,,,,sub-038,1,2025-03-12_05h19.15.111,random_dot,03.02.2023,59.72688095,2025-03-12 05h19.30.633393 +0100
left,left,accuracy,,,,,0,0,0,0,1,1,3,0,180.1856812,,,,,,,,,180.1726574,180.9861217,181.7865875,181.7701436,181.7701667,181.7865875,181.7865875,181.7865875,,185.5713811,right,0,25.7900843,None,,,,,,,,,,,,,,,,,,,,,,,,,,,,,,sub-038,1,2025-03-12_05h19.15.111,random_dot,03.02.2023,59.72688095,2025-03-12 05h19.30.633393 +0100
left,left,accuracy,,,,,0,0,0,0,2,0,4,0,185.5856852,,,,,,,,,185.5723304,185.6857398,186.4863834,186.4698358,186.4698611,186.4863834,186.4863834,186.4863834,,189.3381136,right,0,24.8650147,None,,,,,,,,,,,,,,,,,,,,,,,,,,,,,,sub-038,1,2025-03-12_05h19.15.111,random_dot,03.02.2023,59.72688095,2025-03-12 05h19.30.633393 +0100
right,right,accuracy,,,,,0,0,0,0,2,1,5,1,189.3523073,,,,,,,,,189.3388913,189.4524177,190.2531552,190.2373755,190.2374174,190.2531552,190.2531552,190.2531552,,193.1713177,right,1,24.9329572,None,,,,,,,,,,,,,,,,,,,,,,,,,,,,,,sub-038,1,2025-03-12_05h19.15.111,random_dot,03.02.2023,59.72688095,2025-03-12 05h19.30.633393 +0100
left,left,accuracy,,,,,0,0,0,0,3,0,6,0,193.1854466,,,,,,,,,193.172444,193.985347,194.7858944,194.7692884,194.7693104,194.7858944,194.7858944,194.7858944,,197.8720851,right,0,25.1022023,None,,,,,,,,,,,,,,,,,,,,,,,,,,,,,,sub-038,1,2025-03-12_05h19.15.111,random_dot,03.02.2023,59.72688095,2025-03-12 05h19.30.633393 +0100
right,right,accuracy,,,,,0,0,0,0,3,1,7,1,197.8850552,,,,,,,,,197.8732255,199.0847761,199.8854564,199.8692379,199.8692621,199.8854564,199.8854564,199.8854564,,202.2869321,left,0,24.4073131,None,,,,,,,,,,,,,,,,,,,,,,,,,,,,,,sub-038,1,2025-03-12_05h19.15.111,random_dot,03.02.2023,59.72688095,2025-03-12 05h19.30.633393 +0100
right,right,accuracy,,,,,0,0,0,0,4,0,8,1,202.3016796,,,,,,,,,202.2876356,203.1015113,203.902181,203.8857495,203.8857683,203.902181,203.902181,203.902181,,207.2535621,right,1,25.357656,None,,,,,,,,,,,,,,,,,,,,,,,,,,,,,,sub-038,1,2025-03-12_05h19.15.111,random_dot,03.02.2023,59.72688095,2025-03-12 05h19.30.633393 +0100
left,left,accuracy,,,,,0,0,0,0,4,1,9,0,207.2676274,,,,,,,,,207.2542629,208.4678739,209.2687292,209.2521865,209.2522101,209.2687292,209.2687292,209.2687292,,213.8878468,left,1,26.6376782,None,,,,,,,,,,,,,,,,,,,,,,,,,,,,,,sub-038,1,2025-03-12_05h19.15.111,random_dot,03.02.2023,59.72688095,2025-03-12 05h19.30.633393 +0100
right,right,accuracy,,,,,0,0,0,0,5,0,10,1,213.9010272,,,,,,,,,213.8886064,215.1006857,215.9010857,215.8847736,215.8847962,215.9010857,215.9010857,215.9010857,,220.2022676,right,1,26.3120863,None,,,,,,,,,,,,,,,,,,,,,,,,,,,,,,sub-038,1,2025-03-12_05h19.15.111,random_dot,03.02.2023,59.72688095,2025-03-12 05h19.30.633393 +0100
left,left,accuracy,,,,,0,0,0,0,5,1,11,0,220.2174694,,,,,,,,,220.2032388,221.017501,221.8180667,221.8021885,221.802217,221.8180667,221.8180667,221.8180667,,225.9190439,left,1,26.1080786,None,,,,,,,,,,,,,,,,,,,,,,,,,,,,,,sub-038,1,2025-03-12_05h19.15.111,random_dot,03.02.2023,59.72688095,2025-03-12 05h19.30.633393 +0100
left,left,accuracy,,,,,0,0,0,0,6,0,12,0,225.9337864,,,,,,,,,225.9197258,226.7335498,227.5340614,227.51797,227.5179951,227.5340614,227.5340614,227.5340614,,231.3699005,right,0,25.8554909,None,,,,,,,,,,,,,,,,,,,,,,,,,,,,,,sub-038,1,2025-03-12_05h19.15.111,random_dot,03.02.2023,59.72688095,2025-03-12 05h19.30.633393 +0100
right,right,accuracy,,,,,0,0,0,0,6,1,13,1,231.3830704,,,,,,,,,231.3708486,231.4831765,232.2839034,232.2675467,232.2675902,232.2839034,232.2839034,232.2839034,,234.8023159,right,1,24.5291196,None,,,,,,,,,,,,,,,,,,,,,,,,,,,,,,sub-038,1,2025-03-12_05h19.15.111,random_dot,03.02.2023,59.72688095,2025-03-12 05h19.30.633393 +0100
left,left,accuracy,,,,,0,0,0,0,7,0,14,0,234.8164003,,,,,,,,,234.8030088,234.9165003,235.7169727,235.7006995,235.7007192,235.7169727,235.7169727,235.7169727,240.7004904,240.7027672,left,1,27.0050312,None,,,,,,,,,,,,,,,,,,,,,,,,,,,,,,sub-038,1,2025-03-12_05h19.15.111,random_dot,03.02.2023,59.72688095,2025-03-12 05h19.30.633393 +0100
right,right,accuracy,,,,,0,0,0,0,7,1,15,1,240.7160383,,,,,,,,,240.7035579,240.816114,241.6171782,241.6006393,241.6006827,241.6171782,241.6171782,241.6171782,,246.3189774,left,0,26.7182493,None,,,,,,,,,,,,,,,,,,,,,,,,,,,,,,sub-038,1,2025-03-12_05h19.15.111,random_dot,03.02.2023,59.72688095,2025-03-12 05h19.30.633393 +0100
right,right,accuracy,,,,,0,0,0,0,8,0,16,1,246.3326099,,,,,,,,,246.3202406,246.4326497,247.2334209,247.2168037,247.2168472,247.2334209,247.2334209,247.2334209,,251.6841076,right,1,26.4648717,None,,,,,,,,,,,,,,,,,,,,,,,,,,,,,,sub-038,1,2025-03-12_05h19.15.111,random_dot,03.02.2023,59.72688095,2025-03-12 05h19.30.633393 +0100
left,left,accuracy,,,,,0,0,0,0,8,1,17,0,251.699062,,,,,,,,,251.6849957,252.4990443,253.2997419,253.2832751,253.2833056,253.2997419,253.2997419,253.2997419,,257.9178055,left,1,26.6334952,None,,,,,,,,,,,,,,,,,,,,,,,,,,,,,,sub-038,1,2025-03-12_05h19.15.111,random_dot,03.02.2023,59.72688095,2025-03-12 05h19.30.633393 +0100
left,left,accuracy,,,,,0,0,0,0,9,0,18,0,257.9320258,,,,,,,,,257.9188467,258.0323718,258.8326438,258.8163408,258.8163764,258.8326438,258.8326438,258.8326438,,261.1168707,right,0,24.2982503,None,,,,,,,,,,,,,,,,,,,,,,,,,,,,,,sub-038,1,2025-03-12_05h19.15.111,random_dot,03.02.2023,59.72688095,2025-03-12 05h19.30.633393 +0100
right,right,accuracy,,,,,0,0,0,0,9,1,19,1,261.1324366,,,,,,,,,261.1176277,262.3318555,263.1321254,263.1159702,263.115989,263.1321254,263.1321254,263.1321254,,267.9012768,right,1,26.7748307,None,,,,,,,,,,,,,,,,,,,,,,,,,,,,,,sub-038,1,2025-03-12_05h19.15.111,random_dot,03.02.2023,59.72688095,2025-03-12 05h19.30.633393 +0100
left,left,accuracy,,,,,0,0,0,0,10,0,20,0,267.9148007,,,,,,,,,267.9029805,268.2650947,269.0651631,269.0492181,269.0492442,269.0651631,269.0651631,269.0651631,,273.0166853,left,1,25.9705567,None,,,,,,,,,,,,,,,,,,,,,,,,,,,,,,sub-038,1,2025-03-12_05h19.15.111,random_dot,03.02.2023,59.72688095,2025-03-12 05h19.30.633393 +0100
right,right,accuracy,,,,,0,0,0,0,10,1,21,1,273.0314571,,,,,,,,,273.0176322,273.8313601,274.6320735,274.6160092,274.616034,274.6320735,274.6320735,274.6320735,,278.7338471,left,0,26.1214976,None,,,,,,,,,,,,,,,,,,,,,,,,,,,,,,sub-038,1,2025-03-12_05h19.15.111,random_dot,03.02.2023,59.72688095,2025-03-12 05h19.30.633393 +0100
right,right,accuracy,,,,,0,0,0,0,11,0,22,1,278.7475201,,,,,,,,,278.7345336,279.9475879,280.7479059,280.7314075,280.7314289,280.7479059,280.7479059,280.7479059,,285.5828521,right,1,26.8413921,None,,,,,,,,,,,,,,,,,,,,,,,,,,,,,,sub-038,1,2025-03-12_05h19.15.111,random_dot,03.02.2023,59.72688095,2025-03-12 05h19.30.633393 +0100
left,left,accuracy,,,,,0,0,0,0,11,1,23,0,285.5972884,,,,,,,,,285.5835835,286.3973073,287.1975927,287.1814037,287.1814269,287.1975927,287.1975927,287.1975927,,291.5985124,left,1,26.411351,None,,,,,,,,,,,,,,,,,,,,,,,,,,,,,,sub-038,1,2025-03-12_05h19.15.111,random_dot,03.02.2023,59.72688095,2025-03-12 05h19.30.633393 +0100
right,right,accuracy,,,,,0,0,0,0,12,0,24,1,291.6135956,,,,,,,,,291.599522,291.9635446,292.7648009,292.7480721,292.7480943,292.7648009,292.7648009,292.7648009,,296.2147993,left,0,25.4547176,None,,,,,,,,,,,,,,,,,,,,,,,,,,,,,,sub-038,1,2025-03-12_05h19.15.111,random_dot,03.02.2023,59.72688095,2025-03-12 05h19.30.633393 +0100
left,left,accuracy,,,,,0,0,0,0,12,1,25,0,296.2297648,,,,,,,,,296.2155318,297.4295753,298.230705,298.2145437,298.2145908,298.230705,298.230705,298.230705,,302.8320839,left,1,26.6156275,None,,,,,,,,,,,,,,,,,,,,,,,,,,,,,,sub-038,1,2025-03-12_05h19.15.111,random_dot,03.02.2023,59.72688095,2025-03-12 05h19.30.633393 +0100
left,left,accuracy,,,,,0,0,0,0,13,0,26,0,302.8461604,,,,,,,,,302.8330838,302.9464329,303.746836,303.7304481,303.7304691,303.746836,303.746836,303.746836,,308.081951,left,1,26.3516511,None,,,,,,,,,,,,,,,,,,,,,,,,,,,,,,sub-038,1,2025-03-12_05h19.15.111,random_dot,03.02.2023,59.72688095,2025-03-12 05h19.30.633393 +0100
right,right,accuracy,,,,,0,0,0,0,13,1,27,1,308.0962055,,,,,,,,,308.0830561,309.2965369,310.0969078,310.0803275,310.0803501,310.0969078,310.0969078,310.0969078,315.0797151,315.3823848,left,0,27.3044929,None,,,,,,,,,,,,,,,,,,,,,,,,,,,,,,sub-038,1,2025-03-12_05h19.15.111,random_dot,03.02.2023,59.72688095,2025-03-12 05h19.30.633393 +0100
left,left,accuracy,,,,,0,0,0,0,14,0,28,0,315.3954699,,,,,,,,,315.3831784,316.1953574,316.9962283,316.9802426,316.9802737,316.9962283,316.9962283,316.9962283,,320.0143185,left,1,25.0282312,None,,,,,,,,,,,,,,,,,,,,,,,,,,,,,,sub-038,1,2025-03-12_05h19.15.111,random_dot,03.02.2023,59.72688095,2025-03-12 05h19.30.633393 +0100
right,right,accuracy,,,,,0,0,0,0,14,1,29,1,320.0288611,,,,,,,,,320.0150066,320.3793068,321.1797834,321.163055,321.16308,321.1797834,321.1797834,321.1797834,,322.6975874,right,1,23.5278591,None,,,,,,,,,,,,,,,,,,,,,,,,,,,,,,sub-038,1,2025-03-12_05h19.15.111,random_dot,03.02.2023,59.72688095,2025-03-12 05h19.30.633393 +0100
left,left,accuracy,,,,,0,0,0,0,15,0,30,0,322.7121621,,,,,,,,,322.6983952,323.9120029,324.7130152,324.6965753,324.6966007,324.7130152,324.7130152,324.7130152,,327.3473217,right,0,24.6455869,None,,,,,,,,,,,,,,,,,,,,,,,,,,,,,,sub-038,1,2025-03-12_05h19.15.111,random_dot,03.02.2023,59.72688095,2025-03-12 05h19.30.633393 +0100
right,right,accuracy,,,,,0,0,0,0,15,1,31,1,327.3614795,,,,,,,,,327.3482663,328.5619471,329.3624512,329.3460581,329.3460829,329.3624512,329.3624512,329.3624512,,333.9147813,right,1,26.5718743,None,,,,,,,,,,,,,,,,,,,,,,,,,,,,,,sub-038,1,2025-03-12_05h19.15.111,random_dot,03.02.2023,59.72688095,2025-03-12 05h19.30.633393 +0100
right,right,accuracy,,,,,0,0,0,0,16,0,32,1,333.9281409,,,,,,,,,333.9155516,334.2777827,335.0789373,335.0623579,335.0624028,335.0789373,335.0789373,335.0789373,,338.6296373,right,1,25.562655,None,,,,,,,,,,,,,,,,,,,,,,,,,,,,,,sub-038,1,2025-03-12_05h19.15.111,random_dot,03.02.2023,59.72688095,2025-03-12 05h19.30.633393 +0100
left,left,accuracy,,,,,0,0,0,0,16,1,33,0,338.6445031,,,,,,,,,338.6303216,339.8443537,340.6449546,340.6289064,340.6289261,340.6449546,340.6449546,340.6449546,,345.1794941,left,1,26.5388283,None,,,,,,,,,,,,,,,,,,,,,,,,,,,,,,sub-038,1,2025-03-12_05h19.15.111,random_dot,03.02.2023,59.72688095,2025-03-12 05h19.30.633393 +0100
left,left,accuracy,,,,,0,0,0,0,17,0,34,0,345.1940471,,,,,,,,,345.1805992,345.2943016,346.0947591,346.0787309,346.0787514,346.0947591,346.0947591,346.0947591,,350.428844,left,1,26.3503406,None,,,,,,,,,,,,,,,,,,,,,,,,,,,,,,sub-038,1,2025-03-12_05h19.15.111,random_dot,03.02.2023,59.72688095,2025-03-12 05h19.30.633393 +0100
right,right,accuracy,,,,,0,0,0,0,17,1,35,1,350.4438542,,,,,,,,,350.430003,350.7935216,351.5943487,351.5781855,351.5782069,351.5943487,351.5943487,351.5943487,,355.1951358,right,1,25.6165628,None,,,,,,,,,,,,,,,,,,,,,,,,,,,,,,sub-038,1,2025-03-12_05h19.15.111,random_dot,03.02.2023,59.72688095,2025-03-12 05h19.30.633393 +0100
right,right,accuracy,,,,,0,0,0,0,18,0,36,1,355.2103103,,,,,,,,,355.1959276,356.4104118,357.2114326,357.1944077,357.1944232,357.2114326,357.2114326,357.2114326,,361.8125262,left,0,26.6144189,None,,,,,,,,,,,,,,,,,,,,,,,,,,,,,,sub-038,1,2025-03-12_05h19.15.111,random_dot,03.02.2023,59.72688095,2025-03-12 05h19.30.633393 +0100
left,left,accuracy,,,,,0,0,0,0,18,1,37,0,361.8268452,,,,,,,,,361.8136352,363.0266823,363.8273154,363.8105283,363.8105533,363.8273154,363.8273154,363.8273154,,368.3629894,left,1,26.539433,None,,,,,,,,,,,,,,,,,,,,,,,,,,,,,,sub-038,1,2025-03-12_05h19.15.111,random_dot,03.02.2023,59.72688095,2025-03-12 05h19.30.633393 +0100
right,right,accuracy,,,,,0,0,0,0,19,0,38,1,368.3763609,,,,,,,,,368.3640394,368.4760759,369.2770083,369.2607585,369.2607851,369.2770083,369.2770083,369.2770083,374.2590978,374.2445164,left,0,26.9785389,None,,,,,,,,,,,,,,,,,,,,,,,,,,,,,,sub-038,1,2025-03-12_05h19.15.111,random_dot,03.02.2023,59.72688095,2025-03-12 05h19.30.633393 +0100
left,left,accuracy,,,,,0,0,0,0,19,1,39,0,374.2590978,,,,,,,,,374.2456469,374.6090869,375.4100261,375.3934397,375.3934563,375.4100261,375.4100261,375.4100261,,378.6452276,right,0,25.2461033,None,,,,,,,,,,,,,,,,,,,,,,,,,,,,,,sub-038,1,2025-03-12_05h19.15.111,random_dot,03.02.2023,59.72688095,2025-03-12 05h19.30.633393 +0100
left,left,accuracy,,,,,0,0,0,0,20,0,40,0,378.6587152,,,,,,,,,378.646031,379.0087399,379.8098353,379.7934756,379.7934971,379.8098353,379.8098353,379.8098353,,383.8110712,left,1,26.0128564,None,,,,,,,,,,,,,,,,,,,,,,,,,,,,,,sub-038,1,2025-03-12_05h19.15.111,random_dot,03.02.2023,59.72688095,2025-03-12 05h19.30.633393 +0100
right,right,accuracy,,,,,0,0,0,0,20,1,41,1,383.8254923,,,,,,,,,383.8121321,383.9253334,384.7260276,384.7098227,384.7098688,384.7260276,384.7260276,384.7260276,,388.3437423,left,0,25.6283002,None,,,,,,,,,,,,,,,,,,,,,,,,,,,,,,sub-038,1,2025-03-12_05h19.15.111,random_dot,03.02.2023,59.72688095,2025-03-12 05h19.30.633393 +0100
right,right,accuracy,,,,,0,0,0,0,21,0,42,1,388.3590187,,,,,,,,,388.3448898,388.4584379,389.2595095,389.2427247,389.2427502,389.2595095,389.2595095,389.2595095,,392.3279187,right,1,25.0851506,None,,,,,,,,,,,,,,,,,,,,,,,,,,,,,,sub-038,1,2025-03-12_05h19.15.111,random_dot,03.02.2023,59.72688095,2025-03-12 05h19.30.633393 +0100
left,left,accuracy,,,,,0,0,0,0,21,1,43,0,392.3422577,,,,,,,,,392.3288999,392.4416028,393.2424073,393.2261629,393.2261931,393.2424073,393.2424073,393.2424073,,396.5105774,left,1,25.2871859,None,,,,,,,,,,,,,,,,,,,,,,,,,,,,,,sub-038,1,2025-03-12_05h19.15.111,random_dot,03.02.2023,59.72688095,2025-03-12 05h19.30.633393 +0100
left,left,accuracy,,,,,0,0,0,0,22,0,44,0,396.5248146,,,,,,,,,396.5116,396.6247464,397.4256415,397.4090683,397.4090964,397.4256415,397.4256415,397.4256415,,401.4430721,left,1,26.0302037,None,,,,,,,,,,,,,,,,,,,,,,,,,,,,,,sub-038,1,2025-03-12_05h19.15.111,random_dot,03.02.2023,59.72688095,2025-03-12 05h19.30.633393 +0100
right,right,accuracy,,,,,0,0,0,0,22,1,45,1,401.4581624,,,,,,,,,401.4438618,402.2577064,403.0586427,403.0417629,403.0418071,403.0586427,403.0586427,403.0586427,408.0419937,408.6766411,left,0,27.6313015,None,,,,,,,,,,,,,,,,,,,,,,,,,,,,,,sub-038,1,2025-03-12_05h19.15.111,random_dot,03.02.2023,59.72688095,2025-03-12 05h19.30.633393 +0100
right,right,accuracy,,,,,0,0,0,0,23,0,46,1,408.6908184,,,,,,,,,408.6777404,409.4909237,410.2915596,410.2757181,410.2757456,410.2915596,410.2915596,410.2915596,,415.0592804,right,1,26.777568,None,,,,,,,,,,,,,,,,,,,,,,,,,,,,,,sub-038,1,2025-03-12_05h19.15.111,random_dot,03.02.2023,59.72688095,2025-03-12 05h19.30.633393 +0100
left,left,accuracy,,,,,0,0,0,0,23,1,47,0,415.0739551,,,,,,,,,415.0601515,415.1739644,415.9751563,415.9578425,415.9578641,415.9751563,415.9751563,415.9751563,,418.7592584,left,1,24.7993995,None,,,,,,,,,,,,,,,,,,,,,,,,,,,,,,sub-038,1,2025-03-12_05h19.15.111,random_dot,03.02.2023,59.72688095,2025-03-12 05h19.30.633393 +0100
left,left,accuracy,,,,,0,0,0,0,24,0,48,0,418.7740331,,,,,,,,,418.7602466,418.8736541,419.6745676,419.6578542,419.6578758,419.6745676,419.6745676,419.6745676,,421.592065,left,1,23.9233263,None,,,,,,,,,,,,,,,,,,,,,,,,,,,,,,sub-038,1,2025-03-12_05h19.15.111,random_dot,03.02.2023,59.72688095,2025-03-12 05h19.30.633393 +0100
right,right,accuracy,,,,,0,0,0,0,24,1,49,1,421.606721,,,,,,,,,421.5927419,421.7070421,422.5076545,422.4912735,422.4912986,422.5076545,422.5076545,422.5076545,,423.9417424,left,0,23.4448447,None,,,,,,,,,,,,,,,,,,,,,,,,,,,,,,sub-038,1,2025-03-12_05h19.15.111,random_dot,03.02.2023,59.72688095,2025-03-12 05h19.30.633393 +0100
right,right,accuracy,,,,,0,0,0,0,25,0,50,1,423.9566314,,,,,,,,,423.9427088,424.3071731,425.1075568,425.0909886,425.0910151,425.1075568,425.1075568,425.1075568,,427.1090253,left,0,24.0128712,None,,,,,,,,,,,,,,,,,,,,,,,,,,,,,,sub-038,1,2025-03-12_05h19.15.111,random_dot,03.02.2023,59.72688095,2025-03-12 05h19.30.633393 +0100
left,left,accuracy,,,,,0,0,0,0,25,1,51,0,427.1233212,,,,,,,,,427.1102156,427.2229874,428.0243361,428.0078649,428.007907,428.0243361,428.0243361,428.0243361,,431.3759048,right,0,25.3703381,None,,,,,,,,,,,,,,,,,,,,,,,,,,,,,,sub-038,1,2025-03-12_05h19.15.111,random_dot,03.02.2023,59.72688095,2025-03-12 05h19.30.633393 +0100
left,left,accuracy,,,,,0,0,0,0,26,0,52,0,431.3899096,,,,,,,,,431.3771462,432.5904562,433.3905695,433.3740039,433.3740248,433.3905695,433.3905695,433.3905695,,435.4753492,left,1,24.091391,None,,,,,,,,,,,,,,,,,,,,,,,,,,,,,,sub-038,1,2025-03-12_05h19.15.111,random_dot,03.02.2023,59.72688095,2025-03-12 05h19.30.633393 +0100
right,right,accuracy,,,,,0,0,0,0,26,1,53,1,435.4894698,,,,,,,,,435.4763566,435.5894118,436.3904573,436.3747086,436.3747373,436.3904573,436.3904573,436.3904573,,437.774659,left,0,23.4009342,None,,,,,,,,,,,,,,,,,,,,,,,,,,,,,,sub-038,1,2025-03-12_05h19.15.111,random_dot,03.02.2023,59.72688095,2025-03-12 05h19.30.633393 +0100
right,right,accuracy,,,,,0,0,0,0,27,0,54,1,437.7894044,,,,,,,,,437.7754956,438.5897331,439.3898278,439.3736583,439.3736906,439.3898278,439.3898278,439.3898278,,441.6586789,right,1,24.2854021,None,,,,,,,,,,,,,,,,,,,,,,,,,,,,,,sub-038,1,2025-03-12_05h19.15.111,random_dot,03.02.2023,59.72688095,2025-03-12 05h19.30.633393 +0100
left,left,accuracy,,,,,0,0,0,0,27,1,55,0,441.672655,,,,,,,,,441.6595806,442.0224566,442.8234907,442.8066982,442.8067757,442.8234907,442.8234907,442.8234907,,445.7744715,right,0,24.9631596,None,,,,,,,,,,,,,,,,,,,,,,,,,,,,,,sub-038,1,2025-03-12_05h19.15.111,random_dot,03.02.2023,59.72688095,2025-03-12 05h19.30.633393 +0100
right,right,accuracy,,,,,0,0,0,0,28,0,56,1,445.7890644,,,,,,,,,445.7752573,446.139239,446.9397591,446.923406,446.9234351,446.9397591,446.9397591,446.9397591,,450.2912391,right,1,25.366198,None,,,,,,,,,,,,,,,,,,,,,,,,,,,,,,sub-038,1,2025-03-12_05h19.15.111,random_dot,03.02.2023,59.72688095,2025-03-12 05h19.30.633393 +0100
left,left,accuracy,,,,,0,0,0,0,28,1,57,0,450.3055038,,,,,,,,,450.2924987,451.1055791,451.9063211,451.889911,451.8899366,451.9063211,451.9063211,451.9063211,,454.5409646,left,1,24.6503921,None,,,,,,,,,,,,,,,,,,,,,,,,,,,,,,sub-038,1,2025-03-12_05h19.15.111,random_dot,03.02.2023,59.72688095,2025-03-12 05h19.30.633393 +0100
left,left,accuracy,,,,,0,0,0,0,29,0,58,0,454.5549616,,,,,,,,,454.542301,455.7551876,456.5560001,456.5395298,456.5395561,456.5560001,456.5560001,456.5560001,,459.74005,left,1,25.1981743,None,,,,,,,,,,,,,,,,,,,,,,,,,,,,,,sub-038,1,2025-03-12_05h19.15.111,random_dot,03.02.2023,59.72688095,2025-03-12 05h19.30.633393 +0100
right,right,accuracy,,,,,0,0,0,0,29,1,59,1,459.7548111,,,,,,,,,459.7410477,460.5548335,461.3553889,461.339487,461.3395085,461.3553889,461.3553889,461.3553889,,466.0245091,left,0,26.6888311,None,,,,,,,,,,,,,,,,,,,,,,,,,,,,,,sub-038,1,2025-03-12_05h19.15.111,random_dot,03.02.2023,59.72688095,2025-03-12 05h19.30.633393 +0100
,,accuracy,,,,,0,0,0,0,,,,,,,,,,,,,,,,,,,,,,,,,,,,,,,,,,,,,,,,,,,,,,,,,,,,,,,,,sub-038,1,2025-03-12_05h19.15.111,random_dot,03.02.2023,59.72688095,2025-03-12 05h19.30.633393 +0100
right,right,speed,,,,,0,1,1,1,0,0,0,1,470.5877366,,,,,,,,,470.5795265,471.387722,472.188672,472.1721457,472.1721781,472.188672,472.188672,472.188672,,474.022757,left,0,23.8498016,None,,,,,,,,,,,,,,,,,,,466.0251368,466.0378565,466.0378565,470.5733057,space,26.5503014,None,,,,,sub-038,1,2025-03-12_05h19.15.111,random_dot,03.02.2023,59.72688095,2025-03-12 05h19.30.633393 +0100
left,left,speed,,,,,0,1,1,1,0,1,1,0,474.0373167,,,,,,,,,474.0242467,474.1375155,474.9384445,474.9217472,474.9217722,474.9384445,474.9384445,474.9384445,,476.8395401,left,1,23.9070431,None,,,,,,,,,,,,,,,,,,,,,,,,,,,,,,sub-038,1,2025-03-12_05h19.15.111,random_dot,03.02.2023,59.72688095,2025-03-12 05h19.30.633393 +0100
right,right,speed,,,,,0,1,1,1,1,0,2,1,476.8540132,,,,,,,,,476.8407293,477.2041494,478.0045697,477.9884245,477.988445,478.0045697,478.0045697,478.0045697,,480.1398643,left,0,24.148701,None,,,,,,,,,,,,,,,,,,,,,,,,,,,,,,sub-038,1,2025-03-12_05h19.15.111,random_dot,03.02.2023,59.72688095,2025-03-12 05h19.30.633393 +0100
left,left,speed,,,,,0,1,1,1,1,1,3,0,480.1540232,,,,,,,,,480.1406442,480.2540968,481.054591,481.0384196,481.0384379,481.054591,481.054591,481.054591,,483.9557149,right,0,24.9183522,None,,,,,,,,,,,,,,,,,,,,,,,,,,,,,,sub-038,1,2025-03-12_05h19.15.111,random_dot,03.02.2023,59.72688095,2025-03-12 05h19.30.633393 +0100
right,right,speed,,,,,0,1,1,1,2,0,4,1,483.97071,,,,,,,,,483.9564078,485.1703529,485.970819,485.9548179,485.9548448,485.970819,485.970819,485.970819,,488.2564262,left,0,24.2970851,None,,,,,,,,,,,,,,,,,,,,,,,,,,,,,,sub-038,1,2025-03-12_05h19.15.111,random_dot,03.02.2023,59.72688095,2025-03-12 05h19.30.633393 +0100
left,left,speed,,,,,0,1,1,1,2,1,5,0,488.2704118,,,,,,,,,488.257204,489.0701827,489.8707577,489.8544156,489.8544602,489.8707577,489.8707577,489.8707577,,491.889023,right,0,24.0252325,None,,,,,,,,,,,,,,,,,,,,,,,,,,,,,,sub-038,1,2025-03-12_05h19.15.111,random_dot,03.02.2023,59.72688095,2025-03-12 05h19.30.633393 +0100
right,right,speed,,,,,0,1,1,1,3,0,6,1,491.9032423,,,,,,,,,491.8903924,493.1032861,493.9041949,493.8877696,493.8877954,493.9041949,493.9041949,493.9041949,,496.321972,right,1,24.4223944,None,,,,,,,,,,,,,,,,,,,,,,,,,,,,,,sub-038,1,2025-03-12_05h19.15.111,random_dot,03.02.2023,59.72688095,2025-03-12 05h19.30.633393 +0100
left,left,speed,,,,,0,1,1,1,3,1,7,0,496.3369702,,,,,,,,,496.322729,496.6863231,497.4872054,497.4705939,497.470612,497.4872054,497.4872054,497.4872054,,499.7385936,left,1,24.25862,None,,,,,,,,,,,,,,,,,,,,,,,,,,,,,,sub-038,1,2025-03-12_05h19.15.111,random_dot,03.02.2023,59.72688095,2025-03-12 05h19.30.633393 +0100
right,right,speed,,,,,0,1,1,1,4,0,8,1,499.7527447,,,,,,,,,499.7398243,500.5529779,501.353469,501.3373384,501.3373629,501.353469,501.353469,501.353469,,503.7054524,left,0,24.3620741,None,,,,,,,,,,,,,,,,,,,,,,,,,,,,,,sub-038,1,2025-03-12_05h19.15.111,random_dot,03.02.2023,59.72688095,2025-03-12 05h19.30.633393 +0100
left,left,speed,,,,,0,1,1,1,4,1,9,0,503.7194504,,,,,,,,,503.7064857,504.9191367,505.7199929,505.7035319,505.7035574,505.7199929,505.7199929,505.7199929,,507.4049661,right,0,23.7039314,None,,,,,,,,,,,,,,,,,,,,,,,,,,,,,,sub-038,1,2025-03-12_05h19.15.111,random_dot,03.02.2023,59.72688095,2025-03-12 05h19.30.633393 +0100
right,right,speed,,,,,0,1,1,1,5,0,10,1,507.4192129,,,,,,,,,507.405967,508.6197408,509.4198802,509.4031227,509.4031427,509.4198802,509.4198802,509.4198802,,511.1389318,left,0,23.7374139,None,,,,,,,,,,,,,,,,,,,,,,,,,,,,,,sub-038,1,2025-03-12_05h19.15.111,random_dot,03.02.2023,59.72688095,2025-03-12 05h19.30.633393 +0100
left,left,speed,,,,,0,1,1,1,5,1,11,0,511.152575,,,,,,,,,511.1399886,512.3528119,513.1528622,513.1362735,513.1362941,513.1528622,513.1528622,513.1528622,,516.0043328,left,1,24.8562753,None,,,,,,,,,,,,,,,,,,,,,,,,,,,,,,sub-038,1,2025-03-12_05h19.15.111,random_dot,03.02.2023,59.72688095,2025-03-12 05h19.30.633393 +0100
left,left,speed,,,,,0,1,1,1,6,0,12,0,516.018854,,,,,,,,,516.0056084,517.2187109,518.0194728,518.0032318,518.0032556,518.0194728,518.0194728,518.0194728,,521.0203988,right,0,25.0178362,None,,,,,,,,,,,,,,,,,,,,,,,,,,,,,,sub-038,1,2025-03-12_05h19.15.111,random_dot,03.02.2023,59.72688095,2025-03-12 05h19.30.633393 +0100
right,right,speed,,,,,0,1,1,1,6,1,13,1,521.0352076,,,,,,,,,521.0213881,521.3850364,522.1857267,522.1694652,522.1694832,522.1857267,522.1857267,522.1857267,,524.9205011,left,0,24.7458408,None,,,,,,,,,,,,,,,,,,,,,,,,,,,,,,sub-038,1,2025-03-12_05h19.15.111,random_dot,03.02.2023,59.72688095,2025-03-12 05h19.30.633393 +0100
right,right,speed,,,,,0,1,1,1,7,0,14,1,524.9349708,,,,,,,,,524.9214572,526.1349589,526.9356792,526.9196366,526.9196852,526.9356792,526.9356792,526.9356792,,529.5869389,left,0,24.6605676,None,,,,,,,,,,,,,,,,,,,,,,,,,,,,,,sub-038,1,2025-03-12_05h19.15.111,random_dot,03.02.2023,59.72688095,2025-03-12 05h19.30.633393 +0100
left,left,speed,,,,,0,1,1,1,7,1,15,0,529.6013431,,,,,,,,,529.5880484,530.4014571,531.2021342,531.1858644,531.185888,531.2021342,531.2021342,531.2021342,,533.6202885,left,1,24.4233036,None,,,,,,,,,,,,,,,,,,,,,,,,,,,,,,sub-038,1,2025-03-12_05h19.15.111,random_dot,03.02.2023,59.72688095,2025-03-12 05h19.30.633393 +0100
left,left,speed,,,,,0,1,1,1,8,0,16,0,533.6342589,,,,,,,,,533.6211703,534.8347822,535.6347631,535.6192437,535.6192712,535.6347631,535.6347631,535.6347631,,537.7695101,right,0,24.1408073,None,,,,,,,,,,,,,,,,,,,,,,,,,,,,,,sub-038,1,2025-03-12_05h19.15.111,random_dot,03.02.2023,59.72688095,2025-03-12 05h19.30.633393 +0100
right,right,speed,,,,,0,1,1,1,8,1,17,1,537.7843916,,,,,,,,,537.7701794,538.1345116,538.9350833,538.9186126,538.9186382,538.9350833,538.9350833,538.9350833,,541.3697116,right,1,24.4389938,None,,,,,,,,,,,,,,,,,,,,,,,,,,,,,,sub-038,1,2025-03-12_05h19.15.111,random_dot,03.02.2023,59.72688095,2025-03-12 05h19.30.633393 +0100
left,left,speed,,,,,0,1,1,1,9,0,18,0,541.3841445,,,,,,,,,541.3709471,541.7342173,542.5349043,542.5183702,542.5184155,542.5349043,542.5349043,542.5349043,,545.2365253,left,1,24.7144362,None,,,,,,,,,,,,,,,,,,,,,,,,,,,,,,sub-038,1,2025-03-12_05h19.15.111,random_dot,03.02.2023,59.72688095,2025-03-12 05h19.30.633393 +0100
right,right,speed,,,,,0,1,1,1,9,1,19,1,545.2506899,,,,,,,,,545.2373951,546.4504973,547.251502,547.235246,547.2352909,547.251502,547.251502,547.251502,,550.3359818,right,1,25.0951073,None,,,,,,,,,,,,,,,,,,,,,,,,,,,,,,sub-038,1,2025-03-12_05h19.15.111,random_dot,03.02.2023,59.72688095,2025-03-12 05h19.30.633393 +0100
right,right,speed,,,,,0,1,1,1,10,0,20,1,550.3504044,,,,,,,,,550.3369934,550.4501412,551.2510241,551.2348673,551.2348849,551.2510241,551.2510241,551.2510241,,553.1686645,right,1,23.9260147,None,,,,,,,,,,,,,,,,,,,,,,,,,,,,,,sub-038,1,2025-03-12_05h19.15.111,random_dot,03.02.2023,59.72688095,2025-03-12 05h19.30.633393 +0100
left,left,speed,,,,,0,1,1,1,10,1,21,0,553.183358,,,,,,,,,553.1697516,553.9835502,554.7841149,554.7678719,554.7679226,554.7841149,554.7841149,554.7841149,,557.2859236,right,0,24.5186868,None,,,,,,,,,,,,,,,,,,,,,,,,,,,,,,sub-038,1,2025-03-12_05h19.15.111,random_dot,03.02.2023,59.72688095,2025-03-12 05h19.30.633393 +0100
right,right,speed,,,,,0,1,1,1,11,0,22,1,557.3000647,,,,,,,,,557.286977,558.5002354,559.3008759,559.2842812,559.2843059,559.3008759,559.3008759,559.3008759,,561.3354644,left,0,24.0514119,None,,,,,,,,,,,,,,,,,,,,,,,,,,,,,,sub-038,1,2025-03-12_05h19.15.111,random_dot,03.02.2023,59.72688095,2025-03-12 05h19.30.633393 +0100
left,left,speed,,,,,0,1,1,1,11,1,23,0,561.349909,,,,,,,,,561.3368524,562.1499554,562.9504768,562.9341334,562.9341574,562.9504768,562.9504768,562.9504768,,564.9359574,right,0,24.0052552,None,,,,,,,,,,,,,,,,,,,,,,,,,,,,,,sub-038,1,2025-03-12_05h19.15.111,random_dot,03.02.2023,59.72688095,2025-03-12 05h19.30.633393 +0100
right,right,speed,,,,,0,1,1,1,12,0,24,1,564.9496996,,,,,,,,,564.9366768,565.299494,566.1002075,566.0837626,566.0837835,566.1002075,566.1002075,566.1002075,,568.7345685,right,1,24.639939,None,,,,,,,,,,,,,,,,,,,,,,,,,,,,,,sub-038,1,2025-03-12_05h19.15.111,random_dot,03.02.2023,59.72688095,2025-03-12 05h19.30.633393 +0100
left,left,speed,,,,,0,1,1,1,12,1,25,0,568.7493595,,,,,,,,,568.7353148,569.549535,570.3502714,570.33438,570.3344728,570.3502714,570.3502714,570.3502714,,573.2010708,right,0,24.8602585,None,,,,,,,,,,,,,,,,,,,,,,,,,,,,,,sub-038,1,2025-03-12_05h19.15.111,random_dot,03.02.2023,59.72688095,2025-03-12 05h19.30.633393 +0100
left,left,speed,,,,,0,1,1,1,13,0,26,0,573.2160294,,,,,,,,,573.2022905,573.3158085,574.1165601,574.0999475,574.099972,574.1165601,574.1165601,574.1165601,,576.6840709,left,1,24.5826201,None,,,,,,,,,,,,,,,,,,,,,,,,,,,,,,sub-038,1,2025-03-12_05h19.15.111,random_dot,03.02.2023,59.72688095,2025-03-12 05h19.30.633393 +0100
right,right,speed,,,,,0,1,1,1,13,1,27,1,576.698844,,,,,,,,,576.6847492,577.8988605,578.6997206,578.6836293,578.6836504,578.6997206,578.6997206,578.6997206,,582.1840581,left,0,25.4928558,None,,,,,,,,,,,,,,,,,,,,,,,,,,,,,,sub-038,1,2025-03-12_05h19.15.111,random_dot,03.02.2023,59.72688095,2025-03-12 05h19.30.633393 +0100
left,left,speed,,,,,0,1,1,1,14,0,28,0,582.1990158,,,,,,,,,582.1847694,582.9986795,583.7996181,583.7829949,583.7830364,583.7996181,583.7996181,583.7996181,,586.7337282,right,0,24.9403925,None,,,,,,,,,,,,,,,,,,,,,,,,,,,,,,sub-038,1,2025-03-12_05h19.15.111,random_dot,03.02.2023,59.72688095,2025-03-12 05h19.30.633393 +0100
right,right,speed,,,,,0,1,1,1,14,1,29,1,586.7485993,,,,,,,,,586.7345091,587.5485634,588.3492061,588.3326593,588.3326843,588.3492061,588.3492061,588.3492061,,592.1005113,right,1,25.7674854,None,,,,,,,,,,,,,,,,,,,,,,,,,,,,,,sub-038,1,2025-03-12_05h19.15.111,random_dot,03.02.2023,59.72688095,2025-03-12 05h19.30.633393 +0100
left,left,speed,,,,,0,1,1,1,15,0,30,0,592.115016,,,,,,,,,592.1016007,593.3150193,594.1158355,594.0991781,594.0992102,594.1158355,594.1158355,594.1158355,,597.6824186,right,0,25.5819612,None,,,,,,,,,,,,,,,,,,,,,,,,,,,,,,sub-038,1,2025-03-12_05h19.15.111,random_dot,03.02.2023,59.72688095,2025-03-12 05h19.30.633393 +0100
right,right,speed,,,,,0,1,1,1,15,1,31,1,597.6976449,,,,,,,,,597.6834997,598.4981676,599.2990505,599.2818673,599.281912,599.2990505,599.2990505,599.2990505,,602.3167284,left,0,25.0252099,None,,,,,,,,,,,,,,,,,,,,,,,,,,,,,,sub-038,1,2025-03-12_05h19.15.111,random_dot,03.02.2023,59.72688095,2025-03-12 05h19.30.633393 +0100
left,left,speed,,,,,0,1,1,1,16,0,32,0,602.3311623,,,,,,,,,602.3176649,602.6811629,603.4818631,603.4656105,603.4656419,603.4818631,603.4818631,603.4818631,,606.4496628,right,0,24.9775079,None,,,,,,,,,,,,,,,,,,,,,,,,,,,,,,sub-038,1,2025-03-12_05h19.15.111,random_dot,03.02.2023,59.72688095,2025-03-12 05h19.30.633393 +0100
right,right,speed,,,,,0,1,1,1,16,1,33,1,606.464238,,,,,,,,,606.4509136,606.5644497,607.3649012,607.3488096,607.348834,607.3649012,607.3649012,607.3649012,,611.0498543,left,0,25.6979277,None,,,,,,,,,,,,,,,,,,,,,,,,,,,,,,sub-038,1,2025-03-12_05h19.15.111,random_dot,03.02.2023,59.72688095,2025-03-12 05h19.30.633393 +0100
left,left,speed,,,,,0,1,1,1,17,0,34,0,611.0637132,,,,,,,,,611.0509624,611.4141521,612.2147954,612.1980742,612.1980988,612.2147954,612.2147954,612.2147954,,615.0995281,left,1,24.889981,None,,,,,,,,,,,,,,,,,,,,,,,,,,,,,,sub-038,1,2025-03-12_05h19.15.111,random_dot,03.02.2023,59.72688095,2025-03-12 05h19.30.633393 +0100
right,right,speed,,,,,0,1,1,1,17,1,35,1,615.1135919,,,,,,,,,615.1006559,616.3138814,617.1138574,617.097688,617.0977134,617.1138574,617.1138574,617.1138574,,618.9822458,right,1,23.8831043,None,,,,,,,,,,,,,,,,,,,,,,,,,,,,,,sub-038,1,2025-03-12_05h19.15.111,random_dot,03.02.2023,59.72688095,2025-03-12 05h19.30.633393 +0100
right,right,speed,,,,,0,1,1,1,18,0,36,1,618.9968168,,,,,,,,,618.9832812,619.3470096,620.1473535,620.130899,620.1309193,620.1473535,620.1473535,620.1473535,,622.5158753,left,0,24.378384,None,,,,,,,,,,,,,,,,,,,,,,,,,,,,,,sub-038,1,2025-03-12_05h19.15.111,random_dot,03.02.2023,59.72688095,2025-03-12 05h19.30.633393 +0100
left,left,speed,,,,,0,1,1,1,18,1,37,0,622.5302189,,,,,,,,,622.5170603,622.8803889,623.6807555,623.6643446,623.6643727,623.6807555,623.6807555,623.6807555,,626.014942,left,1,24.348653,None,,,,,,,,,,,,,,,,,,,,,,,,,,,,,,sub-038,1,2025-03-12_05h19.15.111,random_dot,03.02.2023,59.72688095,2025-03-12 05h19.30.633393 +0100
left,left,speed,,,,,0,1,1,1,19,0,38,0,626.0299733,,,,,,,,,626.0158624,627.2298774,628.0305011,628.0142624,628.0142862,628.0305011,628.0305011,628.0305011,,630.2150156,left,1,24.1949794,None,,,,,,,,,,,,,,,,,,,,,,,,,,,,,,sub-038,1,2025-03-12_05h19.15.111,random_dot,03.02.2023,59.72688095,2025-03-12 05h19.30.633393 +0100
right,right,speed,,,,,0,1,1,1,19,1,39,1,630.2297581,,,,,,,,,630.2163172,630.3295178,631.130145,631.114268,631.1142927,631.130145,631.130145,631.130145,,634.3821652,right,1,25.263973,None,,,,,,,,,,,,,,,,,,,,,,,,,,,,,,sub-038,1,2025-03-12_05h19.15.111,random_dot,03.02.2023,59.72688095,2025-03-12 05h19.30.633393 +0100
left,left,speed,,,,,0,1,1,1,20,0,40,0,634.3962912,,,,,,,,,634.3837997,634.746032,635.5471849,635.5309335,635.5309579,635.5471849,635.5471849,635.5471849,,638.581903,right,0,25.0535061,None,,,,,,,,,,,,,,,,,,,,,,,,,,,,,,sub-038,1,2025-03-12_05h19.15.111,random_dot,03.02.2023,59.72688095,2025-03-12 05h19.30.633393 +0100
right,right,speed,,,,,0,1,1,1,20,1,41,1,638.5961203,,,,,,,,,638.5831842,638.9456913,639.7463397,639.7302637,639.7303086,639.7463397,639.7463397,639.7463397,,642.6646854,right,1,24.9286254,None,,,,,,,,,,,,,,,,,,,,,,,,,,,,,,sub-038,1,2025-03-12_05h19.15.111,random_dot,03.02.2023,59.72688095,2025-03-12 05h19.30.633393 +0100
left,left,speed,,,,,0,1,1,1,21,0,42,0,642.6791027,,,,,,,,,642.6655936,643.8790453,644.6797896,644.6635939,644.663612,644.6797896,644.6797896,644.6797896,,648.0643681,left,1,25.3887629,None,,,,,,,,,,,,,,,,,,,,,,,,,,,,,,sub-038,1,2025-03-12_05h19.15.111,random_dot,03.02.2023,59.72688095,2025-03-12 05h19.30.633393 +0100
right,right,speed,,,,,0,1,1,1,21,1,43,1,648.0788304,,,,,,,,,648.065066,648.8788113,649.6791365,649.6627348,649.662772,649.6791365,649.6791365,649.6791365,,652.7471222,right,1,25.0807505,None,,,,,,,,,,,,,,,,,,,,,,,,,,,,,,sub-038,1,2025-03-12_05h19.15.111,random_dot,03.02.2023,59.72688095,2025-03-12 05h19.30.633393 +0100
left,left,speed,,,,,0,1,1,1,22,0,44,0,652.7617752,,,,,,,,,652.7479127,652.8619429,653.6624359,653.6462527,653.6462778,653.6624359,653.6624359,653.6624359,,656.3802943,right,0,24.7307911,None,,,,,,,,,,,,,,,,,,,,,,,,,,,,,,sub-038,1,2025-03-12_05h19.15.111,random_dot,03.02.2023,59.72688095,2025-03-12 05h19.30.633393 +0100
right,right,speed,,,,,0,1,1,1,22,1,45,1,656.3950497,,,,,,,,,656.3812218,657.5949129,658.3956217,658.3795175,658.3795682,658.3956217,658.3956217,658.3956217,,660.9798952,left,0,24.5940618,None,,,,,,,,,,,,,,,,,,,,,,,,,,,,,,sub-038,1,2025-03-12_05h19.15.111,random_dot,03.02.2023,59.72688095,2025-03-12 05h19.30.633393 +0100
left,left,speed,,,,,0,1,1,1,23,0,46,0,660.9946757,,,,,,,,,660.9806788,661.7944109,662.5953349,662.5788347,662.5788592,662.5953349,662.5953349,662.5953349,,665.0970839,right,0,24.5111179,None,,,,,,,,,,,,,,,,,,,,,,,,,,,,,,sub-038,1,2025-03-12_05h19.15.111,random_dot,03.02.2023,59.72688095,2025-03-12 05h19.30.633393 +0100
right,right,speed,,,,,0,1,1,1,23,1,47,1,665.1113493,,,,,,,,,665.0983608,666.3111191,667.111818,667.0953438,667.0953665,667.111818,667.111818,667.111818,,669.4963066,right,1,24.3994394,None,,,,,,,,,,,,,,,,,,,,,,,,,,,,,,sub-038,1,2025-03-12_05h19.15.111,random_dot,03.02.2023,59.72688095,2025-03-12 05h19.30.633393 +0100
left,left,speed,,,,,0,1,1,1,24,0,48,0,669.5109942,,,,,,,,,669.4971648,669.8608979,670.6618663,670.644952,670.6449765,670.6618663,670.6618663,670.6618663,,672.2125728,left,1,23.5662824,None,,,,,,,,,,,,,,,,,,,,,,,,,,,,,,sub-038,1,2025-03-12_05h19.15.111,random_dot,03.02.2023,59.72688095,2025-03-12 05h19.30.633393 +0100
right,right,speed,,,,,0,1,1,1,24,1,49,1,672.2274566,,,,,,,,,672.2133385,673.0274044,673.8277624,673.8116195,673.8116454,673.8277624,673.8277624,673.8277624,,675.6631237,left,0,23.8438897,None,,,,,,,,,,,,,,,,,,,,,,,,,,,,,,sub-038,1,2025-03-12_05h19.15.111,random_dot,03.02.2023,59.72688095,2025-03-12 05h19.30.633393 +0100
right,right,speed,,,,,0,1,1,1,25,0,50,1,675.6775527,,,,,,,,,675.6644104,676.47751,677.2781484,677.261796,677.261827,677.2781484,677.2781484,677.2781484,,679.5459756,left,0,24.2820213,None,,,,,,,,,,,,,,,,,,,,,,,,,,,,,,sub-038,1,2025-03-12_05h19.15.111,random_dot,03.02.2023,59.72688095,2025-03-12 05h19.30.633393 +0100
left,left,speed,,,,,0,1,1,1,25,1,51,0,679.560675,,,,,,,,,679.5470401,679.6603124,680.4613404,680.4446667,680.4446902,680.4613404,680.4613404,680.4613404,,682.4302449,left,1,23.9872689,None,,,,,,,,,,,,,,,,,,,,,,,,,,,,,,sub-038,1,2025-03-12_05h19.15.111,random_dot,03.02.2023,59.72688095,2025-03-12 05h19.30.633393 +0100
right,right,speed,,,,,0,1,1,1,26,0,52,1,682.4435722,,,,,,,,,682.430919,683.6438734,684.4443911,684.42838,684.4284017,684.4443911,684.4443911,684.4443911,,687.6629341,left,0,25.2311394,None,,,,,,,,,,,,,,,,,,,,,,,,,,,,,,sub-038,1,2025-03-12_05h19.15.111,random_dot,03.02.2023,59.72688095,2025-03-12 05h19.30.633393 +0100
left,left,speed,,,,,0,1,1,1,26,1,53,0,687.6772644,,,,,,,,,687.6646822,687.7770659,688.5776333,688.5613611,688.5613808,688.5776333,688.5776333,688.5776333,,691.4283485,right,0,24.8621025,None,,,,,,,,,,,,,,,,,,,,,,,,,,,,,,sub-038,1,2025-03-12_05h19.15.111,random_dot,03.02.2023,59.72688095,2025-03-12 05h19.30.633393 +0100
left,left,speed,,,,,0,1,1,1,27,0,54,0,691.4433391,,,,,,,,,691.4292621,692.6430979,693.443898,693.4277479,693.4277687,693.443898,693.443898,693.443898,,695.06146,left,1,23.6340399,None,,,,,,,,,,,,,,,,,,,,,,,,,,,,,,sub-038,1,2025-03-12_05h19.15.111,random_dot,03.02.2023,59.72688095,2025-03-12 05h19.30.633393 +0100
right,right,speed,,,,,0,1,1,1,27,1,55,1,695.0766664,,,,,,,,,695.0623105,696.2764761,697.0771615,697.060304,697.0603243,697.0771615,697.0771615,697.0771615,,699.4310391,left,0,24.3694137,None,,,,,,,,,,,,,,,,,,,,,,,,,,,,,,sub-038,1,2025-03-12_05h19.15.111,random_dot,03.02.2023,59.72688095,2025-03-12 05h19.30.633393 +0100
left,left,speed,,,,,0,1,1,1,28,0,56,0,699.4429256,,,,,,,,,699.4320164,700.2426893,701.0436752,701.0265429,701.0265671,701.0436752,701.0436752,701.0436752,,703.878059,right,0,24.8510891,None,,,,,,,,,,,,,,,,,,,,,,,,,,,,,,sub-038,1,2025-03-12_05h19.15.111,random_dot,03.02.2023,59.72688095,2025-03-12 05h19.30.633393 +0100
right,right,speed,,,,,0,1,1,1,28,1,57,1,703.8931819,,,,,,,,,703.8787282,704.6928141,705.493353,705.4772831,705.4773034,705.493353,705.493353,705.493353,,708.6784472,right,1,25.2020193,None,,,,,,,,,,,,,,,,,,,,,,,,,,,,,,sub-038,1,2025-03-12_05h19.15.111,random_dot,03.02.2023,59.72688095,2025-03-12 05h19.30.633393 +0100
left,left,speed,,,,,0,1,1,1,29,0,58,0,708.6925649,,,,,,,,,708.6794427,708.7924846,709.5932559,709.5763541,709.5763754,709.5932559,709.5932559,709.5932559,,712.9106995,left,1,25.3219115,None,,,,,,,,,,,,,,,,,,,,,,,,,,,,,,sub-038,1,2025-03-12_05h19.15.111,random_dot,03.02.2023,59.72688095,2025-03-12 05h19.30.633393 +0100
right,right,speed,,,,,0,1,1,1,29,1,59,1,712.9253769,,,,,,,,,712.9119771,713.7253452,714.5260548,714.5096651,714.509692,714.5260548,714.5260548,714.5260548,,717.2437948,right,1,24.7310665,None,,,,,,,,,,,,,,,,,,,,,,,,,,,,,,sub-038,1,2025-03-12_05h19.15.111,random_dot,03.02.2023,59.72688095,2025-03-12 05h19.30.633393 +0100
,,speed,,,,,0,1,1,1,,,,,,,,,,,,,,,,,,,,,,,,,,,,,,,,,,,,,,,,,,,,,,,,,,,,,,,,,sub-038,1,2025-03-12_05h19.15.111,random_dot,03.02.2023,59.72688095,2025-03-12 05h19.30.633393 +0100
,,,,,,,,,,,,,,,,,,,,,,,,,,,,,,,,,,,,,,,,,,,,,,,,,,,,,,,,,,,,,,,717.2446582,717.2591398,722.2582592,722.242941,,,,,,,
