wordCTK,colorCTK,corrAnsCTK,congruentCTK,thisN,thisTrialN,thisRepN,keyResp_CTK.keys,keyResp_CTK.corr,keyResp_CTK.rt,keyResp_CTK.duration,wordPractice,colorPractice,corrAnsPractice,congruentPractice,respPractice.keys,respPractice.corr,respPractice.rt,respPractice.duration,word,color,corrAns,congruent,keyResp_test_run.keys,keyResp_test_run.corr,keyResp_test_run.rt,keyResp_test_run.duration,trials_CTK.thisRepN,trials_CTK.thisTrialN,trials_CTK.thisN,trials_CTK.thisIndex,trials_practice.thisRepN,trials_practice.thisTrialN,trials_practice.thisN,trials_practice.thisIndex,trials_test.thisRepN,trials_test.thisTrialN,trials_test.thisN,trials_test.thisIndex,thisRow.t,notes,instruction.started,instr_text.started,instr_image.started,instr_resp.started,instruction.stopped,instr_resp.keys,instr_resp.rt,instr_resp.duration,instr_color_to_key.started,instr_ctk.started,resp_ctk.started,instr_color_to_key.stopped,resp_ctk.keys,resp_ctk.rt,resp_ctk.duration,ITI.started,fixcross.started,fixcross.stopped,ITI.stopped,color_to_key_run.started,stimulus_CTK.started,keyResp_CTK.started,color_to_key_run.stopped,trials_CTK.keyResp_CTK.keys,trials_CTK.keyResp_CTK.corr,trials_CTK.keyResp_CTK.rt,trials_CTK.keyResp_CTK.duration,instr_practice.started,instr_practice_text.started,instr_practice_resp.started,instr_practice.stopped,instr_practice_resp.keys,instr_practice_resp.rt,instr_practice_resp.duration,practice_run.started,stimulus_practice.started,respPractice.started,practice_run.stopped,trials_practice.respPractice.keys,trials_practice.respPractice.corr,trials_practice.respPractice.rt,trials_practice.respPractice.duration,feedback.started,textFeedback.started,feedback.stopped,textFeedback.stopped,instr_test.started,instr_test_text.started,instr_test_resp.started,instr_test.stopped,instr_test_resp.keys,instr_test_resp.rt,instr_test_resp.duration,test_run.started,stimulus_test_run.started,keyResp_test_run.started,test_run.stopped,trials_test.keyResp_test_run.keys,trials_test.keyResp_test_run.corr,trials_test.keyResp_test_run.rt,trials_test.keyResp_test_run.duration,goodbye.started,textGoodbye.started,goodbye.stopped,participant,session,expName,frameRate,Unnamed: 112
,,,,,,,,,,,,,,,,,,,,,,,,,,,,,,,,,,,,,,,,,0.0026875999756157,0.0303614999866113,0.0303614999866113,0.0303614999866113,48.1554728000192,space,48.09675899997819,,,,,,,,,,,,,,,,,,,,,,,,,,,,,,,,,,,,,,,,,,,,,,,,,,,,,,,,,,sub-228,1,stroop_test,59.941473146566125,
,,,,,,,,,,,,,,,,,,,,,,,,,,,,,,,,,,,,,,,,,,,,,,,,,48.1555204000324,48.1594665000448,48.1594665000448,59.04784730006941,space,10.88624209992122,,,,,,,,,,,,,,,,,,,,,,,,,,,,,,,,,,,,,,,,,,,,,,,,,,,sub-228,1,stroop_test,59.941473146566125,
test,red,r,1.0,0.0,0.0,0.0,r,1.0,1.1177935999585316,,,,,,,,,,,,,,,,,,0.0,0.0,0.0,0.0,,,,,,,,,59.06358790001832,,,,,,,,,,,,,,,,,59.05322430003434,59.14712320000399,59.94666570005938,59.93089710001368,59.93920370005071,59.94666570005938,59.94666570005938,61.08047350007109,r,1.0,1.1177935999585316,,,,,,,,,,,,,,,,,,,,,,,,,,,,,,,,,,,,,,,sub-228,1,stroop_test,59.941473146566125,
test,yellow,g,1.0,1.0,1.0,0.0,b,0.0,18.04404710000381,,,,,,,,,,,,,,,,,,0.0,1.0,1.0,1.0,,,,,,,,,61.09593219996896,,,,,,,,,,,,,,,,,61.08080820005853,62.29523899999913,63.09474259999115,63.078751699998975,63.07926899997983,63.09474259999115,63.09474259999115,81.15150659997016,b,0.0,18.04404710000381,,,,,,,,,,,,,,,,,,,,,,,,,,,,,,,,,,,,,,,sub-228,1,stroop_test,59.941473146566125,
test,blue,b,1.0,2.0,2.0,0.0,b,1.0,1.8298383000073957,,,,,,,,,,,,,,,,,,0.0,2.0,2.0,2.0,,,,,,,,,81.16696529998444,,,,,,,,,,,,,,,,,81.15183940005954,81.96649949997663,82.7661052000476,82.74974760005716,82.75004930002615,82.7661052000476,82.7661052000476,84.59931580000557,b,1.0,1.8298383000073957,,,,,,,,,,,,,,,,,,,,,,,,,,,,,,,,,,,,,,,sub-228,1,stroop_test,59.941473146566125,
test,red,r,1.0,3.0,0.0,1.0,r,1.0,0.9218853000784292,,,,,,,,,,,,,,,,,,1.0,0.0,3.0,0.0,,,,,,,,,84.61481270007789,,,,,,,,,,,,,,,,,84.59954289998859,84.96438130002934,85.76409630000126,85.7478950000368,85.74815230001695,85.76409630000126,85.76409630000126,86.69749669998419,r,1.0,0.9218853000784292,,,,,,,,,,,,,,,,,,,,,,,,,,,,,,,,,,,,,,,sub-228,1,stroop_test,59.941473146566125,
test,yellow,g,1.0,4.0,1.0,1.0,g,1.0,1.0123561000218615,,,,,,,,,,,,,,,,,,1.0,1.0,4.0,1.0,,,,,,,,,86.71355440001935,,,,,,,,,,,,,,,,,86.69767939997837,86.79671799996868,87.59646020003129,87.57982210000046,87.58008890005294,87.59646020003129,87.59646020003129,88.61389570008032,g,1.0,1.0123561000218615,,,,,,,,,,,,,,,,,,,,,,,,,,,,,,,,,,,,,,,sub-228,1,stroop_test,59.941473146566125,
test,blue,b,1.0,5.0,2.0,1.0,b,1.0,0.7334651999408379,,,,,,,,,,,,,,,,,,1.0,2.0,5.0,2.0,,,,,,,,,88.62915880000219,,,,,,,,,,,,,,,,,88.61428039998282,89.82832970004529,90.627915799967,90.61161410005298,90.61186790000647,90.627915799967,90.627915799967,91.3636898000259,b,1.0,0.7334651999408379,,,,,,,,,,,,,,,,,,,,,,,,,,,,,,,,,,,,,,,sub-228,1,stroop_test,59.941473146566125,
test,red,r,1.0,6.0,0.0,2.0,r,1.0,0.8346481999615207,,,,,,,,,,,,,,,,,,2.0,0.0,6.0,0.0,,,,,,,,,91.3774349000305,,,,,,,,,,,,,,,,,91.36430969997308,91.72718819999136,92.5267393999966,92.51078850007616,92.5113867999753,92.5267393999966,92.5267393999966,93.37787950003984,r,1.0,0.8346481999615207,,,,,,,,,,,,,,,,,,,,,,,,,,,,,,,,,,,,,,,sub-228,1,stroop_test,59.941473146566125,
test,blue,b,1.0,7.0,1.0,2.0,b,1.0,2.2327352999709547,,,,,,,,,,,,,,,,,,2.0,1.0,7.0,2.0,,,,,,,,,93.39290610002354,,,,,,,,,,,,,,,,,93.37834729999304,94.59216940007173,95.39165180001874,95.37555510003584,95.37605309998617,95.39165180001874,95.39165180001874,97.64152000006288,b,1.0,2.2327352999709547,,,,,,,,,,,,,,,,,,,,,,,,,,,,,,,,,,,,,,,sub-228,1,stroop_test,59.941473146566125,
test,yellow,g,1.0,8.0,2.0,2.0,g,1.0,0.942652800003998,,,,,,,,,,,,,,,,,,2.0,2.0,8.0,1.0,,,,,,,,,97.6568197000306,,,,,,,,,,,,,,,,,97.64192319998983,97.74016599997412,98.5396741000004,98.52407290006522,98.52483170002232,98.5396741000004,98.5396741000004,99.49039230006748,g,1.0,0.942652800003998,,,,,,,,,,,,,,,,,,,,,,,,,,,,,,,,,,,,,,,sub-228,1,stroop_test,59.941473146566125,
test,yellow,g,1.0,9.0,0.0,3.0,g,1.0,0.7098964999895543,,,,,,,,,,,,,,,,,,3.0,0.0,9.0,1.0,,,,,,,,,99.50566230004188,,,,,,,,,,,,,,,,,99.49080680008046,100.70491239998957,101.50450679997448,101.48863440006971,101.48923850001302,101.50450679997448,101.50450679997448,102.22232270007952,g,1.0,0.7098964999895543,,,,,,,,,,,,,,,,,,,,,,,,,,,,,,,,,,,,,,,sub-228,1,stroop_test,59.941473146566125,
test,red,r,1.0,10.0,1.0,3.0,r,1.0,0.4583753000479191,,,,,,,,,,,,,,,,,,3.0,1.0,10.0,0.0,,,,,,,,,102.23736190004274,,,,,,,,,,,,,,,,,102.22270919999572,103.0368288999889,103.8363820000086,103.82008470001163,103.82039670005906,103.8363820000086,103.8363820000086,104.30533000000288,r,1.0,0.4583753000479191,,,,,,,,,,,,,,,,,,,,,,,,,,,,,,,,,,,,,,,sub-228,1,stroop_test,59.941473146566125,
test,blue,b,1.0,11.0,2.0,3.0,b,1.0,0.492480400018394,,,,,,,,,,,,,,,,,,3.0,2.0,11.0,2.0,,,,,,,,,104.31949040002657,,,,,,,,,,,,,,,,,104.30602820008062,105.11893640004564,105.91847450006752,105.9025954999961,105.90318580006716,105.91847450006752,105.91847450006752,106.42003919999117,b,1.0,0.492480400018394,,,,,,,,,,,,,,,,,,,,,,,,,,,,,,,,,,,,,,,sub-228,1,stroop_test,59.941473146566125,
,,,,,,,,,,,,,,,,,,,,,,,,,,,,,,,,,,,,,,,,,,,,,,,,,,,,,,,,,,,,,,,,,,,,106.42026410007384,106.43499790003987,106.43499790003987,112.11609899997713,space,5.671236800029874,,,,,,,,,,,,,,,,,,,,,,,,,,,,,,,,sub-228,1,stroop_test,59.941473146566125,
,,,,0.0,0.0,0.0,,,,,blau,red,r,0.0,r,1.0,1.8592470999574289,,,,,,,,,,,,,,0.0,0.0,0.0,4.0,,,,,112.13115620007738,,,,,,,,,,,,,,,,,112.125062600011,112.48101380001754,113.28131140000188,113.26484800002072,,,,,,,,,,,,,,,,113.27593870006967,113.28131140000188,113.28131140000188,115.14744990004692,r,1.0,1.8592470999574289,,115.15875100006816,115.16411440004596,116.16234450007325,,,,,,,,,,,,,,,,,,,,sub-228,1,stroop_test,59.941473146566125,
,,,,1.0,1.0,0.0,,,,,gelb,red,r,0.0,r,1.0,2.6240500999847427,,,,,,,,,,,,,,0.0,1.0,1.0,8.0,,,,,116.17876879998948,,,,,,,,,,,,,,,,,116.16274110006634,117.36143769999036,118.16099120001309,118.14548170007764,,,,,,,,,,,,,,,,118.15232790005392,118.16099120001309,118.16099120001309,120.7933191000484,r,1.0,2.6240500999847427,,120.79360249999444,120.80923120002262,121.79215470002964,121.80853829998524,,,,,,,,,,,,,,,,,,,sub-228,1,stroop_test,59.941473146566125,
,,,,2.0,2.0,0.0,,,,,gelb,yellow,g,1.0,g,1.0,0.694133699988015,,,,,,,,,,,,,,0.0,2.0,2.0,11.0,,,,,121.80853829998524,,,,,,,,,,,,,,,,,121.79232440004124,122.60812089999672,123.40773079998326,123.39214949996676,,,,,,,,,,,,,,,,123.3929633999942,123.40773079998326,123.40773079998326,124.10879560001194,g,1.0,0.694133699988015,,124.1094886000501,124.12398859998213,125.10728960006963,125.12329200003296,,,,,,,,,,,,,,,,,,,sub-228,1,stroop_test,59.941473146566125,
,,,,3.0,3.0,0.0,,,,,blau,blue,b,1.0,b,1.0,0.7138256999896839,,,,,,,,,,,,,,0.0,3.0,3.0,5.0,,,,,125.12329200003296,,,,,,,,,,,,,,,,,125.10760750004556,125.47316140006296,126.27266610006336,126.2569657000713,,,,,,,,,,,,,,,,126.2614735000534,126.27266610006336,126.27266610006336,126.98932709998915,b,1.0,0.7138256999896839,,126.98962020000909,127.0053541000234,127.98901979997754,128.00478970003314,,,,,,,,,,,,,,,,,,,sub-228,1,stroop_test,59.941473146566125,
,,,,4.0,4.0,0.0,,,,,blau,yellow,g,0.0,g,1.0,1.4249453999800608,,,,,,,,,,,,,,0.0,4.0,4.0,7.0,,,,,128.00478970003314,,,,,,,,,,,,,,,,,127.98939240002072,128.8043095000321,129.60392759996466,129.58803210000042,,,,,,,,,,,,,,,,129.58863080001902,129.60392759996466,129.60392759996466,131.03790180000942,g,1.0,1.4249453999800608,,131.03870310005732,131.05314520001411,132.03638409997802,132.05234290007502,,,,,,,,,,,,,,,,,,,sub-228,1,stroop_test,59.941473146566125,
,,,,5.0,5.0,0.0,,,,,rot,red,r,1.0,r,1.0,0.5353526999242604,,,,,,,,,,,,,,0.0,5.0,5.0,1.0,,,,,132.05234290007502,,,,,,,,,,,,,,,,,132.03674600005616,133.251429200056,134.051041000057,134.03515170002356,,,,,,,,,,,,,,,,134.0405660000397,134.051041000057,134.051041000057,134.6022338999901,r,1.0,0.5353526999242604,,134.6028749999823,134.6174083000515,135.60091010003816,135.6167429999914,,,,,,,,,,,,,,,,,,,sub-228,1,stroop_test,59.941473146566125,
,,,,6.0,6.0,0.0,,,,,rot,red,r,1.0,r,1.0,0.8240899000084028,,,,,,,,,,,,,,0.0,6.0,6.0,0.0,,,,,135.6167429999914,,,,,,,,,,,,,,,,,135.6012390999822,135.71670240000822,136.51634500001092,136.50049760006368,,,,,,,,,,,,,,,,136.501187600079,136.51634500001092,136.51634500001092,137.35032379999757,r,1.0,0.8240899000084028,,137.35097310005222,137.3655397000257,138.34953570005018,138.36520870006643,,,,,,,,,,,,,,,,,,,sub-228,1,stroop_test,59.941473146566125,
,,,,7.0,7.0,0.0,,,,,rot,blue,b,0.0,b,1.0,1.3841602000175044,,,,,,,,,,,,,,0.0,7.0,7.0,2.0,,,,,138.36520870006643,,,,,,,,,,,,,,,,,138.34998469997663,138.4649757000152,139.26464279997165,139.24867800006177,,,,,,,,,,,,,,,,139.24925630004145,139.26464279997165,139.26464279997165,140.66488340008073,b,1.0,1.3841602000175044,,140.66542740003206,140.68034299998544,141.6638514000224,141.6797014999902,,,,,,,,,,,,,,,,,,,sub-228,1,stroop_test,59.941473146566125,
,,,,8.0,8.0,0.0,,,,,rot,yellow,g,0.0,g,1.0,0.6559486000332981,,,,,,,,,,,,,,0.0,8.0,8.0,3.0,,,,,141.6797014999902,,,,,,,,,,,,,,,,,141.6641690999968,142.47933410003316,143.27873680007178,143.2629666000139,,,,,,,,,,,,,,,,143.26355979999062,143.27873680007178,143.27873680007178,143.94642080005724,g,1.0,0.6559486000332981,,143.9470772000495,143.96174100006465,144.9459785000654,144.96090659999754,,,,,,,,,,,,,,,,,,,sub-228,1,stroop_test,59.941473146566125,
,,,,9.0,9.0,0.0,,,,,gelb,blue,b,0.0,b,1.0,0.7380418999819085,,,,,,,,,,,,,,0.0,9.0,9.0,9.0,,,,,144.96090659999754,,,,,,,,,,,,,,,,,144.9466297000181,146.16040040005464,146.95995390007738,146.94400020001922,,,,,,,,,,,,,,,,146.94864020007662,146.95995390007738,146.95995390007738,147.710889399983,b,1.0,0.7380418999819085,,147.71154180006124,147.72608090005815,148.70968980004545,148.72540350002237,,,,,,,,,,,,,,,,,,,sub-228,1,stroop_test,59.941473146566125,
,,,,10.0,10.0,0.0,,,,,gelb,yellow,g,1.0,g,1.0,0.9452847000211476,,,,,,,,,,,,,,0.0,10.0,10.0,10.0,,,,,148.72540350002237,,,,,,,,,,,,,,,,,148.71007110003848,148.82503100007307,149.6248986000428,149.60900459997356,,,,,,,,,,,,,,,,149.60961619997397,149.6248986000428,149.6248986000428,150.57564240007196,g,1.0,0.9452847000211476,,150.5762855000794,150.59098219999578,151.57456660002936,151.59032610000577,,,,,,,,,,,,,,,,,,,sub-228,1,stroop_test,59.941473146566125,
,,,,11.0,11.0,0.0,,,,,blau,blue,b,1.0,b,1.0,0.6334299000445753,,,,,,,,,,,,,,0.0,11.0,11.0,6.0,,,,,151.59032610000577,,,,,,,,,,,,,,,,,151.5749370000558,152.38978600001428,153.18945130007342,153.1734972000122,,,,,,,,,,,,,,,,153.17727780004498,153.18945130007342,153.18945130007342,153.8403793000616,b,1.0,0.6334299000445753,,153.84102529997472,153.85564670001622,154.83937940001488,154.85489950003102,,,,,,,,,,,,,,,,,,,sub-228,1,stroop_test,59.941473146566125,
,,,,12.0,0.0,1.0,,,,,rot,red,r,1.0,r,1.0,0.6065492000197992,,,,,,,,,,,,,,1.0,0.0,12.0,1.0,,,,,154.85489950003102,,,,,,,,,,,,,,,,,154.83984180004336,155.20479270000942,156.00431210000534,155.988444800023,,,,,,,,,,,,,,,,155.9927191999741,156.00431210000534,156.00431210000534,156.62180349999107,r,1.0,0.6065492000197992,,156.6223486000672,156.6372160000028,157.62074829998892,157.636655600043,,,,,,,,,,,,,,,,,,,sub-228,1,stroop_test,59.941473146566125,
,,,,13.0,1.0,1.0,,,,,blau,yellow,g,0.0,g,1.0,1.2677194999996573,,,,,,,,,,,,,,1.0,1.0,13.0,7.0,,,,,157.636655600043,,,,,,,,,,,,,,,,,157.62111890001688,157.73656109999865,158.536094399984,158.52011360006873,,,,,,,,,,,,,,,,158.52317240007687,158.536094399984,158.536094399984,159.81999630003702,g,1.0,1.2677194999996573,,159.82059959997423,159.83530599996448,160.8189199999906,160.8346237000078,,,,,,,,,,,,,,,,,,,sub-228,1,stroop_test,59.941473146566125,
,,,,14.0,2.0,1.0,,,,,gelb,yellow,g,1.0,g,1.0,0.8388072999659926,,,,,,,,,,,,,,1.0,2.0,14.0,10.0,,,,,160.8346237000078,,,,,,,,,,,,,,,,,160.81933860003485,160.9346707999939,161.73415839998052,161.7182659000391,,,,,,,,,,,,,,,,161.7224200000055,161.73415839998052,161.73415839998052,162.58483449998312,g,1.0,0.8388072999659926,,162.5854255000595,162.60026620002463,163.58375029999297,163.59955959999934,,,,,,,,,,,,,,,,,,,sub-228,1,stroop_test,59.941473146566125,
,,,,15.0,3.0,1.0,,,,,blau,red,r,0.0,r,1.0,1.260851899976842,,,,,,,,,,,,,,1.0,3.0,15.0,4.0,,,,,163.59955959999934,,,,,,,,,,,,,,,,,163.5841033000033,163.94949030003045,164.7489288999932,164.73324159998447,,,,,,,,,,,,,,,,164.73687700007576,164.7489288999932,164.7489288999932,166.0166303999722,r,1.0,1.260851899976842,,166.0175014999695,166.0316115000751,167.01505639997777,167.0308441000525,,,,,,,,,,,,,,,,,,,sub-228,1,stroop_test,59.941473146566125,
,,,,16.0,4.0,1.0,,,,,rot,blue,b,0.0,b,1.0,0.8085943999467418,,,,,,,,,,,,,,1.0,4.0,16.0,2.0,,,,,167.0308441000525,,,,,,,,,,,,,,,,,167.0154328000499,167.13086140004452,167.93024680006783,167.91454100003466,,,,,,,,,,,,,,,,167.91997609997634,167.93024680006783,167.93024680006783,168.7479858000297,b,1.0,0.8085943999467418,,168.74863190006,168.7632974999724,169.74733480007853,169.76261039997917,,,,,,,,,,,,,,,,,,,sub-228,1,stroop_test,59.941473146566125,
,,,,17.0,5.0,1.0,,,,,rot,red,r,1.0,r,1.0,0.6400872999802232,,,,,,,,,,,,,,1.0,5.0,17.0,0.0,,,,,169.76261039997917,,,,,,,,,,,,,,,,,169.74799299996812,169.8624894999666,170.66202519997023,170.64546899998095,,,,,,,,,,,,,,,,170.64571890002117,170.66202519997023,170.66202519997023,171.31270240002775,r,1.0,0.6400872999802232,,171.3132415000582,171.32817270001397,172.31137410004158,172.3274927000748,,,,,,,,,,,,,,,,,,,sub-228,1,stroop_test,59.941473146566125,
,,,,18.0,6.0,1.0,,,,,gelb,blue,b,0.0,b,1.0,1.2814202998997644,,,,,,,,,,,,,,1.0,6.0,18.0,9.0,,,,,172.3274927000748,,,,,,,,,,,,,,,,,172.31156870000996,173.5268506000284,174.3262692000717,174.31044230004773,,,,,,,,,,,,,,,,174.31409730005544,174.3262692000717,174.3262692000717,175.61015309998766,b,1.0,1.2814202998997644,,175.6106966000516,175.6255471999757,176.60935220005922,176.6250375000527,,,,,,,,,,,,,,,,,,,sub-228,1,stroop_test,59.941473146566125,
,,,,19.0,7.0,1.0,,,,,rot,yellow,g,0.0,g,1.0,0.5468108999775723,,,,,,,,,,,,,,1.0,7.0,19.0,3.0,,,,,176.6250375000527,,,,,,,,,,,,,,,,,176.60982230002992,177.82413820002694,178.62378849997185,178.60782380006276,,,,,,,,,,,,,,,,178.61209170008078,178.62378849997185,178.62378849997185,179.1746244999813,g,1.0,0.5468108999775723,,179.17514649999794,179.19002920005005,180.1735922000371,180.18937709997408,,,,,,,,,,,,,,,,,,,sub-228,1,stroop_test,59.941473146566125,
,,,,20.0,8.0,1.0,,,,,gelb,yellow,g,1.0,g,1.0,0.8699812000850216,,,,,,,,,,,,,,1.0,8.0,20.0,11.0,,,,,180.18937709997408,,,,,,,,,,,,,,,,,180.1739633000689,180.9890264000278,181.78844150004443,181.7726074999664,,,,,,,,,,,,,,,,181.7767262000125,181.78844150004443,181.78844150004443,182.67247770004903,g,1.0,0.8699812000850216,,182.6730363999959,182.68787190003783,183.67141720000652,183.68724840006325,,,,,,,,,,,,,,,,,,,sub-228,1,stroop_test,59.941473146566125,
,,,,21.0,9.0,1.0,,,,,blau,blue,b,1.0,b,1.0,0.9928533000638708,,,,,,,,,,,,,,1.0,9.0,21.0,6.0,,,,,183.68724840006325,,,,,,,,,,,,,,,,,183.6718016000232,184.8866277000634,185.68614720006008,185.67035650007887,,,,,,,,,,,,,,,,185.67482439999003,185.68614720006008,185.68614720006008,186.68675550003536,b,1.0,0.9928533000638708,,186.68734160007443,186.70223100006115,187.68581910000648,187.70146700006444,,,,,,,,,,,,,,,,,,,sub-228,1,stroop_test,59.941473146566125,
,,,,22.0,10.0,1.0,,,,,gelb,red,r,0.0,r,1.0,1.181490399991162,,,,,,,,,,,,,,1.0,10.0,22.0,8.0,,,,,187.70146700006444,,,,,,,,,,,,,,,,,187.68626910005696,188.05127910000735,188.85072350001428,188.8347246000776,,,,,,,,,,,,,,,,188.8387070000172,188.85072350001428,188.85072350001428,190.0352769000456,r,1.0,1.181490399991162,,190.03608580003493,190.05020409997087,191.03380670002664,191.0494022000348,,,,,,,,,,,,,,,,,,,sub-228,1,stroop_test,59.941473146566125,
,,,,23.0,11.0,1.0,,,,,blau,blue,b,1.0,b,1.0,0.6999571999767795,,,,,,,,,,,,,,1.0,11.0,23.0,5.0,,,,,191.0494022000348,,,,,,,,,,,,,,,,,191.0342970000347,191.39897380000912,192.1987849000143,192.18293750006703,,,,,,,,,,,,,,,,192.1874602000462,192.1987849000143,192.1987849000143,192.9004002000438,b,1.0,0.6999571999767795,,192.90105960005891,192.9149880000623,193.89869399997409,193.9145176999737,,,,,,,,,,,,,,,,,,,sub-228,1,stroop_test,59.941473146566125,
,,,,,,,,,,,,,,,,,,,,,,,,,,,,,,,,,,,,,,,,,,,,,,,,,,,,,,,,,,,,,,,,,,,,,,,,,,,,,,,,,,,,,,,193.89887899998573,193.9145176999737,193.9145176999737,201.32819160004144,space,7.40636300004553,,,,,,,,,,,,,sub-228,1,stroop_test,59.941473146566125,
,,,,0.0,0.0,0.0,,,,,,,,,,,,,rot,blue,b,0.0,b,1.0,1.0235142998863012,,,,,,,,,,0.0,0.0,0.0,2.0,201.3461691000266,,,,,,,,,,,,,,,,,201.3431732000317,201.4430119000608,202.24268819997087,202.22692040004767,,,,,,,,,,,,,,,,,,,,,,,,,,,,,,,,,,,202.2317262999713,202.24268819997087,202.24268819997087,203.27740120003,b,1.0,1.0235142998863012,,,,,sub-228,1,stroop_test,59.941473146566125,
,,,,1.0,1.0,0.0,,,,,,,,,,,,,blau,yellow,g,0.0,g,1.0,1.1038439000258222,,,,,,,,,,0.0,1.0,1.0,7.0,203.292014000006,,,,,,,,,,,,,,,,,203.2781108000781,203.6417841999792,204.44112360000145,204.4253197000362,,,,,,,,,,,,,,,,,,,,,,,,,,,,,,,,,,,204.42911560006905,204.44112360000145,204.44112360000145,205.55885230004787,g,1.0,1.1038439000258222,,,,,sub-228,1,stroop_test,59.941473146566125,
,,,,2.0,2.0,0.0,,,,,,,,,,,,,rot,yellow,g,0.0,g,1.0,1.1603348999051375,,,,,,,,,,0.0,2.0,2.0,3.0,205.57381690002512,,,,,,,,,,,,,,,,,205.5594118000008,206.373408399988,207.17278560006525,207.1568079000572,,,,,,,,,,,,,,,,,,,,,,,,,,,,,,,,,,,207.1607274999842,207.17278560006525,207.17278560006525,208.33992639998905,g,1.0,1.1603348999051375,,,,,sub-228,1,stroop_test,59.941473146566125,
,,,,3.0,3.0,0.0,,,,,,,,,,,,,blau,blue,b,1.0,b,1.0,0.8618875999236479,,,,,,,,,,0.0,3.0,3.0,6.0,208.35538199997973,,,,,,,,,,,,,,,,,208.34030959999652,208.70486860000528,209.50791000004392,209.48903499997687,,,,,,,,,,,,,,,,,,,,,,,,,,,,,,,,,,,209.49347330001183,209.50791000004392,209.50791000004392,210.37276070006192,b,1.0,0.8618875999236479,,,,,sub-228,1,stroop_test,59.941473146566125,
,,,,4.0,4.0,0.0,,,,,,,,,,,,,rot,red,r,1.0,r,1.0,0.5989234999287874,,,,,,,,,,0.0,4.0,4.0,0.0,210.38755530002527,,,,,,,,,,,,,,,,,210.37327149999328,210.73729820002336,211.5367433000356,211.52112739998847,,,,,,,,,,,,,,,,,,,,,,,,,,,,,,,,,,,211.52635709999595,211.5367433000356,211.5367433000356,212.13776080007665,r,1.0,0.5989234999287874,,,,,sub-228,1,stroop_test,59.941473146566125,
,,,,5.0,5.0,0.0,,,,,,,,,,,,,gelb,red,r,0.0,r,1.0,0.8750723999692127,,,,,,,,,,0.0,5.0,5.0,8.0,212.1530383999925,,,,,,,,,,,,,,,,,212.138182100025,212.253042700002,213.05249490006827,213.0371408000356,,,,,,,,,,,,,,,,,,,,,,,,,,,,,,,,,,,213.04291680001188,213.05249490006827,213.05249490006827,213.93663890007883,r,1.0,0.8750723999692127,,,,,sub-228,1,stroop_test,59.941473146566125,
,,,,6.0,6.0,0.0,,,,,,,,,,,,,gelb,yellow,g,1.0,g,1.0,0.6914349000435323,,,,,,,,,,0.0,6.0,6.0,10.0,213.9519424000755,,,,,,,,,,,,,,,,,213.93709390005097,214.30157860007603,215.1012995999772,215.0854020999977,,,,,,,,,,,,,,,,,,,,,,,,,,,,,,,,,,,215.08590730000287,215.1012995999772,215.1012995999772,215.80146340001372,g,1.0,0.6914349000435323,,,,,sub-228,1,stroop_test,59.941473146566125,
,,,,7.0,7.0,0.0,,,,,,,,,,,,,gelb,blue,b,0.0,b,1.0,0.5066482999827713,,,,,,,,,,0.0,7.0,7.0,9.0,215.81737679999787,,,,,,,,,,,,,,,,,215.8016883999808,217.0168235000456,217.8163940999657,217.80070200003684,,,,,,,,,,,,,,,,,,,,,,,,,,,,,,,,,,,217.8014980000444,217.8163940999657,217.8163940999657,218.3339704000391,b,1.0,0.5066482999827713,,,,,sub-228,1,stroop_test,59.941473146566125,
,,,,8.0,8.0,0.0,,,,,,,,,,,,,blau,red,r,0.0,r,1.0,0.6238430999219418,,,,,,,,,,0.0,8.0,8.0,4.0,218.34931349998809,,,,,,,,,,,,,,,,,218.33443569997328,219.148748000036,219.9481969000772,219.93185539997648,,,,,,,,,,,,,,,,,,,,,,,,,,,,,,,,,,,219.9334380000364,219.9481969000772,219.9481969000772,220.5820101000136,r,1.0,0.6238430999219418,,,,,sub-228,1,stroop_test,59.941473146566125,
,,,,9.0,9.0,0.0,,,,,,,,,,,,,blau,blue,b,1.0,b,1.0,0.8652876999694854,,,,,,,,,,0.0,9.0,9.0,5.0,220.5977829999756,,,,,,,,,,,,,,,,,220.58223449997604,220.6811681999825,221.4807680000085,221.4650834000204,,,,,,,,,,,,,,,,,,,,,,,,,,,,,,,,,,,221.4658408999676,221.4807680000085,221.4807680000085,222.348225899972,b,1.0,0.8652876999694854,,,,,sub-228,1,stroop_test,59.941473146566125,
,,,,10.0,10.0,0.0,,,,,,,,,,,,,gelb,yellow,g,1.0,g,1.0,0.527259900001809,,,,,,,,,,0.0,10.0,10.0,11.0,222.36347750003915,,,,,,,,,,,,,,,,,222.34866770007648,223.16294239996927,223.9624676000094,223.94636040006296,,,,,,,,,,,,,,,,,,,,,,,,,,,,,,,,,,,223.94858870003367,223.9624676000094,223.9624676000094,224.49666080006864,g,1.0,0.527259900001809,,,,,sub-228,1,stroop_test,59.941473146566125,
,,,,11.0,11.0,0.0,,,,,,,,,,,,,rot,red,r,1.0,r,1.0,1.257867000065744,,,,,,,,,,0.0,11.0,11.0,1.0,224.5119441000279,,,,,,,,,,,,,,,,,224.497038600035,224.6120649999939,225.41161870001812,225.3958257000195,,,,,,,,,,,,,,,,,,,,,,,,,,,,,,,,,,,225.40054930001497,225.41161870001812,225.41161870001812,226.6792787000304,r,1.0,1.257867000065744,,,,,sub-228,1,stroop_test,59.941473146566125,
,,,,12.0,0.0,1.0,,,,,,,,,,,,,rot,blue,b,0.0,b,1.0,1.7758524999953806,,,,,,,,,,1.0,0.0,12.0,2.0,226.6941776999738,,,,,,,,,,,,,,,,,226.67987190000716,226.7942373000551,227.59362290007996,227.5776074000169,,,,,,,,,,,,,,,,,,,,,,,,,,,,,,,,,,,227.57810400007293,227.59362290007996,227.59362290007996,229.37764540000356,b,1.0,1.7758524999953806,,,,,sub-228,1,stroop_test,59.941473146566125,
,,,,13.0,1.0,1.0,,,,,,,,,,,,,blau,red,r,0.0,r,1.0,1.444261800032109,,,,,,,,,,1.0,1.0,13.0,4.0,229.39251769997645,,,,,,,,,,,,,,,,,229.37820550007743,229.49241770000663,230.2920979000628,230.27623630000744,,,,,,,,,,,,,,,,,,,,,,,,,,,,,,,,,,,230.2809873999795,230.2920979000628,230.2920979000628,231.74228080001197,r,1.0,1.444261800032109,,,,,sub-228,1,stroop_test,59.941473146566125,
,,,,14.0,2.0,1.0,,,,,,,,,,,,,rot,red,r,1.0,r,1.0,0.7054951000027359,,,,,,,,,,1.0,2.0,14.0,1.0,231.75769930006936,,,,,,,,,,,,,,,,,231.7426674000453,232.1075382999843,232.9070200000424,232.89135140005965,,,,,,,,,,,,,,,,,,,,,,,,,,,,,,,,,,,232.8964312999742,232.9070200000424,232.9070200000424,233.62501900002823,r,1.0,0.7054951000027359,,,,,sub-228,1,stroop_test,59.941473146566125,
,,,,15.0,3.0,1.0,,,,,,,,,,,,,gelb,yellow,g,1.0,g,1.0,0.7157189999707043,,,,,,,,,,1.0,3.0,15.0,10.0,233.63988729997072,,,,,,,,,,,,,,,,,233.62555009999775,233.98978200007696,234.78929400001653,234.77358839998487,,,,,,,,,,,,,,,,,,,,,,,,,,,,,,,,,,,234.7787965000607,234.78929400001653,234.78929400001653,235.50703570002224,g,1.0,0.7157189999707043,,,,,sub-228,1,stroop_test,59.941473146566125,
,,,,16.0,4.0,1.0,,,,,,,,,,,,,gelb,blue,b,0.0,b,1.0,0.4822565999347716,,,,,,,,,,1.0,4.0,16.0,9.0,235.52204299997535,,,,,,,,,,,,,,,,,235.50752240000293,235.8718939999817,236.67145230004095,236.6557107999688,,,,,,,,,,,,,,,,,,,,,,,,,,,,,,,,,,,236.6564445999684,236.67145230004095,236.67145230004095,237.1549846000271,b,1.0,0.4822565999347716,,,,,sub-228,1,stroop_test,59.941473146566125,
,,,,17.0,5.0,1.0,,,,,,,,,,,,,blau,blue,b,1.0,b,1.0,0.6495714000193402,,,,,,,,,,1.0,5.0,17.0,5.0,237.17069349996743,,,,,,,,,,,,,,,,,237.1551900000777,237.97054060001392,238.77008980000392,238.75461010006256,,,,,,,,,,,,,,,,,,,,,,,,,,,,,,,,,,,238.7599015000742,238.77008980000392,238.77008980000392,239.4216349000344,b,1.0,0.6495714000193402,,,,,sub-228,1,stroop_test,59.941473146566125,
,,,,18.0,6.0,1.0,,,,,,,,,,,,,rot,yellow,g,0.0,g,1.0,0.7069549000589177,,,,,,,,,,1.0,6.0,18.0,3.0,239.436315100058,,,,,,,,,,,,,,,,,239.42216650000773,240.63551220006772,241.43509789998643,241.41922939999492,,,,,,,,,,,,,,,,,,,,,,,,,,,,,,,,,,,241.4235961000668,241.43509789998643,241.43509789998643,242.15200450003613,g,1.0,0.7069549000589177,,,,,sub-228,1,stroop_test,59.941473146566125,
,,,,19.0,7.0,1.0,,,,,,,,,,,,,gelb,red,r,0.0,r,1.0,0.4499204000458121,,,,,,,,,,1.0,7.0,19.0,8.0,242.1678829999873,,,,,,,,,,,,,,,,,242.15223390003663,243.3672706000507,244.16683360002932,244.15136969997548,,,,,,,,,,,,,,,,,,,,,,,,,,,,,,,,,,,244.159149800078,244.16683360002932,244.16683360002932,244.61840400006625,r,1.0,0.4499204000458121,,,,,sub-228,1,stroop_test,59.941473146566125,
,,,,20.0,8.0,1.0,,,,,,,,,,,,,blau,yellow,g,0.0,g,1.0,1.242712900042534,,,,,,,,,,1.0,8.0,20.0,7.0,244.6330764000304,,,,,,,,,,,,,,,,,244.6188449000474,244.9829238000093,245.78248010005336,245.7672300999984,,,,,,,,,,,,,,,,,,,,,,,,,,,,,,,,,,,245.7738406000426,245.78248010005336,245.78248010005336,247.03320790000728,g,1.0,1.242712900042534,,,,,sub-228,1,stroop_test,59.941473146566125,
,,,,21.0,9.0,1.0,,,,,,,,,,,,,rot,red,r,1.0,r,1.0,0.610705400002189,,,,,,,,,,1.0,9.0,21.0,0.0,247.04841459996533,,,,,,,,,,,,,,,,,247.03364739997775,247.8478717000689,248.6472329000244,248.63111329998355,,,,,,,,,,,,,,,,,,,,,,,,,,,,,,,,,,,248.63275520002932,248.6472329000244,248.6472329000244,249.26506990008056,r,1.0,0.610705400002189,,,,,sub-228,1,stroop_test,59.941473146566125,
,,,,22.0,10.0,1.0,,,,,,,,,,,,,gelb,yellow,g,1.0,g,1.0,0.7163913999684155,,,,,,,,,,1.0,10.0,22.0,11.0,249.2802396999905,,,,,,,,,,,,,,,,,249.26550950005185,250.0798219999997,250.87932790000923,250.8632484000409,,,,,,,,,,,,,,,,,,,,,,,,,,,,,,,,,,,250.86905380000823,250.87932790000923,250.87932790000923,251.59711670002437,g,1.0,0.7163913999684155,,,,,sub-228,1,stroop_test,59.941473146566125,
,,,,23.0,11.0,1.0,,,,,,,,,,,,,blau,blue,b,1.0,b,1.0,0.6350676999427378,,,,,,,,,,1.0,11.0,23.0,6.0,251.612097300007,,,,,,,,,,,,,,,,,251.59749469999224,251.9619872000767,252.7612265000353,252.7454563999781,,,,,,,,,,,,,,,,,,,,,,,,,,,,,,,,,,,252.7475824999856,252.7612265000353,252.7612265000353,253.4126154000405,b,1.0,0.6350676999427378,,,,,sub-228,1,stroop_test,59.941473146566125,
,,,,24.0,0.0,2.0,,,,,,,,,,,,,rot,red,r,1.0,r,1.0,0.5565463999519125,,,,,,,,,,2.0,0.0,24.0,1.0,253.4278291000519,,,,,,,,,,,,,,,,,253.41305540001483,253.5276417999994,254.32716240000445,254.3110270000761,,,,,,,,,,,,,,,,,,,,,,,,,,,,,,,,,,,254.3134726000717,254.32716240000445,254.32716240000445,254.89429950003975,r,1.0,0.5565463999519125,,,,,sub-228,1,stroop_test,59.941473146566125,
,,,,25.0,1.0,2.0,,,,,,,,,,,,,gelb,yellow,g,1.0,g,1.0,0.6819073000224307,,,,,,,,,,2.0,1.0,25.0,10.0,254.9100436000153,,,,,,,,,,,,,,,,,254.8945018000668,254.993448000052,255.79304929997303,255.7773933999706,,,,,,,,,,,,,,,,,,,,,,,,,,,,,,,,,,,255.78507039998655,255.79304929997303,255.79304929997303,256.47706900001504,g,1.0,0.6819073000224307,,,,,sub-228,1,stroop_test,59.941473146566125,
,,,,26.0,2.0,2.0,,,,,,,,,,,,,gelb,yellow,g,1.0,g,1.0,0.684717099997215,,,,,,,,,,2.0,2.0,26.0,11.0,256.49241950002033,,,,,,,,,,,,,,,,,256.4774445000803,256.84233650006354,257.64185860008,257.62604100001045,,,,,,,,,,,,,,,,,,,,,,,,,,,,,,,,,,,257.6266341999872,257.64185860008,257.64185860008,258.34253460005857,g,1.0,0.684717099997215,,,,,sub-228,1,stroop_test,59.941473146566125,
,,,,27.0,3.0,2.0,,,,,,,,,,,,,blau,red,r,0.0,r,1.0,0.8965538999764249,,,,,,,,,,2.0,3.0,27.0,4.0,258.35794440004975,,,,,,,,,,,,,,,,,258.34290950000286,259.1575272000628,259.9570743000368,259.94138670002576,,,,,,,,,,,,,,,,,,,,,,,,,,,,,,,,,,,259.948076199973,259.9570743000368,259.9570743000368,260.85810680000577,r,1.0,0.8965538999764249,,,,,sub-228,1,stroop_test,59.941473146566125,
,,,,28.0,4.0,2.0,,,,,,,,,,,,,rot,yellow,g,0.0,g,1.0,0.7816255999496207,,,,,,,,,,2.0,4.0,28.0,3.0,260.8731084000319,,,,,,,,,,,,,,,,,260.8585762999719,261.6727000999963,262.4721603000071,262.4562475000276,,,,,,,,,,,,,,,,,,,,,,,,,,,,,,,,,,,262.4603595000226,262.4721603000071,262.4721603000071,263.25719590007793,g,1.0,0.7816255999496207,,,,,sub-228,1,stroop_test,59.941473146566125,
,,,,29.0,5.0,2.0,,,,,,,,,,,,,gelb,red,r,0.0,r,1.0,0.7181379999965429,,,,,,,,,,2.0,5.0,29.0,8.0,263.27169219998177,,,,,,,,,,,,,,,,,263.25782890000846,263.37164680007845,264.17088370001875,264.1557660000399,,,,,,,,,,,,,,,,,,,,,,,,,,,,,,,,,,,264.16068760002963,264.17088370001875,264.17088370001875,264.9063326000469,r,1.0,0.7181379999965429,,,,,sub-228,1,stroop_test,59.941473146566125,
,,,,30.0,6.0,2.0,,,,,,,,,,,,,blau,yellow,g,0.0,g,1.0,0.6097921000327915,,,,,,,,,,2.0,6.0,30.0,7.0,264.92080740001984,,,,,,,,,,,,,,,,,264.9070347000379,265.7201666000765,266.5196506000357,266.5038637999678,,,,,,,,,,,,,,,,,,,,,,,,,,,,,,,,,,,266.5074804000324,266.5196506000357,266.5196506000357,267.137313400046,g,1.0,0.6097921000327915,,,,,sub-228,1,stroop_test,59.941473146566125,
,,,,31.0,7.0,2.0,,,,,,,,,,,,,rot,red,r,1.0,r,1.0,0.6248388999374583,,,,,,,,,,2.0,7.0,31.0,0.0,267.1525499999989,,,,,,,,,,,,,,,,,267.1377526000142,267.2525351999793,268.0520889000036,268.03613130003214,,,,,,,,,,,,,,,,,,,,,,,,,,,,,,,,,,,268.0407787000295,268.0520889000036,268.0520889000036,268.6869783999864,r,1.0,0.6248388999374583,,,,,sub-228,1,stroop_test,59.941473146566125,
,,,,32.0,8.0,2.0,,,,,,,,,,,,,blau,blue,b,1.0,b,1.0,0.419822100084275,,,,,,,,,,2.0,8.0,32.0,5.0,268.701581900008,,,,,,,,,,,,,,,,,268.6875931000104,269.50110910006333,270.34254910005257,270.2849799999967,,,,,,,,,,,,,,,,,,,,,,,,,,,,,,,,,,,270.3382598999888,270.34254910005257,270.34254910005257,270.76890140003525,b,1.0,0.419822100084275,,,,,sub-228,1,stroop_test,59.941473146566125,
,,,,33.0,9.0,2.0,,,,,,,,,,,,,rot,blue,b,0.0,b,1.0,0.560345400008373,,,,,,,,,,2.0,9.0,33.0,2.0,270.7837310000323,,,,,,,,,,,,,,,,,270.769469800056,271.9831103000324,272.78264960006345,272.7670775000006,,,,,,,,,,,,,,,,,,,,,,,,,,,,,,,,,,,272.7737600000109,272.78264960006345,272.78264960006345,273.350999700022,b,1.0,0.560345400008373,,,,,sub-228,1,stroop_test,59.941473146566125,
,,,,34.0,10.0,2.0,,,,,,,,,,,,,blau,blue,b,1.0,b,1.0,0.5777314000297338,,,,,,,,,,2.0,10.0,34.0,6.0,273.3655334999785,,,,,,,,,,,,,,,,,273.3516935000662,274.1650689999806,274.96446799999103,274.9490714999847,,,,,,,,,,,,,,,,,,,,,,,,,,,,,,,,,,,274.9541461999761,274.96446799999103,274.96446799999103,275.54961370001547,b,1.0,0.5777314000297338,,,,,sub-228,1,stroop_test,59.941473146566125,
,,,,35.0,11.0,2.0,,,,,,,,,,,,,gelb,blue,b,0.0,b,1.0,0.8271425999701023,,,,,,,,,,2.0,11.0,35.0,9.0,275.5641646999866,,,,,,,,,,,,,,,,,275.55030120001175,275.6637171000475,276.4636566999834,276.44749350007623,,,,,,,,,,,,,,,,,,,,,,,,,,,,,,,,,,,276.4512166000204,276.4636566999834,276.4636566999834,277.2982050999999,b,1.0,0.8271425999701023,,,,,sub-228,1,stroop_test,59.941473146566125,
,,,,36.0,0.0,3.0,,,,,,,,,,,,,blau,blue,b,1.0,b,1.0,0.5654884999385104,,,,,,,,,,3.0,0.0,36.0,6.0,277.31304709997494,,,,,,,,,,,,,,,,,277.29875089996494,277.662798400037,278.4623623000225,278.4460292999865,,,,,,,,,,,,,,,,,,,,,,,,,,,,,,,,,,,278.4479685999686,278.4623623000225,278.4623623000225,279.0302975999657,b,1.0,0.5654884999385104,,,,,sub-228,1,stroop_test,59.941473146566125,
,,,,37.0,1.0,3.0,,,,,,,,,,,,,rot,blue,b,0.0,b,1.0,1.2616387999150902,,,,,,,,,,3.0,1.0,37.0,2.0,279.0452975999797,,,,,,,,,,,,,,,,,279.03073580004275,279.39524029998574,280.1945618999889,280.1784576000646,,,,,,,,,,,,,,,,,,,,,,,,,,,,,,,,,,,280.1815918000648,280.1945618999889,280.1945618999889,281.46183410007507,b,1.0,1.2616387999150902,,,,,sub-228,1,stroop_test,59.941473146566125,
,,,,38.0,2.0,3.0,,,,,,,,,,,,,rot,red,r,1.0,r,1.0,0.6346679999260232,,,,,,,,,,3.0,2.0,38.0,1.0,281.4771198000526,,,,,,,,,,,,,,,,,281.46227810007986,282.6764107000781,283.4759487999836,283.46006750001106,,,,,,,,,,,,,,,,,,,,,,,,,,,,,,,,,,,283.4606790000107,283.4759487999836,283.4759487999836,284.12679750006646,r,1.0,0.6346679999260232,,,,,sub-228,1,stroop_test,59.941473146566125,
,,,,39.0,3.0,3.0,,,,,,,,,,,,,gelb,yellow,g,1.0,g,1.0,0.610331799951382,,,,,,,,,,3.0,3.0,39.0,11.0,284.1421204999788,,,,,,,,,,,,,,,,,284.1271703999955,285.341536300024,286.14183049998246,286.1247207999695,,,,,,,,,,,,,,,,,,,,,,,,,,,,,,,,,,,286.1264929000754,286.14183049998246,286.14183049998246,286.75785870000254,g,1.0,0.610331799951382,,,,,sub-228,1,stroop_test,59.941473146566125,
,,,,40.0,4.0,3.0,,,,,,,,,,,,,blau,blue,b,1.0,b,1.0,0.9817895999876782,,,,,,,,,,3.0,4.0,40.0,5.0,286.7736073000124,,,,,,,,,,,,,,,,,286.75804910005536,286.85709369997494,287.65674070001114,287.6406697999919,,,,,,,,,,,,,,,,,,,,,,,,,,,,,,,,,,,287.6437406999757,287.65674070001114,287.65674070001114,288.6405438000802,b,1.0,0.9817895999876782,,,,,sub-228,1,stroop_test,59.941473146566125,
,,,,41.0,5.0,3.0,,,,,,,,,,,,,rot,yellow,g,0.0,g,1.0,1.7809240999631584,,,,,,,,,,3.0,5.0,41.0,3.0,288.65597540000454,,,,,,,,,,,,,,,,,288.6409158000024,288.75592859997414,289.55544849997386,289.53968619997613,,,,,,,,,,,,,,,,,,,,,,,,,,,,,,,,,,,289.54397200001404,289.55544849997386,289.55544849997386,291.338528900058,g,1.0,1.7809240999631584,,,,,sub-228,1,stroop_test,59.941473146566125,
,,,,42.0,6.0,3.0,,,,,,,,,,,,,gelb,red,r,0.0,r,1.0,0.5736080000642687,,,,,,,,,,3.0,6.0,42.0,8.0,291.35431049996987,,,,,,,,,,,,,,,,,291.3387863000389,292.1538741000695,292.9534381000558,292.93783259997144,,,,,,,,,,,,,,,,,,,,,,,,,,,,,,,,,,,292.9429536999669,292.9534381000558,292.9534381000558,293.53861479996704,r,1.0,0.5736080000642687,,,,,sub-228,1,stroop_test,59.941473146566125,
,,,,43.0,7.0,3.0,,,,,,,,,,,,,rot,red,r,1.0,r,1.0,0.75963079999201,,,,,,,,,,3.0,7.0,43.0,0.0,293.55302330001723,,,,,,,,,,,,,,,,,293.53929520002566,293.65291639999487,294.4524185999762,294.4362672000425,,,,,,,,,,,,,,,,,,,,,,,,,,,,,,,,,,,294.43793400004506,294.4524185999762,294.4524185999762,295.22007040004246,r,1.0,0.75963079999201,,,,,sub-228,1,stroop_test,59.941473146566125,
,,,,44.0,8.0,3.0,,,,,,,,,,,,,gelb,yellow,g,1.0,g,1.0,0.6324176000198349,,,,,,,,,,3.0,8.0,44.0,10.0,295.23528819996864,,,,,,,,,,,,,,,,,295.2205040999688,296.03482960001566,296.83440409996547,296.81821509997826,,,,,,,,,,,,,,,,,,,,,,,,,,,,,,,,,,,296.8213068000041,296.83440409996547,296.83440409996547,297.46860060002655,g,1.0,0.6324176000198349,,,,,sub-228,1,stroop_test,59.941473146566125,
,,,,45.0,9.0,3.0,,,,,,,,,,,,,blau,yellow,g,0.0,g,1.0,0.9916351999854668,,,,,,,,,,3.0,9.0,45.0,7.0,297.483652099967,,,,,,,,,,,,,,,,,297.46899540000595,297.8336618000176,298.6332207999658,298.6172040000092,,,,,,,,,,,,,,,,,,,,,,,,,,,,,,,,,,,298.61986940004863,298.6332207999658,298.6332207999658,299.6335981000448,g,1.0,0.9916351999854668,,,,,sub-228,1,stroop_test,59.941473146566125,
,,,,46.0,10.0,3.0,,,,,,,,,,,,,blau,red,r,0.0,r,1.0,0.9971611000364646,,,,,,,,,,3.0,10.0,46.0,4.0,299.64918379997835,,,,,,,,,,,,,,,,,299.6337907999987,299.749218699988,300.54888979997486,300.5330709000118,,,,,,,,,,,,,,,,,,,,,,,,,,,,,,,,,,,300.53380400000606,300.54888979997486,300.54888979997486,301.5490636000177,r,1.0,0.9971611000364646,,,,,sub-228,1,stroop_test,59.941473146566125,
,,,,47.0,11.0,3.0,,,,,,,,,,,,,gelb,blue,b,0.0,b,1.0,0.5026416999753565,,,,,,,,,,3.0,11.0,47.0,9.0,301.5648131000344,,,,,,,,,,,,,,,,,301.5493499999866,302.7641797000542,303.56565480004065,303.5478721000254,,,,,,,,,,,,,,,,,,,,,,,,,,,,,,,,,,,303.55286769999657,303.56565480004065,303.56565480004065,304.08106350002345,b,1.0,0.5026416999753565,,,,,sub-228,1,stroop_test,59.941473146566125,
,,,,48.0,0.0,4.0,,,,,,,,,,,,,blau,blue,b,1.0,b,1.0,0.5977072999812663,,,,,,,,,,4.0,0.0,48.0,5.0,304.0964757000329,,,,,,,,,,,,,,,,,304.0814354000613,304.4463911000639,305.24581860005856,305.2298148999689,,,,,,,,,,,,,,,,,,,,,,,,,,,,,,,,,,,305.23286750004627,305.24581860005856,305.24581860005856,305.8463107000571,b,1.0,0.5977072999812663,,,,,sub-228,1,stroop_test,59.941473146566125,
,,,,49.0,1.0,4.0,,,,,,,,,,,,,rot,yellow,g,0.0,g,1.0,0.7250304999761283,,,,,,,,,,4.0,1.0,49.0,3.0,305.86204420006834,,,,,,,,,,,,,,,,,305.8464964000741,307.0615702000214,307.8609589000698,307.8450351000065,,,,,,,,,,,,,,,,,,,,,,,,,,,,,,,,,,,307.8491488000145,307.8609589000698,307.8609589000698,308.5955506999744,g,1.0,0.7250304999761283,,,,,sub-228,1,stroop_test,59.941473146566125,
,,,,50.0,2.0,4.0,,,,,,,,,,,,,rot,red,r,1.0,r,1.0,0.5348819000646472,,,,,,,,,,4.0,2.0,50.0,1.0,308.61041760002263,,,,,,,,,,,,,,,,,308.5960922000231,308.9602179999929,309.7598086000653,309.74394930002745,,,,,,,,,,,,,,,,,,,,,,,,,,,,,,,,,,,309.7445524000796,309.7598086000653,309.7598086000653,310.3105763000204,r,1.0,0.5348819000646472,,,,,sub-228,1,stroop_test,59.941473146566125,
,,,,51.0,3.0,4.0,,,,,,,,,,,,,blau,blue,b,1.0,b,1.0,0.649130699923262,,,,,,,,,,4.0,3.0,51.0,6.0,310.3259897000389,,,,,,,,,,,,,,,,,310.3109459000407,311.52538120001554,312.32491490000393,312.31225359998643,,,,,,,,,,,,,,,,,,,,,,,,,,,,,,,,,,,312.31585969997104,312.32491490000393,312.32491490000393,312.9760071000783,b,1.0,0.649130699923262,,,,,sub-228,1,stroop_test,59.941473146566125,
,,,,52.0,4.0,4.0,,,,,,,,,,,,,rot,red,r,1.0,r,1.0,0.6260425999062136,,,,,,,,,,4.0,4.0,52.0,0.0,312.9912026000675,,,,,,,,,,,,,,,,,312.9764409000054,313.79057620000094,314.5901612000307,314.574495100067,,,,,,,,,,,,,,,,,,,,,,,,,,,,,,,,,,,314.5803964000661,314.5901612000307,314.5901612000307,315.2238398999907,r,1.0,0.6260425999062136,,,,,sub-228,1,stroop_test,59.941473146566125,
,,,,53.0,5.0,4.0,,,,,,,,,,,,,rot,blue,b,0.0,b,1.0,0.8382817000383511,,,,,,,,,,4.0,5.0,53.0,2.0,315.2396142000798,,,,,,,,,,,,,,,,,315.2240335000679,316.0390504000243,316.83872280002106,316.8228776999749,,,,,,,,,,,,,,,,,,,,,,,,,,,,,,,,,,,316.8234552000649,316.83872280002106,316.83872280002106,317.6901030000299,b,1.0,0.8382817000383511,,,,,sub-228,1,stroop_test,59.941473146566125,
,,,,54.0,6.0,4.0,,,,,,,,,,,,,blau,red,r,0.0,r,1.0,0.7056601999793202,,,,,,,,,,4.0,6.0,54.0,4.0,317.70488730003126,,,,,,,,,,,,,,,,,317.6906278000679,317.80481100000907,318.60435460007284,318.5890520999674,,,,,,,,,,,,,,,,,,,,,,,,,,,,,,,,,,,318.59537860006094,318.60435460007284,318.60435460007284,319.32112039998174,r,1.0,0.7056601999793202,,,,,sub-228,1,stroop_test,59.941473146566125,
,,,,55.0,7.0,4.0,,,,,,,,,,,,,gelb,red,r,0.0,r,1.0,0.5978448999812827,,,,,,,,,,4.0,7.0,55.0,8.0,319.3370223999955,,,,,,,,,,,,,,,,,319.32132580003235,319.67043820000254,320.47074730007444,320.4546435000375,,,,,,,,,,,,,,,,,,,,,,,,,,,,,,,,,,,320.46212849998847,320.47074730007444,320.47074730007444,321.0706114000641,r,1.0,0.5978448999812827,,,,,sub-228,1,stroop_test,59.941473146566125,
,,,,56.0,8.0,4.0,,,,,,,,,,,,,gelb,blue,b,0.0,b,1.0,0.6168074000161141,,,,,,,,,,4.0,8.0,56.0,9.0,321.0860236000736,,,,,,,,,,,,,,,,,321.07099210005254,321.18604270007927,321.9856400999706,321.969866600004,,,,,,,,,,,,,,,,,,,,,,,,,,,,,,,,,,,321.9706354000373,321.9856400999706,321.9856400999706,322.6198187000118,b,1.0,0.6168074000161141,,,,,sub-228,1,stroop_test,59.941473146566125,
,,,,57.0,9.0,4.0,,,,,,,,,,,,,gelb,yellow,g,1.0,g,1.0,1.0100937999086457,,,,,,,,,,4.0,9.0,57.0,11.0,322.63513309997506,,,,,,,,,,,,,,,,,322.62025020003784,322.7351039000787,323.53461119998246,323.5183615999995,,,,,,,,,,,,,,,,,,,,,,,,,,,,,,,,,,,323.5186052999925,323.53461119998246,323.53461119998246,324.55116659996565,g,1.0,1.0100937999086457,,,,,sub-228,1,stroop_test,59.941473146566125,
,,,,58.0,10.0,4.0,,,,,,,,,,,,,gelb,yellow,g,1.0,g,1.0,0.907534800004214,,,,,,,,,,4.0,10.0,58.0,10.0,324.5672270000214,,,,,,,,,,,,,,,,,324.5513445000397,325.76667300006375,326.5661549000069,326.5505319000222,,,,,,,,,,,,,,,,,,,,,,,,,,,,,,,,,,,326.5512618999928,326.5661549000069,326.5661549000069,327.4835248000454,g,1.0,0.907534800004214,,,,,sub-228,1,stroop_test,59.941473146566125,
,,,,59.0,11.0,4.0,,,,,,,,,,,,,blau,yellow,g,0.0,g,1.0,2.682251499965787,,,,,,,,,,4.0,11.0,59.0,7.0,327.4987367000431,,,,,,,,,,,,,,,,,327.48393430002034,328.69827970000915,329.4975722000236,329.482238400029,,,,,,,,,,,,,,,,,,,,,,,,,,,,,,,,,,,329.4884142000228,329.4975722000236,329.4975722000236,332.19662930001505,g,1.0,2.682251499965787,,,,,sub-228,1,stroop_test,59.941473146566125,
,,,,60.0,0.0,5.0,,,,,,,,,,,,,blau,yellow,g,0.0,g,1.0,0.725588500034064,,,,,,,,,,5.0,0.0,60.0,7.0,332.21257119998336,,,,,,,,,,,,,,,,,332.19685379997827,332.54583560000174,333.3452439999673,333.3295003999956,,,,,,,,,,,,,,,,,,,,,,,,,,,,,,,,,,,333.3300875000423,333.3452439999673,333.3452439999673,334.0797893999843,g,1.0,0.725588500034064,,,,,sub-228,1,stroop_test,59.941473146566125,
,,,,61.0,1.0,5.0,,,,,,,,,,,,,gelb,blue,b,0.0,b,1.0,0.7563408000860363,,,,,,,,,,5.0,1.0,61.0,9.0,334.0948202,,,,,,,,,,,,,,,,,334.0803180000512,334.8940474999836,335.6939294000622,335.6781136000063,,,,,,,,,,,,,,,,,,,,,,,,,,,,,,,,,,,335.6831286000088,335.6939294000622,335.6939294000622,336.4615036000032,b,1.0,0.7563408000860363,,,,,sub-228,1,stroop_test,59.941473146566125,
,,,,62.0,2.0,5.0,,,,,,,,,,,,,rot,yellow,g,0.0,g,1.0,0.9796317999716848,,,,,,,,,,5.0,2.0,62.0,3.0,336.4766677999869,,,,,,,,,,,,,,,,,336.46195240004454,336.82653920003213,337.62594270007685,337.6101534999907,,,,,,,,,,,,,,,,,,,,,,,,,,,,,,,,,,,337.6148663000204,337.62594270007685,337.62594270007685,338.60984569997527,g,1.0,0.9796317999716848,,,,,sub-228,1,stroop_test,59.941473146566125,
,,,,63.0,3.0,5.0,,,,,,,,,,,,,gelb,red,r,0.0,r,1.0,0.4746143000666052,,,,,,,,,,5.0,3.0,63.0,8.0,338.6252108999761,,,,,,,,,,,,,,,,,338.61021179996897,338.97529149998445,339.7746248000767,339.7586288000457,,,,,,,,,,,,,,,,,,,,,,,,,,,,,,,,,,,339.762055600062,339.7746248000767,339.7746248000767,340.258960200008,r,1.0,0.4746143000666052,,,,,sub-228,1,stroop_test,59.941473146566125,
,,,,64.0,4.0,5.0,,,,,,,,,,,,,rot,red,r,1.0,r,1.0,0.6907771000405774,,,,,,,,,,5.0,4.0,64.0,1.0,340.27414240001235,,,,,,,,,,,,,,,,,340.25939110002946,341.47356329998,342.2731239000568,342.25728040002286,,,,,,,,,,,,,,,,,,,,,,,,,,,,,,,,,,,342.2613646000391,342.2731239000568,342.2731239000568,342.973909500055,r,1.0,0.6907771000405774,,,,,sub-228,1,stroop_test,59.941473146566125,
,,,,65.0,5.0,5.0,,,,,,,,,,,,,rot,red,r,1.0,r,1.0,0.5989488000050187,,,,,,,,,,5.0,5.0,65.0,0.0,342.9892025999725,,,,,,,,,,,,,,,,,342.9742799999658,344.1885740000289,344.9880839000689,344.97243279998656,,,,,,,,,,,,,,,,,,,,,,,,,,,,,,,,,,,344.97322280006483,344.9880839000689,344.9880839000689,345.5899004000239,r,1.0,0.5989488000050187,,,,,sub-228,1,stroop_test,59.941473146566125,
,,,,66.0,6.0,5.0,,,,,,,,,,,,,blau,blue,b,1.0,b,1.0,0.5782732999650761,,,,,,,,,,5.0,6.0,66.0,6.0,345.60446289996617,,,,,,,,,,,,,,,,,345.590605000034,345.9541690000333,346.7545714000007,346.737855900079,,,,,,,,,,,,,,,,,,,,,,,,,,,,,,,,,,,346.7414719000226,346.7545714000007,346.7545714000007,347.3379434000235,b,1.0,0.5782732999650761,,,,,sub-228,1,stroop_test,59.941473146566125,
,,,,67.0,7.0,5.0,,,,,,,,,,,,,blau,red,r,0.0,r,1.0,0.9746065000072122,,,,,,,,,,5.0,7.0,67.0,4.0,347.3531210999936,,,,,,,,,,,,,,,,,347.3383132000454,347.43651260004845,348.2359769999748,348.22020760003943,,,,,,,,,,,,,,,,,,,,,,,,,,,,,,,,,,,348.2208061000565,348.2359769999748,348.2359769999748,349.22014390002005,r,1.0,0.9746065000072122,,,,,sub-228,1,stroop_test,59.941473146566125,
,,,,68.0,8.0,5.0,,,,,,,,,,,,,blau,blue,b,1.0,b,1.0,0.538232299964875,,,,,,,,,,5.0,8.0,68.0,5.0,349.2354531000601,,,,,,,,,,,,,,,,,349.220576700056,350.03501980006695,350.83440749999136,350.8184499000199,,,,,,,,,,,,,,,,,,,,,,,,,,,,,,,,,,,350.818841899978,350.83440749999136,350.83440749999136,351.38565730000846,b,1.0,0.538232299964875,,,,,sub-228,1,stroop_test,59.941473146566125,
,,,,69.0,9.0,5.0,,,,,,,,,,,,,gelb,yellow,g,1.0,g,1.0,0.4686900000087917,,,,,,,,,,5.0,9.0,69.0,11.0,351.4008293000516,,,,,,,,,,,,,,,,,351.3861157000065,352.6002195000183,353.3996246000752,353.3838168999646,,,,,,,,,,,,,,,,,,,,,,,,,,,,,,,,,,,353.38795070000924,353.3996246000752,353.3996246000752,353.88550360000227,g,1.0,0.4686900000087917,,,,,sub-228,1,stroop_test,59.941473146566125,
,,,,70.0,10.0,5.0,,,,,,,,,,,,,gelb,yellow,g,1.0,g,1.0,0.5471571999369189,,,,,,,,,,5.0,10.0,70.0,10.0,353.89924130006693,,,,,,,,,,,,,,,,,353.8863706999691,354.6985732000321,355.49805499997456,355.4817032000283,,,,,,,,,,,,,,,,,,,,,,,,,,,,,,,,,,,355.48197980003897,355.49805499997456,355.49805499997456,356.0503944000229,g,1.0,0.5471571999369189,,,,,sub-228,1,stroop_test,59.941473146566125,
,,,,71.0,11.0,5.0,,,,,,,,,,,,,rot,blue,b,0.0,b,1.0,0.6639503999613225,,,,,,,,,,5.0,11.0,71.0,2.0,356.0645664000185,,,,,,,,,,,,,,,,,356.05107579997275,356.164658099995,356.96398080000654,356.94918400002643,,,,,,,,,,,,,,,,,,,,,,,,,,,,,,,,,,,356.95224959996995,356.96398080000654,356.96398080000654,357.63264780002646,b,1.0,0.6639503999613225,,,,,sub-228,1,stroop_test,59.941473146566125,
,,,,72.0,0.0,6.0,,,,,,,,,,,,,gelb,yellow,g,1.0,g,1.0,0.6343946999404579,,,,,,,,,,6.0,0.0,72.0,11.0,357.6471007000655,,,,,,,,,,,,,,,,,357.6333291999763,358.4465310999658,359.24603699997533,359.23018349998165,,,,,,,,,,,,,,,,,,,,,,,,,,,,,,,,,,,359.23430760006886,359.24603699997533,359.24603699997533,359.89636350004,g,1.0,0.6343946999404579,,,,,sub-228,1,stroop_test,59.941473146566125,
,,,,73.0,1.0,6.0,,,,,,,,,,,,,gelb,blue,b,0.0,b,1.0,0.6980013999855146,,,,,,,,,,6.0,1.0,73.0,9.0,359.91225130006205,,,,,,,,,,,,,,,,,359.8965514000738,360.2453698000172,361.04490229999647,361.0290853000479,,,,,,,,,,,,,,,,,,,,,,,,,,,,,,,,,,,361.02966540004127,361.04490229999647,361.04490229999647,361.7455942999805,b,1.0,0.6980013999855146,,,,,sub-228,1,stroop_test,59.941473146566125,
,,,,74.0,2.0,6.0,,,,,,,,,,,,,gelb,red,r,0.0,r,1.0,0.7626925999065861,,,,,,,,,,6.0,2.0,74.0,8.0,361.7610372999916,,,,,,,,,,,,,,,,,361.7459628999932,361.8610685999738,362.6606719000265,362.645252999966,,,,,,,,,,,,,,,,,,,,,,,,,,,,,,,,,,,362.64620459999423,362.6606719000265,362.6606719000265,363.4285699999891,r,1.0,0.7626925999065861,,,,,sub-228,1,stroop_test,59.941473146566125,
,,,,75.0,3.0,6.0,,,,,,,,,,,,,blau,blue,b,1.0,b,1.0,0.9861151999793948,,,,,,,,,,6.0,3.0,75.0,5.0,363.4434445999796,,,,,,,,,,,,,,,,,363.4290963000385,364.6426224000752,365.4423605999909,365.4264583999757,,,,,,,,,,,,,,,,,,,,,,,,,,,,,,,,,,,365.43088220001664,365.4423605999909,365.4423605999909,366.4433380999835,b,1.0,0.9861151999793948,,,,,sub-228,1,stroop_test,59.941473146566125,
,,,,76.0,4.0,6.0,,,,,,,,,,,,,blau,blue,b,1.0,b,1.0,2.2168940000701696,,,,,,,,,,6.0,4.0,76.0,6.0,366.45819520007353,,,,,,,,,,,,,,,,,366.4439293000614,366.5582041000016,367.3577329000691,367.3419603999937,,,,,,,,,,,,,,,,,,,,,,,,,,,,,,,,,,,367.3426572000608,367.3577329000691,367.3577329000691,369.591001200024,b,1.0,2.2168940000701696,,,,,sub-228,1,stroop_test,59.941473146566125,
,,,,77.0,5.0,6.0,,,,,,,,,,,,,blau,red,r,0.0,r,1.0,1.039614100009203,,,,,,,,,,6.0,5.0,77.0,4.0,369.6063310999889,,,,,,,,,,,,,,,,,369.591448900057,369.9560690000653,370.7555750000756,370.7395355000626,,,,,,,,,,,,,,,,,,,,,,,,,,,,,,,,,,,370.7399703999981,370.7555750000756,370.7555750000756,371.8079580999911,r,1.0,1.039614100009203,,,,,sub-228,1,stroop_test,59.941473146566125,
,,,,78.0,6.0,6.0,,,,,,,,,,,,,blau,yellow,g,0.0,g,1.0,1.6014080999884754,,,,,,,,,,6.0,6.0,78.0,7.0,371.8217448000796,,,,,,,,,,,,,,,,,371.8088293999899,373.0207807000261,373.8203767000232,373.8043619999662,,,,,,,,,,,,,,,,,,,,,,,,,,,,,,,,,,,373.8048621000489,373.8203767000232,373.8203767000232,375.4374302000506,g,1.0,1.6014080999884754,,,,,sub-228,1,stroop_test,59.941473146566125,
,,,,79.0,7.0,6.0,,,,,,,,,,,,,gelb,yellow,g,1.0,g,1.0,0.750064899912104,,,,,,,,,,6.0,7.0,79.0,10.0,375.4524241000181,,,,,,,,,,,,,,,,,375.4378602000652,376.6521564000286,377.4514794000424,377.4356377000222,,,,,,,,,,,,,,,,,,,,,,,,,,,,,,,,,,,377.4398293000413,377.4514794000424,377.4514794000424,378.204026899999,g,1.0,0.750064899912104,,,,,sub-228,1,stroop_test,59.941473146566125,
,,,,80.0,8.0,6.0,,,,,,,,,,,,,rot,blue,b,0.0,b,1.0,1.2865739000262693,,,,,,,,,,6.0,8.0,80.0,2.0,378.2177706999937,,,,,,,,,,,,,,,,,378.20470280002337,379.4169264000375,380.2164224999724,380.20078630000353,,,,,,,,,,,,,,,,,,,,,,,,,,,,,,,,,,,380.20640530006494,380.2164224999724,380.2164224999724,381.5170628000051,b,1.0,1.2865739000262693,,,,,sub-228,1,stroop_test,59.941473146566125,
,,,,81.0,9.0,6.0,,,,,,,,,,,,,rot,red,r,1.0,r,1.0,0.5585443000309169,,,,,,,,,,6.0,9.0,81.0,1.0,381.5322210000595,,,,,,,,,,,,,,,,,381.5175098000327,382.7312973000808,383.5310583000537,383.5151177999796,,,,,,,,,,,,,,,,,,,,,,,,,,,,,,,,,,,383.51574830000754,383.5310583000537,383.5310583000537,384.0981477000751,r,1.0,0.5585443000309169,,,,,sub-228,1,stroop_test,59.941473146566125,
,,,,82.0,10.0,6.0,,,,,,,,,,,,,rot,red,r,1.0,r,1.0,0.5159354000352323,,,,,,,,,,6.0,10.0,82.0,0.0,384.11395739996806,,,,,,,,,,,,,,,,,384.0984285000013,385.3133347000694,386.11292039998807,386.0973531000782,,,,,,,,,,,,,,,,,,,,,,,,,,,,,,,,,,,386.09827710001264,386.11292039998807,386.11292039998807,386.6305557000451,r,1.0,0.5159354000352323,,,,,sub-228,1,stroop_test,59.941473146566125,
,,,,83.0,11.0,6.0,,,,,,,,,,,,,rot,yellow,g,0.0,g,1.0,0.7817373999860138,,,,,,,,,,6.0,11.0,83.0,3.0,386.6457386000548,,,,,,,,,,,,,,,,,386.6309446999803,387.8450692000333,388.6446276999777,388.6288352999836,,,,,,,,,,,,,,,,,,,,,,,,,,,,,,,,,,,388.6302450000076,388.6446276999777,388.6446276999777,389.4276520999847,g,1.0,0.7817373999860138,,,,,sub-228,1,stroop_test,59.941473146566125,
,,,,84.0,0.0,7.0,,,,,,,,,,,,,rot,red,r,1.0,r,1.0,0.6908214000286534,,,,,,,,,,7.0,0.0,84.0,0.0,389.44369139999617,,,,,,,,,,,,,,,,,389.4278394000139,390.6266699000262,391.4262966000242,391.4107673000544,,,,,,,,,,,,,,,,,,,,,,,,,,,,,,,,,,,391.4117113000248,391.4262966000242,391.4262966000242,392.1264719000319,r,1.0,0.6908214000286534,,,,,sub-228,1,stroop_test,59.941473146566125,
,,,,85.0,1.0,7.0,,,,,,,,,,,,,blau,blue,b,1.0,b,1.0,0.630653600092046,,,,,,,,,,7.0,1.0,85.0,6.0,392.142420600052,,,,,,,,,,,,,,,,,392.1266569000436,393.3417585999705,394.14108510001097,394.1252460000105,,,,,,,,,,,,,,,,,,,,,,,,,,,,,,,,,,,394.1359349000268,394.14108510001097,394.14108510001097,394.7754390999908,b,1.0,0.630653600092046,,,,,sub-228,1,stroop_test,59.941473146566125,
,,,,86.0,2.0,7.0,,,,,,,,,,,,,gelb,blue,b,0.0,b,1.0,0.784583400003612,,,,,,,,,,7.0,2.0,86.0,9.0,394.7907692000736,,,,,,,,,,,,,,,,,394.7758107000264,395.14052939997055,395.9401446999982,395.9243417000398,,,,,,,,,,,,,,,,,,,,,,,,,,,,,,,,,,,395.9285020000534,395.9401446999982,395.9401446999982,396.7410163000459,b,1.0,0.784583400003612,,,,,sub-228,1,stroop_test,59.941473146566125,
,,,,87.0,3.0,7.0,,,,,,,,,,,,,blau,red,r,0.0,r,1.0,1.0480394000187516,,,,,,,,,,7.0,3.0,87.0,4.0,396.75626699998975,,,,,,,,,,,,,,,,,396.7414235000033,397.5557553999824,398.3552986000432,398.3387134000659,,,,,,,,,,,,,,,,,,,,,,,,,,,,,,,,,,,398.34395400004,398.3552986000432,398.3552986000432,399.4077914999798,r,1.0,1.0480394000187516,,,,,sub-228,1,stroop_test,59.941473146566125,
,,,,88.0,4.0,7.0,,,,,,,,,,,,,gelb,red,r,0.0,r,1.0,0.5548609999241307,,,,,,,,,,7.0,4.0,88.0,8.0,399.4212009999901,,,,,,,,,,,,,,,,,399.4086839000229,400.6205401000334,401.419986300054,401.4042292999802,,,,,,,,,,,,,,,,,,,,,,,,,,,,,,,,,,,401.40845910005737,401.419986300054,401.419986300054,401.9877117000288,r,1.0,0.5548609999241307,,,,,sub-228,1,stroop_test,59.941473146566125,
,,,,89.0,5.0,7.0,,,,,,,,,,,,,blau,yellow,g,0.0,g,1.0,0.5156935000559315,,,,,,,,,,7.0,5.0,89.0,7.0,402.0029837000184,,,,,,,,,,,,,,,,,401.9881457000738,402.1030112999724,402.9025463999714,402.8869441000279,,,,,,,,,,,,,,,,,,,,,,,,,,,,,,,,,,,402.8914686000208,402.9025463999714,402.9025463999714,403.4211096999934,g,1.0,0.5156935000559315,,,,,sub-228,1,stroop_test,59.941473146566125,
,,,,90.0,6.0,7.0,,,,,,,,,,,,,blau,blue,b,1.0,b,1.0,0.5312727000564337,,,,,,,,,,7.0,6.0,90.0,5.0,403.435498900013,,,,,,,,,,,,,,,,,403.4217976999935,404.2349069999764,405.0345747000538,405.0191540999804,,,,,,,,,,,,,,,,,,,,,,,,,,,,,,,,,,,405.02010059996974,405.0345747000538,405.0345747000538,405.56891859998,b,1.0,0.5312727000564337,,,,,sub-228,1,stroop_test,59.941473146566125,
,,,,91.0,7.0,7.0,,,,,,,,,,,,,gelb,yellow,g,1.0,g,1.0,0.7380421999841928,,,,,,,,,,7.0,7.0,91.0,10.0,405.5841112000635,,,,,,,,,,,,,,,,,405.56939409999177,405.6840245000785,406.4836209000787,406.46763890003785,,,,,,,,,,,,,,,,,,,,,,,,,,,,,,,,,,,406.4711257000454,406.4836209000787,406.4836209000787,407.23379920003936,g,1.0,0.7380421999841928,,,,,sub-228,1,stroop_test,59.941473146566125,
,,,,92.0,8.0,7.0,,,,,,,,,,,,,rot,yellow,g,0.0,g,1.0,0.6339050000533462,,,,,,,,,,7.0,8.0,92.0,3.0,407.2498182000127,,,,,,,,,,,,,,,,,407.23398550006095,408.04935530002695,408.8488032000605,408.8326388000278,,,,,,,,,,,,,,,,,,,,,,,,,,,,,,,,,,,408.8357720000204,408.8488032000605,408.8488032000605,409.49956909997854,g,1.0,0.6339050000533462,,,,,sub-228,1,stroop_test,59.941473146566125,
,,,,93.0,9.0,7.0,,,,,,,,,,,,,rot,blue,b,0.0,b,1.0,0.6228159999009222,,,,,,,,,,7.0,9.0,93.0,2.0,409.51502559997607,,,,,,,,,,,,,,,,,409.4999408000149,410.3145133000799,411.1141174000222,411.09835520002525,,,,,,,,,,,,,,,,,,,,,,,,,,,,,,,,,,,411.0989319999935,411.1141174000222,411.1141174000222,411.7487562000752,b,1.0,0.6228159999009222,,,,,sub-228,1,stroop_test,59.941473146566125,
,,,,94.0,10.0,7.0,,,,,,,,,,,,,rot,red,r,1.0,r,1.0,0.6042397000128403,,,,,,,,,,7.0,10.0,94.0,1.0,411.7636786999647,,,,,,,,,,,,,,,,,411.74928009998985,412.113484499976,412.9127992000431,412.8965601000236,,,,,,,,,,,,,,,,,,,,,,,,,,,,,,,,,,,412.89688060001936,412.9127992000431,412.9127992000431,413.5314470999874,r,1.0,0.6042397000128403,,,,,sub-228,1,stroop_test,59.941473146566125,
,,,,95.0,11.0,7.0,,,,,,,,,,,,,gelb,yellow,g,1.0,g,1.0,0.4652196000097319,,,,,,,,,,7.0,11.0,95.0,11.0,413.5459689999698,,,,,,,,,,,,,,,,,413.5321235000156,414.34543109999504,415.1449711000314,415.1290872000391,,,,,,,,,,,,,,,,,,,,,,,,,,,,,,,,,,,415.1331563000567,415.1449711000314,415.1449711000314,415.61279599997215,g,1.0,0.4652196000097319,,,,,sub-228,1,stroop_test,59.941473146566125,
,,,,96.0,0.0,8.0,,,,,,,,,,,,,blau,yellow,g,0.0,g,1.0,0.777883299975656,,,,,,,,,,8.0,0.0,96.0,7.0,415.6279881000519,,,,,,,,,,,,,,,,,415.6132031000452,415.7279299000511,416.5274727999931,416.51153780007735,,,,,,,,,,,,,,,,,,,,,,,,,,,,,,,,,,,416.5151762000751,416.5274727999931,416.5274727999931,417.3114138999954,g,1.0,0.777883299975656,,,,,sub-228,1,stroop_test,59.941473146566125,
,,,,97.0,1.0,8.0,,,,,,,,,,,,,gelb,red,r,0.0,r,1.0,0.5665620000800118,,,,,,,,,,8.0,1.0,97.0,8.0,417.3268456000369,,,,,,,,,,,,,,,,,417.31178760004696,417.42679170006886,418.22638000000734,418.2105639000656,,,,,,,,,,,,,,,,,,,,,,,,,,,,,,,,,,,418.2152952000033,418.22638000000734,418.22638000000734,418.7943660999881,r,1.0,0.5665620000800118,,,,,sub-228,1,stroop_test,59.941473146566125,
,,,,98.0,2.0,8.0,,,,,,,,,,,,,rot,yellow,g,0.0,g,1.0,0.7024305000668392,,,,,,,,,,8.0,2.0,98.0,3.0,418.80927229998633,,,,,,,,,,,,,,,,,418.79473650001455,420.0086865000194,420.80806020007,420.7924265000038,,,,,,,,,,,,,,,,,,,,,,,,,,,,,,,,,,,420.7977294999873,420.80806020007,420.80806020007,421.52556590002496,g,1.0,0.7024305000668392,,,,,sub-228,1,stroop_test,59.941473146566125,
,,,,99.0,3.0,8.0,,,,,,,,,,,,,gelb,blue,b,0.0,b,1.0,0.4138168999925256,,,,,,,,,,8.0,3.0,99.0,9.0,421.5409782000352,,,,,,,,,,,,,,,,,421.5259350000415,422.7403472000733,423.53970870003104,423.52355240006,,,,,,,,,,,,,,,,,,,,,,,,,,,,,,,,,,,423.5257008000044,423.53970870003104,423.53970870003104,423.9576117000543,b,1.0,0.4138168999925256,,,,,sub-228,1,stroop_test,59.941473146566125,
,,,,100.0,4.0,8.0,,,,,,,,,,,,,blau,blue,b,1.0,b,1.0,0.4909353000111878,,,,,,,,,,8.0,4.0,100.0,6.0,423.972865800024,,,,,,,,,,,,,,,,,423.9580493000103,424.3223759999965,425.12215279997326,425.1064424000215,,,,,,,,,,,,,,,,,,,,,,,,,,,,,,,,,,,425.11172980000265,425.12215279997326,425.12215279997326,425.624061700073,b,1.0,0.4909353000111878,,,,,sub-228,1,stroop_test,59.941473146566125,
,,,,101.0,5.0,8.0,,,,,,,,,,,,,gelb,yellow,g,1.0,g,1.0,0.5913656000047922,,,,,,,,,,8.0,5.0,101.0,10.0,425.6385727999732,,,,,,,,,,,,,,,,,425.6247499000747,426.8377373999683,427.63729069998953,427.6215710999677,,,,,,,,,,,,,,,,,,,,,,,,,,,,,,,,,,,427.6268044000026,427.63729069998953,427.63729069998953,428.23864440002944,g,1.0,0.5913656000047922,,,,,sub-228,1,stroop_test,59.941473146566125,
,,,,102.0,6.0,8.0,,,,,,,,,,,,,blau,red,r,0.0,r,1.0,0.6159101999364793,,,,,,,,,,8.0,6.0,102.0,4.0,428.2537105999654,,,,,,,,,,,,,,,,,428.2391750999959,429.4528265000554,430.2524785000133,430.2365131999832,,,,,,,,,,,,,,,,,,,,,,,,,,,,,,,,,,,430.2400927999988,430.2524785000133,430.2524785000133,430.8714578000363,r,1.0,0.6159101999364793,,,,,sub-228,1,stroop_test,59.941473146566125,
,,,,103.0,7.0,8.0,,,,,,,,,,,,,rot,red,r,1.0,r,1.0,0.7637051000492647,,,,,,,,,,8.0,7.0,103.0,1.0,430.8853654999984,,,,,,,,,,,,,,,,,430.872232099995,431.6849727999652,432.48427090002224,432.4682369000511,,,,,,,,,,,,,,,,,,,,,,,,,,,,,,,,,,,432.4717026000144,432.48427090002224,432.48427090002224,433.2550250000786,r,1.0,0.7637051000492647,,,,,sub-228,1,stroop_test,59.941473146566125,
,,,,104.0,8.0,8.0,,,,,,,,,,,,,gelb,yellow,g,1.0,g,1.0,0.5145842999918386,,,,,,,,,,8.0,8.0,104.0,11.0,433.26707060006447,,,,,,,,,,,,,,,,,433.2554571999936,434.0666543999687,434.8661182000069,434.8500396000454,,,,,,,,,,,,,,,,,,,,,,,,,,,,,,,,,,,434.8532609000104,434.8661182000069,434.8661182000069,435.38431430002674,g,1.0,0.5145842999918386,,,,,sub-228,1,stroop_test,59.941473146566125,
,,,,105.0,9.0,8.0,,,,,,,,,,,,,rot,red,r,1.0,r,1.0,0.559451499953866,,,,,,,,,,8.0,9.0,105.0,0.0,435.39917580003385,,,,,,,,,,,,,,,,,435.3848402000731,436.5985881000525,437.3979871000629,437.381767700077,,,,,,,,,,,,,,,,,,,,,,,,,,,,,,,,,,,437.3850028000306,437.3979871000629,437.3979871000629,437.9670434000436,r,1.0,0.559451499953866,,,,,sub-228,1,stroop_test,59.941473146566125,
,,,,106.0,10.0,8.0,,,,,,,,,,,,,rot,blue,b,0.0,b,1.0,0.6773502000141889,,,,,,,,,,8.0,10.0,106.0,2.0,437.9810063000768,,,,,,,,,,,,,,,,,437.9678026000038,438.7805176000111,439.5799612000119,439.56392780004535,,,,,,,,,,,,,,,,,,,,,,,,,,,,,,,,,,,439.564356100047,439.5799612000119,439.5799612000119,440.2641718999949,b,1.0,0.6773502000141889,,,,,sub-228,1,stroop_test,59.941473146566125,
,,,,107.0,11.0,8.0,,,,,,,,,,,,,blau,blue,b,1.0,b,1.0,0.4733291999436915,,,,,,,,,,8.0,11.0,107.0,5.0,440.2794884999748,,,,,,,,,,,,,,,,,440.2646044000285,440.6291883999948,441.4287912000436,441.4125308999792,,,,,,,,,,,,,,,,,,,,,,,,,,,,,,,,,,,441.4147950999904,441.4287912000436,441.4287912000436,441.9131309000077,b,1.0,0.4733291999436915,,,,,sub-228,1,stroop_test,59.941473146566125,
,,,,108.0,0.0,9.0,,,,,,,,,,,,,blau,blue,b,1.0,b,1.0,0.4780930000124499,,,,,,,,,,9.0,0.0,108.0,5.0,441.9283877999988,,,,,,,,,,,,,,,,,441.91351780004334,442.7279734000331,443.5272500000429,443.5116628999822,,,,,,,,,,,,,,,,,,,,,,,,,,,,,,,,,,,443.5122505000327,443.5272500000429,443.5272500000429,444.01135659997817,b,1.0,0.4780930000124499,,,,,sub-228,1,stroop_test,59.941473146566125,
,,,,109.0,1.0,9.0,,,,,,,,,,,,,gelb,red,r,0.0,r,1.0,1.2455721999285745,,,,,,,,,,9.0,1.0,109.0,8.0,444.0269634000724,,,,,,,,,,,,,,,,,444.0115919000236,445.2266319000628,446.02591820003,446.0102774000261,,,,,,,,,,,,,,,,,,,,,,,,,,,,,,,,,,,446.0158872000175,446.02591820003,446.02591820003,447.2754989999812,r,1.0,1.2455721999285745,,,,,sub-228,1,stroop_test,59.941473146566125,
,,,,110.0,2.0,9.0,,,,,,,,,,,,,rot,blue,b,0.0,b,1.0,0.794642599998042,,,,,,,,,,9.0,2.0,110.0,2.0,447.2918164000148,,,,,,,,,,,,,,,,,447.27568800002337,448.07467220001854,448.87420399999246,448.8592850000132,,,,,,,,,,,,,,,,,,,,,,,,,,,,,,,,,,,448.86689579999074,448.87420399999246,448.87420399999246,449.6739174000686,b,1.0,0.794642599998042,,,,,sub-228,1,stroop_test,59.941473146566125,
,,,,111.0,3.0,9.0,,,,,,,,,,,,,rot,red,r,1.0,r,1.0,0.5737109000328928,,,,,,,,,,9.0,3.0,111.0,0.0,449.6899759999942,,,,,,,,,,,,,,,,,449.6741073000012,450.889579800074,451.6893322999822,451.6733800000511,,,,,,,,,,,,,,,,,,,,,,,,,,,,,,,,,,,451.67411210003775,451.6893322999822,451.6893322999822,452.2739765000297,r,1.0,0.5737109000328928,,,,,sub-228,1,stroop_test,59.941473146566125,
,,,,112.0,4.0,9.0,,,,,,,,,,,,,blau,yellow,g,0.0,g,1.0,0.7130359000293538,,,,,,,,,,9.0,4.0,112.0,7.0,452.28877360001206,,,,,,,,,,,,,,,,,452.2745036999695,453.4877340999665,454.2874891000101,454.2719214999816,,,,,,,,,,,,,,,,,,,,,,,,,,,,,,,,,,,454.2767372999806,454.2874891000101,454.2874891000101,455.00515340000857,g,1.0,0.7130359000293538,,,,,sub-228,1,stroop_test,59.941473146566125,
,,,,113.0,5.0,9.0,,,,,,,,,,,,,blau,blue,b,1.0,b,1.0,0.5851407999871299,,,,,,,,,,9.0,5.0,113.0,6.0,455.0203988000285,,,,,,,,,,,,,,,,,455.0055841000285,455.81995300005656,456.6191918000113,456.60410050000064,,,,,,,,,,,,,,,,,,,,,,,,,,,,,,,,,,,456.60489550000057,456.6191918000113,456.6191918000113,457.22053380007856,b,1.0,0.5851407999871299,,,,,sub-228,1,stroop_test,59.941473146566125,
,,,,114.0,6.0,9.0,,,,,,,,,,,,,rot,yellow,g,0.0,g,1.0,0.981995700043626,,,,,,,,,,9.0,6.0,114.0,3.0,457.23567259998526,,,,,,,,,,,,,,,,,457.2209659999935,458.4349878000794,459.23449160007294,459.2186055000639,,,,,,,,,,,,,,,,,,,,,,,,,,,,,,,,,,,459.2227281000232,459.23449160007294,459.23449160007294,460.2186972000636,g,1.0,0.981995700043626,,,,,sub-228,1,stroop_test,59.941473146566125,
,,,,115.0,7.0,9.0,,,,,,,,,,,,,gelb,yellow,g,1.0,g,1.0,0.9101695000426844,,,,,,,,,,9.0,7.0,115.0,10.0,460.2338365999749,,,,,,,,,,,,,,,,,460.2191365000326,461.4331215000712,462.2326137999771,462.2169553000713,,,,,,,,,,,,,,,,,,,,,,,,,,,,,,,,,,,462.2228142999811,462.2326137999771,462.2326137999771,463.150192799978,g,1.0,0.9101695000426844,,,,,sub-228,1,stroop_test,59.941473146566125,
,,,,116.0,8.0,9.0,,,,,,,,,,,,,rot,red,r,1.0,r,1.0,1.0643827999010682,,,,,,,,,,9.0,8.0,116.0,1.0,463.1653861000668,,,,,,,,,,,,,,,,,463.15062339999713,463.964968400076,464.7643814000767,464.7489254999673,,,,,,,,,,,,,,,,,,,,,,,,,,,,,,,,,,,464.7539742999943,464.7643814000767,464.7643814000767,465.8314983000746,r,1.0,1.0643827999010682,,,,,sub-228,1,stroop_test,59.941473146566125,
,,,,117.0,9.0,9.0,,,,,,,,,,,,,gelb,yellow,g,1.0,g,1.0,0.8094435000093654,,,,,,,,,,9.0,9.0,117.0,11.0,465.8470976999961,,,,,,,,,,,,,,,,,465.8317960000131,466.1968927000416,466.99611539999023,466.98049059999175,,,,,,,,,,,,,,,,,,,,,,,,,,,,,,,,,,,466.9841551000718,466.99611539999023,466.99611539999023,467.8140343000414,g,1.0,0.8094435000093654,,,,,sub-228,1,stroop_test,59.941473146566125,
,,,,118.0,10.0,9.0,,,,,,,,,,,,,gelb,blue,b,0.0,b,1.0,0.8958276000339538,,,,,,,,,,9.0,10.0,118.0,9.0,467.8291456999723,,,,,,,,,,,,,,,,,467.8144687999738,467.9292868999764,468.7287066000281,468.7130099000642,,,,,,,,,,,,,,,,,,,,,,,,,,,,,,,,,,,468.71371789998375,468.7287066000281,468.7287066000281,469.6287789000198,b,1.0,0.8958276000339538,,,,,sub-228,1,stroop_test,59.941473146566125,
,,,,119.0,11.0,9.0,,,,,,,,,,,,,blau,red,r,0.0,r,1.0,0.8382250999566168,,,,,,,,,,9.0,11.0,119.0,4.0,469.6446246000705,,,,,,,,,,,,,,,,,469.6290032999823,469.9778428999707,470.7773551000282,470.7615392999724,,,,,,,,,,,,,,,,,,,,,,,,,,,,,,,,,,,470.76515430002473,470.7773551000282,470.7773551000282,471.6286815999774,r,1.0,0.8382250999566168,,,,,sub-228,1,stroop_test,59.941473146566125,
,,,,,,,,,,,,,,,,,,,,,,,,,,,,,,,,,,,,,,,,,,,,,,,,,,,,,,,,,,,,,,,,,,,,,,,,,,,,,,,,,,,,,,,,,,,,,,,,,,,,,,471.628957399982,471.643672300037,476.6406465000473,sub-228,1,stroop_test,59.941473146566125,
