wordCTK,colorCTK,corrAnsCTK,congruentCTK,thisN,thisTrialN,thisRepN,keyResp_CTK.keys,keyResp_CTK.corr,keyResp_CTK.rt,keyResp_CTK.duration,wordPractice,colorPractice,corrAnsPractice,congruentPractice,respPractice.keys,respPractice.corr,respPractice.rt,respPractice.duration,word,color,corrAns,congruent,keyResp_test_run.keys,keyResp_test_run.corr,keyResp_test_run.rt,keyResp_test_run.duration,trials_CTK.thisRepN,trials_CTK.thisTrialN,trials_CTK.thisN,trials_CTK.thisIndex,trials_practice.thisRepN,trials_practice.thisTrialN,trials_practice.thisN,trials_practice.thisIndex,trials_test.thisRepN,trials_test.thisTrialN,trials_test.thisN,trials_test.thisIndex,thisRow.t,notes,instruction.started,instr_text.started,instr_image.started,instr_resp.started,instruction.stopped,instr_resp.keys,instr_resp.rt,instr_resp.duration,instr_color_to_key.started,instr_ctk.started,resp_ctk.started,instr_color_to_key.stopped,resp_ctk.keys,resp_ctk.rt,resp_ctk.duration,ITI.started,fixcross.started,fixcross.stopped,ITI.stopped,color_to_key_run.started,stimulus_CTK.started,keyResp_CTK.started,color_to_key_run.stopped,trials_CTK.keyResp_CTK.keys,trials_CTK.keyResp_CTK.corr,trials_CTK.keyResp_CTK.rt,trials_CTK.keyResp_CTK.duration,instr_practice.started,instr_practice_text.started,instr_practice_resp.started,instr_practice.stopped,instr_practice_resp.keys,instr_practice_resp.rt,instr_practice_resp.duration,practice_run.started,stimulus_practice.started,respPractice.started,practice_run.stopped,trials_practice.respPractice.keys,trials_practice.respPractice.corr,trials_practice.respPractice.rt,trials_practice.respPractice.duration,feedback.started,textFeedback.started,textFeedback.stopped,feedback.stopped,instr_test.started,instr_test_text.started,instr_test_resp.started,instr_test.stopped,instr_test_resp.keys,instr_test_resp.rt,instr_test_resp.duration,test_run.started,stimulus_test_run.started,keyResp_test_run.started,test_run.stopped,trials_test.keyResp_test_run.keys,trials_test.keyResp_test_run.corr,trials_test.keyResp_test_run.rt,trials_test.keyResp_test_run.duration,goodbye.started,textGoodbye.started,goodbye.stopped,participant,session,expName,frameRate,Unnamed: 112
,,,,,,,,,,,,,,,,,,,,,,,,,,,,,,,,,,,,,,,,,0.007641099859029,0.0215330999344587,0.0215330999344587,0.0215330999344587,84.16953599988483,space,84.11776319984347,,,,,,,,,,,,,,,,,,,,,,,,,,,,,,,,,,,,,,,,,,,,,,,,,,,,,,,,,,sub-032,1,stroop_test,60.45002630053592,
,,,,,,,,,,,,,,,,,,,,,,,,,,,,,,,,,,,,,,,,,,,,,,,,,84.16962319985032,84.17784599983133,84.17784599983133,89.76509059988894,space,5.571536399889737,,,,,,,,,,,,,,,,,,,,,,,,,,,,,,,,,,,,,,,,,,,,,,,,,,,sub-032,1,stroop_test,60.45002630053592,
test,blue,b,1.0,0.0,0.0,0.0,r,0.0,2.969408799894154,,,,,,,,,,,,,,,,,,0.0,0.0,0.0,2.0,,,,,,,,,89.78353539993986,,,,,,,,,,,,,,,,,89.77754219993949,90.56558119994588,91.365241299849,91.34979409980588,91.35462199989706,91.365241299849,91.365241299849,94.35000319988468,r,0.0,2.969408799894154,,,,,,,,,,,,,,,,,,,,,,,,,,,,,,,,,,,,,,,sub-032,1,stroop_test,60.45002630053592,
test,red,r,1.0,1.0,1.0,0.0,r,1.0,2.24787040008232,,,,,,,,,,,,,,,,,,0.0,1.0,1.0,0.0,,,,,,,,,94.36513079982252,,,,,,,,,,,,,,,,,94.35036179982126,94.46426049992442,95.26518999994732,95.24929779977538,95.24977579992265,95.26518999994732,95.26518999994732,97.51607839995997,r,1.0,2.24787040008232,,,,,,,,,,,,,,,,,,,,,,,,,,,,,,,,,,,,,,,sub-032,1,stroop_test,60.45002630053592,
test,yellow,g,1.0,2.0,2.0,0.0,g,1.0,0.9271154999732972,,,,,,,,,,,,,,,,,,0.0,2.0,2.0,1.0,,,,,,,,,97.53148639993742,,,,,,,,,,,,,,,,,97.51645309990272,98.33209339994936,99.13195209996776,99.11593179986812,99.11645649978892,99.13195209996776,99.13195209996776,100.0664121999871,g,1.0,0.9271154999732972,,,,,,,,,,,,,,,,,,,,,,,,,,,,,,,,,,,,,,,sub-032,1,stroop_test,60.45002630053592,
test,red,r,1.0,3.0,0.0,1.0,r,1.0,0.9680153999943286,,,,,,,,,,,,,,,,,,1.0,0.0,3.0,0.0,,,,,,,,,100.0821284998674,,,,,,,,,,,,,,,,,100.06677269982174,101.28181459987536,102.08164919982664,102.06550459982827,102.06593339983374,102.08164919982664,102.08164919982664,103.06551529979332,r,1.0,0.9680153999943286,,,,,,,,,,,,,,,,,,,,,,,,,,,,,,,,,,,,,,,sub-032,1,stroop_test,60.45002630053592,
test,yellow,g,1.0,4.0,1.0,1.0,g,1.0,0.9157296000048518,,,,,,,,,,,,,,,,,,1.0,1.0,4.0,1.0,,,,,,,,,103.0815460998565,,,,,,,,,,,,,,,,,103.06586719979532,103.86539639998227,104.6647557998076,104.6494125998579,104.64986699982546,104.6647557998076,104.6647557998076,105.5831007999368,g,1.0,0.9157296000048518,,,,,,,,,,,,,,,,,,,,,,,,,,,,,,,,,,,,,,,sub-032,1,stroop_test,60.45002630053592,
test,blue,b,1.0,5.0,2.0,1.0,b,1.0,0.5941505001392215,,,,,,,,,,,,,,,,,,1.0,2.0,5.0,2.0,,,,,,,,,105.59844859992154,,,,,,,,,,,,,,,,,105.58346289978364,105.69796079979278,106.4984359999653,106.48238889989445,106.48287549987435,106.4984359999653,106.4984359999653,107.10004019993356,b,1.0,0.5941505001392215,,,,,,,,,,,,,,,,,,,,,,,,,,,,,,,,,,,,,,,sub-032,1,stroop_test,60.45002630053592,
test,yellow,g,1.0,6.0,0.0,2.0,g,1.0,0.5344010000117123,,,,,,,,,,,,,,,,,,2.0,0.0,6.0,1.0,,,,,,,,,107.11472659977152,,,,,,,,,,,,,,,,,107.10031829983927,107.2150224999059,108.01456829998642,107.99868259998038,107.99914999981412,108.01456829998642,108.01456829998642,108.55039639980532,g,1.0,0.5344010000117123,,,,,,,,,,,,,,,,,,,,,,,,,,,,,,,,,,,,,,,sub-032,1,stroop_test,60.45002630053592,
test,blue,b,1.0,7.0,1.0,2.0,b,1.0,0.5996999000199139,,,,,,,,,,,,,,,,,,2.0,1.0,7.0,2.0,,,,,,,,,108.56563189998268,,,,,,,,,,,,,,,,,108.55068539991044,109.76472519990055,110.565666699782,110.54937179991975,110.5498129997868,110.565666699782,110.565666699782,111.1829473997932,b,1.0,0.5996999000199139,,,,,,,,,,,,,,,,,,,,,,,,,,,,,,,,,,,,,,,sub-032,1,stroop_test,60.45002630053592,
test,red,r,1.0,8.0,2.0,2.0,r,1.0,0.6442370000295341,,,,,,,,,,,,,,,,,,2.0,2.0,8.0,0.0,,,,,,,,,111.198404799914,,,,,,,,,,,,,,,,,111.18329029995948,111.2819932999555,112.0816345999483,112.06623269990088,112.06668089982122,112.0816345999483,112.0816345999483,112.73313399986364,r,1.0,0.6442370000295341,,,,,,,,,,,,,,,,,,,,,,,,,,,,,,,,,,,,,,,sub-032,1,stroop_test,60.45002630053592,
test,yellow,g,1.0,9.0,0.0,3.0,g,1.0,0.8913473000284284,,,,,,,,,,,,,,,,,,3.0,0.0,9.0,1.0,,,,,,,,,112.74855349981226,,,,,,,,,,,,,,,,,112.7334605997894,112.84913159999996,113.64843339985237,113.63255719980224,113.63298639981076,113.64843339985237,113.64843339985237,114.54926439980044,g,1.0,0.8913473000284284,,,,,,,,,,,,,,,,,,,,,,,,,,,,,,,,,,,,,,,sub-032,1,stroop_test,60.45002630053592,
test,red,r,1.0,10.0,1.0,3.0,r,1.0,0.6475907999556512,,,,,,,,,,,,,,,,,,3.0,1.0,10.0,0.0,,,,,,,,,114.56483379984276,,,,,,,,,,,,,,,,,114.54960229992868,115.76475559989922,116.56538509996608,116.54932949994692,116.54982219985686,116.56538509996608,116.56538509996608,117.2160011997912,r,1.0,0.6475907999556512,,,,,,,,,,,,,,,,,,,,,,,,,,,,,,,,,,,,,,,sub-032,1,stroop_test,60.45002630053592,
test,blue,b,1.0,11.0,2.0,3.0,b,1.0,0.884822100168094,,,,,,,,,,,,,,,,,,3.0,2.0,11.0,2.0,,,,,,,,,117.2318611999508,,,,,,,,,,,,,,,,,117.21632119989954,118.43196899979375,119.23198139993474,119.2161124998238,119.2165323998779,119.23198139993474,119.23198139993474,120.13290389999749,b,1.0,0.884822100168094,,,,,,,,,,,,,,,,,,,,,,,,,,,,,,,,,,,,,,,sub-032,1,stroop_test,60.45002630053592,
,,,,,,,,,,,,,,,,,,,,,,,,,,,,,,,,,,,,,,,,,,,,,,,,,,,,,,,,,,,,,,,,,,,,120.13303559995256,120.1484397999011,120.1484397999011,135.89961739978753,space,15.740189499920234,,,,,,,,,,,,,,,,,,,,,,,,,,,,,,,,sub-032,1,stroop_test,60.45002630053592,
,,,,0.0,0.0,0.0,,,,,gelb,blue,b,0.0,g,0.0,0.907758800080046,,,,,,,,,,,,,,0.0,0.0,0.0,9.0,,,,,135.92781589995138,,,,,,,,,,,,,,,,,135.92135759978555,136.24832359980792,137.0473763998598,137.03168769995682,,,,,,,,,,,,,,,,137.0367131999228,137.0473763998598,137.0473763998598,137.96658929996192,g,0.0,0.907758800080046,,137.97305579995736,137.98150329990312,138.98219559993595,138.9658384998329,,,,,,,,,,,,,,,,,,,sub-032,1,stroop_test,60.45002630053592,
,,,,1.0,1.0,0.0,,,,,blau,red,r,0.0,r,1.0,2.011472500162199,,,,,,,,,,,,,,0.0,1.0,1.0,4.0,,,,,138.98219559993595,,,,,,,,,,,,,,,,,138.9661843997892,139.7657685999293,140.5653433999978,140.54953819978982,,,,,,,,,,,,,,,,140.5536662999075,140.5653433999978,140.5653433999978,142.58310579997487,r,1.0,2.011472500162199,,142.5876661997754,142.59840499982238,143.5973283997737,143.58209739997983,,,,,,,,,,,,,,,,,,,sub-032,1,stroop_test,60.45002630053592,
,,,,2.0,2.0,0.0,,,,,blau,blue,b,1.0,b,1.0,1.1945291999727488,,,,,,,,,,,,,,0.0,2.0,2.0,5.0,,,,,143.5973283997737,,,,,,,,,,,,,,,,,143.5823920997791,143.93167299986817,144.73114289995283,144.71536719985306,,,,,,,,,,,,,,,,144.71592539991252,144.73114289995283,144.73114289995283,145.93271879991516,b,1.0,1.1945291999727488,,145.93325909995474,145.9486556998454,146.94874879997224,146.93296489981003,,,,,,,,,,,,,,,,,,,sub-032,1,stroop_test,60.45002630053592,
,,,,3.0,3.0,0.0,,,,,gelb,red,r,0.0,r,1.0,1.1899377999361604,,,,,,,,,,,,,,0.0,3.0,3.0,8.0,,,,,146.94874879997224,,,,,,,,,,,,,,,,,146.93323169997893,148.14799929992296,148.94892319990322,148.9331760997884,,,,,,,,,,,,,,,,148.9357527999673,148.94892319990322,148.94892319990322,150.1497776999604,r,1.0,1.1899377999361604,,150.15026979986578,150.165022399975,151.1644807998091,151.14878119993955,,,,,,,,,,,,,,,,,,,sub-032,1,stroop_test,60.45002630053592,
,,,,4.0,4.0,0.0,,,,,gelb,yellow,g,1.0,g,1.0,0.87450490007177,,,,,,,,,,,,,,0.0,4.0,4.0,10.0,,,,,151.1644807998091,,,,,,,,,,,,,,,,,151.1490547999274,151.51498119998723,152.3142005999107,152.2982195999939,,,,,,,,,,,,,,,,152.29894489981234,152.3142005999107,152.3142005999107,153.19878339977004,g,1.0,0.87450490007177,,153.1993265999481,153.2151963999495,,154.19910159986466,,,,,,,,,,,,,,,,,,,sub-032,1,stroop_test,60.45002630053592,
,,,,5.0,5.0,0.0,,,,,rot,blue,b,0.0,b,1.0,0.7518161998596042,,,,,,,,,,,,,,0.0,5.0,5.0,2.0,,,,,154.2155515998602,,,,,,,,,,,,,,,,,154.19948669988662,154.56478409981355,155.36485099978745,155.34915379993618,,,,,,,,,,,,,,,,155.35342649999075,155.36485099978745,155.36485099978745,156.1318713999353,b,1.0,0.7518161998596042,,156.13231249991804,156.14744349988177,157.14719989988953,157.13113649981096,,,,,,,,,,,,,,,,,,,sub-032,1,stroop_test,60.45002630053592,
,,,,6.0,6.0,0.0,,,,,rot,red,r,1.0,r,1.0,0.4756958000361919,,,,,,,,,,,,,,0.0,6.0,6.0,1.0,,,,,157.14719989988953,,,,,,,,,,,,,,,,,157.131418999983,157.49772709980607,158.29700759984553,158.2810004998464,,,,,,,,,,,,,,,,158.28148679994047,158.29700759984553,158.29700759984553,158.7824620997999,r,1.0,0.4756958000361919,,158.7829017997719,158.7973543999251,159.7975874999538,159.7819443999324,,,,,,,,,,,,,,,,,,,sub-032,1,stroop_test,60.45002630053592,
,,,,7.0,7.0,0.0,,,,,gelb,yellow,g,1.0,g,1.0,0.4787604000885039,,,,,,,,,,,,,,0.0,7.0,7.0,11.0,,,,,159.7975874999538,,,,,,,,,,,,,,,,,159.78227369999513,160.59733059979044,161.39743859996088,161.3814382997807,,,,,,,,,,,,,,,,161.38378879986703,161.39743859996088,161.39743859996088,161.88187449984252,g,1.0,0.4787604000885039,,161.882383499993,161.89720559981652,162.89714869996533,162.88154849992134,,,,,,,,,,,,,,,,,,,sub-032,1,stroop_test,60.45002630053592,
,,,,8.0,8.0,0.0,,,,,blau,yellow,g,0.0,g,1.0,0.489492499968037,,,,,,,,,,,,,,0.0,8.0,8.0,7.0,,,,,162.89714869996533,,,,,,,,,,,,,,,,,162.88189179985784,164.09729069983587,164.89739549998194,164.88139139977284,,,,,,,,,,,,,,,,164.88338569994085,164.89739549998194,164.89739549998194,165.39847779995762,g,1.0,0.489492499968037,,165.39901219983585,165.413924299879,166.4139198998455,166.39851049985737,,,,,,,,,,,,,,,,,,,sub-032,1,stroop_test,60.45002630053592,
,,,,9.0,9.0,0.0,,,,,blau,blue,b,1.0,b,1.0,0.6269892998971045,,,,,,,,,,,,,,0.0,9.0,9.0,6.0,,,,,166.4139198998455,,,,,,,,,,,,,,,,,166.39886009995826,166.51715639978647,167.3307470998261,167.31443689996377,,,,,,,,,,,,,,,,167.31493679992855,167.3307470998261,167.3307470998261,167.9654558999464,b,1.0,0.6269892998971045,,167.965973299928,167.9806857998483,168.98061519977637,168.9645409998484,,,,,,,,,,,,,,,,,,,sub-032,1,stroop_test,60.45002630053592,
,,,,10.0,10.0,0.0,,,,,rot,red,r,1.0,r,1.0,0.3997269000392407,,,,,,,,,,,,,,0.0,10.0,10.0,0.0,,,,,168.98061519977637,,,,,,,,,,,,,,,,,168.96485419990495,170.18024699995294,170.98067449987866,170.9645427998621,,,,,,,,,,,,,,,,170.9674539999105,170.98067449987866,170.98067449987866,171.38212159997784,r,1.0,0.3997269000392407,,171.38255919981748,171.39741049986333,172.39736909978092,172.38151379977353,,,,,,,,,,,,,,,,,,,sub-032,1,stroop_test,60.45002630053592,
,,,,11.0,11.0,0.0,,,,,rot,yellow,g,0.0,g,1.0,0.6866501001641154,,,,,,,,,,,,,,0.0,11.0,11.0,3.0,,,,,172.39736909978092,,,,,,,,,,,,,,,,,172.38192859990522,173.1971915999893,173.9975992999971,173.9813618999906,,,,,,,,,,,,,,,,173.98179369978607,173.9975992999971,173.9975992999971,174.6984652997926,g,1.0,0.6866501001641154,,174.69894539983943,174.71414319984615,175.71390079986304,175.6980432998389,,,,,,,,,,,,,,,,,,,sub-032,1,stroop_test,60.45002630053592,
,,,,12.0,0.0,1.0,,,,,blau,red,r,0.0,r,1.0,0.5050073000602424,,,,,,,,,,,,,,1.0,0.0,12.0,4.0,,,,,175.71390079986304,,,,,,,,,,,,,,,,,175.6983412997797,176.91393949999474,177.7139039998874,177.69773379992694,,,,,,,,,,,,,,,,177.70039399992675,177.7139039998874,177.7139039998874,178.23153689992614,r,1.0,0.5050073000602424,,178.23205049987882,178.24707759986632,179.24706259998493,179.23127739992924,,,,,,,,,,,,,,,,,,,sub-032,1,stroop_test,60.45002630053592,
,,,,13.0,1.0,1.0,,,,,rot,yellow,g,0.0,g,1.0,0.8154336998704821,,,,,,,,,,,,,,1.0,1.0,13.0,3.0,,,,,179.24706259998493,,,,,,,,,,,,,,,,,179.231574999867,179.3303760997951,180.13052489981055,180.11433129990473,,,,,,,,,,,,,,,,180.11627649981529,180.13052489981055,180.13052489981055,180.94819609983824,g,1.0,0.8154336998704821,,180.94859769986945,180.96391119994223,181.96387849980965,181.94775159982964,,,,,,,,,,,,,,,,,,,sub-032,1,stroop_test,60.45002630053592,
,,,,14.0,2.0,1.0,,,,,gelb,yellow,g,1.0,g,1.0,0.5231063000392169,,,,,,,,,,,,,,1.0,2.0,14.0,10.0,,,,,181.96387849980965,,,,,,,,,,,,,,,,,181.94804829987697,182.06368529982865,182.8638472999446,182.84768609981984,,,,,,,,,,,,,,,,182.8496882999316,182.8638472999446,182.8638472999446,183.3980708997697,g,1.0,0.5231063000392169,,183.3985478999093,183.41396249993704,184.4138520997949,184.3976806998253,,,,,,,,,,,,,,,,,,,sub-032,1,stroop_test,60.45002630053592,
,,,,15.0,3.0,1.0,,,,,gelb,yellow,g,1.0,g,1.0,0.4492479001637548,,,,,,,,,,,,,,1.0,3.0,15.0,11.0,,,,,184.4138520997949,,,,,,,,,,,,,,,,,184.3979564998299,185.6135455998592,186.4138318998739,186.3976808998268,,,,,,,,,,,,,,,,186.39815689995885,186.4138318998739,186.4138318998739,186.8648330997676,g,1.0,0.4492479001637548,,186.86530229984783,186.88064319989644,187.8806130997837,187.86424559983425,,,,,,,,,,,,,,,,,,,sub-032,1,stroop_test,60.45002630053592,
,,,,16.0,4.0,1.0,,,,,rot,red,r,1.0,r,1.0,0.5696022000629455,,,,,,,,,,,,,,1.0,4.0,16.0,1.0,,,,,187.8806130997837,,,,,,,,,,,,,,,,,187.8644712998066,189.08056519995444,189.8804038998205,189.8642780999653,,,,,,,,,,,,,,,,189.866751199821,189.8804038998205,189.8804038998205,190.465266399784,r,1.0,0.5696022000629455,,190.46579449996352,190.4803910998162,191.48036849987693,191.4640388998669,,,,,,,,,,,,,,,,,,,sub-032,1,stroop_test,60.45002630053592,
,,,,17.0,5.0,1.0,,,,,blau,yellow,g,0.0,g,1.0,0.5772943000774831,,,,,,,,,,,,,,1.0,5.0,17.0,7.0,,,,,191.48036849987693,,,,,,,,,,,,,,,,,191.46428479999304,192.664670499973,193.46381079987623,193.44840929983184,,,,,,,,,,,,,,,,193.4514033999294,193.46381079987623,193.46381079987623,194.0487545998767,g,1.0,0.5772943000774831,,194.04919619997963,194.06443879986185,,195.04920389992185,,,,,,,,,,,,,,,,,,,sub-032,1,stroop_test,60.45002630053592,
,,,,18.0,6.0,1.0,,,,,blau,blue,b,1.0,b,1.0,0.6422123999800533,,,,,,,,,,,,,,1.0,6.0,18.0,5.0,,,,,195.0649864999577,,,,,,,,,,,,,,,,,195.0495506997686,195.1479926998727,195.94740589987487,195.9316379998345,,,,,,,,,,,,,,,,195.9320963998325,195.94740589987487,195.94740589987487,196.60029559978284,b,1.0,0.6422123999800533,,196.6008656998165,196.61511319992127,197.61443819990384,197.5995197999291,,,,,,,,,,,,,,,,,,,sub-032,1,stroop_test,60.45002630053592,
,,,,19.0,7.0,1.0,,,,,gelb,red,r,0.0,r,1.0,0.5508846000302583,,,,,,,,,,,,,,1.0,7.0,19.0,8.0,,,,,197.61443819990384,,,,,,,,,,,,,,,,,197.5998485998716,198.41496219998223,199.21487979986705,199.19917749986053,,,,,,,,,,,,,,,,199.20194149995223,199.21487979986705,199.21487979986705,199.7824794999324,r,1.0,0.5508846000302583,,199.7829908998683,199.79858419997615,200.79873539996333,200.78258659993296,,,,,,,,,,,,,,,,,,,sub-032,1,stroop_test,60.45002630053592,
,,,,20.0,8.0,1.0,,,,,gelb,blue,b,0.0,b,1.0,0.8281092999968678,,,,,,,,,,,,,,1.0,8.0,20.0,9.0,,,,,200.79873539996333,,,,,,,,,,,,,,,,,200.7829323997721,200.88142029987648,201.6823318998795,201.66623119986616,,,,,,,,,,,,,,,,201.66670709988105,201.6823318998795,201.6823318998795,202.51472469978037,b,1.0,0.8281092999968678,,202.51525439997204,202.5304361998569,203.53094029985368,203.5144720999524,,,,,,,,,,,,,,,,,,,sub-032,1,stroop_test,60.45002630053592,
,,,,21.0,9.0,1.0,,,,,blau,blue,b,1.0,b,1.0,0.564554600045085,,,,,,,,,,,,,,1.0,9.0,21.0,6.0,,,,,203.53094029985368,,,,,,,,,,,,,,,,,203.5147449998185,203.8648592999671,204.66485969978385,204.64957399992272,,,,,,,,,,,,,,,,204.65228609996848,204.66485969978385,204.66485969978385,205.2340179998428,b,1.0,0.564554600045085,,205.2344758999534,205.24793669977225,206.24786819983277,206.2324883998372,,,,,,,,,,,,,,,,,,,sub-032,1,stroop_test,60.45002630053592,
,,,,22.0,10.0,1.0,,,,,rot,red,r,1.0,r,1.0,0.5568869998678565,,,,,,,,,,,,,,1.0,10.0,22.0,0.0,,,,,206.24786819983277,,,,,,,,,,,,,,,,,206.23276739986613,207.04997359984557,207.8639447998721,207.8487129998393,,,,,,,,,,,,,,,,207.8513151998632,207.8639447998721,207.8639447998721,208.43117609992623,r,1.0,0.5568869998678565,,208.4316149998922,208.44766229996455,,209.43168939999305,,,,,,,,,,,,,,,,,,,sub-032,1,stroop_test,60.45002630053592,
,,,,23.0,11.0,1.0,,,,,rot,blue,b,0.0,b,1.0,0.470050900010392,,,,,,,,,,,,,,1.0,11.0,23.0,2.0,,,,,209.4475446997676,,,,,,,,,,,,,,,,,209.432007699972,210.23139099986287,211.03120979992676,211.0152720999904,,,,,,,,,,,,,,,,211.0157017998863,211.03120979992676,211.03120979992676,211.51614089985375,b,1.0,0.470050900010392,,211.51658179983497,211.53230589977463,,212.53129409998652,,,,,,,,,,,,,,,,,,,sub-032,1,stroop_test,60.45002630053592,
,,,,,,,,,,,,,,,,,,,,,,,,,,,,,,,,,,,,,,,,,,,,,,,,,,,,,,,,,,,,,,,,,,,,,,,,,,,,,,,,,,,,,,,212.53146769991145,212.5478691998869,212.5478691998869,218.21510569984093,space,5.661286199931055,,,,,,,,,,,,,sub-032,1,stroop_test,60.45002630053592,
,,,,0.0,0.0,0.0,,,,,,,,,,,,,blau,yellow,g,0.0,g,1.0,0.6809978000819683,,,,,,,,,,0.0,0.0,0.0,7.0,218.24791609984825,,,,,,,,,,,,,,,,,218.24127499992028,219.41834009997547,220.2192205998581,220.20311369979757,,,,,,,,,,,,,,,,,,,,,,,,,,,,,,,,,,,220.20555999991484,220.2192205998581,220.2192205998581,220.90366299985908,g,1.0,0.6809978000819683,,,,,sub-032,1,stroop_test,60.45002630053592,
,,,,1.0,1.0,0.0,,,,,,,,,,,,,gelb,red,r,0.0,r,1.0,0.5317525998689234,,,,,,,,,,0.0,1.0,1.0,8.0,220.91872409987263,,,,,,,,,,,,,,,,,220.90396679984408,221.2678804998286,222.0675472998992,222.05156759987585,,,,,,,,,,,,,,,,,,,,,,,,,,,,,,,,,,,222.05388089991172,222.0675472998992,222.0675472998992,222.60205139988105,r,1.0,0.5317525998689234,,,,,sub-032,1,stroop_test,60.45002630053592,
,,,,2.0,2.0,0.0,,,,,,,,,,,,,gelb,blue,b,0.0,b,1.0,0.3624369001481682,,,,,,,,,,0.0,2.0,2.0,9.0,222.6181418998167,,,,,,,,,,,,,,,,,222.60237729991783,223.40168259991333,224.2015126999468,224.18544139992449,,,,,,,,,,,,,,,,,,,,,,,,,,,,,,,,,,,224.18597219977528,224.2015126999468,224.2015126999468,224.5698024998419,b,1.0,0.3624369001481682,,,,,sub-032,1,stroop_test,60.45002630053592,
,,,,3.0,3.0,0.0,,,,,,,,,,,,,rot,blue,b,0.0,b,1.0,0.4388246999587863,,,,,,,,,,0.0,3.0,3.0,2.0,224.58432669984177,,,,,,,,,,,,,,,,,224.57015659986064,224.9340868999716,225.7357963998802,225.72025569994003,,,,,,,,,,,,,,,,,,,,,,,,,,,,,,,,,,,225.72249799990092,225.7357963998802,225.7357963998802,226.1872238998767,b,1.0,0.4388246999587863,,,,,sub-032,1,stroop_test,60.45002630053592,
,,,,4.0,4.0,0.0,,,,,,,,,,,,,blau,blue,b,1.0,b,1.0,0.4879623998422175,,,,,,,,,,0.0,4.0,4.0,6.0,226.20674879988653,,,,,,,,,,,,,,,,,226.18753709993325,226.302041699877,227.10304639977403,227.08563039987348,,,,,,,,,,,,,,,,,,,,,,,,,,,,,,,,,,,227.08859779988416,227.10304639977403,227.10304639977403,227.60277719981968,b,1.0,0.4879623998422175,,,,,sub-032,1,stroop_test,60.45002630053592,
,,,,5.0,5.0,0.0,,,,,,,,,,,,,gelb,yellow,g,1.0,g,1.0,0.4769967999309301,,,,,,,,,,0.0,5.0,5.0,11.0,227.61832399992272,,,,,,,,,,,,,,,,,227.6031001999509,227.95164849981663,228.75123629998416,228.7360360999592,,,,,,,,,,,,,,,,,,,,,,,,,,,,,,,,,,,228.7387783997692,228.75123629998416,228.75123629998416,229.23598639993,g,1.0,0.4769967999309301,,,,,sub-032,1,stroop_test,60.45002630053592,
,,,,6.0,6.0,0.0,,,,,,,,,,,,,rot,red,r,1.0,r,1.0,0.3871826999820769,,,,,,,,,,0.0,6.0,6.0,1.0,229.25157369999212,,,,,,,,,,,,,,,,,229.2364307998214,229.35142779978923,230.15113539993763,230.13543059979563,,,,,,,,,,,,,,,,,,,,,,,,,,,,,,,,,,,230.13765759998927,230.15113539993763,230.15113539993763,230.55164499999955,r,1.0,0.3871826999820769,,,,,sub-032,1,stroop_test,60.45002630053592,
,,,,7.0,7.0,0.0,,,,,,,,,,,,,rot,red,r,1.0,r,1.0,0.5050411000847816,,,,,,,,,,0.0,7.0,7.0,0.0,230.5675031999126,,,,,,,,,,,,,,,,,230.55195079999976,230.9018689999357,231.70223459997212,231.68597399978896,,,,,,,,,,,,,,,,,,,,,,,,,,,,,,,,,,,231.68641879991628,231.70223459997212,231.70223459997212,232.2203548999969,r,1.0,0.5050411000847816,,,,,sub-032,1,stroop_test,60.45002630053592,
,,,,8.0,8.0,0.0,,,,,,,,,,,,,blau,blue,b,1.0,b,1.0,0.4375471998937428,,,,,,,,,,0.0,8.0,8.0,5.0,232.23570439987816,,,,,,,,,,,,,,,,,232.22070949990305,232.58482999983244,233.38460919982757,233.3689375999384,,,,,,,,,,,,,,,,,,,,,,,,,,,,,,,,,,,233.37174189998768,233.38460919982757,233.38460919982757,233.83716859994456,b,1.0,0.4375471998937428,,,,,sub-032,1,stroop_test,60.45002630053592,
,,,,9.0,9.0,0.0,,,,,,,,,,,,,blau,red,r,0.0,r,1.0,0.4969385000877082,,,,,,,,,,0.0,9.0,9.0,4.0,233.8522857998032,,,,,,,,,,,,,,,,,233.8374755999539,234.18412569980137,234.98395409993827,234.96831909986213,,,,,,,,,,,,,,,,,,,,,,,,,,,,,,,,,,,234.968921699794,234.98395409993827,234.98395409993827,235.48611479997635,r,1.0,0.4969385000877082,,,,,sub-032,1,stroop_test,60.45002630053592,
,,,,10.0,10.0,0.0,,,,,,,,,,,,,rot,yellow,g,0.0,g,1.0,0.5180889999028295,,,,,,,,,,0.0,10.0,10.0,3.0,235.50170009979047,,,,,,,,,,,,,,,,,235.48650699993595,235.5846693997737,236.3850977998227,236.3693187998142,,,,,,,,,,,,,,,,,,,,,,,,,,,,,,,,,,,236.3716150999535,236.3850977998227,236.3850977998227,236.9183304999024,g,1.0,0.5180889999028295,,,,,sub-032,1,stroop_test,60.45002630053592,
,,,,11.0,11.0,0.0,,,,,,,,,,,,,gelb,yellow,g,1.0,g,1.0,0.5328184999525547,,,,,,,,,,0.0,11.0,11.0,10.0,236.9338792997878,,,,,,,,,,,,,,,,,236.91873809997924,237.7345422999933,238.534845699789,238.5185764997732,,,,,,,,,,,,,,,,,,,,,,,,,,,,,,,,,,,238.5208334999625,238.534845699789,238.534845699789,239.0697879998479,g,1.0,0.5328184999525547,,,,,sub-032,1,stroop_test,60.45002630053592,
,,,,12.0,0.0,1.0,,,,,,,,,,,,,gelb,blue,b,0.0,b,1.0,0.3994249000679701,,,,,,,,,,1.0,0.0,12.0,9.0,239.0848597998265,,,,,,,,,,,,,,,,,239.07020309986547,239.8843676999677,240.6859432999045,240.67010879982263,,,,,,,,,,,,,,,,,,,,,,,,,,,,,,,,,,,240.67050899984315,240.6859432999045,240.6859432999045,241.1031621999573,b,1.0,0.3994249000679701,,,,,sub-032,1,stroop_test,60.45002630053592,
,,,,13.0,1.0,1.0,,,,,,,,,,,,,rot,yellow,g,0.0,r,0.0,0.4411952998489141,,,,,,,,,,1.0,1.0,13.0,3.0,241.11753449984823,,,,,,,,,,,,,,,,,241.10359379998408,241.46804559999143,242.26864519994703,242.25291809998453,,,,,,,,,,,,,,,,,,,,,,,,,,,,,,,,,,,242.2568170998711,242.26864519994703,242.26864519994703,242.72051359992477,r,0.0,0.4411952998489141,,,,,sub-032,1,stroop_test,60.45002630053592,
,,,,14.0,2.0,1.0,,,,,,,,,,,,,blau,yellow,g,0.0,g,1.0,0.6292906000744551,,,,,,,,,,1.0,2.0,14.0,7.0,242.7350297998637,,,,,,,,,,,,,,,,,242.72081929980777,243.93528949981555,244.73535669990812,244.7192650998477,,,,,,,,,,,,,,,,,,,,,,,,,,,,,,,,,,,244.72166619985364,244.73535669990812,244.73535669990812,245.3696668997873,g,1.0,0.6292906000744551,,,,,sub-032,1,stroop_test,60.45002630053592,
,,,,15.0,3.0,1.0,,,,,,,,,,,,,blau,red,r,0.0,r,1.0,0.5727876999881119,,,,,,,,,,1.0,3.0,15.0,4.0,245.38480129977688,,,,,,,,,,,,,,,,,245.37009829981253,245.73458799999207,246.53512279991992,246.51880659977903,,,,,,,,,,,,,,,,,,,,,,,,,,,,,,,,,,,246.5192293999717,246.53512279991992,246.53512279991992,247.1201725997962,r,1.0,0.5727876999881119,,,,,sub-032,1,stroop_test,60.45002630053592,
,,,,16.0,4.0,1.0,,,,,,,,,,,,,blau,blue,b,1.0,b,1.0,0.4718183998484164,,,,,,,,,,1.0,4.0,16.0,5.0,247.1350278998725,,,,,,,,,,,,,,,,,247.12056659976952,248.3349643999245,249.134536099853,249.11964309983887,,,,,,,,,,,,,,,,,,,,,,,,,,,,,,,,,,,249.12008679984137,249.134536099853,249.134536099853,249.61898009991276,b,1.0,0.4718183998484164,,,,,sub-032,1,stroop_test,60.45002630053592,
,,,,17.0,5.0,1.0,,,,,,,,,,,,,gelb,yellow,g,1.0,g,1.0,0.4932067000772804,,,,,,,,,,1.0,5.0,17.0,10.0,249.63397069997157,,,,,,,,,,,,,,,,,249.619282099884,250.8202408999205,251.63474369980395,251.61831209994853,,,,,,,,,,,,,,,,,,,,,,,,,,,,,,,,,,,251.6211482998915,251.63474369980395,251.63474369980395,252.14004119997844,g,1.0,0.4932067000772804,,,,,sub-032,1,stroop_test,60.45002630053592,
,,,,18.0,6.0,1.0,,,,,,,,,,,,,gelb,red,r,0.0,r,1.0,0.387232800014317,,,,,,,,,,1.0,6.0,18.0,8.0,252.1505046999082,,,,,,,,,,,,,,,,,252.14042759989388,252.95219209999777,253.7511603999883,253.7363013997674,,,,,,,,,,,,,,,,,,,,,,,,,,,,,,,,,,,253.7368917998392,253.7511603999883,253.7511603999883,254.15232059988196,r,1.0,0.387232800014317,,,,,sub-032,1,stroop_test,60.45002630053592,
,,,,19.0,7.0,1.0,,,,,,,,,,,,,rot,red,r,1.0,r,1.0,0.4752446000929922,,,,,,,,,,1.0,7.0,19.0,1.0,254.16846619988792,,,,,,,,,,,,,,,,,254.15263869985935,254.9670977999922,255.76728479983285,255.75113459979184,,,,,,,,,,,,,,,,,,,,,,,,,,,,,,,,,,,255.753787699854,255.76728479983285,255.76728479983285,256.2526889999863,r,1.0,0.4752446000929922,,,,,sub-032,1,stroop_test,60.45002630053592,
,,,,20.0,8.0,1.0,,,,,,,,,,,,,rot,red,r,1.0,r,1.0,0.5187105000950396,,,,,,,,,,1.0,8.0,20.0,0.0,256.2684792999644,,,,,,,,,,,,,,,,,256.252994999988,256.3514684999828,257.1526398998685,257.1358014999423,,,,,,,,,,,,,,,,,,,,,,,,,,,,,,,,,,,257.1362431999296,257.1526398998685,257.1526398998685,257.68563779979013,r,1.0,0.5187105000950396,,,,,sub-032,1,stroop_test,60.45002630053592,
,,,,21.0,9.0,1.0,,,,,,,,,,,,,blau,blue,b,1.0,b,1.0,0.5429559999611229,,,,,,,,,,1.0,9.0,21.0,6.0,257.7009637998417,,,,,,,,,,,,,,,,,257.68600129988045,257.78372219996527,258.65673909988254,258.5688066999428,,,,,,,,,,,,,,,,,,,,,,,,,,,,,,,,,,,258.64870539982803,258.65673909988254,258.65673909988254,259.21041369996965,b,1.0,0.5429559999611229,,,,,sub-032,1,stroop_test,60.45002630053592,
,,,,22.0,10.0,1.0,,,,,,,,,,,,,rot,blue,b,0.0,b,1.0,0.7798202000558376,,,,,,,,,,1.0,10.0,22.0,2.0,259.2264113998972,,,,,,,,,,,,,,,,,259.210837099934,260.4099898999557,261.20960519998334,261.1942265999969,,,,,,,,,,,,,,,,,,,,,,,,,,,,,,,,,,,261.1963938998524,261.20960519998334,261.20960519998334,261.9945040999446,b,1.0,0.7798202000558376,,,,,sub-032,1,stroop_test,60.45002630053592,
,,,,23.0,11.0,1.0,,,,,,,,,,,,,gelb,yellow,g,1.0,g,1.0,0.4512987998314202,,,,,,,,,,1.0,11.0,23.0,11.0,262.0098957999144,,,,,,,,,,,,,,,,,261.9948921999894,263.193391099805,263.99395779985934,263.97747589997016,,,,,,,,,,,,,,,,,,,,,,,,,,,,,,,,,,,263.98038399987854,263.99395779985934,263.99395779985934,264.4604372999165,g,1.0,0.4512987998314202,,,,,sub-032,1,stroop_test,60.45002630053592,
,,,,24.0,0.0,2.0,,,,,,,,,,,,,gelb,red,r,0.0,r,1.0,0.5291915000416338,,,,,,,,,,2.0,0.0,24.0,8.0,264.4763779998757,,,,,,,,,,,,,,,,,264.4608688999433,265.67598419985734,266.4769132998772,266.4602948999964,,,,,,,,,,,,,,,,,,,,,,,,,,,,,,,,,,,266.46078099985607,266.4769132998772,266.4769132998772,267.0113039999269,r,1.0,0.5291915000416338,,,,,sub-032,1,stroop_test,60.45002630053592,
,,,,25.0,1.0,2.0,,,,,,,,,,,,,blau,yellow,g,0.0,g,1.0,0.6046293000690639,,,,,,,,,,2.0,1.0,25.0,7.0,267.0268029998988,,,,,,,,,,,,,,,,,267.0116148998495,268.2264171999413,269.0270582998637,269.0103114999365,,,,,,,,,,,,,,,,,,,,,,,,,,,,,,,,,,,269.0126694999635,269.0270582998637,269.0270582998637,269.64553779992275,g,1.0,0.6046293000690639,,,,,sub-032,1,stroop_test,60.45002630053592,
,,,,26.0,2.0,2.0,,,,,,,,,,,,,rot,blue,b,0.0,b,1.0,0.4421475999988615,,,,,,,,,,2.0,2.0,26.0,2.0,269.6593695997726,,,,,,,,,,,,,,,,,269.64588089985773,270.8603749999311,271.65957369981334,271.6445039999671,,,,,,,,,,,,,,,,,,,,,,,,,,,,,,,,,,,271.6470400998369,271.65957369981334,271.65957369981334,272.11023379978724,b,1.0,0.4421475999988615,,,,,sub-032,1,stroop_test,60.45002630053592,
,,,,27.0,3.0,2.0,,,,,,,,,,,,,blau,blue,b,1.0,b,1.0,0.4848925999831408,,,,,,,,,,2.0,3.0,27.0,5.0,272.12571009993553,,,,,,,,,,,,,,,,,272.1106211999431,272.2095170998946,273.0094744998496,272.9939485997893,,,,,,,,,,,,,,,,,,,,,,,,,,,,,,,,,,,272.996841999935,273.0094744998496,273.0094744998496,273.51152189983986,b,1.0,0.4848925999831408,,,,,sub-032,1,stroop_test,60.45002630053592,
,,,,28.0,4.0,2.0,,,,,,,,,,,,,rot,red,r,1.0,r,1.0,0.506762299919501,,,,,,,,,,2.0,4.0,28.0,0.0,273.5263490998186,,,,,,,,,,,,,,,,,273.51183779980056,274.3262378999498,275.125507599907,275.1095495999325,,,,,,,,,,,,,,,,,,,,,,,,,,,,,,,,,,,275.11201309994794,275.125507599907,275.125507599907,275.64317769999616,r,1.0,0.506762299919501,,,,,sub-032,1,stroop_test,60.45002630053592,
,,,,29.0,5.0,2.0,,,,,,,,,,,,,blau,red,r,0.0,r,1.0,0.5277435998432338,,,,,,,,,,2.0,5.0,29.0,4.0,275.65859749983065,,,,,,,,,,,,,,,,,275.64358389982954,275.99359579989687,276.7940418999642,276.776998499874,,,,,,,,,,,,,,,,,,,,,,,,,,,,,,,,,,,276.77938129985705,276.7940418999642,276.7940418999642,277.32742139999755,r,1.0,0.5277435998432338,,,,,sub-032,1,stroop_test,60.45002630053592,
,,,,30.0,6.0,2.0,,,,,,,,,,,,,rot,red,r,1.0,r,1.0,0.4859516001306474,,,,,,,,,,2.0,6.0,30.0,1.0,277.3426970997825,,,,,,,,,,,,,,,,,277.3278612999711,278.54345289990306,279.3427238999866,279.3273776997812,,,,,,,,,,,,,,,,,,,,,,,,,,,,,,,,,,,279.32951679988764,279.3427238999866,279.3427238999866,279.8430996998213,r,1.0,0.4859516001306474,,,,,sub-032,1,stroop_test,60.45002630053592,
,,,,31.0,7.0,2.0,,,,,,,,,,,,,rot,yellow,g,0.0,g,1.0,0.6439104001037776,,,,,,,,,,2.0,7.0,31.0,3.0,279.85887919995,,,,,,,,,,,,,,,,,279.8435191998724,280.1930698999204,280.9927025998477,280.97643969999626,,,,,,,,,,,,,,,,,,,,,,,,,,,,,,,,,,,280.9768371998798,280.9927025998477,280.9927025998477,281.6438677997794,g,1.0,0.6439104001037776,,,,,sub-032,1,stroop_test,60.45002630053592,
,,,,32.0,8.0,2.0,,,,,,,,,,,,,gelb,blue,b,0.0,b,1.0,0.5180116998963058,,,,,,,,,,2.0,8.0,32.0,9.0,281.6591799999587,,,,,,,,,,,,,,,,,281.64427649998106,282.85913029988296,283.65954369981773,283.64327239990234,,,,,,,,,,,,,,,,,,,,,,,,,,,,,,,,,,,283.6466296999715,283.65954369981773,283.65954369981773,284.19477469986305,b,1.0,0.5180116998963058,,,,,sub-032,1,stroop_test,60.45002630053592,
,,,,33.0,9.0,2.0,,,,,,,,,,,,,gelb,yellow,g,1.0,g,1.0,0.573365299962461,,,,,,,,,,2.0,9.0,33.0,11.0,284.20989369996823,,,,,,,,,,,,,,,,,284.1951675999444,285.0090162998531,285.81001059990376,285.79433589987457,,,,,,,,,,,,,,,,,,,,,,,,,,,,,,,,,,,285.7947909999639,285.81001059990376,285.81001059990376,286.39382679993287,g,1.0,0.573365299962461,,,,,sub-032,1,stroop_test,60.45002630053592,
,,,,34.0,10.0,2.0,,,,,,,,,,,,,gelb,yellow,g,1.0,g,1.0,0.5346466999035329,,,,,,,,,,2.0,10.0,34.0,10.0,286.4093212999869,,,,,,,,,,,,,,,,,286.39414009987377,287.20925249997526,288.009617799893,287.99332579993643,,,,,,,,,,,,,,,,,,,,,,,,,,,,,,,,,,,287.9937184997834,288.009617799893,288.009617799893,288.5609024998266,g,1.0,0.5346466999035329,,,,,sub-032,1,stroop_test,60.45002630053592,
,,,,35.0,11.0,2.0,,,,,,,,,,,,,blau,blue,b,1.0,b,1.0,0.6128448999952525,,,,,,,,,,2.0,11.0,35.0,6.0,288.5770584999118,,,,,,,,,,,,,,,,,288.56125329993665,289.7605799997691,290.5761416999157,290.56066729989834,,,,,,,,,,,,,,,,,,,,,,,,,,,,,,,,,,,290.563611399848,290.5761416999157,290.5761416999157,291.19324359996244,b,1.0,0.6128448999952525,,,,,sub-032,1,stroop_test,60.45002630053592,
,,,,36.0,0.0,3.0,,,,,,,,,,,,,rot,red,r,1.0,r,1.0,0.4822486999910325,,,,,,,,,,3.0,0.0,36.0,1.0,291.20879149995744,,,,,,,,,,,,,,,,,291.19363649981096,291.99346829997376,292.79340969980694,292.77790389978327,,,,,,,,,,,,,,,,,,,,,,,,,,,,,,,,,,,292.7802181998268,292.79340969980694,292.79340969980694,293.29291399987414,r,1.0,0.4822486999910325,,,,,sub-032,1,stroop_test,60.45002630053592,
,,,,37.0,1.0,3.0,,,,,,,,,,,,,gelb,yellow,g,1.0,g,1.0,0.8989258001092821,,,,,,,,,,3.0,1.0,37.0,10.0,293.30889339977875,,,,,,,,,,,,,,,,,293.293250199873,293.64410109980963,294.4592828999739,294.4432757999748,,,,,,,,,,,,,,,,,,,,,,,,,,,,,,,,,,,294.44600209989585,294.4592828999739,294.4592828999739,295.3615617998876,g,1.0,0.8989258001092821,,,,,sub-032,1,stroop_test,60.45002630053592,
,,,,38.0,2.0,3.0,,,,,,,,,,,,,gelb,red,r,0.0,r,1.0,0.7604140001349151,,,,,,,,,,3.0,2.0,38.0,8.0,295.3759545998182,,,,,,,,,,,,,,,,,295.3619805998169,295.7095739999786,296.5096663997974,296.4939523998182,,,,,,,,,,,,,,,,,,,,,,,,,,,,,,,,,,,296.49444909999147,296.5096663997974,296.5096663997974,297.2773612998426,r,1.0,0.7604140001349151,,,,,sub-032,1,stroop_test,60.45002630053592,
,,,,39.0,3.0,3.0,,,,,,,,,,,,,blau,yellow,g,0.0,g,1.0,0.5662365998141468,,,,,,,,,,3.0,3.0,39.0,7.0,297.2925606998615,,,,,,,,,,,,,,,,,297.2777876998298,298.0932637997903,298.9087793999352,298.89254479995,,,,,,,,,,,,,,,,,,,,,,,,,,,,,,,,,,,298.8954746997915,298.9087793999352,298.9087793999352,299.47855709982105,g,1.0,0.5662365998141468,,,,,sub-032,1,stroop_test,60.45002630053592,
,,,,40.0,4.0,3.0,,,,,,,,,,,,,blau,red,r,0.0,r,1.0,0.5122150999959558,,,,,,,,,,3.0,4.0,40.0,4.0,299.4936867998913,,,,,,,,,,,,,,,,,299.4788712998852,300.6930160999764,301.4924603998661,301.47667999984697,,,,,,,,,,,,,,,,,,,,,,,,,,,,,,,,,,,301.4770923999604,301.4924603998661,301.4924603998661,302.01133439992554,r,1.0,0.5122150999959558,,,,,sub-032,1,stroop_test,60.45002630053592,
,,,,41.0,5.0,3.0,,,,,,,,,,,,,gelb,blue,b,0.0,b,1.0,0.5729028000496328,,,,,,,,,,3.0,5.0,41.0,9.0,302.02636059978977,,,,,,,,,,,,,,,,,302.01173849985935,303.22670379979536,304.0435922998004,304.0268227998167,,,,,,,,,,,,,,,,,,,,,,,,,,,,,,,,,,,304.0297225997783,304.0435922998004,304.0435922998004,304.627268999815,b,1.0,0.5729028000496328,,,,,sub-032,1,stroop_test,60.45002630053592,
,,,,42.0,6.0,3.0,,,,,,,,,,,,,rot,yellow,g,0.0,g,1.0,0.5419011998455971,,,,,,,,,,3.0,6.0,42.0,3.0,304.6430315999314,,,,,,,,,,,,,,,,,304.62756379996426,305.4266193998046,306.22671749978326,306.21042459993623,,,,,,,,,,,,,,,,,,,,,,,,,,,,,,,,,,,306.2132335999049,306.22671749978326,306.22671749978326,306.7779868999496,g,1.0,0.5419011998455971,,,,,sub-032,1,stroop_test,60.45002630053592,
,,,,43.0,7.0,3.0,,,,,,,,,,,,,blau,blue,b,1.0,b,1.0,0.4838394001126289,,,,,,,,,,3.0,7.0,43.0,6.0,306.7937456998043,,,,,,,,,,,,,,,,,306.7783008997794,307.1426253998652,307.9423823999241,307.9274841998704,,,,,,,,,,,,,,,,,,,,,,,,,,,,,,,,,,,307.9304485998582,307.9423823999241,307.9423823999241,308.42783019994386,b,1.0,0.4838394001126289,,,,,sub-032,1,stroop_test,60.45002630053592,
,,,,44.0,8.0,3.0,,,,,,,,,,,,,blau,blue,b,1.0,b,1.0,0.4625400998629629,,,,,,,,,,3.0,8.0,44.0,5.0,308.443200299982,,,,,,,,,,,,,,,,,308.42818439984694,309.2423584999051,310.04243199992925,310.0262018998619,,,,,,,,,,,,,,,,,,,,,,,,,,,,,,,,,,,310.0268119999673,310.04243199992925,310.04243199992925,310.5102514999453,b,1.0,0.4625400998629629,,,,,sub-032,1,stroop_test,60.45002630053592,
,,,,45.0,9.0,3.0,,,,,,,,,,,,,gelb,yellow,g,1.0,g,1.0,0.481512000085786,,,,,,,,,,3.0,9.0,45.0,11.0,310.5263371998444,,,,,,,,,,,,,,,,,310.51064949994907,311.309749599779,312.1101314998232,312.0935168999713,,,,,,,,,,,,,,,,,,,,,,,,,,,,,,,,,,,312.09638549992815,312.1101314998232,312.1101314998232,312.59488849993795,g,1.0,0.481512000085786,,,,,sub-032,1,stroop_test,60.45002630053592,
,,,,46.0,10.0,3.0,,,,,,,,,,,,,rot,red,r,1.0,r,1.0,0.3769002000335604,,,,,,,,,,3.0,10.0,46.0,0.0,312.6101259998977,,,,,,,,,,,,,,,,,312.5952748998534,313.4106172998436,314.2251932998188,314.20947059988976,,,,,,,,,,,,,,,,,,,,,,,,,,,,,,,,,,,314.21178699983284,314.2251932998188,314.2251932998188,314.610288299853,r,1.0,0.3769002000335604,,,,,sub-032,1,stroop_test,60.45002630053592,
,,,,47.0,11.0,3.0,,,,,,,,,,,,,rot,blue,b,0.0,b,1.0,0.6414946001023054,,,,,,,,,,3.0,11.0,47.0,2.0,314.62758679990657,,,,,,,,,,,,,,,,,314.6106913997792,314.9757344999816,315.77658059983514,315.7608739999123,,,,,,,,,,,,,,,,,,,,,,,,,,,,,,,,,,,315.76136439992115,315.77658059983514,315.77658059983514,316.42679579998367,b,1.0,0.6414946001023054,,,,,sub-032,1,stroop_test,60.45002630053592,
,,,,48.0,0.0,4.0,,,,,,,,,,,,,gelb,blue,b,0.0,b,1.0,0.529156600125134,,,,,,,,,,4.0,0.0,48.0,9.0,316.4425398998428,,,,,,,,,,,,,,,,,316.4271148999688,317.6268914998509,318.4422230999917,318.4257464997936,,,,,,,,,,,,,,,,,,,,,,,,,,,,,,,,,,,318.42913649999537,318.4422230999917,318.4422230999917,318.9764346999582,b,1.0,0.529156600125134,,,,,sub-032,1,stroop_test,60.45002630053592,
,,,,49.0,1.0,4.0,,,,,,,,,,,,,gelb,yellow,g,1.0,g,1.0,0.4997682999819517,,,,,,,,,,4.0,1.0,49.0,11.0,318.9922291999683,,,,,,,,,,,,,,,,,318.97674059984274,320.17584739997983,320.97597889998,320.96121759992093,,,,,,,,,,,,,,,,,,,,,,,,,,,,,,,,,,,320.9616522998549,320.97597889998,320.97597889998,321.47715089982376,g,1.0,0.4997682999819517,,,,,sub-032,1,stroop_test,60.45002630053592,
,,,,50.0,2.0,4.0,,,,,,,,,,,,,blau,blue,b,1.0,b,1.0,0.4632923000026494,,,,,,,,,,4.0,2.0,50.0,5.0,321.49195739999413,,,,,,,,,,,,,,,,,321.4775743999053,322.6769306999631,323.4753192998469,323.4599319999106,,,,,,,,,,,,,,,,,,,,,,,,,,,,,,,,,,,323.4636692998465,323.4753192998469,323.4753192998469,323.9456197998952,b,1.0,0.4632923000026494,,,,,sub-032,1,stroop_test,60.45002630053592,
,,,,51.0,3.0,4.0,,,,,,,,,,,,,blau,yellow,g,0.0,g,1.0,0.575629899976775,,,,,,,,,,4.0,3.0,51.0,7.0,323.95909049990587,,,,,,,,,,,,,,,,,323.9459478999488,324.7591962998267,325.55876169982366,325.54261409980245,,,,,,,,,,,,,,,,,,,,,,,,,,,,,,,,,,,325.54320659977384,325.55876169982366,325.55876169982366,326.1437516999431,g,1.0,0.575629899976775,,,,,sub-032,1,stroop_test,60.45002630053592,
,,,,52.0,4.0,4.0,,,,,,,,,,,,,rot,yellow,g,0.0,g,1.0,0.4671767000108957,,,,,,,,,,4.0,4.0,52.0,3.0,326.15919549996033,,,,,,,,,,,,,,,,,326.14416239992715,326.4930914998986,327.2925891999621,327.276690099854,,,,,,,,,,,,,,,,,,,,,,,,,,,,,,,,,,,327.27932129986584,327.2925891999621,327.2925891999621,327.77697649993934,g,1.0,0.4671767000108957,,,,,sub-032,1,stroop_test,60.45002630053592,
,,,,53.0,5.0,4.0,,,,,,,,,,,,,rot,red,r,1.0,r,1.0,0.4762315000407398,,,,,,,,,,4.0,5.0,53.0,1.0,327.7977561999578,,,,,,,,,,,,,,,,,327.7772755997721,328.99213609984145,329.7930574999191,329.7777547999285,,,,,,,,,,,,,,,,,,,,,,,,,,,,,,,,,,,329.778185099829,329.7930574999191,329.7930574999191,330.2775212998968,r,1.0,0.4762315000407398,,,,,sub-032,1,stroop_test,60.45002630053592,
,,,,54.0,6.0,4.0,,,,,,,,,,,,,rot,blue,b,0.0,b,1.0,0.5355715998448431,,,,,,,,,,4.0,6.0,54.0,2.0,330.2924947999418,,,,,,,,,,,,,,,,,330.2780368998647,331.4770231998991,332.29279989982024,332.2764772998635,,,,,,,,,,,,,,,,,,,,,,,,,,,,,,,,,,,332.2769603999332,332.29279989982024,332.29279989982024,332.84332939982414,b,1.0,0.5355715998448431,,,,,sub-032,1,stroop_test,60.45002630053592,
,,,,55.0,7.0,4.0,,,,,,,,,,,,,blau,red,r,0.0,r,1.0,0.5892394999973476,,,,,,,,,,4.0,7.0,55.0,4.0,332.8585781999864,,,,,,,,,,,,,,,,,332.84371929988265,334.0424980998505,334.84293849999085,334.82710329978727,,,,,,,,,,,,,,,,,,,,,,,,,,,,,,,,,,,334.82958789984696,334.84293849999085,334.84293849999085,335.4424372999929,r,1.0,0.5892394999973476,,,,,sub-032,1,stroop_test,60.45002630053592,
,,,,56.0,8.0,4.0,,,,,,,,,,,,,blau,blue,b,1.0,b,1.0,0.6336922000627965,,,,,,,,,,4.0,8.0,56.0,6.0,335.45864739990793,,,,,,,,,,,,,,,,,335.4427325997967,335.5430308999494,336.34356429986656,336.3274178998545,,,,,,,,,,,,,,,,,,,,,,,,,,,,,,,,,,,336.3279165998101,336.34356429986656,336.34356429986656,336.9941672999412,b,1.0,0.6336922000627965,,,,,sub-032,1,stroop_test,60.45002630053592,
,,,,57.0,9.0,4.0,,,,,,,,,,,,,gelb,red,r,0.0,r,1.0,0.6633152000140399,,,,,,,,,,4.0,9.0,57.0,8.0,337.0085274998564,,,,,,,,,,,,,,,,,336.9945536998566,337.3589262999594,338.15879539982416,338.1426518999506,,,,,,,,,,,,,,,,,,,,,,,,,,,,,,,,,,,338.14554839977063,338.15879539982416,338.15879539982416,338.82676419988275,r,1.0,0.6633152000140399,,,,,sub-032,1,stroop_test,60.45002630053592,
,,,,58.0,10.0,4.0,,,,,,,,,,,,,rot,red,r,1.0,r,1.0,0.4982598000206053,,,,,,,,,,4.0,10.0,58.0,0.0,338.8424776999745,,,,,,,,,,,,,,,,,338.8271458998788,339.626159499865,340.42649079998955,340.4113018999342,,,,,,,,,,,,,,,,,,,,,,,,,,,,,,,,,,,340.413486099802,340.42649079998955,340.42649079998955,340.92774589988403,r,1.0,0.4982598000206053,,,,,sub-032,1,stroop_test,60.45002630053592,
,,,,59.0,11.0,4.0,,,,,,,,,,,,,gelb,yellow,g,1.0,g,1.0,0.5237628999166191,,,,,,,,,,4.0,11.0,59.0,10.0,340.9431986999698,,,,,,,,,,,,,,,,,340.9281386998482,341.2920564999804,342.0928604998626,342.0773169999011,,,,,,,,,,,,,,,,,,,,,,,,,,,,,,,,,,,342.0796811999753,342.0928604998626,342.0928604998626,342.6272267999593,g,1.0,0.5237628999166191,,,,,sub-032,1,stroop_test,60.45002630053592,
,,,,60.0,0.0,5.0,,,,,,,,,,,,,blau,yellow,g,0.0,g,1.0,0.6080227999482304,,,,,,,,,,5.0,0.0,60.0,7.0,342.64180959993973,,,,,,,,,,,,,,,,,342.6275696998928,343.42631559981965,344.2257946999744,344.21049749990925,,,,,,,,,,,,,,,,,,,,,,,,,,,,,,,,,,,344.2130527999252,344.2257946999744,344.2257946999744,344.8437282999512,g,1.0,0.6080227999482304,,,,,sub-032,1,stroop_test,60.45002630053592,
,,,,61.0,1.0,5.0,,,,,,,,,,,,,gelb,red,r,0.0,r,1.0,0.4722315000835806,,,,,,,,,,5.0,1.0,61.0,8.0,344.85941099980846,,,,,,,,,,,,,,,,,344.8440635998268,345.6437769997865,346.44328179978766,346.4277891998645,,,,,,,,,,,,,,,,,,,,,,,,,,,,,,,,,,,346.4306266999338,346.44328179978766,346.44328179978766,346.9274127997924,r,1.0,0.4722315000835806,,,,,sub-032,1,stroop_test,60.45002630053592,
,,,,62.0,2.0,5.0,,,,,,,,,,,,,gelb,yellow,g,1.0,g,1.0,0.5530396001413465,,,,,,,,,,5.0,2.0,62.0,11.0,346.9434301999863,,,,,,,,,,,,,,,,,346.92778989998624,348.1430123997852,348.942393399775,348.9268430999946,,,,,,,,,,,,,,,,,,,,,,,,,,,,,,,,,,,348.9273006999865,348.942393399775,348.942393399775,349.5104790998157,g,1.0,0.5530396001413465,,,,,sub-032,1,stroop_test,60.45002630053592,
,,,,63.0,3.0,5.0,,,,,,,,,,,,,rot,yellow,g,0.0,g,1.0,0.5333263000939041,,,,,,,,,,5.0,3.0,63.0,3.0,349.5255131998565,,,,,,,,,,,,,,,,,349.5110012998339,350.70992599986494,351.5094623998739,351.49309729994275,,,,,,,,,,,,,,,,,,,,,,,,,,,,,,,,,,,351.4963983998168,351.5094623998739,351.5094623998739,352.0599149998743,g,1.0,0.5333263000939041,,,,,sub-032,1,stroop_test,60.45002630053592,
,,,,64.0,4.0,5.0,,,,,,,,,,,,,gelb,yellow,g,1.0,g,1.0,0.422557899961248,,,,,,,,,,5.0,4.0,64.0,10.0,352.0752447999548,,,,,,,,,,,,,,,,,352.06032109982334,353.2590028999839,354.05882049980573,354.0440863999538,,,,,,,,,,,,,,,,,,,,,,,,,,,,,,,,,,,354.04644939978607,354.05882049980573,354.05882049980573,354.49304989981465,g,1.0,0.422557899961248,,,,,sub-032,1,stroop_test,60.45002630053592,
,,,,65.0,5.0,5.0,,,,,,,,,,,,,rot,blue,b,0.0,b,1.0,0.6574687999673188,,,,,,,,,,5.0,5.0,65.0,2.0,354.5087449999992,,,,,,,,,,,,,,,,,354.4934310999233,355.3083872999996,356.10859759990126,356.09305569995195,,,,,,,,,,,,,,,,,,,,,,,,,,,,,,,,,,,356.0958274998702,356.10859759990126,356.10859759990126,356.77697309991345,b,1.0,0.6574687999673188,,,,,sub-032,1,stroop_test,60.45002630053592,
,,,,66.0,6.0,5.0,,,,,,,,,,,,,gelb,blue,b,0.0,b,1.0,0.4203411000780761,,,,,,,,,,5.0,6.0,66.0,9.0,356.79217119980603,,,,,,,,,,,,,,,,,356.77727119997144,357.57691319985315,358.3754836998414,358.3601068998687,,,,,,,,,,,,,,,,,,,,,,,,,,,,,,,,,,,358.36290959990583,358.3754836998414,358.3754836998414,358.81105429981835,b,1.0,0.4203411000780761,,,,,sub-032,1,stroop_test,60.45002630053592,
,,,,67.0,7.0,5.0,,,,,,,,,,,,,rot,red,r,1.0,r,1.0,0.5058128999080509,,,,,,,,,,5.0,7.0,67.0,0.0,358.82596449996345,,,,,,,,,,,,,,,,,358.8113591999281,359.62543549994007,360.4259136999026,360.4095452998299,,,,,,,,,,,,,,,,,,,,,,,,,,,,,,,,,,,360.4121909998357,360.4259136999026,360.4259136999026,360.94407819979824,r,1.0,0.5058128999080509,,,,,sub-032,1,stroop_test,60.45002630053592,
,,,,68.0,8.0,5.0,,,,,,,,,,,,,blau,blue,b,1.0,b,1.0,0.4392075999639928,,,,,,,,,,5.0,8.0,68.0,5.0,360.95940539985895,,,,,,,,,,,,,,,,,360.9443836999126,361.7599951999728,362.5584057997912,362.5487688998692,,,,,,,,,,,,,,,,,,,,,,,,,,,,,,,,,,,362.5511765999254,362.5584057997912,362.5584057997912,363.0108335998375,b,1.0,0.4392075999639928,,,,,sub-032,1,stroop_test,60.45002630053592,
,,,,69.0,9.0,5.0,,,,,,,,,,,,,blau,blue,b,1.0,b,1.0,0.4714079999830574,,,,,,,,,,5.0,9.0,69.0,6.0,363.02685329993255,,,,,,,,,,,,,,,,,363.0112465999555,363.3757191998884,364.17667859978974,364.160776599776,,,,,,,,,,,,,,,,,,,,,,,,,,,,,,,,,,,364.1612851999234,364.17667859978974,364.17667859978974,364.66074569989,b,1.0,0.4714079999830574,,,,,sub-032,1,stroop_test,60.45002630053592,
,,,,70.0,10.0,5.0,,,,,,,,,,,,,rot,red,r,1.0,r,1.0,0.5342753999866545,,,,,,,,,,5.0,10.0,70.0,1.0,364.6758490998764,,,,,,,,,,,,,,,,,364.6611339999363,365.0256493999623,365.82559449994005,365.8099419998471,,,,,,,,,,,,,,,,,,,,,,,,,,,,,,,,,,,365.8122768998146,365.82559449994005,365.82559449994005,366.3763367999345,r,1.0,0.5342753999866545,,,,,sub-032,1,stroop_test,60.45002630053592,
,,,,71.0,11.0,5.0,,,,,,,,,,,,,blau,red,r,0.0,r,1.0,0.5554623000789434,,,,,,,,,,5.0,11.0,71.0,4.0,366.3926555998624,,,,,,,,,,,,,,,,,366.3766600999516,367.57584699988365,368.37584249977954,368.3607202998828,,,,,,,,,,,,,,,,,,,,,,,,,,,,,,,,,,,368.3630620997865,368.37584249977954,368.37584249977954,368.944750999799,r,1.0,0.5554623000789434,,,,,sub-032,1,stroop_test,60.45002630053592,
,,,,72.0,0.0,6.0,,,,,,,,,,,,,rot,red,r,1.0,r,1.0,0.4793785999063402,,,,,,,,,,6.0,0.0,72.0,1.0,368.9594623998273,,,,,,,,,,,,,,,,,368.94505819980986,369.7590686997864,370.55845329980366,370.5429634999018,,,,,,,,,,,,,,,,,,,,,,,,,,,,,,,,,,,370.545613899827,370.55845329980366,370.55845329980366,371.04396259994246,r,1.0,0.4793785999063402,,,,,sub-032,1,stroop_test,60.45002630053592,
,,,,73.0,1.0,6.0,,,,,,,,,,,,,gelb,blue,b,0.0,b,1.0,0.4764417998958379,,,,,,,,,,6.0,1.0,73.0,9.0,371.0589832998812,,,,,,,,,,,,,,,,,371.0443541998975,371.40886579989456,372.20934819988906,372.19354829983786,,,,,,,,,,,,,,,,,,,,,,,,,,,,,,,,,,,372.1964200998191,372.20934819988906,372.20934819988906,372.6940348998178,b,1.0,0.4764417998958379,,,,,sub-032,1,stroop_test,60.45002630053592,
,,,,74.0,2.0,6.0,,,,,,,,,,,,,gelb,red,r,0.0,r,1.0,0.7513949000276625,,,,,,,,,,6.0,2.0,74.0,8.0,372.7092753998004,,,,,,,,,,,,,,,,,372.6944420998916,373.89253419986926,374.6927646999248,374.6762957999017,,,,,,,,,,,,,,,,,,,,,,,,,,,,,,,,,,,374.67673969990574,374.6927646999248,374.6927646999248,375.4603784999345,r,1.0,0.7513949000276625,,,,,sub-032,1,stroop_test,60.45002630053592,
,,,,75.0,3.0,6.0,,,,,,,,,,,,,rot,blue,b,0.0,b,1.0,0.58450510003604,,,,,,,,,,6.0,3.0,75.0,2.0,375.4755867999047,,,,,,,,,,,,,,,,,375.4608090999536,376.6754083998967,377.4769818999339,377.4606814999133,,,,,,,,,,,,,,,,,,,,,,,,,,,,,,,,,,,377.4628703999333,377.4769818999339,377.4769818999339,378.0772037999705,b,1.0,0.58450510003604,,,,,sub-032,1,stroop_test,60.45002630053592,
,,,,76.0,4.0,6.0,,,,,,,,,,,,,blau,blue,b,1.0,b,1.0,0.5931269000284374,,,,,,,,,,6.0,4.0,76.0,5.0,378.0922206998803,,,,,,,,,,,,,,,,,378.0776511998847,378.1763086998835,378.97591809998266,378.9605418997817,,,,,,,,,,,,,,,,,,,,,,,,,,,,,,,,,,,378.9641325999983,378.97591809998266,378.97591809998266,379.5757855998818,b,1.0,0.5931269000284374,,,,,sub-032,1,stroop_test,60.45002630053592,
,,,,77.0,5.0,6.0,,,,,,,,,,,,,blau,blue,b,1.0,b,1.0,0.4355042001698166,,,,,,,,,,6.0,5.0,77.0,6.0,379.59183519985527,,,,,,,,,,,,,,,,,379.5761230997741,380.3766169999726,381.1766933999024,381.160436199978,,,,,,,,,,,,,,,,,,,,,,,,,,,,,,,,,,,381.1609206998255,381.1766933999024,381.1766933999024,381.62739639985375,b,1.0,0.4355042001698166,,,,,sub-032,1,stroop_test,60.45002630053592,
,,,,78.0,6.0,6.0,,,,,,,,,,,,,blau,red,r,0.0,r,1.0,0.5004273999948055,,,,,,,,,,6.0,6.0,78.0,4.0,381.6424578998704,,,,,,,,,,,,,,,,,381.6276982999407,382.84239509981126,383.6430033999495,383.6273866998963,,,,,,,,,,,,,,,,,,,,,,,,,,,,,,,,,,,383.627809099853,383.6430033999495,383.6430033999495,384.1595682997722,r,1.0,0.5004273999948055,,,,,sub-032,1,stroop_test,60.45002630053592,
,,,,79.0,7.0,6.0,,,,,,,,,,,,,gelb,yellow,g,1.0,g,1.0,0.5249595998320729,,,,,,,,,,6.0,7.0,79.0,11.0,384.1750291998033,,,,,,,,,,,,,,,,,384.1599912999664,385.3751388997771,386.17636189982295,386.15977499983273,,,,,,,,,,,,,,,,,,,,,,,,,,,,,,,,,,,386.1620262998622,386.17636189982295,386.17636189982295,386.7097338999156,g,1.0,0.5249595998320729,,,,,sub-032,1,stroop_test,60.45002630053592,
,,,,80.0,8.0,6.0,,,,,,,,,,,,,blau,yellow,g,0.0,g,1.0,0.4721687000710517,,,,,,,,,,6.0,8.0,80.0,7.0,386.7259298998397,,,,,,,,,,,,,,,,,386.710076399846,387.0596805999521,387.8596598999575,387.84415089990944,,,,,,,,,,,,,,,,,,,,,,,,,,,,,,,,,,,387.8469497999176,387.8596598999575,387.8596598999575,388.34375839983113,g,1.0,0.4721687000710517,,,,,sub-032,1,stroop_test,60.45002630053592,
,,,,81.0,9.0,6.0,,,,,,,,,,,,,gelb,yellow,g,1.0,g,1.0,0.4657491999678314,,,,,,,,,,6.0,9.0,81.0,10.0,388.3603389998898,,,,,,,,,,,,,,,,,388.34406519983895,388.7099374998361,389.5098899998702,389.4936077999882,,,,,,,,,,,,,,,,,,,,,,,,,,,,,,,,,,,389.49585679988377,389.5098899998702,389.5098899998702,389.9777121997904,g,1.0,0.4657491999678314,,,,,sub-032,1,stroop_test,60.45002630053592,
,,,,82.0,10.0,6.0,,,,,,,,,,,,,rot,yellow,g,0.0,g,1.0,0.728441100101918,,,,,,,,,,6.0,10.0,82.0,3.0,389.99342169985175,,,,,,,,,,,,,,,,,389.9780525998213,390.3431447998155,391.1592415999621,391.14308739989065,,,,,,,,,,,,,,,,,,,,,,,,,,,,,,,,,,,391.1458036999684,391.1592415999621,391.1592415999621,391.89450259995647,g,1.0,0.728441100101918,,,,,sub-032,1,stroop_test,60.45002630053592,
,,,,83.0,11.0,6.0,,,,,,,,,,,,,rot,red,r,1.0,r,1.0,0.5809057999867946,,,,,,,,,,6.0,11.0,83.0,0.0,391.90984949981794,,,,,,,,,,,,,,,,,391.89481079997495,392.7098045998719,393.5249419999309,393.5086779999546,,,,,,,,,,,,,,,,,,,,,,,,,,,,,,,,,,,393.50918039982207,393.5249419999309,393.5249419999309,394.11052149999887,r,1.0,0.5809057999867946,,,,,sub-032,1,stroop_test,60.45002630053592,
,,,,84.0,0.0,7.0,,,,,,,,,,,,,blau,red,r,0.0,r,1.0,0.6738647001329809,,,,,,,,,,7.0,0.0,84.0,4.0,394.12618019990623,,,,,,,,,,,,,,,,,394.1108395999763,394.4756628999021,395.2763209999539,395.2599962998647,,,,,,,,,,,,,,,,,,,,,,,,,,,,,,,,,,,395.262843699893,395.2763209999539,395.2763209999539,395.9602254999336,r,1.0,0.6738647001329809,,,,,sub-032,1,stroop_test,60.45002630053592,
,,,,85.0,1.0,7.0,,,,,,,,,,,,,blau,blue,b,1.0,b,1.0,0.5314466999843717,,,,,,,,,,7.0,1.0,85.0,6.0,395.9761833997909,,,,,,,,,,,,,,,,,395.9605659998488,396.3257806999609,397.125648799818,397.1095557999797,,,,,,,,,,,,,,,,,,,,,,,,,,,,,,,,,,,397.1101354998536,397.125648799818,397.125648799818,397.6600450999104,b,1.0,0.5314466999843717,,,,,sub-032,1,stroop_test,60.45002630053592,
,,,,86.0,2.0,7.0,,,,,,,,,,,,,blau,blue,b,1.0,b,1.0,0.4608907999936491,,,,,,,,,,7.0,2.0,86.0,5.0,397.6757414999884,,,,,,,,,,,,,,,,,397.6604689999949,398.4754279998597,399.27546909987,399.2596250998322,,,,,,,,,,,,,,,,,,,,,,,,,,,,,,,,,,,399.2600311997812,399.27546909987,399.27546909987,399.7436930998229,b,1.0,0.4608907999936491,,,,,sub-032,1,stroop_test,60.45002630053592,
,,,,87.0,3.0,7.0,,,,,,,,,,,,,rot,red,r,1.0,r,1.0,0.6019528999458998,,,,,,,,,,7.0,3.0,87.0,0.0,399.75957659981214,,,,,,,,,,,,,,,,,399.744011499919,400.093191599939,400.8927621999756,400.8769235999789,,,,,,,,,,,,,,,,,,,,,,,,,,,,,,,,,,,400.879100699909,400.8927621999756,400.8927621999756,401.5114036998712,r,1.0,0.6019528999458998,,,,,sub-032,1,stroop_test,60.45002630053592,
,,,,88.0,4.0,7.0,,,,,,,,,,,,,rot,yellow,g,0.0,g,1.0,0.4725152000319212,,,,,,,,,,7.0,4.0,88.0,3.0,401.5261382998433,,,,,,,,,,,,,,,,,401.511796399951,402.32532719988376,403.1258751999121,403.1098376999144,,,,,,,,,,,,,,,,,,,,,,,,,,,,,,,,,,,403.1103098997846,403.1258751999121,403.1258751999121,403.6096869998146,g,1.0,0.4725152000319212,,,,,sub-032,1,stroop_test,60.45002630053592,
,,,,89.0,5.0,7.0,,,,,,,,,,,,,blau,yellow,g,0.0,g,1.0,0.4947822000831365,,,,,,,,,,7.0,5.0,89.0,7.0,403.62554029980674,,,,,,,,,,,,,,,,,403.61003969982266,404.42540929978713,405.2254053999204,405.2090404999908,,,,,,,,,,,,,,,,,,,,,,,,,,,,,,,,,,,405.2115837999154,405.2254053999204,405.2254053999204,405.7269527998287,g,1.0,0.4947822000831365,,,,,sub-032,1,stroop_test,60.45002630053592,
,,,,90.0,6.0,7.0,,,,,,,,,,,,,gelb,yellow,g,1.0,g,1.0,0.4960861001163721,,,,,,,,,,7.0,6.0,90.0,11.0,405.7430513999425,,,,,,,,,,,,,,,,,405.7273262999952,405.8420691997744,406.6425540999044,406.6271647999529,,,,,,,,,,,,,,,,,,,,,,,,,,,,,,,,,,,406.6298134999816,406.6425540999044,406.6425540999044,407.14344029990025,g,1.0,0.4960861001163721,,,,,sub-032,1,stroop_test,60.45002630053592,
,,,,91.0,7.0,7.0,,,,,,,,,,,,,gelb,blue,b,0.0,b,1.0,0.4612966000568121,,,,,,,,,,7.0,7.0,91.0,9.0,407.1586998999119,,,,,,,,,,,,,,,,,407.1437392998487,407.9589999997988,408.75936549995095,408.7430140997749,,,,,,,,,,,,,,,,,,,,,,,,,,,,,,,,,,,408.7434493999463,408.75936549995095,408.75936549995095,409.225810599979,b,1.0,0.4612966000568121,,,,,sub-032,1,stroop_test,60.45002630053592,
,,,,92.0,8.0,7.0,,,,,,,,,,,,,gelb,red,r,0.0,r,1.0,0.445229799952358,,,,,,,,,,7.0,8.0,92.0,8.0,409.2422349997796,,,,,,,,,,,,,,,,,409.22610979992896,409.5756460998673,410.3755065998994,410.3595664999448,,,,,,,,,,,,,,,,,,,,,,,,,,,,,,,,,,,410.360163499834,410.3755065998994,410.3755065998994,410.8273858998437,r,1.0,0.445229799952358,,,,,sub-032,1,stroop_test,60.45002630053592,
,,,,93.0,9.0,7.0,,,,,,,,,,,,,rot,blue,b,0.0,b,1.0,0.6533679000567645,,,,,,,,,,7.0,9.0,93.0,2.0,410.8427573998924,,,,,,,,,,,,,,,,,410.8276931999717,412.0427300999872,412.8588487999514,412.8421791999135,,,,,,,,,,,,,,,,,,,,,,,,,,,,,,,,,,,412.844941599993,412.8588487999514,412.8588487999514,413.5276650998276,b,1.0,0.6533679000567645,,,,,sub-032,1,stroop_test,60.45002630053592,
,,,,94.0,10.0,7.0,,,,,,,,,,,,,rot,red,r,1.0,r,1.0,0.5109931998886168,,,,,,,,,,7.0,10.0,94.0,1.0,413.5428915999364,,,,,,,,,,,,,,,,,413.5279730998445,413.8913209999446,414.6928608999588,414.67714839987457,,,,,,,,,,,,,,,,,,,,,,,,,,,,,,,,,,,414.67765039997175,414.6928608999588,414.6928608999588,415.2111580998171,r,1.0,0.5109931998886168,,,,,sub-032,1,stroop_test,60.45002630053592,
,,,,95.0,11.0,7.0,,,,,,,,,,,,,gelb,yellow,g,1.0,g,1.0,0.6074985000304878,,,,,,,,,,7.0,11.0,95.0,10.0,415.2259970998857,,,,,,,,,,,,,,,,,415.2115725998301,415.3263624999672,416.1267577998806,416.1103548998945,,,,,,,,,,,,,,,,,,,,,,,,,,,,,,,,,,,416.11286019999534,416.1267577998806,416.1267577998806,416.7425108999014,g,1.0,0.6074985000304878,,,,,sub-032,1,stroop_test,60.45002630053592,
,,,,96.0,0.0,8.0,,,,,,,,,,,,,rot,blue,b,0.0,b,1.0,0.6309509999118745,,,,,,,,,,8.0,0.0,96.0,2.0,416.7587521998212,,,,,,,,,,,,,,,,,416.7428159997799,417.5428124999162,418.359165799804,418.34291439992376,,,,,,,,,,,,,,,,,,,,,,,,,,,,,,,,,,,418.3454685998149,418.359165799804,418.359165799804,418.9930882998742,b,1.0,0.6309509999118745,,,,,sub-032,1,stroop_test,60.45002630053592,
,,,,97.0,1.0,8.0,,,,,,,,,,,,,gelb,yellow,g,1.0,g,1.0,0.5949108998756856,,,,,,,,,,8.0,1.0,97.0,10.0,419.00886619999073,,,,,,,,,,,,,,,,,418.9933987997938,419.092747299932,419.8930393999908,419.876544199884,,,,,,,,,,,,,,,,,,,,,,,,,,,,,,,,,,,419.8793818999548,419.8930393999908,419.8930393999908,420.4935349998996,g,1.0,0.5949108998756856,,,,,sub-032,1,stroop_test,60.45002630053592,
,,,,98.0,2.0,8.0,,,,,,,,,,,,,blau,blue,b,1.0,b,1.0,0.7947283999528736,,,,,,,,,,8.0,2.0,98.0,5.0,420.508823499782,,,,,,,,,,,,,,,,,420.4939440998714,421.3084506997839,422.10865089995787,422.0927176999394,,,,,,,,,,,,,,,,,,,,,,,,,,,,,,,,,,,422.0950467998628,422.10865089995787,422.10865089995787,422.908894599881,b,1.0,0.7947283999528736,,,,,sub-032,1,stroop_test,60.45002630053592,
,,,,99.0,3.0,8.0,,,,,,,,,,,,,gelb,blue,b,0.0,b,1.0,0.3980246998835355,,,,,,,,,,8.0,3.0,99.0,9.0,422.9254072997719,,,,,,,,,,,,,,,,,422.9092994998209,423.2596635997761,424.05988539988175,424.0435244999826,,,,,,,,,,,,,,,,,,,,,,,,,,,,,,,,,,,424.04623289988376,424.05988539988175,424.05988539988175,424.459299699869,b,1.0,0.3980246998835355,,,,,sub-032,1,stroop_test,60.45002630053592,
,,,,100.0,4.0,8.0,,,,,,,,,,,,,rot,red,r,1.0,r,1.0,0.4570594001561403,,,,,,,,,,8.0,4.0,100.0,0.0,424.4753047998529,,,,,,,,,,,,,,,,,424.4596161998343,425.25954919983633,426.0601420998573,426.0430773999542,,,,,,,,,,,,,,,,,,,,,,,,,,,,,,,,,,,426.0452774998266,426.0601420998573,426.0601420998573,426.52742529986426,r,1.0,0.4570594001561403,,,,,sub-032,1,stroop_test,60.45002630053592,
,,,,101.0,5.0,8.0,,,,,,,,,,,,,blau,red,r,0.0,r,1.0,0.4153878998477012,,,,,,,,,,8.0,5.0,101.0,4.0,426.5424988998566,,,,,,,,,,,,,,,,,426.52772699994966,427.7260171999224,428.5249548999127,428.5094361999072,,,,,,,,,,,,,,,,,,,,,,,,,,,,,,,,,,,428.5123038999736,428.5249548999127,428.5249548999127,428.94325909996405,r,1.0,0.4153878998477012,,,,,sub-032,1,stroop_test,60.45002630053592,
,,,,102.0,6.0,8.0,,,,,,,,,,,,,rot,yellow,g,0.0,g,1.0,0.4936345999594778,,,,,,,,,,8.0,6.0,102.0,3.0,428.9590975998435,,,,,,,,,,,,,,,,,428.94359019980766,430.1595387998968,430.9597558998503,430.94351209979504,,,,,,,,,,,,,,,,,,,,,,,,,,,,,,,,,,,430.9459004998207,430.9597558998503,430.9597558998503,431.4600651999936,g,1.0,0.4936345999594778,,,,,sub-032,1,stroop_test,60.45002630053592,
,,,,103.0,7.0,8.0,,,,,,,,,,,,,blau,blue,b,1.0,b,1.0,0.419460600009188,,,,,,,,,,8.0,7.0,103.0,6.0,431.47521379985847,,,,,,,,,,,,,,,,,431.4604957997799,432.6755715999752,433.4753541999962,433.4592720998917,,,,,,,,,,,,,,,,,,,,,,,,,,,,,,,,,,,433.4628219997976,433.4753541999962,433.4753541999962,433.9099850999192,b,1.0,0.419460600009188,,,,,sub-032,1,stroop_test,60.45002630053592,
,,,,104.0,8.0,8.0,,,,,,,,,,,,,gelb,red,r,0.0,r,1.0,0.5568381000775844,,,,,,,,,,8.0,8.0,104.0,8.0,433.9259931999258,,,,,,,,,,,,,,,,,433.9102942999453,434.0089826998301,434.80916669988073,434.79379909997806,,,,,,,,,,,,,,,,,,,,,,,,,,,,,,,,,,,434.7972069999669,434.80916669988073,434.80916669988073,435.3774832999334,r,1.0,0.5568381000775844,,,,,sub-032,1,stroop_test,60.45002630053592,
,,,,105.0,9.0,8.0,,,,,,,,,,,,,rot,red,r,1.0,r,1.0,0.4033480000216514,,,,,,,,,,8.0,9.0,105.0,1.0,435.3919001999311,,,,,,,,,,,,,,,,,435.3777878999245,436.5919597998727,437.39182379981503,437.37561349989846,,,,,,,,,,,,,,,,,,,,,,,,,,,,,,,,,,,437.3783361997921,437.39182379981503,437.39182379981503,437.8116328998003,r,1.0,0.4033480000216514,,,,,sub-032,1,stroop_test,60.45002630053592,
,,,,106.0,10.0,8.0,,,,,,,,,,,,,blau,yellow,g,0.0,g,1.0,0.4391305998433381,,,,,,,,,,8.0,10.0,106.0,7.0,437.8260285998695,,,,,,,,,,,,,,,,,437.8120299999137,439.0082364999689,439.8083570997696,439.7933979998343,,,,,,,,,,,,,,,,,,,,,,,,,,,,,,,,,,,439.7963473999407,439.8083570997696,439.8083570997696,440.2600780997891,g,1.0,0.4391305998433381,,,,,sub-032,1,stroop_test,60.45002630053592,
,,,,107.0,11.0,8.0,,,,,,,,,,,,,gelb,yellow,g,1.0,g,1.0,0.538070100126788,,,,,,,,,,8.0,11.0,107.0,11.0,440.2754199998453,,,,,,,,,,,,,,,,,440.260384199908,440.6093301998917,441.4088758998551,441.3929454998579,,,,,,,,,,,,,,,,,,,,,,,,,,,,,,,,,,,441.3954994999804,441.4088758998551,441.4088758998551,441.9605654999614,g,1.0,0.538070100126788,,,,,sub-032,1,stroop_test,60.45002630053592,
,,,,108.0,0.0,9.0,,,,,,,,,,,,,blau,blue,b,1.0,b,1.0,0.4793797999154776,,,,,,,,,,9.0,0.0,108.0,6.0,441.9764339998365,,,,,,,,,,,,,,,,,441.96095129987225,443.1745270998217,443.9752938998863,443.959503499791,,,,,,,,,,,,,,,,,,,,,,,,,,,,,,,,,,,443.9619706999511,443.9752938998863,443.9752938998863,444.4593672999181,b,1.0,0.4793797999154776,,,,,sub-032,1,stroop_test,60.45002630053592,
,,,,109.0,1.0,9.0,,,,,,,,,,,,,rot,blue,b,0.0,b,1.0,0.4621942001394927,,,,,,,,,,9.0,1.0,109.0,2.0,444.47481199982576,,,,,,,,,,,,,,,,,444.45967859984376,445.6596268999856,446.4591905998532,446.4431202998385,,,,,,,,,,,,,,,,,,,,,,,,,,,,,,,,,,,446.4459274997935,446.4591905998532,446.4591905998532,446.9261284999084,b,1.0,0.4621942001394927,,,,,sub-032,1,stroop_test,60.45002630053592,
,,,,110.0,2.0,9.0,,,,,,,,,,,,,blau,yellow,g,0.0,g,1.0,0.5463427000213414,,,,,,,,,,9.0,2.0,110.0,7.0,446.9415243999101,,,,,,,,,,,,,,,,,446.9265088997781,448.1278803998139,448.9420948999468,448.92589309997857,,,,,,,,,,,,,,,,,,,,,,,,,,,,,,,,,,,448.9288706998341,448.9420948999468,448.9420948999468,449.4930760997813,g,1.0,0.5463427000213414,,,,,sub-032,1,stroop_test,60.45002630053592,
,,,,111.0,3.0,9.0,,,,,,,,,,,,,rot,red,r,1.0,r,1.0,0.4404575999360531,,,,,,,,,,9.0,3.0,111.0,1.0,449.5087852999568,,,,,,,,,,,,,,,,,449.4934825999662,449.8588227999862,450.65843999991193,450.6428432997782,,,,,,,,,,,,,,,,,,,,,,,,,,,,,,,,,,,450.6455278999638,450.65843999991193,450.65843999991193,451.1109233999159,r,1.0,0.4404575999360531,,,,,sub-032,1,stroop_test,60.45002630053592,
,,,,112.0,4.0,9.0,,,,,,,,,,,,,blau,blue,b,1.0,b,1.0,0.5161187998019159,,,,,,,,,,9.0,4.0,112.0,5.0,451.1262457999401,,,,,,,,,,,,,,,,,451.1112521998584,452.3255466998089,453.125209499849,453.1088528998662,,,,,,,,,,,,,,,,,,,,,,,,,,,,,,,,,,,453.1120347999968,453.125209499849,453.125209499849,453.6434217998758,b,1.0,0.5161187998019159,,,,,sub-032,1,stroop_test,60.45002630053592,
,,,,113.0,5.0,9.0,,,,,,,,,,,,,gelb,red,r,0.0,r,1.0,0.7352366999257356,,,,,,,,,,9.0,5.0,113.0,8.0,453.6579400999472,,,,,,,,,,,,,,,,,453.6438135998324,453.7584656998515,454.55782409990206,454.5420654998161,,,,,,,,,,,,,,,,,,,,,,,,,,,,,,,,,,,454.5455017997883,454.55782409990206,454.55782409990206,455.2944009997882,r,1.0,0.7352366999257356,,,,,sub-032,1,stroop_test,60.45002630053592,
,,,,114.0,6.0,9.0,,,,,,,,,,,,,gelb,blue,b,0.0,b,1.0,0.501393600134179,,,,,,,,,,9.0,6.0,114.0,9.0,455.3093017998617,,,,,,,,,,,,,,,,,455.2948195999488,456.5081865999382,457.3096063998528,457.29293569992296,,,,,,,,,,,,,,,,,,,,,,,,,,,,,,,,,,,457.2934064997826,457.3096063998528,457.3096063998528,457.82621369999833,b,1.0,0.501393600134179,,,,,sub-032,1,stroop_test,60.45002630053592,
,,,,115.0,7.0,9.0,,,,,,,,,,,,,rot,red,r,1.0,r,1.0,0.467362199909985,,,,,,,,,,9.0,7.0,115.0,0.0,457.84185979980975,,,,,,,,,,,,,,,,,457.8265492999926,458.1915837998968,458.9929721998051,458.9769417999778,,,,,,,,,,,,,,,,,,,,,,,,,,,,,,,,,,,458.979992599925,458.9929721998051,458.9929721998051,459.4760808998253,r,1.0,0.467362199909985,,,,,sub-032,1,stroop_test,60.45002630053592,
,,,,116.0,8.0,9.0,,,,,,,,,,,,,gelb,yellow,g,1.0,g,1.0,0.4824210000224411,,,,,,,,,,9.0,8.0,116.0,11.0,459.4920182998758,,,,,,,,,,,,,,,,,459.47645979980007,460.2753573998343,461.0761152999476,461.0600280999206,,,,,,,,,,,,,,,,,,,,,,,,,,,,,,,,,,,461.0623737999704,461.0761152999476,461.0761152999476,461.5606565999333,g,1.0,0.4824210000224411,,,,,sub-032,1,stroop_test,60.45002630053592,
,,,,117.0,9.0,9.0,,,,,,,,,,,,,blau,red,r,0.0,r,1.0,0.5517820999957621,,,,,,,,,,9.0,9.0,117.0,4.0,461.5757480999455,,,,,,,,,,,,,,,,,461.5609614998102,461.9259598997887,462.7263758999761,462.70988409989513,,,,,,,,,,,,,,,,,,,,,,,,,,,,,,,,,,,462.7123288998846,462.7263758999761,462.7263758999761,463.2935002997983,r,1.0,0.5517820999957621,,,,,sub-032,1,stroop_test,60.45002630053592,
,,,,118.0,10.0,9.0,,,,,,,,,,,,,gelb,yellow,g,1.0,g,1.0,0.5702611999586225,,,,,,,,,,9.0,10.0,118.0,10.0,463.3087460999377,,,,,,,,,,,,,,,,,463.293881099904,463.65847519994713,464.4595968998037,464.4437465998344,,,,,,,,,,,,,,,,,,,,,,,,,,,,,,,,,,,464.4460759998765,464.4595968998037,464.4595968998037,465.0423430998344,g,1.0,0.5702611999586225,,,,,sub-032,1,stroop_test,60.45002630053592,
,,,,119.0,11.0,9.0,,,,,,,,,,,,,rot,yellow,g,0.0,r,0.0,0.4228220998775214,,,,,,,,,,9.0,11.0,119.0,3.0,465.0582302999683,,,,,,,,,,,,,,,,,465.0427572999615,465.39328629989177,466.2087333998643,466.1927812998183,,,,,,,,,,,,,,,,,,,,,,,,,,,,,,,,,,,466.194990699878,466.2087333998643,466.2087333998643,466.6436041998677,r,0.0,0.4228220998775214,,,,,sub-032,1,stroop_test,60.45002630053592,
,,,,,,,,,,,,,,,,,,,,,,,,,,,,,,,,,,,,,,,,,,,,,,,,,,,,,,,,,,,,,,,,,,,,,,,,,,,,,,,,,,,,,,,,,,,,,,,,,,,,,,466.6437592997681,466.6591176998336,471.6583316999022,sub-032,1,stroop_test,60.45002630053592,
