direction,corrAns,thisN,thisTrialN,thisRepN,respDots.keys,respDots.corr,respDots.rt,respDots.duration,randomInstr,respRandomInstr.keys,respRandomInstr.rt,respRandomInstr.duration,practice_trials.thisRepN,practice_trials.thisTrialN,practice_trials.thisN,practice_trials.thisIndex,instr_trials.thisRepN,instr_trials.thisTrialN,instr_trials.thisN,instr_trials.thisIndex,test_trials.thisRepN,test_trials.thisTrialN,test_trials.thisN,test_trials.thisIndex,thisRow.t,notes,general_instruction.started,textGeneralInstr.started,respGeneralInstr.started,general_instruction.stopped,respGeneralInstr.keys,respGeneralInstr.rt,respGeneralInstr.duration,ITI.started,fixcross.started,fixcross.stopped,ITI.stopped,dots.started,backgroundDots.started,stimulusDots.started,respDots.started,stimulusDots.stopped,dots.stopped,practice_trials.respDots.keys,practice_trials.respDots.corr,practice_trials.respDots.rt,practice_trials.respDots.duration,feedback.started,textFeedback.started,feedback.stopped,textFeedback.stopped,info.started,textInfo.started,keyRespInfo.started,info.stopped,keyRespInfo.keys,keyRespInfo.rt,keyRespInfo.duration,test_instruction.started,textTestInstr.started,respTestInstr.started,test_instruction.stopped,respTestInstr.keys,respTestInstr.rt,respTestInstr.duration,random_instruction.started,textRandomInstr.started,respRandomInstr.started,random_instruction.stopped,instr_trials.respRandomInstr.keys,instr_trials.respRandomInstr.rt,instr_trials.respRandomInstr.duration,test_trials.respDots.keys,test_trials.respDots.corr,test_trials.respDots.rt,test_trials.respDots.duration,goodbye.started,textGoodbye.started,goodbye.stopped,participant,session,expName,frameRate,Unnamed: 87
,,,,,,,,,,,,,,,,,,,,,,,,,,,0.0119216250022873,0.043758500018157,0.043758500018157,48.3205536250025,space,48.27081025001826,,,,,,,,,,,,,,,,,,,,,,,,,,,,,,,,,,,,,,,,,,,,,,,,sub-211,1,random_dot,,
right,right,0.0,0.0,0.0,right,1.0,5.836225125007331,,,,,,0.0,0.0,0.0,1.0,,,,,,,,,48.38020229199901,,,,,,,,,48.36051729199244,48.43034662501304,49.49201445799554,49.21937279199483,49.22018091700738,49.49201445799554,49.49201445799554,49.49201445799554,54.21814645800623,55.33646479199524,right,1.0,5.836225125007331,,55.34574616700411,55.456263792002574,55.840213832998415,,,,,,,,,,,,,,,,,,,,,,,,,,,,,,sub-211,1,random_dot,,
left,left,1.0,1.0,0.0,left,1.0,5.491931208001915,,,,,,0.0,1.0,1.0,0.0,,,,,,,,,55.85164054200868,,,,,,,,,55.840694957994856,55.934807208017446,56.727379749994725,56.71895870799199,56.719573458016384,56.727379749994725,56.727379749994725,56.727379749994725,61.718252999999095,62.22582095800317,left,1.0,5.491931208001915,,62.22593287500786,62.23939208299271,62.72407408300205,62.73494454199681,,,,,,,,,,,,,,,,,,,,,,,,,,,,,sub-211,1,random_dot,,
left,left,2.0,0.0,1.0,right,0.0,4.66763991699554,,,,,,1.0,0.0,2.0,0.0,,,,,,,,,62.73494454199681,,,,,,,,,62.72439516699524,62.824555333005264,63.617694917018525,63.60826316699968,63.60874454199802,63.617694917018525,63.617694917018525,63.617694917018525,,68.2960517500178,right,0.0,4.66763991699554,,68.30131425001309,68.30730470799608,68.79092770800344,68.80173820801429,,,,,,,,,,,,,,,,,,,,,,,,,,,,,sub-211,1,random_dot,,
right,right,3.0,1.0,1.0,left,0.0,5.716818291984964,,,,,,1.0,1.0,3.0,1.0,,,,,,,,,68.80173820801429,,,,,,,,,68.791314083006,69.59166199999163,70.39322412500042,70.38564670798951,70.38608145801118,70.39322412500042,70.39322412500042,70.39322412500042,75.38500891701551,76.12019916699501,left,0.0,5.716818291984964,,76.12034195801243,76.12933991700993,76.61887012500665,76.62474716699217,,,,,,,,,,,,,,,,,,,,,,,,,,,,,sub-211,1,random_dot,,
left,left,4.0,0.0,2.0,right,0.0,5.483978625008604,,,,,,2.0,0.0,4.0,0.0,,,,,,,,,76.62474716699217,,,,,,,,,76.61926258300082,76.96836554200854,77.76044758301578,77.75259445799747,77.75307274999795,77.76044758301578,77.76044758301578,77.76044758301578,82.75163691700436,83.25410241700592,right,0.0,5.483978625008604,,83.25425200001337,83.2632571250142,83.75233566699899,83.75815937499283,,,,,,,,,,,,,,,,,,,,,,,,,,,,,sub-211,1,random_dot,,
right,right,5.0,1.0,2.0,right,1.0,5.397693832986988,,,,,,2.0,1.0,5.0,1.0,,,,,,,,,83.75815937499283,,,,,,,,,83.75272845799918,84.5518879579904,85.3451604169968,85.33585375000257,85.33631849999074,85.3451604169968,85.3451604169968,85.3451604169968,90.3352221249952,90.75385445801658,right,1.0,5.397693832986988,,90.75725383299869,90.76650820800567,91.2525596670166,91.25832004199036,,,,,,,,,,,,,,,,,,,,,,,,,,,,,sub-211,1,random_dot,,
left,left,6.0,0.0,3.0,left,1.0,6.054174499993678,,,,,,3.0,0.0,6.0,0.0,,,,,,,,,91.25832004199036,,,,,,,,,91.25296437501676,92.05198812499292,92.8438849580125,92.83590783301042,92.83637179201467,92.8438849580125,92.8438849580125,92.8438849580125,97.83495741701336,98.90416645799996,left,1.0,6.054174499993678,,98.90430570801254,98.9134257500118,99.40312520801672,99.4096319579985,,,,,,,,,,,,,,,,,,,,,,,,,,,,,sub-211,1,random_dot,,
right,right,7.0,1.0,3.0,left,0.0,3.1491976249963045,,,,,,3.0,1.0,7.0,1.0,,,,,,,,,99.4096319579985,,,,,,,,,99.40363395799068,99.50229545799084,100.29415104200598,100.2860027080169,100.2864787080034,100.29415104200598,100.29415104200598,100.29415104200598,,103.45316887501394,left,0.0,3.1491976249963045,,103.45652758301004,103.46569216699572,103.95262450000156,103.95814337499904,,,,,,,,,,,,,,,,,,,,,,,,,,,,,sub-211,1,random_dot,,
left,left,8.0,0.0,4.0,right,0.0,5.413918459002161,,,,,,4.0,0.0,8.0,0.0,,,,,,,,,103.95814337499904,,,,,,,,,103.95306470801006,104.30204645800404,105.094724124996,105.08636462499273,105.08692033300758,105.094724124996,105.094724124996,105.094724124996,110.08503620800911,110.51135275000706,right,0.0,5.413918459002161,,110.51150608301396,110.52107145800257,111.00810529201408,111.01872370799538,,,,,,,,,,,,,,,,,,,,,,,,,,,,,sub-211,1,random_dot,,
right,right,9.0,1.0,4.0,left,0.0,5.63738875000854,,,,,,4.0,1.0,9.0,1.0,,,,,,,,,111.01872370799538,,,,,,,,,111.00848662501085,111.80656508301036,112.60102379199816,112.5918021670077,112.59230945800664,112.60102379199816,112.60102379199816,112.60102379199816,117.585428958002,118.24309266699127,left,0.0,5.63738875000854,,118.24320795800304,118.25160520800272,118.73622258301477,118.74208175000967,,,,,,,,,,,,,,,,,,,,,,,,,,,,,sub-211,1,random_dot,,
right,right,10.0,0.0,5.0,right,1.0,2.971664290991612,,,,,,5.0,0.0,10.0,1.0,,,,,,,,,118.74208175000967,,,,,,,,,118.73662475001764,118.84179941701586,119.63489958300488,119.6256435830146,119.62612970799093,119.63489958300488,119.63489958300488,119.63489958300488,,122.61066274999756,right,1.0,2.971664290991612,,122.61384875001386,122.6228127499926,123.10998129201472,123.11852675001136,,,,,,,,,,,,,,,,,,,,,,,,,,,,,sub-211,1,random_dot,,
left,left,11.0,1.0,5.0,right,0.0,1.8340173339820467,,,,,,5.0,1.0,11.0,0.0,,,,,,,,,123.11852675001136,,,,,,,,,123.11039508300018,123.45863879201352,124.26113370800158,124.25279466700158,124.25326037500054,124.26113370800158,124.26113370800158,124.26113370800158,,126.10341816701111,right,0.0,1.8340173339820467,,126.10652358300284,126.11480762501014,126.60300791700138,126.6088523750077,,,,,,,,,,,,,,,,,,,,,,,,,,,,,sub-211,1,random_dot,,
right,right,12.0,0.0,6.0,left,0.0,2.070864374982193,,,,,,6.0,0.0,12.0,1.0,,,,,,,,,126.6088523750077,,,,,,,,,126.60340495800484,126.94225020799786,127.7444257500174,127.73629324999638,127.73676162501216,127.7444257500174,127.7444257500174,127.7444257500174,,129.8201500000141,left,0.0,2.070864374982193,,129.8202685000142,129.82908637501532,130.31953579199035,130.32518991699908,,,,,,,,,,,,,,,,,,,,,,,,,,,,,sub-211,1,random_dot,,
left,left,13.0,1.0,6.0,right,0.0,2.3355264170095325,,,,,,6.0,1.0,13.0,0.0,,,,,,,,,130.32518991699908,,,,,,,,,130.31994212500285,130.41897908301326,131.21106558301835,131.20286183300777,131.20332145801513,131.21106558301835,131.21106558301835,131.21106558301835,,133.55369920801604,right,0.0,2.3355264170095325,,133.55382383300457,133.5626608330058,134.0529075420054,134.05830825000885,,,,,,,,,,,,,,,,,,,,,,,,,,,,,sub-211,1,random_dot,,
right,right,14.0,0.0,7.0,left,0.0,4.581095875008032,,,,,,7.0,0.0,14.0,1.0,,,,,,,,,134.05830825000885,,,,,,,,,134.05329970800085,135.25209691701457,136.04501508301473,136.0364924170135,136.03704608301632,136.04501508301473,136.04501508301473,136.04501508301473,,140.6375277499901,left,0.0,4.581095875008032,,140.63768337501097,140.6465796669945,141.13638904201798,141.14248537499225,,,,,,,,,,,,,,,,,,,,,,,,,,,,,sub-211,1,random_dot,,
left,left,15.0,1.0,7.0,right,0.0,5.609928416990442,,,,,,7.0,1.0,15.0,0.0,,,,,,,,,141.14248537499225,,,,,,,,,141.13684154200018,141.48572650001734,142.2780670420034,142.26977441701456,142.27034300001105,142.2780670420034,142.2780670420034,142.2780670420034,147.26904491698951,147.89514104201226,right,0.0,5.609928416990442,,147.8952884169994,147.9043997080007,148.39247208301094,148.40248558300664,,,,,,,,,,,,,,,,,,,,,,,,,,,,,sub-211,1,random_dot,,
left,left,16.0,0.0,8.0,left,1.0,4.542318958003307,,,,,,8.0,0.0,16.0,0.0,,,,,,,,,148.40248558300664,,,,,,,,,148.3928705000144,149.19228895800188,149.99440808300278,149.98632050000015,149.98678329199902,149.99440808300278,149.99440808300278,149.99440808300278,,154.54344899998978,left,1.0,4.542318958003307,,154.5466599999927,154.5569380829984,155.0418107919977,155.0525798329909,,,,,,,,,,,,,,,,,,,,,,,,,,,,,sub-211,1,random_dot,,
right,right,17.0,1.0,8.0,right,1.0,5.482022083015181,,,,,,8.0,1.0,17.0,1.0,,,,,,,,,155.0525798329909,,,,,,,,,155.0422081249999,155.84272691700608,156.64546083300957,156.6366213330184,156.6371393330046,156.64546083300957,156.64546083300957,156.64546083300957,161.6357774999924,162.1384854580101,right,1.0,5.482022083015181,,162.13869950000662,162.14870512500056,162.6365915420174,162.6424569580122,,,,,,,,,,,,,,,,,,,,,,,,,,,,,sub-211,1,random_dot,,
right,right,18.0,0.0,9.0,right,1.0,5.447717791015748,,,,,,9.0,0.0,18.0,1.0,,,,,,,,,162.6424569580122,,,,,,,,,162.6370992079901,162.73605345800752,163.52779570801067,163.51975537501858,163.52024650000385,163.52779570801067,163.52779570801067,163.52779570801067,168.519400707999,168.97821995799313,right,1.0,5.447717791015748,,168.97834287499427,168.98856008300208,169.47526012500748,169.48596283301595,,,,,,,,,,,,,,,,,,,,,,,,,,,,,sub-211,1,random_dot,,
left,left,19.0,1.0,9.0,right,0.0,5.600762792018941,,,,,,9.0,1.0,19.0,0.0,,,,,,,,,169.48596283301595,,,,,,,,,169.47573579201708,169.82490329199936,170.61860383299063,170.6101428749971,170.6106487920042,170.61860383299063,170.61860383299063,170.61860383299063,175.60222016699845,176.22224141701008,right,0.0,5.600762792018941,,176.22656599999755,176.23598641701392,176.71966312499717,176.72765933300252,,,,,,,,,,,,,,,,,,,,,,,,,,,,,sub-211,1,random_dot,,
,,,,,,,,,,,,,,,,,,,,,,,,,,,,,,,,,,,,,,,,,,,,,,,,,,,,176.71983775001718,176.72765933300252,176.72765933300252,183.22120679199,space,6.484533084003488,,,,,,,,,,,,,,,,,,,,,,,sub-211,1,random_dot,,
,,,,,,,,,,,,,,,,,,,,,,,,,,,,,,,,,,,,,,,,,,,,,,,,,,,,,,,,,,,183.22129145800136,183.2345820000046,183.2345820000046,194.3392318749975,space,11.09158470897819,,,,,,,,,,,,,,,,sub-211,1,random_dot,,
right,right,0.0,0.0,0.0,right,1.0,5.534742957999697,,speed,space,5.047063750011148,,,,,,0.0,0.0,0.0,1.0,0.0,0.0,0.0,1.0,199.4397769170173,,,,,,,,,199.42901620801425,199.5192512079957,200.31101433301228,200.30346295799245,200.30388308299007,200.31101433301228,200.31101433301228,200.31101433301228,205.30303687500415,205.85472854200637,,,,,,,,,,,,,,,,,,,,,,,194.3639608329977,194.3727643750026,194.3727643750026,199.42198516699136,space,5.047063750011148,,right,1.0,5.534742957999697,,,,,sub-211,1,random_dot,,
left,left,1.0,1.0,0.0,left,1.0,4.300166957982583,,speed,space,5.047063750011148,,,,,,0.0,0.0,0.0,1.0,0.0,1.0,1.0,0.0,205.86414208300997,,,,,,,,,205.85529816700728,205.95292479201453,206.7456462499977,206.7370181250153,206.7375452920096,206.7456462499977,206.7456462499977,206.7456462499977,,211.0542416670069,,,,,,,,,,,,,,,,,,,,,,,,,,,,,,left,1.0,4.300166957982583,,,,,sub-211,1,random_dot,,
left,left,2.0,0.0,1.0,left,1.0,5.358339333994081,,speed,space,5.047063750011148,,,,,,0.0,0.0,0.0,1.0,1.0,0.0,2.0,0.0,211.062972832995,,,,,,,,,211.05465624999488,211.15312000000267,211.94503645799705,211.9369602079969,211.9374307079997,211.94503645799705,211.94503645799705,211.94503645799705,216.93638312499388,217.3150100829953,,,,,,,,,,,,,,,,,,,,,,,,,,,,,,left,1.0,5.358339333994081,,,,,sub-211,1,random_dot,,
right,right,3.0,1.0,1.0,left,0.0,4.033705125009874,,speed,space,5.047063750011148,,,,,,0.0,0.0,0.0,1.0,1.0,1.0,3.0,1.0,217.3361252080067,,,,,,,,,217.3154330420075,218.1091519579932,218.9025057500112,218.8924675000017,218.892922250001,218.9025057500112,218.9025057500112,218.9025057500112,,222.945077832992,,,,,,,,,,,,,,,,,,,,,,,,,,,,,,left,0.0,4.033705125009874,,,,,sub-211,1,random_dot,,
right,right,4.0,0.0,2.0,right,1.0,2.2696073340193834,,speed,space,5.047063750011148,,,,,,0.0,0.0,0.0,1.0,2.0,0.0,4.0,1.0,222.95198099999104,,,,,,,,,222.9454984170152,223.29184700001497,224.0858489999955,224.0762219169992,224.07669820799487,224.0858489999955,224.0858489999955,224.0858489999955,,226.3599994580145,,,,,,,,,,,,,,,,,,,,,,,,,,,,,,right,1.0,2.2696073340193834,,,,,sub-211,1,random_dot,,
left,left,5.0,1.0,2.0,right,0.0,3.618128166999668,,speed,space,5.047063750011148,,,,,,0.0,0.0,0.0,1.0,2.0,1.0,5.0,0.0,226.3693263750174,,,,,,,,,226.36021887499373,227.559042583016,228.3525447080028,228.34238291700603,228.34292887500487,228.3525447080028,228.3525447080028,228.3525447080028,,231.977982625016,,,,,,,,,,,,,,,,,,,,,,,,,,,,,,right,0.0,3.618128166999668,,,,,sub-211,1,random_dot,,
left,left,6.0,0.0,3.0,right,0.0,5.449315417004982,,speed,space,5.047063750011148,,,,,,0.0,0.0,0.0,1.0,3.0,0.0,6.0,0.0,231.9869442080089,,,,,,,,,231.9783952920116,233.1763585419976,233.97825670801103,233.97050004199264,233.97097187500916,233.97825670801103,233.97825670801103,233.97825670801103,238.96990200001164,239.4387597500172,,,,,,,,,,,,,,,,,,,,,,,,,,,,,,right,0.0,5.449315417004982,,,,,sub-211,1,random_dot,,
right,right,7.0,1.0,3.0,left,0.0,5.6505867920059245,,speed,space,5.047063750011148,,,,,,0.0,0.0,0.0,1.0,3.0,1.0,7.0,1.0,239.44736554200065,,,,,,,,,239.43929412501168,239.78668266700697,240.57864704201347,240.5706687080092,240.57111650001025,240.57864704201347,240.57864704201347,240.57864704201347,245.5697400420031,246.23881291699945,,,,,,,,,,,,,,,,,,,,,,,,,,,,,,left,0.0,5.6505867920059245,,,,,sub-211,1,random_dot,,
left,left,8.0,0.0,4.0,left,1.0,5.360113500006264,,speed,space,5.047063750011148,,,,,,0.0,0.0,0.0,1.0,4.0,0.0,8.0,0.0,246.247635000007,,,,,,,,,246.23934358300176,247.03673900000285,247.82865441701145,247.82057408301625,247.8210498749977,247.82865441701145,247.82865441701145,247.82865441701145,252.81992208299928,253.1965460829961,,,,,,,,,,,,,,,,,,,,,,,,,,,,,,left,1.0,5.360113500006264,,,,,sub-211,1,random_dot,,
right,right,9.0,1.0,4.0,right,1.0,5.301146499987226,,speed,space,5.047063750011148,,,,,,0.0,0.0,0.0,1.0,4.0,1.0,9.0,1.0,253.20562791699197,,,,,,,,,253.1969921250129,253.5434472920024,254.34565495801507,254.3374192079937,254.3378823749954,254.34565495801507,254.34565495801507,254.34565495801507,259.3366005830176,259.65564045798965,,,,,,,,,,,,,,,,,,,,,,,,,,,,,,right,1.0,5.301146499987226,,,,,sub-211,1,random_dot,,
right,right,10.0,0.0,5.0,left,0.0,2.049399791983888,,speed,space,5.047063750011148,,,,,,0.0,0.0,0.0,1.0,5.0,0.0,10.0,1.0,259.6652134169999,,,,,,,,,259.65633837500354,259.7534938750032,260.5449670829985,260.5373520000139,260.5378162919951,260.5449670829985,260.5449670829985,260.5449670829985,,262.6046689579962,,,,,,,,,,,,,,,,,,,,,,,,,,,,,,left,0.0,2.049399791983888,,,,,sub-211,1,random_dot,,
left,left,11.0,1.0,5.0,right,0.0,3.9145801670092624,,speed,space,5.047063750011148,,,,,,0.0,0.0,0.0,1.0,5.0,1.0,11.0,0.0,262.61338108300697,,,,,,,,,262.6050742079969,263.4034922500141,264.1956817079917,264.1874685829971,264.18800845800433,264.1956817079917,264.1956817079917,264.1956817079917,,268.1125440420001,,,,,,,,,,,,,,,,,,,,,,,,,,,,,,right,0.0,3.9145801670092624,,,,,sub-211,1,random_dot,,
left,left,12.0,0.0,6.0,right,0.0,5.331400665978435,,speed,space,5.047063750011148,,,,,,0.0,0.0,0.0,1.0,6.0,0.0,12.0,0.0,268.1220630829921,,,,,,,,,268.1129525830038,268.4603483749961,269.26252079199185,269.2541906250117,269.2547391669941,269.26252079199185,269.26252079199185,269.26252079199185,274.25324062499567,274.6053390830057,,,,,,,,,,,,,,,,,,,,,,,,,,,,,,right,0.0,5.331400665978435,,,,,sub-211,1,random_dot,,
right,right,13.0,1.0,6.0,left,0.0,2.4150638330029324,,speed,space,5.047063750011148,,,,,,0.0,0.0,0.0,1.0,6.0,1.0,13.0,1.0,274.6139888330072,,,,,,,,,274.60576420801226,274.9534001669963,275.7461206250009,275.737600249995,275.73812366698985,275.7461206250009,275.7461206250009,275.7461206250009,,278.17161637500976,,,,,,,,,,,,,,,,,,,,,,,,,,,,,,left,0.0,2.4150638330029324,,,,,sub-211,1,random_dot,,
right,right,14.0,0.0,7.0,right,1.0,3.1045624169928487,,speed,space,5.047063750011148,,,,,,0.0,0.0,0.0,1.0,7.0,0.0,14.0,1.0,278.1772712079983,,,,,,,,,278.1720283750037,278.9703171669971,279.7622532499954,279.7542496249953,279.7547084580001,279.7622532499954,279.7622532499954,279.7622532499954,,282.8713569579995,,,,,,,,,,,,,,,,,,,,,,,,,,,,,,right,1.0,3.1045624169928487,,,,,sub-211,1,random_dot,,
left,left,15.0,1.0,7.0,left,1.0,2.259538417012664,,speed,space,5.047063750011148,,,,,,0.0,0.0,0.0,1.0,7.0,1.0,15.0,0.0,282.8786716670147,,,,,,,,,282.8716589999967,282.96006695801043,283.7624297500006,283.75441804199363,283.75488508300623,283.7624297500006,283.7624297500006,283.7624297500006,,286.0286073750176,,,,,,,,,,,,,,,,,,,,,,,,,,,,,,left,1.0,2.259538417012664,,,,,sub-211,1,random_dot,,
left,left,16.0,0.0,8.0,right,0.0,2.2505684999923687,,speed,space,5.047063750011148,,,,,,0.0,0.0,0.0,1.0,8.0,0.0,16.0,0.0,286.03671091701835,,,,,,,,,286.0290072080097,286.1258737920143,286.9196950829937,286.90969637499074,286.9102427500184,286.9196950829937,286.9196950829937,286.9196950829937,,289.1724039170076,,,,,,,,,,,,,,,,,,,,,,,,,,,,,,right,0.0,2.2505684999923687,,,,,sub-211,1,random_dot,,
right,right,17.0,1.0,8.0,left,0.0,4.562089625018416,,speed,space,5.047063750011148,,,,,,0.0,0.0,0.0,1.0,8.0,1.0,17.0,1.0,289.18106324999826,,,,,,,,,289.1728331670165,289.2703460830089,290.06254945800174,290.0541205420159,290.05467700000736,290.06254945800174,290.06254945800174,290.06254945800174,,294.6286351669987,,,,,,,,,,,,,,,,,,,,,,,,,,,,,,left,0.0,4.562089625018416,,,,,sub-211,1,random_dot,,
right,right,18.0,0.0,9.0,right,1.0,4.2662093749968335,,speed,space,5.047063750011148,,,,,,0.0,0.0,0.0,1.0,9.0,0.0,18.0,1.0,294.63674820799497,,,,,,,,,294.629034957994,294.7271600420063,295.5293157499982,295.52106266701594,295.5215266250016,295.5293157499982,295.5293157499982,295.5293157499982,,299.8051590420073,,,,,,,,,,,,,,,,,,,,,,,,,,,,,,right,1.0,4.2662093749968335,,,,,sub-211,1,random_dot,,
left,left,19.0,1.0,9.0,left,1.0,5.420386832993245,,speed,space,5.047063750011148,,,,,,0.0,0.0,0.0,1.0,9.0,1.0,19.0,0.0,299.81401533301687,,,,,,,,,299.8055762500153,300.6038141250028,301.39583250001306,301.38772416699794,301.3882169999997,301.39583250001306,301.39583250001306,301.39583250001306,306.3872897080146,306.8221900830104,,,,,,,,,,,,,,,,,,,,,,,,,,,,,,left,1.0,5.420386832993245,,,,,sub-211,1,random_dot,,
right,right,20.0,0.0,10.0,right,1.0,3.4594960419926792,,speed,space,5.047063750011148,,,,,,0.0,0.0,0.0,1.0,10.0,0.0,20.0,1.0,306.83144420801545,,,,,,,,,306.8226203749946,306.92066812500707,307.7124314169924,307.7045828750124,307.70505304200924,307.7124314169924,307.7124314169924,307.7124314169924,,311.17870937500265,,,,,,,,,,,,,,,,,,,,,,,,,,,,,,right,1.0,3.4594960419926792,,,,,sub-211,1,random_dot,,
left,left,21.0,1.0,10.0,left,1.0,1.316890499991132,,speed,space,5.047063750011148,,,,,,0.0,0.0,0.0,1.0,10.0,1.0,21.0,0.0,311.1870794999995,,,,,,,,,311.17910624999786,311.2768782500061,312.0700927080179,312.05982654201216,312.06036412500544,312.0700927080179,312.0700927080179,312.0700927080179,,313.38921054199454,,,,,,,,,,,,,,,,,,,,,,,,,,,,,,left,1.0,1.316890499991132,,,,,sub-211,1,random_dot,,
right,right,22.0,0.0,11.0,left,0.0,2.455591624981025,,speed,space,5.047063750011148,,,,,,0.0,0.0,0.0,1.0,11.0,0.0,22.0,1.0,313.39807562500937,,,,,,,,,313.3896195419948,313.7372611669998,314.5291476249986,314.5213307919912,314.5217932499945,314.5291476249986,314.5291476249986,314.5291476249986,,316.9884630829911,,,,,,,,,,,,,,,,,,,,,,,,,,,,,,left,0.0,2.455591624981025,,,,,sub-211,1,random_dot,,
left,left,23.0,1.0,11.0,right,0.0,2.5669759580050595,,speed,space,5.047063750011148,,,,,,0.0,0.0,0.0,1.0,11.0,1.0,23.0,0.0,316.99715116701555,,,,,,,,,316.9888788330136,318.1874153749959,318.979785042,318.97145099999034,318.9719242080173,318.979785042,318.979785042,318.979785042,,321.555273667007,,,,,,,,,,,,,,,,,,,,,,,,,,,,,,right,0.0,2.5669759580050595,,,,,sub-211,1,random_dot,,
left,left,24.0,0.0,12.0,right,0.0,1.9263407920079767,,speed,space,5.047063750011148,,,,,,0.0,0.0,0.0,1.0,12.0,0.0,24.0,0.0,321.5638545000111,,,,,,,,,321.5557010000048,322.3539963749936,323.14653304201784,323.1382420829905,323.13874387499527,323.14653304201784,323.14653304201784,323.14653304201784,,325.07906079199165,,,,,,,,,,,,,,,,,,,,,,,,,,,,,,right,0.0,1.9263407920079767,,,,,sub-211,1,random_dot,,
right,right,25.0,1.0,12.0,right,1.0,5.299946583021665,,speed,space,5.047063750011148,,,,,,0.0,0.0,0.0,1.0,12.0,1.0,25.0,1.0,325.1035927080084,,,,,,,,,325.07946783301304,325.4271989999979,326.22936116700293,326.2212745420111,326.2217275830044,326.22936116700293,326.22936116700293,326.22936116700293,331.2206888330111,331.5395074580156,,,,,,,,,,,,,,,,,,,,,,,,,,,,,,right,1.0,5.299946583021665,,,,,sub-211,1,random_dot,,
left,left,26.0,0.0,13.0,left,1.0,2.5520931250066496,,speed,space,5.047063750011148,,,,,,0.0,0.0,0.0,1.0,13.0,0.0,26.0,0.0,331.54809879200184,,,,,,,,,331.5400174999959,331.63765499999863,332.4294987920148,332.42138266700204,332.42191979201743,332.4294987920148,332.4294987920148,332.4294987920148,,334.9891227920016,,,,,,,,,,,,,,,,,,,,,,,,,,,,,,left,1.0,2.5520931250066496,,,,,sub-211,1,random_dot,,
right,right,27.0,1.0,13.0,right,1.0,5.638736749999225,,speed,space,5.047063750011148,,,,,,0.0,0.0,0.0,1.0,13.0,1.0,27.0,1.0,334.99783629199374,,,,,,,,,334.9895509580092,335.08740970800864,335.8788094999909,335.8711329170037,335.871583708009,335.8788094999909,335.8788094999909,335.8788094999909,340.8595222500153,341.5233022500179,,,,,,,,,,,,,,,,,,,,,,,,,,,,,,right,1.0,5.638736749999225,,,,,sub-211,1,random_dot,,
left,left,28.0,0.0,14.0,right,0.0,2.129241291026119,,speed,space,5.047063750011148,,,,,,0.0,0.0,0.0,1.0,14.0,0.0,28.0,0.0,341.5327225420042,,,,,,,,,341.523890875018,341.8709566250036,342.662342333002,342.6547592499992,342.65523075000965,342.662342333002,342.662342333002,342.662342333002,,344.7962536670093,,,,,,,,,,,,,,,,,,,,,,,,,,,,,,right,0.0,2.129241291026119,,,,,sub-211,1,random_dot,,
right,right,29.0,1.0,14.0,right,1.0,3.537560583004961,,speed,space,5.047063750011148,,,,,,0.0,0.0,0.0,1.0,14.0,1.0,29.0,1.0,344.82051583300927,,,,,,,,,344.79666333299247,345.9938731250004,346.796429250011,346.7881333749974,346.7885945000162,346.796429250011,346.796429250011,346.796429250011,,350.3388326250133,,,,,,,,,,,,,,,,,,,,,,,,,,,,,,right,1.0,3.537560583004961,,,,,sub-211,1,random_dot,,
right,right,30.0,0.0,15.0,left,0.0,3.2089896249817684,,speed,space,5.047063750011148,,,,,,0.0,0.0,0.0,1.0,15.0,0.0,30.0,1.0,350.34747400000924,,,,,,,,,350.3392489170073,351.53735737499665,352.330099874991,352.3218730830122,352.3224037080072,352.330099874991,352.330099874991,352.330099874991,,355.5459341669921,,,,,,,,,,,,,,,,,,,,,,,,,,,,,,left,0.0,3.2089896249817684,,,,,sub-211,1,random_dot,,
left,left,31.0,1.0,15.0,right,0.0,2.442063333000988,,speed,space,5.047063750011148,,,,,,0.0,0.0,0.0,1.0,15.0,1.0,31.0,0.0,355.55465079200803,,,,,,,,,355.5463484170032,355.64575537500787,356.4470367920003,356.4385510830034,356.4391125830007,356.4470367920003,356.4470367920003,356.4470367920003,,358.8958630830166,,,,,,,,,,,,,,,,,,,,,,,,,,,,,,right,0.0,2.442063333000988,,,,,sub-211,1,random_dot,,
right,right,32.0,0.0,16.0,left,0.0,3.0081919160147663,,speed,space,5.047063750011148,,,,,,0.0,0.0,0.0,1.0,16.0,0.0,32.0,1.0,358.9041207499977,,,,,,,,,358.89626104201307,358.9942997920152,359.7967253329989,359.78856612500385,359.7891004999983,359.7967253329989,359.7967253329989,359.7967253329989,,362.81584916700376,,,,,,,,,,,,,,,,,,,,,,,,,,,,,,left,0.0,3.0081919160147663,,,,,sub-211,1,random_dot,,
left,left,33.0,1.0,16.0,right,0.0,1.90476450001006,,speed,space,5.047063750011148,,,,,,0.0,0.0,0.0,1.0,16.0,1.0,33.0,0.0,362.8374071670114,,,,,,,,,362.8162838749995,364.01121033300296,364.81300970801385,364.8050081669935,364.8054780419916,364.81300970801385,364.81300970801385,364.81300970801385,,366.7218395420059,,,,,,,,,,,,,,,,,,,,,,,,,,,,,,right,0.0,1.90476450001006,,,,,sub-211,1,random_dot,,
right,right,34.0,0.0,17.0,right,1.0,1.74340429098811,,speed,space,5.047063750011148,,,,,,0.0,0.0,0.0,1.0,17.0,0.0,34.0,1.0,366.7305579170061,,,,,,,,,366.7222457920143,367.9108882920118,368.7132362500124,368.7050897080044,368.705560833012,368.7132362500124,368.7132362500124,368.7132362500124,,370.462672958005,,,,,,,,,,,,,,,,,,,,,,,,,,,,,,right,1.0,1.74340429098811,,,,,sub-211,1,random_dot,,
left,left,35.0,1.0,17.0,left,1.0,1.5023649590148125,,speed,space,5.047063750011148,,,,,,0.0,0.0,0.0,1.0,17.0,1.0,35.0,0.0,370.4714083330182,,,,,,,,,370.4630814169941,370.5610610829899,371.35340254200855,371.34525975,371.3457367499941,371.35340254200855,371.35340254200855,371.35340254200855,,372.8626914579945,,,,,,,,,,,,,,,,,,,,,,,,,,,,,,left,1.0,1.5023649590148125,,,,,sub-211,1,random_dot,,
right,right,36.0,0.0,18.0,right,1.0,1.2341318750113714,,speed,space,5.047063750011148,,,,,,0.0,0.0,0.0,1.0,18.0,0.0,36.0,1.0,372.8708115830086,,,,,,,,,372.8630953330139,372.9600631670037,373.7539699579938,373.7433197920036,373.743704374996,373.7539699579938,373.7539699579938,373.7539699579938,,374.99886079199496,,,,,,,,,,,,,,,,,,,,,,,,,,,,,,right,1.0,1.2341318750113714,,,,,sub-211,1,random_dot,,
left,left,37.0,1.0,18.0,right,0.0,3.4178139160212595,,speed,space,5.047063750011148,,,,,,0.0,0.0,0.0,1.0,18.0,1.0,37.0,0.0,375.004625792004,,,,,,,,,374.9992657919938,375.794020500005,376.58662037499016,376.5784127500083,376.5789081669936,376.58662037499016,376.58662037499016,376.58662037499016,,380.0070524170005,,,,,,,,,,,,,,,,,,,,,,,,,,,,,,right,0.0,3.4178139160212595,,,,,sub-211,1,random_dot,,
left,left,38.0,0.0,19.0,left,1.0,1.674445375014329,,speed,space,5.047063750011148,,,,,,0.0,0.0,0.0,1.0,19.0,0.0,38.0,0.0,380.01569937501336,,,,,,,,,380.00748349999776,381.2045242500026,381.9965492080082,381.9886216669984,381.9890841250017,381.9965492080082,381.9965492080082,381.9965492080082,,383.67318275000434,,,,,,,,,,,,,,,,,,,,,,,,,,,,,,left,1.0,1.674445375014329,,,,,sub-211,1,random_dot,,
right,right,39.0,1.0,19.0,right,1.0,1.9117427919991317,,speed,space,5.047063750011148,,,,,,0.0,0.0,0.0,1.0,19.0,1.0,39.0,1.0,383.68197837501066,,,,,,,,,383.6735943329986,383.7712650829926,384.563181458012,384.55511933300295,384.5555903330096,384.563181458012,384.563181458012,384.563181458012,,386.4796270829975,,,,,,,,,,,,,,,,,,,,,,,,,,,,,,right,1.0,1.9117427919991317,,,,,sub-211,1,random_dot,,
left,left,40.0,0.0,20.0,right,0.0,2.473232791002374,,speed,space,5.047063750011148,,,,,,0.0,0.0,0.0,1.0,20.0,0.0,40.0,0.0,386.504327542003,,,,,,,,,386.48003262499697,386.5779652080091,387.3704579170153,387.3622309580096,387.3627078749996,387.3704579170153,387.3704579170153,387.3704579170153,,389.84620245799306,,,,,,,,,,,,,,,,,,,,,,,,,,,,,,right,0.0,2.473232791002374,,,,,sub-211,1,random_dot,,
right,right,41.0,1.0,20.0,left,0.0,1.5354455829947256,,speed,space,5.047063750011148,,,,,,0.0,0.0,0.0,1.0,20.0,1.0,41.0,1.0,389.855025375,,,,,,,,,389.8465997920139,389.9446614999906,390.7473642500117,390.7388740000024,390.73940716701327,390.7473642500117,390.7473642500117,390.7473642500117,,392.2892934580159,,,,,,,,,,,,,,,,,,,,,,,,,,,,,,left,0.0,1.5354455829947256,,,,,sub-211,1,random_dot,,
right,right,42.0,0.0,21.0,left,0.0,4.868327333009802,,speed,space,5.047063750011148,,,,,,0.0,0.0,0.0,1.0,21.0,0.0,42.0,1.0,392.29797675000736,,,,,,,,,392.2897012500034,393.0880719580164,393.8799959580065,393.87199695801246,393.87245283299126,393.8799959580065,393.8799959580065,393.8799959580065,,398.7559236669913,,,,,,,,,,,,,,,,,,,,,,,,,,,,,,left,0.0,4.868327333009802,,,,,sub-211,1,random_dot,,
left,left,43.0,1.0,21.0,right,0.0,3.050444666994736,,speed,space,5.047063750011148,,,,,,0.0,0.0,0.0,1.0,21.0,1.0,43.0,0.0,398.765028875001,,,,,,,,,398.7563989170012,399.5547155830136,400.3472162079997,400.3389191669994,400.33946441701846,400.3472162079997,400.3472162079997,400.3472162079997,,403.4061975420045,,,,,,,,,,,,,,,,,,,,,,,,,,,,,,right,0.0,3.050444666994736,,,,,sub-211,1,random_dot,,
left,left,44.0,0.0,22.0,left,1.0,5.143433291988913,,speed,space,5.047063750011148,,,,,,0.0,0.0,0.0,1.0,22.0,0.0,44.0,0.0,403.41502325001056,,,,,,,,,403.4066161249939,404.6048146669928,405.3967375420034,405.3887843750126,405.38925070801633,405.3967375420034,405.3967375420034,405.3967375420034,410.3879528749967,410.54598058300326,,,,,,,,,,,,,,,,,,,,,,,,,,,,,,left,1.0,5.143433291988913,,,,,sub-211,1,random_dot,,
right,right,45.0,1.0,22.0,left,0.0,1.1603844169876538,,speed,space,5.047063750011148,,,,,,0.0,0.0,0.0,1.0,22.0,1.0,45.0,1.0,410.5550437920028,,,,,,,,,410.5464055830089,411.34507687500445,412.1469863750099,412.1388218330103,412.139287500002,412.1469863750099,412.1469863750099,412.1469863750099,,413.3131138329918,,,,,,,,,,,,,,,,,,,,,,,,,,,,,,left,0.0,1.1603844169876538,,,,,sub-211,1,random_dot,,
right,right,46.0,0.0,23.0,right,1.0,2.0075445830007084,,speed,space,5.047063750011148,,,,,,0.0,0.0,0.0,1.0,23.0,0.0,46.0,1.0,413.3217573750008,,,,,,,,,413.31350770799327,414.5112851670128,415.3142060420069,415.3057642499916,415.30635629201424,415.3142060420069,415.3142060420069,415.3142060420069,,417.332707833004,,,,,,,,,,,,,,,,,,,,,,,,,,,,,,right,1.0,2.0075445830007084,,,,,sub-211,1,random_dot,,
left,left,47.0,1.0,23.0,left,1.0,5.569972917000996,,speed,space,5.047063750011148,,,,,,0.0,0.0,0.0,1.0,23.0,1.0,47.0,0.0,417.354407042003,,,,,,,,,417.3331163749972,417.4284722080047,418.22972616701736,418.2221273329924,418.2225972920132,418.22972616701736,418.22972616701736,418.22972616701736,423.2213060420181,423.8069486670138,,,,,,,,,,,,,,,,,,,,,,,,,,,,,,left,1.0,5.569972917000996,,,,,sub-211,1,random_dot,,
right,right,48.0,0.0,24.0,left,0.0,4.745504708989756,,speed,space,5.047063750011148,,,,,,0.0,0.0,0.0,1.0,24.0,0.0,48.0,1.0,423.8164049999905,,,,,,,,,423.80757741699927,423.9049348330009,424.696637792018,424.68878279201454,424.6892441250093,424.696637792018,424.696637792018,424.696637792018,,429.4468774580164,,,,,,,,,,,,,,,,,,,,,,,,,,,,,,left,0.0,4.745504708989756,,,,,sub-211,1,random_dot,,
left,left,49.0,1.0,24.0,left,1.0,3.7471932909975294,,speed,space,5.047063750011148,,,,,,0.0,0.0,0.0,1.0,24.0,1.0,49.0,0.0,429.47132625000086,,,,,,,,,429.4472866670112,430.64507479200256,431.4376564580016,431.4289715420164,431.42961362499045,431.4376564580016,431.4376564580016,431.4376564580016,,435.19005787500646,,,,,,,,,,,,,,,,,,,,,,,,,,,,,,left,1.0,3.7471932909975294,,,,,sub-211,1,random_dot,,
left,left,50.0,0.0,25.0,right,0.0,3.7884206250018906,,speed,space,5.047063750011148,,,,,,0.0,0.0,0.0,1.0,25.0,0.0,50.0,0.0,435.1988736249914,,,,,,,,,435.1905613330018,435.28839554201113,436.080182958016,436.0721905000101,436.0727473330044,436.080182958016,436.080182958016,436.080182958016,,439.8731366670109,,,,,,,,,,,,,,,,,,,,,,,,,,,,,,right,0.0,3.7884206250018906,,,,,sub-211,1,random_dot,,
right,right,51.0,1.0,25.0,left,0.0,5.338072290993296,,speed,space,5.047063750011148,,,,,,0.0,0.0,0.0,1.0,25.0,1.0,51.0,1.0,439.8819262080069,,,,,,,,,439.87353041701135,439.971689375001,440.7643054170185,440.7559216670052,440.7563870419981,440.7643054170185,440.7643054170185,440.7643054170185,445.7551213749976,446.1068072920025,,,,,,,,,,,,,,,,,,,,,,,,,,,,,,left,0.0,5.338072290993296,,,,,sub-211,1,random_dot,,
left,left,52.0,0.0,26.0,right,0.0,5.192095792008331,,speed,space,5.047063750011148,,,,,,0.0,0.0,0.0,1.0,26.0,0.0,52.0,0.0,446.1153640419943,,,,,,,,,446.10723866699846,446.2049001250125,446.9971177499974,446.9891262080055,446.98959583300166,446.9971177499974,446.9971177499974,446.9971177499974,451.9881900830078,452.1966975830146,,,,,,,,,,,,,,,,,,,,,,,,,,,,,,right,0.0,5.192095792008331,,,,,sub-211,1,random_dot,,
right,right,53.0,1.0,26.0,left,0.0,3.11206424998818,,speed,space,5.047063750011148,,,,,,0.0,0.0,0.0,1.0,26.0,1.0,53.0,1.0,452.2054092079925,,,,,,,,,452.197217708017,452.2942555420159,453.0870947079966,453.0788050830015,453.0793180420005,453.0870947079966,453.0870947079966,453.0870947079966,,456.2065834169916,,,,,,,,,,,,,,,,,,,,,,,,,,,,,,left,0.0,3.11206424998818,,,,,sub-211,1,random_dot,,
left,left,54.0,0.0,27.0,right,0.0,4.370979917002842,,speed,space,5.047063750011148,,,,,,0.0,0.0,0.0,1.0,27.0,0.0,54.0,0.0,456.2156283750082,,,,,,,,,456.20701037501567,457.0052134169964,457.7975032920076,457.78928850000375,457.7898296249914,457.7975032920076,457.7975032920076,457.7975032920076,,462.1733258329914,,,,,,,,,,,,,,,,,,,,,,,,,,,,,,right,0.0,4.370979917002842,,,,,sub-211,1,random_dot,,
right,right,55.0,1.0,27.0,right,1.0,2.99131166699226,,speed,space,5.047063750011148,,,,,,0.0,0.0,0.0,1.0,27.0,1.0,55.0,1.0,462.182345875015,,,,,,,,,462.1737584579969,463.3717787500064,464.1641219579906,464.1558887500141,464.1563737080141,464.1641219579906,464.1641219579906,464.1641219579906,,467.1677320419985,,,,,,,,,,,,,,,,,,,,,,,,,,,,,,right,1.0,2.99131166699226,,,,,sub-211,1,random_dot,,
left,left,56.0,0.0,28.0,left,1.0,2.0030438330140896,,speed,space,5.047063750011148,,,,,,0.0,0.0,0.0,1.0,28.0,0.0,56.0,0.0,467.1729904999957,,,,,,,,,467.16814183301176,468.3622973329912,469.1647680000169,469.1560682080162,469.1566298750113,469.1647680000169,469.1647680000169,469.1647680000169,,471.1734241250088,,,,,,,,,,,,,,,,,,,,,,,,,,,,,,left,1.0,2.0030438330140896,,,,,sub-211,1,random_dot,,
right,right,57.0,1.0,28.0,left,0.0,3.628605082980357,,speed,space,5.047063750011148,,,,,,0.0,0.0,0.0,1.0,28.0,1.0,57.0,1.0,471.1821583750134,,,,,,,,,471.17383479201817,471.9720782499935,472.7644080000173,472.7562453749997,472.7567521250167,472.7644080000173,472.7644080000173,472.7644080000173,,476.39705816700007,,,,,,,,,,,,,,,,,,,,,,,,,,,,,,left,0.0,3.628605082980357,,,,,sub-211,1,random_dot,,
left,left,58.0,0.0,29.0,right,0.0,4.454376290988876,,speed,space,5.047063750011148,,,,,,0.0,0.0,0.0,1.0,29.0,0.0,58.0,0.0,476.4058125829906,,,,,,,,,476.3974590419966,477.1943219999957,477.9882391249994,477.9780179169902,477.9784730829997,477.9882391249994,477.9882391249994,477.9882391249994,,482.4470054999984,,,,,,,,,,,,,,,,,,,,,,,,,,,,,,right,0.0,4.454376290988876,,,,,sub-211,1,random_dot,,
right,right,59.0,1.0,29.0,right,1.0,1.3170530000061262,,speed,space,5.047063750011148,,,,,,0.0,0.0,0.0,1.0,29.0,1.0,59.0,1.0,482.45517908301554,,,,,,,,,482.44739975000266,482.545053208014,483.3472566670098,483.3395184999972,483.3399635420064,483.3472566670098,483.3472566670098,483.3472566670098,,484.67343541700393,,,,,,,,,,,,,,,,,,,,,,,,,,,,,,right,1.0,1.3170530000061262,,,,,sub-211,1,random_dot,,
,,0.0,0.0,0.0,,,,,speed,space,5.047063750011148,,,,,,0.0,0.0,0.0,1.0,,,,,,,,,,,,,,,,,,,,,,,,,,,,,,,,,,,,,,,,,,,,,,,,,,,,,,,,,,,,sub-211,1,random_dot,,
right,right,0.0,0.0,0.0,right,1.0,6.421471125009703,,accuracy,space,17.636735959007638,,,,,,0.0,1.0,1.0,0.0,0.0,0.0,0.0,1.0,502.36420104201534,,,,,,,,,502.3536140829965,502.4389830830041,503.2313895830012,503.2229024580156,503.2234569580178,503.2313895830012,503.2313895830012,503.2313895830012,508.22238791699056,509.6573711250094,,,,,,,,,,,,,,,,,,,,,,,484.6946080420166,484.7027990829956,484.7027990829956,502.34238712501246,space,17.636735959007638,,right,1.0,6.421471125009703,,,,,sub-211,1,random_dot,,
left,left,1.0,1.0,0.0,right,0.0,4.3116375420067925,,accuracy,space,17.636735959007638,,,,,,0.0,1.0,1.0,0.0,0.0,1.0,1.0,0.0,509.666047250008,,,,,,,,,509.6578362080036,510.00569820799865,510.7979647080065,510.7897212500102,510.7901882079896,510.7979647080065,510.7979647080065,510.7979647080065,,515.114092667005,,,,,,,,,,,,,,,,,,,,,,,,,,,,,,right,0.0,4.3116375420067925,,,,,sub-211,1,random_dot,,
right,right,2.0,0.0,1.0,right,1.0,3.933441666973522,,accuracy,space,17.636735959007638,,,,,,0.0,1.0,1.0,0.0,1.0,0.0,2.0,1.0,515.1227589999908,,,,,,,,,515.1145017080125,515.2124000829936,516.0143542920123,516.0065973750025,516.0070734170149,516.0143542920123,516.0143542920123,516.0143542920123,,519.957297874993,,,,,,,,,,,,,,,,,,,,,,,,,,,,,,right,1.0,3.933441666973522,,,,,sub-211,1,random_dot,,
left,left,3.0,1.0,1.0,right,0.0,3.341805125004612,,accuracy,space,17.636735959007638,,,,,,0.0,1.0,1.0,0.0,1.0,1.0,3.0,0.0,519.966009583004,,,,,,,,,519.957704875007,520.7557741249911,521.5489645829948,521.5403021250095,521.5409161669959,521.5489645829948,521.5489645829948,521.5489645829948,,524.8975174170046,,,,,,,,,,,,,,,,,,,,,,,,,,,,,,right,0.0,3.341805125004612,,,,,sub-211,1,random_dot,,
left,left,4.0,0.0,2.0,right,0.0,1.9312147089804057,,accuracy,space,17.636735959007638,,,,,,0.0,1.0,1.0,0.0,2.0,0.0,4.0,0.0,524.9056349169987,,,,,,,,,524.8979182080075,524.9944669170072,525.7886122500058,525.7786853750004,525.7792397919984,525.7886122500058,525.7886122500058,525.7886122500058,,527.7238300000026,,,,,,,,,,,,,,,,,,,,,,,,,,,,,,right,0.0,1.9312147089804057,,,,,sub-211,1,random_dot,,
right,right,5.0,1.0,2.0,right,1.0,6.23475445798249,,accuracy,space,17.636735959007638,,,,,,0.0,1.0,1.0,0.0,2.0,1.0,5.0,1.0,527.7325958330184,,,,,,,,,527.7242326250125,528.9226570000174,529.7151693330088,529.706687458005,529.7072568330041,529.7151693330088,529.7151693330088,529.7151693330088,534.7059176670155,535.9574751250038,,,,,,,,,,,,,,,,,,,,,,,,,,,,,,right,1.0,6.23475445798249,,,,,sub-211,1,random_dot,,
right,right,6.0,0.0,3.0,left,0.0,2.3274133329978213,,accuracy,space,17.636735959007638,,,,,,0.0,1.0,1.0,0.0,3.0,0.0,6.0,1.0,535.9662432920013,,,,,,,,,535.9579078330135,536.7559053330042,537.549126458005,537.5403103750141,537.5409137500101,537.549126458005,537.549126458005,537.549126458005,,539.8809628750023,,,,,,,,,,,,,,,,,,,,,,,,,,,,,,left,0.0,2.3274133329978213,,,,,sub-211,1,random_dot,,
left,left,7.0,1.0,3.0,right,0.0,4.520867625018582,,accuracy,space,17.636735959007638,,,,,,0.0,1.0,1.0,0.0,3.0,1.0,7.0,0.0,539.8897131670092,,,,,,,,,539.8813715830038,541.0792575830128,541.8818984579993,541.8734749169962,541.8740008750174,541.8818984579993,541.8818984579993,541.8818984579993,,546.4072646670102,,,,,,,,,,,,,,,,,,,,,,,,,,,,,,right,0.0,4.520867625018582,,,,,sub-211,1,random_dot,,
left,left,8.0,0.0,4.0,left,1.0,4.952065624995157,,accuracy,space,17.636735959007638,,,,,,0.0,1.0,1.0,0.0,4.0,0.0,8.0,0.0,546.4157221250061,,,,,,,,,546.4076791669941,546.7560134170053,547.5477544580062,547.5399769170035,547.5404867500183,547.5477544580062,547.5477544580062,547.5477544580062,,552.5073688749981,,,,,,,,,,,,,,,,,,,,,,,,,,,,,,left,1.0,4.952065624995157,,,,,sub-211,1,random_dot,,
right,right,9.0,1.0,4.0,right,1.0,2.8463434590084944,,accuracy,space,17.636735959007638,,,,,,0.0,1.0,1.0,0.0,4.0,1.0,9.0,1.0,552.5159668330161,,,,,,,,,552.5077885420178,553.706103250006,554.4984968329954,554.4902527079976,554.4907665830106,554.4984968329954,554.4984968329954,554.4984968329954,,557.3475706670142,,,,,,,,,,,,,,,,,,,,,,,,,,,,,,right,1.0,2.8463434590084944,,,,,sub-211,1,random_dot,,
right,right,10.0,0.0,5.0,left,0.0,5.303046834014822,,accuracy,space,17.636735959007638,,,,,,0.0,1.0,1.0,0.0,5.0,0.0,10.0,1.0,557.3558163749985,,,,,,,,,557.3479701250035,557.4468926670088,558.2487966250046,558.2403124170087,558.240844792017,558.2487966250046,558.2487966250046,558.2487966250046,563.2393087079981,563.5577130829915,,,,,,,,,,,,,,,,,,,,,,,,,,,,,,left,0.0,5.303046834014822,,,,,sub-211,1,random_dot,,
left,left,11.0,1.0,5.0,right,0.0,4.412297583010513,,accuracy,space,17.636735959007638,,,,,,0.0,1.0,1.0,0.0,5.0,1.0,11.0,0.0,563.5663911669981,,,,,,,,,563.5581327500113,563.6557189580053,564.4479417080001,564.4401015420153,564.440565375,564.4479417080001,564.4479417080001,564.4479417080001,,568.864369042014,,,,,,,,,,,,,,,,,,,,,,,,,,,,,,right,0.0,4.412297583010513,,,,,sub-211,1,random_dot,,
left,left,12.0,0.0,6.0,left,1.0,3.00870158401085,,accuracy,space,17.636735959007638,,,,,,0.0,1.0,1.0,0.0,6.0,0.0,12.0,0.0,568.8727052920149,,,,,,,,,568.8647613330104,569.2127378330042,570.0157889169932,570.0071420829918,570.0077486250084,570.0157889169932,570.0157889169932,570.0157889169932,,573.0317768329987,,,,,,,,,,,,,,,,,,,,,,,,,,,,,,left,1.0,3.00870158401085,,,,,sub-211,1,random_dot,,
right,right,13.0,1.0,6.0,left,0.0,5.491074375022436,,accuracy,space,17.636735959007638,,,,,,0.0,1.0,1.0,0.0,6.0,1.0,13.0,1.0,573.0559532500047,,,,,,,,,573.0321752500022,573.8296916669933,574.6319020419905,574.623657499993,574.6241224580153,574.6319020419905,574.6319020419905,574.6319020419905,579.6227662920137,580.125220417016,,,,,,,,,,,,,,,,,,,,,,,,,,,,,,left,0.0,5.491074375022436,,,,,sub-211,1,random_dot,,
left,left,14.0,0.0,7.0,right,0.0,3.141512666974449,,accuracy,space,17.636735959007638,,,,,,0.0,1.0,1.0,0.0,7.0,0.0,14.0,0.0,580.1338265830127,,,,,,,,,580.1256437500124,580.9229768750083,581.7146201670112,581.7068722500117,581.707339207991,581.7146201670112,581.7146201670112,581.7146201670112,,584.8583472500031,,,,,,,,,,,,,,,,,,,,,,,,,,,,,,right,0.0,3.141512666974449,,,,,sub-211,1,random_dot,,
right,right,15.0,1.0,7.0,left,0.0,5.558904917008476,,accuracy,space,17.636735959007638,,,,,,0.0,1.0,1.0,0.0,7.0,1.0,15.0,1.0,584.8670390420011,,,,,,,,,584.8587480830029,586.056483458,586.8478985830152,586.8403724170057,586.8408528330037,586.8478985830152,586.8478985830152,586.8478985830152,591.8397875830124,592.4100725830067,,,,,,,,,,,,,,,,,,,,,,,,,,,,,,left,0.0,5.558904917008476,,,,,sub-211,1,random_dot,,
right,right,16.0,0.0,8.0,right,1.0,5.324709874985274,,accuracy,space,17.636735959007638,,,,,,0.0,1.0,1.0,0.0,8.0,0.0,16.0,1.0,592.4193403329991,,,,,,,,,592.4106860000174,592.506428291992,593.2984086250071,593.2903590830101,593.2908251250046,593.2984086250071,593.2984086250071,593.2984086250071,598.289546999993,598.6254894580052,,,,,,,,,,,,,,,,,,,,,,,,,,,,,,right,1.0,5.324709874985274,,,,,sub-211,1,random_dot,,
left,left,17.0,1.0,8.0,left,1.0,5.877187000005506,,accuracy,space,17.636735959007638,,,,,,0.0,1.0,1.0,0.0,8.0,1.0,17.0,0.0,598.6342825420143,,,,,,,,,598.6260151250171,598.7232487080037,599.5155691670079,599.507172957994,599.5077354999958,599.5155691670079,599.5155691670079,599.5155691670079,604.5066031250171,605.3992747919983,,,,,,,,,,,,,,,,,,,,,,,,,,,,,,left,1.0,5.877187000005506,,,,,sub-211,1,random_dot,,
left,left,18.0,0.0,9.0,left,1.0,4.13172387497616,,accuracy,space,17.636735959007638,,,,,,0.0,1.0,1.0,0.0,9.0,0.0,18.0,0.0,605.4083662079938,,,,,,,,,605.3998054580006,605.7460766250151,606.5392692500027,606.5291226670088,606.5295831249969,606.5392692500027,606.5392692500027,606.5392692500027,,610.6745943750138,,,,,,,,,,,,,,,,,,,,,,,,,,,,,,left,1.0,4.13172387497616,,,,,sub-211,1,random_dot,,
right,right,19.0,1.0,9.0,right,1.0,5.60044020798523,,accuracy,space,17.636735959007638,,,,,,0.0,1.0,1.0,0.0,9.0,1.0,19.0,1.0,610.6834607920027,,,,,,,,,610.6750212080078,611.8733487919962,612.6656460420054,612.6572870420059,612.657815625018,612.6656460420054,612.6656460420054,612.6656460420054,617.6566272920172,618.2755966669938,,,,,,,,,,,,,,,,,,,,,,,,,,,,,,right,1.0,5.60044020798523,,,,,sub-211,1,random_dot,,
right,right,20.0,0.0,10.0,left,0.0,5.385097958002007,,accuracy,space,17.636735959007638,,,,,,0.0,1.0,1.0,0.0,10.0,0.0,20.0,1.0,618.284252500016,,,,,,,,,618.2760235000169,619.4734403330076,620.2650766250154,620.257252875017,620.2577421670139,620.2650766250154,620.2650766250154,620.2650766250154,625.2567451249924,625.6587412919907,,,,,,,,,,,,,,,,,,,,,,,,,,,,,,left,0.0,5.385097958002007,,,,,sub-211,1,random_dot,,
left,left,21.0,1.0,10.0,right,0.0,5.495408250018954,,accuracy,space,17.636735959007638,,,,,,0.0,1.0,1.0,0.0,10.0,1.0,21.0,0.0,625.6673294999928,,,,,,,,,625.6591894580051,625.756756207993,626.5494999579969,626.5408148750139,626.5414074580185,626.5494999579969,626.5494999579969,626.5494999579969,631.5397993749939,632.0483398750075,,,,,,,,,,,,,,,,,,,,,,,,,,,,,,right,0.0,5.495408250018954,,,,,sub-211,1,random_dot,,
left,left,22.0,0.0,11.0,right,0.0,5.400568750017555,,accuracy,space,17.636735959007638,,,,,,0.0,1.0,1.0,0.0,11.0,0.0,22.0,0.0,632.056587833009,,,,,,,,,632.0487535420107,632.1467290830042,632.9395666249911,632.930342208012,632.9308281250123,632.9395666249911,632.9395666249911,632.9395666249911,637.9233133330126,638.3429341250157,,,,,,,,,,,,,,,,,,,,,,,,,,,,,,right,0.0,5.400568750017555,,,,,sub-211,1,random_dot,,
right,right,23.0,1.0,11.0,left,0.0,5.377232917002402,,accuracy,space,17.636735959007638,,,,,,0.0,1.0,1.0,0.0,11.0,1.0,23.0,1.0,638.3514429170173,,,,,,,,,638.3434825000004,639.1402747920074,639.9321544170089,639.9240359170071,639.9244967919949,639.9321544170089,639.9321544170089,639.9321544170089,644.9235563330003,645.3149133330153,,,,,,,,,,,,,,,,,,,,,,,,,,,,,,left,0.0,5.377232917002402,,,,,sub-211,1,random_dot,,
right,right,24.0,0.0,12.0,right,1.0,5.404952417011373,,accuracy,space,17.636735959007638,,,,,,0.0,1.0,1.0,0.0,12.0,0.0,24.0,1.0,645.3231834170001,,,,,,,,,645.3153210000019,645.4134202919959,646.2062854999967,646.1963819999946,646.1968435829913,646.2062854999967,646.2062854999967,646.2062854999967,651.1900721249986,651.6152309580066,,,,,,,,,,,,,,,,,,,,,,,,,,,,,,right,1.0,5.404952417011373,,,,,sub-211,1,random_dot,,
left,left,25.0,1.0,12.0,left,1.0,5.53145399998175,,accuracy,space,17.636735959007638,,,,,,0.0,1.0,1.0,0.0,12.0,1.0,25.0,0.0,651.623466332996,,,,,,,,,651.6156926669937,651.9632921669981,652.7566186670156,652.7472671669966,652.7477629579953,652.7566186670156,652.7566186670156,652.7566186670156,657.7400903330126,658.2923474580166,,,,,,,,,,,,,,,,,,,,,,,,,,,,,,left,1.0,5.53145399998175,,,,,sub-211,1,random_dot,,
left,left,26.0,0.0,13.0,right,0.0,5.286032791016623,,accuracy,space,17.636735959007638,,,,,,0.0,1.0,1.0,0.0,13.0,0.0,26.0,0.0,658.3011871250055,,,,,,,,,658.2928742920049,658.390540124994,659.1827967080171,659.174479792011,659.1749542920152,659.1827967080171,659.1827967080171,659.1827967080171,664.1738401670009,664.4757755830069,,,,,,,,,,,,,,,,,,,,,,,,,,,,,,right,0.0,5.286032791016623,,,,,sub-211,1,random_dot,,
right,right,27.0,1.0,13.0,left,0.0,5.607291833002819,,accuracy,space,17.636735959007638,,,,,,0.0,1.0,1.0,0.0,13.0,1.0,27.0,1.0,664.4846449999895,,,,,,,,,664.476303250005,664.8238903330057,665.6163404580147,665.6078347919974,665.6083437080088,665.6163404580147,665.6163404580147,665.6163404580147,670.6069490830123,671.2262518329953,,,,,,,,,,,,,,,,,,,,,,,,,,,,,,left,0.0,5.607291833002819,,,,,sub-211,1,random_dot,,
right,right,28.0,0.0,14.0,right,1.0,5.416868041007547,,accuracy,space,17.636735959007638,,,,,,0.0,1.0,1.0,0.0,14.0,0.0,28.0,1.0,671.2348602499987,,,,,,,,,671.2266874579946,672.0240730420046,672.8159323330037,672.8078397920181,672.8083022499923,672.8159323330037,672.8159323330037,672.8159323330037,677.8071639580012,678.2422723330092,,,,,,,,,,,,,,,,,,,,,,,,,,,,,,right,1.0,5.416868041007547,,,,,sub-211,1,random_dot,,
left,left,29.0,1.0,14.0,left,1.0,5.36631120898528,,accuracy,space,17.636735959007638,,,,,,0.0,1.0,1.0,0.0,14.0,1.0,29.0,0.0,678.251238583005,,,,,,,,,678.2427860000171,679.4406252079934,680.2326117920165,680.2244317080185,680.2249207080167,680.2326117920165,680.2326117920165,680.2326117920165,685.2127362500178,685.6091470830142,,,,,,,,,,,,,,,,,,,,,,,,,,,,,,left,1.0,5.36631120898528,,,,,sub-211,1,random_dot,,
right,right,30.0,0.0,15.0,left,0.0,5.725182791007683,,accuracy,space,17.636735959007638,,,,,,0.0,1.0,1.0,0.0,15.0,0.0,30.0,1.0,685.6178424170066,,,,,,,,,685.6096564999898,685.707125957997,686.4992138750094,686.4911941669998,686.4916614580143,686.4992138750094,686.4992138750094,686.4992138750094,691.4905989580147,692.2364789170097,,,,,,,,,,,,,,,,,,,,,,,,,,,,,,left,0.0,5.725182791007683,,,,,sub-211,1,random_dot,,
left,left,31.0,1.0,15.0,right,0.0,2.611301041004481,,accuracy,space,17.636735959007638,,,,,,0.0,1.0,1.0,0.0,15.0,1.0,31.0,0.0,692.2424360830046,,,,,,,,,692.2368942500034,693.0294309169985,693.8234570420173,693.8133221250027,693.8137819170079,693.8234570420173,693.8234570420173,693.8234570420173,,696.4419262080046,,,,,,,,,,,,,,,,,,,,,,,,,,,,,,right,0.0,2.611301041004481,,,,,sub-211,1,random_dot,,
left,left,32.0,0.0,16.0,left,1.0,5.40811424999265,,accuracy,space,17.636735959007638,,,,,,0.0,1.0,1.0,0.0,16.0,0.0,32.0,0.0,696.4502456670161,,,,,,,,,696.4423515420058,697.2408326250152,698.0330033749924,698.0248367500026,698.0253137499967,698.0330033749924,698.0330033749924,698.0330033749924,703.0238216250145,703.4533090830082,,,,,,,,,,,,,,,,,,,,,,,,,,,,,,left,1.0,5.40811424999265,,,,,sub-211,1,random_dot,,
right,right,33.0,1.0,16.0,left,0.0,5.408846957987407,,accuracy,space,17.636735959007638,,,,,,0.0,1.0,1.0,0.0,16.0,1.0,33.0,1.0,703.45862041699,,,,,,,,,703.45373358301,704.6470312500023,705.4397623330005,705.4315351670084,705.4320618330094,705.4397623330005,705.4397623330005,705.4397623330005,710.4238663750002,710.8607672920043,,,,,,,,,,,,,,,,,,,,,,,,,,,,,,left,0.0,5.408846957987407,,,,,sub-211,1,random_dot,,
left,left,34.0,0.0,17.0,right,0.0,4.109175874997163,,accuracy,space,17.636735959007638,,,,,,0.0,1.0,1.0,0.0,17.0,0.0,34.0,0.0,710.8730043749965,,,,,,,,,710.8611863330007,710.9569644170115,711.7497335420048,711.7415413330018,711.7420117919974,711.7497335420048,711.7497335420048,711.7497335420048,,715.8658834999951,,,,,,,,,,,,,,,,,,,,,,,,,,,,,,right,0.0,4.109175874997163,,,,,sub-211,1,random_dot,,
right,right,35.0,1.0,17.0,left,0.0,5.696684875001665,,accuracy,space,17.636735959007638,,,,,,0.0,1.0,1.0,0.0,17.0,1.0,35.0,1.0,715.8906793330098,,,,,,,,,715.8662854169961,716.6640518750064,717.4664613330096,717.4582443330146,717.4587002079934,717.4664613330096,717.4664613330096,717.4664613330096,722.4573926670128,723.166243292013,,,,,,,,,,,,,,,,,,,,,,,,,,,,,,left,0.0,5.696684875001665,,,,,sub-211,1,random_dot,,
left,left,36.0,0.0,18.0,right,0.0,5.659871124982601,,accuracy,space,17.636735959007638,,,,,,0.0,1.0,1.0,0.0,18.0,0.0,36.0,0.0,723.1905810419994,,,,,,,,,723.1666737080086,723.2639391249977,724.0570593329903,724.047774458013,724.0482773330004,724.0570593329903,724.0570593329903,724.0570593329903,729.04072262501,729.7264149580151,,,,,,,,,,,,,,,,,,,,,,,,,,,,,,right,0.0,5.659871124982601,,,,,sub-211,1,random_dot,,
right,right,37.0,1.0,18.0,left,0.0,5.395677916996647,,accuracy,space,17.636735959007638,,,,,,0.0,1.0,1.0,0.0,18.0,1.0,37.0,1.0,729.7353945420182,,,,,,,,,729.7269621250161,730.5245510420064,731.3167216250149,731.3084997500118,731.3090361249924,731.3167216250149,731.3167216250149,731.3167216250149,736.3076647919952,736.7157920419995,,,,,,,,,,,,,,,,,,,,,,,,,,,,,,left,0.0,5.395677916996647,,,,,sub-211,1,random_dot,,
right,right,38.0,0.0,19.0,right,1.0,5.647100792004494,,accuracy,space,17.636735959007638,,,,,,0.0,1.0,1.0,0.0,19.0,0.0,38.0,1.0,736.7239715420001,,,,,,,,,736.7161946670094,737.9146214170032,738.7161210000049,738.7082984579902,738.7087407080107,738.7161210000049,738.7161210000049,738.7161210000049,743.7074439580028,744.3659090420115,,,,,,,,,,,,,,,,,,,,,,,,,,,,,,right,1.0,5.647100792004494,,,,,sub-211,1,random_dot,,
left,left,39.0,1.0,19.0,left,1.0,5.435626791004324,,accuracy,space,17.636735959007638,,,,,,0.0,1.0,1.0,0.0,19.0,1.0,39.0,0.0,744.374171375006,,,,,,,,,744.3663304999936,745.164615332993,745.9571736670041,745.9477319580037,745.9482140000036,745.9571736670041,745.9571736670041,745.9571736670041,750.9409752920037,751.399680958013,,,,,,,,,,,,,,,,,,,,,,,,,,,,,,left,1.0,5.435626791004324,,,,,sub-211,1,random_dot,,
right,right,40.0,0.0,20.0,right,1.0,5.47385862498777,,accuracy,space,17.636735959007638,,,,,,0.0,1.0,1.0,0.0,20.0,0.0,40.0,1.0,751.4082580000104,,,,,,,,,751.400088082999,752.1980682919966,753.0002683750063,752.9920834169898,752.9925553750072,753.0002683750063,753.0002683750063,753.0002683750063,757.9909515000181,758.4763870000024,,,,,,,,,,,,,,,,,,,,,,,,,,,,,,right,1.0,5.47385862498777,,,,,sub-211,1,random_dot,,
left,left,41.0,1.0,20.0,left,1.0,5.545229832991026,,accuracy,space,17.636735959007638,,,,,,0.0,1.0,1.0,0.0,20.0,1.0,41.0,0.0,758.4847102499916,,,,,,,,,758.4768087080156,759.2746864999935,760.0661487500183,760.0585149580147,760.0589810830134,760.0661487500183,760.0661487500183,760.0661487500183,765.0576742080157,765.6162765420158,,,,,,,,,,,,,,,,,,,,,,,,,,,,,,left,1.0,5.545229832991026,,,,,sub-211,1,random_dot,,
left,left,42.0,0.0,21.0,right,0.0,5.574322542001028,,accuracy,space,17.636735959007638,,,,,,0.0,1.0,1.0,0.0,21.0,0.0,42.0,0.0,765.6251049580169,,,,,,,,,765.6167158329918,766.4146331670054,767.217194375,767.2090437920124,767.209595458,767.217194375,767.217194375,767.217194375,772.207858083013,772.7947796669905,,,,,,,,,,,,,,,,,,,,,,,,,,,,,,right,0.0,5.574322542001028,,,,,sub-211,1,random_dot,,
right,right,43.0,1.0,21.0,right,1.0,5.4337923339917324,,accuracy,space,17.636735959007638,,,,,,0.0,1.0,1.0,0.0,21.0,1.0,43.0,1.0,772.8037487500114,,,,,,,,,772.7953695000033,772.891274374997,773.6833626250154,773.6753222919942,773.6757765419898,773.6833626250154,773.6833626250154,773.6833626250154,778.6744393330009,779.1270307920058,,,,,,,,,,,,,,,,,,,,,,,,,,,,,,right,1.0,5.4337923339917324,,,,,sub-211,1,random_dot,,
left,left,44.0,0.0,22.0,left,1.0,4.336065791983856,,accuracy,space,17.636735959007638,,,,,,0.0,1.0,1.0,0.0,22.0,0.0,44.0,0.0,779.1357809579931,,,,,,,,,779.1274700000067,780.3245623749972,781.1170193750004,781.1089326670044,781.1094788750052,781.1170193750004,781.1170193750004,781.1170193750004,,785.4593769170169,,,,,,,,,,,,,,,,,,,,,,,,,,,,,,left,1.0,4.336065791983856,,,,,sub-211,1,random_dot,,
right,right,45.0,1.0,22.0,right,1.0,1.9578077500045763,,accuracy,space,17.636735959007638,,,,,,0.0,1.0,1.0,0.0,22.0,1.0,45.0,1.0,785.4681530419912,,,,,,,,,785.4597953750053,785.8079887920176,786.6002114579896,786.5921230830136,786.5925829170155,786.6002114579896,786.6002114579896,786.6002114579896,,788.5601953750011,,,,,,,,,,,,,,,,,,,,,,,,,,,,,,right,1.0,1.9578077500045763,,,,,sub-211,1,random_dot,,
right,right,46.0,0.0,23.0,left,0.0,5.624021166993771,,accuracy,space,17.636735959007638,,,,,,0.0,1.0,1.0,0.0,23.0,0.0,46.0,1.0,788.5688436670171,,,,,,,,,788.5606066250184,789.758261333016,790.5511230420088,790.5425201250182,790.5431143330061,790.5511230420088,790.5511230420088,790.5511230420088,795.5415372500138,796.1779985419998,,,,,,,,,,,,,,,,,,,,,,,,,,,,,,left,0.0,5.624021166993771,,,,,sub-211,1,random_dot,,
left,left,47.0,1.0,23.0,left,1.0,4.808749125018949,,accuracy,space,17.636735959007638,,,,,,0.0,1.0,1.0,0.0,23.0,1.0,47.0,0.0,796.1872456670098,,,,,,,,,796.1786117920128,797.3750972080161,798.1678840419918,798.1591237919929,798.1597427919914,798.1678840419918,798.1678840419918,798.1678840419918,,802.9831746249984,,,,,,,,,,,,,,,,,,,,,,,,,,,,,,left,1.0,4.808749125018949,,,,,sub-211,1,random_dot,,
left,left,48.0,0.0,24.0,right,0.0,1.4918791669770144,,accuracy,space,17.636735959007638,,,,,,0.0,1.0,1.0,0.0,24.0,0.0,48.0,0.0,802.9912782920001,,,,,,,,,802.983567999996,804.1814672920154,804.974393750017,804.9650071249926,804.9655143330165,804.974393750017,804.974393750017,804.974393750017,,806.4760887080047,,,,,,,,,,,,,,,,,,,,,,,,,,,,,,right,0.0,1.4918791669770144,,,,,sub-211,1,random_dot,,
right,right,49.0,1.0,24.0,left,0.0,5.481445749988779,,accuracy,space,17.636735959007638,,,,,,0.0,1.0,1.0,0.0,24.0,1.0,49.0,1.0,806.4850126669917,,,,,,,,,806.4765087499982,806.8250200829934,807.6168905420054,807.6090385419957,807.609496457997,807.6168905420054,807.6168905420054,807.6168905420054,812.608372000017,813.1008148330147,,,,,,,,,,,,,,,,,,,,,,,,,,,,,,left,0.0,5.481445749988779,,,,,sub-211,1,random_dot,,
left,left,50.0,0.0,25.0,right,0.0,5.553070249996381,,accuracy,space,17.636735959007638,,,,,,0.0,1.0,1.0,0.0,25.0,0.0,50.0,0.0,813.1102600000158,,,,,,,,,813.1012377919978,813.8989762919955,814.7002447080158,814.6922957920178,814.6927690829907,814.7002447080158,814.7002447080158,814.7002447080158,819.6918007500062,820.2602873750147,,,,,,,,,,,,,,,,,,,,,,,,,,,,,,right,0.0,5.553070249996381,,,,,sub-211,1,random_dot,,
right,right,51.0,1.0,25.0,right,1.0,5.512942583009135,,accuracy,space,17.636735959007638,,,,,,0.0,1.0,1.0,0.0,25.0,1.0,51.0,1.0,820.269005042006,,,,,,,,,820.2607163749926,820.6088238749944,821.400829124992,821.3925343329902,821.3929830419947,821.400829124992,821.400829124992,821.400829124992,826.3915711250156,826.9185163330112,,,,,,,,,,,,,,,,,,,,,,,,,,,,,,right,1.0,5.512942583009135,,,,,sub-211,1,random_dot,,
right,right,52.0,0.0,26.0,right,1.0,5.629010125005152,,accuracy,space,17.636735959007638,,,,,,0.0,1.0,1.0,0.0,26.0,0.0,52.0,1.0,826.9299050419941,,,,,,,,,826.9190057500091,827.0150152080168,827.8078681670013,827.7985236250097,827.7989983750158,827.8078681670013,827.8078681670013,827.8078681670013,832.7918490830052,833.4435597080155,,,,,,,,,,,,,,,,,,,,,,,,,,,,,,right,1.0,5.629010125005152,,,,,sub-211,1,random_dot,,
left,left,53.0,1.0,26.0,right,0.0,5.690984957996989,,accuracy,space,17.636735959007638,,,,,,0.0,1.0,1.0,0.0,26.0,1.0,53.0,0.0,833.4530680830067,,,,,,,,,833.4440962919907,833.5420602080121,834.3339788750163,834.3258644170128,834.3264538749936,834.3339788750163,834.3339788750163,834.3339788750163,839.3248047500092,840.0284174580011,,,,,,,,,,,,,,,,,,,,,,,,,,,,,,right,0.0,5.690984957996989,,,,,sub-211,1,random_dot,,
left,left,54.0,0.0,27.0,left,1.0,3.5290414160117507,,accuracy,space,17.636735959007638,,,,,,0.0,1.0,1.0,0.0,27.0,0.0,54.0,0.0,840.0383604170056,,,,,,,,,840.0291125419899,840.3751712079975,841.1674725420016,841.1592651669926,841.1597600420064,841.1674725420016,841.1674725420016,841.1674725420016,,844.7005555420183,,,,,,,,,,,,,,,,,,,,,,,,,,,,,,left,1.0,3.5290414160117507,,,,,sub-211,1,random_dot,,
right,right,55.0,1.0,27.0,right,1.0,6.0754631249874365,,accuracy,space,17.636735959007638,,,,,,0.0,1.0,1.0,0.0,27.0,1.0,55.0,1.0,844.7248866670125,,,,,,,,,844.7009963330056,845.0486657080182,845.8504967500048,845.8426979999931,845.8432174999907,845.8504967500048,845.8504967500048,845.8504967500048,850.8419881669979,851.937749167002,,,,,,,,,,,,,,,,,,,,,,,,,,,,,,right,1.0,6.0754631249874365,,,,,sub-211,1,random_dot,,
right,right,56.0,0.0,28.0,right,1.0,5.465533084003255,,accuracy,space,17.636735959007638,,,,,,0.0,1.0,1.0,0.0,28.0,0.0,56.0,1.0,851.9438137079997,,,,,,,,,851.9381769580068,852.0324165830098,852.8342865000013,852.8261353750131,852.8266428330098,852.8342865000013,852.8342865000013,852.8342865000013,857.8253058330156,858.3110924999928,,,,,,,,,,,,,,,,,,,,,,,,,,,,,,right,1.0,5.465533084003255,,,,,sub-211,1,random_dot,,
left,left,57.0,1.0,28.0,right,0.0,7.370425957982661,,accuracy,space,17.636735959007638,,,,,,0.0,1.0,1.0,0.0,28.0,1.0,57.0,0.0,858.3204322920064,,,,,,,,,858.311644625006,858.6587944170169,859.4510206670093,859.4427902500029,859.443335042015,859.4510206670093,859.4510206670093,859.4510206670093,864.4419519999938,866.8274977499968,,,,,,,,,,,,,,,,,,,,,,,,,,,,,,right,0.0,7.370425957982661,,,,,sub-211,1,random_dot,,
left,left,58.0,0.0,29.0,left,1.0,6.031864916993072,,accuracy,space,17.636735959007638,,,,,,0.0,1.0,1.0,0.0,29.0,0.0,58.0,0.0,866.8363168330106,,,,,,,,,866.8279367499927,867.1756527920079,867.9675602079951,867.9595529579965,867.9600586669985,867.9675602079951,867.9675602079951,867.9675602079951,872.9588837079937,874.0105617920053,,,,,,,,,,,,,,,,,,,,,,,,,,,,,,left,1.0,6.031864916993072,,,,,sub-211,1,random_dot,,
right,right,59.0,1.0,29.0,right,1.0,5.529890791018261,,accuracy,space,17.636735959007638,,,,,,0.0,1.0,1.0,0.0,29.0,1.0,59.0,1.0,874.0193070000096,,,,,,,,,874.0110185419908,874.3589185420133,875.1514538750052,875.1431437919964,875.1436721250066,875.1514538750052,875.1514538750052,875.1514538750052,880.1419618329965,880.6843449579901,,,,,,,,,,,,,,,,,,,,,,,,,,,,,,right,1.0,5.529890791018261,,,,,sub-211,1,random_dot,,
,,1.0,1.0,0.0,,,,,accuracy,space,17.636735959007638,,,,,,0.0,1.0,1.0,0.0,,,,,,,,,,,,,,,,,,,,,,,,,,,,,,,,,,,,,,,,,,,,,,,,,,,,,,,,,,,,sub-211,1,random_dot,,
,,,,,,,,,,,,,,,,,,,,,,,,,,,,,,,,,,,,,,,,,,,,,,,,,,,,,,,,,,,,,,,,,,,,,,,,,,,,,880.6927869580104,880.7068281669926,885.6924062079925,sub-211,1,random_dot,,
