wordCTK,colorCTK,corrAnsCTK,congruentCTK,thisN,thisTrialN,thisRepN,keyResp_CTK.keys,keyResp_CTK.corr,keyResp_CTK.rt,keyResp_CTK.duration,wordPractice,colorPractice,corrAnsPractice,congruentPractice,respPractice.keys,respPractice.corr,respPractice.rt,respPractice.duration,word,color,corrAns,congruent,keyResp_test_run.keys,keyResp_test_run.corr,keyResp_test_run.rt,keyResp_test_run.duration,trials_CTK.thisRepN,trials_CTK.thisTrialN,trials_CTK.thisN,trials_CTK.thisIndex,trials_practice.thisRepN,trials_practice.thisTrialN,trials_practice.thisN,trials_practice.thisIndex,trials_test.thisRepN,trials_test.thisTrialN,trials_test.thisN,trials_test.thisIndex,thisRow.t,notes,instruction.started,instr_text.started,instr_image.started,instr_resp.started,instruction.stopped,instr_resp.keys,instr_resp.rt,instr_resp.duration,instr_color_to_key.started,instr_ctk.started,resp_ctk.started,instr_color_to_key.stopped,resp_ctk.keys,resp_ctk.rt,resp_ctk.duration,ITI.started,fixcross.started,fixcross.stopped,ITI.stopped,color_to_key_run.started,stimulus_CTK.started,keyResp_CTK.started,color_to_key_run.stopped,trials_CTK.keyResp_CTK.keys,trials_CTK.keyResp_CTK.corr,trials_CTK.keyResp_CTK.rt,trials_CTK.keyResp_CTK.duration,instr_practice.started,instr_practice_text.started,instr_practice_resp.started,instr_practice.stopped,instr_practice_resp.keys,instr_practice_resp.rt,instr_practice_resp.duration,practice_run.started,stimulus_practice.started,respPractice.started,practice_run.stopped,trials_practice.respPractice.keys,trials_practice.respPractice.corr,trials_practice.respPractice.rt,trials_practice.respPractice.duration,feedback.started,textFeedback.started,feedback.stopped,textFeedback.stopped,instr_test.started,instr_test_text.started,instr_test_resp.started,instr_test.stopped,instr_test_resp.keys,instr_test_resp.rt,instr_test_resp.duration,test_run.started,stimulus_test_run.started,keyResp_test_run.started,test_run.stopped,trials_test.keyResp_test_run.keys,trials_test.keyResp_test_run.corr,trials_test.keyResp_test_run.rt,trials_test.keyResp_test_run.duration,goodbye.started,textGoodbye.started,textGoodbye.stopped,goodbye.stopped,participant,session,expName,frameRate,Unnamed: 113
,,,,,,,,,,,,,,,,,,,,,,,,,,,,,,,,,,,,,,,,,0.0160957030020654,0.0448877710150554,0.0448877710150554,0.0448877710150554,12.124184312007856,space,11.886125555989564,,,,,,,,,,,,,,,,,,,,,,,,,,,,,,,,,,,,,,,,,,,,,,,,,,,,,,,,,,,sub-200,1,stroop_test,60.509280227875145,
,,,,,,,,,,,,,,,,,,,,,,,,,,,,,,,,,,,,,,,,,,,,,,,,,12.124240196018944,12.138532074022804,12.138532074022804,14.226861835020827,space,2.078952723008115,,,,,,,,,,,,,,,,,,,,,,,,,,,,,,,,,,,,,,,,,,,,,,,,,,,,sub-200,1,stroop_test,60.509280227875145,
test,red,r,1.0,0.0,0.0,0.0,r,1.0,0.4357234079798218,,,,,,,,,,,,,,,,,,0.0,0.0,0.0,0.0,,,,,,,,,14.260263529024089,,,,,,,,,,,,,,,,,14.24336148702423,15.042306320014175,15.844039745017652,15.826096695003798,15.830741905025208,15.844039745017652,15.844039745017652,16.2944108780066,r,1.0,0.4357234079798218,,,,,,,,,,,,,,,,,,,,,,,,,,,,,,,,,,,,,,,,sub-200,1,stroop_test,60.509280227875145,
test,blue,b,1.0,1.0,1.0,0.0,b,1.0,0.4994697590009309,,,,,,,,,,,,,,,,,,0.0,1.0,1.0,2.0,,,,,,,,,16.309584374015685,,,,,,,,,,,,,,,,,16.294958159007365,17.509429085999727,18.308753951016115,18.292271269019693,18.292679994017817,18.308753951016115,18.308753951016115,18.80975541600492,b,1.0,0.4994697590009309,,,,,,,,,,,,,,,,,,,,,,,,,,,,,,,,,,,,,,,,sub-200,1,stroop_test,60.509280227875145,
test,yellow,g,1.0,2.0,2.0,0.0,g,1.0,0.5541020840173587,,,,,,,,,,,,,,,,,,0.0,2.0,2.0,1.0,,,,,,,,,18.825105351017555,,,,,,,,,,,,,,,,,18.81014779402176,19.609180171013577,20.409472060011467,20.39274473901605,20.39325198400184,20.409472060011467,20.409472060011467,20.97694204101572,g,1.0,0.5541020840173587,,,,,,,,,,,,,,,,,,,,,,,,,,,,,,,,,,,,,,,,sub-200,1,stroop_test,60.509280227875145,
test,blue,b,1.0,3.0,0.0,1.0,r,0.0,0.553558585990686,,,,,,,,,,,,,,,,,,1.0,0.0,3.0,2.0,,,,,,,,,20.992495986021822,,,,,,,,,,,,,,,,,20.977221255016048,21.77603612400708,22.57591234802385,22.559683335013688,22.56025794500601,22.57591234802385,22.57591234802385,23.1437752119964,r,0.0,0.553558585990686,,,,,,,,,,,,,,,,,,,,,,,,,,,,,,,,,,,,,,,,sub-200,1,stroop_test,60.509280227875145,
test,red,r,1.0,4.0,1.0,1.0,r,1.0,0.4921981900115497,,,,,,,,,,,,,,,,,,1.0,1.0,4.0,0.0,,,,,,,,,23.15905365301296,,,,,,,,,,,,,,,,,23.14406976502505,23.959258415998196,24.759092571010115,24.74315741402097,24.74363946900121,24.759092571010115,24.759092571010115,25.260224854020635,r,1.0,0.4921981900115497,,,,,,,,,,,,,,,,,,,,,,,,,,,,,,,,,,,,,,,,sub-200,1,stroop_test,60.509280227875145,
test,yellow,g,1.0,5.0,2.0,1.0,g,1.0,0.8079292890033685,,,,,,,,,,,,,,,,,,1.0,2.0,5.0,1.0,,,,,,,,,25.275537317007547,,,,,,,,,,,,,,,,,25.260495201015143,26.459322506998436,27.259142015012912,27.243014955020044,27.243598139000824,27.259142015012912,27.259142015012912,28.076978741999483,g,1.0,0.8079292890033685,,,,,,,,,,,,,,,,,,,,,,,,,,,,,,,,,,,,,,,,sub-200,1,stroop_test,60.509280227875145,
test,red,r,1.0,6.0,0.0,2.0,r,1.0,0.6025367309921421,,,,,,,,,,,,,,,,,,2.0,0.0,6.0,0.0,,,,,,,,,28.09215343699907,,,,,,,,,,,,,,,,,28.077320345997578,28.175722865998974,28.975501956010703,28.959139922022587,28.95957422401989,28.975501956010703,28.975501956010703,29.59354896901641,r,1.0,0.6025367309921421,,,,,,,,,,,,,,,,,,,,,,,,,,,,,,,,,,,,,,,,sub-200,1,stroop_test,60.509280227875145,
test,yellow,g,1.0,7.0,1.0,2.0,g,1.0,0.4548692189855501,,,,,,,,,,,,,,,,,,2.0,1.0,7.0,1.0,,,,,,,,,29.60900716000469,,,,,,,,,,,,,,,,,29.59383100402192,29.942613492021337,30.742279538011644,30.72609612601809,30.72658517200034,30.742279538011644,30.742279538011644,31.21003884801757,g,1.0,0.4548692189855501,,,,,,,,,,,,,,,,,,,,,,,,,,,,,,,,,,,,,,,,sub-200,1,stroop_test,60.509280227875145,
test,blue,b,1.0,8.0,2.0,2.0,b,1.0,0.6142669719993137,,,,,,,,,,,,,,,,,,2.0,2.0,8.0,2.0,,,,,,,,,31.2252721679979,,,,,,,,,,,,,,,,,31.210314882016974,31.559174221009016,32.35865211900091,32.34281677700346,32.34326831900398,32.35865211900091,32.35865211900091,32.976996058016084,b,1.0,0.6142669719993137,,,,,,,,,,,,,,,,,,,,,,,,,,,,,,,,,,,,,,,,sub-200,1,stroop_test,60.509280227875145,
test,yellow,g,1.0,9.0,0.0,3.0,g,1.0,0.5877366139902733,,,,,,,,,,,,,,,,,,3.0,0.0,9.0,1.0,,,,,,,,,32.991843607014744,,,,,,,,,,,,,,,,,32.97733993001748,33.09288804102107,33.89247782001621,33.87606648702058,33.876597130001755,33.89247782001621,33.89247782001621,34.493208010011585,g,1.0,0.5877366139902733,,,,,,,,,,,,,,,,,,,,,,,,,,,,,,,,,,,,,,,,sub-200,1,stroop_test,60.509280227875145,
test,red,r,1.0,10.0,1.0,3.0,r,1.0,0.6167901220032945,,,,,,,,,,,,,,,,,,3.0,1.0,10.0,0.0,,,,,,,,,34.5089936350123,,,,,,,,,,,,,,,,,34.49348326501786,34.84241022300557,35.642391649016645,35.62619690899737,35.626836301002186,35.642391649016645,35.642391649016645,36.26107844201033,r,1.0,0.6167901220032945,,,,,,,,,,,,,,,,,,,,,,,,,,,,,,,,,,,,,,,,sub-200,1,stroop_test,60.509280227875145,
test,blue,b,1.0,11.0,2.0,3.0,b,1.0,0.5610213530017063,,,,,,,,,,,,,,,,,,3.0,2.0,11.0,2.0,,,,,,,,,36.275609543023165,,,,,,,,,,,,,,,,,36.26138933902257,37.47576460099663,38.27577069500694,38.25924590299837,38.25978161100648,38.27577069500694,38.27577069500694,38.84302939500776,b,1.0,0.5610213530017063,,,,,,,,,,,,,,,,,,,,,,,,,,,,,,,,,,,,,,,,sub-200,1,stroop_test,60.509280227875145,
,,,,,,,,,,,,,,,,,,,,,,,,,,,,,,,,,,,,,,,,,,,,,,,,,,,,,,,,,,,,,,,,,,,,38.84315819601761,38.85922845502501,38.85922845502501,41.5266329080041,space,2.6545695989916567,,,,,,,,,,,,,,,,,,,,,,,,,,,,,,,,,sub-200,1,stroop_test,60.509280227875145,
,,,,0.0,0.0,0.0,,,,,blau,blue,b,1.0,b,1.0,1.214041744999122,,,,,,,,,,,,,,0.0,0.0,0.0,6.0,,,,,41.54942889002268,,,,,,,,,,,,,,,,,41.53903580200858,41.89197263700771,42.69470363602159,42.67556346100173,,,,,,,,,,,,,,,,42.68083207300515,42.69470363602159,42.69470363602159,43.91026935802074,b,1.0,1.214041744999122,,43.915912601019954,43.92949518500245,44.92554693701095,,,,,,,,,,,,,,,,,,,,,sub-200,1,stroop_test,60.509280227875145,
,,,,1.0,1.0,0.0,,,,,blau,blue,b,1.0,b,1.0,0.6587532249977812,,,,,,,,,,,,,,0.0,1.0,1.0,5.0,,,,,44.94212501001312,,,,,,,,,,,,,,,,,44.9258971119998,46.12666531800642,46.92559336600243,46.9094144590199,,,,,,,,,,,,,,,,46.90994356002193,46.92559336600243,46.92559336600243,47.59285600599833,b,1.0,0.6587532249977812,,47.59328667202499,47.60866996800178,48.59258936700644,48.60905981401447,,,,,,,,,,,,,,,,,,,,sub-200,1,stroop_test,60.509280227875145,
,,,,2.0,2.0,0.0,,,,,gelb,yellow,g,1.0,g,1.0,0.7003169560048264,,,,,,,,,,,,,,0.0,2.0,2.0,10.0,,,,,48.60905981401447,,,,,,,,,,,,,,,,,48.59286751202308,48.69195199399837,49.49296793600661,49.4758950160176,,,,,,,,,,,,,,,,49.47905987300328,49.49296793600661,49.49296793600661,50.20981324501918,g,1.0,0.7003169560048264,,50.21027083400986,50.22569082901464,51.20891513401875,51.22516241000267,,,,,,,,,,,,,,,,,,,,sub-200,1,stroop_test,60.509280227875145,
,,,,3.0,3.0,0.0,,,,,blau,red,r,0.0,r,1.0,0.7355471560149454,,,,,,,,,,,,,,0.0,3.0,3.0,4.0,,,,,51.22516241000267,,,,,,,,,,,,,,,,,51.20939926800202,51.57522845000494,52.37597518600524,52.35918553400552,,,,,,,,,,,,,,,,52.36200141100562,52.37597518600524,52.37597518600524,53.12661506500445,r,1.0,0.7355471560149454,,53.12706738701672,53.14279352402082,54.12588315401808,54.14227208201192,,,,,,,,,,,,,,,,,,,,sub-200,1,stroop_test,60.509280227875145,
,,,,4.0,4.0,0.0,,,,,rot,red,r,1.0,r,1.0,0.5723175460007042,,,,,,,,,,,,,,0.0,4.0,4.0,1.0,,,,,54.14227208201192,,,,,,,,,,,,,,,,,54.1261604000174,55.34185481502209,56.143125561997294,56.1259364830039,,,,,,,,,,,,,,,,56.12968911102507,56.143125561997294,56.143125561997294,56.7259175790241,r,1.0,0.5723175460007042,,56.72634453102364,56.7415803130134,57.72562379602459,57.74202781700296,,,,,,,,,,,,,,,,,,,,sub-200,1,stroop_test,60.509280227875145,
,,,,5.0,5.0,0.0,,,,,rot,yellow,g,0.0,g,1.0,0.3577294159913435,,,,,,,,,,,,,,0.0,5.0,5.0,3.0,,,,,57.74202781700296,,,,,,,,,,,,,,,,,57.725946348014986,58.925390372023685,59.72540417101118,59.70917144601117,,,,,,,,,,,,,,,,59.70975884000654,59.72540417101118,59.72540417101118,60.09384178402252,g,1.0,0.3577294159913435,,60.0943831379991,60.110130556015065,61.109094003011705,,,,,,,,,,,,,,,,,,,,,sub-200,1,stroop_test,60.509280227875145,
,,,,6.0,6.0,0.0,,,,,gelb,blue,b,0.0,b,1.0,0.5419827080040704,,,,,,,,,,,,,,0.0,6.0,6.0,9.0,,,,,61.12544773801346,,,,,,,,,,,,,,,,,61.10955008401652,61.208786340022925,62.009839053003816,61.99208424601238,,,,,,,,,,,,,,,,61.99567207400105,62.009839053003816,62.009839053003816,62.55971820402192,b,1.0,0.5419827080040704,,62.56014256601338,62.57556967099663,63.55921590002254,63.57521248201374,,,,,,,,,,,,,,,,,,,,sub-200,1,stroop_test,60.509280227875145,
,,,,7.0,7.0,0.0,,,,,blau,yellow,g,0.0,g,1.0,0.4673512270092033,,,,,,,,,,,,,,0.0,7.0,7.0,7.0,,,,,63.57521248201374,,,,,,,,,,,,,,,,,63.55953418000718,63.65870937900036,64.45937622600468,64.44255989100202,,,,,,,,,,,,,,,,64.44535712202196,64.45937622600468,64.45937622600468,64.94321572899935,g,1.0,0.4673512270092033,,64.94372675800696,64.95942894302425,65.94248176002293,65.95862686401233,,,,,,,,,,,,,,,,,,,,sub-200,1,stroop_test,60.509280227875145,
,,,,8.0,8.0,0.0,,,,,gelb,yellow,g,1.0,g,1.0,0.5513315499993041,,,,,,,,,,,,,,0.0,8.0,8.0,11.0,,,,,65.95862686401233,,,,,,,,,,,,,,,,,65.94303631701041,66.30835484902491,67.10953919502208,67.09228837001137,,,,,,,,,,,,,,,,67.09580737401848,67.10953919502208,67.10953919502208,67.67618793802103,g,1.0,0.5513315499993041,,67.67668791001779,67.69216284100548,68.67570163600612,68.69207323199953,,,,,,,,,,,,,,,,,,,,sub-200,1,stroop_test,60.509280227875145,
,,,,9.0,9.0,0.0,,,,,rot,red,r,1.0,r,1.0,0.485081450024154,,,,,,,,,,,,,,0.0,9.0,9.0,0.0,,,,,68.69207323199953,,,,,,,,,,,,,,,,,68.67601744399872,69.02501277800184,69.82556851502159,69.8090644130134,,,,,,,,,,,,,,,,69.81142355001066,69.82556851502159,69.82556851502159,70.32605644501746,r,1.0,0.485081450024154,,70.3264961920213,70.34209567101789,71.32533660400077,71.34203758102376,,,,,,,,,,,,,,,,,,,,sub-200,1,stroop_test,60.509280227875145,
,,,,10.0,10.0,0.0,,,,,gelb,red,r,0.0,r,1.0,0.3713410530181136,,,,,,,,,,,,,,0.0,10.0,10.0,8.0,,,,,71.34203758102376,,,,,,,,,,,,,,,,,71.3257156489999,72.52530410201871,73.32544373100973,73.30873268999858,,,,,,,,,,,,,,,,73.31142855001963,73.32544373100973,73.32544373100973,73.7097016890184,r,1.0,0.3713410530181136,,73.71021257000393,73.72567748301663,74.7089006449969,74.72537120600464,,,,,,,,,,,,,,,,,,,,sub-200,1,stroop_test,60.509280227875145,
,,,,11.0,11.0,0.0,,,,,rot,blue,b,0.0,b,1.0,0.7020485580142122,,,,,,,,,,,,,,0.0,11.0,11.0,2.0,,,,,74.72537120600464,,,,,,,,,,,,,,,,,74.70922285600682,75.52533632802079,76.32528354402166,76.30855449702358,,,,,,,,,,,,,,,,76.31111455400242,76.32528354402166,76.32528354402166,77.04324588002055,b,1.0,0.7020485580142122,,77.04376678500557,77.05912592000095,78.04212932800874,78.0584049320023,,,,,,,,,,,,,,,,,,,,sub-200,1,stroop_test,60.509280227875145,
,,,,12.0,0.0,1.0,,,,,gelb,blue,b,0.0,b,1.0,0.9169354299956468,,,,,,,,,,,,,,1.0,0.0,12.0,9.0,,,,,78.0584049320023,,,,,,,,,,,,,,,,,78.0424210659985,78.85838213801617,79.65925845800666,79.64195220801048,,,,,,,,,,,,,,,,79.64530728300451,79.65925845800666,79.65925845800666,80.59267290701973,b,1.0,0.9169354299956468,,80.59312052300083,80.60860649100505,81.59220324101625,81.60833919802099,,,,,,,,,,,,,,,,,,,,sub-200,1,stroop_test,60.509280227875145,
,,,,13.0,1.0,1.0,,,,,gelb,red,r,0.0,r,1.0,0.790435086004436,,,,,,,,,,,,,,1.0,1.0,13.0,8.0,,,,,81.60833919802099,,,,,,,,,,,,,,,,,81.59252401301637,81.70874878100585,82.5083177780034,82.4921446070075,,,,,,,,,,,,,,,,82.49262533802539,82.5083177780034,82.5083177780034,83.3095251880004,r,1.0,0.790435086004436,,83.30994707302307,83.32545732799917,84.30991889099823,,,,,,,,,,,,,,,,,,,,,sub-200,1,stroop_test,60.509280227875145,
,,,,14.0,2.0,1.0,,,,,blau,blue,b,1.0,b,1.0,0.9346118330140598,,,,,,,,,,,,,,1.0,2.0,14.0,5.0,,,,,84.32521078400896,,,,,,,,,,,,,,,,,84.31027615402127,84.67514479599777,85.47548849301529,85.45874853301211,,,,,,,,,,,,,,,,85.46156480899663,85.47548849301529,85.47548849301529,86.42587010801071,b,1.0,0.9346118330140598,,86.42630960501265,86.44248822901864,87.42506998300087,87.44145577200106,,,,,,,,,,,,,,,,,,,,sub-200,1,stroop_test,60.509280227875145,
,,,,15.0,3.0,1.0,,,,,blau,blue,b,1.0,b,1.0,0.7770458699960727,,,,,,,,,,,,,,1.0,3.0,15.0,6.0,,,,,87.44145577200106,,,,,,,,,,,,,,,,,87.42535754002165,87.5251851210196,88.32494659602526,88.30868104600813,,,,,,,,,,,,,,,,88.30925788500463,88.32494659602526,88.32494659602526,89.10927301301854,b,1.0,0.7770458699960727,,89.1097120270133,89.12503767901217,90.10871618700912,90.12507507400004,,,,,,,,,,,,,,,,,,,,sub-200,1,stroop_test,60.509280227875145,
,,,,16.0,4.0,1.0,,,,,blau,red,r,0.0,r,1.0,0.6736607150232885,,,,,,,,,,,,,,1.0,4.0,16.0,4.0,,,,,90.12507507400004,,,,,,,,,,,,,,,,,90.10913911601529,91.30828656602534,92.10823160602013,92.0919178170152,,,,,,,,,,,,,,,,92.09252615401056,92.10823160602013,92.10823160602013,92.79270089202328,r,1.0,0.6736607150232885,,92.79322521900758,92.80856959501398,93.79193427599968,93.80840128101408,,,,,,,,,,,,,,,,,,,,sub-200,1,stroop_test,60.509280227875145,
,,,,17.0,5.0,1.0,,,,,blau,yellow,g,0.0,g,1.0,0.5087315370037686,,,,,,,,,,,,,,1.0,5.0,17.0,7.0,,,,,93.80840128101408,,,,,,,,,,,,,,,,,93.79237868601922,94.59150142801808,95.39620313199704,95.37594489200274,,,,,,,,,,,,,,,,95.3772302950092,95.39620313199704,95.39620313199704,95.90904454601696,g,1.0,0.5087315370037686,,95.909574979014,95.9255533410178,96.90851552400272,96.92499416001374,,,,,,,,,,,,,,,,,,,,sub-200,1,stroop_test,60.509280227875145,
,,,,18.0,6.0,1.0,,,,,gelb,yellow,g,1.0,g,1.0,0.6980684549780563,,,,,,,,,,,,,,1.0,6.0,18.0,11.0,,,,,96.92499416001374,,,,,,,,,,,,,,,,,96.90882912900996,97.70798631402432,98.50898943599896,98.49198711299688,,,,,,,,,,,,,,,,98.4950250890106,98.50898943599896,98.50898943599896,99.20916333902278,g,1.0,0.6980684549780563,,99.20980098002474,99.22595862401069,100.2250247420161,,,,,,,,,,,,,,,,,,,,,sub-200,1,stroop_test,60.509280227875145,
,,,,19.0,7.0,1.0,,,,,gelb,yellow,g,1.0,g,1.0,0.5319960479973815,,,,,,,,,,,,,,1.0,7.0,19.0,10.0,,,,,100.24159590300404,,,,,,,,,,,,,,,,,100.22537470102544,101.00828412201372,101.80800444300984,101.79180018699844,,,,,,,,,,,,,,,,101.79228711200994,101.80800444300984,101.80800444300984,102.34222537500318,g,1.0,0.5319960479973815,,102.34268017602152,102.35920417000308,103.35813318801227,,,,,,,,,,,,,,,,,,,,,sub-200,1,stroop_test,60.509280227875145,
,,,,20.0,8.0,1.0,,,,,rot,red,r,1.0,r,1.0,0.5127278950239997,,,,,,,,,,,,,,1.0,8.0,20.0,0.0,,,,,103.37496412100154,,,,,,,,,,,,,,,,,103.358473322005,103.44146172600448,104.2418752090016,104.22501165201538,,,,,,,,,,,,,,,,104.22771637601544,104.2418752090016,104.2418752090016,104.75913676500204,r,1.0,0.5127278950239997,,104.75979975800146,104.77573495000252,105.77493892502387,,,,,,,,,,,,,,,,,,,,,sub-200,1,stroop_test,60.509280227875145,
,,,,21.0,9.0,1.0,,,,,rot,yellow,g,0.0,g,1.0,0.9305289550102316,,,,,,,,,,,,,,1.0,9.0,21.0,3.0,,,,,105.79159862900268,,,,,,,,,,,,,,,,,105.7753608560015,106.9748997889983,107.77491214001202,107.758490075008,,,,,,,,,,,,,,,,107.7590801960032,107.77491214001202,107.77491214001202,108.70886037001036,g,1.0,0.9305289550102316,,108.70934461601428,108.72482140301145,109.7088331230043,109.72455183501006,,,,,,,,,,,,,,,,,,,,sub-200,1,stroop_test,60.509280227875145,
,,,,22.0,10.0,1.0,,,,,rot,red,r,1.0,b,0.0,0.5877439540054183,,,,,,,,,,,,,,1.0,10.0,22.0,1.0,,,,,109.72455183501006,,,,,,,,,,,,,,,,,109.70909911300988,110.05807348701636,110.857899456023,110.84189393100678,,,,,,,,,,,,,,,,110.84248822499649,110.857899456023,110.857899456023,111.45911319900188,b,0.0,0.5877439540054183,,111.46272407201468,111.4781260130112,112.47507670501363,,,,,,,,,,,,,,,,,,,,,sub-200,1,stroop_test,60.509280227875145,
,,,,23.0,11.0,1.0,,,,,rot,blue,b,0.0,b,1.0,0.5674447180062998,,,,,,,,,,,,,,1.0,11.0,23.0,2.0,,,,,112.49150748402462,,,,,,,,,,,,,,,,,112.47551715100415,113.2745538809977,114.07472413600772,114.05833726402489,,,,,,,,,,,,,,,,114.05891881900608,114.07472413600772,114.07472413600772,114.65878227399662,b,1.0,0.5674447180062998,,114.66143843901229,114.67693116801092,115.67473176601924,,,,,,,,,,,,,,,,,,,,,sub-200,1,stroop_test,60.509280227875145,
,,,,,,,,,,,,,,,,,,,,,,,,,,,,,,,,,,,,,,,,,,,,,,,,,,,,,,,,,,,,,,,,,,,,,,,,,,,,,,,,,,,,,,,115.6748804190138,115.6911620380124,115.6911620380124,121.87548726602108,space,6.175163945998065,,,,,,,,,,,,,,sub-200,1,stroop_test,60.509280227875145,
,,,,0.0,0.0,0.0,,,,,,,,,,,,,rot,red,r,1.0,r,1.0,0.3860978690208867,,,,,,,,,,0.0,0.0,0.0,0.0,121.89987639902392,,,,,,,,,,,,,,,,,121.88980571102002,123.09101174000534,123.89217886101687,123.8751015290036,,,,,,,,,,,,,,,,,,,,,,,,,,,,,,,,,,,123.8780782080139,123.89217886101687,123.89217886101687,124.29267799801892,r,1.0,0.3860978690208867,,,,,,sub-200,1,stroop_test,60.509280227875145,
,,,,1.0,1.0,0.0,,,,,,,,,,,,,rot,yellow,g,0.0,r,0.0,0.763803542999085,,,,,,,,,,0.0,1.0,1.0,3.0,124.30755529302404,,,,,,,,,,,,,,,,,124.29299122301744,124.4079961150128,125.20797776500694,125.19159583500004,,,,,,,,,,,,,,,,,,,,,,,,,,,,,,,,,,,125.19212221802444,125.20797776500694,125.20797776500694,125.97532043501268,r,0.0,0.763803542999085,,,,,,sub-200,1,stroop_test,60.509280227875145,
,,,,2.0,2.0,0.0,,,,,,,,,,,,,rot,red,r,1.0,r,1.0,0.4945527180097997,,,,,,,,,,0.0,2.0,2.0,1.0,125.99106344400208,,,,,,,,,,,,,,,,,125.97568065702217,126.7745024440228,127.5744176840235,127.5583111900196,,,,,,,,,,,,,,,,,,,,,,,,,,,,,,,,,,,127.55872528700274,127.5744176840235,127.5744176840235,128.07515019501443,r,1.0,0.4945527180097997,,,,,,sub-200,1,stroop_test,60.509280227875145,
,,,,3.0,3.0,0.0,,,,,,,,,,,,,gelb,yellow,g,1.0,g,1.0,0.5615397049987223,,,,,,,,,,0.0,3.0,3.0,10.0,128.09127374200034,,,,,,,,,,,,,,,,,128.07546725400607,128.87438557800488,129.67533364900737,129.6581276320212,,,,,,,,,,,,,,,,,,,,,,,,,,,,,,,,,,,129.6610282230249,129.67533364900737,129.67533364900737,130.24179065201315,g,1.0,0.5615397049987223,,,,,,sub-200,1,stroop_test,60.509280227875145,
,,,,4.0,4.0,0.0,,,,,,,,,,,,,gelb,red,r,0.0,r,1.0,0.5831475629820488,,,,,,,,,,0.0,4.0,4.0,8.0,130.25801939101075,,,,,,,,,,,,,,,,,130.24219350301428,131.04120213500573,131.84078478100128,131.82478462500148,,,,,,,,,,,,,,,,,,,,,,,,,,,,,,,,,,,131.8253889150219,131.84078478100128,131.84078478100128,132.42507123600808,r,1.0,0.5831475629820488,,,,,,sub-200,1,stroop_test,60.509280227875145,
,,,,5.0,5.0,0.0,,,,,,,,,,,,,rot,blue,b,0.0,b,1.0,0.543986145989038,,,,,,,,,,0.0,5.0,5.0,2.0,132.4409045970242,,,,,,,,,,,,,,,,,132.42547914601164,132.77442964402144,133.57484494399978,133.55803465499775,,,,,,,,,,,,,,,,,,,,,,,,,,,,,,,,,,,133.56078599501052,133.57484494399978,133.57484494399978,134.12535239901626,b,1.0,0.543986145989038,,,,,,sub-200,1,stroop_test,60.509280227875145,
,,,,6.0,6.0,0.0,,,,,,,,,,,,,blau,red,r,0.0,r,1.0,0.4960003260057419,,,,,,,,,,0.0,6.0,6.0,4.0,134.14103226401494,,,,,,,,,,,,,,,,,134.12566165902535,134.4912036730093,135.2917899300228,135.27484482800355,,,,,,,,,,,,,,,,,,,,,,,,,,,,,,,,,,,135.27764241900877,135.2917899300228,135.2917899300228,135.79149806400528,r,1.0,0.4960003260057419,,,,,,sub-200,1,stroop_test,60.509280227875145,
,,,,7.0,7.0,0.0,,,,,,,,,,,,,gelb,blue,b,0.0,b,1.0,0.6210086469945963,,,,,,,,,,0.0,7.0,7.0,9.0,135.80770202400163,,,,,,,,,,,,,,,,,135.79182366799796,136.14067151301424,136.94180133601185,136.92468348701368,,,,,,,,,,,,,,,,,,,,,,,,,,,,,,,,,,,136.92738495601225,136.94180133601185,136.94180133601185,137.57544328999938,b,1.0,0.6210086469945963,,,,,,sub-200,1,stroop_test,60.509280227875145,
,,,,8.0,8.0,0.0,,,,,,,,,,,,,blau,blue,b,1.0,b,1.0,0.5579281090176664,,,,,,,,,,0.0,8.0,8.0,6.0,137.59094244000153,,,,,,,,,,,,,,,,,137.57575674401596,137.94114901300054,138.74185046300408,138.7245946250041,,,,,,,,,,,,,,,,,,,,,,,,,,,,,,,,,,,138.72732266099774,138.74185046300408,138.74185046300408,139.3099420540093,b,1.0,0.5579281090176664,,,,,,sub-200,1,stroop_test,60.509280227875145,
,,,,9.0,9.0,0.0,,,,,,,,,,,,,blau,blue,b,1.0,b,1.0,0.4614478340081405,,,,,,,,,,0.0,9.0,9.0,5.0,139.3245554290188,,,,,,,,,,,,,,,,,139.31024440200417,139.4243647720141,140.22412165201968,140.2074659730133,,,,,,,,,,,,,,,,,,,,,,,,,,,,,,,,,,,140.20785870100372,140.22412165201968,140.22412165201968,140.6918360440177,b,1.0,0.4614478340081405,,,,,,sub-200,1,stroop_test,60.509280227875145,
,,,,10.0,10.0,0.0,,,,,,,,,,,,,blau,yellow,g,0.0,g,1.0,0.4934024169924669,,,,,,,,,,0.0,10.0,10.0,7.0,140.70749127402087,,,,,,,,,,,,,,,,,140.69213793301606,141.89157158101443,142.6908600120223,142.6742988920014,,,,,,,,,,,,,,,,,,,,,,,,,,,,,,,,,,,142.67472599301254,142.6908600120223,142.6908600120223,143.19232807401568,g,1.0,0.4934024169924669,,,,,,sub-200,1,stroop_test,60.509280227875145,
,,,,11.0,11.0,0.0,,,,,,,,,,,,,gelb,yellow,g,1.0,g,1.0,0.3072182460164185,,,,,,,,,,0.0,11.0,11.0,11.0,143.2078695119999,,,,,,,,,,,,,,,,,143.19263371502166,144.00789126299787,144.81111700300244,144.79161381701124,,,,,,,,,,,,,,,,,,,,,,,,,,,,,,,,,,,144.7946526830201,144.81111700300244,144.81111700300244,145.125268755015,g,1.0,0.3072182460164185,,,,,,sub-200,1,stroop_test,60.509280227875145,
,,,,12.0,0.0,1.0,,,,,,,,,,,,,blau,blue,b,1.0,b,1.0,0.4348517350153997,,,,,,,,,,1.0,0.0,12.0,5.0,145.141397082014,,,,,,,,,,,,,,,,,145.12557945400476,145.92566496500513,146.74137151701143,146.72462563001318,,,,,,,,,,,,,,,,,,,,,,,,,,,,,,,,,,,146.72695622799802,146.74137151701143,146.74137151701143,147.19150149801862,b,1.0,0.4348517350153997,,,,,,sub-200,1,stroop_test,60.509280227875145,
,,,,13.0,1.0,1.0,,,,,,,,,,,,,blau,blue,b,1.0,b,1.0,0.35700830197311,,,,,,,,,,1.0,1.0,13.0,6.0,147.2072122039972,,,,,,,,,,,,,,,,,147.1918053450063,147.99141207200591,148.79093990600086,148.7748825440067,,,,,,,,,,,,,,,,,,,,,,,,,,,,,,,,,,,148.77528809799696,148.79093990600086,148.79093990600086,149.15820907099987,b,1.0,0.35700830197311,,,,,,sub-200,1,stroop_test,60.509280227875145,
,,,,14.0,2.0,1.0,,,,,,,,,,,,,gelb,yellow,g,1.0,g,1.0,0.3528788530093152,,,,,,,,,,1.0,2.0,14.0,11.0,149.174021792016,,,,,,,,,,,,,,,,,149.15853095101193,150.35803955502342,151.1585762660252,151.14150129500194,,,,,,,,,,,,,,,,,,,,,,,,,,,,,,,,,,,151.14416221302235,151.1585762660252,151.1585762660252,151.52556105400436,g,1.0,0.3528788530093152,,,,,,sub-200,1,stroop_test,60.509280227875145,
,,,,15.0,3.0,1.0,,,,,,,,,,,,,gelb,yellow,g,1.0,g,1.0,0.4822621379862539,,,,,,,,,,1.0,3.0,15.0,10.0,151.5408406280039,,,,,,,,,,,,,,,,,151.52592526900116,152.3408806050138,153.14102415600792,153.12485526502132,,,,,,,,,,,,,,,,,,,,,,,,,,,,,,,,,,,153.1253644140088,153.14102415600792,153.14102415600792,153.62525245800498,g,1.0,0.4822621379862539,,,,,,sub-200,1,stroop_test,60.509280227875145,
,,,,16.0,4.0,1.0,,,,,,,,,,,,,gelb,blue,b,0.0,b,1.0,0.7001079809851944,,,,,,,,,,1.0,4.0,16.0,9.0,153.64086268399842,,,,,,,,,,,,,,,,,153.62560509401374,154.8245689519972,155.62467684299918,155.60834941401845,,,,,,,,,,,,,,,,,,,,,,,,,,,,,,,,,,,155.60893941301038,155.62467684299918,155.62467684299918,156.3421755930176,b,1.0,0.7001079809851944,,,,,,sub-200,1,stroop_test,60.509280227875145,
,,,,17.0,5.0,1.0,,,,,,,,,,,,,gelb,red,r,0.0,r,1.0,0.5994054450129624,,,,,,,,,,1.0,5.0,17.0,8.0,156.35744556502323,,,,,,,,,,,,,,,,,156.34253988502314,157.14095173802343,157.940818321018,157.92502523600706,,,,,,,,,,,,,,,,,,,,,,,,,,,,,,,,,,,157.9255029070191,157.940818321018,157.940818321018,158.542155025003,r,1.0,0.5994054450129624,,,,,,sub-200,1,stroop_test,60.509280227875145,
,,,,18.0,6.0,1.0,,,,,,,,,,,,,rot,red,r,1.0,r,1.0,0.5334216569899581,,,,,,,,,,1.0,6.0,18.0,0.0,158.55761118300143,,,,,,,,,,,,,,,,,158.54250091101858,159.75765554601094,160.55826153900125,160.54121590399882,,,,,,,,,,,,,,,,,,,,,,,,,,,,,,,,,,,160.54399850100162,160.55826153900125,160.55826153900125,161.10855218901995,r,1.0,0.5334216569899581,,,,,,sub-200,1,stroop_test,60.509280227875145,
,,,,19.0,7.0,1.0,,,,,,,,,,,,,blau,red,r,0.0,r,1.0,0.5596423529786989,,,,,,,,,,1.0,7.0,19.0,4.0,161.12416508799652,,,,,,,,,,,,,,,,,161.10892302601133,161.45772760000546,162.26015705100144,162.2417081760068,,,,,,,,,,,,,,,,,,,,,,,,,,,,,,,,,,,162.24556410001242,162.26015705100144,162.26015705100144,162.82472941101878,r,1.0,0.5596423529786989,,,,,,sub-200,1,stroop_test,60.509280227875145,
,,,,20.0,8.0,1.0,,,,,,,,,,,,,rot,red,r,1.0,r,1.0,0.5503041039919481,,,,,,,,,,1.0,8.0,20.0,1.0,162.84068154799752,,,,,,,,,,,,,,,,,162.8251508770045,164.02401125401957,164.82420246701804,164.8076376900135,,,,,,,,,,,,,,,,,,,,,,,,,,,,,,,,,,,164.81032258900814,164.82420246701804,164.82420246701804,165.39131381400512,r,1.0,0.5503041039919481,,,,,,sub-200,1,stroop_test,60.509280227875145,
,,,,21.0,9.0,1.0,,,,,,,,,,,,,blau,yellow,g,0.0,g,1.0,0.7544306830095593,,,,,,,,,,1.0,9.0,21.0,7.0,165.4072166280239,,,,,,,,,,,,,,,,,165.39168738102308,166.59059022000292,167.3914062490221,167.37442249502055,,,,,,,,,,,,,,,,,,,,,,,,,,,,,,,,,,,167.37726286100224,167.3914062490221,167.3914062490221,168.1582512890163,g,1.0,0.7544306830095593,,,,,,sub-200,1,stroop_test,60.509280227875145,
,,,,22.0,10.0,1.0,,,,,,,,,,,,,rot,yellow,g,0.0,g,1.0,0.6758612459816504,,,,,,,,,,1.0,10.0,22.0,3.0,168.1737986410153,,,,,,,,,,,,,,,,,168.15862145400024,168.50760919801542,169.3075871129986,169.2909503930132,,,,,,,,,,,,,,,,,,,,,,,,,,,,,,,,,,,169.2935234970064,169.3075871129986,169.3075871129986,169.99156603301526,g,1.0,0.6758612459816504,,,,,,sub-200,1,stroop_test,60.509280227875145,
,,,,23.0,11.0,1.0,,,,,,,,,,,,,rot,blue,b,0.0,b,1.0,0.5997618029941805,,,,,,,,,,1.0,11.0,23.0,2.0,170.00740733600105,,,,,,,,,,,,,,,,,169.99188072801917,170.7907469390193,171.59066846600035,171.57434377699974,,,,,,,,,,,,,,,,,,,,,,,,,,,,,,,,,,,171.57493299100315,171.59066846600035,171.59066846600035,172.19166738999775,b,1.0,0.5997618029941805,,,,,,sub-200,1,stroop_test,60.509280227875145,
,,,,24.0,0.0,2.0,,,,,,,,,,,,,gelb,blue,b,0.0,b,1.0,0.8218258169945329,,,,,,,,,,2.0,0.0,24.0,9.0,172.20700311101973,,,,,,,,,,,,,,,,,172.19208016301857,172.55712160200346,173.35776518200873,173.34090073301925,,,,,,,,,,,,,,,,,,,,,,,,,,,,,,,,,,,173.34369453100953,173.35776518200873,173.35776518200873,174.19139122002525,b,1.0,0.8218258169945329,,,,,,sub-200,1,stroop_test,60.509280227875145,
,,,,25.0,1.0,2.0,,,,,,,,,,,,,blau,yellow,g,0.0,g,1.0,0.7320811440004036,,,,,,,,,,2.0,1.0,25.0,7.0,174.20733613800255,,,,,,,,,,,,,,,,,174.1917563250172,174.540647086018,175.34117381900433,175.32414367000456,,,,,,,,,,,,,,,,,,,,,,,,,,,,,,,,,,,175.3270742750028,175.34117381900433,175.34117381900433,176.07507278301637,g,1.0,0.7320811440004036,,,,,,sub-200,1,stroop_test,60.509280227875145,
,,,,26.0,2.0,2.0,,,,,,,,,,,,,rot,yellow,g,0.0,g,1.0,0.6400426359905396,,,,,,,,,,2.0,2.0,26.0,3.0,176.09037844100385,,,,,,,,,,,,,,,,,176.07548235400463,176.42402999699698,177.22515187901445,177.2075806450157,,,,,,,,,,,,,,,,,,,,,,,,,,,,,,,,,,,177.21082702302374,177.22515187901445,177.22515187901445,177.87495078300708,g,1.0,0.6400426359905396,,,,,,sub-200,1,stroop_test,60.509280227875145,
,,,,27.0,3.0,2.0,,,,,,,,,,,,,rot,red,r,1.0,r,1.0,0.5676078840042464,,,,,,,,,,2.0,3.0,27.0,1.0,177.890683472011,,,,,,,,,,,,,,,,,177.87525605101837,178.2405824640009,179.04046153501258,179.02376692500548,,,,,,,,,,,,,,,,,,,,,,,,,,,,,,,,,,,179.02436372599914,179.04046153501258,179.04046153501258,179.6249895420042,r,1.0,0.5676078840042464,,,,,,sub-200,1,stroop_test,60.509280227875145,
,,,,28.0,4.0,2.0,,,,,,,,,,,,,rot,blue,b,0.0,b,1.0,0.7958491789759137,,,,,,,,,,2.0,4.0,28.0,2.0,179.64051203601412,,,,,,,,,,,,,,,,,179.62529854802415,179.74087045399938,180.5403876340133,180.52405080400055,,,,,,,,,,,,,,,,,,,,,,,,,,,,,,,,,,,180.524548485002,180.5403876340133,180.5403876340133,181.34131799801253,b,1.0,0.7958491789759137,,,,,,sub-200,1,stroop_test,60.509280227875145,
,,,,29.0,5.0,2.0,,,,,,,,,,,,,gelb,red,r,0.0,r,1.0,0.5144281529937871,,,,,,,,,,2.0,5.0,29.0,8.0,181.3570897100144,,,,,,,,,,,,,,,,,181.34162076399664,181.6904017550114,182.49185091501568,182.47411391799687,,,,,,,,,,,,,,,,,,,,,,,,,,,,,,,,,,,182.4769593469973,182.49185091501568,182.49185091501568,183.0081702470197,r,1.0,0.5144281529937871,,,,,,sub-200,1,stroop_test,60.509280227875145,
,,,,30.0,6.0,2.0,,,,,,,,,,,,,gelb,yellow,g,1.0,g,1.0,0.3162307019811123,,,,,,,,,,2.0,6.0,30.0,11.0,183.02340887702303,,,,,,,,,,,,,,,,,183.0084943200054,183.82394600700357,184.62376228201904,184.60777367302217,,,,,,,,,,,,,,,,,,,,,,,,,,,,,,,,,,,184.60835413599847,184.62376228201904,184.62376228201904,184.9413955580094,g,1.0,0.3162307019811123,,,,,,sub-200,1,stroop_test,60.509280227875145,
,,,,31.0,7.0,2.0,,,,,,,,,,,,,blau,red,r,0.0,r,1.0,0.6927994060097262,,,,,,,,,,2.0,7.0,31.0,4.0,184.9570339620113,,,,,,,,,,,,,,,,,184.941777065018,185.7404438170197,186.54101381401412,186.5240420170012,,,,,,,,,,,,,,,,,,,,,,,,,,,,,,,,,,,186.52684400600265,186.54101381401412,186.54101381401412,187.2415166250139,r,1.0,0.6927994060097262,,,,,,sub-200,1,stroop_test,60.509280227875145,
,,,,32.0,8.0,2.0,,,,,,,,,,,,,blau,blue,b,1.0,b,1.0,0.6129339289909694,,,,,,,,,,2.0,8.0,32.0,6.0,187.25697883102112,,,,,,,,,,,,,,,,,187.241820078023,187.3572561510082,188.15694888299916,188.1405483389972,,,,,,,,,,,,,,,,,,,,,,,,,,,,,,,,,,,188.14102730501327,188.15694888299916,188.15694888299916,188.7745477860153,b,1.0,0.6129339289909694,,,,,,sub-200,1,stroop_test,60.509280227875145,
,,,,33.0,9.0,2.0,,,,,,,,,,,,,gelb,yellow,g,1.0,g,1.0,0.5069462659885176,,,,,,,,,,2.0,9.0,33.0,10.0,188.7901558580052,,,,,,,,,,,,,,,,,188.7749670530029,188.87380009700428,189.67386763100512,189.65731415100163,,,,,,,,,,,,,,,,,,,,,,,,,,,,,,,,,,,189.65996184400865,189.67386763100512,189.67386763100512,190.19134200300323,g,1.0,0.5069462659885176,,,,,,sub-200,1,stroop_test,60.509280227875145,
,,,,34.0,10.0,2.0,,,,,,,,,,,,,rot,red,r,1.0,r,1.0,0.5063271459948737,,,,,,,,,,2.0,10.0,34.0,0.0,190.20696983102243,,,,,,,,,,,,,,,,,190.19165043300015,191.40704397601075,192.20743912699984,192.19049291600825,,,,,,,,,,,,,,,,,,,,,,,,,,,,,,,,,,,192.19325862600817,192.20743912699984,192.20743912699984,192.7249320220144,r,1.0,0.5063271459948737,,,,,,sub-200,1,stroop_test,60.509280227875145,
,,,,35.0,11.0,2.0,,,,,,,,,,,,,blau,blue,b,1.0,b,1.0,0.5241292410064489,,,,,,,,,,2.0,11.0,35.0,5.0,192.74068892400828,,,,,,,,,,,,,,,,,192.72526261402527,193.9403666639992,194.74067510000896,194.7239343690162,,,,,,,,,,,,,,,,,,,,,,,,,,,,,,,,,,,194.72668775601775,194.74067510000896,194.74067510000896,195.27511548102484,b,1.0,0.5241292410064489,,,,,,sub-200,1,stroop_test,60.509280227875145,
,,,,36.0,0.0,3.0,,,,,,,,,,,,,rot,red,r,1.0,r,1.0,0.6488059670082293,,,,,,,,,,3.0,0.0,36.0,1.0,195.28993723500756,,,,,,,,,,,,,,,,,195.2754261040245,196.09041209702264,196.8909956610005,196.8737354540208,,,,,,,,,,,,,,,,,,,,,,,,,,,,,,,,,,,196.8764234940172,196.8909956610005,196.8909956610005,197.54131987399887,r,1.0,0.6488059670082293,,,,,,sub-200,1,stroop_test,60.509280227875145,
,,,,37.0,1.0,3.0,,,,,,,,,,,,,blau,yellow,g,0.0,g,1.0,0.4787645619944669,,,,,,,,,,3.0,1.0,37.0,7.0,197.55672333901748,,,,,,,,,,,,,,,,,197.54177204801815,198.75699336800608,199.5577312000096,199.54024736801512,,,,,,,,,,,,,,,,,,,,,,,,,,,,,,,,,,,199.5433154630009,199.5577312000096,199.5577312000096,200.0411683320126,g,1.0,0.4787645619944669,,,,,,sub-200,1,stroop_test,60.509280227875145,
,,,,38.0,2.0,3.0,,,,,,,,,,,,,blau,blue,b,1.0,b,1.0,0.5990987260011025,,,,,,,,,,3.0,2.0,38.0,5.0,200.05682231101676,,,,,,,,,,,,,,,,,200.04146988500725,200.1567268900108,200.95680601001368,200.94040822400711,,,,,,,,,,,,,,,,,,,,,,,,,,,,,,,,,,,200.94089851900932,200.95680601001368,200.95680601001368,201.5579240140214,b,1.0,0.5990987260011025,,,,,,sub-200,1,stroop_test,60.509280227875145,
,,,,39.0,3.0,3.0,,,,,,,,,,,,,rot,yellow,g,0.0,g,1.0,0.5696657260123175,,,,,,,,,,3.0,3.0,39.0,3.0,201.5735706330161,,,,,,,,,,,,,,,,,201.5582681640226,202.37348617002132,203.1740757280204,203.1572770650091,,,,,,,,,,,,,,,,,,,,,,,,,,,,,,,,,,,203.16004776200865,203.1740757280204,203.1740757280204,203.75807870700373,g,1.0,0.5696657260123175,,,,,,sub-200,1,stroop_test,60.509280227875145,
,,,,40.0,4.0,3.0,,,,,,,,,,,,,gelb,red,r,0.0,r,1.0,0.5150594529986847,,,,,,,,,,3.0,4.0,40.0,8.0,203.7733707500156,,,,,,,,,,,,,,,,,203.75844435099864,204.5735434460221,205.3742334630224,205.357079147012,,,,,,,,,,,,,,,,,,,,,,,,,,,,,,,,,,,205.35990612301973,205.3742334630224,205.3742334630224,205.89117126201745,r,1.0,0.5150594529986847,,,,,,sub-200,1,stroop_test,60.509280227875145,
,,,,41.0,5.0,3.0,,,,,,,,,,,,,rot,blue,b,0.0,b,1.0,0.7098959060094785,,,,,,,,,,3.0,5.0,41.0,2.0,205.90690747101328,,,,,,,,,,,,,,,,,205.8914963590214,206.00685869902367,206.80738748100703,206.79075479201856,,,,,,,,,,,,,,,,,,,,,,,,,,,,,,,,,,,206.7933845410007,206.80738748100703,206.80738748100703,207.52394121102407,b,1.0,0.7098959060094785,,,,,,sub-200,1,stroop_test,60.509280227875145,
,,,,42.0,6.0,3.0,,,,,,,,,,,,,gelb,yellow,g,1.0,g,1.0,0.4856623939995188,,,,,,,,,,3.0,6.0,42.0,11.0,207.53981538201333,,,,,,,,,,,,,,,,,207.5242460220179,208.72355584602337,209.52488747800817,209.50696237001105,,,,,,,,,,,,,,,,,,,,,,,,,,,,,,,,,,,209.5107042460004,209.52488747800817,209.52488747800817,210.02460909701767,g,1.0,0.4856623939995188,,,,,,sub-200,1,stroop_test,60.509280227875145,
,,,,43.0,7.0,3.0,,,,,,,,,,,,,blau,red,r,0.0,r,1.0,0.6194970970100258,,,,,,,,,,3.0,7.0,43.0,4.0,210.03980889101516,,,,,,,,,,,,,,,,,210.02492065000115,210.1234472060169,210.92397974501364,210.90714940201724,,,,,,,,,,,,,,,,,,,,,,,,,,,,,,,,,,,210.90994720702287,210.92397974501364,210.92397974501364,211.5579385190213,r,1.0,0.6194970970100258,,,,,,sub-200,1,stroop_test,60.509280227875145,
,,,,44.0,8.0,3.0,,,,,,,,,,,,,gelb,yellow,g,1.0,g,1.0,0.6429607570171356,,,,,,,,,,3.0,8.0,44.0,10.0,211.57341926402296,,,,,,,,,,,,,,,,,211.55832003400428,211.6733552540245,212.47398175002309,212.45714657500503,,,,,,,,,,,,,,,,,,,,,,,,,,,,,,,,,,,212.4599528539984,212.47398175002309,212.47398175002309,213.12428133000503,g,1.0,0.6429607570171356,,,,,,sub-200,1,stroop_test,60.509280227875145,
,,,,45.0,9.0,3.0,,,,,,,,,,,,,blau,blue,b,1.0,b,1.0,0.5210229399963282,,,,,,,,,,3.0,9.0,45.0,6.0,213.14026203899996,,,,,,,,,,,,,,,,,213.1245859230112,213.9399915780232,214.74124322101125,214.7236292320013,,,,,,,,,,,,,,,,,,,,,,,,,,,,,,,,,,,214.72698933302308,214.74124322101125,214.74124322101125,215.27475811101613,b,1.0,0.5210229399963282,,,,,,sub-200,1,stroop_test,60.509280227875145,
,,,,46.0,10.0,3.0,,,,,,,,,,,,,gelb,blue,b,0.0,b,1.0,0.5012725570122711,,,,,,,,,,3.0,10.0,46.0,9.0,215.29020713901264,,,,,,,,,,,,,,,,,215.2750599920109,215.64011980200303,216.44071272702425,216.42376582999717,,,,,,,,,,,,,,,,,,,,,,,,,,,,,,,,,,,216.4265471410181,216.44071272702425,216.44071272702425,216.95732813401264,b,1.0,0.5012725570122711,,,,,,sub-200,1,stroop_test,60.509280227875145,
,,,,47.0,11.0,3.0,,,,,,,,,,,,,rot,red,r,1.0,r,1.0,0.5845215010049287,,,,,,,,,,3.0,11.0,47.0,0.0,216.9733474770037,,,,,,,,,,,,,,,,,216.9576779510244,218.1565826730221,218.95730556402123,218.9403795710241,,,,,,,,,,,,,,,,,,,,,,,,,,,,,,,,,,,218.94319498899856,218.95730556402123,218.95730556402123,219.5574206610036,r,1.0,0.5845215010049287,,,,,,sub-200,1,stroop_test,60.509280227875145,
,,,,48.0,0.0,4.0,,,,,,,,,,,,,rot,yellow,g,0.0,g,1.0,0.2886090810061432,,,,,,,,,,4.0,0.0,48.0,3.0,219.57325102802133,,,,,,,,,,,,,,,,,219.55780261100156,220.35674146501697,221.1564914190094,221.14031675300797,,,,,,,,,,,,,,,,,,,,,,,,,,,,,,,,,,,221.14089475601213,221.1564914190094,221.1564914190094,221.4577600900084,g,1.0,0.2886090810061432,,,,,,sub-200,1,stroop_test,60.509280227875145,
,,,,49.0,1.0,4.0,,,,,,,,,,,,,gelb,yellow,g,1.0,g,1.0,0.4782852039788849,,,,,,,,,,4.0,1.0,49.0,11.0,221.4731856319995,,,,,,,,,,,,,,,,,221.45812791300705,222.6733831420133,223.47449766102363,223.45697523801937,,,,,,,,,,,,,,,,,,,,,,,,,,,,,,,,,,,223.4600317090226,223.47449766102363,223.47449766102363,223.95739364399924,g,1.0,0.4782852039788849,,,,,,sub-200,1,stroop_test,60.509280227875145,
,,,,50.0,2.0,4.0,,,,,,,,,,,,,blau,blue,b,1.0,b,1.0,0.5089670879824553,,,,,,,,,,4.0,2.0,50.0,5.0,223.9733970719972,,,,,,,,,,,,,,,,,223.957715053024,225.1564875790209,225.9566498140048,225.9400708450121,,,,,,,,,,,,,,,,,,,,,,,,,,,,,,,,,,,225.942659377004,225.9566498140048,225.9566498140048,226.47391767200315,b,1.0,0.5089670879824553,,,,,,sub-200,1,stroop_test,60.509280227875145,
,,,,51.0,3.0,4.0,,,,,,,,,,,,,rot,red,r,1.0,r,1.0,0.3995024290052242,,,,,,,,,,4.0,3.0,51.0,0.0,226.4898735430033,,,,,,,,,,,,,,,,,226.47422865399855,227.27327589702327,228.0739398560254,228.05679898700328,,,,,,,,,,,,,,,,,,,,,,,,,,,,,,,,,,,228.0596072260232,228.0739398560254,228.0739398560254,228.4911308849987,r,1.0,0.3995024290052242,,,,,,sub-200,1,stroop_test,60.509280227875145,
,,,,52.0,4.0,4.0,,,,,,,,,,,,,blau,yellow,g,0.0,g,1.0,0.5584586419863626,,,,,,,,,,4.0,4.0,52.0,7.0,228.506468897016,,,,,,,,,,,,,,,,,228.49145977201988,229.30653594300384,230.1070965230174,230.09005301300203,,,,,,,,,,,,,,,,,,,,,,,,,,,,,,,,,,,230.09304723600508,230.1070965230174,230.1070965230174,230.67381919000763,g,1.0,0.5584586419863626,,,,,,sub-200,1,stroop_test,60.509280227875145,
,,,,53.0,5.0,4.0,,,,,,,,,,,,,gelb,red,r,0.0,r,1.0,0.6358925919921603,,,,,,,,,,4.0,5.0,53.0,8.0,230.68976576800924,,,,,,,,,,,,,,,,,230.6741216299997,231.02282956801355,231.82383655000007,231.80668330402116,,,,,,,,,,,,,,,,,,,,,,,,,,,,,,,,,,,231.8094644070079,231.82383655000007,231.82383655000007,232.47398042300483,r,1.0,0.6358925919921603,,,,,,sub-200,1,stroop_test,60.509280227875145,
,,,,54.0,6.0,4.0,,,,,,,,,,,,,rot,red,r,1.0,r,1.0,0.587041124003008,,,,,,,,,,4.0,6.0,54.0,1.0,232.48977765001476,,,,,,,,,,,,,,,,,232.4742998389993,233.28993044499657,234.09048257902032,234.07340579800075,,,,,,,,,,,,,,,,,,,,,,,,,,,,,,,,,,,234.07615061101387,234.09048257902032,234.09048257902032,234.6906268199964,r,1.0,0.587041124003008,,,,,,sub-200,1,stroop_test,60.509280227875145,
,,,,55.0,7.0,4.0,,,,,,,,,,,,,blau,blue,b,1.0,b,1.0,0.5927915969805326,,,,,,,,,,4.0,7.0,55.0,6.0,234.70626239699777,,,,,,,,,,,,,,,,,234.69092981802527,235.48987417001624,236.29035509499957,236.273414721014,,,,,,,,,,,,,,,,,,,,,,,,,,,,,,,,,,,236.27631268501864,236.29035509499957,236.29035509499957,236.89059758602525,b,1.0,0.5927915969805326,,,,,,sub-200,1,stroop_test,60.509280227875145,
,,,,56.0,8.0,4.0,,,,,,,,,,,,,gelb,yellow,g,1.0,g,1.0,0.5418703330215067,,,,,,,,,,4.0,8.0,56.0,10.0,236.90581408899743,,,,,,,,,,,,,,,,,236.8909141900076,238.0898194250185,238.89032245401177,238.8733191479987,,,,,,,,,,,,,,,,,,,,,,,,,,,,,,,,,,,238.87651449799887,238.89032245401177,238.89032245401177,239.44056625801025,g,1.0,0.5418703330215067,,,,,,sub-200,1,stroop_test,60.509280227875145,
,,,,57.0,9.0,4.0,,,,,,,,,,,,,rot,blue,b,0.0,b,1.0,0.8783854539797176,,,,,,,,,,4.0,9.0,57.0,2.0,239.4561133540119,,,,,,,,,,,,,,,,,239.44086642801997,240.65622115900624,241.45687274402007,241.44015657601997,,,,,,,,,,,,,,,,,,,,,,,,,,,,,,,,,,,241.4428811130056,241.45687274402007,241.45687274402007,242.34060023000347,b,1.0,0.8783854539797176,,,,,,sub-200,1,stroop_test,60.509280227875145,
,,,,58.0,10.0,4.0,,,,,,,,,,,,,blau,red,r,0.0,r,1.0,0.8166065059776884,,,,,,,,,,4.0,10.0,58.0,4.0,242.3559993650124,,,,,,,,,,,,,,,,,242.340989334014,242.43948132600053,243.2404683910136,243.22338623800897,,,,,,,,,,,,,,,,,,,,,,,,,,,,,,,,,,,243.22617694802463,243.2404683910136,243.2404683910136,244.0741812250053,r,1.0,0.8166065059776884,,,,,,sub-200,1,stroop_test,60.509280227875145,
,,,,59.0,11.0,4.0,,,,,,,,,,,,,gelb,blue,b,0.0,b,1.0,0.7551086019957438,,,,,,,,,,4.0,11.0,59.0,9.0,244.08974133300944,,,,,,,,,,,,,,,,,244.07454614000744,244.43984452800944,245.2401413280168,245.2231967280095,,,,,,,,,,,,,,,,,,,,,,,,,,,,,,,,,,,245.2261826340109,245.2401413280168,245.2401413280168,246.00721730300572,b,1.0,0.7551086019957438,,,,,,sub-200,1,stroop_test,60.509280227875145,
,,,,60.0,0.0,5.0,,,,,,,,,,,,,rot,yellow,g,0.0,g,1.0,0.320802469010232,,,,,,,,,,5.0,0.0,60.0,3.0,246.0226603250194,,,,,,,,,,,,,,,,,246.00760357800755,246.80613642500248,247.6074145890016,247.58997129902127,,,,,,,,,,,,,,,,,,,,,,,,,,,,,,,,,,,247.59357948001707,247.6074145890016,247.6074145890016,247.94084634102185,g,1.0,0.320802469010232,,,,,,sub-200,1,stroop_test,60.509280227875145,
,,,,61.0,1.0,5.0,,,,,,,,,,,,,rot,red,r,1.0,r,1.0,0.5728916829975788,,,,,,,,,,5.0,1.0,61.0,0.0,247.95607099001063,,,,,,,,,,,,,,,,,247.94115717700333,248.3069187820074,249.10615497702383,249.08987529602015,,,,,,,,,,,,,,,,,,,,,,,,,,,,,,,,,,,249.0904549760162,249.10615497702383,249.10615497702383,249.69051920200585,r,1.0,0.5728916829975788,,,,,,sub-200,1,stroop_test,60.509280227875145,
,,,,62.0,2.0,5.0,,,,,,,,,,,,,gelb,yellow,g,1.0,g,1.0,0.5693065880041104,,,,,,,,,,5.0,2.0,62.0,11.0,249.70586766902125,,,,,,,,,,,,,,,,,249.6908274560119,249.8063225299993,250.60684754300743,250.5898583610251,,,,,,,,,,,,,,,,,,,,,,,,,,,,,,,,,,,250.59269523702096,250.60684754300743,250.60684754300743,251.19049817102496,g,1.0,0.5693065880041104,,,,,,sub-200,1,stroop_test,60.509280227875145,
,,,,63.0,3.0,5.0,,,,,,,,,,,,,gelb,red,r,0.0,r,1.0,0.8887666849768721,,,,,,,,,,5.0,3.0,63.0,8.0,251.2061243620119,,,,,,,,,,,,,,,,,251.1908059710113,251.2895176100137,252.0893703000038,252.07335409801453,,,,,,,,,,,,,,,,,,,,,,,,,,,,,,,,,,,252.0739336600236,252.0893703000038,252.0893703000038,252.9905884990003,r,1.0,0.8887666849768721,,,,,,sub-200,1,stroop_test,60.509280227875145,
,,,,64.0,4.0,5.0,,,,,,,,,,,,,rot,red,r,1.0,r,1.0,0.4944581939780619,,,,,,,,,,5.0,4.0,64.0,1.0,253.00574253700324,,,,,,,,,,,,,,,,,252.99089035601355,253.8063219670148,254.60642862101668,254.59004115199787,,,,,,,,,,,,,,,,,,,,,,,,,,,,,,,,,,,254.5926682430145,254.60642862101668,254.60642862101668,255.10703779902545,r,1.0,0.4944581939780619,,,,,,sub-200,1,stroop_test,60.509280227875145,
,,,,65.0,5.0,5.0,,,,,,,,,,,,,rot,blue,b,0.0,b,1.0,0.8125848220079206,,,,,,,,,,5.0,5.0,65.0,2.0,255.1225531840173,,,,,,,,,,,,,,,,,255.1073929060076,255.90601852099644,256.70618780201767,256.689896447002,,,,,,,,,,,,,,,,,,,,,,,,,,,,,,,,,,,256.6903741490096,256.70618780201767,256.70618780201767,257.5237592360063,b,1.0,0.8125848220079206,,,,,,sub-200,1,stroop_test,60.509280227875145,
,,,,66.0,6.0,5.0,,,,,,,,,,,,,gelb,blue,b,0.0,b,1.0,0.4500972839887254,,,,,,,,,,5.0,6.0,66.0,9.0,257.5392557750165,,,,,,,,,,,,,,,,,257.5242008549976,257.6395838480093,258.4404110700125,258.42331533599645,,,,,,,,,,,,,,,,,,,,,,,,,,,,,,,,,,,258.4265194670006,258.4404110700125,258.4404110700125,258.90717710502213,b,1.0,0.4500972839887254,,,,,,sub-200,1,stroop_test,60.509280227875145,
,,,,67.0,7.0,5.0,,,,,,,,,,,,,blau,yellow,g,0.0,g,1.0,0.5872996520192828,,,,,,,,,,5.0,7.0,67.0,7.0,258.9227569210052,,,,,,,,,,,,,,,,,258.90753556301934,259.0061371590127,259.8065847940161,259.789596882998,,,,,,,,,,,,,,,,,,,,,,,,,,,,,,,,,,,259.79241232702043,259.8065847940161,259.8065847940161,260.4070579649997,g,1.0,0.5872996520192828,,,,,,sub-200,1,stroop_test,60.509280227875145,
,,,,68.0,8.0,5.0,,,,,,,,,,,,,gelb,yellow,g,1.0,g,1.0,0.4674618980207015,,,,,,,,,,5.0,8.0,68.0,10.0,260.4224529170024,,,,,,,,,,,,,,,,,260.40743197200936,260.77258459100267,261.5729389949993,261.55638960702345,,,,,,,,,,,,,,,,,,,,,,,,,,,,,,,,,,,261.5588355780055,261.5729389949993,261.5729389949993,262.0571741790045,g,1.0,0.4674618980207015,,,,,,sub-200,1,stroop_test,60.509280227875145,
,,,,69.0,9.0,5.0,,,,,,,,,,,,,blau,blue,b,1.0,r,0.0,0.6789749010058586,,,,,,,,,,5.0,9.0,69.0,5.0,262.0727093840251,,,,,,,,,,,,,,,,,262.0575323610101,262.17238939899835,262.9735502420226,262.9562652860186,,,,,,,,,,,,,,,,,,,,,,,,,,,,,,,,,,,262.9597852709994,262.9735502420226,262.9735502420226,263.6567195420212,r,0.0,0.6789749010058586,,,,,,sub-200,1,stroop_test,60.509280227875145,
,,,,70.0,10.0,5.0,,,,,,,,,,,,,blau,blue,b,1.0,b,1.0,0.8377706989995204,,,,,,,,,,5.0,10.0,70.0,6.0,263.6725196840125,,,,,,,,,,,,,,,,,263.6570437230112,264.00596328801475,264.8058229160088,264.7894975770032,,,,,,,,,,,,,,,,,,,,,,,,,,,,,,,,,,,264.7899748850032,264.8058229160088,264.8058229160088,265.65730598999653,b,1.0,0.8377706989995204,,,,,,sub-200,1,stroop_test,60.509280227875145,
,,,,71.0,11.0,5.0,,,,,,,,,,,,,blau,red,r,0.0,r,1.0,0.6656498669763096,,,,,,,,,,5.0,11.0,71.0,4.0,265.672548579023,,,,,,,,,,,,,,,,,265.6576697700075,266.872501439997,267.6726459360216,267.6562643549987,,,,,,,,,,,,,,,,,,,,,,,,,,,,,,,,,,,267.6568426640006,267.6726459360216,267.6726459360216,268.34030433700536,r,1.0,0.6656498669763096,,,,,,sub-200,1,stroop_test,60.509280227875145,
,,,,72.0,0.0,6.0,,,,,,,,,,,,,rot,yellow,g,0.0,r,0.0,1.0692925690091215,,,,,,,,,,6.0,0.0,72.0,3.0,268.35625899300794,,,,,,,,,,,,,,,,,268.34063188399887,268.6893046030018,269.4902887100179,269.47304943201016,,,,,,,,,,,,,,,,,,,,,,,,,,,,,,,,,,,269.47580031701364,269.4902887100179,269.4902887100179,270.5734504570137,r,0.0,1.0692925690091215,,,,,,sub-200,1,stroop_test,60.509280227875145,
,,,,73.0,1.0,6.0,,,,,,,,,,,,,blau,blue,b,1.0,b,1.0,0.7387268349993974,,,,,,,,,,6.0,1.0,73.0,6.0,270.58924445702,,,,,,,,,,,,,,,,,270.57375829599914,270.92278043401893,271.7227089640219,271.7062092370179,,,,,,,,,,,,,,,,,,,,,,,,,,,,,,,,,,,271.70887986401794,271.7227089640219,271.7227089640219,272.47356924100313,b,1.0,0.7387268349993974,,,,,,sub-200,1,stroop_test,60.509280227875145,
,,,,74.0,2.0,6.0,,,,,,,,,,,,,gelb,yellow,g,1.0,g,1.0,0.3355273329943884,,,,,,,,,,6.0,2.0,74.0,10.0,272.48920724799973,,,,,,,,,,,,,,,,,272.4738804960216,273.2892174650042,274.09093405801104,274.0729623369989,,,,,,,,,,,,,,,,,,,,,,,,,,,,,,,,,,,274.0758224470192,274.09093405801104,274.09093405801104,274.4401530670002,g,1.0,0.3355273329943884,,,,,,sub-200,1,stroop_test,60.509280227875145,
,,,,75.0,3.0,6.0,,,,,,,,,,,,,gelb,blue,b,0.0,b,1.0,1.0177304059907328,,,,,,,,,,6.0,3.0,75.0,9.0,274.4557408950059,,,,,,,,,,,,,,,,,274.44045168100274,274.53906639802153,275.3392443670018,275.32255770399934,,,,,,,,,,,,,,,,,,,,,,,,,,,,,,,,,,,275.32330915200873,275.3392443670018,275.3392443670018,276.3732725190057,b,1.0,1.0177304059907328,,,,,,sub-200,1,stroop_test,60.509280227875145,
,,,,76.0,4.0,6.0,,,,,,,,,,,,,rot,blue,b,0.0,b,1.0,1.0590023410040883,,,,,,,,,,6.0,4.0,76.0,2.0,276.38959822402103,,,,,,,,,,,,,,,,,276.37373828701675,276.7223600530124,277.52290024000104,277.5062388960214,,,,,,,,,,,,,,,,,,,,,,,,,,,,,,,,,,,277.5089671650203,277.52290024000104,277.52290024000104,278.59006384102395,b,1.0,1.0590023410040883,,,,,,sub-200,1,stroop_test,60.509280227875145,
,,,,77.0,5.0,6.0,,,,,,,,,,,,,rot,red,r,1.0,r,1.0,0.7463992369885091,,,,,,,,,,6.0,5.0,77.0,1.0,278.605567466002,,,,,,,,,,,,,,,,,278.5903673090216,279.4057564609975,280.2056046750222,280.1893139510066,,,,,,,,,,,,,,,,,,,,,,,,,,,,,,,,,,,280.18992428900674,280.2056046750222,280.2056046750222,280.95677891001105,r,1.0,0.7463992369885091,,,,,,sub-200,1,stroop_test,60.509280227875145,
,,,,78.0,6.0,6.0,,,,,,,,,,,,,rot,red,r,1.0,r,1.0,0.5659143550146837,,,,,,,,,,6.0,6.0,78.0,0.0,280.9725725699973,,,,,,,,,,,,,,,,,280.9570839000225,282.15586858801544,282.9556589080021,282.93947360801394,,,,,,,,,,,,,,,,,,,,,,,,,,,,,,,,,,,282.93994771601865,282.9556589080021,282.9556589080021,283.52355388502474,r,1.0,0.5659143550146837,,,,,,sub-200,1,stroop_test,60.509280227875145,
,,,,79.0,7.0,6.0,,,,,,,,,,,,,blau,yellow,g,0.0,g,1.0,0.6121126590005588,,,,,,,,,,6.0,7.0,79.0,7.0,283.53883668599883,,,,,,,,,,,,,,,,,283.52404074100195,283.88880007801345,284.68979465801385,284.67270643400843,,,,,,,,,,,,,,,,,,,,,,,,,,,,,,,,,,,284.67598828399787,284.68979465801385,284.68979465801385,285.3071498119971,g,1.0,0.6121126590005588,,,,,,sub-200,1,stroop_test,60.509280227875145,
,,,,80.0,8.0,6.0,,,,,,,,,,,,,blau,blue,b,1.0,b,1.0,0.6258938329992816,,,,,,,,,,6.0,8.0,80.0,5.0,285.32212425401667,,,,,,,,,,,,,,,,,285.30749521401594,285.42247844900703,286.2227041410224,286.2059456499992,,,,,,,,,,,,,,,,,,,,,,,,,,,,,,,,,,,286.206522294,286.2227041410224,286.2227041410224,286.8566817630199,b,1.0,0.6258938329992816,,,,,,sub-200,1,stroop_test,60.509280227875145,
,,,,81.0,9.0,6.0,,,,,,,,,,,,,gelb,red,r,0.0,r,1.0,0.6507063189928886,,,,,,,,,,6.0,9.0,81.0,8.0,286.87240403401665,,,,,,,,,,,,,,,,,286.85698446500464,287.6553932380048,288.457079942018,288.4394168390136,,,,,,,,,,,,,,,,,,,,,,,,,,,,,,,,,,,288.4426113680238,288.457079942018,288.457079942018,289.1233438930067,r,1.0,0.6507063189928886,,,,,,sub-200,1,stroop_test,60.509280227875145,
,,,,82.0,10.0,6.0,,,,,,,,,,,,,blau,red,r,0.0,r,1.0,0.6826839999994263,,,,,,,,,,6.0,10.0,82.0,4.0,289.13898620099644,,,,,,,,,,,,,,,,,289.12376327600214,289.92214409602457,290.72286837300635,290.7060731649981,,,,,,,,,,,,,,,,,,,,,,,,,,,,,,,,,,,290.70889710102347,290.72286837300635,290.72286837300635,291.40684638000675,r,1.0,0.6826839999994263,,,,,,sub-200,1,stroop_test,60.509280227875145,
,,,,83.0,11.0,6.0,,,,,,,,,,,,,gelb,yellow,g,1.0,g,1.0,0.5322318679827731,,,,,,,,,,6.0,11.0,83.0,11.0,291.4224300960195,,,,,,,,,,,,,,,,,291.4072430130036,292.6222245780227,293.42253704200266,293.40573557300377,,,,,,,,,,,,,,,,,,,,,,,,,,,,,,,,,,,293.4085337180004,293.42253704200266,293.42253704200266,293.95683266202104,g,1.0,0.5322318679827731,,,,,,sub-200,1,stroop_test,60.509280227875145,
,,,,84.0,0.0,7.0,,,,,,,,,,,,,blau,blue,b,1.0,b,1.0,0.5279782419966068,,,,,,,,,,7.0,0.0,84.0,5.0,293.9718753159977,,,,,,,,,,,,,,,,,293.95727322401945,294.3223440180009,295.12259945302503,295.10618802401586,,,,,,,,,,,,,,,,,,,,,,,,,,,,,,,,,,,295.10871290400974,295.12259945302503,295.12259945302503,295.656359687011,b,1.0,0.5279782419966068,,,,,,sub-200,1,stroop_test,60.509280227875145,
,,,,85.0,1.0,7.0,,,,,,,,,,,,,gelb,red,r,0.0,r,1.0,0.6150155500217807,,,,,,,,,,7.0,1.0,85.0,8.0,295.6720525540004,,,,,,,,,,,,,,,,,295.65666943902033,296.005672135012,296.8063421760162,296.7893294680107,,,,,,,,,,,,,,,,,,,,,,,,,,,,,,,,,,,296.7921264700126,296.8063421760162,296.8063421760162,297.423374489008,r,1.0,0.6150155500217807,,,,,,sub-200,1,stroop_test,60.509280227875145,
,,,,86.0,2.0,7.0,,,,,,,,,,,,,blau,red,r,0.0,r,1.0,0.6269871959812008,,,,,,,,,,7.0,2.0,86.0,4.0,297.43869141701725,,,,,,,,,,,,,,,,,297.4237424830208,298.63877514301566,299.4394376100099,299.4226656090177,,,,,,,,,,,,,,,,,,,,,,,,,,,,,,,,,,,299.42541244401946,299.4394376100099,299.4394376100099,300.0729654340248,r,1.0,0.6269871959812008,,,,,,sub-200,1,stroop_test,60.509280227875145,
,,,,87.0,3.0,7.0,,,,,,,,,,,,,gelb,yellow,g,1.0,g,1.0,0.6182622959895525,,,,,,,,,,7.0,3.0,87.0,11.0,300.0883094140154,,,,,,,,,,,,,,,,,300.07327423701645,300.17228480501217,300.97309241001494,300.9558513800148,,,,,,,,,,,,,,,,,,,,,,,,,,,,,,,,,,,300.9591673090181,300.97309241001494,300.97309241001494,301.6069238080236,g,1.0,0.6182622959895525,,,,,,sub-200,1,stroop_test,60.509280227875145,
,,,,88.0,4.0,7.0,,,,,,,,,,,,,blau,yellow,g,0.0,g,1.0,0.6452434820239432,,,,,,,,,,7.0,4.0,88.0,7.0,301.62230519001605,,,,,,,,,,,,,,,,,301.607285806007,301.9719484880043,302.7730624340184,302.75586871101405,,,,,,,,,,,,,,,,,,,,,,,,,,,,,,,,,,,302.75867382102297,302.7730624340184,302.7730624340184,303.4231296190119,g,1.0,0.6452434820239432,,,,,,sub-200,1,stroop_test,60.509280227875145,
,,,,89.0,5.0,7.0,,,,,,,,,,,,,rot,red,r,1.0,r,1.0,0.4548154799849726,,,,,,,,,,7.0,5.0,89.0,1.0,303.4385132640018,,,,,,,,,,,,,,,,,303.42344848101493,304.63867802202003,305.4395406350086,305.42233917402336,,,,,,,,,,,,,,,,,,,,,,,,,,,,,,,,,,,305.4252916070109,305.4395406350086,305.4395406350086,305.90661153101246,r,1.0,0.4548154799849726,,,,,,sub-200,1,stroop_test,60.509280227875145,
,,,,90.0,6.0,7.0,,,,,,,,,,,,,rot,red,r,1.0,r,1.0,0.5573829869972542,,,,,,,,,,7.0,6.0,90.0,0.0,305.9228559490002,,,,,,,,,,,,,,,,,305.90708163101226,306.02203786501195,306.8215301849996,306.8052524070081,,,,,,,,,,,,,,,,,,,,,,,,,,,,,,,,,,,306.8058104500233,306.8215301849996,306.8215301849996,307.38973834199714,r,1.0,0.5573829869972542,,,,,,sub-200,1,stroop_test,60.509280227875145,
,,,,91.0,7.0,7.0,,,,,,,,,,,,,gelb,yellow,g,1.0,g,1.0,0.5179425000096671,,,,,,,,,,7.0,7.0,91.0,10.0,307.4053212220024,,,,,,,,,,,,,,,,,307.39005430499674,307.7551089990011,308.55497306902544,308.5385736320168,,,,,,,,,,,,,,,,,,,,,,,,,,,,,,,,,,,308.5409192710067,308.55497306902544,308.55497306902544,309.0891832940106,g,1.0,0.5179425000096671,,,,,,sub-200,1,stroop_test,60.509280227875145,
,,,,92.0,8.0,7.0,,,,,,,,,,,,,blau,blue,b,1.0,b,1.0,0.6119353820104152,,,,,,,,,,7.0,8.0,92.0,6.0,309.1047025840089,,,,,,,,,,,,,,,,,309.0895043120254,310.2881840560003,311.08809991000453,311.07188500399934,,,,,,,,,,,,,,,,,,,,,,,,,,,,,,,,,,,311.0743589530175,311.08809991000453,311.08809991000453,311.7060925870028,b,1.0,0.6119353820104152,,,,,,sub-200,1,stroop_test,60.509280227875145,
,,,,93.0,9.0,7.0,,,,,,,,,,,,,gelb,blue,b,0.0,b,1.0,1.428376672003651,,,,,,,,,,7.0,9.0,93.0,9.0,311.72149408899713,,,,,,,,,,,,,,,,,311.706421298004,312.9214993760106,313.72154981200583,313.70495899100206,,,,,,,,,,,,,,,,,,,,,,,,,,,,,,,,,,,313.7076176710252,313.72154981200583,313.72154981200583,315.1561987220193,b,1.0,1.428376672003651,,,,,,sub-200,1,stroop_test,60.509280227875145,
,,,,94.0,10.0,7.0,,,,,,,,,,,,,rot,blue,b,0.0,b,1.0,0.4324061619990971,,,,,,,,,,7.0,10.0,94.0,2.0,315.1718277200125,,,,,,,,,,,,,,,,,315.15649950201623,315.95538697301527,316.7555731130124,316.73880640399875,,,,,,,,,,,,,,,,,,,,,,,,,,,,,,,,,,,316.74151361201075,316.7555731130124,316.7555731130124,317.18972162299906,b,1.0,0.4324061619990971,,,,,,sub-200,1,stroop_test,60.509280227875145,
,,,,95.0,11.0,7.0,,,,,,,,,,,,,rot,yellow,g,0.0,g,1.0,0.6550036659755278,,,,,,,,,,7.0,11.0,95.0,3.0,317.2055080750142,,,,,,,,,,,,,,,,,317.19005199702224,317.5550810860004,318.35495897600777,318.3387267010112,,,,,,,,,,,,,,,,,,,,,,,,,,,,,,,,,,,318.3391996240244,318.35495897600777,318.35495897600777,319.0232539360004,g,1.0,0.6550036659755278,,,,,,sub-200,1,stroop_test,60.509280227875145,
,,,,96.0,0.0,8.0,,,,,,,,,,,,,rot,yellow,g,0.0,g,1.0,0.3992110949766356,,,,,,,,,,8.0,0.0,96.0,3.0,319.03847920600674,,,,,,,,,,,,,,,,,319.02361444200506,320.2383489180065,321.0385121250001,321.02209636202315,,,,,,,,,,,,,,,,,,,,,,,,,,,,,,,,,,,321.02259967199643,321.0385121250001,321.0385121250001,321.4396531060047,g,1.0,0.3992110949766356,,,,,,sub-200,1,stroop_test,60.509280227875145,
,,,,97.0,1.0,8.0,,,,,,,,,,,,,gelb,red,r,0.0,r,1.0,0.5360426080005709,,,,,,,,,,8.0,1.0,97.0,8.0,321.45477584801847,,,,,,,,,,,,,,,,,321.4399760320084,321.55530091101537,322.3558165130089,322.33863765202113,,,,,,,,,,,,,,,,,,,,,,,,,,,,,,,,,,,322.3414867090178,322.3558165130089,322.3558165130089,322.9062430220074,r,1.0,0.5360426080005709,,,,,,sub-200,1,stroop_test,60.509280227875145,
,,,,98.0,2.0,8.0,,,,,,,,,,,,,rot,red,r,1.0,r,1.0,0.5527290549944155,,,,,,,,,,8.0,2.0,98.0,1.0,322.9216326129972,,,,,,,,,,,,,,,,,322.9066085490049,323.0219000860234,323.82203948299866,323.8053290590178,,,,,,,,,,,,,,,,,,,,,,,,,,,,,,,,,,,323.80812096601585,323.82203948299866,323.82203948299866,324.3896099520207,r,1.0,0.5527290549944155,,,,,,sub-200,1,stroop_test,60.509280227875145,
,,,,99.0,3.0,8.0,,,,,,,,,,,,,blau,blue,b,1.0,b,1.0,0.9313510990177748,,,,,,,,,,8.0,3.0,99.0,5.0,324.40532949200133,,,,,,,,,,,,,,,,,324.3899171570083,324.4884769800119,325.28938263101736,325.2723421980045,,,,,,,,,,,,,,,,,,,,,,,,,,,,,,,,,,,325.27515008099726,325.28938263101736,325.28938263101736,326.22276378801325,b,1.0,0.9313510990177748,,,,,,sub-200,1,stroop_test,60.509280227875145,
,,,,100.0,4.0,8.0,,,,,,,,,,,,,rot,blue,b,0.0,b,1.0,0.4508144040009938,,,,,,,,,,8.0,4.0,100.0,2.0,326.2383583900228,,,,,,,,,,,,,,,,,326.22314792501857,327.4217641960131,328.2224755040079,328.2055772099993,,,,,,,,,,,,,,,,,,,,,,,,,,,,,,,,,,,328.2083197120228,328.2224755040079,328.2224755040079,328.6896662080253,b,1.0,0.4508144040009938,,,,,,sub-200,1,stroop_test,60.509280227875145,
,,,,101.0,5.0,8.0,,,,,,,,,,,,,blau,yellow,g,0.0,g,1.0,0.6529779439733829,,,,,,,,,,8.0,5.0,101.0,7.0,328.7050661040121,,,,,,,,,,,,,,,,,328.6900352660159,329.9051918180194,330.7066550960008,330.6882865560183,,,,,,,,,,,,,,,,,,,,,,,,,,,,,,,,,,,330.6919940270018,330.7066550960008,330.7066550960008,331.3728770370072,g,1.0,0.6529779439733829,,,,,,sub-200,1,stroop_test,60.509280227875145,
,,,,102.0,6.0,8.0,,,,,,,,,,,,,rot,red,r,1.0,r,1.0,0.5033985110057984,,,,,,,,,,8.0,6.0,102.0,0.0,331.3880626070022,,,,,,,,,,,,,,,,,331.37318521901034,332.58834177601966,333.38921131100506,333.3720106109977,,,,,,,,,,,,,,,,,,,,,,,,,,,,,,,,,,,333.3750680280209,333.38921131100506,333.38921131100506,333.9063392220123,r,1.0,0.5033985110057984,,,,,,sub-200,1,stroop_test,60.509280227875145,
,,,,103.0,7.0,8.0,,,,,,,,,,,,,blau,red,r,0.0,r,1.0,1.1278279180114623,,,,,,,,,,8.0,7.0,103.0,4.0,333.9214044980181,,,,,,,,,,,,,,,,,333.90665310501936,334.27182417100994,335.07244914301555,335.0552947780234,,,,,,,,,,,,,,,,,,,,,,,,,,,,,,,,,,,335.0580735930125,335.07244914301555,335.07244914301555,336.2061652050179,r,1.0,1.1278279180114623,,,,,,sub-200,1,stroop_test,60.509280227875145,
,,,,104.0,8.0,8.0,,,,,,,,,,,,,gelb,blue,b,0.0,b,1.0,0.876559180993354,,,,,,,,,,8.0,8.0,104.0,9.0,336.22212664599647,,,,,,,,,,,,,,,,,336.2064767109987,336.3215919500217,337.1225699610077,337.10549262701534,,,,,,,,,,,,,,,,,,,,,,,,,,,,,,,,,,,337.1088242219994,337.1225699610077,337.1225699610077,338.00577769899974,b,1.0,0.876559180993354,,,,,,sub-200,1,stroop_test,60.509280227875145,
,,,,105.0,9.0,8.0,,,,,,,,,,,,,blau,blue,b,1.0,b,1.0,0.8447114269947633,,,,,,,,,,8.0,9.0,105.0,6.0,338.0217275720206,,,,,,,,,,,,,,,,,338.00612260302296,338.80497861802,339.6054024240002,339.5885272440209,,,,,,,,,,,,,,,,,,,,,,,,,,,,,,,,,,,339.59135027902084,339.6054024240002,339.6054024240002,340.45596089502214,b,1.0,0.8447114269947633,,,,,,sub-200,1,stroop_test,60.509280227875145,
,,,,106.0,10.0,8.0,,,,,,,,,,,,,gelb,yellow,g,1.0,g,1.0,0.5946344629919622,,,,,,,,,,8.0,10.0,106.0,10.0,340.4714360970247,,,,,,,,,,,,,,,,,340.4562704710115,340.8049831330136,341.6054317270173,341.5883941450156,,,,,,,,,,,,,,,,,,,,,,,,,,,,,,,,,,,341.59125631602365,341.6054317270173,341.6054317270173,342.20581526099704,g,1.0,0.5946344629919622,,,,,,sub-200,1,stroop_test,60.509280227875145,
,,,,107.0,11.0,8.0,,,,,,,,,,,,,gelb,yellow,g,1.0,g,1.0,0.5232327890116721,,,,,,,,,,8.0,11.0,107.0,11.0,342.2217503870197,,,,,,,,,,,,,,,,,342.20616952001,342.5549026619992,343.35484236999764,343.3386683250137,,,,,,,,,,,,,,,,,,,,,,,,,,,,,,,,,,,343.3392469820101,343.35484236999764,343.35484236999764,343.888962209021,g,1.0,0.5232327890116721,,,,,,sub-200,1,stroop_test,60.509280227875145,
,,,,108.0,0.0,9.0,,,,,,,,,,,,,rot,blue,b,0.0,b,1.0,0.7457316129875835,,,,,,,,,,9.0,0.0,108.0,2.0,343.9049449300219,,,,,,,,,,,,,,,,,343.8892750260129,344.23829992100946,345.03907373701804,345.0219394840242,,,,,,,,,,,,,,,,,,,,,,,,,,,,,,,,,,,345.02498428401304,345.03907373701804,345.03907373701804,345.78931302702404,b,1.0,0.7457316129875835,,,,,,sub-200,1,stroop_test,60.509280227875145,
,,,,109.0,1.0,9.0,,,,,,,,,,,,,gelb,yellow,g,1.0,g,1.0,0.4994471329846419,,,,,,,,,,9.0,1.0,109.0,11.0,345.804860571021,,,,,,,,,,,,,,,,,345.78961871302454,347.0046731090115,347.80530524402275,347.78845900300075,,,,,,,,,,,,,,,,,,,,,,,,,,,,,,,,,,,347.7911015030113,347.80530524402275,347.80530524402275,348.3060972650128,g,1.0,0.4994471329846419,,,,,,sub-200,1,stroop_test,60.509280227875145,
,,,,110.0,2.0,9.0,,,,,,,,,,,,,rot,red,r,1.0,r,1.0,0.5594362150004599,,,,,,,,,,9.0,2.0,110.0,1.0,348.3214682570251,,,,,,,,,,,,,,,,,348.306475119025,349.5214891710202,350.322130717017,350.3051384970022,,,,,,,,,,,,,,,,,,,,,,,,,,,,,,,,,,,350.3079357780225,350.322130717017,350.322130717017,350.8892033340235,r,1.0,0.5594362150004599,,,,,,sub-200,1,stroop_test,60.509280227875145,
,,,,111.0,3.0,9.0,,,,,,,,,,,,,gelb,yellow,g,1.0,g,1.0,0.460681497992482,,,,,,,,,,9.0,3.0,111.0,10.0,350.9051349009969,,,,,,,,,,,,,,,,,350.8895088420249,351.25471076200483,352.05501458302024,352.03835393101326,,,,,,,,,,,,,,,,,,,,,,,,,,,,,,,,,,,352.04066188802244,352.05501458302024,352.05501458302024,352.5223268670088,g,1.0,0.460681497992482,,,,,,sub-200,1,stroop_test,60.509280227875145,
,,,,112.0,4.0,9.0,,,,,,,,,,,,,blau,red,r,0.0,r,1.0,0.3135635299840942,,,,,,,,,,9.0,4.0,112.0,4.0,352.5381106690038,,,,,,,,,,,,,,,,,352.52262291900115,352.87161099902005,353.673106939008,353.65516386102536,,,,,,,,,,,,,,,,,,,,,,,,,,,,,,,,,,,353.65854939300334,353.673106939008,353.673106939008,353.9888567000162,r,1.0,0.3135635299840942,,,,,,sub-200,1,stroop_test,60.509280227875145,
,,,,113.0,5.0,9.0,,,,,,,,,,,,,gelb,red,r,0.0,r,1.0,1.0713316980109084,,,,,,,,,,9.0,5.0,113.0,8.0,354.00454024999635,,,,,,,,,,,,,,,,,353.9891937620123,354.7882389940205,355.5883253030188,355.5716205530043,,,,,,,,,,,,,,,,,,,,,,,,,,,,,,,,,,,355.5742562630039,355.5883253030188,355.5883253030188,356.67288061699946,r,1.0,1.0713316980109084,,,,,,sub-200,1,stroop_test,60.509280227875145,
,,,,114.0,6.0,9.0,,,,,,,,,,,,,blau,blue,b,1.0,b,1.0,0.5786228739889339,,,,,,,,,,9.0,6.0,114.0,5.0,356.68777200300246,,,,,,,,,,,,,,,,,356.6732648820034,356.7878470660071,357.5879194700101,357.5713540150027,,,,,,,,,,,,,,,,,,,,,,,,,,,,,,,,,,,357.57363124901894,357.5879194700101,357.5879194700101,358.1723647530016,b,1.0,0.5786228739889339,,,,,,sub-200,1,stroop_test,60.509280227875145,
,,,,115.0,7.0,9.0,,,,,,,,,,,,,blau,yellow,g,0.0,g,1.0,0.5526747020194307,,,,,,,,,,9.0,7.0,115.0,7.0,358.1880992049992,,,,,,,,,,,,,,,,,358.17266964400187,358.9881428160006,359.7880837180128,359.7717015329981,,,,,,,,,,,,,,,,,,,,,,,,,,,,,,,,,,,359.7721155330073,359.7880837180128,359.7880837180128,360.3557752180204,g,1.0,0.5526747020194307,,,,,,sub-200,1,stroop_test,60.509280227875145,
,,,,116.0,8.0,9.0,,,,,,,,,,,,,rot,yellow,g,0.0,g,1.0,0.4180935269978363,,,,,,,,,,9.0,8.0,116.0,3.0,360.37076782400254,,,,,,,,,,,,,,,,,360.3560795800004,361.1714101460239,361.9722680270206,361.9549530890072,,,,,,,,,,,,,,,,,,,,,,,,,,,,,,,,,,,361.9580215990136,361.9722680270206,361.9722680270206,362.4060210780008,g,1.0,0.4180935269978363,,,,,,sub-200,1,stroop_test,60.509280227875145,
,,,,117.0,9.0,9.0,,,,,,,,,,,,,blau,blue,b,1.0,b,1.0,0.5200701729918364,,,,,,,,,,9.0,9.0,117.0,6.0,362.4208755970176,,,,,,,,,,,,,,,,,362.40638282202417,363.62144967500353,364.42153429900645,364.40493105200585,,,,,,,,,,,,,,,,,,,,,,,,,,,,,,,,,,,364.4071984150214,364.42153429900645,364.42153429900645,364.9556524750078,b,1.0,0.5200701729918364,,,,,,sub-200,1,stroop_test,60.509280227875145,
,,,,118.0,10.0,9.0,,,,,,,,,,,,,gelb,blue,b,0.0,b,1.0,0.5750536980049219,,,,,,,,,,9.0,10.0,118.0,9.0,364.97111504501663,,,,,,,,,,,,,,,,,364.95597608800745,365.3212528870208,366.122053079016,366.10494649701286,,,,,,,,,,,,,,,,,,,,,,,,,,,,,,,,,,,366.1076386110217,366.122053079016,366.122053079016,366.7053682850092,b,1.0,0.5750536980049219,,,,,,sub-200,1,stroop_test,60.509280227875145,
,,,,119.0,11.0,9.0,,,,,,,,,,,,,rot,red,r,1.0,r,1.0,0.491197426978033,,,,,,,,,,9.0,11.0,119.0,0.0,366.72132656001486,,,,,,,,,,,,,,,,,366.7058068300248,367.9044933190162,368.7050110800192,368.68816947902087,,,,,,,,,,,,,,,,,,,,,,,,,,,,,,,,,,,368.6909497310117,368.7050110800192,368.7050110800192,369.20515697301016,r,1.0,0.491197426978033,,,,,,sub-200,1,stroop_test,60.509280227875145,
,,,,,,,,,,,,,,,,,,,,,,,,,,,,,,,,,,,,,,,,,,,,,,,,,,,,,,,,,,,,,,,,,,,,,,,,,,,,,,,,,,,,,,,,,,,,,,,,,,,,,,369.2053126899991,369.2211084080045,374.2212607499969,374.2047881650215,sub-200,1,stroop_test,60.509280227875145,
