wordCTK,colorCTK,corrAnsCTK,congruentCTK,thisN,thisTrialN,thisRepN,keyResp_CTK.keys,keyResp_CTK.corr,keyResp_CTK.rt,keyResp_CTK.duration,wordPractice,colorPractice,corrAnsPractice,congruentPractice,respPractice.keys,respPractice.corr,respPractice.rt,respPractice.duration,word,color,corrAns,congruent,keyResp_test_run.keys,keyResp_test_run.corr,keyResp_test_run.rt,keyResp_test_run.duration,trials_CTK.thisRepN,trials_CTK.thisTrialN,trials_CTK.thisN,trials_CTK.thisIndex,trials_practice.thisRepN,trials_practice.thisTrialN,trials_practice.thisN,trials_practice.thisIndex,trials_test.thisRepN,trials_test.thisTrialN,trials_test.thisN,trials_test.thisIndex,thisRow.t,notes,instruction.started,instr_text.started,instr_image.started,instr_resp.started,instruction.stopped,instr_resp.keys,instr_resp.rt,instr_resp.duration,instr_color_to_key.started,instr_ctk.started,resp_ctk.started,instr_color_to_key.stopped,resp_ctk.keys,resp_ctk.rt,resp_ctk.duration,ITI.started,fixcross.started,fixcross.stopped,ITI.stopped,color_to_key_run.started,stimulus_CTK.started,keyResp_CTK.started,color_to_key_run.stopped,trials_CTK.keyResp_CTK.keys,trials_CTK.keyResp_CTK.corr,trials_CTK.keyResp_CTK.rt,trials_CTK.keyResp_CTK.duration,instr_practice.started,instr_practice_text.started,instr_practice_resp.started,instr_practice.stopped,instr_practice_resp.keys,instr_practice_resp.rt,instr_practice_resp.duration,practice_run.started,stimulus_practice.started,respPractice.started,practice_run.stopped,trials_practice.respPractice.keys,trials_practice.respPractice.corr,trials_practice.respPractice.rt,trials_practice.respPractice.duration,feedback.started,textFeedback.started,feedback.stopped,textFeedback.stopped,instr_test.started,instr_test_text.started,instr_test_resp.started,instr_test.stopped,instr_test_resp.keys,instr_test_resp.rt,instr_test_resp.duration,test_run.started,stimulus_test_run.started,keyResp_test_run.started,test_run.stopped,trials_test.keyResp_test_run.keys,trials_test.keyResp_test_run.corr,trials_test.keyResp_test_run.rt,trials_test.keyResp_test_run.duration,goodbye.started,textGoodbye.started,textGoodbye.stopped,goodbye.stopped,participant,session,expName,frameRate,Unnamed: 113
,,,,,,,,,,,,,,,,,,,,,,,,,,,,,,,,,,,,,,,,,0.0072775001171976,0.0789628000929951,0.0789628000929951,0.0789628000929951,40.27767480001785,space,40.095786000136286,,,,,,,,,,,,,,,,,,,,,,,,,,,,,,,,,,,,,,,,,,,,,,,,,,,,,,,,,,,sub-013,1,stroop_test,120.08881741500971,
,,,,,,,,,,,,,,,,,,,,,,,,,,,,,,,,,,,,,,,,,,,,,,,,,40.27772479993291,40.28807090013288,40.28807090013288,50.69987200014293,space,10.410519299795853,,,,,,,,,,,,,,,,,,,,,,,,,,,,,,,,,,,,,,,,,,,,,,,,,,,,sub-013,1,stroop_test,120.08881741500971,
test,yellow,g,1.0,0.0,0.0,0.0,g,1.0,2.1671742000617087,,,,,,,,,,,,,,,,,,0.0,0.0,0.0,1.0,,,,,,,,,50.72115919995122,,,,,,,,,,,,,,,,,50.71286249998957,50.79672430013306,51.59608000004664,51.582219100091606,51.58811050001532,51.59608000004664,51.59608000004664,53.7664527001325,g,1.0,2.1671742000617087,,,,,,,,,,,,,,,,,,,,,,,,,,,,,,,,,,,,,,,,sub-013,1,stroop_test,120.08881741500971,
test,red,r,1.0,1.0,1.0,0.0,r,1.0,0.6510739999357611,,,,,,,,,,,,,,,,,,0.0,1.0,1.0,0.0,,,,,,,,,53.7716765999794,,,,,,,,,,,,,,,,,53.76662659994327,53.86329110013321,54.65568309999071,54.64886389998719,54.64909079996869,54.65568309999071,54.65568309999071,55.30802380014211,r,1.0,0.6510739999357611,,,,,,,,,,,,,,,,,,,,,,,,,,,,,,,,,,,,,,,,sub-013,1,stroop_test,120.08881741500971,
test,blue,b,1.0,2.0,2.0,0.0,b,1.0,0.557281699962914,,,,,,,,,,,,,,,,,,0.0,2.0,2.0,2.0,,,,,,,,,55.31330220005475,,,,,,,,,,,,,,,,,55.30824339995161,56.10504809999839,56.89668569993228,56.89115529996343,56.89141850010492,56.89668569993228,56.89668569993228,57.45820600003936,b,1.0,0.557281699962914,,,,,,,,,,,,,,,,,,,,,,,,,,,,,,,,,,,,,,,,sub-013,1,stroop_test,120.08881741500971,
test,yellow,g,1.0,3.0,0.0,1.0,g,1.0,0.8068506999406964,,,,,,,,,,,,,,,,,,1.0,0.0,3.0,1.0,,,,,,,,,57.463183199986815,,,,,,,,,,,,,,,,,57.45839500008151,57.55660969996825,58.35512050008401,58.34951939992607,58.34979699994437,58.35512050008401,58.35512050008401,59.16640430013649,g,1.0,0.8068506999406964,,,,,,,,,,,,,,,,,,,,,,,,,,,,,,,,,,,,,,,,sub-013,1,stroop_test,120.08881741500971,
test,red,r,1.0,4.0,1.0,1.0,r,1.0,0.9617798000108452,,,,,,,,,,,,,,,,,,1.0,1.0,4.0,0.0,,,,,,,,,59.17147019994445,,,,,,,,,,,,,,,,,59.166634999914095,60.36361090000719,61.15511139994487,61.14945730008185,61.14972470002249,61.15511139994487,61.15511139994487,62.124388500116765,r,1.0,0.9617798000108452,,,,,,,,,,,,,,,,,,,,,,,,,,,,,,,,,,,,,,,,sub-013,1,stroop_test,120.08881741500971,
test,blue,b,1.0,5.0,2.0,1.0,b,1.0,0.6369457999244332,,,,,,,,,,,,,,,,,,1.0,2.0,5.0,2.0,,,,,,,,,62.13104690006003,,,,,,,,,,,,,,,,,62.124583299970254,62.92148229992017,63.71391719998792,63.70834759995341,63.70893030008301,63.71391719998792,63.71391719998792,64.3576351001393,b,1.0,0.6369457999244332,,,,,,,,,,,,,,,,,,,,,,,,,,,,,,,,,,,,,,,,sub-013,1,stroop_test,120.08881741500971,
test,blue,b,1.0,6.0,0.0,2.0,b,1.0,0.4875753000378608,,,,,,,,,,,,,,,,,,2.0,0.0,6.0,2.0,,,,,,,,,64.36338820005767,,,,,,,,,,,,,,,,,64.35781550011598,64.4546924000606,65.24655600008555,65.2404287001118,65.24063770007342,65.24655600008555,65.24655600008555,65.74096420011483,b,1.0,0.4875753000378608,,,,,,,,,,,,,,,,,,,,,,,,,,,,,,,,,,,,,,,,sub-013,1,stroop_test,120.08881741500971,
test,yellow,g,1.0,7.0,1.0,2.0,g,1.0,0.6410415000282228,,,,,,,,,,,,,,,,,,2.0,1.0,7.0,1.0,,,,,,,,,65.74660470010713,,,,,,,,,,,,,,,,,65.7411565000657,65.83864390011877,66.63023080001585,66.623977500014,66.62423239997588,66.63023080001585,66.63023080001585,67.2745374001097,g,1.0,0.6410415000282228,,,,,,,,,,,,,,,,,,,,,,,,,,,,,,,,,,,,,,,,sub-013,1,stroop_test,120.08881741500971,
test,red,r,1.0,8.0,2.0,2.0,r,1.0,0.5855463999323547,,,,,,,,,,,,,,,,,,2.0,2.0,8.0,0.0,,,,,,,,,67.27984270011075,,,,,,,,,,,,,,,,,67.27470880001783,67.37153270002455,68.16308029997163,68.15766929998063,68.15792870009318,68.16308029997163,68.16308029997163,68.7500422000885,r,1.0,0.5855463999323547,,,,,,,,,,,,,,,,,,,,,,,,,,,,,,,,,,,,,,,,sub-013,1,stroop_test,120.08881741500971,
test,yellow,g,1.0,9.0,0.0,3.0,g,1.0,0.3830777001567185,,,,,,,,,,,,,,,,,,3.0,0.0,9.0,1.0,,,,,,,,,68.75495709991083,,,,,,,,,,,,,,,,,68.7502379999496,68.84659920004196,69.63829379994422,69.63270059996285,69.63293449999765,69.63829379994422,69.63829379994422,70.02654669992626,g,1.0,0.3830777001567185,,,,,,,,,,,,,,,,,,,,,,,,,,,,,,,,,,,,,,,,sub-013,1,stroop_test,120.08881741500971,
test,red,r,1.0,10.0,1.0,3.0,r,1.0,0.7500740999821573,,,,,,,,,,,,,,,,,,3.0,1.0,10.0,0.0,,,,,,,,,70.0376355999615,,,,,,,,,,,,,,,,,70.02675989991985,70.82153670000844,71.61309050000273,71.60772030008957,71.60797329992056,71.61309050000273,71.61309050000273,72.36591530009173,r,1.0,0.7500740999821573,,,,,,,,,,,,,,,,,,,,,,,,,,,,,,,,,,,,,,,,sub-013,1,stroop_test,120.08881741500971,
test,blue,b,1.0,11.0,2.0,3.0,b,1.0,0.6213325001299381,,,,,,,,,,,,,,,,,,3.0,2.0,11.0,2.0,,,,,,,,,72.37154210009612,,,,,,,,,,,,,,,,,72.36611240007915,73.16334239998832,73.95487620006315,73.94915040000342,73.94935599993914,73.95487620006315,73.95487620006315,74.58276390004903,b,1.0,0.6213325001299381,,,,,,,,,,,,,,,,,,,,,,,,,,,,,,,,,,,,,,,,sub-013,1,stroop_test,120.08881741500971,
,,,,,,,,,,,,,,,,,,,,,,,,,,,,,,,,,,,,,,,,,,,,,,,,,,,,,,,,,,,,,,,,,,,,74.5828605000861,74.58823250001296,74.58823250001296,80.55081399995834,space,5.9567764000967145,,,,,,,,,,,,,,,,,,,,,,,,,,,,,,,,,sub-013,1,stroop_test,120.08881741500971,
,,,,0.0,0.0,0.0,,,,,gelb,red,r,0.0,r,1.0,1.8296495999675244,,,,,,,,,,,,,,0.0,0.0,0.0,8.0,,,,,80.56251999991946,,,,,,,,,,,,,,,,,80.55612750002183,81.35468129999936,82.16266610007733,82.15040139993653,,,,,,,,,,,,,,,,82.15776570001617,82.16266610007733,82.16266610007733,83.99853099999018,r,1.0,1.8296495999675244,,84.00426500011235,84.01257940009236,84.9986368000973,,,,,,,,,,,,,,,,,,,,,sub-013,1,stroop_test,120.08881741500971,
,,,,1.0,1.0,0.0,,,,,rot,red,r,1.0,r,1.0,0.6883264998905361,,,,,,,,,,,,,,0.0,1.0,1.0,1.0,,,,,85.0053942000959,,,,,,,,,,,,,,,,,84.99883139994927,86.19642250007018,86.99590420001186,86.98309390014037,,,,,,,,,,,,,,,,86.98685420001857,86.99590420001186,86.99590420001186,87.6913235001266,r,1.0,0.6883264998905361,,87.69163780007511,87.6964543000795,88.68227509991266,88.68816000013612,,,,,,,,,,,,,,,,,,,,sub-013,1,stroop_test,120.08881741500971,
,,,,2.0,2.0,0.0,,,,,gelb,yellow,g,1.0,g,1.0,0.9379466997925192,,,,,,,,,,,,,,0.0,2.0,2.0,10.0,,,,,88.68816000013612,,,,,,,,,,,,,,,,,88.68245630012825,89.48887749994174,90.28781779995188,90.27437469991855,,,,,,,,,,,,,,,,90.27600380009972,90.28781779995188,90.28781779995188,91.23255680012517,g,1.0,0.9379466997925192,,91.23281299998052,91.23786540003492,92.22386360005476,92.23017979995348,,,,,,,,,,,,,,,,,,,,sub-013,1,stroop_test,120.08881741500971,
,,,,3.0,3.0,0.0,,,,,blau,yellow,g,0.0,g,1.0,1.259221199899912,,,,,,,,,,,,,,0.0,3.0,3.0,7.0,,,,,92.23017979995348,,,,,,,,,,,,,,,,,92.2240643000696,93.4378198001068,94.23764290008694,94.22446070006116,,,,,,,,,,,,,,,,94.22899860003965,94.23764290008694,94.23764290008694,95.49933060002512,g,1.0,1.259221199899912,,95.49959990009664,95.50488719996063,96.49075870006344,96.4964511001017,,,,,,,,,,,,,,,,,,,,sub-013,1,stroop_test,120.08881741500971,
,,,,4.0,4.0,0.0,,,,,gelb,yellow,g,1.0,g,1.0,0.7030036000069231,,,,,,,,,,,,,,0.0,4.0,4.0,11.0,,,,,96.4964511001017,,,,,,,,,,,,,,,,,96.49094170005992,97.29644850012846,98.0962115000002,98.08452749997376,,,,,,,,,,,,,,,,98.08710250002332,98.0962115000002,98.0962115000002,98.8014996999409,g,1.0,0.7030036000069231,,98.80174849997276,98.812399599934,99.80174380005336,99.8125994000584,,,,,,,,,,,,,,,,,,,,sub-013,1,stroop_test,120.08881741500971,
,,,,5.0,5.0,0.0,,,,,rot,red,r,1.0,r,1.0,0.6811178000643849,,,,,,,,,,,,,,0.0,5.0,5.0,0.0,,,,,99.8125994000584,,,,,,,,,,,,,,,,,99.80202950001694,99.8963600001298,100.68793509993702,100.68208290007895,,,,,,,,,,,,,,,,100.6836004999932,100.68793509993702,100.68793509993702,101.37422679993324,r,1.0,0.6811178000643849,,101.37449900014326,101.37974789994767,102.36548090004362,102.37179720005952,,,,,,,,,,,,,,,,,,,,sub-013,1,stroop_test,120.08881741500971,
,,,,6.0,6.0,0.0,,,,,gelb,blue,b,0.0,b,1.0,0.6862478998955339,,,,,,,,,,,,,,0.0,6.0,6.0,9.0,,,,,102.37179720005952,,,,,,,,,,,,,,,,,102.36566030001268,102.47138409991749,103.26290600001812,103.25727619999088,,,,,,,,,,,,,,,,103.25877439999022,103.26290600001812,103.26290600001812,103.95053680008276,b,1.0,0.6862478998955339,,103.95085319993086,103.9628785001114,104.9486189999152,104.95475040003656,,,,,,,,,,,,,,,,,,,,sub-013,1,stroop_test,120.08881741500971,
,,,,7.0,7.0,0.0,,,,,blau,red,r,0.0,r,1.0,0.5893011000007391,,,,,,,,,,,,,,0.0,7.0,7.0,4.0,,,,,104.95475040003656,,,,,,,,,,,,,,,,,104.94880599994212,105.04642960010096,105.83789730002172,105.83205049997196,,,,,,,,,,,,,,,,105.83364349999464,105.83789730002172,105.83789730002172,106.4325546999462,r,1.0,0.5893011000007391,,106.43281699996442,106.43796740006655,107.42767250002362,107.43853759998456,,,,,,,,,,,,,,,,,,,,sub-013,1,stroop_test,120.08881741500971,
,,,,8.0,8.0,0.0,,,,,blau,blue,b,1.0,b,1.0,0.606372999958694,,,,,,,,,,,,,,0.0,8.0,8.0,5.0,,,,,107.43853759998456,,,,,,,,,,,,,,,,,107.42815509997308,108.22952120006084,109.02193240006454,109.01569449994712,,,,,,,,,,,,,,,,109.01598179992288,109.02193240006454,109.02193240006454,109.6327450000681,b,1.0,0.606372999958694,,109.63299029995687,109.63797500007786,110.62384360004216,110.6298523999285,,,,,,,,,,,,,,,,,,,,sub-013,1,stroop_test,120.08881741500971,
,,,,9.0,9.0,0.0,,,,,blau,blue,b,1.0,b,1.0,0.7657832000404596,,,,,,,,,,,,,,0.0,9.0,9.0,6.0,,,,,110.6298523999285,,,,,,,,,,,,,,,,,110.62403629999608,111.82977810013108,112.62914260011166,112.61700320011003,,,,,,,,,,,,,,,,112.61727480008268,112.62914260011166,112.62914260011166,113.3992934001144,b,1.0,0.7657832000404596,,113.39954979997128,113.40507759992032,114.39125330001116,114.396405500127,,,,,,,,,,,,,,,,,,,,sub-013,1,stroop_test,120.08881741500971,
,,,,10.0,10.0,0.0,,,,,rot,yellow,g,0.0,g,1.0,1.3137978999875486,,,,,,,,,,,,,,0.0,10.0,10.0,3.0,,,,,114.396405500127,,,,,,,,,,,,,,,,,114.39145080000162,114.74643200007267,115.53847529995257,115.53190860012546,,,,,,,,,,,,,,,,115.53341899998486,115.53847529995257,115.53847529995257,116.85713859996758,g,1.0,1.3137978999875486,,116.8574191001244,116.8625078999903,117.84926160005853,117.85475390008652,,,,,,,,,,,,,,,,,,,,sub-013,1,stroop_test,120.08881741500971,
,,,,11.0,11.0,0.0,,,,,rot,blue,b,0.0,b,1.0,0.6908436000812799,,,,,,,,,,,,,,0.0,11.0,11.0,2.0,,,,,117.85475390008652,,,,,,,,,,,,,,,,,117.84948890004308,119.05582390003838,119.8546714000404,119.84879499999806,,,,,,,,,,,,,,,,119.84900910011493,119.8546714000404,119.8546714000404,120.54972760006784,b,1.0,0.6908436000812799,,120.55013510002756,120.55447029997596,121.54129580012524,121.5465065999888,,,,,,,,,,,,,,,,,,,,sub-013,1,stroop_test,120.08881741500971,
,,,,12.0,0.0,1.0,,,,,gelb,red,r,0.0,r,1.0,0.9883002999704332,,,,,,,,,,,,,,1.0,0.0,12.0,8.0,,,,,121.5465065999888,,,,,,,,,,,,,,,,,121.54149500001222,122.74643640010618,123.54576739994808,123.5331369000487,,,,,,,,,,,,,,,,123.53500659996644,123.54576739994808,123.54576739994808,124.5408379000146,r,1.0,0.9883002999704332,,124.54107680008748,124.54647820000535,125.53228319995104,125.53814730001612,,,,,,,,,,,,,,,,,,,,sub-013,1,stroop_test,120.08881741500971,
,,,,13.0,1.0,1.0,,,,,blau,blue,b,1.0,b,1.0,0.8397695999592543,,,,,,,,,,,,,,1.0,1.0,13.0,6.0,,,,,125.53814730001612,,,,,,,,,,,,,,,,,125.5324911000207,125.88808130007236,126.68064939999022,126.67339610005727,,,,,,,,,,,,,,,,126.67491120006888,126.68064939999022,126.68064939999022,127.52467139996588,b,1.0,0.8397695999592543,,127.52496080007404,127.52985309995712,128.51845140010118,128.5298591000028,,,,,,,,,,,,,,,,,,,,sub-013,1,stroop_test,120.08881741500971,
,,,,14.0,2.0,1.0,,,,,rot,red,r,1.0,r,1.0,0.9845310000237076,,,,,,,,,,,,,,1.0,2.0,14.0,1.0,,,,,128.5298591000028,,,,,,,,,,,,,,,,,128.5188943000976,129.32163060014136,130.1129117999226,130.1070069000125,,,,,,,,,,,,,,,,130.10865020006895,130.1129117999226,130.1129117999226,131.10148319997825,r,1.0,0.9845310000237076,,131.10189460008405,131.1125086999964,132.09869990008883,132.10460880002938,,,,,,,,,,,,,,,,,,,,sub-013,1,stroop_test,120.08881741500971,
,,,,15.0,3.0,1.0,,,,,gelb,yellow,g,1.0,g,1.0,0.6881438998971134,,,,,,,,,,,,,,1.0,3.0,15.0,10.0,,,,,132.10460880002938,,,,,,,,,,,,,,,,,132.09887140011415,132.44654519995674,133.2379268000368,133.2314810999669,,,,,,,,,,,,,,,,133.23308699997142,133.2379268000368,133.2379268000368,133.9319424999412,g,1.0,0.6881438998971134,,133.93219009996392,133.93810290005058,134.92339020012878,134.92963850009255,,,,,,,,,,,,,,,,,,,,sub-013,1,stroop_test,120.08881741500971,
,,,,16.0,4.0,1.0,,,,,blau,blue,b,1.0,b,1.0,0.4693195999134332,,,,,,,,,,,,,,1.0,4.0,16.0,5.0,,,,,134.92963850009255,,,,,,,,,,,,,,,,,134.92356789996848,136.1294311999809,136.92142729996704,136.91512909997255,,,,,,,,,,,,,,,,136.91662969999015,136.92142729996704,136.92142729996704,137.399820700055,b,1.0,0.4693195999134332,,137.40009730006568,137.40457600005902,138.3903376001399,138.3962717000395,,,,,,,,,,,,,,,,,,,,sub-013,1,stroop_test,120.08881741500971,
,,,,17.0,5.0,1.0,,,,,gelb,blue,b,0.0,b,1.0,0.494009600020945,,,,,,,,,,,,,,1.0,5.0,17.0,9.0,,,,,138.3962717000395,,,,,,,,,,,,,,,,,138.39051689999178,139.19625320006162,139.98759820009582,139.9820421000477,,,,,,,,,,,,,,,,139.98389720008709,139.98759820009582,139.98759820009582,140.4827757999301,b,1.0,0.494009600020945,,140.48306669993326,140.48794770007953,141.4735306999646,141.4794745000545,,,,,,,,,,,,,,,,,,,,sub-013,1,stroop_test,120.08881741500971,
,,,,18.0,6.0,1.0,,,,,rot,blue,b,0.0,b,1.0,0.6126318001188338,,,,,,,,,,,,,,1.0,6.0,18.0,2.0,,,,,141.4794745000545,,,,,,,,,,,,,,,,,141.47371300007217,141.579618900083,142.379170200089,142.36577040003613,,,,,,,,,,,,,,,,142.3674165001139,142.379170200089,142.379170200089,142.99883710010909,b,1.0,0.6126318001188338,,142.99909260007553,143.00465689995326,143.99084570002742,143.99631600012071,,,,,,,,,,,,,,,,,,,,sub-013,1,stroop_test,120.08881741500971,
,,,,19.0,7.0,1.0,,,,,gelb,yellow,g,1.0,g,1.0,0.5530452998355031,,,,,,,,,,,,,,1.0,7.0,19.0,11.0,,,,,143.99631600012071,,,,,,,,,,,,,,,,,143.99105049995703,145.1961870000232,145.99552140012383,145.98230169992894,,,,,,,,,,,,,,,,145.98397119995207,145.99552140012383,145.99552140012383,146.55792589997873,g,1.0,0.5530452998355031,,146.55825000000186,146.57183300005272,147.5583017000463,,,,,,,,,,,,,,,,,,,,,sub-013,1,stroop_test,120.08881741500971,
,,,,20.0,8.0,1.0,,,,,blau,red,r,0.0,r,1.0,0.604207499884069,,,,,,,,,,,,,,1.0,8.0,20.0,4.0,,,,,147.56279270001687,,,,,,,,,,,,,,,,,147.5584794001188,147.9042867999524,148.7041188001167,148.69234940013848,,,,,,,,,,,,,,,,148.69488140009344,148.7041188001167,148.7041188001167,149.31603719992563,r,1.0,0.604207499884069,,149.31630520010367,149.320872399956,150.30694740009494,150.31292870012112,,,,,,,,,,,,,,,,,,,,sub-013,1,stroop_test,120.08881741500971,
,,,,21.0,9.0,1.0,,,,,rot,yellow,g,0.0,g,1.0,0.608312200056389,,,,,,,,,,,,,,1.0,9.0,21.0,3.0,,,,,150.31292870012112,,,,,,,,,,,,,,,,,150.30712280003354,151.51317179994658,152.3215155999642,152.31032659998164,,,,,,,,,,,,,,,,152.31322299991734,152.3215155999642,152.3215155999642,152.93239139998332,g,1.0,0.608312200056389,,152.93265229999088,152.93788659991696,153.92348719993606,153.92970760003664,,,,,,,,,,,,,,,,,,,,sub-013,1,stroop_test,120.08881741500971,
,,,,22.0,10.0,1.0,,,,,blau,yellow,g,0.0,g,1.0,0.6986322000157088,,,,,,,,,,,,,,1.0,10.0,22.0,7.0,,,,,153.92970760003664,,,,,,,,,,,,,,,,,153.92369400011376,154.03008559998125,154.8290814999491,154.81590920011513,,,,,,,,,,,,,,,,154.8178868999239,154.8290814999491,154.8290814999491,155.5328410000075,g,1.0,0.6986322000157088,,155.5331848000642,155.53754210006446,156.52367720007896,156.52958470000883,,,,,,,,,,,,,,,,,,,,sub-013,1,stroop_test,120.08881741500971,
,,,,23.0,11.0,1.0,,,,,rot,red,r,1.0,r,1.0,0.640279799932614,,,,,,,,,,,,,,1.0,11.0,23.0,0.0,,,,,156.52958470000883,,,,,,,,,,,,,,,,,156.5238657000009,156.87956440006383,157.6712003001012,157.66509989998303,,,,,,,,,,,,,,,,157.6666141001042,157.6712003001012,157.6712003001012,158.3160022001248,r,1.0,0.640279799932614,,158.31627109996043,158.32104950002395,159.30687880003825,159.3127339000348,,,,,,,,,,,,,,,,,,,,sub-013,1,stroop_test,120.08881741500971,
,,,,,,,,,,,,,,,,,,,,,,,,,,,,,,,,,,,,,,,,,,,,,,,,,,,,,,,,,,,,,,,,,,,,,,,,,,,,,,,,,,,,,,,159.30694829998538,159.3127339000348,159.3127339000348,164.274802000029,space,4.958574800053611,,,,,,,,,,,,,,sub-013,1,stroop_test,120.08881741500971,
,,,,0.0,0.0,0.0,,,,,,,,,,,,,rot,red,r,1.0,r,1.0,0.7076453000772744,,,,,,,,,,0.0,0.0,0.0,0.0,164.2871580000501,,,,,,,,,,,,,,,,,164.28076460002922,165.07126060011797,165.8630540999584,165.85697490000166,,,,,,,,,,,,,,,,,,,,,,,,,,,,,,,,,,,165.85848619998433,165.8630540999584,165.8630540999584,166.57373900013044,r,1.0,0.7076453000772744,,,,,,sub-013,1,stroop_test,120.08881741500971,
,,,,1.0,1.0,0.0,,,,,,,,,,,,,rot,blue,b,0.0,b,1.0,0.3691748999990523,,,,,,,,,,0.0,1.0,1.0,2.0,166.5797069000546,,,,,,,,,,,,,,,,,166.57394649996422,167.3711679999251,168.1627360000275,168.15740359993652,,,,,,,,,,,,,,,,,,,,,,,,,,,,,,,,,,,168.15769520006145,168.1627360000275,168.1627360000275,168.53324540005997,b,1.0,0.3691748999990523,,,,,,sub-013,1,stroop_test,120.08881741500971,
,,,,2.0,2.0,0.0,,,,,,,,,,,,,gelb,red,r,0.0,r,1.0,0.6920293997973204,,,,,,,,,,0.0,2.0,2.0,8.0,168.53759510000236,,,,,,,,,,,,,,,,,168.5334731999319,168.63851929991506,169.42990320012905,169.423412400065,,,,,,,,,,,,,,,,,,,,,,,,,,,,,,,,,,,169.42515160003677,169.42990320012905,169.42990320012905,170.12388420011848,r,1.0,0.6920293997973204,,,,,,sub-013,1,stroop_test,120.08881741500971,
,,,,3.0,3.0,0.0,,,,,,,,,,,,,blau,yellow,g,0.0,g,1.0,0.5465150999370962,,,,,,,,,,0.0,3.0,3.0,7.0,170.12927770009264,,,,,,,,,,,,,,,,,170.12409449997358,170.4712423000019,171.26247770013288,171.25704910000786,,,,,,,,,,,,,,,,,,,,,,,,,,,,,,,,,,,171.25869569997303,171.26247770013288,171.26247770013288,171.81555850012228,g,1.0,0.5465150999370962,,,,,,sub-013,1,stroop_test,120.08881741500971,
,,,,4.0,4.0,0.0,,,,,,,,,,,,,gelb,blue,b,0.0,b,1.0,0.6064019000623375,,,,,,,,,,0.0,4.0,4.0,9.0,171.82126370002516,,,,,,,,,,,,,,,,,171.81577820004895,171.91266319993883,172.71303520002402,172.6994203000795,,,,,,,,,,,,,,,,,,,,,,,,,,,,,,,,,,,172.70176460011862,172.71303520002402,172.71303520002402,173.32386270002462,b,1.0,0.6064019000623375,,,,,,sub-013,1,stroop_test,120.08881741500971,
,,,,5.0,5.0,0.0,,,,,,,,,,,,,rot,yellow,g,0.0,g,1.0,0.6338633000850677,,,,,,,,,,0.0,5.0,5.0,3.0,173.32943499996327,,,,,,,,,,,,,,,,,173.32406409992836,173.67115400009789,174.46263960003853,174.45666250004433,,,,,,,,,,,,,,,,,,,,,,,,,,,,,,,,,,,174.45816390006803,174.46263960003853,174.46263960003853,175.0993663999252,g,1.0,0.6338633000850677,,,,,,sub-013,1,stroop_test,120.08881741500971,
,,,,6.0,6.0,0.0,,,,,,,,,,,,,rot,red,r,1.0,r,1.0,0.4731495000887662,,,,,,,,,,0.0,6.0,6.0,1.0,175.1042653999757,,,,,,,,,,,,,,,,,175.09958939999342,175.89667859999463,176.68789139995351,176.68290299992077,,,,,,,,,,,,,,,,,,,,,,,,,,,,,,,,,,,176.68318219995126,176.68789139995351,176.68789139995351,177.16550300014205,r,1.0,0.4731495000887662,,,,,,sub-013,1,stroop_test,120.08881741500971,
,,,,7.0,7.0,0.0,,,,,,,,,,,,,gelb,yellow,g,1.0,g,1.0,0.320469900034368,,,,,,,,,,0.0,7.0,7.0,10.0,177.1710453000851,,,,,,,,,,,,,,,,,177.16570500005037,177.9628182000015,178.75436499994248,178.74859219999053,,,,,,,,,,,,,,,,,,,,,,,,,,,,,,,,,,,178.75014499993995,178.75436499994248,178.75436499994248,179.07719129999168,g,1.0,0.320469900034368,,,,,,sub-013,1,stroop_test,120.08881741500971,
,,,,8.0,8.0,0.0,,,,,,,,,,,,,blau,red,r,0.0,r,1.0,0.4604438000824302,,,,,,,,,,0.0,8.0,8.0,4.0,179.08702869992703,,,,,,,,,,,,,,,,,179.07739480002783,179.17098699999042,179.96253259992227,179.95672819996253,,,,,,,,,,,,,,,,,,,,,,,,,,,,,,,,,,,179.95837450004183,179.96253259992227,179.96253259992227,180.42491080006585,r,1.0,0.4604438000824302,,,,,,sub-013,1,stroop_test,120.08881741500971,
,,,,9.0,9.0,0.0,,,,,,,,,,,,,blau,blue,b,1.0,b,1.0,0.4493076999206096,,,,,,,,,,0.0,9.0,9.0,5.0,180.43766850000247,,,,,,,,,,,,,,,,,180.42518449993804,180.77098780008964,181.56282639992423,181.55684749991636,,,,,,,,,,,,,,,,,,,,,,,,,,,,,,,,,,,181.55706809996627,181.56282639992423,181.56282639992423,182.01626390009187,b,1.0,0.4493076999206096,,,,,,sub-013,1,stroop_test,120.08881741500971,
,,,,10.0,10.0,0.0,,,,,,,,,,,,,gelb,yellow,g,1.0,g,1.0,0.4214514999184757,,,,,,,,,,0.0,10.0,10.0,11.0,182.02091170009223,,,,,,,,,,,,,,,,,182.01646109996364,182.11302140005864,182.91213620011692,182.89914630004205,,,,,,,,,,,,,,,,,,,,,,,,,,,,,,,,,,,182.90100630000236,182.91213620011692,182.91213620011692,183.3401846999768,g,1.0,0.4214514999184757,,,,,,sub-013,1,stroop_test,120.08881741500971,
,,,,11.0,11.0,0.0,,,,,,,,,,,,,blau,blue,b,1.0,b,1.0,0.5062345000915229,,,,,,,,,,0.0,11.0,11.0,6.0,183.3459658001084,,,,,,,,,,,,,,,,,183.34038299997337,183.4375801999122,184.2294479000848,184.2234050000552,,,,,,,,,,,,,,,,,,,,,,,,,,,,,,,,,,,184.22504030005075,184.2294479000848,184.2294479000848,184.74059429997575,b,1.0,0.5062345000915229,,,,,,sub-013,1,stroop_test,120.08881741500971,
,,,,12.0,0.0,1.0,,,,,,,,,,,,,blau,blue,b,1.0,b,1.0,0.4077781999949366,,,,,,,,,,1.0,0.0,12.0,5.0,184.74595230002888,,,,,,,,,,,,,,,,,184.7408159000333,184.8377137000207,185.62949450011365,185.62359550013207,,,,,,,,,,,,,,,,,,,,,,,,,,,,,,,,,,,185.6240368001163,185.62949450011365,185.62949450011365,186.04071490000933,b,1.0,0.4077781999949366,,,,,,sub-013,1,stroop_test,120.08881741500971,
,,,,13.0,1.0,1.0,,,,,,,,,,,,,rot,yellow,g,0.0,g,1.0,0.5960428998805583,,,,,,,,,,1.0,1.0,13.0,3.0,186.04611920006573,,,,,,,,,,,,,,,,,186.04090210003775,186.3877592000645,187.18730400013737,187.17377749993463,,,,,,,,,,,,,,,,,,,,,,,,,,,,,,,,,,,187.1757297001313,187.18730400013737,187.18730400013737,187.79096999997276,g,1.0,0.5960428998805583,,,,,,sub-013,1,stroop_test,120.08881741500971,
,,,,14.0,2.0,1.0,,,,,,,,,,,,,rot,red,r,1.0,r,1.0,0.4736160999163985,,,,,,,,,,1.0,2.0,14.0,0.0,187.79614780005068,,,,,,,,,,,,,,,,,187.79120260011405,188.5877370000817,189.3793498000596,189.37366689997725,,,,,,,,,,,,,,,,,,,,,,,,,,,,,,,,,,,189.3739416000899,189.3793498000596,189.3793498000596,189.8573871999979,r,1.0,0.4736160999163985,,,,,,sub-013,1,stroop_test,120.08881741500971,
,,,,15.0,3.0,1.0,,,,,,,,,,,,,gelb,blue,b,0.0,b,1.0,0.328395000193268,,,,,,,,,,1.0,3.0,15.0,9.0,189.8626862000674,,,,,,,,,,,,,,,,,189.85759050003253,190.65441660000943,191.4539990001358,191.4408273000736,,,,,,,,,,,,,,,,,,,,,,,,,,,,,,,,,,,191.4428038999904,191.4539990001358,191.4539990001358,191.79081090004183,b,1.0,0.328395000193268,,,,,,sub-013,1,stroop_test,120.08881741500971,
,,,,16.0,4.0,1.0,,,,,,,,,,,,,gelb,yellow,g,1.0,g,1.0,0.4142767998855561,,,,,,,,,,1.0,4.0,16.0,10.0,191.79601659998295,,,,,,,,,,,,,,,,,191.7910281000659,191.88770590000783,192.6793375001289,192.67390180006623,,,,,,,,,,,,,,,,,,,,,,,,,,,,,,,,,,,192.6741609000601,192.6793375001289,192.6793375001289,193.1009953999892,g,1.0,0.4142767998855561,,,,,,sub-013,1,stroop_test,120.08881741500971,
,,,,17.0,5.0,1.0,,,,,,,,,,,,,blau,red,r,0.0,r,1.0,0.9250243999995292,,,,,,,,,,1.0,5.0,17.0,4.0,193.1123431001324,,,,,,,,,,,,,,,,,193.10119300009683,194.29597710003145,195.0958372000605,195.0818342000712,,,,,,,,,,,,,,,,,,,,,,,,,,,,,,,,,,,195.08361550001428,195.0958372000605,195.0958372000605,196.0240068999119,r,1.0,0.9250243999995292,,,,,,sub-013,1,stroop_test,120.08881741500971,
,,,,18.0,6.0,1.0,,,,,,,,,,,,,rot,blue,b,0.0,b,1.0,0.5628284001722932,,,,,,,,,,1.0,6.0,18.0,2.0,196.0291792000644,,,,,,,,,,,,,,,,,196.02421410009265,197.22099960013293,198.01273069996387,198.0067402999848,,,,,,,,,,,,,,,,,,,,,,,,,,,,,,,,,,,198.00829200004227,198.01273069996387,198.01273069996387,198.5820192999672,b,1.0,0.5628284001722932,,,,,,sub-013,1,stroop_test,120.08881741500971,
,,,,19.0,7.0,1.0,,,,,,,,,,,,,blau,blue,b,1.0,b,1.0,0.5528148000594229,,,,,,,,,,1.0,7.0,19.0,6.0,198.5882548999507,,,,,,,,,,,,,,,,,198.5822179999668,198.93779009999707,199.73843819997276,199.72778429999016,,,,,,,,,,,,,,,,,,,,,,,,,,,,,,,,,,,199.72986480011605,199.73843819997276,199.73843819997276,200.2987077001017,b,1.0,0.5528148000594229,,,,,,sub-013,1,stroop_test,120.08881741500971,
,,,,20.0,8.0,1.0,,,,,,,,,,,,,blau,yellow,g,0.0,g,1.0,0.3071527001447975,,,,,,,,,,1.0,8.0,20.0,7.0,200.30426579993215,,,,,,,,,,,,,,,,,200.29891579994,201.0960049999412,201.88763949996792,201.88169499998912,,,,,,,,,,,,,,,,,,,,,,,,,,,,,,,,,,,201.88192440010607,201.88763949996792,201.88763949996792,202.1987664999906,g,1.0,0.3071527001447975,,,,,,sub-013,1,stroop_test,120.08881741500971,
,,,,21.0,9.0,1.0,,,,,,,,,,,,,gelb,yellow,g,1.0,b,0.0,0.3502315999940038,,,,,,,,,,1.0,9.0,21.0,11.0,202.20423980010676,,,,,,,,,,,,,,,,,202.19895970006476,202.54617220000364,203.3372901000548,203.3318113000132,,,,,,,,,,,,,,,,,,,,,,,,,,,,,,,,,,,203.33358660014343,203.3372901000548,203.3372901000548,203.69104350009,b,0.0,0.3502315999940038,,,,,,sub-013,1,stroop_test,120.08881741500971,
,,,,22.0,10.0,1.0,,,,,,,,,,,,,gelb,red,r,0.0,r,1.0,0.8281463999301195,,,,,,,,,,1.0,10.0,22.0,8.0,203.7040242999792,,,,,,,,,,,,,,,,,203.691288900096,204.88771679997444,205.67944140010516,205.67339259991425,,,,,,,,,,,,,,,,,,,,,,,,,,,,,,,,,,,205.67363810003732,205.67944140010516,205.67944140010516,206.5159452999942,r,1.0,0.8281463999301195,,,,,,sub-013,1,stroop_test,120.08881741500971,
,,,,23.0,11.0,1.0,,,,,,,,,,,,,rot,red,r,1.0,r,1.0,0.650326699949801,,,,,,,,,,1.0,11.0,23.0,1.0,206.52102950005792,,,,,,,,,,,,,,,,,206.51617310009897,206.8625801000744,207.6617517000996,207.64886020007543,,,,,,,,,,,,,,,,,,,,,,,,,,,,,,,,,,,207.6506594000384,207.6617517000996,207.6617517000996,208.31596520007588,r,1.0,0.650326699949801,,,,,,sub-013,1,stroop_test,120.08881741500971,
,,,,24.0,0.0,2.0,,,,,,,,,,,,,blau,blue,b,1.0,b,1.0,0.9554238000418992,,,,,,,,,,2.0,0.0,24.0,5.0,208.32073640008457,,,,,,,,,,,,,,,,,208.31622759997845,208.6624272000045,209.4621117999777,209.4485327999573,,,,,,,,,,,,,,,,,,,,,,,,,,,,,,,,,,,209.4503134000115,209.4621117999777,209.4621117999777,210.42723609996028,b,1.0,0.9554238000418992,,,,,,sub-013,1,stroop_test,120.08881741500971,
,,,,25.0,1.0,2.0,,,,,,,,,,,,,blau,yellow,g,0.0,g,1.0,0.6008671999443322,,,,,,,,,,2.0,1.0,25.0,7.0,210.43699220009148,,,,,,,,,,,,,,,,,210.42746410006657,210.52094560000117,211.31264010001905,211.30782669992183,,,,,,,,,,,,,,,,,,,,,,,,,,,,,,,,,,,211.30807180004197,211.31264010001905,211.31264010001905,211.9157164001372,g,1.0,0.6008671999443322,,,,,,sub-013,1,stroop_test,120.08881741500971,
,,,,26.0,2.0,2.0,,,,,,,,,,,,,rot,yellow,g,0.0,g,1.0,0.5320164000149816,,,,,,,,,,2.0,2.0,26.0,3.0,211.92069440009072,,,,,,,,,,,,,,,,,211.91591490013525,212.2628184000496,213.0543112999294,213.04831490013748,,,,,,,,,,,,,,,,,,,,,,,,,,,,,,,,,,,213.04984500003047,213.0543112999294,213.0543112999294,213.5903986999765,g,1.0,0.5320164000149816,,,,,,sub-013,1,stroop_test,120.08881741500971,
,,,,27.0,3.0,2.0,,,,,,,,,,,,,gelb,yellow,g,1.0,g,1.0,0.413290600059554,,,,,,,,,,2.0,3.0,27.0,10.0,213.59635409992188,,,,,,,,,,,,,,,,,213.59059019992128,213.93761110003103,214.73694490012716,214.72330710012463,,,,,,,,,,,,,,,,,,,,,,,,,,,,,,,,,,,214.7250769000966,214.73694490012716,214.73694490012716,215.15705349994823,g,1.0,0.413290600059554,,,,,,sub-013,1,stroop_test,120.08881741500971,
,,,,28.0,4.0,2.0,,,,,,,,,,,,,rot,red,r,1.0,r,1.0,0.4652434000745415,,,,,,,,,,2.0,4.0,28.0,1.0,215.16265249997377,,,,,,,,,,,,,,,,,215.157266400056,215.95428770012225,216.74573939992115,216.73988880007528,,,,,,,,,,,,,,,,,,,,,,,,,,,,,,,,,,,216.74143970012665,216.74573939992115,216.74573939992115,217.21542340004817,r,1.0,0.4652434000745415,,,,,,sub-013,1,stroop_test,120.08881741500971,
,,,,29.0,5.0,2.0,,,,,,,,,,,,,gelb,yellow,g,1.0,g,1.0,0.7132570999674499,,,,,,,,,,2.0,5.0,29.0,11.0,217.2209509999957,,,,,,,,,,,,,,,,,217.2156229999382,218.0130209999625,218.8127856000792,218.80621260008772,,,,,,,,,,,,,,,,,,,,,,,,,,,,,,,,,,,218.8079154000152,218.8127856000792,218.8127856000792,219.5322984000668,g,1.0,0.7132570999674499,,,,,,sub-013,1,stroop_test,120.08881741500971,
,,,,30.0,6.0,2.0,,,,,,,,,,,,,gelb,blue,b,0.0,b,1.0,0.5210386000107974,,,,,,,,,,2.0,6.0,30.0,9.0,219.53758720005865,,,,,,,,,,,,,,,,,219.5325166000985,219.62950820010155,220.4209318999201,220.4154046999756,,,,,,,,,,,,,,,,,,,,,,,,,,,,,,,,,,,220.4156698000152,220.4209318999201,220.4209318999201,220.94861540012064,b,1.0,0.5210386000107974,,,,,,sub-013,1,stroop_test,120.08881741500971,
,,,,31.0,7.0,2.0,,,,,,,,,,,,,blau,red,r,0.0,r,1.0,0.677160199964419,,,,,,,,,,2.0,7.0,31.0,4.0,220.95429249992597,,,,,,,,,,,,,,,,,220.94881400000304,221.29604330006987,222.09578699991107,222.08258679998107,,,,,,,,,,,,,,,,,,,,,,,,,,,,,,,,,,,222.08482130011544,222.09578699991107,222.09578699991107,222.7740945999976,r,1.0,0.677160199964419,,,,,,sub-013,1,stroop_test,120.08881741500971,
,,,,32.0,8.0,2.0,,,,,,,,,,,,,rot,blue,b,0.0,b,1.0,1.3941015999298545,,,,,,,,,,2.0,8.0,32.0,2.0,222.77927500009537,,,,,,,,,,,,,,,,,222.77432109997608,223.12078090012076,223.9122641000431,223.9067250001244,,,,,,,,,,,,,,,,,,,,,,,,,,,,,,,,,,,223.90838250005615,223.9122641000431,223.9122641000431,225.3076424000319,b,1.0,1.3941015999298545,,,,,,sub-013,1,stroop_test,120.08881741500971,
,,,,33.0,9.0,2.0,,,,,,,,,,,,,gelb,red,r,0.0,r,1.0,0.6209523000288755,,,,,,,,,,2.0,9.0,33.0,8.0,225.3127461001277,,,,,,,,,,,,,,,,,225.3078632999677,225.4043330999557,226.20403939997777,226.1909358999692,,,,,,,,,,,,,,,,,,,,,,,,,,,,,,,,,,,226.19271420012228,226.20403939997777,226.20403939997777,226.83258639997803,r,1.0,0.6209523000288755,,,,,,sub-013,1,stroop_test,120.08881741500971,
,,,,34.0,10.0,2.0,,,,,,,,,,,,,rot,red,r,1.0,r,1.0,0.5244408999569714,,,,,,,,,,2.0,10.0,34.0,0.0,226.8372984000016,,,,,,,,,,,,,,,,,226.83281369996257,227.62920859991573,228.42868450004607,228.4158356001135,,,,,,,,,,,,,,,,,,,,,,,,,,,,,,,,,,,228.41780350008048,228.42868450004607,228.42868450004607,228.95701920008287,r,1.0,0.5244408999569714,,,,,,sub-013,1,stroop_test,120.08881741500971,
,,,,35.0,11.0,2.0,,,,,,,,,,,,,blau,blue,b,1.0,b,1.0,0.9213335998356342,,,,,,,,,,2.0,11.0,35.0,6.0,228.96257460000925,,,,,,,,,,,,,,,,,228.957214999944,229.7542421000544,230.55379529995844,230.54027549992315,,,,,,,,,,,,,,,,,,,,,,,,,,,,,,,,,,,230.5419632999692,230.55379529995844,230.55379529995844,231.4821818000637,b,1.0,0.9213335998356342,,,,,,sub-013,1,stroop_test,120.08881741500971,
,,,,36.0,0.0,3.0,,,,,,,,,,,,,blau,yellow,g,0.0,g,1.0,0.5288701001554728,,,,,,,,,,3.0,0.0,36.0,7.0,231.487944399938,,,,,,,,,,,,,,,,,231.48239020002077,232.67928820010275,233.4710502999369,233.46491430001333,,,,,,,,,,,,,,,,,,,,,,,,,,,,,,,,,,,233.46515080006796,233.4710502999369,233.4710502999369,234.00739170005545,g,1.0,0.5288701001554728,,,,,,sub-013,1,stroop_test,120.08881741500971,
,,,,37.0,1.0,3.0,,,,,,,,,,,,,rot,red,r,1.0,r,1.0,1.103776999982074,,,,,,,,,,3.0,1.0,37.0,1.0,234.0126026000362,,,,,,,,,,,,,,,,,234.00760950008407,235.20565459993668,236.011825799942,235.9997441000305,,,,,,,,,,,,,,,,,,,,,,,,,,,,,,,,,,,236.00133150001056,236.011825799942,236.011825799942,237.116988300113,r,1.0,1.103776999982074,,,,,,sub-013,1,stroop_test,120.08881741500971,
,,,,38.0,2.0,3.0,,,,,,,,,,,,,rot,blue,b,0.0,b,1.0,0.8350317000877112,,,,,,,,,,3.0,2.0,38.0,2.0,237.12885099998675,,,,,,,,,,,,,,,,,237.117267300142,238.31229549995624,239.10413260012865,239.0988392001018,,,,,,,,,,,,,,,,,,,,,,,,,,,,,,,,,,,239.09910320001651,239.10413260012865,239.10413260012865,239.9407615000382,b,1.0,0.8350317000877112,,,,,,sub-013,1,stroop_test,120.08881741500971,
,,,,39.0,3.0,3.0,,,,,,,,,,,,,rot,red,r,1.0,r,1.0,2.7794445001054555,,,,,,,,,,3.0,3.0,39.0,0.0,239.9463110999204,,,,,,,,,,,,,,,,,239.94097970006987,240.03764380002397,240.82912870007567,240.82428820012137,,,,,,,,,,,,,,,,,,,,,,,,,,,,,,,,,,,240.82453350001012,240.82912870007567,240.82912870007567,243.6152850999497,r,1.0,2.7794445001054555,,,,,,sub-013,1,stroop_test,120.08881741500971,
,,,,40.0,4.0,3.0,,,,,,,,,,,,,blau,red,r,0.0,r,1.0,2.231450399849564,,,,,,,,,,3.0,4.0,40.0,4.0,243.6208383999765,,,,,,,,,,,,,,,,,243.61552170012143,244.41241360013373,245.20385299995544,245.19839149992916,,,,,,,,,,,,,,,,,,,,,,,,,,,,,,,,,,,245.19999479991384,245.20385299995544,245.20385299995544,247.44043170008808,r,1.0,2.231450399849564,,,,,,sub-013,1,stroop_test,120.08881741500971,
,,,,41.0,5.0,3.0,,,,,,,,,,,,,blau,blue,b,1.0,b,1.0,0.8454554001800716,,,,,,,,,,3.0,5.0,41.0,5.0,247.4492709999904,,,,,,,,,,,,,,,,,247.4406997000333,247.78737909998745,248.5791637999937,248.574453300098,,,,,,,,,,,,,,,,,,,,,,,,,,,,,,,,,,,248.5747802001424,248.5791637999937,248.5791637999937,249.43224820005707,b,1.0,0.8454554001800716,,,,,,sub-013,1,stroop_test,120.08881741500971,
,,,,42.0,6.0,3.0,,,,,,,,,,,,,gelb,yellow,g,1.0,g,1.0,1.6222131999675184,,,,,,,,,,3.0,6.0,42.0,10.0,249.43755950010384,,,,,,,,,,,,,,,,,249.4324644000735,249.52916770009324,250.32063470012508,250.31489609996788,,,,,,,,,,,,,,,,,,,,,,,,,,,,,,,,,,,250.3164999000728,250.32063470012508,250.32063470012508,251.94884339999408,g,1.0,1.6222131999675184,,,,,,sub-013,1,stroop_test,120.08881741500971,
,,,,43.0,7.0,3.0,,,,,,,,,,,,,gelb,blue,b,0.0,b,1.0,2.3842912998516117,,,,,,,,,,3.0,7.0,43.0,9.0,251.95437590009533,,,,,,,,,,,,,,,,,251.94904450001195,252.2957677000668,253.08726780000143,253.08197920001112,,,,,,,,,,,,,,,,,,,,,,,,,,,,,,,,,,,253.0822068999987,253.08726780000143,253.08726780000143,255.47403479996137,b,1.0,2.3842912998516117,,,,,,sub-013,1,stroop_test,120.08881741500971,
,,,,44.0,8.0,3.0,,,,,,,,,,,,,blau,blue,b,1.0,b,1.0,0.6051330000627786,,,,,,,,,,3.0,8.0,44.0,6.0,255.4789825999178,,,,,,,,,,,,,,,,,255.47427879995664,256.67083070008084,257.4703625000548,257.45675559993833,,,,,,,,,,,,,,,,,,,,,,,,,,,,,,,,,,,257.4586475000251,257.4703625000548,257.4703625000548,258.0823157001287,b,1.0,0.6051330000627786,,,,,,sub-013,1,stroop_test,120.08881741500971,
,,,,45.0,9.0,3.0,,,,,,,,,,,,,gelb,red,r,0.0,r,1.0,0.5738433999940753,,,,,,,,,,3.0,9.0,45.0,8.0,258.0874302999582,,,,,,,,,,,,,,,,,258.08252419997007,258.42976450012065,259.2207607999444,259.214843200054,,,,,,,,,,,,,,,,,,,,,,,,,,,,,,,,,,,259.2164471000433,259.2207607999444,259.2207607999444,259.7994425999932,r,1.0,0.5738433999940753,,,,,,sub-013,1,stroop_test,120.08881741500971,
,,,,46.0,10.0,3.0,,,,,,,,,,,,,gelb,yellow,g,1.0,g,1.0,0.4434048000257462,,,,,,,,,,3.0,10.0,46.0,11.0,259.8040263999719,,,,,,,,,,,,,,,,,259.79970919992775,259.8969646000769,260.695592999924,260.6898773000576,,,,,,,,,,,,,,,,,,,,,,,,,,,,,,,,,,,260.6901176001411,260.695592999924,260.695592999924,261.1405370000284,g,1.0,0.4434048000257462,,,,,,sub-013,1,stroop_test,120.08881741500971,
,,,,47.0,11.0,3.0,,,,,,,,,,,,,rot,yellow,g,0.0,g,1.0,0.5585290999151766,,,,,,,,,,3.0,11.0,47.0,3.0,261.14602699992247,,,,,,,,,,,,,,,,,261.1407252999488,261.93767479993403,262.73714009998366,262.7235258000437,,,,,,,,,,,,,,,,,,,,,,,,,,,,,,,,,,,262.72541910014115,262.73714009998366,262.73714009998366,263.29970999993384,g,1.0,0.5585290999151766,,,,,,sub-013,1,stroop_test,120.08881741500971,
,,,,48.0,0.0,4.0,,,,,,,,,,,,,gelb,yellow,g,1.0,g,1.0,1.2848012000322342,,,,,,,,,,4.0,0.0,48.0,11.0,263.3039706000127,,,,,,,,,,,,,,,,,263.30000320007093,264.4957306999713,265.28730920003727,265.28155459999107,,,,,,,,,,,,,,,,,,,,,,,,,,,,,,,,,,,265.2832732000388,265.28730920003727,265.28730920003727,266.573909800034,g,1.0,1.2848012000322342,,,,,,sub-013,1,stroop_test,120.08881741500971,
,,,,49.0,1.0,4.0,,,,,,,,,,,,,blau,red,r,0.0,r,1.0,0.5212381000164896,,,,,,,,,,4.0,1.0,49.0,4.0,266.5790761001408,,,,,,,,,,,,,,,,,266.5741518000141,266.6709306000266,267.462215699954,267.45650979992934,,,,,,,,,,,,,,,,,,,,,,,,,,,,,,,,,,,267.4580455000978,267.462215699954,267.462215699954,267.9902806999162,r,1.0,0.5212381000164896,,,,,,sub-013,1,stroop_test,120.08881741500971,
,,,,50.0,2.0,4.0,,,,,,,,,,,,,gelb,red,r,0.0,r,1.0,0.6793303000740707,,,,,,,,,,4.0,2.0,50.0,8.0,267.9957515001297,,,,,,,,,,,,,,,,,267.9905012000818,268.08764809998684,268.8788131000474,268.8732255001087,,,,,,,,,,,,,,,,,,,,,,,,,,,,,,,,,,,268.87474759994075,268.8788131000474,268.8788131000474,269.559600800043,r,1.0,0.6793303000740707,,,,,,sub-013,1,stroop_test,120.08881741500971,
,,,,51.0,3.0,4.0,,,,,,,,,,,,,blau,yellow,g,0.0,g,1.0,0.7542147000785917,,,,,,,,,,4.0,3.0,51.0,7.0,269.5701917000115,,,,,,,,,,,,,,,,,269.559862999944,269.9046767000109,270.7036051999312,270.6904933000915,,,,,,,,,,,,,,,,,,,,,,,,,,,,,,,,,,,270.6925566000864,270.7036051999312,270.7036051999312,271.465504599968,g,1.0,0.7542147000785917,,,,,,sub-013,1,stroop_test,120.08881741500971,
,,,,52.0,4.0,4.0,,,,,,,,,,,,,gelb,blue,b,0.0,b,1.0,0.6088312999345362,,,,,,,,,,4.0,4.0,52.0,9.0,271.47056980011985,,,,,,,,,,,,,,,,,271.46572130010463,272.262321599992,273.06170610012487,273.04896280006506,,,,,,,,,,,,,,,,,,,,,,,,,,,,,,,,,,,273.0507156001404,273.06170610012487,273.06170610012487,273.67370819998905,b,1.0,0.6088312999345362,,,,,,sub-013,1,stroop_test,120.08881741500971,
,,,,53.0,5.0,4.0,,,,,,,,,,,,,blau,blue,b,1.0,b,1.0,0.5514901001006365,,,,,,,,,,4.0,5.0,53.0,6.0,273.678973400034,,,,,,,,,,,,,,,,,273.67391579994,274.8708190000616,275.662033099914,275.6565938000567,,,,,,,,,,,,,,,,,,,,,,,,,,,,,,,,,,,275.65826930012554,275.662033099914,275.662033099914,276.2165731000714,b,1.0,0.5514901001006365,,,,,,sub-013,1,stroop_test,120.08881741500971,
,,,,54.0,6.0,4.0,,,,,,,,,,,,,rot,red,r,1.0,r,1.0,0.6631610000040382,,,,,,,,,,4.0,6.0,54.0,1.0,276.220880900044,,,,,,,,,,,,,,,,,276.21686869999394,277.012611299986,277.8036869999487,277.79831179999746,,,,,,,,,,,,,,,,,,,,,,,,,,,,,,,,,,,277.79994860012084,277.8036869999487,277.8036869999487,278.4734829000663,r,1.0,0.6631610000040382,,,,,,sub-013,1,stroop_test,120.08881741500971,
,,,,55.0,7.0,4.0,,,,,,,,,,,,,rot,yellow,g,0.0,g,1.0,0.7468171000946313,,,,,,,,,,4.0,7.0,55.0,3.0,278.4792536001187,,,,,,,,,,,,,,,,,278.4736768999137,278.82098560011946,279.6124009999912,279.6067186999135,,,,,,,,,,,,,,,,,,,,,,,,,,,,,,,,,,,279.6069833000656,279.6124009999912,279.6124009999912,280.36597339995205,g,1.0,0.7468171000946313,,,,,,sub-013,1,stroop_test,120.08881741500971,
,,,,56.0,8.0,4.0,,,,,,,,,,,,,blau,blue,b,1.0,b,1.0,0.4788804000709206,,,,,,,,,,4.0,8.0,56.0,5.0,280.3707667000126,,,,,,,,,,,,,,,,,280.3661931999959,281.5623497001361,282.353984599933,282.3479518000968,,,,,,,,,,,,,,,,,,,,,,,,,,,,,,,,,,,282.3495261000935,282.353984599933,282.353984599933,282.84027340007015,b,1.0,0.4788804000709206,,,,,,sub-013,1,stroop_test,120.08881741500971,
,,,,57.0,9.0,4.0,,,,,,,,,,,,,gelb,yellow,g,1.0,g,1.0,0.9001998999156058,,,,,,,,,,4.0,9.0,57.0,10.0,282.8455215001013,,,,,,,,,,,,,,,,,282.84047259995714,282.9374077001121,283.7368197001051,283.723480500048,,,,,,,,,,,,,,,,,,,,,,,,,,,,,,,,,,,283.72514429991134,283.7368197001051,283.7368197001051,284.65291230008006,g,1.0,0.9001998999156058,,,,,,sub-013,1,stroop_test,120.08881741500971,
,,,,58.0,10.0,4.0,,,,,,,,,,,,,rot,red,r,1.0,r,1.0,0.4724342001136392,,,,,,,,,,4.0,10.0,58.0,0.0,284.66267220000736,,,,,,,,,,,,,,,,,284.65335160004906,285.445667500142,286.2371569001116,286.23135269992054,,,,,,,,,,,,,,,,,,,,,,,,,,,,,,,,,,,286.2329750000499,286.2371569001116,286.2371569001116,286.71533309994265,r,1.0,0.4724342001136392,,,,,,sub-013,1,stroop_test,120.08881741500971,
,,,,59.0,11.0,4.0,,,,,,,,,,,,,rot,blue,b,0.0,b,1.0,0.6725824000313878,,,,,,,,,,4.0,11.0,59.0,2.0,286.7205554000102,,,,,,,,,,,,,,,,,286.7155599999241,287.5120536000468,288.30399139993824,288.29839750006795,,,,,,,,,,,,,,,,,,,,,,,,,,,,,,,,,,,288.2986624999903,288.30399139993824,288.30399139993824,288.9818037999794,b,1.0,0.6725824000313878,,,,,,sub-013,1,stroop_test,120.08881741500971,
,,,,60.0,0.0,5.0,,,,,,,,,,,,,blau,blue,b,1.0,b,1.0,0.5678602000698447,,,,,,,,,,5.0,0.0,60.0,5.0,288.9876987999305,,,,,,,,,,,,,,,,,288.98201499995776,290.17909960006364,290.97044089995325,290.96456260001287,,,,,,,,,,,,,,,,,,,,,,,,,,,,,,,,,,,290.9662806999404,290.97044089995325,290.97044089995325,291.54055109992623,b,1.0,0.5678602000698447,,,,,,sub-013,1,stroop_test,120.08881741500971,
,,,,61.0,1.0,5.0,,,,,,,,,,,,,rot,yellow,g,0.0,g,1.0,0.759562199935317,,,,,,,,,,5.0,1.0,61.0,3.0,291.54566189995967,,,,,,,,,,,,,,,,,291.5407432001084,291.88735199999064,292.68745149997994,292.6735364999622,,,,,,,,,,,,,,,,,,,,,,,,,,,,,,,,,,,292.6758159999736,292.68745149997994,292.68745149997994,293.4485581999179,g,1.0,0.759562199935317,,,,,,sub-013,1,stroop_test,120.08881741500971,
,,,,62.0,2.0,5.0,,,,,,,,,,,,,gelb,yellow,g,1.0,g,1.0,0.4832342998124659,,,,,,,,,,5.0,2.0,62.0,10.0,293.4539985000156,,,,,,,,,,,,,,,,,293.4487759999465,293.5455477000214,294.34504840010777,294.3315642999951,,,,,,,,,,,,,,,,,,,,,,,,,,,,,,,,,,,294.3333153000567,294.34504840010777,294.34504840010777,294.8315646001138,g,1.0,0.4832342998124659,,,,,,sub-013,1,stroop_test,120.08881741500971,
,,,,63.0,3.0,5.0,,,,,,,,,,,,,rot,red,r,1.0,r,1.0,0.4388578999787569,,,,,,,,,,5.0,3.0,63.0,0.0,294.8372563000303,,,,,,,,,,,,,,,,,294.83175090001896,295.17882789997384,295.9706415999681,295.9646048999857,,,,,,,,,,,,,,,,,,,,,,,,,,,,,,,,,,,295.9661850000266,295.9706415999681,295.9706415999681,296.414954100037,r,1.0,0.4388578999787569,,,,,,sub-013,1,stroop_test,120.08881741500971,
,,,,64.0,4.0,5.0,,,,,,,,,,,,,blau,blue,b,1.0,b,1.0,0.666331599932164,,,,,,,,,,5.0,4.0,64.0,6.0,296.4205231999513,,,,,,,,,,,,,,,,,296.4151554000564,297.6124559999444,298.4129157999996,298.39951679995283,,,,,,,,,,,,,,,,,,,,,,,,,,,,,,,,,,,298.4019951999653,298.4129157999996,298.4129157999996,299.0817645001225,b,1.0,0.666331599932164,,,,,,sub-013,1,stroop_test,120.08881741500971,
,,,,65.0,5.0,5.0,,,,,,,,,,,,,rot,blue,b,0.0,b,1.0,0.6501191998831928,,,,,,,,,,5.0,5.0,65.0,2.0,299.08735370007344,,,,,,,,,,,,,,,,,299.0819516000338,300.2788794001099,301.07832919992507,301.0650478999596,,,,,,,,,,,,,,,,,,,,,,,,,,,,,,,,,,,301.0668830999639,301.07832919992507,301.07832919992507,301.7316853001248,b,1.0,0.6501191998831928,,,,,,sub-013,1,stroop_test,120.08881741500971,
,,,,66.0,6.0,5.0,,,,,,,,,,,,,blau,red,r,0.0,r,1.0,0.6129763999488205,,,,,,,,,,5.0,6.0,66.0,4.0,301.73724339995533,,,,,,,,,,,,,,,,,301.7318841000088,302.5288565000519,303.32850569998845,303.3151893999893,,,,,,,,,,,,,,,,,,,,,,,,,,,,,,,,,,,303.3167624999769,303.32850569998845,303.32850569998845,303.9491960001178,r,1.0,0.6129763999488205,,,,,,sub-013,1,stroop_test,120.08881741500971,
,,,,67.0,7.0,5.0,,,,,,,,,,,,,blau,yellow,g,0.0,g,1.0,0.7242825999855995,,,,,,,,,,5.0,7.0,67.0,7.0,303.95451269997284,,,,,,,,,,,,,,,,,303.9494892000221,304.7456922999117,305.5371733000502,305.5314990999177,,,,,,,,,,,,,,,,,,,,,,,,,,,,,,,,,,,305.5317609999329,305.5371733000502,305.5371733000502,306.2646745000966,g,1.0,0.7242825999855995,,,,,,sub-013,1,stroop_test,120.08881741500971,
,,,,68.0,8.0,5.0,,,,,,,,,,,,,gelb,yellow,g,1.0,g,1.0,0.5414529000408947,,,,,,,,,,5.0,8.0,68.0,11.0,306.27045690012164,,,,,,,,,,,,,,,,,306.2648577000946,307.4621957000345,308.2536575999111,308.24799220007844,,,,,,,,,,,,,,,,,,,,,,,,,,,,,,,,,,,308.2496768999845,308.2536575999111,308.2536575999111,308.79869610001333,g,1.0,0.5414529000408947,,,,,,sub-013,1,stroop_test,120.08881741500971,
,,,,69.0,9.0,5.0,,,,,,,,,,,,,gelb,red,r,0.0,r,1.0,0.5225998999085277,,,,,,,,,,5.0,9.0,69.0,8.0,308.8041211999953,,,,,,,,,,,,,,,,,308.7989835999906,308.9044091999531,309.69557649991475,309.69011919992045,,,,,,,,,,,,,,,,,,,,,,,,,,,,,,,,,,,309.69044520007446,309.69557649991475,309.69557649991475,310.2233112999238,r,1.0,0.5225998999085277,,,,,,sub-013,1,stroop_test,120.08881741500971,
,,,,70.0,10.0,5.0,,,,,,,,,,,,,gelb,blue,b,0.0,b,1.0,0.4930229000747204,,,,,,,,,,5.0,10.0,70.0,9.0,310.2290831999853,,,,,,,,,,,,,,,,,310.2235135000665,311.4293232001364,312.2204120999668,312.21625029994175,,,,,,,,,,,,,,,,,,,,,,,,,,,,,,,,,,,312.2165655000136,312.2204120999668,312.2204120999668,312.71547519997694,b,1.0,0.4930229000747204,,,,,,sub-013,1,stroop_test,120.08881741500971,
,,,,71.0,11.0,5.0,,,,,,,,,,,,,rot,red,r,1.0,r,1.0,0.5261112998705357,,,,,,,,,,5.0,11.0,71.0,1.0,312.72052090009674,,,,,,,,,,,,,,,,,312.7156817999203,313.51218930003233,314.304041699972,314.29791259998456,,,,,,,,,,,,,,,,,,,,,,,,,,,,,,,,,,,314.2997966001276,314.304041699972,314.304041699972,314.8325646999292,r,1.0,0.5261112998705357,,,,,,sub-013,1,stroop_test,120.08881741500971,
,,,,72.0,0.0,6.0,,,,,,,,,,,,,rot,blue,b,0.0,b,1.0,0.864716500043869,,,,,,,,,,6.0,0.0,72.0,2.0,314.83708820003085,,,,,,,,,,,,,,,,,314.83277450012974,315.1790704000741,315.9708193999249,315.9651156999171,,,,,,,,,,,,,,,,,,,,,,,,,,,,,,,,,,,315.9653576000128,315.9708193999249,315.9708193999249,316.839965299936,b,1.0,0.864716500043869,,,,,,sub-013,1,stroop_test,120.08881741500971,
,,,,73.0,1.0,6.0,,,,,,,,,,,,,rot,red,r,1.0,r,1.0,1.1764591000974178,,,,,,,,,,6.0,1.0,73.0,1.0,316.8455712001305,,,,,,,,,,,,,,,,,316.8401701000985,317.1872855001129,317.97873830003664,317.9730148999952,,,,,,,,,,,,,,,,,,,,,,,,,,,,,,,,,,,317.97325720009394,317.97873830003664,317.97873830003664,319.1573934000917,r,1.0,1.1764591000974178,,,,,,sub-013,1,stroop_test,120.08881741500971,
,,,,74.0,2.0,6.0,,,,,,,,,,,,,gelb,blue,b,0.0,b,1.0,0.5401552999392152,,,,,,,,,,6.0,2.0,74.0,9.0,319.1621000999585,,,,,,,,,,,,,,,,,319.1576382999774,320.3538492999505,321.1534120000433,321.1408389999997,,,,,,,,,,,,,,,,,,,,,,,,,,,,,,,,,,,321.1429749000817,321.1534120000433,321.1534120000433,321.69827580009587,b,1.0,0.5401552999392152,,,,,,sub-013,1,stroop_test,120.08881741500971,
,,,,75.0,3.0,6.0,,,,,,,,,,,,,blau,red,r,0.0,r,1.0,0.4199691999237984,,,,,,,,,,6.0,3.0,75.0,4.0,321.70375899993815,,,,,,,,,,,,,,,,,321.6984775001183,322.4956154001411,323.28713900013827,323.28118650009856,,,,,,,,,,,,,,,,,,,,,,,,,,,,,,,,,,,323.28271870012395,323.28713900013827,323.28713900013827,323.70841410011053,r,1.0,0.4199691999237984,,,,,,sub-013,1,stroop_test,120.08881741500971,
,,,,76.0,4.0,6.0,,,,,,,,,,,,,blau,blue,b,1.0,b,1.0,0.7816966001410037,,,,,,,,,,6.0,4.0,76.0,6.0,323.7204070000444,,,,,,,,,,,,,,,,,323.7086893999949,324.90385250002146,325.69539509993047,325.6895536999218,,,,,,,,,,,,,,,,,,,,,,,,,,,,,,,,,,,325.68980180006474,325.69539509993047,325.69539509993047,326.48175040003844,b,1.0,0.7816966001410037,,,,,,sub-013,1,stroop_test,120.08881741500971,
,,,,77.0,5.0,6.0,,,,,,,,,,,,,gelb,red,r,0.0,r,1.0,0.8373936000280082,,,,,,,,,,6.0,5.0,77.0,8.0,326.48733239993453,,,,,,,,,,,,,,,,,326.4819555000868,327.67907730001025,328.4782501999289,328.46446299995296,,,,,,,,,,,,,,,,,,,,,,,,,,,,,,,,,,,328.4664984000847,328.4782501999289,328.4782501999289,329.3232539999299,r,1.0,0.8373936000280082,,,,,,sub-013,1,stroop_test,120.08881741500971,
,,,,78.0,6.0,6.0,,,,,,,,,,,,,blau,yellow,g,0.0,g,1.0,0.8540085998829454,,,,,,,,,,6.0,6.0,78.0,7.0,329.3288201999385,,,,,,,,,,,,,,,,,329.3235331999604,330.1205118999351,330.91994759999216,330.9069839001168,,,,,,,,,,,,,,,,,,,,,,,,,,,,,,,,,,,330.9087537000887,330.91994759999216,330.91994759999216,331.7815566000063,g,1.0,0.8540085998829454,,,,,,sub-013,1,stroop_test,120.08881741500971,
,,,,79.0,7.0,6.0,,,,,,,,,,,,,gelb,yellow,g,1.0,g,1.0,0.649633500026539,,,,,,,,,,6.0,7.0,79.0,10.0,331.7872132000048,,,,,,,,,,,,,,,,,331.7817478000652,332.97907979995944,333.7703271999489,333.7644370000344,,,,,,,,,,,,,,,,,,,,,,,,,,,,,,,,,,,333.7660811999813,333.7703271999489,333.7703271999489,334.4232312999666,g,1.0,0.649633500026539,,,,,,sub-013,1,stroop_test,120.08881741500971,
,,,,80.0,8.0,6.0,,,,,,,,,,,,,rot,red,r,1.0,r,1.0,0.6415603999048471,,,,,,,,,,6.0,8.0,80.0,0.0,334.4291695000138,,,,,,,,,,,,,,,,,334.4234396000393,334.5204048999585,335.311714499956,335.3062960000243,,,,,,,,,,,,,,,,,,,,,,,,,,,,,,,,,,,335.30784310004674,335.311714499956,335.311714499956,335.9562155001331,r,1.0,0.6415603999048471,,,,,,sub-013,1,stroop_test,120.08881741500971,
,,,,81.0,9.0,6.0,,,,,,,,,,,,,blau,blue,b,1.0,b,1.0,0.48147809994407,,,,,,,,,,6.0,9.0,81.0,5.0,335.9621153001208,,,,,,,,,,,,,,,,,335.956407800084,336.05385380005464,336.8532493999228,336.8400689000264,,,,,,,,,,,,,,,,,,,,,,,,,,,,,,,,,,,336.8416989999823,336.8532493999228,336.8532493999228,337.3407721000258,b,1.0,0.48147809994407,,,,,,sub-013,1,stroop_test,120.08881741500971,
,,,,82.0,10.0,6.0,,,,,,,,,,,,,rot,yellow,g,0.0,g,1.0,0.6023099001031369,,,,,,,,,,6.0,10.0,82.0,3.0,337.34546350012533,,,,,,,,,,,,,,,,,337.34100200003013,337.70390049996786,338.5038532000035,338.49066319991834,,,,,,,,,,,,,,,,,,,,,,,,,,,,,,,,,,,338.4924794000108,338.5038532000035,338.5038532000035,339.10744270007126,g,1.0,0.6023099001031369,,,,,,sub-013,1,stroop_test,120.08881741500971,
,,,,83.0,11.0,6.0,,,,,,,,,,,,,gelb,yellow,g,1.0,g,1.0,0.4811563000548631,,,,,,,,,,6.0,11.0,83.0,11.0,339.1121336000506,,,,,,,,,,,,,,,,,339.10765330004506,339.4538525999524,340.25323030003347,340.2414619999472,,,,,,,,,,,,,,,,,,,,,,,,,,,,,,,,,,,340.24348379997537,340.25323030003347,340.25323030003347,340.74005859997123,g,1.0,0.4811563000548631,,,,,,sub-013,1,stroop_test,120.08881741500971,
,,,,84.0,0.0,7.0,,,,,,,,,,,,,blau,blue,b,1.0,r,0.0,1.3790279000531882,,,,,,,,,,7.0,0.0,84.0,6.0,340.7454653000459,,,,,,,,,,,,,,,,,340.7402868999634,340.837080999976,341.62856250000186,341.62307710014284,,,,,,,,,,,,,,,,,,,,,,,,,,,,,,,,,,,341.6246317999903,341.62856250000186,341.62856250000186,343.014983400004,r,0.0,1.3790279000531882,,,,,,sub-013,1,stroop_test,120.08881741500971,
,,,,85.0,1.0,7.0,,,,,,,,,,,,,gelb,yellow,g,1.0,b,0.0,0.7457133999560028,,,,,,,,,,7.0,1.0,85.0,10.0,343.0203811000101,,,,,,,,,,,,,,,,,343.01518679992296,343.8120989999734,344.61159530002624,344.5981433999259,,,,,,,,,,,,,,,,,,,,,,,,,,,,,,,,,,,344.59984409995377,344.61159530002624,344.61159530002624,345.3586745001376,b,0.0,0.7457133999560028,,,,,,sub-013,1,stroop_test,120.08881741500971,
,,,,86.0,2.0,7.0,,,,,,,,,,,,,rot,yellow,g,0.0,g,1.0,0.5243796999566257,,,,,,,,,,7.0,2.0,86.0,3.0,345.37010970013216,,,,,,,,,,,,,,,,,345.35896270000376,345.70371729996987,346.4953131999355,346.489273400046,,,,,,,,,,,,,,,,,,,,,,,,,,,,,,,,,,,346.4908171999268,346.4953131999355,346.4953131999355,347.02372610010207,g,1.0,0.5243796999566257,,,,,,sub-013,1,stroop_test,120.08881741500971,
,,,,87.0,3.0,7.0,,,,,,,,,,,,,blau,red,r,0.0,r,1.0,1.7204827000387013,,,,,,,,,,7.0,3.0,87.0,4.0,347.0292823999189,,,,,,,,,,,,,,,,,347.02402050001547,348.2203452999238,349.01179990009405,349.0061198999174,,,,,,,,,,,,,,,,,,,,,,,,,,,,,,,,,,,349.0079310000874,349.01179990009405,349.01179990009405,350.7399967999663,r,1.0,1.7204827000387013,,,,,,sub-013,1,stroop_test,120.08881741500971,
,,,,88.0,4.0,7.0,,,,,,,,,,,,,blau,yellow,g,0.0,g,1.0,0.7165872999466956,,,,,,,,,,7.0,4.0,88.0,7.0,350.7452682000585,,,,,,,,,,,,,,,,,350.7402016001288,351.9371047001332,352.72871940000914,352.7232609000057,,,,,,,,,,,,,,,,,,,,,,,,,,,,,,,,,,,352.72360019991174,352.72871940000914,352.72871940000914,353.4480946001131,g,1.0,0.7165872999466956,,,,,,sub-013,1,stroop_test,120.08881741500971,
,,,,89.0,5.0,7.0,,,,,,,,,,,,,rot,red,r,1.0,r,1.0,0.8904550999868661,,,,,,,,,,7.0,5.0,89.0,1.0,353.45373810012825,,,,,,,,,,,,,,,,,353.44831559993327,353.8033847999759,354.59545830008574,354.58949019992724,,,,,,,,,,,,,,,,,,,,,,,,,,,,,,,,,,,354.5910799999256,354.59545830008574,354.59545830008574,355.4900088000577,r,1.0,0.8904550999868661,,,,,,sub-013,1,stroop_test,120.08881741500971,
,,,,90.0,6.0,7.0,,,,,,,,,,,,,rot,red,r,1.0,r,1.0,0.6074226000346243,,,,,,,,,,7.0,6.0,90.0,0.0,355.4951402000152,,,,,,,,,,,,,,,,,355.49021019996144,356.6870019000489,357.47881130012684,357.47383360005915,,,,,,,,,,,,,,,,,,,,,,,,,,,,,,,,,,,357.47411100007594,357.47881130012684,357.47881130012684,358.0910265999846,r,1.0,0.6074226000346243,,,,,,sub-013,1,stroop_test,120.08881741500971,
,,,,91.0,7.0,7.0,,,,,,,,,,,,,gelb,yellow,g,1.0,g,1.0,0.5102625000290573,,,,,,,,,,7.0,7.0,91.0,11.0,358.0953899999149,,,,,,,,,,,,,,,,,358.09126379992813,358.43688279995695,359.23659009998664,359.2236604001373,,,,,,,,,,,,,,,,,,,,,,,,,,,,,,,,,,,359.22516290005296,359.23659009998664,359.23659009998664,359.75049689994194,g,1.0,0.5102625000290573,,,,,,sub-013,1,stroop_test,120.08881741500971,
,,,,92.0,8.0,7.0,,,,,,,,,,,,,blau,blue,b,1.0,b,1.0,0.6957320999354124,,,,,,,,,,7.0,8.0,92.0,5.0,359.7617894001305,,,,,,,,,,,,,,,,,359.7512141999323,360.9454789001029,361.7370750999544,361.73113279999234,,,,,,,,,,,,,,,,,,,,,,,,,,,,,,,,,,,361.7329357000999,361.7370750999544,361.7370750999544,362.4396240999922,b,1.0,0.6957320999354124,,,,,,sub-013,1,stroop_test,120.08881741500971,
,,,,93.0,9.0,7.0,,,,,,,,,,,,,gelb,red,r,0.0,r,1.0,0.6837446999270469,,,,,,,,,,7.0,9.0,93.0,8.0,362.4450974999927,,,,,,,,,,,,,,,,,362.4398266000208,363.2371048000641,364.0285450001247,364.02286399994045,,,,,,,,,,,,,,,,,,,,,,,,,,,,,,,,,,,364.0244026000146,364.0285450001247,364.0285450001247,364.7154904000927,r,1.0,0.6837446999270469,,,,,,sub-013,1,stroop_test,120.08881741500971,
,,,,94.0,10.0,7.0,,,,,,,,,,,,,rot,blue,b,0.0,b,1.0,0.5802073001395911,,,,,,,,,,7.0,10.0,94.0,2.0,364.7204624000005,,,,,,,,,,,,,,,,,364.71574599994346,364.81193790002726,365.60326580004767,365.59783410001546,,,,,,,,,,,,,,,,,,,,,,,,,,,,,,,,,,,365.5995885999873,365.60326580004767,365.60326580004767,366.1898817999754,b,1.0,0.5802073001395911,,,,,,sub-013,1,stroop_test,120.08881741500971,
,,,,95.0,11.0,7.0,,,,,,,,,,,,,gelb,blue,b,0.0,b,1.0,0.6483579999767244,,,,,,,,,,7.0,11.0,95.0,9.0,366.1952951999847,,,,,,,,,,,,,,,,,366.1900947999675,367.3871474000625,368.1784586000722,368.1725987000391,,,,,,,,,,,,,,,,,,,,,,,,,,,,,,,,,,,368.1743827001192,368.1784586000722,368.1784586000722,368.83167969994247,b,1.0,0.6483579999767244,,,,,,sub-013,1,stroop_test,120.08881741500971,
,,,,96.0,0.0,8.0,,,,,,,,,,,,,blau,yellow,g,0.0,g,1.0,0.4192031000275165,,,,,,,,,,8.0,0.0,96.0,7.0,368.8370847001206,,,,,,,,,,,,,,,,,368.83187590003945,369.6288400001358,370.4201986999251,370.4144264999777,,,,,,,,,,,,,,,,,,,,,,,,,,,,,,,,,,,370.4160593000706,370.4201986999251,370.4201986999251,370.8406603001058,g,1.0,0.4192031000275165,,,,,,sub-013,1,stroop_test,120.08881741500971,
,,,,97.0,1.0,8.0,,,,,,,,,,,,,gelb,red,r,0.0,r,1.0,0.3956240999978035,,,,,,,,,,8.0,1.0,97.0,8.0,370.8452814000193,,,,,,,,,,,,,,,,,370.8408701000735,370.93703910009935,371.7368675000034,371.7236715001054,,,,,,,,,,,,,,,,,,,,,,,,,,,,,,,,,,,371.725864399923,371.7368675000034,371.7368675000034,372.1400913000107,r,1.0,0.3956240999978035,,,,,,sub-013,1,stroop_test,120.08881741500971,
,,,,98.0,2.0,8.0,,,,,,,,,,,,,rot,yellow,g,0.0,g,1.0,0.527650099946186,,,,,,,,,,8.0,2.0,98.0,3.0,372.145221099956,,,,,,,,,,,,,,,,,372.1402984999586,372.23728220001794,373.0284329999704,373.0225521000102,,,,,,,,,,,,,,,,,,,,,,,,,,,,,,,,,,,373.024310400011,373.0284329999704,373.0284329999704,373.5577084000688,g,1.0,0.527650099946186,,,,,,sub-013,1,stroop_test,120.08881741500971,
,,,,99.0,3.0,8.0,,,,,,,,,,,,,rot,blue,b,0.0,b,1.0,0.5518616000190377,,,,,,,,,,8.0,3.0,99.0,2.0,373.5619058001321,,,,,,,,,,,,,,,,,373.5579083999619,373.6542342000175,374.44604069995694,374.4394294000231,,,,,,,,,,,,,,,,,,,,,,,,,,,,,,,,,,,374.43967909994535,374.44604069995694,374.44604069995694,374.9991530999541,b,1.0,0.5518616000190377,,,,,,sub-013,1,stroop_test,120.08881741500971,
,,,,100.0,4.0,8.0,,,,,,,,,,,,,gelb,yellow,g,1.0,g,1.0,0.2895522001199424,,,,,,,,,,8.0,4.0,100.0,11.0,375.0036814999767,,,,,,,,,,,,,,,,,374.9993853999768,375.3451433000155,376.145041400101,376.1313329001423,,,,,,,,,,,,,,,,,,,,,,,,,,,,,,,,,,,376.1330273000058,376.145041400101,376.145041400101,376.4397428000812,g,1.0,0.2895522001199424,,,,,,sub-013,1,stroop_test,120.08881741500971,
,,,,101.0,5.0,8.0,,,,,,,,,,,,,blau,blue,b,1.0,b,1.0,0.582488999934867,,,,,,,,,,8.0,5.0,101.0,6.0,376.4451916001272,,,,,,,,,,,,,,,,,376.4399377000518,376.5368512999266,377.328635700047,377.3227570001036,,,,,,,,,,,,,,,,,,,,,,,,,,,,,,,,,,,377.3243217999116,377.328635700047,377.328635700047,377.9148707999848,b,1.0,0.582488999934867,,,,,,sub-013,1,stroop_test,120.08881741500971,
,,,,102.0,6.0,8.0,,,,,,,,,,,,,rot,red,r,1.0,r,1.0,0.8429788001812994,,,,,,,,,,8.0,6.0,102.0,1.0,377.9203723999672,,,,,,,,,,,,,,,,,377.9150845000986,378.71189019992016,379.51133390003815,379.4978372000624,,,,,,,,,,,,,,,,,,,,,,,,,,,,,,,,,,,379.4995522000827,379.51133390003815,379.51133390003815,380.3570660999976,r,1.0,0.8429788001812994,,,,,,sub-013,1,stroop_test,120.08881741500971,
,,,,103.0,7.0,8.0,,,,,,,,,,,,,gelb,yellow,g,1.0,g,1.0,0.7868388998322189,,,,,,,,,,8.0,7.0,103.0,10.0,380.36209900002,,,,,,,,,,,,,,,,,380.3572687001433,380.453813200118,381.2453376001213,381.2388959000818,,,,,,,,,,,,,,,,,,,,,,,,,,,,,,,,,,,381.2405016000848,381.2453376001213,381.2453376001213,382.03996410011314,g,1.0,0.7868388998322189,,,,,,sub-013,1,stroop_test,120.08881741500971,
,,,,104.0,8.0,8.0,,,,,,,,,,,,,rot,red,r,1.0,r,1.0,0.3890249000396579,,,,,,,,,,8.0,8.0,104.0,0.0,382.0454033999704,,,,,,,,,,,,,,,,,382.0401946001221,382.3869757000357,383.1865872000344,383.1732493001036,,,,,,,,,,,,,,,,,,,,,,,,,,,,,,,,,,,383.1754012000747,383.1865872000344,383.1865872000344,383.5816603000276,r,1.0,0.3890249000396579,,,,,,sub-013,1,stroop_test,120.08881741500971,
,,,,105.0,9.0,8.0,,,,,,,,,,,,,gelb,blue,b,0.0,g,0.0,1.013835599878803,,,,,,,,,,8.0,9.0,105.0,9.0,383.5869205999188,,,,,,,,,,,,,,,,,383.5818579001352,384.7784764999524,385.5782131999731,385.5653037999291,,,,,,,,,,,,,,,,,,,,,,,,,,,,,,,,,,,385.5671574000735,385.5782131999731,385.5782131999731,386.59804300009273,g,0.0,1.013835599878803,,,,,,sub-013,1,stroop_test,120.08881741500971,
,,,,106.0,10.0,8.0,,,,,,,,,,,,,blau,blue,b,1.0,b,1.0,0.8321581999771297,,,,,,,,,,8.0,10.0,106.0,5.0,386.6033328000922,,,,,,,,,,,,,,,,,386.59825480007567,387.7954375001136,388.5949585000053,388.58156329998747,,,,,,,,,,,,,,,,,,,,,,,,,,,,,,,,,,,388.5832740000915,388.5949585000053,388.5949585000053,389.4324505999684,b,1.0,0.8321581999771297,,,,,,sub-013,1,stroop_test,120.08881741500971,
,,,,107.0,11.0,8.0,,,,,,,,,,,,,blau,red,r,0.0,r,1.0,0.4707253999076783,,,,,,,,,,8.0,11.0,107.0,4.0,389.4368843000848,,,,,,,,,,,,,,,,,389.4326812000945,389.7790532000363,390.5705695000943,390.5646357999649,,,,,,,,,,,,,,,,,,,,,,,,,,,,,,,,,,,390.564906100044,390.5705695000943,390.5705695000943,391.04819210013375,r,1.0,0.4707253999076783,,,,,,sub-013,1,stroop_test,120.08881741500971,
,,,,108.0,0.0,9.0,,,,,,,,,,,,,blau,red,r,0.0,r,1.0,0.5400308000389487,,,,,,,,,,9.0,0.0,108.0,4.0,391.0535397001077,,,,,,,,,,,,,,,,,391.0484059001319,391.395511199953,392.1868628999218,392.1809215999674,,,,,,,,,,,,,,,,,,,,,,,,,,,,,,,,,,,392.1811758000404,392.1868628999218,392.1868628999218,392.7313906000927,r,1.0,0.5400308000389487,,,,,,sub-013,1,stroop_test,120.08881741500971,
,,,,109.0,1.0,9.0,,,,,,,,,,,,,blau,blue,b,1.0,b,1.0,0.5832585000898689,,,,,,,,,,9.0,1.0,109.0,5.0,392.7368352999911,,,,,,,,,,,,,,,,,392.7316040000878,392.82856920012273,393.62021109997295,393.61432250007056,,,,,,,,,,,,,,,,,,,,,,,,,,,,,,,,,,,393.6145538999699,393.62021109997295,393.62021109997295,394.2063571000472,b,1.0,0.5832585000898689,,,,,,sub-013,1,stroop_test,120.08881741500971,
,,,,110.0,2.0,9.0,,,,,,,,,,,,,gelb,yellow,g,1.0,g,1.0,0.8011661001946777,,,,,,,,,,9.0,2.0,110.0,10.0,394.2117397000548,,,,,,,,,,,,,,,,,394.206548599992,395.0041159000248,395.7950160999317,395.7892666000407,,,,,,,,,,,,,,,,,,,,,,,,,,,,,,,,,,,395.7908978001215,395.7950160999317,395.7950160999317,396.598573599942,g,1.0,0.8011661001946777,,,,,,sub-013,1,stroop_test,120.08881741500971,
,,,,111.0,3.0,9.0,,,,,,,,,,,,,rot,yellow,g,0.0,g,1.0,0.6578593000303954,,,,,,,,,,9.0,3.0,111.0,3.0,396.603552600136,,,,,,,,,,,,,,,,,396.5987966000103,397.79594939993694,398.5946822001133,398.58256489993073,,,,,,,,,,,,,,,,,,,,,,,,,,,,,,,,,,,398.5844690001104,398.5946822001133,398.5946822001133,399.2569109001197,g,1.0,0.6578593000303954,,,,,,sub-013,1,stroop_test,120.08881741500971,
,,,,112.0,4.0,9.0,,,,,,,,,,,,,gelb,blue,b,0.0,b,1.0,1.032203699927777,,,,,,,,,,9.0,4.0,112.0,9.0,399.2618072999176,,,,,,,,,,,,,,,,,399.257106800098,400.4535658999812,401.253345800098,401.2394690001384,,,,,,,,,,,,,,,,,,,,,,,,,,,,,,,,,,,401.24116980005056,401.253345800098,401.253345800098,402.28951509995386,b,1.0,1.032203699927777,,,,,,sub-013,1,stroop_test,120.08881741500971,
,,,,113.0,5.0,9.0,,,,,,,,,,,,,rot,blue,b,0.0,b,1.0,1.1117422999814153,,,,,,,,,,9.0,5.0,113.0,2.0,402.2952902000397,,,,,,,,,,,,,,,,,402.28971279994585,403.4870138000697,404.2782833001111,404.2726835999638,,,,,,,,,,,,,,,,,,,,,,,,,,,,,,,,,,,404.27425940008834,404.2782833001111,404.2782833001111,405.3986921999604,b,1.0,1.1117422999814153,,,,,,sub-013,1,stroop_test,120.08881741500971,
,,,,114.0,6.0,9.0,,,,,,,,,,,,,rot,red,r,1.0,r,1.0,0.9529431001283228,,,,,,,,,,9.0,6.0,114.0,1.0,405.40383019996807,,,,,,,,,,,,,,,,,405.3989659999497,405.7451919999439,406.53706629993394,406.5314478999935,,,,,,,,,,,,,,,,,,,,,,,,,,,,,,,,,,,406.5316995000466,406.53706629993394,406.53706629993394,407.49805820011534,r,1.0,0.9529431001283228,,,,,,sub-013,1,stroop_test,120.08881741500971,
,,,,115.0,7.0,9.0,,,,,,,,,,,,,rot,red,r,1.0,r,1.0,0.4938422997947782,,,,,,,,,,9.0,7.0,115.0,0.0,407.5033545999322,,,,,,,,,,,,,,,,,407.4982515000738,408.29524439992383,409.08670320012607,409.0807064999826,,,,,,,,,,,,,,,,,,,,,,,,,,,,,,,,,,,409.0809506999794,409.08670320012607,409.08670320012607,409.5818990000989,r,1.0,0.4938422997947782,,,,,,sub-013,1,stroop_test,120.08881741500971,
,,,,116.0,8.0,9.0,,,,,,,,,,,,,gelb,yellow,g,1.0,g,1.0,0.3996564999688416,,,,,,,,,,9.0,8.0,116.0,11.0,409.5869209000375,,,,,,,,,,,,,,,,,409.5821174001321,409.92852160008624,410.7198171000928,410.7141768999864,,,,,,,,,,,,,,,,,,,,,,,,,,,,,,,,,,,410.7158079999499,410.7198171000928,410.7198171000928,411.13674989994615,g,1.0,0.3996564999688416,,,,,,sub-013,1,stroop_test,120.08881741500971,
,,,,117.0,9.0,9.0,,,,,,,,,,,,,blau,blue,b,1.0,b,1.0,0.5877777999266982,,,,,,,,,,9.0,9.0,117.0,6.0,411.1447783000767,,,,,,,,,,,,,,,,,411.1370300000999,411.4785828001332,412.277984400047,412.2649050001055,,,,,,,,,,,,,,,,,,,,,,,,,,,,,,,,,,,412.2671771000605,412.277984400047,412.277984400047,412.87308349995874,b,1.0,0.5877777999266982,,,,,,sub-013,1,stroop_test,120.08881741500971,
,,,,118.0,10.0,9.0,,,,,,,,,,,,,blau,yellow,g,0.0,g,1.0,1.3983777000103146,,,,,,,,,,9.0,10.0,118.0,7.0,412.8784511999693,,,,,,,,,,,,,,,,,412.873282500077,413.6701420999598,414.4617137000896,414.4566148999147,,,,,,,,,,,,,,,,,,,,,,,,,,,,,,,,,,,414.4569822999183,414.4617137000896,414.4617137000896,415.864806199912,g,1.0,1.3983777000103146,,,,,,sub-013,1,stroop_test,120.08881741500971,
,,,,119.0,11.0,9.0,,,,,,,,,,,,,gelb,red,r,0.0,r,1.0,1.543939399998635,,,,,,,,,,9.0,11.0,119.0,8.0,415.870103900088,,,,,,,,,,,,,,,,,415.86504280008376,416.21178989997134,417.0034342000727,416.997511100024,,,,,,,,,,,,,,,,,,,,,,,,,,,,,,,,,,,416.9990674001165,417.0034342000727,417.0034342000727,418.5488974999171,r,1.0,1.543939399998635,,,,,,sub-013,1,stroop_test,120.08881741500971,
,,,,,,,,,,,,,,,,,,,,,,,,,,,,,,,,,,,,,,,,,,,,,,,,,,,,,,,,,,,,,,,,,,,,,,,,,,,,,,,,,,,,,,,,,,,,,,,,,,,,,,418.5490014001261,418.5533412001096,423.5455662000458,423.5395400000271,sub-013,1,stroop_test,120.08881741500971,
