direction,corrAns,thisN,thisTrialN,thisRepN,respDots.keys,respDots.corr,respDots.rt,respDots.duration,randomInstr,respRandomInstr.keys,respRandomInstr.rt,respRandomInstr.duration,practice_trials.thisRepN,practice_trials.thisTrialN,practice_trials.thisN,practice_trials.thisIndex,instr_trials.thisRepN,instr_trials.thisTrialN,instr_trials.thisN,instr_trials.thisIndex,test_trials.thisRepN,test_trials.thisTrialN,test_trials.thisN,test_trials.thisIndex,thisRow.t,notes,general_instruction.started,textGeneralInstr.started,respGeneralInstr.started,general_instruction.stopped,respGeneralInstr.keys,respGeneralInstr.rt,respGeneralInstr.duration,ITI.started,fixcross.started,fixcross.stopped,ITI.stopped,dots.started,backgroundDots.started,stimulusDots.started,respDots.started,stimulusDots.stopped,dots.stopped,practice_trials.respDots.keys,practice_trials.respDots.corr,practice_trials.respDots.rt,practice_trials.respDots.duration,feedback.started,textFeedback.started,feedback.stopped,textFeedback.stopped,info.started,textInfo.started,keyRespInfo.started,info.stopped,keyRespInfo.keys,keyRespInfo.rt,keyRespInfo.duration,test_instruction.started,textTestInstr.started,respTestInstr.started,test_instruction.stopped,respTestInstr.keys,respTestInstr.rt,respTestInstr.duration,random_instruction.started,textRandomInstr.started,respRandomInstr.started,random_instruction.stopped,instr_trials.respRandomInstr.keys,instr_trials.respRandomInstr.rt,instr_trials.respRandomInstr.duration,test_trials.respDots.keys,test_trials.respDots.corr,test_trials.respDots.rt,test_trials.respDots.duration,goodbye.started,textGoodbye.started,goodbye.stopped,participant,session,expName,frameRate,Unnamed: 87
,,,,,,,,,,,,,,,,,,,,,,,,,,,0.00764641600108,0.0134239160033757,0.0134239160033757,24.86201612500008,space,24.752071959002933,,,,,,,,,,,,,,,,,,,,,,,,,,,,,,,,,,,,,,,,,,,,,,,,sub-156,1,random_dot,122.8227744091311,
right,right,0.0,0.0,0.0,left,0.0,8.585901667000144,,,,,,0.0,0.0,0.0,1.0,,,,,,,,,24.88104999999996,,,,,,,,,24.86600925000312,25.670716833003095,26.4687315830015,26.453989375000678,26.45466254100029,26.4687315830015,26.4687315830015,26.4687315830015,31.45390154100096,35.06003791600233,left,0.0,8.585901667000144,,35.07003708300181,35.08115720800197,35.5705282500021,,,,,,,,,,,,,,,,,,,,,,,,,,,,,,sub-156,1,random_dot,122.8227744091311,
left,left,1.0,1.0,0.0,right,0.0,5.866081583000778,,,,,,0.0,1.0,1.0,0.0,,,,,,,,,35.5765934580013,,,,,,,,,35.57103304100019,35.909268583000085,36.70302645800257,36.693471791000775,36.69407137500093,36.70302645800257,36.70302645800257,36.70302645800257,41.687100791001285,42.57188612500249,right,0.0,5.866081583000778,,42.57209512500049,42.58163075000266,43.07083816600061,43.07680475000234,,,,,,,,,,,,,,,,,,,,,,,,,,,,,sub-156,1,random_dot,122.8227744091311,
right,right,2.0,0.0,1.0,right,1.0,5.434083125001052,,,,,,1.0,0.0,2.0,1.0,,,,,,,,,43.07680475000234,,,,,,,,,43.07128075000219,44.27055370800008,45.06261679100135,45.053953500002535,45.05453016600222,45.06261679100135,45.06261679100135,45.06261679100135,50.04380083300202,50.50549120800133,right,1.0,5.434083125001052,,50.5132541660023,50.52879683300125,51.00995175000208,,,,,,,,,,,,,,,,,,,,,,,,,,,,,,sub-156,1,random_dot,122.8227744091311,
left,left,3.0,1.0,1.0,right,0.0,5.604462167000747,,,,,,1.0,1.0,3.0,0.0,,,,,,,,,51.02043833300195,,,,,,,,,51.01032550000309,51.803880791001575,52.59589804100324,52.58738262500265,52.58798875000139,52.59589804100324,52.59589804100324,52.59589804100324,57.58720808300132,58.20514800000092,right,0.0,5.604462167000747,,58.20928537500004,58.21821654100131,58.70408620800299,58.70963783300249,,,,,,,,,,,,,,,,,,,,,,,,,,,,,sub-156,1,random_dot,122.8227744091311,
left,left,4.0,0.0,2.0,left,1.0,5.347060000000056,,,,,,2.0,0.0,4.0,0.0,,,,,,,,,58.70963783300249,,,,,,,,,58.70443475000138,58.80374095800289,59.59616966600152,59.58750545800285,59.58806266600004,59.59616966600152,59.59616966600152,59.59616966600152,64.57618458300203,64.94528370800253,left,1.0,5.347060000000056,,64.9496224579998,64.95991941600005,65.44363225000052,65.45391645800191,,,,,,,,,,,,,,,,,,,,,,,,,,,,,sub-156,1,random_dot,122.8227744091311,
right,right,5.0,1.0,2.0,left,0.0,5.367969833001553,,,,,,2.0,1.0,5.0,1.0,,,,,,,,,65.45391645800191,,,,,,,,,65.44397116600157,65.79345145800107,66.58597358300176,66.57688566600336,66.57732287500039,66.58597358300176,66.58597358300176,66.58597358300176,71.57061566600169,71.96156079100183,left,0.0,5.367969833001553,,71.96463512500122,71.9736335000016,72.46013170800143,72.47059808300037,,,,,,,,,,,,,,,,,,,,,,,,,,,,,sub-156,1,random_dot,122.8227744091311,
left,left,6.0,0.0,3.0,right,0.0,5.412877958999161,,,,,,3.0,0.0,6.0,0.0,,,,,,,,,72.47059808300037,,,,,,,,,72.4604975000002,72.55960808300006,73.35267004100024,73.34349620800276,73.34395595800015,73.35267004100024,73.35267004100024,73.35267004100024,78.33714775000044,78.77235462500175,right,0.0,5.412877958999161,,78.77260920800109,78.78206954100096,79.27076025000133,79.27634562500316,,,,,,,,,,,,,,,,,,,,,,,,,,,,,sub-156,1,random_dot,122.8227744091311,
right,right,7.0,1.0,3.0,left,0.0,5.355354333001742,,,,,,3.0,1.0,7.0,1.0,,,,,,,,,79.27634562500316,,,,,,,,,79.27112483300152,79.62073341600262,80.41271041600339,80.40420733300198,80.4047479159999,80.41271041600339,80.41271041600339,80.41271041600339,85.40392595800222,85.77219358300135,left,0.0,5.355354333001742,,85.77242975000263,85.78172820800319,86.27089304100082,86.27686658300081,,,,,,,,,,,,,,,,,,,,,,,,,,,,,sub-156,1,random_dot,122.8227744091311,
right,right,8.0,0.0,4.0,left,0.0,5.912946458000079,,,,,,4.0,0.0,8.0,1.0,,,,,,,,,86.27686658300081,,,,,,,,,86.27133845800199,87.07074087500223,87.86264200000005,87.85418258299978,87.85476883299998,87.86264200000005,87.86264200000005,87.86264200000005,92.84381320800094,93.77812658300172,left,0.0,5.912946458000079,,93.77830095800164,93.80365054100184,94.28748904100212,,,,,,,,,,,,,,,,,,,,,,,,,,,,,,sub-156,1,random_dot,122.8227744091311,
left,left,9.0,1.0,4.0,right,0.0,5.451093583000329,,,,,,4.0,1.0,9.0,0.0,,,,,,,,,94.29341870800272,,,,,,,,,94.28796225000042,94.37614583300092,95.16937141600285,95.16014808300316,95.16058979100126,95.16937141600285,95.16937141600285,95.16937141600285,100.1540296250023,100.622240333003,right,0.0,5.451093583000329,,100.62248379100129,100.62889679100044,101.1209751250026,101.12692154100296,,,,,,,,,,,,,,,,,,,,,,,,,,,,,sub-156,1,random_dot,122.8227744091311,
left,left,10.0,0.0,5.0,left,1.0,5.429251375000604,,,,,,5.0,0.0,10.0,0.0,,,,,,,,,101.12692154100296,,,,,,,,,101.12141266600156,102.32064991600056,103.11298191600144,103.1042606660012,103.10480058300163,103.11298191600144,103.11298191600144,103.11298191600144,108.10387187500235,108.5456527910028,left,1.0,5.429251375000604,,108.54961925000316,108.5600305830012,109.04379283300295,109.0542290000012,,,,,,,,,,,,,,,,,,,,,,,,,,,,,sub-156,1,random_dot,122.8227744091311,
right,right,11.0,1.0,5.0,left,0.0,5.450205165998341,,,,,,5.0,1.0,11.0,1.0,,,,,,,,,109.0542290000012,,,,,,,,,109.0442327080018,109.39376683299996,110.18679612500272,110.17635112500284,110.17680466599997,110.18679612500272,110.18679612500272,110.18679612500272,115.17070904100184,115.6388420000003,left,0.0,5.450205165998341,,115.64293966600236,115.6526762909998,116.13771658300176,116.14373787500152,,,,,,,,,,,,,,,,,,,,,,,,,,,,,sub-156,1,random_dot,122.8227744091311,
left,left,12.0,0.0,6.0,right,0.0,5.390376875002403,,,,,,6.0,0.0,12.0,0.0,,,,,,,,,116.14373787500152,,,,,,,,,116.13816708300146,116.93743825000274,117.72977820800224,117.72112175000076,117.72167254099986,117.72977820800224,117.72977820800224,117.72977820800224,122.72064166600104,123.12198975000138,right,0.0,5.390376875002403,,123.1221566660024,123.12836883300042,123.6210170000013,123.6269267500029,,,,,,,,,,,,,,,,,,,,,,,,,,,,,sub-156,1,random_dot,122.8227744091311,
right,right,13.0,1.0,6.0,left,0.0,5.322628875001101,,,,,,6.0,1.0,13.0,1.0,,,,,,,,,123.6269267500029,,,,,,,,,123.62146050000229,124.8207691250027,125.61231462500292,125.60431879099995,125.60474145800254,125.61231462500292,125.61231462500292,125.61231462500292,130.59414000000106,130.93896841600144,left,0.0,5.322628875001101,,130.93918295800177,130.94872537500123,131.43776970800172,131.44369237499996,,,,,,,,,,,,,,,,,,,,,,,,,,,,,sub-156,1,random_dot,122.8227744091311,
left,left,14.0,0.0,7.0,right,0.0,5.439360625001427,,,,,,7.0,0.0,14.0,0.0,,,,,,,,,131.44369237499996,,,,,,,,,131.4382129580008,131.7874178330021,132.58003691600243,132.57119695800066,132.57177308300015,132.58003691600243,132.58003691600243,132.58003691600243,137.57077104100244,138.02232441600063,right,0.0,5.439360625001427,,138.02254308300326,138.02894008300063,138.5211715000005,138.52726308300043,,,,,,,,,,,,,,,,,,,,,,,,,,,,,sub-156,1,random_dot,122.8227744091311,
right,right,15.0,1.0,7.0,left,0.0,5.335329792000266,,,,,,7.0,1.0,15.0,1.0,,,,,,,,,138.52726308300043,,,,,,,,,138.52166604100057,138.6209960410015,139.41333787500116,139.40454387499994,139.40514741600057,139.41333787500116,139.41333787500116,139.41333787500116,144.4043231659998,144.75602891600283,left,0.0,5.335329792000266,,144.75625700000091,144.76590479100196,145.2545327910011,145.26062683300188,,,,,,,,,,,,,,,,,,,,,,,,,,,,,sub-156,1,random_dot,122.8227744091311,
right,right,16.0,0.0,8.0,left,0.0,5.477958833002049,,,,,,8.0,0.0,16.0,1.0,,,,,,,,,145.26062683300188,,,,,,,,,145.25502104100087,145.3543234580029,146.1455371660013,146.13763400000244,146.13804745800007,146.1455371660013,146.1455371660013,146.1455371660013,151.1269652080009,151.62781133300086,left,0.0,5.477958833002049,,151.62792929100033,151.6374020000003,152.12111970800106,152.12732787500136,,,,,,,,,,,,,,,,,,,,,,,,,,,,,sub-156,1,random_dot,122.8227744091311,
left,left,17.0,1.0,8.0,right,0.0,5.336825667000085,,,,,,8.0,1.0,17.0,0.0,,,,,,,,,152.12732787500136,,,,,,,,,152.12159579100262,152.22775408300004,153.0284529160017,153.021065541001,153.02141704099995,153.0284529160017,153.0284529160017,153.0284529160017,158.0107676660009,158.372538333002,right,0.0,5.336825667000085,,158.37275870800295,158.3821586660015,158.87107754099998,158.87708250000287,,,,,,,,,,,,,,,,,,,,,,,,,,,,,sub-156,1,random_dot,122.8227744091311,
right,right,18.0,0.0,9.0,left,0.0,5.472751833000075,,,,,,9.0,0.0,18.0,1.0,,,,,,,,,158.87708250000287,,,,,,,,,158.87152604100265,159.6709085830007,160.46240608300286,160.45442545800324,160.45484116599982,160.46240608300286,160.46240608300286,160.46240608300286,165.45428000000177,165.93857916600246,left,0.0,5.472751833000075,,165.93870512500143,165.94748312500087,166.43805466600315,166.44430312500117,,,,,,,,,,,,,,,,,,,,,,,,,,,,,sub-156,1,random_dot,122.8227744091311,
left,left,19.0,1.0,9.0,right,0.0,5.416108458000963,,,,,,9.0,1.0,19.0,0.0,,,,,,,,,166.44430312500117,,,,,,,,,166.43852687500112,166.52756800000134,167.31991400000334,167.310576666001,167.31111512500138,167.31991400000334,167.31991400000334,167.31991400000334,172.30301133300236,172.73953204100326,right,0.0,5.416108458000963,,172.73978166600136,172.74965179100036,173.23812620800163,173.24669429100322,,,,,,,,,,,,,,,,,,,,,,,,,,,,,sub-156,1,random_dot,122.8227744091311,
,,,,,,,,,,,,,,,,,,,,,,,,,,,,,,,,,,,,,,,,,,,,,,,,,,,,173.2382892500027,173.24669429100322,173.24669429100322,176.7223557080033,space,3.4722325000002456,,,,,,,,,,,,,,,,,,,,,,,sub-156,1,random_dot,122.8227744091311,
,,,,,,,,,,,,,,,,,,,,,,,,,,,,,,,,,,,,,,,,,,,,,,,,,,,,,,,,,,,176.72251587500068,176.73611312499995,176.73611312499995,181.81120825000107,space,5.07345400000122,,,,,,,,,,,,,,,,sub-156,1,random_dot,122.8227744091311,
right,right,0.0,0.0,0.0,right,1.0,5.303793584000232,,accuracy,space,3.530543291999493,,,,,,0.0,0.0,0.0,0.0,0.0,0.0,0.0,1.0,185.3971107500001,,,,,,,,,185.3879064160028,186.1773858330016,186.96972458300297,186.96068350000127,186.96122670800105,186.96972458300297,186.96972458300297,186.96972458300297,191.9542521250005,192.2784656250005,,,,,,,,,,,,,,,,,,,,,,,181.83468737500152,181.8439131250016,181.8439131250016,185.37842637500216,space,3.530543291999493,,right,1.0,5.303793584000232,,,,,sub-156,1,random_dot,122.8227744091311,
left,left,1.0,1.0,0.0,right,0.0,5.365013957998599,,accuracy,space,3.530543291999493,,,,,,0.0,0.0,0.0,0.0,0.0,1.0,1.0,0.0,192.28832316600165,,,,,,,,,192.27909058300065,193.4771827910008,194.27022200000283,194.2607205830027,194.26127458300107,194.27022200000283,194.27022200000283,194.27022200000283,199.25300445800167,199.63905483300184,,,,,,,,,,,,,,,,,,,,,,,,,,,,,,right,0.0,5.365013957998599,,,,,sub-156,1,random_dot,122.8227744091311,
left,left,2.0,0.0,1.0,left,1.0,5.3861203330016,,accuracy,space,3.530543291999493,,,,,,0.0,0.0,0.0,0.0,1.0,0.0,2.0,0.0,199.64822450000065,,,,,,,,,199.63971241600305,200.43772033300047,201.22971866599983,201.2213159580024,201.22185233300115,201.22971866599983,201.22971866599983,201.22971866599983,206.22109662500225,206.6227026660017,,,,,,,,,,,,,,,,,,,,,,,,,,,,,,left,1.0,5.3861203330016,,,,,sub-156,1,random_dot,122.8227744091311,
right,right,3.0,1.0,1.0,left,0.0,5.275787582999328,,accuracy,space,3.530543291999493,,,,,,0.0,0.0,0.0,0.0,1.0,1.0,3.0,1.0,206.6318880830004,,,,,,,,,206.62349954100137,206.7210337500001,207.51322033300312,207.50472308300232,207.50530841600263,207.51322033300312,207.51322033300312,207.51322033300312,212.49417387500216,212.7953426660024,,,,,,,,,,,,,,,,,,,,,,,,,,,,,,left,0.0,5.275787582999328,,,,,sub-156,1,random_dot,122.8227744091311,
left,left,4.0,0.0,2.0,right,0.0,5.386964749999606,,accuracy,space,3.530543291999493,,,,,,0.0,0.0,0.0,0.0,2.0,0.0,4.0,0.0,212.8047435000008,,,,,,,,,212.7959504160026,213.14455187500064,213.93651887500164,213.9273120830003,213.92772662500283,213.93651887500164,213.93651887500164,213.93651887500164,218.9198524580024,219.3283896250032,,,,,,,,,,,,,,,,,,,,,,,,,,,,,,right,0.0,5.386964749999606,,,,,sub-156,1,random_dot,122.8227744091311,
right,right,5.0,1.0,2.0,left,0.0,5.340355708998686,,accuracy,space,3.530543291999493,,,,,,0.0,0.0,0.0,0.0,2.0,1.0,5.0,1.0,219.33808254100225,,,,,,,,,219.3290328330004,219.67724400000225,220.46991587500088,220.46110354100165,220.4615260000028,220.46991587500088,220.46991587500088,220.46991587500088,225.4542920410022,225.8122841660006,,,,,,,,,,,,,,,,,,,,,,,,,,,,,,left,0.0,5.340355708998686,,,,,sub-156,1,random_dot,122.8227744091311,
left,left,6.0,0.0,3.0,right,0.0,6.002358958001423,,accuracy,space,3.530543291999493,,,,,,0.0,0.0,0.0,0.0,3.0,0.0,6.0,0.0,225.81987358300103,,,,,,,,,225.8129112500028,226.16074133300208,226.95327375000124,226.9439682500015,226.9445169160026,226.95327375000124,226.95327375000124,226.95327375000124,231.9373351250033,232.96268895800316,,,,,,,,,,,,,,,,,,,,,,,,,,,,,,right,0.0,6.002358958001423,,,,,sub-156,1,random_dot,122.8227744091311,
right,right,7.0,1.0,3.0,right,1.0,5.499451375002536,,accuracy,space,3.530543291999493,,,,,,0.0,0.0,0.0,0.0,3.0,1.0,7.0,1.0,232.97256862500217,,,,,,,,,232.9634788330004,234.171808416002,234.9636427080004,234.9548307910009,234.955399208,234.9636427080004,234.9636427080004,234.9636427080004,239.9438972910029,240.47291254100128,,,,,,,,,,,,,,,,,,,,,,,,,,,,,,right,1.0,5.499451375002536,,,,,sub-156,1,random_dot,122.8227744091311,
left,left,8.0,0.0,4.0,left,1.0,5.587404916997912,,accuracy,space,3.530543291999493,,,,,,0.0,0.0,0.0,0.0,4.0,0.0,8.0,0.0,240.48236350000295,,,,,,,,,240.47370408300048,241.6710219160013,242.46341637500157,242.4547637080032,242.45538325000237,242.46341637500157,242.46341637500157,242.46341637500157,247.4439042080012,248.05609141600144,,,,,,,,,,,,,,,,,,,,,,,,,,,,,,left,1.0,5.587404916997912,,,,,sub-156,1,random_dot,122.8227744091311,
right,right,9.0,1.0,4.0,right,1.0,5.606397874998947,,accuracy,space,3.530543291999493,,,,,,0.0,0.0,0.0,0.0,4.0,1.0,9.0,1.0,248.0652336660023,,,,,,,,,248.05693433300257,248.1546023330011,248.94584020800173,248.9379454580012,248.9383832910025,248.94584020800173,248.94584020800173,248.94584020800173,253.9277005000004,254.555625666002,,,,,,,,,,,,,,,,,,,,,,,,,,,,,,right,1.0,5.606397874998947,,,,,sub-156,1,random_dot,122.8227744091311,
left,left,10.0,0.0,5.0,right,0.0,5.413522709000972,,accuracy,space,3.530543291999493,,,,,,0.0,0.0,0.0,0.0,5.0,0.0,10.0,0.0,254.56490012500217,,,,,,,,,254.55630566600303,255.35469145800016,256.14658650000274,256.1381887500029,256.1387455410004,256.14658650000274,256.14658650000274,256.14658650000274,261.1272182080029,261.562357083003,,,,,,,,,,,,,,,,,,,,,,,,,,,,,,right,0.0,5.413522709000972,,,,,sub-156,1,random_dot,122.8227744091311,
right,right,11.0,1.0,5.0,left,0.0,5.39974925000206,,accuracy,space,3.530543291999493,,,,,,0.0,0.0,0.0,0.0,5.0,1.0,11.0,1.0,261.56999233300303,,,,,,,,,261.5630289159999,261.6607790830021,262.4532758330024,262.4439675829999,262.4443942500002,262.4532758330024,262.4532758330024,262.4532758330024,267.4379239580012,267.8560851250004,,,,,,,,,,,,,,,,,,,,,,,,,,,,,,left,0.0,5.39974925000206,,,,,sub-156,1,random_dot,122.8227744091311,
left,left,12.0,0.0,6.0,right,0.0,5.413246250001976,,accuracy,space,3.530543291999493,,,,,,0.0,0.0,0.0,0.0,6.0,0.0,12.0,0.0,267.86275212500186,,,,,,,,,267.8568976660026,267.9546131660027,268.7465846660016,268.7381879580025,268.73877304100097,268.7465846660016,268.7465846660016,268.7465846660016,273.7380005410014,274.1623858330022,,,,,,,,,,,,,,,,,,,,,,,,,,,,,,right,0.0,5.413246250001976,,,,,sub-156,1,random_dot,122.8227744091311,
right,right,13.0,1.0,6.0,right,1.0,5.541377625002497,,accuracy,space,3.530543291999493,,,,,,0.0,0.0,0.0,0.0,6.0,1.0,13.0,1.0,274.17005020800207,,,,,,,,,274.1631515000008,274.9611240410013,275.7533151250027,275.744132541,275.7445454580011,275.7533151250027,275.7533151250027,275.7533151250027,280.7379699580015,281.30364729100256,,,,,,,,,,,,,,,,,,,,,,,,,,,,,,right,1.0,5.541377625002497,,,,,sub-156,1,random_dot,122.8227744091311,
right,right,14.0,0.0,7.0,left,0.0,5.433461499997065,,accuracy,space,3.530543291999493,,,,,,0.0,0.0,0.0,0.0,7.0,0.0,14.0,1.0,281.3126833330025,,,,,,,,,281.3041262080005,281.3941587500012,282.1879276660002,282.17692120799984,282.177356958,282.1879276660002,282.1879276660002,282.1879276660002,287.17126612500215,287.629862916001,,,,,,,,,,,,,,,,,,,,,,,,,,,,,,left,0.0,5.433461499997065,,,,,sub-156,1,random_dot,122.8227744091311,
left,left,15.0,1.0,7.0,left,1.0,5.537992041998223,,accuracy,space,3.530543291999493,,,,,,0.0,0.0,0.0,0.0,7.0,1.0,15.0,0.0,287.6394459580006,,,,,,,,,287.6303617500016,287.97775091600124,288.77011033300005,288.76100475000203,288.7614437910015,288.77011033300005,288.77011033300005,288.77011033300005,293.7547078330026,294.3132875830015,,,,,,,,,,,,,,,,,,,,,,,,,,,,,,left,1.0,5.537992041998223,,,,,sub-156,1,random_dot,122.8227744091311,
left,left,16.0,0.0,8.0,left,1.0,5.441384958001436,,accuracy,space,3.530543291999493,,,,,,0.0,0.0,0.0,0.0,8.0,0.0,16.0,0.0,294.32679262500096,,,,,,,,,294.3141165410016,295.51033825000195,296.3034013329998,296.2942879580005,296.29474200000186,296.3034013329998,296.3034013329998,296.3034013329998,301.2869194160012,301.75640725000267,,,,,,,,,,,,,,,,,,,,,,,,,,,,,,left,1.0,5.441384958001436,,,,,sub-156,1,random_dot,122.8227744091311,
right,right,17.0,1.0,8.0,left,0.0,5.3891776249984105,,accuracy,space,3.530543291999493,,,,,,0.0,0.0,0.0,0.0,8.0,1.0,17.0,1.0,301.7657887500027,,,,,,,,,301.75719395800115,302.10473520800224,302.8969517910009,302.8883884160023,302.8889985410024,302.8969517910009,302.8969517910009,302.8969517910009,307.8776697500034,308.2893813330011,,,,,,,,,,,,,,,,,,,,,,,,,,,,,,left,0.0,5.3891776249984105,,,,,sub-156,1,random_dot,122.8227744091311,
right,right,18.0,0.0,9.0,left,0.0,5.440511042001162,,accuracy,space,3.530543291999493,,,,,,0.0,0.0,0.0,0.0,9.0,0.0,18.0,1.0,308.2987226660007,,,,,,,,,308.2900595000028,309.0881095830009,309.87949420800214,309.8715308750034,309.87198725000053,309.87949420800214,309.87949420800214,309.87949420800214,314.86135766600273,315.3230915410022,,,,,,,,,,,,,,,,,,,,,,,,,,,,,,left,0.0,5.440511042001162,,,,,sub-156,1,random_dot,122.8227744091311,
left,left,19.0,1.0,9.0,left,1.0,5.647864624999784,,accuracy,space,3.530543291999493,,,,,,0.0,0.0,0.0,0.0,9.0,1.0,19.0,0.0,315.329495541002,,,,,,,,,315.32389825000064,315.42157170800056,316.21369616599986,316.2051292080032,316.2057097500001,316.21369616599986,316.21369616599986,316.21369616599986,321.20492970800115,321.8725987910002,,,,,,,,,,,,,,,,,,,,,,,,,,,,,,left,1.0,5.647864624999784,,,,,sub-156,1,random_dot,122.8227744091311,
left,left,20.0,0.0,10.0,right,0.0,5.611904208999476,,accuracy,space,3.530543291999493,,,,,,0.0,0.0,0.0,0.0,10.0,0.0,20.0,0.0,321.8817635000014,,,,,,,,,321.87318787500044,321.9715565830011,322.7637057080028,322.75508825,322.7556612910012,322.7637057080028,322.7637057080028,322.7637057080028,327.7441683750003,328.3790950830007,,,,,,,,,,,,,,,,,,,,,,,,,,,,,,right,0.0,5.611904208999476,,,,,sub-156,1,random_dot,122.8227744091311,
right,right,21.0,1.0,10.0,right,1.0,5.296839792001265,,accuracy,space,3.530543291999493,,,,,,0.0,0.0,0.0,0.0,10.0,1.0,21.0,1.0,328.38862500000323,,,,,,,,,328.37974179100274,328.47767475,329.2711159999999,329.26065437500074,329.2610846250027,329.2711159999999,329.2711159999999,329.2711159999999,334.2542229160026,334.5725437910005,,,,,,,,,,,,,,,,,,,,,,,,,,,,,,right,1.0,5.296839792001265,,,,,sub-156,1,random_dot,122.8227744091311,
right,right,22.0,0.0,11.0,left,0.0,5.312567000000854,,accuracy,space,3.530543291999493,,,,,,0.0,0.0,0.0,0.0,11.0,0.0,22.0,1.0,334.58183129100144,,,,,,,,,334.5730497080003,335.77139983300003,336.5638281660031,336.5551212910032,336.5557293330021,336.5638281660031,336.5638281660031,336.5638281660031,341.5443120830023,341.8793896660027,,,,,,,,,,,,,,,,,,,,,,,,,,,,,,left,0.0,5.312567000000854,,,,,sub-156,1,random_dot,122.8227744091311,
left,left,23.0,1.0,11.0,left,1.0,5.480325750002521,,accuracy,space,3.530543291999493,,,,,,0.0,0.0,0.0,0.0,11.0,1.0,23.0,0.0,341.8870144160028,,,,,,,,,341.88019562500267,343.0778641659999,343.8702584160019,343.8610909160016,343.8615407910001,343.8702584160019,343.8702584160019,343.8702584160019,348.85494333300085,349.35682508300306,,,,,,,,,,,,,,,,,,,,,,,,,,,,,,left,1.0,5.480325750002521,,,,,sub-156,1,random_dot,122.8227744091311,
right,right,24.0,0.0,12.0,right,1.0,5.568094709000434,,accuracy,space,3.530543291999493,,,,,,0.0,0.0,0.0,0.0,12.0,0.0,24.0,1.0,349.3663279160028,,,,,,,,,349.3576445409999,350.5548630410012,351.3469734160026,351.3385561660034,351.33911287500086,351.3469734160026,351.3469734160026,351.3469734160026,356.3383199580021,356.92333583300206,,,,,,,,,,,,,,,,,,,,,,,,,,,,,,right,1.0,5.568094709000434,,,,,sub-156,1,random_dot,122.8227744091311,
left,left,25.0,1.0,12.0,left,1.0,5.537869583000429,,accuracy,space,3.530543291999493,,,,,,0.0,0.0,0.0,0.0,12.0,1.0,25.0,0.0,356.93237158300326,,,,,,,,,356.9241136660021,358.12149133300045,358.91362800000206,358.9051546660012,358.9056915830006,358.91362800000206,358.91362800000206,358.91362800000206,363.9050545830032,364.4564740000024,,,,,,,,,,,,,,,,,,,,,,,,,,,,,,left,1.0,5.537869583000429,,,,,sub-156,1,random_dot,122.8227744091311,
left,left,26.0,0.0,13.0,right,0.0,5.723697334000462,,accuracy,space,3.530543291999493,,,,,,0.0,0.0,0.0,0.0,13.0,0.0,26.0,0.0,364.4655834580008,,,,,,,,,364.4572800000024,365.6549092910027,366.4470959999999,366.43839104100334,366.4389580410025,366.4470959999999,366.4470959999999,366.4470959999999,371.4382960410003,372.1725330000008,,,,,,,,,,,,,,,,,,,,,,,,,,,,,,right,0.0,5.723697334000462,,,,,sub-156,1,random_dot,122.8227744091311,
right,right,27.0,1.0,13.0,right,1.0,5.442488542001229,,accuracy,space,3.530543291999493,,,,,,0.0,0.0,0.0,0.0,13.0,1.0,27.0,1.0,372.1783412910008,,,,,,,,,372.1730236250005,372.511294750002,373.303801666003,373.2942402910012,373.2946878330004,373.303801666003,373.303801666003,373.303801666003,378.2878782910011,378.75684233300126,,,,,,,,,,,,,,,,,,,,,,,,,,,,,,right,1.0,5.442488542001229,,,,,sub-156,1,random_dot,122.8227744091311,
right,right,28.0,0.0,14.0,left,0.0,5.468548917000589,,accuracy,space,3.530543291999493,,,,,,0.0,0.0,0.0,0.0,14.0,0.0,28.0,1.0,378.7663135830008,,,,,,,,,378.7576241250026,379.5551876250029,380.3472821659998,380.3387117910024,380.3392794160027,380.3472821659998,380.3472821659998,380.3472821659998,385.3383090410025,385.8232715000013,,,,,,,,,,,,,,,,,,,,,,,,,,,,,,left,0.0,5.468548917000589,,,,,sub-156,1,random_dot,122.8227744091311,
left,left,29.0,1.0,14.0,left,1.0,5.322530665998784,,accuracy,space,3.530543291999493,,,,,,0.0,0.0,0.0,0.0,14.0,1.0,29.0,0.0,385.83236725000097,,,,,,,,,385.8240354580012,387.0217530830014,387.8141115409999,387.8054850000008,387.8060650410007,387.8141115409999,387.8141115409999,387.8141115409999,392.8050550000007,393.13990937500057,,,,,,,,,,,,,,,,,,,,,,,,,,,,,,left,1.0,5.322530665998784,,,,,sub-156,1,random_dot,122.8227744091311,
left,left,30.0,0.0,15.0,right,0.0,5.520174290999421,,accuracy,space,3.530543291999493,,,,,,0.0,0.0,0.0,0.0,15.0,0.0,30.0,0.0,393.1464508750032,,,,,,,,,393.1406960830027,393.23826616600127,394.0302498750025,394.0219584160004,394.0224939159998,394.0302498750025,394.0302498750025,394.0302498750025,399.021618666,399.5567762080027,,,,,,,,,,,,,,,,,,,,,,,,,,,,,,right,0.0,5.520174290999421,,,,,sub-156,1,random_dot,122.8227744091311,
right,right,31.0,1.0,15.0,left,0.0,5.397298625000985,,accuracy,space,3.530543291999493,,,,,,0.0,0.0,0.0,0.0,15.0,1.0,31.0,1.0,399.5630950830018,,,,,,,,,399.5575907910024,400.7550841250013,401.547505333001,401.5386266250025,401.5391855000016,401.547505333001,401.547505333001,401.547505333001,406.5385591250015,406.9461463330008,,,,,,,,,,,,,,,,,,,,,,,,,,,,,,left,0.0,5.397298625000985,,,,,sub-156,1,random_dot,122.8227744091311,
right,right,32.0,0.0,16.0,left,0.0,5.3281350409997685,,accuracy,space,3.530543291999493,,,,,,0.0,0.0,0.0,0.0,16.0,0.0,32.0,1.0,406.9538445830003,,,,,,,,,406.94691958300245,407.29519187500046,408.0871734160028,408.0781622499999,408.0785672910024,408.0871734160028,408.0871734160028,408.0871734160028,413.0716386250024,413.4236667080004,,,,,,,,,,,,,,,,,,,,,,,,,,,,,,left,0.0,5.3281350409997685,,,,,sub-156,1,random_dot,122.8227744091311,
left,left,33.0,1.0,16.0,right,0.0,5.43810108300022,,accuracy,space,3.530543291999493,,,,,,0.0,0.0,0.0,0.0,16.0,1.0,33.0,0.0,413.4332571660016,,,,,,,,,413.42445954100185,413.5218671250004,414.31429395800296,414.30548279100185,414.3060437500026,414.31429395800296,414.31429395800296,414.31429395800296,419.3050015410008,419.7565899580004,,,,,,,,,,,,,,,,,,,,,,,,,,,,,,right,0.0,5.43810108300022,,,,,sub-156,1,random_dot,122.8227744091311,
right,right,34.0,0.0,17.0,left,0.0,5.597971415998472,,accuracy,space,3.530543291999493,,,,,,0.0,0.0,0.0,0.0,17.0,0.0,34.0,1.0,419.765484333002,,,,,,,,,419.75737850000223,419.8550802080026,420.64740504100337,420.6387620410024,420.6393283329999,420.64740504100337,420.64740504100337,420.64740504100337,425.6279175000018,426.2566935000032,,,,,,,,,,,,,,,,,,,,,,,,,,,,,,left,0.0,5.597971415998472,,,,,sub-156,1,random_dot,122.8227744091311,
left,left,35.0,1.0,17.0,right,0.0,5.488836499996978,,accuracy,space,3.530543291999493,,,,,,0.0,0.0,0.0,0.0,17.0,1.0,35.0,0.0,426.26627225000266,,,,,,,,,426.2574784160024,427.4552372910002,428.247091291003,428.23869795800056,428.23923504100094,428.247091291003,428.247091291003,428.247091291003,433.23874808300025,433.7399324160033,,,,,,,,,,,,,,,,,,,,,,,,,,,,,,right,0.0,5.488836499996978,,,,,sub-156,1,random_dot,122.8227744091311,
right,right,36.0,0.0,18.0,right,1.0,5.534546124999906,,accuracy,space,3.530543291999493,,,,,,0.0,0.0,0.0,0.0,18.0,0.0,36.0,1.0,433.74919837500056,,,,,,,,,433.7407338330013,434.088352625,434.88076758300303,434.872159458002,434.8727339160032,434.88076758300303,434.88076758300303,434.88076758300303,439.8617489160024,440.42293025000254,,,,,,,,,,,,,,,,,,,,,,,,,,,,,,right,1.0,5.534546124999906,,,,,sub-156,1,random_dot,122.8227744091311,
left,left,37.0,1.0,18.0,left,1.0,5.3702357090005535,,accuracy,space,3.530543291999493,,,,,,0.0,0.0,0.0,0.0,18.0,1.0,37.0,0.0,440.4318108330008,,,,,,,,,440.42339929100126,440.520891125001,441.314010625003,441.30560470800265,441.3061790000029,441.314010625003,441.314010625003,441.314010625003,446.29524829100046,446.69023695800206,,,,,,,,,,,,,,,,,,,,,,,,,,,,,,left,1.0,5.3702357090005535,,,,,sub-156,1,random_dot,122.8227744091311,
right,right,38.0,0.0,19.0,right,1.0,5.472348041999794,,accuracy,space,3.530543291999493,,,,,,0.0,0.0,0.0,0.0,19.0,0.0,38.0,1.0,446.6994164580028,,,,,,,,,446.6910280830016,446.7885590000005,447.5806479580024,447.5720910000018,447.572660916001,447.5806479580024,447.5806479580024,447.5806479580024,452.5718248330013,453.0562875830001,,,,,,,,,,,,,,,,,,,,,,,,,,,,,,right,1.0,5.472348041999794,,,,,sub-156,1,random_dot,122.8227744091311,
left,left,39.0,1.0,19.0,left,1.0,5.458607166998263,,accuracy,space,3.530543291999493,,,,,,0.0,0.0,0.0,0.0,19.0,1.0,39.0,0.0,453.0654862500014,,,,,,,,,453.05693087500185,453.1552300830008,453.9476605830023,453.9390783750023,453.9396323330002,453.9476605830023,453.9476605830023,453.9476605830023,458.92839450000247,459.41314141600014,,,,,,,,,,,,,,,,,,,,,,,,,,,,,,left,1.0,5.458607166998263,,,,,sub-156,1,random_dot,122.8227744091311,
right,right,40.0,0.0,20.0,right,1.0,5.633254000000306,,accuracy,space,3.530543291999493,,,,,,0.0,0.0,0.0,0.0,20.0,0.0,40.0,1.0,459.4227307910005,,,,,,,,,459.4137635830011,460.61163116600073,461.40403033300026,461.3948954160005,461.3953084160021,461.40403033300026,461.40403033300026,461.40403033300026,466.3885699580024,467.0402133750031,,,,,,,,,,,,,,,,,,,,,,,,,,,,,,right,1.0,5.633254000000306,,,,,sub-156,1,random_dot,122.8227744091311,
left,left,41.0,1.0,20.0,left,1.0,5.453940082999907,,accuracy,space,3.530543291999493,,,,,,0.0,0.0,0.0,0.0,20.0,1.0,41.0,0.0,467.0462757910027,,,,,,,,,467.041017083,467.1385087910021,467.9307115830016,467.9223131250001,467.9228870410007,467.9307115830016,467.9307115830016,467.9307115830016,472.91185750000295,473.3898052500008,,,,,,,,,,,,,,,,,,,,,,,,,,,,,,left,1.0,5.453940082999907,,,,,sub-156,1,random_dot,122.8227744091311,
right,right,42.0,0.0,21.0,left,0.0,5.640021792001789,,accuracy,space,3.530543291999493,,,,,,0.0,0.0,0.0,0.0,21.0,0.0,42.0,1.0,473.39893595800095,,,,,,,,,473.390566625003,473.7385716660028,474.5310022500016,474.52226662500107,474.5228287910031,474.5310022500016,474.5310022500016,474.5310022500016,479.52189900000303,480.17289320800046,,,,,,,,,,,,,,,,,,,,,,,,,,,,,,left,0.0,5.640021792001789,,,,,sub-156,1,random_dot,122.8227744091311,
left,left,43.0,1.0,21.0,right,0.0,5.572755416000291,,accuracy,space,3.530543291999493,,,,,,0.0,0.0,0.0,0.0,21.0,1.0,43.0,0.0,480.1786893330027,,,,,,,,,480.1732960830013,480.26179033300286,481.0541203749999,481.04523154100025,481.0456526660018,481.0541203749999,481.0541203749999,481.0541203749999,486.038236458,486.6295427500008,,,,,,,,,,,,,,,,,,,,,,,,,,,,,,right,0.0,5.572755416000291,,,,,sub-156,1,random_dot,122.8227744091311,
right,right,44.0,0.0,22.0,left,0.0,3.3675137080026616,,accuracy,space,3.530543291999493,,,,,,0.0,0.0,0.0,0.0,22.0,0.0,44.0,1.0,486.63939700000265,,,,,,,,,486.6301756660032,487.82823895800175,488.62107845799983,488.6119160830021,488.6124413329999,488.62107845799983,488.62107845799983,488.62107845799983,,491.99017629100126,,,,,,,,,,,,,,,,,,,,,,,,,,,,,,left,0.0,3.3675137080026616,,,,,sub-156,1,random_dot,122.8227744091311,
left,left,45.0,1.0,22.0,left,1.0,1.4574800419977691,,accuracy,space,3.530543291999493,,,,,,0.0,0.0,0.0,0.0,22.0,1.0,45.0,0.0,491.9963757500009,,,,,,,,,491.9907915830008,493.1889642500028,493.9810340830009,493.9724060000008,493.9729934580028,493.9810340830009,493.9810340830009,493.9810340830009,,495.4402920829998,,,,,,,,,,,,,,,,,,,,,,,,,,,,,,left,1.0,1.4574800419977691,,,,,sub-156,1,random_dot,122.8227744091311,
left,left,46.0,0.0,23.0,left,1.0,1.3008354590019735,,accuracy,space,3.530543291999493,,,,,,0.0,0.0,0.0,0.0,23.0,0.0,46.0,0.0,495.4466251660015,,,,,,,,,495.44105008300176,495.78867750000063,496.5806553330003,496.5721740410008,496.572741750002,496.5806553330003,496.5806553330003,496.5806553330003,,497.88881166600186,,,,,,,,,,,,,,,,,,,,,,,,,,,,,,left,1.0,1.3008354590019735,,,,,sub-156,1,random_dot,122.8227744091311,
right,right,47.0,1.0,23.0,right,1.0,1.3885217089991784,,accuracy,space,3.530543291999493,,,,,,0.0,0.0,0.0,0.0,23.0,1.0,47.0,1.0,497.8981319580016,,,,,,,,,497.8894607910006,498.6783169580012,499.47088325,499.4615809160023,499.4621084580031,499.47088325,499.47088325,499.47088325,,500.8643619579998,,,,,,,,,,,,,,,,,,,,,,,,,,,,,,right,1.0,1.3885217089991784,,,,,sub-156,1,random_dot,122.8227744091311,
right,right,48.0,0.0,24.0,left,0.0,1.853207833002671,,accuracy,space,3.530543291999493,,,,,,0.0,0.0,0.0,0.0,24.0,0.0,48.0,1.0,500.8737348750001,,,,,,,,,500.8649237910031,502.06114920800246,502.8541217080019,502.84503708300326,502.8454507500028,502.8541217080019,502.8541217080019,502.8541217080019,,504.7122234160015,,,,,,,,,,,,,,,,,,,,,,,,,,,,,,left,0.0,1.853207833002671,,,,,sub-156,1,random_dot,122.8227744091311,
left,left,49.0,1.0,24.0,left,1.0,2.9685861250000016,,accuracy,space,3.530543291999493,,,,,,0.0,0.0,0.0,0.0,24.0,1.0,49.0,0.0,504.7213247079999,,,,,,,,,504.71266204100175,505.9117949580032,506.70419291600047,506.695123583002,506.6956662910016,506.70419291600047,506.70419291600047,506.70419291600047,,509.6816754580032,,,,,,,,,,,,,,,,,,,,,,,,,,,,,,left,1.0,2.9685861250000016,,,,,sub-156,1,random_dot,122.8227744091311,
left,left,50.0,0.0,25.0,left,1.0,2.934325666999939,,accuracy,space,3.530543291999493,,,,,,0.0,0.0,0.0,0.0,25.0,0.0,50.0,0.0,509.6913741660028,,,,,,,,,509.6820520410001,510.4784464580007,511.2713281249999,511.2619232500001,511.2624542910016,511.2713281249999,511.2713281249999,511.2713281249999,,514.2145974580017,,,,,,,,,,,,,,,,,,,,,,,,,,,,,,left,1.0,2.934325666999939,,,,,sub-156,1,random_dot,122.8227744091311,
right,right,51.0,1.0,25.0,left,0.0,1.7903237499995155,,accuracy,space,3.530543291999493,,,,,,0.0,0.0,0.0,0.0,25.0,1.0,51.0,1.0,514.2240841660023,,,,,,,,,514.2151764580012,515.0117990830004,515.8042311660029,515.795220041,515.7956404160032,515.8042311660029,515.8042311660029,515.8042311660029,,517.5966737500021,,,,,,,,,,,,,,,,,,,,,,,,,,,,,,left,0.0,1.7903237499995155,,,,,sub-156,1,random_dot,122.8227744091311,
left,left,52.0,0.0,26.0,right,0.0,0.7048164160005399,,accuracy,space,3.530543291999493,,,,,,0.0,0.0,0.0,0.0,26.0,0.0,52.0,0.0,517.6043620410019,,,,,,,,,517.5972610410026,518.3950877080024,519.1876710830002,519.1783781250015,519.1789125410032,519.1876710830002,519.1876710830002,519.1876710830002,,519.8968097910001,,,,,,,,,,,,,,,,,,,,,,,,,,,,,,right,0.0,0.7048164160005399,,,,,sub-156,1,random_dot,122.8227744091311,
right,right,53.0,1.0,26.0,left,0.0,1.6491355409998505,,accuracy,space,3.530543291999493,,,,,,0.0,0.0,0.0,0.0,26.0,1.0,53.0,1.0,519.9220547080004,,,,,,,,,519.8973960000003,521.0950564160012,521.8882823750027,521.8779915000014,521.878414791001,521.8882823750027,521.8882823750027,521.8882823750027,,523.5389948330012,,,,,,,,,,,,,,,,,,,,,,,,,,,,,,left,0.0,1.6491355409998505,,,,,sub-156,1,random_dot,122.8227744091311,
left,left,54.0,0.0,27.0,left,1.0,0.7873941249999916,,accuracy,space,3.530543291999493,,,,,,0.0,0.0,0.0,0.0,27.0,0.0,54.0,0.0,523.5453372910015,,,,,,,,,523.5397652910033,524.3281220410026,525.1219602910023,525.111930416002,525.1124825410006,525.1219602910023,525.1219602910023,525.1219602910023,,525.9126814160009,,,,,,,,,,,,,,,,,,,,,,,,,,,,,,left,1.0,0.7873941249999916,,,,,sub-156,1,random_dot,122.8227744091311,
right,right,55.0,1.0,27.0,right,1.0,1.178817625001102,,accuracy,space,3.530543291999493,,,,,,0.0,0.0,0.0,0.0,27.0,1.0,55.0,1.0,525.9225564160006,,,,,,,,,525.9133012500024,527.1120417500024,527.9045182500013,527.8951150829998,527.8956674159999,527.9045182500013,527.9045182500013,527.9045182500013,,529.0885784580023,,,,,,,,,,,,,,,,,,,,,,,,,,,,,,right,1.0,1.178817625001102,,,,,sub-156,1,random_dot,122.8227744091311,
left,left,56.0,0.0,28.0,left,1.0,1.2393569579980976,,accuracy,space,3.530543291999493,,,,,,0.0,0.0,0.0,0.0,28.0,0.0,56.0,0.0,529.097044625003,,,,,,,,,529.0890157499998,529.4287744160029,530.2208955830029,530.2117337910022,530.2121444160002,530.2208955830029,530.2208955830029,530.2208955830029,,531.463392083002,,,,,,,,,,,,,,,,,,,,,,,,,,,,,,left,1.0,1.2393569579980976,,,,,sub-156,1,random_dot,122.8227744091311,
right,right,57.0,1.0,28.0,right,1.0,1.8289398750021064,,accuracy,space,3.530543291999493,,,,,,0.0,0.0,0.0,0.0,28.0,1.0,57.0,1.0,531.4883832910018,,,,,,,,,531.4640310410032,532.6614278330017,533.4542447080021,533.4451141660029,533.445522500002,533.4542447080021,533.4542447080021,533.4542447080021,,535.2890592080003,,,,,,,,,,,,,,,,,,,,,,,,,,,,,,right,1.0,1.8289398750021064,,,,,sub-156,1,random_dot,122.8227744091311,
right,right,58.0,0.0,29.0,left,0.0,1.6540007080002397,,accuracy,space,3.530543291999493,,,,,,0.0,0.0,0.0,0.0,29.0,0.0,58.0,1.0,535.2979065830004,,,,,,,,,535.2896400000027,536.4784851660006,537.2710810830031,537.2616738329998,537.2620788750028,537.2710810830031,537.2710810830031,537.2710810830031,,538.9293150000012,,,,,,,,,,,,,,,,,,,,,,,,,,,,,,left,0.0,1.6540007080002397,,,,,sub-156,1,random_dot,122.8227744091311,
left,left,59.0,1.0,29.0,left,1.0,1.941072041001462,,accuracy,space,3.530543291999493,,,,,,0.0,0.0,0.0,0.0,29.0,1.0,59.0,0.0,538.9389107500028,,,,,,,,,538.9299001660002,540.128471041,540.9209405410002,540.9118339160013,540.9122468750029,540.9209405410002,540.9209405410002,540.9209405410002,,542.8726373330028,,,,,,,,,,,,,,,,,,,,,,,,,,,,,,left,1.0,1.941072041001462,,,,,sub-156,1,random_dot,122.8227744091311,
,,0.0,0.0,0.0,,,,,accuracy,space,3.530543291999493,,,,,,0.0,0.0,0.0,0.0,,,,,,,,,,,,,,,,,,,,,,,,,,,,,,,,,,,,,,,,,,,,,,,,,,,,,,,,,,,,sub-156,1,random_dot,122.8227744091311,
left,left,0.0,0.0,0.0,left,1.0,0.8093015840022417,,speed,space,4.245221458000742,,,,,,0.0,1.0,1.0,1.0,0.0,0.0,0.0,0.0,547.1647040000025,,,,,,,,,547.155380375003,547.9445430830019,548.7376184580025,548.7284596250029,548.7288785830024,548.7376184580025,548.7376184580025,548.7376184580025,,549.5561528750004,,,,,,,,,,,,,,,,,,,,,,,542.887467833003,542.8958058330027,542.8958058330027,547.1457062500012,space,4.245221458000742,,left,1.0,0.8093015840022417,,,,,sub-156,1,random_dot,122.8227744091311,
right,right,1.0,1.0,0.0,left,0.0,1.1612376249977387,,speed,space,4.245221458000742,,,,,,0.0,1.0,1.0,1.0,0.0,1.0,1.0,1.0,549.5651951250002,,,,,,,,,549.5568963750011,549.8951665410023,550.6876280000033,550.678338208003,550.6787457500031,550.6876280000033,550.6876280000033,550.6876280000033,,551.8571458330007,,,,,,,,,,,,,,,,,,,,,,,,,,,,,,left,0.0,1.1612376249977387,,,,,sub-156,1,random_dot,122.8227744091311,
left,left,2.0,0.0,1.0,left,1.0,1.2667104579995794,,speed,space,4.245221458000742,,,,,,0.0,1.0,1.0,1.0,1.0,0.0,2.0,0.0,551.8664259160032,,,,,,,,,551.8578781249998,553.0555358750025,553.8470732500027,553.8390887080022,553.8395364580028,553.8470732500027,553.8470732500027,553.8470732500027,,555.1234243750005,,,,,,,,,,,,,,,,,,,,,,,,,,,,,,left,1.0,1.2667104579995794,,,,,sub-156,1,random_dot,122.8227744091311,
right,right,3.0,1.0,1.0,right,1.0,1.8522200000006703,,speed,space,4.245221458000742,,,,,,0.0,1.0,1.0,1.0,1.0,1.0,3.0,1.0,555.1328085410023,,,,,,,,,555.1241782080033,555.2221805830013,556.01453425,556.0058658330017,556.0064662080003,556.01453425,556.01453425,556.01453425,,557.8735085830012,,,,,,,,,,,,,,,,,,,,,,,,,,,,,,right,1.0,1.8522200000006703,,,,,sub-156,1,random_dot,122.8227744091311,
left,left,4.0,0.0,2.0,right,0.0,1.59228204199826,,speed,space,4.245221458000742,,,,,,0.0,1.0,1.0,1.0,2.0,0.0,4.0,0.0,557.8828142500024,,,,,,,,,557.8742377500021,558.2221909159998,559.0144503750016,559.0059965,559.0065670000004,559.0144503750016,559.0144503750016,559.0144503750016,,560.6147670000028,,,,,,,,,,,,,,,,,,,,,,,,,,,,,,right,0.0,1.59228204199826,,,,,sub-156,1,random_dot,122.8227744091311,
right,right,5.0,1.0,2.0,left,0.0,1.3922256659971026,,speed,space,4.245221458000742,,,,,,0.0,1.0,1.0,1.0,2.0,1.0,5.0,1.0,560.624243708,,,,,,,,,560.6153140410024,560.9618535410009,561.7544071250013,561.7453003330011,561.7457320829999,561.7544071250013,561.7544071250013,561.7544071250013,,563.1589456250003,,,,,,,,,,,,,,,,,,,,,,,,,,,,,,left,0.0,1.3922256659971026,,,,,sub-156,1,random_dot,122.8227744091311,
right,right,6.0,0.0,3.0,left,0.0,1.2518519580007703,,speed,space,4.245221458000742,,,,,,0.0,1.0,1.0,1.0,3.0,0.0,6.0,1.0,563.1725028750006,,,,,,,,,563.1593913329998,563.2557674580021,564.0477349160028,564.0391951250022,564.0397666250028,564.0477349160028,564.0477349160028,564.0477349160028,,565.3074768750012,,,,,,,,,,,,,,,,,,,,,,,,,,,,,,left,0.0,1.2518519580007703,,,,,sub-156,1,random_dot,122.8227744091311,
left,left,7.0,1.0,3.0,left,1.0,1.2768470409973816,,speed,space,4.245221458000742,,,,,,0.0,1.0,1.0,1.0,3.0,1.0,7.0,0.0,565.3168199160027,,,,,,,,,565.3082352910023,565.6555813750019,566.447702458001,566.4393104160008,566.439879708003,566.447702458001,566.447702458001,566.447702458001,,567.7294395830031,,,,,,,,,,,,,,,,,,,,,,,,,,,,,,left,1.0,1.2768470409973816,,,,,sub-156,1,random_dot,122.8227744091311,
right,right,8.0,0.0,4.0,left,0.0,1.3427512909984216,,speed,space,4.245221458000742,,,,,,0.0,1.0,1.0,1.0,4.0,0.0,8.0,1.0,567.7390751250023,,,,,,,,,567.7300322910014,567.8285555830007,568.6217631660002,568.6115172500031,568.611931083,568.6217631660002,568.6217631660002,568.6217631660002,,569.9734967080003,,,,,,,,,,,,,,,,,,,,,,,,,,,,,,left,0.0,1.3427512909984216,,,,,sub-156,1,random_dot,122.8227744091311,
left,left,9.0,1.0,4.0,left,1.0,1.6067431250012305,,speed,space,4.245221458000742,,,,,,0.0,1.0,1.0,1.0,4.0,1.0,9.0,0.0,569.9828285830008,,,,,,,,,569.9742604580024,570.0724344160008,570.8636820830034,570.8557668330031,570.8562156660009,570.8636820830034,570.8636820830034,570.8636820830034,,572.4733838749999,,,,,,,,,,,,,,,,,,,,,,,,,,,,,,left,1.0,1.6067431250012305,,,,,sub-156,1,random_dot,122.8227744091311,
right,right,10.0,0.0,5.0,left,0.0,1.6107132500001171,,speed,space,4.245221458000742,,,,,,0.0,1.0,1.0,1.0,5.0,0.0,10.0,1.0,572.4798157080004,,,,,,,,,572.4741392080032,572.822434208003,573.6147674580025,573.6059585000003,573.6065234580019,573.6147674580025,573.6147674580025,573.6147674580025,,575.2312750830024,,,,,,,,,,,,,,,,,,,,,,,,,,,,,,left,0.0,1.6107132500001171,,,,,sub-156,1,random_dot,122.8227744091311,
left,left,11.0,1.0,5.0,right,0.0,1.230264249999891,,speed,space,4.245221458000742,,,,,,0.0,1.0,1.0,1.0,5.0,1.0,11.0,0.0,575.2416841660015,,,,,,,,,575.2319759160018,575.5789141250025,576.371113291003,576.3620669580014,576.3625092500006,576.371113291003,576.371113291003,576.371113291003,,577.6074246250027,,,,,,,,,,,,,,,,,,,,,,,,,,,,,,right,0.0,1.230264249999891,,,,,sub-156,1,random_dot,122.8227744091311,
left,left,12.0,0.0,6.0,right,0.0,1.0696614580010646,,speed,space,4.245221458000742,,,,,,0.0,1.0,1.0,1.0,6.0,0.0,12.0,0.0,577.6166299160031,,,,,,,,,577.6081622500024,578.4057463330028,579.1976226660008,579.1891938750014,579.189755833002,579.1976226660008,579.1976226660008,579.1976226660008,,580.2730265830032,,,,,,,,,,,,,,,,,,,,,,,,,,,,,,right,0.0,1.0696614580010646,,,,,sub-156,1,random_dot,122.8227744091311,
right,right,13.0,1.0,6.0,right,1.0,1.8817929580000052,,speed,space,4.245221458000742,,,,,,0.0,1.0,1.0,1.0,6.0,1.0,13.0,1.0,580.2826653750017,,,,,,,,,580.2738148750032,580.3621238330015,581.154423041,581.1452772910015,581.1457005000011,581.154423041,581.154423041,581.154423041,,583.0389141250016,,,,,,,,,,,,,,,,,,,,,,,,,,,,,,right,1.0,1.8817929580000052,,,,,sub-156,1,random_dot,122.8227744091311,
left,left,14.0,0.0,7.0,left,1.0,1.3655935839997255,,speed,space,4.245221458000742,,,,,,0.0,1.0,1.0,1.0,7.0,0.0,14.0,0.0,583.045200833003,,,,,,,,,583.0395911660016,583.3787977080028,584.171517083003,584.1620918330009,584.1626143330031,584.171517083003,584.171517083003,584.171517083003,,585.5398019580025,,,,,,,,,,,,,,,,,,,,,,,,,,,,,,left,1.0,1.3655935839997255,,,,,sub-156,1,random_dot,122.8227744091311,
right,right,15.0,1.0,7.0,left,0.0,1.1869295420001436,,speed,space,4.245221458000742,,,,,,0.0,1.0,1.0,1.0,7.0,1.0,15.0,1.0,585.5462643750034,,,,,,,,,585.5405572080017,585.6279666660012,586.4212052500006,586.4116967080008,586.4122301660027,586.4212052500006,586.4212052500006,586.4212052500006,,587.6132643750025,,,,,,,,,,,,,,,,,,,,,,,,,,,,,,left,0.0,1.1869295420001436,,,,,sub-156,1,random_dot,122.8227744091311,
right,right,16.0,0.0,8.0,left,0.0,1.2766510840010596,,speed,space,4.245221458000742,,,,,,0.0,1.0,1.0,1.0,8.0,0.0,16.0,1.0,587.6224348750002,,,,,,,,,587.6137109160009,587.7119381660013,588.5044413750002,588.4953459160024,588.4957372080025,588.5044413750002,588.5044413750002,588.5044413750002,,589.790661125,,,,,,,,,,,,,,,,,,,,,,,,,,,,,,left,0.0,1.2766510840010596,,,,,sub-156,1,random_dot,122.8227744091311,
left,left,17.0,1.0,8.0,left,1.0,1.0097779579991766,,speed,space,4.245221458000742,,,,,,0.0,1.0,1.0,1.0,8.0,1.0,17.0,0.0,589.7997108330019,,,,,,,,,589.7913913750017,590.9891162910026,591.7812254160017,591.7726349580007,591.7732222500017,591.7812254160017,591.7812254160017,591.7812254160017,,592.7968091250004,,,,,,,,,,,,,,,,,,,,,,,,,,,,,,left,1.0,1.0097779579991766,,,,,sub-156,1,random_dot,122.8227744091311,
right,right,18.0,0.0,9.0,left,0.0,1.0530592920003985,,speed,space,4.245221458000742,,,,,,0.0,1.0,1.0,1.0,9.0,0.0,18.0,1.0,592.8060812500007,,,,,,,,,592.7972789160012,593.5956067080006,594.3878547080021,594.378848458,594.3792652910015,594.3878547080021,594.3878547080021,594.3878547080021,,595.4468324580012,,,,,,,,,,,,,,,,,,,,,,,,,,,,,,left,0.0,1.0530592920003985,,,,,sub-156,1,random_dot,122.8227744091311,
left,left,19.0,1.0,9.0,left,1.0,1.3929508330002136,,speed,space,4.245221458000742,,,,,,0.0,1.0,1.0,1.0,9.0,1.0,19.0,0.0,595.4559789580017,,,,,,,,,595.4472718750003,595.7953708330024,596.588979416003,596.5779458750003,596.5783849159998,596.588979416003,596.588979416003,596.588979416003,,597.9906322080024,,,,,,,,,,,,,,,,,,,,,,,,,,,,,,left,1.0,1.3929508330002136,,,,,sub-156,1,random_dot,122.8227744091311,
right,right,20.0,0.0,10.0,left,0.0,3.0074398329998075,,speed,space,4.245221458000742,,,,,,0.0,1.0,1.0,1.0,10.0,0.0,20.0,1.0,597.999720541,,,,,,,,,597.9913598330022,598.339189833001,599.131047875002,599.1227009160029,599.1232636250024,599.131047875002,599.131047875002,599.131047875002,,602.146512708001,,,,,,,,,,,,,,,,,,,,,,,,,,,,,,left,0.0,3.0074398329998075,,,,,sub-156,1,random_dot,122.8227744091311,
left,left,21.0,1.0,10.0,right,0.0,1.2731552500008547,,speed,space,4.245221458000742,,,,,,0.0,1.0,1.0,1.0,10.0,1.0,21.0,0.0,602.1559555410022,,,,,,,,,602.1470918330015,603.3456396250003,604.137902333001,604.1286291659999,604.1290642500026,604.137902333001,604.137902333001,604.137902333001,,605.4139370000012,,,,,,,,,,,,,,,,,,,,,,,,,,,,,,right,0.0,1.2731552500008547,,,,,sub-156,1,random_dot,122.8227744091311,
left,left,22.0,0.0,11.0,right,0.0,1.346200708001561,,speed,space,4.245221458000742,,,,,,0.0,1.0,1.0,1.0,11.0,0.0,22.0,0.0,605.4239591250007,,,,,,,,,605.414581666002,605.5120277080023,606.3047842080014,606.2949993750008,606.2954416250031,606.3047842080014,606.3047842080014,606.3047842080014,,607.6566424580014,,,,,,,,,,,,,,,,,,,,,,,,,,,,,,right,0.0,1.346200708001561,,,,,sub-156,1,random_dot,122.8227744091311,
right,right,23.0,1.0,11.0,left,0.0,0.8151104999997187,,speed,space,4.245221458000742,,,,,,0.0,1.0,1.0,1.0,11.0,1.0,23.0,1.0,607.6657944580002,,,,,,,,,607.6572668750014,608.4454127080026,609.2379583750007,609.2286831250021,609.2292419580008,609.2379583750007,609.2379583750007,609.2379583750007,,610.0572698750002,,,,,,,,,,,,,,,,,,,,,,,,,,,,,,left,0.0,0.8151104999997187,,,,,sub-156,1,random_dot,122.8227744091311,
right,right,24.0,0.0,12.0,left,0.0,1.1442541249998612,,speed,space,4.245221458000742,,,,,,0.0,1.0,1.0,1.0,12.0,0.0,24.0,1.0,610.0663047080016,,,,,,,,,610.0580241250027,610.8558745000009,611.647766541002,611.6393668750025,611.6399301660022,611.647766541002,611.647766541002,611.647766541002,,612.7979329160007,,,,,,,,,,,,,,,,,,,,,,,,,,,,,,left,0.0,1.1442541249998612,,,,,sub-156,1,random_dot,122.8227744091311,
left,left,25.0,1.0,12.0,right,0.0,1.953326541999559,,speed,space,4.245221458000742,,,,,,0.0,1.0,1.0,1.0,12.0,1.0,25.0,0.0,612.807129416,,,,,,,,,612.7983744580015,613.1453487500003,613.9386429580009,613.9285590830004,613.9289865410028,613.9386429580009,613.9386429580009,613.9386429580009,,615.8977392500019,,,,,,,,,,,,,,,,,,,,,,,,,,,,,,right,0.0,1.953326541999559,,,,,sub-156,1,random_dot,122.8227744091311,
right,right,26.0,0.0,13.0,right,1.0,1.7697594999990542,,speed,space,4.245221458000742,,,,,,0.0,1.0,1.0,1.0,13.0,0.0,26.0,1.0,615.9074043750006,,,,,,,,,615.8983021660024,616.6956620410019,617.4880337080031,617.4787164580011,617.4792740830017,617.4880337080031,617.4880337080031,617.4880337080031,,619.263763166,,,,,,,,,,,,,,,,,,,,,,,,,,,,,,right,1.0,1.7697594999990542,,,,,sub-156,1,random_dot,122.8227744091311,
left,left,27.0,1.0,13.0,right,0.0,1.1360583749992657,,speed,space,4.245221458000742,,,,,,0.0,1.0,1.0,1.0,13.0,1.0,27.0,0.0,619.2892742080003,,,,,,,,,619.2643365830008,620.0621489580008,620.8547437080015,620.8458565410001,620.8462926250031,620.8547437080015,620.8547437080015,620.8547437080015,,621.9975516250015,,,,,,,,,,,,,,,,,,,,,,,,,,,,,,right,0.0,1.1360583749992657,,,,,sub-156,1,random_dot,122.8227744091311,
right,right,28.0,0.0,14.0,left,0.0,2.7876060830021743,,speed,space,4.245221458000742,,,,,,0.0,1.0,1.0,1.0,14.0,0.0,28.0,1.0,622.0220387910013,,,,,,,,,621.9981339160004,622.3449918750011,623.1380545830034,623.129380833001,623.1298023330019,623.1380545830034,623.1380545830034,623.1380545830034,,625.9304346250028,,,,,,,,,,,,,,,,,,,,,,,,,,,,,,left,0.0,2.7876060830021743,,,,,sub-156,1,random_dot,122.8227744091311,
left,left,29.0,1.0,14.0,left,1.0,0.9643121670014808,,speed,space,4.245221458000742,,,,,,0.0,1.0,1.0,1.0,14.0,1.0,29.0,0.0,625.9400483330028,,,,,,,,,625.9310122500028,627.1288654160016,627.9212846250011,627.9122773330018,627.9127325000009,627.9212846250011,627.9212846250011,627.9212846250011,,628.890480500002,,,,,,,,,,,,,,,,,,,,,,,,,,,,,,left,1.0,0.9643121670014808,,,,,sub-156,1,random_dot,122.8227744091311,
right,right,30.0,0.0,15.0,left,0.0,1.5208597500022734,,speed,space,4.245221458000742,,,,,,0.0,1.0,1.0,1.0,15.0,0.0,30.0,1.0,628.8996929160021,,,,,,,,,628.8910877910021,629.6893005830025,630.4826620410022,630.4731234999999,630.4738180830027,630.4826620410022,630.4826620410022,630.4826620410022,,632.0064606660017,,,,,,,,,,,,,,,,,,,,,,,,,,,,,,left,0.0,1.5208597500022734,,,,,sub-156,1,random_dot,122.8227744091311,
left,left,31.0,1.0,15.0,left,1.0,0.986374916999921,,speed,space,4.245221458000742,,,,,,0.0,1.0,1.0,1.0,15.0,1.0,31.0,0.0,632.012915708001,,,,,,,,,632.0071372500024,632.7954312500005,633.5880726659998,633.5791429580022,633.5795620410026,633.5880726659998,633.5880726659998,633.5880726659998,,634.5805132080022,,,,,,,,,,,,,,,,,,,,,,,,,,,,,,left,1.0,0.986374916999921,,,,,sub-156,1,random_dot,122.8227744091311,
left,left,32.0,0.0,16.0,left,1.0,1.2928608750007695,,speed,space,4.245221458000742,,,,,,0.0,1.0,1.0,1.0,16.0,0.0,32.0,0.0,634.6054121660018,,,,,,,,,634.5811265830016,634.929039583003,635.7216059160019,635.7122908750025,635.7128549160007,635.7216059160019,635.7216059160019,635.7216059160019,,637.0242219580032,,,,,,,,,,,,,,,,,,,,,,,,,,,,,,left,1.0,1.2928608750007695,,,,,sub-156,1,random_dot,122.8227744091311,
right,right,33.0,1.0,16.0,left,0.0,0.7735917919999338,,speed,space,4.245221458000742,,,,,,0.0,1.0,1.0,1.0,16.0,1.0,33.0,1.0,637.0329956250025,,,,,,,,,637.024810916002,637.3726037080014,638.1647765410016,638.1561750830006,638.1567409160016,638.1647765410016,638.1647765410016,638.1647765410016,,638.9472296660024,,,,,,,,,,,,,,,,,,,,,,,,,,,,,,left,0.0,0.7735917919999338,,,,,sub-156,1,random_dot,122.8227744091311,
left,left,34.0,0.0,17.0,left,1.0,1.0003078749978158,,speed,space,4.245221458000742,,,,,,0.0,1.0,1.0,1.0,17.0,0.0,34.0,0.0,638.9722351660021,,,,,,,,,638.9477185410033,640.146267958,640.9479975410031,640.93937525,640.9399824160027,640.9479975410031,640.9479975410031,640.9479975410031,,641.9565210410001,,,,,,,,,,,,,,,,,,,,,,,,,,,,,,left,1.0,1.0003078749978158,,,,,sub-156,1,random_dot,122.8227744091311,
right,right,35.0,1.0,17.0,left,0.0,2.0701687919972755,,speed,space,4.245221458000742,,,,,,0.0,1.0,1.0,1.0,17.0,1.0,35.0,1.0,641.9656671660014,,,,,,,,,641.9572424160033,642.7455771250025,643.5380618750023,643.5288013330028,643.5292823750024,643.5380618750023,643.5380618750023,643.5380618750023,,645.6148279580011,,,,,,,,,,,,,,,,,,,,,,,,,,,,,,left,0.0,2.0701687919972755,,,,,sub-156,1,random_dot,122.8227744091311,
left,left,36.0,0.0,18.0,left,1.0,1.34143162500186,,speed,space,4.245221458000742,,,,,,0.0,1.0,1.0,1.0,18.0,0.0,36.0,0.0,645.6241584580021,,,,,,,,,645.6152659580002,645.962468083002,646.7547177500019,646.7455177910015,646.746076833002,646.7547177500019,646.7547177500019,646.7547177500019,,648.0975412080006,,,,,,,,,,,,,,,,,,,,,,,,,,,,,,left,1.0,1.34143162500186,,,,,sub-156,1,random_dot,122.8227744091311,
right,right,37.0,1.0,18.0,left,0.0,1.485345334000158,,speed,space,4.245221458000742,,,,,,0.0,1.0,1.0,1.0,18.0,1.0,37.0,1.0,648.104756875,,,,,,,,,648.0981570000004,648.1980372080034,648.9977835410027,648.9893409160031,648.9898879580032,648.9977835410027,648.9977835410027,648.9977835410027,,650.4908967910014,,,,,,,,,,,,,,,,,,,,,,,,,,,,,,left,0.0,1.485345334000158,,,,,sub-156,1,random_dot,122.8227744091311,
left,left,38.0,0.0,19.0,right,0.0,0.8446852499982924,,speed,space,4.245221458000742,,,,,,0.0,1.0,1.0,1.0,19.0,0.0,38.0,0.0,650.5001992910002,,,,,,,,,650.4916470410026,651.289065541001,652.0814045000006,652.0730177910009,652.0735617080027,652.0814045000006,652.0814045000006,652.0814045000006,,652.9308920000003,,,,,,,,,,,,,,,,,,,,,,,,,,,,,,right,0.0,0.8446852499982924,,,,,sub-156,1,random_dot,122.8227744091311,
right,right,39.0,1.0,19.0,right,1.0,1.2389531250009895,,speed,space,4.245221458000742,,,,,,0.0,1.0,1.0,1.0,19.0,1.0,39.0,1.0,652.9408917910005,,,,,,,,,652.9316620830032,654.1288347910013,654.922055125,654.9115172500024,654.9119483330032,654.922055125,654.922055125,654.922055125,,656.1644952500028,,,,,,,,,,,,,,,,,,,,,,,,,,,,,,right,1.0,1.2389531250009895,,,,,sub-156,1,random_dot,122.8227744091311,
left,left,40.0,0.0,20.0,right,0.0,0.4667053340017446,,speed,space,4.245221458000742,,,,,,0.0,1.0,1.0,1.0,20.0,0.0,40.0,0.0,656.1888271660027,,,,,,,,,656.1649253750002,656.962100333003,657.7552562500023,657.7450609160005,657.7454945410027,657.7552562500023,657.7552562500023,657.7552562500023,,658.2242073750022,,,,,,,,,,,,,,,,,,,,,,,,,,,,,,right,0.0,0.4667053340017446,,,,,sub-156,1,random_dot,122.8227744091311,
right,right,41.0,1.0,20.0,right,1.0,0.6019264160022431,,speed,space,4.245221458000742,,,,,,0.0,1.0,1.0,1.0,20.0,1.0,41.0,1.0,658.2305354580021,,,,,,,,,658.224959500003,659.022477208,659.8140204580013,659.8062215410027,659.806633375003,659.8140204580013,659.8140204580013,659.8140204580013,,660.422914625,,,,,,,,,,,,,,,,,,,,,,,,,,,,,,right,1.0,0.6019264160022431,,,,,sub-156,1,random_dot,122.8227744091311,
right,right,42.0,0.0,21.0,left,0.0,0.6721264590014471,,speed,space,4.245221458000742,,,,,,0.0,1.0,1.0,1.0,21.0,0.0,42.0,1.0,660.4320444160003,,,,,,,,,660.4235115830015,660.5121856660007,661.3047415830006,661.2957992910015,661.2962098330026,661.3047415830006,661.3047415830006,661.3047415830006,,661.9810245830013,,,,,,,,,,,,,,,,,,,,,,,,,,,,,,left,0.0,0.6721264590014471,,,,,sub-156,1,random_dot,122.8227744091311,
left,left,43.0,1.0,21.0,left,1.0,0.540351167001063,,speed,space,4.245221458000742,,,,,,0.0,1.0,1.0,1.0,21.0,1.0,43.0,0.0,662.0055800830014,,,,,,,,,661.9815766250031,662.0789039160009,662.8714922079998,662.8621344160019,662.8626980410008,662.8714922079998,662.8714922079998,662.8714922079998,,663.4149900410011,,,,,,,,,,,,,,,,,,,,,,,,,,,,,,left,1.0,0.540351167001063,,,,,sub-156,1,random_dot,122.8227744091311,
left,left,44.0,0.0,22.0,left,1.0,0.2611068330006674,,speed,space,4.245221458000742,,,,,,0.0,1.0,1.0,1.0,22.0,0.0,44.0,0.0,663.4248799580018,,,,,,,,,663.4156099580032,664.6123223330032,665.4047720830022,665.395081583003,665.3956545000001,665.4047720830022,665.4047720830022,665.4047720830022,,665.6728277910006,,,,,,,,,,,,,,,,,,,,,,,,,,,,,,left,1.0,0.2611068330006674,,,,,sub-156,1,random_dot,122.8227744091311,
right,right,45.0,1.0,22.0,right,1.0,0.4430569169999216,,speed,space,4.245221458000742,,,,,,0.0,1.0,1.0,1.0,22.0,1.0,45.0,1.0,665.6817869580009,,,,,,,,,665.6734328750026,666.4622997080005,667.2546870410006,667.2455005410011,667.2459291250016,667.2546870410006,667.2546870410006,667.2546870410006,,667.7074074160009,,,,,,,,,,,,,,,,,,,,,,,,,,,,,,right,1.0,0.4430569169999216,,,,,sub-156,1,random_dot,122.8227744091311,
left,left,46.0,0.0,23.0,left,1.0,0.611511374998372,,speed,space,4.245221458000742,,,,,,0.0,1.0,1.0,1.0,23.0,0.0,46.0,0.0,667.7163761660013,,,,,,,,,667.7081127910023,668.0559588330034,668.8482019160001,668.8395245410029,668.8400777080024,668.8482019160001,668.8482019160001,668.8482019160001,,669.4641163330016,,,,,,,,,,,,,,,,,,,,,,,,,,,,,,left,1.0,0.611511374998372,,,,,sub-156,1,random_dot,122.8227744091311,
right,right,47.0,1.0,23.0,right,1.0,0.7409597500009113,,speed,space,4.245221458000742,,,,,,0.0,1.0,1.0,1.0,23.0,1.0,47.0,1.0,669.4889493750015,,,,,,,,,669.4646953330011,670.2624645830001,671.0547062910009,671.0454308750013,671.0458757080014,671.0547062910009,671.0547062910009,671.0547062910009,,671.8070680830024,,,,,,,,,,,,,,,,,,,,,,,,,,,,,,right,1.0,0.7409597500009113,,,,,sub-156,1,random_dot,122.8227744091311,
left,left,48.0,0.0,24.0,right,0.0,0.4405257910002547,,speed,space,4.245221458000742,,,,,,0.0,1.0,1.0,1.0,24.0,0.0,48.0,0.0,671.8162316250018,,,,,,,,,671.8076461250021,672.5954529580013,673.3880665830002,673.3790101250015,673.3794289160032,673.3880665830002,673.3880665830002,673.3880665830002,,673.8311931660028,,,,,,,,,,,,,,,,,,,,,,,,,,,,,,right,0.0,0.4405257910002547,,,,,sub-156,1,random_dot,122.8227744091311,
right,right,49.0,1.0,24.0,left,0.0,0.6741179580021708,,speed,space,4.245221458000742,,,,,,0.0,1.0,1.0,1.0,24.0,1.0,49.0,1.0,673.8555774580018,,,,,,,,,673.8316325410015,673.9277393330012,674.7214449580024,674.7125071250011,674.712910125003,674.7214449580024,674.7214449580024,674.7214449580024,,675.3973972500025,,,,,,,,,,,,,,,,,,,,,,,,,,,,,,left,0.0,0.6741179580021708,,,,,sub-156,1,random_dot,122.8227744091311,
right,right,50.0,0.0,25.0,right,1.0,0.7364909999996598,,speed,space,4.245221458000742,,,,,,0.0,1.0,1.0,1.0,25.0,0.0,50.0,1.0,675.4048261660027,,,,,,,,,675.3979850830001,675.495577083002,676.2881322909998,676.2793477500018,676.2797596660021,676.2881322909998,676.2881322909998,676.2881322909998,,677.0312081250013,,,,,,,,,,,,,,,,,,,,,,,,,,,,,,right,1.0,0.7364909999996598,,,,,sub-156,1,random_dot,122.8227744091311,
left,left,51.0,1.0,25.0,right,0.0,0.7941254999968805,,speed,space,4.245221458000742,,,,,,0.0,1.0,1.0,1.0,25.0,1.0,51.0,0.0,677.040904458001,,,,,,,,,677.0318042910003,677.3786508750018,678.1723951250024,678.1623318750026,678.1629071660027,678.1723951250024,678.1723951250024,678.1723951250024,,678.9731482910029,,,,,,,,,,,,,,,,,,,,,,,,,,,,,,right,0.0,0.7941254999968805,,,,,sub-156,1,random_dot,122.8227744091311,
right,right,52.0,0.0,26.0,left,0.0,0.9005735840000852,,speed,space,4.245221458000742,,,,,,0.0,1.0,1.0,1.0,26.0,0.0,52.0,1.0,678.9826524580021,,,,,,,,,678.9738797910031,679.0622431660013,679.855931625003,679.8447831660014,679.8451825410011,679.855931625003,679.855931625003,679.855931625003,,680.7639832910027,,,,,,,,,,,,,,,,,,,,,,,,,,,,,,left,0.0,0.9005735840000852,,,,,sub-156,1,random_dot,122.8227744091311,
left,left,53.0,1.0,26.0,left,1.0,0.3426068340013444,,speed,space,4.245221458000742,,,,,,0.0,1.0,1.0,1.0,26.0,1.0,53.0,0.0,680.7735046250018,,,,,,,,,680.7645758750004,681.5615188330012,682.354814125003,682.3456394580026,682.3460973750007,682.354814125003,682.354814125003,682.354814125003,,682.6989626660034,,,,,,,,,,,,,,,,,,,,,,,,,,,,,,left,1.0,0.3426068340013444,,,,,sub-156,1,random_dot,122.8227744091311,
right,right,54.0,0.0,27.0,left,0.0,2.1112168750005367,,speed,space,4.245221458000742,,,,,,0.0,1.0,1.0,1.0,27.0,0.0,54.0,1.0,682.7060935830013,,,,,,,,,682.6997265830032,683.4957621250032,684.288211416002,684.2792512500018,684.279687125003,684.288211416002,684.288211416002,684.288211416002,,686.407679916003,,,,,,,,,,,,,,,,,,,,,,,,,,,,,,left,0.0,2.1112168750005367,,,,,sub-156,1,random_dot,122.8227744091311,
left,left,55.0,1.0,27.0,left,1.0,0.786264416998165,,speed,space,4.245221458000742,,,,,,0.0,1.0,1.0,1.0,27.0,1.0,55.0,0.0,686.4168388329999,,,,,,,,,686.4084028329999,687.2062217910025,687.9980687080024,687.9896000000008,687.9901322910009,687.9980687080024,687.9980687080024,687.9980687080024,,688.7899307080006,,,,,,,,,,,,,,,,,,,,,,,,,,,,,,left,1.0,0.786264416998165,,,,,sub-156,1,random_dot,122.8227744091311,
right,right,56.0,0.0,28.0,right,1.0,1.0008742079990045,,speed,space,4.245221458000742,,,,,,0.0,1.0,1.0,1.0,28.0,0.0,56.0,1.0,688.7993204580016,,,,,,,,,688.790689583002,689.9788267500007,690.7714486660007,690.7619757910034,690.7624321660005,690.7714486660007,690.7714486660007,690.7714486660007,,691.7806195410012,,,,,,,,,,,,,,,,,,,,,,,,,,,,,,right,1.0,1.0008742079990045,,,,,sub-156,1,random_dot,122.8227744091311,
left,left,57.0,1.0,28.0,right,0.0,0.6397271669993643,,speed,space,4.245221458000742,,,,,,0.0,1.0,1.0,1.0,28.0,1.0,57.0,0.0,691.7900533749998,,,,,,,,,691.7811773330031,692.579086791,693.3714674160001,693.3623119580006,693.3627510410006,693.3714674160001,693.3714674160001,693.3714674160001,,694.0146702910024,,,,,,,,,,,,,,,,,,,,,,,,,,,,,,right,0.0,0.6397271669993643,,,,,sub-156,1,random_dot,122.8227744091311,
right,right,58.0,0.0,29.0,left,0.0,2.1962286249981844,,speed,space,4.245221458000742,,,,,,0.0,1.0,1.0,1.0,29.0,0.0,58.0,1.0,694.0242442910021,,,,,,,,,694.015268541003,694.811837250003,695.6048998750011,695.5957565000026,695.5961829160005,695.6048998750011,695.6048998750011,695.6048998750011,,697.8060522910018,,,,,,,,,,,,,,,,,,,,,,,,,,,,,,left,0.0,2.1962286249981844,,,,,sub-156,1,random_dot,122.8227744091311,
left,left,59.0,1.0,29.0,left,1.0,1.1077682920004008,,speed,space,4.245221458000742,,,,,,0.0,1.0,1.0,1.0,29.0,1.0,59.0,0.0,697.8146772500004,,,,,,,,,697.8065216660034,697.8979751660008,698.6982842500001,698.6897018750024,698.690233958001,698.6982842500001,698.6982842500001,698.6982842500001,,699.8073827500011,,,,,,,,,,,,,,,,,,,,,,,,,,,,,,left,1.0,1.1077682920004008,,,,,sub-156,1,random_dot,122.8227744091311,
,,1.0,1.0,0.0,,,,,speed,space,4.245221458000742,,,,,,0.0,1.0,1.0,1.0,,,,,,,,,,,,,,,,,,,,,,,,,,,,,,,,,,,,,,,,,,,,,,,,,,,,,,,,,,,,sub-156,1,random_dot,122.8227744091311,
,,,,,,,,,,,,,,,,,,,,,,,,,,,,,,,,,,,,,,,,,,,,,,,,,,,,,,,,,,,,,,,,,,,,,,,,,,,,,699.8141885000005,699.8245430830029,704.812598708002,sub-156,1,random_dot,122.8227744091311,
