direction,corrAns,thisN,thisTrialN,thisRepN,respDots.keys,respDots.corr,respDots.rt,respDots.duration,randomInstr,respRandomInstr.keys,respRandomInstr.rt,respRandomInstr.duration,practice_trials.thisRepN,practice_trials.thisTrialN,practice_trials.thisN,practice_trials.thisIndex,instr_trials.thisRepN,instr_trials.thisTrialN,instr_trials.thisN,instr_trials.thisIndex,test_trials.thisRepN,test_trials.thisTrialN,test_trials.thisN,test_trials.thisIndex,thisRow.t,notes,general_instruction.started,textGeneralInstr.started,respGeneralInstr.started,general_instruction.stopped,respGeneralInstr.keys,respGeneralInstr.rt,respGeneralInstr.duration,ITI.started,fixcross.started,fixcross.stopped,ITI.stopped,dots.started,backgroundDots.started,stimulusDots.started,respDots.started,dots.stopped,practice_trials.respDots.keys,practice_trials.respDots.corr,practice_trials.respDots.rt,practice_trials.respDots.duration,feedback.started,textFeedback.started,feedback.stopped,stimulusDots.stopped,textFeedback.stopped,info.started,textInfo.started,keyRespInfo.started,info.stopped,keyRespInfo.keys,keyRespInfo.rt,keyRespInfo.duration,test_instruction.started,textTestInstr.started,respTestInstr.started,test_instruction.stopped,respTestInstr.keys,respTestInstr.rt,respTestInstr.duration,random_instruction.started,textRandomInstr.started,respRandomInstr.started,random_instruction.stopped,instr_trials.respRandomInstr.keys,instr_trials.respRandomInstr.rt,instr_trials.respRandomInstr.duration,test_trials.respDots.keys,test_trials.respDots.corr,test_trials.respDots.rt,test_trials.respDots.duration,goodbye.started,textGoodbye.started,goodbye.stopped,participant,session,expName,frameRate,Unnamed: 87
,,,,,,,,,,,,,,,,,,,,,,,,,,,0.0095081999897956,0.0258297999389469,0.0258297999389469,16.78026599995792,space,16.728053499944508,,,,,,,,,,,,,,,,,,,,,,,,,,,,,,,,,,,,,,,,,,,,,,,,sub-164,1,random_dot,57.42670916926211,
left,left,0.0,0.0,0.0,left,1.0,4.314363099983893,,,,,,0.0,0.0,0.0,0.0,,,,,,,,,16.82013500004541,,,,,,,,,16.80641930003185,17.985790799953975,18.81822649994865,18.782036599935964,18.78289000003133,18.81822649994865,18.81822649994865,18.81822649994865,23.142356700031087,left,1.0,4.314363099983893,,23.17285830003675,23.187712599989027,23.650097799953077,,,,,,,,,,,,,,,,,,,,,,,,,,,,,,,sub-164,1,random_dot,57.42670916926211,
right,right,1.0,1.0,0.0,right,1.0,2.086240499978885,,,,,,0.0,1.0,1.0,1.0,,,,,,,,,23.665099099976945,,,,,,,,,23.650994300027374,24.84875959996134,25.65505229996052,25.633733200025745,25.63467729999684,25.65505229996052,25.65505229996052,25.65505229996052,27.752481500036083,right,1.0,2.086240499978885,,27.752755100023933,27.76841899997089,28.265675200033,,,,,,,,,,,,,,,,,,,,,,,,,,,,,,,sub-164,1,random_dot,57.42670916926211,
right,right,2.0,0.0,1.0,left,0.0,4.983588599949144,,,,,,1.0,0.0,2.0,1.0,,,,,,,,,28.281756500015035,,,,,,,,,28.266496099997312,28.615291199996136,29.42246819997672,29.40079240000341,29.401726600015536,29.42246819997672,29.42246819997672,29.42246819997672,34.41059360001236,left,0.0,4.983588599949144,,34.44103059999179,34.45703729998786,34.91552010003943,34.4068932000082,,,,,,,,,,,,,,,,,,,,,,,,,,,,,,sub-164,1,random_dot,57.42670916926211,
left,left,3.0,1.0,1.0,right,0.0,2.9913536000531167,,,,,,1.0,1.0,3.0,0.0,,,,,,,,,34.93246819998603,,,,,,,,,34.91642270004377,36.11527820001356,36.92186420003418,36.90061360003892,36.90155519999098,36.92186420003418,36.92186420003418,36.92186420003418,39.91919359995518,right,0.0,2.9913536000531167,,39.91947540000547,39.93435340002179,40.43240059993696,,,,,,,,,,,,,,,,,,,,,,,,,,,,,,,sub-164,1,random_dot,57.42670916926211,
right,right,4.0,0.0,2.0,right,1.0,6.166559000033885,,,,,,2.0,0.0,4.0,1.0,,,,,,,,,40.4487193999812,,,,,,,,,40.433294699992985,41.23127829993609,42.05265530000906,42.03277099994011,42.03361909999512,42.05265530000906,42.05265530000906,42.05265530000906,48.241933900048025,right,1.0,6.166559000033885,,48.25280829996336,48.26893579994794,48.74931189999916,47.04825979995076,,,,,,,,,,,,,,,,,,,,,,,,,,,,,,sub-164,1,random_dot,57.42670916926211,
left,left,5.0,1.0,2.0,left,1.0,4.059176100068726,,,,,,2.0,1.0,5.0,0.0,,,,,,,,,48.76565079996362,,,,,,,,,48.750162299955264,49.94896800001152,50.75546549994033,50.73414529999718,50.735167299979366,50.75546549994033,50.75546549994033,50.75546549994033,54.81995539995842,left,1.0,4.059176100068726,,54.82023119996302,54.83520049997605,55.31963689997792,,55.34930560004432,,,,,,,,,,,,,,,,,,,,,,,,,,,,,sub-164,1,random_dot,57.42670916926211,
left,left,6.0,0.0,3.0,right,0.0,4.836965400027111,,,,,,3.0,0.0,6.0,0.0,,,,,,,,,55.34930560004432,,,,,,,,,55.32046499999706,55.680987300002016,56.48987960000522,56.46861870004796,56.46959410002455,56.48987960000522,56.48987960000522,56.48987960000522,61.35110880003776,right,0.0,4.836965400027111,,61.36204030003864,61.37753439997323,61.864724799990654,,,,,,,,,,,,,,,,,,,,,,,,,,,,,,,sub-164,1,random_dot,57.42670916926211,
right,right,7.0,1.0,3.0,right,1.0,2.278846799978055,,,,,,3.0,1.0,7.0,1.0,,,,,,,,,61.88097689999268,,,,,,,,,61.8654829999432,61.96559239993803,62.77243519993499,62.75107749993913,62.75204719998874,62.77243519993499,62.77243519993499,62.77243519993499,65.05423180002254,right,1.0,2.278846799978055,,65.06365080003161,65.07956109999213,65.56420100003015,,,,,,,,,,,,,,,,,,,,,,,,,,,,,,,sub-164,1,random_dot,57.42670916926211,
right,right,8.0,0.0,4.0,left,0.0,1.2600468000164255,,,,,,4.0,0.0,8.0,1.0,,,,,,,,,65.58752820000518,,,,,,,,,65.56506279995665,65.66560609999578,66.48608890001196,66.46603699994739,66.46691519999877,66.48608890001196,66.48608890001196,66.48608890001196,67.7507829000242,left,0.0,1.2600468000164255,,67.76015410001855,67.77414270001464,68.26469079998787,,,,,,,,,,,,,,,,,,,,,,,,,,,,,,,sub-164,1,random_dot,57.42670916926211,
left,left,9.0,1.0,4.0,right,0.0,2.2611703999573365,,,,,,4.0,1.0,9.0,0.0,,,,,,,,,68.28121899999678,,,,,,,,,68.26542700000573,69.46593800000846,70.28831029997673,70.26678039995022,70.26783569995314,70.28831029997673,70.28831029997673,70.28831029997673,72.55221029999666,right,0.0,2.2611703999573365,,72.55249589995947,72.56794410001021,73.06603999994695,,,,,,,,,,,,,,,,,,,,,,,,,,,,,,,sub-164,1,random_dot,57.42670916926211,
right,right,10.0,0.0,5.0,right,1.0,4.178871100069955,,,,,,5.0,0.0,10.0,1.0,,,,,,,,,73.08257880003657,,,,,,,,,73.06693810003344,73.86589809996076,74.67255200003274,74.6510606999509,74.65205539995804,74.67255200003274,74.67255200003274,74.67255200003274,78.85889200004749,right,1.0,4.178871100069955,,78.87023779994342,78.88633550005034,79.36657069996,,,,,,,,,,,,,,,,,,,,,,,,,,,,,,,sub-164,1,random_dot,57.42670916926211,
left,left,11.0,1.0,5.0,left,1.0,1.6454961000708863,,,,,,5.0,1.0,11.0,0.0,,,,,,,,,79.38250549999066,,,,,,,,,79.36770870001055,79.4840084000025,80.30611600005068,80.28470770001877,80.28567080001812,80.30611600005068,80.30611600005068,80.30611600005068,81.96758980001323,left,1.0,1.6454961000708863,,81.96783530001994,81.98310269997455,82.46811110002454,,82.48433909995947,,,,,,,,,,,,,,,,,,,,,,,,,,,,,sub-164,1,random_dot,57.42670916926211,
right,right,12.0,0.0,6.0,right,1.0,3.68680729996413,,,,,,6.0,0.0,12.0,1.0,,,,,,,,,82.48433909995947,,,,,,,,,82.46908129996154,83.68273110000882,84.48863020003773,84.46747220004909,84.46846550004557,84.48863020003773,84.48863020003773,84.48863020003773,88.19305120001081,right,1.0,3.68680729996413,,88.19339969998691,88.20666110003367,88.69947039999533,,,,,,,,,,,,,,,,,,,,,,,,,,,,,,,sub-164,1,random_dot,57.42670916926211,
left,left,13.0,1.0,6.0,left,1.0,3.2769331000745296,,,,,,6.0,1.0,13.0,0.0,,,,,,,,,88.71647909993771,,,,,,,,,88.70047159993555,88.79967029998079,89.61510259995703,89.58609749993775,89.58705900004134,89.61510259995703,89.61510259995703,89.61510259995703,92.91582640004344,left,1.0,3.2769331000745296,,92.91608410002664,92.93107010005042,93.41642330004834,,,,,,,,,,,,,,,,,,,,,,,,,,,,,,,sub-164,1,random_dot,57.42670916926211,
right,right,14.0,0.0,7.0,right,1.0,1.7234865999780595,,,,,,7.0,0.0,14.0,1.0,,,,,,,,,93.43276250001507,,,,,,,,,93.4173169999849,94.21621230000164,95.02289969997946,95.00161349994596,95.00255760003348,95.02289969997946,95.02289969997946,95.02289969997946,96.75888800004032,right,1.0,1.7234865999780595,,96.75923630001488,96.7723606999498,97.26650579995476,,,,,,,,,,,,,,,,,,,,,,,,,,,,,,,sub-164,1,random_dot,57.42670916926211,
left,left,15.0,1.0,7.0,left,1.0,3.2790015999926254,,,,,,7.0,1.0,15.0,0.0,,,,,,,,,97.28283709997775,,,,,,,,,97.26733950001652,97.36623929999767,98.17292939999606,98.15124719997402,98.15217469993512,98.17292939999606,98.17292939999606,98.17292939999606,101.46774490003008,left,1.0,3.2790015999926254,,101.46800390002318,101.48327500000596,101.9683715000283,,101.98365820001344,,,,,,,,,,,,,,,,,,,,,,,,,,,,,sub-164,1,random_dot,57.42670916926211,
left,left,16.0,0.0,8.0,left,1.0,2.959071999997832,,,,,,8.0,0.0,16.0,0.0,,,,,,,,,101.98365820001344,,,,,,,,,101.96929309994448,103.18302670004778,103.98934009997174,103.968158600037,103.96910580003168,103.98934009997174,103.98934009997174,103.98934009997174,106.9602629999863,left,1.0,2.959071999997832,,106.9606098999502,106.97307079995517,107.46690460003448,,,,,,,,,,,,,,,,,,,,,,,,,,,,,,,sub-164,1,random_dot,57.42670916926211,
right,right,17.0,1.0,8.0,right,1.0,2.186075699981302,,,,,,8.0,1.0,17.0,1.0,,,,,,,,,107.48304009996356,,,,,,,,,107.46780939993914,107.81535079993772,108.62249570002314,108.60142600000836,108.60238719999325,108.62249570002314,108.62249570002314,108.62249570002314,110.83186859998386,right,1.0,2.186075699981302,,110.8321287999861,110.84643589996269,111.33321489999072,,,,,,,,,,,,,,,,,,,,,,,,,,,,,,,sub-164,1,random_dot,57.42670916926211,
left,left,18.0,0.0,9.0,right,0.0,2.548719600075856,,,,,,9.0,0.0,18.0,0.0,,,,,,,,,111.3502121999627,,,,,,,,,111.33405850001144,112.53316009999251,113.34022170002572,113.3190405999776,113.32002590002958,113.34022170002572,113.34022170002572,113.34022170002572,115.90327420004178,right,0.0,2.548719600075856,,115.91439869999886,115.92813599994406,116.41683500004,,,,,,,,,,,,,,,,,,,,,,,,,,,,,,,sub-164,1,random_dot,57.42670916926211,
right,right,19.0,1.0,9.0,right,1.0,2.816618499928154,,,,,,9.0,1.0,19.0,1.0,,,,,,,,,116.43318119994365,,,,,,,,,116.41770530003124,117.21539709996432,118.02554159995634,118.00292350002564,118.0037650000304,118.02554159995634,118.02554159995634,118.02554159995634,120.85209830000532,right,1.0,2.816618499928154,,120.86113570001908,120.8740109000355,121.36576429998968,,,,,,,,,,,,,,,,,,,,,,,,,,,,,,,sub-164,1,random_dot,57.42670916926211,
,,,,,,,,,,,,,,,,,,,,,,,,,,,,,,,,,,,,,,,,,,,,,,,,,,,,121.366116899997,121.38564879994374,121.38564879994374,124.10299719998147,space,2.699958399985917,,,,,,,,,,,,,,,,,,,,,,,sub-164,1,random_dot,57.42670916926211,
,,,,,,,,,,,,,,,,,,,,,,,,,,,,,,,,,,,,,,,,,,,,,,,,,,,,,,,,,,,124.10319569997957,124.12114850000944,124.12114850000944,129.42081659997348,space,5.281041399925016,,,,,,,,,,,,,,,,sub-164,1,random_dot,57.42670916926211,
right,right,0.0,0.0,0.0,right,1.0,2.5775879999855533,,accuracy,space,4.002034800010733,,,,,,0.0,0.0,0.0,0.0,0.0,0.0,0.0,1.0,133.62043260002974,,,,,,,,,133.60811949998606,134.80010660004336,135.60774380003568,135.58612750004977,135.58714880002665,135.60774380003568,135.60774380003568,135.60774380003568,138.19156599999403,,,,,,,,,,,,,,,,,,,,,,,,129.55772969999816,129.57558059995063,129.57558059995063,133.58755389996804,space,4.002034800010733,,right,1.0,2.5775879999855533,,,,,sub-164,1,random_dot,57.42670916926211,
left,left,1.0,1.0,0.0,left,1.0,3.294969599926844,,accuracy,space,4.002034800010733,,,,,,0.0,0.0,0.0,0.0,0.0,1.0,1.0,0.0,138.20377499994356,,,,,,,,,138.19246479996946,139.0002700999612,139.8079343000427,139.78651130001526,139.78747750003822,139.8079343000427,139.8079343000427,139.8079343000427,143.1067431999836,,,,,,,,,,,,,,,,,,,,,,,,,,,,,,,left,1.0,3.294969599926844,,,,,sub-164,1,random_dot,57.42670916926211,
right,right,2.0,0.0,1.0,left,0.0,2.5291425000177696,,accuracy,space,4.002034800010733,,,,,,0.0,0.0,0.0,0.0,1.0,0.0,2.0,1.0,143.118656000006,,,,,,,,,143.10772129998077,143.91687489999458,144.7402939000167,144.71884270000737,144.71981809998397,144.7402939000167,144.7402939000167,144.7402939000167,147.28026190004312,,,,,,,,,,,,,,,,,,,,,,,,,,,,,,,left,0.0,2.5291425000177696,,,,,sub-164,1,random_dot,57.42670916926211,
left,left,3.0,1.0,1.0,right,0.0,1.9486115000909197,,accuracy,space,4.002034800010733,,,,,,0.0,0.0,0.0,0.0,1.0,1.0,3.0,0.0,147.2918932000175,,,,,,,,,147.28114750003442,147.6331415999448,148.44116339995526,148.41959970002063,148.4205485000275,148.44116339995526,148.44116339995526,148.44116339995526,150.40522039995994,,,,,,,,,,,,,,,,,,,,,,,,,,,,,,,right,0.0,1.9486115000909197,,,,,sub-164,1,random_dot,57.42670916926211,
right,right,4.0,0.0,2.0,right,1.0,2.438806499936618,,accuracy,space,4.002034800010733,,,,,,0.0,0.0,0.0,0.0,2.0,0.0,4.0,1.0,150.41671350004617,,,,,,,,,150.40607859997544,151.2168922999408,152.0236630999716,152.00216479995288,152.00314939999953,152.0236630999716,152.0236630999716,152.0236630999716,154.46623549994547,,,,,,,,,,,,,,,,,,,,,,,,,,,,,,,right,1.0,2.438806499936618,,,,,sub-164,1,random_dot,57.42670916926211,
left,left,5.0,1.0,2.0,left,1.0,3.543037299998105,,accuracy,space,4.002034800010733,,,,,,0.0,0.0,0.0,0.0,2.0,1.0,5.0,0.0,154.48088829999324,,,,,,,,,154.4670574000338,154.8171496000141,155.6237292999867,155.60240239999257,155.60336519998964,155.6237292999867,155.6237292999867,155.6237292999867,159.18790689995512,,,,,,,,,,,,,,,,,,,,,,,,,,,,,,,left,1.0,3.543037299998105,,,,,sub-164,1,random_dot,57.42670916926211,
right,right,6.0,0.0,3.0,right,1.0,4.014092699973844,,accuracy,space,4.002034800010733,,,,,,0.0,0.0,0.0,0.0,3.0,0.0,6.0,1.0,159.19968690001406,,,,,,,,,159.18902299995534,159.30040539999027,160.10693180002272,160.08570759999566,160.0866657999577,160.10693180002272,160.10693180002272,160.10693180002272,164.13854349998292,,,,,,,,,,,,,,,,,,,,,,,,,,,,,,,right,1.0,4.014092699973844,,,,,sub-164,1,random_dot,57.42670916926211,
left,left,7.0,1.0,3.0,left,1.0,3.222460399963893,,accuracy,space,4.002034800010733,,,,,,0.0,0.0,0.0,0.0,3.0,1.0,7.0,0.0,164.15247850003652,,,,,,,,,164.13941539998632,164.24906760000158,165.0568155000219,165.03565420000814,165.03657809994183,165.0568155000219,165.0568155000219,165.0568155000219,168.29685419995803,,,,,,,,,,,,,,,,,,,,,,,,,,,,,,,left,1.0,3.222460399963893,,,,,sub-164,1,random_dot,57.42670916926211,
right,right,8.0,0.0,4.0,right,1.0,3.2838916000910103,,accuracy,space,4.002034800010733,,,,,,0.0,0.0,0.0,0.0,4.0,0.0,8.0,1.0,168.3078361999942,,,,,,,,,168.2977068000473,168.39862089999951,169.20670750003774,169.18570739997085,169.18667319999076,169.20670750003774,169.20670750003774,169.20670750003774,172.4950391999446,,,,,,,,,,,,,,,,,,,,,,,,,,,,,,,right,1.0,3.2838916000910103,,,,,sub-164,1,random_dot,57.42670916926211,
left,left,9.0,1.0,4.0,left,1.0,3.6010717999888584,,accuracy,space,4.002034800010733,,,,,,0.0,0.0,0.0,0.0,4.0,1.0,9.0,0.0,172.50771489995532,,,,,,,,,172.4962412000168,173.7007618000498,174.5164166999748,174.4926459999988,174.4934667999623,174.5164166999748,174.5164166999748,174.5164166999748,178.14137059997302,,,,,,,,,,,,,,,,,,,,,,,,,,,,,,,left,1.0,3.6010717999888584,,,,,sub-164,1,random_dot,57.42670916926211,
right,right,10.0,0.0,5.0,left,0.0,5.517462999909185,,accuracy,space,4.002034800010733,,,,,,0.0,0.0,0.0,0.0,5.0,0.0,10.0,1.0,178.1529620999936,,,,,,,,,178.14223749993835,179.35092670004815,180.1571524000028,180.13605450000614,180.1370383000467,180.1571524000028,180.1571524000028,180.1571524000028,185.70308350003324,,,,,,,,185.14153739996252,,,,,,,,,,,,,,,,,,,,,,,left,0.0,5.517462999909185,,,,,sub-164,1,random_dot,57.42670916926211,
left,left,11.0,1.0,5.0,right,0.0,3.337074999930337,,accuracy,space,4.002034800010733,,,,,,0.0,0.0,0.0,0.0,5.0,1.0,11.0,0.0,185.7198059000075,,,,,,,,,185.7042756000301,186.9173844000325,187.72385639999996,187.7027465000283,187.7037688000128,187.72385639999996,187.72385639999996,187.72385639999996,191.07781389995944,,,,,,,,,,,,,,,,,,,,,,,,,,,,,,,right,0.0,3.337074999930337,,,,,sub-164,1,random_dot,57.42670916926211,
left,left,12.0,0.0,6.0,left,1.0,4.084165200009011,,accuracy,space,4.002034800010733,,,,,,0.0,0.0,0.0,0.0,6.0,0.0,12.0,0.0,191.0894228999969,,,,,,,,,191.07900300004985,191.4343200000003,192.2404962000437,192.21954550000373,192.2205114000244,192.2404962000437,192.2404962000437,192.2404962000437,196.334654700011,,,,,,,,,,,,,,,,,,,,,,,,,,,,,,,left,1.0,4.084165200009011,,,,,sub-164,1,random_dot,57.42670916926211,
right,right,13.0,1.0,6.0,right,1.0,2.0207995999371637,,accuracy,space,4.002034800010733,,,,,,0.0,0.0,0.0,0.0,6.0,1.0,13.0,1.0,196.3506649000337,,,,,,,,,196.3355948999524,197.1344189000083,197.9407212999649,197.91944940004032,197.92040269996505,197.9407212999649,197.9407212999649,197.9407212999649,199.9705267000245,,,,,,,,,,,,,,,,,,,,,,,,,,,,,,,right,1.0,2.0207995999371637,,,,,sub-164,1,random_dot,57.42670916926211,
right,right,14.0,0.0,7.0,left,0.0,5.206726799951866,,accuracy,space,4.002034800010733,,,,,,0.0,0.0,0.0,0.0,7.0,0.0,14.0,1.0,199.9850213000318,,,,,,,,,199.97137719998136,200.33443199994508,201.14101150003265,201.1197924000444,201.1207596999593,201.14101150003265,201.14101150003265,201.14101150003265,206.3549027999397,,,,,,,,206.12136710004413,,,,,,,,,,,,,,,,,,,,,,,left,0.0,5.206726799951866,,,,,sub-164,1,random_dot,57.42670916926211,
left,left,15.0,1.0,7.0,right,0.0,1.9641950000077488,,accuracy,space,4.002034800010733,,,,,,0.0,0.0,0.0,0.0,7.0,1.0,15.0,0.0,206.3823661999777,,,,,,,,,206.35589140001684,206.71635070000772,207.5241161000449,207.502649400034,207.5036032999633,207.5241161000449,207.5241161000449,207.5241161000449,209.50170210003853,,,,,,,,,,,,,,,,,,,,,,,,,,,,,,,right,0.0,1.9641950000077488,,,,,sub-164,1,random_dot,57.42670916926211,
left,left,16.0,0.0,8.0,right,0.0,3.351709999958985,,accuracy,space,4.002034800010733,,,,,,0.0,0.0,0.0,0.0,8.0,0.0,16.0,0.0,209.51543889997996,,,,,,,,,209.50227299996183,209.6166439999361,210.43134659994396,210.4137727000052,210.41424710000865,210.43134659994396,210.43134659994396,210.43134659994396,213.78727019997316,,,,,,,,,,,,,,,,,,,,,,,,,,,,,,,right,0.0,3.351709999958985,,,,,sub-164,1,random_dot,57.42670916926211,
right,right,17.0,1.0,8.0,right,1.0,3.685442300047725,,accuracy,space,4.002034800010733,,,,,,0.0,0.0,0.0,0.0,8.0,1.0,17.0,1.0,213.81091829994693,,,,,,,,,213.78775350004435,215.00103509996552,215.80795489996672,215.7863148000324,215.7872444000095,215.80795489996672,215.80795489996672,215.80795489996672,219.51642050000373,,,,,,,,,,,,,,,,,,,,,,,,,,,,,,,right,1.0,3.685442300047725,,,,,sub-164,1,random_dot,57.42670916926211,
right,right,18.0,0.0,9.0,left,0.0,4.109988100011833,,accuracy,space,4.002034800010733,,,,,,0.0,0.0,0.0,0.0,9.0,0.0,18.0,1.0,219.53053059999365,,,,,,,,,219.5172623000108,219.6162778999424,220.42492959997617,220.40339750004927,220.4043925999431,220.42492959997617,220.42492959997617,220.42492959997617,224.53968229994643,,,,,,,,,,,,,,,,,,,,,,,,,,,,,,,left,0.0,4.109988100011833,,,,,sub-164,1,random_dot,57.42670916926211,
left,left,19.0,1.0,9.0,left,1.0,7.512984600034542,,accuracy,space,4.002034800010733,,,,,,0.0,0.0,0.0,0.0,9.0,1.0,19.0,0.0,224.55162149993703,,,,,,,,,224.54052749997936,225.7514093000209,226.5715109000448,226.55132840003355,226.5521713000489,226.5715109000448,226.5715109000448,226.5715109000448,234.09577100002207,,,,,,,,231.5682882999536,,,,,,,,,,,,,,,,,,,,,,,left,1.0,7.512984600034542,,,,,sub-164,1,random_dot,57.42670916926211,
right,right,20.0,0.0,10.0,right,1.0,1.1291145000141114,,accuracy,space,4.002034800010733,,,,,,0.0,0.0,0.0,0.0,10.0,0.0,20.0,1.0,234.119532700046,,,,,,,,,234.0967591999797,234.90016489999837,235.70590800000355,235.6852909999434,235.68614689994135,235.70590800000355,235.70590800000355,235.70590800000355,236.8574219000293,,,,,,,,,,,,,,,,,,,,,,,,,,,,,,,right,1.0,1.1291145000141114,,,,,sub-164,1,random_dot,57.42670916926211,
left,left,21.0,1.0,10.0,left,1.0,1.3412755000172183,,accuracy,space,4.002034800010733,,,,,,0.0,0.0,0.0,0.0,10.0,1.0,21.0,0.0,236.87260570004585,,,,,,,,,236.8584898000117,238.0677446000045,238.874725200003,238.853484399966,238.85443269996904,238.874725200003,238.874725200003,238.874725200003,240.2283134999452,,,,,,,,,,,,,,,,,,,,,,,,,,,,,,,left,1.0,1.3412755000172183,,,,,sub-164,1,random_dot,57.42670916926211,
right,right,22.0,0.0,11.0,right,1.0,0.6952846000203863,,accuracy,space,4.002034800010733,,,,,,0.0,0.0,0.0,0.0,11.0,0.0,22.0,1.0,240.2418622999685,,,,,,,,,240.22937289997932,241.4348775999388,242.25047520000956,242.22806580003817,242.2288953999523,242.25047520000956,242.25047520000956,242.25047520000956,242.95510849996936,,,,,,,,,,,,,,,,,,,,,,,,,,,,,,,right,1.0,0.6952846000203863,,,,,sub-164,1,random_dot,57.42670916926211,
left,left,23.0,1.0,11.0,left,1.0,2.710829099989496,,accuracy,space,4.002034800010733,,,,,,0.0,0.0,0.0,0.0,11.0,1.0,23.0,0.0,242.96995379996952,,,,,,,,,242.95599519996904,243.0662144999951,243.87475640000773,243.8534710999811,243.85444429994092,243.87475640000773,243.87475640000773,243.87475640000773,246.5925641999347,,,,,,,,,,,,,,,,,,,,,,,,,,,,,,,left,1.0,2.710829099989496,,,,,sub-164,1,random_dot,57.42670916926211,
left,left,24.0,0.0,12.0,left,1.0,2.7842197000281885,,accuracy,space,4.002034800010733,,,,,,0.0,0.0,0.0,0.0,12.0,0.0,24.0,0.0,246.6063584999647,,,,,,,,,246.5934728999855,247.401665900019,248.20805210003164,248.18683160003275,248.18784080003388,248.20805210003164,248.20805210003164,248.20805210003164,251.0034169999417,,,,,,,,,,,,,,,,,,,,,,,,,,,,,,,left,1.0,2.7842197000281885,,,,,sub-164,1,random_dot,57.42670916926211,
right,right,25.0,1.0,12.0,right,1.0,1.4718798999674618,,accuracy,space,4.002034800010733,,,,,,0.0,0.0,0.0,0.0,12.0,1.0,25.0,1.0,251.01827809994572,,,,,,,,,251.00425120000727,251.11642850004137,251.92513139999937,251.90353090001736,251.90451509994452,251.92513139999937,251.92513139999937,251.92513139999937,253.41923660004977,,,,,,,,,,,,,,,,,,,,,,,,,,,,,,,right,1.0,1.4718798999674618,,,,,sub-164,1,random_dot,57.42670916926211,
left,left,26.0,0.0,13.0,left,1.0,3.872218599892221,,accuracy,space,4.002034800010733,,,,,,0.0,0.0,0.0,0.0,13.0,0.0,26.0,0.0,253.43407169997224,,,,,,,,,253.42016490001697,253.5189355999464,254.32457069994416,254.30355369998145,254.30453600001056,254.32457069994416,254.32457069994416,254.32457069994416,258.2168548000045,,,,,,,,,,,,,,,,,,,,,,,,,,,,,,,left,1.0,3.872218599892221,,,,,sub-164,1,random_dot,57.42670916926211,
right,right,27.0,1.0,13.0,right,1.0,2.198092799982988,,accuracy,space,4.002034800010733,,,,,,0.0,0.0,0.0,0.0,13.0,1.0,27.0,1.0,258.2301146000391,,,,,,,,,258.2174891999457,259.01871800003573,259.8249654000392,259.8035999999847,259.80453780002426,259.8249654000392,259.8249654000392,259.8249654000392,262.0303343000123,,,,,,,,,,,,,,,,,,,,,,,,,,,,,,,right,1.0,2.198092799982988,,,,,sub-164,1,random_dot,57.42670916926211,
left,left,28.0,0.0,14.0,right,0.0,3.803437300026417,,accuracy,space,4.002034800010733,,,,,,0.0,0.0,0.0,0.0,14.0,0.0,28.0,0.0,262.0441679999931,,,,,,,,,262.03165400004946,262.3840065000113,263.1922731000232,263.1712023,263.17218690004665,263.1922731000232,263.1922731000232,263.1922731000232,267.0027015999658,,,,,,,,,,,,,,,,,,,,,,,,,,,,,,,right,0.0,3.803437300026417,,,,,sub-164,1,random_dot,57.42670916926211,
right,right,29.0,1.0,14.0,right,1.0,3.476675899932161,,accuracy,space,4.002034800010733,,,,,,0.0,0.0,0.0,0.0,14.0,1.0,29.0,1.0,267.0177518000128,,,,,,,,,267.0036661999766,267.8021223000251,268.6069464000175,268.5868720000144,268.5877083999804,268.6069464000175,268.6069464000175,268.6069464000175,272.0874758999562,,,,,,,,,,,,,,,,,,,,,,,,,,,,,,,right,1.0,3.476675899932161,,,,,sub-164,1,random_dot,57.42670916926211,
left,left,30.0,0.0,15.0,left,1.0,1.3682966000633314,,accuracy,space,4.002034800010733,,,,,,0.0,0.0,0.0,0.0,15.0,0.0,30.0,0.0,272.10167769994587,,,,,,,,,272.0892688999884,272.90095659997314,273.7056344000157,273.6856777999783,273.68653199996334,273.7056344000157,273.7056344000157,273.7056344000157,275.08140839997213,,,,,,,,,,,,,,,,,,,,,,,,,,,,,,,left,1.0,1.3682966000633314,,,,,sub-164,1,random_dot,57.42670916926211,
right,right,31.0,1.0,15.0,right,1.0,3.527590800076723,,accuracy,space,4.002034800010733,,,,,,0.0,0.0,0.0,0.0,15.0,1.0,31.0,1.0,275.0930866999552,,,,,,,,,275.0822471999563,275.8852716999827,276.69268450001255,276.67058739997447,276.6716281999834,276.69268450001255,276.69268450001255,276.69268450001255,280.2253238999984,,,,,,,,,,,,,,,,,,,,,,,,,,,,,,,right,1.0,3.527590800076723,,,,,sub-164,1,random_dot,57.42670916926211,
left,left,32.0,0.0,16.0,left,1.0,1.8623019999358803,,accuracy,space,4.002034800010733,,,,,,0.0,0.0,0.0,0.0,16.0,0.0,32.0,0.0,280.2391073999461,,,,,,,,,280.2261693000328,281.0339315000456,281.83942139998544,281.81899990001693,281.8199240999529,281.83942139998544,281.83942139998544,281.83942139998544,283.7100693000248,,,,,,,,,,,,,,,,,,,,,,,,,,,,,,,left,1.0,1.8623019999358803,,,,,sub-164,1,random_dot,57.42670916926211,
right,right,33.0,1.0,16.0,right,1.0,3.037921200040728,,accuracy,space,4.002034800010733,,,,,,0.0,0.0,0.0,0.0,16.0,1.0,33.0,1.0,283.7234853999689,,,,,,,,,283.711174499942,284.91891869995743,285.72556829999667,285.7041695000371,285.70516669994686,285.72556829999667,285.72556829999667,285.72556829999667,288.77112049993593,,,,,,,,,,,,,,,,,,,,,,,,,,,,,,,right,1.0,3.037921200040728,,,,,sub-164,1,random_dot,57.42670916926211,
left,left,34.0,0.0,17.0,left,1.0,1.8720399999292567,,accuracy,space,4.002034800010733,,,,,,0.0,0.0,0.0,0.0,17.0,0.0,34.0,0.0,288.7865904000355,,,,,,,,,288.77207179996185,289.9844176999759,290.79264110000804,290.7714106000494,290.7723387000151,290.79264110000804,290.79264110000804,290.79264110000804,292.674414100009,,,,,,,,,,,,,,,,,,,,,,,,,,,,,,,left,1.0,1.8720399999292567,,,,,sub-164,1,random_dot,57.42670916926211,
right,right,35.0,1.0,17.0,right,1.0,5.423719500075094,,accuracy,space,4.002034800010733,,,,,,0.0,0.0,0.0,0.0,17.0,1.0,35.0,1.0,292.68589890003204,,,,,,,,,292.6752334999619,293.8858473999426,294.706442900002,294.6861433000304,294.686996000004,294.706442900002,294.706442900002,294.706442900002,300.13780939998105,,,,,,,,299.70038469997235,,,,,,,,,,,,,,,,,,,,,,,right,1.0,5.423719500075094,,,,,sub-164,1,random_dot,57.42670916926211,
right,right,36.0,0.0,18.0,left,0.0,2.4141641000751406,,accuracy,space,4.002034800010733,,,,,,0.0,0.0,0.0,0.0,18.0,0.0,36.0,1.0,300.1525496999966,,,,,,,,,300.13869029993657,301.35253409994766,302.15885320003144,302.1377755999565,302.1387830999447,302.15885320003144,302.15885320003144,302.15885320003144,304.59045939997304,,,,,,,,,,,,,,,,,,,,,,,,,,,,,,,left,0.0,2.4141641000751406,,,,,sub-164,1,random_dot,57.42670916926211,
left,left,37.0,1.0,18.0,left,1.0,1.6247591000283137,,accuracy,space,4.002034800010733,,,,,,0.0,0.0,0.0,0.0,18.0,1.0,37.0,0.0,304.6176389999455,,,,,,,,,304.59160809998866,304.7018141000299,305.50428049999755,305.48553139995784,305.48600739997346,305.50428049999755,305.50428049999755,305.50428049999755,307.1378129000077,,,,,,,,,,,,,,,,,,,,,,,,,,,,,,,left,1.0,1.6247591000283137,,,,,sub-164,1,random_dot,57.42670916926211,
left,left,38.0,0.0,19.0,right,0.0,2.1846447000280023,,accuracy,space,4.002034800010733,,,,,,0.0,0.0,0.0,0.0,19.0,0.0,38.0,0.0,307.15132629999425,,,,,,,,,307.1383703999454,307.24613240000326,308.0472228999716,308.03075309994165,308.0310934999725,308.0472228999716,308.0472228999716,308.0472228999716,310.2468717000447,,,,,,,,,,,,,,,,,,,,,,,,,,,,,,,right,0.0,2.1846447000280023,,,,,sub-164,1,random_dot,57.42670916926211,
right,right,39.0,1.0,19.0,right,1.0,1.267020299914293,,accuracy,space,4.002034800010733,,,,,,0.0,0.0,0.0,0.0,19.0,1.0,39.0,1.0,310.25899909995496,,,,,,,,,310.24817120004445,310.3504721999634,311.1572198999347,311.1366154999705,311.13745729997754,311.1572198999347,311.1572198999347,311.1572198999347,312.4292703999672,,,,,,,,,,,,,,,,,,,,,,,,,,,,,,,right,1.0,1.267020299914293,,,,,sub-164,1,random_dot,57.42670916926211,
left,left,40.0,0.0,20.0,left,1.0,2.0566691999556497,,accuracy,space,4.002034800010733,,,,,,0.0,0.0,0.0,0.0,20.0,0.0,40.0,0.0,312.4428941999795,,,,,,,,,312.4301836999366,313.6516206000233,314.4572540000081,314.43675710004754,314.4378587999381,314.4572540000081,314.4572540000081,314.4572540000081,316.5262303999625,,,,,,,,,,,,,,,,,,,,,,,,,,,,,,,left,1.0,2.0566691999556497,,,,,sub-164,1,random_dot,57.42670916926211,
right,right,41.0,1.0,20.0,right,1.0,1.296037600026466,,accuracy,space,4.002034800010733,,,,,,0.0,0.0,0.0,0.0,20.0,1.0,41.0,1.0,316.5393659999827,,,,,,,,,316.5272880999837,316.6354253999889,317.44252799998503,317.42126009997446,317.42220220004674,317.44252799998503,317.44252799998503,317.44252799998503,318.75653400004376,,,,,,,,,,,,,,,,,,,,,,,,,,,,,,,right,1.0,1.296037600026466,,,,,sub-164,1,random_dot,57.42670916926211,
left,left,42.0,0.0,21.0,left,1.0,1.890899799996987,,accuracy,space,4.002034800010733,,,,,,0.0,0.0,0.0,0.0,21.0,0.0,42.0,0.0,318.77247590001207,,,,,,,,,318.7575030999724,319.56924969994,320.3747405000031,320.35361069999635,320.35455299995374,320.3747405000031,320.3747405000031,320.3747405000031,322.2789195999503,,,,,,,,,,,,,,,,,,,,,,,,,,,,,,,left,1.0,1.890899799996987,,,,,sub-164,1,random_dot,57.42670916926211,
right,right,43.0,1.0,21.0,left,0.0,2.168914400041104,,accuracy,space,4.002034800010733,,,,,,0.0,0.0,0.0,0.0,21.0,1.0,43.0,1.0,322.2928694000002,,,,,,,,,322.2809836999513,322.6358135000337,323.4426625999622,323.42122340004425,323.42217170004733,323.4426625999622,323.4426625999622,323.4426625999622,325.6159727999475,,,,,,,,,,,,,,,,,,,,,,,,,,,,,,,left,0.0,2.168914400041104,,,,,sub-164,1,random_dot,57.42670916926211,
left,left,44.0,0.0,22.0,left,1.0,3.224244700046256,,accuracy,space,4.002034800010733,,,,,,0.0,0.0,0.0,0.0,22.0,0.0,44.0,0.0,325.62752870004624,,,,,,,,,325.6167945000343,325.969320800039,326.77612449997105,326.755063300021,326.7560476999497,326.77612449997105,326.77612449997105,326.77612449997105,330.0137570999796,,,,,,,,,,,,,,,,,,,,,,,,,,,,,,,left,1.0,3.224244700046256,,,,,sub-164,1,random_dot,57.42670916926211,
right,right,45.0,1.0,22.0,right,1.0,3.001653299899772,,accuracy,space,4.002034800010733,,,,,,0.0,0.0,0.0,0.0,22.0,1.0,45.0,1.0,330.0258584000403,,,,,,,,,330.0148071999429,331.21578720002435,332.0257907999912,332.0046451999806,332.0055876999395,332.0257907999912,332.0257907999912,332.0257907999912,335.03277709998656,,,,,,,,,,,,,,,,,,,,,,,,,,,,,,,right,1.0,3.001653299899772,,,,,sub-164,1,random_dot,57.42670916926211,
right,right,46.0,0.0,23.0,right,1.0,0.9404287999495864,,accuracy,space,4.002034800010733,,,,,,0.0,0.0,0.0,0.0,23.0,0.0,46.0,1.0,335.04444590001367,,,,,,,,,335.0336854000343,335.3858605000423,336.1927513999399,336.1715649999678,336.1725206000265,336.1927513999399,336.1927513999399,336.1927513999399,337.15729919995647,,,,,,,,,,,,,,,,,,,,,,,,,,,,,,,right,1.0,0.9404287999495864,,,,,sub-164,1,random_dot,57.42670916926211,
left,left,47.0,1.0,23.0,left,1.0,2.4560030000284314,,accuracy,space,4.002034800010733,,,,,,0.0,0.0,0.0,0.0,23.0,1.0,47.0,0.0,337.1728035999695,,,,,,,,,337.1583719999762,338.3865169000346,339.1925702999579,339.1714384999359,339.1723877999466,339.1925702999579,339.1925702999579,339.1925702999579,341.6612370000221,,,,,,,,,,,,,,,,,,,,,,,,,,,,,,,left,1.0,2.4560030000284314,,,,,sub-164,1,random_dot,57.42670916926211,
left,left,48.0,0.0,24.0,left,1.0,2.515328999958001,,accuracy,space,4.002034800010733,,,,,,0.0,0.0,0.0,0.0,24.0,0.0,48.0,0.0,341.67339260003064,,,,,,,,,341.6620234999573,342.46845309995115,343.2759845999535,343.25490609998815,343.2558747000294,343.2759845999535,343.2759845999535,343.2759845999535,345.80274229997303,,,,,,,,,,,,,,,,,,,,,,,,,,,,,,,left,1.0,2.515328999958001,,,,,sub-164,1,random_dot,57.42670916926211,
right,right,49.0,1.0,24.0,right,1.0,1.4612383999628946,,accuracy,space,4.002034800010733,,,,,,0.0,0.0,0.0,0.0,24.0,1.0,49.0,1.0,345.81812019995414,,,,,,,,,345.8036861999426,345.91834790003486,346.72341159998905,346.7034732999746,346.70428319997154,346.72341159998905,346.72341159998905,346.72341159998905,348.1966863999842,,,,,,,,,,,,,,,,,,,,,,,,,,,,,,,right,1.0,1.4612383999628946,,,,,sub-164,1,random_dot,57.42670916926211,
right,right,50.0,0.0,25.0,right,1.0,3.0136121000396088,,accuracy,space,4.002034800010733,,,,,,0.0,0.0,0.0,0.0,25.0,0.0,50.0,1.0,348.2091225000331,,,,,,,,,348.1978566000471,349.40296950004995,350.21017910004593,350.1892335000448,350.1902634999715,350.21017910004593,350.21017910004593,350.21017910004593,353.2311670000199,,,,,,,,,,,,,,,,,,,,,,,,,,,,,,,right,1.0,3.0136121000396088,,,,,sub-164,1,random_dot,57.42670916926211,
left,left,51.0,1.0,25.0,left,1.0,3.2674288999987766,,accuracy,space,4.002034800010733,,,,,,0.0,0.0,0.0,0.0,25.0,1.0,51.0,0.0,353.2449488999555,,,,,,,,,353.232435700018,353.58671039994806,354.4073264000472,354.3869846999878,354.3878336000489,354.4073264000472,354.4073264000472,354.4073264000472,357.6883165000472,,,,,,,,,,,,,,,,,,,,,,,,,,,,,,,left,1.0,3.2674288999987766,,,,,sub-164,1,random_dot,57.42670916926211,
left,left,52.0,0.0,26.0,left,1.0,2.2363193000201136,,accuracy,space,4.002034800010733,,,,,,0.0,0.0,0.0,0.0,26.0,0.0,52.0,0.0,357.7044735000236,,,,,,,,,357.6893354000058,358.5038008999545,359.3100622999482,359.28886369999964,359.2898431000067,359.3100622999482,359.3100622999482,359.3100622999482,361.5695013999939,,,,,,,,,,,,,,,,,,,,,,,,,,,,,,,left,1.0,2.2363193000201136,,,,,sub-164,1,random_dot,57.42670916926211,
right,right,53.0,1.0,26.0,right,1.0,3.357485600048676,,accuracy,space,4.002034800010733,,,,,,0.0,0.0,0.0,0.0,26.0,1.0,53.0,1.0,361.5857725000242,,,,,,,,,361.5704046000028,362.7700797000434,363.5763891999377,363.5552798999706,363.5562197000254,363.5763891999377,363.5763891999377,363.5763891999377,366.9401341000339,,,,,,,,,,,,,,,,,,,,,,,,,,,,,,,right,1.0,3.357485600048676,,,,,sub-164,1,random_dot,57.42670916926211,
left,left,54.0,0.0,27.0,left,1.0,3.184072699979879,,accuracy,space,4.002034800010733,,,,,,0.0,0.0,0.0,0.0,27.0,0.0,54.0,0.0,366.9558638000162,,,,,,,,,366.9410674000392,367.3033894000109,368.1102830000455,368.0888764000265,368.08988240000326,368.1102830000455,368.1102830000455,368.1102830000455,371.3082371000201,,,,,,,,,,,,,,,,,,,,,,,,,,,,,,,left,1.0,3.184072699979879,,,,,sub-164,1,random_dot,57.42670916926211,
right,right,55.0,1.0,27.0,right,1.0,0.874108700081706,,accuracy,space,4.002034800010733,,,,,,0.0,0.0,0.0,0.0,27.0,1.0,55.0,1.0,371.3199875999708,,,,,,,,,371.3091323999688,371.66992559994105,372.4769493000349,372.45551959995646,372.4564452000195,372.4769493000349,372.4769493000349,372.4769493000349,373.37447359994985,,,,,,,,,,,,,,,,,,,,,,,,,,,,,,,right,1.0,0.874108700081706,,,,,sub-164,1,random_dot,57.42670916926211,
right,right,56.0,0.0,28.0,right,1.0,1.6652668999740854,,accuracy,space,4.002034800010733,,,,,,0.0,0.0,0.0,0.0,28.0,0.0,56.0,1.0,373.3859752999852,,,,,,,,,373.37539549998473,373.7367010000162,374.5433610000182,374.5217741000233,374.52291009994224,374.5433610000182,374.5433610000182,374.5433610000182,376.22816519998014,,,,,,,,,,,,,,,,,,,,,,,,,,,,,,,right,1.0,1.6652668999740854,,,,,sub-164,1,random_dot,57.42670916926211,
left,left,57.0,1.0,28.0,right,0.0,2.7885003000264987,,accuracy,space,4.002034800010733,,,,,,0.0,0.0,0.0,0.0,28.0,1.0,57.0,0.0,376.2393537999597,,,,,,,,,376.2291417999659,377.4365593999392,378.2432232999709,378.2220093000215,378.2229894000338,378.2432232999709,378.2432232999709,378.2432232999709,381.0472809999482,,,,,,,,,,,,,,,,,,,,,,,,,,,,,,,right,0.0,2.7885003000264987,,,,,sub-164,1,random_dot,57.42670916926211,
left,left,58.0,0.0,29.0,left,1.0,2.096494000055827,,accuracy,space,4.002034800010733,,,,,,0.0,0.0,0.0,0.0,29.0,0.0,58.0,0.0,381.0602353999857,,,,,,,,,381.0484901999589,381.1520827000495,381.9596385000041,381.938797699986,381.9397293999791,381.9596385000041,381.9596385000041,381.9596385000041,384.0734169000061,,,,,,,,,,,,,,,,,,,,,,,,,,,,,,,left,1.0,2.096494000055827,,,,,sub-164,1,random_dot,57.42670916926211,
right,right,59.0,1.0,29.0,right,1.0,3.497455699951388,,accuracy,space,4.002034800010733,,,,,,0.0,0.0,0.0,0.0,29.0,1.0,59.0,1.0,384.0885168999666,,,,,,,,,384.0742807999486,384.4370473000454,385.24987770000007,385.22291739995126,385.2247247999767,385.24987770000007,385.24987770000007,385.24987770000007,388.7645111000165,,,,,,,,,,,,,,,,,,,,,,,,,,,,,,,right,1.0,3.497455699951388,,,,,sub-164,1,random_dot,57.42670916926211,
,,0.0,0.0,0.0,,,,,accuracy,space,4.002034800010733,,,,,,0.0,0.0,0.0,0.0,,,,,,,,,,,,,,,,,,,,,,,,,,,,,,,,,,,,,,,,,,,,,,,,,,,,,,,,,,,,sub-164,1,random_dot,57.42670916926211,
right,right,0.0,0.0,0.0,left,0.0,0.8559776999754831,,speed,space,4.55740509997122,,,,,,0.0,1.0,1.0,1.0,0.0,0.0,0.0,1.0,393.4427577999886,,,,,,,,,393.43076649995055,393.520425900002,394.3266220999649,394.305422400008,394.3063712000149,394.3266220999649,394.3266220999649,394.3266220999649,395.19278559996746,,,,,,,,,,,,,,,,,,,,,,,,388.8212461000076,388.83627760002855,388.83627760002855,393.40822500002105,space,4.55740509997122,,left,0.0,0.8559776999754831,,,,,sub-164,1,random_dot,57.42670916926211,
left,left,1.0,1.0,0.0,left,1.0,0.8111519000958651,,speed,space,4.55740509997122,,,,,,0.0,1.0,1.0,1.0,0.0,1.0,1.0,0.0,395.2057017999469,,,,,,,,,395.1938101999695,395.3043456999585,396.1101185999578,396.0890213999664,396.0900984000182,396.1101185999578,396.1101185999578,396.1101185999578,396.9271434999537,,,,,,,,,,,,,,,,,,,,,,,,,,,,,,,left,1.0,0.8111519000958651,,,,,sub-164,1,random_dot,57.42670916926211,
right,right,2.0,0.0,1.0,right,1.0,0.4896141999633983,,speed,space,4.55740509997122,,,,,,0.0,1.0,1.0,1.0,1.0,0.0,2.0,1.0,396.9399509000359,,,,,,,,,396.92799090000335,397.0358556000283,397.8432035000296,397.8222611999372,397.8232063000323,397.8432035000296,397.8432035000296,397.8432035000296,398.3498954999959,,,,,,,,,,,,,,,,,,,,,,,,,,,,,,,right,1.0,0.4896141999633983,,,,,sub-164,1,random_dot,57.42670916926211,
left,left,3.0,1.0,1.0,right,0.0,1.1934068999253211,,speed,space,4.55740509997122,,,,,,0.0,1.0,1.0,1.0,1.0,1.0,3.0,0.0,398.3609745999565,,,,,,,,,398.350754700019,399.55392460001167,400.3607614999637,400.3394325999543,400.3403677999741,400.3607614999637,400.3607614999637,400.3607614999637,401.57425720000174,,,,,,,,,,,,,,,,,,,,,,,,,,,,,,,right,0.0,1.1934068999253211,,,,,sub-164,1,random_dot,57.42670916926211,
left,left,4.0,0.0,2.0,left,1.0,0.8462865999899805,,speed,space,4.55740509997122,,,,,,0.0,1.0,1.0,1.0,2.0,0.0,4.0,0.0,401.6015323000029,,,,,,,,,401.5752626999747,401.6849392999429,402.49416380003095,402.4727375999792,402.4737343000015,402.49416380003095,402.49416380003095,402.49416380003095,403.3475711999927,,,,,,,,,,,,,,,,,,,,,,,,,,,,,,,left,1.0,0.8462865999899805,,,,,sub-164,1,random_dot,57.42670916926211,
right,right,5.0,1.0,2.0,right,1.0,0.6058915000176057,,speed,space,4.55740509997122,,,,,,0.0,1.0,1.0,1.0,2.0,1.0,5.0,1.0,403.35998960002325,,,,,,,,,403.3488085999852,403.7038958000485,404.5103323999792,404.4887824000325,404.4900516000344,404.5103323999792,404.5103323999792,404.5103323999792,405.1346834000433,,,,,,,,,,,,,,,,,,,,,,,,,,,,,,,right,1.0,0.6058915000176057,,,,,sub-164,1,random_dot,57.42670916926211,
right,right,6.0,0.0,3.0,right,1.0,0.7676868999842554,,speed,space,4.55740509997122,,,,,,0.0,1.0,1.0,1.0,3.0,0.0,6.0,1.0,405.1460925999563,,,,,,,,,405.1356628999347,405.23576089995913,406.0433723999886,406.0224474000279,406.0233838999411,406.0433723999886,406.0433723999886,406.0433723999886,406.8139890000457,,,,,,,,,,,,,,,,,,,,,,,,,,,,,,,right,1.0,0.7676868999842554,,,,,sub-164,1,random_dot,57.42670916926211,
left,left,7.0,1.0,3.0,left,1.0,0.7914425999624655,,speed,space,4.55740509997122,,,,,,0.0,1.0,1.0,1.0,3.0,1.0,7.0,0.0,406.8271664000349,,,,,,,,,406.8153455000138,408.0205529000377,408.8272081000032,408.8058670000173,408.8068101999816,408.8272081000032,408.8272081000032,408.8272081000032,409.6268869000487,,,,,,,,,,,,,,,,,,,,,,,,,,,,,,,left,1.0,0.7914425999624655,,,,,sub-164,1,random_dot,57.42670916926211,
right,right,8.0,0.0,4.0,left,0.0,1.4439460000721738,,speed,space,4.55740509997122,,,,,,0.0,1.0,1.0,1.0,4.0,0.0,8.0,1.0,409.640164499986,,,,,,,,,409.6280035999371,410.4373055000324,411.2434765000362,411.2224968000082,411.22343999997247,411.2434765000362,411.2434765000362,411.2434765000362,412.7067506000167,,,,,,,,,,,,,,,,,,,,,,,,,,,,,,,left,0.0,1.4439460000721738,,,,,sub-164,1,random_dot,57.42670916926211,
left,left,9.0,1.0,4.0,left,1.0,0.6395891999127343,,speed,space,4.55740509997122,,,,,,0.0,1.0,1.0,1.0,4.0,1.0,9.0,0.0,412.7211268999381,,,,,,,,,412.70760860003065,413.0708741999697,413.8766682000132,413.8557195999893,413.856656900025,413.8766682000132,413.8766682000132,413.8766682000132,414.5316847000504,,,,,,,,,,,,,,,,,,,,,,,,,,,,,,,left,1.0,0.6395891999127343,,,,,sub-164,1,random_dot,57.42670916926211,
right,right,10.0,0.0,5.0,right,1.0,0.4024372000712901,,speed,space,4.55740509997122,,,,,,0.0,1.0,1.0,1.0,5.0,0.0,10.0,1.0,414.5436019999906,,,,,,,,,414.53278769995086,414.887217600015,415.7034688999411,415.6852060999954,415.6857447000221,415.7034688999411,415.7034688999411,415.7034688999411,416.1262970999815,,,,,,,,,,,,,,,,,,,,,,,,,,,,,,,right,1.0,0.4024372000712901,,,,,sub-164,1,random_dot,57.42670916926211,
left,left,11.0,1.0,5.0,left,1.0,0.6346265999600291,,speed,space,4.55740509997122,,,,,,0.0,1.0,1.0,1.0,5.0,1.0,11.0,0.0,416.1530776999425,,,,,,,,,416.1271942999447,416.48614970000926,417.29245970002376,417.2713624000317,417.2721718000248,417.29245970002376,417.29245970002376,417.29245970002376,417.9548253000248,,,,,,,,,,,,,,,,,,,,,,,,,,,,,,,left,1.0,0.6346265999600291,,,,,sub-164,1,random_dot,57.42670916926211,
left,left,12.0,0.0,6.0,left,1.0,0.9804507000371814,,speed,space,4.55740509997122,,,,,,0.0,1.0,1.0,1.0,6.0,0.0,12.0,0.0,417.9693326000124,,,,,,,,,417.95566219999455,418.7693803999573,419.57729249994736,419.5557731000008,419.556717999978,419.57729249994736,419.57729249994736,419.57729249994736,420.5729123000056,,,,,,,,,,,,,,,,,,,,,,,,,,,,,,,left,1.0,0.9804507000371814,,,,,sub-164,1,random_dot,57.42670916926211,
right,right,13.0,1.0,6.0,right,1.0,0.5972656999947503,,speed,space,4.55740509997122,,,,,,0.0,1.0,1.0,1.0,6.0,1.0,13.0,1.0,420.58780430001207,,,,,,,,,420.5737500999821,421.7872870999854,422.593591199955,422.5726108000381,422.5735399000114,422.593591199955,422.593591199955,422.593591199955,423.20949649997056,,,,,,,,,,,,,,,,,,,,,,,,,,,,,,,right,1.0,0.5972656999947503,,,,,sub-164,1,random_dot,57.42670916926211,
left,left,14.0,0.0,7.0,right,0.0,0.6770447000162676,,speed,space,4.55740509997122,,,,,,0.0,1.0,1.0,1.0,7.0,0.0,14.0,0.0,423.2350087999366,,,,,,,,,423.2104060000274,424.42078869999386,425.228405199945,425.2063759999583,425.2073777000187,425.228405199945,425.228405199945,425.228405199945,425.91648709995206,,,,,,,,,,,,,,,,,,,,,,,,,,,,,,,right,0.0,0.6770447000162676,,,,,sub-164,1,random_dot,57.42670916926211,
right,right,15.0,1.0,7.0,right,1.0,0.7391815000446513,,speed,space,4.55740509997122,,,,,,0.0,1.0,1.0,1.0,7.0,1.0,15.0,1.0,425.9281686999602,,,,,,,,,425.91732589993626,426.72072420001496,427.52738790004514,427.5059101999505,427.5068758999696,427.52738790004514,427.52738790004514,427.52738790004514,428.2746224999428,,,,,,,,,,,,,,,,,,,,,,,,,,,,,,,right,1.0,0.7391815000446513,,,,,sub-164,1,random_dot,57.42670916926211,
right,right,16.0,0.0,8.0,left,0.0,0.8107143000233918,,speed,space,4.55740509997122,,,,,,0.0,1.0,1.0,1.0,8.0,0.0,16.0,1.0,428.2893400000176,,,,,,,,,428.2754520999733,429.5029700000305,430.3086161999963,430.2880432000384,430.28888669994194,430.3086161999963,430.3086161999963,430.3086161999963,431.1230551999761,,,,,,,,,,,,,,,,,,,,,,,,,,,,,,,left,0.0,0.8107143000233918,,,,,sub-164,1,random_dot,57.42670916926211,
left,left,17.0,1.0,8.0,right,0.0,0.5487753000343218,,speed,space,4.55740509997122,,,,,,0.0,1.0,1.0,1.0,8.0,1.0,17.0,0.0,431.1384096000111,,,,,,,,,431.1240067000035,431.48735409998335,432.2940071000485,432.2727079000324,432.2736310999608,432.2940071000485,432.2940071000485,432.2940071000485,432.8574147999752,,,,,,,,,,,,,,,,,,,,,,,,,,,,,,,right,0.0,0.5487753000343218,,,,,sub-164,1,random_dot,57.42670916926211,
left,left,18.0,0.0,9.0,right,0.0,0.7605071000289172,,speed,space,4.55740509997122,,,,,,0.0,1.0,1.0,1.0,9.0,0.0,18.0,0.0,432.87320689996704,,,,,,,,,432.8583377000177,433.2205967999762,434.02710579999257,434.00609289994463,434.0070282999659,434.02710579999257,434.02710579999257,434.02710579999257,434.7962418999523,,,,,,,,,,,,,,,,,,,,,,,,,,,,,,,right,0.0,0.7605071000289172,,,,,sub-164,1,random_dot,57.42670916926211,
right,right,19.0,1.0,9.0,right,1.0,0.5968593000434339,,speed,space,4.55740509997122,,,,,,0.0,1.0,1.0,1.0,9.0,1.0,19.0,1.0,434.8090825999389,,,,,,,,,434.79724069999065,435.604149300023,436.4106863000197,436.3895771999378,436.3905456999783,436.4106863000197,436.4106863000197,436.4106863000197,437.0109008,,,,,,,,,,,,,,,,,,,,,,,,,,,,,,,right,1.0,0.5968593000434339,,,,,sub-164,1,random_dot,57.42670916926211,
left,left,20.0,0.0,10.0,left,1.0,0.5200199000537395,,speed,space,4.55740509997122,,,,,,0.0,1.0,1.0,1.0,10.0,0.0,20.0,0.0,437.024460399989,,,,,,,,,437.01171240000986,437.3710391999921,438.1771065000212,438.1561405999819,438.1570864999667,438.1771065000212,438.1771065000212,438.1771065000212,438.7086496000411,,,,,,,,,,,,,,,,,,,,,,,,,,,,,,,left,1.0,0.5200199000537395,,,,,sub-164,1,random_dot,57.42670916926211,
right,right,21.0,1.0,10.0,right,1.0,0.5083158999914303,,speed,space,4.55740509997122,,,,,,0.0,1.0,1.0,1.0,10.0,1.0,21.0,1.0,438.72424989996944,,,,,,,,,438.7095997999422,439.5209989999421,440.3445337000303,440.3234120999696,440.3243757999735,440.3445337000303,440.3445337000303,440.3445337000303,440.8611727999523,,,,,,,,,,,,,,,,,,,,,,,,,,,,,,,right,1.0,0.5083158999914303,,,,,sub-164,1,random_dot,57.42670916926211,
right,right,22.0,0.0,11.0,left,0.0,0.6903869000962004,,speed,space,4.55740509997122,,,,,,0.0,1.0,1.0,1.0,11.0,0.0,22.0,1.0,440.8740535000106,,,,,,,,,440.8620778999757,441.2210550999735,442.02731979999226,442.0061387999449,442.00713939999696,442.02731979999226,442.02731979999226,442.02731979999226,442.7267688999418,,,,,,,,,,,,,,,,,,,,,,,,,,,,,,,left,0.0,0.6903869000962004,,,,,sub-164,1,random_dot,57.42670916926211,
left,left,23.0,1.0,11.0,left,1.0,0.9063896000152454,,speed,space,4.55740509997122,,,,,,0.0,1.0,1.0,1.0,11.0,1.0,23.0,0.0,442.7405587999383,,,,,,,,,442.7275886000134,443.9379884999944,444.7584065999836,444.7382249999792,444.73923139995895,444.7584065999836,444.7584065999836,444.7584065999836,445.6726922999369,,,,,,,,,,,,,,,,,,,,,,,,,,,,,,,left,1.0,0.9063896000152454,,,,,sub-164,1,random_dot,57.42670916926211,
left,left,24.0,0.0,12.0,right,0.0,0.7264259000075981,,speed,space,4.55740509997122,,,,,,0.0,1.0,1.0,1.0,12.0,0.0,24.0,0.0,445.6874149000505,,,,,,,,,445.6735049999552,446.0378547,446.8605550000211,446.8395225999411,446.8404699999373,446.8605550000211,446.8605550000211,446.8605550000211,447.60642119997647,,,,,,,,,,,,,,,,,,,,,,,,,,,,,,,right,0.0,0.7264259000075981,,,,,sub-164,1,random_dot,57.42670916926211,
right,right,25.0,1.0,12.0,left,0.0,0.6894295000238344,,speed,space,4.55740509997122,,,,,,0.0,1.0,1.0,1.0,12.0,1.0,25.0,1.0,447.6223938999465,,,,,,,,,447.6074772999855,448.4211628000485,449.22756359993946,449.2061593999388,449.2071856999537,449.22756359993946,449.22756359993946,449.22756359993946,449.93422309996095,,,,,,,,,,,,,,,,,,,,,,,,,,,,,,,left,0.0,0.6894295000238344,,,,,sub-164,1,random_dot,57.42670916926211,
right,right,26.0,0.0,13.0,left,0.0,0.8589254999533296,,speed,space,4.55740509997122,,,,,,0.0,1.0,1.0,1.0,13.0,0.0,26.0,1.0,449.9452149999561,,,,,,,,,449.9350404000143,451.1376379999565,451.9443231000332,451.92325969995,451.9241773999529,451.9443231000332,451.9443231000332,451.9443231000332,452.82309059996624,,,,,,,,,,,,,,,,,,,,,,,,,,,,,,,left,0.0,0.8589254999533296,,,,,sub-164,1,random_dot,57.42670916926211,
left,left,27.0,1.0,13.0,right,0.0,0.3892444999655708,,speed,space,4.55740509997122,,,,,,0.0,1.0,1.0,1.0,13.0,1.0,27.0,0.0,452.8384737999877,,,,,,,,,452.8240054999478,454.0377363000298,454.8443214000436,454.8233233999927,454.8242916000309,454.8443214000436,454.8443214000436,454.8443214000436,455.2459960000124,,,,,,,,,,,,,,,,,,,,,,,,,,,,,,,right,0.0,0.3892444999655708,,,,,sub-164,1,random_dot,57.42670916926211,
left,left,28.0,0.0,14.0,right,0.0,0.436846699914895,,speed,space,4.55740509997122,,,,,,0.0,1.0,1.0,1.0,14.0,0.0,28.0,0.0,455.2585362000391,,,,,,,,,455.2468414000468,456.0535068999743,456.8611099999398,456.8399243999738,456.8408517000498,456.8611099999398,456.8611099999398,456.8611099999398,457.3083618000383,,,,,,,,,,,,,,,,,,,,,,,,,,,,,,,right,0.0,0.436846699914895,,,,,sub-164,1,random_dot,57.42670916926211,
right,right,29.0,1.0,14.0,right,1.0,0.670949500054121,,speed,space,4.55740509997122,,,,,,0.0,1.0,1.0,1.0,14.0,1.0,29.0,1.0,457.32326179998927,,,,,,,,,457.3091889000498,457.6711176999379,458.4782324000262,458.4566603000276,458.4576243000338,458.4782324000262,458.4782324000262,458.4782324000262,459.1548022000352,,,,,,,,,,,,,,,,,,,,,,,,,,,,,,,right,1.0,0.670949500054121,,,,,sub-164,1,random_dot,57.42670916926211,
left,left,30.0,0.0,15.0,left,1.0,1.243503899895586,,speed,space,4.55740509997122,,,,,,0.0,1.0,1.0,1.0,15.0,0.0,30.0,0.0,459.1693924999563,,,,,,,,,459.1556433000369,459.95521070004907,460.7609427999705,460.7396833000239,460.7407061000122,460.7609427999705,460.7609427999705,460.7609427999705,462.0138353999937,,,,,,,,,,,,,,,,,,,,,,,,,,,,,,,left,1.0,1.243503899895586,,,,,sub-164,1,random_dot,57.42670916926211,
right,right,31.0,1.0,15.0,right,1.0,0.4948255999479443,,speed,space,4.55740509997122,,,,,,0.0,1.0,1.0,1.0,15.0,1.0,31.0,1.0,462.02652269997634,,,,,,,,,462.0146881999681,463.22258699999657,464.0425748999696,464.02210619999096,464.0229729999555,464.0425748999696,464.0425748999696,464.0425748999696,464.5428856000072,,,,,,,,,,,,,,,,,,,,,,,,,,,,,,,right,1.0,0.4948255999479443,,,,,sub-164,1,random_dot,57.42670916926211,
left,left,32.0,0.0,16.0,left,1.0,0.6357344000134617,,speed,space,4.55740509997122,,,,,,0.0,1.0,1.0,1.0,16.0,0.0,32.0,0.0,464.5547404999379,,,,,,,,,464.54373959999066,464.9048435000004,465.7117945000064,465.6902735000476,465.6912479000166,465.7117945000064,465.7117945000064,465.7117945000064,466.36141539993696,,,,,,,,,,,,,,,,,,,,,,,,,,,,,,,left,1.0,0.6357344000134617,,,,,sub-164,1,random_dot,57.42670916926211,
right,right,33.0,1.0,16.0,right,1.0,0.5717451000818983,,speed,space,4.55740509997122,,,,,,0.0,1.0,1.0,1.0,16.0,1.0,33.0,1.0,466.3742447999539,,,,,,,,,466.3622284999583,467.18696560000535,467.9944251000416,467.9732827999396,467.9742370999884,467.9944251000416,467.9944251000416,467.9944251000416,468.5767180999974,,,,,,,,,,,,,,,,,,,,,,,,,,,,,,,right,1.0,0.5717451000818983,,,,,sub-164,1,random_dot,57.42670916926211,
right,right,34.0,0.0,17.0,right,1.0,0.6543609000509605,,speed,space,4.55740509997122,,,,,,0.0,1.0,1.0,1.0,17.0,0.0,34.0,1.0,468.5882529999362,,,,,,,,,468.5775666999398,468.6866358999396,469.494672199944,469.4735080000246,469.4744367999956,469.494672199944,469.494672199944,469.494672199944,470.1666908999905,,,,,,,,,,,,,,,,,,,,,,,,,,,,,,,right,1.0,0.6543609000509605,,,,,sub-164,1,random_dot,57.42670916926211,
left,left,35.0,1.0,17.0,right,0.0,0.4783154000760987,,speed,space,4.55740509997122,,,,,,0.0,1.0,1.0,1.0,17.0,1.0,35.0,0.0,470.17797620000783,,,,,,,,,470.1676702999976,470.9714014000492,471.77795759995934,471.7567285000114,471.7577173999744,471.77795759995934,471.77795759995934,471.77795759995934,472.2605866999365,,,,,,,,,,,,,,,,,,,,,,,,,,,,,,,right,0.0,0.4783154000760987,,,,,sub-164,1,random_dot,57.42670916926211,
left,left,36.0,0.0,18.0,left,1.0,0.8878145000198856,,speed,space,4.55740509997122,,,,,,0.0,1.0,1.0,1.0,18.0,0.0,36.0,0.0,472.2727287999587,,,,,,,,,472.26146740000695,472.3874271999812,473.19512269995175,473.173943700036,473.1749399999389,473.19512269995175,473.19512269995175,473.19512269995175,474.0974796999944,,,,,,,,,,,,,,,,,,,,,,,,,,,,,,,left,1.0,0.8878145000198856,,,,,sub-164,1,random_dot,57.42670916926211,
right,right,37.0,1.0,18.0,right,1.0,0.7232567999744788,,speed,space,4.55740509997122,,,,,,0.0,1.0,1.0,1.0,18.0,1.0,37.0,1.0,474.1112926000496,,,,,,,,,474.0985400000354,474.9047553000273,475.711689800024,475.6904680000152,475.6913992000045,475.711689800024,475.711689800024,475.711689800024,476.4550935999723,,,,,,,,,,,,,,,,,,,,,,,,,,,,,,,right,1.0,0.7232567999744788,,,,,sub-164,1,random_dot,57.42670916926211,
right,right,38.0,0.0,19.0,right,1.0,0.6965646001044661,,speed,space,4.55740509997122,,,,,,0.0,1.0,1.0,1.0,19.0,0.0,38.0,1.0,476.4701880000066,,,,,,,,,476.4559295999352,476.5548317000503,477.362105499953,477.3405102000106,477.3415038000094,477.362105499953,477.362105499953,477.362105499953,478.0738683999516,,,,,,,,,,,,,,,,,,,,,,,,,,,,,,,right,1.0,0.6965646001044661,,,,,sub-164,1,random_dot,57.42670916926211,
left,left,39.0,1.0,19.0,left,1.0,0.6634626999730244,,speed,space,4.55740509997122,,,,,,0.0,1.0,1.0,1.0,19.0,1.0,39.0,0.0,478.0886617000215,,,,,,,,,478.0747076999396,478.88840389996767,479.70887249999214,479.68886260001455,479.68967889994383,479.70887249999214,479.70887249999214,479.70887249999214,480.3765540999593,,,,,,,,,,,,,,,,,,,,,,,,,,,,,,,left,1.0,0.6634626999730244,,,,,sub-164,1,random_dot,57.42670916926211,
left,left,40.0,0.0,20.0,right,0.0,0.4385471000568941,,speed,space,4.55740509997122,,,,,,0.0,1.0,1.0,1.0,20.0,0.0,40.0,0.0,480.3927356000058,,,,,,,,,480.3776182000293,480.7379071000032,481.544842000003,481.5234457999468,481.5244275999721,481.544842000003,481.544842000003,481.544842000003,482.00160840002354,,,,,,,,,,,,,,,,,,,,,,,,,,,,,,,right,0.0,0.4385471000568941,,,,,sub-164,1,random_dot,57.42670916926211,
right,right,41.0,1.0,20.0,left,0.0,0.4100024999352172,,speed,space,4.55740509997122,,,,,,0.0,1.0,1.0,1.0,20.0,1.0,41.0,1.0,482.01330330001656,,,,,,,,,482.0025894000428,483.2049984999466,484.03755220002495,484.0083039000165,484.0093104999978,484.03755220002495,484.03755220002495,484.03755220002495,484.4671055999352,,,,,,,,,,,,,,,,,,,,,,,,,,,,,,,left,0.0,0.4100024999352172,,,,,sub-164,1,random_dot,57.42670916926211,
right,right,42.0,0.0,21.0,left,0.0,0.6368092000484467,,speed,space,4.55740509997122,,,,,,0.0,1.0,1.0,1.0,21.0,0.0,42.0,1.0,484.4788713000016,,,,,,,,,484.4680207000347,485.2727680000244,486.08839499996975,486.0591224000091,486.0600692000007,486.08839499996975,486.08839499996975,486.08839499996975,486.73400619998574,,,,,,,,,,,,,,,,,,,,,,,,,,,,,,,left,0.0,0.6368092000484467,,,,,sub-164,1,random_dot,57.42670916926211,
left,left,43.0,1.0,21.0,right,0.0,0.6295395999914035,,speed,space,4.55740509997122,,,,,,0.0,1.0,1.0,1.0,21.0,1.0,43.0,0.0,486.7457193000009,,,,,,,,,486.7348791999975,487.9383458000375,488.7449097000063,488.7236027000472,488.72460379998665,488.7449097000063,488.7449097000063,488.7449097000063,489.39630409993697,,,,,,,,,,,,,,,,,,,,,,,,,,,,,,,right,0.0,0.6295395999914035,,,,,sub-164,1,random_dot,57.42670916926211,
right,right,44.0,0.0,22.0,left,0.0,0.8360944999149069,,speed,space,4.55740509997122,,,,,,0.0,1.0,1.0,1.0,22.0,0.0,44.0,1.0,489.4082419000333,,,,,,,,,489.3971426000353,489.5030217999592,490.31208770000376,490.2904802999692,490.2914084999357,490.31208770000376,490.31208770000376,490.31208770000376,491.160840800032,,,,,,,,,,,,,,,,,,,,,,,,,,,,,,,left,0.0,0.8360944999149069,,,,,sub-164,1,random_dot,57.42670916926211,
left,left,45.0,1.0,22.0,left,1.0,0.6010233999695629,,speed,space,4.55740509997122,,,,,,0.0,1.0,1.0,1.0,22.0,1.0,45.0,0.0,491.1737698999932,,,,,,,,,491.1619138999376,491.5222989999456,492.327936799964,492.3069427999435,492.307892599958,492.327936799964,492.327936799964,492.327936799964,492.9349436999764,,,,,,,,,,,,,,,,,,,,,,,,,,,,,,,left,1.0,0.6010233999695629,,,,,sub-164,1,random_dot,57.42670916926211,
left,left,46.0,0.0,23.0,right,0.0,0.3725404000142589,,speed,space,4.55740509997122,,,,,,0.0,1.0,1.0,1.0,23.0,0.0,46.0,0.0,492.94661220000125,,,,,,,,,492.9357884000056,494.13825700001325,494.94495379994623,494.9240468000062,494.9250083999941,494.94495379994623,494.94495379994623,494.94495379994623,495.3218216999667,,,,,,,,,,,,,,,,,,,,,,,,,,,,,,,right,0.0,0.3725404000142589,,,,,sub-164,1,random_dot,57.42670916926211,
right,right,47.0,1.0,23.0,left,0.0,0.7270855999086052,,speed,space,4.55740509997122,,,,,,0.0,1.0,1.0,1.0,23.0,1.0,47.0,1.0,495.33673690003343,,,,,,,,,495.3226671000011,495.6719405000331,496.4948903999757,496.4725013000425,496.4735017999774,496.4948903999757,496.4948903999757,496.4948903999757,497.2254574999679,,,,,,,,,,,,,,,,,,,,,,,,,,,,,,,left,0.0,0.7270855999086052,,,,,sub-164,1,random_dot,57.42670916926211,
right,right,48.0,0.0,24.0,right,1.0,0.5303060999140143,,speed,space,4.55740509997122,,,,,,0.0,1.0,1.0,1.0,24.0,0.0,48.0,1.0,497.2405461999588,,,,,,,,,497.2262939000502,498.44296799995936,499.2670399999479,499.2407933999784,499.2414135000436,499.2670399999479,499.2670399999479,499.2670399999479,499.8030841000145,,,,,,,,,,,,,,,,,,,,,,,,,,,,,,,right,1.0,0.5303060999140143,,,,,sub-164,1,random_dot,57.42670916926211,
left,left,49.0,1.0,24.0,left,1.0,0.4735274999402463,,speed,space,4.55740509997122,,,,,,0.0,1.0,1.0,1.0,24.0,1.0,49.0,0.0,499.81846660003066,,,,,,,,,499.8035722000059,500.16758310003206,500.9680533000501,500.9511257000268,500.9515671000117,500.9680533000501,500.9680533000501,500.9680533000501,501.4526005999651,,,,,,,,,,,,,,,,,,,,,,,,,,,,,,,left,1.0,0.4735274999402463,,,,,sub-164,1,random_dot,57.42670916926211,
right,right,50.0,0.0,25.0,right,1.0,0.4883661000058055,,speed,space,4.55740509997122,,,,,,0.0,1.0,1.0,1.0,25.0,0.0,50.0,1.0,501.4666504999623,,,,,,,,,501.4529489999404,501.8039431000361,502.62621440005023,502.6059023999842,502.6067198000383,502.62621440005023,502.62621440005023,502.62621440005023,503.11875369993504,,,,,,,,,,,,,,,,,,,,,,,,,,,,,,,right,1.0,0.4883661000058055,,,,,sub-164,1,random_dot,57.42670916926211,
left,left,51.0,1.0,25.0,left,1.0,0.7651705999160185,,speed,space,4.55740509997122,,,,,,0.0,1.0,1.0,1.0,25.0,1.0,51.0,0.0,503.1337059000507,,,,,,,,,503.11913380003534,503.2321812999435,504.0468529999489,504.02495789993554,504.02597780001815,504.0468529999489,504.0468529999489,504.0468529999489,504.82214569998905,,,,,,,,,,,,,,,,,,,,,,,,,,,,,,,left,1.0,0.7651705999160185,,,,,sub-164,1,random_dot,57.42670916926211,
right,right,52.0,0.0,26.0,right,1.0,0.6060609000269324,,speed,space,4.55740509997122,,,,,,0.0,1.0,1.0,1.0,26.0,0.0,52.0,1.0,504.83684030000586,,,,,,,,,504.8229980999604,504.9372879000148,505.7539402999682,505.7335297999671,505.7346120999428,505.7539402999682,505.7539402999682,505.7539402999682,506.3649443000322,,,,,,,,,,,,,,,,,,,,,,,,,,,,,,,right,1.0,0.6060609000269324,,,,,sub-164,1,random_dot,57.42670916926211,
left,left,53.0,1.0,26.0,left,1.0,0.6921601999783888,,speed,space,4.55740509997122,,,,,,0.0,1.0,1.0,1.0,26.0,1.0,53.0,0.0,506.3779202000005,,,,,,,,,506.3661415999522,507.1888308000052,507.9954082999611,507.974061200046,507.9750550000463,507.9954082999611,507.9954082999611,507.9954082999611,508.6982709999429,,,,,,,,,,,,,,,,,,,,,,,,,,,,,,,left,1.0,0.6921601999783888,,,,,sub-164,1,random_dot,57.42670916926211,
right,right,54.0,0.0,27.0,left,0.0,0.6338482999708503,,speed,space,4.55740509997122,,,,,,0.0,1.0,1.0,1.0,27.0,0.0,54.0,1.0,508.7111065000063,,,,,,,,,508.6995072000427,509.9091290000361,510.72544309997465,510.7056612999877,510.70646479993593,510.72544309997465,510.72544309997465,510.72544309997465,511.3707046000054,,,,,,,,,,,,,,,,,,,,,,,,,,,,,,,left,0.0,0.6338482999708503,,,,,sub-164,1,random_dot,57.42670916926211,
left,left,55.0,1.0,27.0,right,0.0,0.7213899999624118,,speed,space,4.55740509997122,,,,,,0.0,1.0,1.0,1.0,27.0,1.0,55.0,0.0,511.3857290999731,,,,,,,,,511.3715251999674,511.7211888999445,512.5289083999814,512.5078370999545,512.5087652000366,512.5289083999814,512.5289083999814,512.5289083999814,513.2547194999643,,,,,,,,,,,,,,,,,,,,,,,,,,,,,,,right,0.0,0.7213899999624118,,,,,sub-164,1,random_dot,57.42670916926211,
left,left,56.0,0.0,28.0,left,1.0,0.8046491000568494,,speed,space,4.55740509997122,,,,,,0.0,1.0,1.0,1.0,28.0,0.0,56.0,0.0,513.2704359999625,,,,,,,,,513.2556426000083,514.0540980999358,514.8632547999732,514.8421492000343,514.8431177999591,514.8632547999732,514.8632547999732,514.8632547999732,515.672548100003,,,,,,,,,,,,,,,,,,,,,,,,,,,,,,,left,1.0,0.8046491000568494,,,,,sub-164,1,random_dot,57.42670916926211,
right,right,57.0,1.0,28.0,right,1.0,0.5302573000080884,,speed,space,4.55740509997122,,,,,,0.0,1.0,1.0,1.0,28.0,1.0,57.0,1.0,515.6872063999763,,,,,,,,,515.6734175999882,516.8721087999875,517.6800532999914,517.6586169999791,517.6595977999968,517.6800532999914,517.6800532999914,517.6800532999914,518.2299195999512,,,,,,,,,,,,,,,,,,,,,,,,,,,,,,,right,1.0,0.5302573000080884,,,,,sub-164,1,random_dot,57.42670916926211,
right,right,58.0,0.0,29.0,left,0.0,0.6720746998907998,,speed,space,4.55740509997122,,,,,,0.0,1.0,1.0,1.0,29.0,0.0,58.0,1.0,518.2417990999529,,,,,,,,,518.2307493999833,518.3368387999944,519.1455286999699,519.123979200027,519.1248922999948,519.1455286999699,519.1455286999699,519.1455286999699,519.8412906000158,,,,,,,,,,,,,,,,,,,,,,,,,,,,,,,left,0.0,0.6720746998907998,,,,,sub-164,1,random_dot,57.42670916926211,
left,left,59.0,1.0,29.0,left,1.0,0.5545282000675797,,speed,space,4.55740509997122,,,,,,0.0,1.0,1.0,1.0,29.0,1.0,59.0,0.0,519.8571168000344,,,,,,,,,519.8424100000411,520.6551759999711,521.4623275999911,521.4411258000182,521.4421618999913,521.4623275999911,521.4623275999911,521.4623275999911,522.0381159000099,,,,,,,,,,,,,,,,,,,,,,,,,,,,,,,left,1.0,0.5545282000675797,,,,,sub-164,1,random_dot,57.42670916926211,
,,1.0,1.0,0.0,,,,,speed,space,4.55740509997122,,,,,,0.0,1.0,1.0,1.0,,,,,,,,,,,,,,,,,,,,,,,,,,,,,,,,,,,,,,,,,,,,,,,,,,,,,,,,,,,,sub-164,1,random_dot,57.42670916926211,
,,,,,,,,,,,,,,,,,,,,,,,,,,,,,,,,,,,,,,,,,,,,,,,,,,,,,,,,,,,,,,,,,,,,,,,,,,,,,522.0516637000255,522.0665987000102,527.0393698000116,sub-164,1,random_dot,57.42670916926211,
