direction,corrAns,thisN,thisTrialN,thisRepN,respDots.keys,respDots.corr,respDots.rt,respDots.duration,randomInstr,respRandomInstr.keys,respRandomInstr.rt,respRandomInstr.duration,practice_trials.thisRepN,practice_trials.thisTrialN,practice_trials.thisN,practice_trials.thisIndex,instr_trials.thisRepN,instr_trials.thisTrialN,instr_trials.thisN,instr_trials.thisIndex,test_trials.thisRepN,test_trials.thisTrialN,test_trials.thisN,test_trials.thisIndex,thisRow.t,notes,general_instruction.started,textGeneralInstr.started,respGeneralInstr.started,general_instruction.stopped,respGeneralInstr.keys,respGeneralInstr.rt,respGeneralInstr.duration,ITI.started,fixcross.started,fixcross.stopped,ITI.stopped,dots.started,backgroundDots.started,stimulusDots.started,respDots.started,stimulusDots.stopped,dots.stopped,practice_trials.respDots.keys,practice_trials.respDots.corr,practice_trials.respDots.rt,practice_trials.respDots.duration,feedback.started,textFeedback.started,feedback.stopped,textFeedback.stopped,info.started,textInfo.started,keyRespInfo.started,info.stopped,keyRespInfo.keys,keyRespInfo.rt,keyRespInfo.duration,test_instruction.started,textTestInstr.started,respTestInstr.started,test_instruction.stopped,respTestInstr.keys,respTestInstr.rt,respTestInstr.duration,random_instruction.started,textRandomInstr.started,respRandomInstr.started,random_instruction.stopped,instr_trials.respRandomInstr.keys,instr_trials.respRandomInstr.rt,instr_trials.respRandomInstr.duration,test_trials.respDots.keys,test_trials.respDots.corr,test_trials.respDots.rt,test_trials.respDots.duration,goodbye.started,textGoodbye.started,goodbye.stopped,participant,session,expName,frameRate,Unnamed: 87
,,,,,,,,,,,,,,,,,,,,,,,,,,,0.0075933750049443,0.0153214169986313,0.0153214169986313,21.944521833996987,space,21.79104516599909,,,,,,,,,,,,,,,,,,,,,,,,,,,,,,,,,,,,,,,,,,,,,,,,sub-072,1,random_dot,,
right,right,0.0,0.0,0.0,left,0.0,21.78020908299368,,,,,,0.0,0.0,0.0,1.0,,,,,,,,,21.985201000003144,,,,,,,,,21.962167334000696,22.040533084000344,22.84913516699453,22.833857417004765,22.834484709004755,22.84913516699453,22.84913516699453,22.84913516699453,27.821741584004485,44.63567558399518,left,0.0,21.78020908299368,,44.64673862500058,44.73282862499764,45.13972995900258,,,,,,,,,,,,,,,,,,,,,,,,,,,,,,sub-072,1,random_dot,,
left,left,1.0,1.0,0.0,left,1.0,1.465472874988336,,,,,,0.0,1.0,1.0,0.0,,,,,,,,,45.1505980840011,,,,,,,,,45.14034345900291,45.23383337499399,46.02588183399348,46.01768433400139,46.01829437499691,46.02588183399348,46.02588183399348,46.02588183399348,,47.5014916670043,left,1.0,1.465472874988336,,47.50733179200324,47.52954800000589,48.007034042006126,,,,,,,,,,,,,,,,,,,,,,,,,,,,,,sub-072,1,random_dot,,
left,left,2.0,0.0,1.0,left,1.0,0.879993333001039,,,,,,1.0,0.0,2.0,0.0,,,,,,,,,48.01721166700008,,,,,,,,,48.00766637499328,48.09146970900474,48.89319858400268,48.88446254200244,48.88516645900381,48.89319858400268,48.89319858400268,48.89319858400268,,49.77494970899716,left,1.0,0.879993333001039,,49.77509774999635,49.783130416995846,50.26778845899389,50.27306537500408,,,,,,,,,,,,,,,,,,,,,,,,,,,,,sub-072,1,random_dot,,
right,right,3.0,1.0,1.0,right,1.0,0.7342417080071755,,,,,,1.0,1.0,3.0,1.0,,,,,,,,,50.27306537500408,,,,,,,,,50.26826633399469,50.62519283400616,51.4261258750048,51.417775042005815,51.4183301669982,51.4261258750048,51.4261258750048,51.4261258750048,,52.16828866700234,right,1.0,0.7342417080071755,,52.16840008400322,52.17604533399572,52.66791491699405,52.67379004199756,,,,,,,,,,,,,,,,,,,,,,,,,,,,,sub-072,1,random_dot,,
right,right,4.0,0.0,2.0,left,0.0,1.3966231670056004,,,,,,2.0,0.0,4.0,1.0,,,,,,,,,52.67379004199756,,,,,,,,,52.66839987499407,52.75741033400118,53.55063333400176,53.54060145899712,53.54128000000492,53.55063333400176,53.55063333400176,53.55063333400176,,54.95172654199996,left,0.0,1.3966231670056004,,54.95497637499648,54.963310499995714,55.45118658400315,55.45709183400322,,,,,,,,,,,,,,,,,,,,,,,,,,,,,sub-072,1,random_dot,,
left,left,5.0,1.0,2.0,left,1.0,0.9107475409982726,,,,,,2.0,1.0,5.0,0.0,,,,,,,,,55.45709183400322,,,,,,,,,55.45166545899701,55.541952750005294,56.3425749589951,56.33435566700064,56.33495187500375,56.3425749589951,56.3425749589951,56.3425749589951,,57.25842112499231,left,1.0,0.9107475409982726,,57.26193583400163,57.27214549999917,57.75667595899722,57.767605125001865,,,,,,,,,,,,,,,,,,,,,,,,,,,,,sub-072,1,random_dot,,
right,right,6.0,0.0,3.0,left,0.0,2.6765264999994542,,,,,,3.0,0.0,6.0,1.0,,,,,,,,,57.767605125001865,,,,,,,,,57.757161375004216,58.55900762499368,59.35969029199623,59.35135154200543,59.35194608400343,59.35969029199623,59.35969029199623,59.35969029199623,,62.04247808399669,left,0.0,2.6765264999994542,,62.04573574999813,62.05548349999299,62.54138641699683,62.55081670900108,,,,,,,,,,,,,,,,,,,,,,,,,,,,,sub-072,1,random_dot,,
left,left,7.0,1.0,3.0,right,0.0,1.1065993749944028,,,,,,3.0,1.0,7.0,0.0,,,,,,,,,62.55081670900108,,,,,,,,,62.54194137500599,62.89221883399296,63.69373983399419,63.68475124999532,63.68544808399747,63.69373983399419,63.69373983399419,63.69373983399419,,64.80190354200022,right,0.0,1.1065993749944028,,64.80204891700123,64.80775691699819,65.29080804200203,65.30111237500387,,,,,,,,,,,,,,,,,,,,,,,,,,,,,sub-072,1,random_dot,,
left,left,8.0,0.0,4.0,left,1.0,0.395606707999832,,,,,,4.0,0.0,8.0,0.0,,,,,,,,,65.30111237500387,,,,,,,,,65.2913062919979,66.4917921669985,67.29365170899837,67.28494633399532,67.28575754200574,67.29365170899837,67.29365170899837,67.29365170899837,,67.69285591700464,left,1.0,0.395606707999832,,67.6973022089951,67.70547808399715,68.19072054199933,68.2013237499923,,,,,,,,,,,,,,,,,,,,,,,,,,,,,sub-072,1,random_dot,,
right,right,9.0,1.0,4.0,left,0.0,0.4681127499934518,,,,,,4.0,1.0,9.0,1.0,,,,,,,,,68.2013237499923,,,,,,,,,68.19126620900352,68.29226249999192,69.09310600000026,69.0846667500009,69.08527508399857,69.09310600000026,69.09310600000026,69.09310600000026,,69.56864374999714,left,0.0,0.4681127499934518,,69.57257175000268,69.58103704199311,70.06845166700077,70.07424979200005,,,,,,,,,,,,,,,,,,,,,,,,,,,,,sub-072,1,random_dot,,
left,left,10.0,0.0,5.0,left,1.0,0.3898637919919565,,,,,,5.0,0.0,10.0,0.0,,,,,,,,,70.07424979200005,,,,,,,,,70.06900841700553,70.15891245899547,70.96033029200044,70.95127995900111,70.95197100000223,70.96033029200044,70.96033029200044,70.96033029200044,,71.35198945899901,left,1.0,0.3898637919919565,,71.35518379199493,71.363521709005,71.85154858400347,71.85653012500552,,,,,,,,,,,,,,,,,,,,,,,,,,,,,sub-072,1,random_dot,,
right,right,11.0,1.0,5.0,left,0.0,0.3329017079959158,,,,,,5.0,1.0,11.0,1.0,,,,,,,,,71.85653012500552,,,,,,,,,71.85199524999189,72.19126333399618,72.98338416700426,72.97483962499246,72.97547820900218,72.98338416700426,72.98338416700426,72.98338416700426,,73.3186628340045,left,0.0,0.3329017079959158,,73.32191208399308,73.33008770899323,73.81846316700103,73.82444958400447,,,,,,,,,,,,,,,,,,,,,,,,,,,,,sub-072,1,random_dot,,
right,right,12.0,0.0,6.0,right,1.0,0.0104626240063225,,,,,,6.0,0.0,12.0,1.0,,,,,,,,,73.82444958400447,,,,,,,,,73.81906166700355,73.90926729199418,74.71101783399354,74.70194912499574,74.70264641700487,74.71101783399354,74.71101783399354,74.71101783399354,,74.7358575840044,right,1.0,0.0104626240063225,,74.74461266699655,74.75399045899394,75.24098458400113,,,,,,,,,,,,,,,,,,,,,,,,,,,,,,sub-072,1,random_dot,,
left,left,13.0,1.0,6.0,right,0.0,1.269623041007435,,,,,,6.0,1.0,13.0,0.0,,,,,,,,,75.25139354199928,,,,,,,,,75.24151808400347,75.58454633399379,76.37569450000592,76.36807804199634,76.36860333400546,76.37569450000592,76.37569450000592,76.37569450000592,,77.65210745899822,right,0.0,1.269623041007435,,77.65544716699515,77.66387408399896,78.15185937499336,78.15771291700366,,,,,,,,,,,,,,,,,,,,,,,,,,,,,sub-072,1,random_dot,,
right,right,14.0,0.0,7.0,left,0.0,1.5287574579997454,,,,,,7.0,0.0,14.0,1.0,,,,,,,,,78.15771291700366,,,,,,,,,78.1523524170043,78.24228020900046,79.04337487499288,79.03518733399687,79.03578233400185,79.04337487499288,79.04337487499288,79.04337487499288,,80.57577579199278,left,0.0,1.5287574579997454,,80.57592133400613,80.58403499999258,81.06821379199391,81.07404649999808,,,,,,,,,,,,,,,,,,,,,,,,,,,,,sub-072,1,random_dot,,
left,left,15.0,1.0,7.0,left,1.0,0.796680290994118,,,,,,7.0,1.0,15.0,0.0,,,,,,,,,81.07404649999808,,,,,,,,,81.06871241699264,82.27618087499286,83.07651195899234,83.06846358400071,83.06904400000349,83.07651195899234,83.07651195899234,83.07651195899234,,83.87657233400387,left,1.0,0.796680290994118,,83.88092520899954,83.88860129199747,84.37453429200104,84.38492945900362,,,,,,,,,,,,,,,,,,,,,,,,,,,,,sub-072,1,random_dot,,
right,right,16.0,0.0,8.0,left,0.0,0.7803973740083165,,,,,,8.0,0.0,16.0,1.0,,,,,,,,,84.38492945900362,,,,,,,,,84.37502654199488,85.17575491699972,85.97685379200266,85.96866399999999,85.96923795899784,85.97685379200266,85.97685379200266,85.97685379200266,,86.75951579200046,left,0.0,0.7803973740083165,,86.76324691700574,86.7727856249985,87.25806766700407,87.26839574999758,,,,,,,,,,,,,,,,,,,,,,,,,,,,,sub-072,1,random_dot,,
left,left,17.0,1.0,8.0,left,1.0,0.6058414159924723,,,,,,8.0,1.0,17.0,0.0,,,,,,,,,87.26839574999758,,,,,,,,,87.2585607499932,88.05813195899827,88.85118287500518,88.84158891699917,88.84220670899958,88.85118287500518,88.85118287500518,88.85118287500518,,89.45954662500299,left,1.0,0.6058414159924723,,89.46267441699456,89.47280708399194,89.95740870900045,89.96834304199729,,,,,,,,,,,,,,,,,,,,,,,,,,,,,sub-072,1,random_dot,,
left,left,18.0,0.0,9.0,left,1.0,0.3308637499867473,,,,,,9.0,0.0,18.0,0.0,,,,,,,,,89.96834304199729,,,,,,,,,89.95788495900342,90.05826804200478,90.85128524999892,90.84098862500105,90.84159695899872,90.85128524999892,90.85128524999892,90.85128524999892,,91.18598591699264,left,1.0,0.3308637499867473,,91.1861398750043,91.1948160000029,91.6851631669997,91.69097020900516,,,,,,,,,,,,,,,,,,,,,,,,,,,,,sub-072,1,random_dot,,
right,right,19.0,1.0,9.0,right,1.0,0.5732192499999655,,,,,,9.0,1.0,19.0,1.0,,,,,,,,,91.69097020900516,,,,,,,,,91.68563837499823,91.77498975000344,92.56787441699998,92.55830862499715,92.55890720899332,92.56787441699998,92.56787441699998,92.56787441699998,,93.1438824999932,right,1.0,0.5732192499999655,,93.14401891699526,93.152333334001,93.63543024999672,93.64353216699963,,,,,,,,,,,,,,,,,,,,,,,,,,,,,sub-072,1,random_dot,,
,,,,,,,,,,,,,,,,,,,,,,,,,,,,,,,,,,,,,,,,,,,,,,,,,,,,93.63562462499247,93.64353216699963,93.64353216699963,100.76996879199578,space,7.120783208010835,,,,,,,,,,,,,,,,,,,,,,,sub-072,1,random_dot,,
,,,,,,,,,,,,,,,,,,,,,,,,,,,,,,,,,,,,,,,,,,,,,,,,,,,,,,,,,,,100.77007458399748,100.7814392089931,100.7814392089931,102.0259417500056,space,1.2428253750113072,,,,,,,,,,,,,,,,sub-072,1,random_dot,,
right,right,0.0,0.0,0.0,left,0.0,0.2632887079962529,,speed,space,3.2458539999934146,,,,,,0.0,0.0,0.0,1.0,0.0,0.0,0.0,1.0,105.3256680839986,,,,,,,,,105.31787270899804,106.50173987500602,107.29478054199716,107.28576270899794,107.28648804199474,107.29478054199716,107.29478054199716,107.29478054199716,,107.55967941699782,,,,,,,,,,,,,,,,,,,,,,,102.04816158399626,102.0573333749926,102.0573333749926,105.30955891699703,space,3.2458539999934146,,left,0.0,0.2632887079962529,,,,,sub-072,1,random_dot,,
left,left,1.0,1.0,0.0,left,1.0,0.2273774579953169,,speed,space,3.2458539999934146,,,,,,0.0,0.0,0.0,1.0,0.0,1.0,1.0,0.0,107.5685627500061,,,,,,,,,107.5601679590036,107.66280258400366,108.46183708400348,108.45270974999583,108.45337474999542,108.46183708400348,108.46183708400348,108.46183708400348,,108.69312695899862,,,,,,,,,,,,,,,,,,,,,,,,,,,,,,left,1.0,0.2273774579953169,,,,,sub-072,1,random_dot,,
left,left,2.0,0.0,1.0,right,0.0,0.22506704099942,,speed,space,3.2458539999934146,,,,,,0.0,0.0,0.0,1.0,1.0,0.0,2.0,0.0,108.70201433400509,,,,,,,,,108.69362033400104,108.79599591699662,109.59406899999884,109.58589933399344,109.58646041700558,109.59406899999884,109.59406899999884,109.59406899999884,,109.82628241699422,,,,,,,,,,,,,,,,,,,,,,,,,,,,,,right,0.0,0.22506704099942,,,,,sub-072,1,random_dot,,
right,right,3.0,1.0,1.0,right,1.0,0.2186092080082744,,speed,space,3.2458539999934146,,,,,,0.0,0.0,0.0,1.0,1.0,1.0,3.0,1.0,109.83439712499968,,,,,,,,,109.82673587500176,110.6267290419928,111.42767204200209,111.41935341700446,111.41990779200567,111.42767204200209,111.42767204200209,111.42767204200209,,111.65274304199556,,,,,,,,,,,,,,,,,,,,,,,,,,,,,,right,1.0,0.2186092080082744,,,,,sub-072,1,random_dot,,
right,right,4.0,0.0,2.0,right,1.0,0.4451165410137037,,speed,space,3.2458539999934146,,,,,,0.0,0.0,0.0,1.0,2.0,0.0,4.0,1.0,111.6610187920014,,,,,,,,,111.65322029200615,112.843530291997,113.64412716700464,113.63595337499282,113.6365186250041,113.64412716700464,113.64412716700464,113.64412716700464,,114.09338066699274,,,,,,,,,,,,,,,,,,,,,,,,,,,,,,right,1.0,0.4451165410137037,,,,,sub-072,1,random_dot,,
left,left,5.0,1.0,2.0,left,1.0,0.2109199580008862,,speed,space,3.2458539999934146,,,,,,0.0,0.0,0.0,1.0,2.0,1.0,5.0,0.0,114.10174879200348,,,,,,,,,114.09393795899814,114.44351879200258,115.2443314169941,115.23615062500176,115.23670866699833,115.2443314169941,115.2443314169941,115.2443314169941,,115.4605429170042,,,,,,,,,,,,,,,,,,,,,,,,,,,,,,left,1.0,0.2109199580008862,,,,,sub-072,1,random_dot,,
left,left,6.0,0.0,3.0,right,0.0,0.5322978749900358,,speed,space,3.2458539999934146,,,,,,0.0,0.0,0.0,1.0,3.0,0.0,6.0,0.0,115.46893762500258,,,,,,,,,115.46104545900016,116.26023133400304,117.06189854200056,117.05280045900145,117.05347258399706,117.06189854200056,117.06189854200056,117.06189854200056,,117.603253209003,,,,,,,,,,,,,,,,,,,,,,,,,,,,,,right,0.0,0.5322978749900358,,,,,sub-072,1,random_dot,,
right,right,7.0,1.0,3.0,left,0.0,0.2598019169963663,,speed,space,3.2458539999934146,,,,,,0.0,0.0,0.0,1.0,3.0,1.0,7.0,1.0,117.61099708400434,,,,,,,,,117.60373333399184,118.39241554199543,119.18535837500532,119.17570270900616,119.17629062499329,119.18535837500532,119.18535837500532,119.18535837500532,,119.45319387500058,,,,,,,,,,,,,,,,,,,,,,,,,,,,,,left,0.0,0.2598019169963663,,,,,sub-072,1,random_dot,,
left,left,8.0,0.0,4.0,left,1.0,0.2917341239954112,,speed,space,3.2458539999934146,,,,,,0.0,0.0,0.0,1.0,4.0,0.0,8.0,0.0,119.4610403340048,,,,,,,,,119.45366962499976,119.5422597089928,120.34434170900204,120.33615941699829,120.33673612499842,120.34434170900204,120.34434170900204,120.34434170900204,,120.64325804199323,,,,,,,,,,,,,,,,,,,,,,,,,,,,,,left,1.0,0.2917341239954112,,,,,sub-072,1,random_dot,,
right,right,9.0,1.0,4.0,right,1.0,0.2889118750026682,,speed,space,3.2458539999934146,,,,,,0.0,0.0,0.0,1.0,4.0,1.0,9.0,1.0,120.65112791699356,,,,,,,,,120.6437122089992,120.99403412500396,121.7943373750022,121.786159958996,121.78673079199508,121.7943373750022,121.7943373750022,121.7943373750022,,122.08675233399843,,,,,,,,,,,,,,,,,,,,,,,,,,,,,,right,1.0,0.2889118750026682,,,,,sub-072,1,random_dot,,
left,left,10.0,0.0,5.0,left,1.0,0.4013301249942742,,speed,space,3.2458539999934146,,,,,,0.0,0.0,0.0,1.0,5.0,0.0,10.0,0.0,122.09195266700408,,,,,,,,,122.08722641700297,123.27720233399305,124.07788020900624,124.06963774999896,124.07021512500069,124.07788020900624,124.07788020900624,124.07788020900624,,124.48673683400555,,,,,,,,,,,,,,,,,,,,,,,,,,,,,,left,1.0,0.4013301249942742,,,,,sub-072,1,random_dot,,
right,right,11.0,1.0,5.0,left,0.0,0.2460610409907531,,speed,space,3.2458539999934146,,,,,,0.0,0.0,0.0,1.0,5.0,1.0,11.0,1.0,124.49450879200594,,,,,,,,,124.48718091699992,125.27697045900275,126.0780271669937,126.0696515419986,126.07021545899624,126.0780271669937,126.0780271669937,126.0780271669937,,126.32668458399712,,,,,,,,,,,,,,,,,,,,,,,,,,,,,,left,0.0,0.2460610409907531,,,,,sub-072,1,random_dot,,
left,left,12.0,0.0,6.0,right,0.0,0.3062332909903489,,speed,space,3.2458539999934146,,,,,,0.0,0.0,0.0,1.0,6.0,0.0,12.0,0.0,126.3348920839926,,,,,,,,,126.32718908399691,126.67600304199732,127.46877241699258,127.45882791699842,127.45941374999528,127.46877241699258,127.46877241699258,127.46877241699258,,127.77642337500583,,,,,,,,,,,,,,,,,,,,,,,,,,,,,,right,0.0,0.3062332909903489,,,,,sub-072,1,random_dot,,
right,right,13.0,1.0,6.0,right,1.0,0.2718929999973625,,speed,space,3.2458539999934146,,,,,,0.0,0.0,0.0,1.0,6.0,1.0,13.0,1.0,127.78565762500511,,,,,,,,,127.77686033399368,127.87691754200203,128.67814216700208,128.6694685419934,128.67016024999612,128.67814216700208,128.67814216700208,128.67814216700208,,128.95355933399696,,,,,,,,,,,,,,,,,,,,,,,,,,,,,,right,1.0,0.2718929999973625,,,,,sub-072,1,random_dot,,
right,right,14.0,0.0,7.0,left,0.0,0.2527656239981297,,speed,space,3.2458539999934146,,,,,,0.0,0.0,0.0,1.0,7.0,0.0,14.0,1.0,128.9624689170014,,,,,,,,,128.9540921250009,129.0426396249968,129.83548949999386,129.825839541998,129.82637254199653,129.83548949999386,129.83548949999386,129.83548949999386,,130.09351333399536,,,,,,,,,,,,,,,,,,,,,,,,,,,,,,left,0.0,0.2527656239981297,,,,,sub-072,1,random_dot,,
left,left,15.0,1.0,7.0,left,1.0,0.2196750409930246,,speed,space,3.2458539999934146,,,,,,0.0,0.0,0.0,1.0,7.0,1.0,15.0,0.0,130.10229108399653,,,,,,,,,130.09390216700558,131.292755167,132.0855210419977,132.0758150000038,132.0764571250038,132.0855210419977,132.0855210419977,132.0855210419977,,132.31043054199836,,,,,,,,,,,,,,,,,,,,,,,,,,,,,,left,1.0,0.2196750409930246,,,,,sub-072,1,random_dot,,
left,left,16.0,0.0,8.0,left,1.0,0.5851844580029137,,speed,space,3.2458539999934146,,,,,,0.0,0.0,0.0,1.0,8.0,0.0,16.0,0.0,132.3181692090002,,,,,,,,,132.31093437499658,133.110454166992,133.91216104199702,133.90319995899335,133.90389058399887,133.91216104199702,133.91216104199702,133.91216104199702,,134.50360687500506,,,,,,,,,,,,,,,,,,,,,,,,,,,,,,left,1.0,0.5851844580029137,,,,,sub-072,1,random_dot,,
right,right,17.0,1.0,8.0,right,1.0,0.3423157500074012,,speed,space,3.2458539999934146,,,,,,0.0,0.0,0.0,1.0,8.0,1.0,17.0,1.0,134.51173591699626,,,,,,,,,134.50408858399896,135.69222579199413,136.48578758399526,136.47506829199847,136.47560662499745,136.48578758399526,136.48578758399526,136.48578758399526,,136.83735183399403,,,,,,,,,,,,,,,,,,,,,,,,,,,,,,right,1.0,0.3423157500074012,,,,,sub-072,1,random_dot,,
left,left,18.0,0.0,9.0,right,0.0,0.384638083007303,,speed,space,3.2458539999934146,,,,,,0.0,0.0,0.0,1.0,9.0,0.0,18.0,0.0,136.8455445419968,,,,,,,,,136.8378378750058,137.17633104199194,137.96940941699722,137.95971854199888,137.9602249169984,137.96940941699722,137.96940941699722,137.96940941699722,,138.36131391700474,,,,,,,,,,,,,,,,,,,,,,,,,,,,,,right,0.0,0.384638083007303,,,,,sub-072,1,random_dot,,
right,right,19.0,1.0,9.0,right,1.0,0.6208603749983013,,speed,space,3.2458539999934146,,,,,,0.0,0.0,0.0,1.0,9.0,1.0,19.0,1.0,138.3691263340006,,,,,,,,,138.36181524999847,138.70975916700263,139.50232466700254,139.49278266700276,139.49338679200446,139.50232466700254,139.50232466700254,139.50232466700254,,140.12700354200206,,,,,,,,,,,,,,,,,,,,,,,,,,,,,,right,1.0,0.6208603749983013,,,,,sub-072,1,random_dot,,
left,left,20.0,0.0,10.0,right,0.0,0.6266362909955205,,speed,space,3.2458539999934146,,,,,,0.0,0.0,0.0,1.0,10.0,0.0,20.0,0.0,140.1351931669924,,,,,,,,,140.12751112499973,141.32720866700402,142.12852470899816,142.12030070899343,142.12084104199312,142.12852470899816,142.12852470899816,142.12852470899816,,142.76146120899648,,,,,,,,,,,,,,,,,,,,,,,,,,,,,,right,0.0,0.6266362909955205,,,,,sub-072,1,random_dot,,
right,right,21.0,1.0,10.0,right,1.0,0.7559023329959018,,speed,space,3.2458539999934146,,,,,,0.0,0.0,0.0,1.0,10.0,1.0,21.0,1.0,142.7699990419933,,,,,,,,,142.76195050000388,143.11047129200597,143.9122747920046,143.90345879200322,143.90417583400267,143.9122747920046,143.9122747920046,143.9122747920046,,144.67049991700333,,,,,,,,,,,,,,,,,,,,,,,,,,,,,,right,1.0,0.7559023329959018,,,,,sub-072,1,random_dot,,
right,right,22.0,0.0,11.0,right,1.0,0.5621937079995405,,speed,space,3.2458539999934146,,,,,,0.0,0.0,0.0,1.0,11.0,0.0,22.0,1.0,144.6785133749945,,,,,,,,,144.67100245899928,145.0093116670032,145.80220945899782,145.79324891700526,145.79406979199848,145.80220945899782,145.80220945899782,145.80220945899782,,146.3707273750042,,,,,,,,,,,,,,,,,,,,,,,,,,,,,,right,1.0,0.5621937079995405,,,,,sub-072,1,random_dot,,
left,left,23.0,1.0,11.0,right,0.0,1.3275361669948325,,speed,space,3.2458539999934146,,,,,,0.0,0.0,0.0,1.0,11.0,1.0,23.0,0.0,146.37881741700403,,,,,,,,,146.3712413750036,146.70950629199797,147.50262212500093,147.4924810840021,147.49300116699305,147.50262212500093,147.50262212500093,147.50262212500093,,148.83728770900052,,,,,,,,,,,,,,,,,,,,,,,,,,,,,,right,0.0,1.3275361669948325,,,,,sub-072,1,random_dot,,
right,right,24.0,0.0,12.0,right,1.0,0.6617601659963839,,speed,space,3.2458539999934146,,,,,,0.0,0.0,0.0,1.0,12.0,0.0,24.0,1.0,148.84510279199458,,,,,,,,,148.8377252920036,149.62764087499818,150.42836645900388,150.41997958399588,150.42058000000543,150.42836645900388,150.42836645900388,150.42836645900388,,151.0940313339961,,,,,,,,,,,,,,,,,,,,,,,,,,,,,,right,1.0,0.6617601659963839,,,,,sub-072,1,random_dot,,
left,left,25.0,1.0,12.0,left,1.0,0.5654569579928648,,speed,space,3.2458539999934146,,,,,,0.0,0.0,0.0,1.0,12.0,1.0,25.0,0.0,151.10307129200373,,,,,,,,,151.09453462499368,151.44431070900464,152.24570920900442,152.2367977499962,152.23747474999982,152.24570920900442,152.24570920900442,152.24570920900442,,152.82094229200447,,,,,,,,,,,,,,,,,,,,,,,,,,,,,,left,1.0,0.5654569579928648,,,,,sub-072,1,random_dot,,
right,right,26.0,0.0,13.0,left,0.0,0.2432441670098342,,speed,space,3.2458539999934146,,,,,,0.0,0.0,0.0,1.0,13.0,0.0,26.0,1.0,152.82948299999407,,,,,,,,,152.82142608400318,154.0112893750047,154.81194545900507,154.8036887920025,154.804227583998,154.81194545900507,154.81194545900507,154.81194545900507,,155.06082425000204,,,,,,,,,,,,,,,,,,,,,,,,,,,,,,left,0.0,0.2432441670098342,,,,,sub-072,1,random_dot,,
left,left,27.0,1.0,13.0,left,1.0,0.5113937080022879,,speed,space,3.2458539999934146,,,,,,0.0,0.0,0.0,1.0,13.0,1.0,27.0,0.0,155.06865795899648,,,,,,,,,155.0612918340048,155.16120858400245,155.96256633399753,155.95378470899595,155.95447441699798,155.96256633399753,155.96256633399753,155.96256633399753,,156.47724258400558,,,,,,,,,,,,,,,,,,,,,,,,,,,,,,left,1.0,0.5113937080022879,,,,,sub-072,1,random_dot,,
right,right,28.0,0.0,14.0,left,0.0,0.3527047079987824,,speed,space,3.2458539999934146,,,,,,0.0,0.0,0.0,1.0,14.0,0.0,28.0,1.0,156.48651175000123,,,,,,,,,156.4776222090004,156.82752516699838,157.61947587500617,157.6103030420054,157.61088195900084,157.61947587500617,157.61947587500617,157.61947587500617,,157.97762770899865,,,,,,,,,,,,,,,,,,,,,,,,,,,,,,left,0.0,0.3527047079987824,,,,,sub-072,1,random_dot,,
left,left,29.0,1.0,14.0,right,0.0,0.1920906660088803,,speed,space,3.2458539999934146,,,,,,0.0,0.0,0.0,1.0,14.0,1.0,29.0,0.0,157.98602524999296,,,,,,,,,157.9781382499932,158.77799283400236,159.57908216699434,159.57043350000458,159.571101249996,159.57908216699434,159.57908216699434,159.57908216699434,,159.77770199999213,,,,,,,,,,,,,,,,,,,,,,,,,,,,,,right,0.0,0.1920906660088803,,,,,sub-072,1,random_dot,,
left,left,30.0,0.0,15.0,right,0.0,0.5664567079948029,,speed,space,3.2458539999934146,,,,,,0.0,0.0,0.0,1.0,15.0,0.0,30.0,0.0,159.785615959001,,,,,,,,,159.77817599999253,160.1275763339945,160.9286903750035,160.92043266700057,160.92099412500102,160.9286903750035,160.9286903750035,160.9286903750035,,161.50423820900323,,,,,,,,,,,,,,,,,,,,,,,,,,,,,,right,0.0,0.5664567079948029,,,,,sub-072,1,random_dot,,
right,right,31.0,1.0,15.0,left,0.0,0.6763102490076562,,speed,space,3.2458539999934146,,,,,,0.0,0.0,0.0,1.0,15.0,1.0,31.0,1.0,161.5120597500063,,,,,,,,,161.50461033399915,161.84479270900192,162.64374920900443,162.6376536250027,162.6379608339921,162.64374920900443,162.64374920900443,162.64374920900443,,163.32924366700172,,,,,,,,,,,,,,,,,,,,,,,,,,,,,,left,0.0,0.6763102490076562,,,,,sub-072,1,random_dot,,
right,right,32.0,0.0,16.0,right,1.0,0.6805128329870058,,speed,space,3.2458539999934146,,,,,,0.0,0.0,0.0,1.0,16.0,0.0,32.0,1.0,163.35335833400313,,,,,,,,,163.3297749589983,163.6779943339934,164.47969925000507,164.4708180000016,164.47150729199348,164.47969925000507,164.47969925000507,164.47969925000507,,165.17112095899938,,,,,,,,,,,,,,,,,,,,,,,,,,,,,,right,1.0,0.6805128329870058,,,,,sub-072,1,random_dot,,
left,left,33.0,1.0,16.0,right,0.0,0.3295247920032125,,speed,space,3.2458539999934146,,,,,,0.0,0.0,0.0,1.0,16.0,1.0,33.0,0.0,165.18039658399357,,,,,,,,,165.1716882920009,165.27028420899296,166.06262562499614,166.0537667919998,166.05442166699504,166.06262562499614,166.06262562499614,166.06262562499614,,166.39505512500182,,,,,,,,,,,,,,,,,,,,,,,,,,,,,,right,0.0,0.3295247920032125,,,,,sub-072,1,random_dot,,
left,left,34.0,0.0,17.0,left,1.0,0.2374007500038715,,speed,space,3.2458539999934146,,,,,,0.0,0.0,0.0,1.0,17.0,0.0,34.0,0.0,166.40300916699923,,,,,,,,,166.39558033399226,167.5946900840063,168.3956584999978,168.38736508399597,168.38797395900474,168.3956584999978,168.3956584999978,168.3956584999978,,168.6378118749999,,,,,,,,,,,,,,,,,,,,,,,,,,,,,,left,1.0,0.2374007500038715,,,,,sub-072,1,random_dot,,
right,right,35.0,1.0,17.0,left,0.0,0.3210303749947343,,speed,space,3.2458539999934146,,,,,,0.0,0.0,0.0,1.0,17.0,1.0,35.0,1.0,168.64650524999888,,,,,,,,,168.6384162089962,168.97798358400178,169.77908837499854,169.77086920899455,169.77145374999964,169.77908837499854,169.77908837499854,169.77908837499854,,170.10436454199953,,,,,,,,,,,,,,,,,,,,,,,,,,,,,,left,0.0,0.3210303749947343,,,,,sub-072,1,random_dot,,
right,right,36.0,0.0,18.0,left,0.0,0.730941999994684,,speed,space,3.2458539999934146,,,,,,0.0,0.0,0.0,1.0,18.0,0.0,36.0,1.0,170.11295516700193,,,,,,,,,170.1049131250038,170.19496779200563,170.99515795899788,170.98709879200032,170.9876684589981,170.99515795899788,170.99515795899788,170.99515795899788,,171.72870658399188,,,,,,,,,,,,,,,,,,,,,,,,,,,,,,left,0.0,0.730941999994684,,,,,sub-072,1,random_dot,,
left,left,37.0,1.0,18.0,left,1.0,0.8246648750064196,,speed,space,3.2458539999934146,,,,,,0.0,0.0,0.0,1.0,18.0,1.0,37.0,0.0,171.73652754200157,,,,,,,,,171.7292048340023,171.83101008400263,172.62935637499322,172.62055645900546,172.62114079200546,172.62935637499322,172.62935637499322,172.62935637499322,,173.46184658400307,,,,,,,,,,,,,,,,,,,,,,,,,,,,,,left,1.0,0.8246648750064196,,,,,sub-072,1,random_dot,,
left,left,38.0,0.0,19.0,left,1.0,2.3898539999936474,,speed,space,3.2458539999934146,,,,,,0.0,0.0,0.0,1.0,19.0,0.0,38.0,0.0,173.47043079200375,,,,,,,,,173.4623608749971,173.56452070899832,174.36210425000172,174.35391508399334,174.3545102920034,174.36210425000172,174.36210425000172,174.36210425000172,,176.75464970899338,,,,,,,,,,,,,,,,,,,,,,,,,,,,,,left,1.0,2.3898539999936474,,,,,sub-072,1,random_dot,,
right,right,39.0,1.0,19.0,left,0.0,0.3835362079989863,,speed,space,3.2458539999934146,,,,,,0.0,0.0,0.0,1.0,19.0,1.0,39.0,1.0,176.76009662500292,,,,,,,,,176.75514783400286,177.09518445900176,177.8963868749997,177.88767462500255,177.8882404169999,177.8963868749997,177.8963868749997,177.8963868749997,,178.28799658399657,,,,,,,,,,,,,,,,,,,,,,,,,,,,,,left,0.0,0.3835362079989863,,,,,sub-072,1,random_dot,,
right,right,40.0,0.0,20.0,right,1.0,0.5017556250095367,,speed,space,3.2458539999934146,,,,,,0.0,0.0,0.0,1.0,20.0,0.0,40.0,1.0,178.29595349999727,,,,,,,,,178.2884802089975,179.4773334999918,180.2694217919925,180.26061341700552,180.2612052500044,180.2694217919925,180.2694217919925,180.2694217919925,,180.77818308399583,,,,,,,,,,,,,,,,,,,,,,,,,,,,,,right,1.0,0.5017556250095367,,,,,sub-072,1,random_dot,,
left,left,41.0,1.0,20.0,right,0.0,0.6892561669956194,,speed,space,3.2458539999934146,,,,,,0.0,0.0,0.0,1.0,20.0,1.0,41.0,0.0,180.7861092090025,,,,,,,,,180.77869466699485,181.1284469999955,181.92979374999413,181.92097066699355,181.9216518339963,181.92979374999413,181.92979374999413,181.92979374999413,,182.6215209999937,,,,,,,,,,,,,,,,,,,,,,,,,,,,,,right,0.0,0.6892561669956194,,,,,sub-072,1,random_dot,,
right,right,42.0,0.0,21.0,right,1.0,0.2646377490018494,,speed,space,3.2458539999934146,,,,,,0.0,0.0,0.0,1.0,21.0,0.0,42.0,1.0,182.62707324999792,,,,,,,,,182.62198454199824,182.9614019169967,183.76260387500224,183.7543595419993,183.75491604200212,183.76260387500224,183.76260387500224,183.76260387500224,,184.03803366700595,,,,,,,,,,,,,,,,,,,,,,,,,,,,,,right,1.0,0.2646377490018494,,,,,sub-072,1,random_dot,,
left,left,43.0,1.0,21.0,left,1.0,0.2329638329974841,,speed,space,3.2458539999934146,,,,,,0.0,0.0,0.0,1.0,21.0,1.0,43.0,0.0,184.04593249999743,,,,,,,,,184.0385180839949,184.1275117089972,184.92011937500504,184.91081904199385,184.91142012500492,184.92011937500504,184.92011937500504,184.92011937500504,,185.1547101670003,,,,,,,,,,,,,,,,,,,,,,,,,,,,,,left,1.0,0.2329638329974841,,,,,sub-072,1,random_dot,,
right,right,44.0,0.0,22.0,left,0.0,0.2261866249900777,,speed,space,3.2458539999934146,,,,,,0.0,0.0,0.0,1.0,22.0,0.0,44.0,1.0,185.1602990419924,,,,,,,,,185.1551687500032,186.34347399999388,187.1368923340051,187.1263409999956,187.1269440420001,187.1368923340051,187.1368923340051,187.1368923340051,,187.3715103339928,,,,,,,,,,,,,,,,,,,,,,,,,,,,,,left,0.0,0.2261866249900777,,,,,sub-072,1,random_dot,,
left,left,45.0,1.0,22.0,right,0.0,0.1005766670132288,,speed,space,3.2458539999934146,,,,,,0.0,0.0,0.0,1.0,22.0,1.0,45.0,0.0,187.37929866700145,,,,,,,,,187.3719735420018,188.5608570839977,189.3535892499931,189.34424187500557,189.34485212499567,189.3535892499931,189.3535892499931,189.3535892499931,,189.46172175000535,,,,,,,,,,,,,,,,,,,,,,,,,,,,,,right,0.0,0.1005766670132288,,,,,sub-072,1,random_dot,,
left,left,46.0,0.0,23.0,right,0.0,0.3207692500000121,,speed,space,3.2458539999934146,,,,,,0.0,0.0,0.0,1.0,23.0,0.0,46.0,0.0,189.47004187499988,,,,,,,,,189.46227025000556,190.66166895900096,191.46239029199933,191.45432837499536,191.454877917,191.46239029199933,191.46239029199933,191.46239029199933,,191.78835504199375,,,,,,,,,,,,,,,,,,,,,,,,,,,,,,right,0.0,0.3207692500000121,,,,,sub-072,1,random_dot,,
right,right,47.0,1.0,23.0,left,0.0,0.2205646660004276,,speed,space,3.2458539999934146,,,,,,0.0,0.0,0.0,1.0,23.0,1.0,47.0,1.0,191.79389879200608,,,,,,,,,191.7888392089953,192.9789839169971,193.7795766670024,193.7712065840024,193.7717652089923,193.7795766670024,193.7795766670024,193.7795766670024,,194.0050614170032,,,,,,,,,,,,,,,,,,,,,,,,,,,,,,left,0.0,0.2205646660004276,,,,,sub-072,1,random_dot,,
left,left,48.0,0.0,24.0,right,0.0,0.1619995410001138,,speed,space,3.2458539999934146,,,,,,0.0,0.0,0.0,1.0,24.0,0.0,48.0,0.0,194.01348462500027,,,,,,,,,194.0055782919953,194.79548379199696,195.5961211669928,195.5878999169945,195.58844325000248,195.5961211669928,195.5961211669928,195.5961211669928,,195.76211229199544,,,,,,,,,,,,,,,,,,,,,,,,,,,,,,right,0.0,0.1619995410001138,,,,,sub-072,1,random_dot,,
right,right,49.0,1.0,24.0,left,0.0,0.2433294999937061,,speed,space,3.2458539999934146,,,,,,0.0,0.0,0.0,1.0,24.0,1.0,49.0,1.0,195.77009845900463,,,,,,,,,195.76260433399875,196.56074095900112,197.35383195900067,197.34406879199375,197.3446762090025,197.35383195900067,197.35383195900067,197.35383195900067,,197.60519937500067,,,,,,,,,,,,,,,,,,,,,,,,,,,,,,left,0.0,0.2433294999937061,,,,,sub-072,1,random_dot,,
right,right,50.0,0.0,25.0,left,0.0,0.2148944170039612,,speed,space,3.2458539999934146,,,,,,0.0,0.0,0.0,1.0,25.0,0.0,50.0,1.0,197.61289945899625,,,,,,,,,197.6055959590012,198.39564674999565,199.1962376669981,199.1880940419942,199.18864816699352,199.1962376669981,199.1962376669981,199.1962376669981,,199.4216660840029,,,,,,,,,,,,,,,,,,,,,,,,,,,,,,left,0.0,0.2148944170039612,,,,,sub-072,1,random_dot,,
left,left,51.0,1.0,25.0,right,0.0,0.8350325420033187,,speed,space,3.2458539999934146,,,,,,0.0,0.0,0.0,1.0,25.0,1.0,51.0,0.0,199.4300071250036,,,,,,,,,199.42215100000607,199.51121170900296,200.31309370900271,200.3048694589961,200.30542529199735,200.31309370900271,200.31309370900271,200.31309370900271,,201.15473554200435,,,,,,,,,,,,,,,,,,,,,,,,,,,,,,right,0.0,0.8350325420033187,,,,,sub-072,1,random_dot,,
right,right,52.0,0.0,26.0,left,0.0,0.2977992079977412,,speed,space,3.2458539999934146,,,,,,0.0,0.0,0.0,1.0,26.0,0.0,52.0,1.0,201.16238862500177,,,,,,,,,201.15511220900223,201.4945120000048,202.29734283400467,202.28836637499623,202.2890566249989,202.29734283400467,202.29734283400467,202.29734283400467,,202.60514954199607,,,,,,,,,,,,,,,,,,,,,,,,,,,,,,left,0.0,0.2977992079977412,,,,,sub-072,1,random_dot,,
left,left,53.0,1.0,26.0,left,1.0,0.3579092500003753,,speed,space,3.2458539999934146,,,,,,0.0,0.0,0.0,1.0,26.0,1.0,53.0,0.0,202.61324066699308,,,,,,,,,202.60568762499315,203.7941929170047,204.5871827499941,204.5780711249972,204.5786741250049,204.5871827499941,204.5871827499941,204.5871827499941,,204.95528020900383,,,,,,,,,,,,,,,,,,,,,,,,,,,,,,left,1.0,0.3579092500003753,,,,,sub-072,1,random_dot,,
left,left,54.0,0.0,27.0,left,1.0,0.2948462080094032,,speed,space,3.2458539999934146,,,,,,0.0,0.0,0.0,1.0,27.0,0.0,54.0,0.0,204.9633326250041,,,,,,,,,204.95576374999652,206.1459277499962,206.94713487499396,206.93823600000175,206.9389477920049,206.94713487499396,206.94713487499396,206.94713487499396,,207.2456374589965,,,,,,,,,,,,,,,,,,,,,,,,,,,,,,left,1.0,0.2948462080094032,,,,,sub-072,1,random_dot,,
right,right,55.0,1.0,27.0,right,1.0,0.230626000004122,,speed,space,3.2458539999934146,,,,,,0.0,0.0,0.0,1.0,27.0,1.0,55.0,1.0,207.25392320900573,,,,,,,,,207.24614295900392,208.4451240420021,209.24639620899688,209.23818116700568,209.238782083994,209.24639620899688,209.24639620899688,209.24639620899688,,209.47859145900293,,,,,,,,,,,,,,,,,,,,,,,,,,,,,,right,1.0,0.230626000004122,,,,,sub-072,1,random_dot,,
left,left,56.0,0.0,28.0,left,1.0,0.2425678740110015,,speed,space,3.2458539999934146,,,,,,0.0,0.0,0.0,1.0,28.0,0.0,56.0,0.0,209.48760220900292,,,,,,,,,209.47908750000352,210.67907412500065,211.4803979999997,211.4717312089924,211.4724162500061,211.4803979999997,211.4803979999997,211.4803979999997,,211.72927104200065,,,,,,,,,,,,,,,,,,,,,,,,,,,,,,left,1.0,0.2425678740110015,,,,,sub-072,1,random_dot,,
right,right,57.0,1.0,28.0,right,1.0,0.1032825000002048,,speed,space,3.2458539999934146,,,,,,0.0,0.0,0.0,1.0,28.0,1.0,57.0,1.0,211.7372698340041,,,,,,,,,211.72976558399387,212.5292512089945,213.32983116699324,213.321451374999,213.32200670900056,213.32983116699324,213.32983116699324,213.32983116699324,,213.4386343340011,,,,,,,,,,,,,,,,,,,,,,,,,,,,,,right,1.0,0.1032825000002048,,,,,sub-072,1,random_dot,,
right,right,58.0,0.0,29.0,right,1.0,0.3398843750037486,,speed,space,3.2458539999934146,,,,,,0.0,0.0,0.0,1.0,29.0,0.0,58.0,1.0,213.44413612499196,,,,,,,,,213.43908604199527,214.2284891669988,215.0301480420021,215.0218555839965,215.02240254200296,215.0301480420021,215.0301480420021,215.0301480420021,,215.3718822090013,,,,,,,,,,,,,,,,,,,,,,,,,,,,,,right,1.0,0.3398843750037486,,,,,sub-072,1,random_dot,,
left,left,59.0,1.0,29.0,right,0.0,0.2038201250106794,,speed,space,3.2458539999934146,,,,,,0.0,0.0,0.0,1.0,29.0,1.0,59.0,0.0,215.3773892089957,,,,,,,,,215.3723522090004,216.16246979200517,216.9633857500012,216.95515629199508,216.9557562090049,216.9633857500012,216.9633857500012,216.9633857500012,,217.17225220899851,,,,,,,,,,,,,,,,,,,,,,,,,,,,,,right,0.0,0.2038201250106794,,,,,sub-072,1,random_dot,,
,,0.0,0.0,0.0,,,,,speed,space,3.2458539999934146,,,,,,0.0,0.0,0.0,1.0,,,,,,,,,,,,,,,,,,,,,,,,,,,,,,,,,,,,,,,,,,,,,,,,,,,,,,,,,,,,sub-072,1,random_dot,,
left,left,0.0,0.0,0.0,left,1.0,0.346145498988335,,accuracy,space,4.632039457996143,,,,,,0.0,1.0,1.0,0.0,0.0,0.0,0.0,0.0,221.8592034589965,,,,,,,,,221.8503902090015,223.03834629199991,223.83080683399749,223.8219769999996,223.8226852090011,223.83080683399749,223.83080683399749,223.83080683399749,,224.17907591699625,,,,,,,,,,,,,,,,,,,,,,,217.1912717090017,217.1988871670037,217.1988871670037,221.83976741699732,space,4.632039457996143,,left,1.0,0.346145498988335,,,,,sub-072,1,random_dot,,
right,right,1.0,1.0,0.0,right,1.0,0.3627938329882454,,accuracy,space,4.632039457996143,,,,,,0.0,1.0,1.0,0.0,0.0,1.0,1.0,1.0,224.18811312499747,,,,,,,,,224.17945620899263,224.5212495839951,225.31319608399644,225.3053346670058,225.30581587499185,225.31319608399644,225.31319608399644,225.31319608399644,,225.6792983750056,,,,,,,,,,,,,,,,,,,,,,,,,,,,,,right,1.0,0.3627938329882454,,,,,sub-072,1,random_dot,,
right,right,2.0,0.0,1.0,right,1.0,0.2545192079996923,,accuracy,space,4.632039457996143,,,,,,0.0,1.0,1.0,0.0,1.0,0.0,2.0,1.0,225.68719820899423,,,,,,,,,225.67982754200057,225.78000987500127,226.58036666699627,226.57215083399203,226.57272262500192,226.58036666699627,226.58036666699627,226.58036666699627,,226.83960416700572,,,,,,,,,,,,,,,,,,,,,,,,,,,,,,right,1.0,0.2545192079996923,,,,,sub-072,1,random_dot,,
left,left,3.0,1.0,1.0,right,0.0,0.2355182920000516,,accuracy,space,4.632039457996143,,,,,,0.0,1.0,1.0,0.0,1.0,1.0,3.0,0.0,226.84799708399805,,,,,,,,,226.84019820899996,227.1887928749929,227.9813724169944,227.97220674999696,227.97296091700264,227.9813724169944,227.9813724169944,227.9813724169944,,228.22322583399364,,,,,,,,,,,,,,,,,,,,,,,,,,,,,,right,0.0,0.2355182920000516,,,,,sub-072,1,random_dot,,
left,left,4.0,0.0,2.0,left,1.0,0.3980678330117371,,accuracy,space,4.632039457996143,,,,,,0.0,1.0,1.0,0.0,2.0,0.0,4.0,0.0,228.2319530419918,,,,,,,,,228.22383491699293,228.32187279200295,229.11382991699796,229.1054095839936,229.1060057089926,229.11382991699796,229.11382991699796,229.11382991699796,,229.52261037500284,,,,,,,,,,,,,,,,,,,,,,,,,,,,,,left,1.0,0.3980678330117371,,,,,sub-072,1,random_dot,,
right,right,5.0,1.0,2.0,right,1.0,0.1963277489994652,,accuracy,space,4.632039457996143,,,,,,0.0,1.0,1.0,0.0,2.0,1.0,5.0,1.0,229.53074529199512,,,,,,,,,229.52309229200185,229.6129747499945,230.4136705419951,230.4055837920023,230.4061472500034,230.4136705419951,230.4136705419951,230.4136705419951,,230.61369004199517,,,,,,,,,,,,,,,,,,,,,,,,,,,,,,right,1.0,0.1963277489994652,,,,,sub-072,1,random_dot,,
left,left,6.0,0.0,3.0,left,1.0,0.256740875003743,,accuracy,space,4.632039457996143,,,,,,0.0,1.0,1.0,0.0,3.0,0.0,6.0,0.0,230.62169054200055,,,,,,,,,230.614189874992,230.9624454589939,231.76634945899423,231.7557529589976,231.7564314170013,231.76634945899423,231.76634945899423,231.76634945899423,,232.0291556250013,,,,,,,,,,,,,,,,,,,,,,,,,,,,,,left,1.0,0.256740875003743,,,,,sub-072,1,random_dot,,
right,right,7.0,1.0,3.0,left,0.0,0.264035000000149,,accuracy,space,4.632039457996143,,,,,,0.0,1.0,1.0,0.0,3.0,1.0,7.0,1.0,232.03748866700332,,,,,,,,,232.02952895899944,232.82974704199296,233.63036591699347,233.6221589170018,233.6227338750032,233.63036591699347,233.63036591699347,233.63036591699347,,233.89625725000224,,,,,,,,,,,,,,,,,,,,,,,,,,,,,,left,0.0,0.264035000000149,,,,,sub-072,1,random_dot,,
left,left,8.0,0.0,4.0,right,0.0,0.8080504169920459,,accuracy,space,4.632039457996143,,,,,,0.0,1.0,1.0,0.0,4.0,0.0,8.0,0.0,233.904865250006,,,,,,,,,233.89671812500453,233.99503641699263,234.7879808750004,234.77849320899983,234.7790944169974,234.7879808750004,234.7879808750004,234.7879808750004,,235.6060989169928,,,,,,,,,,,,,,,,,,,,,,,,,,,,,,right,0.0,0.8080504169920459,,,,,sub-072,1,random_dot,,
right,right,9.0,1.0,4.0,right,1.0,2.4575925420067506,,accuracy,space,4.632039457996143,,,,,,0.0,1.0,1.0,0.0,4.0,1.0,9.0,1.0,235.61447866700476,,,,,,,,,235.60657820900087,236.396541042006,237.19741525000427,237.1889377089974,237.18950666699675,237.19741525000427,237.19741525000427,237.19741525000427,,239.6627125840023,,,,,,,,,,,,,,,,,,,,,,,,,,,,,,right,1.0,2.4575925420067506,,,,,sub-072,1,random_dot,,
right,right,10.0,0.0,5.0,right,1.0,0.3661283330002334,,accuracy,space,4.632039457996143,,,,,,0.0,1.0,1.0,0.0,5.0,0.0,10.0,1.0,239.67088854199392,,,,,,,,,239.66319024999396,239.76325124999855,240.5638372090034,240.55569137500424,240.55626904200471,240.5638372090034,240.5638372090034,240.5638372090034,,240.93948625000485,,,,,,,,,,,,,,,,,,,,,,,,,,,,,,right,1.0,0.3661283330002334,,,,,sub-072,1,random_dot,,
left,left,11.0,1.0,5.0,left,1.0,0.2621695830021053,,accuracy,space,4.632039457996143,,,,,,0.0,1.0,1.0,0.0,5.0,1.0,11.0,0.0,240.9471979999944,,,,,,,,,240.93994554200617,241.7297520839929,242.5307823339972,242.52242579200535,242.522995834006,242.5307823339972,242.5307823339972,242.5307823339972,,242.79632179200416,,,,,,,,,,,,,,,,,,,,,,,,,,,,,,left,1.0,0.2621695830021053,,,,,sub-072,1,random_dot,,
left,left,12.0,0.0,6.0,left,1.0,1.4103304580057738,,accuracy,space,4.632039457996143,,,,,,0.0,1.0,1.0,0.0,6.0,0.0,12.0,0.0,242.80526399999508,,,,,,,,,242.7967869999993,242.896715416995,243.697616666992,243.68917762499768,243.6897385839984,243.697616666992,243.697616666992,243.697616666992,,245.11379124999803,,,,,,,,,,,,,,,,,,,,,,,,,,,,,,left,1.0,1.4103304580057738,,,,,sub-072,1,random_dot,,
right,right,13.0,1.0,6.0,right,1.0,3.385035333005362,,accuracy,space,4.632039457996143,,,,,,0.0,1.0,1.0,0.0,6.0,1.0,13.0,1.0,245.1214874169964,,,,,,,,,245.1142862090055,246.31424370899916,247.11382387499907,247.10588366699807,247.10643570899265,247.11382387499907,247.11382387499907,247.11382387499907,,250.5065037089953,,,,,,,,,,,,,,,,,,,,,,,,,,,,,,right,1.0,3.385035333005362,,,,,sub-072,1,random_dot,,
right,right,14.0,0.0,7.0,right,1.0,0.759186832990963,,accuracy,space,4.632039457996143,,,,,,0.0,1.0,1.0,0.0,7.0,0.0,14.0,1.0,250.514278542003,,,,,,,,,250.5069586669997,251.6966801249946,252.49764316699293,252.4894026669936,252.48997237499864,252.49764316699293,252.49764316699293,252.49764316699293,,253.26401195899237,,,,,,,,,,,,,,,,,,,,,,,,,,,,,,right,1.0,0.759186832990963,,,,,sub-072,1,random_dot,,
left,left,15.0,1.0,7.0,left,1.0,0.4963052909879479,,accuracy,space,4.632039457996143,,,,,,0.0,1.0,1.0,0.0,7.0,1.0,15.0,0.0,253.27170174999628,,,,,,,,,253.26449620899805,253.6130003339931,254.414543167004,254.4061117090023,254.4066733340005,254.414543167004,254.414543167004,254.414543167004,,254.91312295899843,,,,,,,,,,,,,,,,,,,,,,,,,,,,,,left,1.0,0.4963052909879479,,,,,sub-072,1,random_dot,,
right,right,16.0,0.0,8.0,right,1.0,2.3076789579936303,,accuracy,space,4.632039457996143,,,,,,0.0,1.0,1.0,0.0,8.0,0.0,16.0,1.0,254.9214902919921,,,,,,,,,254.91363974999692,256.1135129589966,256.9148030840006,256.9062420419941,256.9069043339987,256.9148030840006,256.9148030840006,256.9148030840006,,259.23081420900417,,,,,,,,,,,,,,,,,,,,,,,,,,,,,,right,1.0,2.3076789579936303,,,,,sub-072,1,random_dot,,
left,left,17.0,1.0,8.0,right,0.0,2.0420030409877654,,accuracy,space,4.632039457996143,,,,,,0.0,1.0,1.0,0.0,8.0,1.0,17.0,0.0,259.2386702090007,,,,,,,,,259.23130866700376,260.0305734589929,260.8316287089983,260.822695416995,260.8234245000058,260.8316287089983,260.8316287089983,260.8316287089983,,262.8804233749979,,,,,,,,,,,,,,,,,,,,,,,,,,,,,,right,0.0,2.0420030409877654,,,,,sub-072,1,random_dot,,
right,right,18.0,0.0,9.0,right,1.0,0.37676712499524,,accuracy,space,4.632039457996143,,,,,,0.0,1.0,1.0,0.0,9.0,0.0,18.0,1.0,262.8887430839968,,,,,,,,,262.8809163340047,264.08024966699304,264.8808647090045,264.87288245899254,264.8734555419942,264.8808647090045,264.8808647090045,264.8808647090045,,265.2634802090033,,,,,,,,,,,,,,,,,,,,,,,,,,,,,,right,1.0,0.37676712499524,,,,,sub-072,1,random_dot,,
left,left,19.0,1.0,9.0,left,1.0,0.443290708004497,,accuracy,space,4.632039457996143,,,,,,0.0,1.0,1.0,0.0,9.0,1.0,19.0,0.0,265.2714404169965,,,,,,,,,265.2639578340022,265.6137810420041,266.41540733400325,266.4063020419999,266.4068541250017,266.41540733400325,266.41540733400325,266.41540733400325,,266.8642285419919,,,,,,,,,,,,,,,,,,,,,,,,,,,,,,left,1.0,0.443290708004497,,,,,sub-072,1,random_dot,,
left,left,20.0,0.0,10.0,left,1.0,0.5395693330065114,,accuracy,space,4.632039457996143,,,,,,0.0,1.0,1.0,0.0,10.0,0.0,20.0,0.0,266.8717906670063,,,,,,,,,266.8646996250027,268.06349716699333,268.86505174999184,268.85626858400065,268.8569467920024,268.86505174999184,268.86505174999184,268.86505174999184,,269.4077215419966,,,,,,,,,,,,,,,,,,,,,,,,,,,,,,left,1.0,0.5395693330065114,,,,,sub-072,1,random_dot,,
right,right,21.0,1.0,10.0,left,0.0,0.4573382079979637,,accuracy,space,4.632039457996143,,,,,,0.0,1.0,1.0,0.0,10.0,1.0,21.0,1.0,269.4167013340048,,,,,,,,,269.4083654589922,270.60581300000194,271.3984333340049,271.3897274589981,271.39039174999925,271.3984333340049,271.3984333340049,271.3984333340049,,271.85698566699284,,,,,,,,,,,,,,,,,,,,,,,,,,,,,,left,0.0,0.4573382079979637,,,,,sub-072,1,random_dot,,
right,right,22.0,0.0,11.0,right,1.0,0.4028807909926399,,accuracy,space,4.632039457996143,,,,,,0.0,1.0,1.0,0.0,11.0,0.0,22.0,1.0,271.8625477089954,,,,,,,,,271.8574565839954,271.9472645420028,272.7478021669958,272.73946412499936,272.7400285839976,272.7478021669958,272.7478021669958,272.7478021669958,,273.1572914589924,,,,,,,,,,,,,,,,,,,,,,,,,,,,,,right,1.0,0.4028807909926399,,,,,sub-072,1,random_dot,,
left,left,23.0,1.0,11.0,right,0.0,0.2766018750116927,,accuracy,space,4.632039457996143,,,,,,0.0,1.0,1.0,0.0,11.0,1.0,23.0,0.0,273.1662376250024,,,,,,,,,273.157818666994,274.35600512499514,275.1481838750042,275.13965075000306,275.1401600419922,275.1481838750042,275.1481838750042,275.1481838750042,,275.4304180839972,,,,,,,,,,,,,,,,,,,,,,,,,,,,,,right,0.0,0.2766018750116927,,,,,sub-072,1,random_dot,,
left,left,24.0,0.0,12.0,left,1.0,0.2743118329963181,,accuracy,space,4.632039457996143,,,,,,0.0,1.0,1.0,0.0,12.0,0.0,24.0,0.0,275.4381541250041,,,,,,,,,275.4308805420005,275.7801748339989,276.5813425840024,276.573163958994,276.5737338339968,276.5813425840024,276.5813425840024,276.5813425840024,,276.8570048340044,,,,,,,,,,,,,,,,,,,,,,,,,,,,,,left,1.0,0.2743118329963181,,,,,sub-072,1,random_dot,,
right,right,25.0,1.0,12.0,left,0.0,0.2642968750005821,,accuracy,space,4.632039457996143,,,,,,0.0,1.0,1.0,0.0,12.0,1.0,25.0,1.0,276.86239108399604,,,,,,,,,276.8574737089948,277.6459739999991,278.4392936249933,278.4297529589967,278.4303029169969,278.4392936249933,278.4392936249933,278.4392936249933,,278.7070213749976,,,,,,,,,,,,,,,,,,,,,,,,,,,,,,left,0.0,0.2642968750005821,,,,,sub-072,1,random_dot,,
left,left,26.0,0.0,13.0,right,0.0,0.2956557909928961,,accuracy,space,4.632039457996143,,,,,,0.0,1.0,1.0,0.0,13.0,0.0,26.0,0.0,278.71598241699394,,,,,,,,,278.7075330420048,279.4960880839935,280.2890965840052,280.27888008400623,280.279402250002,280.2890965840052,280.2890965840052,280.2890965840052,,280.5903463750001,,,,,,,,,,,,,,,,,,,,,,,,,,,,,,right,0.0,0.2956557909928961,,,,,sub-072,1,random_dot,,
right,right,27.0,1.0,13.0,right,1.0,0.2500092080008471,,accuracy,space,4.632039457996143,,,,,,0.0,1.0,1.0,0.0,13.0,1.0,27.0,1.0,280.59581033399445,,,,,,,,,280.590830000001,281.7806352089974,282.5716614169942,282.5633772089932,282.56396745900565,282.5716614169942,282.5716614169942,282.5716614169942,,282.82359975000145,,,,,,,,,,,,,,,,,,,,,,,,,,,,,,right,1.0,0.2500092080008471,,,,,sub-072,1,random_dot,,
left,left,28.0,0.0,14.0,left,1.0,0.4918732499936595,,accuracy,space,4.632039457996143,,,,,,0.0,1.0,1.0,0.0,14.0,0.0,28.0,0.0,282.829064000005,,,,,,,,,282.82404766700347,282.913193083994,283.705797542003,283.69606775000284,283.696653417006,283.705797542003,283.705797542003,283.705797542003,,284.2072518749919,,,,,,,,,,,,,,,,,,,,,,,,,,,,,,left,1.0,0.4918732499936595,,,,,sub-072,1,random_dot,,
right,right,29.0,1.0,14.0,left,0.0,0.3004299579915823,,accuracy,space,4.632039457996143,,,,,,0.0,1.0,1.0,0.0,14.0,1.0,29.0,1.0,284.2148132500006,,,,,,,,,284.2076206250058,285.3974514169968,286.1983360000013,286.19005233400094,286.190624875002,286.1983360000013,286.1983360000013,286.1983360000013,,286.50727200000256,,,,,,,,,,,,,,,,,,,,,,,,,,,,,,left,0.0,0.3004299579915823,,,,,sub-072,1,random_dot,,
right,right,30.0,0.0,15.0,right,1.0,0.2823079170048004,,accuracy,space,4.632039457996143,,,,,,0.0,1.0,1.0,0.0,15.0,0.0,30.0,1.0,286.5155176669941,,,,,,,,,286.50772529200185,287.69796537500224,288.49837537499843,288.4901443340059,288.4907477090019,288.49837537499843,288.49837537499843,288.49837537499843,,288.7910437919927,,,,,,,,,,,,,,,,,,,,,,,,,,,,,,right,1.0,0.2823079170048004,,,,,sub-072,1,random_dot,,
left,left,31.0,1.0,15.0,right,0.0,0.2861323749966686,,accuracy,space,4.632039457996143,,,,,,0.0,1.0,1.0,0.0,15.0,1.0,31.0,0.0,288.8002561250032,,,,,,,,,288.7916847089946,289.5896415000025,290.3814282090025,290.3732187090063,290.37380162499903,290.3814282090025,290.3814282090025,290.3814282090025,,290.67405870900257,,,,,,,,,,,,,,,,,,,,,,,,,,,,,,right,0.0,0.2861323749966686,,,,,sub-072,1,random_dot,,
left,left,32.0,0.0,16.0,left,1.0,0.2637810410087695,,accuracy,space,4.632039457996143,,,,,,0.0,1.0,1.0,0.0,16.0,0.0,32.0,0.0,290.68221708400233,,,,,,,,,290.67454516699945,291.8645094590029,292.65501670900267,292.6491314589948,292.64937166699383,292.65501670900267,292.65501670900267,292.65501670900267,,292.92426062500454,,,,,,,,,,,,,,,,,,,,,,,,,,,,,,left,1.0,0.2637810410087695,,,,,sub-072,1,random_dot,,
right,right,33.0,1.0,16.0,left,0.0,0.315639332999126,,accuracy,space,4.632039457996143,,,,,,0.0,1.0,1.0,0.0,16.0,1.0,33.0,1.0,292.9322572090023,,,,,,,,,292.92476537500625,294.1146540000045,294.9150875839987,294.90682379200007,294.90741812500346,294.9150875839987,294.9150875839987,294.9150875839987,,295.2409135839989,,,,,,,,,,,,,,,,,,,,,,,,,,,,,,left,0.0,0.315639332999126,,,,,sub-072,1,random_dot,,
right,right,34.0,0.0,17.0,left,0.0,2.792615749000106,,accuracy,space,4.632039457996143,,,,,,0.0,1.0,1.0,0.0,17.0,0.0,34.0,1.0,295.24996575000114,,,,,,,,,295.24147041699325,296.0300343340059,296.82293599999684,296.813671625001,296.81415295899205,296.82293599999684,296.82293599999684,296.82293599999684,,299.6241852499952,,,,,,,,,,,,,,,,,,,,,,,,,,,,,,left,0.0,2.792615749000106,,,,,sub-072,1,random_dot,,
left,left,35.0,1.0,17.0,right,0.0,0.2824756249901838,,accuracy,space,4.632039457996143,,,,,,0.0,1.0,1.0,0.0,17.0,1.0,35.0,0.0,299.6327654589986,,,,,,,,,299.62471012500464,300.41268054199463,301.20618820900563,301.19656841699907,301.1972024169954,301.20618820900563,301.20618820900563,301.20618820900563,,301.49109258399403,,,,,,,,,,,,,,,,,,,,,,,,,,,,,,right,0.0,0.2824756249901838,,,,,sub-072,1,random_dot,,
right,right,36.0,0.0,18.0,left,0.0,0.4260082079999847,,accuracy,space,4.632039457996143,,,,,,0.0,1.0,1.0,0.0,18.0,0.0,36.0,1.0,301.4997261249955,,,,,,,,,301.4916204589972,302.2800091669924,303.0826667499932,303.073973999999,303.07463299999654,303.0826667499932,303.0826667499932,303.0826667499932,,303.51452745900315,,,,,,,,,,,,,,,,,,,,,,,,,,,,,,left,0.0,0.4260082079999847,,,,,sub-072,1,random_dot,,
left,left,37.0,1.0,18.0,left,1.0,0.5445211659971392,,accuracy,space,4.632039457996143,,,,,,0.0,1.0,1.0,0.0,18.0,1.0,37.0,0.0,303.5224262499978,,,,,,,,,303.51500508400204,304.315220916993,305.11509974999353,305.10712837500614,305.107691333993,305.11509974999353,305.11509974999353,305.11509974999353,,305.6643110839941,,,,,,,,,,,,,,,,,,,,,,,,,,,,,,left,1.0,0.5445211659971392,,,,,sub-072,1,random_dot,,
left,left,38.0,0.0,19.0,right,0.0,1.115484790992923,,accuracy,space,4.632039457996143,,,,,,0.0,1.0,1.0,0.0,19.0,0.0,38.0,0.0,305.6722195839975,,,,,,,,,305.6648026250041,305.76372458400147,306.566071209003,306.5572945839958,306.55796204200306,306.566071209003,306.566071209003,306.566071209003,,307.69133583399525,,,,,,,,,,,,,,,,,,,,,,,,,,,,,,right,0.0,1.115484790992923,,,,,sub-072,1,random_dot,,
right,right,39.0,1.0,19.0,left,0.0,0.7693198329943698,,accuracy,space,4.632039457996143,,,,,,0.0,1.0,1.0,0.0,19.0,1.0,39.0,1.0,307.700452709003,,,,,,,,,307.6918768750038,307.7815027089964,308.5823899590032,308.5741007500037,308.57463487499626,308.5823899590032,308.5823899590032,308.5823899590032,,309.3576622499968,,,,,,,,,,,,,,,,,,,,,,,,,,,,,,left,0.0,0.7693198329943698,,,,,sub-072,1,random_dot,,
left,left,40.0,0.0,20.0,left,1.0,0.5126423740002792,,accuracy,space,4.632039457996143,,,,,,0.0,1.0,1.0,0.0,20.0,0.0,40.0,0.0,309.3655245419941,,,,,,,,,309.3581349589949,310.1482171249954,310.948938542002,310.94063075000304,310.9412911669933,310.948938542002,310.948938542002,310.948938542002,,311.4656758750061,,,,,,,,,,,,,,,,,,,,,,,,,,,,,,left,1.0,0.5126423740002792,,,,,sub-072,1,random_dot,,
right,right,41.0,1.0,20.0,right,1.0,0.245097082995926,,accuracy,space,4.632039457996143,,,,,,0.0,1.0,1.0,0.0,20.0,1.0,41.0,1.0,311.4901474999933,,,,,,,,,311.4662285420054,312.6650023340044,313.4655481249938,313.45734233400435,313.4579331249988,313.4655481249938,313.4655481249938,313.4655481249938,,313.71464320899395,,,,,,,,,,,,,,,,,,,,,,,,,,,,,,right,1.0,0.245097082995926,,,,,sub-072,1,random_dot,,
left,left,42.0,0.0,21.0,left,1.0,1.5494406249927124,,accuracy,space,4.632039457996143,,,,,,0.0,1.0,1.0,0.0,21.0,0.0,42.0,0.0,313.7233003339934,,,,,,,,,313.7151535000012,313.8150558750058,314.6162202090054,314.60737862500537,314.6079847499932,314.6162202090054,314.6162202090054,314.6162202090054,,316.174721916992,,,,,,,,,,,,,,,,,,,,,,,,,,,,,,left,1.0,1.5494406249927124,,,,,sub-072,1,random_dot,,
right,right,43.0,1.0,21.0,left,0.0,0.2657413330016425,,accuracy,space,4.632039457996143,,,,,,0.0,1.0,1.0,0.0,21.0,1.0,43.0,1.0,316.1834267920058,,,,,,,,,316.1752301670058,317.36472158400284,318.1658466249937,318.1576128339948,318.15818912499526,318.1658466249937,318.1658466249937,318.1658466249937,,318.4415849999932,,,,,,,,,,,,,,,,,,,,,,,,,,,,,,left,0.0,0.2657413330016425,,,,,sub-072,1,random_dot,,
left,left,44.0,0.0,22.0,left,1.0,0.3912249580025673,,accuracy,space,4.632039457996143,,,,,,0.0,1.0,1.0,0.0,22.0,0.0,44.0,0.0,318.45021962499595,,,,,,,,,318.44211695900594,318.530471459002,319.3233267500036,319.3133755000017,319.3139747919922,319.3233267500036,319.3233267500036,319.3233267500036,,319.7250848340045,,,,,,,,,,,,,,,,,,,,,,,,,,,,,,left,1.0,0.3912249580025673,,,,,sub-072,1,random_dot,,
right,right,45.0,1.0,22.0,right,1.0,0.3301982489938382,,accuracy,space,4.632039457996143,,,,,,0.0,1.0,1.0,0.0,22.0,1.0,45.0,1.0,319.7339464999968,,,,,,,,,319.72564208399854,319.8240731669939,320.6153924590035,320.60729137499584,320.6077923340053,320.6153924590035,320.6153924590035,320.6153924590035,,320.9491497090057,,,,,,,,,,,,,,,,,,,,,,,,,,,,,,right,1.0,0.3301982489938382,,,,,sub-072,1,random_dot,,
left,left,46.0,0.0,23.0,left,1.0,0.4021064580010716,,accuracy,space,4.632039457996143,,,,,,0.0,1.0,1.0,0.0,23.0,0.0,46.0,0.0,320.9565560839983,,,,,,,,,320.9496338750032,321.0484455840051,321.8495713339944,321.84090137500607,321.84157929199864,321.8495713339944,321.8495713339944,321.8495713339944,,322.25806166700204,,,,,,,,,,,,,,,,,,,,,,,,,,,,,,left,1.0,0.4021064580010716,,,,,sub-072,1,random_dot,,
right,right,47.0,1.0,23.0,right,1.0,0.2496871240000473,,accuracy,space,4.632039457996143,,,,,,0.0,1.0,1.0,0.0,23.0,1.0,47.0,1.0,322.2657904999942,,,,,,,,,322.2585262920038,322.3472330420045,323.1400177089963,323.13027037499705,323.1308714589977,323.1400177089963,323.1400177089963,323.1400177089963,,323.3914158749976,,,,,,,,,,,,,,,,,,,,,,,,,,,,,,right,1.0,0.2496871240000473,,,,,sub-072,1,random_dot,,
left,left,48.0,0.0,24.0,right,0.0,0.3120791249966714,,accuracy,space,4.632039457996143,,,,,,0.0,1.0,1.0,0.0,24.0,0.0,48.0,0.0,323.3969362920034,,,,,,,,,323.39187541700085,324.5806960839982,325.3725908750057,325.3640912499977,325.36469591700006,325.3725908750057,325.3725908750057,325.3725908750057,,325.6920237089944,,,,,,,,,,,,,,,,,,,,,,,,,,,,,,right,0.0,0.3120791249966714,,,,,sub-072,1,random_dot,,
right,right,49.0,1.0,24.0,right,1.0,0.2801724159944569,,accuracy,space,4.632039457996143,,,,,,0.0,1.0,1.0,0.0,24.0,1.0,49.0,1.0,325.7005602499994,,,,,,,,,325.69255949999206,326.8905831250013,327.68239612500474,327.67437183400034,327.67490704200463,327.68239612500474,327.68239612500474,327.68239612500474,,327.96561645899783,,,,,,,,,,,,,,,,,,,,,,,,,,,,,,right,1.0,0.2801724159944569,,,,,sub-072,1,random_dot,,
left,left,50.0,0.0,25.0,right,0.0,0.3457965830020839,,accuracy,space,4.632039457996143,,,,,,0.0,1.0,1.0,0.0,25.0,0.0,50.0,0.0,327.97313466700143,,,,,,,,,327.9660629589925,328.76541241699306,329.5667421249964,329.5577520420047,329.55843737500254,329.5667421249964,329.5667421249964,329.5667421249964,,329.9147645000048,,,,,,,,,,,,,,,,,,,,,,,,,,,,,,right,0.0,0.3457965830020839,,,,,sub-072,1,random_dot,,
right,right,51.0,1.0,25.0,left,0.0,0.4506731660076184,,accuracy,space,4.632039457996143,,,,,,0.0,1.0,1.0,0.0,25.0,1.0,51.0,1.0,329.92400124999403,,,,,,,,,329.91514395900595,330.0154802920006,330.8168684169941,330.80799879199185,330.8086835839931,330.8168684169941,330.8168684169941,330.8168684169941,,331.27456508399337,,,,,,,,,,,,,,,,,,,,,,,,,,,,,,left,0.0,0.4506731660076184,,,,,sub-072,1,random_dot,,
left,left,52.0,0.0,26.0,left,1.0,0.2780976250069216,,accuracy,space,4.632039457996143,,,,,,0.0,1.0,1.0,0.0,26.0,0.0,52.0,0.0,331.2820251249941,,,,,,,,,331.2749409169919,332.4639512089925,333.2565697090031,333.2475256250036,333.2481379170058,333.2565697090031,333.2565697090031,333.2565697090031,,333.54162916699715,,,,,,,,,,,,,,,,,,,,,,,,,,,,,,left,1.0,0.2780976250069216,,,,,sub-072,1,random_dot,,
right,right,53.0,1.0,26.0,left,0.0,0.6214195829961682,,accuracy,space,4.632039457996143,,,,,,0.0,1.0,1.0,0.0,26.0,1.0,53.0,1.0,333.5495737500023,,,,,,,,,333.5420903750055,334.3311639169988,335.12406845900114,335.1140358749981,335.1147058339993,335.12406845900114,335.12406845900114,335.12406845900114,,335.7483958340017,,,,,,,,,,,,,,,,,,,,,,,,,,,,,,left,0.0,0.6214195829961682,,,,,sub-072,1,random_dot,,
left,left,54.0,0.0,27.0,right,0.0,0.3119817080005305,,accuracy,space,4.632039457996143,,,,,,0.0,1.0,1.0,0.0,27.0,0.0,54.0,0.0,335.7573493749951,,,,,,,,,335.748859083993,336.5484432499943,337.3495788339933,337.3413997500029,337.34198800000013,337.3495788339933,337.3495788339933,337.3495788339933,,337.66499874999863,,,,,,,,,,,,,,,,,,,,,,,,,,,,,,right,0.0,0.3119817080005305,,,,,sub-072,1,random_dot,,
right,right,55.0,1.0,27.0,left,0.0,0.30649745799019,,accuracy,space,4.632039457996143,,,,,,0.0,1.0,1.0,0.0,27.0,1.0,55.0,1.0,337.6729579999956,,,,,,,,,337.665449209002,338.8654945419985,339.66703341700486,339.65823137499683,339.6589086250024,339.66703341700486,339.66703341700486,339.66703341700486,,339.9748478340043,,,,,,,,,,,,,,,,,,,,,,,,,,,,,,left,0.0,0.30649745799019,,,,,sub-072,1,random_dot,,
left,left,56.0,0.0,28.0,left,1.0,0.2854414580069715,,accuracy,space,4.632039457996143,,,,,,0.0,1.0,1.0,0.0,28.0,0.0,56.0,0.0,339.9803134590038,,,,,,,,,339.97529704199405,341.16544408399204,341.9661524169933,341.95813783399353,341.9587055000011,341.9661524169933,341.9661524169933,341.9661524169933,,342.2581143339921,,,,,,,,,,,,,,,,,,,,,,,,,,,,,,left,1.0,0.2854414580069715,,,,,sub-072,1,random_dot,,
right,right,57.0,1.0,28.0,left,0.0,0.3051010000053793,,accuracy,space,4.632039457996143,,,,,,0.0,1.0,1.0,0.0,28.0,1.0,57.0,1.0,342.26569512499555,,,,,,,,,342.2584757089935,342.5990448340017,343.3996384589991,343.3914312499983,343.3919890840043,343.3996384589991,343.3996384589991,343.3996384589991,,343.70867379200354,,,,,,,,,,,,,,,,,,,,,,,,,,,,,,left,0.0,0.3051010000053793,,,,,sub-072,1,random_dot,,
left,left,58.0,0.0,29.0,left,1.0,0.3348559580044821,,accuracy,space,4.632039457996143,,,,,,0.0,1.0,1.0,0.0,29.0,0.0,58.0,0.0,343.7142382089951,,,,,,,,,343.70913070900133,344.8976946670009,345.6906433749973,345.68061862500326,345.68117795900616,345.6906433749973,345.6906433749973,345.6906433749973,,346.0320326670044,,,,,,,,,,,,,,,,,,,,,,,,,,,,,,left,1.0,0.3348559580044821,,,,,sub-072,1,random_dot,,
right,right,59.0,1.0,29.0,left,0.0,0.7362685830012197,,accuracy,space,4.632039457996143,,,,,,0.0,1.0,1.0,0.0,29.0,1.0,59.0,1.0,346.0400945419969,,,,,,,,,346.0324767919956,347.23190608399455,348.03431754199846,348.0246392499976,348.0252820419992,348.03431754199846,348.03431754199846,348.03431754199846,,348.77543966700614,,,,,,,,,,,,,,,,,,,,,,,,,,,,,,left,0.0,0.7362685830012197,,,,,sub-072,1,random_dot,,
,,1.0,1.0,0.0,,,,,accuracy,space,4.632039457996143,,,,,,0.0,1.0,1.0,0.0,,,,,,,,,,,,,,,,,,,,,,,,,,,,,,,,,,,,,,,,,,,,,,,,,,,,,,,,,,,,sub-072,1,random_dot,,
,,,,,,,,,,,,,,,,,,,,,,,,,,,,,,,,,,,,,,,,,,,,,,,,,,,,,,,,,,,,,,,,,,,,,,,,,,,,,348.7834972090059,348.79290966699773,353.78081537499384,sub-072,1,random_dot,,
