wordCTK,colorCTK,corrAnsCTK,congruentCTK,thisN,thisTrialN,thisRepN,keyResp_CTK.keys,keyResp_CTK.corr,keyResp_CTK.rt,keyResp_CTK.duration,wordPractice,colorPractice,corrAnsPractice,congruentPractice,respPractice.keys,respPractice.corr,respPractice.rt,respPractice.duration,word,color,corrAns,congruent,keyResp_test_run.keys,keyResp_test_run.corr,keyResp_test_run.rt,keyResp_test_run.duration,trials_CTK.thisRepN,trials_CTK.thisTrialN,trials_CTK.thisN,trials_CTK.thisIndex,trials_practice.thisRepN,trials_practice.thisTrialN,trials_practice.thisN,trials_practice.thisIndex,trials_test.thisRepN,trials_test.thisTrialN,trials_test.thisN,trials_test.thisIndex,thisRow.t,notes,instruction.started,instr_text.started,instr_image.started,instr_resp.started,instruction.stopped,instr_resp.keys,instr_resp.rt,instr_resp.duration,instr_color_to_key.started,instr_ctk.started,resp_ctk.started,instr_color_to_key.stopped,resp_ctk.keys,resp_ctk.rt,resp_ctk.duration,ITI.started,fixcross.started,fixcross.stopped,ITI.stopped,color_to_key_run.started,stimulus_CTK.started,keyResp_CTK.started,color_to_key_run.stopped,trials_CTK.keyResp_CTK.keys,trials_CTK.keyResp_CTK.corr,trials_CTK.keyResp_CTK.rt,trials_CTK.keyResp_CTK.duration,instr_practice.started,instr_practice_text.started,instr_practice_resp.started,instr_practice.stopped,instr_practice_resp.keys,instr_practice_resp.rt,instr_practice_resp.duration,practice_run.started,stimulus_practice.started,respPractice.started,practice_run.stopped,trials_practice.respPractice.keys,trials_practice.respPractice.corr,trials_practice.respPractice.rt,trials_practice.respPractice.duration,feedback.started,textFeedback.started,textFeedback.stopped,feedback.stopped,instr_test.started,instr_test_text.started,instr_test_resp.started,instr_test.stopped,instr_test_resp.keys,instr_test_resp.rt,instr_test_resp.duration,test_run.started,stimulus_test_run.started,keyResp_test_run.started,test_run.stopped,trials_test.keyResp_test_run.keys,trials_test.keyResp_test_run.corr,trials_test.keyResp_test_run.rt,trials_test.keyResp_test_run.duration,goodbye.started,textGoodbye.started,textGoodbye.stopped,goodbye.stopped,participant,session,expName,frameRate,Unnamed: 113
,,,,,,,,,,,,,,,,,,,,,,,,,,,,,,,,,,,,,,,,,0.0041094999760389,0.0446999999694526,0.0446999999694526,0.0446999999694526,30.95067890000064,space,30.85393020004267,,,,,,,,,,,,,,,,,,,,,,,,,,,,,,,,,,,,,,,,,,,,,,,,,,,,,,,,,,,sub-004,1,stroop_test,60.06034864336475,
,,,,,,,,,,,,,,,,,,,,,,,,,,,,,,,,,,,,,,,,,,,,,,,,,30.95073899999261,30.956868799985383,30.956868799985383,38.41229339997517,space,7.441166699980386,,,,,,,,,,,,,,,,,,,,,,,,,,,,,,,,,,,,,,,,,,,,,,,,,,,,sub-004,1,stroop_test,60.06034864336475,
test,blue,b,1.0,0.0,0.0,0.0,b,1.0,0.9498503999784588,,,,,,,,,,,,,,,,,,0.0,0.0,0.0,2.0,,,,,,,,,38.43592969997553,,,,,,,,,,,,,,,,,38.43136930000037,38.52739619999193,39.32722789997933,39.31143860000884,39.318737099994905,39.32722789997933,39.32722789997933,40.27900069998577,b,1.0,0.9498503999784588,,,,,,,,,,,,,,,,,,,,,,,,,,,,,,,,,,,,,,,,sub-004,1,stroop_test,60.06034864336475,
test,red,r,1.0,1.0,1.0,0.0,r,1.0,0.6281461999751627,,,,,,,,,,,,,,,,,,0.0,1.0,1.0,0.0,,,,,,,,,40.29396629997064,,,,,,,,,,,,,,,,,40.27923559996998,40.39392519998364,41.19409040000755,41.17804939998314,41.17888729996048,41.19409040000755,41.19409040000755,41.828856999985874,r,1.0,0.6281461999751627,,,,,,,,,,,,,,,,,,,,,,,,,,,,,,,,,,,,,,,,sub-004,1,stroop_test,60.06034864336475,
test,yellow,g,1.0,2.0,2.0,0.0,g,1.0,0.5065169999725185,,,,,,,,,,,,,,,,,,0.0,2.0,2.0,1.0,,,,,,,,,41.84380739997141,,,,,,,,,,,,,,,,,41.82922319998033,43.04411139996955,43.843976699979976,43.827670499973465,43.82805499999085,43.843976699979976,43.843976699979976,44.36249709996628,g,1.0,0.5065169999725185,,,,,,,,,,,,,,,,,,,,,,,,,,,,,,,,,,,,,,,,sub-004,1,stroop_test,60.06034864336475,
test,red,r,1.0,3.0,0.0,1.0,r,1.0,0.6019785000244156,,,,,,,,,,,,,,,,,,1.0,0.0,3.0,0.0,,,,,,,,,44.377326699963305,,,,,,,,,,,,,,,,,44.36284249997698,44.47746919997735,45.27722069999436,45.26160099997651,45.26214529998833,45.27722069999436,45.27722069999436,45.89532860001782,r,1.0,0.6019785000244156,,,,,,,,,,,,,,,,,,,,,,,,,,,,,,,,,,,,,,,,sub-004,1,stroop_test,60.06034864336475,
test,blue,b,1.0,4.0,1.0,1.0,b,1.0,1.0781743999687023,,,,,,,,,,,,,,,,,,1.0,1.0,4.0,2.0,,,,,,,,,45.91080060001696,,,,,,,,,,,,,,,,,45.89561929996125,47.11088349996135,47.91075889999047,47.89533879997907,47.89597589999903,47.91075889999047,47.91075889999047,48.99563159997342,b,1.0,1.0781743999687023,,,,,,,,,,,,,,,,,,,,,,,,,,,,,,,,,,,,,,,,sub-004,1,stroop_test,60.06034864336475,
test,yellow,g,1.0,5.0,2.0,1.0,g,1.0,0.381108800007496,,,,,,,,,,,,,,,,,,1.0,2.0,5.0,1.0,,,,,,,,,49.01051039999584,,,,,,,,,,,,,,,,,48.99593579996144,49.3607434000005,50.16064269997878,50.14512509998167,50.145713099977,50.16064269997878,50.16064269997878,50.54552839999087,g,1.0,0.381108800007496,,,,,,,,,,,,,,,,,,,,,,,,,,,,,,,,,,,,,,,,sub-004,1,stroop_test,60.06034864336475,
test,red,r,1.0,6.0,0.0,2.0,r,1.0,0.5729003999731503,,,,,,,,,,,,,,,,,,2.0,0.0,6.0,0.0,,,,,,,,,50.56075969996164,,,,,,,,,,,,,,,,,50.54580809996696,51.760577099979855,52.5605504999985,52.54423970001517,52.54451320000226,52.5605504999985,52.5605504999985,53.14544669998577,r,1.0,0.5729003999731503,,,,,,,,,,,,,,,,,,,,,,,,,,,,,,,,,,,,,,,,sub-004,1,stroop_test,60.06034864336475,
test,blue,b,1.0,7.0,1.0,2.0,b,1.0,0.6651118999579921,,,,,,,,,,,,,,,,,,2.0,1.0,7.0,2.0,,,,,,,,,53.1603670999757,,,,,,,,,,,,,,,,,53.14576789998682,53.26075379998656,54.06055120000383,54.04494160000468,54.04548049997538,54.06055120000383,54.06055120000383,54.72870199999306,b,1.0,0.6651118999579921,,,,,,,,,,,,,,,,,,,,,,,,,,,,,,,,,,,,,,,,sub-004,1,stroop_test,60.06034864336475,
test,yellow,g,1.0,8.0,2.0,2.0,g,1.0,0.5391038000234403,,,,,,,,,,,,,,,,,,2.0,2.0,8.0,1.0,,,,,,,,,54.74372159998165,,,,,,,,,,,,,,,,,54.72903499996755,54.84394749999046,55.64396449999185,55.62885939999251,55.62955949996831,55.64396449999185,55.64396449999185,56.19515220000176,g,1.0,0.5391038000234403,,,,,,,,,,,,,,,,,,,,,,,,,,,,,,,,,,,,,,,,sub-004,1,stroop_test,60.06034864336475,
test,blue,b,1.0,9.0,0.0,3.0,b,1.0,0.6561178999836557,,,,,,,,,,,,,,,,,,3.0,0.0,9.0,2.0,,,,,,,,,56.21068879996892,,,,,,,,,,,,,,,,,56.19547530001728,56.31043650000356,57.11070269998163,57.094873299996834,57.09530270000687,57.11070269998163,57.11070269998163,57.77853449998656,b,1.0,0.6561178999836557,,,,,,,,,,,,,,,,,,,,,,,,,,,,,,,,,,,,,,,,sub-004,1,stroop_test,60.06034864336475,
test,yellow,g,1.0,10.0,1.0,3.0,g,1.0,0.7375374000403099,,,,,,,,,,,,,,,,,,3.0,1.0,10.0,1.0,,,,,,,,,57.79406410001684,,,,,,,,,,,,,,,,,57.7787770999712,58.57761259999825,59.37724509998225,59.361494300013874,59.3619800999877,59.37724509998225,59.37724509998225,60.12837230000878,g,1.0,0.7375374000403099,,,,,,,,,,,,,,,,,,,,,,,,,,,,,,,,,,,,,,,,sub-004,1,stroop_test,60.06034864336475,
test,red,r,1.0,11.0,2.0,3.0,r,1.0,0.5049818999832496,,,,,,,,,,,,,,,,,,3.0,2.0,11.0,0.0,,,,,,,,,60.14383979997365,,,,,,,,,,,,,,,,,60.12864760000957,60.24390429997584,61.043725800002,61.02792279998539,61.02839970000787,61.043725800002,61.043725800002,61.561706400010735,r,1.0,0.5049818999832496,,,,,,,,,,,,,,,,,,,,,,,,,,,,,,,,,,,,,,,,sub-004,1,stroop_test,60.06034864336475,
,,,,,,,,,,,,,,,,,,,,,,,,,,,,,,,,,,,,,,,,,,,,,,,,,,,,,,,,,,,,,,,,,,,,61.561851600010414,61.57745039998554,61.57745039998554,64.97868329996709,space,3.385848800011445,,,,,,,,,,,,,,,,,,,,,,,,,,,,,,,,,sub-004,1,stroop_test,60.06034864336475,
,,,,0.0,0.0,0.0,,,,,gelb,yellow,g,1.0,g,1.0,2.6579896000330336,,,,,,,,,,,,,,0.0,0.0,0.0,11.0,,,,,64.99345880001783,,,,,,,,,,,,,,,,,64.9841511999839,65.3437398999813,66.14346469996963,66.12805170001229,,,,,,,,,,,,,,,,66.13526000001002,66.14346469996963,66.14346469996963,68.81180749996565,g,1.0,2.6579896000330336,,68.81758799997624,68.8269596999744,69.82705399999395,69.81128369999351,,,,,,,,,,,,,,,,,,,,sub-004,1,stroop_test,60.06034864336475,
,,,,1.0,1.0,0.0,,,,,rot,red,r,1.0,r,1.0,0.7218447999912314,,,,,,,,,,,,,,0.0,1.0,1.0,0.0,,,,,69.82705399999395,,,,,,,,,,,,,,,,,69.81169599998975,69.92713769996772,70.72717219998594,70.71132180001587,,,,,,,,,,,,,,,,70.71616109996103,70.72717219998594,70.72717219998594,71.46103619999485,r,1.0,0.7218447999912314,,71.46132589998888,71.47721119999187,72.47675229999004,72.46162179997191,,,,,,,,,,,,,,,,,,,,sub-004,1,stroop_test,60.06034864336475,
,,,,2.0,2.0,0.0,,,,,rot,blue,b,0.0,b,1.0,0.5810436000465415,,,,,,,,,,,,,,0.0,2.0,2.0,2.0,,,,,72.47675229999004,,,,,,,,,,,,,,,,,72.46209719998296,72.56043899996439,73.3605002000113,73.3442495999625,,,,,,,,,,,,,,,,73.34464689996094,73.3605002000113,73.3605002000113,73.94464359997073,b,1.0,0.5810436000465415,,73.94505549996393,73.96045929996762,74.96035589999519,74.94484249997186,,,,,,,,,,,,,,,,,,,,sub-004,1,stroop_test,60.06034864336475,
,,,,3.0,3.0,0.0,,,,,blau,red,r,0.0,r,1.0,0.7290162999997847,,,,,,,,,,,,,,0.0,3.0,3.0,4.0,,,,,74.96035589999519,,,,,,,,,,,,,,,,,74.94522729999153,75.31065769999987,76.11042240000097,76.09459589998005,,,,,,,,,,,,,,,,76.10244019998936,76.11042240000097,76.11042240000097,76.84505920001538,r,1.0,0.7290162999997847,,76.84550679998938,76.86051149998093,77.86012869997649,77.84448580001481,,,,,,,,,,,,,,,,,,,,sub-004,1,stroop_test,60.06034864336475,
,,,,4.0,4.0,0.0,,,,,blau,yellow,g,0.0,g,1.0,1.050436899997294,,,,,,,,,,,,,,0.0,4.0,4.0,7.0,,,,,77.86012869997649,,,,,,,,,,,,,,,,,77.84481699997559,77.96044399996754,78.76016499998514,78.74427530000685,,,,,,,,,,,,,,,,78.74470380001003,78.76016499998514,78.76016499998514,79.81241929996759,g,1.0,1.050436899997294,,79.8128810999915,79.82714979996672,80.827048200008,80.81158330000471,,,,,,,,,,,,,,,,,,,,sub-004,1,stroop_test,60.06034864336475,
,,,,5.0,5.0,0.0,,,,,blau,blue,b,1.0,b,1.0,0.65440130000934,,,,,,,,,,,,,,0.0,5.0,5.0,6.0,,,,,80.827048200008,,,,,,,,,,,,,,,,,80.81200979999267,80.92694400000619,81.72685619996628,81.71176089998335,,,,,,,,,,,,,,,,81.71229429997038,81.72685619996628,81.72685619996628,82.39516079996247,b,1.0,0.65440130000934,,82.39562269998714,82.41042269999161,83.41017139999894,83.3948794999742,,,,,,,,,,,,,,,,,,,,sub-004,1,stroop_test,60.06034864336475,
,,,,6.0,6.0,0.0,,,,,rot,red,r,1.0,r,1.0,0.6132942000404,,,,,,,,,,,,,,0.0,6.0,6.0,1.0,,,,,83.41017139999894,,,,,,,,,,,,,,,,,83.39526590000605,84.61042899999302,85.41033059998881,85.39468899997883,,,,,,,,,,,,,,,,85.39769660000456,85.41033059998881,85.41033059998881,86.0283814999857,r,1.0,0.6132942000404,,86.02887460001511,86.04368269996485,87.0438347000163,87.02747659996385,,,,,,,,,,,,,,,,,,,,sub-004,1,stroop_test,60.06034864336475,
,,,,7.0,7.0,0.0,,,,,rot,yellow,g,0.0,r,0.0,0.8156619999790564,,,,,,,,,,,,,,0.0,7.0,7.0,3.0,,,,,87.0438347000163,,,,,,,,,,,,,,,,,87.02763859997503,88.2444428000017,89.04397990001598,89.02813990000868,,,,,,,,,,,,,,,,89.02857089997269,89.04397990001598,89.04397990001598,89.86242879997008,r,0.0,0.8156619999790564,,89.8664601999917,89.87700599996606,90.87728979997335,90.8616148000001,,,,,,,,,,,,,,,,,,,,sub-004,1,stroop_test,60.06034864336475,
,,,,8.0,8.0,0.0,,,,,gelb,red,r,0.0,r,1.0,1.3059755999711342,,,,,,,,,,,,,,0.0,8.0,8.0,8.0,,,,,90.87728979997335,,,,,,,,,,,,,,,,,90.86198639997748,91.67713149997871,92.47692300000926,92.46069929999068,,,,,,,,,,,,,,,,92.46244729997125,92.47692300000926,92.47692300000926,93.79473759996472,r,1.0,1.3059755999711342,,93.79638169996906,93.81008570000996,94.81005510000978,94.79390049999348,,,,,,,,,,,,,,,,,,,,sub-004,1,stroop_test,60.06034864336475,
,,,,9.0,9.0,0.0,,,,,gelb,blue,b,0.0,b,1.0,0.8544625000213273,,,,,,,,,,,,,,0.0,9.0,9.0,9.0,,,,,94.81005510000978,,,,,,,,,,,,,,,,,94.7941681999946,95.99364760000026,96.79361210000934,96.77777699998114,,,,,,,,,,,,,,,,96.77829519996884,96.79361210000934,96.79361210000934,97.66135820001364,b,1.0,0.8544625000213273,,97.66175540001132,97.6769820000045,98.6769889999996,98.66099489998304,,,,,,,,,,,,,,,,,,,,sub-004,1,stroop_test,60.06034864336475,
,,,,10.0,10.0,0.0,,,,,blau,blue,b,1.0,b,1.0,1.1547497999854386,,,,,,,,,,,,,,0.0,10.0,10.0,5.0,,,,,98.6769889999996,,,,,,,,,,,,,,,,,98.66132369998375,99.87689119996504,100.67679419997148,100.660486400011,,,,,,,,,,,,,,,,100.6620728999842,100.67679419997148,100.67679419997148,101.84512690000702,b,1.0,1.1547497999854386,,101.84566389996326,101.8602230999968,102.86026719998335,102.84444419998908,,,,,,,,,,,,,,,,,,,,sub-004,1,stroop_test,60.06034864336475,
,,,,11.0,11.0,0.0,,,,,gelb,yellow,g,1.0,g,1.0,1.5705701999831945,,,,,,,,,,,,,,0.0,11.0,11.0,10.0,,,,,102.86026719998335,,,,,,,,,,,,,,,,,102.84485160000622,102.96014799998376,103.7600616000127,103.74444430001311,,,,,,,,,,,,,,,,103.74759619997349,103.7600616000127,103.7600616000127,105.34502899996004,g,1.0,1.5705701999831945,,105.34557900001528,105.36021710000932,106.36018389998937,106.34437830001116,,,,,,,,,,,,,,,,,,,,sub-004,1,stroop_test,60.06034864336475,
,,,,12.0,0.0,1.0,,,,,gelb,yellow,g,1.0,g,1.0,0.5014978999970481,,,,,,,,,,,,,,1.0,0.0,12.0,11.0,,,,,106.36018389998937,,,,,,,,,,,,,,,,,106.34476589999394,106.4601651999983,107.26005829998758,107.24453319999157,,,,,,,,,,,,,,,,107.24512029998004,107.26005829998758,107.26005829998758,107.77779799996642,g,1.0,0.5014978999970481,,107.77824339998187,107.7934041999979,108.79334309999832,108.77770689997124,,,,,,,,,,,,,,,,,,,,sub-004,1,stroop_test,60.06034864336475,
,,,,13.0,1.0,1.0,,,,,blau,blue,b,1.0,b,1.0,0.4455486999941058,,,,,,,,,,,,,,1.0,1.0,13.0,6.0,,,,,108.79334309999832,,,,,,,,,,,,,,,,,108.77806029998465,109.59326759999384,110.3935982999974,110.37765209999634,,,,,,,,,,,,,,,,110.3808435999672,110.3935982999974,110.3935982999974,110.8453232999891,b,1.0,0.4455486999941058,,110.84571849997155,110.86043020000216,111.86043780000182,111.8447033999837,,,,,,,,,,,,,,,,,,,,sub-004,1,stroop_test,60.06034864336475,
,,,,14.0,2.0,1.0,,,,,rot,yellow,g,0.0,g,1.0,0.7260029999888502,,,,,,,,,,,,,,1.0,2.0,14.0,3.0,,,,,111.86043780000182,,,,,,,,,,,,,,,,,111.8450611999724,111.96018659998664,112.7601074000122,112.74458549998236,,,,,,,,,,,,,,,,112.74728539999342,112.7601074000122,112.7601074000122,113.495103299967,g,1.0,0.7260029999888502,,113.49556660000236,113.51033159997314,114.510313900013,114.49506879999537,,,,,,,,,,,,,,,,,,,,sub-004,1,stroop_test,60.06034864336475,
,,,,15.0,3.0,1.0,,,,,blau,blue,b,1.0,b,1.0,0.6040265999617986,,,,,,,,,,,,,,1.0,3.0,15.0,5.0,,,,,114.510313900013,,,,,,,,,,,,,,,,,114.49544570001308,114.6100728000165,115.4101833999739,115.39424409996718,,,,,,,,,,,,,,,,115.39663859998107,115.4101833999739,115.4101833999739,116.02828749996844,b,1.0,0.6040265999617986,,116.02884159999668,116.04341809998732,117.04390370001784,117.02877289999742,,,,,,,,,,,,,,,,,,,,sub-004,1,stroop_test,60.06034864336475,
,,,,16.0,4.0,1.0,,,,,rot,red,r,1.0,r,1.0,0.7812101000454277,,,,,,,,,,,,,,1.0,4.0,16.0,1.0,,,,,117.04390370001784,,,,,,,,,,,,,,,,,117.02908609999577,117.8436265999917,118.64328049996402,118.62761660001706,,,,,,,,,,,,,,,,118.62997439998436,118.64328049996402,118.64328049996402,119.42870129999936,r,1.0,0.7812101000454277,,119.42914739996196,119.4434669999755,120.44321559998208,120.42763990000822,,,,,,,,,,,,,,,,,,,,sub-004,1,stroop_test,60.06034864336475,
,,,,17.0,5.0,1.0,,,,,gelb,blue,b,0.0,b,1.0,0.7299752000253648,,,,,,,,,,,,,,1.0,5.0,17.0,9.0,,,,,120.44321559998208,,,,,,,,,,,,,,,,,120.42798239999684,120.5433122999966,121.34315039997456,121.3280259000021,,,,,,,,,,,,,,,,121.33085799997208,121.34315039997456,121.34315039997456,122.0786088000168,b,1.0,0.7299752000253648,,122.07917039998574,122.09347139997408,123.09332859999267,123.07775589998346,,,,,,,,,,,,,,,,,,,,sub-004,1,stroop_test,60.06034864336475,
,,,,18.0,6.0,1.0,,,,,blau,yellow,g,0.0,g,1.0,0.7277673999778926,,,,,,,,,,,,,,1.0,6.0,18.0,7.0,,,,,123.09332859999267,,,,,,,,,,,,,,,,,123.07812570000532,123.89368679997278,124.6932982999715,124.6776996999979,,,,,,,,,,,,,,,,124.68054420000408,124.6932982999715,124.6932982999715,125.42823530000167,g,1.0,0.7277673999778926,,125.42879269999683,125.44345600000815,126.44344469998032,126.42801009997493,,,,,,,,,,,,,,,,,,,,sub-004,1,stroop_test,60.06034864336475,
,,,,19.0,7.0,1.0,,,,,gelb,yellow,g,1.0,g,1.0,0.6525994999683462,,,,,,,,,,,,,,1.0,7.0,19.0,10.0,,,,,126.44344469998032,,,,,,,,,,,,,,,,,126.42840689996956,127.24314470001264,128.04346039996017,128.02788979996694,,,,,,,,,,,,,,,,128.03115469997283,128.04346039996017,128.04346039996017,128.71159009996336,g,1.0,0.6525994999683462,,128.7121299999999,128.72678600001382,129.72681650001323,129.71102380001685,,,,,,,,,,,,,,,,,,,,sub-004,1,stroop_test,60.06034864336475,
,,,,20.0,8.0,1.0,,,,,rot,blue,b,0.0,r,0.0,0.5282659999793395,,,,,,,,,,,,,,1.0,8.0,20.0,2.0,,,,,129.72681650001323,,,,,,,,,,,,,,,,,129.7113340999931,130.07662269996945,130.87682010000572,130.860935100005,,,,,,,,,,,,,,,,130.86360410001362,130.87682010000572,130.87682010000572,131.41094059997704,r,0.0,0.5282659999793395,,131.41347369999858,131.4266023999662,132.42674839997198,132.41053200000897,,,,,,,,,,,,,,,,,,,,sub-004,1,stroop_test,60.06034864336475,
,,,,21.0,9.0,1.0,,,,,rot,red,r,1.0,r,1.0,0.6134575000032783,,,,,,,,,,,,,,1.0,9.0,21.0,0.0,,,,,132.42674839997198,,,,,,,,,,,,,,,,,132.41082599997753,132.50996880000457,133.31008520000614,133.29470759996912,,,,,,,,,,,,,,,,133.29529400001047,133.31008520000614,133.31008520000614,133.928756600013,r,1.0,0.6134575000032783,,133.93182810000144,133.94332199997734,134.9433710000012,134.92783509998117,,,,,,,,,,,,,,,,,,,,sub-004,1,stroop_test,60.06034864336475,
,,,,22.0,10.0,1.0,,,,,blau,red,r,0.0,b,0.0,0.5055091000394896,,,,,,,,,,,,,,1.0,10.0,22.0,4.0,,,,,134.9433710000012,,,,,,,,,,,,,,,,,134.9282264999929,135.04306519997772,135.84331129997736,135.8276796999853,,,,,,,,,,,,,,,,135.8309453999973,135.84331129997736,135.84331129997736,136.36190229997737,b,0.0,0.5055091000394896,,136.36482799996156,136.37661490001483,137.37655089999316,137.36113799997838,,,,,,,,,,,,,,,,,,,,sub-004,1,stroop_test,60.06034864336475,
,,,,23.0,11.0,1.0,,,,,gelb,red,r,0.0,r,1.0,0.9640153999789618,,,,,,,,,,,,,,1.0,11.0,23.0,8.0,,,,,137.37655089999316,,,,,,,,,,,,,,,,,137.36150790000102,137.72665909997886,138.52634059998672,138.510970000003,,,,,,,,,,,,,,,,138.51555319997715,138.52634059998672,138.52634059998672,139.4946525999694,r,1.0,0.9640153999789618,,139.4971259000013,139.50969259999692,140.51010339998174,140.4941563999746,,,,,,,,,,,,,,,,,,,,sub-004,1,stroop_test,60.06034864336475,
,,,,,,,,,,,,,,,,,,,,,,,,,,,,,,,,,,,,,,,,,,,,,,,,,,,,,,,,,,,,,,,,,,,,,,,,,,,,,,,,,,,,,,,140.49432030000025,140.51010339998174,140.51010339998174,144.94533069996396,space,4.427226300002076,,,,,,,,,,,,,,sub-004,1,stroop_test,60.06034864336475,
,,,,0.0,0.0,0.0,,,,,,,,,,,,,blau,blue,b,1.0,b,1.0,0.954619600030128,,,,,,,,,,0.0,0.0,0.0,6.0,144.95960489998106,,,,,,,,,,,,,,,,,144.95159070001682,145.05990069999825,145.85971479996806,145.84421999996994,,,,,,,,,,,,,,,,,,,,,,,,,,,,,,,,,,,145.84710089996224,145.85971479996806,145.85971479996806,146.82789049996063,b,1.0,0.954619600030128,,,,,,sub-004,1,stroop_test,60.06034864336475,
,,,,1.0,1.0,0.0,,,,,,,,,,,,,rot,yellow,g,0.0,r,0.0,0.4905116999871097,,,,,,,,,,0.0,1.0,1.0,3.0,146.84324720001314,,,,,,,,,,,,,,,,,146.82808479998494,148.0266935999971,148.82643839996308,148.8103822999983,,,,,,,,,,,,,,,,,,,,,,,,,,,,,,,,,,,148.81258969998453,148.82643839996308,148.82643839996308,149.32787639996968,r,0.0,0.4905116999871097,,,,,,sub-004,1,stroop_test,60.06034864336475,
,,,,2.0,2.0,0.0,,,,,,,,,,,,,blau,blue,b,1.0,b,1.0,0.6258872000034899,,,,,,,,,,0.0,2.0,2.0,5.0,149.34318189998157,,,,,,,,,,,,,,,,,149.32820139999967,149.69333649997134,150.49335170001723,150.47743939998327,,,,,,,,,,,,,,,,,,,,,,,,,,,,,,,,,,,150.47964049997972,150.49335170001723,150.49335170001723,151.12795309996,b,1.0,0.6258872000034899,,,,,,sub-004,1,stroop_test,60.06034864336475,
,,,,3.0,3.0,0.0,,,,,,,,,,,,,rot,red,r,1.0,r,1.0,0.6724116000114009,,,,,,,,,,0.0,3.0,3.0,1.0,151.1431045999634,,,,,,,,,,,,,,,,,151.12835969997104,151.94328040000983,152.74293609999586,152.72772580001038,,,,,,,,,,,,,,,,,,,,,,,,,,,,,,,,,,,152.73076349997427,152.74293609999586,152.74293609999586,153.42812019999838,r,1.0,0.6724116000114009,,,,,,sub-004,1,stroop_test,60.06034864336475,
,,,,4.0,4.0,0.0,,,,,,,,,,,,,gelb,yellow,g,1.0,g,1.0,0.3824965999810956,,,,,,,,,,0.0,4.0,4.0,11.0,153.44295980001334,,,,,,,,,,,,,,,,,153.42852929997025,153.79330660001142,154.5931217999896,154.57734139997046,,,,,,,,,,,,,,,,,,,,,,,,,,,,,,,,,,,154.58004969998728,154.5931217999896,154.5931217999896,154.97827039996628,g,1.0,0.3824965999810956,,,,,,sub-004,1,stroop_test,60.06034864336475,
,,,,5.0,5.0,0.0,,,,,,,,,,,,,gelb,blue,b,0.0,b,1.0,1.039699700020719,,,,,,,,,,0.0,5.0,5.0,9.0,154.99311159999343,,,,,,,,,,,,,,,,,154.97858559997985,155.7932545999647,156.59299669996835,156.57649229996605,,,,,,,,,,,,,,,,,,,,,,,,,,,,,,,,,,,156.57675439998275,156.59299669996835,156.59299669996835,157.6441949,b,1.0,1.039699700020719,,,,,,sub-004,1,stroop_test,60.06034864336475,
,,,,6.0,6.0,0.0,,,,,,,,,,,,,blau,yellow,g,0.0,r,0.0,1.0137233000132255,,,,,,,,,,0.0,6.0,6.0,7.0,157.65964179998264,,,,,,,,,,,,,,,,,157.64452069997787,158.00964199996088,158.8096857999917,158.79406719998224,,,,,,,,,,,,,,,,,,,,,,,,,,,,,,,,,,,158.79704829998082,158.8096857999917,158.8096857999917,159.82775599998422,r,0.0,1.0137233000132255,,,,,,sub-004,1,stroop_test,60.06034864336475,
,,,,7.0,7.0,0.0,,,,,,,,,,,,,rot,red,r,1.0,r,1.0,0.4682870999677107,,,,,,,,,,0.0,7.0,7.0,0.0,159.84289149998222,,,,,,,,,,,,,,,,,159.82807649997994,161.0430742999888,161.84275010001147,161.82729479996487,,,,,,,,,,,,,,,,,,,,,,,,,,,,,,,,,,,161.8306262000115,161.84275010001147,161.84275010001147,162.32819699996617,r,1.0,0.4682870999677107,,,,,,sub-004,1,stroop_test,60.06034864336475,
,,,,8.0,8.0,0.0,,,,,,,,,,,,,rot,blue,b,0.0,b,1.0,1.6685416999971494,,,,,,,,,,0.0,8.0,8.0,2.0,162.3428239999921,,,,,,,,,,,,,,,,,162.32853539998175,162.4430097999866,163.2430404999759,163.22704849997535,,,,,,,,,,,,,,,,,,,,,,,,,,,,,,,,,,,163.22754250001162,163.2430404999759,163.2430404999759,164.9275952000171,b,1.0,1.6685416999971494,,,,,,sub-004,1,stroop_test,60.06034864336475,
,,,,9.0,9.0,0.0,,,,,,,,,,,,,gelb,red,r,0.0,r,1.0,1.3808238999918103,,,,,,,,,,0.0,9.0,9.0,8.0,164.94274869997753,,,,,,,,,,,,,,,,,164.92787660000613,165.04303259996232,165.84283069998492,165.8273170000175,,,,,,,,,,,,,,,,,,,,,,,,,,,,,,,,,,,165.83063159999438,165.84283069998492,165.84283069998492,167.2282486999757,r,1.0,1.3808238999918103,,,,,,sub-004,1,stroop_test,60.06034864336475,
,,,,10.0,10.0,0.0,,,,,,,,,,,,,gelb,yellow,g,1.0,g,1.0,0.6425914000137709,,,,,,,,,,0.0,10.0,10.0,10.0,167.24288179998985,,,,,,,,,,,,,,,,,167.22865389997605,168.44305210001767,169.24298909999197,169.22682759998133,,,,,,,,,,,,,,,,,,,,,,,,,,,,,,,,,,,169.22714989999076,169.24298909999197,169.24298909999197,169.89475719997426,g,1.0,0.6425914000137709,,,,,,sub-004,1,stroop_test,60.06034864336475,
,,,,11.0,11.0,0.0,,,,,,,,,,,,,blau,red,r,0.0,b,0.0,0.4931620999705046,,,,,,,,,,0.0,11.0,11.0,4.0,169.90966549998848,,,,,,,,,,,,,,,,,169.89517350000096,171.10964350000722,171.90950919996249,171.89415159996133,,,,,,,,,,,,,,,,,,,,,,,,,,,,,,,,,,,171.89720149995992,171.90950919996249,171.90950919996249,172.41125389997617,b,0.0,0.4931620999705046,,,,,,sub-004,1,stroop_test,60.06034864336475,
,,,,12.0,0.0,1.0,,,,,,,,,,,,,blau,blue,b,1.0,b,1.0,0.8323659000452608,,,,,,,,,,1.0,0.0,12.0,5.0,172.4262057999731,,,,,,,,,,,,,,,,,172.41181540000252,172.5262356000021,173.32648409996182,173.31035629997496,,,,,,,,,,,,,,,,,,,,,,,,,,,,,,,,,,,173.31079279998085,173.32648409996182,173.32648409996182,174.1610640999861,b,1.0,0.8323659000452608,,,,,,sub-004,1,stroop_test,60.06034864336475,
,,,,13.0,1.0,1.0,,,,,,,,,,,,,blau,blue,b,1.0,b,1.0,0.6523203999968246,,,,,,,,,,1.0,1.0,13.0,6.0,174.1762060999754,,,,,,,,,,,,,,,,,174.1614542999887,175.37642410001718,176.176152799977,176.16070850001415,,,,,,,,,,,,,,,,,,,,,,,,,,,,,,,,,,,176.1611701999791,176.176152799977,176.176152799977,176.84442249999847,b,1.0,0.6523203999968246,,,,,,sub-004,1,stroop_test,60.06034864336475,
,,,,14.0,2.0,1.0,,,,,,,,,,,,,gelb,blue,b,0.0,b,1.0,0.6826672000461258,,,,,,,,,,1.0,2.0,14.0,9.0,176.85988629999338,,,,,,,,,,,,,,,,,176.84475029999157,177.6606671999907,178.4597405999666,178.4442146999645,,,,,,,,,,,,,,,,,,,,,,,,,,,,,,,,,,,178.44708959996933,178.4597405999666,178.4597405999666,179.1459032999701,b,1.0,0.6826672000461258,,,,,,sub-004,1,stroop_test,60.06034864336475,
,,,,15.0,3.0,1.0,,,,,,,,,,,,,gelb,yellow,g,1.0,g,1.0,0.6739340000203811,,,,,,,,,,1.0,3.0,15.0,11.0,179.1598775999737,,,,,,,,,,,,,,,,,179.14621380000608,179.25989529996878,180.05925930000376,180.04378810001072,,,,,,,,,,,,,,,,,,,,,,,,,,,,,,,,,,,180.04432069999166,180.05925930000376,180.05925930000376,180.7442585999961,g,1.0,0.6739340000203811,,,,,,sub-004,1,stroop_test,60.06034864336475,
,,,,16.0,4.0,1.0,,,,,,,,,,,,,blau,yellow,g,0.0,g,1.0,0.8459715999779291,,,,,,,,,,1.0,4.0,16.0,7.0,180.75939309998648,,,,,,,,,,,,,,,,,180.7446319999872,180.8594001000165,181.65942589996848,181.64392459997907,,,,,,,,,,,,,,,,,,,,,,,,,,,,,,,,,,,181.6469035999617,181.65942589996848,181.65942589996848,182.5107619999908,g,1.0,0.8459715999779291,,,,,,sub-004,1,stroop_test,60.06034864336475,
,,,,17.0,5.0,1.0,,,,,,,,,,,,,rot,red,r,1.0,r,1.0,0.66799569997238,,,,,,,,,,1.0,5.0,17.0,1.0,182.5260572999832,,,,,,,,,,,,,,,,,182.5109855000046,182.8763112999732,183.6760065999697,183.6600105999969,,,,,,,,,,,,,,,,,,,,,,,,,,,,,,,,,,,183.66234939999413,183.6760065999697,183.6760065999697,184.3602130999789,r,1.0,0.66799569997238,,,,,,sub-004,1,stroop_test,60.06034864336475,
,,,,18.0,6.0,1.0,,,,,,,,,,,,,rot,red,r,1.0,r,1.0,0.5684101000078954,,,,,,,,,,1.0,6.0,18.0,0.0,184.37590129999444,,,,,,,,,,,,,,,,,184.3606341999839,184.70950120000637,185.50963559997035,185.49413800000912,,,,,,,,,,,,,,,,,,,,,,,,,,,,,,,,,,,185.49469049996696,185.50963559997035,185.50963559997035,186.0940606999793,r,1.0,0.5684101000078954,,,,,,sub-004,1,stroop_test,60.06034864336475,
,,,,19.0,7.0,1.0,,,,,,,,,,,,,blau,red,r,0.0,r,1.0,0.6647218999569304,,,,,,,,,,1.0,7.0,19.0,4.0,186.10918219998712,,,,,,,,,,,,,,,,,186.0944304000004,186.4594916999922,187.2592918999726,187.2439381000004,,,,,,,,,,,,,,,,,,,,,,,,,,,,,,,,,,,187.2474868000136,187.2592918999726,187.2592918999726,187.92706859996545,r,1.0,0.6647218999569304,,,,,,sub-004,1,stroop_test,60.06034864336475,
,,,,20.0,8.0,1.0,,,,,,,,,,,,,rot,yellow,g,0.0,g,1.0,2.0006635999889117,,,,,,,,,,1.0,8.0,20.0,3.0,187.94273629999952,,,,,,,,,,,,,,,,,187.92735030001492,188.27609739999752,189.0760386000038,189.06007840001257,,,,,,,,,,,,,,,,,,,,,,,,,,,,,,,,,,,189.06241129996488,189.0760386000038,189.0760386000038,191.07844099996143,g,1.0,2.0006635999889117,,,,,,sub-004,1,stroop_test,60.06034864336475,
,,,,21.0,9.0,1.0,,,,,,,,,,,,,gelb,red,r,0.0,r,1.0,0.7534786000032909,,,,,,,,,,1.0,9.0,21.0,8.0,191.0926322999876,,,,,,,,,,,,,,,,,191.07874289999015,191.44279529998312,192.24281279998831,192.2267885999754,,,,,,,,,,,,,,,,,,,,,,,,,,,,,,,,,,,192.22954729996852,192.24281279998831,192.24281279998831,193.011105099984,r,1.0,0.7534786000032909,,,,,,sub-004,1,stroop_test,60.06034864336475,
,,,,22.0,10.0,1.0,,,,,,,,,,,,,rot,blue,b,0.0,b,1.0,0.8015620000078343,,,,,,,,,,1.0,10.0,22.0,2.0,193.02587169996696,,,,,,,,,,,,,,,,,193.0114898000029,193.1258731000125,193.926119700016,193.9106449999963,,,,,,,,,,,,,,,,,,,,,,,,,,,,,,,,,,,193.91366139997265,193.926119700016,193.926119700016,194.7436860000016,b,1.0,0.8015620000078343,,,,,,sub-004,1,stroop_test,60.06034864336475,
,,,,23.0,11.0,1.0,,,,,,,,,,,,,gelb,yellow,g,1.0,g,1.0,0.82439909997629,,,,,,,,,,1.0,11.0,23.0,10.0,194.75921069999455,,,,,,,,,,,,,,,,,194.74400619999503,195.94264749996364,196.74269709998043,196.7264669999713,,,,,,,,,,,,,,,,,,,,,,,,,,,,,,,,,,,196.7280631000176,196.74269709998043,196.74269709998043,197.5768010999891,g,1.0,0.82439909997629,,,,,,sub-004,1,stroop_test,60.06034864336475,
,,,,24.0,0.0,2.0,,,,,,,,,,,,,rot,red,r,1.0,r,1.0,0.8219227000372484,,,,,,,,,,2.0,0.0,24.0,0.0,197.59250789997168,,,,,,,,,,,,,,,,,197.57697369996455,197.92604649998248,198.72651189996395,198.710114699963,,,,,,,,,,,,,,,,,,,,,,,,,,,,,,,,,,,198.711516499985,198.72651189996395,198.72651189996395,199.5603719999781,r,1.0,0.8219227000372484,,,,,,sub-004,1,stroop_test,60.06034864336475,
,,,,25.0,1.0,2.0,,,,,,,,,,,,,gelb,yellow,g,1.0,g,1.0,0.6096286000101827,,,,,,,,,,2.0,1.0,25.0,10.0,199.5759626000072,,,,,,,,,,,,,,,,,199.5606464999728,200.75936049997108,201.55947219999507,201.5438351999619,,,,,,,,,,,,,,,,,,,,,,,,,,,,,,,,,,,201.54692819999764,201.55947219999507,201.55947219999507,202.1776833999902,g,1.0,0.6096286000101827,,,,,,sub-004,1,stroop_test,60.06034864336475,
,,,,26.0,2.0,2.0,,,,,,,,,,,,,rot,blue,b,0.0,b,1.0,0.8556462999549694,,,,,,,,,,2.0,2.0,26.0,2.0,202.19256970001152,,,,,,,,,,,,,,,,,202.17799940000987,202.9928524999996,203.79265869996743,203.77626760001291,,,,,,,,,,,,,,,,,,,,,,,,,,,,,,,,,,,203.77810559998036,203.79265869996743,203.79265869996743,204.6608022999717,b,1.0,0.8556462999549694,,,,,,sub-004,1,stroop_test,60.06034864336475,
,,,,27.0,3.0,2.0,,,,,,,,,,,,,gelb,red,r,0.0,r,1.0,0.7955461000092328,,,,,,,,,,2.0,3.0,27.0,8.0,204.67630739999004,,,,,,,,,,,,,,,,,204.6611771999742,205.47602090000876,206.27575069997687,206.26030339999124,,,,,,,,,,,,,,,,,,,,,,,,,,,,,,,,,,,206.26357359997928,206.27575069997687,206.27575069997687,207.0771246000077,r,1.0,0.7955461000092328,,,,,,sub-004,1,stroop_test,60.06034864336475,
,,,,28.0,4.0,2.0,,,,,,,,,,,,,gelb,blue,b,0.0,b,1.0,0.8865508000017144,,,,,,,,,,2.0,4.0,28.0,9.0,207.09285760001512,,,,,,,,,,,,,,,,,207.07734149997123,208.2925930999918,209.092927199963,209.0769831999787,,,,,,,,,,,,,,,,,,,,,,,,,,,,,,,,,,,209.07724600000077,209.092927199963,209.092927199963,209.99493109999457,b,1.0,0.8865508000017144,,,,,,sub-004,1,stroop_test,60.06034864336475,
,,,,29.0,5.0,2.0,,,,,,,,,,,,,blau,blue,b,1.0,b,1.0,0.601569099992048,,,,,,,,,,2.0,5.0,29.0,5.0,210.00951529998565,,,,,,,,,,,,,,,,,209.9952828999958,210.10956869996156,210.90917339996668,210.89339400001336,,,,,,,,,,,,,,,,,,,,,,,,,,,,,,,,,,,210.89567649998932,210.90917339996668,210.90917339996668,211.52740829996765,b,1.0,0.601569099992048,,,,,,sub-004,1,stroop_test,60.06034864336475,
,,,,30.0,6.0,2.0,,,,,,,,,,,,,rot,red,r,1.0,r,1.0,0.4480312000378035,,,,,,,,,,2.0,6.0,30.0,1.0,211.54256339999847,,,,,,,,,,,,,,,,,211.52784900000552,212.74263799999608,213.54269829997796,213.52657569997243,,,,,,,,,,,,,,,,,,,,,,,,,,,,,,,,,,,213.52912580000705,213.54269829997796,213.54269829997796,213.9942457000143,r,1.0,0.4480312000378035,,,,,,sub-004,1,stroop_test,60.06034864336475,
,,,,31.0,7.0,2.0,,,,,,,,,,,,,blau,red,r,0.0,b,0.0,0.5325739000109024,,,,,,,,,,2.0,7.0,31.0,4.0,214.0090631999774,,,,,,,,,,,,,,,,,213.99469079996925,214.8093701999751,215.60919330001343,215.59375249996083,,,,,,,,,,,,,,,,,,,,,,,,,,,,,,,,,,,215.59644699998896,215.60919330001343,215.60919330001343,216.14316609996604,b,0.0,0.5325739000109024,,,,,,sub-004,1,stroop_test,60.06034864336475,
,,,,32.0,8.0,2.0,,,,,,,,,,,,,gelb,yellow,g,1.0,g,1.0,0.6377727999933995,,,,,,,,,,2.0,8.0,32.0,11.0,216.1590227999841,,,,,,,,,,,,,,,,,216.14337569999043,216.24246839998523,217.04262189997823,217.0266962000169,,,,,,,,,,,,,,,,,,,,,,,,,,,,,,,,,,,217.02945789997463,217.04262189997823,217.04262189997823,217.6940260999836,g,1.0,0.6377727999933995,,,,,,sub-004,1,stroop_test,60.06034864336475,
,,,,33.0,9.0,2.0,,,,,,,,,,,,,blau,yellow,g,0.0,b,0.0,0.5743176999967545,,,,,,,,,,2.0,9.0,33.0,7.0,217.70910510001704,,,,,,,,,,,,,,,,,217.69433169998229,218.0423169999849,218.8426700999844,218.82710270001556,,,,,,,,,,,,,,,,,,,,,,,,,,,,,,,,,,,218.82936460000928,218.8426700999844,218.8426700999844,219.42765640001744,b,0.0,0.5743176999967545,,,,,,sub-004,1,stroop_test,60.06034864336475,
,,,,34.0,10.0,2.0,,,,,,,,,,,,,rot,yellow,g,0.0,g,1.0,1.0321228000102565,,,,,,,,,,2.0,10.0,34.0,3.0,219.4424183999654,,,,,,,,,,,,,,,,,219.42795939999635,220.24282489996403,221.04260300000897,221.0264568999992,,,,,,,,,,,,,,,,,,,,,,,,,,,,,,,,,,,221.02868049999236,221.04260300000897,221.04260300000897,222.0766610999708,g,1.0,1.0321228000102565,,,,,,sub-004,1,stroop_test,60.06034864336475,
,,,,35.0,11.0,2.0,,,,,,,,,,,,,blau,blue,b,1.0,b,1.0,0.5419432000489905,,,,,,,,,,2.0,11.0,35.0,6.0,222.0924676000141,,,,,,,,,,,,,,,,,222.07687779999105,222.89271589997225,223.6927450000076,223.6761034000083,,,,,,,,,,,,,,,,,,,,,,,,,,,,,,,,,,,223.67749329999788,223.6927450000076,223.6927450000076,224.24364329996752,b,1.0,0.5419432000489905,,,,,,sub-004,1,stroop_test,60.06034864336475,
,,,,36.0,0.0,3.0,,,,,,,,,,,,,gelb,blue,b,0.0,b,1.0,0.7831102999625728,,,,,,,,,,3.0,0.0,36.0,9.0,224.25917510001452,,,,,,,,,,,,,,,,,224.24387639999625,224.3424785999814,225.1426691999659,225.12663139996585,,,,,,,,,,,,,,,,,,,,,,,,,,,,,,,,,,,225.1284195999615,225.1426691999659,225.1426691999659,225.9280467999633,b,1.0,0.7831102999625728,,,,,,sub-004,1,stroop_test,60.06034864336475,
,,,,37.0,1.0,3.0,,,,,,,,,,,,,rot,red,r,1.0,r,1.0,0.6177128999843262,,,,,,,,,,3.0,1.0,37.0,0.0,225.94250199996168,,,,,,,,,,,,,,,,,225.92828559997724,226.04267439997056,226.8427631999948,226.82644159998745,,,,,,,,,,,,,,,,,,,,,,,,,,,,,,,,,,,226.82807340001452,226.8427631999948,226.8427631999948,227.47657940001227,r,1.0,0.6177128999843262,,,,,,sub-004,1,stroop_test,60.06034864336475,
,,,,38.0,2.0,3.0,,,,,,,,,,,,,rot,blue,b,0.0,b,1.0,1.079827799985651,,,,,,,,,,3.0,2.0,38.0,2.0,227.49278659996344,,,,,,,,,,,,,,,,,227.47678959998305,227.8256662999629,228.62603779998608,228.6097202000092,,,,,,,,,,,,,,,,,,,,,,,,,,,,,,,,,,,228.61003659997368,228.62603779998608,228.62603779998608,229.7100446000113,b,1.0,1.079827799985651,,,,,,sub-004,1,stroop_test,60.06034864336475,
,,,,39.0,3.0,3.0,,,,,,,,,,,,,blau,blue,b,1.0,b,1.0,0.6329308000276797,,,,,,,,,,3.0,3.0,39.0,6.0,229.7262936999905,,,,,,,,,,,,,,,,,229.71029149997048,230.5093051000149,231.30920680001145,231.29282829997828,,,,,,,,,,,,,,,,,,,,,,,,,,,,,,,,,,,231.2942731999792,231.30920680001145,231.30920680001145,231.94403549999697,b,1.0,0.6329308000276797,,,,,,sub-004,1,stroop_test,60.06034864336475,
,,,,40.0,4.0,3.0,,,,,,,,,,,,,gelb,yellow,g,1.0,g,1.0,0.8944656999665312,,,,,,,,,,3.0,4.0,40.0,10.0,231.9597863999661,,,,,,,,,,,,,,,,,231.9442757999641,232.3091181999771,233.109464499983,233.09320860001023,,,,,,,,,,,,,,,,,,,,,,,,,,,,,,,,,,,233.0947057000012,233.109464499983,233.109464499983,234.01079530001152,g,1.0,0.8944656999665312,,,,,,sub-004,1,stroop_test,60.06034864336475,
,,,,41.0,5.0,3.0,,,,,,,,,,,,,blau,blue,b,1.0,b,1.0,0.4937629000050947,,,,,,,,,,3.0,5.0,41.0,5.0,234.02565359999423,,,,,,,,,,,,,,,,,234.01102729997365,234.8261195999803,235.6255386999692,235.6094715999789,,,,,,,,,,,,,,,,,,,,,,,,,,,,,,,,,,,235.61112959997263,235.6255386999692,235.6255386999692,236.12678359996065,b,1.0,0.4937629000050947,,,,,,sub-004,1,stroop_test,60.06034864336475,
,,,,42.0,6.0,3.0,,,,,,,,,,,,,gelb,yellow,g,1.0,g,1.0,0.6901242000167258,,,,,,,,,,3.0,6.0,42.0,11.0,236.14221730001736,,,,,,,,,,,,,,,,,236.1269926999812,236.2254729999695,237.02590409998083,237.01045499998145,,,,,,,,,,,,,,,,,,,,,,,,,,,,,,,,,,,237.01268599997277,237.02590409998083,237.02590409998083,237.72731869999552,g,1.0,0.6901242000167258,,,,,,sub-004,1,stroop_test,60.06034864336475,
,,,,43.0,7.0,3.0,,,,,,,,,,,,,blau,yellow,g,0.0,b,0.0,0.6186005999916233,,,,,,,,,,3.0,7.0,43.0,7.0,237.7423642000067,,,,,,,,,,,,,,,,,237.7276775999926,238.542805199977,239.34247490001144,239.32673219998836,,,,,,,,,,,,,,,,,,,,,,,,,,,,,,,,,,,239.3291573000024,239.34247490001144,239.34247490001144,239.97718849999364,b,0.0,0.6186005999916233,,,,,,sub-004,1,stroop_test,60.06034864336475,
,,,,44.0,8.0,3.0,,,,,,,,,,,,,rot,red,r,1.0,r,1.0,0.6238832999952137,,,,,,,,,,3.0,8.0,44.0,1.0,239.992151799961,,,,,,,,,,,,,,,,,239.97752199997197,240.09228179999627,240.89207120001083,240.8764686000068,,,,,,,,,,,,,,,,,,,,,,,,,,,,,,,,,,,240.8788720999728,240.89207120001083,240.89207120001083,241.52751029998765,r,1.0,0.6238832999952137,,,,,,sub-004,1,stroop_test,60.06034864336475,
,,,,45.0,9.0,3.0,,,,,,,,,,,,,blau,red,r,0.0,r,1.0,0.6574249000404961,,,,,,,,,,3.0,9.0,45.0,4.0,241.5428463999997,,,,,,,,,,,,,,,,,241.52788040001175,242.34234109998212,243.14225689996965,243.1260147999856,,,,,,,,,,,,,,,,,,,,,,,,,,,,,,,,,,,243.1282268000068,243.14225689996965,243.14225689996965,243.81045849999649,r,1.0,0.6574249000404961,,,,,,sub-004,1,stroop_test,60.06034864336475,
,,,,46.0,10.0,3.0,,,,,,,,,,,,,gelb,red,r,0.0,r,1.0,0.5348136999527924,,,,,,,,,,3.0,10.0,46.0,8.0,243.82552329998,,,,,,,,,,,,,,,,,243.81083049997687,244.17553479998605,244.9756830999977,244.95959410001524,,,,,,,,,,,,,,,,,,,,,,,,,,,,,,,,,,,244.96205450000707,244.9756830999977,244.9756830999977,245.52711470000213,r,1.0,0.5348136999527924,,,,,,sub-004,1,stroop_test,60.06034864336475,
,,,,47.0,11.0,3.0,,,,,,,,,,,,,rot,yellow,g,0.0,g,1.0,0.8881946000037715,,,,,,,,,,3.0,11.0,47.0,3.0,245.54247980000216,,,,,,,,,,,,,,,,,245.52747530001216,246.7422734000138,247.5421149000176,247.52625689998968,,,,,,,,,,,,,,,,,,,,,,,,,,,,,,,,,,,247.52870219998292,247.5421149000176,247.5421149000176,248.44385109998984,g,1.0,0.8881946000037715,,,,,,sub-004,1,stroop_test,60.06034864336475,
,,,,48.0,0.0,4.0,,,,,,,,,,,,,gelb,yellow,g,1.0,g,1.0,0.5273290000041015,,,,,,,,,,4.0,0.0,48.0,10.0,248.4586391999619,,,,,,,,,,,,,,,,,248.4442296999623,249.25895029999083,250.0589489999693,250.0433444000082,,,,,,,,,,,,,,,,,,,,,,,,,,,,,,,,,,,250.04645369999344,250.0589489999693,250.0589489999693,250.59353919996647,g,1.0,0.5273290000041015,,,,,,sub-004,1,stroop_test,60.06034864336475,
,,,,49.0,1.0,4.0,,,,,,,,,,,,,blau,blue,b,1.0,b,1.0,0.6280040999990888,,,,,,,,,,4.0,1.0,49.0,5.0,250.6088697999949,,,,,,,,,,,,,,,,,250.593847799988,251.808867499989,252.6089816999738,252.59305109997516,,,,,,,,,,,,,,,,,,,,,,,,,,,,,,,,,,,252.5959823000012,252.6089816999738,252.6089816999738,253.243166500004,b,1.0,0.6280040999990888,,,,,,sub-004,1,stroop_test,60.06034864336475,
,,,,50.0,2.0,4.0,,,,,,,,,,,,,blau,blue,b,1.0,b,1.0,0.5505955999833532,,,,,,,,,,4.0,2.0,50.0,6.0,253.2586487999652,,,,,,,,,,,,,,,,,253.24340589996427,254.44229400000768,255.2424645000137,255.22625529998916,,,,,,,,,,,,,,,,,,,,,,,,,,,,,,,,,,,255.2267329000169,255.2424645000137,255.2424645000137,255.8096919999807,b,1.0,0.5505955999833532,,,,,,sub-004,1,stroop_test,60.06034864336475,
,,,,51.0,3.0,4.0,,,,,,,,,,,,,blau,red,r,0.0,r,1.0,1.0451483999495397,,,,,,,,,,4.0,3.0,51.0,4.0,255.8252962999977,,,,,,,,,,,,,,,,,255.80999019998129,257.00892180000665,257.80895510001574,257.7930539000081,,,,,,,,,,,,,,,,,,,,,,,,,,,,,,,,,,,257.7933685000171,257.80895510001574,257.80895510001574,258.8595459999633,r,1.0,1.0451483999495397,,,,,,sub-004,1,stroop_test,60.06034864336475,
,,,,52.0,4.0,4.0,,,,,,,,,,,,,gelb,red,r,0.0,r,1.0,0.6732295999536291,,,,,,,,,,4.0,4.0,52.0,8.0,258.87523639999563,,,,,,,,,,,,,,,,,258.8597523999633,259.208744500007,260.0088634999702,259.9936520999763,,,,,,,,,,,,,,,,,,,,,,,,,,,,,,,,,,,259.9952210999909,260.0088634999702,260.0088634999702,260.6931931999861,r,1.0,0.6732295999536291,,,,,,sub-004,1,stroop_test,60.06034864336475,
,,,,53.0,5.0,4.0,,,,,,,,,,,,,rot,blue,b,0.0,b,1.0,1.0072263999609277,,,,,,,,,,4.0,5.0,53.0,2.0,260.70899489999283,,,,,,,,,,,,,,,,,260.69341800000984,261.042157399992,261.8425497999997,261.826125099964,,,,,,,,,,,,,,,,,,,,,,,,,,,,,,,,,,,261.8275699999649,261.8425497999997,261.8425497999997,262.8593800999806,b,1.0,1.0072263999609277,,,,,,sub-004,1,stroop_test,60.06034864336475,
,,,,54.0,6.0,4.0,,,,,,,,,,,,,blau,yellow,g,0.0,g,1.0,0.7385021999944001,,,,,,,,,,4.0,6.0,54.0,7.0,262.87533159996383,,,,,,,,,,,,,,,,,262.8595881999936,262.958769299963,263.75895749998745,263.7429028999759,,,,,,,,,,,,,,,,,,,,,,,,,,,,,,,,,,,263.74464970000554,263.75895749998745,263.75895749998745,264.50952199997846,g,1.0,0.7385021999944001,,,,,,sub-004,1,stroop_test,60.06034864336475,
,,,,55.0,7.0,4.0,,,,,,,,,,,,,rot,yellow,g,0.0,g,1.0,0.457583799958229,,,,,,,,,,4.0,7.0,55.0,3.0,264.52544040000066,,,,,,,,,,,,,,,,,264.5097360999789,264.85882169997785,265.659276099992,265.64266289997613,,,,,,,,,,,,,,,,,,,,,,,,,,,,,,,,,,,265.644243000017,265.659276099992,265.659276099992,266.1265374000068,g,1.0,0.457583799958229,,,,,,sub-004,1,stroop_test,60.06034864336475,
,,,,56.0,8.0,4.0,,,,,,,,,,,,,gelb,blue,b,0.0,b,1.0,0.4332478999858722,,,,,,,,,,4.0,8.0,56.0,9.0,266.1420400000061,,,,,,,,,,,,,,,,,266.1267673000111,266.4918410999817,267.2920597000048,267.2760184999788,,,,,,,,,,,,,,,,,,,,,,,,,,,,,,,,,,,267.2774044999969,267.2920597000048,267.2920597000048,267.72719569999026,b,1.0,0.4332478999858722,,,,,,sub-004,1,stroop_test,60.06034864336475,
,,,,57.0,9.0,4.0,,,,,,,,,,,,,rot,red,r,1.0,r,1.0,0.5326504000113346,,,,,,,,,,4.0,9.0,57.0,0.0,267.7425243000034,,,,,,,,,,,,,,,,,267.7274491999997,268.942052599974,269.74201789998915,269.7259117999929,,,,,,,,,,,,,,,,,,,,,,,,,,,,,,,,,,,269.7274077999755,269.74201789998915,269.74201789998915,270.2770564999664,r,1.0,0.5326504000113346,,,,,,sub-004,1,stroop_test,60.06034864336475,
,,,,58.0,10.0,4.0,,,,,,,,,,,,,rot,red,r,1.0,r,1.0,0.4533601999864913,,,,,,,,,,4.0,10.0,58.0,1.0,270.2924149999744,,,,,,,,,,,,,,,,,270.27727839996805,270.6418208999676,271.4421842999873,271.4260621999856,,,,,,,,,,,,,,,,,,,,,,,,,,,,,,,,,,,271.42662559996825,271.4421842999873,271.4421842999873,271.90998980001314,r,1.0,0.4533601999864913,,,,,,sub-004,1,stroop_test,60.06034864336475,
,,,,59.0,11.0,4.0,,,,,,,,,,,,,gelb,yellow,g,1.0,g,1.0,0.650039900036063,,,,,,,,,,4.0,11.0,59.0,11.0,271.9254834000021,,,,,,,,,,,,,,,,,271.9103119999636,272.02527019998524,272.825282100006,272.8095435000141,,,,,,,,,,,,,,,,,,,,,,,,,,,,,,,,,,,272.81196149997413,272.825282100006,272.825282100006,273.4779157000012,g,1.0,0.650039900036063,,,,,,sub-004,1,stroop_test,60.06034864336475,
,,,,60.0,0.0,5.0,,,,,,,,,,,,,gelb,blue,b,0.0,b,1.0,0.7205793000175618,,,,,,,,,,5.0,0.0,60.0,9.0,273.4920063999598,,,,,,,,,,,,,,,,,273.4782831000048,273.592179499974,274.3920298999874,274.3762992999982,,,,,,,,,,,,,,,,,,,,,,,,,,,,,,,,,,,274.3766200999962,274.3920298999874,274.3920298999874,275.1264765000087,b,1.0,0.7205793000175618,,,,,,sub-004,1,stroop_test,60.06034864336475,
,,,,61.0,1.0,5.0,,,,,,,,,,,,,blau,blue,b,1.0,b,1.0,0.5267856999998912,,,,,,,,,,5.0,1.0,61.0,5.0,275.14246469998034,,,,,,,,,,,,,,,,,275.12673949997406,275.2421863999916,276.0419841000112,276.0264043000061,,,,,,,,,,,,,,,,,,,,,,,,,,,,,,,,,,,276.0293270999682,276.0419841000112,276.0419841000112,276.57701359997736,b,1.0,0.5267856999998912,,,,,,sub-004,1,stroop_test,60.06034864336475,
,,,,62.0,2.0,5.0,,,,,,,,,,,,,gelb,red,r,0.0,g,0.0,0.5560229999828152,,,,,,,,,,5.0,2.0,62.0,8.0,276.5920104999677,,,,,,,,,,,,,,,,,276.5773899999913,276.94241700001294,277.74207089998526,277.7257449000026,,,,,,,,,,,,,,,,,,,,,,,,,,,,,,,,,,,277.72774790000403,277.74207089998526,277.74207089998526,278.31063600000925,g,0.0,0.5560229999828152,,,,,,sub-004,1,stroop_test,60.06034864336475,
,,,,63.0,3.0,5.0,,,,,,,,,,,,,rot,red,r,1.0,r,1.0,0.5293945000157692,,,,,,,,,,5.0,3.0,63.0,0.0,278.32553550001467,,,,,,,,,,,,,,,,,278.31105869996827,278.6752604999929,279.47534969996195,279.4597396000172,,,,,,,,,,,,,,,,,,,,,,,,,,,,,,,,,,,279.46338149998337,279.47534969996195,279.47534969996195,280.00976260000607,r,1.0,0.5293945000157692,,,,,,sub-004,1,stroop_test,60.06034864336475,
,,,,64.0,4.0,5.0,,,,,,,,,,,,,rot,blue,b,0.0,b,1.0,0.7730826000333764,,,,,,,,,,5.0,4.0,64.0,2.0,280.02518509997753,,,,,,,,,,,,,,,,,280.0100699000177,280.3754593000049,281.1753922000062,281.1600417000009,,,,,,,,,,,,,,,,,,,,,,,,,,,,,,,,,,,281.1606883999775,281.1753922000062,281.1753922000062,281.95996720000403,b,1.0,0.7730826000333764,,,,,,sub-004,1,stroop_test,60.06034864336475,
,,,,65.0,5.0,5.0,,,,,,,,,,,,,blau,blue,b,1.0,b,1.0,0.8507556999684311,,,,,,,,,,5.0,5.0,65.0,6.0,281.9752269000164,,,,,,,,,,,,,,,,,281.9603512000176,282.3253769999719,283.1253096999717,283.1101231999928,,,,,,,,,,,,,,,,,,,,,,,,,,,,,,,,,,,283.1132127000019,283.1253096999717,283.1253096999717,283.9777865000069,b,1.0,0.8507556999684311,,,,,,sub-004,1,stroop_test,60.06034864336475,
,,,,66.0,6.0,5.0,,,,,,,,,,,,,blau,red,r,0.0,r,1.0,1.788662800041493,,,,,,,,,,5.0,6.0,66.0,4.0,283.9917969999952,,,,,,,,,,,,,,,,,283.9780901999912,285.1919445999665,285.9921183999977,285.97647489997325,,,,,,,,,,,,,,,,,,,,,,,,,,,,,,,,,,,285.977058199991,285.9921183999977,285.9921183999977,287.79334949998884,r,1.0,1.788662800041493,,,,,,sub-004,1,stroop_test,60.06034864336475,
,,,,67.0,7.0,5.0,,,,,,,,,,,,,gelb,yellow,g,1.0,g,1.0,0.5108148999861442,,,,,,,,,,5.0,7.0,67.0,11.0,287.8083510000142,,,,,,,,,,,,,,,,,287.79368629999226,288.158797400014,288.958515300008,288.9425831999979,,,,,,,,,,,,,,,,,,,,,,,,,,,,,,,,,,,288.9456992999767,288.958515300008,288.958515300008,289.476991500007,g,1.0,0.5108148999861442,,,,,,sub-004,1,stroop_test,60.06034864336475,
,,,,68.0,8.0,5.0,,,,,,,,,,,,,gelb,yellow,g,1.0,g,1.0,0.4613729999982752,,,,,,,,,,5.0,8.0,68.0,10.0,289.4920837999671,,,,,,,,,,,,,,,,,289.47738689999096,289.8419367999886,290.6418671999709,290.6265203999937,,,,,,,,,,,,,,,,,,,,,,,,,,,,,,,,,,,290.6270459999796,290.6418671999709,290.6418671999709,291.109870299988,g,1.0,0.4613729999982752,,,,,,sub-004,1,stroop_test,60.06034864336475,
,,,,69.0,9.0,5.0,,,,,,,,,,,,,rot,yellow,g,0.0,g,1.0,0.3580553000210784,,,,,,,,,,5.0,9.0,69.0,3.0,291.1252669999958,,,,,,,,,,,,,,,,,291.1101963999681,292.3254103999934,293.1252866999712,293.1089624000015,,,,,,,,,,,,,,,,,,,,,,,,,,,,,,,,,,,293.11083560000407,293.1252866999712,293.1252866999712,293.49259360000724,g,1.0,0.3580553000210784,,,,,,sub-004,1,stroop_test,60.06034864336475,
,,,,70.0,10.0,5.0,,,,,,,,,,,,,blau,yellow,g,0.0,g,1.0,0.528144899988547,,,,,,,,,,5.0,10.0,70.0,7.0,293.5087104999693,,,,,,,,,,,,,,,,,293.49287449999247,294.6917648999952,295.4924874000135,295.47606849996373,,,,,,,,,,,,,,,,,,,,,,,,,,,,,,,,,,,295.47760759998346,295.4924874000135,295.4924874000135,296.0262066000141,g,1.0,0.528144899988547,,,,,,sub-004,1,stroop_test,60.06034864336475,
,,,,71.0,11.0,5.0,,,,,,,,,,,,,rot,red,r,1.0,r,1.0,0.5451857000007294,,,,,,,,,,5.0,11.0,71.0,1.0,296.04168249998474,,,,,,,,,,,,,,,,,296.0264153999742,296.82535210001515,297.6252511999919,297.60988559998805,,,,,,,,,,,,,,,,,,,,,,,,,,,,,,,,,,,297.6125084999949,297.6252511999919,297.6252511999919,298.1766331999679,r,1.0,0.5451857000007294,,,,,,sub-004,1,stroop_test,60.06034864336475,
,,,,72.0,0.0,6.0,,,,,,,,,,,,,gelb,blue,b,0.0,b,1.0,0.3080936999758705,,,,,,,,,,6.0,0.0,72.0,9.0,298.1919414000004,,,,,,,,,,,,,,,,,298.1769036999904,299.3919650000171,300.19225109997205,300.1761420000112,,,,,,,,,,,,,,,,,,,,,,,,,,,,,,,,,,,300.1786916999845,300.19225109997205,300.19225109997205,300.5105871999985,b,1.0,0.3080936999758705,,,,,,sub-004,1,stroop_test,60.06034864336475,
,,,,73.0,1.0,6.0,,,,,,,,,,,,,blau,red,r,0.0,r,1.0,0.3517787000164389,,,,,,,,,,6.0,1.0,73.0,4.0,300.5255890999688,,,,,,,,,,,,,,,,,300.51091840001754,301.72536859998945,302.5253292999696,302.5093894000165,,,,,,,,,,,,,,,,,,,,,,,,,,,,,,,,,,,302.5119027000037,302.5253292999696,302.5253292999696,302.8937385000172,r,1.0,0.3517787000164389,,,,,,sub-004,1,stroop_test,60.06034864336475,
,,,,74.0,2.0,6.0,,,,,,,,,,,,,rot,yellow,g,0.0,g,1.0,0.6984610999934375,,,,,,,,,,6.0,2.0,74.0,3.0,302.9086722999928,,,,,,,,,,,,,,,,,302.8940816000104,304.1096530999639,304.9254785999656,304.90950899996096,,,,,,,,,,,,,,,,,,,,,,,,,,,,,,,,,,,304.91155219997745,304.9254785999656,304.9254785999656,305.62744609999936,g,1.0,0.6984610999934375,,,,,,sub-004,1,stroop_test,60.06034864336475,
,,,,75.0,3.0,6.0,,,,,,,,,,,,,gelb,yellow,g,1.0,g,1.0,0.4568485000054352,,,,,,,,,,6.0,3.0,75.0,10.0,305.6419062999776,,,,,,,,,,,,,,,,,305.6277598000015,306.4419506000122,307.24199000000954,307.2263339000056,,,,,,,,,,,,,,,,,,,,,,,,,,,,,,,,,,,307.22874079999747,307.24199000000954,307.24199000000954,307.7099153000163,g,1.0,0.4568485000054352,,,,,,sub-004,1,stroop_test,60.06034864336475,
,,,,76.0,4.0,6.0,,,,,,,,,,,,,rot,blue,b,0.0,b,1.0,0.9747457000194116,,,,,,,,,,6.0,4.0,76.0,2.0,307.72510129999137,,,,,,,,,,,,,,,,,307.7102101999917,307.82531169999857,308.6252506999881,308.6091482999618,,,,,,,,,,,,,,,,,,,,,,,,,,,,,,,,,,,308.61167989997193,308.6252506999881,308.6252506999881,309.6099647000083,b,1.0,0.9747457000194116,,,,,,sub-004,1,stroop_test,60.06034864336475,
,,,,77.0,5.0,6.0,,,,,,,,,,,,,blau,yellow,g,0.0,g,1.0,0.801057500008028,,,,,,,,,,6.0,5.0,77.0,7.0,309.6260108000133,,,,,,,,,,,,,,,,,309.610272299964,309.72527860000264,310.52533669996774,310.50969619996613,,,,,,,,,,,,,,,,,,,,,,,,,,,,,,,,,,,310.5119978999719,310.52533669996774,310.52533669996774,311.3291024999926,g,1.0,0.801057500008028,,,,,,sub-004,1,stroop_test,60.06034864336475,
,,,,78.0,6.0,6.0,,,,,,,,,,,,,rot,red,r,1.0,r,1.0,0.4692729000234976,,,,,,,,,,6.0,6.0,78.0,1.0,311.3420800999738,,,,,,,,,,,,,,,,,311.3294043999631,311.6918488999945,312.49214539997047,312.4762573000044,,,,,,,,,,,,,,,,,,,,,,,,,,,,,,,,,,,312.4785626999801,312.49214539997047,312.49214539997047,312.97666589997243,r,1.0,0.4692729000234976,,,,,,sub-004,1,stroop_test,60.06034864336475,
,,,,79.0,7.0,6.0,,,,,,,,,,,,,gelb,red,r,0.0,r,1.0,0.4819284999975934,,,,,,,,,,6.0,7.0,79.0,8.0,312.9915766000049,,,,,,,,,,,,,,,,,312.9769712999696,313.3423902000068,314.14186989999143,314.126337099995,,,,,,,,,,,,,,,,,,,,,,,,,,,,,,,,,,,314.1290894999984,314.14186989999143,314.14186989999143,314.6275403999607,r,1.0,0.4819284999975934,,,,,,sub-004,1,stroop_test,60.06034864336475,
,,,,80.0,8.0,6.0,,,,,,,,,,,,,blau,blue,b,1.0,b,1.0,0.7444805999984965,,,,,,,,,,6.0,8.0,80.0,6.0,314.64194999996107,,,,,,,,,,,,,,,,,314.62783419998595,315.8421795999748,316.6418360999669,316.6266198999947,,,,,,,,,,,,,,,,,,,,,,,,,,,,,,,,,,,316.6289309000131,316.6418360999669,316.6418360999669,317.39351670001633,b,1.0,0.7444805999984965,,,,,,sub-004,1,stroop_test,60.06034864336475,
,,,,81.0,9.0,6.0,,,,,,,,,,,,,rot,red,r,1.0,r,1.0,0.5181035000132397,,,,,,,,,,6.0,9.0,81.0,0.0,317.4083101999713,,,,,,,,,,,,,,,,,317.3938143000123,318.2084645999712,319.0081857999903,318.9924624999985,,,,,,,,,,,,,,,,,,,,,,,,,,,,,,,,,,,318.9959664999624,319.0081857999903,319.0081857999903,319.5281182999606,r,1.0,0.5181035000132397,,,,,,sub-004,1,stroop_test,60.06034864336475,
,,,,82.0,10.0,6.0,,,,,,,,,,,,,gelb,yellow,g,1.0,g,1.0,0.5351781999925151,,,,,,,,,,6.0,10.0,82.0,11.0,319.54169699997874,,,,,,,,,,,,,,,,,319.5284323999658,320.74190839997027,321.5418160000117,321.52664739999454,,,,,,,,,,,,,,,,,,,,,,,,,,,,,,,,,,,321.5293403000105,321.5418160000117,321.5418160000117,322.0926742000156,g,1.0,0.5351781999925151,,,,,,sub-004,1,stroop_test,60.06034864336475,
,,,,83.0,11.0,6.0,,,,,,,,,,,,,blau,blue,b,1.0,b,1.0,0.5422589000081643,,,,,,,,,,6.0,11.0,83.0,5.0,322.1080520999967,,,,,,,,,,,,,,,,,322.09307409997564,322.4584160000086,323.25822989997687,323.24245570000494,,,,,,,,,,,,,,,,,,,,,,,,,,,,,,,,,,,323.2450182000175,323.25822989997687,323.25822989997687,323.80963829997927,b,1.0,0.5422589000081643,,,,,,sub-004,1,stroop_test,60.06034864336475,
,,,,84.0,0.0,7.0,,,,,,,,,,,,,rot,blue,b,0.0,r,0.0,0.5531654999940656,,,,,,,,,,7.0,0.0,84.0,2.0,323.8248129999847,,,,,,,,,,,,,,,,,323.8099771999987,323.9249819999677,324.725052099966,324.70922560000326,,,,,,,,,,,,,,,,,,,,,,,,,,,,,,,,,,,324.7118717000121,324.725052099966,324.725052099966,325.2926590999705,r,0.0,0.5531654999940656,,,,,,sub-004,1,stroop_test,60.06034864336475,
,,,,85.0,1.0,7.0,,,,,,,,,,,,,gelb,yellow,g,1.0,g,1.0,0.6459609000012279,,,,,,,,,,7.0,1.0,85.0,11.0,325.3081378999632,,,,,,,,,,,,,,,,,325.29300900001545,325.4083407999715,326.2080978999729,326.19163590000244,,,,,,,,,,,,,,,,,,,,,,,,,,,,,,,,,,,326.1933091999963,326.2080978999729,326.2080978999729,326.85969389998354,g,1.0,0.6459609000012279,,,,,,sub-004,1,stroop_test,60.06034864336475,
,,,,86.0,2.0,7.0,,,,,,,,,,,,,blau,yellow,g,0.0,g,1.0,1.044197199982591,,,,,,,,,,7.0,2.0,86.0,7.0,326.875899799983,,,,,,,,,,,,,,,,,326.8598609999753,327.2247750000097,328.0254211999709,328.0093004999799,,,,,,,,,,,,,,,,,,,,,,,,,,,,,,,,,,,328.01146349997725,328.0254211999709,328.0254211999709,329.0767161999829,g,1.0,1.044197199982591,,,,,,sub-004,1,stroop_test,60.06034864336475,
,,,,87.0,3.0,7.0,,,,,,,,,,,,,rot,red,r,1.0,r,1.0,0.4172021999838762,,,,,,,,,,7.0,3.0,87.0,0.0,329.0918403000105,,,,,,,,,,,,,,,,,329.0770495000179,329.8915581000037,330.69148089998635,330.6758740000077,,,,,,,,,,,,,,,,,,,,,,,,,,,,,,,,,,,330.67901979997987,330.69148089998635,330.69148089998635,331.12598849996,r,1.0,0.4172021999838762,,,,,,sub-004,1,stroop_test,60.06034864336475,
,,,,88.0,4.0,7.0,,,,,,,,,,,,,rot,yellow,g,0.0,g,1.0,0.8289527000160888,,,,,,,,,,7.0,4.0,88.0,3.0,331.1414966000011,,,,,,,,,,,,,,,,,331.1263340999721,331.49152989999857,332.29161319998093,332.27553310000803,,,,,,,,,,,,,,,,,,,,,,,,,,,,,,,,,,,332.2759442999959,332.29161319998093,332.29161319998093,333.1262152999989,g,1.0,0.8289527000160888,,,,,,sub-004,1,stroop_test,60.06034864336475,
,,,,89.0,5.0,7.0,,,,,,,,,,,,,rot,red,r,1.0,r,1.0,0.4902807000325992,,,,,,,,,,7.0,5.0,89.0,1.0,333.1414603000157,,,,,,,,,,,,,,,,,333.1265810999903,333.4916621000157,334.2917120999773,334.2753007999854,,,,,,,,,,,,,,,,,,,,,,,,,,,,,,,,,,,334.2755793000106,334.2917120999773,334.2917120999773,334.7931021999684,r,1.0,0.4902807000325992,,,,,,sub-004,1,stroop_test,60.06034864336475,
,,,,90.0,6.0,7.0,,,,,,,,,,,,,blau,red,r,0.0,r,1.0,0.7586631999583915,,,,,,,,,,7.0,6.0,90.0,4.0,334.80791159998626,,,,,,,,,,,,,,,,,334.79349149996415,335.6083177999826,336.40819400001783,336.3923548000166,,,,,,,,,,,,,,,,,,,,,,,,,,,,,,,,,,,336.39483669999754,336.40819400001783,336.40819400001783,337.1761283999658,r,1.0,0.7586631999583915,,,,,,sub-004,1,stroop_test,60.06034864336475,
,,,,91.0,7.0,7.0,,,,,,,,,,,,,blau,blue,b,1.0,b,1.0,0.6105978999985382,,,,,,,,,,7.0,7.0,91.0,6.0,337.19152019999456,,,,,,,,,,,,,,,,,337.176463300013,337.5416372999898,338.34134059998905,338.3257087999955,,,,,,,,,,,,,,,,,,,,,,,,,,,,,,,,,,,338.3259896999807,338.34134059998905,338.34134059998905,338.9594572999631,b,1.0,0.6105978999985382,,,,,,sub-004,1,stroop_test,60.06034864336475,
,,,,92.0,8.0,7.0,,,,,,,,,,,,,gelb,blue,b,0.0,b,1.0,0.5059651000192389,,,,,,,,,,7.0,8.0,92.0,9.0,338.97470680001425,,,,,,,,,,,,,,,,,338.9598726999829,339.3249177999678,340.1248557000072,340.109420599998,,,,,,,,,,,,,,,,,,,,,,,,,,,,,,,,,,,340.112476099981,340.1248557000072,340.1248557000072,340.6428610999719,b,1.0,0.5059651000192389,,,,,,sub-004,1,stroop_test,60.06034864336475,
,,,,93.0,9.0,7.0,,,,,,,,,,,,,gelb,red,r,0.0,g,0.0,0.7317522999946959,,,,,,,,,,7.0,9.0,93.0,8.0,340.6579197999672,,,,,,,,,,,,,,,,,340.6432316999999,341.0081971999607,341.80805729998974,341.79222810000647,,,,,,,,,,,,,,,,,,,,,,,,,,,,,,,,,,,341.7927511999733,341.80805729998974,341.80805729998974,342.54309180000564,g,0.0,0.7317522999946959,,,,,,sub-004,1,stroop_test,60.06034864336475,
,,,,94.0,10.0,7.0,,,,,,,,,,,,,blau,blue,b,1.0,b,1.0,0.5947220000089146,,,,,,,,,,7.0,10.0,94.0,5.0,342.5580938999774,,,,,,,,,,,,,,,,,342.5434346999973,342.6580241000047,343.45804689999204,343.44238929997664,,,,,,,,,,,,,,,,,,,,,,,,,,,,,,,,,,,343.44555870001204,343.45804689999204,343.45804689999204,344.05920889996924,b,1.0,0.5947220000089146,,,,,,sub-004,1,stroop_test,60.06034864336475,
,,,,95.0,11.0,7.0,,,,,,,,,,,,,gelb,yellow,g,1.0,g,1.0,0.8662610999890603,,,,,,,,,,7.0,11.0,95.0,10.0,344.0744380999822,,,,,,,,,,,,,,,,,344.0594482999877,344.4247568999999,345.22458360000746,345.2088655999978,,,,,,,,,,,,,,,,,,,,,,,,,,,,,,,,,,,345.2114744000137,345.22458360000746,345.22458360000746,346.09251649997896,g,1.0,0.8662610999890603,,,,,,sub-004,1,stroop_test,60.06034864336475,
,,,,96.0,0.0,8.0,,,,,,,,,,,,,blau,blue,b,1.0,b,1.0,0.4046316999592818,,,,,,,,,,8.0,0.0,96.0,5.0,346.1078017000109,,,,,,,,,,,,,,,,,346.0927417000057,347.30802419997053,348.10808199999155,348.0919381999993,,,,,,,,,,,,,,,,,,,,,,,,,,,,,,,,,,,348.0938384999754,348.10808199999155,348.10808199999155,348.52618449996226,b,1.0,0.4046316999592818,,,,,,sub-004,1,stroop_test,60.06034864336475,
,,,,97.0,1.0,8.0,,,,,,,,,,,,,rot,yellow,g,0.0,g,1.0,1.042133399983868,,,,,,,,,,8.0,1.0,97.0,3.0,348.5413927999907,,,,,,,,,,,,,,,,,348.5264043000061,348.8913483999786,349.6914684000076,349.67549809999764,,,,,,,,,,,,,,,,,,,,,,,,,,,,,,,,,,,349.6782572999946,349.6914684000076,349.6914684000076,350.7427139999927,g,1.0,1.042133399983868,,,,,,sub-004,1,stroop_test,60.06034864336475,
,,,,98.0,2.0,8.0,,,,,,,,,,,,,blau,blue,b,1.0,b,1.0,0.618827800033614,,,,,,,,,,8.0,2.0,98.0,6.0,350.75799419998657,,,,,,,,,,,,,,,,,350.7430736999959,350.8579200999812,351.6579831999843,351.6421879999689,,,,,,,,,,,,,,,,,,,,,,,,,,,,,,,,,,,351.6447280999855,351.6579831999843,351.6579831999843,352.2926735999645,b,1.0,0.618827800033614,,,,,,sub-004,1,stroop_test,60.06034864336475,
,,,,99.0,3.0,8.0,,,,,,,,,,,,,rot,blue,b,0.0,b,1.0,1.2145512999850323,,,,,,,,,,8.0,3.0,99.0,2.0,352.3080231999629,,,,,,,,,,,,,,,,,352.2930039999774,353.5076444000006,354.3084700999898,354.2917035999708,,,,,,,,,,,,,,,,,,,,,,,,,,,,,,,,,,,354.293913099973,354.3084700999898,354.3084700999898,355.5253752999706,b,1.0,1.2145512999850323,,,,,,sub-004,1,stroop_test,60.06034864336475,
,,,,100.0,4.0,8.0,,,,,,,,,,,,,gelb,yellow,g,1.0,g,1.0,1.0382499999832362,,,,,,,,,,8.0,4.0,100.0,10.0,355.54125850001583,,,,,,,,,,,,,,,,,355.52560699998867,355.6249117999687,356.4245375999599,356.40895720000844,,,,,,,,,,,,,,,,,,,,,,,,,,,,,,,,,,,356.4117158000008,356.4245375999599,356.4245375999599,357.47628629999235,g,1.0,1.0382499999832362,,,,,,sub-004,1,stroop_test,60.06034864336475,
,,,,101.0,5.0,8.0,,,,,,,,,,,,,blau,red,r,0.0,b,0.0,0.65704859996913,,,,,,,,,,8.0,5.0,101.0,4.0,357.4917427999899,,,,,,,,,,,,,,,,,357.4765258000116,357.84188449999783,358.64157849998446,358.6262540000025,,,,,,,,,,,,,,,,,,,,,,,,,,,,,,,,,,,358.6289794999757,358.64157849998446,358.64157849998446,359.3094177999883,b,0.0,0.65704859996913,,,,,,sub-004,1,stroop_test,60.06034864336475,
,,,,102.0,6.0,8.0,,,,,,,,,,,,,gelb,blue,b,0.0,g,0.0,0.6083432000014,,,,,,,,,,8.0,6.0,102.0,9.0,359.32486669998616,,,,,,,,,,,,,,,,,359.309758999967,359.6747030999977,360.4745945999748,360.4591186000034,,,,,,,,,,,,,,,,,,,,,,,,,,,,,,,,,,,360.4614578000037,360.4745945999748,360.4745945999748,361.0927359999623,g,0.0,0.6083432000014,,,,,,sub-004,1,stroop_test,60.06034864336475,
,,,,103.0,7.0,8.0,,,,,,,,,,,,,rot,red,r,1.0,r,1.0,0.7760040999855846,,,,,,,,,,8.0,7.0,103.0,0.0,361.1079116999754,,,,,,,,,,,,,,,,,361.0930673999828,361.4578409999958,362.25795519998064,362.2421935999882,,,,,,,,,,,,,,,,,,,,,,,,,,,,,,,,,,,362.24513090000255,362.25795519998064,362.25795519998064,363.04301600001054,r,1.0,0.7760040999855846,,,,,,sub-004,1,stroop_test,60.06034864336475,
,,,,104.0,8.0,8.0,,,,,,,,,,,,,gelb,red,r,0.0,r,1.0,0.8254503000061959,,,,,,,,,,8.0,8.0,104.0,8.0,363.0576918000006,,,,,,,,,,,,,,,,,363.0433365000063,363.4077684999793,364.2079438999645,364.192607200006,,,,,,,,,,,,,,,,,,,,,,,,,,,,,,,,,,,364.1956911999732,364.2079438999645,364.2079438999645,365.04192029999103,r,1.0,0.8254503000061959,,,,,,sub-004,1,stroop_test,60.06034864336475,
,,,,105.0,9.0,8.0,,,,,,,,,,,,,gelb,yellow,g,1.0,g,1.0,0.889742599974852,,,,,,,,,,8.0,9.0,105.0,11.0,365.05783479998354,,,,,,,,,,,,,,,,,365.0421988000162,366.241525099962,367.04121910000686,367.0255048999679,,,,,,,,,,,,,,,,,,,,,,,,,,,,,,,,,,,367.026034199982,367.04121910000686,367.04121910000686,367.942719499988,g,1.0,0.889742599974852,,,,,,sub-004,1,stroop_test,60.06034864336475,
,,,,106.0,10.0,8.0,,,,,,,,,,,,,blau,yellow,g,0.0,g,1.0,1.6549782999791205,,,,,,,,,,8.0,10.0,106.0,7.0,367.9580079999869,,,,,,,,,,,,,,,,,367.9430624999805,369.1580763999955,369.9579664999619,369.9422539999941,,,,,,,,,,,,,,,,,,,,,,,,,,,,,,,,,,,369.94507949997205,369.9579664999619,369.9579664999619,371.6253774999641,g,1.0,1.6549782999791205,,,,,,sub-004,1,stroop_test,60.06034864336475,
,,,,107.0,11.0,8.0,,,,,,,,,,,,,rot,red,r,1.0,r,1.0,0.5121590999769978,,,,,,,,,,8.0,11.0,107.0,1.0,371.6411933999625,,,,,,,,,,,,,,,,,371.62568449997343,371.9744815999875,372.7744845999987,372.758093499986,,,,,,,,,,,,,,,,,,,,,,,,,,,,,,,,,,,372.7605080999783,372.7744845999987,372.7744845999987,373.2925681999768,r,1.0,0.5121590999769978,,,,,,sub-004,1,stroop_test,60.06034864336475,
,,,,108.0,0.0,9.0,,,,,,,,,,,,,rot,red,r,1.0,r,1.0,0.4497669999836944,,,,,,,,,,9.0,0.0,108.0,1.0,373.30780810001306,,,,,,,,,,,,,,,,,373.2929022000171,374.107871300017,374.9077120000147,374.8919838999864,,,,,,,,,,,,,,,,,,,,,,,,,,,,,,,,,,,374.8925405999762,374.9077120000147,374.9077120000147,375.3601743999752,r,1.0,0.4497669999836944,,,,,,sub-004,1,stroop_test,60.06034864336475,
,,,,109.0,1.0,9.0,,,,,,,,,,,,,gelb,yellow,g,1.0,g,1.0,0.5476282999734394,,,,,,,,,,9.0,1.0,109.0,11.0,375.37439469998935,,,,,,,,,,,,,,,,,375.360501499963,376.5744218999753,377.3744104999933,377.3586070999736,,,,,,,,,,,,,,,,,,,,,,,,,,,,,,,,,,,377.3618915000116,377.3744104999933,377.3744104999933,377.9259119000053,g,1.0,0.5476282999734394,,,,,,sub-004,1,stroop_test,60.06034864336475,
,,,,110.0,2.0,9.0,,,,,,,,,,,,,blau,blue,b,1.0,b,1.0,0.7962783999973908,,,,,,,,,,9.0,2.0,110.0,5.0,377.9411331000156,,,,,,,,,,,,,,,,,377.9262358999695,378.2911135999602,379.09106199996313,379.07557380001526,,,,,,,,,,,,,,,,,,,,,,,,,,,,,,,,,,,379.0784058999852,379.09106199996313,379.09106199996313,379.89230449998286,b,1.0,0.7962783999973908,,,,,,sub-004,1,stroop_test,60.06034864336475,
,,,,111.0,3.0,9.0,,,,,,,,,,,,,gelb,yellow,g,1.0,g,1.0,0.5844255000120029,,,,,,,,,,9.0,3.0,111.0,10.0,379.9078351999633,,,,,,,,,,,,,,,,,379.8926010999712,380.257492100005,381.0577456000028,381.04200000001583,,,,,,,,,,,,,,,,,,,,,,,,,,,,,,,,,,,381.045394100016,381.0577456000028,381.0577456000028,381.658986399998,g,1.0,0.5844255000120029,,,,,,sub-004,1,stroop_test,60.06034864336475,
,,,,112.0,4.0,9.0,,,,,,,,,,,,,rot,red,r,1.0,r,1.0,0.5885519000003114,,,,,,,,,,9.0,4.0,112.0,0.0,381.6743300000089,,,,,,,,,,,,,,,,,381.6593874999671,381.7743448999827,382.5745286999736,382.5584650000092,,,,,,,,,,,,,,,,,,,,,,,,,,,,,,,,,,,382.5613936000154,382.5745286999736,382.5745286999736,383.17578469996806,r,1.0,0.5885519000003114,,,,,,sub-004,1,stroop_test,60.06034864336475,
,,,,113.0,5.0,9.0,,,,,,,,,,,,,rot,yellow,g,0.0,g,1.0,0.9231037000427024,,,,,,,,,,9.0,5.0,113.0,3.0,383.1909780999995,,,,,,,,,,,,,,,,,383.1761275999597,383.2911585000111,384.09138170001097,384.0755098999944,,,,,,,,,,,,,,,,,,,,,,,,,,,,,,,,,,,384.0759956999682,384.09138170001097,384.09138170001097,385.0259774000151,g,1.0,0.9231037000427024,,,,,,sub-004,1,stroop_test,60.06034864336475,
,,,,114.0,6.0,9.0,,,,,,,,,,,,,rot,blue,b,0.0,b,1.0,1.217260399949737,,,,,,,,,,9.0,6.0,114.0,2.0,385.0409689999651,,,,,,,,,,,,,,,,,385.0263190999976,385.8406581999734,386.6408526999876,386.6248915999895,,,,,,,,,,,,,,,,,,,,,,,,,,,,,,,,,,,386.6253350999905,386.6408526999876,386.6408526999876,387.87531139998464,b,1.0,1.217260399949737,,,,,,sub-004,1,stroop_test,60.06034864336475,
,,,,115.0,7.0,9.0,,,,,,,,,,,,,blau,yellow,g,0.0,g,1.0,1.5882240000064485,,,,,,,,,,9.0,7.0,115.0,7.0,387.89132419996895,,,,,,,,,,,,,,,,,387.8755021999823,389.0745104000089,389.87452770001255,389.85818909999216,,,,,,,,,,,,,,,,,,,,,,,,,,,,,,,,,,,389.8592684000032,389.87452770001255,389.87452770001255,391.4750575000071,g,1.0,1.5882240000064485,,,,,,sub-004,1,stroop_test,60.06034864336475,
,,,,116.0,8.0,9.0,,,,,,,,,,,,,gelb,red,r,0.0,r,1.0,1.1178200999856929,,,,,,,,,,9.0,8.0,116.0,8.0,391.4909078999772,,,,,,,,,,,,,,,,,391.47527799999807,392.67469209997216,393.4744722999749,393.4590779999853,,,,,,,,,,,,,,,,,,,,,,,,,,,,,,,,,,,393.4619646999636,393.4744722999749,393.4744722999749,394.6090536999982,r,1.0,1.1178200999856929,,,,,,sub-004,1,stroop_test,60.06034864336475,
,,,,117.0,9.0,9.0,,,,,,,,,,,,,blau,red,r,0.0,r,1.0,0.4051793999969959,,,,,,,,,,9.0,9.0,117.0,4.0,394.6243965000031,,,,,,,,,,,,,,,,,394.6093996000127,395.82438730000285,396.6244365000166,396.6088422999601,,,,,,,,,,,,,,,,,,,,,,,,,,,,,,,,,,,396.6127235000022,396.6244365000166,396.6244365000166,397.04216010001255,r,1.0,0.4051793999969959,,,,,,sub-004,1,stroop_test,60.06034864336475,
,,,,118.0,10.0,9.0,,,,,,,,,,,,,gelb,blue,b,0.0,b,1.0,0.7863918999792077,,,,,,,,,,9.0,10.0,118.0,9.0,397.0575715000159,,,,,,,,,,,,,,,,,397.0425244999933,397.4077621999895,398.2075362000032,398.19146820000606,,,,,,,,,,,,,,,,,,,,,,,,,,,,,,,,,,,398.19315870001446,398.2075362000032,398.2075362000032,399.0093844999792,b,1.0,0.7863918999792077,,,,,,sub-004,1,stroop_test,60.06034864336475,
,,,,119.0,11.0,9.0,,,,,,,,,,,,,blau,blue,b,1.0,b,1.0,0.7706491000135429,,,,,,,,,,9.0,11.0,119.0,6.0,399.0243818999734,,,,,,,,,,,,,,,,,399.0097194999689,400.2242694000015,401.0244046999724,401.0082066999748,,,,,,,,,,,,,,,,,,,,,,,,,,,,,,,,,,,401.0103460999672,401.0244046999724,401.0244046999724,401.80847589997575,b,1.0,0.7706491000135429,,,,,,sub-004,1,stroop_test,60.06034864336475,
,,,,,,,,,,,,,,,,,,,,,,,,,,,,,,,,,,,,,,,,,,,,,,,,,,,,,,,,,,,,,,,,,,,,,,,,,,,,,,,,,,,,,,,,,,,,,,,,,,,,,,401.808625900012,401.82428299996536,406.8244484000024,406.8081141000148,sub-004,1,stroop_test,60.06034864336475,
