direction,corrAns,thisN,thisTrialN,thisRepN,respDots.keys,respDots.corr,respDots.rt,respDots.duration,randomInstr,respRandomInstr.keys,respRandomInstr.rt,respRandomInstr.duration,practice_trials.thisRepN,practice_trials.thisTrialN,practice_trials.thisN,practice_trials.thisIndex,instr_trials.thisRepN,instr_trials.thisTrialN,instr_trials.thisN,instr_trials.thisIndex,test_trials.thisRepN,test_trials.thisTrialN,test_trials.thisN,test_trials.thisIndex,thisRow.t,notes,general_instruction.started,textGeneralInstr.started,respGeneralInstr.started,general_instruction.stopped,respGeneralInstr.keys,respGeneralInstr.rt,respGeneralInstr.duration,ITI.started,fixcross.started,fixcross.stopped,ITI.stopped,dots.started,backgroundDots.started,stimulusDots.started,respDots.started,dots.stopped,practice_trials.respDots.keys,practice_trials.respDots.corr,practice_trials.respDots.rt,practice_trials.respDots.duration,feedback.started,textFeedback.started,feedback.stopped,textFeedback.stopped,info.started,textInfo.started,keyRespInfo.started,info.stopped,keyRespInfo.keys,keyRespInfo.rt,keyRespInfo.duration,test_instruction.started,textTestInstr.started,respTestInstr.started,test_instruction.stopped,respTestInstr.keys,respTestInstr.rt,respTestInstr.duration,random_instruction.started,textRandomInstr.started,respRandomInstr.started,random_instruction.stopped,instr_trials.respRandomInstr.keys,instr_trials.respRandomInstr.rt,instr_trials.respRandomInstr.duration,test_trials.respDots.keys,test_trials.respDots.corr,test_trials.respDots.rt,test_trials.respDots.duration,stimulusDots.stopped,goodbye.started,textGoodbye.started,goodbye.stopped,participant,session,expName,frameRate,Unnamed: 87
,,,,,,,,,,,,,,,,,,,,,,,,,,,0.0074821249982051,0.0156156250013737,0.0156156250013737,2.2211469159992703,space,2.104944124999747,,,,,,,,,,,,,,,,,,,,,,,,,,,,,,,,,,,,,,,,,,,,,,,,sub-155,1,random_dot,,
left,left,0.0,0.0,0.0,right,0.0,4.821117125000455,,,,,,0.0,0.0,0.0,0.0,,,,,,,,,2.260924165999313,,,,,,,,,2.2330949999995937,2.3203085829991323,3.1263414999993984,3.110777041001711,3.1114120409984025,3.1263414999993984,3.1263414999993984,3.1263414999993984,7.952209750001202,right,0.0,4.821117125000455,,7.962574958000914,7.976223958001356,8.460427082998649,,,,,,,,,,,,,,,,,,,,,,,,,,,,,,,sub-155,1,random_dot,,
right,right,1.0,1.0,0.0,left,0.0,0.3988864999992074,,,,,,0.0,1.0,1.0,1.0,,,,,,,,,8.466449540999747,,,,,,,,,8.460914040999342,9.250470625000162,10.052461457999016,10.043908832998568,10.044428000001062,10.052461457999016,10.052461457999016,10.052461457999016,10.45258924999871,left,0.0,0.3988864999992074,,10.45272520800063,10.459362249999684,10.943657457999509,10.94955820800169,,,,,,,,,,,,,,,,,,,,,,,,,,,,,,sub-155,1,random_dot,,
left,left,2.0,0.0,1.0,right,0.0,0.5758942920001573,,,,,,1.0,0.0,2.0,0.0,,,,,,,,,10.94955820800169,,,,,,,,,10.94412525000007,12.150152750000416,12.942396957998426,12.93312750000041,12.933568707998347,12.942396957998426,12.942396957998426,12.942396957998426,13.527807333000965,right,0.0,0.5758942920001573,,13.52802658300061,13.550254416000826,14.033261749998928,,,,,,,,,,,,,,,,,,,,,,,,,,,,,,,sub-155,1,random_dot,,
right,right,3.0,1.0,1.0,left,0.0,0.2407228339980065,,,,,,1.0,1.0,3.0,1.0,,,,,,,,,14.043752041001426,,,,,,,,,14.033634874998825,14.11688579100155,14.909492833001424,14.89999487499881,14.90038741600074,14.909492833001424,14.909492833001424,14.909492833001424,15.151754499998788,left,0.0,0.2407228339980065,,15.151888249998592,15.15918608300126,15.644028375001652,15.649998665998282,,,,,,,,,,,,,,,,,,,,,,,,,,,,,,sub-155,1,random_dot,,
right,right,4.0,0.0,2.0,right,1.0,0.1806531669972173,,,,,,2.0,0.0,4.0,1.0,,,,,,,,,15.649998665998282,,,,,,,,,15.644467082998744,15.749852916000236,16.542539624999336,16.533499124998343,16.53388891600116,16.542539624999336,16.542539624999336,16.542539624999336,16.728210375000344,right,1.0,0.1806531669972173,,16.735437208000803,16.744541249998292,17.227371665998362,17.233238875000097,,,,,,,,,,,,,,,,,,,,,,,,,,,,,,sub-155,1,random_dot,,
left,left,5.0,1.0,2.0,right,0.0,0.2028295419986534,,,,,,2.0,1.0,5.0,0.0,,,,,,,,,17.233238875000097,,,,,,,,,17.22775291599828,17.327261999998882,18.11936145800064,18.110765416000504,18.111311415999808,18.11936145800064,18.11936145800064,18.11936145800064,18.328718500000832,right,0.0,0.2028295419986534,,18.332508999999845,18.342134665999765,18.82732579100048,18.83339625000008,,,,,,,,,,,,,,,,,,,,,,,,,,,,,,sub-155,1,random_dot,,
right,right,6.0,0.0,3.0,right,1.0,0.0497962500012363,,,,,,3.0,0.0,6.0,1.0,,,,,,,,,18.83339625000008,,,,,,,,,18.82778862499981,19.17714504100149,19.969390957998257,19.9607134580001,19.961227374999,19.969390957998257,19.969390957998257,19.969390957998257,20.028576749999047,right,1.0,0.0497962500012363,,20.03670549999879,20.045862625000154,20.53336762500112,,,,,,,,,,,,,,,,,,,,,,,,,,,,,,,sub-155,1,random_dot,,
left,left,7.0,1.0,3.0,right,0.0,0.3237282919981226,,,,,,3.0,1.0,7.0,0.0,,,,,,,,,20.54373916600161,,,,,,,,,20.53372495800068,21.72722895799961,22.5193634999996,22.51073183300105,22.511249625000342,22.5193634999996,22.5193634999996,22.5193634999996,22.84526412500054,right,0.0,0.3237282919981226,,22.850019082998188,22.85951008299889,23.344061332998532,23.34997666599884,,,,,,,,,,,,,,,,,,,,,,,,,,,,,,sub-155,1,random_dot,,
right,right,8.0,0.0,4.0,right,1.0,0.6380237080011284,,,,,,4.0,0.0,8.0,1.0,,,,,,,,,23.34997666599884,,,,,,,,,23.344527000001108,24.143846250000934,24.936001499998383,24.92737654099983,24.92788937500154,24.936001499998383,24.936001499998383,24.936001499998383,25.577064500001143,right,1.0,0.6380237080011284,,25.5812087910017,25.59052741599953,26.07754337499864,,,,,,,,,,,,,,,,,,,,,,,,,,,,,,,sub-155,1,random_dot,,
left,left,9.0,1.0,4.0,right,0.0,1.425666041999648,,,,,,4.0,1.0,9.0,0.0,,,,,,,,,26.08311799999865,,,,,,,,,26.077883375000965,27.26689587500005,28.059255457999825,28.04992808300085,28.050476000000344,28.059255457999825,28.059255457999825,28.059255457999825,29.493933541001752,right,0.0,1.425666041999648,,29.497251207998488,29.506273915998463,29.994143415999133,30.00024191600096,,,,,,,,,,,,,,,,,,,,,,,,,,,,,,sub-155,1,random_dot,,
left,left,10.0,0.0,5.0,left,1.0,0.8190539170027478,,,,,,5.0,0.0,10.0,0.0,,,,,,,,,30.00024191600096,,,,,,,,,29.99458754100124,30.78287254099996,31.57588675000079,31.566924124999787,31.56734858300115,31.57588675000079,31.57588675000079,31.57588675000079,32.40175937499953,left,1.0,0.8190539170027478,,32.40512108300027,32.41579733300023,32.89865112500047,32.91041916600079,,,,,,,,,,,,,,,,,,,,,,,,,,,,,,sub-155,1,random_dot,,
right,right,11.0,1.0,5.0,right,1.0,1.79852312499861,,,,,,5.0,1.0,11.0,1.0,,,,,,,,,32.91041916600079,,,,,,,,,32.89895012499983,32.99971116600136,33.792430624998815,33.78331970799991,33.78370741600156,33.792430624998815,33.792430624998815,33.792430624998815,35.59491508299834,right,1.0,1.79852312499861,,35.595092208001006,35.60426308300157,36.09427125000002,36.10035329099992,,,,,,,,,,,,,,,,,,,,,,,,,,,,,,sub-155,1,random_dot,,
left,left,12.0,0.0,6.0,right,0.0,1.4962111659988295,,,,,,6.0,0.0,12.0,0.0,,,,,,,,,36.10035329099992,,,,,,,,,36.09471866600143,37.293844541,38.0855218329998,38.077577083000506,38.077990458001295,38.0855218329998,38.0855218329998,38.0855218329998,39.58563924999908,right,0.0,1.4962111659988295,,39.589277957999,39.59996200000023,40.08404412500022,40.09394612499818,,,,,,,,,,,,,,,,,,,,,,,,,,,,,,sub-155,1,random_dot,,
right,right,13.0,1.0,6.0,right,1.0,1.377802167000482,,,,,,6.0,1.0,13.0,1.0,,,,,,,,,40.09394612499818,,,,,,,,,40.08449499999915,40.8835482909999,41.675866207999206,41.666996500000096,41.66740258299978,41.675866207999206,41.675866207999206,41.675866207999206,43.06165054099984,right,1.0,1.377802167000482,,43.06600212500052,43.07535416600149,43.56065954099904,43.566214875001606,,,,,,,,,,,,,,,,,,,,,,,,,,,,,,sub-155,1,random_dot,,
left,left,14.0,0.0,7.0,right,0.0,1.671763665999606,,,,,,7.0,0.0,14.0,0.0,,,,,,,,,43.566214875001606,,,,,,,,,43.56099937500039,43.660340457998245,44.45185270799993,44.44398962500054,44.44438962500135,44.45185270799993,44.45185270799993,44.45185270799993,46.12724125000023,right,0.0,1.671763665999606,,46.1314120829993,46.14065391600161,46.62749641600021,46.63345008300166,,,,,,,,,,,,,,,,,,,,,,,,,,,,,,sub-155,1,random_dot,,
right,right,15.0,1.0,7.0,right,1.0,1.0264104579982811,,,,,,7.0,1.0,15.0,1.0,,,,,,,,,46.63345008300166,,,,,,,,,46.62792999999874,47.41694337499939,48.20919054100159,48.20015150000109,48.20055112499904,48.20919054100159,48.20919054100159,48.20919054100159,49.24462712500099,right,1.0,1.0264104579982811,,49.24866104100147,49.257707541000855,49.744109874998685,49.749612540999806,,,,,,,,,,,,,,,,,,,,,,,,,,,,,,sub-155,1,random_dot,,
right,right,16.0,0.0,8.0,left,0.0,0.5546097499973257,,,,,,8.0,0.0,16.0,1.0,,,,,,,,,49.749612540999806,,,,,,,,,49.74445262500012,50.93383395799901,51.72586550000051,51.71655912500137,51.71699241600072,51.72586550000051,51.72586550000051,51.72586550000051,52.285420708001766,left,0.0,0.5546097499973257,,52.28908345799937,52.29983683300088,52.783119040999736,52.79382949999854,,,,,,,,,,,,,,,,,,,,,,,,,,,,,,sub-155,1,random_dot,,
left,left,17.0,1.0,8.0,right,0.0,0.9853104169997096,,,,,,8.0,1.0,17.0,0.0,,,,,,,,,52.79382949999854,,,,,,,,,52.78348195799845,53.13268816599884,53.92714591600088,53.915476999998646,53.91590908299986,53.92714591600088,53.92714591600088,53.92714591600088,54.918423999999504,right,0.0,0.9853104169997096,,54.91857704100039,54.94311195800037,55.42742495800121,,,,,,,,,,,,,,,,,,,,,,,,,,,,,,,sub-155,1,random_dot,,
left,left,18.0,0.0,9.0,right,0.0,1.1219645000019227,,,,,,9.0,0.0,18.0,0.0,,,,,,,,,55.43365987500147,,,,,,,,,55.427921999998944,56.61703312499958,57.40936058299849,57.40005329099949,57.40056216599987,57.40936058299849,57.40936058299849,57.40936058299849,58.5354582910004,right,0.0,1.1219645000019227,,58.53568291600095,58.54551820800043,59.03359483299937,59.04386108299877,,,,,,,,,,,,,,,,,,,,,,,,,,,,,,sub-155,1,random_dot,,
right,right,19.0,1.0,9.0,right,1.0,1.8682733749992624,,,,,,9.0,1.0,19.0,1.0,,,,,,,,,59.04386108299877,,,,,,,,,59.03393166599926,59.13352450000093,59.925966625,59.91650049999953,59.91692958299973,59.925966625,59.925966625,59.925966625,61.80269795799904,right,1.0,1.8682733749992624,,61.80619933300113,61.81644754100125,62.30047199999899,62.30928466600017,,,,,,,,,,,,,,,,,,,,,,,,,,,,,,sub-155,1,random_dot,,
,,,,,,,,,,,,,,,,,,,,,,,,,,,,,,,,,,,,,,,,,,,,,,,,,,,62.300609041001735,62.30928466600017,62.30928466600017,67.01785808299974,space,4.703928832997917,,,,,,,,,,,,,,,,,,,,,,,,sub-155,1,random_dot,,
,,,,,,,,,,,,,,,,,,,,,,,,,,,,,,,,,,,,,,,,,,,,,,,,,,,,,,,,,,67.0179919580005,67.03017249999903,67.03017249999903,71.03502600000138,space,3.997987375001685,,,,,,,,,,,,,,,,,sub-155,1,random_dot,,
left,left,0.0,0.0,0.0,left,1.0,1.1614302919988404,,accuracy,space,3.1225871669994376,,,,,,0.0,0.0,0.0,0.0,0.0,0.0,0.0,0.0,74.21392241599824,,,,,,,,,74.20504429100038,75.39385445800144,76.1856103329992,76.1773959159982,76.17784775000109,76.1856103329992,76.1856103329992,76.1856103329992,77.35198062500058,,,,,,,,,,,,,,,,,,,,,,,71.05662729100004,71.06546554099987,71.06546554099987,74.19581008300156,space,3.1225871669994376,,left,1.0,1.1614302919988404,,,,,,sub-155,1,random_dot,,
right,right,1.0,1.0,0.0,right,1.0,1.864285666997603,,accuracy,space,3.1225871669994376,,,,,,0.0,0.0,0.0,0.0,0.0,1.0,1.0,1.0,77.3768550829991,,,,,,,,,77.35257866599932,78.15036662499915,78.94262187500135,78.93332383300003,78.93371795799976,78.94262187500135,78.94262187500135,78.94262187500135,80.81084983300025,,,,,,,,,,,,,,,,,,,,,,,,,,,,,,right,1.0,1.864285666997603,,,,,,sub-155,1,random_dot,,
left,left,2.0,0.0,1.0,left,1.0,2.760300375000952,,accuracy,space,3.1225871669994376,,,,,,0.0,0.0,0.0,0.0,1.0,0.0,2.0,0.0,80.8170495000013,,,,,,,,,80.81146866600102,82.00017987500178,82.79274224999972,82.7834287500009,82.78393774999859,82.79274224999972,82.79274224999972,82.79274224999972,85.56235274999926,,,,,,,,,,,,,,,,,,,,,,,,,,,,,,left,1.0,2.760300375000952,,,,,,sub-155,1,random_dot,,
right,right,3.0,1.0,1.0,right,1.0,0.8611304160003783,,accuracy,space,3.1225871669994376,,,,,,0.0,0.0,0.0,0.0,1.0,1.0,3.0,1.0,85.5714159579984,,,,,,,,,85.56298287499885,86.76049583300119,87.55287791600131,87.54428220800037,87.54483275000166,87.55287791600131,87.55287791600131,87.55287791600131,88.42004170799919,,,,,,,,,,,,,,,,,,,,,,,,,,,,,,right,1.0,0.8611304160003783,,,,,,sub-155,1,random_dot,,
left,left,4.0,0.0,2.0,left,1.0,0.722626874998241,,accuracy,space,3.1225871669994376,,,,,,0.0,0.0,0.0,0.0,2.0,0.0,4.0,0.0,88.4294152500006,,,,,,,,,88.42061716600074,88.76697974999843,89.55930504099888,89.55017262500041,89.55056945799879,89.55930504099888,89.55930504099888,89.55930504099888,90.28509433300133,,,,,,,,,,,,,,,,,,,,,,,,,,,,,,left,1.0,0.722626874998241,,,,,,sub-155,1,random_dot,,
right,right,5.0,1.0,2.0,left,0.0,1.7638471249993015,,accuracy,space,3.1225871669994376,,,,,,0.0,0.0,0.0,0.0,2.0,1.0,5.0,1.0,90.2944066659984,,,,,,,,,90.28555516599954,91.08350537500156,91.87600066600136,91.86693166600162,91.86732833299902,91.87600066600136,91.87600066600136,91.87600066600136,93.64429079099864,,,,,,,,,,,,,,,,,,,,,,,,,,,,,,left,0.0,1.7638471249993015,,,,,,sub-155,1,random_dot,,
left,left,6.0,0.0,3.0,left,1.0,1.8533309170015853,,accuracy,space,3.1225871669994376,,,,,,0.0,0.0,0.0,0.0,3.0,0.0,6.0,0.0,93.6539162500012,,,,,,,,,93.6450592910005,94.8338196250006,95.63545199999862,95.62745545800136,95.62790845799827,95.63545199999862,95.63545199999862,95.63545199999862,97.49558408300072,,,,,,,,,,,,,,,,,,,,,,,,,,,,,,left,1.0,1.8533309170015853,,,,,,sub-155,1,random_dot,,
right,right,7.0,1.0,3.0,right,1.0,2.436368667000352,,accuracy,space,3.1225871669994376,,,,,,0.0,0.0,0.0,0.0,3.0,1.0,7.0,1.0,97.50483741599965,,,,,,,,,97.49632375000148,98.2939851250012,99.08633545799968,99.07783008299884,99.07827158299916,99.08633545799968,99.08633545799968,99.08633545799968,101.52887016599924,,,,,,,,,,,,,,,,,,,,,,,,,,,,,,right,1.0,2.436368667000352,,,,,,sub-155,1,random_dot,,
left,left,8.0,0.0,4.0,right,0.0,1.854637291002291,,accuracy,space,3.1225871669994376,,,,,,0.0,0.0,0.0,0.0,4.0,0.0,8.0,0.0,101.5380899160009,,,,,,,,,101.5296589999998,101.87720500000069,102.66956745800051,102.66092137500164,102.66148195799906,102.66956745800051,102.66956745800051,102.66956745800051,104.52849725000124,,,,,,,,,,,,,,,,,,,,,,,,,,,,,,right,0.0,1.854637291002291,,,,,,sub-155,1,random_dot,,
right,right,9.0,1.0,4.0,left,0.0,2.245958208000957,,accuracy,space,3.1225871669994376,,,,,,0.0,0.0,0.0,0.0,4.0,1.0,9.0,1.0,104.53788954099946,,,,,,,,,104.52926391599976,104.62751933300024,105.41961475000062,105.41094225000052,105.411496875,105.41961475000062,105.41961475000062,105.41961475000062,107.66949954099982,,,,,,,,,,,,,,,,,,,,,,,,,,,,,,left,0.0,2.245958208000957,,,,,,sub-155,1,random_dot,,
right,right,10.0,0.0,5.0,left,0.0,1.4937303330007126,,accuracy,space,3.1225871669994376,,,,,,0.0,0.0,0.0,0.0,5.0,0.0,10.0,1.0,107.67888208300064,,,,,,,,,107.67001391599842,108.46711549999964,109.25980012500077,109.25042858300004,109.2509385830017,109.25980012500077,109.25980012500077,109.25980012500077,110.76248370800022,,,,,,,,,,,,,,,,,,,,,,,,,,,,,,left,0.0,1.4937303330007126,,,,,,sub-155,1,random_dot,,
left,left,11.0,1.0,5.0,left,1.0,0.8473543339969183,,accuracy,space,3.1225871669994376,,,,,,0.0,0.0,0.0,0.0,5.0,1.0,11.0,0.0,110.77157204100148,,,,,,,,,110.76316512500124,111.96076437499867,112.76011083299818,112.74994375000097,112.75030975000118,112.76011083299818,112.76011083299818,112.76011083299818,113.61077729099998,,,,,,,,,,,,,,,,,,,,,,,,,,,,,,left,1.0,0.8473543339969183,,,,,,sub-155,1,random_dot,,
left,left,12.0,0.0,6.0,right,0.0,1.786587958002201,,accuracy,space,3.1225871669994376,,,,,,0.0,0.0,0.0,0.0,6.0,0.0,12.0,0.0,113.61735804099952,,,,,,,,,113.61157795799954,114.80042654099816,115.59281708300114,115.58370058299988,115.5841188330014,115.59281708300114,115.59281708300114,115.59281708300114,117.38537679100044,,,,,,,,,,,,,,,,,,,,,,,,,,,,,,right,0.0,1.786587958002201,,,,,,sub-155,1,random_dot,,
right,right,13.0,1.0,6.0,right,1.0,0.9881975839998632,,accuracy,space,3.1225871669994376,,,,,,0.0,0.0,0.0,0.0,6.0,1.0,13.0,1.0,117.39496279100058,,,,,,,,,117.38597704100177,118.58379120799871,119.37612891599927,119.36717545799912,119.36756645800052,119.37612891599927,119.37612891599927,119.37612891599927,120.36936074999905,,,,,,,,,,,,,,,,,,,,,,,,,,,,,,right,1.0,0.9881975839998632,,,,,,sub-155,1,random_dot,,
left,left,14.0,0.0,7.0,left,1.0,1.4425972499993804,,accuracy,space,3.1225871669994376,,,,,,0.0,0.0,0.0,0.0,7.0,0.0,14.0,0.0,120.37914545799867,,,,,,,,,120.36995779100108,121.16724737500044,121.96064750000004,121.94999112499865,121.95039470800111,121.96064750000004,121.96064750000004,121.96064750000004,123.41112900000007,,,,,,,,,,,,,,,,,,,,,,,,,,,,,,left,1.0,1.4425972499993804,,,,,,sub-155,1,random_dot,,
right,right,15.0,1.0,7.0,right,1.0,0.941841583000496,,accuracy,space,3.1225871669994376,,,,,,0.0,0.0,0.0,0.0,7.0,1.0,15.0,1.0,123.42042229100116,,,,,,,,,123.41166062499906,123.50143616599962,124.3033374580009,124.29450124999858,124.29505666600016,124.3033374580009,124.3033374580009,124.3033374580009,125.26209499999824,,,,,,,,,,,,,,,,,,,,,,,,,,,,,,right,1.0,0.941841583000496,,,,,,sub-155,1,random_dot,,
right,right,16.0,0.0,8.0,left,0.0,0.7147724580026988,,accuracy,space,3.1225871669994376,,,,,,0.0,0.0,0.0,0.0,8.0,0.0,16.0,1.0,125.27737087499918,,,,,,,,,125.2624747080008,125.36071666600036,126.15339341599974,126.14445508299832,126.14504274999854,126.15339341599974,126.15339341599974,126.15339341599974,126.86974912499863,,,,,,,,,,,,,,,,,,,,,,,,,,,,,,left,0.0,0.7147724580026988,,,,,,sub-155,1,random_dot,,
left,left,17.0,1.0,8.0,right,0.0,2.75073437500032,,accuracy,space,3.1225871669994376,,,,,,0.0,0.0,0.0,0.0,8.0,1.0,17.0,0.0,126.87651512500088,,,,,,,,,126.87020591599868,126.97057716600102,127.76947300000027,127.7611037909992,127.76165250000122,127.76947300000027,127.76947300000027,127.76947300000027,130.5274813750002,,,,,,,,,,,,,,,,,,,,,,,,,,,,,,right,0.0,2.75073437500032,,,,,,sub-155,1,random_dot,,
left,left,18.0,0.0,9.0,left,1.0,0.9174377500021365,,accuracy,space,3.1225871669994376,,,,,,0.0,0.0,0.0,0.0,9.0,0.0,18.0,0.0,130.53675883300093,,,,,,,,,130.52808666599958,131.31759508300092,132.10960799999884,132.10033599999952,132.10075425000105,132.10960799999884,132.10960799999884,132.10960799999884,133.03563679099898,,,,,,,,,,,,,,,,,,,,,,,,,,,,,,left,1.0,0.9174377500021365,,,,,,sub-155,1,random_dot,,
right,right,19.0,1.0,9.0,right,1.0,1.0689501669985475,,accuracy,space,3.1225871669994376,,,,,,0.0,0.0,0.0,0.0,9.0,1.0,19.0,1.0,133.0604134999994,,,,,,,,,133.0361782910004,133.13415695799995,133.92615391599975,133.91714745799982,133.9175380000015,133.92615391599975,133.92615391599975,133.92615391599975,135.0016501249993,,,,,,,,,,,,,,,,,,,,,,,,,,,,,,right,1.0,1.0689501669985475,,,,,,sub-155,1,random_dot,,
right,right,20.0,0.0,10.0,left,0.0,5.169667666999885,,accuracy,space,3.1225871669994376,,,,,,0.0,0.0,0.0,0.0,10.0,0.0,20.0,1.0,135.01100004099862,,,,,,,,,135.00209970799915,135.35056133300168,136.14317820799988,136.1340170000003,136.13458383300167,136.14317820799988,136.14317820799988,136.14317820799988,141.3186235409994,,,,,,,,,,,,,,,,,,,,,,,,,,,,,,left,0.0,5.169667666999885,,141.12650066599963,,,,sub-155,1,random_dot,,
left,left,21.0,1.0,10.0,left,1.0,0.8871710829989752,,accuracy,space,3.1225871669994376,,,,,,0.0,0.0,0.0,0.0,10.0,1.0,21.0,0.0,141.3281398750005,,,,,,,,,141.3192342910006,141.6665905000009,142.45961395799895,142.45048662499903,142.45088666599986,142.45961395799895,142.45961395799895,142.45961395799895,143.35169104099987,,,,,,,,,,,,,,,,,,,,,,,,,,,,,,left,1.0,0.8871710829989752,,,,,,sub-155,1,random_dot,,
left,left,22.0,0.0,11.0,left,1.0,1.951854833001562,,accuracy,space,3.1225871669994376,,,,,,0.0,0.0,0.0,0.0,11.0,0.0,22.0,0.0,143.36085512499994,,,,,,,,,143.35214779099988,143.45039141600137,144.2428767499987,144.23361179100175,144.23403787500138,144.2428767499987,144.2428767499987,144.2428767499987,146.20203100000072,,,,,,,,,,,,,,,,,,,,,,,,,,,,,,left,1.0,1.951854833001562,,,,,,sub-155,1,random_dot,,
right,right,23.0,1.0,11.0,left,0.0,0.8105487079992599,,accuracy,space,3.1225871669994376,,,,,,0.0,0.0,0.0,0.0,11.0,1.0,23.0,1.0,146.2272900829994,,,,,,,,,146.20262258300136,147.00067408299947,147.7930740410011,147.78368845799923,147.78408608300015,147.7930740410011,147.7930740410011,147.7930740410011,148.61230983299902,,,,,,,,,,,,,,,,,,,,,,,,,,,,,,left,0.0,0.8105487079992599,,,,,,sub-155,1,random_dot,,
left,left,24.0,0.0,12.0,right,0.0,1.6964478750014678,,accuracy,space,3.1225871669994376,,,,,,0.0,0.0,0.0,0.0,12.0,0.0,24.0,0.0,148.62133158299912,,,,,,,,,148.61290124999869,149.8109415830004,150.60310091599968,150.59445937499913,150.5950313329995,150.60310091599968,150.60310091599968,150.60310091599968,152.3031858329996,,,,,,,,,,,,,,,,,,,,,,,,,,,,,,right,0.0,1.6964478750014678,,,,,,sub-155,1,random_dot,,
right,right,25.0,1.0,12.0,right,1.0,1.6335216670013324,,accuracy,space,3.1225871669994376,,,,,,0.0,0.0,0.0,0.0,12.0,1.0,25.0,1.0,152.31269187499856,,,,,,,,,152.30364891600038,152.6506289579993,153.4429166250011,153.43383812500178,153.4342274160008,153.4429166250011,153.4429166250011,153.4429166250011,155.07815050000136,,,,,,,,,,,,,,,,,,,,,,,,,,,,,,right,1.0,1.6335216670013324,,,,,,sub-155,1,random_dot,,
left,left,26.0,0.0,13.0,left,1.0,1.7598475830018288,,accuracy,space,3.1225871669994376,,,,,,0.0,0.0,0.0,0.0,13.0,0.0,26.0,0.0,155.08466358299847,,,,,,,,,155.0788839579982,155.4170916660005,156.2096249999995,156.20054266599982,156.2009465830015,156.2096249999995,156.2096249999995,156.2096249999995,157.97808854100003,,,,,,,,,,,,,,,,,,,,,,,,,,,,,,left,1.0,1.7598475830018288,,,,,,sub-155,1,random_dot,,
right,right,27.0,1.0,13.0,right,1.0,3.0925721249986964,,accuracy,space,3.1225871669994376,,,,,,0.0,0.0,0.0,0.0,13.0,1.0,27.0,1.0,157.98754254099913,,,,,,,,,157.9788689579982,159.16675699999905,159.96035154100173,159.95016987499912,159.9505667500016,159.96035154100173,159.96035154100173,159.96035154100173,163.0623123330006,,,,,,,,,,,,,,,,,,,,,,,,,,,,,,right,1.0,3.0925721249986964,,,,,,sub-155,1,random_dot,,
right,right,28.0,0.0,14.0,left,0.0,1.2664597090006282,,accuracy,space,3.1225871669994376,,,,,,0.0,0.0,0.0,0.0,14.0,0.0,28.0,1.0,163.07140941599937,,,,,,,,,163.06288666600085,163.1608868330004,163.9515044159998,163.94415483299963,163.94451174999995,163.9515044159998,163.9515044159998,163.9515044159998,165.21964933300114,,,,,,,,,,,,,,,,,,,,,,,,,,,,,,left,0.0,1.2664597090006282,,,,,,sub-155,1,random_dot,,
left,left,29.0,1.0,14.0,left,1.0,0.8148182080003608,,accuracy,space,3.1225871669994376,,,,,,0.0,0.0,0.0,0.0,14.0,1.0,29.0,0.0,165.22651920800126,,,,,,,,,165.22025162499995,165.5673781250007,166.35956825000176,166.35041512500177,166.35082545800103,166.35956825000176,166.35956825000176,166.35956825000176,167.178356583001,,,,,,,,,,,,,,,,,,,,,,,,,,,,,,left,1.0,0.8148182080003608,,,,,,sub-155,1,random_dot,,
right,right,30.0,0.0,15.0,right,1.0,1.8863187079987256,,accuracy,space,3.1225871669994376,,,,,,0.0,0.0,0.0,0.0,15.0,0.0,30.0,1.0,167.1878106660006,,,,,,,,,167.17912200000137,167.96724179100056,168.75957895800093,168.7504184999998,168.75080433300172,168.75957895800093,168.75957895800093,168.75957895800093,170.65292054100064,,,,,,,,,,,,,,,,,,,,,,,,,,,,,,right,1.0,1.8863187079987256,,,,,,sub-155,1,random_dot,,
left,left,31.0,1.0,15.0,left,1.0,1.656609292000212,,accuracy,space,3.1225871669994376,,,,,,0.0,0.0,0.0,0.0,15.0,1.0,31.0,0.0,170.66240924999877,,,,,,,,,170.65353008300008,171.00073858299947,171.79316429100072,171.7842599579999,171.78469479100022,171.79316429100072,171.79316429100072,171.79316429100072,173.45142916600162,,,,,,,,,,,,,,,,,,,,,,,,,,,,,,left,1.0,1.656609292000212,,,,,,sub-155,1,random_dot,,
right,right,32.0,0.0,16.0,left,0.0,1.4756922500018843,,accuracy,space,3.1225871669994376,,,,,,0.0,0.0,0.0,0.0,16.0,0.0,32.0,1.0,173.4608648329995,,,,,,,,,173.45201954100048,174.65071583299869,175.44307675000164,175.434168374999,175.43460200000118,175.44307675000164,175.44307675000164,175.44307675000164,176.92873891600175,,,,,,,,,,,,,,,,,,,,,,,,,,,,,,left,0.0,1.4756922500018843,,,,,,sub-155,1,random_dot,,
left,left,33.0,1.0,16.0,right,0.0,1.6100487500007148,,accuracy,space,3.1225871669994376,,,,,,0.0,0.0,0.0,0.0,16.0,1.0,33.0,0.0,176.9378763329987,,,,,,,,,176.92947999999888,177.27753112500068,178.06970570799967,178.06116195800132,178.06172249999872,178.06970570799967,178.06970570799967,178.06970570799967,179.68629724999846,,,,,,,,,,,,,,,,,,,,,,,,,,,,,,right,0.0,1.6100487500007148,,,,,,sub-155,1,random_dot,,
left,left,34.0,0.0,17.0,right,0.0,0.9691084170008252,,accuracy,space,3.1225871669994376,,,,,,0.0,0.0,0.0,0.0,17.0,0.0,34.0,0.0,179.71043445800024,,,,,,,,,179.68671608300065,180.03399791600168,180.8265577079983,180.817497041,180.81793729100173,180.8265577079983,180.8265577079983,180.8265577079983,181.8021766249985,,,,,,,,,,,,,,,,,,,,,,,,,,,,,,right,0.0,0.9691084170008252,,,,,,sub-155,1,random_dot,,
right,right,35.0,1.0,17.0,left,0.0,2.4516597500005446,,accuracy,space,3.1225871669994376,,,,,,0.0,0.0,0.0,0.0,17.0,1.0,35.0,1.0,181.82711733299948,,,,,,,,,181.80276895800125,181.90000070799945,182.6930194160013,182.6839019580002,182.68432245800068,182.6930194160013,182.6930194160013,182.6930194160013,185.1537771250005,,,,,,,,,,,,,,,,,,,,,,,,,,,,,,left,0.0,2.4516597500005446,,,,,,sub-155,1,random_dot,,
right,right,36.0,0.0,18.0,left,0.0,0.2745643329981249,,accuracy,space,3.1225871669994376,,,,,,0.0,0.0,0.0,0.0,18.0,0.0,36.0,1.0,185.16344454099817,,,,,,,,,185.15435950000028,186.35071304099984,187.1439120409996,187.1335076659998,187.1339329580005,187.1439120409996,187.1439120409996,187.1439120409996,187.4279486660016,,,,,,,,,,,,,,,,,,,,,,,,,,,,,,left,0.0,0.2745643329981249,,,,,,sub-155,1,random_dot,,
left,left,37.0,1.0,18.0,left,1.0,2.372885459000827,,accuracy,space,3.1225871669994376,,,,,,0.0,0.0,0.0,0.0,18.0,1.0,37.0,0.0,187.43665124999825,,,,,,,,,187.4284430000007,188.6176582500011,189.4101038330009,189.40069162500004,189.4012445410008,189.4101038330009,189.4101038330009,189.4101038330009,191.78614266599837,,,,,,,,,,,,,,,,,,,,,,,,,,,,,,left,1.0,2.372885459000827,,,,,,sub-155,1,random_dot,,
right,right,38.0,0.0,19.0,left,0.0,2.476558541999111,,accuracy,space,3.1225871669994376,,,,,,0.0,0.0,0.0,0.0,19.0,0.0,38.0,1.0,191.79586199999903,,,,,,,,,191.7867710829996,192.13411070800063,192.92641804099912,192.9174544999987,192.9178624160013,192.92641804099912,192.92641804099912,192.92641804099912,195.4121726250014,,,,,,,,,,,,,,,,,,,,,,,,,,,,,,left,0.0,2.476558541999111,,,,,,sub-155,1,random_dot,,
left,left,39.0,1.0,19.0,left,1.0,3.1938698339981784,,accuracy,space,3.1225871669994376,,,,,,0.0,0.0,0.0,0.0,19.0,1.0,39.0,0.0,195.42134204100148,,,,,,,,,195.4127530000005,196.6110705409992,197.4025852500017,197.394521582999,197.39496641599908,197.4025852500017,197.4025852500017,197.4025852500017,200.60151691599825,,,,,,,,,,,,,,,,,,,,,,,,,,,,,,left,1.0,3.1938698339981784,,,,,,sub-155,1,random_dot,,
left,left,40.0,0.0,20.0,right,0.0,1.4567410420022495,,accuracy,space,3.1225871669994376,,,,,,0.0,0.0,0.0,0.0,20.0,0.0,40.0,0.0,200.61113625000144,,,,,,,,,200.60210825000104,201.80018412500067,202.59269145800133,202.58405050000147,202.5844491659991,202.59269145800133,202.59269145800133,202.59269145800133,204.05147383299845,,,,,,,,,,,,,,,,,,,,,,,,,,,,,,right,0.0,1.4567410420022495,,,,,,sub-155,1,random_dot,,
right,right,41.0,1.0,20.0,left,0.0,5.684938374997728,,accuracy,space,3.1225871669994376,,,,,,0.0,0.0,0.0,0.0,20.0,1.0,41.0,1.0,204.0609350000013,,,,,,,,,204.05206891600028,204.14920920800068,204.94311854099945,204.9340596250004,204.9345927079994,204.94311854099945,204.94311854099945,204.94311854099945,210.63582033299824,,,,,,,,,,,,,,,,,,,,,,,,,,,,,,left,0.0,5.684938374997728,,209.92773837500133,,,,sub-155,1,random_dot,,
right,right,42.0,0.0,21.0,left,0.0,0.6415104170009727,,accuracy,space,3.1225871669994376,,,,,,0.0,0.0,0.0,0.0,21.0,0.0,42.0,1.0,210.6606595000012,,,,,,,,,210.63654704099827,210.98412404099872,211.77644991600027,211.76729254100064,211.76768566600003,211.77644991600027,211.77644991600027,211.77644991600027,212.41949320799904,,,,,,,,,,,,,,,,,,,,,,,,,,,,,,left,0.0,0.6415104170009727,,,,,,sub-155,1,random_dot,,
left,left,43.0,1.0,21.0,left,1.0,2.029062416997476,,accuracy,space,3.1225871669994376,,,,,,0.0,0.0,0.0,0.0,21.0,1.0,43.0,0.0,212.42661391599904,,,,,,,,,212.4202961660012,213.61692250000124,214.40984866600047,214.4007732909995,214.40119974999837,214.40984866600047,214.40984866600047,214.40984866600047,216.44456629100023,,,,,,,,,,,,,,,,,,,,,,,,,,,,,,left,1.0,2.029062416997476,,,,,,sub-155,1,random_dot,,
left,left,44.0,0.0,22.0,right,0.0,1.5669315419982013,,accuracy,space,3.1225871669994376,,,,,,0.0,0.0,0.0,0.0,22.0,0.0,44.0,0.0,216.4533663330003,,,,,,,,,216.44509316599945,217.6341710829984,218.42653216599865,218.41722925000067,218.41773395799828,218.42653216599865,218.42653216599865,218.42653216599865,220.00225308299923,,,,,,,,,,,,,,,,,,,,,,,,,,,,,,right,0.0,1.5669315419982013,,,,,,sub-155,1,random_dot,,
right,right,45.0,1.0,22.0,left,0.0,2.7257149159995606,,accuracy,space,3.1225871669994376,,,,,,0.0,0.0,0.0,0.0,22.0,1.0,45.0,1.0,220.0273852499995,,,,,,,,,220.002863791,220.1001487909998,220.8931184579997,220.88386170800004,220.88427212500028,220.8931184579997,220.8931184579997,220.8931184579997,223.62933070800136,,,,,,,,,,,,,,,,,,,,,,,,,,,,,,left,0.0,2.7257149159995606,,,,,,sub-155,1,random_dot,,
left,left,46.0,0.0,23.0,right,0.0,3.3867296669995994,,accuracy,space,3.1225871669994376,,,,,,0.0,0.0,0.0,0.0,23.0,0.0,46.0,0.0,223.63865095800065,,,,,,,,,223.63004983299837,223.7277502500001,224.51995141600128,224.5113433330007,224.511879791,224.51995141600128,224.51995141600128,224.51995141600128,227.9116533330016,,,,,,,,,,,,,,,,,,,,,,,,,,,,,,right,0.0,3.3867296669995994,,,,,,sub-155,1,random_dot,,
right,right,47.0,1.0,23.0,right,1.0,0.4364500420015247,,accuracy,space,3.1225871669994376,,,,,,0.0,0.0,0.0,0.0,23.0,1.0,47.0,1.0,227.921019333,,,,,,,,,227.9124139580017,228.2509746249998,229.04318929099827,229.0339982910009,229.03443233299916,229.04318929099827,229.04318929099827,229.04318929099827,229.4856233749997,,,,,,,,,,,,,,,,,,,,,,,,,,,,,,right,1.0,0.4364500420015247,,,,,,sub-155,1,random_dot,,
left,left,48.0,0.0,24.0,left,1.0,0.2509449169992876,,accuracy,space,3.1225871669994376,,,,,,0.0,0.0,0.0,0.0,24.0,0.0,48.0,0.0,229.4951797079993,,,,,,,,,229.4862084160013,230.28376783299973,231.0766507910012,231.06748279100063,231.0680288750009,231.0766507910012,231.0766507910012,231.0766507910012,231.3295082910008,,,,,,,,,,,,,,,,,,,,,,,,,,,,,,left,1.0,0.2509449169992876,,,,,,sub-155,1,random_dot,,
right,right,49.0,1.0,24.0,right,1.0,1.4074833749982645,,accuracy,space,3.1225871669994376,,,,,,0.0,0.0,0.0,0.0,24.0,1.0,49.0,1.0,231.3357968749988,,,,,,,,,231.33029395799892,231.6776638750016,232.47009099999923,232.46143224999832,232.46197845799907,232.47009099999923,232.47009099999923,232.47009099999923,233.8860497909991,,,,,,,,,,,,,,,,,,,,,,,,,,,,,,right,1.0,1.4074833749982645,,,,,,sub-155,1,random_dot,,
left,left,50.0,0.0,25.0,right,0.0,1.734014166999259,,accuracy,space,3.1225871669994376,,,,,,0.0,0.0,0.0,0.0,25.0,0.0,50.0,0.0,233.9107194579992,,,,,,,,,233.88661745799985,234.68354591599928,235.4765001250016,235.4674911250004,235.46792629099943,235.4765001250016,235.4765001250016,235.4765001250016,237.21909987500112,,,,,,,,,,,,,,,,,,,,,,,,,,,,,,right,0.0,1.734014166999259,,,,,,sub-155,1,random_dot,,
right,right,51.0,1.0,25.0,left,0.0,1.188450792000367,,accuracy,space,3.1225871669994376,,,,,,0.0,0.0,0.0,0.0,25.0,1.0,51.0,1.0,237.2285519159996,,,,,,,,,237.2195571250013,238.4177412909994,239.20995129099904,239.2007535410012,239.20122629099933,239.20995129099904,239.20995129099904,239.20995129099904,240.40258054099831,,,,,,,,,,,,,,,,,,,,,,,,,,,,,,left,0.0,1.188450792000367,,,,,,sub-155,1,random_dot,,
left,left,52.0,0.0,26.0,left,1.0,1.0624664159986423,,accuracy,space,3.1225871669994376,,,,,,0.0,0.0,0.0,0.0,26.0,0.0,52.0,0.0,240.42744566599868,,,,,,,,,240.40319041600011,241.2009857910016,241.99390199999837,241.98431170800177,241.98490583300008,241.99390199999837,241.99390199999837,241.99390199999837,243.06168049999903,,,,,,,,,,,,,,,,,,,,,,,,,,,,,,left,1.0,1.0624664159986423,,,,,,sub-155,1,random_dot,,
right,right,53.0,1.0,26.0,left,0.0,1.3640502080015722,,accuracy,space,3.1225871669994376,,,,,,0.0,0.0,0.0,0.0,26.0,1.0,53.0,1.0,243.07104450000045,,,,,,,,,243.06240524999885,243.4009675829984,244.1932344579982,244.1839838749984,244.18441229100063,244.1932344579982,244.1932344579982,244.1932344579982,245.5623505830008,,,,,,,,,,,,,,,,,,,,,,,,,,,,,,left,0.0,1.3640502080015722,,,,,,sub-155,1,random_dot,,
left,left,54.0,0.0,27.0,left,1.0,0.5963451249990612,,accuracy,space,3.1225871669994376,,,,,,0.0,0.0,0.0,0.0,27.0,0.0,54.0,0.0,245.57183520800027,,,,,,,,,245.56316695799975,246.76125033299832,247.55291929099985,247.5446576659997,247.5452085409997,247.55291929099985,247.55291929099985,247.55291929099985,248.1524131660008,,,,,,,,,,,,,,,,,,,,,,,,,,,,,,left,1.0,0.5963451249990612,,,,,,sub-155,1,random_dot,,
right,right,55.0,1.0,27.0,left,0.0,1.665770125000563,,accuracy,space,3.1225871669994376,,,,,,0.0,0.0,0.0,0.0,27.0,1.0,55.0,1.0,248.1774394159984,,,,,,,,,248.1530712499989,248.95102416599912,249.74339758299905,249.73471387500103,249.73511541599876,249.74339758299905,249.74339758299905,249.74339758299905,251.41172529100004,,,,,,,,,,,,,,,,,,,,,,,,,,,,,,left,0.0,1.665770125000563,,,,,,sub-155,1,random_dot,,
right,right,56.0,0.0,28.0,right,1.0,1.6548477500000445,,accuracy,space,3.1225871669994376,,,,,,0.0,0.0,0.0,0.0,28.0,0.0,56.0,1.0,251.41818579100072,,,,,,,,,251.41248008299956,252.20097854100092,252.9932585829993,252.98403124999825,252.98445345800064,252.9932585829993,252.9932585829993,252.9932585829993,254.6525781659984,,,,,,,,,,,,,,,,,,,,,,,,,,,,,,right,1.0,1.6548477500000445,,,,,,sub-155,1,random_dot,,
left,left,57.0,1.0,28.0,right,0.0,1.4548392920005426,,accuracy,space,3.1225871669994376,,,,,,0.0,0.0,0.0,0.0,28.0,1.0,57.0,0.0,254.67725712500032,,,,,,,,,254.6531588329999,254.750781499999,255.5433005829982,255.5344203329987,255.5348189159995,255.5433005829982,255.5433005829982,255.5433005829982,257.0030966660015,,,,,,,,,,,,,,,,,,,,,,,,,,,,,,right,0.0,1.4548392920005426,,,,,,sub-155,1,random_dot,,
left,left,58.0,0.0,29.0,left,1.0,1.1286608750015148,,accuracy,space,3.1225871669994376,,,,,,0.0,0.0,0.0,0.0,29.0,0.0,58.0,0.0,257.02741762499863,,,,,,,,,257.0035227080007,257.3508214579997,258.14334125000096,258.1343064579996,258.13475341600133,258.14334125000096,258.14334125000096,258.14334125000096,259.27848820800136,,,,,,,,,,,,,,,,,,,,,,,,,,,,,,left,1.0,1.1286608750015148,,,,,,sub-155,1,random_dot,,
right,right,59.0,1.0,29.0,left,0.0,0.7272741669985407,,accuracy,space,3.1225871669994376,,,,,,0.0,0.0,0.0,0.0,29.0,1.0,59.0,1.0,259.28803666599924,,,,,,,,,259.2792528329992,259.6170515410013,260.4098281250008,260.40045358299903,260.4008676250014,260.4098281250008,260.4098281250008,260.4098281250008,261.14602775000094,,,,,,,,,,,,,,,,,,,,,,,,,,,,,,left,0.0,0.7272741669985407,,,,,,sub-155,1,random_dot,,
,,0.0,0.0,0.0,,,,,accuracy,space,3.1225871669994376,,,,,,0.0,0.0,0.0,0.0,,,,,,,,,,,,,,,,,,,,,,,,,,,,,,,,,,,,,,,,,,,,,,,,,,,,,,,,,,,,sub-155,1,random_dot,,
right,right,0.0,0.0,0.0,right,1.0,0.9211960419997922,,speed,space,2.5098735829997167,,,,,,0.0,1.0,1.0,1.0,0.0,0.0,0.0,1.0,263.705457,,,,,,,,,263.6960777079985,264.88424187499913,265.6767101250007,265.66709858299873,265.66761549999865,265.6767101250007,265.6767101250007,265.6767101250007,266.6031900829985,,,,,,,,,,,,,,,,,,,,,,,261.16196141600085,261.1701797079986,261.1701797079986,263.68562683300115,space,2.5098735829997167,,right,1.0,0.9211960419997922,,,,,,sub-155,1,random_dot,,
left,left,1.0,1.0,0.0,left,1.0,0.8424703749988112,,speed,space,2.5098735829997167,,,,,,0.0,1.0,1.0,1.0,0.0,1.0,1.0,0.0,266.61277300000074,,,,,,,,,266.6037530829999,266.7008121250001,267.4933004580016,267.4840585409984,267.4844800409992,267.4933004580016,267.4933004580016,267.4933004580016,268.3367919580014,,,,,,,,,,,,,,,,,,,,,,,,,,,,,,left,1.0,0.8424703749988112,,,,,,sub-155,1,random_dot,,
right,right,2.0,0.0,1.0,right,1.0,0.7035173330004909,,speed,space,2.5098735829997167,,,,,,0.0,1.0,1.0,1.0,1.0,0.0,2.0,1.0,268.3434799159986,,,,,,,,,268.33725545799825,269.5343342499982,270.327262625,270.3173887500016,270.3179248330016,270.327262625,270.327262625,270.327262625,271.0354218329994,,,,,,,,,,,,,,,,,,,,,,,,,,,,,,right,1.0,0.7035173330004909,,,,,,sub-155,1,random_dot,,
left,left,3.0,1.0,1.0,left,1.0,0.9060090000020864,,speed,space,2.5098735829997167,,,,,,0.0,1.0,1.0,1.0,1.0,1.0,3.0,0.0,271.044779666001,,,,,,,,,271.0359999159991,271.8342207909991,272.62670895799965,272.617503458001,272.61793241600026,272.62670895799965,272.62670895799965,272.62670895799965,273.5357937910012,,,,,,,,,,,,,,,,,,,,,,,,,,,,,,left,1.0,0.9060090000020864,,,,,,sub-155,1,random_dot,,
right,right,4.0,0.0,2.0,left,0.0,1.8309269579985996,,speed,space,2.5098735829997167,,,,,,0.0,1.0,1.0,1.0,2.0,0.0,4.0,1.0,273.560902833,,,,,,,,,273.536409332999,273.8836392080011,274.6767048750007,274.667544625001,274.66796508300104,274.6767048750007,274.6767048750007,274.6767048750007,276.51192833299865,,,,,,,,,,,,,,,,,,,,,,,,,,,,,,left,0.0,1.8309269579985996,,,,,,sub-155,1,random_dot,,
left,left,5.0,1.0,2.0,right,0.0,0.7121611660004419,,speed,space,2.5098735829997167,,,,,,0.0,1.0,1.0,1.0,2.0,1.0,5.0,0.0,276.5214352080002,,,,,,,,,276.5127113329981,277.3010982080013,278.0934314160004,278.08479287500086,278.08520883299934,278.0934314160004,278.0934314160004,278.0934314160004,278.8124887080012,,,,,,,,,,,,,,,,,,,,,,,,,,,,,,right,0.0,0.7121611660004419,,,,,,sub-155,1,random_dot,,
right,right,6.0,0.0,3.0,right,1.0,0.3753389579978829,,speed,space,2.5098735829997167,,,,,,0.0,1.0,1.0,1.0,3.0,0.0,6.0,1.0,278.8216964159983,,,,,,,,,278.8131052909994,280.0113919159994,280.80331820799984,280.7948475410012,280.7953630830016,280.80331820799984,280.80331820799984,280.80331820799984,281.1852848749986,,,,,,,,,,,,,,,,,,,,,,,,,,,,,,right,1.0,0.3753389579978829,,,,,,sub-155,1,random_dot,,
left,left,7.0,1.0,3.0,left,1.0,0.5578372080017289,,speed,space,2.5098735829997167,,,,,,0.0,1.0,1.0,1.0,3.0,1.0,7.0,0.0,281.1949762080003,,,,,,,,,281.18587329100046,282.38467395800035,283.1766602079988,283.1674240829998,283.16785295799855,283.1766602079988,283.1766602079988,283.1766602079988,283.7362787079983,,,,,,,,,,,,,,,,,,,,,,,,,,,,,,left,1.0,0.5578372080017289,,,,,,sub-155,1,random_dot,,
right,right,8.0,0.0,4.0,right,1.0,0.3797958329996618,,speed,space,2.5098735829997167,,,,,,0.0,1.0,1.0,1.0,4.0,0.0,8.0,1.0,283.743463666,,,,,,,,,283.7368758750017,284.0843678329984,284.8766687079988,284.86747133300014,284.8678842080008,284.8766687079988,284.8766687079988,284.8766687079988,285.2625338750004,,,,,,,,,,,,,,,,,,,,,,,,,,,,,,right,1.0,0.3797958329996618,,,,,,sub-155,1,random_dot,,
left,left,9.0,1.0,4.0,left,1.0,1.328828790999978,,speed,space,2.5098735829997167,,,,,,0.0,1.0,1.0,1.0,4.0,1.0,9.0,0.0,285.2720520410003,,,,,,,,,285.2633208330008,286.06142445799924,286.85358662499857,286.84496545799993,286.8454776660001,286.85358662499857,286.85358662499857,286.85358662499857,288.1851121660002,,,,,,,,,,,,,,,,,,,,,,,,,,,,,,left,1.0,1.328828790999978,,,,,,sub-155,1,random_dot,,
right,right,10.0,0.0,5.0,right,1.0,1.8365860839985544,,speed,space,2.5098735829997167,,,,,,0.0,1.0,1.0,1.0,5.0,0.0,10.0,1.0,288.1944907500001,,,,,,,,,288.18571449999945,288.53414591600085,289.32678420799857,289.3171452499992,289.317679541,289.32678420799857,289.32678420799857,289.32678420799857,291.16913991600086,,,,,,,,,,,,,,,,,,,,,,,,,,,,,,right,1.0,1.8365860839985544,,,,,,sub-155,1,random_dot,,
left,left,11.0,1.0,5.0,right,0.0,0.8921552920000977,,speed,space,2.5098735829997167,,,,,,0.0,1.0,1.0,1.0,5.0,1.0,11.0,0.0,291.17845187499915,,,,,,,,,291.16960529100106,291.9669832910004,292.7601345830008,292.7509329999993,292.7514741660016,292.7601345830008,292.7601345830008,292.7601345830008,293.66209966599854,,,,,,,,,,,,,,,,,,,,,,,,,,,,,,right,0.0,0.8921552920000977,,,,,,sub-155,1,random_dot,,
left,left,12.0,0.0,6.0,right,0.0,0.598699124999257,,speed,space,2.5098735829997167,,,,,,0.0,1.0,1.0,1.0,6.0,0.0,12.0,0.0,293.6711753749987,,,,,,,,,293.66282133300047,294.000471708001,294.7935572909992,294.7844194999998,294.7849229579988,294.7935572909992,294.7935572909992,294.7935572909992,295.39519529099925,,,,,,,,,,,,,,,,,,,,,,,,,,,,,,right,0.0,0.598699124999257,,,,,,sub-155,1,random_dot,,
right,right,13.0,1.0,6.0,left,0.0,0.0423189580033067,,speed,space,2.5098735829997167,,,,,,0.0,1.0,1.0,1.0,6.0,1.0,13.0,1.0,295.401543041,,,,,,,,,295.3959874159991,296.58365545799825,297.3768611250016,297.3676027500005,297.3681007080013,297.3768611250016,297.3768611250016,297.3768611250016,297.4282146250007,,,,,,,,,,,,,,,,,,,,,,,,,,,,,,left,0.0,0.0423189580033067,,,,,,sub-155,1,random_dot,,
left,left,14.0,0.0,7.0,right,0.0,0.8188269579986809,,speed,space,2.5098735829997167,,,,,,0.0,1.0,1.0,1.0,7.0,0.0,14.0,0.0,297.4372039160007,,,,,,,,,297.42880579100165,298.6177686250012,299.41038520800066,299.401054416001,299.4015666250016,299.41038520800066,299.41038520800066,299.41038520800066,300.23730141600026,,,,,,,,,,,,,,,,,,,,,,,,,,,,,,right,0.0,0.8188269579986809,,,,,,sub-155,1,random_dot,,
right,right,15.0,1.0,7.0,right,1.0,2.577579875000083,,speed,space,2.5098735829997167,,,,,,0.0,1.0,1.0,1.0,7.0,1.0,15.0,1.0,300.2466671660004,,,,,,,,,300.237737083,301.4344244159984,302.2284098749988,302.2180955410004,302.2185405409982,302.2284098749988,302.2284098749988,302.2284098749988,304.81213645800017,,,,,,,,,,,,,,,,,,,,,,,,,,,,,,right,1.0,2.577579875000083,,,,,,sub-155,1,random_dot,,
right,right,16.0,0.0,8.0,right,1.0,2.289479499999288,,speed,space,2.5098735829997167,,,,,,0.0,1.0,1.0,1.0,8.0,0.0,16.0,1.0,304.82137774999865,,,,,,,,,304.81285241599835,305.1510949580006,305.9433993329985,305.9345532080006,305.93495591600004,305.9433993329985,305.9433993329985,305.9433993329985,308.2367527079987,,,,,,,,,,,,,,,,,,,,,,,,,,,,,,right,1.0,2.289479499999288,,,,,,sub-155,1,random_dot,,
left,left,17.0,1.0,8.0,right,0.0,1.283951082998101,,speed,space,2.5098735829997167,,,,,,0.0,1.0,1.0,1.0,8.0,1.0,17.0,0.0,308.2608919999984,,,,,,,,,308.2371887500012,309.4343945410001,310.2268374160012,310.2176304579989,310.21802558299896,310.2268374160012,310.2268374160012,310.2268374160012,311.51965033300075,,,,,,,,,,,,,,,,,,,,,,,,,,,,,,right,0.0,1.283951082998101,,,,,,sub-155,1,random_dot,,
right,right,18.0,0.0,9.0,left,0.0,0.9006019999978889,,speed,space,2.5098735829997167,,,,,,0.0,1.0,1.0,1.0,9.0,0.0,18.0,1.0,311.54428191600164,,,,,,,,,311.52020541599995,311.8676674999988,312.6601321249982,312.6508732500006,312.6512887079989,312.6601321249982,312.6601321249982,312.6601321249982,313.5691932910013,,,,,,,,,,,,,,,,,,,,,,,,,,,,,,left,0.0,0.9006019999978889,,,,,,sub-155,1,random_dot,,
left,left,19.0,1.0,9.0,left,1.0,0.9464807500007736,,speed,space,2.5098735829997167,,,,,,0.0,1.0,1.0,1.0,9.0,1.0,19.0,0.0,313.5783514159993,,,,,,,,,313.56963891600026,313.6676452499996,314.4602288749993,314.45089395800096,314.4514289580002,314.4602288749993,314.4602288749993,314.4602288749993,315.41249145799884,,,,,,,,,,,,,,,,,,,,,,,,,,,,,,left,1.0,0.9464807500007736,,,,,,sub-155,1,random_dot,,
right,right,20.0,0.0,10.0,left,0.0,0.931723541001702,,speed,space,2.5098735829997167,,,,,,0.0,1.0,1.0,1.0,10.0,0.0,20.0,1.0,315.4218460830016,,,,,,,,,315.4132159159999,316.61141179100014,317.4035836660005,317.3949759999996,317.39548041599846,317.4035836660005,317.4035836660005,317.4035836660005,318.3367957910013,,,,,,,,,,,,,,,,,,,,,,,,,,,,,,left,0.0,0.931723541001702,,,,,,sub-155,1,random_dot,,
left,left,21.0,1.0,10.0,left,1.0,1.0236856249975972,,speed,space,2.5098735829997167,,,,,,0.0,1.0,1.0,1.0,10.0,1.0,21.0,0.0,318.3435385000012,,,,,,,,,318.33722708300047,319.53466537499844,320.32687762500063,320.31770020800104,320.31809799999974,320.32687762500063,320.32687762500063,320.32687762500063,321.35205208299885,,,,,,,,,,,,,,,,,,,,,,,,,,,,,,left,1.0,1.0236856249975972,,,,,,sub-155,1,random_dot,,
left,left,22.0,0.0,11.0,left,1.0,1.230799291999574,,speed,space,2.5098735829997167,,,,,,0.0,1.0,1.0,1.0,11.0,0.0,22.0,0.0,321.36137729099937,,,,,,,,,321.35264633300176,321.7014614159998,322.49374470800103,322.4845295000014,322.4850298329984,322.49374470800103,322.49374470800103,322.49374470800103,323.7277158750003,,,,,,,,,,,,,,,,,,,,,,,,,,,,,,left,1.0,1.230799291999574,,,,,,sub-155,1,random_dot,,
right,right,23.0,1.0,11.0,right,1.0,1.293362332999095,,speed,space,2.5098735829997167,,,,,,0.0,1.0,1.0,1.0,11.0,1.0,23.0,1.0,323.7339734160014,,,,,,,,,323.7283460409999,324.0678190830004,324.8601388749994,324.8510240830001,324.8514084999988,324.8601388749994,324.8601388749994,324.8601388749994,326.1614279159985,,,,,,,,,,,,,,,,,,,,,,,,,,,,,,right,1.0,1.293362332999095,,,,,,sub-155,1,random_dot,,
left,left,24.0,0.0,12.0,right,0.0,2.010908542000834,,speed,space,2.5098735829997167,,,,,,0.0,1.0,1.0,1.0,12.0,0.0,24.0,0.0,326.17063754099945,,,,,,,,,326.16194387499854,326.50109449999945,327.2935236660014,327.2842973330007,327.2846884999999,327.2935236660014,327.2935236660014,327.2935236660014,329.313125875,,,,,,,,,,,,,,,,,,,,,,,,,,,,,,right,0.0,2.010908542000834,,,,,,sub-155,1,random_dot,,
right,right,25.0,1.0,12.0,right,1.0,0.4846148329997959,,speed,space,2.5098735829997167,,,,,,0.0,1.0,1.0,1.0,12.0,1.0,25.0,1.0,329.3225434160013,,,,,,,,,329.31385887500073,330.1115541250001,330.9037893329987,330.8951479159987,330.8956849159986,330.9037893329987,330.9037893329987,330.9037893329987,331.3963037079993,,,,,,,,,,,,,,,,,,,,,,,,,,,,,,right,1.0,0.4846148329997959,,,,,,sub-155,1,random_dot,,
right,right,26.0,0.0,13.0,right,1.0,0.3524936670000897,,speed,space,2.5098735829997167,,,,,,0.0,1.0,1.0,1.0,13.0,0.0,26.0,1.0,331.4055590409989,,,,,,,,,331.3970410000002,332.1949256660009,332.9868914580002,332.9784284999987,332.97894291600096,332.9868914580002,332.9868914580002,332.9868914580002,333.344931874999,,,,,,,,,,,,,,,,,,,,,,,,,,,,,,right,1.0,0.3524936670000897,,,,,,sub-155,1,random_dot,,
left,left,27.0,1.0,13.0,right,0.0,0.6048937920022581,,speed,space,2.5098735829997167,,,,,,0.0,1.0,1.0,1.0,13.0,1.0,27.0,0.0,333.3541571659989,,,,,,,,,333.34553445799975,333.4449050410003,334.237471583001,334.22830650000105,334.228840374999,334.237471583001,334.237471583001,334.237471583001,334.8464664579988,,,,,,,,,,,,,,,,,,,,,,,,,,,,,,right,0.0,0.6048937920022581,,,,,,sub-155,1,random_dot,,
left,left,28.0,0.0,14.0,left,1.0,1.1445208750010352,,speed,space,2.5098735829997167,,,,,,0.0,1.0,1.0,1.0,14.0,0.0,28.0,0.0,334.8555670829992,,,,,,,,,334.8472135830016,335.64490875000047,336.4367617079988,336.4284093749993,336.4289603750003,336.4367617079988,336.4367617079988,336.4367617079988,337.5860822499999,,,,,,,,,,,,,,,,,,,,,,,,,,,,,,left,1.0,1.1445208750010352,,,,,,sub-155,1,random_dot,,
right,right,29.0,1.0,14.0,right,1.0,1.2353946660005022,,speed,space,2.5098735829997167,,,,,,0.0,1.0,1.0,1.0,14.0,1.0,29.0,1.0,337.59558687499884,,,,,,,,,337.5866558330017,337.9345679580001,338.72689049999826,338.7175970409989,338.7180097499986,338.72689049999826,338.72689049999826,338.72689049999826,339.9692968329982,,,,,,,,,,,,,,,,,,,,,,,,,,,,,,right,1.0,1.2353946660005022,,,,,,sub-155,1,random_dot,,
right,right,30.0,0.0,15.0,left,0.0,1.2267403330006346,,speed,space,2.5098735829997167,,,,,,0.0,1.0,1.0,1.0,15.0,0.0,30.0,1.0,339.978548957999,,,,,,,,,339.9697582500012,340.0674631660004,340.8613997909997,340.85069408300114,340.85111400000096,340.8613997909997,340.8613997909997,340.8613997909997,342.09513554099976,,,,,,,,,,,,,,,,,,,,,,,,,,,,,,left,0.0,1.2267403330006346,,,,,,sub-155,1,random_dot,,
left,left,31.0,1.0,15.0,right,0.0,1.6741007500022531,,speed,space,2.5098735829997167,,,,,,0.0,1.0,1.0,1.0,15.0,1.0,31.0,0.0,342.10434741599965,,,,,,,,,342.09579845799817,342.18463329099905,342.9769814579995,342.96747725000023,342.9680274579987,342.9769814579995,342.9769814579995,342.9769814579995,344.6527781250006,,,,,,,,,,,,,,,,,,,,,,,,,,,,,,right,0.0,1.6741007500022531,,,,,,sub-155,1,random_dot,,
right,right,32.0,0.0,16.0,right,1.0,2.075215584001853,,speed,space,2.5098735829997167,,,,,,0.0,1.0,1.0,1.0,16.0,0.0,32.0,1.0,344.66034062499966,,,,,,,,,344.6533848750005,345.45141441599844,346.2437982500014,346.234676125001,346.2350791249992,346.2437982500014,346.2437982500014,346.2437982500014,348.32045829100025,,,,,,,,,,,,,,,,,,,,,,,,,,,,,,right,1.0,2.075215584001853,,,,,,sub-155,1,random_dot,,
left,left,33.0,1.0,16.0,right,0.0,1.3999315000000934,,speed,space,2.5098735829997167,,,,,,0.0,1.0,1.0,1.0,16.0,1.0,33.0,0.0,348.32700304099853,,,,,,,,,348.3208940000004,348.6669578330002,349.4603855409987,349.4512240410004,349.45172408299914,349.4603855409987,349.4603855409987,349.4603855409987,350.8687007910012,,,,,,,,,,,,,,,,,,,,,,,,,,,,,,right,0.0,1.3999315000000934,,,,,,sub-155,1,random_dot,,
right,right,34.0,0.0,17.0,right,1.0,1.1364301670000714,,speed,space,2.5098735829997167,,,,,,0.0,1.0,1.0,1.0,17.0,0.0,34.0,1.0,350.8783194159987,,,,,,,,,350.8692932080012,350.96033720799824,351.753535541,351.74519929099915,351.7457435409997,351.753535541,351.753535541,351.753535541,352.89603437500045,,,,,,,,,,,,,,,,,,,,,,,,,,,,,,right,1.0,1.1364301670000714,,,,,,sub-155,1,random_dot,,
left,left,35.0,1.0,17.0,left,1.0,0.6759015419993375,,speed,space,2.5098735829997167,,,,,,0.0,1.0,1.0,1.0,17.0,1.0,35.0,0.0,352.90543129100115,,,,,,,,,352.89684966599816,354.0950612080014,354.8870074160004,354.8785845409984,354.87914120799906,354.8870074160004,354.8870074160004,354.8870074160004,355.570038165999,,,,,,,,,,,,,,,,,,,,,,,,,,,,,,left,1.0,0.6759015419993375,,,,,,sub-155,1,random_dot,,
left,left,36.0,0.0,18.0,right,0.0,1.0214386670013482,,speed,space,2.5098735829997167,,,,,,0.0,1.0,1.0,1.0,18.0,0.0,36.0,0.0,355.57977475000007,,,,,,,,,355.5706527910006,356.3679505,357.1603870830004,357.15118954100035,357.1516019160008,357.1603870830004,357.1603870830004,357.1603870830004,358.1862728749984,,,,,,,,,,,,,,,,,,,,,,,,,,,,,,right,0.0,1.0214386670013482,,,,,,sub-155,1,random_dot,,
right,right,37.0,1.0,18.0,left,0.0,0.7428050829985295,,speed,space,2.5098735829997167,,,,,,0.0,1.0,1.0,1.0,18.0,1.0,37.0,1.0,358.2111649580001,,,,,,,,,358.18689362499936,358.9851154579992,359.7770788330017,359.7680811249993,359.7684909999989,359.7770788330017,359.7770788330017,359.7770788330017,360.52853075000166,,,,,,,,,,,,,,,,,,,,,,,,,,,,,,left,0.0,0.7428050829985295,,,,,,sub-155,1,random_dot,,
right,right,38.0,0.0,19.0,right,1.0,1.0754327919967182,,speed,space,2.5098735829997167,,,,,,0.0,1.0,1.0,1.0,19.0,0.0,38.0,1.0,360.5376770410003,,,,,,,,,360.5292240410017,360.61736508299873,361.4103061249989,361.4012604579984,361.4016512499984,361.4103061249989,361.4103061249989,361.4103061249989,362.49670891599817,,,,,,,,,,,,,,,,,,,,,,,,,,,,,,right,1.0,1.0754327919967182,,,,,,sub-155,1,random_dot,,
left,left,39.0,1.0,19.0,left,1.0,0.2901414579973789,,speed,space,2.5098735829997167,,,,,,0.0,1.0,1.0,1.0,19.0,1.0,39.0,0.0,362.5058367909987,,,,,,,,,362.4974306660006,363.2949620830004,364.08754150000095,364.0786593750017,364.07922083299854,364.08754150000095,364.08754150000095,364.08754150000095,364.3861240410006,,,,,,,,,,,,,,,,,,,,,,,,,,,,,,left,1.0,0.2901414579973789,,,,,,sub-155,1,random_dot,,
left,left,40.0,0.0,20.0,left,1.0,1.2202859579992946,,speed,space,2.5098735829997167,,,,,,0.0,1.0,1.0,1.0,20.0,0.0,40.0,0.0,364.4111418749999,,,,,,,,,364.3867483329996,364.4769831660015,365.2703749579996,365.2618617500011,365.26241987499816,365.2703749579996,365.2703749579996,365.2703749579996,366.4962067080014,,,,,,,,,,,,,,,,,,,,,,,,,,,,,,left,1.0,1.2202859579992946,,,,,,sub-155,1,random_dot,,
right,right,41.0,1.0,20.0,right,1.0,2.294882209000207,,speed,space,2.5098735829997167,,,,,,0.0,1.0,1.0,1.0,20.0,1.0,41.0,1.0,366.5058071659987,,,,,,,,,366.49701283299873,366.5949739159987,367.38704216599945,367.37848612499874,367.3790097909987,367.38704216599945,367.38704216599945,367.38704216599945,369.6875278330008,,,,,,,,,,,,,,,,,,,,,,,,,,,,,,right,1.0,2.294882209000207,,,,,,sub-155,1,random_dot,,
right,right,42.0,0.0,21.0,right,1.0,1.5544964170003368,,speed,space,2.5098735829997167,,,,,,0.0,1.0,1.0,1.0,21.0,0.0,42.0,1.0,369.6977595829994,,,,,,,,,369.68810808299895,370.4848549160015,371.27708841599815,371.26802645800126,371.2684306660012,371.27708841599815,371.27708841599815,371.27708841599815,372.8370510409986,,,,,,,,,,,,,,,,,,,,,,,,,,,,,,right,1.0,1.5544964170003368,,,,,,sub-155,1,random_dot,,
left,left,43.0,1.0,21.0,right,0.0,1.519351208000444,,speed,space,2.5098735829997167,,,,,,0.0,1.0,1.0,1.0,21.0,1.0,43.0,0.0,372.8464674579991,,,,,,,,,372.8375479159986,373.184782332999,373.97713808299886,373.9678243330018,373.9682275829982,373.97713808299886,373.97713808299886,373.97713808299886,375.5038471660009,,,,,,,,,,,,,,,,,,,,,,,,,,,,,,right,0.0,1.519351208000444,,,,,,sub-155,1,random_dot,,
right,right,44.0,0.0,22.0,right,1.0,3.126171292002254,,speed,space,2.5098735829997167,,,,,,0.0,1.0,1.0,1.0,22.0,0.0,44.0,1.0,375.5133166250016,,,,,,,,,375.5044328750009,376.3007235410005,377.09402645799855,377.08602258300016,377.0863745409988,377.09402645799855,377.09402645799855,377.09402645799855,380.2300068330005,,,,,,,,,,,,,,,,,,,,,,,,,,,,,,right,1.0,3.126171292002254,,,,,,sub-155,1,random_dot,,
left,left,45.0,1.0,22.0,left,1.0,0.9012736250006128,,speed,space,2.5098735829997167,,,,,,0.0,1.0,1.0,1.0,22.0,1.0,45.0,0.0,380.2394432500005,,,,,,,,,380.2307414159986,380.32724125000095,381.1209901660004,381.11217558299904,381.1127357910009,381.1209901660004,381.1209901660004,381.1209901660004,382.0290251660008,,,,,,,,,,,,,,,,,,,,,,,,,,,,,,left,1.0,0.9012736250006128,,,,,,sub-155,1,random_dot,,
right,right,46.0,0.0,23.0,right,1.0,1.056659124998987,,speed,space,2.5098735829997167,,,,,,0.0,1.0,1.0,1.0,23.0,0.0,46.0,1.0,382.038036291,,,,,,,,,382.0296710000002,382.3680480830008,383.1604861660017,383.15143737499966,383.1518311660002,383.1604861660017,383.1604861660017,383.1604861660017,384.2203833749991,,,,,,,,,,,,,,,,,,,,,,,,,,,,,,right,1.0,1.056659124998987,,,,,,sub-155,1,random_dot,,
left,left,47.0,1.0,23.0,left,1.0,0.7771896249978454,,speed,space,2.5098735829997167,,,,,,0.0,1.0,1.0,1.0,23.0,1.0,47.0,0.0,384.2302572500012,,,,,,,,,384.22099870799866,385.0183347909988,385.81096850000176,385.80163320800057,385.8021469999985,385.81096850000176,385.81096850000176,385.81096850000176,386.5949601659995,,,,,,,,,,,,,,,,,,,,,,,,,,,,,,left,1.0,0.7771896249978454,,,,,,sub-155,1,random_dot,,
left,left,48.0,0.0,24.0,right,0.0,0.6889796249997744,,speed,space,2.5098735829997167,,,,,,0.0,1.0,1.0,1.0,24.0,0.0,48.0,0.0,386.6039305830018,,,,,,,,,386.595597208001,386.9346058330011,387.7270417910004,387.7180459580013,387.7184758330004,387.7270417910004,387.7270417910004,387.7270417910004,388.4188166659988,,,,,,,,,,,,,,,,,,,,,,,,,,,,,,right,0.0,0.6889796249997744,,,,,,sub-155,1,random_dot,,
right,right,49.0,1.0,24.0,right,1.0,0.6826466250022349,,speed,space,2.5098735829997167,,,,,,0.0,1.0,1.0,1.0,24.0,1.0,49.0,1.0,388.42840262499885,,,,,,,,,388.4194261250013,389.217906291,390.01043220800057,390.0015191659986,390.0019089160014,390.01043220800057,390.01043220800057,390.01043220800057,390.6962903749991,,,,,,,,,,,,,,,,,,,,,,,,,,,,,,right,1.0,0.6826466250022349,,,,,,sub-155,1,random_dot,,
left,left,50.0,0.0,25.0,left,1.0,2.1536074579998967,,speed,space,2.5098735829997167,,,,,,0.0,1.0,1.0,1.0,25.0,0.0,50.0,0.0,390.7024652910004,,,,,,,,,390.69692083300106,391.0451156249983,391.8363481660017,391.8285352909989,391.8289662499992,391.8363481660017,391.8363481660017,391.8363481660017,393.99627574999977,,,,,,,,,,,,,,,,,,,,,,,,,,,,,,left,1.0,2.1536074579998967,,,,,,sub-155,1,random_dot,,
right,right,51.0,1.0,25.0,right,1.0,1.201708124997822,,speed,space,2.5098735829997167,,,,,,0.0,1.0,1.0,1.0,25.0,1.0,51.0,1.0,394.00562400000126,,,,,,,,,393.9970209159983,395.1950525829998,395.987221708001,395.97866837499896,395.9792180830009,395.987221708001,395.987221708001,395.987221708001,397.1956487079988,,,,,,,,,,,,,,,,,,,,,,,,,,,,,,right,1.0,1.201708124997822,,,,,,sub-155,1,random_dot,,
right,right,52.0,0.0,26.0,right,1.0,1.281767291999131,,speed,space,2.5098735829997167,,,,,,0.0,1.0,1.0,1.0,26.0,0.0,52.0,1.0,397.205079708001,,,,,,,,,397.1963929580015,397.5345905409995,398.3270643750002,398.3178122499994,398.3181959159992,398.3270643750002,398.3270643750002,398.3270643750002,399.61157708300016,,,,,,,,,,,,,,,,,,,,,,,,,,,,,,right,1.0,1.281767291999131,,,,,,sub-155,1,random_dot,,
left,left,53.0,1.0,26.0,right,0.0,1.405934124999476,,speed,space,2.5098735829997167,,,,,,0.0,1.0,1.0,1.0,26.0,1.0,53.0,0.0,399.6178462909993,,,,,,,,,399.612338125,400.8012202909995,401.5938199580014,401.5847897499989,401.5851914160012,401.5938199580014,401.5938199580014,401.5938199580014,403.0019718330004,,,,,,,,,,,,,,,,,,,,,,,,,,,,,,right,0.0,1.405934124999476,,,,,,sub-155,1,random_dot,,
left,left,54.0,0.0,27.0,left,1.0,0.9788347499998054,,speed,space,2.5098735829997167,,,,,,0.0,1.0,1.0,1.0,27.0,0.0,54.0,0.0,403.0117411249994,,,,,,,,,403.0024616250012,403.1013139579991,403.8938888750017,403.884782041001,403.885184666,403.8938888750017,403.8938888750017,403.8938888750017,404.8783162079999,,,,,,,,,,,,,,,,,,,,,,,,,,,,,,left,1.0,0.9788347499998054,,,,,,sub-155,1,random_dot,,
right,right,55.0,1.0,27.0,right,1.0,0.729162040999654,,speed,space,2.5098735829997167,,,,,,0.0,1.0,1.0,1.0,27.0,1.0,55.0,1.0,404.8871358329998,,,,,,,,,404.8789308330015,406.06747495799937,406.8605002080003,406.8516117500003,406.8521127909989,406.8605002080003,406.8605002080003,406.8605002080003,407.5959605829994,,,,,,,,,,,,,,,,,,,,,,,,,,,,,,right,1.0,0.729162040999654,,,,,,sub-155,1,random_dot,,
right,right,56.0,0.0,28.0,right,1.0,1.3663109999979497,,speed,space,2.5098735829997167,,,,,,0.0,1.0,1.0,1.0,28.0,0.0,56.0,1.0,407.60531445800007,,,,,,,,,407.59658766600114,408.39502300000095,409.1863054999994,409.17844358300135,409.1788730000008,409.1863054999994,409.1863054999994,409.1863054999994,410.5634310829992,,,,,,,,,,,,,,,,,,,,,,,,,,,,,,right,1.0,1.3663109999979497,,,,,,sub-155,1,random_dot,,
left,left,57.0,1.0,28.0,left,1.0,2.6066700000010314,,speed,space,2.5098735829997167,,,,,,0.0,1.0,1.0,1.0,28.0,1.0,57.0,0.0,410.5730838749987,,,,,,,,,410.5642079579993,410.66170174999934,411.45387166599903,411.4454132079991,411.4459652080004,411.45387166599903,411.45387166599903,411.45387166599903,414.0627777910013,,,,,,,,,,,,,,,,,,,,,,,,,,,,,,left,1.0,2.6066700000010314,,,,,,sub-155,1,random_dot,,
left,left,58.0,0.0,29.0,right,0.0,1.9042357500002252,,speed,space,2.5098735829997167,,,,,,0.0,1.0,1.0,1.0,29.0,0.0,58.0,0.0,414.0692622499992,,,,,,,,,414.06353091599885,414.16216795799846,414.9543659160008,414.9455315410014,414.94607995800106,414.9543659160008,414.9543659160008,414.9543659160008,416.8628152499987,,,,,,,,,,,,,,,,,,,,,,,,,,,,,,right,0.0,1.9042357500002252,,,,,,sub-155,1,random_dot,,
right,right,59.0,1.0,29.0,right,1.0,2.770039249997353,,speed,space,2.5098735829997167,,,,,,0.0,1.0,1.0,1.0,29.0,1.0,59.0,1.0,416.8722686660003,,,,,,,,,416.8635742080005,418.0617715410008,418.85417966599925,418.8453846660013,418.8459261659991,418.85417966599925,418.85417966599925,418.85417966599925,421.6290569999983,,,,,,,,,,,,,,,,,,,,,,,,,,,,,,right,1.0,2.770039249997353,,,,,,sub-155,1,random_dot,,
,,1.0,1.0,0.0,,,,,speed,space,2.5098735829997167,,,,,,0.0,1.0,1.0,1.0,,,,,,,,,,,,,,,,,,,,,,,,,,,,,,,,,,,,,,,,,,,,,,,,,,,,,,,,,,,,sub-155,1,random_dot,,
,,,,,,,,,,,,,,,,,,,,,,,,,,,,,,,,,,,,,,,,,,,,,,,,,,,,,,,,,,,,,,,,,,,,,,,,,,,,,421.6360053749995,421.64643941599934,426.6340958330002,sub-155,1,random_dot,,
