wordCTK,colorCTK,corrAnsCTK,congruentCTK,thisN,thisTrialN,thisRepN,keyResp_CTK.keys,keyResp_CTK.corr,keyResp_CTK.rt,keyResp_CTK.duration,wordPractice,colorPractice,corrAnsPractice,congruentPractice,respPractice.keys,respPractice.corr,respPractice.rt,respPractice.duration,word,color,corrAns,congruent,keyResp_test_run.keys,keyResp_test_run.corr,keyResp_test_run.rt,keyResp_test_run.duration,trials_CTK.thisRepN,trials_CTK.thisTrialN,trials_CTK.thisN,trials_CTK.thisIndex,trials_practice.thisRepN,trials_practice.thisTrialN,trials_practice.thisN,trials_practice.thisIndex,trials_test.thisRepN,trials_test.thisTrialN,trials_test.thisN,trials_test.thisIndex,thisRow.t,notes,instruction.started,instr_text.started,instr_image.started,instr_resp.started,instruction.stopped,instr_resp.keys,instr_resp.rt,instr_resp.duration,instr_color_to_key.started,instr_ctk.started,resp_ctk.started,instr_color_to_key.stopped,resp_ctk.keys,resp_ctk.rt,resp_ctk.duration,ITI.started,fixcross.started,fixcross.stopped,ITI.stopped,color_to_key_run.started,stimulus_CTK.started,keyResp_CTK.started,color_to_key_run.stopped,trials_CTK.keyResp_CTK.keys,trials_CTK.keyResp_CTK.corr,trials_CTK.keyResp_CTK.rt,trials_CTK.keyResp_CTK.duration,instr_practice.started,instr_practice_text.started,instr_practice_resp.started,instr_practice.stopped,instr_practice_resp.keys,instr_practice_resp.rt,instr_practice_resp.duration,practice_run.started,stimulus_practice.started,respPractice.started,practice_run.stopped,trials_practice.respPractice.keys,trials_practice.respPractice.corr,trials_practice.respPractice.rt,trials_practice.respPractice.duration,feedback.started,textFeedback.started,feedback.stopped,textFeedback.stopped,instr_test.started,instr_test_text.started,instr_test_resp.started,instr_test.stopped,instr_test_resp.keys,instr_test_resp.rt,instr_test_resp.duration,test_run.started,stimulus_test_run.started,keyResp_test_run.started,test_run.stopped,trials_test.keyResp_test_run.keys,trials_test.keyResp_test_run.corr,trials_test.keyResp_test_run.rt,trials_test.keyResp_test_run.duration,goodbye.started,textGoodbye.started,textGoodbye.stopped,goodbye.stopped,participant,session,expName,frameRate,Unnamed: 113
,,,,,,,,,,,,,,,,,,,,,,,,,,,,,,,,,,,,,,,,,0.0126791249786037,0.0222340409818571,0.0222340409818571,0.0222340409818571,12.74673845799407,space,12.686525500001151,,,,,,,,,,,,,,,,,,,,,,,,,,,,,,,,,,,,,,,,,,,,,,,,,,,,,,,,,,,sub-135,1,stroop_test,120.11495044938628,
,,,,,,,,,,,,,,,,,,,,,,,,,,,,,,,,,,,,,,,,,,,,,,,,,12.74681437498657,12.765365832980024,12.765365832980024,14.793609665997792,space,2.0257646660029422,,,,,,,,,,,,,,,,,,,,,,,,,,,,,,,,,,,,,,,,,,,,,,,,,,,,sub-135,1,stroop_test,120.11495044938628,
test,yellow,g,1.0,0.0,0.0,0.0,g,1.0,1.1869771659839898,,,,,,,,,,,,,,,,,,0.0,0.0,0.0,1.0,,,,,,,,,14.829514624987496,,,,,,,,,,,,,,,,,14.810264415980782,15.593011040997226,16.394196707988158,16.381622916000197,16.38760216598166,16.394196707988158,16.394196707988158,17.583857040997827,g,1.0,1.1869771659839898,,,,,,,,,,,,,,,,,,,,,,,,,,,,,,,,,,,,,,,,sub-135,1,stroop_test,120.11495044938628,
test,red,r,1.0,1.0,1.0,0.0,r,1.0,1.0355356659856625,,,,,,,,,,,,,,,,,,0.0,1.0,1.0,0.0,,,,,,,,,17.593552124977577,,,,,,,,,,,,,,,,,17.584349624987226,18.78179341598297,19.583480915986,19.575406791002024,19.576073457981693,19.583480915986,19.583480915986,20.626611874991795,r,1.0,1.0355356659856625,,,,,,,,,,,,,,,,,,,,,,,,,,,,,,,,,,,,,,,,sub-135,1,stroop_test,120.11495044938628,
test,blue,b,1.0,2.0,2.0,0.0,b,1.0,0.425322374998359,,,,,,,,,,,,,,,,,,0.0,2.0,2.0,2.0,,,,,,,,,20.6361961249786,,,,,,,,,,,,,,,,,20.627126707986463,21.824703457998112,22.61698208298185,22.60896129100001,22.609613665990764,22.61698208298185,22.61698208298185,23.050460874976125,b,1.0,0.425322374998359,,,,,,,,,,,,,,,,,,,,,,,,,,,,,,,,,,,,,,,,sub-135,1,stroop_test,120.11495044938628,
test,blue,b,1.0,3.0,0.0,1.0,b,1.0,0.6624070830002893,,,,,,,,,,,,,,,,,,1.0,0.0,3.0,2.0,,,,,,,,,23.059662415995263,,,,,,,,,,,,,,,,,23.05084637500113,23.39785241597565,24.19099591599661,24.18120541598182,24.18191362498328,24.19099591599661,24.19099591599661,24.86040254100226,b,1.0,0.6624070830002893,,,,,,,,,,,,,,,,,,,,,,,,,,,,,,,,,,,,,,,,sub-135,1,stroop_test,120.11495044938628,
test,red,r,1.0,4.0,1.0,1.0,r,1.0,0.5746426670229994,,,,,,,,,,,,,,,,,,1.0,1.0,4.0,0.0,,,,,,,,,24.869346999999834,,,,,,,,,,,,,,,,,24.86087020798004,25.208251290983757,25.999942333000945,25.992161000001943,25.992812582990155,25.999942333000945,25.999942333000945,26.57697391600232,r,1.0,0.5746426670229994,,,,,,,,,,,,,,,,,,,,,,,,,,,,,,,,,,,,,,,,sub-135,1,stroop_test,120.11495044938628,
test,yellow,g,1.0,5.0,2.0,1.0,g,1.0,0.4412356669781729,,,,,,,,,,,,,,,,,,1.0,2.0,5.0,1.0,,,,,,,,,26.58613233300275,,,,,,,,,,,,,,,,,26.57736941598705,27.37508749999688,28.16738699999405,28.15902887500124,28.1597451249836,28.16738699999405,28.16738699999405,28.611009457992623,g,1.0,0.4412356669781729,,,,,,,,,,,,,,,,,,,,,,,,,,,,,,,,,,,,,,,,sub-135,1,stroop_test,120.11495044938628,
test,blue,b,1.0,6.0,0.0,2.0,b,1.0,0.5488942500087433,,,,,,,,,,,,,,,,,,2.0,0.0,6.0,2.0,,,,,,,,,28.62061529100174,,,,,,,,,,,,,,,,,28.61149708298035,28.958369915984804,29.75048154097749,29.74253108300036,29.743223457975542,29.75048154097749,29.75048154097749,30.31014874999528,b,1.0,0.5488942500087433,,,,,,,,,,,,,,,,,,,,,,,,,,,,,,,,,,,,,,,,sub-135,1,stroop_test,120.11495044938628,
test,yellow,g,1.0,7.0,1.0,2.0,g,1.0,1.2146415839961264,,,,,,,,,,,,,,,,,,2.0,1.0,7.0,1.0,,,,,,,,,30.31923904098221,,,,,,,,,,,,,,,,,30.310529915994262,30.65843012498226,31.449830290977843,31.442328749981243,31.44296658298117,31.449830290977843,31.449830290977843,32.666907874983735,g,1.0,1.2146415839961264,,,,,,,,,,,,,,,,,,,,,,,,,,,,,,,,,,,,,,,,sub-135,1,stroop_test,120.11495044938628,
test,red,r,1.0,8.0,2.0,2.0,r,1.0,0.7567067920172121,,,,,,,,,,,,,,,,,,2.0,2.0,8.0,0.0,,,,,,,,,32.67767612499301,,,,,,,,,,,,,,,,,32.66729395798757,33.46527629098273,34.25808591599343,34.24876541597769,34.24948395800311,34.25808591599343,34.25808591599343,35.01727374998154,r,1.0,0.7567067920172121,,,,,,,,,,,,,,,,,,,,,,,,,,,,,,,,,,,,,,,,sub-135,1,stroop_test,120.11495044938628,
test,red,r,1.0,9.0,0.0,3.0,r,1.0,0.6454313330177683,,,,,,,,,,,,,,,,,,3.0,0.0,9.0,0.0,,,,,,,,,35.02707379098865,,,,,,,,,,,,,,,,,35.01775099997758,35.81490791597753,36.61691912499373,36.60913845797768,36.60980329097947,36.61691912499373,36.61691912499373,37.26659299997846,r,1.0,0.6454313330177683,,,,,,,,,,,,,,,,,,,,,,,,,,,,,,,,,,,,,,,,sub-135,1,stroop_test,120.11495044938628,
test,blue,b,1.0,10.0,1.0,3.0,b,1.0,0.925300790986512,,,,,,,,,,,,,,,,,,3.0,1.0,10.0,2.0,,,,,,,,,37.27759870799491,,,,,,,,,,,,,,,,,37.26713904098142,38.06534412500332,38.8667908749776,38.859239874989726,38.8599199159944,38.8667908749776,38.8667908749776,39.79456020798534,b,1.0,0.925300790986512,,,,,,,,,,,,,,,,,,,,,,,,,,,,,,,,,,,,,,,,sub-135,1,stroop_test,120.11495044938628,
test,yellow,g,1.0,11.0,2.0,3.0,g,1.0,0.5501534169889055,,,,,,,,,,,,,,,,,,3.0,2.0,11.0,1.0,,,,,,,,,39.80387341597816,,,,,,,,,,,,,,,,,39.79504579099012,40.142025749984896,40.93388349999441,40.92594362498494,40.9265931659902,40.93388349999441,40.93388349999441,41.49426083298749,g,1.0,0.5501534169889055,,,,,,,,,,,,,,,,,,,,,,,,,,,,,,,,,,,,,,,,sub-135,1,stroop_test,120.11495044938628,
,,,,,,,,,,,,,,,,,,,,,,,,,,,,,,,,,,,,,,,,,,,,,,,,,,,,,,,,,,,,,,,,,,,,41.49444279097952,41.50462974997936,41.50462974997936,45.23307583297719,space,3.725036999996519,,,,,,,,,,,,,,,,,,,,,,,,,,,,,,,,,sub-135,1,stroop_test,120.11495044938628,
,,,,0.0,0.0,0.0,,,,,gelb,blue,b,0.0,b,1.0,1.4797163749753963,,,,,,,,,,,,,,0.0,0.0,0.0,9.0,,,,,45.25520787498681,,,,,,,,,,,,,,,,,45.24645158299245,46.032220291002886,46.82922529100324,46.81607487497968,,,,,,,,,,,,,,,,46.82252224997501,46.82922529100324,46.82922529100324,48.31175833300222,b,1.0,1.4797163749753963,,48.31871795799816,48.328972749994136,49.31423712498509,,,,,,,,,,,,,,,,,,,,,sub-135,1,stroop_test,120.11495044938628,
,,,,1.0,1.0,0.0,,,,,gelb,yellow,g,1.0,g,1.0,1.1297433339932468,,,,,,,,,,,,,,0.0,1.0,1.0,11.0,,,,,49.32556216599187,,,,,,,,,,,,,,,,,49.31468104099622,50.50888212499558,51.30111299999408,51.29295283299871,,,,,,,,,,,,,,,,51.29365483298898,51.30111299999408,51.30111299999408,52.4344840409758,g,1.0,1.1297433339932468,,52.43540891597513,52.445662290992914,53.43177504098276,53.44233820799855,,,,,,,,,,,,,,,,,,,,sub-135,1,stroop_test,120.11495044938628,
,,,,2.0,2.0,0.0,,,,,rot,red,r,1.0,r,1.0,0.7305008330149576,,,,,,,,,,,,,,0.0,2.0,2.0,1.0,,,,,53.44233820799855,,,,,,,,,,,,,,,,,53.43228354098392,53.53222158298013,54.32870179097517,54.31590779099497,,,,,,,,,,,,,,,,54.321872874978,54.32870179097517,54.32870179097517,55.06156287499471,r,1.0,0.7305008330149576,,55.06213154099533,55.07273899999564,56.05998791599996,56.06599195799208,,,,,,,,,,,,,,,,,,,,sub-135,1,stroop_test,120.11495044938628,
,,,,3.0,3.0,0.0,,,,,gelb,yellow,g,1.0,g,1.0,0.6208473750157282,,,,,,,,,,,,,,0.0,3.0,3.0,10.0,,,,,56.06599195799208,,,,,,,,,,,,,,,,,56.06047324999236,56.159127749997424,56.95522079098737,56.94318000000203,,,,,,,,,,,,,,,,56.947738249989925,56.95522079098737,56.95522079098737,57.57851108297473,g,1.0,0.6208473750157282,,57.57921520798118,57.58938520797528,58.57655524997972,58.58215137498337,,,,,,,,,,,,,,,,,,,,sub-135,1,stroop_test,120.11495044938628,
,,,,4.0,4.0,0.0,,,,,blau,yellow,g,0.0,g,1.0,1.472929750016192,,,,,,,,,,,,,,0.0,4.0,4.0,7.0,,,,,58.58215137498337,,,,,,,,,,,,,,,,,58.57708233298035,59.775854832987534,60.57392595798592,60.55999008298386,,,,,,,,,,,,,,,,60.56622454099124,60.57392595798592,60.57392595798592,62.05043804098386,g,1.0,1.472929750016192,,62.05098541599,62.06126679098816,63.04986187498434,63.058946040982846,,,,,,,,,,,,,,,,,,,,sub-135,1,stroop_test,120.11495044938628,
,,,,5.0,5.0,0.0,,,,,rot,red,r,1.0,r,1.0,0.7571962919901125,,,,,,,,,,,,,,0.0,5.0,5.0,0.0,,,,,63.058946040982846,,,,,,,,,,,,,,,,,63.05039424999268,64.24980766599765,65.05586066597607,65.04335587497917,,,,,,,,,,,,,,,,65.0488247500034,65.05586066597607,65.05586066597607,65.8178809999954,r,1.0,0.7571962919901125,,65.81882633297937,65.82951999999932,66.81521095798234,66.82607041599113,,,,,,,,,,,,,,,,,,,,sub-135,1,stroop_test,120.11495044938628,
,,,,6.0,6.0,0.0,,,,,blau,blue,b,1.0,b,1.0,0.601672040997073,,,,,,,,,,,,,,0.0,6.0,6.0,6.0,,,,,66.82607041599113,,,,,,,,,,,,,,,,,66.81569562500226,66.91603004100034,67.721289374982,67.71011395798996,,,,,,,,,,,,,,,,67.71398191599292,67.721289374982,67.721289374982,68.32814916598727,b,1.0,0.601672040997073,,68.32873308297712,68.33909799999674,69.32681920798495,69.33265241599292,,,,,,,,,,,,,,,,,,,,sub-135,1,stroop_test,120.11495044938628,
,,,,7.0,7.0,0.0,,,,,rot,blue,b,0.0,b,1.0,1.2922111250227315,,,,,,,,,,,,,,0.0,7.0,7.0,2.0,,,,,69.33265241599292,,,,,,,,,,,,,,,,,69.32727895799326,70.12595358298859,70.92144129099324,70.91022604098544,,,,,,,,,,,,,,,,70.91400954098208,70.92144129099324,70.92144129099324,72.21778104099212,b,1.0,1.2922111250227315,,72.21834687498631,72.22875112498878,73.21549499998218,73.2263030000031,,,,,,,,,,,,,,,,,,,,sub-135,1,stroop_test,120.11495044938628,
,,,,8.0,8.0,0.0,,,,,gelb,red,r,0.0,r,1.0,1.9215917919937056,,,,,,,,,,,,,,0.0,8.0,8.0,8.0,,,,,73.2263030000031,,,,,,,,,,,,,,,,,73.21593754098285,73.56627433298854,74.36219341598917,74.34998649999034,,,,,,,,,,,,,,,,74.35463924999931,74.36219341598917,74.36219341598917,76.2863152079808,r,1.0,1.9215917919937056,,76.28703137498815,76.29669445799664,77.28246345798834,77.29309229098726,,,,,,,,,,,,,,,,,,,,sub-135,1,stroop_test,120.11495044938628,
,,,,9.0,9.0,0.0,,,,,blau,blue,b,1.0,b,1.0,0.8093614169920329,,,,,,,,,,,,,,0.0,9.0,9.0,5.0,,,,,77.29309229098726,,,,,,,,,,,,,,,,,77.28297083298094,77.38246637498378,78.17651466600364,78.16553374999785,,,,,,,,,,,,,,,,78.16927754099015,78.17651466600364,78.17651466600364,78.99436433298979,b,1.0,0.8093614169920329,,78.9948545829975,79.00370579099399,79.99373791599646,79.99959399999352,,,,,,,,,,,,,,,,,,,,sub-135,1,stroop_test,120.11495044938628,
,,,,10.0,10.0,0.0,,,,,rot,yellow,g,0.0,g,1.0,1.971178375009913,,,,,,,,,,,,,,0.0,10.0,10.0,3.0,,,,,79.99959399999352,,,,,,,,,,,,,,,,,79.99418891599635,80.34335995800211,81.13879149997956,81.12713995800004,,,,,,,,,,,,,,,,81.13100724999094,81.13879149997956,81.13879149997956,83.11246062497958,g,1.0,1.971178375009913,,83.11318749998463,83.12326774999383,84.1108505000011,84.11718004097929,,,,,,,,,,,,,,,,,,,,sub-135,1,stroop_test,120.11495044938628,
,,,,11.0,11.0,0.0,,,,,blau,red,r,0.0,r,1.0,0.8833588330016937,,,,,,,,,,,,,,0.0,11.0,11.0,4.0,,,,,84.11718004097929,,,,,,,,,,,,,,,,,84.11143370799255,84.45999937498709,85.25544258300215,85.2439295410004,,,,,,,,,,,,,,,,85.24832858299487,85.25544258300215,85.25544258300215,86.1448580409924,r,1.0,0.8833588330016937,,86.1454287910019,86.15615837500081,87.14389941599802,87.14977320798789,,,,,,,,,,,,,,,,,,,,sub-135,1,stroop_test,120.11495044938628,
,,,,12.0,0.0,1.0,,,,,rot,yellow,g,0.0,g,1.0,1.9307918330014215,,,,,,,,,,,,,,1.0,0.0,12.0,3.0,,,,,87.14977320798789,,,,,,,,,,,,,,,,,87.1443871659867,87.94346416599001,88.73941304098116,88.7272628749779,,,,,,,,,,,,,,,,88.73181087497505,88.73941304098116,88.73941304098116,90.67856054098228,g,1.0,1.9307918330014215,,90.67913604099886,90.6888495000021,91.6774606659892,91.6832382499997,,,,,,,,,,,,,,,,,,,,sub-135,1,stroop_test,120.11495044938628,
,,,,13.0,1.0,1.0,,,,,rot,red,r,1.0,r,1.0,0.6600065000238828,,,,,,,,,,,,,,1.0,1.0,13.0,1.0,,,,,91.6832382499997,,,,,,,,,,,,,,,,,91.67791245799162,91.77695529098855,92.56892766599776,92.5611109159945,,,,,,,,,,,,,,,,92.56191191598192,92.56892766599776,92.56892766599776,93.2341203329852,r,1.0,0.6600065000238828,,93.23469329098587,93.24543324997649,94.23264595799264,94.24358695797856,,,,,,,,,,,,,,,,,,,,sub-135,1,stroop_test,120.11495044938628,
,,,,14.0,2.0,1.0,,,,,gelb,blue,b,0.0,b,1.0,1.4584299579728397,,,,,,,,,,,,,,1.0,2.0,14.0,9.0,,,,,94.24358695797856,,,,,,,,,,,,,,,,,94.23310137499357,94.33357820799574,95.12906754098368,95.11723849998089,,,,,,,,,,,,,,,,95.1209498749813,95.12906754098368,95.12906754098368,96.595516707981,b,1.0,1.4584299579728397,,96.59610166598576,96.60645970798214,97.59432291597476,97.60020166597678,,,,,,,,,,,,,,,,,,,,sub-135,1,stroop_test,120.11495044938628,
,,,,15.0,3.0,1.0,,,,,blau,blue,b,1.0,b,1.0,1.1682599170017056,,,,,,,,,,,,,,1.0,3.0,15.0,6.0,,,,,97.60020166597678,,,,,,,,,,,,,,,,,97.5947858330037,98.3936676250014,99.18836429098155,99.17756358298357,,,,,,,,,,,,,,,,99.18126866599778,99.18836429098155,99.18836429098155,100.36261558299884,b,1.0,1.1682599170017056,,100.36333824999748,100.3741506660008,101.36108345800312,101.3668965830002,,,,,,,,,,,,,,,,,,,,sub-135,1,stroop_test,120.11495044938628,
,,,,16.0,4.0,1.0,,,,,blau,blue,b,1.0,b,1.0,0.6783627080149017,,,,,,,,,,,,,,1.0,4.0,16.0,5.0,,,,,101.3668965830002,,,,,,,,,,,,,,,,,101.36153416597516,101.46052970798335,102.2526648749772,102.24458583298838,,,,,,,,,,,,,,,,102.24530812498416,102.2526648749772,102.2526648749772,102.93535595797584,b,1.0,0.6783627080149017,,102.93606579100016,102.94612470798891,103.93333270799484,103.94379241598654,,,,,,,,,,,,,,,,,,,,sub-135,1,stroop_test,120.11495044938628,
,,,,17.0,5.0,1.0,,,,,blau,yellow,g,0.0,g,1.0,0.88117891701404,,,,,,,,,,,,,,1.0,5.0,17.0,7.0,,,,,103.94379241598654,,,,,,,,,,,,,,,,,103.93385924998438,104.73424454100314,105.53567487499096,105.5278697909962,,,,,,,,,,,,,,,,105.52853320798022,105.53567487499096,105.53567487499096,106.41931495798052,g,1.0,0.88117891701404,,106.41987912499462,106.429634332977,107.4183583749982,107.42696129099932,,,,,,,,,,,,,,,,,,,,sub-135,1,stroop_test,120.11495044938628,
,,,,18.0,6.0,1.0,,,,,blau,red,r,0.0,r,1.0,0.9240869590139482,,,,,,,,,,,,,,1.0,6.0,18.0,4.0,,,,,107.42696129099932,,,,,,,,,,,,,,,,,107.41883816599147,108.6169977079844,109.4194670409779,109.41131899997708,,,,,,,,,,,,,,,,109.41197937499965,109.4194670409779,109.4194670409779,110.34620112497942,r,1.0,0.9240869590139482,,110.34690833298372,110.35686099997838,111.34454129097868,111.35029979099636,,,,,,,,,,,,,,,,,,,,sub-135,1,stroop_test,120.11495044938628,
,,,,19.0,7.0,1.0,,,,,rot,blue,b,0.0,b,1.0,1.1096233749995008,,,,,,,,,,,,,,1.0,7.0,19.0,2.0,,,,,111.35029979099636,,,,,,,,,,,,,,,,,111.34499591597704,111.44409199999065,112.23905362500228,112.22808824997628,,,,,,,,,,,,,,,,112.23171112500133,112.23905362500228,112.23905362500228,113.3572168329847,b,1.0,1.1096233749995008,,113.35797108299448,113.3673469159985,114.36099349998403,,,,,,,,,,,,,,,,,,,,,sub-135,1,stroop_test,120.11495044938628,
,,,,20.0,8.0,1.0,,,,,rot,red,r,1.0,r,1.0,0.6347898750100285,,,,,,,,,,,,,,1.0,8.0,20.0,0.0,,,,,114.36619649999191,,,,,,,,,,,,,,,,,114.36145254099392,114.70099662497525,115.49290620797548,115.48489354099728,,,,,,,,,,,,,,,,115.48558162499104,115.49290620797548,115.49290620797548,116.13027233298637,r,1.0,0.6347898750100285,,116.13092787499772,116.14146708298358,117.12819708298775,117.1341353750031,,,,,,,,,,,,,,,,,,,,sub-135,1,stroop_test,120.11495044938628,
,,,,21.0,9.0,1.0,,,,,gelb,red,r,0.0,r,1.0,0.754106167005375,,,,,,,,,,,,,,1.0,9.0,21.0,8.0,,,,,117.1341353750031,,,,,,,,,,,,,,,,,117.12865929098916,117.22773804099415,118.02326812499086,118.01157312499708,,,,,,,,,,,,,,,,118.0161457079812,118.02326812499086,118.02326812499086,118.7797585829976,r,1.0,0.754106167005375,,118.78033358298126,118.79074508298072,119.77819283297868,119.78395541600185,,,,,,,,,,,,,,,,,,,,sub-135,1,stroop_test,120.11495044938628,
,,,,22.0,10.0,1.0,,,,,gelb,yellow,g,1.0,g,1.0,0.6185480410058517,,,,,,,,,,,,,,1.0,10.0,22.0,10.0,,,,,119.78395541600185,,,,,,,,,,,,,,,,,119.77864908298945,120.1273623329762,120.91966512499494,120.91158862499287,,,,,,,,,,,,,,,,120.91228299998328,120.91966512499494,120.91966512499494,121.54615791598916,g,1.0,0.6185480410058517,,121.54686129098992,121.5576769579784,122.5451165830018,122.55063904100098,,,,,,,,,,,,,,,,,,,,sub-135,1,stroop_test,120.11495044938628,
,,,,23.0,11.0,1.0,,,,,gelb,yellow,g,1.0,g,1.0,0.8378641250019427,,,,,,,,,,,,,,1.0,11.0,23.0,11.0,,,,,122.55063904100098,,,,,,,,,,,,,,,,,122.54558099998394,123.74452241600376,124.53609495799174,124.52845387498382,,,,,,,,,,,,,,,,124.52909045800334,124.53609495799174,124.53609495799174,125.3796480409801,g,1.0,0.8378641250019427,,125.38034987499124,125.39090791597846,126.37866604098237,126.38642795800116,,,,,,,,,,,,,,,,,,,,sub-135,1,stroop_test,120.11495044938628,
,,,,,,,,,,,,,,,,,,,,,,,,,,,,,,,,,,,,,,,,,,,,,,,,,,,,,,,,,,,,,,,,,,,,,,,,,,,,,,,,,,,,,,,126.37886404097662,126.38642795800116,126.38642795800116,130.76363416598178,space,4.365828084002715,,,,,,,,,,,,,,sub-135,1,stroop_test,120.11495044938628,
,,,,0.0,0.0,0.0,,,,,,,,,,,,,rot,yellow,g,0.0,g,1.0,0.8501455419755075,,,,,,,,,,0.0,0.0,0.0,3.0,130.78913470800035,,,,,,,,,,,,,,,,,130.78013112497865,131.11130987497745,131.90716079098638,131.89535749997594,,,,,,,,,,,,,,,,,,,,,,,,,,,,,,,,,,,131.89959941597772,131.90716079098638,131.90716079098638,132.76354829099728,g,1.0,0.8501455419755075,,,,,,sub-135,1,stroop_test,120.11495044938628,
,,,,1.0,1.0,0.0,,,,,,,,,,,,,gelb,blue,b,0.0,b,1.0,1.029476916999556,,,,,,,,,,0.0,1.0,1.0,9.0,132.77277033298742,,,,,,,,,,,,,,,,,132.76399779098574,133.11144479099312,133.90650141600054,133.89526999997906,,,,,,,,,,,,,,,,,,,,,,,,,,,,,,,,,,,133.89919370799907,133.90650141600054,133.90650141600054,134.94690595800057,b,1.0,1.029476916999556,,,,,,sub-135,1,stroop_test,120.11495044938628,
,,,,2.0,2.0,0.0,,,,,,,,,,,,,blau,yellow,g,0.0,g,1.0,1.142467708006734,,,,,,,,,,0.0,2.0,2.0,7.0,134.95609883297584,,,,,,,,,,,,,,,,,134.9474557909998,135.04427600000054,135.84044879098656,135.8289047909784,,,,,,,,,,,,,,,,,,,,,,,,,,,,,,,,,,,135.8333190830017,135.84044879098656,135.84044879098656,136.98596858300152,g,1.0,1.142467708006734,,,,,,sub-135,1,stroop_test,120.11495044938628,
,,,,3.0,3.0,0.0,,,,,,,,,,,,,blau,blue,b,1.0,b,1.0,0.7516609579906799,,,,,,,,,,0.0,3.0,3.0,5.0,137.01112954100245,,,,,,,,,,,,,,,,,136.98640545798116,137.0851587909856,137.87761799999862,137.8682192080014,,,,,,,,,,,,,,,,,,,,,,,,,,,,,,,,,,,137.86889658297878,137.87761799999862,137.87761799999862,138.63524391598185,b,1.0,0.7516609579906799,,,,,,sub-135,1,stroop_test,120.11495044938628,
,,,,4.0,4.0,0.0,,,,,,,,,,,,,blau,red,r,0.0,r,1.0,0.6007266250089742,,,,,,,,,,0.0,4.0,4.0,4.0,138.64428374997806,,,,,,,,,,,,,,,,,138.6356824579998,139.8346100409981,140.62767637497743,140.61858579100226,,,,,,,,,,,,,,,,,,,,,,,,,,,,,,,,,,,140.61929904099088,140.62767637497743,140.62767637497743,141.23090416597552,r,1.0,0.6007266250089742,,,,,,sub-135,1,stroop_test,120.11495044938628,
,,,,5.0,5.0,0.0,,,,,,,,,,,,,blau,blue,b,1.0,b,1.0,0.9623868329799734,,,,,,,,,,0.0,5.0,5.0,6.0,141.24028474997613,,,,,,,,,,,,,,,,,141.23145824999665,141.57817162497668,142.3705679999839,142.3622709159972,,,,,,,,,,,,,,,,,,,,,,,,,,,,,,,,,,,142.36297820799518,142.3705679999839,142.3705679999839,143.33689845798654,b,1.0,0.9623868329799734,,,,,,sub-135,1,stroop_test,120.11495044938628,
,,,,6.0,6.0,0.0,,,,,,,,,,,,,rot,red,r,1.0,r,1.0,0.7009079999988899,,,,,,,,,,0.0,6.0,6.0,1.0,143.34649912497844,,,,,,,,,,,,,,,,,143.33734616599395,144.5353526249819,145.3404152909934,145.32913391597685,,,,,,,,,,,,,,,,,,,,,,,,,,,,,,,,,,,145.3329802909866,145.3404152909934,145.3404152909934,146.0469614159956,r,1.0,0.7009079999988899,,,,,,sub-135,1,stroop_test,120.11495044938628,
,,,,7.0,7.0,0.0,,,,,,,,,,,,,rot,blue,b,0.0,b,1.0,1.1974394580174703,,,,,,,,,,0.0,7.0,7.0,2.0,146.056633375003,,,,,,,,,,,,,,,,,146.04751891599153,146.14489508297993,146.93763220799156,146.92936391598778,,,,,,,,,,,,,,,,,,,,,,,,,,,,,,,,,,,146.9300749579852,146.93763220799156,146.93763220799156,148.16250683300314,b,1.0,1.1974394580174703,,,,,,sub-135,1,stroop_test,120.11495044938628,
,,,,8.0,8.0,0.0,,,,,,,,,,,,,gelb,yellow,g,1.0,g,1.0,0.6671856249740813,,,,,,,,,,0.0,8.0,8.0,11.0,148.17849637498148,,,,,,,,,,,,,,,,,148.1630692909821,148.95131020798,149.74564741598442,149.73474366599112,,,,,,,,,,,,,,,,,,,,,,,,,,,,,,,,,,,149.73834666598125,149.74564741598442,149.74564741598442,150.41939908298082,g,1.0,0.6671856249740813,,,,,,sub-135,1,stroop_test,120.11495044938628,
,,,,9.0,9.0,0.0,,,,,,,,,,,,,gelb,red,r,0.0,r,1.0,0.6008574169827625,,,,,,,,,,0.0,9.0,9.0,8.0,150.42885887497687,,,,,,,,,,,,,,,,,150.41983408297529,151.2181432499783,152.01993399998173,152.0123671659967,,,,,,,,,,,,,,,,,,,,,,,,,,,,,,,,,,,152.01302416599356,152.01993399998173,152.01993399998173,152.63071458297782,r,1.0,0.6008574169827625,,,,,,sub-135,1,stroop_test,120.11495044938628,
,,,,10.0,10.0,0.0,,,,,,,,,,,,,gelb,yellow,g,1.0,g,1.0,0.9174349579843692,,,,,,,,,,0.0,10.0,10.0,10.0,152.6401669579791,,,,,,,,,,,,,,,,,152.6311600409972,152.9786307909817,153.76998920799815,153.76245654097875,,,,,,,,,,,,,,,,,,,,,,,,,,,,,,,,,,,153.7631044999871,153.76998920799815,153.76998920799815,154.6972789579886,g,1.0,0.9174349579843692,,,,,,sub-135,1,stroop_test,120.11495044938628,
,,,,11.0,11.0,0.0,,,,,,,,,,,,,rot,red,r,1.0,r,1.0,0.8884848750021774,,,,,,,,,,0.0,11.0,11.0,0.0,154.70640554098645,,,,,,,,,,,,,,,,,154.69772866598214,154.79557837499306,155.5899272079987,155.57921858297777,,,,,,,,,,,,,,,,,,,,,,,,,,,,,,,,,,,155.58256095799152,155.5899272079987,155.5899272079987,156.48047712497646,r,1.0,0.8884848750021774,,,,,,sub-135,1,stroop_test,120.11495044938628,
,,,,12.0,0.0,1.0,,,,,,,,,,,,,blau,blue,b,1.0,b,1.0,0.7433293339854572,,,,,,,,,,1.0,0.0,12.0,6.0,156.48967124999035,,,,,,,,,,,,,,,,,156.48092770797666,156.82883279098314,157.62310308299493,157.61257479098276,,,,,,,,,,,,,,,,,,,,,,,,,,,,,,,,,,,157.6158871249936,157.62310308299493,157.62310308299493,158.3703979580023,b,1.0,0.7433293339854572,,,,,,sub-135,1,stroop_test,120.11495044938628,
,,,,13.0,1.0,1.0,,,,,,,,,,,,,gelb,yellow,g,1.0,g,1.0,0.8822010000003502,,,,,,,,,,1.0,1.0,13.0,11.0,158.38058958298643,,,,,,,,,,,,,,,,,158.37094079097733,159.16892174998063,159.97573358297814,159.96295337498304,,,,,,,,,,,,,,,,,,,,,,,,,,,,,,,,,,,159.96813999998267,159.97573358297814,159.97573358297814,160.86427408299642,g,1.0,0.8822010000003502,,,,,,sub-135,1,stroop_test,120.11495044938628,
,,,,14.0,2.0,1.0,,,,,,,,,,,,,rot,red,r,1.0,r,1.0,0.6338502910220996,,,,,,,,,,1.0,2.0,14.0,1.0,160.87365549997776,,,,,,,,,,,,,,,,,160.86473416598164,161.21217762498418,162.00750737497583,161.9961389999953,,,,,,,,,,,,,,,,,,,,,,,,,,,,,,,,,,,161.9998517909844,162.00750737497583,162.00750737497583,162.64766233297996,r,1.0,0.6338502910220996,,,,,,sub-135,1,stroop_test,120.11495044938628,
,,,,15.0,3.0,1.0,,,,,,,,,,,,,gelb,blue,b,0.0,b,1.0,0.9846287909895182,,,,,,,,,,1.0,3.0,15.0,9.0,162.65706633299123,,,,,,,,,,,,,,,,,162.64820045800298,162.7455735830008,163.54180124998675,163.5297556250007,,,,,,,,,,,,,,,,,,,,,,,,,,,,,,,,,,,163.53464124997845,163.54180124998675,163.54180124998675,164.5304289579799,b,1.0,0.9846287909895182,,,,,,sub-135,1,stroop_test,120.11495044938628,
,,,,16.0,4.0,1.0,,,,,,,,,,,,,gelb,red,r,0.0,r,1.0,1.7110450830077752,,,,,,,,,,1.0,4.0,16.0,8.0,164.53913274998197,,,,,,,,,,,,,,,,,164.53088350000326,165.72873295799943,166.52035145799164,166.51292841599206,,,,,,,,,,,,,,,,,,,,,,,,,,,,,,,,,,,166.51357724997797,166.52035145799164,166.52035145799164,168.237426415988,r,1.0,1.7110450830077752,,,,,,sub-135,1,stroop_test,120.11495044938628,
,,,,17.0,5.0,1.0,,,,,,,,,,,,,blau,yellow,g,0.0,g,1.0,0.82473162500537,,,,,,,,,,1.0,5.0,17.0,7.0,168.24776604099316,,,,,,,,,,,,,,,,,168.23799795800005,168.58521983298124,169.37887983297696,169.36835704097757,,,,,,,,,,,,,,,,,,,,,,,,,,,,,,,,,,,169.3720770829823,169.37887983297696,169.37887983297696,170.21456704099546,g,1.0,0.82473162500537,,,,,,sub-135,1,stroop_test,120.11495044938628,
,,,,18.0,6.0,1.0,,,,,,,,,,,,,blau,red,r,0.0,r,1.0,0.7886704999837093,,,,,,,,,,1.0,6.0,18.0,4.0,170.22421458299505,,,,,,,,,,,,,,,,,170.21516749999137,171.01246837500366,171.80441229097778,171.79624624998542,,,,,,,,,,,,,,,,,,,,,,,,,,,,,,,,,,,171.7969550830021,171.80441229097778,171.80441229097778,172.59771324999747,r,1.0,0.7886704999837093,,,,,,sub-135,1,stroop_test,120.11495044938628,
,,,,19.0,7.0,1.0,,,,,,,,,,,,,rot,blue,b,0.0,b,1.0,0.454271583002992,,,,,,,,,,1.0,7.0,19.0,2.0,172.60699979099445,,,,,,,,,,,,,,,,,172.5982579579868,173.79594779098989,174.59214495797642,174.58015329099726,,,,,,,,,,,,,,,,,,,,,,,,,,,,,,,,,,,174.58436612499645,174.59214495797642,174.59214495797642,175.05476483298116,b,1.0,0.454271583002992,,,,,,sub-135,1,stroop_test,120.11495044938628,
,,,,20.0,8.0,1.0,,,,,,,,,,,,,rot,red,r,1.0,r,1.0,0.6954196659789886,,,,,,,,,,1.0,8.0,20.0,0.0,175.06455270797596,,,,,,,,,,,,,,,,,175.0553076659853,176.2529142909916,177.0548424159933,177.0468837079825,,,,,,,,,,,,,,,,,,,,,,,,,,,,,,,,,,,177.04756799997995,177.0548424159933,177.0548424159933,177.7521744580008,r,1.0,0.6954196659789886,,,,,,sub-135,1,stroop_test,120.11495044938628,
,,,,21.0,9.0,1.0,,,,,,,,,,,,,gelb,yellow,g,1.0,g,1.0,0.6666466250026133,,,,,,,,,,1.0,9.0,21.0,10.0,177.76207566598896,,,,,,,,,,,,,,,,,177.75237195799127,177.85113695799373,178.64620149999973,178.6352799999877,,,,,,,,,,,,,,,,,,,,,,,,,,,,,,,,,,,178.6390394999762,178.64620149999973,178.64620149999973,179.3191115410009,g,1.0,0.6666466250026133,,,,,,sub-135,1,stroop_test,120.11495044938628,
,,,,22.0,10.0,1.0,,,,,,,,,,,,,rot,yellow,g,0.0,g,1.0,0.7612967079912778,,,,,,,,,,1.0,10.0,22.0,3.0,179.3282759579888,,,,,,,,,,,,,,,,,179.3195158749877,180.51957733297604,181.31493766600036,181.30271158297543,,,,,,,,,,,,,,,,,,,,,,,,,,,,,,,,,,,181.30696483299835,181.31493766600036,181.31493766600036,182.08150083298096,g,1.0,0.7612967079912778,,,,,,sub-135,1,stroop_test,120.11495044938628,
,,,,23.0,11.0,1.0,,,,,,,,,,,,,blau,blue,b,1.0,b,1.0,0.6731617499899585,,,,,,,,,,1.0,11.0,23.0,5.0,182.0910553330032,,,,,,,,,,,,,,,,,182.08197187498445,182.17902866599616,182.9743296660017,182.9633769999782,,,,,,,,,,,,,,,,,,,,,,,,,,,,,,,,,,,182.96713987499243,182.9743296660017,182.9743296660017,183.65382537498957,b,1.0,0.6731617499899585,,,,,,sub-135,1,stroop_test,120.11495044938628,
,,,,24.0,0.0,2.0,,,,,,,,,,,,,rot,blue,b,0.0,b,1.0,1.1049241250148043,,,,,,,,,,2.0,0.0,24.0,2.0,183.66297033298176,,,,,,,,,,,,,,,,,183.6543482079869,184.00277137500237,184.80822670800265,184.79693199999747,,,,,,,,,,,,,,,,,,,,,,,,,,,,,,,,,,,184.80071687497548,184.80822670800265,184.80822670800265,185.92542029099425,b,1.0,1.1049241250148043,,,,,,sub-135,1,stroop_test,120.11495044938628,
,,,,25.0,1.0,2.0,,,,,,,,,,,,,blau,yellow,g,0.0,g,1.0,1.0693980829964858,,,,,,,,,,2.0,1.0,25.0,7.0,185.93148737499723,,,,,,,,,,,,,,,,,185.9258734159812,187.1195155409805,187.92417024998576,187.91339758297545,,,,,,,,,,,,,,,,,,,,,,,,,,,,,,,,,,,187.91700024998863,187.92417024998576,187.92417024998576,188.9980737909791,g,1.0,1.0693980829964858,,,,,,sub-135,1,stroop_test,120.11495044938628,
,,,,26.0,2.0,2.0,,,,,,,,,,,,,gelb,red,r,0.0,r,1.0,0.5755544580169953,,,,,,,,,,2.0,2.0,26.0,8.0,189.0071172500029,,,,,,,,,,,,,,,,,188.99852349999128,189.09615212498463,189.8921573330008,189.88004108300083,,,,,,,,,,,,,,,,,,,,,,,,,,,,,,,,,,,189.8846498749917,189.8921573330008,189.8921573330008,190.47045249998337,r,1.0,0.5755544580169953,,,,,,sub-135,1,stroop_test,120.11495044938628,
,,,,27.0,3.0,2.0,,,,,,,,,,,,,gelb,yellow,g,1.0,g,1.0,0.9518862499971874,,,,,,,,,,2.0,3.0,27.0,10.0,190.47925433298224,,,,,,,,,,,,,,,,,190.47087574997568,191.2696463750035,192.0712184579752,192.0636571249925,,,,,,,,,,,,,,,,,,,,,,,,,,,,,,,,,,,192.06433187497896,192.0712184579752,192.0712184579752,193.03193770800132,g,1.0,0.9518862499971874,,,,,,sub-135,1,stroop_test,120.11495044938628,
,,,,28.0,4.0,2.0,,,,,,,,,,,,,gelb,blue,b,0.0,b,1.0,0.7668377499794587,,,,,,,,,,2.0,4.0,28.0,9.0,193.0412439579959,,,,,,,,,,,,,,,,,193.03249616597896,193.1292750829889,193.9209350829769,193.91350166598568,,,,,,,,,,,,,,,,,,,,,,,,,,,,,,,,,,,193.91414466599235,193.9209350829769,193.9209350829769,194.69812866600117,b,1.0,0.7668377499794587,,,,,,sub-135,1,stroop_test,120.11495044938628,
,,,,29.0,5.0,2.0,,,,,,,,,,,,,rot,red,r,1.0,r,1.0,0.7307272920152172,,,,,,,,,,2.0,5.0,29.0,0.0,194.70723116598677,,,,,,,,,,,,,,,,,194.69857433298603,194.795876624994,195.59149691599305,195.58045670797583,,,,,,,,,,,,,,,,,,,,,,,,,,,,,,,,,,,195.58404458299628,195.59149691599305,195.59149691599305,196.33157795798616,r,1.0,0.7307272920152172,,,,,,sub-135,1,stroop_test,120.11495044938628,
,,,,30.0,6.0,2.0,,,,,,,,,,,,,rot,yellow,g,0.0,g,1.0,0.8371971249871422,,,,,,,,,,2.0,6.0,30.0,3.0,196.34081512497505,,,,,,,,,,,,,,,,,196.33204808298612,196.4301817909873,197.22217170798103,197.213898624992,,,,,,,,,,,,,,,,,,,,,,,,,,,,,,,,,,,197.2146095409989,197.22217170798103,197.22217170798103,198.06495862497832,g,1.0,0.8371971249871422,,,,,,sub-135,1,stroop_test,120.11495044938628,
,,,,31.0,7.0,2.0,,,,,,,,,,,,,blau,red,r,0.0,r,1.0,1.6918221669911873,,,,,,,,,,2.0,7.0,31.0,4.0,198.07444529098572,,,,,,,,,,,,,,,,,198.0655064159946,198.4132622079924,199.20826691598631,199.1971888749977,,,,,,,,,,,,,,,,,,,,,,,,,,,,,,,,,,,199.2009488329932,199.20826691598631,199.20826691598631,200.9041716659849,r,1.0,1.6918221669911873,,,,,,sub-135,1,stroop_test,120.11495044938628,
,,,,32.0,8.0,2.0,,,,,,,,,,,,,rot,red,r,1.0,r,1.0,1.4710224169830326,,,,,,,,,,2.0,8.0,32.0,1.0,200.91366549997477,,,,,,,,,,,,,,,,,200.9046052499907,202.1036955829768,202.90959683299295,202.89755875000264,,,,,,,,,,,,,,,,,,,,,,,,,,,,,,,,,,,202.90206145797856,202.90959683299295,202.90959683299295,204.38876254099887,r,1.0,1.4710224169830326,,,,,,sub-135,1,stroop_test,120.11495044938628,
,,,,33.0,9.0,2.0,,,,,,,,,,,,,gelb,yellow,g,1.0,g,1.0,1.2406758329889271,,,,,,,,,,2.0,9.0,33.0,11.0,204.39798724997672,,,,,,,,,,,,,,,,,204.38921279099304,204.48621895798715,205.27973679098068,205.2691796250001,,,,,,,,,,,,,,,,,,,,,,,,,,,,,,,,,,,205.27282849999028,205.27973679098068,205.27973679098068,206.5326251660008,g,1.0,1.2406758329889271,,,,,,sub-135,1,stroop_test,120.11495044938628,
,,,,34.0,10.0,2.0,,,,,,,,,,,,,blau,blue,b,1.0,b,1.0,0.5000391249777749,,,,,,,,,,2.0,10.0,34.0,5.0,206.54666762499252,,,,,,,,,,,,,,,,,206.53307370797847,206.62970224997844,207.42480391598656,207.41411974999937,,,,,,,,,,,,,,,,,,,,,,,,,,,,,,,,,,,207.41770841600373,207.42480391598656,207.42480391598656,207.93196124999668,b,1.0,0.5000391249777749,,,,,,sub-135,1,stroop_test,120.11495044938628,
,,,,35.0,11.0,2.0,,,,,,,,,,,,,blau,blue,b,1.0,b,1.0,0.6082503749930765,,,,,,,,,,2.0,11.0,35.0,6.0,207.94125604099827,,,,,,,,,,,,,,,,,207.9323999159969,208.28011279099155,209.0721766249917,209.0642319999752,,,,,,,,,,,,,,,,,,,,,,,,,,,,,,,,,,,209.0648777500028,209.0721766249917,209.0721766249917,209.6824626250018,b,1.0,0.6082503749930765,,,,,,sub-135,1,stroop_test,120.11495044938628,
,,,,36.0,0.0,3.0,,,,,,,,,,,,,rot,blue,b,0.0,b,1.0,0.5498976669914555,,,,,,,,,,3.0,0.0,36.0,2.0,209.69117016598463,,,,,,,,,,,,,,,,,209.68290079099825,209.7797232909943,210.5750306249829,210.56430158298463,,,,,,,,,,,,,,,,,,,,,,,,,,,,,,,,,,,210.567724833003,210.5750306249829,210.5750306249829,211.13224383298075,b,1.0,0.5498976669914555,,,,,,sub-135,1,stroop_test,120.11495044938628,
,,,,37.0,1.0,3.0,,,,,,,,,,,,,blau,blue,b,1.0,b,1.0,0.4208860840008128,,,,,,,,,,3.0,1.0,37.0,5.0,211.142522249982,,,,,,,,,,,,,,,,,211.13298591598868,211.2302684159949,212.02640904099096,212.0145062499796,,,,,,,,,,,,,,,,,,,,,,,,,,,,,,,,,,,212.0191007499816,212.02640904099096,212.02640904099096,212.45540716598043,b,1.0,0.4208860840008128,,,,,,sub-135,1,stroop_test,120.11495044938628,
,,,,38.0,2.0,3.0,,,,,,,,,,,,,gelb,yellow,g,1.0,g,1.0,0.7464043750078417,,,,,,,,,,3.0,2.0,38.0,10.0,212.4798927079828,,,,,,,,,,,,,,,,,212.45582541599288,213.65340929100057,214.4584501249774,214.44756520798543,,,,,,,,,,,,,,,,,,,,,,,,,,,,,,,,,,,214.4513447499776,214.4584501249774,214.4584501249774,215.2157785409945,g,1.0,0.7464043750078417,,,,,,sub-135,1,stroop_test,120.11495044938628,
,,,,39.0,3.0,3.0,,,,,,,,,,,,,gelb,yellow,g,1.0,g,1.0,0.4709226659906562,,,,,,,,,,3.0,3.0,39.0,11.0,215.22592520798207,,,,,,,,,,,,,,,,,215.21650241597672,215.56378624998612,216.3557227079873,216.3475793749967,,,,,,,,,,,,,,,,,,,,,,,,,,,,,,,,,,,216.34824216598645,216.3557227079873,216.3557227079873,216.83258762498733,g,1.0,0.4709226659906562,,,,,,sub-135,1,stroop_test,120.11495044938628,
,,,,40.0,4.0,3.0,,,,,,,,,,,,,rot,red,r,1.0,r,1.0,0.5605926249991171,,,,,,,,,,3.0,4.0,40.0,1.0,216.84154816597584,,,,,,,,,,,,,,,,,216.8330624160008,217.18023783300305,217.9778447499848,217.96461049999925,,,,,,,,,,,,,,,,,,,,,,,,,,,,,,,,,,,217.97010879099253,217.9778447499848,217.9778447499848,218.54924475000007,r,1.0,0.5605926249991171,,,,,,sub-135,1,stroop_test,120.11495044938628,
,,,,41.0,5.0,3.0,,,,,,,,,,,,,gelb,red,r,0.0,r,1.0,0.6179737500206102,,,,,,,,,,3.0,5.0,41.0,8.0,218.5587993329973,,,,,,,,,,,,,,,,,218.5497943329974,218.64713991599277,219.4415374999808,219.43114429098205,,,,,,,,,,,,,,,,,,,,,,,,,,,,,,,,,,,219.43457650000343,219.4415374999808,219.4415374999808,220.0659097909811,r,1.0,0.6179737500206102,,,,,,sub-135,1,stroop_test,120.11495044938628,
,,,,42.0,6.0,3.0,,,,,,,,,,,,,blau,red,r,0.0,r,1.0,0.4465396669984329,,,,,,,,,,3.0,6.0,42.0,4.0,220.07603324999215,,,,,,,,,,,,,,,,,220.0665794579836,220.41385666598217,221.2107002499979,221.1983039999905,,,,,,,,,,,,,,,,,,,,,,,,,,,,,,,,,,,221.20318608300292,221.2107002499979,221.2107002499979,221.6661015409918,r,1.0,0.4465396669984329,,,,,,sub-135,1,stroop_test,120.11495044938628,
,,,,43.0,7.0,3.0,,,,,,,,,,,,,rot,yellow,g,0.0,g,1.0,0.9247885409859008,,,,,,,,,,3.0,7.0,43.0,3.0,221.6760854999884,,,,,,,,,,,,,,,,,221.66681824999975,222.86393900000257,223.6587787909957,223.6478012499865,,,,,,,,,,,,,,,,,,,,,,,,,,,,,,,,,,,223.65145612499327,223.6587787909957,223.6587787909957,224.5885540409945,g,1.0,0.9247885409859008,,,,,,sub-135,1,stroop_test,120.11495044938628,
,,,,44.0,8.0,3.0,,,,,,,,,,,,,gelb,blue,b,0.0,b,1.0,0.5670963750162628,,,,,,,,,,3.0,8.0,44.0,9.0,224.6136532499804,,,,,,,,,,,,,,,,,224.5890985829756,225.78744225000264,226.596990207996,226.5708107499813,,,,,,,,,,,,,,,,,,,,,,,,,,,,,,,,,,,226.57425904099364,226.596990207996,226.596990207996,227.1665861659858,b,1.0,0.5670963750162628,,,,,,sub-135,1,stroop_test,120.11495044938628,
,,,,45.0,9.0,3.0,,,,,,,,,,,,,blau,yellow,g,0.0,g,1.0,0.6543899579846766,,,,,,,,,,3.0,9.0,45.0,7.0,227.175745665998,,,,,,,,,,,,,,,,,227.1670451249811,227.26352300000144,228.05923266598256,228.04816766598375,,,,,,,,,,,,,,,,,,,,,,,,,,,,,,,,,,,228.05204987499744,228.05923266598256,228.05923266598256,228.71611866599412,g,1.0,0.6543899579846766,,,,,,sub-135,1,stroop_test,120.11495044938628,
,,,,46.0,10.0,3.0,,,,,,,,,,,,,rot,red,r,1.0,r,1.0,0.9132532909861766,,,,,,,,,,3.0,10.0,46.0,0.0,228.7258289579768,,,,,,,,,,,,,,,,,228.7166737499938,229.9140272910008,230.7101757499913,230.6982833329821,,,,,,,,,,,,,,,,,,,,,,,,,,,,,,,,,,,230.7026335409901,230.7101757499913,230.7101757499913,231.633055082988,r,1.0,0.9132532909861766,,,,,,sub-135,1,stroop_test,120.11495044938628,
,,,,47.0,11.0,3.0,,,,,,,,,,,,,blau,blue,b,1.0,b,1.0,0.6009946250123903,,,,,,,,,,3.0,11.0,47.0,6.0,231.64246312499745,,,,,,,,,,,,,,,,,231.6336185830005,232.43089699998384,233.22660658298992,233.2148957909958,,,,,,,,,,,,,,,,,,,,,,,,,,,,,,,,,,,233.2193152909749,233.22660658298992,233.22660658298992,233.83288574998733,b,1.0,0.6009946250123903,,,,,,sub-135,1,stroop_test,120.11495044938628,
,,,,48.0,0.0,4.0,,,,,,,,,,,,,gelb,yellow,g,1.0,g,1.0,1.032941249985015,,,,,,,,,,4.0,0.0,48.0,10.0,233.8423175409844,,,,,,,,,,,,,,,,,233.83343091598363,233.9306430829747,234.7261829999916,234.71492999998736,,,,,,,,,,,,,,,,,,,,,,,,,,,,,,,,,,,234.71881183297955,234.7261829999916,234.7261829999916,235.76644349997517,g,1.0,1.032941249985015,,,,,,sub-135,1,stroop_test,120.11495044938628,
,,,,49.0,1.0,4.0,,,,,,,,,,,,,rot,red,r,1.0,r,1.0,0.4952683329756837,,,,,,,,,,4.0,1.0,49.0,0.0,235.77566187499903,,,,,,,,,,,,,,,,,235.76688879099677,236.56419808298236,237.3604915000033,237.3485328749812,,,,,,,,,,,,,,,,,,,,,,,,,,,,,,,,,,,237.35296004099652,237.3604915000033,237.3604915000033,237.86657891600044,r,1.0,0.4952683329756837,,,,,,sub-135,1,stroop_test,120.11495044938628,
,,,,50.0,2.0,4.0,,,,,,,,,,,,,rot,blue,b,0.0,b,1.0,0.6264397090126295,,,,,,,,,,4.0,2.0,50.0,2.0,237.8760286659817,,,,,,,,,,,,,,,,,237.86712495799293,238.21429583299323,239.00645637497652,238.998296249978,,,,,,,,,,,,,,,,,,,,,,,,,,,,,,,,,,,238.99898295800085,239.00645637497652,239.00645637497652,239.63895500000217,b,1.0,0.6264397090126295,,,,,,sub-135,1,stroop_test,120.11495044938628,
,,,,51.0,3.0,4.0,,,,,,,,,,,,,rot,red,r,1.0,r,1.0,1.517749292019289,,,,,,,,,,4.0,3.0,51.0,1.0,239.64818395799372,,,,,,,,,,,,,,,,,239.6394087499939,240.8376398749824,241.63065254100368,241.6213368329918,,,,,,,,,,,,,,,,,,,,,,,,,,,,,,,,,,,241.6220300409768,241.63065254100368,241.63065254100368,243.1564662499877,r,1.0,1.517749292019289,,,,,,sub-135,1,stroop_test,120.11495044938628,
,,,,52.0,4.0,4.0,,,,,,,,,,,,,blau,blue,b,1.0,b,1.0,0.5416489590134006,,,,,,,,,,4.0,4.0,52.0,5.0,243.1809194999805,,,,,,,,,,,,,,,,,243.1568792499893,243.50338720798027,244.2974003749841,244.2870810829918,,,,,,,,,,,,,,,,,,,,,,,,,,,,,,,,,,,244.2903815829777,244.2974003749841,244.2974003749841,244.85044704098252,b,1.0,0.5416489590134006,,,,,,sub-135,1,stroop_test,120.11495044938628,
,,,,53.0,5.0,4.0,,,,,,,,,,,,,gelb,red,r,0.0,r,1.0,0.8679412920027971,,,,,,,,,,4.0,5.0,53.0,8.0,244.86048833298264,,,,,,,,,,,,,,,,,244.85108429100364,246.04791079097777,246.8425560829928,246.83184641599652,,,,,,,,,,,,,,,,,,,,,,,,,,,,,,,,,,,246.8355296659865,246.8425560829928,246.8425560829928,247.71639895800035,r,1.0,0.8679412920027971,,,,,,sub-135,1,stroop_test,120.11495044938628,
,,,,54.0,6.0,4.0,,,,,,,,,,,,,blau,red,r,0.0,r,1.0,0.997774291987298,,,,,,,,,,4.0,6.0,54.0,4.0,247.7256183330028,,,,,,,,,,,,,,,,,247.71683404099892,248.9147165409813,249.7093763329904,249.6986340000003,,,,,,,,,,,,,,,,,,,,,,,,,,,,,,,,,,,249.70207079098327,249.7093763329904,249.7093763329904,250.71714687498752,r,1.0,0.997774291987298,,,,,,sub-135,1,stroop_test,120.11495044938628,
,,,,55.0,7.0,4.0,,,,,,,,,,,,,gelb,blue,b,0.0,b,1.0,0.9869275409728288,,,,,,,,,,4.0,7.0,55.0,9.0,250.7267148749961,,,,,,,,,,,,,,,,,250.7177059999958,251.5147669579892,252.31121454099772,252.2986512909993,,,,,,,,,,,,,,,,,,,,,,,,,,,,,,,,,,,252.30381291598317,252.31121454099772,252.31121454099772,253.30052245798288,b,1.0,0.9869275409728288,,,,,,sub-135,1,stroop_test,120.11495044938628,
,,,,56.0,8.0,4.0,,,,,,,,,,,,,blau,yellow,g,0.0,g,1.0,0.7889385420130566,,,,,,,,,,4.0,8.0,56.0,7.0,253.30977120797613,,,,,,,,,,,,,,,,,253.3009639579977,254.0978025829827,254.89309941598916,254.8820399999968,,,,,,,,,,,,,,,,,,,,,,,,,,,,,,,,,,,254.88592824997613,254.89309941598916,254.89309941598916,255.6843791659921,g,1.0,0.7889385420130566,,,,,,sub-135,1,stroop_test,120.11495044938628,
,,,,57.0,9.0,4.0,,,,,,,,,,,,,rot,yellow,g,0.0,r,0.0,1.3468652500014286,,,,,,,,,,4.0,9.0,57.0,3.0,255.69380641597672,,,,,,,,,,,,,,,,,255.68491262500172,256.88165033300174,257.67637954099337,257.6654526659986,,,,,,,,,,,,,,,,,,,,,,,,,,,,,,,,,,,257.66909979097545,257.67637954099337,257.67637954099337,259.0337391249777,r,0.0,1.3468652500014286,,,,,,sub-135,1,stroop_test,120.11495044938628,
,,,,58.0,10.0,4.0,,,,,,,,,,,,,gelb,yellow,g,1.0,g,1.0,0.9440953749872278,,,,,,,,,,4.0,10.0,58.0,11.0,259.043032415997,,,,,,,,,,,,,,,,,259.0341912499862,259.3814009159978,260.17762204099563,260.1656695829879,,,,,,,,,,,,,,,,,,,,,,,,,,,,,,,,,,,260.1701685409935,260.17762204099563,260.17762204099563,261.1320013749937,g,1.0,0.9440953749872278,,,,,,sub-135,1,stroop_test,120.11495044938628,
,,,,59.0,11.0,4.0,,,,,,,,,,,,,blau,blue,b,1.0,b,1.0,0.654422749998048,,,,,,,,,,4.0,11.0,59.0,6.0,261.1407447909878,,,,,,,,,,,,,,,,,261.1324333329976,261.9215738749772,262.72722558298847,262.7157753329957,,,,,,,,,,,,,,,,,,,,,,,,,,,,,,,,,,,262.7198157499952,262.72722558298847,262.72722558298847,263.3836412079981,b,1.0,0.654422749998048,,,,,,sub-135,1,stroop_test,120.11495044938628,
,,,,60.0,0.0,5.0,,,,,,,,,,,,,rot,red,r,1.0,r,1.0,0.9388709589838982,,,,,,,,,,5.0,0.0,60.0,1.0,263.39236741600325,,,,,,,,,,,,,,,,,263.3840790829854,264.1817745000008,264.9767311250034,264.96571404099814,,,,,,,,,,,,,,,,,,,,,,,,,,,,,,,,,,,264.96913320798194,264.9767311250034,264.9767311250034,265.9180185829755,r,1.0,0.9388709589838982,,,,,,sub-135,1,stroop_test,120.11495044938628,
,,,,61.0,1.0,5.0,,,,,,,,,,,,,gelb,yellow,g,1.0,g,1.0,0.7663057089957874,,,,,,,,,,5.0,1.0,61.0,10.0,265.9273133329989,,,,,,,,,,,,,,,,,265.918518749997,266.2651844999928,267.0596294999996,267.0488265409949,,,,,,,,,,,,,,,,,,,,,,,,,,,,,,,,,,,267.0521941659972,267.0596294999996,267.0596294999996,267.83415604097536,g,1.0,0.7663057089957874,,,,,,sub-135,1,stroop_test,120.11495044938628,
,,,,62.0,2.0,5.0,,,,,,,,,,,,,blau,blue,b,1.0,b,1.0,0.7056846249906812,,,,,,,,,,5.0,2.0,62.0,5.0,267.84335670797736,,,,,,,,,,,,,,,,,267.8346277499804,269.03174787497846,269.8294329579803,269.8162702909904,,,,,,,,,,,,,,,,,,,,,,,,,,,,,,,,,,,269.82185633300105,269.8294329579803,269.8294329579803,270.5418582499842,b,1.0,0.7056846249906812,,,,,,sub-135,1,stroop_test,120.11495044938628,
,,,,63.0,3.0,5.0,,,,,,,,,,,,,rot,yellow,g,0.0,g,1.0,1.4982754579978064,,,,,,,,,,5.0,3.0,63.0,3.0,270.55085008297465,,,,,,,,,,,,,,,,,270.54229099999066,270.888684540987,271.6843231660023,271.67192429097486,,,,,,,,,,,,,,,,,,,,,,,,,,,,,,,,,,,271.67583262498374,271.6843231660023,271.6843231660023,273.19095466600265,g,1.0,1.4982754579978064,,,,,,sub-135,1,stroop_test,120.11495044938628,
,,,,64.0,4.0,5.0,,,,,,,,,,,,,gelb,red,r,0.0,r,1.0,0.751600707997568,,,,,,,,,,5.0,4.0,64.0,8.0,273.1999568750034,,,,,,,,,,,,,,,,,273.1913840829802,273.5388779579953,274.3344934159832,274.3227984579862,,,,,,,,,,,,,,,,,,,,,,,,,,,,,,,,,,,274.32676837500185,274.3344934159832,274.3344934159832,275.09038170799613,r,1.0,0.751600707997568,,,,,,sub-135,1,stroop_test,120.11495044938628,
,,,,65.0,5.0,5.0,,,,,,,,,,,,,blau,yellow,g,0.0,g,1.0,0.6185574170085602,,,,,,,,,,5.0,5.0,65.0,7.0,275.10099070798606,,,,,,,,,,,,,,,,,275.0909117079864,275.8884992499952,276.6936043750029,276.68279045799864,,,,,,,,,,,,,,,,,,,,,,,,,,,,,,,,,,,276.6865014579962,276.6936043750029,276.6936043750029,277.31729104099213,g,1.0,0.6185574170085602,,,,,,sub-135,1,stroop_test,120.11495044938628,
,,,,66.0,6.0,5.0,,,,,,,,,,,,,gelb,blue,b,0.0,b,1.0,1.085909957997501,,,,,,,,,,5.0,6.0,66.0,9.0,277.3264519999793,,,,,,,,,,,,,,,,,277.31774112497806,277.6654932499805,278.46013783299713,278.44934437499614,,,,,,,,,,,,,,,,,,,,,,,,,,,,,,,,,,,278.45304220798425,278.46013783299713,278.46013783299713,279.5510352079873,b,1.0,1.085909957997501,,,,,,sub-135,1,stroop_test,120.11495044938628,
,,,,67.0,7.0,5.0,,,,,,,,,,,,,blau,red,r,0.0,r,1.0,0.7840344999858644,,,,,,,,,,5.0,7.0,67.0,4.0,279.5604341249855,,,,,,,,,,,,,,,,,279.5515863329929,280.34894108297885,281.144611665979,281.13278937499854,,,,,,,,,,,,,,,,,,,,,,,,,,,,,,,,,,,281.1372144999914,281.144611665979,281.144611665979,281.93336337499204,r,1.0,0.7840344999858644,,,,,,sub-135,1,stroop_test,120.11495044938628,
,,,,68.0,8.0,5.0,,,,,,,,,,,,,rot,red,r,1.0,r,1.0,0.7303524579911027,,,,,,,,,,5.0,8.0,68.0,0.0,281.9425279579882,,,,,,,,,,,,,,,,,281.9337968749751,282.0323270410008,282.82747291598935,282.816350374982,,,,,,,,,,,,,,,,,,,,,,,,,,,,,,,,,,,282.8201053329976,282.82747291598935,282.82747291598935,283.56791091599735,r,1.0,0.7303524579911027,,,,,,sub-135,1,stroop_test,120.11495044938628,
,,,,69.0,9.0,5.0,,,,,,,,,,,,,rot,blue,b,0.0,b,1.0,1.0126140420034062,,,,,,,,,,5.0,9.0,69.0,2.0,283.57767554098973,,,,,,,,,,,,,,,,,283.5684958329948,284.76563970799907,285.5572539999848,285.54957533298875,,,,,,,,,,,,,,,,,,,,,,,,,,,,,,,,,,,285.5502306249982,285.5572539999848,285.5572539999848,286.57425174998934,b,1.0,1.0126140420034062,,,,,,sub-135,1,stroop_test,120.11495044938628,
,,,,70.0,10.0,5.0,,,,,,,,,,,,,gelb,yellow,g,1.0,g,1.0,1.2492839579936117,,,,,,,,,,5.0,10.0,70.0,11.0,286.5840534579765,,,,,,,,,,,,,,,,,286.57478499997524,287.37186466599815,288.1679107499949,288.1562367909937,,,,,,,,,,,,,,,,,,,,,,,,,,,,,,,,,,,288.16118399999687,288.1679107499949,288.1679107499949,289.4248252079997,g,1.0,1.2492839579936117,,,,,,sub-135,1,stroop_test,120.11495044938628,
,,,,71.0,11.0,5.0,,,,,,,,,,,,,blau,blue,b,1.0,b,1.0,0.5918361660151277,,,,,,,,,,5.0,11.0,71.0,6.0,289.4345142910024,,,,,,,,,,,,,,,,,289.4253810409864,289.52275641600136,290.3320612079988,290.3060158749868,,,,,,,,,,,,,,,,,,,,,,,,,,,,,,,,,,,290.3094624999794,290.3320612079988,290.3320612079988,290.93396920798114,b,1.0,0.5918361660151277,,,,,,sub-135,1,stroop_test,120.11495044938628,
,,,,72.0,0.0,6.0,,,,,,,,,,,,,rot,red,r,1.0,r,1.0,0.4851402500062249,,,,,,,,,,6.0,0.0,72.0,0.0,290.9430726659775,,,,,,,,,,,,,,,,,290.9344001659774,291.0326152909838,291.8276639579853,291.81649033300346,,,,,,,,,,,,,,,,,,,,,,,,,,,,,,,,,,,291.8203395829769,291.8276639579853,291.8276639579853,292.3174952909758,r,1.0,0.4851402500062249,,,,,,sub-135,1,stroop_test,120.11495044938628,
,,,,73.0,1.0,6.0,,,,,,,,,,,,,gelb,blue,b,0.0,b,1.0,0.7843750420142896,,,,,,,,,,6.0,1.0,73.0,9.0,292.3268263749778,,,,,,,,,,,,,,,,,292.31793462499627,292.6659473749751,293.4619496660016,293.44993645799696,,,,,,,,,,,,,,,,,,,,,,,,,,,,,,,,,,,293.45454737497494,293.4619496660016,293.4619496660016,294.2512124159839,b,1.0,0.7843750420142896,,,,,,sub-135,1,stroop_test,120.11495044938628,
,,,,74.0,2.0,6.0,,,,,,,,,,,,,rot,blue,b,0.0,r,0.0,1.5451978749770203,,,,,,,,,,6.0,2.0,74.0,2.0,294.26039862498874,,,,,,,,,,,,,,,,,294.25164420797955,295.44935991597595,296.24413787497906,296.233238832996,,,,,,,,,,,,,,,,,,,,,,,,,,,,,,,,,,,296.2367961249838,296.24413787497906,296.24413787497906,297.80060416599736,r,0.0,1.5451978749770203,,,,,,sub-135,1,stroop_test,120.11495044938628,
,,,,75.0,3.0,6.0,,,,,,,,,,,,,gelb,red,r,0.0,r,1.0,1.2932102920021862,,,,,,,,,,6.0,3.0,75.0,8.0,297.8054974580009,,,,,,,,,,,,,,,,,297.801069499983,297.8994782079826,298.6954670409905,298.6834914999781,,,,,,,,,,,,,,,,,,,,,,,,,,,,,,,,,,,298.68805537497974,298.6954670409905,298.6954670409905,299.99124570799177,r,1.0,1.2932102920021862,,,,,,sub-135,1,stroop_test,120.11495044938628,
,,,,76.0,4.0,6.0,,,,,,,,,,,,,rot,red,r,1.0,r,1.0,0.8970295419858303,,,,,,,,,,6.0,4.0,76.0,1.0,300.0013727909827,,,,,,,,,,,,,,,,,299.991725165979,301.18858112499584,301.9824163749872,301.97186912500183,,,,,,,,,,,,,,,,,,,,,,,,,,,,,,,,,,,301.97517712498666,301.9824163749872,301.9824163749872,302.88489441599813,r,1.0,0.8970295419858303,,,,,,sub-135,1,stroop_test,120.11495044938628,
,,,,77.0,5.0,6.0,,,,,,,,,,,,,blau,red,r,0.0,r,1.0,1.128859292017296,,,,,,,,,,6.0,5.0,77.0,4.0,302.89548454098986,,,,,,,,,,,,,,,,,302.8856783329975,304.08270758300205,304.8782579579856,304.86699979097466,,,,,,,,,,,,,,,,,,,,,,,,,,,,,,,,,,,304.8711054159794,304.8782579579856,304.8782579579856,306.0182997499942,r,1.0,1.128859292017296,,,,,,sub-135,1,stroop_test,120.11495044938628,
,,,,78.0,6.0,6.0,,,,,,,,,,,,,blau,yellow,g,0.0,g,1.0,0.8936074580124114,,,,,,,,,,6.0,6.0,78.0,7.0,306.02839487500023,,,,,,,,,,,,,,,,,306.018850915978,306.81631137497607,307.6089215829852,307.60060899998643,,,,,,,,,,,,,,,,,,,,,,,,,,,,,,,,,,,307.6013850829913,307.6089215829852,307.6089215829852,308.5076313749887,g,1.0,0.8936074580124114,,,,,,sub-135,1,stroop_test,120.11495044938628,
,,,,79.0,7.0,6.0,,,,,,,,,,,,,rot,yellow,g,0.0,g,1.0,0.6947146249876823,,,,,,,,,,6.0,7.0,79.0,3.0,308.5166027910018,,,,,,,,,,,,,,,,,308.5080572909792,309.3062350830005,310.1110498329799,310.1003578749951,,,,,,,,,,,,,,,,,,,,,,,,,,,,,,,,,,,310.10369454100146,310.1110498329799,310.1110498329799,310.8078610409866,g,1.0,0.6947146249876823,,,,,,sub-135,1,stroop_test,120.11495044938628,
,,,,80.0,8.0,6.0,,,,,,,,,,,,,blau,blue,b,1.0,b,1.0,0.7638919999881182,,,,,,,,,,6.0,8.0,80.0,5.0,310.8166955409979,,,,,,,,,,,,,,,,,310.8082772079797,311.1563119159837,311.9611203749955,311.9503495829995,,,,,,,,,,,,,,,,,,,,,,,,,,,,,,,,,,,311.953965875,311.9611203749955,311.9611203749955,312.7352414999914,b,1.0,0.7638919999881182,,,,,,sub-135,1,stroop_test,120.11495044938628,
,,,,81.0,9.0,6.0,,,,,,,,,,,,,gelb,yellow,g,1.0,g,1.0,0.6956499579828233,,,,,,,,,,6.0,9.0,81.0,11.0,312.74466020800173,,,,,,,,,,,,,,,,,312.7357820829784,313.93308499999694,314.7274145830015,314.7170743329916,,,,,,,,,,,,,,,,,,,,,,,,,,,,,,,,,,,314.72033370798454,314.7274145830015,314.7274145830015,315.42496304097585,g,1.0,0.6956499579828233,,,,,,sub-135,1,stroop_test,120.11495044938628,
,,,,82.0,10.0,6.0,,,,,,,,,,,,,blau,blue,b,1.0,b,1.0,0.9475728750112468,,,,,,,,,,6.0,10.0,82.0,6.0,315.4352332499984,,,,,,,,,,,,,,,,,315.4253884579812,315.7730554579757,316.57759045797866,316.567136165977,,,,,,,,,,,,,,,,,,,,,,,,,,,,,,,,,,,316.57051241598674,316.57759045797866,316.57759045797866,317.53533970800345,b,1.0,0.9475728750112468,,,,,,sub-135,1,stroop_test,120.11495044938628,
,,,,83.0,11.0,6.0,,,,,,,,,,,,,gelb,yellow,g,1.0,g,1.0,0.8938350840180647,,,,,,,,,,6.0,11.0,83.0,10.0,317.5449425829865,,,,,,,,,,,,,,,,,317.5358967079956,317.63272899997537,318.4293156659988,318.41754058300285,,,,,,,,,,,,,,,,,,,,,,,,,,,,,,,,,,,318.4220127500012,318.4293156659988,318.4293156659988,319.3355429999938,g,1.0,0.8938350840180647,,,,,,sub-135,1,stroop_test,120.11495044938628,
,,,,84.0,0.0,7.0,,,,,,,,,,,,,rot,blue,b,0.0,b,1.0,1.6911259589833207,,,,,,,,,,7.0,0.0,84.0,2.0,319.3453614159953,,,,,,,,,,,,,,,,,319.3360883749847,319.6834491659829,320.4783980829816,320.46754308298114,,,,,,,,,,,,,,,,,,,,,,,,,,,,,,,,,,,320.471151249978,320.4783980829816,320.4783980829816,322.1749602079799,b,1.0,1.6911259589833207,,,,,,sub-135,1,stroop_test,120.11495044938628,
,,,,85.0,1.0,7.0,,,,,,,,,,,,,gelb,red,r,0.0,r,1.0,1.6853601670009084,,,,,,,,,,7.0,1.0,85.0,8.0,322.1997808329761,,,,,,,,,,,,,,,,,322.1753831660026,322.523365415982,323.3194327910023,323.3075335409958,,,,,,,,,,,,,,,,,,,,,,,,,,,,,,,,,,,323.3118900829868,323.3194327910023,323.3194327910023,325.0081762909831,r,1.0,1.6853601670009084,,,,,,sub-135,1,stroop_test,120.11495044938628,
,,,,86.0,2.0,7.0,,,,,,,,,,,,,rot,red,r,1.0,r,1.0,0.6811189170111902,,,,,,,,,,7.0,2.0,86.0,1.0,325.0331774999795,,,,,,,,,,,,,,,,,325.0085905409942,325.1064622080012,325.9120121659944,325.9008168329892,,,,,,,,,,,,,,,,,,,,,,,,,,,,,,,,,,,325.9046153749805,325.9120121659944,325.9120121659944,326.6019344159868,r,1.0,0.6811189170111902,,,,,,sub-135,1,stroop_test,120.11495044938628,
,,,,87.0,3.0,7.0,,,,,,,,,,,,,blau,red,r,0.0,r,1.0,1.1675283750228118,,,,,,,,,,7.0,3.0,87.0,4.0,326.6111956659879,,,,,,,,,,,,,,,,,326.60238445797586,327.4002649159811,328.19480837500305,328.1840755829762,,,,,,,,,,,,,,,,,,,,,,,,,,,,,,,,,,,328.1875383750012,328.19480837500305,328.19480837500305,329.3687074999907,r,1.0,1.1675283750228118,,,,,,sub-135,1,stroop_test,120.11495044938628,
,,,,88.0,4.0,7.0,,,,,,,,,,,,,gelb,yellow,g,1.0,g,1.0,0.7310457080020569,,,,,,,,,,7.0,4.0,88.0,11.0,329.3782409999985,,,,,,,,,,,,,,,,,329.36922933298047,330.1669931249926,330.96160462498665,330.95085979098803,,,,,,,,,,,,,,,,,,,,,,,,,,,,,,,,,,,330.9545072079927,330.96160462498665,330.96160462498665,331.7021646659996,g,1.0,0.7310457080020569,,,,,,sub-135,1,stroop_test,120.11495044938628,
,,,,89.0,5.0,7.0,,,,,,,,,,,,,blau,blue,b,1.0,b,1.0,0.5612229590187781,,,,,,,,,,7.0,5.0,89.0,6.0,331.71087474998785,,,,,,,,,,,,,,,,,331.702633665991,331.8004194999812,332.5963288329949,332.58433816599427,,,,,,,,,,,,,,,,,,,,,,,,,,,,,,,,,,,332.5885758329823,332.5963288329949,332.5963288329949,333.1696870409942,b,1.0,0.5612229590187781,,,,,,sub-135,1,stroop_test,120.11495044938628,
,,,,90.0,6.0,7.0,,,,,,,,,,,,,rot,red,r,1.0,r,1.0,0.4545209589996375,,,,,,,,,,7.0,6.0,90.0,0.0,333.17939958299394,,,,,,,,,,,,,,,,,333.17034687497653,333.26647641599993,334.0620864999946,334.0510575409862,,,,,,,,,,,,,,,,,,,,,,,,,,,,,,,,,,,334.05474370799493,334.0620864999946,334.0620864999946,334.51911958298297,r,1.0,0.4545209589996375,,,,,,sub-135,1,stroop_test,120.11495044938628,
,,,,91.0,7.0,7.0,,,,,,,,,,,,,gelb,blue,b,0.0,b,1.0,1.1167982909828424,,,,,,,,,,7.0,7.0,91.0,9.0,334.5281406249851,,,,,,,,,,,,,,,,,334.51955120798084,335.31712254098966,336.11303329098155,336.1014703330002,,,,,,,,,,,,,,,,,,,,,,,,,,,,,,,,,,,336.1055125409912,336.11303329098155,336.11303329098155,337.2358648749941,b,1.0,1.1167982909828424,,,,,,sub-135,1,stroop_test,120.11495044938628,
,,,,92.0,8.0,7.0,,,,,,,,,,,,,blau,yellow,g,0.0,g,1.0,0.7810488330142107,,,,,,,,,,7.0,8.0,92.0,7.0,337.2453876249783,,,,,,,,,,,,,,,,,337.2364031659963,337.33322849997785,338.1309287909826,338.11798712497693,,,,,,,,,,,,,,,,,,,,,,,,,,,,,,,,,,,338.12358779099304,338.1309287909826,338.1309287909826,338.91948408298776,g,1.0,0.7810488330142107,,,,,,sub-135,1,stroop_test,120.11495044938628,
,,,,93.0,9.0,7.0,,,,,,,,,,,,,rot,yellow,g,0.0,g,1.0,0.7824087910121307,,,,,,,,,,7.0,9.0,93.0,3.0,338.929762957996,,,,,,,,,,,,,,,,,338.92019599999185,339.71726083298563,340.512128915987,340.5012186249951,,,,,,,,,,,,,,,,,,,,,,,,,,,,,,,,,,,340.5047461659997,340.512128915987,340.512128915987,341.30142379098106,g,1.0,0.7824087910121307,,,,,,sub-135,1,stroop_test,120.11495044938628,
,,,,94.0,10.0,7.0,,,,,,,,,,,,,gelb,yellow,g,1.0,g,1.0,0.767041374987457,,,,,,,,,,7.0,10.0,94.0,10.0,341.3103636659798,,,,,,,,,,,,,,,,,341.30197724999744,341.3903350000037,342.19602512498386,342.18473954100045,,,,,,,,,,,,,,,,,,,,,,,,,,,,,,,,,,,342.18855170797906,342.19602512498386,342.19602512498386,342.96930974998395,g,1.0,0.767041374987457,,,,,,sub-135,1,stroop_test,120.11495044938628,
,,,,95.0,11.0,7.0,,,,,,,,,,,,,blau,blue,b,1.0,b,1.0,1.213825209008064,,,,,,,,,,7.0,11.0,95.0,5.0,342.9791642499913,,,,,,,,,,,,,,,,,342.9698521659884,343.7674970829976,344.5617171659833,344.5513701659802,,,,,,,,,,,,,,,,,,,,,,,,,,,,,,,,,,,344.55463883298216,344.5617171659833,344.5617171659833,345.7860745829821,b,1.0,1.213825209008064,,,,,,sub-135,1,stroop_test,120.11495044938628,
,,,,96.0,0.0,8.0,,,,,,,,,,,,,rot,red,r,1.0,r,1.0,0.8117820000043139,,,,,,,,,,8.0,0.0,96.0,1.0,345.7957505410013,,,,,,,,,,,,,,,,,345.7866144159925,346.13387266598875,346.92899258297984,346.9182541659975,,,,,,,,,,,,,,,,,,,,,,,,,,,,,,,,,,,346.9217379159818,346.92899258297984,346.92899258297984,347.7530356659845,r,1.0,0.8117820000043139,,,,,,sub-135,1,stroop_test,120.11495044938628,
,,,,97.0,1.0,8.0,,,,,,,,,,,,,gelb,yellow,g,1.0,g,1.0,0.5965500409947708,,,,,,,,,,8.0,1.0,97.0,11.0,347.7624917079811,,,,,,,,,,,,,,,,,347.7535518749792,348.9507511249976,349.74570479098475,349.7347840000002,,,,,,,,,,,,,,,,,,,,,,,,,,,,,,,,,,,349.73851112497505,349.74570479098475,349.74570479098475,350.3534472500032,g,1.0,0.5965500409947708,,,,,,sub-135,1,stroop_test,120.11495044938628,
,,,,98.0,2.0,8.0,,,,,,,,,,,,,gelb,yellow,g,1.0,g,1.0,0.809761290991446,,,,,,,,,,8.0,2.0,98.0,10.0,350.3637429579976,,,,,,,,,,,,,,,,,350.3541573330004,351.1508053749858,351.94329545798246,351.93507058298565,,,,,,,,,,,,,,,,,,,,,,,,,,,,,,,,,,,351.9358574159851,351.94329545798246,351.94329545798246,352.7588783329993,g,1.0,0.809761290991446,,,,,,sub-135,1,stroop_test,120.11495044938628,
,,,,99.0,3.0,8.0,,,,,,,,,,,,,blau,yellow,g,0.0,g,1.0,0.9460507910116576,,,,,,,,,,8.0,3.0,99.0,7.0,352.783990750002,,,,,,,,,,,,,,,,,352.7593067499984,352.85927041599643,353.6632487500028,353.65144670798327,,,,,,,,,,,,,,,,,,,,,,,,,,,,,,,,,,,353.6558715409774,353.6632487500028,353.6632487500028,354.6196869580017,g,1.0,0.9460507910116576,,,,,,sub-135,1,stroop_test,120.11495044938628,
,,,,100.0,4.0,8.0,,,,,,,,,,,,,gelb,blue,b,0.0,b,1.0,0.7881564169947524,,,,,,,,,,8.0,4.0,100.0,9.0,354.62914966599783,,,,,,,,,,,,,,,,,354.6202277499833,355.41748833298334,356.2134251249954,356.2016778749821,,,,,,,,,,,,,,,,,,,,,,,,,,,,,,,,,,,356.206263207976,356.2134251249954,356.2134251249954,357.00403333298163,b,1.0,0.7881564169947524,,,,,,sub-135,1,stroop_test,120.11495044938628,
,,,,101.0,5.0,8.0,,,,,,,,,,,,,gelb,red,r,0.0,r,1.0,0.6539697080152109,,,,,,,,,,8.0,5.0,101.0,8.0,357.01356729099643,,,,,,,,,,,,,,,,,357.00457654098864,357.3510936659877,358.14271049998933,358.13497329098755,,,,,,,,,,,,,,,,,,,,,,,,,,,,,,,,,,,358.1356285410002,358.14271049998933,358.14271049998933,358.80308712497936,r,1.0,0.6539697080152109,,,,,,sub-135,1,stroop_test,120.11495044938628,
,,,,102.0,6.0,8.0,,,,,,,,,,,,,blau,blue,b,1.0,b,1.0,0.560136040992802,,,,,,,,,,8.0,6.0,102.0,6.0,358.8127849159937,,,,,,,,,,,,,,,,,358.803633249976,360.00120720799896,360.7955952909833,360.7850834580022,,,,,,,,,,,,,,,,,,,,,,,,,,,,,,,,,,,360.7885057499807,360.7955952909833,360.7955952909833,361.3593453329813,b,1.0,0.560136040992802,,,,,,sub-135,1,stroop_test,120.11495044938628,
,,,,103.0,7.0,8.0,,,,,,,,,,,,,rot,yellow,g,0.0,g,1.0,0.9447429580031894,,,,,,,,,,8.0,7.0,103.0,3.0,361.3699075829936,,,,,,,,,,,,,,,,,361.3597724159772,362.5579360409756,363.3674269159965,363.3410909999802,,,,,,,,,,,,,,,,,,,,,,,,,,,,,,,,,,,363.3444980829954,363.3674269159965,363.3674269159965,364.31998429098167,g,1.0,0.9447429580031894,,,,,,sub-135,1,stroop_test,120.11495044938628,
,,,,104.0,8.0,8.0,,,,,,,,,,,,,blau,blue,b,1.0,b,1.0,0.5923749580106232,,,,,,,,,,8.0,8.0,104.0,5.0,364.3290611659759,,,,,,,,,,,,,,,,,364.3204265829991,365.1180439579766,365.9126046659949,365.9019480409916,,,,,,,,,,,,,,,,,,,,,,,,,,,,,,,,,,,365.9055387080007,365.9126046659949,365.9126046659949,366.509320290992,b,1.0,0.5923749580106232,,,,,,sub-135,1,stroop_test,120.11495044938628,
,,,,105.0,9.0,8.0,,,,,,,,,,,,,blau,red,r,0.0,r,1.0,0.7847351249947678,,,,,,,,,,8.0,9.0,105.0,4.0,366.5341665000015,,,,,,,,,,,,,,,,,366.50973241598695,367.3067631659797,368.1009257499827,368.0904032079852,,,,,,,,,,,,,,,,,,,,,,,,,,,,,,,,,,,368.0910381659924,368.1009257499827,368.1009257499827,368.89800908300094,r,1.0,0.7847351249947678,,,,,,sub-135,1,stroop_test,120.11495044938628,
,,,,106.0,10.0,8.0,,,,,,,,,,,,,rot,blue,b,0.0,b,1.0,1.8422093749977648,,,,,,,,,,8.0,10.0,106.0,2.0,368.9028431659972,,,,,,,,,,,,,,,,,368.89845724997576,369.6913959579833,370.48740233297576,370.4755385000026,,,,,,,,,,,,,,,,,,,,,,,,,,,,,,,,,,,370.4796580830007,370.48740233297576,370.48740233297576,372.33637154099415,b,1.0,1.8422093749977648,,,,,,sub-135,1,stroop_test,120.11495044938628,
,,,,107.0,11.0,8.0,,,,,,,,,,,,,rot,red,r,1.0,r,1.0,0.9579178749991116,,,,,,,,,,8.0,11.0,107.0,0.0,372.3460171659826,,,,,,,,,,,,,,,,,372.3368055000028,372.6847984579799,373.47709429098177,373.4686493749905,,,,,,,,,,,,,,,,,,,,,,,,,,,,,,,,,,,373.469339082978,373.47709429098177,373.47709429098177,374.4372799159901,r,1.0,0.9579178749991116,,,,,,sub-135,1,stroop_test,120.11495044938628,
,,,,108.0,0.0,9.0,,,,,,,,,,,,,rot,red,r,1.0,r,1.0,0.5770768329966813,,,,,,,,,,9.0,0.0,108.0,0.0,374.4466881659755,,,,,,,,,,,,,,,,,374.43772891597473,374.7849548329832,375.5770339999872,375.5689371249755,,,,,,,,,,,,,,,,,,,,,,,,,,,,,,,,,,,375.56957937497646,375.5770339999872,375.5770339999872,376.1591326659836,r,1.0,0.5770768329966813,,,,,,sub-135,1,stroop_test,120.11495044938628,
,,,,109.0,1.0,9.0,,,,,,,,,,,,,blau,yellow,g,0.0,g,1.0,0.602164666983299,,,,,,,,,,9.0,1.0,109.0,7.0,376.16798683299567,,,,,,,,,,,,,,,,,376.1595560830028,376.2586602079973,377.0635006249941,377.0523276659951,,,,,,,,,,,,,,,,,,,,,,,,,,,,,,,,,,,377.0562299579906,377.0635006249941,377.0635006249941,377.6699479160016,g,1.0,0.602164666983299,,,,,,sub-135,1,stroop_test,120.11495044938628,
,,,,110.0,2.0,9.0,,,,,,,,,,,,,gelb,yellow,g,1.0,g,1.0,1.0762295829772484,,,,,,,,,,9.0,2.0,110.0,11.0,377.67906999998377,,,,,,,,,,,,,,,,,377.6703883750015,377.7680255409796,378.56528058298863,378.5524622499943,,,,,,,,,,,,,,,,,,,,,,,,,,,,,,,,,,,378.5577432499849,378.56528058298863,378.56528058298863,379.6439046659798,g,1.0,1.0762295829772484,,,,,,sub-135,1,stroop_test,120.11495044938628,
,,,,111.0,3.0,9.0,,,,,,,,,,,,,rot,yellow,g,0.0,g,1.0,0.8170211249962449,,,,,,,,,,9.0,3.0,111.0,3.0,379.65272670798,,,,,,,,,,,,,,,,,379.6443551659759,379.7414993330021,380.5512873329863,380.5249348329962,,,,,,,,,,,,,,,,,,,,,,,,,,,,,,,,,,,380.5284116249823,380.5512873329863,380.5512873329863,381.3706760829955,g,1.0,0.8170211249962449,,,,,,sub-135,1,stroop_test,120.11495044938628,
,,,,112.0,4.0,9.0,,,,,,,,,,,,,gelb,red,r,0.0,r,1.0,0.6334237920236774,,,,,,,,,,9.0,4.0,112.0,8.0,381.37987691597664,,,,,,,,,,,,,,,,,381.37112287498894,382.56835674998,383.3630427909957,383.3523656250036,,,,,,,,,,,,,,,,,,,,,,,,,,,,,,,,,,,383.3559406249842,383.3630427909957,383.3630427909957,384.00415091597824,r,1.0,0.6334237920236774,,,,,,sub-135,1,stroop_test,120.11495044938628,
,,,,113.0,5.0,9.0,,,,,,,,,,,,,blau,blue,b,1.0,b,1.0,0.8003623750119004,,,,,,,,,,9.0,5.0,113.0,6.0,384.0135753749928,,,,,,,,,,,,,,,,,384.00460970797576,384.80171124998014,385.59800320799695,385.5857916249952,,,,,,,,,,,,,,,,,,,,,,,,,,,,,,,,,,,385.59045599997626,385.59800320799695,385.59800320799695,386.4037888329767,b,1.0,0.8003623750119004,,,,,,sub-135,1,stroop_test,120.11495044938628,
,,,,114.0,6.0,9.0,,,,,,,,,,,,,blau,blue,b,1.0,b,1.0,0.6754099579993635,,,,,,,,,,9.0,6.0,114.0,5.0,386.4131926659902,,,,,,,,,,,,,,,,,386.404336165986,387.60168525000336,388.3937075409922,388.3858454579895,,,,,,,,,,,,,,,,,,,,,,,,,,,,,,,,,,,388.38651291598217,388.3937075409922,388.3937075409922,389.0716049159819,b,1.0,0.6754099579993635,,,,,,sub-135,1,stroop_test,120.11495044938628,
,,,,115.0,7.0,9.0,,,,,,,,,,,,,blau,red,r,0.0,r,1.0,1.1914486669993494,,,,,,,,,,9.0,7.0,115.0,4.0,389.0805867500021,,,,,,,,,,,,,,,,,389.07215887500206,389.4186417909805,390.2108560829947,390.20267779097776,,,,,,,,,,,,,,,,,,,,,,,,,,,,,,,,,,,390.2033207909845,390.2108560829947,390.2108560829947,391.4050802499987,r,1.0,1.1914486669993494,,,,,,sub-135,1,stroop_test,120.11495044938628,
,,,,116.0,8.0,9.0,,,,,,,,,,,,,rot,blue,b,0.0,b,1.0,1.154837000009138,,,,,,,,,,9.0,8.0,116.0,2.0,391.4148341659748,,,,,,,,,,,,,,,,,391.4056521249877,391.5020036659844,392.2974591660022,392.2859615829948,,,,,,,,,,,,,,,,,,,,,,,,,,,,,,,,,,,392.2897535410011,392.2974591660022,392.2974591660022,393.4546577500005,b,1.0,1.154837000009138,,,,,,sub-135,1,stroop_test,120.11495044938628,
,,,,117.0,9.0,9.0,,,,,,,,,,,,,gelb,blue,b,0.0,b,1.0,0.7096099999907892,,,,,,,,,,9.0,9.0,117.0,9.0,393.4639193749754,,,,,,,,,,,,,,,,,393.4551072079921,393.8022294580005,394.5971599999757,394.58612366599846,,,,,,,,,,,,,,,,,,,,,,,,,,,,,,,,,,,394.5899525829882,394.5971599999757,394.5971599999757,395.3104034999851,b,1.0,0.7096099999907892,,,,,,sub-135,1,stroop_test,120.11495044938628,
,,,,118.0,10.0,9.0,,,,,,,,,,,,,rot,red,r,1.0,r,1.0,1.0490819999831729,,,,,,,,,,9.0,10.0,118.0,1.0,395.3201783330005,,,,,,,,,,,,,,,,,395.31095862499205,396.1083546250011,396.9041345829901,396.8918312499882,,,,,,,,,,,,,,,,,,,,,,,,,,,,,,,,,,,396.8964784999844,396.9041345829901,396.9041345829901,397.9560068330029,r,1.0,1.0490819999831729,,,,,,sub-135,1,stroop_test,120.11495044938628,
,,,,119.0,11.0,9.0,,,,,,,,,,,,,gelb,yellow,g,1.0,g,1.0,1.6119143340038136,,,,,,,,,,9.0,11.0,119.0,10.0,397.96530362498015,,,,,,,,,,,,,,,,,397.95655712499865,399.1523186659906,399.9482866250037,399.9363048329833,,,,,,,,,,,,,,,,,,,,,,,,,,,,,,,,,,,399.9408338749781,399.9482866250037,399.9482866250037,401.570879832987,g,1.0,1.6119143340038136,,,,,,sub-135,1,stroop_test,120.11495044938628,
,,,,,,,,,,,,,,,,,,,,,,,,,,,,,,,,,,,,,,,,,,,,,,,,,,,,,,,,,,,,,,,,,,,,,,,,,,,,,,,,,,,,,,,,,,,,,,,,,,,,,,401.57114724998246,401.5816274579847,406.5739532499865,406.5697280409804,sub-135,1,stroop_test,120.11495044938628,
