direction,corrAns,randomInstr,practice_trials.thisRepN,practice_trials.thisTrialN,practice_trials.thisN,practice_trials.thisIndex,instr_trials.thisRepN,instr_trials.thisTrialN,instr_trials.thisN,instr_trials.thisIndex,test_trials.thisRepN,test_trials.thisTrialN,test_trials.thisN,test_trials.thisIndex,thisRow.t,notes,general_instruction.started,textGeneralInstr.started,respGeneralInstr.started,general_instruction.stopped,respGeneralInstr.keys,respGeneralInstr.rt,respGeneralInstr.duration,ITI.started,fixcross.started,fixcross.stopped,ITI.stopped,dots.started,backgroundDots.started,stimulusDots.started,respDots.started,stimulusDots.stopped,dots.stopped,respDots.keys,respDots.corr,respDots.rt,respDots.duration,feedback.started,textFeedback.started,feedback.stopped,textFeedback.stopped,info.started,textInfo.started,keyRespInfo.started,info.stopped,keyRespInfo.keys,keyRespInfo.rt,keyRespInfo.duration,test_instruction.started,textTestInstr.started,respTestInstr.started,test_instruction.stopped,respTestInstr.keys,respTestInstr.rt,respTestInstr.duration,random_instruction.started,textRandomInstr.started,respRandomInstr.started,random_instruction.stopped,respRandomInstr.keys,respRandomInstr.rt,respRandomInstr.duration,goodbye.started,textGoodbye.started,textGoodbye.stopped,goodbye.stopped,participant,session,expName,frameRate,Unnamed: 74
,,,,,,,,,,,,,,,,,0.0060978999999861,0.0142955000001165,0.0142955000001165,59.162992000000486,space,82.62969480000083,,,,,,,,,,,,,,,,,,,,,,,,,,,,,,,,,,,,,,,,,,,,,sub-054,1.0,random_dot,60.08867887215538,
right,right,,0.0,0.0,0.0,1.0,,,,,,,,,59.18758290000005,,,,,,,,,59.1837772000008,60.37669910000022,61.17732620000061,61.16147660000024,61.16151460000037,61.17732620000061,61.17732620000061,61.17732620000061,66.16081310000027,78.99612750000051,left,0.0,41.3115284000005,,78.99764700000014,79.02295640000011,79.51041860000078,,,,,,,,,,,,,,,,,,,,,,,,,,,sub-054,1.0,random_dot,60.08867887215538,
left,left,,0.0,1.0,1.0,0.0,,,,,,,,,79.52663950000078,,,,,,,,,79.51110540000082,80.71020770000086,81.5106379000008,81.49478859999999,81.49482480000006,81.5106379000008,81.5106379000008,81.5106379000008,86.51028640000004,88.01363330000004,right,0.0,29.994758200000437,,88.01459550000072,88.02695420000055,88.5111678000003,88.52679270000044,,,,,,,,,,,,,,,,,,,,,,,,,,sub-054,1.0,random_dot,60.08867887215538,
left,left,,1.0,0.0,2.0,0.0,,,,,,,,,88.52679270000044,,,,,,,,,88.51185610000084,88.87687130000086,89.67730720000054,89.66116920000059,89.66120370000044,89.67730720000054,89.67730720000054,89.67730720000054,94.66068640000049,97.74587120000068,left,1.0,31.552670400000352,,97.74682040000062,97.76825310000004,98.2604353000006,,,,,,,,,,,,,,,,,,,,,,,,,,,sub-054,1.0,random_dot,60.08867887215538,
right,right,,1.0,1.0,3.0,1.0,,,,,,,,,98.2765541000008,,,,,,,,,98.26128730000072,99.46005090000016,100.260542,100.24442180000004,100.2444574000001,100.260542,100.260542,100.260542,105.24397650000084,110.31200160000026,left,0.0,33.535375000000386,,110.3126125000008,110.32632790000024,110.81057400000007,110.82621040000048,,,,,,,,,,,,,,,,,,,,,,,,,,sub-054,1.0,random_dot,60.08867887215538,
left,left,,2.0,0.0,4.0,0.0,,,,,,,,,110.82621040000048,,,,,,,,,110.81106240000008,112.02629780000008,112.82694130000073,112.81077070000084,112.81080640000071,112.82694130000073,112.82694130000073,112.82694130000073,117.81039630000032,118.97820430000048,right,0.0,29.641696099999532,,118.97891880000044,118.99311620000026,119.47710710000048,119.4927645000007,,,,,,,,,,,,,,,,,,,,,,,,,,sub-054,1.0,random_dot,60.08867887215538,
right,right,,2.0,1.0,5.0,1.0,,,,,,,,,119.4927645000007,,,,,,,,,119.47763610000038,119.84277290000044,120.64350130000004,120.62698980000005,120.62702040000022,120.64350130000004,120.64350130000004,120.64350130000004,125.62684180000088,126.84472050000022,right,1.0,29.689940600000227,,126.8461767000008,126.85952400000042,127.34377519999998,127.35963020000054,,,,,,,,,,,,,,,,,,,,,,,,,,sub-054,1.0,random_dot,60.08867887215538,
left,left,,3.0,0.0,6.0,0.0,,,,,,,,,127.35963020000054,,,,,,,,,127.34437480000088,128.55947770000057,129.36014810000052,129.34333420000075,129.34336210000038,129.36014810000052,129.36014810000052,129.36014810000052,134.34347620000062,135.3949749000003,right,0.0,29.524113800000123,,135.3959147000005,135.40966070000013,135.89343670000017,135.9095612000001,,,,,,,,,,,,,,,,,,,,,,,,,,sub-054,1.0,random_dot,60.08867887215538,
right,right,,3.0,1.0,7.0,1.0,,,,,,,,,135.9095612000001,,,,,,,,,135.89405130000068,136.70953870000085,137.51018720000047,137.4937245000001,137.49375780000082,137.51018720000047,137.51018720000047,137.51018720000047,142.49345930000072,143.44577160000065,left,0.0,29.418482900000527,,143.44759240000076,143.4596556000006,143.94410460000017,143.9595218000004,,,,,,,,,,,,,,,,,,,,,,,,,,sub-054,1.0,random_dot,60.08867887215538,
left,left,,4.0,0.0,8.0,0.0,,,,,,,,,143.9595218000004,,,,,,,,,143.94510010000067,144.75957970000036,145.56026680000014,145.5437122000003,145.5437419,145.56026680000014,145.56026680000014,145.56026680000014,150.54355620000024,151.57850580000013,left,1.0,29.49983049999992,,151.5794147000006,151.59281100000044,152.07771550000052,152.09297380000044,,,,,,,,,,,,,,,,,,,,,,,,,,sub-054,1.0,random_dot,60.08867887215538,
right,right,,4.0,1.0,9.0,1.0,,,,,,,,,152.09297380000044,,,,,,,,,152.07849680000072,152.8931035000005,153.6937424000007,153.6778546000005,153.67789100000027,153.6937424000007,153.6937424000007,153.6937424000007,158.6772675000002,159.61223620000055,left,0.0,29.397443300000305,,159.61309430000074,159.62643840000055,160.1109292000001,160.12644630000068,,,,,,,,,,,,,,,,,,,,,,,,,,sub-054,1.0,random_dot,60.08867887215538,
left,left,,5.0,0.0,10.0,0.0,,,,,,,,,160.12644630000068,,,,,,,,,160.11168859999998,161.3264435000001,162.1273086000001,162.1112107000008,162.11124740000014,162.1273086000001,162.1273086000001,162.1273086000001,167.1105004000001,168.4791369000004,left,1.0,29.842519099999663,,168.48010200000044,168.49291920000087,168.97804150000047,168.9929716000006,,,,,,,,,,,,,,,,,,,,,,,,,,sub-054,1.0,random_dot,60.08867887215538,
right,right,,5.0,1.0,11.0,1.0,,,,,,,,,168.9929716000006,,,,,,,,,168.97908330000064,169.34322190000057,170.14383480000015,170.12795840000035,170.12801480000053,170.14383480000015,170.14383480000015,170.14383480000015,175.1433693000008,179.31289030000062,right,1.0,32.64803169999959,,179.3142179000006,179.3263624000001,179.81104180000057,179.82626040000014,,,,,,,,,,,,,,,,,,,,,,,,,,sub-054,1.0,random_dot,60.08867887215538,
left,left,,6.0,0.0,12.0,0.0,,,,,,,,,179.82626040000014,,,,,,,,,179.81176270000014,180.1765830000004,180.97724470000048,180.96130730000004,180.9613429000001,180.97724470000048,180.97724470000048,180.97724470000048,185.96046100000055,187.27810710000085,right,0.0,29.77976199999921,,187.27895420000004,187.2926361,187.7780106,187.7932003000005,,,,,,,,,,,,,,,,,,,,,,,,,,sub-054,1.0,random_dot,60.08867887215538,
right,right,,6.0,1.0,13.0,1.0,,,,,,,,,187.7932003000005,,,,,,,,,187.779141,188.14304320000065,188.94383770000056,188.92761950000025,188.92765550000055,188.94383770000056,188.94383770000056,188.94383770000056,193.92693559999952,194.928868,left,0.0,29.46681229999922,,194.92984870000052,194.9433016000012,195.42814230000025,195.44305500000064,,,,,,,,,,,,,,,,,,,,,,,,,,sub-054,1.0,random_dot,60.08867887215538,
right,right,,7.0,0.0,14.0,1.0,,,,,,,,,195.44305500000064,,,,,,,,,195.4288628000004,195.7929979999999,196.59367099999963,196.5778505999997,196.577887800001,196.59367099999963,196.59367099999963,196.59367099999963,201.57674270000007,202.7293744000008,right,1.0,29.61842240000169,,202.73067060000085,202.742914200001,203.2281396000008,203.24298460000043,,,,,,,,,,,,,,,,,,,,,,,,,,sub-054,1.0,random_dot,60.08867887215538,
left,left,,7.0,1.0,15.0,0.0,,,,,,,,,203.24298460000043,,,,,,,,,203.228845300001,203.5930795000013,204.3937207000008,204.3775241000012,204.37756750000065,204.3937207000008,204.3937207000008,204.3937207000008,209.3771311999999,210.3626661999997,left,1.0,29.452788199999304,,210.3636816999997,210.37654139999995,210.8610405999998,210.8762682000006,,,,,,,,,,,,,,,,,,,,,,,,,,sub-054,1.0,random_dot,60.08867887215538,
right,right,,8.0,0.0,16.0,1.0,,,,,,,,,210.8762682000006,,,,,,,,,210.86174550000123,212.07634469999996,212.87700610000047,212.86095190000103,212.86099019999983,212.87700610000047,212.87700610000047,212.87700610000047,217.86037579999996,218.7455278999996,right,1.0,29.35484110000016,,218.7464062000008,218.75984160000095,219.2442609,219.2598022000011,,,,,,,,,,,,,,,,,,,,,,,,,,sub-054,1.0,random_dot,60.08867887215538,
left,left,,8.0,1.0,17.0,0.0,,,,,,,,,219.2598022000011,,,,,,,,,219.24507350000115,219.6097825999996,220.4103513,220.39434540000093,220.39438100000095,220.4103513,220.4103513,220.4103513,225.4099481000003,226.31257230000028,right,0.0,29.39569870000105,,226.31351910000103,226.3265875999996,226.8108714,226.8265151000005,,,,,,,,,,,,,,,,,,,,,,,,,,sub-054,1.0,random_dot,60.08867887215538,
left,left,,9.0,0.0,18.0,0.0,,,,,,,,,226.8265151000005,,,,,,,,,226.81152440000096,227.17628290000084,227.97705570000016,227.9608724,227.9609124000008,227.97705570000016,227.97705570000016,227.97705570000016,232.9603314000005,233.8787430000002,right,0.0,29.392582499999666,,233.87969330000035,233.89320850000055,234.37760310000067,234.3934606000012,,,,,,,,,,,,,,,,,,,,,,,,,,sub-054,1.0,random_dot,60.08867887215538,
right,right,,9.0,1.0,19.0,1.0,,,,,,,,,234.3934606000012,,,,,,,,,234.37833670000052,234.49297279999973,235.2934978000003,235.27705549999973,235.2770917000007,235.2934978000003,235.2934978000003,235.2934978000003,240.27668130000075,241.17936720000125,right,1.0,29.378576899999644,,241.18039560000125,241.19406000000072,241.69308590000128,,,,,,,,,,,,,,,,,,,,,,,,,,,sub-054,1.0,random_dot,60.08867887215538,
,,,,,,,,,,,,,,,,,,,,,,,,,,,,,,,,,,,,,,,,,,241.69332210000084,241.70967260000089,241.70967260000089,258.3624866,space,40.14691479999874,,,,,,,,,,,,,,,,,,,,sub-054,1.0,random_dot,60.08867887215538,
,,,,,,,,,,,,,,,,,,,,,,,,,,,,,,,,,,,,,,,,,,,,,,,,,258.3626138000009,258.3766450000012,258.3766450000012,280.7283706999997,space,45.84156139999959,,,,,,,,,,,,,sub-054,1.0,random_dot,60.08867887215538,
right,right,speed,,,,,0.0,0.0,0.0,1.0,0.0,0.0,0.0,1.0,288.1476107999997,,,,,,,,,288.1436842000012,288.2429392000004,289.04353270000047,289.0277589999996,289.0277978000004,289.04353270000047,289.04353270000047,289.04353270000047,,292.09554320000007,right,1.0,26.531820600000174,,,,,,,,,,,,,,,,,,,,280.7369757999995,280.7695303000009,280.7695303000009,288.12812440000107,space,30.840327299999444,,,,,,sub-054,1.0,random_dot,60.08867887215538,
left,left,speed,,,,,0.0,0.0,0.0,1.0,0.0,1.0,1.0,0.0,292.1096040000002,,,,,,,,,292.0980866,292.4598237,293.26025650000065,293.2441238000001,293.24415920000047,293.26025650000065,293.26025650000065,293.26025650000065,298.24365670000134,298.2958972999995,right,0.0,28.52793969999857,,,,,,,,,,,,,,,,,,,,,,,,,,,,,,,sub-054,1.0,random_dot,60.08867887215538,
left,left,speed,,,,,0.0,0.0,0.0,1.0,1.0,0.0,2.0,0.0,298.3094916,,,,,,,,,298.2984763000013,298.65947640000104,299.46019350000006,299.4441310000011,299.4441660000002,299.46019350000006,299.46019350000006,299.46019350000006,,303.34590389999994,left,1.0,27.37798769999881,,,,,,,,,,,,,,,,,,,,,,,,,,,,,,,sub-054,1.0,random_dot,60.08867887215538,
right,right,speed,,,,,0.0,0.0,0.0,1.0,1.0,1.0,3.0,1.0,303.3594915000004,,,,,,,,,303.3476885000009,304.55970350000007,305.3602376000008,305.3442263000006,305.34426090000034,305.3602376000008,305.3602376000008,305.3602376000008,,310.0295537000011,left,0.0,28.148718600000397,,,,,,,,,,,,,,,,,,,,,,,,,,,,,,,sub-054,1.0,random_dot,60.08867887215538,
left,left,speed,,,,,0.0,0.0,0.0,1.0,2.0,0.0,4.0,0.0,310.0426749999997,,,,,,,,,310.03149490000123,310.84297960000094,311.6434636000004,311.62744010000006,311.62747600000057,311.6434636000004,311.6434636000004,311.6434636000004,316.62704310000026,316.9956364,right,0.0,28.83201199999985,,,,,,,,,,,,,,,,,,,,,,,,,,,,,,,sub-054,1.0,random_dot,60.08867887215538,
right,right,speed,,,,,0.0,0.0,0.0,1.0,2.0,1.0,5.0,1.0,317.00942490000034,,,,,,,,,316.9975414999999,317.10941080000066,317.9101367000012,317.8942070000003,317.8942409000001,317.9101367000012,317.9101367000012,317.9101367000012,322.8934228999997,323.8456197000005,left,0.0,29.428635799999935,,,,,,,,,,,,,,,,,,,,,,,,,,,,,,,sub-054,1.0,random_dot,60.08867887215538,
right,right,speed,,,,,0.0,0.0,0.0,1.0,3.0,0.0,6.0,1.0,323.8594464000007,,,,,,,,,323.8474360000009,325.0594009999995,325.8600190999996,325.84406109999964,325.84409850000065,325.8600190999996,325.8600190999996,325.8600190999996,330.8435304000004,331.6287175000007,left,0.0,29.25589630000013,,,,,,,,,,,,,,,,,,,,,,,,,,,,,,,sub-054,1.0,random_dot,60.08867887215538,
left,left,speed,,,,,0.0,0.0,0.0,1.0,3.0,1.0,7.0,0.0,331.6429407000005,,,,,,,,,331.6305493000009,332.4429554000008,333.2434116000013,333.2274625,333.22750449999967,333.2434116000013,333.2434116000013,333.2434116000013,,336.8124515999998,right,0.0,27.04791650000061,,,,,,,,,,,,,,,,,,,,,,,,,,,,,,,sub-054,1.0,random_dot,60.08867887215538,
left,left,speed,,,,,0.0,0.0,0.0,1.0,4.0,0.0,8.0,0.0,336.8262710000008,,,,,,,,,336.81439039999987,338.0262191000011,338.82689029999983,338.81078100000104,338.81081600000016,338.82689029999983,338.82689029999983,338.82689029999983,,343.5957120000012,right,0.0,28.26250540000092,,,,,,,,,,,,,,,,,,,,,,,,,,,,,,,sub-054,1.0,random_dot,60.08867887215538,
right,right,speed,,,,,0.0,0.0,0.0,1.0,4.0,1.0,9.0,1.0,343.60945790000096,,,,,,,,,343.5976142999998,344.8095112000001,345.61024760000055,345.59427010000127,345.594306,345.61024760000055,345.61024760000055,345.61024760000055,,349.8119589000007,left,0.0,27.6948024000003,,,,,,,,,,,,,,,,,,,,,,,,,,,,,,,sub-054,1.0,random_dot,60.08867887215538,
right,right,speed,,,,,0.0,0.0,0.0,1.0,5.0,0.0,10.0,1.0,349.8261472000004,,,,,,,,,349.8137729,351.02622240000073,351.8266783000008,351.810937700001,351.810981900001,351.8266783000008,351.8266783000008,351.8266783000008,,355.82789200000025,right,1.0,27.48957539999992,,,,,,,,,,,,,,,,,,,,,,,,,,,,,,,sub-054,1.0,random_dot,60.08867887215538,
left,left,speed,,,,,0.0,0.0,0.0,1.0,5.0,1.0,11.0,0.0,355.8425988000008,,,,,,,,,355.8289450000002,356.19280139999955,356.9933155000008,356.9772941000001,356.97732950000045,356.9933155000008,356.9933155000008,356.9933155000008,,361.41189159999976,left,1.0,27.90126390000023,,,,,,,,,,,,,,,,,,,,,,,,,,,,,,,sub-054,1.0,random_dot,60.08867887215538,
left,left,speed,,,,,0.0,0.0,0.0,1.0,6.0,0.0,12.0,0.0,361.4262226000001,,,,,,,,,361.4146747000004,362.62590139999975,363.4269664000012,363.4106367000013,363.4106726,363.4269664000012,363.4269664000012,363.4269664000012,,367.37873409999975,left,1.0,27.44131020000077,,,,,,,,,,,,,,,,,,,,,,,,,,,,,,,sub-054,1.0,random_dot,60.08867887215538,
right,right,speed,,,,,0.0,0.0,0.0,1.0,6.0,1.0,13.0,1.0,367.39263029999984,,,,,,,,,367.3806160000013,368.5927438999997,369.3933272000004,369.3772053000002,369.37724100000105,369.3933272000004,369.3933272000004,369.3933272000004,,372.8451269000007,right,1.0,26.938100399999712,,,,,,,,,,,,,,,,,,,,,,,,,,,,,,,sub-054,1.0,random_dot,60.08867887215538,
left,left,speed,,,,,0.0,0.0,0.0,1.0,7.0,0.0,14.0,0.0,372.85944800000016,,,,,,,,,372.8470332999996,373.2094874000004,374.0099059000013,373.9941669000009,373.9942068999999,374.0099059000013,374.0099059000013,374.0099059000013,,377.7284642000004,right,0.0,27.20952169999964,,,,,,,,,,,,,,,,,,,,,,,,,,,,,,,sub-054,1.0,random_dot,60.08867887215538,
right,right,speed,,,,,0.0,0.0,0.0,1.0,7.0,1.0,15.0,1.0,377.7426998000001,,,,,,,,,377.7304885000003,377.8426876000003,378.6434581000003,378.6271999999999,378.62723480000113,378.6434581000003,378.6434581000003,378.6434581000003,,383.1293272000012,right,1.0,27.964604800000416,,,,,,,,,,,,,,,,,,,,,,,,,,,,,,,sub-054,1.0,random_dot,60.08867887215538,
left,left,speed,,,,,0.0,0.0,0.0,1.0,8.0,0.0,16.0,0.0,383.1428880000012,,,,,,,,,383.13155300000017,383.242836800001,384.0434283000004,384.0272020000002,384.0272379000007,384.0434283000004,384.0434283000004,384.0434283000004,,388.26190080000106,left,1.0,27.69751509999969,,,,,,,,,,,,,,,,,,,,,,,,,,,,,,,sub-054,1.0,random_dot,60.08867887215538,
right,right,speed,,,,,0.0,0.0,0.0,1.0,8.0,1.0,17.0,1.0,388.2759925,,,,,,,,,388.26411090000056,389.0759877999999,389.87644420000015,389.8605881000012,389.8606277000008,389.87644420000015,389.87644420000015,389.87644420000015,394.8594307000012,394.8452427000002,right,1.0,28.457865100000163,,,,,,,,,,,,,,,,,,,,,,,,,,,,,,,sub-054,1.0,random_dot,60.08867887215538,
right,right,speed,,,,,0.0,0.0,0.0,1.0,9.0,0.0,18.0,1.0,394.8594307000012,,,,,,,,,394.8472626000012,395.6592050999998,396.4599879999996,396.4438094000007,396.44384439999976,396.4599879999996,396.4599879999996,396.4599879999996,,400.9453356000004,right,1.0,27.978507200000426,,,,,,,,,,,,,,,,,,,,,,,,,,,,,,,sub-054,1.0,random_dot,60.08867887215538,
left,left,speed,,,,,0.0,0.0,0.0,1.0,9.0,1.0,19.0,0.0,400.9592491000012,,,,,,,,,400.9471132000008,401.7592570999996,402.5600858000007,402.5440022000012,402.5440368999998,402.5600858000007,402.5600858000007,402.5600858000007,,406.6283183000005,right,0.0,27.55645979999917,,,,,,,,,,,,,,,,,,,,,,,,,,,,,,,sub-054,1.0,random_dot,60.08867887215538,
left,left,speed,,,,,0.0,0.0,0.0,1.0,10.0,0.0,20.0,0.0,406.6424925000001,,,,,,,,,406.63021930000014,406.99259230000007,407.7933201000005,407.7770448000001,407.7770807000006,407.7933201000005,407.7933201000005,407.7933201000005,,411.96232920000057,left,1.0,27.65380019999884,,,,,,,,,,,,,,,,,,,,,,,,,,,,,,,sub-054,1.0,random_dot,60.08867887215538,
right,right,speed,,,,,0.0,0.0,0.0,1.0,10.0,1.0,21.0,1.0,411.9759001000011,,,,,,,,,411.9642458000008,412.7760559000008,413.57647520000046,413.5603423000002,413.5603798000002,413.57647520000046,413.57647520000046,413.57647520000046,,416.9450325999997,right,1.0,26.847529399999075,,,,,,,,,,,,,,,,,,,,,,,,,,,,,,,sub-054,1.0,random_dot,60.08867887215538,
right,right,speed,,,,,0.0,0.0,0.0,1.0,11.0,0.0,22.0,1.0,416.9593150999999,,,,,,,,,416.94700920000014,417.3093775000007,418.1099944999996,418.0938401000012,418.0938745000012,418.1099944999996,418.1099944999996,418.1099944999996,,421.89577700000063,left,0.0,27.278925499999787,,,,,,,,,,,,,,,,,,,,,,,,,,,,,,,sub-054,1.0,random_dot,60.08867887215538,
left,left,speed,,,,,0.0,0.0,0.0,1.0,11.0,1.0,23.0,0.0,421.9094035000008,,,,,,,,,421.8985199999997,422.70918170000095,423.5099249000005,423.4938321,423.4938797000004,423.5099249000005,423.5099249000005,423.5099249000005,,427.27932000000055,left,1.0,27.25264069999957,,,,,,,,,,,,,,,,,,,,,,,,,,,,,,,sub-054,1.0,random_dot,60.08867887215538,
left,left,speed,,,,,0.0,0.0,0.0,1.0,12.0,0.0,24.0,0.0,427.2929410999996,,,,,,,,,427.2811661000005,427.64249780000046,428.4432896999997,428.4272897000001,428.4273258000003,428.4432896999997,428.4432896999997,428.4432896999997,,432.31184120000125,left,1.0,27.35890080000081,,,,,,,,,,,,,,,,,,,,,,,,,,,,,,,sub-054,1.0,random_dot,60.08867887215538,
right,right,speed,,,,,0.0,0.0,0.0,1.0,12.0,1.0,25.0,1.0,432.32582210000055,,,,,,,,,432.3137149000004,433.52575499999966,434.3264812999996,434.31061110000064,434.31064590000005,434.3264812999996,434.3264812999996,434.3264812999996,,438.0284820000006,right,1.0,27.18749149999985,,,,,,,,,,,,,,,,,,,,,,,,,,,,,,,sub-054,1.0,random_dot,60.08867887215538,
right,right,speed,,,,,0.0,0.0,0.0,1.0,13.0,0.0,26.0,1.0,438.0426318,,,,,,,,,438.03116950000094,438.3925011000001,439.1931145999997,439.17708349999975,439.1771189000001,439.1931145999997,439.1931145999997,439.1931145999997,,442.3616186999998,right,1.0,26.65504039999996,,,,,,,,,,,,,,,,,,,,,,,,,,,,,,,sub-054,1.0,random_dot,60.08867887215538,
left,left,speed,,,,,0.0,0.0,0.0,1.0,13.0,1.0,27.0,0.0,442.37581020000016,,,,,,,,,442.3634966,443.5757663000013,444.3764586999996,444.3607120000006,444.3607472000013,444.3764586999996,444.3764586999996,444.3764586999996,,448.71184040000026,left,1.0,27.82411780000166,,,,,,,,,,,,,,,,,,,,,,,,,,,,,,,sub-054,1.0,random_dot,60.08867887215538,
left,left,speed,,,,,0.0,0.0,0.0,1.0,14.0,0.0,28.0,0.0,448.7256805999996,,,,,,,,,448.7138256000008,449.9260581999997,450.7265530000013,450.7103999000001,450.71043589999954,450.7265530000013,450.7265530000013,450.7265530000013,,453.6619085000011,left,1.0,26.428747700000716,,,,,,,,,,,,,,,,,,,,,,,,,,,,,,,sub-054,1.0,random_dot,60.08867887215538,
right,right,speed,,,,,0.0,0.0,0.0,1.0,14.0,1.0,29.0,1.0,453.6756002000011,,,,,,,,,453.6637763000008,454.4759495999997,455.2765341000004,455.2605270000013,455.2605633000012,455.2765341000004,455.2765341000004,455.2765341000004,,457.694929100001,right,1.0,25.90738499999952,,,,,,,,,,,,,,,,,,,,,,,,,,,,,,,sub-054,1.0,random_dot,60.08867887215538,
left,left,speed,,,,,0.0,0.0,0.0,1.0,15.0,0.0,30.0,0.0,457.70925030000126,,,,,,,,,457.6968113000012,458.50908059999983,459.30983819999983,459.294218,459.2942547000012,459.30983819999983,459.30983819999983,459.30983819999983,,463.0616336000012,left,1.0,27.242933999998968,,,,,,,,,,,,,,,,,,,,,,,,,,,,,,,sub-054,1.0,random_dot,60.08867887215538,
right,right,speed,,,,,0.0,0.0,0.0,1.0,15.0,1.0,31.0,1.0,463.0757131,,,,,,,,,463.0635417000003,463.1760107,463.9765436000007,463.9605202000012,463.9605646000009,463.9765436000007,463.9765436000007,463.9765436000007,,466.19505740000113,right,1.0,25.710895100000016,,,,,,,,,,,,,,,,,,,,,,,,,,,,,,,sub-054,1.0,random_dot,60.08867887215538,
right,right,speed,,,,,0.0,0.0,0.0,1.0,16.0,0.0,32.0,1.0,466.2091602999999,,,,,,,,,466.1968662000008,467.4094018000005,468.2097144000009,468.19344379999984,468.1934807999996,468.2097144000009,468.2097144000009,468.2097144000009,,470.3117712000012,left,0.0,25.5878158000005,,,,,,,,,,,,,,,,,,,,,,,,,,,,,,,sub-054,1.0,random_dot,60.08867887215538,
left,left,speed,,,,,0.0,0.0,0.0,1.0,16.0,1.0,33.0,0.0,470.3256570000003,,,,,,,,,470.3137078999998,471.1257670000005,471.9262714000006,471.9107253000011,471.9107649000007,471.9262714000006,471.9262714000006,471.9262714000006,,474.69510530000025,right,0.0,26.261603600000853,,,,,,,,,,,,,,,,,,,,,,,,,,,,,,,sub-054,1.0,random_dot,60.08867887215538,
left,left,speed,,,,,0.0,0.0,0.0,1.0,17.0,0.0,34.0,0.0,474.7092054000013,,,,,,,,,474.6972742000007,475.5090437000008,476.3097690000004,476.2939216000004,476.29396069999984,476.3097690000004,476.3097690000004,476.3097690000004,,479.8623180000004,right,0.0,27.036352899999656,,,,,,,,,,,,,,,,,,,,,,,,,,,,,,,sub-054,1.0,random_dot,60.08867887215538,
right,right,speed,,,,,0.0,0.0,0.0,1.0,17.0,1.0,35.0,1.0,479.87593339999967,,,,,,,,,479.8653518000001,481.0757881,481.8763847,481.86048180000125,481.8605171999998,481.8763847,481.8763847,481.8763847,,485.3289759000008,right,1.0,26.93327369999952,,,,,,,,,,,,,,,,,,,,,,,,,,,,,,,sub-054,1.0,random_dot,60.08867887215538,
left,left,speed,,,,,0.0,0.0,0.0,1.0,18.0,0.0,36.0,0.0,485.342655200001,,,,,,,,,485.3308987999999,486.5424112999999,487.3429913000009,487.326944200001,487.32698000000073,487.3429913000009,487.3429913000009,487.3429913000009,,488.9453660000008,left,1.0,25.090371200000845,,,,,,,,,,,,,,,,,,,,,,,,,,,,,,,sub-054,1.0,random_dot,60.08867887215538,
right,right,speed,,,,,0.0,0.0,0.0,1.0,18.0,1.0,37.0,1.0,488.9592786000003,,,,,,,,,488.9471972000001,489.7592881999999,490.5597492999996,490.5435395000013,490.5435745000004,490.5597492999996,490.5597492999996,490.5597492999996,,491.812172500001,right,1.0,24.73527900000136,,,,,,,,,,,,,,,,,,,,,,,,,,,,,,,sub-054,1.0,random_dot,60.08867887215538,
left,left,speed,,,,,0.0,0.0,0.0,1.0,19.0,0.0,38.0,0.0,491.82584489999954,,,,,,,,,491.8139478000003,492.62572550000095,493.4264160000012,493.4107119000009,493.4107469000001,493.4264160000012,493.4264160000012,493.4264160000012,,495.64618620000056,left,1.0,25.699858399998448,,,,,,,,,,,,,,,,,,,,,,,,,,,,,,,sub-054,1.0,random_dot,60.08867887215538,
right,right,speed,,,,,0.0,0.0,0.0,1.0,19.0,1.0,39.0,1.0,495.65918260000126,,,,,,,,,495.6479962000003,496.8591466000007,497.6596835999999,497.6436813999999,497.6437164000008,497.6596835999999,497.6596835999999,497.6596835999999,,499.59523050000007,right,1.0,25.42975480000041,,,,,,,,,,,,,,,,,,,,,,,,,,,,,,,sub-054,1.0,random_dot,60.08867887215538,
right,right,speed,,,,,0.0,0.0,0.0,1.0,20.0,0.0,40.0,1.0,499.6090336000007,,,,,,,,,499.5970805999996,499.7089882000009,500.5097403999998,500.49365020000096,500.4936857000002,500.5097403999998,500.5097403999998,500.5097403999998,,503.9279465999998,right,1.0,26.89797140000064,,,,,,,,,,,,,,,,,,,,,,,,,,,,,,,sub-054,1.0,random_dot,60.08867887215538,
left,left,speed,,,,,0.0,0.0,0.0,1.0,20.0,1.0,41.0,0.0,503.942007300001,,,,,,,,,503.9298485999998,504.74256460000015,505.5430662000008,505.527049700001,505.5270843999997,505.5430662000008,505.5430662000008,505.5430662000008,,506.92843280000034,right,0.0,24.8644032000002,,,,,,,,,,,,,,,,,,,,,,,,,,,,,,,sub-054,1.0,random_dot,60.08867887215538,
left,left,speed,,,,,0.0,0.0,0.0,1.0,21.0,0.0,42.0,0.0,506.9423616000013,,,,,,,,,506.9306958000007,508.1423146000007,508.9430653999998,508.92743299999984,508.9274684000002,508.9430653999998,508.9430653999998,508.9430653999998,,510.2464714999997,left,1.0,24.78556359999948,,,,,,,,,,,,,,,,,,,,,,,,,,,,,,,sub-054,1.0,random_dot,60.08867887215538,
right,right,speed,,,,,0.0,0.0,0.0,1.0,21.0,1.0,43.0,1.0,510.2590717000012,,,,,,,,,510.2483266000008,510.6091047,511.4096865000001,511.3937354,511.39377890000014,511.4096865000001,511.4096865000001,511.4096865000001,,512.8947811999997,right,1.0,24.972862199999327,,,,,,,,,,,,,,,,,,,,,,,,,,,,,,,sub-054,1.0,random_dot,60.08867887215538,
left,left,speed,,,,,0.0,0.0,0.0,1.0,22.0,0.0,44.0,0.0,512.9089028999997,,,,,,,,,512.8966749000001,513.7093298999998,514.5097093000013,514.4934798000004,514.4935180000002,514.5097093000013,514.5097093000013,514.5097093000013,,516.3783279000008,left,1.0,25.36181459999989,,,,,,,,,,,,,,,,,,,,,,,,,,,,,,,sub-054,1.0,random_dot,60.08867887215538,
right,right,speed,,,,,0.0,0.0,0.0,1.0,22.0,1.0,45.0,1.0,516.3923256000007,,,,,,,,,516.3801328,517.1922815000007,517.9928473999998,517.9773037000004,517.9773493000002,517.9928473999998,517.9928473999998,517.9928473999998,,519.9117059000009,right,1.0,25.401512499999622,,,,,,,,,,,,,,,,,,,,,,,,,,,,,,,sub-054,1.0,random_dot,60.08867887215538,
right,right,speed,,,,,0.0,0.0,0.0,1.0,23.0,0.0,46.0,1.0,519.9257645999996,,,,,,,,,519.9136640000006,521.1253153000007,521.9267303000006,521.9101399000001,521.910178000001,521.9267303000006,521.9267303000006,521.9267303000006,,524.0280657000012,left,0.0,25.58944620000057,,,,,,,,,,,,,,,,,,,,,,,,,,,,,,,sub-054,1.0,random_dot,60.08867887215538,
left,left,speed,,,,,0.0,0.0,0.0,1.0,23.0,1.0,47.0,0.0,524.0423887000006,,,,,,,,,524.0300553999996,525.2421956000007,526.0429020000001,526.0268901000009,526.0269256000001,526.0429020000001,526.0429020000001,526.0429020000001,,527.8619055000008,left,1.0,25.307772499999373,,,,,,,,,,,,,,,,,,,,,,,,,,,,,,,sub-054,1.0,random_dot,60.08867887215538,
left,left,speed,,,,,0.0,0.0,0.0,1.0,24.0,0.0,48.0,0.0,527.8758368000008,,,,,,,,,527.8637241999995,528.2256052000002,529.0262822000013,529.0105525000008,529.0105995000004,529.0262822000013,529.0262822000013,529.0262822000013,,530.8282614000009,right,0.0,25.29307140000037,,,,,,,,,,,,,,,,,,,,,,,,,,,,,,,sub-054,1.0,random_dot,60.08867887215538,
right,right,speed,,,,,0.0,0.0,0.0,1.0,24.0,1.0,49.0,1.0,530.8424487000002,,,,,,,,,530.8301961000006,532.0424365999997,532.8431040000005,532.8269361000011,532.8269710000013,532.8431040000005,532.8431040000005,532.8431040000005,,534.2615484999997,right,1.0,24.89721849999933,,,,,,,,,,,,,,,,,,,,,,,,,,,,,,,sub-054,1.0,random_dot,60.08867887215538,
left,left,speed,,,,,0.0,0.0,0.0,1.0,25.0,0.0,50.0,0.0,534.275746100001,,,,,,,,,534.2635301,534.625528900001,535.4263729000004,535.4103959000013,535.4104322000012,535.4263729000004,535.4263729000004,535.4263729000004,,537.2617693000002,left,1.0,25.32337009999992,,,,,,,,,,,,,,,,,,,,,,,,,,,,,,,sub-054,1.0,random_dot,60.08867887215538,
right,right,speed,,,,,0.0,0.0,0.0,1.0,25.0,1.0,51.0,1.0,537.275650300001,,,,,,,,,537.2636487000009,537.6256541000012,538.4262347000013,538.4102721999998,538.4103091000006,538.4262347000013,538.4262347000013,538.4262347000013,,540.2283926999999,right,1.0,25.290843000001587,,,,,,,,,,,,,,,,,,,,,,,,,,,,,,,sub-054,1.0,random_dot,60.08867887215538,
left,left,speed,,,,,0.0,0.0,0.0,1.0,26.0,0.0,52.0,0.0,540.242435000001,,,,,,,,,540.2302783000005,540.5923595000013,541.3930270999999,541.3770236999999,541.3770586,541.3930270999999,541.3930270999999,541.3930270999999,,543.1613922999995,left,1.0,25.254908599999,,,,,,,,,,,,,,,,,,,,,,,,,,,,,,,sub-054,1.0,random_dot,60.08867887215538,
right,right,speed,,,,,0.0,0.0,0.0,1.0,26.0,1.0,53.0,1.0,543.1755082999998,,,,,,,,,543.1631841999997,543.2756029000002,544.0763355999998,544.0604517000002,544.060487400001,544.0763355999998,544.0763355999998,544.0763355999998,,546.3784442000006,right,1.0,25.794775899998967,,,,,,,,,,,,,,,,,,,,,,,,,,,,,,,sub-054,1.0,random_dot,60.08867887215538,
right,right,speed,,,,,0.0,0.0,0.0,1.0,27.0,0.0,54.0,1.0,546.3922986000007,,,,,,,,,546.3803346000013,546.4923331,547.2928081,547.2768640000004,547.2769003000003,547.2928081,547.2928081,547.2928081,,550.4945873999995,right,1.0,26.6929353000005,,,,,,,,,,,,,,,,,,,,,,,,,,,,,,,sub-054,1.0,random_dot,60.08867887215538,
left,left,speed,,,,,0.0,0.0,0.0,1.0,27.0,1.0,55.0,0.0,550.5091343000013,,,,,,,,,550.4964597999997,550.8589679999995,551.6595600999999,551.6440462,551.6440872000012,551.6595600999999,551.6595600999999,551.6595600999999,,552.9117350999995,left,1.0,24.73747960000128,,,,,,,,,,,,,,,,,,,,,,,,,,,,,,,sub-054,1.0,random_dot,60.08867887215538,
left,left,speed,,,,,0.0,0.0,0.0,1.0,28.0,0.0,56.0,0.0,552.9258880000007,,,,,,,,,552.9136270000008,553.2755972000004,554.0761510000002,554.0603056000009,554.0603438000007,554.0761510000002,554.0761510000002,554.0761510000002,,555.6455188000009,right,0.0,25.051603500000965,,,,,,,,,,,,,,,,,,,,,,,,,,,,,,,sub-054,1.0,random_dot,60.08867887215538,
right,right,speed,,,,,0.0,0.0,0.0,1.0,28.0,1.0,57.0,1.0,555.6589807999999,,,,,,,,,555.6473367999997,556.459221600001,557.2597605000001,557.2434522000012,557.2434875999998,557.2597605000001,557.2597605000001,557.2597605000001,,559.3614409000011,left,0.0,25.58570989999953,,,,,,,,,,,,,,,,,,,,,,,,,,,,,,,sub-054,1.0,random_dot,60.08867887215538,
left,left,speed,,,,,0.0,0.0,0.0,1.0,29.0,0.0,58.0,0.0,559.3755356000011,,,,,,,,,559.3633282000001,559.4754939000004,560.2760148000007,560.2607126000012,560.2607479999997,560.2760148000007,560.2760148000007,560.2760148000007,,562.4782072000007,left,1.0,25.683085699999538,,,,,,,,,,,,,,,,,,,,,,,,,,,,,,,sub-054,1.0,random_dot,60.08867887215538,
right,right,speed,,,,,0.0,0.0,0.0,1.0,29.0,1.0,59.0,1.0,562.4922448999996,,,,,,,,,562.4800717999997,562.5921258999997,563.3928907,563.3770003,563.3770347,563.3928907,563.3928907,563.3928907,,564.6784397000001,right,1.0,24.76697599999989,,,,,,,,,,,,,,,,,,,,,,,,,,,,,,,sub-054,1.0,random_dot,60.08867887215538,
,,speed,,,,,0.0,0.0,0.0,1.0,,,,,,,,,,,,,,,,,,,,,,,,,,,,,,,,,,,,,,,,,,,,,,,,,,,,,,,,,sub-054,1.0,random_dot,60.08867887215538,
left,left,accuracy,,,,,0.0,1.0,1.0,0.0,0.0,0.0,0.0,0.0,574.3483158999998,,,,,,,,,574.3437346000001,575.1422604000009,575.9428416000001,575.9266994,575.9267504000009,575.9428416000001,575.9428416000001,575.9428416000001,,578.4122856000004,right,0.0,25.9541949000004,,,,,,,,,,,,,,,,,,,,564.6801837000012,564.7065052999997,564.7065052999997,574.3278146000002,space,33.11406050000096,,,,,,sub-054,1.0,random_dot,60.08867887215538,
right,right,accuracy,,,,,0.0,1.0,1.0,0.0,0.0,1.0,1.0,1.0,578.4253479999998,,,,,,,,,578.414729000001,579.2252393000008,580.0263041000007,580.0100017000013,580.0100388000001,580.0263041000007,580.0263041000007,580.0263041000007,,581.8456474000004,right,1.0,25.3037086000013,,,,,,,,,,,,,,,,,,,,,,,,,,,,,,,sub-054,1.0,random_dot,60.08867887215538,
right,right,accuracy,,,,,0.0,1.0,1.0,0.0,1.0,0.0,2.0,1.0,581.8589899000008,,,,,,,,,581.8475519000012,583.0587740000001,583.8596246999996,583.8433476,583.8433919000008,583.8596246999996,583.8596246999996,583.8596246999996,,585.0781870000001,left,0.0,24.70135060000121,,,,,,,,,,,,,,,,,,,,,,,,,,,,,,,sub-054,1.0,random_dot,60.08867887215538,
left,left,accuracy,,,,,0.0,1.0,1.0,0.0,1.0,1.0,3.0,0.0,585.0921386,,,,,,,,,585.0801081,585.1923701000005,585.9929146000004,585.9768303999999,585.9768737000004,585.9929146000004,585.9929146000004,585.9929146000004,,589.0946904000002,left,1.0,26.587467500000457,,,,,,,,,,,,,,,,,,,,,,,,,,,,,,,sub-054,1.0,random_dot,60.08867887215538,
left,left,accuracy,,,,,0.0,1.0,1.0,0.0,2.0,0.0,4.0,0.0,589.1087613999998,,,,,,,,,589.0966245999998,590.3087585000003,591.109484900001,591.0934211000013,591.093466700001,591.109484900001,591.109484900001,591.109484900001,,594.0126375999998,left,1.0,26.396066899999823,,,,,,,,,,,,,,,,,,,,,,,,,,,,,,,sub-054,1.0,random_dot,60.08867887215538,
right,right,accuracy,,,,,0.0,1.0,1.0,0.0,2.0,1.0,5.0,1.0,594.0254522000005,,,,,,,,,594.0145247999999,594.3753204000013,595.17623,595.1600434000002,595.1600797000001,595.17623,595.17623,595.17623,,596.6616022000007,right,1.0,24.973216900000807,,,,,,,,,,,,,,,,,,,,,,,,,,,,,,,sub-054,1.0,random_dot,60.08867887215538,
right,right,accuracy,,,,,0.0,1.0,1.0,0.0,3.0,0.0,6.0,1.0,596.6754717000013,,,,,,,,,596.6634968000008,596.7756557000002,597.5761321,597.5600765000008,597.5601116999997,597.5761321,597.5761321,597.5761321,,599.7614045,right,1.0,25.6769405999994,,,,,,,,,,,,,,,,,,,,,,,,,,,,,,,sub-054,1.0,random_dot,60.08867887215538,
left,left,accuracy,,,,,0.0,1.0,1.0,0.0,3.0,1.0,7.0,0.0,599.7755755999997,,,,,,,,,599.7634734000012,600.1257632000006,600.9261887000002,600.9102623999997,600.9102998000008,600.9261887000002,600.9261887000002,600.9261887000002,,602.9280602999997,left,1.0,25.49307439999848,,,,,,,,,,,,,,,,,,,,,,,,,,,,,,,sub-054,1.0,random_dot,60.08867887215538,
left,left,accuracy,,,,,0.0,1.0,1.0,0.0,4.0,0.0,8.0,0.0,602.9420684000006,,,,,,,,,602.930914900001,603.2921207000009,604.0930151000002,604.0770569000006,604.0770947999999,604.0930151000002,604.0930151000002,604.0930151000002,,606.0463741000012,right,0.0,25.447483799999645,,,,,,,,,,,,,,,,,,,,,,,,,,,,,,,sub-054,1.0,random_dot,60.08867887215538,
right,right,accuracy,,,,,0.0,1.0,1.0,0.0,4.0,1.0,9.0,1.0,606.0590844000008,,,,,,,,,606.0488412000004,607.2587400000002,608.0594802000005,608.0435583999997,608.0435951999998,608.0594802000005,608.0594802000005,608.0594802000005,,609.777836100001,left,0.0,25.205441499999324,,,,,,,,,,,,,,,,,,,,,,,,,,,,,,,sub-054,1.0,random_dot,60.08867887215538,
left,left,accuracy,,,,,0.0,1.0,1.0,0.0,5.0,0.0,10.0,0.0,609.7922024999998,,,,,,,,,609.7796965999996,609.8921612000004,610.6929339000008,610.6766584999996,610.676693800001,610.6929339000008,610.6929339000008,610.6929339000008,,613.2620247000004,left,1.0,26.06082929999957,,,,,,,,,,,,,,,,,,,,,,,,,,,,,,,sub-054,1.0,random_dot,60.08867887215538,
right,right,accuracy,,,,,0.0,1.0,1.0,0.0,5.0,1.0,11.0,1.0,613.2754332000013,,,,,,,,,613.263886400001,613.3754620999998,614.1761577999996,614.1601909999999,614.1602279000008,614.1761577999996,614.1761577999996,614.1761577999996,,615.7781120999998,right,1.0,25.08948650000002,,,,,,,,,,,,,,,,,,,,,,,,,,,,,,,sub-054,1.0,random_dot,60.08867887215538,
left,left,accuracy,,,,,0.0,1.0,1.0,0.0,6.0,0.0,12.0,0.0,615.7921856000003,,,,,,,,,615.7800967000012,616.9920628000009,617.7929618000007,617.7766156999996,617.7766522000011,617.7929618000007,617.7929618000007,617.7929618000007,,619.3615387,left,1.0,25.0471179999995,,,,,,,,,,,,,,,,,,,,,,,,,,,,,,,sub-054,1.0,random_dot,60.08867887215538,
right,right,accuracy,,,,,0.0,1.0,1.0,0.0,6.0,1.0,13.0,1.0,619.3755432999997,,,,,,,,,619.363374900001,619.4754686000006,620.2761354000004,620.2596733,620.2597156000002,620.2761354000004,620.2761354000004,620.2761354000004,,622.2612648000004,right,1.0,25.46671519999927,,,,,,,,,,,,,,,,,,,,,,,,,,,,,,,sub-054,1.0,random_dot,60.08867887215538,
left,left,accuracy,,,,,0.0,1.0,1.0,0.0,7.0,0.0,14.0,0.0,622.2756181000013,,,,,,,,,622.2631456999998,623.4755403000008,624.2760134000009,624.2600865000013,624.2601213000007,624.2760134000009,624.2760134000009,624.2760134000009,,626.3950728999998,left,1.0,25.607108599998355,,,,,,,,,,,,,,,,,,,,,,,,,,,,,,,sub-054,1.0,random_dot,60.08867887215538,
right,right,accuracy,,,,,0.0,1.0,1.0,0.0,7.0,1.0,15.0,1.0,626.4088887999997,,,,,,,,,626.397104300001,627.2092719000002,628.009393700001,627.9932064000013,627.9932421000003,628.009393700001,628.009393700001,628.009393700001,,630.5117044000008,right,1.0,25.99622510000063,,,,,,,,,,,,,,,,,,,,,,,,,,,,,,,sub-054,1.0,random_dot,60.08867887215538,
right,right,accuracy,,,,,0.0,1.0,1.0,0.0,8.0,0.0,16.0,1.0,630.5254363000013,,,,,,,,,630.5143300999998,631.3254578000005,632.1261239000005,632.1099727999999,632.110008300001,632.1261239000005,632.1261239000005,632.1261239000005,,634.3951060999998,left,0.0,25.749048000000585,,,,,,,,,,,,,,,,,,,,,,,,,,,,,,,sub-054,1.0,random_dot,60.08867887215538,
left,left,accuracy,,,,,0.0,1.0,1.0,0.0,8.0,1.0,17.0,0.0,634.4086293000009,,,,,,,,,634.3969669999997,634.5089642000012,635.3095337000004,635.2932854000001,635.2933214000013,635.3095337000004,635.3095337000004,635.3095337000004,,637.3947635000013,right,0.0,25.57613609999953,,,,,,,,,,,,,,,,,,,,,,,,,,,,,,,sub-054,1.0,random_dot,60.08867887215538,
right,right,accuracy,,,,,0.0,1.0,1.0,0.0,9.0,0.0,18.0,1.0,637.4087397000012,,,,,,,,,637.3966664000009,638.2087791000004,639.0094718999999,638.9933391000004,638.9933738999998,639.0094718999999,639.0094718999999,639.0094718999999,,641.3779142000012,left,0.0,25.861778199999208,,,,,,,,,,,,,,,,,,,,,,,,,,,,,,,sub-054,1.0,random_dot,60.08867887215538,
left,left,accuracy,,,,,0.0,1.0,1.0,0.0,9.0,1.0,19.0,0.0,641.392047100001,,,,,,,,,641.3797683000003,641.4925439000008,642.2928615999999,642.2766643000004,642.2766990999999,642.2928615999999,642.2928615999999,642.2928615999999,,643.7447409000006,left,1.0,24.940037599998504,,,,,,,,,,,,,,,,,,,,,,,,,,,,,,,sub-054,1.0,random_dot,60.08867887215538,
right,right,accuracy,,,,,0.0,1.0,1.0,0.0,10.0,0.0,20.0,1.0,643.7587814999997,,,,,,,,,643.7466332000013,644.9588924999998,645.7593210000005,645.7437737000009,645.7438093999999,645.7593210000005,645.7593210000005,645.7593210000005,,647.1949064999999,left,0.0,24.916376300000596,,,,,,,,,,,,,,,,,,,,,,,,,,,,,,,sub-054,1.0,random_dot,60.08867887215538,
left,left,accuracy,,,,,0.0,1.0,1.0,0.0,10.0,1.0,21.0,0.0,647.2087061000011,,,,,,,,,647.196792400001,647.5587569999998,648.3596219000001,648.343171200001,648.3432061000012,648.3596219000001,648.3596219000001,648.3596219000001,,650.5112797000011,left,1.0,25.6378035000007,,,,,,,,,,,,,,,,,,,,,,,,,,,,,,,sub-054,1.0,random_dot,60.08867887215538,
left,left,accuracy,,,,,0.0,1.0,1.0,0.0,11.0,0.0,22.0,0.0,650.5253369000011,,,,,,,,,650.5131697000006,651.3252731000002,652.1261627000013,652.1100076000012,652.1100433000001,652.1261627000013,652.1261627000013,652.1261627000013,,653.8799962000003,right,0.0,25.245685500000945,,,,,,,,,,,,,,,,,,,,,,,,,,,,,,,sub-054,1.0,random_dot,60.08867887215538,
right,right,accuracy,,,,,0.0,1.0,1.0,0.0,11.0,1.0,23.0,1.0,653.8918975000006,,,,,,,,,653.8819064000008,654.2419681000001,655.0425746999999,655.0265773000001,655.0266124,655.0425746999999,655.0425746999999,655.0425746999999,,656.7939245000007,right,1.0,25.24173649999921,,,,,,,,,,,,,,,,,,,,,,,,,,,,,,,sub-054,1.0,random_dot,60.08867887215538,
right,right,accuracy,,,,,0.0,1.0,1.0,0.0,12.0,0.0,24.0,1.0,656.8086915000013,,,,,,,,,656.7949756000007,657.1584795000008,657.9590940999997,657.9425039999996,657.9425251000002,657.9590940999997,657.9590940999997,657.9590940999997,,660.5114020999999,right,1.0,26.046947799998637,,,,,,,,,,,,,,,,,,,,,,,,,,,,,,,sub-054,1.0,random_dot,60.08867887215538,
left,left,accuracy,,,,,0.0,1.0,1.0,0.0,12.0,1.0,25.0,0.0,660.5249676000012,,,,,,,,,660.5125424000007,660.6249928999996,661.4257812000005,661.4095926,661.4096194000003,661.4257812000005,661.4257812000005,661.4257812000005,,663.1107284,left,1.0,25.16431710000052,,,,,,,,,,,,,,,,,,,,,,,,,,,,,,,sub-054,1.0,random_dot,60.08867887215538,
right,right,accuracy,,,,,0.0,1.0,1.0,0.0,13.0,0.0,26.0,1.0,663.1252605,,,,,,,,,663.1122230999999,663.4750991999999,664.2760153000008,664.2600506000008,664.2600862999998,664.2760153000008,664.2760153000008,664.2760153000008,,665.9117453999997,right,1.0,25.114626800000224,,,,,,,,,,,,,,,,,,,,,,,,,,,,,,,sub-054,1.0,random_dot,60.08867887215538,
left,left,accuracy,,,,,0.0,1.0,1.0,0.0,13.0,1.0,27.0,0.0,665.9253990000007,,,,,,,,,665.9135611000011,666.0254049000005,666.8258677000003,666.8099974999996,666.8100359999999,666.8258677000003,666.8258677000003,666.8258677000003,,668.611294700001,left,1.0,25.276328900000408,,,,,,,,,,,,,,,,,,,,,,,,,,,,,,,sub-054,1.0,random_dot,60.08867887215538,
right,right,accuracy,,,,,0.0,1.0,1.0,0.0,14.0,0.0,28.0,1.0,668.6250059000004,,,,,,,,,668.6132568000003,669.8252866000012,670.625867400001,670.6101657999998,670.6102027000006,670.625867400001,670.625867400001,670.625867400001,,672.2615018999995,right,1.0,25.124266600000738,,,,,,,,,,,,,,,,,,,,,,,,,,,,,,,sub-054,1.0,random_dot,60.08867887215538,
left,left,accuracy,,,,,0.0,1.0,1.0,0.0,14.0,1.0,29.0,0.0,672.2752976000002,,,,,,,,,672.2633966000003,673.4753673000005,674.276077200001,674.2601115999996,674.2601459999996,674.276077200001,674.276077200001,674.276077200001,,676.1450799000004,left,1.0,25.35149790000014,,,,,,,,,,,,,,,,,,,,,,,,,,,,,,,sub-054,1.0,random_dot,60.08867887215538,
right,right,accuracy,,,,,0.0,1.0,1.0,0.0,15.0,0.0,30.0,1.0,676.1587558000001,,,,,,,,,676.1469367,676.5086285999996,677.3092927999996,677.2933550000007,677.2933898000001,677.3092927999996,677.3092927999996,677.3092927999996,,679.278059700001,right,1.0,25.458758699999635,,,,,,,,,,,,,,,,,,,,,,,,,,,,,,,sub-054,1.0,random_dot,60.08867887215538,
left,left,accuracy,,,,,0.0,1.0,1.0,0.0,15.0,1.0,31.0,0.0,679.2921443000005,,,,,,,,,679.2799352000011,680.0921296000006,680.8926942999997,680.8766529000013,680.8766877000007,680.8926942999997,680.8926942999997,680.8926942999997,,682.8611615,left,1.0,25.45119809999869,,,,,,,,,,,,,,,,,,,,,,,,,,,,,,,sub-054,1.0,random_dot,60.08867887215538,
left,left,accuracy,,,,,0.0,1.0,1.0,0.0,16.0,0.0,32.0,0.0,682.8751782000008,,,,,,,,,682.8639184000012,683.675353900001,684.4760582999997,684.4599368000008,684.4599714000005,684.4760582999997,684.4760582999997,684.4760582999997,,686.0117897999999,left,1.0,25.02597180000066,,,,,,,,,,,,,,,,,,,,,,,,,,,,,,,sub-054,1.0,random_dot,60.08867887215538,
right,right,accuracy,,,,,0.0,1.0,1.0,0.0,16.0,1.0,33.0,1.0,686.025165,,,,,,,,,686.0137142000012,686.3753234000005,687.1760218999998,687.1599296000013,687.1599644000007,687.1760218999998,687.1760218999998,687.1760218999998,,689.0788504000002,left,0.0,25.39448700000048,,,,,,,,,,,,,,,,,,,,,,,,,,,,,,,sub-054,1.0,random_dot,60.08867887215538,
left,left,accuracy,,,,,0.0,1.0,1.0,0.0,17.0,0.0,34.0,0.0,689.0919412000012,,,,,,,,,689.0807032000002,690.2921482000011,691.0926057000006,691.077252,691.0772889000009,691.0926057000006,691.0926057000006,691.0926057000006,,693.2623145999996,left,1.0,25.663816999999653,,,,,,,,,,,,,,,,,,,,,,,,,,,,,,,sub-054,1.0,random_dot,60.08867887215538,
right,right,accuracy,,,,,0.0,1.0,1.0,0.0,17.0,1.0,35.0,1.0,693.2751842999996,,,,,,,,,693.2642005999996,693.3753021000002,694.1757316000012,694.159965400001,694.1600103999999,694.1757316000012,694.1757316000012,694.1757316000012,,696.5613433999997,right,1.0,25.86825520000002,,,,,,,,,,,,,,,,,,,,,,,,,,,,,,,sub-054,1.0,random_dot,60.08867887215538,
right,right,accuracy,,,,,0.0,1.0,1.0,0.0,18.0,0.0,36.0,1.0,696.5753491000005,,,,,,,,,696.5632335,697.3754438000005,698.1760798000005,698.1600101000013,698.1600461999997,698.1760798000005,698.1760798000005,698.1760798000005,,699.645042000001,right,1.0,24.950718100001723,,,,,,,,,,,,,,,,,,,,,,,,,,,,,,,sub-054,1.0,random_dot,60.08867887215538,
left,left,accuracy,,,,,0.0,1.0,1.0,0.0,18.0,1.0,37.0,0.0,699.6584561000009,,,,,,,,,699.6469138000002,700.0086084000004,700.8093493000006,700.7931880000006,700.7932241000008,700.8093493000006,700.8093493000006,700.8093493000006,,702.1785212000004,right,0.0,24.856439100000895,,,,,,,,,,,,,,,,,,,,,,,,,,,,,,,sub-054,1.0,random_dot,60.08867887215538,
right,right,accuracy,,,,,0.0,1.0,1.0,0.0,19.0,0.0,38.0,1.0,702.1918768000005,,,,,,,,,702.1804099999999,702.9920258000011,703.7924866000003,703.7765277999997,703.7765640999996,703.7924866000003,703.7924866000003,703.7924866000003,,705.8779077000008,left,0.0,25.574112699999205,,,,,,,,,,,,,,,,,,,,,,,,,,,,,,,sub-054,1.0,random_dot,60.08867887215538,
left,left,accuracy,,,,,0.0,1.0,1.0,0.0,19.0,1.0,39.0,0.0,705.8919586000002,,,,,,,,,705.8797106000011,705.9919711000011,706.7925642,706.7766894000006,706.7767240000003,706.7925642,706.7925642,706.7925642,,709.0777741000011,right,0.0,25.76712889999999,,,,,,,,,,,,,,,,,,,,,,,,,,,,,,,sub-054,1.0,random_dot,60.08867887215538,
right,right,accuracy,,,,,0.0,1.0,1.0,0.0,20.0,0.0,40.0,1.0,709.0920549000011,,,,,,,,,709.0796543000006,709.8918734000008,710.6924528000009,710.6766539999999,710.6766876000011,710.6924528000009,710.6924528000009,710.6924528000009,,712.9622136999997,left,0.0,25.76134209999964,,,,,,,,,,,,,,,,,,,,,,,,,,,,,,,sub-054,1.0,random_dot,60.08867887215538,
left,left,accuracy,,,,,0.0,1.0,1.0,0.0,20.0,1.0,41.0,0.0,712.9751869000002,,,,,,,,,712.9640833000003,713.7752585999997,714.5758444000012,714.5596609000013,714.5596945999996,714.5758444000012,714.5758444000012,714.5758444000012,,716.694462800001,right,0.0,25.601863400000184,,,,,,,,,,,,,,,,,,,,,,,,,,,,,,,sub-054,1.0,random_dot,60.08867887215538,
right,right,accuracy,,,,,0.0,1.0,1.0,0.0,21.0,0.0,42.0,1.0,716.7085960000013,,,,,,,,,716.6971910000002,716.8084793000007,717.6093248000006,717.5931146000012,717.5931587000005,717.6093248000006,717.6093248000006,717.6093248000006,,720.3444212000004,right,1.0,26.22488969999995,,,,,,,,,,,,,,,,,,,,,,,,,,,,,,,sub-054,1.0,random_dot,60.08867887215538,
left,left,accuracy,,,,,0.0,1.0,1.0,0.0,21.0,1.0,43.0,0.0,720.358811000001,,,,,,,,,720.346751,720.7083792000003,721.509223600001,721.4935862000011,721.4936251999998,721.509223600001,721.509223600001,721.509223600001,,723.1109100000003,left,1.0,25.08807380000053,,,,,,,,,,,,,,,,,,,,,,,,,,,,,,,sub-054,1.0,random_dot,60.08867887215538,
left,left,accuracy,,,,,0.0,1.0,1.0,0.0,22.0,0.0,44.0,0.0,723.1253136000005,,,,,,,,,723.1127970000007,723.2253916,724.0258299999996,724.0099645,724.0099982000002,724.0258299999996,724.0258299999996,724.0258299999996,,725.7943495000009,left,1.0,25.248878899999,,,,,,,,,,,,,,,,,,,,,,,,,,,,,,,sub-054,1.0,random_dot,60.08867887215538,
right,right,accuracy,,,,,0.0,1.0,1.0,0.0,22.0,1.0,45.0,1.0,725.8086715,,,,,,,,,725.7963009000005,726.1585292000009,726.9592241,726.9429545000012,726.9429890000001,726.9592241,726.9592241,726.9592241,,728.7779533000003,left,0.0,25.301942999999483,,,,,,,,,,,,,,,,,,,,,,,,,,,,,,,sub-054,1.0,random_dot,60.08867887215538,
right,right,accuracy,,,,,0.0,1.0,1.0,0.0,23.0,0.0,46.0,1.0,728.7919482000007,,,,,,,,,728.7798284999999,729.5918155000008,730.3925255000004,730.3765040999997,730.3765381000003,730.3925255000004,730.3925255000004,730.3925255000004,,732.5279199000006,right,1.0,25.622347700001228,,,,,,,,,,,,,,,,,,,,,,,,,,,,,,,sub-054,1.0,random_dot,60.08867887215538,
left,left,accuracy,,,,,0.0,1.0,1.0,0.0,23.0,1.0,47.0,0.0,732.5417812000005,,,,,,,,,732.5298171000004,732.6417776000008,733.4423262000009,733.4262534,733.4262876000003,733.4423262000009,733.4423262000009,733.4423262000009,,735.8611748000012,right,0.0,25.89802569999938,,,,,,,,,,,,,,,,,,,,,,,,,,,,,,,sub-054,1.0,random_dot,60.08867887215538,
right,right,accuracy,,,,,0.0,1.0,1.0,0.0,24.0,0.0,48.0,1.0,735.8751988000013,,,,,,,,,735.8629508000004,736.2253472000002,737.0258253000002,737.0097819000011,737.0098158999999,737.0258253000002,737.0258253000002,737.0258253000002,,739.4286855,left,0.0,25.89480220000132,,,,,,,,,,,,,,,,,,,,,,,,,,,,,,,sub-054,1.0,random_dot,60.08867887215538,
left,left,accuracy,,,,,0.0,1.0,1.0,0.0,24.0,1.0,49.0,0.0,739.4419515,,,,,,,,,739.4305388000002,740.6418714000001,741.4425046000006,741.4265118000012,741.4265458,741.4425046000006,741.4425046000006,741.4425046000006,,743.4452681000012,left,1.0,25.48097570000118,,,,,,,,,,,,,,,,,,,,,,,,,,,,,,,sub-054,1.0,random_dot,60.08867887215538,
left,left,accuracy,,,,,0.0,1.0,1.0,0.0,25.0,0.0,50.0,0.0,743.4585146,,,,,,,,,743.4471738000002,743.5584222999996,744.3592376999995,744.3430815000002,744.3431171000002,744.3592376999995,744.3592376999995,744.3592376999995,,747.2109879000009,left,1.0,26.33668200000011,,,,,,,,,,,,,,,,,,,,,,,,,,,,,,,sub-054,1.0,random_dot,60.08867887215538,
right,right,accuracy,,,,,0.0,1.0,1.0,0.0,25.0,1.0,51.0,1.0,747.2252211000005,,,,,,,,,747.2128558000013,747.5750125000004,748.3759522000009,748.3604208999996,748.3604685,748.3759522000009,748.3759522000009,748.3759522000009,,751.2114877000013,right,1.0,26.31471750000037,,,,,,,,,,,,,,,,,,,,,,,,,,,,,,,sub-054,1.0,random_dot,60.08867887215538,
left,left,accuracy,,,,,0.0,1.0,1.0,0.0,26.0,0.0,52.0,0.0,751.2250630999997,,,,,,,,,751.2133961999998,752.4250113999997,753.2257510000009,753.2098360999998,753.2098702000012,753.2257510000009,753.2257510000009,753.2257510000009,,755.5108889000012,right,0.0,25.776594600000863,,,,,,,,,,,,,,,,,,,,,,,,,,,,,,,sub-054,1.0,random_dot,60.08867887215538,
right,right,accuracy,,,,,0.0,1.0,1.0,0.0,26.0,1.0,53.0,1.0,755.5250569999998,,,,,,,,,755.513021400001,756.7253179000008,757.5254696000002,757.5096132999997,757.5096497000004,757.5254696000002,757.5254696000002,757.5254696000002,,759.1446344000005,right,1.0,25.107050400000844,,,,,,,,,,,,,,,,,,,,,,,,,,,,,,,sub-054,1.0,random_dot,60.08867887215538,
left,left,accuracy,,,,,0.0,1.0,1.0,0.0,27.0,0.0,54.0,0.0,759.1584119999998,,,,,,,,,759.1465505000006,759.2583605000009,760.0591238999996,760.0429594000007,760.0429929000011,760.0591238999996,760.0591238999996,760.0591238999996,,762.5443108999998,left,1.0,25.96519919999901,,,,,,,,,,,,,,,,,,,,,,,,,,,,,,,sub-054,1.0,random_dot,60.08867887215538,
right,right,accuracy,,,,,0.0,1.0,1.0,0.0,27.0,1.0,55.0,1.0,762.5587034000009,,,,,,,,,762.5463819999995,763.3583914000001,764.1591001000006,764.1430389000006,764.1430729000012,764.1591001000006,764.1591001000006,764.1591001000006,,766.5117639999999,left,0.0,25.835628200001334,,,,,,,,,,,,,,,,,,,,,,,,,,,,,,,sub-054,1.0,random_dot,60.08867887215538,
right,right,accuracy,,,,,0.0,1.0,1.0,0.0,28.0,0.0,56.0,1.0,766.5251804999998,,,,,,,,,766.5137495999998,766.6252243000008,767.4258684000006,767.4096450999996,767.4096791000002,767.4258684000006,767.4258684000006,767.4258684000006,,770.2443743000013,left,0.0,26.303217400000904,,,,,,,,,,,,,,,,,,,,,,,,,,,,,,,sub-054,1.0,random_dot,60.08867887215538,
left,left,accuracy,,,,,0.0,1.0,1.0,0.0,28.0,1.0,57.0,0.0,770.2586390000006,,,,,,,,,770.2462542000003,771.0584530000006,771.8592884,771.8429870999998,771.8430204000006,771.8592884,771.8592884,771.8592884,,774.4610672999997,right,0.0,26.08231350000005,,,,,,,,,,,,,,,,,,,,,,,,,,,,,,,sub-054,1.0,random_dot,60.08867887215538,
right,right,accuracy,,,,,0.0,1.0,1.0,0.0,29.0,0.0,58.0,1.0,774.4752005,,,,,,,,,774.4628985999998,774.8250244000001,775.625869800001,775.6098131999997,775.6098448000002,775.625869800001,775.625869800001,775.625869800001,,778.1768252000011,right,1.0,26.04088110000066,,,,,,,,,,,,,,,,,,,,,,,,,,,,,,,sub-054,1.0,random_dot,60.08867887215538,
left,left,accuracy,,,,,0.0,1.0,1.0,0.0,29.0,1.0,59.0,0.0,778.1916024000011,,,,,,,,,778.1780630000003,778.9915521000012,779.792349100001,779.7762152000005,779.7762518999998,779.792349100001,779.792349100001,779.792349100001,,782.6112708999999,left,1.0,26.307238100001086,,,,,,,,,,,,,,,,,,,,,,,,,,,,,,,sub-054,1.0,random_dot,60.08867887215538,
,,accuracy,,,,,0.0,1.0,1.0,0.0,,,,,,,,,,,,,,,,,,,,,,,,,,,,,,,,,,,,,,,,,,,,,,,,,,,,,,,,,sub-054,1.0,random_dot,60.08867887215538,
,,,,,,,,,,,,,,,,,,,,,,,,,,,,,,,,,,,,,,,,,,,,,,,,,,,,,,,,,,,,,,,782.612943000001,782.6251288000012,787.6249243000011,787.6102394,sub-054,,,,
