direction,corrAns,thisN,thisTrialN,thisRepN,respDots.keys,respDots.corr,respDots.rt,respDots.duration,randomInstr,respRandomInstr.keys,respRandomInstr.rt,respRandomInstr.duration,practice_trials.thisRepN,practice_trials.thisTrialN,practice_trials.thisN,practice_trials.thisIndex,instr_trials.thisRepN,instr_trials.thisTrialN,instr_trials.thisN,instr_trials.thisIndex,test_trials.thisRepN,test_trials.thisTrialN,test_trials.thisN,test_trials.thisIndex,thisRow.t,notes,general_instruction.started,textGeneralInstr.started,respGeneralInstr.started,general_instruction.stopped,respGeneralInstr.keys,respGeneralInstr.rt,respGeneralInstr.duration,ITI.started,fixcross.started,fixcross.stopped,ITI.stopped,dots.started,backgroundDots.started,stimulusDots.started,respDots.started,dots.stopped,practice_trials.respDots.keys,practice_trials.respDots.corr,practice_trials.respDots.rt,practice_trials.respDots.duration,feedback.started,textFeedback.started,textFeedback.stopped,feedback.stopped,info.started,textInfo.started,keyRespInfo.started,info.stopped,keyRespInfo.keys,keyRespInfo.rt,keyRespInfo.duration,test_instruction.started,textTestInstr.started,respTestInstr.started,test_instruction.stopped,respTestInstr.keys,respTestInstr.rt,respTestInstr.duration,random_instruction.started,textRandomInstr.started,respRandomInstr.started,random_instruction.stopped,instr_trials.respRandomInstr.keys,instr_trials.respRandomInstr.rt,instr_trials.respRandomInstr.duration,test_trials.respDots.keys,test_trials.respDots.corr,test_trials.respDots.rt,test_trials.respDots.duration,goodbye.started,textGoodbye.started,goodbye.stopped,participant,session,expName,frameRate,Unnamed: 86
,,,,,,,,,,,,,,,,,,,,,,,,,,,0.0034319999394938,0.0085584999760612,0.0085584999760612,134.02980529994238,space,133.9262616999913,,,,,,,,,,,,,,,,,,,,,,,,,,,,,,,,,,,,,,,,,,,,,,,sub-195,1,random_dot,59.81004330430504,
right,right,0.0,0.0,0.0,right,1.0,0.9268884001066908,,,,,,0.0,0.0,0.0,1.0,,,,,,,,,134.04099909996148,,,,,,,,,134.03656379994936,134.83528490003664,135.63587739993818,135.61962310003582,135.61987890000455,135.63587739993818,135.63587739993818,135.63587739993818,136.57163709995802,right,1.0,0.9268884001066908,,136.57816000003368,136.58722560002934,137.0878697000444,137.07179099996574,,,,,,,,,,,,,,,,,,,,,,,,,,,,,sub-195,1,random_dot,59.81004330430504,
left,left,1.0,1.0,0.0,left,1.0,0.4356124999467283,,,,,,0.0,1.0,1.0,0.0,,,,,,,,,137.0878697000444,,,,,,,,,137.07199910003692,137.4225318999961,138.2235064000124,138.20670199999586,138.20694149995688,138.2235064000124,138.2235064000124,138.2235064000124,138.6750708000036,left,1.0,0.4356124999467283,,138.67516049998812,138.69109179999214,139.19154349993914,139.17523980000988,,,,,,,,,,,,,,,,,,,,,,,,,,,,,sub-195,1,random_dot,59.81004330430504,
left,left,2.0,0.0,1.0,left,1.0,0.8712364999810234,,,,,,1.0,0.0,2.0,0.0,,,,,,,,,139.19154349993914,,,,,,,,,139.17546519997995,139.2748015000252,140.07620949996635,140.05969030002598,140.0599197000265,140.07620949996635,140.07620949996635,140.07620949996635,140.96169679996092,left,1.0,0.8712364999810234,,140.96176870004274,140.9773891000077,,141.46222290000878,,,,,,,,,,,,,,,,,,,,,,,,,,,,,sub-195,1,random_dot,59.81004330430504,
right,right,3.0,1.0,1.0,right,1.0,0.7608771999366581,,,,,,1.0,1.0,3.0,1.0,,,,,,,,,141.47795430000406,,,,,,,,,141.46243980003055,142.26280599995516,143.06422369997017,143.04781020001974,143.0480451999465,143.06422369997017,143.06422369997017,143.06422369997017,143.8334098999621,right,1.0,0.7608771999366581,,143.83353139995597,143.8490512999706,144.3495147000067,144.33311549993232,,,,,,,,,,,,,,,,,,,,,,,,,,,,,sub-195,1,random_dot,59.81004330430504,
right,right,4.0,0.0,2.0,right,1.0,0.9771964000537992,,,,,,2.0,0.0,4.0,1.0,,,,,,,,,144.3495147000067,,,,,,,,,144.3333704000106,145.53429430001415,146.33581039996352,146.3193358000135,146.319564800011,146.33581039996352,146.33581039996352,146.33581039996352,147.3218963999534,right,1.0,0.9771964000537992,,147.32198090001475,147.3376584999496,147.83822189993225,147.82184350001626,,,,,,,,,,,,,,,,,,,,,,,,,,,,,sub-195,1,random_dot,59.81004330430504,
left,left,5.0,1.0,2.0,left,1.0,0.7912647998891771,,,,,,2.0,1.0,5.0,0.0,,,,,,,,,147.83822189993225,,,,,,,,,147.8220487999497,149.02305860002525,149.8247385999421,149.808313800022,149.80865589994937,149.8247385999421,149.8247385999421,149.8247385999421,150.62679190002382,left,1.0,0.7912647998891771,,150.6268696000334,150.64273850002792,151.1439939000411,151.12708549993113,,,,,,,,,,,,,,,,,,,,,,,,,,,,,sub-195,1,random_dot,59.81004330430504,
right,right,6.0,0.0,3.0,right,1.0,0.9012395999161528,,,,,,3.0,0.0,6.0,1.0,,,,,,,,,151.1439939000411,,,,,,,,,151.12738980003633,152.3279289000202,153.12950159993488,153.11299019993749,153.11322800000198,153.12950159993488,153.12950159993488,153.12950159993488,154.03175079997163,right,1.0,0.9012395999161528,,154.03183650004212,154.0474442000268,154.54798329994082,154.53181329998188,,,,,,,,,,,,,,,,,,,,,,,,,,,,,sub-195,1,random_dot,59.81004330430504,
left,left,7.0,1.0,3.0,left,1.0,1.038112199981697,,,,,,3.0,1.0,7.0,0.0,,,,,,,,,154.54798329994082,,,,,,,,,154.5320214999374,154.63177919993177,155.43428549997043,155.4179188000271,155.41832169995178,155.43428549997043,155.43428549997043,155.43428549997043,156.4854998999508,left,1.0,1.038112199981697,,156.4855904999422,156.50147899996955,157.0019817999564,156.9858940000413,,,,,,,,,,,,,,,,,,,,,,,,,,,,,sub-195,1,random_dot,59.81004330430504,
right,right,8.0,0.0,4.0,right,1.0,0.8945120999123901,,,,,,4.0,0.0,8.0,1.0,,,,,,,,,157.0019817999564,,,,,,,,,156.98618110001553,157.0854537000414,157.88663630001247,157.87087610003073,157.87127839995082,157.88663630001247,157.88663630001247,157.88663630001247,158.78901860001497,right,1.0,0.8945120999123901,,158.78915059997234,158.80459960002918,,159.2915992999915,,,,,,,,,,,,,,,,,,,,,,,,,,,,,sub-195,1,random_dot,59.81004330430504,
left,left,9.0,1.0,4.0,left,1.0,0.747049400000833,,,,,,4.0,1.0,9.0,0.0,,,,,,,,,159.30817319999915,,,,,,,,,159.2919588999357,159.64065019995903,160.44052279996686,160.42414030001964,160.42448030004743,160.44052279996686,160.44052279996686,160.44052279996686,161.1927409999771,left,1.0,0.747049400000833,,161.1928559000371,161.20836089993827,161.70921380002983,161.69306169997435,,,,,,,,,,,,,,,,,,,,,,,,,,,,,sub-195,1,random_dot,59.81004330430504,
left,left,10.0,0.0,5.0,left,1.0,0.7143533999333158,,,,,,5.0,0.0,10.0,0.0,,,,,,,,,161.70921380002983,,,,,,,,,161.6933670999715,162.8947377000004,163.69614509993698,163.67984490003437,163.68011529999785,163.69614509993698,163.69614509993698,163.69614509993698,164.4144806000404,left,1.0,0.7143533999333158,,164.41455630003475,164.42981849994976,164.9309260000009,164.9148794999346,,,,,,,,,,,,,,,,,,,,,,,,,,,,,sub-195,1,random_dot,59.81004330430504,
right,right,11.0,1.0,5.0,right,1.0,0.8525464000413194,,,,,,5.0,1.0,11.0,1.0,,,,,,,,,164.9309260000009,,,,,,,,,164.91515579994302,165.2645549000008,166.06624289997853,166.0505871999776,166.05089980002958,166.06624289997853,166.06624289997853,166.06624289997853,166.9207138000056,right,1.0,0.8525464000413194,,166.9208426999394,166.9361165999435,167.43631240003742,167.41993710002862,,,,,,,,,,,,,,,,,,,,,,,,,,,,,sub-195,1,random_dot,59.81004330430504,
left,left,12.0,0.0,6.0,left,1.0,0.8063771999441087,,,,,,6.0,0.0,12.0,0.0,,,,,,,,,167.43631240003742,,,,,,,,,167.42039420001674,168.235397499986,169.03851159999613,169.02228189993184,169.02275899995584,169.03851159999613,169.03851159999613,169.03851159999613,169.8562976999674,left,1.0,0.8063771999441087,,169.8563897999702,169.8716934999684,170.37231869995594,170.356329799979,,,,,,,,,,,,,,,,,,,,,,,,,,,,,sub-195,1,random_dot,59.81004330430504,
right,right,13.0,1.0,6.0,right,1.0,0.6558348999824375,,,,,,6.0,1.0,13.0,1.0,,,,,,,,,170.37231869995594,,,,,,,,,170.35667779995129,170.7061226000078,171.50761990004685,171.49100519996136,171.49129759997595,171.50761990004685,171.50761990004685,171.50761990004685,172.17617779993452,right,1.0,0.6558348999824375,,172.17626059998292,172.19169589993544,,172.67697669996414,,,,,,,,,,,,,,,,,,,,,,,,,,,,,sub-195,1,random_dot,59.81004330430504,
right,right,14.0,0.0,7.0,right,1.0,0.8370649999706075,,,,,,7.0,0.0,14.0,1.0,,,,,,,,,172.6930246000411,,,,,,,,,172.67750640003942,172.7774597000098,173.5776412000414,173.56152879993897,173.56188870000187,173.5776412000414,173.5776412000414,173.5776412000414,174.42919830000028,right,1.0,0.8370649999706075,,174.42928529996425,174.44517860002816,174.94574029999785,174.9292653000448,,,,,,,,,,,,,,,,,,,,,,,,,,,,,sub-195,1,random_dot,59.81004330430504,
left,left,15.0,1.0,7.0,left,1.0,0.8455897000385448,,,,,,7.0,1.0,15.0,0.0,,,,,,,,,174.94574029999785,,,,,,,,,174.92946899996605,175.73043989995494,176.5320932000177,176.51544969994575,176.5157650000183,176.5320932000177,176.5320932000177,176.5320932000177,177.38408640003763,left,1.0,0.8455897000385448,,177.38421649998054,177.39973910001572,177.9002976999618,177.88395699998364,,,,,,,,,,,,,,,,,,,,,,,,,,,,,sub-195,1,random_dot,59.81004330430504,
left,left,16.0,0.0,8.0,left,1.0,0.8441914001014084,,,,,,8.0,0.0,16.0,0.0,,,,,,,,,177.9002976999618,,,,,,,,,177.884193600039,178.2362835999811,179.03559360001236,179.01916070003062,179.0194540999364,179.03559360001236,179.03559360001236,179.03559360001236,179.88764359999914,left,1.0,0.8441914001014084,,179.88773359998595,179.90335489995778,,180.38804899994284,,,,,,,,,,,,,,,,,,,,,,,,,,,,,sub-195,1,random_dot,59.81004330430504,
right,right,17.0,1.0,8.0,right,1.0,0.8959102999651805,,,,,,8.0,1.0,17.0,1.0,,,,,,,,,180.40360159997363,,,,,,,,,180.3882829999784,181.18852940003853,181.99011549993884,181.97366439993493,181.9739108999493,181.99011549993884,181.99011549993884,181.99011549993884,182.8921027999604,right,1.0,0.8959102999651805,,182.89217520004604,182.908124199952,183.40870769997127,183.39240859996065,,,,,,,,,,,,,,,,,,,,,,,,,,,,,sub-195,1,random_dot,59.81004330430504,
right,right,18.0,0.0,9.0,right,1.0,1.90640960005112,,,,,,9.0,0.0,18.0,1.0,,,,,,,,,183.40870769997127,,,,,,,,,183.39268639998045,184.5943065000465,185.39509929995984,185.37853180000093,185.37883179995697,185.39509929995984,185.39509929995984,185.39509929995984,187.31628250004724,right,1.0,1.90640960005112,,187.31635560002175,187.33154389995616,187.8321114999708,187.81593189993876,,,,,,,,,,,,,,,,,,,,,,,,,,,,,sub-195,1,random_dot,59.81004330430504,
left,left,19.0,1.0,9.0,left,1.0,0.6634328999789432,,,,,,9.0,1.0,19.0,0.0,,,,,,,,,187.8321114999708,,,,,,,,,187.8161866000155,188.16574800002851,188.9673136000056,188.95094150002117,188.9512146000052,188.9673136000056,188.9673136000056,188.9673136000056,189.63544199999887,left,1.0,0.6634328999789432,,189.63551699998789,189.65146059996917,190.15195470000617,190.1356974999653,,,,,,,,,,,,,,,,,,,,,,,,,,,,,sub-195,1,random_dot,59.81004330430504,
,,,,,,,,,,,,,,,,,,,,,,,,,,,,,,,,,,,,,,,,,,,,,,,,,,,190.1357909999788,190.15195470000617,190.15195470000617,191.82212969998363,space,1.660170599934645,,,,,,,,,,,,,,,,,,,,,,,sub-195,1,random_dot,59.81004330430504,
,,,,,,,,,,,,,,,,,,,,,,,,,,,,,,,,,,,,,,,,,,,,,,,,,,,,,,,,,,191.8221898999764,191.8380655000219,191.8380655000219,194.5432386000175,space,2.6956880999496207,,,,,,,,,,,,,,,,sub-195,1,random_dot,59.81004330430504,
right,right,0.0,0.0,0.0,right,1.0,1.1056964000454172,,speed,space,2.3275156000163406,,,,,,0.0,0.0,0.0,1.0,0.0,0.0,0.0,1.0,196.9130855000112,,,,,,,,,196.90191509993747,197.012753100018,197.81436680001207,197.7978816999821,197.79820810002275,197.81436680001207,197.81436680001207,197.81436680001207,198.93356749997477,,,,,,,,,,,,,,,,,,,,,,,194.5598068999825,194.564180699992,194.564180699992,196.89702040003613,space,2.3275156000163406,,right,1.0,1.1056964000454172,,,,,sub-195,1,random_dot,59.81004330430504,
left,left,1.0,1.0,0.0,left,1.0,0.6194061998976395,,speed,space,2.3275156000163406,,,,,,0.0,0.0,0.0,1.0,0.0,1.0,1.0,0.0,198.94874699995853,,,,,,,,,198.93386250000916,199.7334217999596,200.53509300004225,200.5188724000473,200.51921419997237,200.53509300004225,200.53509300004225,200.53509300004225,201.16963020002004,,,,,,,,,,,,,,,,,,,,,,,,,,,,,,left,1.0,0.6194061998976395,,,,,sub-195,1,random_dot,59.81004330430504,
left,left,2.0,0.0,1.0,left,1.0,0.6323649999685585,,speed,space,2.3275156000163406,,,,,,0.0,0.0,0.0,1.0,1.0,0.0,2.0,0.0,201.18527220003307,,,,,,,,,201.16985840001144,201.5192562999437,202.32096859999,202.30441630003045,202.30475260003004,202.32096859999,202.32096859999,202.32096859999,202.9567027000012,,,,,,,,,,,,,,,,,,,,,,,,,,,,,,left,1.0,0.6323649999685585,,,,,sub-195,1,random_dot,59.81004330430504,
right,right,3.0,1.0,1.0,right,1.0,0.5292350000236183,,speed,space,2.3275156000163406,,,,,,0.0,0.0,0.0,1.0,1.0,1.0,3.0,1.0,202.9724163999781,,,,,,,,,202.95700890000444,203.30598169995935,204.10714119998735,204.0905199999688,204.09081309998876,204.10714119998735,204.10714119998735,204.10714119998735,204.6419545999961,,,,,,,,,,,,,,,,,,,,,,,,,,,,,,right,1.0,0.5292350000236183,,,,,sub-195,1,random_dot,59.81004330430504,
left,left,4.0,0.0,2.0,left,1.0,0.5112047999864444,,speed,space,2.3275156000163406,,,,,,0.0,0.0,0.0,1.0,2.0,0.0,4.0,0.0,204.6573653999949,,,,,,,,,204.64232760004236,205.44234690000303,206.2437934000045,206.2274225000292,206.22766380000397,206.2437934000045,206.2437934000045,206.2437934000045,206.761899300036,,,,,,,,,,,,,,,,,,,,,,,,,,,,,,left,1.0,0.5112047999864444,,,,,sub-195,1,random_dot,59.81004330430504,
right,right,5.0,1.0,2.0,right,1.0,0.5311851999722421,,speed,space,2.3275156000163406,,,,,,0.0,0.0,0.0,1.0,2.0,1.0,5.0,1.0,206.7778088999912,,,,,,,,,206.7621802999638,206.87722549994945,207.6792034000391,207.66270049999,207.6629400999518,207.6792034000391,207.6792034000391,207.6792034000391,208.214084599982,,,,,,,,,,,,,,,,,,,,,,,,,,,,,,right,1.0,0.5311851999722421,,,,,sub-195,1,random_dot,59.81004330430504,
right,right,6.0,0.0,3.0,left,0.0,0.8054335999768227,,speed,space,2.3275156000163406,,,,,,0.0,0.0,0.0,1.0,3.0,0.0,6.0,1.0,208.2298899999587,,,,,,,,,208.2143641000148,208.31284479994792,209.1146976000164,209.098323800019,209.0985772999702,209.1146976000164,209.1146976000164,209.1146976000164,209.9336415999569,,,,,,,,,,,,,,,,,,,,,,,,,,,,,,left,0.0,0.8054335999768227,,,,,sub-195,1,random_dot,59.81004330430504,
left,left,7.0,1.0,3.0,left,1.0,0.5453714999603108,,speed,space,2.3275156000163406,,,,,,0.0,0.0,0.0,1.0,3.0,1.0,7.0,0.0,209.9495176000055,,,,,,,,,209.933931699954,210.73365309997465,211.53504869993776,211.5186742999358,211.5189460000256,211.53504869993776,211.53504869993776,211.53504869993776,212.0886448000092,,,,,,,,,,,,,,,,,,,,,,,,,,,,,,left,1.0,0.5453714999603108,,,,,sub-195,1,random_dot,59.81004330430504,
right,right,8.0,0.0,4.0,right,1.0,0.5657358000753447,,speed,space,2.3275156000163406,,,,,,0.0,0.0,0.0,1.0,4.0,0.0,8.0,1.0,212.10433050000572,,,,,,,,,212.08904460002668,213.2888447999721,214.08906749996825,214.07261269993612,214.0729937000433,214.08906749996825,214.08906749996825,214.08906749996825,214.6576377999736,,,,,,,,,,,,,,,,,,,,,,,,,,,,,,right,1.0,0.5657358000753447,,,,,sub-195,1,random_dot,59.81004330430504,
left,left,9.0,1.0,4.0,left,1.0,0.6283201000187546,,speed,space,2.3275156000163406,,,,,,0.0,0.0,0.0,1.0,4.0,1.0,9.0,0.0,214.67318289994728,,,,,,,,,214.65800289995968,215.0237655999372,215.82526810001585,215.8091280999361,215.8096289000241,215.82526810001585,215.82526810001585,215.82526810001585,216.46043850004207,,,,,,,,,,,,,,,,,,,,,,,,,,,,,,left,1.0,0.6283201000187546,,,,,sub-195,1,random_dot,59.81004330430504,
right,right,10.0,0.0,5.0,right,1.0,0.4866741999285295,,speed,space,2.3275156000163406,,,,,,0.0,0.0,0.0,1.0,5.0,0.0,10.0,1.0,216.4757749999408,,,,,,,,,216.4608419999713,217.66971659997944,218.4706946000224,218.45481739996467,218.45532810001168,218.4706946000224,218.4706946000224,218.4706946000224,218.9723300000187,,,,,,,,,,,,,,,,,,,,,,,,,,,,,,right,1.0,0.4866741999285295,,,,,sub-195,1,random_dot,59.81004330430504,
left,left,11.0,1.0,5.0,left,1.0,0.6279248000355437,,speed,space,2.3275156000163406,,,,,,0.0,0.0,0.0,1.0,5.0,1.0,11.0,0.0,218.98784519999757,,,,,,,,,218.97265070001595,219.32216199999675,220.12306709995028,220.10687090002463,220.10717750003096,220.12306709995028,220.12306709995028,220.12306709995028,220.7587541999528,,,,,,,,,,,,,,,,,,,,,,,,,,,,,,left,1.0,0.6279248000355437,,,,,sub-195,1,random_dot,59.81004330430504,
right,right,12.0,0.0,6.0,right,1.0,0.5080955000594258,,speed,space,2.3275156000163406,,,,,,0.0,0.0,0.0,1.0,6.0,0.0,12.0,1.0,220.77434160001576,,,,,,,,,220.75902370002584,220.873762800009,221.67572469997685,221.6595336999744,221.6598837999627,221.67572469997685,221.67572469997685,221.67572469997685,222.19666350004263,,,,,,,,,,,,,,,,,,,,,,,,,,,,,,right,1.0,0.5080955000594258,,,,,sub-195,1,random_dot,59.81004330430504,
left,left,13.0,1.0,6.0,left,1.0,0.6287925000069663,,speed,space,2.3275156000163406,,,,,,0.0,0.0,0.0,1.0,6.0,1.0,13.0,0.0,222.21233959996607,,,,,,,,,222.19697799999267,222.30973880004603,223.11105069995392,223.09512059995905,223.09554699994624,223.11105069995392,223.11105069995392,223.11105069995392,223.7471701999893,,,,,,,,,,,,,,,,,,,,,,,,,,,,,,left,1.0,0.6287925000069663,,,,,sub-195,1,random_dot,59.81004330430504,
left,left,14.0,0.0,7.0,left,1.0,0.8683158000931144,,speed,space,2.3275156000163406,,,,,,0.0,0.0,0.0,1.0,7.0,0.0,14.0,0.0,223.7621059999801,,,,,,,,,223.7475294000469,224.54657170001883,225.3480283999816,225.33153029996905,225.3318242999958,225.3480283999816,225.3480283999816,225.3480283999816,226.23359199997503,,,,,,,,,,,,,,,,,,,,,,,,,,,,,,left,1.0,0.8683158000931144,,,,,sub-195,1,random_dot,59.81004330430504,
right,right,15.0,1.0,7.0,right,1.0,0.6765851000091061,,speed,space,2.3275156000163406,,,,,,0.0,0.0,0.0,1.0,7.0,1.0,15.0,1.0,226.2491788000334,,,,,,,,,226.2338986999821,226.34896119998305,227.15047809993848,227.13401149993297,227.1343010000419,227.15047809993848,227.15047809993848,227.15047809993848,227.83578329999,,,,,,,,,,,,,,,,,,,,,,,,,,,,,,right,1.0,0.6765851000091061,,,,,sub-195,1,random_dot,59.81004330430504,
right,right,16.0,0.0,8.0,right,1.0,0.6612759999698028,,speed,space,2.3275156000163406,,,,,,0.0,0.0,0.0,1.0,8.0,0.0,16.0,1.0,227.85133129998576,,,,,,,,,227.836159999948,229.03667349996977,229.8375395999756,229.82078189996537,229.8212575999787,229.8375395999756,229.8375395999756,229.8375395999756,230.50675930001307,,,,,,,,,,,,,,,,,,,,,,,,,,,,,,right,1.0,0.6612759999698028,,,,,sub-195,1,random_dot,59.81004330430504,
left,left,17.0,1.0,8.0,left,1.0,0.9853329000761732,,speed,space,2.3275156000163406,,,,,,0.0,0.0,0.0,1.0,8.0,1.0,17.0,0.0,230.52166950004172,,,,,,,,,230.50716909999028,231.7071664000396,232.50876929995135,232.4923041999573,232.492547599948,232.50876929995135,232.50876929995135,232.50876929995135,233.5110415000236,,,,,,,,,,,,,,,,,,,,,,,,,,,,,,left,1.0,0.9853329000761732,,,,,sub-195,1,random_dot,59.81004330430504,
left,left,18.0,0.0,9.0,left,1.0,0.9038267000578344,,speed,space,2.3275156000163406,,,,,,0.0,0.0,0.0,1.0,9.0,0.0,18.0,0.0,233.5265351999551,,,,,,,,,233.5114528000122,234.71188279998023,235.51294909999703,235.49625920003743,235.4965358999325,235.51294909999703,235.51294909999703,235.51294909999703,236.4317224000115,,,,,,,,,,,,,,,,,,,,,,,,,,,,,,left,1.0,0.9038267000578344,,,,,sub-195,1,random_dot,59.81004330430504,
right,right,19.0,1.0,9.0,right,1.0,0.6887672999873757,,speed,space,2.3275156000163406,,,,,,0.0,0.0,0.0,1.0,9.0,1.0,19.0,1.0,236.44750090001617,,,,,,,,,236.43206789996475,236.781326700002,237.5831351999659,237.5667431999464,237.56724130001385,237.5831351999659,237.5831351999659,237.5831351999659,238.28478610003367,,,,,,,,,,,,,,,,,,,,,,,,,,,,,,right,1.0,0.6887672999873757,,,,,sub-195,1,random_dot,59.81004330430504,
left,left,20.0,0.0,10.0,left,1.0,0.781041800044477,,speed,space,2.3275156000163406,,,,,,0.0,0.0,0.0,1.0,10.0,0.0,20.0,0.0,238.30042520002465,,,,,,,,,238.2850596000208,239.0851184999337,239.88605159998409,239.87038929993287,239.87079039996024,239.88605159998409,239.88605159998409,239.88605159998409,240.67187219997868,,,,,,,,,,,,,,,,,,,,,,,,,,,,,,left,1.0,0.781041800044477,,,,,sub-195,1,random_dot,59.81004330430504,
right,right,21.0,1.0,10.0,right,1.0,0.7918319000164047,,speed,space,2.3275156000163406,,,,,,0.0,0.0,0.0,1.0,10.0,1.0,21.0,1.0,240.6874039999675,,,,,,,,,240.6722185999388,241.4721802000422,242.2738651999971,242.25752570002803,242.25779249996413,242.2738651999971,242.2738651999971,242.2738651999971,243.0775669999421,,,,,,,,,,,,,,,,,,,,,,,,,,,,,,right,1.0,0.7918319000164047,,,,,sub-195,1,random_dot,59.81004330430504,
right,right,22.0,0.0,11.0,left,0.0,2.072109399945475,,speed,space,2.3275156000163406,,,,,,0.0,0.0,0.0,1.0,11.0,0.0,22.0,1.0,243.0924004999688,,,,,,,,,243.0778704000404,243.42574600002263,244.2289138999768,244.21231229999103,244.2126417999389,244.2289138999768,244.2289138999768,244.2289138999768,246.3147296999814,,,,,,,,,,,,,,,,,,,,,,,,,,,,,,left,0.0,2.072109399945475,,,,,sub-195,1,random_dot,59.81004330430504,
left,left,23.0,1.0,11.0,left,1.0,0.7721498000901192,,speed,space,2.3275156000163406,,,,,,0.0,0.0,0.0,1.0,11.0,1.0,23.0,0.0,246.32937009993475,,,,,,,,,246.31500589998905,246.6805765000172,247.48138350003865,247.46496649994515,247.46533389994875,247.48138350003865,247.48138350003865,247.48138350003865,248.2665472000372,,,,,,,,,,,,,,,,,,,,,,,,,,,,,,left,1.0,0.7721498000901192,,,,,sub-195,1,random_dot,59.81004330430504,
left,left,24.0,0.0,12.0,left,1.0,1.704047100036405,,speed,space,2.3275156000163406,,,,,,0.0,0.0,0.0,1.0,12.0,0.0,24.0,0.0,248.28215440001804,,,,,,,,,248.2668256999459,248.3824833999388,249.1838639000198,249.1677074000472,249.16818389995024,249.1838639000198,249.1838639000198,249.1838639000198,250.9035329000326,,,,,,,,,,,,,,,,,,,,,,,,,,,,,,left,1.0,1.704047100036405,,,,,sub-195,1,random_dot,59.81004330430504,
right,right,25.0,1.0,12.0,right,1.0,0.5395943999756128,,speed,space,2.3275156000163406,,,,,,0.0,0.0,0.0,1.0,12.0,1.0,25.0,1.0,250.9191158999456,,,,,,,,,250.9038634999888,251.0032187999459,251.80485289997887,251.7883487000363,251.78876739996485,251.80485289997887,251.80485289997887,251.80485289997887,252.3564610000467,,,,,,,,,,,,,,,,,,,,,,,,,,,,,,right,1.0,0.5395943999756128,,,,,sub-195,1,random_dot,59.81004330430504,
right,right,26.0,0.0,13.0,right,1.0,0.5327816000208259,,speed,space,2.3275156000163406,,,,,,0.0,0.0,0.0,1.0,13.0,0.0,26.0,1.0,252.37157720001412,,,,,,,,,252.35668510000687,253.55696549999996,254.35862119996452,254.342045599944,254.34235559997612,254.35862119996452,254.35862119996452,254.35862119996452,254.89348359999715,,,,,,,,,,,,,,,,,,,,,,,,,,,,,,right,1.0,0.5327816000208259,,,,,sub-195,1,random_dot,59.81004330430504,
left,left,27.0,1.0,13.0,left,1.0,0.5706858000485227,,speed,space,2.3275156000163406,,,,,,0.0,0.0,0.0,1.0,13.0,1.0,27.0,0.0,254.9092665000353,,,,,,,,,254.8937663999386,255.24293299997225,256.0437518999679,256.0282232000027,256.0286257000407,256.0437518999679,256.0437518999679,256.0437518999679,256.6292705000378,,,,,,,,,,,,,,,,,,,,,,,,,,,,,,left,1.0,0.5706858000485227,,,,,sub-195,1,random_dot,59.81004330430504,
left,left,28.0,0.0,14.0,right,0.0,0.5556197999976575,,speed,space,2.3275156000163406,,,,,,0.0,0.0,0.0,1.0,14.0,0.0,28.0,0.0,256.6445289000403,,,,,,,,,256.6296701999381,257.8303016000428,258.63105299999006,258.61466820002533,258.6149466999341,258.63105299999006,258.63105299999006,258.63105299999006,259.1995031000115,,,,,,,,,,,,,,,,,,,,,,,,,,,,,,right,0.0,0.5556197999976575,,,,,sub-195,1,random_dot,59.81004330430504,
right,right,29.0,1.0,14.0,right,1.0,0.5278177000582218,,speed,space,2.3275156000163406,,,,,,0.0,0.0,0.0,1.0,14.0,1.0,29.0,1.0,259.21545110002626,,,,,,,,,259.19978889997583,260.0001900999341,260.801863300032,260.78547070000786,260.7857065999415,260.801863300032,260.801863300032,260.801863300032,261.3366294000298,,,,,,,,,,,,,,,,,,,,,,,,,,,,,,right,1.0,0.5278177000582218,,,,,sub-195,1,random_dot,59.81004330430504,
right,right,30.0,0.0,15.0,right,1.0,0.5906612999970093,,speed,space,2.3275156000163406,,,,,,0.0,0.0,0.0,1.0,15.0,0.0,30.0,1.0,261.3524946999969,,,,,,,,,261.33693290001247,261.6861225999892,262.4869702999713,262.4704432999715,262.47071769996546,262.4869702999713,262.4869702999713,262.4869702999713,263.0889625999844,,,,,,,,,,,,,,,,,,,,,,,,,,,,,,right,1.0,0.5906612999970093,,,,,sub-195,1,random_dot,59.81004330430504,
left,left,31.0,1.0,15.0,left,1.0,0.4765649000182748,,speed,space,2.3275156000163406,,,,,,0.0,0.0,0.0,1.0,15.0,1.0,31.0,0.0,263.1048435999546,,,,,,,,,263.0892480999464,263.8895695999963,264.69051710003987,264.67378319997806,264.6740714999614,264.69051710003987,264.69051710003987,264.69051710003987,265.17571700003464,,,,,,,,,,,,,,,,,,,,,,,,,,,,,,left,1.0,0.4765649000182748,,,,,sub-195,1,random_dot,59.81004330430504,
right,right,32.0,0.0,16.0,right,1.0,0.6185326999984682,,speed,space,2.3275156000163406,,,,,,0.0,0.0,0.0,1.0,16.0,0.0,32.0,1.0,265.1916850999696,,,,,,,,,265.1760515000205,265.52532919996884,266.3261677999981,266.3105145000154,266.31089780002367,266.3261677999981,266.3261677999981,266.3261677999981,266.96180299995467,,,,,,,,,,,,,,,,,,,,,,,,,,,,,,right,1.0,0.6185326999984682,,,,,sub-195,1,random_dot,59.81004330430504,
left,left,33.0,1.0,16.0,left,1.0,0.7525773999514058,,speed,space,2.3275156000163406,,,,,,0.0,0.0,0.0,1.0,16.0,1.0,33.0,0.0,266.9774962000083,,,,,,,,,266.9621373999398,268.1622165000299,268.9639864999335,268.9474726000335,268.94783730001654,268.9639864999335,268.9639864999335,268.9639864999335,269.73244549997617,,,,,,,,,,,,,,,,,,,,,,,,,,,,,,left,1.0,0.7525773999514058,,,,,sub-195,1,random_dot,59.81004330430504,
left,left,34.0,0.0,17.0,left,1.0,0.6395889000268653,,speed,space,2.3275156000163406,,,,,,0.0,0.0,0.0,1.0,17.0,0.0,34.0,0.0,269.7484322999371,,,,,,,,,269.73279639997054,269.8478008999955,270.6497957999818,270.633343399968,270.63365089998115,270.6497957999818,270.6497957999818,270.6497957999818,271.3012214000337,,,,,,,,,,,,,,,,,,,,,,,,,,,,,,left,1.0,0.6395889000268653,,,,,sub-195,1,random_dot,59.81004330430504,
right,right,35.0,1.0,17.0,right,1.0,0.7596836000448093,,speed,space,2.3275156000163406,,,,,,0.0,0.0,0.0,1.0,17.0,1.0,35.0,1.0,271.3170443000272,,,,,,,,,271.30152259999886,271.65064609993715,272.4523994999472,272.4360150999855,272.43641890003346,272.4523994999472,272.4523994999472,272.4523994999472,273.2213676000247,,,,,,,,,,,,,,,,,,,,,,,,,,,,,,right,1.0,0.7596836000448093,,,,,sub-195,1,random_dot,59.81004330430504,
left,left,36.0,0.0,18.0,left,1.0,0.9166105999611318,,speed,space,2.3275156000163406,,,,,,0.0,0.0,0.0,1.0,18.0,0.0,36.0,0.0,273.23701539996546,,,,,,,,,273.2217791000148,274.4214804000221,275.2234609000152,275.2070883000269,275.2073990999488,275.2234609000152,275.2234609000152,275.2234609000152,276.14262509997934,,,,,,,,,,,,,,,,,,,,,,,,,,,,,,left,1.0,0.9166105999611318,,,,,sub-195,1,random_dot,59.81004330430504,
right,right,37.0,1.0,18.0,right,1.0,0.7787654999410734,,speed,space,2.3275156000163406,,,,,,0.0,0.0,0.0,1.0,18.0,1.0,37.0,1.0,276.158095199964,,,,,,,,,276.1430041999556,276.9426792999729,277.7434410999995,277.72696600004565,277.7272546000313,277.7434410999995,277.7434410999995,277.7434410999995,278.52946360001806,,,,,,,,,,,,,,,,,,,,,,,,,,,,,,right,1.0,0.7787654999410734,,,,,sub-195,1,random_dot,59.81004330430504,
right,right,38.0,0.0,19.0,right,1.0,0.8421582999872044,,speed,space,2.3275156000163406,,,,,,0.0,0.0,0.0,1.0,19.0,0.0,38.0,1.0,278.545102300006,,,,,,,,,278.5299275999423,279.7296938999789,280.53137720003724,280.51488229993265,280.51517469994724,280.53137720003724,280.53137720003724,280.53137720003724,281.38403670000844,,,,,,,,,,,,,,,,,,,,,,,,,,,,,,right,1.0,0.8421582999872044,,,,,sub-195,1,random_dot,59.81004330430504,
left,left,39.0,1.0,19.0,left,1.0,0.682951399940066,,speed,space,2.3275156000163406,,,,,,0.0,0.0,0.0,1.0,19.0,1.0,39.0,0.0,281.39893290004693,,,,,,,,,281.3842705000425,281.4998209000332,282.3007174000377,282.284917699988,282.28518869995605,282.3007174000377,282.3007174000377,282.3007174000377,282.9861747999676,,,,,,,,,,,,,,,,,,,,,,,,,,,,,,left,1.0,0.682951399940066,,,,,sub-195,1,random_dot,59.81004330430504,
left,left,40.0,0.0,20.0,left,1.0,1.3953275999519974,,speed,space,2.3275156000163406,,,,,,0.0,0.0,0.0,1.0,20.0,0.0,40.0,0.0,283.0022489000112,,,,,,,,,282.9864612999372,283.78616639995016,284.5876285999548,284.57122829998843,284.5714731999906,284.5876285999548,284.5876285999548,284.5876285999548,285.99030569999013,,,,,,,,,,,,,,,,,,,,,,,,,,,,,,left,1.0,1.3953275999519974,,,,,sub-195,1,random_dot,59.81004330430504,
right,right,41.0,1.0,20.0,right,1.0,0.5394065999425948,,speed,space,2.3275156000163406,,,,,,0.0,0.0,0.0,1.0,20.0,1.0,41.0,1.0,286.00591850001365,,,,,,,,,285.9905876000412,287.19173730001785,287.99261760001536,287.976858500042,287.97710719995666,287.99261760001536,287.99261760001536,287.99261760001536,288.5454139999347,,,,,,,,,,,,,,,,,,,,,,,,,,,,,,right,1.0,0.5394065999425948,,,,,sub-195,1,random_dot,59.81004330430504,
left,left,42.0,0.0,21.0,left,1.0,0.5090404000366107,,speed,space,2.3275156000163406,,,,,,0.0,0.0,0.0,1.0,21.0,0.0,42.0,0.0,288.559859400033,,,,,,,,,288.5458935999777,288.91049239994027,289.71209519996773,289.69557840004563,289.6958512000274,289.71209519996773,289.71209519996773,289.71209519996773,290.23011260002386,,,,,,,,,,,,,,,,,,,,,,,,,,,,,,left,1.0,0.5090404000366107,,,,,sub-195,1,random_dot,59.81004330430504,
right,right,43.0,1.0,21.0,right,1.0,0.5688381999498233,,speed,space,2.3275156000163406,,,,,,0.0,0.0,0.0,1.0,21.0,1.0,43.0,1.0,290.2460065999767,,,,,,,,,290.2303515999811,290.57977089995984,291.3814420000417,291.3649531999836,291.36524099996313,291.3814420000417,291.3814420000417,291.3814420000417,291.9664417000022,,,,,,,,,,,,,,,,,,,,,,,,,,,,,,right,1.0,0.5688381999498233,,,,,sub-195,1,random_dot,59.81004330430504,
right,right,44.0,0.0,22.0,right,1.0,0.6215498000383377,,speed,space,2.3275156000163406,,,,,,0.0,0.0,0.0,1.0,22.0,0.0,44.0,1.0,291.9823293000227,,,,,,,,,291.9667706999462,292.7662566000363,293.5679825999541,293.5516055999324,293.5519196999958,293.5679825999541,293.5679825999541,293.5679825999541,294.203534899978,,,,,,,,,,,,,,,,,,,,,,,,,,,,,,right,1.0,0.6215498000383377,,,,,sub-195,1,random_dot,59.81004330430504,
left,left,45.0,1.0,22.0,left,1.0,0.6705239999573678,,speed,space,2.3275156000163406,,,,,,0.0,0.0,0.0,1.0,22.0,1.0,45.0,0.0,294.2192966999719,,,,,,,,,294.2038553999737,295.4040066000307,296.2055165999336,296.1892130000051,296.1895133999642,296.2055165999336,296.2055165999336,296.2055165999336,296.89046030002646,,,,,,,,,,,,,,,,,,,,,,,,,,,,,,left,1.0,0.6705239999573678,,,,,sub-195,1,random_dot,59.81004330430504,
right,right,46.0,0.0,23.0,right,1.0,0.8374936999753118,,speed,space,2.3275156000163406,,,,,,0.0,0.0,0.0,1.0,23.0,0.0,46.0,1.0,296.90643019997515,,,,,,,,,296.8907253999496,297.6912189000286,298.492156399996,298.47538079996593,298.475650300039,298.492156399996,298.492156399996,298.492156399996,299.3449086999753,,,,,,,,,,,,,,,,,,,,,,,,,,,,,,right,1.0,0.8374936999753118,,,,,sub-195,1,random_dot,59.81004330430504,
left,left,47.0,1.0,23.0,left,1.0,0.7852947999490425,,speed,space,2.3275156000163406,,,,,,0.0,0.0,0.0,1.0,23.0,1.0,47.0,0.0,299.36034969997127,,,,,,,,,299.3452777999919,300.1442338000052,300.94605359993875,300.92966310004704,300.9299898999743,300.94605359993875,300.94605359993875,300.94605359993875,301.74889980000444,,,,,,,,,,,,,,,,,,,,,,,,,,,,,,left,1.0,0.7852947999490425,,,,,sub-195,1,random_dot,59.81004330430504,
left,left,48.0,0.0,24.0,left,1.0,0.5952527000335976,,speed,space,2.3275156000163406,,,,,,0.0,0.0,0.0,1.0,24.0,0.0,48.0,0.0,301.76322910003364,,,,,,,,,301.7494080000324,301.864021699992,302.6656708000228,302.649228699971,302.64956129994243,302.6656708000228,302.6656708000228,302.6656708000228,303.2670925999992,,,,,,,,,,,,,,,,,,,,,,,,,,,,,,left,1.0,0.5952527000335976,,,,,sub-195,1,random_dot,59.81004330430504,
right,right,49.0,1.0,24.0,right,1.0,0.4726943999994546,,speed,space,2.3275156000163406,,,,,,0.0,0.0,0.0,1.0,24.0,1.0,49.0,1.0,303.28221800003666,,,,,,,,,303.26765970001,304.4679634999484,305.2688863000367,305.2523021999514,305.25260030000936,305.2688863000367,305.2688863000367,305.2688863000367,305.7547814999707,,,,,,,,,,,,,,,,,,,,,,,,,,,,,,right,1.0,0.4726943999994546,,,,,sub-195,1,random_dot,59.81004330430504,
left,left,50.0,0.0,25.0,left,1.0,0.5521766999736428,,speed,space,2.3275156000163406,,,,,,0.0,0.0,0.0,1.0,25.0,0.0,50.0,0.0,305.7701303999638,,,,,,,,,305.7551738000475,306.9547854999546,307.7563595999964,307.740012699971,307.74043500004336,307.7563595999964,307.7563595999964,307.7563595999964,308.32471800001804,,,,,,,,,,,,,,,,,,,,,,,,,,,,,,left,1.0,0.5521766999736428,,,,,sub-195,1,random_dot,59.81004330430504,
right,right,51.0,1.0,25.0,right,1.0,0.5128500000573695,,speed,space,2.3275156000163406,,,,,,0.0,0.0,0.0,1.0,25.0,1.0,51.0,1.0,308.3406136999838,,,,,,,,,308.32502220000606,308.4404460999649,309.2420564999338,309.2255143999355,309.22575049998704,309.2420564999338,309.2420564999338,309.2420564999338,309.7601487999782,,,,,,,,,,,,,,,,,,,,,,,,,,,,,,right,1.0,0.5128500000573695,,,,,sub-195,1,random_dot,59.81004330430504,
right,right,52.0,0.0,26.0,right,1.0,0.6295321000507101,,speed,space,2.3275156000163406,,,,,,0.0,0.0,0.0,1.0,26.0,0.0,52.0,1.0,309.7760192999849,,,,,,,,,309.76044750004075,310.96059689996764,311.7622931000078,311.7458479999332,311.7460848999908,311.7622931000078,311.7622931000078,311.7622931000078,312.3982324999524,,,,,,,,,,,,,,,,,,,,,,,,,,,,,,right,1.0,0.6295321000507101,,,,,sub-195,1,random_dot,59.81004330430504,
left,left,53.0,1.0,26.0,left,1.0,0.5379926000023261,,speed,space,2.3275156000163406,,,,,,0.0,0.0,0.0,1.0,26.0,1.0,53.0,0.0,312.4129555999534,,,,,,,,,312.39863660000265,312.76413329993375,313.5648680999875,313.54815759998746,313.54844020004384,313.5648680999875,313.5648680999875,313.5648680999875,314.1166355999885,,,,,,,,,,,,,,,,,,,,,,,,,,,,,,left,1.0,0.5379926000023261,,,,,sub-195,1,random_dot,59.81004330430504,
left,left,54.0,0.0,27.0,left,1.0,0.5752483000978827,,speed,space,2.3275156000163406,,,,,,0.0,0.0,0.0,1.0,27.0,0.0,54.0,0.0,314.1318453999702,,,,,,,,,314.1168911999557,314.91717459994834,315.7181157999439,315.7024602999445,315.70290749997366,315.7181157999439,315.7181157999439,315.7181157999439,316.30338599998504,,,,,,,,,,,,,,,,,,,,,,,,,,,,,,left,1.0,0.5752483000978827,,,,,sub-195,1,random_dot,59.81004330430504,
right,right,55.0,1.0,27.0,right,1.0,0.6088060999754816,,speed,space,2.3275156000163406,,,,,,0.0,0.0,0.0,1.0,27.0,1.0,55.0,1.0,316.3189249000279,,,,,,,,,316.30361810000613,317.103868199978,317.90545970003586,317.8893598000286,317.8898109999718,317.90545970003586,317.90545970003586,317.90545970003586,318.52367020002566,,,,,,,,,,,,,,,,,,,,,,,,,,,,,,right,1.0,0.6088060999754816,,,,,sub-195,1,random_dot,59.81004330430504,
left,left,56.0,0.0,28.0,left,1.0,0.6496716999681666,,speed,space,2.3275156000163406,,,,,,0.0,0.0,0.0,1.0,28.0,0.0,56.0,0.0,318.5391196999699,,,,,,,,,318.5240402999334,319.3239046999952,320.1248402999481,320.1094237000216,320.10980330000166,320.1248402999481,320.1248402999481,320.1248402999481,320.7770221999381,,,,,,,,,,,,,,,,,,,,,,,,,,,,,,left,1.0,0.6496716999681666,,,,,sub-195,1,random_dot,59.81004330430504,
right,right,57.0,1.0,28.0,right,1.0,0.6373601000523195,,speed,space,2.3275156000163406,,,,,,0.0,0.0,0.0,1.0,28.0,1.0,57.0,1.0,320.7928224999923,,,,,,,,,320.7773409000365,321.1264734000433,321.92813400004525,321.911942100036,321.9123154999688,321.92813400004525,321.92813400004525,321.92813400004525,322.5794517999748,,,,,,,,,,,,,,,,,,,,,,,,,,,,,,right,1.0,0.6373601000523195,,,,,sub-195,1,random_dot,59.81004330430504,
left,left,58.0,0.0,29.0,left,1.0,0.5833834999939427,,speed,space,2.3275156000163406,,,,,,0.0,0.0,0.0,1.0,29.0,0.0,58.0,0.0,322.5953965999652,,,,,,,,,322.5797714999644,323.7810782999732,324.58167119999416,324.56513550004456,324.565378600033,324.58167119999416,324.58167119999416,324.58167119999416,325.166936900001,,,,,,,,,,,,,,,,,,,,,,,,,,,,,,left,1.0,0.5833834999939427,,,,,sub-195,1,random_dot,59.81004330430504,
right,right,59.0,1.0,29.0,right,1.0,0.6049633000511676,,speed,space,2.3275156000163406,,,,,,0.0,0.0,0.0,1.0,29.0,1.0,59.0,1.0,325.1828267000383,,,,,,,,,325.16732619993854,326.36845099995844,327.169326000032,327.1527975000208,327.1531141999876,327.169326000032,327.169326000032,327.169326000032,327.78798499994446,,,,,,,,,,,,,,,,,,,,,,,,,,,,,,right,1.0,0.6049633000511676,,,,,sub-195,1,random_dot,59.81004330430504,
,,0.0,0.0,0.0,,,,,speed,space,2.3275156000163406,,,,,,0.0,0.0,0.0,1.0,,,,,,,,,,,,,,,,,,,,,,,,,,,,,,,,,,,,,,,,,,,,,,,,,,,,,,,,,,,sub-195,1,random_dot,59.81004330430504,
left,left,0.0,0.0,0.0,left,1.0,0.8049416999565437,,accuracy,space,3.139374800026417,,,,,,0.0,1.0,1.0,0.0,0.0,0.0,0.0,0.0,330.9754926000023,,,,,,,,,330.9643308999948,331.3091549000237,332.1106840999564,332.0941676000366,332.0946164999623,332.1106840999564,332.1106840999564,332.1106840999564,332.9290593999904,,,,,,,,,,,,,,,,,,,,,,,327.79728780000005,327.8029827999417,327.8029827999417,330.9594589000335,space,3.139374800026417,,left,1.0,0.8049416999565437,,,,,sub-195,1,random_dot,59.81004330430504,
right,right,1.0,1.0,0.0,right,1.0,0.5102059999480844,,accuracy,space,3.139374800026417,,,,,,0.0,1.0,1.0,0.0,0.0,1.0,1.0,1.0,332.9449137999909,,,,,,,,,332.9294040999375,333.045231499942,333.846185100032,333.829876099946,333.8301381999627,333.846185100032,333.846185100032,333.846185100032,334.3646816000109,,,,,,,,,,,,,,,,,,,,,,,,,,,,,,right,1.0,0.5102059999480844,,,,,sub-195,1,random_dot,59.81004330430504,
right,right,2.0,0.0,1.0,right,1.0,0.6785583000164479,,accuracy,space,3.139374800026417,,,,,,0.0,1.0,1.0,0.0,1.0,0.0,2.0,1.0,334.38031199993566,,,,,,,,,334.3650685000466,334.46333649999,335.2649730000412,335.2486069999868,335.2489363999339,335.2649730000412,335.2649730000412,335.2649730000412,335.9499363999348,,,,,,,,,,,,,,,,,,,,,,,,,,,,,,right,1.0,0.6785583000164479,,,,,sub-195,1,random_dot,59.81004330430504,
left,left,3.0,1.0,1.0,left,1.0,0.5605885999975726,,accuracy,space,3.139374800026417,,,,,,0.0,1.0,1.0,0.0,1.0,1.0,3.0,0.0,335.96561900002416,,,,,,,,,335.95017279998865,336.750279400032,337.5520182000473,337.53594550001435,337.53643680003006,337.5520182000473,337.5520182000473,337.5520182000473,338.11997360002715,,,,,,,,,,,,,,,,,,,,,,,,,,,,,,left,1.0,0.5605885999975726,,,,,sub-195,1,random_dot,59.81004330430504,
right,right,4.0,0.0,2.0,right,1.0,0.5702962999930605,,accuracy,space,3.139374800026417,,,,,,0.0,1.0,1.0,0.0,2.0,0.0,4.0,1.0,338.1356371999718,,,,,,,,,338.1202588999877,338.21925980004016,339.0210635999684,339.00463680003304,339.00491929997224,339.0210635999684,339.0210635999684,339.0210635999684,339.6057420000434,,,,,,,,,,,,,,,,,,,,,,,,,,,,,,right,1.0,0.5702962999930605,,,,,sub-195,1,random_dot,59.81004330430504,
left,left,5.0,1.0,2.0,left,1.0,0.4951129000401124,,accuracy,space,3.139374800026417,,,,,,0.0,1.0,1.0,0.0,2.0,1.0,5.0,0.0,339.6210293000331,,,,,,,,,339.6059895999497,340.80662960000336,341.60761449998245,341.59208209998906,341.59248570003547,341.60761449998245,341.60761449998245,341.60761449998245,342.10955699998885,,,,,,,,,,,,,,,,,,,,,,,,,,,,,,left,1.0,0.4951129000401124,,,,,sub-195,1,random_dot,59.81004330430504,
left,left,6.0,0.0,3.0,left,1.0,0.6505235999356955,,accuracy,space,3.139374800026417,,,,,,0.0,1.0,1.0,0.0,3.0,0.0,6.0,0.0,342.12548059993424,,,,,,,,,342.10981779999565,342.2252352000214,343.02679899998475,343.0108674999792,343.0113660999341,343.02679899998475,343.02679899998475,343.02679899998475,343.6786463999888,,,,,,,,,,,,,,,,,,,,,,,,,,,,,,left,1.0,0.6505235999356955,,,,,sub-195,1,random_dot,59.81004330430504,
right,right,7.0,1.0,3.0,right,1.0,0.6097397999837995,,accuracy,space,3.139374800026417,,,,,,0.0,1.0,1.0,0.0,3.0,1.0,7.0,1.0,343.6940611000173,,,,,,,,,343.67900360003114,344.47888369997963,345.2798194999341,345.26422639994416,345.26448160002474,345.2798194999341,345.2798194999341,345.2798194999341,345.8986283999402,,,,,,,,,,,,,,,,,,,,,,,,,,,,,,right,1.0,0.6097397999837995,,,,,sub-195,1,random_dot,59.81004330430504,
left,left,8.0,0.0,4.0,left,1.0,0.9694363999878988,,accuracy,space,3.139374800026417,,,,,,0.0,1.0,1.0,0.0,4.0,0.0,8.0,0.0,345.91432600002736,,,,,,,,,345.8988793999888,346.698972000042,347.4997833999805,347.4864701000042,347.4868598999456,347.4997833999805,347.4997833999805,347.4997833999805,348.48571189993527,,,,,,,,,,,,,,,,,,,,,,,,,,,,,,left,1.0,0.9694363999878988,,,,,sub-195,1,random_dot,59.81004330430504,
right,right,9.0,1.0,4.0,right,1.0,0.5771674000425264,,accuracy,space,3.139374800026417,,,,,,0.0,1.0,1.0,0.0,4.0,1.0,9.0,1.0,348.5015500000445,,,,,,,,,348.4859321999829,348.5843987000408,349.386167599936,349.36977670004126,349.3700635000132,349.386167599936,349.386167599936,349.386167599936,349.97140259994194,,,,,,,,,,,,,,,,,,,,,,,,,,,,,,right,1.0,0.5771674000425264,,,,,sub-195,1,random_dot,59.81004330430504,
left,left,10.0,0.0,5.0,left,1.0,0.6987007000716403,,accuracy,space,3.139374800026417,,,,,,0.0,1.0,1.0,0.0,5.0,0.0,10.0,0.0,349.9872534000315,,,,,,,,,349.9717250999529,350.7719324999489,351.5728814000031,351.5561321999412,351.5563991999952,351.5728814000031,351.5728814000031,351.5728814000031,352.27490950003266,,,,,,,,,,,,,,,,,,,,,,,,,,,,,,left,1.0,0.6987007000716403,,,,,sub-195,1,random_dot,59.81004330430504,
right,right,11.0,1.0,5.0,right,1.0,0.7857114999787882,,accuracy,space,3.139374800026417,,,,,,0.0,1.0,1.0,0.0,5.0,1.0,11.0,1.0,352.2898389999755,,,,,,,,,352.2754037999548,352.3741602000082,353.17516800004523,353.1595884000417,353.15999670000747,353.17516800004523,353.17516800004523,353.17516800004523,353.9772000999656,,,,,,,,,,,,,,,,,,,,,,,,,,,,,,right,1.0,0.7857114999787882,,,,,sub-195,1,random_dot,59.81004330430504,
right,right,12.0,0.0,6.0,right,1.0,0.6329496999969706,,accuracy,space,3.139374800026417,,,,,,0.0,1.0,1.0,0.0,6.0,0.0,12.0,1.0,353.99321009998675,,,,,,,,,353.9774989000289,354.3268448000308,355.1283881999552,355.1119134000037,355.1121500999434,355.1283881999552,355.1283881999552,355.1283881999552,355.7632017999422,,,,,,,,,,,,,,,,,,,,,,,,,,,,,,right,1.0,0.6329496999969706,,,,,sub-195,1,random_dot,59.81004330430504,
left,left,13.0,1.0,6.0,left,1.0,0.6053904000436887,,accuracy,space,3.139374800026417,,,,,,0.0,1.0,1.0,0.0,6.0,1.0,13.0,0.0,355.77886259998195,,,,,,,,,355.7635129999835,356.11261389998253,356.9142014000099,356.8974972999422,356.89777999999933,356.9142014000099,356.9142014000099,356.9142014000099,357.53283689997625,,,,,,,,,,,,,,,,,,,,,,,,,,,,,,left,1.0,0.6053904000436887,,,,,sub-195,1,random_dot,59.81004330430504,
right,right,14.0,0.0,7.0,right,1.0,1.3454116999637336,,accuracy,space,3.139374800026417,,,,,,0.0,1.0,1.0,0.0,7.0,0.0,14.0,1.0,357.54890539997723,,,,,,,,,357.5331748999888,358.3327417999972,359.1343278000131,359.117941500037,359.11822820000816,359.1343278000131,359.1343278000131,359.1343278000131,360.48727669997606,,,,,,,,,,,,,,,,,,,,,,,,,,,,,,right,1.0,1.3454116999637336,,,,,sub-195,1,random_dot,59.81004330430504,
left,left,15.0,1.0,7.0,left,1.0,0.6322161999996752,,accuracy,space,3.139374800026417,,,,,,0.0,1.0,1.0,0.0,7.0,1.0,15.0,0.0,360.5033605999779,,,,,,,,,360.4875935999444,360.6032358999364,361.4048735999968,361.3884869000176,361.3887790000299,361.4048735999968,361.4048735999968,361.4048735999968,362.0398820999544,,,,,,,,,,,,,,,,,,,,,,,,,,,,,,left,1.0,0.6322161999996752,,,,,sub-195,1,random_dot,59.81004330430504,
right,right,16.0,0.0,8.0,right,1.0,0.6569527999963611,,accuracy,space,3.139374800026417,,,,,,0.0,1.0,1.0,0.0,8.0,0.0,16.0,1.0,362.0553212999366,,,,,,,,,362.0403504000278,362.84007649996784,363.64176220004447,363.6255685000215,363.62605179997627,363.64176220004447,363.64176220004447,363.64176220004447,364.3100252000149,,,,,,,,,,,,,,,,,,,,,,,,,,,,,,right,1.0,0.6569527999963611,,,,,sub-195,1,random_dot,59.81004330430504,
left,left,17.0,1.0,8.0,left,1.0,1.0750598999438807,,accuracy,space,3.139374800026417,,,,,,0.0,1.0,1.0,0.0,8.0,1.0,17.0,0.0,364.3258065000409,,,,,,,,,364.3103871999774,364.4255295000039,365.2270478999708,365.2114690999733,365.2122629999649,365.2270478999708,365.2270478999708,365.2270478999708,366.312900000019,,,,,,,,,,,,,,,,,,,,,,,,,,,,,,left,1.0,1.0750598999438807,,,,,sub-195,1,random_dot,59.81004330430504,
left,left,18.0,0.0,9.0,left,1.0,1.018739200080745,,accuracy,space,3.139374800026417,,,,,,0.0,1.0,1.0,0.0,9.0,0.0,18.0,0.0,366.3287353999913,,,,,,,,,366.3132421999471,366.66247219999786,367.4640346999513,367.4482603999786,367.4487941999687,367.4640346999513,367.4640346999513,367.4640346999513,368.4994472999824,,,,,,,,,,,,,,,,,,,,,,,,,,,,,,left,1.0,1.018739200080745,,,,,sub-195,1,random_dot,59.81004330430504,
right,right,19.0,1.0,9.0,right,1.0,0.6862124999752268,,accuracy,space,3.139374800026417,,,,,,0.0,1.0,1.0,0.0,9.0,1.0,19.0,1.0,368.5154354999541,,,,,,,,,368.499733399949,369.304866499966,370.11768669995945,370.1012895000167,370.101675300044,370.11768669995945,370.11768669995945,370.11768669995945,370.8199321000138,,,,,,,,,,,,,,,,,,,,,,,,,,,,,,right,1.0,0.6862124999752268,,,,,sub-195,1,random_dot,59.81004330430504,
right,right,20.0,0.0,10.0,right,1.0,1.0187206999398768,,accuracy,space,3.139374800026417,,,,,,0.0,1.0,1.0,0.0,10.0,0.0,20.0,1.0,370.8350695000263,,,,,,,,,370.8203734999988,370.91908529994544,371.7207341999747,371.70478719996754,371.7052837000229,371.7207341999747,371.7207341999747,371.7207341999747,372.7565704999725,,,,,,,,,,,,,,,,,,,,,,,,,,,,,,right,1.0,1.0187206999398768,,,,,sub-195,1,random_dot,59.81004330430504,
left,left,21.0,1.0,10.0,left,1.0,0.7690552000422031,,accuracy,space,3.139374800026417,,,,,,0.0,1.0,1.0,0.0,10.0,1.0,21.0,0.0,372.7719097000081,,,,,,,,,372.7570045000175,373.9568900000304,374.75819610001054,374.7420715999324,374.7424953000154,374.75819610001054,374.75819610001054,374.75819610001054,375.544529399951,,,,,,,,,,,,,,,,,,,,,,,,,,,,,,left,1.0,0.7690552000422031,,,,,sub-195,1,random_dot,59.81004330430504,
right,right,22.0,0.0,11.0,right,1.0,0.6548479000339285,,accuracy,space,3.139374800026417,,,,,,0.0,1.0,1.0,0.0,11.0,0.0,22.0,1.0,375.5597420999548,,,,,,,,,375.5449364000233,375.91021200001705,376.71103699994273,376.6946445000358,376.6949097999605,376.71103699994273,376.71103699994273,376.71103699994273,377.3800101999659,,,,,,,,,,,,,,,,,,,,,,,,,,,,,,right,1.0,0.6548479000339285,,,,,sub-195,1,random_dot,59.81004330430504,
left,left,23.0,1.0,11.0,left,1.0,0.6790694000665098,,accuracy,space,3.139374800026417,,,,,,0.0,1.0,1.0,0.0,11.0,1.0,23.0,0.0,377.3957786000101,,,,,,,,,377.3803874000441,377.72941819997504,378.5303733999608,378.5147115000291,378.51500729995314,378.5303733999608,378.5303733999608,378.5303733999608,379.216105200001,,,,,,,,,,,,,,,,,,,,,,,,,,,,,,left,1.0,0.6790694000665098,,,,,sub-195,1,random_dot,59.81004330430504,
right,right,24.0,0.0,12.0,right,1.0,1.1113584000850096,,accuracy,space,3.139374800026417,,,,,,0.0,1.0,1.0,0.0,12.0,0.0,24.0,1.0,379.2319311000174,,,,,,,,,379.21641590003856,380.0157718999544,380.8174096000148,380.8010268999497,380.8013149000472,380.8174096000148,380.8174096000148,380.8174096000148,381.9378293999471,,,,,,,,,,,,,,,,,,,,,,,,,,,,,,right,1.0,1.1113584000850096,,,,,sub-195,1,random_dot,59.81004330430504,
left,left,25.0,1.0,12.0,left,1.0,0.607157799997367,,accuracy,space,3.139374800026417,,,,,,0.0,1.0,1.0,0.0,12.0,1.0,25.0,0.0,381.9526041999925,,,,,,,,,381.9382232000353,382.0520367999561,382.854046799941,382.83782040001824,382.8382574999705,382.854046799941,382.854046799941,382.854046799941,383.4732617000118,,,,,,,,,,,,,,,,,,,,,,,,,,,,,,left,1.0,0.607157799997367,,,,,sub-195,1,random_dot,59.81004330430504,
right,right,26.0,0.0,13.0,right,1.0,0.6196675000246614,,accuracy,space,3.139374800026417,,,,,,0.0,1.0,1.0,0.0,13.0,0.0,26.0,1.0,383.4876403999515,,,,,,,,,383.473721700022,384.6732160999673,385.474891699967,385.4585393000161,385.4590012000408,385.474891699967,385.474891699967,385.474891699967,386.109762200038,,,,,,,,,,,,,,,,,,,,,,,,,,,,,,right,1.0,0.6196675000246614,,,,,sub-195,1,random_dot,59.81004330430504,
left,left,27.0,1.0,13.0,left,1.0,0.7449722000164911,,accuracy,space,3.139374800026417,,,,,,0.0,1.0,1.0,0.0,13.0,1.0,27.0,0.0,386.1253650999861,,,,,,,,,386.1101856000023,386.47585809999146,387.27739119995385,387.2611320000142,387.2616820000112,387.27739119995385,387.27739119995385,387.27739119995385,388.0295392000117,,,,,,,,,,,,,,,,,,,,,,,,,,,,,,left,1.0,0.7449722000164911,,,,,sub-195,1,random_dot,59.81004330430504,
right,right,28.0,0.0,14.0,right,1.0,0.698625799966976,,accuracy,space,3.139374800026417,,,,,,0.0,1.0,1.0,0.0,14.0,0.0,28.0,1.0,388.0452674999833,,,,,,,,,388.0299202000024,388.14511529996525,388.946732899989,388.9301407999592,388.93046950001735,388.946732899989,388.946732899989,388.946732899989,389.6486980000045,,,,,,,,,,,,,,,,,,,,,,,,,,,,,,right,1.0,0.698625799966976,,,,,sub-195,1,random_dot,59.81004330430504,
left,left,29.0,1.0,14.0,left,1.0,0.7202780999941751,,accuracy,space,3.139374800026417,,,,,,0.0,1.0,1.0,0.0,14.0,1.0,29.0,0.0,389.6642877999693,,,,,,,,,389.6489512999542,389.99794509995263,390.7995742999483,390.7831194000319,390.783399399952,390.7995742999483,390.7995742999483,390.7995742999483,391.534932199982,,,,,,,,,,,,,,,,,,,,,,,,,,,,,,left,1.0,0.7202780999941751,,,,,sub-195,1,random_dot,59.81004330430504,
right,right,30.0,0.0,15.0,right,1.0,0.4884430000092834,,accuracy,space,3.139374800026417,,,,,,0.0,1.0,1.0,0.0,15.0,0.0,30.0,1.0,391.55001140001696,,,,,,,,,391.5352405000013,392.7354447999969,393.5370285999961,393.520587899955,393.5210010999581,393.5370285999961,393.5370285999961,393.5370285999961,394.0382685000077,,,,,,,,,,,,,,,,,,,,,,,,,,,,,,right,1.0,0.4884430000092834,,,,,sub-195,1,random_dot,59.81004330430504,
left,left,31.0,1.0,15.0,left,1.0,0.5658763999817893,,accuracy,space,3.139374800026417,,,,,,0.0,1.0,1.0,0.0,15.0,1.0,31.0,0.0,394.054247800028,,,,,,,,,394.03860109997913,394.3879091000417,395.18956790002994,395.1730593999382,395.1733799999347,395.18956790002994,395.18956790002994,395.18956790002994,395.7579784999834,,,,,,,,,,,,,,,,,,,,,,,,,,,,,,left,1.0,0.5658763999817893,,,,,sub-195,1,random_dot,59.81004330430504,
left,left,32.0,0.0,16.0,left,1.0,0.564994900021702,,accuracy,space,3.139374800026417,,,,,,0.0,1.0,1.0,0.0,16.0,0.0,32.0,0.0,395.772954300046,,,,,,,,,395.7582947999472,396.95843729993794,397.7600840999512,397.7435065000318,397.743769899942,397.7600840999512,397.7600840999512,397.7600840999512,398.3284857999533,,,,,,,,,,,,,,,,,,,,,,,,,,,,,,left,1.0,0.564994900021702,,,,,sub-195,1,random_dot,59.81004330430504,
right,right,33.0,1.0,16.0,right,1.0,0.522200100007467,,accuracy,space,3.139374800026417,,,,,,0.0,1.0,1.0,0.0,16.0,1.0,33.0,1.0,398.3434966999339,,,,,,,,,398.3287162999623,399.529139899998,400.3307372999843,400.31422559998464,400.31450790003873,400.3307372999843,400.3307372999843,400.3307372999843,400.8655136999441,,,,,,,,,,,,,,,,,,,,,,,,,,,,,,right,1.0,0.522200100007467,,,,,sub-195,1,random_dot,59.81004330430504,
left,left,34.0,0.0,17.0,left,1.0,0.6418316999915987,,accuracy,space,3.139374800026417,,,,,,0.0,1.0,1.0,0.0,17.0,0.0,34.0,0.0,400.88139090000186,,,,,,,,,400.86583729996346,400.9811566999415,401.7828183999518,401.7663228999591,401.76655810000375,401.7828183999518,401.7828183999518,401.7828183999518,402.4344665999524,,,,,,,,,,,,,,,,,,,,,,,,,,,,,,left,1.0,0.6418316999915987,,,,,sub-195,1,random_dot,59.81004330430504,
right,right,35.0,1.0,17.0,right,1.0,0.5407740999944508,,accuracy,space,3.139374800026417,,,,,,0.0,1.0,1.0,0.0,17.0,1.0,35.0,1.0,402.4502606999595,,,,,,,,,402.4347590999678,402.53392039996106,403.3347686999477,403.3182616999839,403.3185478999512,403.3347686999477,403.3347686999477,403.3347686999477,403.88665959995706,,,,,,,,,,,,,,,,,,,,,,,,,,,,,,right,1.0,0.5407740999944508,,,,,sub-195,1,random_dot,59.81004330430504,
left,left,36.0,0.0,18.0,left,1.0,0.55415510002058,,accuracy,space,3.139374800026417,,,,,,0.0,1.0,1.0,0.0,18.0,0.0,36.0,0.0,403.9020467000082,,,,,,,,,403.8870695999358,403.98604929994326,404.78722409997135,404.7703751999652,404.7706060999772,404.78722409997135,404.78722409997135,404.78722409997135,405.3552095999476,,,,,,,,,,,,,,,,,,,,,,,,,,,,,,left,1.0,0.55415510002058,,,,,sub-195,1,random_dot,59.81004330430504,
right,right,37.0,1.0,18.0,right,1.0,0.4738033000612631,,accuracy,space,3.139374800026417,,,,,,0.0,1.0,1.0,0.0,18.0,1.0,37.0,1.0,405.3711159999948,,,,,,,,,405.3554399999557,406.1559112999821,406.9575041999342,406.9409826999763,406.9412363000447,406.9575041999342,406.9575041999342,406.9575041999342,407.4422101000091,,,,,,,,,,,,,,,,,,,,,,,,,,,,,,right,1.0,0.4738033000612631,,,,,sub-195,1,random_dot,59.81004330430504,
right,right,38.0,0.0,19.0,right,1.0,0.6265716999769211,,accuracy,space,3.139374800026417,,,,,,0.0,1.0,1.0,0.0,19.0,0.0,38.0,1.0,407.4579490999458,,,,,,,,,407.4426209999947,407.7917044999776,408.5932463000063,408.57670939993113,408.57716480002273,408.5932463000063,408.5932463000063,408.5932463000063,409.2278996999376,,,,,,,,,,,,,,,,,,,,,,,,,,,,,,right,1.0,0.6265716999769211,,,,,sub-195,1,random_dot,59.81004330430504,
left,left,39.0,1.0,19.0,left,1.0,0.551421600044705,,accuracy,space,3.139374800026417,,,,,,0.0,1.0,1.0,0.0,19.0,1.0,39.0,0.0,409.2438654999714,,,,,,,,,409.2281273000408,409.3276614999632,410.1284242999973,410.11181180004496,410.11211630003527,410.1284242999973,410.1284242999973,410.1284242999973,410.6970719000092,,,,,,,,,,,,,,,,,,,,,,,,,,,,,,left,1.0,0.551421600044705,,,,,sub-195,1,random_dot,59.81004330430504,
right,right,40.0,0.0,20.0,right,1.0,0.5231967000290751,,accuracy,space,3.139374800026417,,,,,,0.0,1.0,1.0,0.0,20.0,0.0,40.0,1.0,410.71265010000207,,,,,,,,,410.6974333999679,410.7963883000193,411.5974786999868,411.5805911000352,411.5808715999592,411.5974786999868,411.5974786999868,411.5974786999868,412.1322783000069,,,,,,,,,,,,,,,,,,,,,,,,,,,,,,right,1.0,0.5231967000290751,,,,,sub-195,1,random_dot,59.81004330430504,
left,left,41.0,1.0,20.0,left,1.0,0.4521875999635085,,accuracy,space,3.139374800026417,,,,,,0.0,1.0,1.0,0.0,20.0,1.0,41.0,0.0,412.148133300012,,,,,,,,,412.1326487000333,412.4815304999938,413.28344309993554,413.26691949996166,413.2672043000348,413.28344309993554,413.28344309993554,413.28344309993554,413.7518345999997,,,,,,,,,,,,,,,,,,,,,,,,,,,,,,left,1.0,0.4521875999635085,,,,,sub-195,1,random_dot,59.81004330430504,
right,right,42.0,0.0,21.0,right,1.0,0.5627990000648424,,accuracy,space,3.139374800026417,,,,,,0.0,1.0,1.0,0.0,21.0,0.0,42.0,1.0,413.7670592999784,,,,,,,,,413.7521064999746,414.10177529999055,414.90286669996567,414.8857442999724,414.88606269995216,414.90286669996567,414.90286669996567,414.90286669996567,415.47079539997503,,,,,,,,,,,,,,,,,,,,,,,,,,,,,,right,1.0,0.5627990000648424,,,,,sub-195,1,random_dot,59.81004330430504,
left,left,43.0,1.0,21.0,left,1.0,0.6591106000123546,,accuracy,space,3.139374800026417,,,,,,0.0,1.0,1.0,0.0,21.0,1.0,43.0,0.0,415.4866125000408,,,,,,,,,415.4711581999436,415.5705261999974,416.3715855999617,416.3544174999697,416.3546694000252,416.3715855999617,416.3715855999617,416.3715855999617,417.0404917999404,,,,,,,,,,,,,,,,,,,,,,,,,,,,,,left,1.0,0.6591106000123546,,,,,sub-195,1,random_dot,59.81004330430504,
left,left,44.0,0.0,22.0,left,1.0,0.5505946999182925,,accuracy,space,3.139374800026417,,,,,,0.0,1.0,1.0,0.0,22.0,0.0,44.0,0.0,417.05616359994747,,,,,,,,,417.04082560003735,417.3898264999734,418.19061879999936,418.1740669000428,418.1743233000161,418.19061879999936,418.19061879999936,418.19061879999936,418.7424370000372,,,,,,,,,,,,,,,,,,,,,,,,,,,,,,left,1.0,0.5505946999182925,,,,,sub-195,1,random_dot,59.81004330430504,
right,right,45.0,1.0,22.0,right,1.0,0.512790200067684,,accuracy,space,3.139374800026417,,,,,,0.0,1.0,1.0,0.0,22.0,1.0,45.0,1.0,418.7581331999973,,,,,,,,,418.74272710003424,418.8418937999522,419.6428243999835,419.62690359994303,419.62714420002885,419.6428243999835,419.6428243999835,419.6428243999835,420.16169670003,,,,,,,,,,,,,,,,,,,,,,,,,,,,,,right,1.0,0.512790200067684,,,,,sub-195,1,random_dot,59.81004330430504,
right,right,46.0,0.0,23.0,right,1.0,0.5395341999828815,,accuracy,space,3.139374800026417,,,,,,0.0,1.0,1.0,0.0,23.0,0.0,46.0,1.0,420.1775326000061,,,,,,,,,420.1619338999735,420.27728819998447,421.0789874999318,421.0625155000016,421.062877099961,421.0789874999318,421.0789874999318,421.0789874999318,421.6307133999653,,,,,,,,,,,,,,,,,,,,,,,,,,,,,,right,1.0,0.5395341999828815,,,,,sub-195,1,random_dot,59.81004330430504,
left,left,47.0,1.0,23.0,left,1.0,0.4971683999756351,,accuracy,space,3.139374800026417,,,,,,0.0,1.0,1.0,0.0,23.0,1.0,47.0,0.0,421.6463768000249,,,,,,,,,421.6311849999474,421.7461510000285,422.54789479996543,422.53137300000526,422.53169360000174,422.54789479996543,422.54789479996543,422.54789479996543,423.0501010000007,,,,,,,,,,,,,,,,,,,,,,,,,,,,,,left,1.0,0.4971683999756351,,,,,sub-195,1,random_dot,59.81004330430504,
left,left,48.0,0.0,24.0,left,1.0,0.6294758000876755,,accuracy,space,3.139374800026417,,,,,,0.0,1.0,1.0,0.0,24.0,0.0,48.0,0.0,423.06499560002703,,,,,,,,,423.0505060999421,423.8497562999837,424.6506581000285,424.6338191999821,424.63409720000345,424.6506581000285,424.6506581000285,424.6506581000285,425.2857411999721,,,,,,,,,,,,,,,,,,,,,,,,,,,,,,left,1.0,0.6294758000876755,,,,,sub-195,1,random_dot,59.81004330430504,
right,right,49.0,1.0,24.0,right,1.0,0.5146328000118956,,accuracy,space,3.139374800026417,,,,,,0.0,1.0,1.0,0.0,24.0,1.0,49.0,1.0,425.3019546000287,,,,,,,,,425.28596979996655,426.0857725000242,426.88748819998,426.8709965000162,426.871313999989,426.88748819998,426.88748819998,426.88748819998,427.4058049999876,,,,,,,,,,,,,,,,,,,,,,,,,,,,,,right,1.0,0.5146328000118956,,,,,sub-195,1,random_dot,59.81004330430504,
left,left,50.0,0.0,25.0,left,1.0,0.5977560000028461,,accuracy,space,3.139374800026417,,,,,,0.0,1.0,1.0,0.0,25.0,0.0,50.0,0.0,427.4214159999974,,,,,,,,,427.4060369000072,428.2061544000171,429.00713629997335,428.9913626000052,428.99164349993225,429.00713629997335,429.00713629997335,429.00713629997335,429.6092160999542,,,,,,,,,,,,,,,,,,,,,,,,,,,,,,left,1.0,0.5977560000028461,,,,,sub-195,1,random_dot,59.81004330430504,
right,right,51.0,1.0,25.0,right,1.0,0.605538500007242,,accuracy,space,3.139374800026417,,,,,,0.0,1.0,1.0,0.0,25.0,1.0,51.0,1.0,429.6247504999628,,,,,,,,,429.60945939994417,429.7085573000368,430.5096897999756,430.4927815999836,430.493078700034,430.5096897999756,430.5096897999756,430.5096897999756,431.1281246000435,,,,,,,,,,,,,,,,,,,,,,,,,,,,,,right,1.0,0.605538500007242,,,,,sub-195,1,random_dot,59.81004330430504,
right,right,52.0,0.0,26.0,right,1.0,0.5506462999619544,,accuracy,space,3.139374800026417,,,,,,0.0,1.0,1.0,0.0,26.0,0.0,52.0,1.0,431.1439384999685,,,,,,,,,431.1284805999603,432.3284553999547,433.13024349999614,433.1140879000304,433.1143248999724,433.13024349999614,433.13024349999614,433.13024349999614,433.6818987999577,,,,,,,,,,,,,,,,,,,,,,,,,,,,,,right,1.0,0.5506462999619544,,,,,sub-195,1,random_dot,59.81004330430504,
left,left,53.0,1.0,26.0,left,1.0,0.6016005000565201,,accuracy,space,3.139374800026417,,,,,,0.0,1.0,1.0,0.0,26.0,1.0,53.0,0.0,433.697762100026,,,,,,,,,433.6821355000138,434.48248510004487,435.28308940003626,435.2670572999632,435.2673688000068,435.28308940003626,435.28308940003626,435.28308940003626,435.8863780000247,,,,,,,,,,,,,,,,,,,,,,,,,,,,,,left,1.0,0.6016005000565201,,,,,sub-195,1,random_dot,59.81004330430504,
right,right,54.0,0.0,27.0,right,1.0,0.9297971000196412,,accuracy,space,3.139374800026417,,,,,,0.0,1.0,1.0,0.0,27.0,0.0,54.0,1.0,435.9011040999321,,,,,,,,,435.886694899993,436.0008175999392,436.8025262999581,436.7860471999738,436.7863229999784,436.8025262999581,436.8025262999581,436.8025262999581,437.738134299987,,,,,,,,,,,,,,,,,,,,,,,,,,,,,,right,1.0,0.9297971000196412,,,,,sub-195,1,random_dot,59.81004330430504,
left,left,55.0,1.0,27.0,left,1.0,0.7839220999740064,,accuracy,space,3.139374800026417,,,,,,0.0,1.0,1.0,0.0,27.0,1.0,55.0,0.0,437.7538361999905,,,,,,,,,437.738373399945,438.9386990999337,439.74033669999335,439.72387630003504,439.7241475000046,439.74033669999335,439.74033669999335,439.74033669999335,440.5262703000335,,,,,,,,,,,,,,,,,,,,,,,,,,,,,,left,1.0,0.7839220999740064,,,,,sub-195,1,random_dot,59.81004330430504,
left,left,56.0,0.0,28.0,left,1.0,0.5711411000229418,,accuracy,space,3.139374800026417,,,,,,0.0,1.0,1.0,0.0,28.0,0.0,56.0,0.0,440.5416750999866,,,,,,,,,440.52671030000784,440.89221339998767,441.6934076999314,441.6765841000015,441.6768973999424,441.6934076999314,441.6934076999314,441.6934076999314,442.2784354999894,,,,,,,,,,,,,,,,,,,,,,,,,,,,,,left,1.0,0.5711411000229418,,,,,sub-195,1,random_dot,59.81004330430504,
right,right,57.0,1.0,28.0,right,1.0,0.5296040000393987,,accuracy,space,3.139374800026417,,,,,,0.0,1.0,1.0,0.0,28.0,1.0,57.0,1.0,442.2940818000352,,,,,,,,,442.2789858999895,443.0787737999344,443.87977570004296,443.864096299978,443.8645296000177,443.87977570004296,443.87977570004296,443.87977570004296,444.415502000018,,,,,,,,,,,,,,,,,,,,,,,,,,,,,,right,1.0,0.5296040000393987,,,,,sub-195,1,random_dot,59.81004330430504,
left,left,58.0,0.0,29.0,left,1.0,0.5686693000607193,,accuracy,space,3.139374800026417,,,,,,0.0,1.0,1.0,0.0,29.0,0.0,58.0,0.0,444.4312730999664,,,,,,,,,444.41585250000935,445.215044499957,446.0167376999743,446.0004879999906,446.00075380003545,446.0167376999743,446.0167376999743,446.0167376999743,446.602006400004,,,,,,,,,,,,,,,,,,,,,,,,,,,,,,left,1.0,0.5686693000607193,,,,,sub-195,1,random_dot,59.81004330430504,
right,right,59.0,1.0,29.0,right,1.0,0.5800043999915943,,accuracy,space,3.139374800026417,,,,,,0.0,1.0,1.0,0.0,29.0,1.0,59.0,1.0,446.6178285999922,,,,,,,,,446.6022693000268,446.9515443999553,447.75211580004543,447.735640799976,447.73593059997074,447.75211580004543,447.75211580004543,447.75211580004543,448.3377334999386,,,,,,,,,,,,,,,,,,,,,,,,,,,,,,right,1.0,0.5800043999915943,,,,,sub-195,1,random_dot,59.81004330430504,
,,1.0,1.0,0.0,,,,,accuracy,space,3.139374800026417,,,,,,0.0,1.0,1.0,0.0,,,,,,,,,,,,,,,,,,,,,,,,,,,,,,,,,,,,,,,,,,,,,,,,,,,,,,,,,,,sub-195,1,random_dot,59.81004330430504,
,,,,,,,,,,,,,,,,,,,,,,,,,,,,,,,,,,,,,,,,,,,,,,,,,,,,,,,,,,,,,,,,,,,,,,,,,,,,448.34182259999216,448.3535066000186,453.3444953999715,sub-195,1,random_dot,59.81004330430504,
